exp_question,consent.started,consent.stopped,consentResponse.keys,consentResponse.rt,consentResponse.duration,participantID,date,expName,psychopyVersion,OS,frameRate,STUDY_ID,SESSION_ID,opening1.started,opening1.stopped,keyEndingOpening1.keys,keyEndingOpening1.rt,keyEndingOpening1.duration,volumeAdjust.started,volumeAdjust.stopped,endingAdjust.keys,endingAdjust.rt,endingAdjust.duration,opening2.started,opening2.stopped,keyEndingOpening.keys,keyEndingOpening.rt,keyEndingOpening.duration,mouse.x,mouse.y,mouse.leftButton,mouse.midButton,mouse.rightButton,mouse.time,instructionLoop.thisRepN,instructionLoop.thisTrialN,instructionLoop.thisN,instructionLoop.thisIndex,instructionLoop.ran,readyForAudio.started,readyForAudio.stopped,fixation.started,run,audio_played,fixation.stopped,endPractice.keys,audioPre.started,audioPre.stopped,continuousResponses_audio,continuousSlider.response,continuousSlider.rt,intRating.started,intRating.stopped,intQuestionSlider.response,intQuestionSlider.rt,intQuestionSlider.history,confirmResponse.keys,confirmResponse.rt,confirmResponse.duration,catchQuestion.started,catch_label,catch_value,catchQuestion.stopped,catchQuestionSlider.response,catchQuestionSlider.rt,catchQuestionSlider.history,confirmResponse_2.keys,audioRunLoop.thisRepN,audioRunLoop.thisTrialN,audioRunLoop.thisN,audioRunLoop.thisIndex,audioRunLoop.ran,conditions1_1,conditions2_1,conditions1_2,conditions2_2,dur1_1,dur2_1,dur1_2,dur2_2,endPractice.rt,endPractice.duration,confirmResponse_2.rt,confirmResponse_2.duration,runIntervalBreak.started,runIntervalBreak.stopped,endingBreakKey.keys,endingBreakKey.rt,endingBreakKey.duration,connection.started,connection.stopped,connectionEnding.keys,connectionEnding.rt,connectionEnding.duration,readyForText.started,readyForText.stopped,textPre.started,run_dup,textPre.stopped,continuousResponses_text,textRunLoop.thisRepN,textRunLoop.thisTrialN,textRunLoop.thisN,textRunLoop.thisIndex,textRunLoop.ran,text1_1,text1_2,text2_1,text2_2,runBreakText.started,runBreakText.stopped,endingBreakKey_2.keys,endingBreakKey_2.rt,endingBreakKey_2.duration,ending.started,ending.stopped,endingEnding.keys,endingEnding.rt,endingEnding.duration
tom,0.0006,30.5303,y,30.1924,,55fc5cbf77f33b0005cb244f,2024-05-13_11h53.20.549,group3.1-3.2-social-tom,2023.2.2,Win32,30.03003003,65c5074098b851296ff0b7ed,664236ff4b6b864db326d78b,,,,,,,,,,,,,,,,,,,,,,,,,,,,,,,,,,,,,,,,,,,,,,,,,,,,,,,,,,,,,,,,,,,,,,,,,,,,,,,,,,,,,,,,,,,,,,,,,,,,,,,,,,
,,,,,,55fc5cbf77f33b0005cb244f,2024-05-13_11h53.20.549,group3.1-3.2-social-tom,2023.2.2,Win32,30.03003003,65c5074098b851296ff0b7ed,664236ff4b6b864db326d78b,30.531,39.0674,space,8.4511,,,,,,,,,,,,,,,,,,,,,,,,,,,,,,,,,,,,,,,,,,,,,,,,,,,,,,,,,,,,,,,,,,,,,,,,,,,,,,,,,,,,,,,,,,,,,,,,,,,,,,
,,,,,,55fc5cbf77f33b0005cb244f,2024-05-13_11h53.20.549,group3.1-3.2-social-tom,2023.2.2,Win32,30.03003003,65c5074098b851296ff0b7ed,664236ff4b6b864db326d78b,,,,,,39.0679,53.6113,space,14.198,,,,,,,,,,,,,,,,,,,,,,,,,,,,,,,,,,,,,,,,,,,,,,,,,,,,,,,,,,,,,,,,,,,,,,,,,,,,,,,,,,,,,,,,,,,,,,,,,
,,,,,,55fc5cbf77f33b0005cb244f,2024-05-13_11h53.20.549,group3.1-3.2-social-tom,2023.2.2,Win32,30.03003003,65c5074098b851296ff0b7ed,664236ff4b6b864db326d78b,,,,,,,,,,,53.6587,82.8543,space,29.1683,,[],[],[],[],[],[],0,0,0,0,1,,,,,,,,,,,,,,,,,,,,,,,,,,,,,,,,,,,,,,,,,,,,,,,,,,,,,,,,,,,,,,,,,,,,,,,,,,,,,,,,
,,,,,,55fc5cbf77f33b0005cb244f,2024-05-13_11h53.20.549,group3.1-3.2-social-tom,2023.2.2,Win32,30.03003003,65c5074098b851296ff0b7ed,664236ff4b6b864db326d78b,,,,,,,,,,,82.8645,135.0107,space,52.0173,,[],[],[],[],[],[],1,0,1,0,1,,,,,,,,,,,,,,,,,,,,,,,,,,,,,,,,,,,,,,,,,,,,,,,,,,,,,,,,,,,,,,,,,,,,,,,,,,,,,,,,
,,,,,,55fc5cbf77f33b0005cb244f,2024-05-13_11h53.20.549,group3.1-3.2-social-tom,2023.2.2,Win32,30.03003003,65c5074098b851296ff0b7ed,664236ff4b6b864db326d78b,,,,,,,,,,,135.0286,152.8351,space,17.7242,,[],[],[],[],[],[],2,0,2,0,1,,,,,,,,,,,,,,,,,,,,,,,,,,,,,,,,,,,,,,,,,,,,,,,,,,,,,,,,,,,,,,,,,,,,,,,,,,,,,,,,
,,,,,,55fc5cbf77f33b0005cb244f,2024-05-13_11h53.20.549,group3.1-3.2-social-tom,2023.2.2,Win32,30.03003003,65c5074098b851296ff0b7ed,664236ff4b6b864db326d78b,,,,,,,,,,,152.8532,186.2841,space,33.3895,,[],[],[],[],[],[],3,0,3,0,1,,,,,,,,,,,,,,,,,,,,,,,,,,,,,,,,,,,,,,,,,,,,,,,,,,,,,,,,,,,,,,,,,,,,,,,,,,,,,,,,
,,,,,,55fc5cbf77f33b0005cb244f,2024-05-13_11h53.20.549,group3.1-3.2-social-tom,2023.2.2,Win32,30.03003003,65c5074098b851296ff0b7ed,664236ff4b6b864db326d78b,,,,,,,,,,,186.3009,215.6975,space,29.3617,,[],[],[],[],[],[],4,0,4,0,1,,,,,,,,,,,,,,,,,,,,,,,,,,,,,,,,,,,,,,,,,,,,,,,,,,,,,,,,,,,,,,,,,,,,,,,,,,,,,,,,
,,,,,,55fc5cbf77f33b0005cb244f,2024-05-13_11h53.20.549,group3.1-3.2-social-tom,2023.2.2,Win32,30.03003003,65c5074098b851296ff0b7ed,664236ff4b6b864db326d78b,,,,,,,,,,,,,,,,,,,,,,,,,,,215.7208,218.2992,218.3794,1,audio/Narrative13Situation2.wav,220.3998,,220.4006,250.2147,"[[999,3],[999,200],[999,265],[999,331],[999,399],[999,465],[999,531],[999,598],[999,665],[999,732],[999,798],[999,865],[999,932],[999,998],[999,1065],[999,1131],[999,1198],[999,1265],[999,1332],[999,1398],[999,1465],[999,1532],[999,1598],[999,1665],[999,1732],[999,1799],[999,1865],[999,1932],[999,1998],[999,2065],[999,2132],[999,2199],[999,2265],[999,2332],[999,2399],[999,2466],[999,2533],[999,2599],[999,2665],[999,2732],[999,2799],[999,2866],[999,2932],[999,2999],[999,3066],[999,3132],[999,3199],[999,3266],[999,3334],[999,3399],[999,3466],[999,3533],[999,3599],[999,3666],[999,3733],[999,3799],[999,3866],[999,3933],[999,3999],[999,4066],[999,4133],[999,4199],[999,4266],[999,4333],[999,4400],[999,4466],[999,4533],[999,4600],[999,4666],[999,4733],[999,4800],[999,4866],[999,4933],[999,5000],[999,5067],[999,5134],[999,5200],[999,5267],[999,5333],[999,5400],[999,5467],[999,5534],[999,5600],[999,5667],[999,5734],[999,5801],[999,5867],[999,5934],[999,6000],[999,6067],[999,6134],[999,6200],[999,6267],[999,6334],[999,6401],[999,6468],[999,6534],[999,6601],[999,6668],[999,6734],[999,6801],[999,6868],[999,6934],[999,7001],[999,7068],[999,7134],[999,7201],[999,7268],[999,7335],[999,7401],[999,7468],[999,7534],[999,7601],[999,7668],[999,7735],[999,7801],[999,7868],[999,7935],[999,8001],[999,8068],[999,8135],[999,8201],[999,8268],[999,8335],[999,8402],[999,8468],[999,8535],[999,8602],[999,8668],[999,8735],[999,8802],[999,8868],[999,8935],[999,9002],[999,9068],[999,9135],[999,9202],[999,9269],[999,9335],[999,9402],[999,9469],[999,9535],[999,9602],[999,9669],[999,9735],[999,9802],[999,9869],[999,9936],[999,10002],[999,10069],[999,10136],[999,10202],[999,10269],[999,10336],[999,10402],[999,10469],[999,10536],[999,10603],[999,10669],[999,10736],[999,10803],[999,10869],[999,10936],[999,11003],[999,11069],[999,11136],[999,11203],[999,11270],[999,11336],[999,11403],[999,11470],[999,11536],[999,11603],[999,11670],[999,11736],[999,11803],[999,11870],[999,11937],[999,12005],[999,12071],[999,12138],[61.3,12204],[57.3,12271],[56,12338],[54.4,12405],[52.8,12471],[51.8,12538],[51,12605],[50.6,12672],[50.3,12738],[50.3,12804],[50.3,12870],[50.4,12939],[52.2,13006],[54.8,13071],[56,13138],[57.2,13205],[57.9,13271],[58.8,13338],[59.2,13405],[59.2,13471],[59.2,13537],[59.2,13604],[59.2,13671],[59.2,13737],[59.2,13804],[59.2,13871],[59.2,13938],[59.2,14004],[59.2,14071],[59.2,14138],[59.2,14205],[59.2,14271],[59.2,14338],[59.2,14404],[59.2,14471],[59.2,14538],[59.2,14604],[59.2,14671],[59.2,14738],[59.2,14805],[59.2,14871],[59.2,14938],[59.2,15004],[59.2,15071],[59.2,15138],[59.2,15205],[59.2,15271],[59.2,15338],[59.2,15405],[59.2,15472],[59.2,15539],[59.2,15605],[59.2,15672],[59.2,15738],[59.2,15805],[59.2,15872],[59.2,15939],[59.2,16006],[59.2,16072],[59.2,16139],[59.2,16205],[59.2,16272],[58.2,16340],[55.9,16407],[53.5,16473],[51.5,16540],[49.6,16608],[48.7,16673],[48.5,16739],[48.5,16806],[48.5,16872],[48.5,16939],[48.5,17006],[48.5,17072],[48.5,17139],[48.4,17206],[45.5,17273],[41.4,17340],[37.1,17406],[34.8,17473],[33.2,17540],[32.1,17606],[31,17674],[30.2,17740],[30.1,17806],[30.1,17873],[30.1,17939],[30.1,18006],[30.1,18073],[30.1,18139],[29.8,18207],[29.5,18274],[29.4,18339],[29.4,18406],[29.4,18473],[29.4,18540],[29.4,18606],[29.4,18673],[29.4,18739],[29.4,18806],[29.4,18873],[29.4,18940],[29.4,19006],[29.4,19073],[29.4,19140],[29.4,19206],[29.4,19273],[29.4,19340],[29.4,19407],[29.4,19473],[29.4,19540],[29.4,19607],[29.4,19673],[29.4,19740],[29.4,19807],[29.4,19873],[29.4,19940],[29.4,20007],[29.4,20074],[29.4,20140],[29.4,20207],[29.4,20274],[29.4,20340],[29.4,20407],[29.4,20474],[29.4,20540],[29.4,20607],[29.4,20674],[29.4,20740],[29.4,20807],[29.4,20874],[29.4,20941],[29.4,21007],[29.4,21074],[29.4,21141],[29.4,21208],[29.4,21275],[29.4,21341],[29.4,21408],[29.4,21474],[29.4,21541],[29.4,21608],[29.4,21674],[29.4,21741],[29.4,21808],[28.9,21876],[28.3,21942],[27.6,22008],[27.3,22075],[27,22142],[26.9,22208],[26.7,22276],[26.6,22342],[26.3,22408],[25.8,22476],[25.4,22542],[25.4,22608],[25.4,22675],[25.4,22741],[25.4,22808],[25.4,22875],[25.4,22942],[25.4,23008],[25.4,23075],[25.4,23141],[25.4,23208],[25.4,23275],[25.4,23342],[25.4,23408],[25.4,23475],[25.4,23542],[25.4,23609],[25.4,23675],[25.4,23742],[25.4,23809],[25.4,23875],[25.4,23942],[25.4,24008],[25.4,24075],[25.4,24142],[25.4,24209],[25.4,24275],[25.4,24342],[25.4,24409],[25.4,24476],[25.4,24542],[25.4,24609],[25.4,24676],[25.4,24742],[25.4,24809],[25.4,24876],[25.4,24943],[25.4,25009],[25.4,25076],[25.4,25143],[25.4,25209],[25.4,25276],[25.4,25343],[25.4,25409],[25.4,25476],[25.4,25543],[25.4,25609],[25.4,25676],[25.4,25743],[25.4,25809],[25.4,25876],[25.4,25943],[25.4,26011],[25.4,26076],[25.4,26143],[25.4,26210],[25.4,26276],[25.4,26343],[25.4,26410],[25.4,26477],[25.4,26543],[25.4,26610],[25.4,26677],[25.4,26743],[25.4,26810],[25.4,26877],[25.4,26943],[25.4,27010],[25.4,27077],[25.4,27144],[25.4,27210],[25.4,27277],[25.4,27344],[25.4,27411],[25.4,27477],[25.4,27544],[25.4,27611],[25.4,27678],[25.4,27744],[25.4,27811],[25.4,27877],[25.4,27945],[25.4,28011],[25.4,28078],[25.4,28145],[25.4,28211],[25.4,28278],[25.4,28345],[25.4,28411],[25.4,28478],[25.4,28545],[25.4,28611],[25.4,28677],[25.4,28744],[25.4,28811],[25.4,28877],[25.4,28944],[25.4,29011],[25.4,29078],[25.4,29144],[25.4,29211],[25.4,29278],[25.4,29345],[25.4,29411],[25.4,29478],[25.4,29545],[25.4,29612],[25.4,29701],[25.4,29745],[25.4,29811]]",1,0,250.2155,258.5863,26.86676428,6.1831,"[{""rating"":26.866764275256223,""responseTime"":6.183100000023842}]",space,7.7753,,258.6179,All the time,100,258.6428,,,[],,0,0,0,0,1,audio/Narrative13Situation2.wav,audio/Narrative13Situation2.wav,audio/Narrative13Situation2.wav,audio/Narrative13Situation2.wav,2,2,2,2,,,,,,,,,,,,,,,,,,,,,,,,,,,,,,,,,,,,,,,
,,,,,,55fc5cbf77f33b0005cb244f,2024-05-13_11h53.20.549,group3.1-3.2-social-tom,2023.2.2,Win32,30.03003003,65c5074098b851296ff0b7ed,664236ff4b6b864db326d78b,,,,,,,,,,,,,,,,,,,,,,,,,,,,,258.6438,1,audio/Narrative7Situation1.wav,264.2529,space,264.2531,320.1782,"[[999,21],[999,99],[999,165],[999,232],[999,299],[999,365],[999,433],[999,499],[999,565],[999,632],[999,699],[999,766],[999,832],[999,899],[999,966],[999,1032],[999,1099],[999,1166],[999,1232],[999,1299],[999,1366],[999,1433],[999,1499],[999,1566],[999,1633],[999,1699],[999,1767],[999,1833],[999,1899],[999,1966],[999,2033],[999,2100],[999,2166],[999,2233],[999,2300],[999,2366],[999,2433],[999,2500],[999,2566],[999,2633],[999,2700],[999,2767],[999,2833],[999,2900],[999,2967],[999,3033],[999,3100],[999,3167],[999,3233],[999,3300],[999,3367],[999,3433],[999,3500],[999,3567],[999,3634],[999,3700],[999,3767],[999,3834],[999,3900],[999,3967],[999,4034],[999,4100],[999,4168],[999,4234],[999,4301],[999,4367],[999,4434],[999,4501],[999,4567],[999,4634],[999,4701],[999,4768],[999,4834],[999,4901],[999,4967],[999,5034],[999,5101],[999,5168],[999,5234],[999,5301],[999,5368],[999,5434],[999,5501],[999,5568],[999,5634],[999,5701],[999,5768],[999,5835],[999,5901],[999,5968],[999,6035],[999,6101],[999,6168],[999,6235],[999,6302],[999,6368],[999,6435],[999,6502],[999,6568],[999,6635],[999,6701],[999,6768],[999,6835],[999,6902],[999,6968],[999,7035],[999,7102],[999,7168],[999,7235],[999,7302],[999,7368],[999,7435],[999,7502],[999,7568],[999,7635],[999,7703],[999,7770],[999,7836],[999,7903],[999,7970],[999,8036],[999,8103],[999,8170],[999,8237],[999,8303],[999,8370],[62.4,8436],[63.2,8503],[63.6,8570],[64.1,8637],[64.2,8703],[64.3,8770],[64.3,8836],[64.3,8903],[64.8,8970],[65.4,9036],[65.8,9104],[66,9169],[66,9236],[66,9302],[66,9370],[66,9436],[66,9503],[66,9569],[66,9636],[66,9703],[66,9769],[66,9837],[66,9903],[66,9970],[66,10037],[66,10104],[66,10171],[66,10237],[66,10304],[66,10371],[66,10437],[66,10504],[66,10570],[66,10638],[66,10704],[66,10771],[66,10837],[66,10904],[66,10971],[66,11037],[66,11104],[66,11171],[66,11238],[66,11304],[66,11371],[66,11438],[66,11504],[66,11571],[66,11638],[66,11704],[66,11771],[66,11837],[66,11904],[66,11971],[66,12037],[66,12104],[66,12171],[66,12238],[66,12305],[66,12371],[66,12438],[66,12505],[66,12571],[66,12638],[66,12705],[66,12772],[66,12838],[66,12905],[66,12971],[66,13038],[66,13105],[66,13172],[66,13238],[66,13305],[66,13372],[66,13439],[66,13506],[66,13572],[66,13638],[66,13705],[66,13771],[66,13838],[66,13905],[66,13972],[66,14038],[66,14105],[66,14172],[66,14238],[66,14305],[66,14372],[66,14439],[66,14505],[66,14572],[66,14638],[66,14705],[66,14772],[66,14839],[66,14905],[66,14972],[66,15038],[66,15105],[66,15172],[66,15239],[66,15305],[66,15372],[66,15439],[66,15505],[66,15572],[66,15639],[66,15706],[66,15772],[66,15839],[66,15906],[66,15972],[66,16039],[66,16106],[66,16172],[66,16239],[66,16306],[66,16373],[66,16439],[66,16506],[66,16573],[66,16639],[66,16706],[66,16773],[66,16839],[66,16906],[66,16973],[66,17040],[66,17106],[66,17173],[66,17240],[66,17307],[66,17373],[66,17440],[66,17507],[66,17573],[66,17640],[66,17707],[66,17774],[66,17840],[66,17907],[66,17973],[66,18040],[66,18107],[66,18174],[66,18240],[66,18307],[66,18374],[66,18440],[66,18507],[66,18574],[66,18641],[66,18707],[66,18774],[66,18841],[66,18907],[66,18974],[66,19041],[66,19108],[66,19174],[66,19241],[66,19307],[66,19374],[66,19441],[66,19508],[66,19574],[66,19641],[66,19707],[66,19774],[66,19841],[66,19908],[66,19975],[66,20041],[66,20108],[66,20174],[66,20241],[66,20308],[66,20375],[66,20441],[66,20508],[66,20575],[66,20641],[66,20708],[66,20775],[66,20841],[66,20908],[66,20975],[66,21042],[66,21108],[66,21175],[66,21241],[66,21308],[66,21375],[66,21442],[66,21508],[66,21575],[66,21642],[66,21708],[66,21775],[66,21842],[66,21908],[66,21975],[66,22042],[66,22108],[66,22175],[66,22242],[66,22309],[66,22377],[66,22443],[66,22509],[66,22576],[66,22643],[66,22709],[66,22776],[66,22843],[66,22909],[66,22976],[66,23043],[66,23109],[66,23176],[66,23243],[66,23310],[66,23377],[66,23443],[66,23510],[66,23576],[66,23643],[66,23710],[66,23777],[66,23843],[66,23910],[66,23976],[66,24043],[66,24109],[66,24176],[66,24243],[66,24310],[66,24376],[66,24443],[66,24510],[66,24577],[66,24643],[66,24710],[66,24776],[66,24844],[66,24910],[66,24977],[66,25043],[66,25110],[66,25177],[66,25244],[66,25310],[66,25377],[66,25443],[66,25511],[66,25577],[66,25644],[66,25710],[66,25777],[66,25844],[66,25910],[66,25977],[66,26044],[66,26110],[66,26177],[66,26244],[66,26311],[66,26377],[66,26444],[66,26511],[66,26577],[66,26644],[66,26711],[66,26777],[66,26844],[66,26911],[66,26978],[66,27044],[66,27111],[66,27177],[66,27245],[66,27311],[66,27378],[66,27445],[66,27511],[66,27578],[66,27644],[66,27711],[66,27778],[66,27845],[66,27912],[66,27978],[66,28045],[66,28111],[66,28178],[66,28245],[66,28312],[66,28378],[66,28445],[66,28512],[66,28578],[66,28645],[66,28712],[66,28778],[66,28845],[66,28912],[66,28978],[66,29045],[66,29112],[66,29179],[66,29245],[66,29312],[66,29379],[66,29445],[66,29512],[66,29579],[66,29646],[66,29712],[64.3,29780],[59.5,29847],[56.1,29913],[54.8,29980],[54.2,30047],[53.1,30113],[50.9,30180],[49.1,30247],[47.7,30314],[46.6,30380],[46.2,30446],[45,30514],[44.1,30580],[43.6,30647],[43.3,30712],[43,30779],[42.5,30846],[42.2,30913],[41.9,30979],[41.9,31046],[41.9,31113],[41.9,31179],[41.9,31246],[41.9,31313],[41.9,31379],[41.9,31446],[41.9,31513],[41.9,31580],[41.9,31647],[41.9,31714],[41.9,31780],[41.9,31846],[41.9,31913],[41.9,31980],[41.9,32047],[41.9,32113],[41.9,32180],[41.9,32247],[41.9,32313],[41.9,32380],[41.9,32447],[41.9,32513],[41.9,32580],[41.9,32647],[41.9,32714],[41.9,32781],[41.9,32847],[41.9,32914],[41.9,32981],[41.9,33047],[41.9,33114],[41.9,33181],[41.9,33247],[41.9,33314],[41.9,33381],[41.9,33448],[41.9,33514],[41.9,33581],[41.9,33648],[41.9,33714],[41.9,33783],[41.9,33848],[41.9,33914],[41.9,33981],[41.9,34048],[41.9,34115],[41.9,34181],[41.9,34248],[41.9,34315],[41.9,34381],[41.9,34448],[41.9,34515],[41.9,34581],[41.9,34648],[41.9,34715],[41.9,34782],[41.9,34848],[41.9,34915],[41.9,34982],[41.9,35048],[41.9,35115],[41.9,35182],[44.3,35262],[48,35317],[52.2,35385],[54.4,35450],[55.7,35517],[56.9,35584],[57.3,35649],[58.3,35716],[58.8,35782],[58.9,35848],[58.9,35915],[59.2,35982],[59.4,36049],[59.4,36115],[59.4,36182],[59.8,36249],[60.2,36316],[61.3,36383],[63.3,36450],[65.8,36516],[69.3,36583],[72.5,36651],[74.3,36716],[74.6,36782],[74.7,36849],[74.9,36915],[75,36982],[75.2,37049],[75.2,37115],[75.2,37182],[75.2,37249],[75.2,37316],[75.2,37383],[75.2,37449],[75.2,37516],[75.2,37582],[75.2,37649],[75.2,37716],[75.2,37782],[75.2,37849],[75.2,37916],[75.2,37982],[75.2,38049],[75.2,38116],[75.2,38182],[75.2,38250],[75.2,38316],[75.2,38383],[75.2,38449],[75.2,38516],[75.2,38583],[75.2,38649],[75.2,38716],[75.2,38783],[75.2,38849],[75.2,38916],[75.2,38983],[75.2,39049],[75.2,39116],[75.2,39183],[75.2,39250],[75.2,39316],[75.2,39384],[75.2,39451],[75.2,39517],[75.2,39583],[75.2,39650],[75.2,39717],[75.2,39783],[75.2,39850],[75.2,39917],[75.2,39984],[75.2,40050],[75.2,40117],[75.2,40184],[75.2,40250],[75.2,40317],[75.2,40384],[75.2,40450],[75.2,40517],[75.2,40584],[75.2,40650],[75.2,40717],[75.2,40784],[75.2,40851],[75.2,40917],[75.2,40984],[75.2,41051],[75.2,41117],[75.2,41184],[75.2,41251],[75.2,41317],[75.2,41384],[75.2,41451],[75.2,41517],[75.2,41584],[75.2,41651],[75.2,41717],[75.2,41784],[75.2,41851],[75.2,41918],[75.2,41984],[75.2,42051],[75.2,42119],[75.2,42185],[75.2,42251],[75.2,42318],[75.2,42385],[75.2,42451],[75.2,42518],[75.2,42585],[75.2,42652],[75.2,42718],[75.2,42785],[75.2,42851],[75.2,42918],[75.2,42985],[75.2,43052],[75.2,43118],[75.2,43185],[75.2,43252],[75.2,43318],[75.2,43385],[75.2,43452],[75.2,43518],[75.2,43585],[75.2,43652],[75.2,43718],[75.2,43785],[75.2,43852],[75.2,43919],[75.2,43985],[75.2,44052],[75.2,44119],[75.2,44185],[75.2,44252],[75.2,44319],[75.2,44386],[75.2,44452],[75.2,44519],[75.2,44586],[75.2,44652],[75.2,44719],[75.2,44786],[75.2,44852],[75.2,44919],[75.2,44986],[75.2,45053],[75.2,45119],[75.2,45186],[75.2,45253],[75.2,45319],[75.2,45386],[75.2,45453],[75.2,45519],[75.2,45586],[75.2,45653],[75.2,45719],[75.2,45786],[75.2,45853],[75.2,45919],[75.2,45986],[75.2,46053],[75.2,46120],[75.2,46186],[75.2,46253],[75.2,46320],[75.2,46386],[75.2,46453],[75.2,46520],[75.2,46586],[75.2,46653],[75.2,46720],[75.2,46787],[75.2,46853],[75.2,46920],[75.2,46987],[75.2,47053],[75.2,47120],[75.2,47187],[75.2,47254],[75.2,47320],[75.2,47387],[75.2,47454],[75.2,47521],[75.2,47587],[75.2,47654],[75.2,47720],[75.2,47787],[75.2,47854],[75.2,47921],[75.2,47988],[75.2,48054],[75.2,48121],[75.2,48187],[75.2,48254],[75.2,48321],[75.2,48387],[75.2,48454],[75.2,48521],[75.2,48587],[75.2,48654],[75.2,48721],[75.2,48787],[75.2,48854],[75.2,48921],[75.2,48988],[75.2,49054],[75.2,49121],[75.2,49188],[75.2,49254],[75.2,49321],[75.2,49388],[75.2,49454],[75.2,49521],[75.2,49588],[75.2,49654],[75.2,49721],[75.2,49788],[75.2,49855],[75.2,49921],[75.2,49988],[75.2,50055],[75.2,50121],[75.2,50188],[75.2,50255],[75.2,50322],[75.2,50388],[75.2,50455],[75.2,50522],[75.2,50589],[75.2,50655],[75.2,50722],[75.2,50788],[75.2,50855],[75.2,50922],[75.2,50988],[75.2,51055],[75.2,51122],[75.2,51189],[75.2,51255],[75.2,51322],[75.2,51389],[75.2,51456],[75.2,51522],[75.2,51589],[75.2,51656],[75.2,51722],[75.2,51789],[75.2,51855],[75.2,51923],[75.2,51989],[75.2,52055],[75.2,52122],[75.2,52189],[75.2,52256],[75.2,52322],[75.2,52389],[75.2,52456],[75.2,52523],[75.2,52589],[75.2,52656],[75.2,52722],[75.2,52789],[75.2,52856],[75.2,52923],[75.2,52989],[75.2,53056],[75.2,53123],[75.2,53189],[75.2,53256],[75.2,53323],[75.2,53389],[75.2,53456],[75.2,53523],[75.2,53590],[75.2,53656],[75.2,53723],[75.2,53790],[75.2,53856],[75.2,53923],[75.2,53990],[75.2,54057],[75.2,54123],[75.2,54190],[75.2,54257],[75.2,54323],[75.2,54390],[75.2,54457],[75.2,54523],[75.2,54590],[75.2,54657],[75.2,54724],[75.2,54790],[75.2,54857],[75.2,54924],[75.2,54991],[75.2,55057],[75.2,55124],[75.2,55190],[75.2,55257],[75.2,55324],[75.2,55391],[75.2,55457],[75.2,55524],[75.2,55590],[75.2,55657],[75.2,55724],[75.2,55791],[75.2,55858],[75.2,55924]]",1,0,320.1791,328.9489,75.62225476,3.9702,"[{""rating"":75.62225475841873,""responseTime"":3.970199999988097}]",space,8.1808,,328.9491,Half the time,50,328.9767,,,[],,0,1,1,1,1,audio/Narrative7Situation1.wav,audio/Narrative8Situation1.wav,audio/Narrative5Situation1.wav,audio/Narrative6Situation1.wav,2,5,5,2,5.5409,,,,,,,,,,,,,,,,,,,,,,,,,,,,,,,,,,,,,,
,,,,,,55fc5cbf77f33b0005cb244f,2024-05-13_11h53.20.549,group3.1-3.2-social-tom,2023.2.2,Win32,30.03003003,65c5074098b851296ff0b7ed,664236ff4b6b864db326d78b,,,,,,,,,,,,,,,,,,,,,,,,,,,,,328.9772,1,audio/Narrative7Situation2.wav,331.9831,,331.9832,339.4871,[],1,0,339.4873,348.5241,24.67057101,7.9767,"[{""rating"":39.311859443631036,""responseTime"":4.2964999999999804},{""rating"":31.551976573938507,""responseTime"":5.54849999999999},{""rating"":24.670571010248903,""responseTime"":7.976699999988057}]",space,8.4578,,348.5242,All the time,100,356.9613,100,6.5432,"[{""rating"":100,""responseTime"":6.543199999988076}]",space,0,2,2,2,1,audio/Narrative7Situation2.wav,audio/Narrative8Situation2.wav,audio/Narrative5Situation2.wav,audio/Narrative6Situation2.wav,3,3,3,3,,,7.8399,,,,,,,,,,,,,,,,,,,,,,,,,,,,,,,,,,,,
,,,,,,55fc5cbf77f33b0005cb244f,2024-05-13_11h53.20.549,group3.1-3.2-social-tom,2023.2.2,Win32,30.03003003,65c5074098b851296ff0b7ed,664236ff4b6b864db326d78b,,,,,,,,,,,,,,,,,,,,,,,,,,,,,356.9619,1,audio/Narrative7Situation3.wav,364.9648,,364.9649,374.2363,[],1,0,374.2366,383.5732,76.35431918,7.8976,"[{""rating"":64.78770131771596,""responseTime"":4.773500000000013},{""rating"":76.35431918008784,""responseTime"":7.897600000023829}]",space,8.7432,,383.5733,All the time,100,383.5769,,,[],,0,3,3,3,1,audio/Narrative7Situation3.wav,audio/Narrative8Situation3.wav,audio/Narrative5Situation3.wav,audio/Narrative6Situation3.wav,8,4,3,5,,,,,,,,,,,,,,,,,,,,,,,,,,,,,,,,,,,,,,,
,,,,,,55fc5cbf77f33b0005cb244f,2024-05-13_11h53.20.549,group3.1-3.2-social-tom,2023.2.2,Win32,30.03003003,65c5074098b851296ff0b7ed,664236ff4b6b864db326d78b,,,,,,,,,,,,,,,,,,,,,,,,,,,,,383.5772,1,audio/Narrative7Situation4.wav,386.6081,,386.6082,398.3804,"[[75.8,1801],[68.9,1868],[55.4,1934],[42.2,2001],[37.6,2068],[35.2,2134],[34.5,2200],[34.3,2267],[34.2,2333],[34.2,2400],[34.2,2467],[34.2,2534],[34.2,2600],[34.2,2667],[34.2,2734],[34.2,2801],[34.2,2867],[34.2,2934],[34.2,3001],[34.2,3067],[34.2,3134],[34.2,3201],[34.2,3267],[34.2,3334],[34.2,3401],[34.2,3468],[34.2,3534],[34.2,3601],[34.2,3668],[34.2,3734],[34.2,3801],[34.2,3867],[34.2,3934],[34.2,4001],[34.2,4068],[34.2,4134],[34.2,4201],[34.2,4268],[34.2,4335],[34.2,4401],[34.2,4468],[34.2,4535],[34.2,4601],[34.2,4668],[34.2,4735],[34.2,4801],[34.2,4868],[34.2,4935],[34.2,5002],[34.2,5068],[34.2,5135],[34.2,5201],[34.2,5268],[34.2,5335],[34.2,5402],[34.2,5468],[34.2,5535],[34.2,5602],[34.2,5669],[34.2,5735],[34.2,5802],[34.2,5869],[34.2,5935],[34.2,6002],[34.2,6069],[34.2,6135],[34.2,6202],[34.2,6269],[34.2,6335],[34.2,6402],[34.2,6469],[34.2,6536],[34.2,6602],[34.2,6669],[34.2,6736],[34.2,6802],[34.2,6869],[34.2,6936],[34.2,7002],[34.2,7070],[34.2,7136],[34.2,7203],[34.2,7269],[34.2,7336],[34.2,7403],[34.2,7469],[34.2,7536],[34.2,7603],[34.2,7669],[34.2,7736],[34.2,7803],[34.2,7870],[34.2,7936],[34.2,8003],[34.2,8070],[34.2,8136],[34.2,8203],[34.2,8270],[34.2,8336],[34.2,8403],[34.2,8470],[34.2,8537],[34.2,8603],[34.6,8671],[38.9,8738],[43.1,8805],[46.5,8871],[48.8,8938],[50.3,9004],[52,9072],[55.3,9138],[58.2,9204],[59.8,9271],[60.7,9338],[61.3,9404],[62.2,9471],[63.5,9538],[63.9,9605],[64.3,9671],[64.6,9738],[64.9,9804],[64.9,9870],[64.9,9937],[64.9,10004],[64.9,10071],[64.9,10137],[64.9,10204],[64.9,10271],[64.9,10338],[64.9,10404],[64.9,10471],[64.9,10537],[64.9,10604],[64.9,10671],[64.9,10738],[64.9,10804],[64.9,10871],[64.9,10938],[64.9,11004],[64.9,11071],[64.9,11138],[64.9,11205],[64.9,11271],[64.9,11338],[64.9,11405],[64.9,11471],[64.9,11538],[64.9,11605],[64.9,11671],[64.9,11738]]",1,0,398.3807,404.4162,71.08345534,4.6607,"[{""rating"":71.08345534407027,""responseTime"":4.660700000047655}]",space,5.4361,,404.4164,All the time,100,404.419,,,[],,0,4,4,4,1,audio/Narrative7Situation4.wav,audio/Narrative8Situation4.wav,audio/Narrative5Situation4.wav,audio/Narrative6Situation4.wav,3,3,1,2,,,,,,,,,,,,,,,,,,,,,,,,,,,,,,,,,,,,,,,
,,,,,,55fc5cbf77f33b0005cb244f,2024-05-13_11h53.20.549,group3.1-3.2-social-tom,2023.2.2,Win32,30.03003003,65c5074098b851296ff0b7ed,664236ff4b6b864db326d78b,,,,,,,,,,,,,,,,,,,,,,,,,,,,,404.4193,1,audio/Narrative7Situation5.wav,409.4518,,409.4518,417.9566,"[[999,9],[999,66],[999,133],[999,199],[999,266],[999,333],[999,399],[999,466],[999,533],[999,600],[999,666],[999,733],[999,800],[999,866],[999,933],[999,1000],[999,1067],[999,1133],[999,1200],[999,1266],[999,1333],[999,1400],[999,1467],[999,1533],[999,1600],[999,1667],[999,1734],[999,1800],[999,1867],[999,1934],[999,2000],[999,2067],[999,2134],[999,2200],[999,2267],[999,2334],[999,2400],[999,2467],[999,2534],[999,2600],[999,2667],[999,2734],[999,2801],[999,2867],[999,2934],[999,3003],[999,3068],[999,3135],[999,3201],[999,3269],[999,3335],[999,3402],[999,3468],[999,3535],[999,3601],[999,3668],[999,3735],[999,3802],[999,3868],[999,3935],[999,4001],[999,4068],[999,4135],[999,4201],[999,4268],[999,4335],[999,4401],[999,4468],[999,4535],[999,4602],[999,4668],[999,4735],[999,4802],[999,4868],[999,4935],[999,5002],[999,5069],[999,5135],[999,5202],[999,5269],[999,5335],[999,5402],[999,5469],[999,5535],[999,5602],[999,5669],[999,5735],[999,5802],[999,5869],[999,5935],[999,6002],[999,6069],[999,6136],[999,6202],[999,6269],[999,6336],[999,6403],[999,6469],[999,6536],[999,6602],[999,6669],[999,6736],[999,6802],[999,6870],[999,6936],[999,7004],[999,7069],[999,7136],[999,7203],[999,7269],[999,7336],[999,7403],[999,7470],[999,7536],[999,7603],[999,7670],[999,7736],[999,7803],[999,7870],[999,7937],[999,8003],[999,8070],[999,8137],[999,8203],[999,8270],[999,8336],[999,8403],[999,8470]]",1,0,417.9569,424.7587,18.66764275,6.1577,"[{""rating"":18.667642752562223,""responseTime"":5.131899999976156},{""rating"":18.667642752562223,""responseTime"":6.157699999988097}]",space,6.2269,,424.7589,Not at all,0,424.7646,,,[],,0,5,5,5,1,audio/Narrative7Situation5.wav,audio/Narrative8Situation5.wav,audio/Narrative5Situation5.wav,audio/Narrative6Situation5.wav,5,2,5,2,,,,,,,,,,,,,,,,,,,,,,,,,,,,,,,,,,,,,,,
,,,,,,55fc5cbf77f33b0005cb244f,2024-05-13_11h53.20.549,group3.1-3.2-social-tom,2023.2.2,Win32,30.03003003,65c5074098b851296ff0b7ed,664236ff4b6b864db326d78b,,,,,,,,,,,,,,,,,,,,,,,,,,,,,424.7648,1,audio/Narrative7Situation6.wav,427.7938,,427.7939,437.8322,"[[18.8,4735],[18.8,4801],[18.8,4868],[18.8,4935],[18.8,5001],[19,5068],[19.1,5135],[19.1,5201],[19.3,5269],[19.3,5335],[19.3,5401],[19.3,5468],[19.3,5535],[19.3,5602],[19.3,5668],[19.3,5735],[19.3,5802],[19.3,5868],[19.3,5935],[19.3,6002],[19.3,6069],[19.3,6135],[19.3,6202],[19.3,6269],[19.3,6335],[19.3,6402],[19.3,6470],[19.3,6536],[19.3,6602],[19.3,6669],[19.3,6735],[19.3,6802],[19.3,6869],[19.3,6935],[19.3,7002],[19.3,7069],[19.3,7136],[19.3,7203],[19.3,7269],[19.3,7336],[19.3,7402],[19.3,7469],[19.3,7536],[19.3,7603],[19.3,7670],[19.3,7736],[19.8,7803],[21.4,7870],[25.5,7936],[30.4,8003],[32.9,8070],[33.2,8136],[33.3,8203],[33.3,8269],[33.3,8336],[33.5,8403],[33.5,8470],[33.5,8536],[33.5,8603],[33.5,8670],[33.5,8736],[33.5,8803],[33.5,8870],[33.5,8936],[33.5,9003],[33.5,9070],[33.5,9136],[33.5,9203],[33.5,9270],[33.5,9337],[33.5,9403],[33.5,9470],[33.5,9537],[33.5,9603],[33.5,9670],[33.5,9737],[33.5,9803],[33.5,9870],[33.5,9937],[33.5,10004]]",1,0,437.8326,443.3349,48.97510981,4.0864,"[{""rating"":32.72327964860908,""responseTime"":1.7766999999880682},{""rating"":48.97510980966325,""responseTime"":4.0864000000357805}]",space,4.9183,,443.3351,Half the time,50,443.3479,,,[],,0,6,6,6,1,audio/Narrative7Situation6.wav,audio/Narrative8Situation6.wav,audio/Narrative5Situation6.wav,audio/Narrative6Situation6.wav,3,2,3,2,,,,,,,,,,,,,,,,,,,,,,,,,,,,,,,,,,,,,,,
,,,,,,55fc5cbf77f33b0005cb244f,2024-05-13_11h53.20.549,group3.1-3.2-social-tom,2023.2.2,Win32,30.03003003,65c5074098b851296ff0b7ed,664236ff4b6b864db326d78b,,,,,,,,,,,,,,,,,,,,,,,,,,,,,443.3486,1,audio/Narrative7Situation7.wav,448.3694,,448.3694,465.5445,"[[999,15],[999,67],[999,133],[999,200],[999,266],[999,333],[999,400],[999,466],[999,533],[999,600],[999,667],[999,733],[999,800],[999,867],[999,933],[999,1000],[999,1067],[999,1134],[999,1201],[999,1267],[999,1334],[999,1400],[999,1467],[999,1535],[999,1601],[999,1668],[999,1735],[999,1801],[48,1867],[48,1934],[48,2001],[49.1,2068],[49.7,2134],[51.5,2201],[55.6,2268],[61.4,2334],[71.7,2402],[84.4,2468],[92.9,2534],[97.3,2602],[99.5,2668],[99.8,2735],[99.8,2801],[99.8,2868],[98.5,2935],[96.7,3002],[95.5,3069],[95.2,3136],[95.1,3201],[95.1,3268],[95.1,3334],[95.1,3401],[95.1,3468],[95.1,3534],[95.1,3601],[95.1,3668],[95.1,3734],[95.1,3801],[95.1,3868],[95.1,3935],[95.1,4002],[95.1,4068],[95.1,4135],[95.1,4201],[95.1,4268],[95.1,4335],[95.1,4401],[95.1,4468],[95.1,4535],[95.1,4602],[95.1,4668],[95.1,4735],[95.1,4802],[95.1,4868],[95.1,4935],[95.1,5002],[95.1,5068],[95.1,5135],[95.1,5202],[95.1,5269],[95.1,5335],[95.1,5402],[95.1,5469],[95.1,5535],[95.1,5602],[95.1,5669],[95.1,5736],[95.1,5802],[95.1,5869],[95.1,5935],[95.1,6002],[95.1,6069],[94.7,6136],[92.2,6203],[90.4,6269],[88.5,6336],[87,6403],[85.9,6469],[84.6,6537],[83.2,6603],[81.6,6670],[80.9,6737],[80.9,6803],[80.5,6870],[79.9,6937],[79.3,7003],[78.7,7070],[78.3,7137],[78.1,7203],[78.1,7269],[77.8,7337],[77.8,7403],[78.4,7470],[82.1,7537],[87.3,7603],[90.6,7670],[91.7,7737],[92.6,7804],[93.8,7871],[94.7,7937],[94.9,8003],[95.7,8071],[96.9,8137],[97.9,8204],[98.2,8270],[98.2,8337],[98.2,8403],[98.2,8470],[98.2,8537],[98.2,8603],[98.2,8670],[98.2,8737],[98.2,8804],[98.2,8870],[98.2,8937],[98.2,9004],[98.2,9070],[98.2,9137],[98.2,9204],[98.2,9271],[98.2,9337],[98.2,9404],[98.2,9471],[98.2,9537],[98.2,9604],[98.2,9671],[98.2,9738],[98.2,9805],[98.2,9871],[98.2,9938],[98.2,10005],[98.2,10071],[98.2,10138],[98.2,10204],[98.2,10271],[98.2,10338],[98.2,10404],[98.2,10471],[98.2,10538],[98.2,10604],[98.2,10671],[98.2,10738],[98.2,10805],[98.2,10871],[98.2,10938],[98.2,11005],[98.2,11071],[98.2,11138],[98.2,11205],[98.2,11271],[98.2,11338],[98.2,11405],[98.2,11471],[98.2,11538],[98.2,11605],[98.2,11672],[98.2,11738],[98.2,11805],[98.2,11872],[98.2,11938],[98.2,12005],[98.2,12072],[98.2,12138],[98.2,12205],[98.2,12272],[98.2,12338],[98.2,12405],[98.2,12472],[98.2,12539],[97.9,12607],[95.8,12673],[87.9,12739],[83.5,12806],[79.9,12873],[78.6,12939],[77.8,13006],[77.2,13073],[75.6,13140],[71.5,13207],[69.3,13273],[69,13339],[68.7,13406],[68.7,13472],[68.7,13539],[68.7,13606],[68.7,13672],[68.7,13739],[68.7,13806],[68.7,13873],[68.7,13940],[68.7,14006],[68.7,14073],[68.7,14140],[68.7,14207],[68.7,14273],[68.7,14341],[68.7,14407],[68.7,14473],[68.7,14540],[68.7,14607],[68.7,14673],[68.7,14740],[68.7,14807],[68.7,14873],[68.7,14940],[68.7,15007],[68.7,15074],[68.7,15140],[68.7,15207],[68.7,15273],[68.7,15340],[68.7,15407],[68.7,15473],[68.7,15540],[68.7,15607],[68.7,15674],[68.7,15740],[68.7,15807],[68.7,15874],[68.7,15941],[68.7,16007],[68.7,16074],[68.7,16141],[68.7,16207],[68.7,16274],[68.7,16341],[68.7,16408],[68.7,16474],[68.7,16541],[68.7,16608],[69.5,16685],[70.9,16741],[71.4,16808],[71.4,16874],[71.5,16941],[71.5,17007],[71.5,17074],[71.5,17141]]",1,0,465.545,469.3456,86.01756955,2.0424,"[{""rating"":86.01756954612006,""responseTime"":2.042400000035798}]",space,3.2118,,469.3458,All the time,100,469.3515,,,[],,0,7,7,7,1,audio/Narrative7Situation7.wav,audio/Narrative8Situation7.wav,audio/Narrative5Situation7.wav,audio/Narrative6Situation7.wav,5,3,4,5,,,,,,,,,,,,,,,,,,,,,,,,,,,,,,,,,,,,,,,
,,,,,,55fc5cbf77f33b0005cb244f,2024-05-13_11h53.20.549,group3.1-3.2-social-tom,2023.2.2,Win32,30.03003003,65c5074098b851296ff0b7ed,664236ff4b6b864db326d78b,,,,,,,,,,,,,,,,,,,,,,,,,,,,,469.352,1,audio/Narrative7Situation8.wav,471.3798,,471.3799,481.4188,"[[999,0],[999,66],[999,133],[999,200],[999,266],[999,333],[999,400],[999,466],[999,533],[999,600],[999,667],[999,733],[999,800],[999,867],[999,933],[999,1001],[999,1067],[64.1,1134],[50.4,1867],[50.4,1934],[50.3,2001],[50.3,2068],[50.3,2134],[50.1,2201],[50.1,2267],[50.1,2334],[50.1,2401],[50.1,2467],[50.1,2534],[50.1,2601],[50.1,2667],[50.1,2734],[50.1,2801],[50.1,2867],[50.1,2934],[50.1,3001],[50.1,3068],[50.1,3134],[50.1,3201],[50.1,3268],[51.6,3335],[56.6,3402],[59.5,3469],[60.1,3535],[60.2,3601],[60.2,3668],[60.2,3735],[60.2,3801],[60.2,3868],[60.2,3935],[60.2,4001],[60.2,4068],[60.2,4135],[60.2,4201],[60.2,4268],[60.2,4335],[60.2,4402],[60.2,4468],[60.4,4535],[60.4,4602],[60.4,4668],[60.4,4735],[60.4,4802],[60.4,4868],[60.4,4935],[60.4,5002],[60.4,5068],[60.4,5135],[60.5,5203],[60.5,5269],[60.5,5335],[60.5,5402],[60.5,5469],[60.5,5536],[60.5,5602],[60.5,5669],[60.5,5736],[60.5,5802],[60.5,5869],[60.5,5935],[60.5,6002],[60.5,6069],[60.5,6136],[60.5,6202],[60.5,6269],[60.5,6336],[60.5,6402],[60.5,6469],[60.5,6536],[60.5,6602],[60.5,6669],[60.5,6736],[60.5,6802],[60.5,6869],[60.5,6936],[60.5,7003],[60.5,7069],[60.5,7136],[60.5,7203],[60.5,7269],[60.5,7336],[60.5,7403],[60.5,7470],[60.5,7536],[60.5,7603],[60.5,7670],[60.5,7737],[60.5,7803],[60.5,7870],[60.5,7937],[60.5,8003],[60.5,8070],[60.5,8137],[60.5,8203],[60.5,8270],[60.5,8337],[60.5,8403],[60.5,8470],[60.4,8538],[58.5,8605],[53.8,8675],[51.2,8737],[50.3,8805],[50.1,8870],[50.1,8937],[50.1,9004],[50.1,9071],[50.1,9137],[50.1,9204],[50.1,9270],[50.1,9337],[50.1,9404],[50.1,9470],[50.4,9538],[51.5,9604],[51.8,9672],[52.5,9738],[53.2,9805],[53.7,9871],[53.7,9937],[54.2,10005]]",1,0,481.4189,488.3543,66.54465593,5.0278,"[{""rating"":66.54465592972181,""responseTime"":5.027799999952322}]",space,6.359,,488.3543,Half the time,50,488.359,,,[],,0,8,8,8,1,audio/Narrative7Situation8.wav,audio/Narrative8Situation8.wav,audio/Narrative5Situation8.wav,audio/Narrative6Situation8.wav,2,3,3,5,,,,,,,,,,,,,,,,,,,,,,,,,,,,,,,,,,,,,,,
,,,,,,55fc5cbf77f33b0005cb244f,2024-05-13_11h53.20.549,group3.1-3.2-social-tom,2023.2.2,Win32,30.03003003,65c5074098b851296ff0b7ed,664236ff4b6b864db326d78b,,,,,,,,,,,,,,,,,,,,,,,,,,,,,488.3593,1,audio/Narrative7Situation9.wav,490.3886,,490.3886,499.026,"[[65.8,2334],[61.4,2402],[56.4,2468],[52,2535],[49.3,2602],[47.8,2668],[46.2,2735],[45.3,2801],[44.6,2868],[44.6,2934],[44.6,3001],[44.6,3067],[44.6,3134],[44.6,3201],[44.6,3267],[44.6,3334],[44.6,3401],[44.6,3468],[44.6,3534],[44.6,3601],[44.6,3668],[44.6,3735],[44.6,3801],[44.6,3868],[44.6,3935],[44.6,4001],[45.2,4069],[47.4,4135],[49,4202],[52.5,4269],[55.7,4335],[59.7,4402],[62.9,4469],[63.9,4535],[65.4,4603],[67.3,4669],[69.3,4736],[70.6,4802],[71.4,4869],[72.1,4936],[72.5,5002],[72.8,5069],[73.3,5136],[73.4,5202],[73.9,5269],[74.3,5336],[74.3,5402],[74.3,5469],[74.3,5535],[74.3,5602],[74.3,5669],[74.3,5735],[74.3,5802],[74.3,5869],[74.3,5935],[74.3,6002],[74.3,6069],[74.3,6136],[74.3,6202],[74.3,6269],[74.3,6336],[74.3,6402],[74.3,6469],[74.3,6536],[74.3,6602],[74.3,6669],[74.3,6736],[74.3,6803],[74.3,6869],[74.3,6936],[74.3,7003],[74.3,7069],[74.3,7136],[74.3,7203],[74.3,7269],[74.3,7336],[74.3,7403],[74.3,7470],[74.3,7536],[74.3,7603],[74.3,7670],[74.3,7736],[74.3,7803],[74.3,7870],[74.3,7936],[74.3,8003],[74.3,8070],[74.3,8136],[74.3,8203],[74.3,8270],[74.3,8337],[74.3,8403],[74.3,8470],[74.3,8537],[74.3,8603]]",1,0,499.0262,503.3612,72.10834553,1.4519,"[{""rating"":72.10834553440702,""responseTime"":1.451899999976149}]",space,3.743,,503.3612,All the time,100,503.3662,,,[],,0,9,9,9,1,audio/Narrative7Situation9.wav,audio/Narrative8Situation9.wav,audio/Narrative5Situation9.wav,audio/Narrative6Situation9.wav,2,3,3,4,,,,,,,,,,,,,,,,,,,,,,,,,,,,,,,,,,,,,,,
,,,,,,55fc5cbf77f33b0005cb244f,2024-05-13_11h53.20.549,group3.1-3.2-social-tom,2023.2.2,Win32,30.03003003,65c5074098b851296ff0b7ed,664236ff4b6b864db326d78b,,,,,,,,,,,,,,,,,,,,,,,,,,,,,503.3664,1,audio/Narrative8Situation1.wav,508.3974,,508.3975,524.3378,"[[71.1,2835],[68.7,2903],[58.6,2969],[50,3035],[45.8,3103],[42.8,3169],[40.2,3236],[39,3302],[39,3368],[39,3434],[39,3501],[39,3567],[39,3634],[39,3701],[39,3768],[39,3835],[39,3901],[38.9,3970],[36.7,4035],[32.4,4102],[28.6,4168],[26,4234],[23.9,4302],[22.8,4368],[20.9,4435],[19,4501],[18.8,4567],[18.8,4634],[18.8,4701],[18.8,4768],[18.8,4834],[18.7,4902],[16.9,4969],[14.9,5036],[12.8,5102],[11.6,5169],[11.1,5235],[10.9,5301],[10.5,5369],[10.3,5435],[10.3,5501],[10.3,5568],[10.3,5635],[10.3,5701],[10.3,5768],[10.3,5835],[10.3,5902],[10.3,5968],[10.3,6035],[10.3,6102],[10.3,6169],[10.3,6235],[10.3,6303],[10.3,6369],[10.3,6435],[10.3,6502],[10.3,6570],[10.3,6636],[10.3,6702],[10.3,6769],[10.3,6836],[10.3,6903],[10.3,6969],[10.3,7036],[10.3,7103],[10.3,7169],[10.3,7236],[10.3,7303],[10.3,7369],[10.3,7436],[10.3,7503],[10.3,7569],[10.3,7636],[10.3,7702],[10.3,7769],[10.3,7836],[10.3,7903],[10.3,7970],[10.3,8036],[10.3,8103],[10.3,8169],[10.3,8236],[10.3,8303],[10.3,8369],[10.3,8436],[10.3,8503],[10.3,8569],[10.3,8636],[10.3,8703],[10.3,8770],[10.3,8836],[10.3,8903],[10.3,8970],[10.3,9036],[10.3,9103],[10.3,9170],[10.3,9236],[10.3,9303],[10.3,9370],[10.3,9437],[10.3,9503],[10.3,9570],[10.3,9637],[10.3,9703],[10.3,9770],[10.3,9837],[10.3,9903],[10.3,9970],[10.3,10037],[10.3,10104],[10.3,10170],[10.3,10237],[10.3,10303],[10.3,10370],[10.3,10437],[10.3,10504],[10.3,10570],[10.3,10637],[10.3,10704],[10.3,10770],[10.3,10837],[10.3,10904],[10.3,10970],[10.3,11037],[10.3,11104],[10.3,11171],[10.3,11237],[10.3,11304],[10.3,11371],[10.3,11437],[10.3,11504],[10.3,11571],[10.3,11637],[10.3,11704],[10.3,11771],[10.3,11837],[10.3,11904],[10.3,11971],[10.3,12038],[10.3,12104],[10.3,12171],[10.3,12238],[10.3,12305],[10.3,12371],[10.3,12438],[10.3,12504],[10.3,12571],[10.3,12638],[10.3,12705],[10.3,12771],[10.3,12838],[10.3,12905],[10.3,12971],[10.3,13038],[10.3,13105],[10.3,13171],[10.3,13238],[10.3,13305],[10.3,13372],[10.3,13439],[10.3,13505],[10.3,13572],[10.3,13638],[10.3,13705],[10.3,13772],[10.3,13838],[10.3,13905],[10.3,13972],[10.3,14039],[10.3,14106],[10.3,14172],[10.3,14239],[10.3,14306],[10.3,14373],[10.3,14439],[10.3,14506],[10.3,14572],[10.3,14639],[10.3,14706],[10.3,14772],[10.3,14839],[10.3,14906],[10.3,14973],[10.3,15039],[10.3,15106],[10.3,15173],[10.3,15239],[10.3,15306],[10.3,15373],[10.3,15439],[10.3,15506],[10.3,15573],[10.3,15639],[10.3,15706],[10.3,15773],[10.3,15840],[10.3,15906]]",1,0,524.3381,527.9059,7.540263543,1.6553,"[{""rating"":7.5402635431917995,""responseTime"":1.6552999999523763}]",space,2.97,,527.9061,All the time,100,527.9098,,,[],,0,10,10,10,1,audio/Narrative8Situation1.wav,audio/Narrative7Situation1.wav,audio/Narrative6Situation1.wav,audio/Narrative5Situation1.wav,5,2,2,5,,,,,,,,,,,,,,,,,,,,,,,,,,,,,,,,,,,,,,,
,,,,,,55fc5cbf77f33b0005cb244f,2024-05-13_11h53.20.549,group3.1-3.2-social-tom,2023.2.2,Win32,30.03003003,65c5074098b851296ff0b7ed,664236ff4b6b864db326d78b,,,,,,,,,,,,,,,,,,,,,,,,,,,,,527.9102,1,audio/Narrative8Situation2.wav,530.9404,,530.9404,541.079,"[[999,9],[999,66],[999,133],[999,200],[999,266],[999,333],[999,400],[999,466],[999,533],[999,600],[999,667],[999,733],[999,800],[999,867],[999,934],[999,1001],[999,1067],[999,1134],[999,1200],[999,1268],[999,1333],[999,1400],[999,1467],[999,1533],[999,1600],[999,1667],[999,1734],[999,1801],[999,1868],[999,1934],[36.5,2001],[36.5,2067],[36.5,2134],[36.5,2200],[36.5,2267],[36.5,2334],[36.5,2401],[36.1,2468],[34.8,2534],[32.6,2601],[30.4,2668],[29.2,2735],[28.5,2801],[28.2,2868],[28.2,2934],[28.2,3001],[28.2,3067],[28.2,3134],[28.2,3201],[27.2,3268],[24.5,3335],[21,3402],[19.7,3468],[19.5,3534],[19.5,3601],[19.5,3668],[19.5,3735],[19.5,3801],[19.5,3868],[19.5,3935],[19.5,4001],[19.5,4068],[19.5,4135],[19.5,4201],[19.5,4268],[19.5,4335],[19.5,4401],[19.5,4468],[19.5,4535],[19.5,4602],[19.5,4668],[19.5,4735],[19.5,4802],[19.5,4868],[19.5,4935],[19.5,5002],[19.5,5069],[19.5,5135],[19.5,5202],[19.5,5268],[19.5,5335],[19.5,5402],[19.5,5469],[19.5,5535],[19.5,5602],[19.5,5669],[19.5,5735],[19.5,5802],[19.5,5869],[19.5,5936],[19.5,6002],[19.5,6069],[19.5,6136],[19.5,6202],[19.5,6269],[19.5,6336],[19.5,6402],[19.5,6469],[19.5,6536],[19.5,6603],[19.5,6669],[19.5,6736],[19.5,6803],[19.5,6870],[19.5,6936],[19.5,7003],[19.5,7070],[19.5,7136],[19.5,7203],[19.5,7270],[19.5,7336],[19.5,7403],[19.5,7471],[19.5,7537],[19.5,7603],[19.5,7670],[19.5,7737],[19.5,7803],[19.7,7876],[19.7,7937],[19.7,8004],[19.7,8070],[20,8138],[21.4,8206],[22.5,8272],[25.5,8338],[46.2,8406],[51.2,8471],[54.1,8537],[57.6,8604],[61.1,8671],[62.4,8738],[62.6,8804],[62.6,8870],[62.6,8937],[63,9005],[63.2,9070],[63.3,9138],[63.3,9204],[63.3,9271],[63.3,9337],[63.3,9404],[63.3,9471],[63.3,9537],[63.3,9604],[63.3,9671],[63.3,9737],[63.3,9804],[63.3,9871],[63.3,9937],[63.3,10004],[63.3,10071],[63.3,10138]]",1,0,541.0793,544.9803,49.85358712,2.2389,"[{""rating"":49.85358711566617,""responseTime"":2.23889999997607}]",space,3.302,,544.9804,Not at all,0,544.985,,,[],,0,11,11,11,1,audio/Narrative8Situation2.wav,audio/Narrative7Situation2.wav,audio/Narrative6Situation2.wav,audio/Narrative5Situation2.wav,3,3,3,3,,,,,,,,,,,,,,,,,,,,,,,,,,,,,,,,,,,,,,,
,,,,,,55fc5cbf77f33b0005cb244f,2024-05-13_11h53.20.549,group3.1-3.2-social-tom,2023.2.2,Win32,30.03003003,65c5074098b851296ff0b7ed,664236ff4b6b864db326d78b,,,,,,,,,,,,,,,,,,,,,,,,,,,,,544.9853,1,audio/Narrative8Situation3.wav,549.0159,,549.0159,571.4594,"[[999,18],[999,66],[999,132],[999,199],[999,266],[999,332],[999,399],[999,466],[999,533],[999,600],[999,666],[999,733],[999,799],[999,866],[999,933],[999,1000],[999,1066],[999,1133],[999,1200],[999,1266],[999,1333],[999,1400],[999,1466],[999,1533],[999,1600],[999,1667],[999,1734],[999,1801],[999,1868],[999,1934],[999,2000],[999,2067],[999,2133],[999,2200],[999,2267],[999,2334],[999,2401],[57.5,2468],[62,2535],[65.7,2602],[67.9,2669],[68.7,2735],[69.3,2802],[70.1,2868],[70.8,2935],[71.1,3000],[71.1,3067],[72,3135],[72.4,3201],[72.7,3268],[72.7,3334],[72.7,3400],[72.7,3467],[72.7,3534],[72.7,3601],[72.7,3668],[72.7,3734],[72.7,3801],[72.7,3868],[72.7,3934],[72.7,4001],[72.7,4068],[72.7,4134],[72.7,4201],[72.7,4268],[72.7,4334],[72.7,4401],[72.7,4468],[72.7,4535],[72.7,4601],[72.7,4668],[72.7,4735],[72.7,4801],[72.7,4868],[72.7,4935],[72.7,5001],[72.7,5068],[72.7,5134],[72.7,5201],[72.7,5268],[72.7,5335],[72.7,5401],[72.7,5468],[72.7,5535],[72.7,5602],[72.7,5668],[72.7,5735],[72.7,5801],[72.7,5868],[72.7,5935],[72.7,6002],[72.7,6068],[72.7,6135],[72.7,6202],[72.7,6268],[72.7,6335],[72.7,6402],[72.7,6468],[72.7,6535],[72.7,6602],[72.7,6669],[72.7,6735],[72.7,6802],[72.7,6869],[72.7,6935],[72.7,7002],[72.7,7069],[72.7,7135],[72.7,7202],[72.7,7269],[72.7,7336],[72.7,7403],[72.7,7470],[72.7,7536],[72.7,7603],[72.7,7670],[72.7,7736],[72.7,7803],[72.7,7870],[72.7,7937],[72.7,8003],[72.7,8070],[72.7,8136],[72.7,8203],[72.7,8270],[72.7,8336],[72.7,8404],[72.7,8470],[72.7,8537],[72.7,8603],[72.7,8671],[72.7,8737],[72.7,8803],[72.7,8870],[72.7,8936],[72.7,9003],[68.4,9071],[54.7,9137],[49,9204],[47.4,9271],[46.2,9337],[45.2,9404],[44.9,9471],[44.7,9537],[44.7,9603],[44.7,9670],[44.7,9737],[44.7,9803],[44.7,9870],[44.7,9937],[44.7,10004],[44.7,10071],[44.7,10137],[44.7,10204],[44.7,10270],[44.7,10337],[44.7,10404],[44.7,10470],[44.7,10537],[44.7,10604],[44.7,10671],[44.7,10737],[44.7,10804],[44.7,10871],[44.7,10937],[44.7,11004],[44.7,11071],[44.7,11137],[44.7,11204],[44.7,11271],[44.7,11337],[44.7,11404],[44.7,11471],[44.7,11538],[44.7,11604],[45,11671],[45.2,11738],[45.2,11804],[45.2,11871],[45.2,11938],[45.2,12004],[45.2,12071],[45.2,12138],[45.2,12205],[45.2,12271],[45.2,12338],[45.2,12405],[45.2,12471],[45.2,12538],[45.2,12605],[45.2,12671],[45.2,12738],[45.2,12805],[45.2,12872],[45.2,12938],[45.2,13005],[45.2,13071],[45.2,13138],[45.2,13205],[44.6,13272],[44.3,13339],[44,13405],[43.6,13473],[43.6,13539],[43.6,13605],[43.6,13672],[43.3,13739],[42.8,13806],[42.7,13872],[42.7,13939],[42.5,14005],[42.5,14072],[42.4,14139],[42.2,14206],[41.7,14273],[41.5,14339],[41.5,14405],[41.4,14473],[40.9,14540],[40.6,14607],[39.3,14673],[38.6,14740],[38.4,14806],[38.4,14872],[38.4,14939],[38.3,15007],[37.8,15073],[37.6,15140],[37.3,15207],[37,15273],[37,15339],[37,15406],[37,15473],[37,15540],[37,15606],[37,15673],[37,15739],[37,15806],[37,15873],[37,15939],[37,16006],[37,16073],[37,16140],[37,16206],[37,16273],[37,16340],[37,16407],[37,16473],[37,16540],[37,16607],[37,16673],[37,16740],[37,16807],[37,16873],[37,16940],[37,17007],[37,17074],[37,17140],[37,17207],[37,17274],[37.3,17341],[37.6,17407],[37.6,17474],[37.6,17540],[37.6,17607],[37.6,17674],[37.6,17740],[37.6,17807],[37.6,17874],[37.6,17940],[37.6,18007],[37.6,18074],[37.6,18141],[37.6,18207],[37.6,18274],[37.6,18341],[37.6,18407],[37.6,18474],[37.6,18541],[37.6,18607],[37.6,18674],[37.6,18741],[37.6,18807],[37.6,18874],[37.6,18941],[37.6,19008],[37.6,19074],[37.6,19141],[37.6,19208],[37.6,19274],[37.6,19341],[37.6,19408],[37.6,19476],[37.6,19541],[37.6,19608],[37.6,19675],[37.6,19741],[37.6,19808],[37.6,19875],[37.6,19942],[37.6,20008],[37.8,20075],[41.5,20143],[46.8,20209],[49.4,20276],[51.3,20343],[52.8,20410],[53.4,20476],[53.8,20542],[54,20609],[54.2,20676],[54.4,20742],[54.4,20808],[54.4,20875],[54.5,20942],[54.7,21010],[54.8,21075],[55,21143],[55.1,21209],[55.6,21276],[55.7,21343],[55.9,21409],[56,21475],[56.1,21543],[56.4,21610],[56.7,21677],[56.7,21742],[56.7,21809],[56.7,21876],[56.7,21942],[56.7,22009],[56.7,22076],[56.7,22142],[56.7,22209],[56.7,22276],[56.7,22342],[56.7,22409]]",1,0,571.4598,573.96,49.41434846,1.4881,"[{""rating"":49.41434846266471,""responseTime"":1.48809999996422}]",space,1.8982,,573.9601,Not at all,0,573.963,,,[],,0,12,12,12,1,audio/Narrative8Situation3.wav,audio/Narrative7Situation3.wav,audio/Narrative6Situation3.wav,audio/Narrative5Situation3.wav,4,8,5,3,,,,,,,,,,,,,,,,,,,,,,,,,,,,,,,,,,,,,,,
,,,,,,55fc5cbf77f33b0005cb244f,2024-05-13_11h53.20.549,group3.1-3.2-social-tom,2023.2.2,Win32,30.03003003,65c5074098b851296ff0b7ed,664236ff4b6b864db326d78b,,,,,,,,,,,,,,,,,,,,,,,,,,,,,573.9635,1,audio/Narrative8Situation4.wav,576.9949,,576.995,591.2349,"[[49.1,2268],[45.5,2334],[39.6,2401],[35.1,2468],[32.4,2534],[30.8,2601],[29.6,2668],[29.2,2735],[29.2,2800],[29.2,2867],[29.2,2934],[29.2,3001],[29.2,3067],[29.2,3134],[29.2,3201],[29.2,3268],[29.2,3335],[29.2,3401],[29.2,3468],[29.2,3535],[29.2,3601],[29.2,3668],[29.2,3735],[29.2,3801],[29.2,3868],[29.2,3935],[29.2,4002],[29.2,4068],[29.2,4135],[29.2,4202],[29.2,4268],[29.2,4335],[29.2,4402],[29.2,4468],[29.2,4535],[29.2,4602],[29.2,4668],[29.2,4735],[29.2,4802],[29.2,4869],[27.7,4937],[24.7,5003],[21.7,5069],[19.1,5136],[17.6,5203],[16.2,5269],[15,5336],[13.7,5403],[13.4,5469],[13.4,5535],[13.4,5602],[13.4,5669],[13.4,5736],[13.4,5802],[13.4,5869],[13.4,5936],[13.4,6002],[13.4,6069],[13.4,6136],[13.4,6202],[13.4,6269],[13.4,6335],[13.4,6402],[13.4,6469],[13.4,6536],[13.4,6602],[13.4,6669],[13.4,6736],[13.4,6802],[13.4,6869],[13.4,6936],[13.4,7003],[13.4,7070],[13.4,7136],[13.4,7203],[13.5,7271],[17.8,7337],[30.7,7403],[41.9,7470],[54.2,7537],[61.4,7604],[64.3,7670],[66.7,7737],[68.6,7803],[69,7870],[69,7936],[69,8003],[69,8070],[69,8136],[69,8203],[69,8270],[69,8336],[69,8403],[69,8470],[69,8536],[69,8603],[69,8670],[69,8736],[69,8803],[69,8870],[69,8937],[69,9003],[69,9070],[69,9137],[69,9203],[69,9270],[69,9337],[69,9404],[69,9470],[69,9537],[69,9604],[69,9670],[69,9737],[69,9804],[69,9870],[69,9937],[69,10004],[69,10071],[69,10137],[69,10204],[69,10271],[69,10337],[69,10404],[69,10471],[69,10537],[69,10604],[69,10671],[69,10737],[69,10804],[69,10871],[69,10937],[69,11004],[69,11071],[69,11138],[69,11204],[69,11271],[69,11338],[69,11404],[69,11471],[69,11538],[69,11604],[69,11671],[69,11738],[69,11804],[69,11871],[69,11938],[69,12005],[69,12071],[69,12138],[69,12205],[69,12271],[69,12338],[69,12405],[69,12472],[69,12538],[69,12605],[69,12672],[69,12738],[69,12805],[69,12872],[69,12939],[69,13005],[69,13072],[69,13139],[69,13206],[69,13272],[69,13339],[69,13406],[69,13472],[69,13539],[69,13606],[69,13672],[69,13739],[69,13806],[69,13872],[69,13939],[69,14006],[69,14072],[69,14139],[69,14206]]",1,0,591.2352,596.137,60.2489019,3.5239,"[{""rating"":60.24890190336749,""responseTime"":3.5238999999761518}]",space,4.3054,,596.1371,Not at all,0,596.14,,,[],,0,13,13,13,1,audio/Narrative8Situation4.wav,audio/Narrative7Situation4.wav,audio/Narrative6Situation4.wav,audio/Narrative5Situation4.wav,3,3,2,1,,,,,,,,,,,,,,,,,,,,,,,,,,,,,,,,,,,,,,,
,,,,,,55fc5cbf77f33b0005cb244f,2024-05-13_11h53.20.549,group3.1-3.2-social-tom,2023.2.2,Win32,30.03003003,65c5074098b851296ff0b7ed,664236ff4b6b864db326d78b,,,,,,,,,,,,,,,,,,,,,,,,,,,,,596.1405,1,audio/Narrative8Situation5.wav,598.1709,,598.171,606.4424,"[[999,0],[999,66],[999,133],[999,200],[999,266],[999,333],[999,400],[999,466],[999,533],[999,600],[999,666],[999,733],[999,800],[999,866],[999,933],[999,1000],[999,1067],[999,1133],[999,1200],[999,1267],[999,1334],[999,1401],[999,1467],[999,1534],[999,1600],[999,1668],[999,1734],[50.3,1801],[48.7,1867],[43.9,1935],[41.8,2001],[41.7,2067],[41.7,2134],[41.7,2201],[41.7,2267],[41.7,2334],[40.5,2402],[36.7,2468],[31.1,2535],[27.5,2601],[25.1,2668],[24.2,2735],[23.4,2802],[22.8,2868],[22.6,2934],[22.6,3001],[22.6,3068],[22.6,3134],[22.6,3201],[22.6,3268],[22.6,3334],[22.6,3401],[22.6,3468],[22.6,3534],[22.6,3601],[22.6,3668],[22.6,3735],[22.6,3801],[22.6,3868],[22.6,3935],[22.6,4001],[22.6,4068],[22.6,4135],[22.6,4201],[22.6,4268],[22.6,4335],[22.6,4402],[22.6,4468],[22.6,4535],[22.6,4602],[22.6,4668],[22.6,4735],[22.6,4802],[22.6,4868],[22.6,4935],[22.6,5002],[22.6,5068],[23.1,5136],[23.2,5202],[23.4,5269],[26.7,5336],[35.7,5403],[47.1,5469],[51.9,5536],[54.7,5603],[56.3,5669],[58.8,5736],[60,5803],[60.1,5869],[60.2,5936],[60.4,6002],[60.4,6069],[60.4,6136],[60.4,6202],[61.9,6269],[65.5,6336],[70.1,6403],[74.3,6470],[76.4,6537],[76.6,6603],[76.6,6670],[77.1,6737],[77.7,6803],[78.1,6870],[78.1,6936],[78.1,7003],[78.1,7069],[78.1,7136],[78.1,7203],[78.1,7269],[78.1,7336],[78.1,7403],[78.1,7470],[78.1,7536],[78.1,7603],[78.1,7670],[78.1,7736],[78.1,7803],[78.1,7870],[78.1,7936],[78.1,8003],[78.1,8070],[78.1,8137],[78.1,8204],[78.1,8270]]",1,0,606.4431,610.377,54.24597365,2.5722,"[{""rating"":54.24597364568082,""responseTime"":2.5721999999880154}]",space,3.342,,610.377,Not at all,0,610.3801,,,[],,0,14,14,14,1,audio/Narrative8Situation5.wav,audio/Narrative7Situation5.wav,audio/Narrative6Situation5.wav,audio/Narrative5Situation5.wav,2,5,2,5,,,,,,,,,,,,,,,,,,,,,,,,,,,,,,,,,,,,,,,
,,,,,,55fc5cbf77f33b0005cb244f,2024-05-13_11h53.20.549,group3.1-3.2-social-tom,2023.2.2,Win32,30.03003003,65c5074098b851296ff0b7ed,664236ff4b6b864db326d78b,,,,,,,,,,,,,,,,,,,,,,,,,,,,,610.3804,1,audio/Narrative8Situation6.wav,612.4108,,612.4108,618.8807,"[[999,0],[999,66],[999,133],[999,200],[999,266],[999,333],[999,400],[999,466],[999,533],[999,600],[999,667],[999,733],[999,800],[999,866],[999,933],[999,1000],[999,1067],[999,1133],[999,1201],[999,1267],[999,1334],[999,1401],[999,1468],[51.2,1535],[51.2,1601],[51,1668],[50.6,1734],[50.1,1801],[50.1,1867],[50.1,1934],[50.1,2000],[50.1,2067],[50.1,2134],[50.1,2201],[50.1,2267],[50.1,2334],[50.1,2401],[50.1,2467],[50.1,2534],[50.1,2601],[50.1,2667],[50.1,2735],[50,2801],[50,2868],[50,2934],[50,3001],[50,3068],[50,3134],[50,3201],[50,3268],[50,3334],[50,3401],[50,3468],[50,3534],[50,3601],[50,3668],[50,3735],[52.2,3802],[53.4,3869],[55,3935],[55.3,4002],[55.9,4069],[56,4136],[56.3,4202],[56.7,4269],[56.9,4335],[57.3,4402],[57.5,4469],[57.6,4535],[57.6,4602],[57.8,4669],[58.1,4736],[58.3,4802],[58.6,4869],[59.1,4936],[59.7,5003],[60,5069],[60.4,5136],[60.7,5203],[61.1,5269],[61.1,5335],[61.1,5402],[61.1,5469],[61.1,5536],[61.1,5602],[61.1,5669],[61.1,5736],[61.1,5802],[61.1,5869],[61.1,5936],[61.1,6002],[61.1,6069],[61.1,6136],[61.1,6202],[61.1,6269],[61.1,6336],[61.1,6402],[61.1,6469]]",1,0,618.8809,621.9152,60.68814056,1.7583,"[{""rating"":60.688140556368964,""responseTime"":1.7583000000119}]",space,2.4419,,621.9153,Not at all,0,621.9186,,,[],,0,15,15,15,1,audio/Narrative8Situation6.wav,audio/Narrative7Situation6.wav,audio/Narrative6Situation6.wav,audio/Narrative5Situation6.wav,2,3,2,3,,,,,,,,,,,,,,,,,,,,,,,,,,,,,,,,,,,,,,,
,,,,,,55fc5cbf77f33b0005cb244f,2024-05-13_11h53.20.549,group3.1-3.2-social-tom,2023.2.2,Win32,30.03003003,65c5074098b851296ff0b7ed,664236ff4b6b864db326d78b,,,,,,,,,,,,,,,,,,,,,,,,,,,,,621.9189,1,audio/Narrative8Situation7.wav,624.9498,,624.9498,637.0574,"[[999,10],[999,66],[999,133],[999,200],[999,266],[999,333],[999,400],[999,467],[999,533],[999,600],[999,667],[999,733],[999,800],[999,867],[999,933],[999,1000],[999,1067],[999,1133],[999,1201],[999,1267],[999,1334],[53.5,1401],[51.2,1467],[50.6,1534],[48.7,1601],[39.9,1668],[27.5,1734],[20.9,1801],[16.8,1868],[13.8,1934],[12.8,2001],[12.5,2068],[12.4,2134],[12.4,2200],[12.4,2267],[12.4,2334],[12.1,2401],[10.9,2468],[10.3,2534],[10.3,2601],[10,2668],[10,2734],[10,2801],[10,2867],[10,2934],[10,3001],[10,3067],[10,3134],[10,3201],[10,3268],[10,3335],[10,3401],[10,3468],[10.2,3534],[10.2,3601],[10.2,3668],[10.2,3735],[10.2,3801],[10.2,3868],[10.2,3935],[10.2,4001],[10.2,4068],[10.2,4135],[10.2,4201],[10.2,4268],[10.2,4335],[10.2,4401],[10.2,4468],[10.2,4535],[10.3,4602],[10.3,4668],[10.3,4735],[10.3,4802],[10.3,4868],[10.3,4935],[10.3,5002],[10.3,5069],[10.3,5135],[10.3,5202],[11.9,5270],[12.4,5336],[12.4,5402],[12.5,5469],[12.5,5535],[12.5,5602],[12.5,5669],[12.5,5736],[12.5,5802],[12.5,5869],[12.5,5935],[12.5,6002],[12.5,6069],[12.5,6136],[12.5,6202],[12.5,6269],[12.5,6336],[12.5,6403],[12.5,6469],[12.5,6536],[12.5,6603],[12.5,6669],[12.5,6736],[12.5,6803],[12.5,6870],[12.7,6936],[12.8,7004],[13.7,7070],[14,7137],[14,7203],[14.1,7270],[14.1,7336],[14.1,7403],[14.1,7469],[14.1,7536],[14.1,7603],[14.1,7670],[14.1,7737],[14.1,7803],[14.1,7870],[14.1,7937],[14.1,8003],[14.1,8070],[14.1,8136],[14.1,8203],[14.1,8270],[14.1,8337],[14.1,8404],[16.2,8471],[20.7,8537],[24.7,8604],[25.5,8671],[25.7,8737],[25.8,8804],[25.8,8870],[25.8,8937],[25.8,9004],[25.8,9070],[25.8,9137],[26,9204],[26.3,9271],[26.4,9338],[26.4,9404],[26.4,9471],[26.4,9537],[26.4,9604],[26.4,9671],[26.4,9737],[26.4,9804],[26.4,9871],[26.4,9937],[26.4,10004],[26.4,10071],[26.4,10138],[27,10205],[38.7,10271],[45.9,10338],[49.6,10405],[52.5,10472],[55.4,10539],[57,10605],[57.2,10671],[57.2,10738],[57.6,10805],[58.6,10872],[59.4,10939],[59.8,11005],[59.8,11071],[59.8,11138],[60.2,11206],[61.4,11272],[62.2,11339],[62.7,11406],[62.7,11471],[63,11539],[63,11605],[63,11672],[63,11739],[63,11805],[63,11872],[63,11939],[63,12006],[63,12072]]",1,0,637.0585,639.9571,50.58565154,2.15,"[{""rating"":50.58565153733529,""responseTime"":2.150000000000091}]",space,2.299,,639.9572,Not at all,0,639.961,,,[],,0,16,16,16,1,audio/Narrative8Situation7.wav,audio/Narrative7Situation7.wav,audio/Narrative6Situation7.wav,audio/Narrative5Situation7.wav,3,5,5,4,,,,,,,,,,,,,,,,,,,,,,,,,,,,,,,,,,,,,,,
,,,,,,55fc5cbf77f33b0005cb244f,2024-05-13_11h53.20.549,group3.1-3.2-social-tom,2023.2.2,Win32,30.03003003,65c5074098b851296ff0b7ed,664236ff4b6b864db326d78b,,,,,,,,,,,,,,,,,,,,,,,,,,,,,639.9613,1,audio/Narrative8Situation8.wav,642.9914,,642.9916,655.8976,"[[49.9,1467],[46,1535],[34.3,1600],[26.4,1668],[23.2,1734],[21.6,1801],[20.6,1868],[20.3,1935],[20.3,2000],[20.3,2067],[20.3,2134],[20.3,2201],[20.3,2267],[20.3,2334],[20.3,2401],[20.3,2467],[20.3,2534],[20.3,2601],[20.3,2667],[20.3,2734],[20.3,2801],[20.3,2867],[20.3,2934],[20.3,3001],[20.3,3068],[20.3,3134],[20.3,3201],[20.3,3267],[20.3,3334],[20.3,3401],[20.3,3468],[20.3,3534],[20.3,3601],[20.3,3668],[20.3,3734],[20.3,3801],[20.3,3868],[20.3,3935],[20.3,4001],[20.3,4068],[20.3,4135],[20.3,4201],[20.3,4268],[20.3,4335],[20.3,4401],[20.3,4468],[20.3,4535],[20.3,4602],[20.3,4668],[20.3,4735],[20.3,4802],[20.3,4868],[20.3,4935],[20.3,5002],[20.3,5068],[20.3,5135],[20.3,5202],[20.3,5269],[20.3,5335],[20.3,5402],[20.3,5469],[20.3,5535],[20.3,5602],[20.3,5669],[20.3,5735],[20.3,5802],[20.4,5869],[20.6,5936],[22.2,6003],[26.9,6070],[31,6136],[34.3,6203],[37.6,6270],[40.2,6336],[42.7,6403],[44.1,6470],[46,6536],[47.8,6603],[49.3,6670],[49.9,6737],[49.9,6802],[50.3,6870],[50.6,6936],[51,7003],[51.3,7070],[51.8,7137],[51.9,7203],[53.8,7270],[55.3,7337],[57.3,7403],[58.8,7470],[60.5,7537],[62.9,7604],[66.4,7670],[69.5,7737],[71.5,7804],[72,7870],[72,7936],[72,8003],[72,8070],[72,8136],[72,8203],[72,8270],[73.3,8337],[75.3,8404],[76.5,8471],[77.7,8537],[79.1,8605],[80.6,8671],[81.6,8737],[83.5,8804],[85,8871],[86.5,8937],[87.2,9004],[87.6,9071],[87.8,9137],[87.8,9204],[88.1,9271],[88.4,9338],[88.8,9404],[89.2,9471],[89.4,9537],[89.4,9604],[89.5,9671],[89.8,9737],[89.8,9804],[89.8,9870],[89.8,9938],[89.8,10006],[89.8,10072],[89.8,10137],[89.8,10204],[89.8,10271],[89.8,10338],[89.8,10405],[89.8,10471],[89.8,10538],[89.8,10604],[89.8,10671],[89.8,10738],[89.8,10805],[89.8,10871],[89.8,10938],[89.8,11005],[89.8,11071],[89.8,11138],[89.8,11205],[89.8,11271],[89.8,11338],[89.8,11405],[89.8,11472],[89.8,11538],[89.8,11605],[89.8,11672],[89.8,11738],[89.8,11805],[89.8,11872],[89.8,11938],[89.8,12005],[89.8,12072],[89.8,12138],[89.8,12205],[89.8,12272],[89.8,12338],[89.8,12405],[89.8,12472],[89.8,12539],[89.8,12605],[89.8,12672],[89.8,12739],[89.8,12806],[89.8,12872]]",1,0,655.8978,659.6991,62.1522694,1.5309,"[{""rating"":62.15226939970717,""responseTime"":1.5309000000356718}]",space,3.2022,,659.6992,Half the time,50,659.7037,,,[],,0,17,17,17,1,audio/Narrative8Situation8.wav,audio/Narrative7Situation8.wav,audio/Narrative6Situation8.wav,audio/Narrative5Situation8.wav,3,2,5,3,,,,,,,,,,,,,,,,,,,,,,,,,,,,,,,,,,,,,,,
,,,,,,55fc5cbf77f33b0005cb244f,2024-05-13_11h53.20.549,group3.1-3.2-social-tom,2023.2.2,Win32,30.03003003,65c5074098b851296ff0b7ed,664236ff4b6b864db326d78b,,,,,,,,,,,,,,,,,,,,,,,,,,,,,659.7039,1,audio/Narrative8Situation9.wav,662.7339,,662.7339,674.1059,"[[61.6,1534],[58.8,1601],[52.6,1668],[50.4,1735],[50.3,1800],[50,1868],[49.6,1934],[49.1,2001],[48.7,2067],[48.7,2134],[48.7,2200],[48.7,2267],[48.7,2334],[48.7,2400],[48.7,2467],[48.7,2534],[48.7,2601],[48.7,2667],[48.7,2734],[48.7,2801],[48.7,2867],[48.7,2934],[48.7,3001],[48.7,3067],[48.7,3134],[48.7,3201],[48.7,3268],[48.7,3334],[48.7,3401],[48.7,3468],[48.7,3534],[48.7,3601],[48.7,3668],[48.7,3735],[48.7,3801],[48.7,3868],[48.7,3934],[48.7,4001],[48.7,4068],[49.1,4135],[50.1,4202],[52.5,4268],[54.7,4335],[56.6,4402],[58.3,4469],[58.9,4536],[59.7,4603],[60.8,4669],[63.8,4735],[71.5,4802],[74.2,4869],[77.1,4936],[80,5003],[83.4,5069],[85.9,5136],[86.6,5203],[87.2,5269],[88.5,5336],[88.8,5402],[88.8,5469],[88.8,5535],[88.8,5603],[88.8,5669],[88.8,5735],[88.8,5802],[88.8,5869],[88.8,5936],[88.8,6002],[88.8,6069],[88.8,6136],[88.8,6202],[88.8,6269],[88.8,6336],[88.8,6402],[88.8,6469],[88.8,6536],[88.8,6602],[88.8,6669],[88.8,6736],[88.8,6802],[88.8,6869],[88.8,6936],[88.8,7003],[88.8,7069],[88.8,7136],[88.8,7203],[88.8,7269],[88.8,7336],[88.8,7403],[88.8,7470],[88.8,7536],[88.8,7603],[88.8,7670],[88.8,7736],[88.8,7803],[88.8,7870],[88.8,7937],[88.8,8003],[88.8,8070],[88.8,8136],[88.8,8203],[88.8,8270],[88.8,8337],[88.8,8403],[88.8,8470],[88.8,8537],[88.8,8603],[88.8,8670],[88.8,8737],[88.8,8803],[88.8,8870],[88.8,8937],[88.8,9004],[88.8,9071],[88.8,9137],[88.8,9204],[88.8,9271],[88.8,9337],[88.8,9404],[88.8,9471],[88.8,9538],[88.8,9604],[88.8,9671],[88.8,9738],[88.8,9805],[88.8,9871],[88.8,9937],[88.8,10004],[88.8,10071],[88.8,10138],[88.8,10204],[88.8,10271],[88.8,10338],[88.8,10404],[88.8,10471],[88.8,10538],[88.8,10604],[88.8,10671],[88.8,10738],[88.8,10805],[88.8,10871],[88.8,10938],[88.8,11004],[88.8,11071],[88.8,11138],[88.8,11205],[88.8,11271],[88.8,11338]]",1,0,674.1062,676.8072,81.62518302,1.4203,"[{""rating"":81.62518301610542,""responseTime"":1.4202999999523627}]",space,2.1445,,676.8072,Not at all,0,676.8124,,,[],,0,18,18,18,1,audio/Narrative8Situation9.wav,audio/Narrative7Situation9.wav,audio/Narrative6Situation9.wav,audio/Narrative5Situation9.wav,3,2,4,3,,,,,,,,,,,,,,,,,,,,,,,,,,,,,,,,,,,,,,,
,,,,,,55fc5cbf77f33b0005cb244f,2024-05-13_11h53.20.549,group3.1-3.2-social-tom,2023.2.2,Win32,30.03003003,65c5074098b851296ff0b7ed,664236ff4b6b864db326d78b,,,,,,,,,,,,,,,,,,,,,,,,,,,693.2017,695.7823,695.798,2,audio/Narrative13Situation2.wav,695.7981,,695.7982,725.5966,"[[81,1985],[71.4,2052],[60.2,2119],[37.4,2185],[30.7,2252],[26.3,2319],[26.1,2384],[25.8,2452],[25.8,2519],[25.8,2585],[25.8,2652],[25.8,2718],[26,2785],[26,2851],[26,2918],[25.8,2986],[25.3,3052],[24.1,3119],[22.5,3186],[21.6,3252],[19.8,3319],[19.3,3386],[18.7,3453],[18.2,3519],[17.8,3586],[17.6,3653],[17.3,3719],[17.2,3786],[17.1,3853],[16.9,3919],[16.9,3985],[16.9,4052],[16.9,4119],[16.9,4185],[16.9,4252],[16.9,4319],[16.9,4386],[16.9,4452],[16.9,4519],[16.9,4586],[16.9,4652],[16.9,4719],[16.9,4786],[16.9,4852],[16.9,4919],[16.9,4986],[16.9,5052],[16.9,5119],[16.9,5186],[16.9,5253],[16.9,5319],[16.9,5386],[16.9,5452],[16.9,5519],[16.9,5586],[16.9,5653],[16.9,5719],[16.9,5786],[16.9,5853],[16.9,5919],[16.9,5986],[16.9,6053],[16.9,6120],[16.9,6186],[16.9,6253],[16.9,6320],[16.9,6386],[16.9,6453],[16.9,6520],[16.9,6586],[16.9,6653],[16.9,6720],[16.9,6787],[16.9,6853],[16.9,6920],[16.9,6987],[16.9,7053],[16.9,7120],[16.9,7187],[16.9,7254],[16.9,7320],[16.9,7387],[16.9,7454],[16.9,7520],[16.9,7587],[16.9,7653],[16.9,7720],[16.9,7787],[16.9,7854],[16.9,7921],[16.9,7987],[16.9,8054],[16.9,8120],[16.9,8187],[16.9,8254],[16.9,8321],[16.9,8387],[16.9,8454],[16.9,8521],[16.9,8587],[16.9,8654],[16.9,8721],[16.9,8788],[16.9,8854],[16.9,8921],[16.9,8988],[16.9,9054],[16.9,9121],[16.9,9188],[16.9,9254],[16.9,9321],[16.9,9388],[16.9,9455],[16.9,9521],[16.9,9588],[16.9,9655],[16.9,9721],[16.9,9788],[16.9,9855],[16.9,9921],[16.9,9988],[16.9,10055],[16.9,10121],[16.9,10188],[16.9,10255],[16.9,10322],[16.9,10388],[16.9,10455],[16.9,10522],[16.9,10589],[16.9,10656],[16.9,10722],[16.9,10789],[16.9,10856],[16.9,10923],[16.9,10989],[16.9,11055],[16.9,11122],[16.9,11189],[16.9,11255],[16.9,11322],[16.9,11389],[16.9,11456],[16.9,11522],[16.9,11589],[16.9,11656],[16.9,11722],[16.9,11789],[16.9,11856],[16.9,11923],[16.9,11989],[16.9,12056],[16.9,12122],[16.9,12189],[16.9,12256],[16.9,12323],[16.9,12389],[16.9,12456],[16.9,12523],[16.9,12589],[16.9,12656],[16.9,12723],[16.9,12789],[16.9,12856],[16.9,12923],[16.9,12990],[16.9,13056],[16.9,13123],[16.9,13190],[16.9,13256],[16.9,13323],[16.9,13390],[16.9,13456],[16.9,13523],[16.9,13590],[16.9,13657],[16.9,13723],[16.9,13790],[16.9,13856],[16.9,13923],[16.9,13990],[16.9,14057],[16.9,14124],[16.9,14190],[16.9,14257],[16.9,14323],[16.9,14390],[16.9,14457],[16.9,14524],[16.9,14590],[16.9,14657],[16.9,14724],[16.9,14790],[16.9,14857],[16.9,14924],[16.9,14990],[16.9,15057],[16.9,15124],[16.9,15190],[16.9,15257],[16.9,15324],[16.9,15390],[16.9,15457],[16.9,15524],[16.9,15591],[16.9,15657],[16.9,15724],[16.9,15791],[16.9,15858],[16.9,15924],[16.9,15991],[16.9,16058],[16.9,16124],[16.9,16191],[16.9,16258],[16.9,16324],[16.9,16391],[16.9,16458],[16.9,16524],[16.9,16591],[16.9,16658],[16.9,16725],[16.9,16791],[16.9,16858],[16.9,16925],[16.9,16991],[16.9,17058],[16.9,17125],[16.9,17191],[16.9,17258],[16.9,17325],[16.9,17392],[16.9,17458],[16.9,17525],[16.9,17591],[16.9,17658],[16.9,17725],[16.9,17792],[16.9,17858],[16.9,17925],[16.9,17992],[16.9,18058],[16.9,18125],[16.9,18192],[16.9,18258],[16.9,18325],[16.9,18392],[16.9,18459],[16.9,18525],[16.9,18592],[16.9,18659],[16.9,18726],[16.9,18792],[16.9,18859],[16.9,18925],[16.9,18992],[16.9,19059],[16.9,19126],[16.9,19192],[16.9,19259],[16.9,19326],[16.9,19392],[16.9,19459],[16.9,19526],[16.9,19592],[16.9,19659],[16.9,19726],[16.9,19793],[16.9,19859],[16.9,19926],[16.9,19993],[16.9,20059],[16.9,20126],[16.9,20193],[16.9,20259],[16.9,20326],[16.9,20393],[16.9,20460],[16.9,20526],[16.9,20593],[16.9,20660],[16.9,20726],[16.9,20793],[16.9,20860],[16.9,20926],[16.9,20993],[16.9,21060],[16.9,21127],[16.9,21193],[16.9,21260],[16.9,21327],[16.9,21393],[16.9,21460],[16.9,21527],[16.9,21593],[16.9,21660],[16.9,21727],[16.9,21794],[16.9,21860],[16.9,21927],[18.1,21994],[21.6,22061],[24.8,22128],[27.2,22194],[29.4,22261],[30.8,22328],[33.2,22394],[35.1,22461],[35.7,22528],[35.8,22594],[35.8,22661],[36.4,22728],[37.7,22795],[38.9,22861],[40,22928],[40.9,22995],[41.5,23061],[42.1,23128],[42.7,23195],[43.3,23261],[43.7,23328],[43.9,23394],[43.9,23461],[43.9,23528],[43.9,23594],[43.9,23661],[43.9,23728],[43.9,23794],[43.9,23861],[44,23928],[44,23994],[44,24061],[44,24128],[44,24195],[44,24261],[44,24328],[44,24395],[44,24461],[44,24528],[44,24595],[44,24661],[44,24728],[44,24795],[44,24861],[44,24928],[44,24995],[44,25062],[44,25128],[44,25195],[44,25262],[44,25328],[44,25395],[44,25462],[44,25529],[44,25596],[44,25662],[44,25731],[44,25796],[44,25862],[44,25929],[44,25997],[44,26062],[44,26130],[44,26196],[44,26263],[44,26329],[44,26396],[44,26464],[44,26529],[44,26596],[44,26663],[44,26730],[44,26797],[44,26863],[44,26930],[44,26996],[44,27063],[44,27130],[44,27196],[44,27264],[44,27330],[44,27397],[44,27464],[44,27530],[44,27597],[44,27663],[44,27730],[44,27796],[44,27863],[44,27930],[44,27997],[44,28063],[44,28130],[44,28196],[44,28263],[44,28330],[44,28397],[44,28463],[44,28530],[44,28596],[44,28663],[44,28730],[44,28797],[44,28863],[44,28930],[44,28997],[44,29064],[44,29130],[44,29197],[44,29263],[44,29330],[44,29397],[44,29464],[44,29530],[44,29597],[44,29664],[44,29730],[44,29798]]",1,0,725.597,725.6084,,,[],,,,725.6085,Not at all,0,725.6098,,,[],,0,0,0,0,1,audio/Narrative13Situation2.wav,audio/Narrative13Situation2.wav,audio/Narrative13Situation2.wav,audio/Narrative13Situation2.wav,2,2,2,2,,,,,676.8132,693.1831,space,15.8311,,,,,,,,,,,,,,,,,,,,,,,,,,,,,,,
,,,,,,55fc5cbf77f33b0005cb244f,2024-05-13_11h53.20.549,group3.1-3.2-social-tom,2023.2.2,Win32,30.03003003,65c5074098b851296ff0b7ed,664236ff4b6b864db326d78b,,,,,,,,,,,,,,,,,,,,,,,,,,,,,725.61,2,audio/Narrative5Situation1.wav,730.6315,,730.6316,743.9711,"[[41.4,1934],[34.5,2001],[29.9,2068],[26.6,2135],[23.2,2201],[20.3,2268],[19.4,2334],[19.3,2400],[19.1,2468],[19.1,2534],[19.1,2601],[19.1,2667],[19.1,2734],[19.1,2801],[19.1,2867],[19.1,2934],[19.1,3001],[19.1,3067],[19.1,3134],[19.1,3201],[19.1,3268],[19.1,3334],[19.1,3401],[19.1,3468],[19.1,3534],[19.1,3601],[19.1,3668],[18.8,3736],[17.5,3802],[16.3,3868],[15.2,3935],[14.1,4002],[13.5,4068],[13.4,4136],[13.4,4201],[13.4,4268],[13.4,4335],[13.4,4401],[13.4,4468],[13.4,4535],[13.4,4602],[13.4,4668],[13.4,4735],[13.4,4801],[13.4,4868],[13.4,4935],[13.4,5002],[13.4,5068],[13.4,5135],[13.4,5202],[13.4,5269],[13.4,5335],[13.4,5402],[13.4,5469],[13.4,5535],[13.4,5602],[13.4,5668],[13.4,5735],[13.4,5802],[13.4,5869],[13.4,5935],[13.4,6002],[13.4,6069],[13.4,6136],[13.4,6202],[13.4,6269],[13.4,6335],[13.4,6402],[13.4,6469],[13.4,6536],[13.4,6602],[13.4,6669],[13.4,6736],[13.4,6802],[13.4,6869],[13.4,6936],[13.4,7003],[13.4,7069],[13.4,7136],[13.4,7203],[13.4,7269],[13.4,7336],[13.4,7403],[13.4,7469],[13.4,7536],[13.4,7603],[13.4,7669],[13.4,7736],[13.4,7803],[13.4,7870],[13.4,7936],[13.4,8003],[13.4,8070],[13.4,8136],[13.4,8203],[13.4,8270],[13.4,8336],[13.4,8403],[13.4,8470],[13.4,8537],[13.4,8603],[13.4,8670],[13.4,8737],[13.4,8803],[13.4,8870],[13.4,8937],[13.4,9003],[13.4,9070],[13.4,9137],[13.4,9204],[13.4,9270],[13.4,9337],[13.4,9404],[13.4,9470],[13.4,9537],[13.4,9604],[13.4,9670],[14.4,9738],[15,9805],[15.3,9871],[16,9938],[17.2,10006],[18.8,10072],[20.3,10138],[21.7,10204],[23.1,10271],[24.2,10338],[25.3,10406],[26.7,10472],[27.7,10539],[28.3,10605],[28.3,10671],[28.3,10738],[28.3,10804],[28.3,10871],[28.3,10938],[29.1,11005],[29.5,11072],[29.6,11138],[29.6,11205],[29.6,11271],[29.8,11338],[29.9,11406],[30.2,11472],[30.5,11538],[30.8,11606],[31.7,11672],[32.1,11740],[33,11806],[33.6,11873],[34.5,11939],[35.4,12006],[35.9,12072],[37,12139],[38.6,12206],[41.8,12273],[45.8,12339],[49.1,12407],[50.3,12473],[50.9,12540],[51.9,12607],[53.7,12672],[55.6,12740],[59.2,12806],[61.3,12873],[62.2,12940],[62.3,13005],[62.3,13072],[62.3,13139],[62.3,13205],[62.3,13272],[62.3,13339]]",1,0,743.9715,748.3065,53.22108346,3.0167,"[{""rating"":53.221083455344065,""responseTime"":3.016700000047763}]",space,3.7567,,748.3067,Not at all,0,748.31,,,[],,0,1,1,1,1,audio/Narrative7Situation1.wav,audio/Narrative8Situation1.wav,audio/Narrative5Situation1.wav,audio/Narrative6Situation1.wav,2,5,5,2,,,,,,,,,,,,,,,,,,,,,,,,,,,,,,,,,,,,,,,
,,,,,,55fc5cbf77f33b0005cb244f,2024-05-13_11h53.20.549,group3.1-3.2-social-tom,2023.2.2,Win32,30.03003003,65c5074098b851296ff0b7ed,664236ff4b6b864db326d78b,,,,,,,,,,,,,,,,,,,,,,,,,,,,,748.3105,2,audio/Narrative5Situation2.wav,751.3409,,751.341,780.8213,"[[999,0],[999,66],[999,133],[999,199],[999,266],[999,333],[999,400],[999,466],[999,533],[999,600],[999,666],[999,733],[999,800],[999,866],[999,933],[999,1000],[999,1067],[999,1133],[999,1200],[999,1267],[999,1333],[999,1400],[999,1467],[999,1533],[999,1600],[999,1667],[999,1734],[999,1800],[999,1867],[999,1935],[43.7,2001],[40,2068],[35.1,2134],[33.7,2201],[32.9,2268],[32.3,2335],[31.6,2401],[31.4,2467],[31.4,2534],[31.4,2601],[31.1,2668],[30.8,2735],[30.7,2801],[30.7,2867],[30.7,2934],[30.7,3001],[30.7,3068],[30.7,3134],[30.7,3201],[30.7,3268],[30.7,3334],[30.7,3401],[30.7,3467],[30.7,3534],[30.7,3601],[30.7,3668],[30.7,3734],[30.7,3801],[30.7,3868],[30.7,3936],[30.7,4001],[30.8,4069],[30.8,4135],[30.8,4201],[30.8,4268],[30.8,4335],[30.8,4402],[31,4469],[31.3,4536],[31.3,4601],[31.3,4668],[31.3,4735],[31.3,4802],[31.3,4869],[31.3,4935],[31.4,5002],[31.6,5068],[31.6,5135],[31.7,5202],[31.7,5268],[31.8,5336],[32.1,5403],[32.4,5469],[32.4,5535],[32.4,5602],[32.4,5669],[32.4,5735],[32.4,5802],[32.4,5869],[32.4,5935],[32.4,6002],[32.4,6069],[32.4,6136],[32.4,6202],[32.4,6269],[32.4,6336],[32.4,6403],[32.4,6469],[32.4,6536],[32.4,6602],[32.4,6669],[32.4,6736],[32.4,6802],[32.4,6869],[32.4,6936],[32.4,7003],[32.4,7069],[32.4,7136],[32.4,7203],[32.4,7269],[32.4,7336],[32.4,7403],[32.4,7469],[32.4,7536],[32.4,7603],[32.4,7670],[32.4,7736],[32.4,7803],[32.6,7870],[32.6,7936],[32.6,8003],[32.6,8070],[32.6,8136],[32.6,8203],[32.6,8270],[32.6,8337],[32.6,8403],[32.6,8470],[32.6,8537],[32.6,8604],[32.6,8671],[32.6,8737],[32.6,8804],[32.6,8871],[32.6,8938],[32.6,9004],[32.6,9071],[32.6,9137],[32.6,9204],[32.7,9271],[32.7,9338],[32.7,9404],[32.7,9471],[32.7,9537],[32.7,9605],[32.7,9671],[32.7,9737],[32.7,9804],[32.7,9871],[32.7,9938],[35.1,10005],[39.6,10072],[44.6,10138],[47.8,10205],[49,10272],[49.9,10339],[51.2,10405],[52,10472],[52.3,10539],[52.3,10604],[52.3,10671],[52.3,10738],[52.5,10805],[53.5,10872],[54.8,10939],[56,11006],[57.5,11072],[58.5,11139],[59.7,11206],[60.5,11273],[61.6,11339],[62.9,11406],[64.1,11472],[64.2,11539],[64.2,11605],[64.2,11671],[64.2,11739],[64.2,11805],[64.2,11872],[64.2,11939],[64.2,12006],[64.2,12072],[64.2,12139],[64.2,12205],[64.2,12273],[64.2,12339],[64.2,12406],[64.2,12472],[64.5,12540],[65.7,12607],[67.1,12674],[68.3,12740],[69.3,12807],[69.9,12874],[70.5,12940],[71.1,13007],[71.7,13073],[72.3,13140],[72.8,13207],[73.4,13274],[74,13340],[74.2,13406],[74.7,13473],[75.5,13540],[76.4,13607],[77.2,13673],[77.7,13740],[78.1,13806],[78.4,13873],[79,13940],[79.6,14007],[80.2,14073],[80.9,14140],[81.8,14207],[82.5,14274],[83.2,14340],[83.7,14407],[83.8,14473],[84,14539],[84.3,14607],[84.6,14673],[84.6,14739],[84.6,14806],[84.6,14873],[84.6,14939],[84.6,15006],[84.6,15073],[84.8,15141],[86.5,15207],[87.3,15274],[87.6,15340],[88.1,15407],[88.4,15474],[88.7,15540],[88.9,15608],[89.8,15674],[90.8,15740],[91.3,15807],[91.3,15873],[91.7,15941],[92,16007],[92,16073],[92,16140],[92,16207],[92,16274],[92,16340],[92,16407],[92,16474],[92,16540],[92,16607],[92,16674],[92,16740],[92,16807],[92,16874],[92,16941],[92,17007],[92,17074],[92,17141],[92,17207],[92,17274],[92,17341],[92,17407],[92,17474],[92,17541],[92,17608],[92,17675],[92,17741],[92,17807],[92,17874],[92,17941],[92,18008],[92,18074],[92,18141],[92,18208],[92,18274],[92,18341],[92,18408],[92,18475],[92,18543],[92,18608],[92,18675],[92,18741],[92,18808],[92,18875],[92,18941],[91.9,19009],[91.9,19075],[91.9,19141],[91.4,19209],[91.1,19276],[91,19342],[90.7,19409],[90.6,19475],[90.6,19542],[90.6,19609],[90.6,19675],[90.4,19742],[90.4,19809],[90.4,19875],[90.4,19942],[90.4,20009],[90.4,20075],[90.4,20142],[90.4,20209],[90.4,20275],[90.4,20342],[90.4,20409],[90.4,20476],[90.4,20543],[90.4,20610],[90.4,20676],[90.4,20743],[90.4,20809],[90.4,20876],[90.4,20942],[90.4,21009],[90.4,21076],[90.4,21142],[90.4,21209],[90.4,21276],[90.4,21343],[90.4,21409],[90.4,21476],[90.4,21543],[90.4,21609],[90.4,21676],[90,21744],[89.8,21809],[89.2,21877],[88.8,21944],[87.9,22011],[86.3,22078],[84.6,22144],[83.8,22210],[83.7,22277],[83.7,22343],[83.7,22410],[83.7,22477],[83.7,22543],[83.7,22610],[83.7,22677],[83.7,22743],[83.7,22810],[83.7,22877],[86.2,22944],[90.8,23011],[92.9,23078],[93.9,23145],[94.1,23210],[94.1,23277],[94.2,23344],[94.2,23411],[94.2,23477],[94.2,23544],[94.2,23610],[94.2,23677],[94.2,23744],[94.2,23811],[94.2,23877],[94.2,23944],[94.2,24011],[94.2,24077],[94.2,24144],[94.2,24211],[94.2,24277],[94.2,24344],[94.2,24411],[94.2,24477],[94.2,24544],[94.2,24611],[94.2,24678],[94.2,24744],[94.2,24811],[94.2,24878],[94.2,24944],[94.2,25011],[94.2,25078],[94.2,25144],[94.2,25211],[94.2,25278],[94.2,25344],[94.2,25411],[94.2,25478],[94.2,25545],[94.2,25611],[94.2,25678],[94.2,25745],[94.2,25811],[94.2,25878],[94.2,25945],[94.2,26011],[94.2,26078],[94.2,26145],[94.2,26212],[94.2,26278],[94.2,26345],[94.2,26412],[94.2,26478],[94.2,26546],[94.2,26612],[94.2,26679],[93.9,26746],[93.8,26812],[93.6,26879],[93.5,26945],[93.5,27012],[93.5,27079],[93.5,27146],[93.5,27212],[93.5,27279],[93.3,27346],[93.2,27412],[93.2,27479],[93,27546],[93,27612],[92.9,27680],[92.8,27746],[92.5,27813],[92.5,27879],[92.5,27946],[92.5,28012],[92.5,28079],[92.5,28146],[92.5,28212],[92.5,28279],[92.5,28346],[92.5,28413],[92.5,28479],[92.3,28547],[92.3,28613],[92.3,28679],[92.3,28746],[92.3,28813],[92.3,28879],[92.3,28946],[92.3,29013],[92.3,29079],[92.3,29146],[92.3,29213],[92.3,29279],[92.3,29346],[92.3,29413],[92.3,29480]]",1,0,780.8218,785.2568,80.30746706,2.951,"[{""rating"":80.30746705710102,""responseTime"":2.951000000000022}]",space,3.8361,,785.2569,Half the time,50,785.2616,,,[],,0,2,2,2,1,audio/Narrative7Situation2.wav,audio/Narrative8Situation2.wav,audio/Narrative5Situation2.wav,audio/Narrative6Situation2.wav,3,3,3,3,,,,,,,,,,,,,,,,,,,,,,,,,,,,,,,,,,,,,,,
,,,,,,55fc5cbf77f33b0005cb244f,2024-05-13_11h53.20.549,group3.1-3.2-social-tom,2023.2.2,Win32,30.03003003,65c5074098b851296ff0b7ed,664236ff4b6b864db326d78b,,,,,,,,,,,,,,,,,,,,,,,,,,,,,785.2618,2,audio/Narrative5Situation3.wav,788.2912,,788.2912,802.231,"[[999,10],[999,66],[999,133],[999,199],[999,266],[999,333],[999,399],[999,466],[999,533],[999,600],[999,667],[999,733],[999,800],[999,866],[999,933],[999,1000],[999,1067],[999,1134],[999,1200],[999,1267],[999,1334],[999,1401],[999,1467],[999,1534],[999,1601],[43.7,1667],[42.2,1735],[41.7,1801],[41.1,1867],[40.3,1935],[39.9,2001],[39.9,2067],[39.9,2134],[39.9,2200],[39.9,2268],[39.9,2334],[39.9,2401],[39.5,2468],[37.6,2537],[33,2602],[29.4,2670],[27,2737],[25.5,2802],[24.2,2870],[23.6,2936],[23.5,3003],[23.5,3068],[23.5,3135],[23.5,3201],[23.5,3268],[23.5,3334],[23.5,3401],[23.5,3468],[23.5,3535],[23.5,3601],[23.5,3668],[23.5,3735],[23.5,3801],[23.5,3868],[23.5,3935],[23.5,4001],[23.5,4068],[23.5,4135],[23.5,4201],[23.5,4268],[23.5,4335],[23.5,4401],[23.5,4468],[23.5,4535],[23.5,4601],[23.5,4668],[23.5,4735],[23.5,4802],[23.5,4868],[23.5,4935],[23.5,5002],[23.5,5068],[23.5,5135],[23.5,5202],[23.5,5269],[23.5,5335],[23.5,5402],[23.5,5468],[23.5,5535],[23.5,5602],[23.5,5669],[23.5,5736],[23.5,5802],[23.5,5869],[23.5,5935],[23.5,6002],[23.5,6069],[23.5,6136],[23.5,6202],[23.5,6269],[23.5,6336],[23.5,6402],[23.5,6469],[23.5,6536],[23.5,6602],[23.5,6669],[23.5,6736],[23.5,6803],[23.5,6869],[23.5,6936],[23.5,7003],[23.5,7069],[23.5,7136],[23.5,7203],[23.5,7269],[23.5,7336],[23.5,7403],[23.5,7469],[23.5,7536],[23.5,7603],[23.5,7669],[23.5,7736],[23.5,7803],[23.5,7870],[23.5,7936],[23.8,8004],[24.8,8071],[26.6,8138],[29.8,8204],[31.3,8270],[32,8337],[32.4,8404],[33.2,8471],[33.6,8537],[33.6,8603],[33.6,8670],[33.6,8737],[33.6,8804],[33.6,8870],[33.6,8937],[33.6,9004],[33.6,9070],[33.6,9137],[33.6,9204],[33.6,9270],[33.6,9337],[33.6,9404],[33.6,9471],[33.7,9538],[34.3,9604],[34.8,9671],[36.2,9740],[38.6,9805],[43.1,9871],[46.3,9938],[48.2,10004],[48.8,10072],[49.4,10138],[49.4,10204],[49.4,10271],[49.4,10337],[49.4,10404],[49.4,10471],[49.4,10538],[49.4,10604],[49.4,10671],[49.4,10738],[49.4,10804],[49.4,10871],[49.4,10938],[49.4,11004],[49.4,11071],[49.4,11138],[49.4,11204],[49.4,11271],[49.6,11338],[49.7,11405],[49.9,11471],[49.9,11538],[49.9,11605],[49.9,11671],[49.9,11738],[49.9,11805],[49.9,11871],[49.9,11938],[49.9,12005],[49.9,12072],[49.9,12138],[49.9,12205],[49.9,12272],[49.9,12338],[49.9,12405],[50,12472],[50,12538],[50,12605],[50,12672],[50,12738],[50,12805],[50,12872],[50,12939],[50,13005],[50,13072],[50,13139],[50,13206],[50,13272],[50,13339],[50,13406],[50,13472],[50,13539],[50,13606],[50,13672],[50,13739],[50,13806],[50,13872],[50,13939]]",1,0,802.2313,805.5323,50.14641288,0.8814,"[{""rating"":50.14641288433383,""responseTime"":0.8813999999762245}]",space,2.7247,,805.5325,Not at all,0,805.5371,,,[],,0,3,3,3,1,audio/Narrative7Situation3.wav,audio/Narrative8Situation3.wav,audio/Narrative5Situation3.wav,audio/Narrative6Situation3.wav,8,4,3,5,,,,,,,,,,,,,,,,,,,,,,,,,,,,,,,,,,,,,,,
,,,,,,55fc5cbf77f33b0005cb244f,2024-05-13_11h53.20.549,group3.1-3.2-social-tom,2023.2.2,Win32,30.03003003,65c5074098b851296ff0b7ed,664236ff4b6b864db326d78b,,,,,,,,,,,,,,,,,,,,,,,,,,,,,805.5374,2,audio/Narrative5Situation4.wav,806.566,,806.5661,827.0094,"[[49.7,1601],[47.7,1668],[41.8,1734],[29.8,1801],[26.1,1868],[25.5,1934],[25.5,2000],[25.4,2067],[25.4,2134],[25.4,2200],[25.4,2267],[25.4,2334],[25.4,2401],[25.4,2467],[25.4,2534],[25.4,2601],[25.3,2668],[25.3,2734],[24.8,2801],[24.4,2869],[19.3,2935],[9.9,3001],[7,3068],[6.2,3135],[6.1,3201],[6.1,3268],[6.1,3334],[6.1,3401],[6.1,3468],[5.9,3534],[5.9,3601],[5.9,3668],[5.9,3734],[5.9,3801],[5.9,3868],[5.9,3935],[5.9,4001],[5.9,4068],[5.9,4135],[5.9,4201],[5.9,4268],[5.9,4335],[5.9,4401],[5.9,4468],[5.9,4535],[5.9,4601],[5.9,4668],[5.9,4735],[5.9,4802],[5.9,4868],[5.9,4935],[6.1,5002],[6.1,5068],[6.1,5135],[6.1,5202],[6.1,5269],[6.1,5335],[6.1,5402],[6.1,5468],[6.1,5535],[6.1,5602],[6.1,5669],[6.1,5735],[6.1,5802],[6.1,5869],[6.1,5936],[6.1,6002],[6.1,6069],[6.1,6136],[6.1,6202],[6.1,6269],[6.1,6336],[6.1,6402],[6.1,6469],[6.1,6536],[6.1,6602],[6.1,6669],[6.1,6736],[6.1,6803],[6.1,6869],[6.1,6936],[6.1,7003],[6.1,7070],[6.1,7136],[6.1,7203],[6.1,7269],[6.1,7336],[6.1,7405],[6.1,7470],[6.1,7536],[6.1,7603],[6.1,7671],[6.1,7736],[6.2,7803],[6.2,7870],[6.2,7937],[6.4,8003],[8.1,8070],[11.3,8137],[14.3,8204],[17.9,8272],[20.1,8337],[21.7,8404],[22.9,8471],[26.6,8537],[29.4,8604],[33.2,8671],[37.8,8738],[40.5,8805],[43.3,8871],[45,8937],[46.2,9004],[47.4,9072],[48.5,9138],[49.1,9205],[49.7,9271],[49.9,9337],[49.9,9404],[49.9,9470],[49.9,9537],[49.9,9604],[49.9,9670],[49.9,9737],[49.9,9804],[49.9,9871],[49.9,9939],[49.9,10005],[50.1,10073],[50.4,10139],[50.6,10207],[50.9,10273],[51.3,10340],[51.3,10404],[51.3,10471],[51.3,10538],[51.3,10605],[51.3,10671],[51.3,10738],[51.3,10804],[51.3,10871],[51.3,10938],[51.3,11005],[51.3,11071],[51.3,11138],[51.3,11205],[51.3,11271],[51.3,11338],[51.3,11405],[51.3,11472],[51.3,11538],[51.3,11605],[51.3,11672],[51.3,11738],[51.3,11805],[51.3,11872],[51.5,11940],[51.6,12007],[52.2,12072],[52.2,12138],[52.2,12206],[52.2,12272],[53.2,12340],[54.4,12406],[55.4,12473],[56.3,12539],[56.9,12605],[57,12672],[57,12739],[57.2,12806],[57.5,12873],[57.8,12940],[58.1,13005],[58.1,13072],[58.1,13139],[58.2,13206],[58.2,13272],[58.2,13339],[58.2,13406],[58.2,13472],[58.3,13540],[58.6,13608],[58.9,13673],[59.1,13739],[59.4,13806],[59.5,13873],[59.5,13939],[59.5,14006],[59.5,14072],[59.5,14139],[59.5,14206],[59.5,14273],[59.5,14341],[59.5,14407],[59.5,14473],[59.5,14540],[59.5,14607],[59.5,14673],[59.5,14740],[59.5,14807],[60.2,14875],[60.5,14941],[60.5,15006],[60.5,15073],[60.8,15141],[61,15207],[61.3,15274],[61.3,15340],[61.3,15407],[61.3,15473],[61.3,15540],[61.3,15607],[61.3,15673],[61.3,15740],[61.3,15807],[61.3,15874],[61.3,15941],[61.3,16007],[61.3,16074],[61.3,16140],[61.3,16207],[61.3,16274],[61.3,16340],[61.3,16407],[61.3,16474],[61.3,16540],[61.3,16607],[61.3,16674],[61.6,16741],[61.7,16807],[61.9,16874],[62.3,16942],[62.4,17008],[62.7,17074],[62.7,17141],[62.7,17207],[63,17275],[63.5,17342],[63.8,17408],[63.8,17474],[63.8,17541],[63.8,17608],[63.8,17674],[63.8,17741],[63.8,17808],[64.2,17875],[64.3,17941],[64.5,18008],[64.5,18075],[64.5,18141],[64.5,18208],[64.5,18274],[64.8,18342],[64.9,18408],[65.2,18475],[65.2,18541],[65.2,18608],[65.2,18675],[65.2,18741],[65.2,18808],[65.2,18875],[65.2,18942],[65.2,19008],[65.2,19075],[65.2,19141],[65.2,19208],[65.2,19275],[65.2,19342],[65.2,19408],[65.2,19475],[65.2,19542],[65.2,19609],[65.2,19675],[65.2,19742],[65.2,19809],[65.2,19875],[65.2,19942],[65.2,20009],[65.2,20076],[65.2,20142],[65.2,20209],[65.2,20275],[65.2,20342],[65.2,20409]]",1,0,827.0099,840.0157,62.00585652,3.3657,"[{""rating"":62.00585651537336,""responseTime"":3.3656999999881236}]",space,12.4211,,840.016,Not at all,0,840.0509,,,[],,0,4,4,4,1,audio/Narrative7Situation4.wav,audio/Narrative8Situation4.wav,audio/Narrative5Situation4.wav,audio/Narrative6Situation4.wav,3,3,1,2,,,,,,,,,,,,,,,,,,,,,,,,,,,,,,,,,,,,,,,
,,,,,,55fc5cbf77f33b0005cb244f,2024-05-13_11h53.20.549,group3.1-3.2-social-tom,2023.2.2,Win32,30.03003003,65c5074098b851296ff0b7ed,664236ff4b6b864db326d78b,,,,,,,,,,,,,,,,,,,,,,,,,,,,,840.0527,2,audio/Narrative5Situation5.wav,845.0838,,845.0839,860.5582,"[[61.6,1468],[56.7,1534],[50.4,1601],[41.7,1667],[40.2,1734],[40,1801],[39.9,1868],[39.8,1934],[39.2,2001],[39.2,2067],[39.2,2134],[38.3,2201],[35.9,2268],[32.1,2334],[31.7,2401],[31.7,2467],[31.7,2534],[31.7,2600],[31.7,2667],[31.7,2734],[31.7,2801],[31.7,2867],[31.7,2934],[31.7,3001],[31.7,3067],[31.7,3134],[31.7,3201],[31.7,3267],[31.7,3334],[31.7,3401],[31.7,3467],[31.7,3534],[31.7,3601],[31.7,3668],[31.7,3734],[31.7,3801],[31.7,3868],[31.7,3934],[31.7,4001],[31.7,4068],[31.7,4134],[31.7,4201],[31.8,4269],[33.9,4336],[37.6,4402],[45.2,4469],[49.1,4536],[50.6,4602],[51,4669],[51.3,4735],[51.6,4802],[51.6,4868],[51.6,4935],[51.6,5002],[51.6,5068],[51.6,5135],[51.6,5203],[51.6,5269],[51.6,5336],[51.6,5402],[51.6,5469],[51.6,5536],[51.6,5602],[51.6,5669],[51.6,5736],[51.6,5802],[51.6,5869],[51.6,5936],[51.6,6003],[51.6,6069],[51.6,6136],[51.6,6203],[51.6,6269],[51.6,6336],[51.6,6403],[51.6,6470],[51.6,6536],[51.6,6603],[51.6,6670],[51.6,6737],[51.6,6803],[51.6,6869],[51.6,6937],[51.6,7003],[51.8,7071],[53.5,7137],[56,7204],[58.1,7270],[59.4,7337],[59.8,7404],[60.5,7471],[62,7537],[62.9,7604],[63.5,7670],[64.6,7737],[65.5,7804],[66.8,7871],[68,7938],[69.2,8004],[70.4,8070],[71.4,8137],[71.8,8204],[72.1,8271],[72.4,8337],[72.7,8405],[73.1,8471],[73.6,8537],[73.9,8604],[74,8670],[74,8737],[74,8803],[74,8870],[74,8937],[74,9004],[74,9070],[74,9137],[74,9204],[74,9271],[74,9338],[74,9404],[74.7,9473],[75.9,9538],[76.8,9606],[77.2,9672],[78,9739],[78,9804],[78,9871],[78.1,9937],[78.6,10005],[78.6,10071],[78.6,10138],[78.6,10204],[78.7,10273],[79.4,10339],[79.9,10405],[80,10471],[80,10538],[80,10605],[80,10671],[80,10738],[80,10805],[80,10872],[80,10938],[80,11004],[80,11072],[80,11138],[80,11205],[80,11272],[80,11338],[80,11405],[80,11471],[80,11538],[80,11605],[80,11673],[80,11738],[80,11805],[80,11872],[80,11938],[80,12005],[80,12072],[80.2,12139],[80.2,12205],[80.2,12272],[80.2,12339],[80.2,12406],[80.2,12472],[80.2,12539],[80.2,12605],[80.2,12672],[80.2,12739],[80.2,12805],[80.2,12873],[80.2,12939],[80.2,13007],[80.6,13073],[80.9,13139],[81.2,13205],[81.2,13272],[81.2,13339],[81.2,13406],[81.5,13473],[81.9,13540],[81.9,13605],[81.9,13672],[81.9,13739],[81.9,13806],[81.9,13872],[82.1,13940],[82.2,14006],[82.5,14073],[82.5,14139],[82.5,14206],[82.5,14273],[82.5,14339],[82.5,14406],[82.5,14473],[82.5,14540],[82.5,14606],[82.5,14674],[82.5,14740],[82.5,14806],[82.5,14874],[82.5,14940],[82.5,15006],[82.5,15073],[82.5,15140],[82.5,15206],[82.5,15273],[82.5,15340],[82.5,15406],[82.5,15473]]",1,0,860.5585,864.6593,82.50366032,0.9425,"[{""rating"":82.50366032210835,""responseTime"":0.9424999999999955}]",space,3.5054,,864.6595,All the time,100,864.6731,,,[],,0,5,5,5,1,audio/Narrative7Situation5.wav,audio/Narrative8Situation5.wav,audio/Narrative5Situation5.wav,audio/Narrative6Situation5.wav,5,2,5,2,,,,,,,,,,,,,,,,,,,,,,,,,,,,,,,,,,,,,,,
,,,,,,55fc5cbf77f33b0005cb244f,2024-05-13_11h53.20.549,group3.1-3.2-social-tom,2023.2.2,Win32,30.03003003,65c5074098b851296ff0b7ed,664236ff4b6b864db326d78b,,,,,,,,,,,,,,,,,,,,,,,,,,,,,864.6735,2,audio/Narrative5Situation6.wav,867.694,,867.6942,873.4301,"[[72.5,1734],[37.1,1801],[11.2,1868],[14.1,4002],[22.8,4068],[38.9,4135],[43.1,4202],[43.4,4268],[43.6,4335],[43.6,4401],[43.6,4468],[43.6,4535],[43.7,4601],[43.7,4668],[43.7,4735],[43.7,4801],[43.7,4868],[43.7,4935],[43.7,5001],[43.7,5068],[43.7,5135],[43.7,5202],[43.7,5268],[43.7,5335],[43.7,5402],[43.7,5468],[43.7,5535],[43.7,5602],[43.7,5668],[43.7,5735]]",1,0,873.4302,876.4981,49.12152269,1.997,"[{""rating"":49.12152269399707,""responseTime"":1.9969999999999573}]",space,2.5203,,876.4982,All the time,100,876.501,,,[],,0,6,6,6,1,audio/Narrative7Situation6.wav,audio/Narrative8Situation6.wav,audio/Narrative5Situation6.wav,audio/Narrative6Situation6.wav,3,2,3,2,,,,,,,,,,,,,,,,,,,,,,,,,,,,,,,,,,,,,,,
,,,,,,55fc5cbf77f33b0005cb244f,2024-05-13_11h53.20.549,group3.1-3.2-social-tom,2023.2.2,Win32,30.03003003,65c5074098b851296ff0b7ed,664236ff4b6b864db326d78b,,,,,,,,,,,,,,,,,,,,,,,,,,,,,876.5014,2,audio/Narrative5Situation7.wav,880.5341,,880.5343,901.6095,"[[48.4,1233],[46.8,1299],[45.6,1366],[44.3,1433],[42.7,1500],[41.7,1566],[41.5,1633],[41.5,1699],[41.2,1766],[40,1833],[38.6,1900],[37.6,1966],[37.1,2033],[37.1,2099],[37.1,2166],[37.1,2233],[37.1,2300],[37.1,2366],[37.1,2433],[37.1,2500],[37.1,2566],[37.1,2633],[37.1,2700],[37.1,2766],[37.1,2833],[37.1,2899],[37.1,2966],[37.1,3033],[37.1,3100],[37.1,3167],[37.1,3233],[37.1,3300],[37.1,3366],[37.1,3433],[37.1,3500],[37.1,3567],[37.1,3633],[37.1,3700],[37.1,3767],[37.1,3833],[37.1,3900],[37.1,3967],[37.1,4033],[38,4101],[40.2,4167],[41.8,4234],[42.2,4301],[42.2,4367],[42.4,4434],[42.4,4500],[42.4,4567],[42.4,4634],[42.4,4701],[42.4,4767],[42.4,4834],[42.4,4901],[42.4,4967],[42.4,5034],[42.4,5101],[42.4,5168],[42.4,5234],[42.4,5301],[42.4,5367],[42.4,5434],[42.4,5501],[42.4,5567],[42.4,5634],[42.4,5701],[42.4,5768],[43.9,5835],[45.6,5902],[46.6,5969],[47.8,6035],[49.6,6102],[51.3,6169],[53.4,6235],[54.5,6302],[55,6369],[55.3,6436],[55.7,6502],[56.1,6569],[56.3,6635],[56.3,6701],[56.3,6768],[56.3,6835],[56.3,6902],[56.3,6968],[56.3,7035],[56.3,7101],[56.3,7168],[56.3,7235],[56.3,7302],[56.3,7368],[56.3,7435],[56.3,7502],[56.3,7569],[56.3,7635],[56.3,7702],[56.3,7769],[56.3,7835],[56.3,7902],[56.3,7969],[56.3,8036],[56.3,8102],[56.3,8169],[56.3,8235],[56.3,8302],[56.3,8369],[56.3,8436],[56.3,8503],[56.3,8569],[56.3,8636],[56.3,8704],[56.3,8770],[56.3,8836],[56.3,8903],[56.3,8970],[56.3,9036],[56.3,9104],[56.3,9170],[56.3,9236],[56.3,9303],[56.3,9370],[56.3,9437],[56.3,9503],[56.3,9570],[56.3,9636],[56.3,9704],[56.3,9770],[56.3,9837],[56.3,9903],[56.3,9971],[56.3,10037],[56.3,10104],[56.3,10170],[56.3,10237],[56.3,10303],[56.3,10370],[56.3,10437],[56.3,10504],[56.3,10570],[56.3,10637],[56.3,10704],[56.3,10770],[56.3,10837],[56.3,10904],[56.3,10971],[56.3,11037],[56.3,11104],[56.3,11171],[56.3,11238],[56.1,11305],[55.6,11374],[55.6,11438],[55.6,11504],[55.6,11571],[54.1,11639],[51.8,11705],[48.5,11774],[45.8,11840],[44.7,11906],[44.3,11973],[44.3,12038],[44.1,12106],[43.9,12172],[43.9,12238],[43.9,12304],[43.9,12371],[43.9,12438],[43.9,12504],[43.9,12571],[43.9,12638],[43.9,12704],[43.9,12771],[43.9,12838],[43.9,12904],[43.9,12971],[43.9,13038],[43.9,13104],[43.9,13171],[43.9,13238],[43.9,13304],[43.9,13371],[43.9,13438],[43.9,13505],[43.9,13571],[43.9,13638],[43.9,13705],[43.9,13771],[43.9,13838],[43.9,13905],[43.9,13971],[43.9,14038],[43.9,14105],[43.9,14172],[44,14239],[44,14305],[44,14372],[44,14438],[44,14505],[44,14572],[44.1,14639],[44.4,14706],[45.2,14773],[46.2,14839],[46.6,14906],[46.6,14972],[46.6,15039],[46.8,15105],[46.8,15172],[46.8,15239],[46.8,15306],[46.8,15372],[46.8,15439],[46.8,15506],[47.2,15573],[48.2,15640],[49.4,15706],[50.1,15773],[50.7,15840],[51.8,15907],[53.1,15973],[54.2,16040],[54.8,16106],[55.6,16173],[56.1,16240],[56.7,16306],[57,16373],[57,16439],[57,16506],[57.3,16573],[57.6,16640],[57.9,16706],[58.2,16774],[58.6,16840],[59.1,16907],[59.5,16974],[60.1,17040],[60.7,17107],[61.1,17173],[61.3,17240],[61.7,17307],[62.2,17373],[62.4,17440],[62.9,17507],[63.2,17574],[63.8,17640],[63.8,17706],[63.8,17773],[63.8,17840],[63.8,17907],[63.8,17974],[63.8,18041],[64.5,18110],[65.7,18175],[66.5,18241],[66.8,18309],[67,18374],[67,18441],[67,18507],[67.4,18575],[67.9,18641],[68.6,18708],[68.9,18775],[69.3,18841],[70.1,18908],[70.6,18975],[71.4,19042],[71.7,19109],[72,19175],[72.3,19242],[72.5,19308],[72.8,19375],[73.1,19441],[73.1,19508],[73.1,19574],[73.1,19641],[73.1,19708],[73.1,19774],[73.1,19841],[73.1,19908],[73.1,19974],[73.1,20041],[73.1,20108],[73.1,20174],[73.1,20241],[73.1,20308],[73.1,20374],[73.1,20441],[73.1,20508],[73.1,20575],[73.1,20641],[73.1,20708],[73.1,20775],[73.1,20842],[73.1,20908],[73.1,20975],[73.1,21041]]",1,0,901.6099,904.7447,40.6295754,1.8922,"[{""rating"":40.62957540263543,""responseTime"":1.8921999999880654}]",space,2.576,,904.7448,Not at all,0,904.7498,,,[],,0,7,7,7,1,audio/Narrative7Situation7.wav,audio/Narrative8Situation7.wav,audio/Narrative5Situation7.wav,audio/Narrative6Situation7.wav,5,3,4,5,,,,,,,,,,,,,,,,,,,,,,,,,,,,,,,,,,,,,,,
,,,,,,55fc5cbf77f33b0005cb244f,2024-05-13_11h53.20.549,group3.1-3.2-social-tom,2023.2.2,Win32,30.03003003,65c5074098b851296ff0b7ed,664236ff4b6b864db326d78b,,,,,,,,,,,,,,,,,,,,,,,,,,,,,904.7503,2,audio/Narrative5Situation8.wav,907.7789,,907.7789,916.6501,"[[40,1201],[38.7,1267],[35.8,1334],[33.9,1401],[32.6,1467],[31.7,1534],[31.3,1601],[30.8,1668],[30.4,1734],[29.9,1801],[29.5,1868],[29.2,1934],[29.1,2000],[29.1,2067],[29.1,2134],[29.1,2201],[29.1,2267],[29.1,2334],[29.1,2401],[29.1,2467],[29.1,2534],[29.1,2601],[29.1,2667],[29.1,2734],[29.1,2801],[29.1,2867],[29.1,2934],[29.1,3001],[29.1,3068],[29.1,3134],[29.1,3201],[29.1,3268],[29.1,3335],[29.1,3401],[29.1,3468],[29.1,3534],[29.1,3601],[29.1,3668],[29.1,3735],[29.1,3802],[29.1,3868],[29.1,3935],[29.1,4001],[29.1,4068],[29.1,4135],[29.1,4201],[29.1,4268],[29.1,4335],[29.1,4402],[29.1,4468],[29.1,4535],[29.1,4602],[29.1,4668],[29.1,4735],[29.1,4801],[29.1,4868],[29.1,4935],[29.1,5002],[29.1,5068],[29.1,5135],[29.1,5202],[29.1,5269],[29.1,5335],[29.1,5402],[29.6,5469],[30.7,5536],[32,5603],[33.6,5669],[34.9,5736],[35.8,5803],[37.3,5870],[38.4,5936],[38.6,6002],[38.6,6069],[38.6,6135],[38.9,6202],[38.9,6269],[38.9,6336],[38.9,6402],[38.9,6469],[38.9,6536],[38.9,6603],[39.8,6671],[41.1,6738],[43.9,6805],[46.9,6871],[49.4,6937],[51.6,7006],[52.9,7071],[55,7138],[56.4,7205],[57.2,7271],[57.3,7336],[57.3,7403],[57.3,7470],[57.3,7537],[57.3,7604],[57.3,7670],[57.3,7737],[58.6,7805],[60.4,7871],[61.6,7939],[62.2,8004],[62.3,8070],[62.3,8137],[62.3,8204],[62.3,8270],[62.3,8337],[62.3,8403],[62.4,8470],[62.4,8537],[62.4,8604],[62.4,8670],[62.4,8737],[62.4,8804],[62.6,8870]]",1,0,916.6503,921.0849,50,2.5296,"[{""rating"":50,""responseTime"":2.5296000000238337}]",space,3.8374,,921.085,Not at all,0,921.0897,,,[],,0,8,8,8,1,audio/Narrative7Situation8.wav,audio/Narrative8Situation8.wav,audio/Narrative5Situation8.wav,audio/Narrative6Situation8.wav,2,3,3,5,,,,,,,,,,,,,,,,,,,,,,,,,,,,,,,,,,,,,,,
