exp_question,consent.started,consent.stopped,consentResponse.keys,consentResponse.rt,consentResponse.duration,participantID,date,expName,psychopyVersion,OS,frameRate,STUDY_ID,SESSION_ID,opening1.started,opening1.stopped,keyEndingOpening1.keys,keyEndingOpening1.rt,keyEndingOpening1.duration,volumeAdjust.started,volumeAdjust.stopped,endingAdjust.keys,endingAdjust.rt,endingAdjust.duration,opening2.started,opening2.stopped,keyEndingOpening.keys,keyEndingOpening.rt,keyEndingOpening.duration,mouse.x,mouse.y,mouse.leftButton,mouse.midButton,mouse.rightButton,mouse.time,instructionLoop.thisRepN,instructionLoop.thisTrialN,instructionLoop.thisN,instructionLoop.thisIndex,instructionLoop.ran,readyForAudio.started,readyForAudio.stopped,fixation.started,run,audio_played,fixation.stopped,endPractice.keys,audioPre.started,audioPre.stopped,continuousResponses_audio,continuousSlider.response,continuousSlider.rt,intRating.started,intRating.stopped,intQuestionSlider.response,intQuestionSlider.rt,intQuestionSlider.history,confirmResponse.keys,confirmResponse.rt,confirmResponse.duration,catchQuestion.started,catch_label,catch_value,catchQuestion.stopped,catchQuestionSlider.response,catchQuestionSlider.rt,catchQuestionSlider.history,confirmResponse_2.keys,audioRunLoop.thisRepN,audioRunLoop.thisTrialN,audioRunLoop.thisN,audioRunLoop.thisIndex,audioRunLoop.ran,conditions1_1,conditions2_1,conditions1_2,conditions2_2,dur1_1,dur2_1,dur1_2,dur2_2,endPractice.rt,endPractice.duration,confirmResponse_2.rt,confirmResponse_2.duration,runIntervalBreak.started,runIntervalBreak.stopped,endingBreakKey.keys,endingBreakKey.rt,endingBreakKey.duration,connection.started,connection.stopped,connectionEnding.keys,connectionEnding.rt,connectionEnding.duration,readyForText.started,readyForText.stopped,textPre.started,run_dup,textPre.stopped,continuousResponses_text,textRunLoop.thisRepN,textRunLoop.thisTrialN,textRunLoop.thisN,textRunLoop.thisIndex,textRunLoop.ran,text1_1,text1_2,text2_1,text2_2,runBreakText.started,runBreakText.stopped,endingBreakKey_2.keys,endingBreakKey_2.rt,endingBreakKey_2.duration,ending.started,ending.stopped,endingEnding.keys,endingEnding.rt,endingEnding.duration
tom,0.0002,3.1739,y,2.8636,,5685850c333cbd000d4e042f,2024-02-08_16h01.55.425,group3.1-3.2-social-tom,2023.2.2,Win32,166.6666667,65c5074098b851296ff0b7ed,65c5412c963a750c5bb343c7,,,,,,,,,,,,,,,,,,,,,,,,,,,,,,,,,,,,,,,,,,,,,,,,,,,,,,,,,,,,,,,,,,,,,,,,,,,,,,,,,,,,,,,,,,,,,,,,,,,,,,,,,,
,,,,,,5685850c333cbd000d4e042f,2024-02-08_16h01.55.425,group3.1-3.2-social-tom,2023.2.2,Win32,166.6666667,65c5074098b851296ff0b7ed,65c5412c963a750c5bb343c7,3.174,6.7895,space,3.6037,,,,,,,,,,,,,,,,,,,,,,,,,,,,,,,,,,,,,,,,,,,,,,,,,,,,,,,,,,,,,,,,,,,,,,,,,,,,,,,,,,,,,,,,,,,,,,,,,,,,,,
,,,,,,5685850c333cbd000d4e042f,2024-02-08_16h01.55.425,group3.1-3.2-social-tom,2023.2.2,Win32,166.6666667,65c5074098b851296ff0b7ed,65c5412c963a750c5bb343c7,,,,,,6.7895,11.9054,space,4.8106,,,,,,,,,,,,,,,,,,,,,,,,,,,,,,,,,,,,,,,,,,,,,,,,,,,,,,,,,,,,,,,,,,,,,,,,,,,,,,,,,,,,,,,,,,,,,,,,,
,,,,,,5685850c333cbd000d4e042f,2024-02-08_16h01.55.425,group3.1-3.2-social-tom,2023.2.2,Win32,166.6666667,65c5074098b851296ff0b7ed,65c5412c963a750c5bb343c7,,,,,,,,,,,11.907,26.7586,space,14.8467,,[],[],[],[],[],[],0,0,0,0,1,,,,,,,,,,,,,,,,,,,,,,,,,,,,,,,,,,,,,,,,,,,,,,,,,,,,,,,,,,,,,,,,,,,,,,,,,,,,,,,,
,,,,,,5685850c333cbd000d4e042f,2024-02-08_16h01.55.425,group3.1-3.2-social-tom,2023.2.2,Win32,166.6666667,65c5074098b851296ff0b7ed,65c5412c963a750c5bb343c7,,,,,,,,,,,26.7587,48.3505,space,21.5497,,[],[],[],[],[],[],1,0,1,0,1,,,,,,,,,,,,,,,,,,,,,,,,,,,,,,,,,,,,,,,,,,,,,,,,,,,,,,,,,,,,,,,,,,,,,,,,,,,,,,,,
,,,,,,5685850c333cbd000d4e042f,2024-02-08_16h01.55.425,group3.1-3.2-social-tom,2023.2.2,Win32,166.6666667,65c5074098b851296ff0b7ed,65c5412c963a750c5bb343c7,,,,,,,,,,,48.3507,66.7913,space,18.4242,,[],[],[],[],[],[],2,0,2,0,1,,,,,,,,,,,,,,,,,,,,,,,,,,,,,,,,,,,,,,,,,,,,,,,,,,,,,,,,,,,,,,,,,,,,,,,,,,,,,,,,
,,,,,,5685850c333cbd000d4e042f,2024-02-08_16h01.55.425,group3.1-3.2-social-tom,2023.2.2,Win32,166.6666667,65c5074098b851296ff0b7ed,65c5412c963a750c5bb343c7,,,,,,,,,,,66.7957,91.707,space,24.9016,,[],[],[],[],[],[],3,0,3,0,1,,,,,,,,,,,,,,,,,,,,,,,,,,,,,,,,,,,,,,,,,,,,,,,,,,,,,,,,,,,,,,,,,,,,,,,,,,,,,,,,
,,,,,,5685850c333cbd000d4e042f,2024-02-08_16h01.55.425,group3.1-3.2-social-tom,2023.2.2,Win32,166.6666667,65c5074098b851296ff0b7ed,65c5412c963a750c5bb343c7,,,,,,,,,,,91.7121,107.0617,space,15.3413,,[],[],[],[],[],[],4,0,4,0,1,,,,,,,,,,,,,,,,,,,,,,,,,,,,,,,,,,,,,,,,,,,,,,,,,,,,,,,,,,,,,,,,,,,,,,,,,,,,,,,,
,,,,,,5685850c333cbd000d4e042f,2024-02-08_16h01.55.425,group3.1-3.2-social-tom,2023.2.2,Win32,166.6666667,65c5074098b851296ff0b7ed,65c5412c963a750c5bb343c7,,,,,,,,,,,,,,,,,,,,,,,,,,,107.067,109.644,109.652,1,audio/Narrative13Situation2.wav,111.6566,,111.6568,141.3857,"[[999,0],[999,90],[999,175],[999,260],[999,345],[999,430],[999,515],[999,600],[999,685],[0.4,769],[3.4,3570],[5.1,3655],[9.2,3740],[13.1,3825],[17,3909],[17.9,3994],[17.9,4079],[17.9,4164],[17.9,4249],[17.9,4334],[17.9,4418],[17.9,4504],[17.9,4588],[17.9,4673],[17.9,4758],[17.9,4843],[17.9,4928],[17.9,5013],[17.9,5097],[17.9,5182],[17.9,5267],[17.9,5352],[17.9,5437],[19.2,5522],[20,5607],[20.9,5691],[21.5,5777],[22.6,5861],[22.7,5946],[22.7,6031],[22.7,6116],[22.7,6201],[22.7,6286],[22.7,6370],[22.7,6456],[22.7,6540],[22.7,6625],[22.7,6710],[22.7,6795],[22.7,6880],[22.7,6965],[22.7,7049],[22.7,7135],[22.7,7219],[22.7,7304],[22.7,7389],[22.7,7474],[22.7,7559],[22.7,7643],[22.7,7728],[22.7,7813],[22.7,7898],[22.7,7983],[24.1,8068],[25.2,8153],[26.5,8238],[26.5,8323],[27.1,8407],[32.4,8493],[34.5,8577],[34.5,8662],[35.8,8747],[40,8832],[40.3,8917],[40.3,9002],[40.3,9087],[40.3,9172],[40.3,9257],[40.3,9341],[40.3,9426],[40.3,9511],[40.3,9596],[40.3,9681],[40.3,9766],[40.3,9851],[40.3,9935],[40.3,10020],[40.3,10105],[40.3,10190],[40.3,10275],[40.3,10360],[40.3,10445],[40.3,10529],[40.3,10614],[40.3,10699],[40.3,10784],[40.3,10869],[40.3,10954],[40.3,11039],[40.3,11123],[40.3,11208],[40.3,11293],[40.3,11378],[40.3,11463],[40.3,11548],[40.3,11633],[40.3,11718],[40.3,11802],[40.3,11887],[40.3,11972],[40.3,12058],[40.3,12142],[40.3,12227],[40.3,12312],[40.3,12397],[40.3,12482],[39.1,12567],[36.9,12651],[35.4,12736],[34.6,12821],[34.5,12905],[34.1,12991],[33.7,13076],[33.2,13161],[32.9,13245],[32.9,13330],[32.9,13415],[32.9,13500],[32.1,13585],[31.5,13670],[31.3,13755],[30.5,13840],[28.9,13925],[28.8,14009],[28.8,14094],[28.8,14179],[28.8,14263],[28.8,14349],[28.8,14433],[28.8,14518],[28.8,14603],[28.8,14688],[28.8,14773],[28.4,14859],[25.6,14943],[24.5,15034],[24.1,15118],[23.8,15209],[23.7,15295],[23.6,15379],[23.6,15464],[23.6,15549],[23.5,15634],[22.7,15719],[22.4,15804],[22.2,15888],[22.1,15973],[22,16058],[22,16143],[22,16228],[22,16312],[22,16397],[22,16482],[22,16568],[22,16652],[22,16737],[22,16822],[22,16906],[22,16991],[22,17077],[22,17161],[22,17246],[22,17331],[22,17416],[22,17501],[22,17586],[22,17671],[22,17756],[22,17841],[19.7,17925],[19.4,18010],[18.8,18095],[18.4,18180],[17.4,18265],[16,18350],[15.1,18435],[14.8,18520],[14.5,18604],[14.1,18689],[13,18774],[12.4,18859],[11.8,18944],[11.5,19029],[11.1,19113],[11.1,19199],[10.9,19283],[10.9,19368],[10.9,19453],[10.9,19537],[10.9,19623],[10.9,19707],[10.9,19792],[10.9,19877],[10.9,19962],[10.9,20047],[10.9,20132],[10.9,20218],[10.9,20302],[10.9,20386],[10.9,20471],[10.9,20556],[10.9,20641],[10.9,20726],[10.9,20810],[10.9,20895],[10.9,20980],[10.9,21065],[10.9,21150],[10.9,21235],[10.9,21320],[10.9,21405],[10.9,21490],[10.9,21575],[10.9,21659],[10.9,21745],[13.4,21830],[14.4,21914],[14.4,21999],[16.7,22084],[22.1,22169],[27.7,22254],[34.2,22339],[40.8,22423],[50.3,22508],[59.8,22593],[69.1,22684],[74.7,22775],[80.1,22860],[81.3,22945],[81.5,23030],[82,23115],[82,23200],[82.7,23284],[82.7,23369],[82.7,23454],[82.7,23539],[82.7,23624],[82.7,23709],[82.7,23793],[82.7,23878],[82.7,23963],[82.7,24048],[82.7,24132],[82.7,24218],[82.7,24303],[82.7,24387],[82.7,24472],[82.7,24557],[82.7,24642],[82.7,24727],[82.7,24812],[82.7,24897],[82.7,24982],[82.5,25067],[81.7,25151],[81.2,25236],[81,25320],[81,25406],[81,25491],[81,25575],[81,25660],[79.9,25745],[79.5,25830],[79.5,25915],[79.5,26000],[79.5,26085],[78.5,26170],[78.5,26254],[78.5,26339],[78.5,26424],[78.5,26509],[78.5,26594],[78.5,26679],[78.5,26764],[78.5,26849],[78.5,26933],[78.5,27019],[78.5,27103],[78.5,27188],[78.5,27273],[78.5,27358],[78.5,27443],[78.5,27527],[78.5,27613],[78.3,27698],[78,27782],[77.8,27867],[76.5,27952],[72.4,28037],[68.8,28122],[68.8,28206],[68.7,28291],[68.1,28376],[67.7,28461],[67.4,28546],[67.4,28631],[67.4,28716],[67.3,28800],[67.3,28885],[67.3,28970],[67.3,29055],[67.3,29140],[67.3,29225],[67.3,29310],[67.3,29395],[67.3,29479],[67.3,29565],[67.3,29649]]",1,0,141.3859,148.3207,41.25,5.0682,"[{""rating"":41.25,""responseTime"":5.068200000047682}]",space,6.4238,,148.3208,All the time,100,148.3223,,,[],,0,0,0,0,1,audio/Narrative13Situation2.wav,audio/Narrative13Situation2.wav,audio/Narrative13Situation2.wav,audio/Narrative13Situation2.wav,2,2,2,2,,,,,,,,,,,,,,,,,,,,,,,,,,,,,,,,,,,,,,,
,,,,,,5685850c333cbd000d4e042f,2024-02-08_16h01.55.425,group3.1-3.2-social-tom,2023.2.2,Win32,166.6666667,65c5074098b851296ff0b7ed,65c5412c963a750c5bb343c7,,,,,,,,,,,,,,,,,,,,,,,,,,,,,148.3225,1,audio/Narrative7Situation1.wav,150.6607,space,150.6607,206.5282,"[[999,0],[999,84],[999,169],[999,254],[999,339],[999,423],[999,508],[999,594],[999,678],[999,763],[999,848],[999,933],[999,1018],[1.6,1103],[0.6,1188],[2.3,4667],[4.8,4752],[8,4837],[11.3,4922],[13,5007],[14,5091],[14.2,5176],[14.2,5261],[14.2,5345],[14.2,5431],[14.2,5516],[14.2,5601],[14.2,5685],[14.2,5770],[14.2,5855],[14.2,5940],[14.2,6025],[14.2,6109],[14.2,6195],[14.2,6279],[14.2,6364],[14.2,6449],[14.2,6534],[14.2,6619],[14.2,6704],[14.2,6789],[14.2,6874],[14.2,6958],[14.2,7043],[14.2,7128],[14.2,7213],[14.2,7298],[14.2,7382],[14.2,7467],[14.2,7552],[14.2,7637],[14.2,7722],[14.2,7807],[14.2,7892],[14.2,7977],[14.2,8062],[14.2,8147],[14.2,8232],[14.2,8316],[14.2,8402],[14.2,8486],[14.2,8571],[14.2,8655],[14.2,8741],[14.2,8825],[14.2,8911],[14.2,8995],[13.7,9081],[13.3,9165],[12.7,9250],[12.2,9334],[11.7,9420],[11.2,9504],[10.7,9589],[10.5,9674],[10.3,9759],[10.2,9844],[10.1,9929],[10.1,10014],[10.1,10099],[10.1,10183],[10.1,10268],[10.1,10353],[10.1,10438],[10.1,10523],[10.1,10608],[10.1,10693],[10.1,10778],[10.1,10862],[10.1,10947],[10.1,11032],[10.1,11117],[10.1,11202],[10.1,11287],[10.1,11372],[10.1,11457],[10.1,11541],[10.1,11626],[10.1,11711],[10.1,11796],[10.1,11881],[10.1,11966],[10.1,12050],[10.1,12135],[10.1,12220],[10.1,12305],[10.1,12390],[10.1,12475],[10.1,12559],[10.1,12645],[10.1,12730],[10.1,12814],[11.7,12905],[13.4,12990],[16.4,13075],[19.4,13160],[21.1,13244],[23,13329],[24.8,13414],[27.2,13499],[29.1,13584],[30.7,13669],[31.7,13754],[33.4,13839],[35,13923],[36.2,14008],[36.7,14093],[36.7,14178],[36.7,14263],[36.7,14348],[36.7,14433],[36.7,14517],[36.7,14602],[36.7,14687],[36.7,14772],[36.7,14857],[36.7,14942],[36.7,15027],[36.7,15111],[39.4,15196],[48.6,15281],[54.1,15366],[54.9,15451],[57.7,15536],[61.4,15621],[63,15706],[64.4,15791],[68.1,15875],[70.8,15960],[74.8,16045],[76.6,16130],[77,16215],[77,16300],[77,16385],[77,16470],[77,16554],[77,16639],[77,16724],[77,16809],[77,16894],[77,16979],[77,17064],[77,17148],[77,17233],[77,17318],[77,17403],[77,17488],[77,17573],[77,17658],[77,17742],[77,17827],[77,17912],[77,17997],[77,18082],[77,18167],[77,18252],[77,18337],[77,18421],[77,18506],[77,18591],[77,18676],[77,18761],[77,18846],[76.2,18931],[76.1,19016],[76,19100],[75.7,19185],[75.2,19270],[74.8,19355],[74.5,19440],[74.1,19525],[74.1,19610],[74.1,19694],[74.1,19779],[74.1,19864],[74.1,19949],[73.6,20034],[73,20119],[72.9,20204],[72.9,20289],[72.6,20373],[72,20458],[71.7,20543],[71.4,20628],[71.3,20713],[71.3,20798],[71.3,20882],[71.3,20967],[71.3,21052],[71.3,21137],[71.3,21222],[71.3,21307],[71.3,21392],[71.3,21477],[71.3,21562],[71.3,21646],[71.3,21731],[70.9,21816],[70.9,21901],[70.7,21986],[70.7,22071],[70.7,22156],[70.7,22241],[70.7,22325],[70.7,22410],[70.7,22495],[70.7,22580],[69.4,22665],[65.9,22750],[62.9,22835],[61.2,22920],[59.8,23004],[59.1,23089],[58.2,23174],[56.6,23259],[54.1,23344],[52.2,23429],[50.6,23514],[48,23598],[45.5,23683],[44,23768],[41.8,23854],[38.8,23938],[37.1,24023],[35.9,24108],[34.6,24193],[33.5,24277],[33.5,24362],[33.5,24447],[33.5,24532],[33.5,24617],[33.4,24702],[33.4,24786],[33.4,24872],[33.4,24956],[33.4,25041],[33.4,25126],[33.4,25211],[33.4,25296],[33.4,25381],[33.4,25466],[33.4,25550],[33.4,25635],[33.4,25720],[33.4,25805],[33.4,25890],[33.4,25975],[33.4,26060],[33.4,26144],[33.4,26229],[33.4,26314],[33.4,26399],[33.4,26484],[33.4,26569],[33.4,26654],[33.4,26739],[33.4,26823],[33.4,26908],[33.4,26993],[33.4,27078],[33.4,27163],[33.4,27248],[33.4,27333],[33.4,27418],[33.4,27502],[33.4,27587],[33.4,27672],[33.4,27757],[33.4,27842],[33.4,27927],[33.4,28012],[33.4,28096],[33.4,28181],[33.4,28266],[33.4,28351],[33.4,28436],[34.1,28521],[34.5,28606],[34.9,28691],[35.3,28776],[36,28861],[36.3,28945],[36.6,29030],[37.3,29115],[38.3,29200],[39.5,29285],[40.5,29370],[41.3,29454],[41.9,29539],[42.6,29624],[42.9,29709],[43.3,29794],[43.3,29879],[43.3,29964],[43.3,30048],[43.3,30133],[43.3,30218],[43.3,30303],[43.3,30388],[43.3,30473],[43.3,30558],[43.3,30642],[43.3,30727],[43.3,30812],[43.3,30897],[43.3,30982],[43.3,31067],[43.3,31152],[43.3,31237],[43.3,31321],[43.3,31406],[43.3,31491],[43.3,31576],[43.3,31661],[43.3,31746],[43.3,31831],[43.3,31916],[43.3,32000],[43.3,32085],[43.3,32170],[43.3,32255],[43.3,32340],[43.3,32425],[43.3,32510],[43.3,32595],[43.3,32679],[43.3,32764],[43.3,32849],[43.3,32934],[43.6,33019],[43.8,33104],[43.8,33189],[43.8,33273],[43.8,33358],[43.8,33443],[43.8,33528],[43.8,33613],[43.8,33698],[43.8,33783],[43.8,33868],[44.1,33952],[44.1,34037],[44.1,34122],[44.5,34207],[45.9,34292],[48.7,34377],[50.8,34462],[52.7,34547],[55.2,34631],[56.7,34716],[57.6,34801],[58.2,34886],[58.7,34971],[59.1,35056],[59.5,35141],[59.5,35226],[59.5,35310],[59.5,35395],[59.5,35480],[59.5,35565],[59.5,35650],[59.5,35735],[59.5,35819],[59.5,35904],[59.5,35989],[59.5,36074],[59.5,36159],[59.5,36244],[59.5,36329],[59.5,36414],[59.5,36498],[59.5,36583],[59.5,36668],[59.5,36753],[59.5,36838],[59.5,36923],[59.5,37008],[59.5,37093],[59.5,37178],[59.5,37262],[59.5,37347],[59.5,37432],[59.5,37517],[59.5,37602],[59.5,37687],[59.5,37772],[59.5,37856],[59.5,37941],[59.5,38026],[59.5,38111],[59.5,38196],[59.5,38281],[59.5,38366],[59.5,38451],[59.5,38535],[59.5,38621],[59.5,38705],[59.5,38790],[59.5,38875],[58.8,38960],[58.4,39045],[58.2,39129],[57.7,39214],[57.2,39299],[56.3,39384],[55.9,39469],[55,39554],[54.2,39639],[53.8,39724],[53.3,39808],[53.3,39893],[53.3,39978],[53.3,40063],[53.3,40148],[53.3,40233],[53.3,40318],[53.3,40402],[53.3,40487],[53.3,40572],[53.3,40657],[53.3,40742],[53.3,40827],[53.3,40912],[53.3,40997],[53.3,41081],[53.8,41167],[58.8,41251],[61.4,41336],[64.1,41421],[68,41506],[71.2,41591],[73.3,41676],[75.5,41761],[77,41846],[79.8,41930],[83,42015],[85.2,42100],[87.4,42185],[88,42270],[88.4,42355],[89,42440],[89.6,42524],[89.7,42609],[89.7,42694],[89.7,42779],[90.3,42864],[90.5,42949],[91.1,43033],[91.2,43118],[91.2,43203],[91.2,43288],[91.2,43373],[91.2,43458],[91.2,43543],[91.2,43627],[91.2,43712],[91.2,43797],[91.2,43882],[91.2,43967],[91.2,44052],[91.2,44137],[91.2,44222],[91.2,44306],[91.2,44391],[91.2,44476],[91.2,44561],[91.2,44646],[91.2,44731],[91.2,44816],[91.2,44901],[91.2,44985],[91.2,45070],[91.2,45155],[91.2,45240],[91.2,45325],[91.2,45410],[91.2,45495],[91.2,45580],[91.2,45664],[91.2,45749],[91.2,45834],[91.2,45919],[91.2,46004],[91.2,46089],[91.2,46173],[91.2,46258],[91.2,46343],[91.2,46428],[91.2,46513],[91.2,46598],[91.2,46683],[91.2,46768],[91.2,46853],[91.2,46937],[90.7,47022],[90.1,47107],[90,47192],[89.5,47277],[87.9,47362],[86.7,47447],[86.3,47532],[86.3,47616],[86.1,47701],[86,47786],[85.9,47871],[85.9,47956],[85.9,48041],[85.9,48126],[85.9,48210],[85.9,48295],[85.9,48380],[85.9,48465],[85.9,48550],[85.9,48635],[85.9,48720],[85.9,48804],[85.9,48889],[85.9,48974],[85.9,49059],[85.9,49144],[85.9,49229],[85.9,49314],[85.9,49399],[85.9,49483],[85.9,49568],[84.8,49653],[84.2,49738],[84,49823],[84,49908],[84,49993],[85.1,50078],[85.6,50162],[85.6,50247],[85.6,50332],[85.6,50417],[85.6,50502],[85.6,50587],[85.6,50672],[85.6,50756],[85.6,50841],[85.6,50926],[85.6,51011],[85.6,51096],[85.6,51181],[85.6,51266],[85.6,51351],[85.6,51435],[85.6,51520],[85.6,51605],[85.6,51690],[85.6,51775],[85.6,51860],[85.6,51945],[85.6,52030],[85.6,52114],[85.6,52199],[85.6,52284],[85.6,52369],[85.6,52454],[85.6,52539],[85.2,52624],[85,52709],[84.7,52793],[84.3,52878],[83.7,52963],[83,53048],[81.8,53133],[79.7,53218],[77.3,53303],[74.3,53388],[71.6,53472],[68.7,53557],[66,53642],[64.4,53727],[62.7,53812],[61.4,53897],[60.7,53982],[59.4,54066],[59,54151],[58.6,54236],[58,54321],[57.5,54406],[57.3,54491],[57,54576],[57,54660],[57,54745],[57,54830],[57,54915],[57,55000],[57,55085],[57,55170],[57,55255],[56.3,55339],[56,55424],[54.8,55509],[52.8,55594],[49.8,55679],[49,55764],[48.2,55849]]",1,0,206.5284,215.8277,74.296875,6.5192,"[{""rating"":74.296875,""responseTime"":6.519200000047675}]",space,8.7892,,215.8278,All the time,100,215.8324,,,[],,0,1,1,1,1,audio/Narrative7Situation1.wav,audio/Narrative8Situation1.wav,audio/Narrative5Situation1.wav,audio/Narrative6Situation1.wav,2,5,5,2,2.3337,,,,,,,,,,,,,,,,,,,,,,,,,,,,,,,,,,,,,,
,,,,,,5685850c333cbd000d4e042f,2024-02-08_16h01.55.425,group3.1-3.2-social-tom,2023.2.2,Win32,166.6666667,65c5074098b851296ff0b7ed,65c5412c963a750c5bb343c7,,,,,,,,,,,,,,,,,,,,,,,,,,,,,215.8327,1,audio/Narrative7Situation2.wav,218.8341,,218.8341,226.2912,"[[0.6,679],[0.2,4837],[1,4922],[1.3,5007],[2,5092],[3.3,5177],[9.5,5262],[13.8,5347],[16.7,5432],[16.9,5516],[17.2,5601],[18.8,5687],[22.8,5771],[23.5,5856],[24.5,5941],[27.3,6026],[28.3,6110]]",1,0,226.2912,233.9533,18.75,6.5745,"[{""rating"":14.921875000000002,""responseTime"":3.9044999999999845},{""rating"":20.234375,""responseTime"":5.898199999928465},{""rating"":18.75,""responseTime"":6.5745000000000005}]",space,7.153,,233.9533,Half the time,50,233.955,,,[],,0,2,2,2,1,audio/Narrative7Situation2.wav,audio/Narrative8Situation2.wav,audio/Narrative5Situation2.wav,audio/Narrative6Situation2.wav,3,3,3,3,,,,,,,,,,,,,,,,,,,,,,,,,,,,,,,,,,,,,,,
,,,,,,5685850c333cbd000d4e042f,2024-02-08_16h01.55.425,group3.1-3.2-social-tom,2023.2.2,Win32,166.6666667,65c5074098b851296ff0b7ed,65c5412c963a750c5bb343c7,,,,,,,,,,,,,,,,,,,,,,,,,,,,,233.9551,1,audio/Narrative7Situation3.wav,241.961,,241.9611,251.1939,"[[19.5,933],[18.9,1018],[18.8,1102],[18.8,1187],[18.8,1272],[18.8,1357],[18.8,1442],[18.8,1527],[18.8,1612],[18.8,1697],[18.8,1782],[18.8,1866],[18.8,1951],[18.8,2036],[18.8,2121],[18.8,2206],[18.8,2291],[18.8,2376],[18.8,2460],[18.8,2545],[18.8,2630],[18.8,2715],[18.8,2800],[18.8,2885],[18.8,2970],[18.8,3055],[20.5,3139],[20.9,3224],[20.9,3309],[21.6,3394],[24.5,3479],[27.4,3564],[27.7,3649],[28.4,3733],[28.4,3818],[28.4,3903],[28.4,3988],[29.8,4073],[31.6,4158],[33.6,4243],[34.1,4328],[34.1,4413],[34.1,4498],[34.1,4582],[34.1,4668],[34.1,4752],[34.1,4837],[34.1,4922],[34.1,5007],[34.1,5092],[34.1,5177],[34.1,5261],[34.1,5346],[34.1,5431],[34.1,5516],[34.1,5601],[34.1,5686],[33.7,5771],[33.4,5855],[33.4,5940],[33.4,6025],[33.4,6110],[33.4,6195],[33.4,6280],[33.4,6365],[33.4,6449],[33.4,6534],[33.4,6620],[33.4,6704],[33.4,6789],[33.4,6874],[33.4,6959],[32.3,7044],[31.2,7129],[31,7213],[30.2,7298],[28.4,7389],[25.5,7475],[23.4,7559],[22.7,7644],[21.9,7729],[21.9,7814],[21.3,7899],[20.9,7983],[20.7,8068],[20.7,8153],[20.2,8238],[19.8,8323],[19.8,8407],[19.8,8493],[19.8,8577],[19.8,8662],[19.8,8748],[19.8,8832],[19.8,8917],[19.8,9002],[19.8,9087],[19.8,9171]]",1,0,251.194,255.7162,24.140625,2.1941,"[{""rating"":24.140625,""responseTime"":2.1941000000238375}]",space,4.0028,,255.7162,Half the time,50,255.7169,,,[],,0,3,3,3,1,audio/Narrative7Situation3.wav,audio/Narrative8Situation3.wav,audio/Narrative5Situation3.wav,audio/Narrative6Situation3.wav,8,4,3,5,,,,,,,,,,,,,,,,,,,,,,,,,,,,,,,,,,,,,,,
,,,,,,5685850c333cbd000d4e042f,2024-02-08_16h01.55.425,group3.1-3.2-social-tom,2023.2.2,Win32,166.6666667,65c5074098b851296ff0b7ed,65c5412c963a750c5bb343c7,,,,,,,,,,,,,,,,,,,,,,,,,,,,,255.717,1,audio/Narrative7Situation4.wav,258.7228,,258.7228,270.4291,"[[999,0],[999,84],[999,169],[999,254],[999,339],[999,424],[999,509],[21.1,594],[20.2,679],[20.3,763],[20.3,849],[20.3,933],[20.3,1018],[20.3,1103],[20.3,1188],[20.3,1272],[20.3,1358],[20.3,1442],[20.3,1527],[20.3,1612],[20.3,1697],[20.3,1782],[20.3,1867],[20.3,1951],[20.3,2036],[20.3,2121],[20.3,2206],[20.3,2291],[20.3,2376],[20.3,2461],[20.3,2546],[20.3,2631],[20.3,2715],[20.3,2800],[20.3,2885],[20.3,2970],[20.3,3055],[20.3,3140],[20.3,3225],[20.3,3309],[20.3,3394],[20.3,3479],[20.3,3564],[20.9,3649],[21.1,3734],[21.1,3819],[21.1,3904],[21.1,3988],[20.2,4074],[17.3,4158],[16.4,4243],[15.9,4328],[15.5,4413],[14.8,4498],[13.7,4583],[13.4,4668],[13.3,4752],[13.1,4837],[13.1,4922],[12.8,5007],[12.7,5092],[12.3,5177],[12.1,5262],[11.6,5346],[11.5,5431],[11.3,5516],[11.3,5600],[11.3,5686],[11.3,5771],[11.3,5855],[11.3,5941],[11.3,6025],[11.3,6110],[11.3,6195],[11.3,6280],[11.3,6365],[11.3,6450],[11.3,6534],[11.3,6619],[11.3,6704],[11.3,6789],[11.3,6874],[11.3,6958],[11.3,7044],[11.3,7128],[11.3,7213],[11.3,7298],[11.3,7383],[11.3,7468],[11.3,7553],[11.3,7638],[12.3,7723],[16.3,7808],[25.4,7893],[27.2,7978],[30.3,8063],[33.4,8147],[34.1,8232],[35,8317],[36.5,8402],[39.1,8487],[41.7,8572],[43,8657],[44.5,8747],[45.7,8832],[45.7,8917],[46.7,9002],[48.3,9087],[48.4,9172],[48.4,9256],[48.4,9341],[48.1,9426],[48.1,9511],[48.1,9596],[48.1,9681],[48.1,9766],[48.1,9850],[48.1,9935],[48.1,10020],[48.1,10105],[48.1,10190],[48.1,10275],[48.1,10360],[48.1,10444],[48.1,10530],[48.1,10614],[48.1,10699],[48.1,10784],[48.1,10869],[48.1,10954],[48.1,11039],[48.1,11124],[48.1,11208],[48.1,11293],[48.1,11378],[48.1,11463],[48,11548],[47.9,11633]]",1,0,270.4292,274.6965,39.21875,1.4666,"[{""rating"":39.21875,""responseTime"":1.4666000000238455}]",space,3.7582,,274.6965,Half the time,50,274.6971,,,[],,0,4,4,4,1,audio/Narrative7Situation4.wav,audio/Narrative8Situation4.wav,audio/Narrative5Situation4.wav,audio/Narrative6Situation4.wav,3,3,1,2,,,,,,,,,,,,,,,,,,,,,,,,,,,,,,,,,,,,,,,
,,,,,,5685850c333cbd000d4e042f,2024-02-08_16h01.55.425,group3.1-3.2-social-tom,2023.2.2,Win32,166.6666667,65c5074098b851296ff0b7ed,65c5412c963a750c5bb343c7,,,,,,,,,,,,,,,,,,,,,,,,,,,,,274.6972,1,audio/Narrative7Situation5.wav,279.6977,,279.6978,288.1661,"[[999,4],[999,84],[999,169],[999,254],[999,339],[999,424],[999,508],[999,593],[999,678],[999,763],[999,848],[23.3,933],[27.7,1018],[33.8,1103],[34.3,1188],[34.3,1272],[35.2,1358],[36.6,1442],[36.6,1527],[36.6,1612],[36.6,1697],[36.6,1781],[36.6,1866],[36.6,1951],[36.6,2036],[36.6,2121],[36.6,2206],[36.6,2291],[36.3,2376],[36.3,2461],[36.3,2545],[36.3,2630],[36.3,2715],[36.3,2800],[36.3,2885],[36.3,2970],[36.3,3054],[36.3,3139],[36.3,3224],[36.2,3309],[36,3394],[36,3479],[36,3564],[36,3649],[36,3733],[36,3821],[36,3903],[36,3989],[36,4073],[36.1,4158],[36.1,4242],[36.1,4328],[36.1,4413],[36.1,4497],[36.1,4582],[36.1,4667],[35.2,4752],[33.3,4837],[32.2,4922],[31.6,5006],[31.6,5092],[31.2,5176],[29.8,5261],[28.8,5346],[28.3,5431],[28.3,5516],[28.3,5601],[28.3,5686],[28.3,5770],[28.3,5855],[28.3,5940],[28.3,6025],[28.3,6110],[28.3,6195],[28.3,6280],[28.3,6365],[28.3,6449],[28.3,6534],[28.3,6619],[28.3,6704],[28.3,6789],[28.3,6874],[28.3,6959],[28.3,7043],[28.3,7128],[28.9,7213],[30.5,7298],[33.5,7383],[34.9,7468],[36.5,7553],[39,7638],[42,7723],[45.1,7807],[48.4,7892],[51.7,7977],[53.8,8062],[55.7,8147],[56.1,8232],[56.1,8317],[56.2,8401]]",1,0,288.1661,292.2708,44.765625,2.6553,"[{""rating"":48.59375,""responseTime"":2.0791999999284485},{""rating"":44.765625,""responseTime"":2.6552999999523195}]",space,3.5945,,292.2708,All the time,100,292.2719,,,[],,0,5,5,5,1,audio/Narrative7Situation5.wav,audio/Narrative8Situation5.wav,audio/Narrative5Situation5.wav,audio/Narrative6Situation5.wav,5,2,5,2,,,,,,,,,,,,,,,,,,,,,,,,,,,,,,,,,,,,,,,
,,,,,,5685850c333cbd000d4e042f,2024-02-08_16h01.55.425,group3.1-3.2-social-tom,2023.2.2,Win32,166.6666667,65c5074098b851296ff0b7ed,65c5412c963a750c5bb343c7,,,,,,,,,,,,,,,,,,,,,,,,,,,,,292.272,1,audio/Narrative7Situation6.wav,295.2771,,295.2771,305.2313,"[[46.3,848],[46.2,933],[46.2,1018],[45.5,1103],[44.9,1188],[44.1,1273],[43.8,1357],[43.8,1443],[43.8,1527],[43.8,1612],[43.8,1697],[43.8,1782],[43.8,1867],[43.8,1951],[43.8,2036],[43.6,2122],[43.4,2206],[43.4,2291],[43.4,2376],[43.4,2461],[43.4,2545],[43.4,2631],[43.4,2715],[43.4,2800],[43.4,2885],[43.4,2970],[43.4,3055],[43.4,3140],[43.4,3225],[43.4,3309],[45.5,3395],[48.4,3479],[53,3564],[55.8,3649],[58.2,3734],[61,3819],[63,3905],[65.6,3989],[69.5,4074],[73,4158],[77.4,4243],[79.3,4328],[81.1,4413],[83.6,4498],[84,4583],[84,4668],[84,4752],[84,4837],[84,4922],[84,5007],[84,5092],[84,5177],[84,5262],[84,5346],[84.4,5431],[84.4,5516],[84.4,5601],[84.4,5686],[84.4,5771],[84.4,5855],[84.4,5941],[84.4,6025],[84.4,6111],[84.4,6195],[84.4,6280],[84.4,6365],[84.4,6450],[84.4,6535],[84.4,6619],[84.4,6704],[84.4,6789],[84.4,6874],[84.4,6959],[84.4,7044],[84.4,7129],[85.5,7213],[86.6,7298],[87.2,7383],[88.4,7468],[89.5,7553],[89.6,7638],[89.8,7723],[90.2,7807],[90.2,7893],[90.2,7977],[90.2,8062],[90.2,8147],[90.2,8232],[90.2,8317],[90.2,8402],[89.8,8487],[89.8,8572],[89.8,8657],[89.8,8741],[89.8,8826],[89.8,8911],[89.8,8996],[89.8,9081],[89.8,9166],[89.8,9251],[89.8,9335],[89.8,9421],[89.8,9505],[89.8,9590],[89.8,9675],[89.8,9760],[89.8,9844],[89.8,9930]]",1,0,305.2313,308.7956,87.578125,1.4849,"[{""rating"":87.578125,""responseTime"":1.4849000000953652}]",space,3.0494,,308.7957,Not at all,0,324.2296,0,9.5594,"[{""rating"":0.07812500000000111,""responseTime"":8.067999999999984},{""rating"":0,""responseTime"":9.559399999976165}]",space,0,6,6,6,1,audio/Narrative7Situation6.wav,audio/Narrative8Situation6.wav,audio/Narrative5Situation6.wav,audio/Narrative6Situation6.wav,3,2,3,2,,,14.9185,,,,,,,,,,,,,,,,,,,,,,,,,,,,,,,,,,,,
,,,,,,5685850c333cbd000d4e042f,2024-02-08_16h01.55.425,group3.1-3.2-social-tom,2023.2.2,Win32,166.6666667,65c5074098b851296ff0b7ed,65c5412c963a750c5bb343c7,,,,,,,,,,,,,,,,,,,,,,,,,,,,,324.2336,1,audio/Narrative7Situation7.wav,329.2369,,329.2369,346.3926,"[[999,4],[999,84],[999,169],[999,254],[999,339],[999,424],[999,509],[999,593],[999,679],[999,763],[999,848],[999,933],[999,1018],[999,1102],[2.3,1188],[3,1612],[12.7,1697],[15.1,1782],[15.1,1866],[15.1,1951],[15.1,2036],[15.1,2121],[15.1,2206],[15.1,2291],[15.1,2375],[15.1,2460],[15.1,2545],[15.1,2630],[15.1,2715],[15.1,2800],[15.1,2885],[15.7,2970],[16.8,3061],[19.8,3146],[26.8,3231],[35.8,3316],[39.7,3400],[46,3485],[50.9,3570],[50.9,3655],[50.9,3739],[50.9,3825],[50.9,3910],[50.9,3994],[50.9,4079],[50.9,4164],[50.9,4249],[50.9,4334],[50.9,4419],[50.9,4504],[50.9,4588],[50.9,4674],[50.9,4758],[50.9,4843],[50.9,4928],[50.9,5013],[50.9,5097],[50.9,5183],[50.9,5267],[50.9,5352],[50.9,5437],[50.9,5522],[50.9,5607],[51.3,5692],[52.1,5777],[54.7,5862],[57.1,5946],[59.6,6031],[59.8,6116],[60.3,6201],[61.4,6286],[63,6371],[64.9,6456],[66.8,6540],[68.8,6626],[69.9,6710],[69.9,6795],[69.9,6880],[69.9,6965],[69.9,7049],[69.9,7134],[69.9,7219],[70.1,7304],[70.1,7389],[70.1,7474],[70.1,7559],[70.1,7644],[70.1,7728],[70.1,7813],[70.1,7898],[70.1,7983],[70.1,8068],[69.4,8153],[69.2,8238],[69.2,8322],[69.2,8407],[69.2,8492],[69.2,8578],[69.2,8662],[69.2,8747],[69.2,8832],[69.2,8917],[69.2,9002],[69.2,9086],[69.2,9171],[69.2,9256],[69.2,9341],[69.2,9426],[69.2,9511],[69.2,9595],[69.2,9680],[69.2,9765],[69.2,9850],[69.2,9935],[69.2,10020],[69.2,10105],[69.2,10190],[69.5,10275],[69.5,10359],[69.5,10444],[69.2,10529],[67.7,10614],[65.5,10699],[63.8,10784],[63,10869],[62.6,10954],[62.3,11038],[61.3,11124],[60.9,11208],[60.9,11293],[60.9,11379],[60.9,11462],[60.9,11548],[60.9,11632],[60.9,11718],[60.9,11802],[60.9,11888],[60.9,11972],[60.9,12057],[60.9,12142],[60.9,12226],[60.9,12312],[60.9,12396],[60.9,12481],[60.9,12566],[60.9,12651],[60.9,12736],[60.9,12821],[60.9,12906],[60.9,12990],[60.9,13075],[60.9,13160],[60.9,13245],[60.9,13330],[60.9,13414],[60.9,13500],[60.9,13584],[60.9,13669],[56.9,13760],[53,13845],[50.6,13930],[48.9,14015],[47.7,14100],[47.2,14185],[47,14270],[46.9,14354],[46.6,14439],[46.3,14524],[45.6,14609],[43.7,14694],[41.6,14779],[40.4,14864],[39.5,14949],[38.8,15034],[38.7,15118],[38.7,15203],[38.7,15288],[38.7,15373],[38.7,15458],[38.7,15543],[38.7,15627],[38.7,15712],[40.6,15797],[44.3,15882],[48,15967],[54,16052],[58.8,16137],[62.3,16222],[65.5,16307],[67.4,16391],[69.4,16476],[70.1,16561],[70.7,16647],[70.7,16731],[70.7,16815],[70.7,16901],[70.7,16985],[70.7,17070],[70.7,17155]]",1,0,346.3927,349.8359,60.078125,1.4721,"[{""rating"":60.07812500000001,""responseTime"":1.4721000000238291}]",space,2.926,,349.8359,Half the time,50,349.8367,,,[],,0,7,7,7,1,audio/Narrative7Situation7.wav,audio/Narrative8Situation7.wav,audio/Narrative5Situation7.wav,audio/Narrative6Situation7.wav,5,3,4,5,,,,,,,,,,,,,,,,,,,,,,,,,,,,,,,,,,,,,,,
,,,,,,5685850c333cbd000d4e042f,2024-02-08_16h01.55.425,group3.1-3.2-social-tom,2023.2.2,Win32,166.6666667,65c5074098b851296ff0b7ed,65c5412c963a750c5bb343c7,,,,,,,,,,,,,,,,,,,,,,,,,,,,,349.8369,1,audio/Narrative7Situation8.wav,351.8424,,351.8424,361.8447,"[[50.5,1188],[51.2,1278],[52.2,1363],[53.5,1448],[53.7,1533],[53.8,1619],[55.1,1703],[55.1,1788],[55.1,1872],[55.7,1958],[57.7,2042],[57.7,2127],[57.7,2212],[57.7,2297],[57.7,2382],[57.7,2467],[57.7,2552],[57.7,2637],[57.7,2721],[57.7,2806],[57.7,2891],[57.7,2976],[57.7,3061],[57.7,3146],[57.7,3230],[57.7,3315],[57.7,3400],[61.2,3485],[64.1,3570],[67.3,3655],[68.5,3739],[70.3,3825],[71.2,3909],[71.4,3994],[71.4,4079],[71.4,4164],[71.4,4249],[71.4,4334],[71,4418],[72.6,4504],[73.7,4589],[76.4,4674],[78.5,4765],[80.2,4849],[80.4,4934],[80.4,5018],[80.4,5104],[80.4,5188],[80.5,5273],[80.5,5358],[80.5,5443],[80.5,5528],[80.5,5613],[80.5,5698],[80.5,5782],[80.5,5867],[80.5,5952],[80.5,6037],[80.5,6122],[80.5,6207],[80.5,6292],[80.5,6377],[80.5,6461],[80.5,6546],[80.5,6631],[80.5,6716],[80.5,6801],[80.5,6886],[80.5,6971],[80.5,7056],[80.5,7140],[80.5,7225],[80.5,7310],[80.5,7395],[80.5,7480],[80.5,7564],[80.5,7650],[80.5,7734],[80.5,7819],[80.5,7904],[80.5,7989],[80.5,8074],[80.5,8159],[80.5,8244],[82.3,8329],[84.1,8414],[84.9,8499],[85.6,8584],[86.6,8668],[87,8753],[87,8838],[87,8923],[87.3,9008],[87.4,9093],[87.4,9177],[87.4,9262],[87.4,9347],[87.4,9432],[87.4,9517],[87.4,9602],[87.4,9687],[87.4,9771],[87.4,9856],[87.4,9941]]",1,0,361.8448,364.9242,84.21875,1.4729,"[{""rating"":84.21875,""responseTime"":1.472899999976164}]",space,2.5598,,364.9243,Half the time,50,364.925,,,[],,0,8,8,8,1,audio/Narrative7Situation8.wav,audio/Narrative8Situation8.wav,audio/Narrative5Situation8.wav,audio/Narrative6Situation8.wav,2,3,3,5,,,,,,,,,,,,,,,,,,,,,,,,,,,,,,,,,,,,,,,
,,,,,,5685850c333cbd000d4e042f,2024-02-08_16h01.55.425,group3.1-3.2-social-tom,2023.2.2,Win32,166.6666667,65c5074098b851296ff0b7ed,65c5412c963a750c5bb343c7,,,,,,,,,,,,,,,,,,,,,,,,,,,,,364.9251,1,audio/Narrative7Situation9.wav,366.9305,,366.9305,375.5451,"[[999,0],[999,84],[999,170],[999,254],[999,340],[999,424],[999,509],[999,594],[999,679],[999,764],[999,849],[76.3,934],[80,1019],[80.9,1103],[80.9,1188],[79.5,1273],[78.5,1358],[78.1,1443],[78.1,1528],[78.1,1612],[78.1,1697],[78.1,1782],[78.1,1867],[78.1,1952],[78.1,2037],[78.1,2121],[78.1,2206],[78.1,2291],[78.1,2376],[78.1,2461],[78.1,2545],[78.1,2631],[78.1,2715],[78.1,2801],[78.1,2886],[78.1,2970],[78.1,3055],[77.9,3140],[77.9,3224],[77.9,3310],[77.8,3394],[77.8,3479],[81.6,3565],[89.3,3650],[90.8,3735],[92.7,3819],[93.9,3905],[94.9,3989],[95.2,4074],[95.4,4159],[95.4,4243],[95.4,4328],[95.4,4413],[95.4,4498],[95.4,4583],[95.4,4667],[95.4,4753],[95.4,4837],[95.4,4922],[95.4,5007],[95.4,5092],[95.4,5177],[95.4,5261],[95.4,5347],[95.4,5431],[95.4,5516],[95.4,5601],[95.4,5686],[95.4,5771],[95.5,5856],[96.7,5941],[98.1,6026],[99.2,6111],[99.8,6195],[99.8,6280],[99.8,6365],[99.8,6450],[99.8,6535],[99.8,6620],[99.8,6705],[99.8,6789],[99.8,6874],[99.8,6959],[99.8,7044],[99.8,7129],[99.8,7214],[99.8,7299],[99.8,7383],[99.8,7468],[99.8,7553],[99.8,7638],[99.8,7723],[99.8,7807],[99.8,7892],[99.8,7977],[99.8,8063],[99.8,8147],[99.8,8232],[99.8,8317],[99.8,8402],[99.8,8486],[99.5,8571]]",1,0,375.5451,378.3641,98.75,1.1698,"[{""rating"":98.75,""responseTime"":1.1697999999523176}]",space,2.3038,,378.3642,All the time,100,378.365,,,[],,0,9,9,9,1,audio/Narrative7Situation9.wav,audio/Narrative8Situation9.wav,audio/Narrative5Situation9.wav,audio/Narrative6Situation9.wav,2,3,3,4,,,,,,,,,,,,,,,,,,,,,,,,,,,,,,,,,,,,,,,
,,,,,,5685850c333cbd000d4e042f,2024-02-08_16h01.55.425,group3.1-3.2-social-tom,2023.2.2,Win32,166.6666667,65c5074098b851296ff0b7ed,65c5412c963a750c5bb343c7,,,,,,,,,,,,,,,,,,,,,,,,,,,,,378.3652,1,audio/Narrative8Situation1.wav,383.3653,,383.3653,399.2721,"[[999,3],[999,84],[999,169],[999,253],[999,339],[999,424],[999,508],[999,593],[999,678],[999,763],[999,848],[999,933],[999,1018],[999,1103],[999,1187],[999,1272],[999,1357],[999,1442],[999,1527],[999,1612],[999,1697],[999,1788],[0.2,5353],[1.1,5437],[1.7,5522],[2.1,5607],[3.1,5691],[4.9,5777],[5.9,5861],[5.9,5946],[5.9,6031],[5.9,6116],[5.9,6201],[5.9,6285],[5.9,6370],[5.9,6455],[5.9,6540],[5.9,6625],[5.9,6710],[5.9,6795],[5.9,6879],[5.9,6964],[5.9,7049],[5.9,7134],[5.9,7219],[5.9,7304],[5.9,7389],[5.9,7474],[5.9,7559],[5.9,7643],[5.9,7728],[5.9,7813],[5.9,7898],[5.9,7983],[5.9,8068],[5.9,8153],[5.9,8237],[5.9,8322],[5.9,8407],[5.9,8492],[5.9,8577],[5.9,8662],[5.9,8746],[5.9,8832],[5.9,8917],[5.9,9001],[5.9,9086],[5.9,9171],[5.9,9256],[5.9,9341],[5.9,9425],[5.9,9510],[5.9,9595],[5.9,9680],[5.9,9765],[5.9,9850],[5.9,9935],[5.9,10020],[5.9,10105],[5.9,10190],[5.9,10274],[5.9,10359],[6.1,10444],[7,10529],[7.9,10614],[8,10698],[8,10784],[8,10868],[8,10953],[8,11038],[8,11123],[8,11208],[8,11293],[8.8,11379],[9.5,11462],[10.3,11548],[11,11632],[11.2,11717],[12.4,11802],[13.7,11887],[14.3,11972],[14.8,12057],[15.5,12142],[16.6,12227],[17.3,12311],[17.9,12396],[18.4,12481],[19,12566],[19.6,12651],[20.1,12736],[20.7,12821],[21.8,12905],[22.3,12990],[22.4,13075],[22.8,13160],[23.4,13245],[23.4,13330],[23.4,13415],[23.4,13499],[23.4,13584],[23.4,13669],[23.4,13754],[23.4,13839],[23.4,13923],[23.4,14009],[23.4,14094],[23.4,14178],[23.4,14263],[23.4,14348],[23.4,14433],[23.4,14518],[23.4,14602],[23.4,14688],[23.4,14773],[23.4,14857],[23.4,14942],[23.4,15027],[23.4,15112],[23.4,15197],[23.4,15282],[23.4,15367],[23.4,15452],[23.4,15536],[23.4,15621],[23.4,15706],[23.4,15791],[23.4,15876]]",1,0,399.2722,403.7215,10.3125,3.2255,"[{""rating"":15.390625000000002,""responseTime"":1.2823999999761782},{""rating"":15.390625000000002,""responseTime"":1.4013999999761495},{""rating"":12.5,""responseTime"":2.850500000000011},{""rating"":10.312500000000002,""responseTime"":3.225500000000011}]",space,3.9289,,403.7215,Half the time,50,403.7224,,,[],,0,10,10,10,1,audio/Narrative8Situation1.wav,audio/Narrative7Situation1.wav,audio/Narrative6Situation1.wav,audio/Narrative5Situation1.wav,5,2,2,5,,,,,,,,,,,,,,,,,,,,,,,,,,,,,,,,,,,,,,,
,,,,,,5685850c333cbd000d4e042f,2024-02-08_16h01.55.425,group3.1-3.2-social-tom,2023.2.2,Win32,166.6666667,65c5074098b851296ff0b7ed,65c5412c963a750c5bb343c7,,,,,,,,,,,,,,,,,,,,,,,,,,,,,403.7225,1,audio/Narrative8Situation2.wav,406.728,,406.728,416.8274,"[[10,679],[11.2,763],[11.9,848],[11.9,933],[11.9,1018],[11.9,1103],[11.9,1188],[11.9,1272],[11.9,1358],[11.9,1443],[11.9,1528],[11.9,1612],[11.9,1697],[11.9,1782],[11.9,1867],[11.9,1952],[11.9,2037],[11.9,2122],[11.9,2206],[11.9,2291],[11.9,2376],[11.9,2461],[11.9,2545],[11.9,2631],[11.9,2715],[11.9,2802],[11.9,2885],[11.9,2970],[11.9,3055],[11.9,3140],[11.9,3225],[11.9,3310],[11.9,3394],[10.8,3480],[9,3564],[8,3649],[8,3734],[8,3819],[8,3904],[8,3988],[7.3,4074],[6.7,4158],[6.6,4243],[6.6,4328],[6.6,4413],[6.6,4498],[6.6,4583],[6.6,4668],[6.6,4752],[6.6,4837],[6.6,4922],[6.6,5007],[6.6,5092],[6.6,5177],[6.6,5262],[6.6,5347],[6.6,5431],[6.6,5516],[6.6,5601],[6.6,5686],[6.6,5771],[6.6,5856],[6.6,5941],[6.6,6025],[6.6,6110],[6.6,6195],[6.6,6280],[6.6,6365],[6.6,6450],[6.6,6535],[6.6,6620],[6.6,6704],[6.6,6789],[6.6,6874],[6.6,6959],[6.6,7044],[6.6,7128],[6.6,7213],[6.6,7298],[6.6,7383],[6.6,7468],[6.6,7553],[6.6,7638],[6.6,7723],[6.6,7808],[6.6,7893],[8.2,7978],[10,8062],[10.5,8147],[12.1,8232],[14.8,8317],[18.5,8408],[22.6,8493],[24.8,8578],[26,8663],[27.8,8747],[28.9,8832],[29.9,8917],[31,9002],[32.1,9087],[33.4,9172],[34.1,9257],[35,9341],[35.2,9426],[35.5,9511],[35.5,9596],[35.5,9681],[35.5,9765],[35.5,9851],[35.5,9935],[35.5,10021]]",1,0,416.8274,421.835,27.890625,2.8302,"[{""rating"":19.921875,""responseTime"":2.0432000000477046},{""rating"":27.890625000000004,""responseTime"":2.830200000047739}]",space,4.4942,,421.835,Not at all,0,421.8399,,,[],,0,11,11,11,1,audio/Narrative8Situation2.wav,audio/Narrative7Situation2.wav,audio/Narrative6Situation2.wav,audio/Narrative5Situation2.wav,3,3,3,3,,,,,,,,,,,,,,,,,,,,,,,,,,,,,,,,,,,,,,,
,,,,,,5685850c333cbd000d4e042f,2024-02-08_16h01.55.425,group3.1-3.2-social-tom,2023.2.2,Win32,166.6666667,65c5074098b851296ff0b7ed,65c5412c963a750c5bb343c7,,,,,,,,,,,,,,,,,,,,,,,,,,,,,421.84,1,audio/Narrative8Situation3.wav,425.8417,,425.8417,448.2053,"[[999,4],[999,85],[999,170],[999,254],[999,340],[999,425],[31.5,509],[31.7,594],[31.7,679],[31.7,764],[31.7,848],[31.7,933],[31.7,1018],[31.7,1103],[31.7,1188],[31.7,1273],[31.7,1358],[31.7,1442],[31.7,1527],[31.7,1612],[31.7,1697],[31.7,1782],[31.7,1867],[31.7,1952],[31.7,2036],[31.7,2122],[32.8,2206],[37,2291],[38.2,2376],[40.9,2461],[42.9,2546],[45.8,2631],[47.6,2716],[49.6,2801],[53.4,2891],[56.5,2976],[57,3061],[57,3146],[57,3231],[57,3316],[57,3401],[57,3485],[57,3570],[57,3655],[57,3740],[57,3825],[57,3910],[57,3995],[57,4079],[57,4164],[57,4250],[57,4334],[57,4419],[56.7,4504],[56.7,4588],[56.7,4674],[56.7,4759],[56.7,4843],[56.7,4929],[56.7,5013],[56.7,5098],[56.7,5183],[56.7,5268],[56.7,5353],[56.7,5438],[56.7,5523],[56.7,5607],[56.7,5692],[56.7,5777],[57,5862],[58.4,5947],[59.7,6032],[61.7,6117],[64,6201],[65.9,6287],[68.4,6371],[70,6456],[71.6,6541],[72.8,6626],[73.4,6711],[74.2,6795],[74.2,6882],[74.3,6965],[74.3,7050],[74.3,7134],[74.3,7220],[74.3,7305],[74.3,7389],[74.3,7474],[74.3,7559],[74.3,7644],[74.3,7729],[74.3,7813],[74.3,7898],[74.3,7983],[74.3,8068],[74.3,8153],[74.3,8238],[74.3,8323],[74.3,8408],[74.3,8493],[74.3,8578],[74.3,8662],[74.3,8747],[75.5,8832],[76.1,8917],[76.1,9002],[76.1,9086],[76.8,9172],[79.2,9257],[79.8,9341],[80,9426],[80,9511],[80,9596],[80.8,9687],[80.9,9772],[80.9,9857],[80.9,9942],[80.9,10026],[80.9,10112],[80.9,10196],[80.9,10281],[80.9,10366],[80.9,10451],[80.9,10536],[80.9,10620],[80.9,10705],[80.9,10790],[80.9,10875],[80.9,10960],[80.9,11045],[80.9,11129],[81,11215],[81.1,11300],[81.1,11384],[81.1,11469],[81.1,11554],[81.1,11639],[81.1,11724],[81.1,11809],[81.1,11894],[81.1,11978],[81.1,12063],[81.1,12148],[81.1,12233],[81.1,12318],[81.1,12403],[81.1,12487],[81.1,12572],[81.3,12658],[81.3,12742],[81.3,12827],[81.3,12912],[81.3,12997],[81.3,13082],[80.9,13167],[79.7,13252],[78.7,13337],[78,13421],[77.6,13506],[77.3,13591],[73.8,13677],[73.1,13760],[73.1,13845],[73.1,13930],[73.1,14015],[73.1,14100],[73.1,14185],[73.1,14270],[73.1,14355],[73.1,14440],[73.1,14524],[73.1,14609],[73.1,14694],[73.1,14779],[73.1,14864],[73.1,14949],[73.6,15040],[77.1,15125],[81.6,15216],[83.6,15300],[87.7,15386],[89.8,15470],[90.5,15555],[90.5,15640],[90.5,15725],[90.5,15810],[90.5,15895],[90.5,15979],[90.5,16064],[90.5,16149],[90.5,16234],[90.5,16319],[90.5,16404],[90.5,16489],[90.5,16574],[90.5,16659],[90.5,16743],[90.5,16828],[90.5,16913],[90.5,16998],[90.5,17082],[90.5,17168],[90.5,17252],[90.5,17338],[90.5,17422],[90.5,17507],[90.5,17592],[90.5,17677],[90.5,17761],[90.5,17846],[90.5,17931],[90.5,18017],[90.5,18101],[90.5,18186],[90.5,18271],[90.5,18356],[90.5,18441],[90.5,18525],[90.5,18610],[90.5,18695],[90.5,18780],[90.5,18865],[90.5,18950],[90.5,19035],[89.8,19120],[89.5,19204],[89.1,19289],[88.8,19374],[88.5,19459],[88.4,19544],[88.4,19629],[88.4,19713],[88.4,19798],[88.4,19883],[88.4,19968],[88.4,20053],[88.4,20137],[88.4,20223],[88.4,20308],[88.4,20393],[88.4,20478],[88.4,20562],[88.4,20647],[88.4,20732],[88.4,20817],[88.4,20901],[88.4,20987],[88.4,21071],[88.4,21156],[88.4,21241],[88.4,21326],[88.4,21411],[88.4,21496],[88.4,21580],[88.4,21666],[88.4,21750],[88.4,21835],[88.4,21920],[88.4,22005],[88.4,22090],[88.4,22175],[88.4,22259],[88.4,22345]]",1,0,448.2055,452.388,82.65625,1.5174,"[{""rating"":82.65625,""responseTime"":1.517399999976135}]",space,3.6737,,452.3881,All the time,100,452.393,,,[],,0,12,12,12,1,audio/Narrative8Situation3.wav,audio/Narrative7Situation3.wav,audio/Narrative6Situation3.wav,audio/Narrative5Situation3.wav,4,8,5,3,,,,,,,,,,,,,,,,,,,,,,,,,,,,,,,,,,,,,,,
,,,,,,5685850c333cbd000d4e042f,2024-02-08_16h01.55.425,group3.1-3.2-social-tom,2023.2.2,Win32,166.6666667,65c5074098b851296ff0b7ed,65c5412c963a750c5bb343c7,,,,,,,,,,,,,,,,,,,,,,,,,,,,,452.393,1,audio/Narrative8Situation4.wav,455.3947,,455.3947,469.5492,"[[84.5,339],[84.5,424],[84.1,509],[83.2,594],[82.8,678],[82.8,763],[83.4,848],[83.6,933],[83.6,1018],[83.6,1102],[83.6,1187],[83.6,1272],[83.6,1357],[83.6,1442],[83.6,1527],[83.6,1612],[82.9,1697],[82.4,1782],[82.3,1867],[82,1951],[81.3,2036],[80,2122],[79.5,2206],[79.1,2291],[78.8,2375],[78.3,2461],[78.3,2545],[78.3,2630],[78.3,2716],[78.3,2800],[78.3,2885],[78.3,2970],[78.3,3055],[78.3,3139],[78.3,3224],[78.3,3309],[78.3,3394],[78.3,3479],[78.3,3564],[78.3,3648],[78.3,3734],[78.3,3819],[78.3,3903],[78.3,3989],[78.3,4073],[78.2,4158],[77.1,4243],[75.5,4334],[73.6,4419],[70.9,4504],[68.4,4588],[64.5,4673],[56.1,4758],[47.3,4843],[38.6,4928],[30.2,5013],[15.2,5528],[17.7,5613],[16.9,5698],[15.5,5783],[15.2,5867],[14.7,5952],[13.2,6037],[11.6,6123],[11.6,6206],[11.6,6292],[11.6,6377],[11.6,6461],[11.6,6546],[11.6,6632],[11.6,6716],[11.6,6801],[14.8,6892],[19.5,6977],[23.7,7062],[25.9,7147],[27.4,7232],[28.6,7316],[30.1,7401],[31.7,7487],[31.8,7571],[31.8,7656],[31.8,7741],[31.8,7826],[31.8,7910],[31.8,7995],[31.8,8080],[31.8,8165],[31.8,8250],[31.8,8335],[31.8,8420],[31.8,8505],[31.8,8589],[31.8,8674],[31.8,8759],[31.8,8844],[31.8,8928],[31.8,9014],[31.8,9099],[31.8,9183],[31.8,9268],[31.8,9353],[31.8,9438],[31.8,9523],[31.8,9608],[31.8,9693],[34.4,9778],[42.4,9862],[50.6,9948],[53,10032],[53,10117],[53,10201],[53,10287],[53,10372],[53,10456],[53,10541],[53,10626],[53,10711],[53,10796],[53,10881],[53,10965],[53,11050],[53,11136],[53,11220],[53,11305],[53,11390],[53,11475],[53,11560],[53,11645],[53,11729],[53,11814],[53,11899],[53,11984],[53,12069],[53,12154],[53.6,12239],[64.3,12324],[65.2,12408],[65.7,12493],[67.4,12579],[69.8,12663],[70.6,12748],[70.9,12833],[70.9,12917],[70.9,13003],[70.9,13088],[70.9,13172],[70.9,13257],[70.9,13342],[70.9,13427],[70.9,13511],[70.9,13597],[70.9,13682],[70.9,13766],[70.9,13851],[70.9,13936],[70.9,14021],[70.9,14106]]",1,0,469.5492,474.557,55,3.2881,"[{""rating"":55.00000000000001,""responseTime"":3.2880999999046594}]",space,4.4926,,474.557,All the time,100,474.5578,,,[],,0,13,13,13,1,audio/Narrative8Situation4.wav,audio/Narrative7Situation4.wav,audio/Narrative6Situation4.wav,audio/Narrative5Situation4.wav,3,3,2,1,,,,,,,,,,,,,,,,,,,,,,,,,,,,,,,,,,,,,,,
,,,,,,5685850c333cbd000d4e042f,2024-02-08_16h01.55.425,group3.1-3.2-social-tom,2023.2.2,Win32,166.6666667,65c5074098b851296ff0b7ed,65c5412c963a750c5bb343c7,,,,,,,,,,,,,,,,,,,,,,,,,,,,,474.5579,1,audio/Narrative8Situation5.wav,476.5633,,476.5633,484.7892,"[[54.1,254],[54.2,339],[54.5,423],[54.5,509],[54.5,594],[54.5,679],[54.5,763],[54.5,849],[54.5,933],[54.5,1018],[54.5,1103],[54.5,1188],[54.5,1273],[54.5,1358],[54.5,1442],[54.5,1527],[54.5,1612],[54.5,1697],[54.5,1782],[54.5,1866],[54.5,1952],[54.5,2036],[54.5,2121],[54.5,2207],[54.5,2291],[54.5,2376],[54.5,2461],[54.5,2545],[54.5,2631],[54.5,2715],[54.5,2800],[54.5,2885],[54.5,2970],[54.5,3055],[54.5,3140],[56.2,3225],[56.3,3309],[56.3,3394],[57.7,3479],[62,3564],[66.8,3649],[69.1,3734],[70.2,3819],[72.2,3903],[75.2,3989],[76.5,4073],[77.1,4158],[77.6,4243],[78.8,4328],[81.7,4419],[84.1,4504],[85.2,4589],[85.2,4673],[85.2,4758],[85.3,4843],[87.2,4928],[87.2,5013],[87.2,5097],[87.2,5182],[87.2,5267],[87.2,5352],[87.2,5437],[87.2,5522],[87.2,5607],[87.2,5692],[87.2,5777],[87.2,5862],[87.2,5947],[87.2,6031],[87.2,6116],[87.2,6201],[87.2,6286],[87.2,6371],[87.2,6456],[87.2,6540],[87.2,6625],[87.2,6710],[87.2,6795],[87.2,6880],[87.2,6965],[87.2,7050],[87.2,7135],[87.2,7219],[89.1,7305],[92.7,7389],[93.8,7474],[94.3,7559],[94.5,7644],[94.8,7729],[95.4,7813],[95.5,7899],[95.6,7983],[95.6,8068],[95.6,8153]]",1,0,484.7893,488.4573,93.046875,2.0069,"[{""rating"":90.9375,""responseTime"":1.0800999999046326},{""rating"":93.046875,""responseTime"":2.006899999976156}]",space,3.1527,,488.4574,All the time,100,488.458,,,[],,0,14,14,14,1,audio/Narrative8Situation5.wav,audio/Narrative7Situation5.wav,audio/Narrative6Situation5.wav,audio/Narrative5Situation5.wav,2,5,2,5,,,,,,,,,,,,,,,,,,,,,,,,,,,,,,,,,,,,,,,
,,,,,,5685850c333cbd000d4e042f,2024-02-08_16h01.55.425,group3.1-3.2-social-tom,2023.2.2,Win32,166.6666667,65c5074098b851296ff0b7ed,65c5412c963a750c5bb343c7,,,,,,,,,,,,,,,,,,,,,,,,,,,,,488.4581,1,audio/Narrative8Situation6.wav,490.4636,,490.4637,496.9134,"[[82.2,84],[82.3,169],[82.3,254],[84.1,339],[89.3,424],[94.1,509],[94.3,594],[93.8,678],[92.7,763],[92.5,848],[92.5,933],[92.5,1018],[92.5,1103],[92.5,1188],[92.5,1272],[92.5,1357],[92.5,1442],[92.5,1527],[92.4,1612],[92.4,1697],[92.4,1782],[92.4,1867],[92.4,1951],[92.4,2036],[92.4,2121],[92.4,2206],[92.4,2291],[92.4,2376],[92.4,2460],[92.4,2545],[92.4,2630],[92.4,2715],[92.4,2800],[92.4,2885],[92.4,2970],[92.4,3055],[91.4,3140],[90.9,3224],[90.2,3309],[89.1,3395],[88.1,3479],[87.5,3564],[85.7,3649],[83.7,3734],[81.2,3819],[79.1,3903],[77.6,3988],[76.9,4073],[76.9,4158],[76.9,4243],[76.9,4327],[76.9,4413],[76.9,4497],[76.9,4582],[76.9,4667],[76.9,4752],[76.9,4837],[76.9,4922],[76.9,5007],[76.9,5091],[76.9,5176],[76.9,5261],[76.9,5346],[76.9,5431],[76.9,5516],[76.9,5601],[76.9,5686],[76.9,5770],[76.9,5855],[76.9,5940],[76.9,6025],[76.9,6110],[76.9,6195],[76.9,6279],[76.9,6364],[76.9,6449]]",1,0,496.9134,499.2233,76.484375,1.308,"[{""rating"":76.484375,""responseTime"":1.3079999999999927}]",space,1.7977,,499.2233,All the time,100,499.224,,,[],,0,15,15,15,1,audio/Narrative8Situation6.wav,audio/Narrative7Situation6.wav,audio/Narrative6Situation6.wav,audio/Narrative5Situation6.wav,2,3,2,3,,,,,,,,,,,,,,,,,,,,,,,,,,,,,,,,,,,,,,,
,,,,,,5685850c333cbd000d4e042f,2024-02-08_16h01.55.425,group3.1-3.2-social-tom,2023.2.2,Win32,166.6666667,65c5074098b851296ff0b7ed,65c5412c963a750c5bb343c7,,,,,,,,,,,,,,,,,,,,,,,,,,,,,499.2241,1,audio/Narrative8Situation7.wav,502.2242,,502.2242,514.2933,"[[76.7,848],[77.8,933],[78,1017],[78,1102],[78,1188],[77.7,1273],[77.5,1357],[77.5,1442],[77.5,1527],[77.4,1612],[77.4,1696],[77.4,1782],[77.4,1866],[77.4,1951],[77.4,2036],[77.4,2121],[77.4,2206],[77.4,2291],[77.4,2376],[77.4,2461],[77.4,2545],[77.4,2630],[77.4,2716],[77.4,2800],[77.4,2885],[77.4,2970],[77.4,3055],[77.4,3139],[77.2,3225],[77.2,3310],[77,3394],[76.8,3479],[76.2,3564],[74.7,3649],[71,3734],[67.2,3819],[63.8,3903],[58.2,3988],[55.1,4073],[52.3,4158],[52.2,4243],[50.8,4328],[47.7,4419],[44.5,4504],[41.3,4589],[39.1,4673],[38.7,4758],[37.7,4843],[34.8,4928],[32.8,5013],[30.1,5097],[28.4,5182],[27.9,5267],[26.3,5352],[26.3,5437],[26,5522],[26,5607],[26,5692],[26,5777],[26,5861],[26,5946],[26,6031],[22.5,6116],[21.7,6200],[20.8,6285],[18.8,6371],[17,6456],[16.4,6540],[16,6625],[15.3,6710],[15.2,6795],[15.2,6880],[15.2,6965],[15.2,7049],[15.2,7135],[15.2,7219],[15.2,7304],[15.2,7389],[15.2,7474],[15.2,7559],[15.2,7644],[15.2,7729],[15.2,7814],[15.2,7898],[15.2,7983],[15.2,8068],[15.2,8153],[15.2,8238],[15.2,8322],[15.2,8407],[14.5,8493],[14.3,8577],[14.3,8662],[14.3,8747],[14.3,8832],[14.3,8917],[14.3,9001],[14.3,9086],[14.3,9171],[13.6,9256],[12.7,9341],[11.3,9426],[10.6,9511],[10.1,9596],[9.3,9680],[8.5,9765],[8.4,9850],[8.4,9935],[8.4,10020],[8.4,10105],[8.4,10189],[8.4,10275],[8.4,10359],[8.4,10444],[8.4,10529],[8.4,10614],[8.4,10698],[8.4,10784],[11.6,10869],[15.7,10954],[21.7,11039],[21.8,11123],[21.8,11208],[24.4,11293],[26.9,11378],[27.5,11462],[27.5,11548],[27.5,11632],[27.5,11717],[27.5,11802],[27.5,11887],[27.5,11972],[27.5,12057]]",1,0,514.2935,521.2832,26.09375,0.787,"[{""rating"":26.09375,""responseTime"":0.7869999999999209}]",space,6.4805,,521.2832,Not at all,0,521.2878,,,[],,0,16,16,16,1,audio/Narrative8Situation7.wav,audio/Narrative7Situation7.wav,audio/Narrative6Situation7.wav,audio/Narrative5Situation7.wav,3,5,5,4,,,,,,,,,,,,,,,,,,,,,,,,,,,,,,,,,,,,,,,
,,,,,,5685850c333cbd000d4e042f,2024-02-08_16h01.55.425,group3.1-3.2-social-tom,2023.2.2,Win32,166.6666667,65c5074098b851296ff0b7ed,65c5412c963a750c5bb343c7,,,,,,,,,,,,,,,,,,,,,,,,,,,,,521.2879,1,audio/Narrative8Situation8.wav,524.29,,524.2901,537.1234,"[[26.7,763],[26.8,848],[26.4,933],[25.9,1018],[25.6,1103],[25.6,1187],[25.6,1272],[25.6,1357],[25.6,1442],[25.6,1527],[25.6,1612],[25.6,1697],[25.6,1782],[25.6,1866],[25.6,1951],[25.6,2036],[25.6,2121],[25.6,2206],[25.6,2291],[25.6,2376],[25.6,2461],[25.6,2545],[25.6,2630],[25.6,2715],[25.6,2800],[25.6,2885],[25.6,2970],[25.6,3055],[25.6,3139],[25.6,3225],[25.6,3309],[25.6,3394],[25.6,3479],[25.6,3564],[25.6,3649],[25.6,3734],[25.6,3818],[25.6,3903],[25.6,3989],[25.6,4073],[25.6,4158],[25.6,4243],[25.6,4328],[25.6,4413],[25.6,4497],[25.6,4582],[25.6,4667],[26.3,4752],[26.3,4836],[27.8,4922],[28.1,5007],[28.1,5091],[29.1,5176],[32.7,5261],[33.4,5346],[34.7,5432],[35.9,5515],[35.9,5601],[35.9,5686],[35.9,5771],[35.9,5855],[35.9,5940],[35.9,6025],[35.9,6110],[35.9,6195],[35.9,6279],[35.9,6364],[35.6,6449],[35.6,6534],[35.6,6619],[35.6,6704],[35.6,6789],[35.6,6874],[35.5,6959],[35.5,7044],[35.5,7128],[35.4,7213],[35.4,7298],[35.4,7383],[35.3,7468],[35.3,7552],[35.3,7638],[35.3,7722],[35.3,7807],[35.3,7892],[35.3,7977],[35.3,8062],[35.4,8147],[35.5,8232],[35.5,8317],[35.5,8401],[35.5,8486],[35.5,8571],[35.5,8656],[35.5,8741],[35.5,8826],[35.5,8910],[35.5,8995],[35.5,9080],[35.5,9165],[35.5,9250],[35.5,9335],[35.6,9420],[36,9504],[36.1,9590],[36.1,9674],[36.1,9759],[36.1,9844],[36.9,9929],[37.6,10014],[38.8,10099],[41.6,10184],[43.1,10268],[45.2,10354],[48,10439],[48.2,10523],[48.2,10608],[48.4,10692],[48.4,10778],[48.4,10862],[48.4,10947],[48.4,11032],[49.6,11117],[49.6,11202],[49.6,11287],[49.6,11371],[49.1,11457],[47.9,11541],[47.4,11626],[47.4,11711],[47.4,11796],[47.4,11881],[47.4,11966],[47.4,12051],[47.4,12136],[47.4,12221],[47.4,12305],[47.4,12390],[47.4,12475],[47.4,12560],[47.4,12645],[47.4,12730],[47.4,12815]]",1,0,537.1235,539.821,40.078125,1.0122,"[{""rating"":40.078125,""responseTime"":1.0122000000477556}]",space,2.1826,,539.821,All the time,100,539.8222,,,[],,0,17,17,17,1,audio/Narrative8Situation8.wav,audio/Narrative7Situation8.wav,audio/Narrative6Situation8.wav,audio/Narrative5Situation8.wav,3,2,5,3,,,,,,,,,,,,,,,,,,,,,,,,,,,,,,,,,,,,,,,
,,,,,,5685850c333cbd000d4e042f,2024-02-08_16h01.55.425,group3.1-3.2-social-tom,2023.2.2,Win32,166.6666667,65c5074098b851296ff0b7ed,65c5412c963a750c5bb343c7,,,,,,,,,,,,,,,,,,,,,,,,,,,,,539.8225,1,audio/Narrative8Situation9.wav,542.8279,,542.8279,554.1273,"[[39.7,848],[39.7,933],[39.7,1018],[39,1103],[38.9,1188],[38.9,1272],[38.9,1357],[38.9,1442],[38.9,1527],[38.9,1612],[38.9,1697],[38.9,1781],[38.9,1867],[38.9,1951],[38.9,2036],[38.9,2121],[38.9,2206],[38.9,2291],[38.9,2376],[38.9,2461],[38.9,2545],[38.9,2630],[38.9,2715],[38.9,2800],[38.9,2885],[38.9,2970],[38.9,3055],[38.9,3140],[38.9,3224],[38.9,3309],[38.9,3394],[40.8,3479],[41.4,3564],[41.4,3649],[41.4,3734],[41.4,3818],[41.4,3904],[41.4,3988],[41.4,4073],[41.4,4158],[41.4,4242],[41.4,4328],[41.4,4413],[41.4,4497],[42.8,4582],[52,4668],[54.6,4752],[57,4837],[59.3,4922],[62.3,5007],[65.8,5092],[67.1,5177],[67.2,5261],[67.2,5346],[67.2,5431],[67.2,5515],[67.2,5600],[67.2,5686],[67,5770],[67,5855],[66.9,5940],[66.8,6025],[66.7,6110],[66.7,6194],[66.7,6279],[66.7,6365],[66.7,6449],[66.7,6534],[66.7,6619],[66.7,6704],[66.7,6789],[66.7,6874],[66.7,6959],[66.7,7044],[66.7,7128],[66.7,7213],[66.7,7298],[66.7,7383],[66.7,7468],[66.7,7553],[66.7,7638],[66.7,7722],[66.7,7807],[66.7,7892],[66.7,7977],[66.7,8062],[67.7,8147],[69.2,8231],[69.5,8317],[69.8,8401],[69.8,8486],[69.8,8571],[69.8,8656],[69.8,8741],[69.8,8826],[69.8,8911],[69.8,8996],[69.8,9080],[69.8,9165],[69.8,9250],[69.8,9335],[69.8,9420],[69.8,9505],[69.8,9590],[69.8,9674],[69.8,9759],[69.8,9844],[69.8,9929],[69.8,10014],[69.8,10099],[69.8,10183],[69.8,10269],[69.8,10354],[69.8,10438],[69.8,10523],[69.8,10608],[69.8,10695],[69.8,10777],[69.8,10862],[69.8,10947],[69.8,11032],[69.8,11117],[69.8,11202],[69.8,11287]]",1,0,554.1274,556.2432,64.765625,0.7662,"[{""rating"":64.765625,""responseTime"":0.7661999999284035}]",space,1.6006,,556.2432,Half the time,50,556.2444,,,[],,0,18,18,18,1,audio/Narrative8Situation9.wav,audio/Narrative7Situation9.wav,audio/Narrative6Situation9.wav,audio/Narrative5Situation9.wav,3,2,4,3,,,,,,,,,,,,,,,,,,,,,,,,,,,,,,,,,,,,,,,
,,,,,,5685850c333cbd000d4e042f,2024-02-08_16h01.55.425,group3.1-3.2-social-tom,2023.2.2,Win32,166.6666667,65c5074098b851296ff0b7ed,65c5412c963a750c5bb343c7,,,,,,,,,,,,,,,,,,,,,,,,,,,559.9293,562.5049,562.5135,2,audio/Narrative13Situation2.wav,562.5135,,562.5135,592.2455,"[[64.2,1010],[41.2,1095],[16.6,1180],[6.1,1264],[0.5,1350],[1.2,3896],[5.9,3980],[10.5,4065],[15.5,4150],[23.4,4235],[24,4320],[24,4404],[24,4489],[24,4574],[24,4659],[24,4744],[24,4828],[24,4914],[24,4999],[24,5083],[24,5168],[24,5253],[24,5338],[24,5422],[24,5508],[24,5592],[24,5677],[24,5763],[24,5847],[24,5932],[24,6017],[24,6102],[24,6187],[24,6272],[24,6356],[24,6441],[24,6526],[24,6611],[24,6696],[24,6781],[24,6866],[24,6951],[26.6,7036],[27,7121],[27.7,7205],[27.7,7290],[27.7,7375],[27.7,7460],[27.7,7545],[27.7,7630],[27.7,7715],[27.7,7799],[27.7,7884],[27.7,7969],[27.7,8054],[27.7,8139],[27.7,8223],[27.7,8309],[27.7,8393],[27.7,8478],[27.7,8563],[27.7,8648],[27.7,8733],[27.7,8818],[27.7,8902],[27.7,8987],[27.7,9072],[27.7,9157],[27.7,9242],[27.7,9327],[27.7,9411],[27.7,9496],[27.7,9581],[27.7,9666],[27.7,9751],[27.7,9836],[27.7,9921],[27.7,10006],[27.7,10091],[27.7,10176],[27.7,10261],[27.7,10345],[27.7,10430],[27.7,10515],[27.7,10600],[27.7,10685],[27.7,10769],[27.7,10854],[27.7,10939],[27.7,11024],[27.7,11109],[27.7,11194],[27.7,11279],[27.7,11364],[27.7,11449],[27.7,11533],[27.7,11618],[27.7,11703],[27.7,11788],[28,11873],[28,11958],[28,12043],[28,12128],[28,12212],[28,12297],[25.6,12382],[22.6,12467],[18,12552],[15.2,12637],[12.3,12721],[10.2,12807],[9.6,12891],[9.6,12976],[9.5,13061],[9.1,13146],[8,13231],[7.8,13316],[7.8,13401],[7.8,13485],[7.8,13570],[7.8,13655],[7.8,13740],[7.8,13825],[7.8,13909],[7.8,13995],[7.8,14079],[7.8,14164],[7.8,14249],[7.8,14334],[7.8,14419],[7.8,14503],[7.8,14588],[6.5,14674],[4.8,14759],[3.7,14843],[3.2,14928],[2.7,15016],[2.4,15098],[2,15183],[1.4,15267],[1,15352],[0.6,15438],[0.3,15522],[0.9,21463],[2.7,21548],[3.5,21633],[4.4,21718],[6.7,21803],[9.9,21888],[12,21973],[13,22057],[13.6,22142],[14.4,22227],[15.9,22312],[17.7,22397],[19.8,22482],[21.7,22566],[22.7,22651],[22.9,22736],[22.9,22821],[22.9,22906],[22.9,22991],[22.9,23076],[22.9,23160],[22.9,23245],[22.9,23330],[22.9,23415],[22.9,23500],[22.9,23584],[22.9,23670],[22.9,23755],[22.9,23839],[22.9,23924],[22.9,24009],[22.9,24094],[22.9,24179],[22.9,24263],[22.9,24349],[22.9,24434],[22.9,24518],[22.9,24603],[22.9,24688],[22.9,24773],[22.9,24858],[22.9,24943],[22.9,25028],[22.9,25112],[22.9,25197],[22.9,25282],[22.9,25367],[22.9,25452],[22.9,25537],[22.9,25622],[22.9,25706],[22.9,25792],[22.9,25876],[22.9,25961],[22.9,26046],[22.9,26131],[22.9,26216],[22.9,26301],[22.9,26385],[22.9,26470],[22.9,26555],[22.9,26640],[22.9,26725],[24.7,26810],[25.5,26895],[26,26980],[26.4,27065],[27,27149],[27.9,27234],[28.4,27319],[28.5,27404],[28.8,27489],[29.2,27574],[29.8,27659],[30.4,27749],[30.9,27834],[30.9,27919],[31.1,28004],[31.2,28089],[31.2,28173],[31.2,28258],[31.2,28343],[31.2,28428],[31.2,28513],[31.2,28598],[31.2,28683],[31.2,28768],[31.2,28852],[31.2,28937],[31.2,29022],[31.2,29107],[31.2,29192],[31.2,29277],[31.2,29362],[31.2,29446],[31.2,29531],[31.2,29616],[31.2,29701]]",1,0,592.2456,592.2465,,,[],,,,592.2465,Half the time,50,592.2471,,,[],,0,0,0,0,1,audio/Narrative13Situation2.wav,audio/Narrative13Situation2.wav,audio/Narrative13Situation2.wav,audio/Narrative13Situation2.wav,2,2,2,2,,,,,556.2448,559.9291,space,3.1762,,,,,,,,,,,,,,,,,,,,,,,,,,,,,,,
,,,,,,5685850c333cbd000d4e042f,2024-02-08_16h01.55.425,group3.1-3.2-social-tom,2023.2.2,Win32,166.6666667,65c5074098b851296ff0b7ed,65c5412c963a750c5bb343c7,,,,,,,,,,,,,,,,,,,,,,,,,,,,,592.2472,2,audio/Narrative5Situation1.wav,597.2527,,597.2527,610.5226,"[[15.6,84],[11.9,169],[8.8,254],[2.2,339],[0.8,424],[3.6,3904],[8.9,3995],[10.9,4080],[13.3,4164],[13.8,4249],[13.8,4334],[13.8,4419],[13.8,4504],[13.8,4589],[13.8,4673],[13.8,4759],[13.8,4844],[13.8,4928],[13.8,5013],[13.8,5098],[13.8,5183],[13.8,5268],[13.8,5353],[13.8,5437],[13.8,5522],[13.8,5607],[13.8,5692],[13.8,5777],[13.8,5862],[13.6,5947],[13.4,6032],[13.4,6116],[13.4,6201],[13.4,6286],[13.4,6371],[13.4,6456],[14.1,6541],[16.7,6626],[22.2,6711],[24.4,6796],[27.2,6880],[30.6,6965],[33.7,7050],[36.2,7135],[37.2,7220],[37.5,7304],[37.8,7389],[40.4,7480],[43.6,7566],[49.9,7656],[58.1,7741],[60.2,7826],[65.7,7911],[72.4,7996],[75.1,8081],[76,8165],[76,8250],[76,8336],[76,8420],[76,8505],[76,8590],[76,8675],[76,8759],[76,8845],[76,8929],[76,9014],[76,9099],[76,9184],[76,9269],[76,9353],[76,9438],[76,9523],[76,9608],[76,9693],[76,9778],[76,9862],[76,9947],[76,10033],[76,10117],[76,10202],[76,10289],[76,10371],[76,10456],[76,10542],[76,10626],[76,10711],[76,10796],[75.8,10881],[74.1,10966],[72.7,11051],[70.9,11136],[67.9,11221],[64.1,11306],[61.5,11391],[59.8,11475],[58,11560],[55.8,11645],[54,11730],[52.2,11816],[50,11900],[49,11984],[48.8,12069],[48.6,12154],[48.6,12240],[48.4,12324],[47.6,12409],[46.2,12494],[44.8,12579],[42.9,12663],[42.2,12749],[42.2,12833],[42.2,12918],[42.2,13003],[42,13088],[42,13172],[41.9,13257]]",1,0,610.5227,615.4637,58.90625,3.0657,"[{""rating"":54.6875,""responseTime"":2.33400000000006},{""rating"":58.90625000000001,""responseTime"":3.0656999999284835}]",space,4.4255,,615.4637,Not at all,0,615.4648,,,[],,0,1,1,1,1,audio/Narrative7Situation1.wav,audio/Narrative8Situation1.wav,audio/Narrative5Situation1.wav,audio/Narrative6Situation1.wav,2,5,5,2,,,,,,,,,,,,,,,,,,,,,,,,,,,,,,,,,,,,,,,
,,,,,,5685850c333cbd000d4e042f,2024-02-08_16h01.55.425,group3.1-3.2-social-tom,2023.2.2,Win32,166.6666667,65c5074098b851296ff0b7ed,65c5412c963a750c5bb343c7,,,,,,,,,,,,,,,,,,,,,,,,,,,,,615.4649,2,audio/Narrative5Situation2.wav,618.4703,,618.4703,647.9138,"[[999,4],[999,84],[999,169],[999,254],[999,339],[999,424],[999,509],[999,594],[999,679],[999,764],[999,848],[33.8,933],[4.2,1018],[2.3,1533],[2.9,1618],[2.3,1703],[1.7,1787],[1.7,1873],[2,1957],[2.1,2043],[4.3,2128],[16.9,2218],[20.3,2303],[22.4,2388],[27.3,2473],[30.8,2557],[30.8,2643],[31.4,2727],[33.4,2812],[34.5,2897],[34.6,2982],[34.6,3067],[34.6,3152],[34.6,3236],[34.6,3322],[34.6,3406],[34.6,3491],[34.6,3576],[34.6,3661],[34.6,3746],[34.6,3831],[34.6,3915],[34.6,4000],[34.6,4085],[34.6,4170],[34.6,4255],[34.6,4340],[34.6,4424],[34.6,4509],[34.6,4595],[34.7,4679],[34.7,4764],[34.7,4849],[34.7,4933],[34.7,5019],[34.7,5104],[35.2,5188],[35.2,5273],[35.5,5364],[35.5,5449],[35.5,5534],[35.5,5619],[35.5,5704],[35.7,5789],[35.7,5874],[35.7,5959],[35.7,6043],[35.7,6128],[35.7,6213],[35.7,6298],[35.7,6383],[35.7,6468],[35.7,6552],[32.7,6638],[29.8,6722],[26.5,6813],[24.8,6898],[23.7,6983],[23.4,7068],[22.9,7153],[22.2,7238],[20.9,7322],[18.9,7407],[17.9,7498],[16.9,7583],[14.5,7668],[11.5,7753],[11.2,7838],[11.2,7923],[10.7,8007],[10.1,8092],[9.2,8177],[7.6,8262],[7.4,8346],[7.4,8432],[7.4,8517],[7.4,8601],[7.4,8686],[7.4,8771],[7.4,8856],[7.4,8941],[7.4,9026],[7.4,9111],[7.4,9196],[7.4,9280],[7.4,9365],[7.4,9450],[7.4,9535],[7.4,9620],[7.4,9705],[7.4,9789],[7.4,9874],[7.4,9959],[12.3,10044],[17,10135],[17.7,10220],[17.7,10305],[17.7,10390],[17.7,10475],[17.7,10560],[17.7,10644],[17.7,10729],[17.7,10814],[17.7,10899],[17.7,10984],[17.7,11069],[17.7,11154],[17.7,11238],[17.7,11324],[17.7,11408],[17.7,11493],[17.7,11578],[17.7,11663],[17.7,11748],[17.7,11832],[17.7,11917],[17.7,12003],[17.7,12087],[17.7,12172],[17.7,12257],[17.7,12341],[17.7,12427],[17.7,12511],[17.7,12596],[17.7,12681],[17.7,12766],[17.7,12851],[17.7,12936],[17.7,13021],[17.9,13107],[18.8,13190],[20.3,13275],[20.3,13360],[20.3,13445],[20.3,13530],[20.3,13615],[20.3,13700],[20.3,13784],[20.9,13870],[22.7,13955],[24.1,14039],[25.9,14124],[28,14209],[30.6,14294],[31.3,14379],[32,14464],[36.1,14549],[39.6,14633],[40.2,14718],[40.9,14803],[41.3,14888],[41.3,14973],[41.3,15058],[41.3,15142],[41.3,15228],[41.3,15312],[41.3,15397],[41.3,15482],[41.3,15567],[41.3,15651],[41.3,15736],[41.3,15821],[41.3,15906],[41.3,15991],[41.3,16076],[41.3,16161],[41.3,16246],[41.3,16330],[41.3,16415],[41.3,16500],[41.3,16585],[41.3,16670],[41.3,16755],[41.3,16840],[41.3,16925],[41.3,17009],[41.4,17095],[41.6,17179],[41.6,17264],[42,17349],[42.3,17434],[42.3,17519],[42.3,17604],[42.4,17689],[42.4,17773],[42.4,17858],[42.4,17943],[42.4,18028],[42.4,18113],[42.4,18198],[42.4,18283],[43,18368],[45.1,18452],[48.8,18537],[54.7,18622],[59.1,18707],[61.4,18792],[63.4,18877],[65.2,18962],[66.8,19047],[67.9,19133],[68,19216],[68.4,19301],[68.8,19386],[68.9,19471],[69.2,19556],[69.3,19641],[69.3,19725],[69.3,19810],[69.3,19895],[69.3,19980],[69.3,20065],[69.3,20150],[69.3,20235],[69.3,20319],[69.3,20404],[69.3,20489],[69.3,20574],[69.3,20659],[69.3,20744],[69.3,20828],[69.3,20913],[69.3,20998],[69.3,21083],[69.3,21168],[69.3,21253],[69.3,21338],[69.3,21423],[69.3,21508],[69.3,21593],[69.3,21677],[69.3,21762],[69.3,21847],[69.3,21932],[69.3,22017],[69.3,22101],[69.3,22187],[69.3,22271],[69.3,22356],[69.3,22441],[69.3,22526],[69.3,22611],[69.3,22696],[69.3,22781],[69.3,22866],[69.3,22951],[69.3,23035],[70,23120],[70.5,23205],[71.3,23290],[72,23375],[71.3,23460],[67,23544],[64.5,23630],[61.4,23714],[60.4,23799],[60.4,23890],[59.5,23975],[59.5,24059],[59.5,24144],[59.5,24229],[59.5,24314],[59.5,24399],[59.5,24484],[59.5,24569],[59.5,24653],[59.5,24738],[59.5,24823],[59.5,24908],[59.5,24993],[59.5,25078],[59.5,25163],[59.5,25248],[59.5,25333],[59.5,25417],[59.5,25503],[59.5,25588],[59.5,25672],[59.5,25758],[59.5,25842],[59.5,25927],[59.5,26012],[59.5,26096],[59.5,26181],[59.5,26266],[59.5,26351],[59.5,26436],[59.5,26521],[60.4,26606],[61.1,26691],[61.5,26776],[61.5,26860],[61.5,26945],[61.5,27030],[61.5,27115],[61.5,27200],[61.5,27285],[61.5,27370],[61.5,27455],[61.5,27540],[61.5,27624],[61.5,27709],[61.5,27794],[61.5,27879],[61.5,27964],[61.5,28049],[61.5,28133],[60.9,28218],[60.7,28303],[60.7,28388],[60.7,28473],[60.7,28558],[60.7,28643],[60.7,28728],[60.7,28813],[60.7,28897],[60.7,28982],[60.7,29067],[60.7,29152],[60.7,29237],[60.7,29322],[60.7,29407]]",1,0,647.9139,652.2058,63.59375,1.873,"[{""rating"":63.59375000000001,""responseTime"":1.8729999999999336}]",space,3.7717,,652.2058,All the time,100,652.2068,,,[],,0,2,2,2,1,audio/Narrative7Situation2.wav,audio/Narrative8Situation2.wav,audio/Narrative5Situation2.wav,audio/Narrative6Situation2.wav,3,3,3,3,,,,,,,,,,,,,,,,,,,,,,,,,,,,,,,,,,,,,,,
,,,,,,5685850c333cbd000d4e042f,2024-02-08_16h01.55.425,group3.1-3.2-social-tom,2023.2.2,Win32,166.6666667,65c5074098b851296ff0b7ed,65c5412c963a750c5bb343c7,,,,,,,,,,,,,,,,,,,,,,,,,,,,,652.2069,2,audio/Narrative5Situation3.wav,655.2126,,655.2126,669.1067,"[[63,848],[62.3,933],[61.1,1018],[61,1102],[61.6,1188],[62,1273],[62,1357],[62,1442],[62,1527],[62,1611],[62,1697],[61.7,1781],[61.6,1866],[61.5,1951],[61.4,2036],[61.4,2121],[61.4,2206],[61.4,2291],[61.4,2376],[61.4,2460],[61.4,2545],[61.4,2630],[61.4,2715],[61.4,2800],[61.4,2885],[61.4,2970],[61.4,3055],[61.4,3139],[61.4,3224],[61.4,3309],[63,3395],[64.2,3480],[67,3564],[68.7,3648],[68.8,3733],[70,3819],[71.4,3903],[72.7,3988],[73,4073],[73,4158],[73,4243],[73,4328],[73,4412],[73,4497],[73,4582],[73,4667],[73,4752],[73,4836],[73,4922],[73,5007],[73,5091],[73,5176],[73,5261],[73,5346],[73,5431],[73,5515],[73,5601],[73,5686],[73,5770],[73,5855],[73,5940],[73,6025],[73,6110],[73,6194],[73,6280],[73,6364],[73,6449],[73,6534],[73,6619],[73,6704],[73,6789],[73,6873],[73,6958],[70.9,7044],[69.3,7128],[68,7214],[66.5,7298],[65.4,7383],[64.5,7468],[63,7553],[61.5,7637],[60.8,7722],[60.5,7807],[60.5,7892],[60.5,7977],[60.5,8062],[60.5,8146],[60.5,8232],[60.5,8316],[60.5,8401],[60.5,8486],[60.5,8571],[60.5,8656],[60.5,8741],[60.5,8826],[60.5,8911],[60.5,8995],[60.5,9080],[60.5,9165],[60.5,9250],[60.5,9335],[60.5,9419],[60.5,9505],[60.5,9589],[60.5,9674],[60.5,9759],[60.5,9844],[60.5,9929],[60.5,10014],[60.5,10099],[60.5,10184],[60.5,10269],[60.7,10353],[60.9,10438],[61.1,10523],[61.4,10608],[61.6,10693],[61.6,10778],[61.6,10862],[61.6,10947],[61.6,11032],[61.6,11117],[61.6,11202],[61.6,11287],[61.6,11371],[61.6,11457],[61.6,11542],[61.6,11626],[61.6,11711],[61.6,11796],[61.6,11881],[61.6,11966],[61.6,12050],[61.6,12136],[63.1,12221],[68.6,12309],[70.2,12391],[70.9,12475],[70.9,12560],[70.9,12644],[70.9,12730],[70.9,12815],[70.9,12899],[70.9,12984],[70.9,13069],[71.2,13154],[71.5,13239],[71.5,13324],[71.6,13409],[71.6,13493],[71.6,13578],[71.6,13663],[71.6,13748],[71.6,13833]]",1,0,669.1068,671.8531,68.125,1.491,"[{""rating"":68.125,""responseTime"":1.4909999999999854}]",space,2.231,,671.8531,All the time,100,671.8536,,,[],,0,3,3,3,1,audio/Narrative7Situation3.wav,audio/Narrative8Situation3.wav,audio/Narrative5Situation3.wav,audio/Narrative6Situation3.wav,8,4,3,5,,,,,,,,,,,,,,,,,,,,,,,,,,,,,,,,,,,,,,,
,,,,,,5685850c333cbd000d4e042f,2024-02-08_16h01.55.425,group3.1-3.2-social-tom,2023.2.2,Win32,166.6666667,65c5074098b851296ff0b7ed,65c5412c963a750c5bb343c7,,,,,,,,,,,,,,,,,,,,,,,,,,,,,671.8537,2,audio/Narrative5Situation4.wav,672.8589,,672.859,693.2337,"[[68,1782],[68,1867],[68,1951],[68,2036],[68,2121],[68,2206],[68,2291],[68,2376],[68,2461],[68,2546],[68,2631],[68,2715],[68,2800],[68,2885],[68,2970],[68,3055],[68,3140],[68,3225],[68,3309],[68,3394],[68,3479],[68,3564],[68,3649],[68,3734],[68,3818],[68,3904],[68,3988],[68,4073],[68,4158],[68,4243],[68,4328],[68,4413],[68,4498],[68,4583],[68,4668],[68,4752],[66.3,4837],[65.3,4922],[64.5,5007],[63.7,5092],[61.3,5177],[56.4,5261],[52.3,5346],[48.6,5431],[45,5516],[42.4,5601],[40.3,5686],[38.2,5770],[37.8,5855],[37.7,5940],[37,6026],[37,6110],[37,6195],[37,6280],[37,6365],[37,6450],[37,6535],[37,6619],[37,6704],[37,6789],[37,6874],[38.1,6959],[41.9,7044],[44.2,7129],[45.6,7214],[45.8,7298],[45.8,7383],[45.8,7468],[45.8,7553],[45.8,7638],[45.8,7723],[45.8,7808],[45.8,7892],[45.8,7978],[45.8,8062],[45.8,8147],[45.8,8232],[45.8,8317],[45.8,8402],[45.8,8487],[45.8,8572],[45.8,8657],[45.8,8741],[45.8,8826],[45.8,8910],[45.8,8996],[45.8,9081],[45.8,9165],[45.8,9250],[45.8,9335],[46,9420],[46,9504],[46.3,9590],[46.4,9675],[46.4,9759],[46.4,9844],[46.4,9930],[46.4,10014],[46.4,10099],[46.4,10184],[46.4,10269],[46.4,10354],[46.4,10439],[46.4,10523],[46.4,10610],[46.4,10693],[43.4,10778],[41.4,10863],[40.5,10948],[39.6,11033],[38,11118],[35.3,11202],[28.9,11627],[32.4,11711],[32.8,11796],[32.8,11881],[32.8,11966],[32.8,12051],[32.8,12136],[32.8,12221],[32.8,12305],[32.8,12391],[32.8,12475],[32.8,12560],[32.8,12645],[32.8,12730],[32.8,12814],[32.8,12900],[32.8,12984],[32.8,13069],[32.8,13154],[32.8,13239],[32.8,13324],[32.8,13408],[32.8,13494],[33.4,13579],[33.6,13663],[33.6,13748],[33.6,13833],[33.6,13918],[33.6,14003],[33.6,14088],[33.8,14173],[33.8,14258],[33.8,14343],[33.8,14427],[33.8,14512],[33.8,14597],[33.8,14682],[33.8,14766],[33.6,14852],[33.3,14937],[33,15021],[32.8,15106],[32.3,15191],[32,15276],[31.5,15361],[30.8,15446],[29.6,15531],[27.5,15615],[25.7,15700],[24.9,15785],[24.3,15870],[23.8,15955],[23.4,16040],[22.7,16125],[22,16210],[21.3,16295],[20.7,16379],[20.3,16464],[20.2,16549],[20.2,16634],[20.2,16719],[20.2,16804],[20.2,16889],[20.2,16973],[20.4,17058],[21.1,17143],[22.4,17228],[24.1,17313],[25.5,17404],[27.5,17489],[32.2,17574],[37,17665],[41.5,17749],[45.9,17834],[50.2,17919],[53.2,18004],[57.1,18089],[60.2,18174],[63,18259],[66.7,18350],[70.3,18434],[74.1,18525],[76.6,18610],[78,18695],[79.6,18780],[80.6,18865],[81.8,18950],[83,19035],[83.7,19119],[84,19204],[85.3,19289],[85.5,19374],[85.5,19459],[85.5,19544],[85.5,19628],[85.5,19714],[85.5,19799],[85.5,19883],[85.5,19968],[85.5,20053],[85.5,20137],[85.5,20223],[85.5,20308]]",1,0,693.2338,696.8404,63.28125,1.0986,"[{""rating"":63.28125,""responseTime"":1.0985999999046498}]",space,3.0954,,696.8404,Not at all,0,696.8451,,,[],,0,4,4,4,1,audio/Narrative7Situation4.wav,audio/Narrative8Situation4.wav,audio/Narrative5Situation4.wav,audio/Narrative6Situation4.wav,3,3,1,2,,,,,,,,,,,,,,,,,,,,,,,,,,,,,,,,,,,,,,,
,,,,,,5685850c333cbd000d4e042f,2024-02-08_16h01.55.425,group3.1-3.2-social-tom,2023.2.2,Win32,166.6666667,65c5074098b851296ff0b7ed,65c5412c963a750c5bb343c7,,,,,,,,,,,,,,,,,,,,,,,,,,,,,696.8452,2,audio/Narrative5Situation5.wav,701.8475,,701.8476,717.2518,"[[68.3,424],[68.6,509],[68.6,593],[68.6,679],[67,764],[66.8,848],[66.7,934],[66.7,1018],[66.7,1103],[66.7,1188],[66.7,1273],[65.8,1358],[65.7,1442],[65.4,1527],[65.4,1612],[65.4,1697],[65.4,1782],[65.4,1867],[65.4,1951],[65.4,2037],[65.4,2122],[65.4,2206],[65.4,2291],[65.4,2376],[65.4,2461],[65.4,2546],[65.4,2631],[65.4,2715],[65.4,2800],[65.4,2885],[65.4,2970],[65.4,3055],[65.4,3140],[65.4,3225],[65.4,3310],[65.4,3394],[65.4,3479],[65.4,3564],[65.4,3649],[59.5,3734],[57,3819],[55.4,3904],[51.4,3989],[49.6,4073],[48.9,4158],[48.9,4243],[50.8,4328],[67.9,4413],[78,4498],[87,4589],[89.3,4674],[90.3,4758],[91,4843],[91.6,4928],[91.8,5013],[92.4,5098],[92.7,5183],[93.8,5274],[96.4,5365],[97.4,5450],[98.1,5541],[98.9,5625],[99.2,5710],[99.5,5795],[99.5,5880],[99.5,5965],[99.5,6050],[99.5,6134],[99.5,6219],[99.5,6304],[99.5,6389],[99.5,6474],[99.5,6559],[99.5,6644],[99.5,6728],[99.5,6814],[99.5,6899],[99.5,6983],[99.5,7068],[99.5,7153],[99.5,7238],[99.5,7323],[99.5,7408],[99.5,7492],[99.5,7577],[99.5,7662],[99.5,7747],[99,7832],[99,7917],[99,8001],[99,8086],[99,8171],[99.1,8256],[99.1,8341],[99.5,8426],[100,8511],[100,8596],[100,8681],[100,8766],[100,8850],[100,8935],[100,9020],[100,9105],[100,9190],[100,9275],[100,9360],[100,9444],[100,9529],[100,9615],[99.9,9699],[99.8,9784],[99.7,9868],[99.7,9954],[99.7,10038],[99.7,10124],[99.7,10208],[99.7,10293],[99.7,10378],[99.7,10463],[99.7,10547],[99.7,10633],[99.7,10717],[99.7,10802],[99.7,10888],[99.7,10972],[99.7,11058],[99.7,11142],[99.7,11227],[99.7,11312],[99.7,11396],[99.7,11481],[99.7,11566],[99.7,11651],[99.7,11736],[99.7,11821],[99.7,11906],[99.7,11990],[99.7,12075],[99.7,12160],[99.7,12246],[99.5,12330],[99.4,12415],[99.4,12500],[99.4,12585],[99.4,12670],[99.4,12754],[99.4,12839],[99,12924],[98,13009],[97.3,13094],[97.1,13179],[97.1,13264],[97.1,13348],[97.1,13433],[97.1,13518],[97.1,13603],[97.1,13688],[97.1,13773],[97.1,13857],[97.1,13942],[97.1,14027],[97.1,14112],[97.1,14197],[97.1,14282],[97.1,14366],[97.1,14452],[97.1,14536],[97.1,14621],[97.1,14706],[97.1,14791],[97.1,14876],[97.1,14961],[97.1,15046],[97.1,15131],[97.1,15216],[97.3,15300],[98,15385]]",1,0,717.252,719.6279,99.0625,1.2062,"[{""rating"":99.0625,""responseTime"":1.2062000000477155}]",space,1.8633,,719.628,Not at all,0,719.6285,,,[],,0,5,5,5,1,audio/Narrative7Situation5.wav,audio/Narrative8Situation5.wav,audio/Narrative5Situation5.wav,audio/Narrative6Situation5.wav,5,2,5,2,,,,,,,,,,,,,,,,,,,,,,,,,,,,,,,,,,,,,,,
,,,,,,5685850c333cbd000d4e042f,2024-02-08_16h01.55.425,group3.1-3.2-social-tom,2023.2.2,Win32,166.6666667,65c5074098b851296ff0b7ed,65c5412c963a750c5bb343c7,,,,,,,,,,,,,,,,,,,,,,,,,,,,,719.6287,2,audio/Narrative5Situation6.wav,722.6287,,722.6287,728.2907,"[[99.3,169],[98.8,254],[98.9,339],[98.9,424],[98.9,509],[98.9,594],[98.9,678],[98.8,764],[98.4,848],[98.3,933],[98.3,1018],[98.3,1103],[98.3,1188],[98.3,1272],[98.3,1357],[98.3,1442],[98.3,1527],[98.3,1612],[98.3,1697],[98.3,1782],[98.3,1867],[98.3,1951],[98.3,2036],[98.3,2121],[98.3,2206],[98.3,2291],[98.3,2376],[98.3,2461],[98.3,2546],[98.3,2630],[98.3,2715],[98.3,2800],[98.3,2885],[98.3,2970],[98.3,3055],[98.3,3140],[98.3,3225],[98.1,3309],[97.5,3394],[97.2,3479],[97.1,3564],[97.1,3649],[97,3733],[97,3819],[97,3903],[97,3988],[96.8,4073],[96.2,4159],[94.6,4243],[92.2,4328],[88.9,4413],[86.6,4497],[85.5,4583],[84.5,4667],[84.3,4752],[84.3,4837],[84.3,4922],[84.3,5007],[84.3,5091],[84.3,5176],[84.3,5261],[84.3,5346],[84.3,5431],[84.3,5516],[84.3,5601]]",1,0,728.2907,731.2676,89.375,2.0493,"[{""rating"":89.375,""responseTime"":2.049299999952268}]",space,2.4614,,731.2678,All the time,100,736.1714,100,3.2153,"[{""rating"":100,""responseTime"":3.2152999999523217}]",space,0,6,6,6,1,audio/Narrative7Situation6.wav,audio/Narrative8Situation6.wav,audio/Narrative5Situation6.wav,audio/Narrative6Situation6.wav,3,2,3,2,,,4.3891,,,,,,,,,,,,,,,,,,,,,,,,,,,,,,,,,,,,
,,,,,,5685850c333cbd000d4e042f,2024-02-08_16h01.55.425,group3.1-3.2-social-tom,2023.2.2,Win32,166.6666667,65c5074098b851296ff0b7ed,65c5412c963a750c5bb343c7,,,,,,,,,,,,,,,,,,,,,,,,,,,,,736.1717,2,audio/Narrative5Situation7.wav,740.1719,,740.172,761.1895,"[[999,3],[999,85],[999,169],[999,254],[999,340],[999,424],[999,509],[999,594],[999,678],[999,764],[90.9,855],[99.4,940],[100,1024],[100,1109],[100,1194],[98.4,1280],[98,1363],[98,1448],[98,1533],[98,1618],[98,1703],[98,1788],[98,1873],[98,1958],[98,2043],[98,2128],[96.5,2213],[95.5,2298],[95.2,2382],[95.2,2467],[95.2,2552],[95.2,2636],[95.2,2722],[95.2,2807],[95.2,2892],[95.2,2976],[95.2,3061],[95.2,3146],[95.2,3231],[95.2,3315],[95.2,3401],[95.2,3485],[95.2,3571],[95.2,3655],[94.5,3740],[92.3,3825],[89.5,3910],[86.8,3995],[83.8,4080],[82,4164],[81.9,4249],[81.4,4334],[78.9,4843],[79.1,4928],[79.1,5013],[79.1,5098],[79.1,5183],[79.1,5267],[79.1,5354],[79.1,5437],[79.1,5522],[79.1,5607],[79.1,5693],[79.1,5777],[79.1,5862],[79.1,5947],[79.1,6032],[79.1,6116],[79.1,6201],[79.1,6286],[79.1,6371],[79.1,6456],[79.1,6540],[79.1,6626],[79.1,6711],[79.1,6796],[79.1,6880],[79.1,6965],[79.1,7050],[79.1,7135],[79.1,7220],[79.1,7305],[79.1,7389],[79.1,7474],[79.1,7559],[79.1,7644],[79.1,7729],[79.1,7813],[79.1,7899],[79.1,7983],[77.7,8069],[77.1,8153],[77.1,8238],[77.1,8323],[77.1,8408],[77.1,8493],[76.6,8578],[76.6,8662],[76.6,8747],[76.6,8832],[76.6,8917],[76.6,9002],[76.6,9087],[76.6,9172],[76.6,9257],[76.6,9342],[76.3,9426],[76.1,9511],[75.1,9596],[73.3,9681],[72.5,9766],[72.5,9851],[72.5,9935],[72.5,10020],[72.5,10105],[72.5,10190],[72.5,10275],[72.5,10360],[72.5,10445],[72.5,10530],[72.5,10615],[72.5,10699],[72.5,10784],[72.5,10869],[72.5,10954],[72.5,11039],[72.5,11124],[72.5,11209],[72.5,11294],[72.5,11378],[72.7,11463],[72.7,11548],[72.7,11633],[72.7,11717],[72.3,11803],[64.8,11887],[60.2,11972],[59.4,12058],[58.2,12142],[58,12227],[58,12312],[58,12397],[58,12482],[58,12567],[56.5,12652],[55.3,12736],[55.3,12821],[55.3,12906],[55.3,12991],[55.3,13075],[55.3,13160],[55.3,13245],[55.3,13330],[55.3,13415],[55.3,13500],[55.3,13585],[55.3,13670],[55.3,13755],[55.3,13840],[55.3,13924],[55.3,14009],[55.3,14094],[55.3,14179],[55.3,14264],[55.3,14349],[55.2,14434],[54.4,14519],[53.7,14603],[52.3,14688],[51.6,14773],[50.6,15452],[50.6,15537],[50.5,15622],[50.5,15707],[50.5,15792],[50.5,15876],[50.3,15961],[50.2,16046],[50,16131],[49.8,16215],[49.8,16300],[49.8,16386],[49.8,16470],[49.8,16555],[48.8,16640],[47.3,16725],[46.2,16810],[46.2,16894],[46.2,16980],[46.2,17065],[46.2,17149],[46.2,17234],[46.2,17319],[46.2,17404],[46.2,17489],[46.2,17573],[46.2,17658],[46.2,17743],[46.2,17829],[46.2,17913],[46.2,17998],[46.2,18083],[46.2,18168],[46.2,18253],[46.2,18338],[40.5,18422],[39,18507],[39,18592],[39,18677],[39,18761],[39,18846],[39,18932],[39,19016],[39,19101],[39,19186],[39,19271],[39,19356],[39,19441],[39,19526],[39,19610],[39,19695],[39,19780],[39,19865],[39,19950],[39,20035],[39,20120],[39,20205],[39.1,20289],[39.3,20374],[39.4,20459],[39.5,20544],[39.6,20629],[39.6,20714],[39.6,20799],[39.6,20884],[39.6,20968]]",1,0,761.1897,765.1665,51.328125,2.0086,"[{""rating"":51.328125,""responseTime"":2.0086000000238755}]",space,3.462,,765.1666,All the time,100,765.1672,,,[],,0,7,7,7,1,audio/Narrative7Situation7.wav,audio/Narrative8Situation7.wav,audio/Narrative5Situation7.wav,audio/Narrative6Situation7.wav,5,3,4,5,,,,,,,,,,,,,,,,,,,,,,,,,,,,,,,,,,,,,,,
,,,,,,5685850c333cbd000d4e042f,2024-02-08_16h01.55.425,group3.1-3.2-social-tom,2023.2.2,Win32,166.6666667,65c5074098b851296ff0b7ed,65c5412c963a750c5bb343c7,,,,,,,,,,,,,,,,,,,,,,,,,,,,,765.1674,2,audio/Narrative5Situation8.wav,768.1726,,768.1726,776.9749,"[[67.3,340],[61.3,425],[60.2,509],[57.7,600],[52,685],[51.6,770],[52.2,861],[52.3,946],[52.3,1031],[52.3,1115],[52.3,1200],[52.3,1285],[52.3,1370],[52.3,1454],[52.3,1540],[52.3,1624],[52.3,1710],[52.3,1794],[52.3,1879],[52.3,1964],[52.3,2049],[52.3,2134],[52.3,2218],[52.3,2304],[52.3,2388],[52.3,2473],[52.3,2558],[52.3,2643],[52.3,2728],[52.3,2813],[52.3,2898],[52.3,2982],[52.3,3067],[52.1,3152],[47.3,3237],[45.6,3322],[43.6,3407],[39.8,3498],[38.8,3583],[38.8,3667],[38.8,3752],[38.8,3837],[38.8,3922],[38.4,4007],[38.1,4092],[37.7,4177],[37.3,4261],[37,4346],[37,4431],[36.2,4516],[35.9,4600],[35.9,4686],[35.9,4770],[35.2,4855],[34.7,4940],[34.7,5025],[34.7,5110],[34.7,5195],[34.7,5280],[34.7,5365],[34.7,5450],[34.7,5535],[34.7,5620],[34.7,5704],[34.7,5789],[34.7,5874],[35.4,5959],[41.1,6044],[45.9,6129],[47.6,6214],[53.3,6299],[63.2,6383],[70.2,6468],[79.8,6553],[85.3,6638],[87.9,6723],[90.5,6808],[91.1,6893],[92,6977],[92.7,7062],[93.5,7147],[93.5,7232],[93.5,7317],[93.5,7401],[93.5,7486],[93.5,7572],[93.5,7656],[93.5,7741],[93.5,7826],[93.5,7911],[93.5,7996],[93.5,8081],[93.5,8165],[93.5,8250],[93.5,8335],[93.5,8420],[93.5,8505],[93.5,8590],[93.5,8674],[93.4,8760]]",1,0,776.975,779.9275,88.28125,1.5335,"[{""rating"":85.859375,""responseTime"":1.0365000000000464},{""rating"":88.28125,""responseTime"":1.5335000000000036}]",space,2.4374,,779.9275,All the time,100,779.9281,,,[],,0,8,8,8,1,audio/Narrative7Situation8.wav,audio/Narrative8Situation8.wav,audio/Narrative5Situation8.wav,audio/Narrative6Situation8.wav,2,3,3,5,,,,,,,,,,,,,,,,,,,,,,,,,,,,,,,,,,,,,,,
,,,,,,5685850c333cbd000d4e042f,2024-02-08_16h01.55.425,group3.1-3.2-social-tom,2023.2.2,Win32,166.6666667,65c5074098b851296ff0b7ed,65c5412c963a750c5bb343c7,,,,,,,,,,,,,,,,,,,,,,,,,,,,,779.9282,2,audio/Narrative5Situation9.wav,782.9343,,782.9343,822.4592,"[[88.2,594],[87.7,678],[87.7,763],[87.6,848],[87.5,933],[87.5,1018],[87.5,1103],[87.5,1187],[87.5,1272],[87.5,1357],[87.5,1442],[87.5,1527],[86.8,1612],[86.3,1697],[85.2,1782],[82.7,1867],[81.2,1951],[81.2,2036],[81.2,2121],[81.2,2206],[81.4,2291],[81.6,2376],[81.6,2461],[81.6,2545],[81.6,2630],[81.6,2715],[81.6,2800],[81.6,2885],[81.6,2970],[81.6,3055],[81.4,3140],[81.4,3225],[81.4,3309],[81.4,3394],[81.4,3479],[81.4,3564],[81.4,3649],[81.4,3734],[81.4,3819],[81.4,3903],[81.4,3988],[81.4,4073],[81.4,4158],[81.4,4243],[81.4,4327],[81.4,4412],[81.4,4497],[81.4,4582],[81.4,4667],[82.5,4752],[83.9,4837],[83.9,4922],[84.2,5007],[86.2,5091],[88.5,5177],[91.3,5261],[93.1,5346],[93.8,5431],[94.5,5516],[95.9,5601],[96.7,5686],[97.1,5770],[97.2,5855],[97.2,5940],[97.2,6025],[97.2,6110],[97.2,6195],[97.2,6280],[97.2,6365],[97.2,6450],[97.2,6534],[97.2,6619],[97.2,6704],[97.2,6789],[97.2,6874],[97.2,6959],[97.2,7044],[97.2,7128],[97.2,7213],[97.2,7298],[97.2,7384],[97.2,7468],[97.2,7553],[97.2,7637],[97.2,7723],[97.2,7807],[97.2,7892],[97.2,7977],[97.2,8062],[97.2,8147],[97.2,8232],[97.2,8317],[97.2,8401],[97.2,8486],[97.1,8571],[97.1,8656],[97.1,8741],[97.1,8826],[97.1,8910],[97.1,8996],[97.1,9081],[97,9165],[96.1,9250],[95.2,9335],[94.7,9420],[94.3,9505],[94.1,9590],[94.1,9674],[93.8,9759],[93.4,9844],[92.9,9929],[92.8,10014],[92.8,10099],[92.8,10184],[92.8,10269],[92.8,10353],[92.8,10438],[92.8,10523],[92.8,10608],[92.8,10693],[92.8,10778],[92.8,10862],[92.8,10947],[92.8,11032],[92.8,11117],[92.8,11202],[92.8,11287],[92.8,11372],[92.8,11457],[92.8,11541],[92.8,11626],[92.8,11711],[92.8,11796],[92.8,11881],[92.8,11966],[92.8,12050],[92.8,12136],[92.8,12221],[92.8,12305],[92.8,12390],[92.8,12475],[92.8,12560],[92.8,12645],[92.8,12730],[92.8,12815],[92.8,12900],[92.7,12984],[92.7,13069],[92.7,13154],[92.7,13239],[92.7,13324],[92.5,13409],[92.3,13493],[92.3,13578],[92.2,13663],[92.2,13748],[92.2,13833],[92.2,13918],[92.2,14003],[92.2,14088],[92.2,14173],[92.2,14257],[92.2,14342],[92.2,14427],[92.2,14512],[92.2,14597],[92.2,14682],[92.2,14766],[92.2,14851],[89.1,14936],[85.8,15021],[85.4,15106],[85.3,15191],[85.3,15276],[85.3,15360],[85.2,15445],[85,15530],[85,15615],[84.8,15700],[84.8,15785],[84.8,15870],[84.8,15955],[84.8,16040],[84.8,16125],[84.8,16209],[84.8,16294],[84.8,16379],[84.8,16464],[84.8,16549],[85.2,16634],[85.6,16718],[85.6,16804],[85.6,16888],[85.6,16973],[85.7,17058],[85.7,17143],[85.7,17228],[85.7,17313],[85.7,17397],[85.7,17482],[85.7,17567],[86.3,17653],[87.7,17737],[89.4,17822],[90.4,17907],[91.1,17991],[91.1,18077],[91.1,18161],[91.1,18246],[91.1,18331],[91.1,18416],[91.1,18501],[91.1,18586],[91.6,18670],[93.2,18756],[93.6,18840],[93.7,18925],[93.9,19010],[94.8,19095],[95.6,19180],[96.3,19264],[96.5,19350],[96.5,19434],[96.5,19519],[96.5,19604],[96.5,19689],[96.5,19774],[96.5,19859],[96.5,19944],[96.5,20028],[96.5,20113],[96.5,20198],[96.5,20283],[96.5,20368],[96.5,20453],[96.5,20538],[96.5,20623],[96.5,20707],[96.5,20792],[96.5,20877],[96.4,20962],[96.3,21047],[96.3,21132],[96.3,21217],[96.3,21302],[96.3,21386],[96.3,21471],[96.3,21556],[96.3,21641],[96.3,21726],[96.3,21811],[96.3,21897],[96.3,21980],[96.3,22065],[96.3,22150],[96.3,22235],[96.3,22320],[96.3,22405],[96.3,22490],[96.3,22575],[96.3,22659],[96.3,22744],[96.3,22829],[96.4,22914],[96.4,22999],[96.5,23083],[96.5,23168],[96.5,23253],[96.6,23338],[96.9,23423],[97.3,23508],[97.7,23593],[98,23678],[98.4,23762],[98.8,23848],[99.2,23933],[99.5,24017],[99.5,24102],[99.5,24187],[99.5,24272],[99.3,24357],[99.1,24442],[99,24526],[99,24612],[99,24696],[99,24781],[99,24866],[99,24951],[99,25036],[99,25120],[99,25206],[99,25290],[99,25375],[99,25460],[99,25545],[99,25630],[99,25715],[99.1,25799],[99.5,25884],[99.6,25969],[99.6,26054],[99.6,26139],[99.6,26224],[99.6,26309],[99.6,26393],[99.6,26478],[99.6,26563],[99.6,26648],[99.5,26733],[99.5,26818],[99.5,26903],[99.3,26987],[99.1,27072],[99.1,27157],[99.1,27242],[99.1,27327],[99.1,27412],[99.1,27497],[99.1,27582],[99.1,27667],[99.1,27751],[99.1,27836],[99.1,27921],[99,28006],[99,28091],[99,28176],[99,28261],[99,28346],[99,28430],[98.9,28515],[98.9,28600],[98.9,28685],[98.9,28770],[98.7,28855],[98.7,28940],[98.7,29025],[98.7,29109],[98.6,29194],[98,29279],[97.5,29376],[97,29461],[96.7,29545],[96.4,29631],[96.2,29715],[95.7,29800],[95.6,29885],[95.6,29970],[95.6,30055],[95.6,30140],[95.6,30225],[95.6,30310],[95.6,30394],[95.6,30479],[95.6,30564],[95.6,30649],[95.8,30734],[96.3,30819],[96.3,30904],[96.3,30989],[96.3,31073],[96.3,31158],[97.2,31243],[97.7,31328],[97.7,31413],[97.7,31498],[97.8,31583],[98,31668],[98.4,31753],[98.7,31837],[98.8,31922],[98.9,32007],[98.9,32092],[98.9,32177],[99.1,32261],[99.2,32346],[99.2,32431],[99.2,32516],[99.2,32601],[99.2,32686],[99.2,32771],[99.2,32856],[99.1,32940],[99.1,33025],[99.1,33110],[99.1,33195],[99.1,33280],[99.1,33365],[99.1,33450],[99.1,33535],[99.1,33619],[99.1,33704],[99.1,33789],[99.1,33874],[99.1,33959],[99.1,34044],[99.1,34129],[99.1,34213],[99,34298],[98.8,34383],[98.8,34468],[98.8,34553],[98.8,34637],[98.8,34723],[98.8,34807],[98.8,34893],[98.8,34977],[98.8,35062],[98.8,35147],[98.8,35232],[98.8,35317],[98.8,35402],[98.8,35487],[98.9,35572],[99.6,35656],[99.7,35741],[99.7,35826],[99.7,35911],[99.7,35996],[99.7,36081],[99.7,36166],[99.7,36253],[99.7,36335],[99.7,36420],[99.7,36505],[99.8,36590],[99.8,36675],[99.8,36760],[99.8,36844],[99.8,36929],[99.8,37014],[99.8,37099],[99.8,37184],[99.6,37269],[99.4,37354],[99.3,37438],[99,37524],[98.5,37608],[98,37693],[97.3,37778],[97,37863],[96.2,37948],[95.3,38033],[94.7,38117],[94.4,38203],[94,38288],[93.9,38372],[93.9,38457],[93.8,38542],[93.8,38627],[93.8,38712],[93.8,38797],[93.8,38881],[93.8,38966],[93.8,39051],[93.8,39136],[93.8,39221],[94,39306],[94.5,39391],[95.2,39476]]",1,0,822.4593,826.1141,96.40625,2.5089,"[{""rating"":96.328125,""responseTime"":0.8299000000953356},{""rating"":96.40625,""responseTime"":2.508900000095423}]",space,3.1374,,826.1141,All the time,100,826.1147,,,[],,0,9,9,9,1,audio/Narrative7Situation9.wav,audio/Narrative8Situation9.wav,audio/Narrative5Situation9.wav,audio/Narrative6Situation9.wav,2,3,3,4,,,,,,,,,,,,,,,,,,,,,,,,,,,,,,,,,,,,,,,
,,,,,,5685850c333cbd000d4e042f,2024-02-08_16h01.55.425,group3.1-3.2-social-tom,2023.2.2,Win32,166.6666667,65c5074098b851296ff0b7ed,65c5412c963a750c5bb343c7,,,,,,,,,,,,,,,,,,,,,,,,,,,,,826.1148,2,audio/Narrative6Situation1.wav,828.115,,828.115,854.6787,"[[92.5,508],[89.9,593],[87.9,678],[58.8,848],[54.4,939],[45.9,1030],[0.2,1624],[0.2,1708],[1.3,3497],[13.6,3582],[26.1,3666],[31.3,3752],[33.2,3837],[34.6,3921],[39.1,4006],[49.8,4091],[51.9,4175],[51.9,4261],[51.9,4346],[51.9,4430],[51.9,4515],[51.9,4600],[51.9,4685],[51.9,4770],[51.9,4855],[51.9,4940],[51.9,5025],[51.9,5109],[51.9,5194],[51.9,5279],[51.9,5364],[51.9,5449],[51.9,5534],[51.9,5619],[51.9,5703],[51.9,5788],[51.9,5873],[51.9,5958],[51.9,6043],[51.9,6128],[51.9,6213],[51.9,6298],[51.9,6383],[51.9,6467],[51.9,6552],[51.9,6637],[51.9,6722],[51.9,6806],[51.9,6892],[51.9,6977],[51.9,7061],[51.9,7146],[51.9,7231],[51.9,7316],[51.9,7401],[51.9,7485],[51.9,7571],[51.9,7655],[51.9,7740],[51.9,7825],[51.9,7910],[51.1,7995],[48.4,8080],[43.4,8165],[42.8,8250],[42.8,8334],[42.8,8419],[42.8,8504],[42.8,8589],[42.8,8674],[42.8,8759],[42.8,8844],[42.8,8929],[42.8,9014],[46.9,9099],[57.7,9183],[61.4,9268],[62.7,9353],[64.1,9438],[64.5,9523],[64.9,9608],[65.2,9692],[65.2,9777],[66,9862],[69.9,9947],[75,10032],[75.4,10117],[75.4,10202],[75.4,10287],[75.4,10371],[75.4,10456],[75.4,10541],[75.4,10626],[75.4,10711],[75.4,10796],[75.4,10880],[75.4,10965],[75.4,11051],[75.4,11135],[75.4,11220],[75.4,11305],[75.4,11390],[75.4,11475],[75.4,11559],[75.4,11644],[75.4,11729],[75.4,11814],[75.4,11899],[75.4,11984],[75.4,12069],[75.5,12154],[75.8,12238],[75.9,12323],[76.3,12408],[76.3,12493],[76.3,12578],[76.7,12663],[77.3,12748],[77.7,12833],[78,12917],[78.3,13002],[78.3,13087],[78.3,13172],[78.3,13257],[78.3,13342],[78.3,13426],[78.3,13511],[78.3,13596],[78.3,13681],[78.3,13766],[78.3,13851],[78.3,13942],[78.3,14026],[78.3,14111],[78.3,14196],[78.3,14281],[78.3,14366],[78.1,14451],[77.5,14536],[77.4,14621],[77.4,14705],[77.4,14790],[77.4,14875],[77.4,14960],[77.4,15045],[77.4,15130],[77.4,15215],[77.4,15300],[77.4,15384],[77.4,15470],[77.4,15554],[77.4,15639],[77.4,15724],[77.4,15808],[77.4,15893],[77.1,15979],[75.1,16064],[74.4,16149],[74.2,16233],[74.1,16318],[74.1,16403],[74.1,16488],[74.1,16573],[74.1,16657],[74.1,16742],[74.1,16827],[74.1,16912],[74.1,16997],[74.1,17082],[74.1,17167],[74.1,17252],[74.1,17337],[74.1,17421],[74.1,17507],[74.1,17592],[74.1,17676],[74.1,17761],[74.1,17846],[74.1,17930],[74.1,18015],[74.1,18101],[74.1,18185],[74.1,18270],[74.1,18355],[74.1,18440],[74.1,18525],[72.9,18610],[71.6,18695],[70.3,18780],[69.2,18864],[68.2,18949],[67.4,19034],[67.3,19119],[66.6,19204],[63.5,19289],[60.6,19374],[59.3,19458],[58.4,19543],[58.3,19628],[58.3,19713],[58.3,19798],[58.3,19882],[58.3,19968],[57.7,20053],[56.8,20137],[56.3,20222],[54.8,20307],[54.5,20392],[54.5,20477],[54.5,20562],[54.5,20647],[54.5,20731],[54.5,20816],[55.5,20901],[55.9,20986],[56.3,21072],[57.8,21156],[65.2,21241],[76,21332],[80.9,21417],[85.3,21501],[86.4,21586],[86.4,21671],[86.9,21756],[88,21841],[88.2,21925],[88.3,22010],[88.3,22095],[88.3,22180],[88.3,22265],[88.3,22350],[88.3,22435],[88.3,22520],[88.3,22604],[88.3,22689],[88.3,22774],[88.3,22859],[88.3,22944],[88.3,23029],[88.3,23114],[88.3,23199],[88.3,23283],[88.3,23368],[88.3,23453],[88.3,23538],[88.3,23623],[88.3,23708],[88.3,23792],[88.3,23877],[88.3,23962],[88.3,24047],[88.3,24132],[88.3,24217],[88.6,24302],[89.1,24387],[89.7,24472],[90.8,24557],[93.3,24642],[96.3,24732],[97.8,24818],[98,24902],[98,24987],[98,25072],[98,25157],[98,25242],[98,25327],[98,25411],[98,25496],[98,25581],[98,25666],[98,25751],[98,25836],[98,25920],[98,26005],[98,26090],[98,26175],[98,26260],[98,26345],[98,26430],[98,26515]]",1,0,854.6788,857.6189,92.96875,1.2364,"[{""rating"":92.96875,""responseTime"":1.2363999999762427}]",space,2.425,,857.6189,Half the time,50,857.6198,,,[],,0,10,10,10,1,audio/Narrative8Situation1.wav,audio/Narrative7Situation1.wav,audio/Narrative6Situation1.wav,audio/Narrative5Situation1.wav,5,2,2,5,,,,,,,,,,,,,,,,,,,,,,,,,,,,,,,,,,,,,,,
,,,,,,5685850c333cbd000d4e042f,2024-02-08_16h01.55.425,group3.1-3.2-social-tom,2023.2.2,Win32,166.6666667,65c5074098b851296ff0b7ed,65c5412c963a750c5bb343c7,,,,,,,,,,,,,,,,,,,,,,,,,,,,,857.6199,2,audio/Narrative6Situation2.wav,860.6255,,860.6256,889.1113,"[[96.2,169],[96.3,254],[97.3,345],[97.3,430],[96.1,515],[94.9,600],[93.8,684],[93.8,769],[94.8,854],[95.7,939],[95.8,1024],[95.8,1108],[95.8,1193],[95.8,1278],[95.8,1363],[95.8,1448],[95.8,1533],[95.8,1618],[95.8,1703],[95.8,1788],[95.8,1872],[95.8,1957],[95.8,2042],[95.8,2127],[95.8,2212],[95.8,2297],[95.8,2382],[95.8,2467],[95.8,2552],[95.8,2636],[95.8,2721],[95.8,2806],[95.8,2891],[95.8,2976],[95.8,3060],[95.8,3145],[95.8,3231],[95.8,3315],[95.8,3400],[95.8,3485],[95.8,3570],[95.8,3655],[95.8,3740],[94.4,3825],[90.5,3909],[90.5,3994],[90.5,4079],[90.5,4164],[90.5,4249],[90.5,4333],[90.5,4419],[90.5,4503],[90.8,4589],[93.4,4673],[96,4758],[96.9,4843],[96.9,4927],[96.9,5013],[97.9,5098],[97.9,5182],[97.9,5267],[97.9,5352],[97.9,5437],[97.9,5522],[97.9,5607],[97.9,5692],[99,5777],[99.2,5861],[99.5,5946],[99.5,6031],[99.5,6116],[99.5,6200],[99.5,6286],[99.5,6371],[99.5,6456],[99.5,6540],[99.5,6625],[99.5,6710],[99.5,6795],[99.5,6880],[99.5,6964],[99.5,7050],[99.5,7134],[99.4,7220],[97.7,7304],[96.9,7389],[96.5,7474],[96.4,7559],[96.1,7644],[95.9,7728],[95.9,7813],[95.1,7899],[94.5,7989],[93.8,8074],[93.2,8159],[92.3,8244],[90.5,8329],[84.8,8414],[75.5,8499],[71.9,8584],[69.2,8668],[66.6,8753],[63.7,8838],[61,8923],[60.9,9008],[60.9,9092],[60.9,9177],[60.9,9262],[60.9,9347],[60.9,9432],[60.9,9517],[60.9,9602],[60.9,9687],[60.9,9771],[60.9,9856],[60.9,9941],[60.9,10026],[60.9,10111],[60.9,10195],[60.9,10280],[60.9,10365],[60.9,10450],[60.9,10535],[60.9,10620],[60.9,10705],[60.9,10789],[60.9,10875],[60.9,10959],[60.9,11044],[60.9,11130],[60.9,11214],[60.9,11299],[60.9,11384],[60.9,11469],[60.9,11554],[60.9,11639],[60.9,11723],[60.9,11808],[60.9,11893],[60.9,11978],[60.9,12063],[60.9,12148],[60.9,12232],[60.9,12317],[60.9,12402],[60.9,12487],[60.9,12572],[60.9,12657],[60.9,12742],[60.9,12827],[60.9,12912],[60.9,12996],[60.9,13081],[60.9,13166],[59.8,13251],[57.8,13336],[43.5,13845],[45.7,13930],[45.7,14015],[43.8,14100],[39.9,14185],[37.7,14270],[36.1,14355],[34.4,14439],[34.4,14524],[34.4,14609],[34.4,14693],[34.4,14779],[34.4,14864],[34.4,14949],[34.4,15033],[34.4,15118],[34.4,15203],[34.4,15288],[34.4,15373],[34.4,15458],[34.4,15543],[34.4,15628],[35.7,15712],[40.8,15797],[42.3,15882],[45.2,15967],[48.6,16052],[53,16137],[55.9,16222],[56.1,16306],[56.1,16391],[56.1,16476],[56.1,16561],[56.1,16646],[56.1,16731],[56.1,16816],[56.1,16901],[56.1,16985],[56.1,17070],[56.1,17155],[56.1,17240],[56.1,17325],[56.1,17410],[56.1,17494],[56.1,17579],[56.1,17664],[55.4,17750],[54.9,17834],[54.9,17919],[54.9,18003],[54.6,18089],[54.6,18173],[54.5,18258],[54.5,18343],[54.5,18428],[54.5,18513],[54.5,18598],[54.5,18682],[54.5,18768],[54.5,18852],[54.5,18937],[54.5,19022],[54.8,19108],[58.4,19192],[66.4,19277],[70.1,19362],[72.6,19447],[75.4,19531],[76.9,19616],[79.1,19701],[80.1,19786],[80.2,19871],[81,19956],[83.1,20041],[85.1,20126],[85.8,20210],[86.6,20295],[87.4,20380],[87.7,20465],[88.7,20550],[89.7,20635],[91.3,20720],[92.3,20805],[93.4,20890],[94.5,20974],[94.7,21059],[94.7,21144],[94.7,21229],[94.7,21313],[94.7,21399],[94.7,21483],[94.7,21568],[94.7,21653],[94.7,21738],[94.7,21823],[94.7,21908],[94.7,21993],[94.7,22077],[94.7,22163],[94.7,22247],[94.7,22332],[94.7,22417],[94.7,22502],[94.7,22587],[95.5,22671],[95.5,22756],[95.5,22841],[95.5,22926],[95.5,23011],[95.5,23096],[95.5,23181],[95.5,23265],[95.5,23351],[95.5,23435],[95.5,23520],[95.5,23606],[95.5,23690],[95.5,23775],[95.5,23860],[95.5,23944],[95.5,24029],[95.5,24114],[95.5,24199],[95.5,24284],[95.5,24369],[95.5,24454],[95.5,24539],[95.5,24624],[95.5,24708],[95.5,24793],[95.5,24878],[95.5,24963],[98,25048],[98,25133],[98,25218],[98,25302],[98,25387],[98,25472],[98,25557],[97.3,25642],[94.8,25727],[90.5,25812],[87.5,25897],[86.7,25982],[85.7,26066],[83.8,26152],[82.6,26236],[81.6,26321],[81.6,26406],[81.3,26491],[80.3,26576],[79.6,26660],[78.3,26745],[78.2,26830],[78.2,26915],[78.2,27000],[78.2,27084],[78.2,27169],[78.2,27254],[78.2,27339],[78.2,27424],[78.2,27509],[78.2,27594],[78.2,27678],[78.2,27764],[78.2,27849],[78.2,27933],[78.2,28018],[78.2,28103],[78.2,28188],[78.2,28273],[78.2,28358],[78.2,28443]]",1,0,889.1114,892.9003,86.796875,0.9092,"[{""rating"":86.796875,""responseTime"":0.9092000000476901}]",space,3.2788,,892.9003,Half the time,50,892.9009,,,[],,0,11,11,11,1,audio/Narrative8Situation2.wav,audio/Narrative7Situation2.wav,audio/Narrative6Situation2.wav,audio/Narrative5Situation2.wav,3,3,3,3,,,,,,,,,,,,,,,,,,,,,,,,,,,,,,,,,,,,,,,
,,,,,,5685850c333cbd000d4e042f,2024-02-08_16h01.55.425,group3.1-3.2-social-tom,2023.2.2,Win32,166.6666667,65c5074098b851296ff0b7ed,65c5412c963a750c5bb343c7,,,,,,,,,,,,,,,,,,,,,,,,,,,,,892.901,2,audio/Narrative6Situation3.wav,897.9013,,897.9013,910.4979,"[[86.2,593],[86.3,678],[86.3,763],[86.3,848],[86.3,933],[86.3,1018],[86.3,1103],[86.3,1187],[86.3,1273],[86.3,1357],[86.3,1442],[86.3,1527],[86.3,1611],[86.3,1696],[86.3,1782],[86.3,1867],[86.3,1951],[86.3,2036],[86.3,2121],[86.3,2206],[86.3,2291],[86.3,2376],[87,2461],[89.8,2546],[90.8,2631],[91.3,2715],[91.3,2800],[91.3,2885],[91.5,2970],[91.6,3055],[91.6,3140],[91.6,3225],[91.6,3310],[91.6,3394],[91.6,3479],[91.6,3564],[91.6,3648],[91.6,3734],[91.6,3818],[91.6,3903],[91.6,3988],[91.6,4073],[91.6,4158],[91.6,4243],[91.6,4328],[91.6,4413],[91.6,4497],[91.6,4582],[91.6,4667],[91.6,4752],[91.6,4837],[91.6,4922],[92.8,5007],[94.4,5092],[95.5,5176],[95.8,5261],[95.9,5346],[95.9,5431],[95.9,5515],[95.9,5601],[95.9,5686],[95.9,5770],[95.9,5855],[95.9,5940],[95.9,6025],[95.9,6110],[95.9,6195],[95.9,6280],[95.9,6365],[95.9,6450],[95.9,6534],[95.9,6619],[95.9,6704],[95.9,6789],[95.9,6874],[95.9,6959],[95.9,7044],[95.9,7128],[95.9,7213],[95.9,7298],[95.9,7383],[95.9,7468],[95.9,7553],[95.9,7638],[95.9,7722],[95.9,7808],[93.8,7892],[93.1,7978],[91.7,8062],[90.6,8147],[90.5,8232],[90.5,8317],[89.8,8402],[87.3,8486],[83.8,8571],[79.1,8656],[77.2,8741],[75.4,8826],[74,8911],[74,8995],[74,9080],[75.2,9165],[78.1,9250],[78.8,9335],[79.1,9420],[79.2,9505],[79.3,9590],[79.8,9675],[83.8,9759],[91.1,9844],[94.1,9929],[97.5,10014],[99.8,10099],[100,10184],[100,10269],[100,10353],[100,10438],[100,10523],[100,10608],[100,10693],[100,10778],[99.3,10863],[99.2,10947],[99.2,11033],[99.2,11117],[99.2,11202],[99.2,11287],[100,11372],[100,11456],[100,11542],[100,11626],[100,11711],[100,11796],[100,11881],[100,11966],[100,12051],[100,12135],[100,12221],[100,12306],[100,12390],[100,12475],[100,12560]]",1,0,910.498,913.3655,99.453125,0.8664,"[{""rating"":99.453125,""responseTime"":0.8663999999761245}]",space,2.352,,913.3656,All the time,100,913.3665,,,[],,0,12,12,12,1,audio/Narrative8Situation3.wav,audio/Narrative7Situation3.wav,audio/Narrative6Situation3.wav,audio/Narrative5Situation3.wav,4,8,5,3,,,,,,,,,,,,,,,,,,,,,,,,,,,,,,,,,,,,,,,
,,,,,,5685850c333cbd000d4e042f,2024-02-08_16h01.55.425,group3.1-3.2-social-tom,2023.2.2,Win32,166.6666667,65c5074098b851296ff0b7ed,65c5412c963a750c5bb343c7,,,,,,,,,,,,,,,,,,,,,,,,,,,,,913.3666,2,audio/Narrative6Situation4.wav,915.3717,,915.3717,927.9687,"[[999,0],[999,85],[999,170],[999,254],[999,341],[999,424],[999,509],[999,594],[999,679],[999,764],[83.4,849],[89.8,933],[97.2,1019],[99.4,1103],[100,1188],[100,1273],[100,1358],[100,1442],[100,1528],[100,1612],[100,1697],[100,1782],[100,1867],[100,1952],[100,2037],[100,2121],[100,2207],[100,2291],[100,2376],[100,2461],[100,2546],[100,2631],[100,2716],[99.8,2800],[99.4,2885],[99.2,2970],[98.9,3055],[98.9,3140],[98.9,3225],[98.9,3310],[98.9,3394],[98.9,3479],[98.9,3564],[98.5,3649],[97.7,3734],[97,3819],[96.3,3904],[95.3,3989],[95.3,4074],[94.5,4159],[94,4243],[93.2,4328],[92.7,4413],[91.4,4498],[90,4583],[88.9,4668],[87.4,4753],[83.1,4838],[78.9,4923],[77.7,5007],[74.3,5092],[69.3,5177],[67.7,5262],[66.9,5346],[66.3,5432],[66.3,5516],[66.3,5601],[66.3,5686],[66.3,5771],[66.3,5856],[66.3,5941],[66.3,6025],[66.3,6110],[66.3,6195],[66.3,6280],[66.3,6365],[66.3,6450],[66.3,6534],[66.3,6620],[66.3,6704],[66.3,6789],[66.3,6874],[66.3,6959],[66.3,7044],[66.3,7129],[66.3,7214],[66.3,7298],[66.3,7383],[66.3,7468],[66.3,7553],[66.3,7638],[66.3,7722],[66.3,7808],[66.3,7893],[66.3,7977],[66.3,8062],[66.3,8148],[66.3,8232],[66.3,8317],[66.3,8401],[66.3,8486],[66.3,8572],[66.3,8656],[66.3,8741],[66.3,8826],[66.3,8911],[66.3,8996],[66.3,9081],[66.3,9166],[66.3,9250],[66.3,9335],[65.6,9420],[63.4,9505],[63,9590],[63,9675],[63,9760],[63,9845],[63,9929],[63,10014],[66.5,10099],[70.6,10184],[75.6,10270],[78.6,10354],[79.5,10439],[82,10524],[85.5,10608],[87.3,10694],[88.4,10778],[88.4,10863],[89.5,10948],[90.5,11033],[91.8,11118],[92.7,11203],[93.3,11288],[94.8,11372],[95.5,11457],[96.1,11542],[96.1,11627],[96.1,11712],[96.1,11797],[97.2,11882],[98.9,11967],[100,12051],[100,12136],[100,12221],[100,12306],[100,12390],[100,12476],[100,12560]]",1,0,927.9688,931.085,93.828125,1.4914,"[{""rating"":93.828125,""responseTime"":1.4913999999761245}]",space,2.6009,,931.085,All the time,100,931.0857,,,[],,0,13,13,13,1,audio/Narrative8Situation4.wav,audio/Narrative7Situation4.wav,audio/Narrative6Situation4.wav,audio/Narrative5Situation4.wav,3,3,2,1,,,,,,,,,,,,,,,,,,,,,,,,,,,,,,,,,,,,,,,
