exp_question,consent.started,consent.stopped,consentResponse.keys,consentResponse.rt,consentResponse.duration,participantID,date,expName,psychopyVersion,OS,frameRate,STUDY_ID,SESSION_ID,opening1.started,opening1.stopped,keyEndingOpening1.keys,keyEndingOpening1.rt,keyEndingOpening1.duration,volumeAdjust.started,volumeAdjust.stopped,endingAdjust.keys,endingAdjust.rt,endingAdjust.duration,opening2.started,opening2.stopped,keyEndingOpening.keys,keyEndingOpening.rt,keyEndingOpening.duration,mouse.x,mouse.y,mouse.leftButton,mouse.midButton,mouse.rightButton,mouse.time,instructionLoop.thisRepN,instructionLoop.thisTrialN,instructionLoop.thisN,instructionLoop.thisIndex,instructionLoop.ran,readyForAudio.started,readyForAudio.stopped,fixation.started,run,audio_played,fixation.stopped,endPractice.keys,audioPre.started,audioPre.stopped,continuousResponses_audio,continuousSlider.response,continuousSlider.rt,intRating.started,intRating.stopped,intQuestionSlider.response,intQuestionSlider.rt,intQuestionSlider.history,confirmResponse.keys,confirmResponse.rt,confirmResponse.duration,catchQuestion.started,catch_label,catch_value,catchQuestion.stopped,catchQuestionSlider.response,catchQuestionSlider.rt,catchQuestionSlider.history,confirmResponse_2.keys,audioRunLoop.thisRepN,audioRunLoop.thisTrialN,audioRunLoop.thisN,audioRunLoop.thisIndex,audioRunLoop.ran,conditions1_1,conditions2_1,conditions1_2,conditions2_2,dur1_1,dur2_1,dur1_2,dur2_2,endPractice.rt,endPractice.duration,confirmResponse_2.rt,confirmResponse_2.duration,runIntervalBreak.started,runIntervalBreak.stopped,endingBreakKey.keys,endingBreakKey.rt,endingBreakKey.duration,connection.started,connection.stopped,connectionEnding.keys,connectionEnding.rt,connectionEnding.duration,readyForText.started,readyForText.stopped,textPre.started,run_dup,textPre.stopped,continuousResponses_text,textRunLoop.thisRepN,textRunLoop.thisTrialN,textRunLoop.thisN,textRunLoop.thisIndex,textRunLoop.ran,text1_1,text1_2,text2_1,text2_2,runBreakText.started,runBreakText.stopped,endingBreakKey_2.keys,endingBreakKey_2.rt,endingBreakKey_2.duration,ending.started,ending.stopped,endingEnding.keys,endingEnding.rt,endingEnding.duration
social,0.0004,23.5945,y,23.2806,,58ae37d8e6afe00001d36ac9,2024-02-08_16h20.36.973,group3.1-3.2-social-tom,2023.2.2,Win32,60.24096386,65c5074098b851296ff0b7ed,65c5452b1d5e330b96e5beeb,,,,,,,,,,,,,,,,,,,,,,,,,,,,,,,,,,,,,,,,,,,,,,,,,,,,,,,,,,,,,,,,,,,,,,,,,,,,,,,,,,,,,,,,,,,,,,,,,,,,,,,,,,
,,,,,,58ae37d8e6afe00001d36ac9,2024-02-08_16h20.36.973,group3.1-3.2-social-tom,2023.2.2,Win32,60.24096386,65c5074098b851296ff0b7ed,65c5452b1d5e330b96e5beeb,23.5951,39.1197,space,15.4945,,,,,,,,,,,,,,,,,,,,,,,,,,,,,,,,,,,,,,,,,,,,,,,,,,,,,,,,,,,,,,,,,,,,,,,,,,,,,,,,,,,,,,,,,,,,,,,,,,,,,,
,,,,,,58ae37d8e6afe00001d36ac9,2024-02-08_16h20.36.973,group3.1-3.2-social-tom,2023.2.2,Win32,60.24096386,65c5074098b851296ff0b7ed,65c5452b1d5e330b96e5beeb,,,,,,39.12,53.2768,space,13.8376,,,,,,,,,,,,,,,,,,,,,,,,,,,,,,,,,,,,,,,,,,,,,,,,,,,,,,,,,,,,,,,,,,,,,,,,,,,,,,,,,,,,,,,,,,,,,,,,,
,,,,,,58ae37d8e6afe00001d36ac9,2024-02-08_16h20.36.973,group3.1-3.2-social-tom,2023.2.2,Win32,60.24096386,65c5074098b851296ff0b7ed,65c5452b1d5e330b96e5beeb,,,,,,,,,,,53.3157,65.8089,space,12.4671,,[],[],[],[],[],[],0,0,0,0,1,,,,,,,,,,,,,,,,,,,,,,,,,,,,,,,,,,,,,,,,,,,,,,,,,,,,,,,,,,,,,,,,,,,,,,,,,,,,,,,,
,,,,,,58ae37d8e6afe00001d36ac9,2024-02-08_16h20.36.973,group3.1-3.2-social-tom,2023.2.2,Win32,60.24096386,65c5074098b851296ff0b7ed,65c5452b1d5e330b96e5beeb,,,,,,,,,,,65.8463,105.1895,space,39.2308,,[],[],[],[],[],[],1,0,1,0,1,,,,,,,,,,,,,,,,,,,,,,,,,,,,,,,,,,,,,,,,,,,,,,,,,,,,,,,,,,,,,,,,,,,,,,,,,,,,,,,,
,,,,,,58ae37d8e6afe00001d36ac9,2024-02-08_16h20.36.973,group3.1-3.2-social-tom,2023.2.2,Win32,60.24096386,65c5074098b851296ff0b7ed,65c5452b1d5e330b96e5beeb,,,,,,,,,,,105.2162,119.4751,space,14.2153,,[],[],[],[],[],[],2,0,2,0,1,,,,,,,,,,,,,,,,,,,,,,,,,,,,,,,,,,,,,,,,,,,,,,,,,,,,,,,,,,,,,,,,,,,,,,,,,,,,,,,,
,,,,,,58ae37d8e6afe00001d36ac9,2024-02-08_16h20.36.973,group3.1-3.2-social-tom,2023.2.2,Win32,60.24096386,65c5074098b851296ff0b7ed,65c5452b1d5e330b96e5beeb,,,,,,,,,,,119.5035,140.5122,space,20.9783,,[],[],[],[],[],[],3,0,3,0,1,,,,,,,,,,,,,,,,,,,,,,,,,,,,,,,,,,,,,,,,,,,,,,,,,,,,,,,,,,,,,,,,,,,,,,,,,,,,,,,,
,,,,,,58ae37d8e6afe00001d36ac9,2024-02-08_16h20.36.973,group3.1-3.2-social-tom,2023.2.2,Win32,60.24096386,65c5074098b851296ff0b7ed,65c5452b1d5e330b96e5beeb,,,,,,,,,,,140.5469,158.8078,space,18.2374,,[],[],[],[],[],[],4,0,4,0,1,,,,,,,,,,,,,,,,,,,,,,,,,,,,,,,,,,,,,,,,,,,,,,,,,,,,,,,,,,,,,,,,,,,,,,,,,,,,,,,,
,,,,,,58ae37d8e6afe00001d36ac9,2024-02-08_16h20.36.973,group3.1-3.2-social-tom,2023.2.2,Win32,60.24096386,65c5074098b851296ff0b7ed,65c5452b1d5e330b96e5beeb,,,,,,,,,,,,,,,,,,,,,,,,,,,158.8336,161.4147,161.463,1,audio/Narrative13Situation2.wav,163.4703,,163.4709,193.2481,"[[51.3,716],[50.8,800],[50.8,885],[50.8,968],[50.8,1051],[50.8,1134],[50.8,1218],[50.8,1302],[50.8,1385],[50.8,1468],[50.8,1552],[50.8,1636],[50.8,1719],[50.8,1803],[50.8,1886],[50.8,1970],[50.8,2054],[50.8,2137],[50.8,2221],[50.8,2304],[50.8,2387],[50.8,2471],[50.8,2554],[50.8,2638],[50.8,2722],[50.8,2806],[50.8,2889],[50.8,2973],[50.8,3056],[50.8,3140],[50.8,3223],[50.8,3307],[50.8,3390],[50.8,3474],[50.8,3557],[50.8,3641],[50.8,3724],[50.8,3808],[50.8,3891],[50.8,3975],[50.8,4059],[50.8,4142],[50.8,4226],[50.8,4309],[50.8,4393],[50.8,4476],[48.3,4577],[43.9,4660],[43.3,4744],[42.1,4828],[40.3,4912],[40.3,4994],[40.8,5078],[42.6,5162],[44.1,5246],[47,5329],[49.1,5413],[49.9,5496],[49.9,5579],[49.9,5663],[49.9,5746],[49.9,5830],[49.9,5913],[49.9,5997],[49.1,6081],[45.4,6164],[40.6,6248],[38,6331],[37.8,6414],[37.8,6498],[37.1,6583],[28,6665],[26,6748],[23,6832],[21.3,6915],[21.3,6999],[21.3,7082],[21.3,7166],[21.3,7250],[21.3,7333],[21.3,7417],[21.3,7500],[21.3,7584],[21.3,7667],[21.3,7751],[21.3,7835],[21.3,7918],[21.3,8002],[21.5,8086],[23.1,8170],[26.6,8253],[31.6,8336],[35.6,8420],[38.3,8503],[40.6,8586],[45.5,8670],[46.9,8753],[47.9,8837],[49.6,8921],[51.8,9004],[53.5,9088],[55.6,9171],[59.3,9255],[60.4,9338],[61.4,9422],[62.5,9505],[64.4,9589],[67,9673],[70.9,9756],[71.3,9839],[72.4,9923],[72.4,10007],[72.4,10090],[72.4,10174],[72.8,10258],[75.8,10342],[77.5,10425],[77.5,10508],[78.6,10593],[79.1,10675],[79.1,10759],[79.1,10842],[79.1,10926],[79.1,11009],[79.1,11093],[79.1,11176],[79.1,11260],[79.1,11343],[79.1,11427],[79.1,11511],[79.1,11594],[79.1,11678],[79.1,11761],[79,11845],[79,11928],[79,12011],[79,12096],[79,12179],[79,12263],[79,12346],[79,12430],[79,12513],[79,12597],[79,12680],[79,12764],[79,12847],[79,12931],[79,13014],[79,13098],[79,13181],[79,13265],[79.1,13349],[79.1,13432],[79.1,13516],[79.3,13599],[79.4,13683],[79.5,13766],[79.9,13850],[80,13934],[80,14017],[80.1,14100],[80.1,14184],[80.1,14267],[80.1,14351],[80.1,14435],[80.1,14518],[80.1,14601],[80.1,14685],[80.1,14769],[80.1,14852],[80.1,14936],[81.5,15020],[82.9,15103],[87.5,15187],[88.8,15270],[90.4,15354],[92,15437],[92.8,15521],[93.4,15605],[93.8,15688],[94.4,15772],[97,15855],[97,15938],[97,16022],[97,16105],[97,16189],[97,16272],[97,16356],[97,16440],[97,16523],[97,16607],[97,16690],[97,16774],[97.6,16858],[98,16941],[98,17024],[98,17108],[98,17191],[98,17275],[98,17359],[98,17442],[98,17526],[98,17609],[98,17693],[98,17776],[98,17860],[98,17944],[98,18027],[98,18110],[98,18194],[98,18278],[98,18361],[98,18445],[98,18528],[98,18612],[98,18695],[98,18779],[98,18862],[98,18946],[98,19030],[98,19113],[98,19197],[98,19280],[98,19364],[98,19447],[98,19531],[98,19614],[98,19698],[98,19781],[98,19865],[98,19949],[98,20032],[98,20116],[98,20199],[98,20283],[98,20366],[98,20450],[98,20533],[98,20617],[98,20700],[98,20784],[98,20867],[98,20951],[98,21035],[98,21118],[98,21202],[98,21285],[98,21369],[98,21452],[98,21536],[98,21620],[98,21703],[98,21787],[98,21870],[98,21954],[98,22037],[98,22121],[98,22204],[98,22288],[98,22371],[98,22455],[98,22539],[98,22622],[98,22706],[98,22789],[98,22873],[98,22956],[98,23040],[98,23123],[98,23207],[98,23291],[98,23374],[98,23458],[98,23541],[98,23625],[98,23708],[98,23792],[98,23875],[98,23959],[98,24043],[98,24126],[98,24210],[98,24293],[98,24377],[98,24460],[98,24544],[98,24627],[98,24711],[98,24794],[98,24878],[98,24961],[98,25045],[98,25129],[98,25212],[98,25296],[98,25379],[98,25463],[98,25546],[98,25630],[98,25713],[98,25797],[98,25880],[98,25964],[98,26047],[98,26131],[98,26215],[98,26298],[98,26382],[98,26465],[98,26549],[98,26632],[98,26716],[98,26800],[98,26883],[98,26967],[98,27050],[98,27134],[98,27217],[98,27301],[98,27384],[98,27468],[98,27551],[98,27634],[98,27718],[98,27802],[98,27886],[98,27969],[98,28053],[98,28136],[98,28220],[98,28303],[98,28387],[98,28471],[98,28554],[98,28637],[98,28721],[98,28805],[98,28888],[98,28972],[98,29055],[98,29139],[98,29222],[98,29306],[98,29389],[98,29473],[98,29557],[98,29668],[98,29723]]",1,0,193.2491,203.0368,100,6.1966,"[{""rating"":100,""responseTime"":6.196600000001524}]",space,9.2514,,203.0372,Partially,50,203.0411,,,[],,0,0,0,0,1,audio/Narrative13Situation2.wav,audio/Narrative13Situation2.wav,audio/Narrative13Situation2.wav,audio/Narrative13Situation2.wav,2,2,2,2,,,,,,,,,,,,,,,,,,,,,,,,,,,,,,,,,,,,,,,
,,,,,,58ae37d8e6afe00001d36ac9,2024-02-08_16h20.36.973,group3.1-3.2-social-tom,2023.2.2,Win32,60.24096386,65c5074098b851296ff0b7ed,65c5452b1d5e330b96e5beeb,,,,,,,,,,,,,,,,,,,,,,,,,,,,,203.0415,1,audio/Narrative8Situation1.wav,206.612,space,206.6122,222.5365,"[[999,16],[999,83],[999,166],[999,250],[999,334],[999,417],[999,501],[999,585],[999,668],[999,752],[999,835],[999,918],[999,1003],[55,1086],[55,1170],[55,1253],[55,1336],[55,1420],[55,1503],[53,1587],[49.1,1670],[49.1,1754],[49.1,1837],[49.1,1921],[49.1,2004],[49.1,2088],[49.1,2171],[49.1,2255],[49.1,2339],[49.1,2422],[49.1,2506],[49.1,2589],[49.1,2673],[49.1,2756],[49.1,2840],[49.1,2924],[49.1,3007],[49.1,3091],[49.1,3174],[49.1,3258],[49.1,3341],[49.1,3425],[49.1,3508],[49.1,3592],[49.1,3676],[49.1,3759],[49.1,3843],[49.1,3926],[49.1,4010],[49.1,4093],[49.1,4177],[49.1,4261],[49.1,4344],[49.1,4427],[49.1,4511],[49.1,4595],[49.1,4678],[49.1,4762],[49.1,4845],[49.1,4929],[49.1,5012],[49.1,5096],[49.1,5179],[49.1,5263],[49.1,5346],[49.1,5431],[49.1,5514],[49.1,5597],[49.1,5681],[49.1,5764],[49.1,5848],[49.1,5931],[49.1,6015],[49.1,6099],[49.1,6182],[49.1,6265],[49.1,6349],[49.1,6433],[49.1,6516],[49.1,6600],[49.1,6683],[49.1,6767],[49.1,6850],[49.1,6934],[49.1,7017],[49.1,7101],[49.1,7184],[49.1,7268],[49.1,7351],[49.1,7435],[49.1,7519],[49.1,7602],[49.1,7686],[49.1,7769],[49.1,7853],[49.1,7936],[49.1,8020],[49.1,8104],[49.1,8187],[49.1,8271],[49.1,8354],[49.1,8438],[49.1,8521],[49.1,8605],[48.8,8689],[48.8,8788],[48.8,8872],[48.8,8955],[48.8,9039],[48.8,9122],[48.8,9206],[48.8,9289],[48.8,9373],[48.8,9456],[49.3,9540],[51.9,9624],[54.8,9707],[56,9791],[56.9,9874],[60.1,9958],[63.3,10041],[68.6,10125],[70.3,10209],[71.1,10292],[74.8,10376],[75.9,10459],[77.5,10543],[79.6,10626],[81,10710],[82.4,10793],[83.8,10877],[85.6,10960],[86.8,11044],[86.8,11128],[86.8,11211],[87.3,11295],[90.8,11378],[93.9,11462],[93.9,11545],[93.9,11629],[93.9,11712],[94.4,11796],[94.5,11879],[94.9,11963],[95.1,12046],[95.3,12130],[95.6,12213],[96.4,12297],[97.3,12381],[97.4,12464],[97.4,12548],[97.4,12631],[97.5,12715],[98.3,12798],[99,12882],[99.5,12965],[99.5,13049],[99.5,13132],[99.5,13216],[99.5,13300],[99.5,13383],[99.5,13467],[99.5,13551],[99.5,13634],[99.5,13718],[99.5,13801],[99.5,13885],[99.5,13968],[99.5,14052],[99.5,14135],[99.5,14219],[99.5,14302],[99.5,14386],[99.5,14469],[99.5,14553],[99.5,14637],[99.5,14720],[99.5,14804],[99.5,14887],[99.5,14971],[99.5,15054],[99.5,15138],[99.5,15221],[99.5,15305],[99.5,15388],[99.5,15472],[99.5,15556],[99.5,15639],[99.5,15723],[99.5,15806],[99.5,15890]]",1,0,222.5371,229.4703,99.5,2.5737,"[{""rating"":99.5,""responseTime"":2.5736999999992918}]",space,6.3941,,229.4704,Not at all,0,229.5003,,,[],,0,1,1,1,1,audio/Narrative7Situation1.wav,audio/Narrative8Situation1.wav,audio/Narrative5Situation1.wav,audio/Narrative6Situation1.wav,2,5,5,2,3.5565,,,,,,,,,,,,,,,,,,,,,,,,,,,,,,,,,,,,,,
,,,,,,58ae37d8e6afe00001d36ac9,2024-02-08_16h20.36.973,group3.1-3.2-social-tom,2023.2.2,Win32,60.24096386,65c5074098b851296ff0b7ed,65c5452b1d5e330b96e5beeb,,,,,,,,,,,,,,,,,,,,,,,,,,,,,229.5007,1,audio/Narrative8Situation2.wav,232.5111,,232.5112,242.62,"[[99.4,1587],[98.6,1671],[97.5,1754],[97.4,1837],[97.4,1921],[97.4,2004],[97.4,2088],[97.4,2172],[97.5,2255],[98,2338],[98.4,2422],[98.4,2505],[98.4,2589],[98.4,2672],[98.4,2756],[98.4,2840],[98.4,2923],[98.4,3007],[98.4,3090],[98.4,3174],[98.4,3257],[98.4,3341],[98.4,3424],[98.4,3508],[98.4,3592],[98.4,3675],[98.4,3759],[98.4,3842],[98.4,3926],[98.4,4009],[98.4,4093],[98.4,4176],[98.4,4260],[98.4,4343],[98.4,4427],[98.4,4510],[98.4,4594],[98.4,4677],[98.4,4761],[98.4,4845],[98.4,4928],[98.4,5012],[98.4,5095],[98.4,5179],[98.4,5262],[98.4,5346],[98.4,5430],[98.4,5513],[98.4,5597],[98.4,5680],[98.4,5764],[98.4,5847],[98.4,5931],[98.4,6014],[98.4,6098],[98.4,6181],[98.4,6265],[98.4,6348],[98.4,6432],[98.4,6516],[98.4,6599],[98.4,6682],[98.4,6766],[98.3,6850],[98.1,6933],[98,7017],[97.9,7100],[97.6,7184],[97.5,7267],[97.5,7351],[97.5,7435],[97.5,7518],[97.5,7602],[97.5,7685],[97.5,7769],[97.5,7852],[97.5,7936],[97.5,8019],[97.5,8103],[97.5,8186],[97.5,8270],[97.5,8354],[97.5,8437],[97.5,8521],[97.5,8604],[97.5,8688],[97.5,8771],[97.5,8855],[97.5,8938],[97.5,9022],[97.5,9105],[97.3,9189],[97.3,9273],[97.3,9356],[96.6,9440],[94.9,9524],[87.6,9607],[81.9,9690],[59.8,9774],[53.6,9858],[51.8,9941],[50.6,10025],[50,10108]]",1,0,242.6204,248.5179,32.625,5.2145,"[{""rating"":32.62500000000001,""responseTime"":5.214499999999987}]",space,5.3707,,248.518,Definitely yes,100,248.5215,,,[],,0,2,2,2,1,audio/Narrative7Situation2.wav,audio/Narrative8Situation2.wav,audio/Narrative5Situation2.wav,audio/Narrative6Situation2.wav,3,3,3,3,,,,,,,,,,,,,,,,,,,,,,,,,,,,,,,,,,,,,,,
,,,,,,58ae37d8e6afe00001d36ac9,2024-02-08_16h20.36.973,group3.1-3.2-social-tom,2023.2.2,Win32,60.24096386,65c5074098b851296ff0b7ed,65c5452b1d5e330b96e5beeb,,,,,,,,,,,,,,,,,,,,,,,,,,,,,248.5217,1,audio/Narrative8Situation3.wav,252.5283,,252.5284,274.9023,"[[999,21],[999,83],[999,166],[999,250],[999,333],[999,417],[999,500],[999,584],[999,668],[999,751],[999,836],[999,919],[999,1005],[48.3,1091],[49.5,1174],[49.9,1255],[49.9,1336],[49.9,1422],[49.9,1503],[49.9,1587],[49.9,1671],[49.9,1754],[49.9,1838],[49.9,1923],[49.9,2005],[49,2091],[47.6,2172],[45.5,2258],[42.5,2339],[37.5,2424],[35,2508],[29,2591],[28.1,2674],[28.1,2756],[28.3,2843],[31.6,2924],[40.8,3010],[45.1,3093],[48.1,3176],[49.3,3259],[50,3343],[50.3,3425],[50.3,3508],[50.3,3592],[50.3,3677],[50.3,3759],[50.3,3842],[50.3,3927],[50.3,4010],[50.3,4096],[50.3,4177],[50.3,4260],[50.3,4344],[50.3,4427],[50.3,4512],[50.3,4594],[50.3,4678],[50.3,4761],[50.3,4845],[50.3,4930],[50.3,5012],[50.3,5096],[50.3,5179],[50.3,5263],[50.3,5346],[50.3,5430],[50.3,5514],[50.3,5597],[50.3,5681],[50.3,5766],[50.3,5848],[50.3,5931],[50.3,6016],[50.3,6098],[50.3,6181],[50.3,6267],[50.3,6349],[50.3,6434],[50.3,6516],[50.3,6601],[50.3,6683],[50.3,6767],[50.3,6851],[50.3,6934],[50.3,7017],[50.3,7101],[50.3,7185],[50.3,7268],[50.3,7352],[50.3,7438],[50.3,7519],[50.3,7602],[50.3,7686],[50.3,7769],[50.3,7856],[50.3,7936],[50.3,8020],[50.3,8103],[50.3,8187],[50.3,8272],[50.3,8354],[50.3,8437],[50.3,8521],[50.3,8604],[50.3,8690],[50.3,8771],[50.3,8855],[50.3,8939],[50.3,9022],[50.3,9108],[50.3,9191],[50.3,9273],[50.3,9357],[50.3,9440],[50.3,9526],[50.3,9608],[50.3,9691],[50.3,9774],[50.3,9858],[50.4,9943],[53.4,10041],[55.8,10125],[57.5,10209],[65.5,10292],[81.9,10375],[87.4,10459],[87.4,10543],[87,10626],[87,10709],[87,10793],[85,10877],[84.1,10960],[84.1,11044],[84.1,11128],[84.1,11211],[84.1,11295],[84.1,11378],[84.1,11462],[84.1,11545],[84.1,11629],[84.1,11712],[84.1,11796],[84.1,11879],[84.1,11963],[84.1,12046],[84.1,12130],[84.1,12214],[84.1,12297],[84.1,12381],[84.1,12464],[84.1,12548],[84.1,12631],[84.1,12715],[84.1,12798],[84.1,12882],[84.1,12966],[84.1,13049],[84.1,13133],[84.1,13216],[84.1,13300],[84.1,13383],[84.1,13467],[84.1,13550],[84.1,13634],[84.1,13717],[84.1,13801],[84.1,13884],[84.1,13968],[84.1,14052],[84.1,14135],[84.1,14219],[84.1,14302],[84.1,14386],[84.1,14469],[84.1,14553],[84.1,14637],[84.1,14720],[84.1,14803],[84.1,14887],[84.1,14971],[84.1,15054],[84.1,15138],[84.1,15221],[84.1,15305],[84.1,15389],[84.1,15472],[84.1,15556],[84.1,15639],[84.1,15723],[84.1,15806],[84.1,15890],[84.1,15973],[84.1,16057],[84.1,16140],[84.1,16224],[84.1,16308],[84.1,16391],[84.1,16475],[84.1,16558],[84.1,16642],[84.1,16725],[84.1,16809],[84.1,16892],[84.1,16976],[84.1,17059],[84.1,17143],[84.1,17227],[84.1,17311],[87.3,17410],[91.9,17494],[93.5,17577],[94.3,17661],[94.9,17744],[95.1,17828],[95.3,17911],[95.3,17995],[95.3,18078],[95.3,18162],[95.3,18245],[95.1,18329],[94.9,18413],[94.8,18496],[94.6,18580],[94.6,18663],[94.6,18747],[94.6,18830],[94.6,18914],[94.6,18997],[94.6,19081],[94.6,19165],[94.6,19249],[94.6,19332],[94.6,19415],[95,19499],[96,19583],[96.8,19666],[98.4,19749],[98.8,19833],[98.8,19916],[98.8,20000],[98.8,20083],[98.8,20167],[98.8,20250],[98.8,20334],[98.8,20418],[98.8,20501],[98.8,20585],[98.8,20668],[98.8,20752],[99,20836],[99.1,20919],[99.4,21003],[99.4,21086],[99.4,21170],[99.4,21253],[99.4,21337],[99.4,21420],[99.4,21504],[99.4,21588],[99.4,21671],[99.4,21755],[99.1,21838],[99,21922],[99,22006],[99,22089],[99,22173],[99,22256],[99,22340]]",1,0,274.903,276.7561,99,0.7417,"[{""rating"":99,""responseTime"":0.7416999999992981}]",space,1.3276,,276.7562,Not at all,0,276.7594,,,[],,0,3,3,3,1,audio/Narrative7Situation3.wav,audio/Narrative8Situation3.wav,audio/Narrative5Situation3.wav,audio/Narrative6Situation3.wav,8,4,3,5,,,,,,,,,,,,,,,,,,,,,,,,,,,,,,,,,,,,,,,
,,,,,,58ae37d8e6afe00001d36ac9,2024-02-08_16h20.36.973,group3.1-3.2-social-tom,2023.2.2,Win32,60.24096386,65c5074098b851296ff0b7ed,65c5452b1d5e330b96e5beeb,,,,,,,,,,,,,,,,,,,,,,,,,,,,,276.7598,1,audio/Narrative8Situation4.wav,279.7642,,279.7644,293.9339,"[[97.6,99],[97.6,183],[97.6,266],[97.6,350],[97.5,433],[96.6,517],[81.1,601],[74.8,684],[63.9,768],[57.8,851],[54,935],[51.9,1018],[51.9,1102],[51.9,1185],[51.9,1269],[51.9,1352],[51.9,1436],[51.9,1519],[51.9,1603],[51.9,1687],[51.9,1770],[51.9,1854],[51.9,1937],[51.5,2021],[51.1,2104],[51,2188],[50.8,2271],[50.8,2355],[50.8,2438],[50.8,2522],[51,2606],[51.6,2689],[52.4,2773],[54.3,2856],[56.5,2940],[57.3,3024],[57.9,3107],[58.4,3190],[58.8,3274],[59,3357],[59.1,3441],[59.5,3525],[60,3608],[61.1,3692],[61.9,3775],[62.4,3859],[62.4,3942],[62.4,4026],[62.4,4109],[62.4,4193],[62.4,4276],[62.4,4360],[62.4,4444],[62.4,4527],[62.4,4611],[62.4,4694],[62.4,4778],[62.4,4861],[62.4,4945],[62.4,5028],[62.4,5112],[62.4,5196],[62.4,5279],[62.4,5363],[62.4,5446],[62.4,5530],[62.4,5614],[62.4,5697],[62.8,5781],[63.3,5865],[64.4,5948],[66.9,6032],[67.9,6115],[68,6198],[68,6282],[68.1,6366],[68.3,6449],[68.5,6533],[68.9,6617],[71.3,6700],[74,6784],[81.5,6867],[88.3,6951],[94.9,7034],[96.5,7118],[96.8,7201],[97.1,7285],[98.3,7368],[98.6,7452],[98.6,7535],[98.6,7619],[98.6,7702],[98.9,7786],[98.9,7869],[99,7953],[99,8036],[99.1,8120],[99.1,8203],[99.1,8287],[99.1,8370],[99.1,8453],[99.1,8537],[99.1,8621],[99.1,8704],[99.1,8788],[99.1,8872],[99.1,8955],[99.3,9039],[99.3,9122],[99.3,9206],[99.3,9289],[99.3,9373],[99.3,9456],[99.3,9540],[99.3,9623],[99.3,9707],[99.3,9790],[99.3,9874],[99.3,9957],[99.3,10041],[99.3,10125],[99.3,10208],[99.3,10291],[99.3,10375],[99.3,10459],[99.3,10543],[99.3,10626],[99.3,10710],[99.3,10793],[99.3,10877],[99.3,10960],[99.3,11044],[99.3,11127],[99.3,11211],[99.3,11294],[99.3,11378],[99.3,11461],[99.3,11545],[99.3,11628],[99.3,11712],[99.3,11796],[99.3,11879],[99.3,11963],[99.3,12046],[99.3,12130],[99.3,12213],[99.3,12297],[99.3,12380],[99.3,12464],[99.3,12548],[99.3,12631],[99.3,12715],[99.3,12798],[99.3,12882],[99.3,12965],[99.3,13049],[99.3,13132],[99.3,13216],[99.3,13300],[99.3,13383],[99.3,13466],[99.3,13550],[99.3,13634],[99.3,13717],[99.3,13801],[99.3,13884],[99.3,13968],[99.3,14052],[99.3,14135]]",1,0,293.9342,298.9624,99.25,0.7048,"[{""rating"":99.25,""responseTime"":0.7048000000007733}]",space,4.5011,,298.9624,Partially,50,298.9779,,,[],,0,4,4,4,1,audio/Narrative7Situation4.wav,audio/Narrative8Situation4.wav,audio/Narrative5Situation4.wav,audio/Narrative6Situation4.wav,3,3,1,2,,,,,,,,,,,,,,,,,,,,,,,,,,,,,,,,,,,,,,,
,,,,,,58ae37d8e6afe00001d36ac9,2024-02-08_16h20.36.973,group3.1-3.2-social-tom,2023.2.2,Win32,60.24096386,65c5074098b851296ff0b7ed,65c5452b1d5e330b96e5beeb,,,,,,,,,,,,,,,,,,,,,,,,,,,,,298.9781,1,audio/Narrative8Situation5.wav,300.9843,,300.9843,309.2224,"[[90.8,83],[90.8,167],[90.8,250],[90.4,334],[89.6,418],[85.4,501],[73.8,585],[67.6,669],[66.3,752],[62.8,836],[58.9,919],[54.8,1002],[53.4,1086],[50.1,1170],[48.9,1253],[48.9,1336],[48.9,1420],[48.9,1503],[49.3,1587],[49.8,1670],[49.9,1754],[49.9,1837],[49.9,1921],[49.9,2005],[50.5,2089],[58.6,2172],[68,2256],[78.5,2339],[83.9,2422],[84.1,2506],[86.9,2589],[93.1,2673],[95.8,2757],[97,2841],[98.4,2923],[98.5,3007],[98.6,3091],[98.8,3174],[98.8,3258],[98.8,3341],[99,3425],[99.3,3508],[99.3,3592],[99.3,3675],[99.3,3759],[99.3,3842],[99.3,3926],[99.3,4010],[99.3,4094],[99.3,4177],[99.3,4261],[99.3,4344],[99.3,4427],[99.3,4511],[99.3,4594],[99.3,4678],[99.3,4761],[99.3,4845],[99.3,4929],[99.3,5012],[99.3,5096],[99.3,5179],[99.3,5263],[99.3,5346],[99.3,5430],[99.3,5513],[99.3,5597],[99.3,5680],[99.3,5764],[99.3,5848],[99.3,5931],[99.3,6015],[99.3,6098],[99.3,6182],[99.3,6265],[99.3,6349],[99.3,6432],[99.3,6516],[99.3,6600],[99.3,6683],[99.3,6767],[99.3,6850],[99.3,6934],[99.3,7017],[99.3,7101],[99.3,7185],[99.3,7268],[99.3,7352],[99.3,7435],[99.3,7519],[99.3,7602],[99.3,7686],[99.3,7769],[99.3,7853],[99.3,7937],[99.3,8020],[99.3,8103],[99.3,8187]]",1,0,309.2228,315.4213,99.25,1.4954,"[{""rating"":99.25,""responseTime"":1.49539999999854}]",space,5.6653,,315.4215,Partially,50,315.452,,,[],,0,5,5,5,1,audio/Narrative7Situation5.wav,audio/Narrative8Situation5.wav,audio/Narrative5Situation5.wav,audio/Narrative6Situation5.wav,5,2,5,2,,,,,,,,,,,,,,,,,,,,,,,,,,,,,,,,,,,,,,,
,,,,,,58ae37d8e6afe00001d36ac9,2024-02-08_16h20.36.973,group3.1-3.2-social-tom,2023.2.2,Win32,60.24096386,65c5074098b851296ff0b7ed,65c5452b1d5e330b96e5beeb,,,,,,,,,,,,,,,,,,,,,,,,,,,,,315.4524,1,audio/Narrative8Situation6.wav,317.4601,,317.4602,323.926,"[[99,333],[99,416],[99,500],[99,583],[99,667],[99,750],[99,834],[99,917],[99,1001],[99,1085],[99,1168],[99,1252],[99,1335],[99,1419],[99,1502],[99,1586],[99,1670],[99,1753],[99,1836],[99,1920],[99,2004],[99,2087],[99,2171],[99,2254],[99,2338],[99,2421],[99,2505],[99,2589],[99,2672],[99,2756],[99,2839],[99,2923],[99,3006],[99,3090],[99,3173],[99,3257],[99,3340],[99,3424],[99,3507],[99,3591],[99,3675],[99,3758],[99,3842],[99,3925],[99,4009],[99,4092],[99,4176],[99,4259],[99,4343],[99,4427],[99,4510],[99,4594],[99,4677],[99,4761],[99,4845],[99,4928],[99,5011],[99,5095],[99,5178],[99,5262],[99,5346],[99,5429],[99,5513],[99,5596],[99,5680],[99,5763],[99,5847],[99,5930],[99,6014],[99,6097],[99,6181],[99,6264],[99,6348],[99,6431]]",1,0,323.9263,329.9578,50,2.8329,"[{""rating"":50,""responseTime"":2.832900000002212}]",space,5.5047,,329.9579,Definitely yes,100,329.9801,,,[],,0,6,6,6,1,audio/Narrative7Situation6.wav,audio/Narrative8Situation6.wav,audio/Narrative5Situation6.wav,audio/Narrative6Situation6.wav,3,2,3,2,,,,,,,,,,,,,,,,,,,,,,,,,,,,,,,,,,,,,,,
,,,,,,58ae37d8e6afe00001d36ac9,2024-02-08_16h20.36.973,group3.1-3.2-social-tom,2023.2.2,Win32,60.24096386,65c5074098b851296ff0b7ed,65c5452b1d5e330b96e5beeb,,,,,,,,,,,,,,,,,,,,,,,,,,,,,329.9805,1,audio/Narrative8Situation7.wav,332.9825,,332.9825,345.0628,"[[50.8,1921],[53.1,2007],[53.5,2087],[53.5,2173],[53.4,2255],[50.1,2341],[50,2424],[49.8,2505],[49.8,2589],[49.8,2672],[49.8,2756],[49.8,2840],[49.8,2923],[49.8,3007],[49.8,3090],[49.8,3177],[49.8,3257],[49.8,3341],[49.8,3424],[49.8,3508],[49.8,3594],[50.1,4009],[50.4,4093],[100,4179],[100,4260],[100,4343],[96.8,4430],[94.4,4514],[94.5,4595],[97.9,4679],[100,4763],[100,4847],[100,4929],[100,5015],[100,5096],[100,5181],[100,5264],[100,5348],[100,5430],[100,5515],[100,5596],[100,5683],[100,5764],[100,5847],[100,5931],[100,6014],[100,6101],[100,6181],[100,6265],[100,6349],[100,6432],[100,6519],[100,6599],[100,6682],[100,6766],[100,6850],[100,6933],[100,7017],[100,7100],[100,7184],[100,7267],[100,7352],[100,7435],[100,7518],[100,7603],[100,7685],[100,7770],[100,7852],[100,7936],[100,8021],[100,8105],[100,8188],[100,8270],[100,8354],[100,8437],[100,8521],[100,8606],[100,8688],[100,8771],[100,8857],[100,8938],[100,9023],[100,9106],[100,9189],[100,9275],[100,9356],[100,9443],[100,9523],[100,9607],[100,9690],[100,9774],[100,9861],[100,9941],[100,10024],[100,10108],[100,10192],[100,10277],[100,10358],[100,10442],[100,10528],[100,10609],[100,10695],[100,10777],[100,10860],[100,10944],[100,11027],[100,11113],[100,11194],[100,11278],[100,11363],[100,11444],[100,11531],[100,11612],[100,11696],[100,11779],[100,11863],[100,11946],[100,12030]]",1,0,345.0631,350.8467,99.375,1.9602,"[{""rating"":99.375,""responseTime"":1.960200000002942}]",space,5.2579,,350.847,Partially,50,366.1161,50.25,9.9742,"[{""rating"":50,""responseTime"":4.819000000000017},{""rating"":49.25,""responseTime"":9.056599999997786},{""rating"":50.24999999999999,""responseTime"":9.974199999999257}]",space,0,7,7,7,1,audio/Narrative7Situation7.wav,audio/Narrative8Situation7.wav,audio/Narrative5Situation7.wav,audio/Narrative6Situation7.wav,5,3,4,5,,,14.7299,,,,,,,,,,,,,,,,,,,,,,,,,,,,,,,,,,,,
,,,,,,58ae37d8e6afe00001d36ac9,2024-02-08_16h20.36.973,group3.1-3.2-social-tom,2023.2.2,Win32,60.24096386,65c5074098b851296ff0b7ed,65c5452b1d5e330b96e5beeb,,,,,,,,,,,,,,,,,,,,,,,,,,,,,366.1435,1,audio/Narrative8Situation8.wav,369.1571,,369.1571,382.0067,"[[58,10208],[70.5,10292],[74.1,10376],[79.8,10460],[86.5,10543],[92.8,10627],[95.6,10710],[99.4,10794],[100,10877],[100,10961],[100,11045],[99.9,11128],[98.1,11212],[97.9,11295],[97.8,11378],[97.8,11462],[97.8,11545],[97.8,11629],[97.8,11713],[97.8,11796],[97.8,11880],[98.5,11963],[98.5,12047],[98.5,12130],[98.5,12214],[98.5,12297],[98.5,12381],[98.5,12464],[98.5,12548],[98.5,12632],[98.5,12715],[98.5,12799]]",1,0,382.007,388.4725,99.375,1.9832,"[{""rating"":99.375,""responseTime"":1.9831999999992718}]",space,5.9394,,388.4726,Not at all,0,388.4928,,,[],,0,8,8,8,1,audio/Narrative7Situation8.wav,audio/Narrative8Situation8.wav,audio/Narrative5Situation8.wav,audio/Narrative6Situation8.wav,2,3,3,5,,,,,,,,,,,,,,,,,,,,,,,,,,,,,,,,,,,,,,,
,,,,,,58ae37d8e6afe00001d36ac9,2024-02-08_16h20.36.973,group3.1-3.2-social-tom,2023.2.2,Win32,60.24096386,65c5074098b851296ff0b7ed,65c5452b1d5e330b96e5beeb,,,,,,,,,,,,,,,,,,,,,,,,,,,,,388.4932,1,audio/Narrative8Situation9.wav,391.4971,,391.4973,402.8094,"[[85.9,600],[76.4,684],[74.8,768],[74.5,851],[73.4,935],[69.1,1018],[60.5,1102],[59.4,1186],[52.4,1269],[50.9,1352],[50.9,1436],[50.9,1519],[50.9,1603],[54.3,1687],[56.4,1770],[57.4,1854],[59.9,1937],[60.3,2021],[60.6,2104],[60.6,2188],[60.6,2271],[60.6,2355],[60.6,2439],[60.6,2522],[60.6,2605],[60.6,2689],[60.6,2773],[60.6,2856],[60.6,2940],[60.6,3023],[60.6,3107],[60.6,3190],[60.5,3274],[60.5,3358],[60.5,3441],[60.5,3525],[62.4,3608],[73.5,3692],[83.6,3775],[87.1,3859],[90.6,3942],[96.1,4026],[98.8,4109],[98.8,4193],[98.8,4277],[99.9,4360],[100,4443],[100,4527],[100,4611],[100,4694],[100,4778],[100,4861],[100,4945],[100,5028],[100,5112],[100,5195],[100,5279],[100,5362],[100,5446],[100,5530],[100,5613],[100,5697],[100,5780],[100,5864],[100,5947],[100,6031],[100,6114],[100,6198],[100,6281],[100,6365],[100,6449],[100,6532],[100,6616],[100,6699],[100,6783],[100,6866],[100,6950],[100,7033],[100,7117],[100,7201],[100,7284],[100,7368],[100,7451],[100,7535],[100,7618],[100,7702],[100,7785],[100,7869],[100,7952],[100,8036],[100,8120],[100,8203],[100,8286],[100,8370],[100,8454],[100,8537],[100,8621],[100,8704],[100,8788],[100,8871],[100,8955],[100,9038],[100,9122],[100,9206],[100,9289],[100,9373],[100,9456],[100,9540],[100,9624],[100,9707],[100,9791],[100,9874],[100,9958],[100,10041],[100,10125],[100,10208],[100,10292],[100,10376],[100,10459],[100,10543],[100,10626],[100,10710],[100,10793],[100,10877],[100,10960],[100,11044],[100,11127],[100,11212],[100,11295]]",1,0,402.8097,406.435,99.375,1.5354,"[{""rating"":99.375,""responseTime"":1.5354000000022552}]",space,3.0979,,406.4351,Definitely yes,100,406.4411,,,[],,0,9,9,9,1,audio/Narrative7Situation9.wav,audio/Narrative8Situation9.wav,audio/Narrative5Situation9.wav,audio/Narrative6Situation9.wav,2,3,3,4,,,,,,,,,,,,,,,,,,,,,,,,,,,,,,,,,,,,,,,
,,,,,,58ae37d8e6afe00001d36ac9,2024-02-08_16h20.36.973,group3.1-3.2-social-tom,2023.2.2,Win32,60.24096386,65c5074098b851296ff0b7ed,65c5452b1d5e330b96e5beeb,,,,,,,,,,,,,,,,,,,,,,,,,,,,,406.4417,1,audio/Narrative7Situation1.wav,408.4565,,408.4565,464.332,"[[97.6,668],[90.9,751],[46.8,1253],[48.5,1336],[49.9,1420],[50.4,1503],[50.5,1587],[50.5,1670],[50.5,1754],[50.5,1837],[49.8,1921],[49.8,2004],[49.8,2088],[49.8,2171],[49.8,2255],[49.8,2339],[49.8,2422],[49.8,2506],[49.8,2589],[49.8,2673],[49.8,2756],[49.8,2840],[49.8,2923],[49.6,3007],[49.6,3090],[49.6,3174],[49.6,3258],[49.6,3341],[49.6,3425],[49.6,3508],[49.6,3592],[49.6,3676],[49.6,3759],[49.6,3843],[49.6,3926],[49.6,4010],[49.3,4093],[49.3,4176],[49.3,4260],[49.3,4344],[48.9,4428],[48.8,4511],[48.6,4594],[48.5,4678],[48.4,4762],[48.4,4845],[48.4,4929],[48,5012],[47.8,5096],[47.3,5180],[47,5263],[46.8,5346],[46.4,5430],[46,5513],[46,5597],[46,5680],[46,5764],[45.5,5848],[45.3,5931],[44.6,6015],[44.3,6098],[43.9,6182],[43,6265],[41.3,6349],[40.6,6432],[39.9,6517],[36.8,6600],[34.8,6683],[33.9,6767],[33.8,6850],[33.8,6933],[33.4,7018],[33,7101],[32.3,7184],[31.1,7268],[28.8,7352],[25.8,7435],[24.6,7519],[22.7,7608],[22.1,7686],[21.4,7769],[21.1,7853],[20.3,7936],[18.5,8019],[17.6,8103],[17.1,8187],[16.5,8270],[16.1,8354],[15.8,8438],[15,8521],[14.1,8605],[13.5,8688],[13,8772],[12.3,8855],[12,8939],[11.4,9023],[10.9,9106],[9.8,9189],[7.8,9273],[4.6,9356],[4.5,9440],[4.5,9523],[4.5,9607],[4.5,9690],[4.5,9774],[4.5,9858],[4.5,9941],[4.5,10025],[4.4,10108],[3.6,10192],[2.3,10276],[1.8,10359],[1.8,10442],[1.8,10526],[1.8,10610],[1.8,10693],[1.8,10777],[1.8,10860],[1.8,10944],[1.5,11027],[1.4,11111],[1.3,11194],[1.3,11278],[1.3,11361],[1.3,11445],[1.3,11529],[1.6,11612],[1.9,11696],[2.4,11780],[3.1,11863],[5.6,11946],[7.1,12030],[8.3,12114],[9.9,12197],[12,12281],[16.1,12364],[18.8,12448],[23.6,12532],[25.9,12615],[31.5,12698],[34.8,12782],[38,12865],[40.1,12949],[41.5,13033],[44.4,13116],[46,13200],[46.5,13283],[46.8,13367],[46.9,13450],[47.4,13534],[47.5,13617],[47.5,13701],[47.5,13784],[47.5,13868],[47.5,13951],[47.5,14035],[46.5,14119],[45.8,14202],[45.6,14286],[44.9,14369],[42.6,14453],[42,14536],[42,14620],[42,14703],[42,14787],[42,14870],[42,14954],[41.4,15038],[41.4,15121],[41.4,15204],[41.4,15288],[41.4,15372],[41.4,15455],[41.3,15539],[41.1,15622],[41.1,15706],[41.1,15789],[41.1,15873],[41.1,15956],[41.1,16040],[41.1,16123],[41.1,16207],[41.5,16291],[41.9,16374],[42.3,16458],[42.6,16541],[43.1,16625],[43.4,16709],[43.6,16792],[43.9,16875],[43.9,16959],[43.9,17042],[43.9,17126],[41.8,17210],[37.4,17293],[34.8,17377],[29.4,17460],[29.4,17544],[29.1,17627],[28.3,17711],[28.3,17794],[28.3,17878],[28.3,17961],[28.3,18045],[28.5,18128],[28.5,18212],[28.5,18296],[28.5,18379],[28.5,18463],[28.5,18546],[28.5,18630],[28.5,18713],[29.3,18797],[38.1,18881],[41.5,18964],[44.1,19048],[47.8,19132],[49.3,19215],[50.1,19298],[51.1,19382],[51.8,19465],[51.8,19549],[51.8,19632],[51.8,19716],[51.6,19800],[51.1,19883],[51.1,19967],[51.1,20050],[59.9,20134],[77.1,20217],[84.1,20301],[85.4,20384],[87.6,20468],[93.5,20552],[96.4,20635],[97.4,20719],[99,20802],[99.8,20886],[99.9,20969],[99.9,21053],[99.9,21136],[99.9,21220],[99.9,21303],[99.9,21387],[99.9,21470],[99.9,21554],[99.9,21638],[99.9,21721],[99.9,21804],[99.9,21888],[99.9,21972],[99.9,22055],[99.9,22139],[99.9,22222],[99.9,22305],[99.9,22389],[99.9,22473],[99.9,22557],[99.9,22640],[99.9,22724],[99.9,22807],[99.9,22891],[99.9,22974],[99.9,23058],[99.9,23141],[99.9,23225],[99.9,23308],[99.9,23392],[99.9,23476],[99.9,23559],[99.9,23643],[99.9,23726],[99.9,23810],[99.9,23893],[99.9,23977],[99.9,24060],[99.9,24144],[99.9,24227],[99.9,24311],[99.9,24394],[99.9,24478],[99.9,24561],[99.9,24645],[99.9,24729],[99.9,24812],[99.9,24896],[99.9,24979],[99.9,25063],[99.9,25147],[99.8,25230],[99.8,25313],[99.8,25397],[99.8,25480],[99.8,25564],[99.8,25647],[99.8,25731],[99.6,25815],[99.6,25898],[99.6,25982],[99.6,26065],[99.6,26149],[99.6,26233],[99.6,26316],[99.6,26400],[99.6,26483],[99.6,26567],[99.6,26650],[99.6,26734],[99.6,26817],[99.6,26901],[99.6,26985],[99.6,27068],[99.6,27152],[99.6,27235],[99.6,27319],[99.6,27402],[99.6,27486],[99.6,27569],[99.6,27653],[99.6,27737],[99.6,27820],[99.6,27903],[99.6,27987],[99.6,28071],[99.6,28154],[99.6,28238],[99.6,28321],[99.6,28405],[99.6,28488],[99.6,28572],[99.6,28656],[99.6,28739],[99.6,28823],[99.6,28906],[99.6,28990],[99.6,29073],[99.6,29157],[99.6,29240],[99.6,29324],[99.6,29407],[99.6,29491],[99.6,29574],[99.6,29658],[99.6,29741],[99.6,29825],[99.6,29909],[99.6,29992],[99.6,30076],[99.6,30159],[99.6,30243],[99.6,30326],[99.6,30410],[99.6,30493],[99.6,30577],[99.6,30660],[99.6,30744],[99.6,30828],[99.6,30911],[99.6,30995],[99.6,31078],[99.6,31162],[99.6,31245],[99.6,31329],[99.6,31412],[99.6,31496],[99.6,31580],[99.6,31663],[99.6,31747],[99.6,31830],[99.6,31914],[99.6,31997],[99.6,32081],[99.6,32164],[99.6,32248],[99.6,32331],[99.6,32415],[99.6,32499],[99.6,32582],[99.6,32666],[99.6,32749],[99.6,32833],[99.6,32916],[99.6,33000],[99.6,33083],[99.6,33167],[99.6,33250],[99.6,33334],[99.6,33418],[99.6,33501],[99.6,33585],[99.6,33668],[99.6,33752],[99.6,33835],[99.6,33919],[99.6,34002],[100,34107],[100,34186],[100,34269],[100,34353],[100,34437],[100,34520],[100,34604],[100,34687],[100,34771],[100,34854],[100,34938],[100,35021],[100,35105],[100,35188],[100,35272],[100,35356],[100,35439],[100,35523],[100,35606],[100,35690],[100,35773],[100,35857],[100,35940],[100,36024],[100,36107],[100,36191],[100,36274],[100,36358],[100,36441],[100,36525],[100,36609],[100,36692],[100,36776],[100,36859],[100,36943],[100,37026],[100,37110],[100,37194],[100,37277],[100,37361],[100,37444],[100,37528],[100,37611],[100,37695],[100,37778],[100,37862],[100,37945],[100,38029],[100,38113],[100,38196],[100,38280],[100,38363],[100,38447],[100,38530],[100,38614],[100,38697],[100,38781],[100,38864],[100,38948],[100,39031],[100,39115],[100,39199],[100,39282],[100,39366],[100,39449],[100,39533],[100,39617],[100,39700],[100,39784],[100,39867],[100,39951],[100,40034],[100,40118],[100,40201],[100,40285],[100,40368],[100,40452],[100,40536],[100,40619],[100,40703],[100,40786],[100,40870],[100,40953],[100,41037],[100,41120],[100,41204],[100,41288],[100,41371],[100,41455],[100,41538],[100,41622],[100,41705],[100,41789],[100,41872],[100,41956],[100,42039],[100,42123],[100,42207],[100,42290],[100,42374],[100,42457],[100,42541],[100,42624],[100,42708],[100,42791],[100,42875],[100,42958],[100,43042],[100,43125],[100,43208],[100,43292],[100,43376],[100,43460],[100,43543],[100,43627],[100,43710],[100,43794],[100,43877],[100,43961],[100,44044],[100,44128],[100,44212],[100,44295],[100,44379],[100,44462],[100,44546],[100,44629],[100,44713],[100,44796],[100,44880],[100,44963],[100,45047],[100,45130],[100,45214],[100,45298],[100,45381],[100,45465],[100,45548],[100,45632],[100,45715],[100,45799],[100,45882],[100,45966],[100,46050],[100,46133],[100,46216],[100,46300],[100,46383],[100,46467],[100,46551],[100,46634],[100,46718],[100,46801],[100,46885],[100,46968],[100,47052],[100,47135],[100,47219],[100,47303],[100,47386],[100,47470],[100,47553],[100,47637],[100,47720],[100,47804],[100,47888],[100,47971],[100,48055],[100,48138],[100,48222],[100,48305],[100,48389],[100,48472],[100,48556],[100,48639],[100,48723],[100,48807],[100,48890],[100,48974],[100,49057],[100,49141],[100,49224],[100,49308],[100,49391],[100,49475],[100,49558],[100,49642],[100,49726],[100,49809],[100,49893],[100,49976],[100,50060],[100,50143],[100,50226],[100,50310],[100,50394],[100,50477],[100,50561],[100,50645],[100,50728],[100,50812],[100,50895],[100,50979],[100,51062],[100,51146],[100,51229],[100,51313],[100,51396],[100,51480],[100,51564],[100,51647],[100,51731],[100,51814],[100,51898],[100,51981],[100,52065],[100,52148],[100,52232],[100,52315],[100,52399],[100,52483],[100,52566],[100,52650],[100,52733],[100,52816],[100,52900],[100,52983],[100,53067],[100,53150],[100,53234],[100,53318],[100,53401],[100,53485],[100,53568],[100,53652],[100,53735],[100,53819],[100,53903],[100,53986],[100,54069],[100,54153],[100,54237],[100,54320],[100,54404],[100,54487],[100,54571],[100,54655],[100,54738],[100,54822],[100,54905],[100,54989],[100,55073],[100,55156],[100,55239],[100,55323],[100,55407],[100,55490],[100,55574],[100,55657],[100,55741],[100,55824]]",1,0,464.3328,467.7574,99.625,0.8711,"[{""rating"":99.62500000000001,""responseTime"":0.8710999999977957}]",space,2.8988,,467.7576,Definitely yes,100,467.7617,,,[],,0,10,10,10,1,audio/Narrative8Situation1.wav,audio/Narrative7Situation1.wav,audio/Narrative6Situation1.wav,audio/Narrative5Situation1.wav,5,2,2,5,,,,,,,,,,,,,,,,,,,,,,,,,,,,,,,,,,,,,,,
,,,,,,58ae37d8e6afe00001d36ac9,2024-02-08_16h20.36.973,group3.1-3.2-social-tom,2023.2.2,Win32,60.24096386,65c5074098b851296ff0b7ed,65c5452b1d5e330b96e5beeb,,,,,,,,,,,,,,,,,,,,,,,,,,,,,467.7623,1,audio/Narrative7Situation2.wav,470.7639,,470.7639,478.2337,"[[95.9,752],[78,836],[62.6,919],[57.6,1002],[54.3,1086],[52,1169],[52,1253],[52,1337],[52,1420],[52,1504],[51.6,1587],[51.5,1671],[51.5,1754],[51.5,1838],[51.5,1922],[51.5,2005],[51.5,2089],[51.5,2172],[51.5,2256],[51.9,2340],[52,2423],[52.5,2507],[61.4,2591],[71.3,2674],[79.6,2758],[86.5,2841],[92.5,2924],[93.4,3008],[93.9,3091],[97.1,3175],[98.6,3258],[98.6,3342],[98.6,3425],[98.6,3509],[98.6,3592],[98.6,3676],[98.6,3760],[98.6,3843],[98.6,3927],[98.6,4010],[98.6,4094],[98.6,4177],[98.6,4261],[98.6,4344],[98.6,4428],[98.6,4511],[98.6,4595],[98.6,4679],[98.6,4762],[98.6,4846],[98.6,4929],[98.6,5013],[98.6,5096],[98.6,5180],[98.6,5263],[98.6,5346],[98.4,5431],[98.4,5514],[98.4,5598],[98.4,5681],[98.4,5765],[98.4,5848],[98.4,5932],[98.4,6015],[98.4,6099],[98.4,6182],[98.4,6266],[98.4,6349],[98.4,6433],[98,6516],[97.9,6600],[97.8,6683],[97.8,6767],[97.8,6851],[97.8,6934],[97.8,7018],[97.8,7101],[97.8,7185],[97.8,7269],[97.8,7352],[97.8,7436]]",1,0,478.234,480.8229,99.625,1.3218,"[{""rating"":99.62500000000001,""responseTime"":1.321800000000735}]",space,2.058,,480.8229,Partially,50,480.8259,,,[],,0,11,11,11,1,audio/Narrative8Situation2.wav,audio/Narrative7Situation2.wav,audio/Narrative6Situation2.wav,audio/Narrative5Situation2.wav,3,3,3,3,,,,,,,,,,,,,,,,,,,,,,,,,,,,,,,,,,,,,,,
,,,,,,58ae37d8e6afe00001d36ac9,2024-02-08_16h20.36.973,group3.1-3.2-social-tom,2023.2.2,Win32,60.24096386,65c5074098b851296ff0b7ed,65c5452b1d5e330b96e5beeb,,,,,,,,,,,,,,,,,,,,,,,,,,,,,480.8261,1,audio/Narrative7Situation3.wav,488.8271,,488.8271,498.067,"[[94.9,3191],[88.6,3274],[76.8,3358],[67.1,3441],[64,3525],[57.3,3608],[53,3692],[47,3775],[45.1,3859],[45.1,3942],[45.1,4026],[45.1,4109],[45.1,4193],[45.1,4277],[45.5,4360],[45.9,4444],[48,4527],[48.5,4611],[48.5,4694],[48.5,4778],[48.5,4861],[45.6,4945],[45,5028],[44.8,5112],[44.6,5196],[44.6,5279],[45.3,5362],[57.9,5446],[62.4,5530],[63.5,5613],[64.3,5697],[64.5,5780],[64.6,5864],[64.8,5947],[65.6,6031],[67,6114],[67.9,6198],[68.9,6282],[70.9,6365],[72,6448],[72,6532],[72,6615],[72,6699],[72,6782],[72,6866],[72,6950],[70.8,7033],[68.4,7117],[64.8,7200],[59.8,7284],[58.5,7367],[58.5,7451],[58.5,7535],[58.5,7618],[58.5,7702],[58.5,7785],[58.5,7869],[58.5,7952],[58.5,8036],[58.5,8120],[58.5,8203],[58.5,8287],[58.5,8370],[58,8454],[57,8538],[52.9,8621],[51.1,8705],[50.3,8788],[50.1,8872],[50.1,8955],[50.5,9039],[51.6,9122],[52.1,9206]]",1,0,498.0672,500.2554,51.375,0.87,"[{""rating"":51.37500000000001,""responseTime"":0.8700000000000045}]",space,1.6663,,500.2555,Not at all,0,500.2586,,,[],,0,12,12,12,1,audio/Narrative8Situation3.wav,audio/Narrative7Situation3.wav,audio/Narrative6Situation3.wav,audio/Narrative5Situation3.wav,4,8,5,3,,,,,,,,,,,,,,,,,,,,,,,,,,,,,,,,,,,,,,,
,,,,,,58ae37d8e6afe00001d36ac9,2024-02-08_16h20.36.973,group3.1-3.2-social-tom,2023.2.2,Win32,60.24096386,65c5074098b851296ff0b7ed,65c5452b1d5e330b96e5beeb,,,,,,,,,,,,,,,,,,,,,,,,,,,,,500.2589,1,audio/Narrative7Situation4.wav,503.263,,503.2631,514.9765,"[[51.3,835],[51,918],[50.9,1002],[50.9,1085],[50.9,1169],[50.9,1252],[50.6,1336],[50.3,1419],[50.1,1503],[50,1587],[50,1670],[50,1754],[50,1837],[50,1921],[50,2004],[50,2088],[50,2171],[50,2255],[50,2338],[50,2422],[50,2506],[50,2589],[50,2673],[50,2757],[50,2840],[49.9,2924],[47.3,3007],[45.9,3091],[45.3,3174],[43.9,3258],[41.6,3341],[39.5,3424],[39.5,3508],[39.5,3592],[39.5,3675],[39.5,3759],[39.4,3843],[37.3,3926],[36.5,4009],[36.5,4093],[36.5,4176],[37.3,4260],[43.9,4344],[45.4,4428],[48.3,4511],[51,4594],[52.4,4678],[53.1,4762],[53.4,4845],[53.4,4929],[53.4,5012],[51.1,5096],[47.6,5179],[46.8,5263],[43.5,5346],[41.6,5430],[37.8,5513],[35,5597],[35,5680],[35,5764],[35.3,5847],[37.6,5931],[46.6,6015],[58.3,6098],[74,6182],[82.8,6265],[91.1,6349],[96,6432],[98.1,6516],[98.6,6600],[98.9,6683],[98.9,6766],[98.9,6850],[98.9,6934],[98.1,7018],[86.1,7102],[67.4,7185],[57.6,7269],[46,7352],[30.5,7436],[22.6,7519],[21.3,7603],[17.3,7686],[16.1,7770],[16,7853],[15.9,7937],[15.9,8020],[15.9,8104],[15.8,8187],[15.8,8271],[15.8,8354],[15.8,8438],[15.8,8521],[15.8,8605],[15.8,8688],[15.8,8772],[15.8,8855],[15.8,8939],[15.8,9023],[15.8,9106],[15.5,9190],[15.5,9273],[15.4,9357],[15.3,9440],[15,9524],[14.8,9607],[14.5,9691],[14.5,9774],[14.3,9858],[14,9941],[13.6,10025],[13.3,10108],[12.1,10192],[10.8,10276],[10.4,10359],[10.3,10442],[10.3,10526],[10.3,10610],[10.3,10693],[10.3,10777],[10.3,10860],[10.3,10944],[10.3,11027],[10.3,11111],[10.3,11194],[10.3,11278],[10.3,11361],[10.3,11445],[10.3,11528],[10.3,11612],[10.3,11696]]",1,0,514.9767,517.1315,1.25,0.9314,"[{""rating"":1.250000000000001,""responseTime"":0.9314000000022133}]",space,1.6342,,517.1315,Partially,50,517.1344,,,[],,0,13,13,13,1,audio/Narrative8Situation4.wav,audio/Narrative7Situation4.wav,audio/Narrative6Situation4.wav,audio/Narrative5Situation4.wav,3,3,2,1,,,,,,,,,,,,,,,,,,,,,,,,,,,,,,,,,,,,,,,
,,,,,,58ae37d8e6afe00001d36ac9,2024-02-08_16h20.36.973,group3.1-3.2-social-tom,2023.2.2,Win32,60.24096386,65c5074098b851296ff0b7ed,65c5452b1d5e330b96e5beeb,,,,,,,,,,,,,,,,,,,,,,,,,,,,,517.1348,1,audio/Narrative7Situation5.wav,522.1446,,522.1447,530.6164,"[[24.1,769],[24.3,852],[24.3,935],[24.3,1019],[24.3,1102],[24.3,1186],[24.3,1269],[24.3,1353],[24.3,1436],[24.3,1520],[24.3,1603],[24.3,1687],[24.3,1770],[24.3,1854],[24.3,1938],[24.3,2021],[24.3,2105],[24.3,2188],[24.3,2272],[24.3,2355],[24.3,2439],[24.3,2522],[24.3,2606],[24.3,2689],[25.9,2773],[26.8,2857],[28.3,2940],[33.8,3024],[42.6,3108],[53.8,3191],[54.9,3274],[54.9,3358],[53.8,3442],[50.8,3525],[50.5,3608],[50.5,3692],[50.5,3776],[50.5,3859],[50.5,3943],[50.5,4026],[50.5,4110],[50.5,4193],[50.5,4277],[50.5,4360],[50.5,4444],[50.5,4528],[50.5,4611],[50.5,4695],[50.5,4778],[50.5,4862],[50.5,4945],[50.5,5029],[50.5,5112],[50.5,5196],[50.5,5279],[50.5,5363],[50.5,5446],[50.5,5530],[50.5,5613],[50.5,5697],[50.5,5781],[50.5,5864],[50.5,5948],[50.5,6031],[50.5,6115],[50.5,6198],[50.5,6282],[50.5,6366],[50.5,6449],[50.5,6533],[50.5,6616],[50.5,6700],[50.5,6783],[50.5,6867],[50.5,6950],[50.5,7034],[50.5,7117],[50.5,7201],[50.5,7284],[50.5,7368],[50.5,7451],[50.5,7535],[50.5,7619],[50.5,7702],[50.5,7786],[50.5,7869],[50.5,7953],[50.5,8036],[50.5,8120],[50.5,8203],[50.5,8287],[50.5,8371],[50.5,8454]]",1,0,530.6167,536.0629,21.5,4.4415,"[{""rating"":26.875,""responseTime"":3.5115999999977703},{""rating"":21.500000000000004,""responseTime"":4.441500000000019}]",space,4.9162,,536.063,Partially,50,536.0661,,,[],,0,14,14,14,1,audio/Narrative8Situation5.wav,audio/Narrative7Situation5.wav,audio/Narrative6Situation5.wav,audio/Narrative5Situation5.wav,2,5,2,5,,,,,,,,,,,,,,,,,,,,,,,,,,,,,,,,,,,,,,,
,,,,,,58ae37d8e6afe00001d36ac9,2024-02-08_16h20.36.973,group3.1-3.2-social-tom,2023.2.2,Win32,60.24096386,65c5074098b851296ff0b7ed,65c5452b1d5e330b96e5beeb,,,,,,,,,,,,,,,,,,,,,,,,,,,,,536.0665,1,audio/Narrative7Situation6.wav,539.0706,,539.0706,549.0293,"[[36.8,585],[34.8,668],[33.8,752],[33.1,835],[33.1,918],[33.1,1002],[33.1,1085],[33.1,1169],[33.1,1253],[33.8,1336],[43.9,1420],[49.3,1503],[49.9,1587],[49.9,1670],[49.9,1754],[49.9,1837],[49.9,1921],[49.9,2005],[49.9,2088],[55.5,2173],[85.5,2256],[93.6,2340],[93.9,2422],[94.3,2506],[100,2590],[100,3008],[100,3091],[100,3174],[100,3258],[100,3342],[100,3425],[100,3509],[100,3592],[100,3676],[100,3759],[100,3843],[100,3927],[100,4010],[100,4093],[100,4177],[100,4260],[100,4344],[100,4428],[100,4511],[100,4595],[100,4678],[100,4762],[100,4845],[100,4929],[100,5013],[100,5096],[100,5180],[100,5263],[100,5347],[100,5430],[100,5514],[100,5597],[100,5681],[100,5764],[100,5848],[100,5931],[100,6015],[100,6098],[100,6182],[100,6266],[100,6349],[100,6432],[100,6516],[100,6599],[100,6683],[100,6766],[100,6850],[100,6933],[100,7017],[100,7100],[100,7184],[100,7267],[100,7351],[100,7435],[100,7518],[100,7602],[100,7685],[100,7769],[99.3,7852],[99.3,7936],[100,8019],[100,8103],[100,8187],[100,8270],[100,8354],[100,8437],[100,8521],[100,8604],[100,8688],[100,8772],[100,8855],[100,8939],[100,9022],[100,9106],[100,9190],[100,9273],[100,9357],[100,9440],[100,9524],[100,9607],[100,9691],[100,9774],[100,9858],[100,9941]]",1,0,549.0296,551.2847,99.5,1.431,"[{""rating"":99.5,""responseTime"":1.43100000000004}]",space,1.7193,,551.2848,Definitely yes,100,551.2878,,,[],,0,15,15,15,1,audio/Narrative8Situation6.wav,audio/Narrative7Situation6.wav,audio/Narrative6Situation6.wav,audio/Narrative5Situation6.wav,2,3,2,3,,,,,,,,,,,,,,,,,,,,,,,,,,,,,,,,,,,,,,,
,,,,,,58ae37d8e6afe00001d36ac9,2024-02-08_16h20.36.973,group3.1-3.2-social-tom,2023.2.2,Win32,60.24096386,65c5074098b851296ff0b7ed,65c5452b1d5e330b96e5beeb,,,,,,,,,,,,,,,,,,,,,,,,,,,,,551.288,1,audio/Narrative7Situation7.wav,556.2979,,556.2979,573.4747,"[[98.9,1269],[98.9,1352],[98.9,1436],[98.9,1519],[100,1603],[100,1687],[100,1770],[100,1854],[100,1937],[100,2021],[100,2104],[100,2188],[100,2271],[100,2355],[100,2438],[100,2522],[100,2606],[100,2689],[100,2773],[100,2856],[100,2940],[100,3023],[100,3107],[100,3190],[100,3274],[100,3357],[100,3441],[100,3525],[100,3609],[100,3692],[100,3775],[100,3859],[100,3942],[100,4026],[100,4110],[100,4193],[100,4277],[100,4360],[100,4444],[100,4527],[100,4611],[100,4694],[100,4778],[100,4861],[100,4945],[100,5029],[100,5112],[100,5196],[100,5279],[100,5363],[100,5446],[100,5530],[100,5614],[100,5697],[100,5781],[100,5864],[100,5948],[100,6031],[100,6114],[100,6198],[100,6282],[100,6365],[100,6449],[100,6533],[100,6616],[100,6699],[100,6783],[100,6866],[100,6950],[100,7033],[100,7117],[100,7200],[100,7284],[100,7368],[100,7451],[100,7535],[100,7618],[100,7702],[100,7785],[100,7869],[100,7952],[100,8036],[100,8120],[100,8203],[100,8287],[100,8370],[100,8454],[100,8537],[100,8621],[100,8704],[100,8788],[100,8871],[100,8955],[100,9039],[100,9122],[100,9206],[100,9289],[100,9373],[100,9456],[100,9540],[100,9623],[100,9707],[100,9790],[100,9874],[100,9957],[100,10041],[100,10125],[100,10208],[100,10292],[100,10375],[100,10459],[100,10542],[100,10626],[100,10709],[100,10793],[100,10877],[100,10961],[100,11044],[100,11127],[100,11211],[100,11294],[100,11378],[100,11461],[100,11545],[100,11629],[100,11712],[100,11795],[100,11879],[100,11963],[100,12046],[100,12130],[100,12213],[100,12296],[100,12381],[100,12464],[100,12548],[100,12631],[100,12715],[100,12798],[100,12882],[100,12965],[100,13049],[100,13133],[100,13216],[100,13299],[100,13383],[100,13467],[100,13550],[100,13634],[100,13717],[100,13803],[100,13884],[100,13968],[100,14052],[100,14135],[100,14219],[100,14302],[100,14386],[100,14469],[100,14553],[100,14636],[100,14720],[100,14803],[100,14887],[100,14971],[100,15054],[100,15138],[100,15221],[100,15305],[100,15388],[100,15472],[100,15556],[100,15639],[100,15722],[100,15805],[100,15889],[100,15973],[100,16057],[100,16140],[100,16224],[100,16307],[100,16391],[100,16474],[100,16558],[100,16641],[100,16725],[100,16808],[100,16892],[100,16975],[100,17059],[100,17143]]",1,0,573.4751,577.0834,99.5,2.8308,"[{""rating"":99.5,""responseTime"":2.830799999996998}]",space,3.0887,,577.0835,Definitely yes,100,577.0854,,,[],,0,16,16,16,1,audio/Narrative8Situation7.wav,audio/Narrative7Situation7.wav,audio/Narrative6Situation7.wav,audio/Narrative5Situation7.wav,3,5,5,4,,,,,,,,,,,,,,,,,,,,,,,,,,,,,,,,,,,,,,,
,,,,,,58ae37d8e6afe00001d36ac9,2024-02-08_16h20.36.973,group3.1-3.2-social-tom,2023.2.2,Win32,60.24096386,65c5074098b851296ff0b7ed,65c5452b1d5e330b96e5beeb,,,,,,,,,,,,,,,,,,,,,,,,,,,,,577.0856,1,audio/Narrative7Situation8.wav,579.0887,,579.089,589.0975,"[[99.9,1001],[100,1085],[100,1168],[100,1252],[99.6,1336],[95,1420],[83.4,1503],[67.8,1587],[59.8,1671],[58.9,1754],[59.6,1838],[66.5,1921],[71.3,2005],[73.8,2088],[74.8,2171],[74.8,2255],[74.8,2338],[74.8,2422],[74.8,2506],[74.8,2589],[74.8,2673],[74.8,2756],[74.8,2840],[74.8,2923],[74.8,3007],[74.8,3090],[74.8,3174],[73,3258],[68.8,3341],[64.4,3425],[62.8,3509],[60.4,3592],[56.4,3676],[54.8,3759],[53.8,3843],[52.4,3926],[51.4,4009],[51.4,4093],[51.3,4177],[50.9,4260],[50.9,4344],[50.6,4427],[50.6,4510],[50.3,4595],[50.3,4678],[50.3,4761],[50.3,4845],[50.3,4928],[50.3,5012],[50.3,5095],[50.3,5179],[50.3,5263],[50.3,5346],[50.3,5430],[50,5513],[49.9,5597],[49.8,5680],[49.8,5764],[49.8,5847],[49.8,5931],[49.8,6014],[49.8,6098],[49.8,6181],[49.8,6265],[49.8,6348],[49.8,6432],[49.8,6515],[49.8,6599],[49.8,6682],[49.8,6766],[49.8,6850],[49.8,6933],[49.8,7017],[49.8,7100],[49.8,7184],[49.8,7267],[49.8,7351],[49.8,7434],[49.8,7518],[49.8,7601],[49.8,7685],[49.8,7768],[49.8,7852],[49.8,7936],[51,8019],[60.6,8103],[64.4,8187],[66.8,8270],[74.4,8354],[86,8437],[92.5,8521],[94.8,8604],[97.1,8688],[99.6,8771],[100,8855],[100,8938],[100,9022],[100,9105],[100,9189],[100,9272],[100,9356],[100,9439],[100,9523],[100,9606],[100,9690],[100,9774],[100,9857],[100,9941]]",1,0,589.0977,590.6509,99.75,0.6876,"[{""rating"":99.75,""responseTime"":0.6875999999978148}]",space,1.0225,,590.651,Partially,50,590.6539,,,[],,0,17,17,17,1,audio/Narrative8Situation8.wav,audio/Narrative7Situation8.wav,audio/Narrative6Situation8.wav,audio/Narrative5Situation8.wav,3,2,5,3,,,,,,,,,,,,,,,,,,,,,,,,,,,,,,,,,,,,,,,
,,,,,,58ae37d8e6afe00001d36ac9,2024-02-08_16h20.36.973,group3.1-3.2-social-tom,2023.2.2,Win32,60.24096386,65c5074098b851296ff0b7ed,65c5452b1d5e330b96e5beeb,,,,,,,,,,,,,,,,,,,,,,,,,,,,,590.6541,1,audio/Narrative7Situation9.wav,592.656,,592.6561,601.2785,"[[95.4,752],[87.6,835],[87.5,919],[87.5,1002],[87.5,1086],[91.9,1171],[96.4,1255],[96.9,1339],[97.1,1420],[97.4,1504],[97.6,1590],[98.4,1674],[99,1756],[99.5,1838],[99.8,1923],[99.8,2007],[99.8,2088],[99.8,2172],[99.8,2255],[99.8,2339],[99.8,2423],[99.8,2506],[99.8,2590],[99.8,2675],[100,2761],[100,2842],[100,2926],[100,3007],[100,3091],[100,3174],[100,3258],[100,3341],[100,3425],[100,3509],[100,3594],[100,3678],[100,3761],[100,3843],[100,3926],[100,4010],[100,4093],[100,4179],[100,4261],[100,4344],[100,4429],[100,4511],[100,4595],[100,4678],[100,4762],[100,4845],[100,4929],[100,5012],[100,5096],[100,5180],[100,5263],[100,5349],[100,5432],[100,5514],[100,5597],[100,5681],[100,5767],[100,5851],[100,5932],[100,6015],[100,6099],[100,6185],[100,6266],[100,6349],[100,6433],[100,6516],[100,6602],[100,6683],[100,6767],[100,6850],[100,6934],[100,7017],[100,7101],[100,7184],[100,7268],[100,7351],[100,7435],[100,7519],[100,7602],[100,7686],[100,7769],[100,7853],[100,7936],[100,8020],[100,8103],[100,8190],[100,8271],[100,8354],[100,8438],[100,8521],[100,8605]]",1,0,601.2789,604.4697,100,1.4678,"[{""rating"":98.875,""responseTime"":0.807800000000725},{""rating"":100,""responseTime"":1.4678000000006932}]",space,2.6624,,604.4699,Definitely yes,100,604.4758,,,[],,0,18,18,18,1,audio/Narrative8Situation9.wav,audio/Narrative7Situation9.wav,audio/Narrative6Situation9.wav,audio/Narrative5Situation9.wav,3,2,4,3,,,,,,,,,,,,,,,,,,,,,,,,,,,,,,,,,,,,,,,
,,,,,,58ae37d8e6afe00001d36ac9,2024-02-08_16h20.36.973,group3.1-3.2-social-tom,2023.2.2,Win32,60.24096386,65c5074098b851296ff0b7ed,65c5452b1d5e330b96e5beeb,,,,,,,,,,,,,,,,,,,,,,,,,,,612.4599,615.0298,615.0589,2,audio/Narrative13Situation2.wav,615.0589,,615.059,644.8049,"[[999,0],[999,70],[999,154],[999,237],[999,321],[999,404],[999,488],[999,571],[999,655],[999,739],[999,822],[999,906],[999,990],[999,1073],[999,1156],[50,1240],[50.1,1324],[50.4,1407],[50.6,1490],[50.6,1574],[50.5,1658],[50,1741],[49.8,1825],[49.8,1908],[49.8,1991],[49.8,2075],[49.8,2159],[49.8,2242],[49.8,2326],[49.8,2409],[47.4,2493],[40.8,2577],[36.9,2660],[35.9,2744],[31.5,2827],[28.5,2911],[25.3,2994],[22.2,3078],[20.3,3161],[19.4,3245],[19,3328],[18.9,3412],[18.8,3496],[17.5,3579],[15.8,3663],[15.8,3746],[15.6,3830],[15.3,3913],[15.3,3997],[14.9,4080],[14.6,4164],[14.4,4248],[14.1,4331],[13.6,4415],[13.3,4498],[12.5,4582],[11.5,4665],[11.3,4749],[11.3,4832],[11.3,4915],[11.3,5000],[11.3,5083],[11.3,5166],[11.3,5250],[10.9,5334],[10.8,5417],[10.5,5501],[10.4,5584],[10.3,5668],[10,5751],[9.9,5834],[9.6,5919],[9.4,6002],[8.9,6085],[8.1,6169],[7.6,6252],[7.3,6336],[7.1,6419],[7.1,6503],[7.1,6587],[7.1,6670],[7,6754],[7,6837],[7,6921],[6.9,7004],[6.8,7088],[6.8,7172],[6.8,7255],[6.8,7338],[6.8,7422],[6.8,7506],[6.8,7589],[6.8,7673],[6.8,7756],[6.8,7840],[6.8,7923],[6.8,8007],[9.8,8091],[14.8,8174],[29.5,8258],[43.9,8341],[47.6,8425],[50.8,8508],[52.5,8592],[52.6,8675],[52.6,8759],[52.6,8842],[52.6,8926],[52.6,9009],[52.6,9093],[52.6,9177],[52.6,9260],[53.3,9344],[57.4,9427],[59.3,9511],[59.3,9594],[60.3,9678],[66.3,9762],[72.5,9845],[76.1,9929],[82.3,10012],[88,10096],[93,10179],[97,10263],[98.3,10346],[98.8,10430],[98.8,10513],[98.8,10597],[99.4,10681],[99.5,10764],[99.6,10848],[99.8,10931],[99.8,11014],[99.8,11098],[99.8,11182],[99.8,11265],[99.8,11349],[99.8,11432],[99.8,11516],[99.8,11599],[99.8,11683],[99.8,11766],[99.8,11850],[99.8,11933],[99.8,12017],[99.8,12101],[99.8,12184],[99.8,12268],[99.8,12351],[99.8,12435],[99.8,12518],[99.8,12602],[99.8,12685],[99.8,12769],[99.8,12852],[99.8,12936],[99.8,13020],[99.8,13103],[99.8,13187],[99.8,13270],[99.8,13354],[99.8,13437],[99.8,13521],[99.8,13604],[99.8,13688],[99.8,13771],[99.8,13855],[99.8,13938],[99.8,14022],[99.8,14106],[99.8,14189],[99.8,14273],[99.8,14356],[99.8,14440],[99.8,14523],[99.8,14607],[99.8,14690],[99.8,14774],[99.8,14857],[99.8,14941],[99.8,15025],[99.8,15108],[99.8,15192],[99.8,15275],[99.8,15359],[99.8,15442],[99.8,15526],[99.8,15610],[99.8,15693],[99.8,15777],[99.8,15860],[99.8,15944],[99.8,16027],[99.8,16111],[99.8,16194],[99.8,16278],[99.8,16361],[99.8,16445],[99.8,16528],[99.8,16612],[99.8,16696],[99.8,16779],[99.8,16863],[99.8,16946],[99.8,17030],[99.8,17113],[99.8,17197],[99.8,17280],[99.8,17364],[99.8,17447],[99.8,17531],[99.8,17615],[99.8,17698],[99.8,17782],[99.8,17865],[99.8,17949],[99.8,18033],[99.8,18116],[99.8,18200],[99.8,18283],[99.8,18367],[99.8,18450],[99.8,18534],[99.8,18617],[99.8,18701],[99.8,18785],[99.8,18868],[99.8,18952],[99.8,19035],[99.8,19119],[99.8,19202],[99.8,19286],[99.8,19369],[99.8,19453],[99.8,19536],[99.8,19620],[99.8,19703],[99.8,19787],[99.8,19871],[99.8,19954],[99.8,20038],[99.8,20121],[99.8,20205],[99.8,20288],[99.8,20372],[99.8,20456],[99.8,20539],[99.8,20622],[99.8,20706],[99.8,20789],[99.8,20873],[99.8,20956],[99.8,21040],[99.8,21124],[99.8,21207],[99.8,21290],[99.8,21374],[99.8,21458],[99.8,21541],[99.8,21625],[99.8,21708],[99.8,21792],[99.8,21875],[99.8,21959],[99.8,22042],[99.8,22126],[99.8,22209],[99.8,22293],[99.8,22376],[99.8,22460],[99.8,22544],[99.8,22627],[99.8,22711],[99.8,22794],[99.8,22878],[99.8,22961],[99.8,23045],[99.8,23128],[99.8,23212],[99.8,23296],[99.8,23379],[99.8,23463],[99.8,23546],[99.8,23630],[99.8,23713],[99.8,23797],[99.8,23880],[99.8,23964],[99.8,24048],[99.8,24131],[99.8,24214],[99.8,24298],[99.8,24382],[99.8,24465],[99.8,24549],[99.8,24632],[99.8,24716],[99.8,24799],[99.8,24883],[99.8,24967],[99.8,25050],[99.8,25134],[99.8,25217],[99.8,25301],[99.8,25384],[99.8,25468],[99.8,25551],[99.8,25635],[99.8,25719],[99.8,25802],[99.8,25886],[99.8,25969],[99.8,26053],[99.8,26136],[99.8,26220],[99.8,26303],[99.8,26387],[99.8,26470],[99.8,26554],[99.8,26637],[99.8,26721],[99.8,26805],[99.8,26888],[99.8,26972],[99.8,27055],[99.8,27139],[99.8,27222],[99.8,27306],[99.8,27389],[99.8,27473],[99.8,27556],[99.8,27640],[99.8,27724],[99.8,27807],[99.8,27891],[99.8,27974],[99.8,28058],[99.8,28141],[99.8,28225],[99.8,28308],[99.8,28392],[99.8,28475],[99.8,28559],[99.8,28643],[99.8,28726],[99.8,28809],[99.8,28893],[99.8,28977],[99.8,29060],[99.8,29144],[99.8,29227],[99.8,29311],[99.8,29394],[99.8,29478],[99.8,29561],[99.8,29645],[99.8,29728]]",1,0,644.8052,644.8237,,,[],,,,644.8238,Not at all,0,644.8268,,,[],,0,0,0,0,1,audio/Narrative13Situation2.wav,audio/Narrative13Situation2.wav,audio/Narrative13Situation2.wav,audio/Narrative13Situation2.wav,2,2,2,2,,,,,604.478,612.4408,space,7.447,,,,,,,,,,,,,,,,,,,,,,,,,,,,,,,
,,,,,,58ae37d8e6afe00001d36ac9,2024-02-08_16h20.36.973,group3.1-3.2-social-tom,2023.2.2,Win32,60.24096386,65c5074098b851296ff0b7ed,65c5452b1d5e330b96e5beeb,,,,,,,,,,,,,,,,,,,,,,,,,,,,,644.8272,2,audio/Narrative6Situation1.wav,646.8456,,646.8457,673.4444,"[[99.4,2003],[98.5,2086],[98.5,2169],[98.5,2253],[98.5,2337],[98.5,2420],[98.5,2504],[98.5,2587],[98.5,2671],[98.5,2754],[98.5,2838],[98.5,2922],[98.5,3005],[93,3092],[73.4,3176],[44.5,3258],[26.9,3342],[18,3425],[14.9,3509],[13.5,3592],[12.9,3676],[12.9,3759],[12.9,3841],[12.9,3924],[12.9,4008],[12.9,4091],[12.9,4177],[12.9,4258],[12.9,4341],[12.9,4426],[12.9,4509],[12.9,4593],[12.9,4676],[12.9,4759],[12.9,4843],[12.9,4926],[12.9,5010],[12.9,5095],[12.9,5177],[12.9,5260],[12.9,5344],[12.9,5428],[12.9,5512],[12.9,5595],[12.9,5678],[12.9,5762],[12.9,5848],[12.9,5929],[12.9,6013],[12.9,6096],[12.9,6180],[12.9,6263],[12.9,6346],[12.9,6430],[12.9,6513],[13,6597],[14.4,6684],[16.3,6768],[17.8,6848],[36.8,6934],[41.1,7017],[50.9,7100],[57.6,7185],[64.6,7267],[70.9,7351],[78,7433],[83,7518],[89.4,7603],[93.8,7686],[96.5,7770],[97.3,7852],[97.8,7937],[98.1,8019],[99.1,8104],[99.6,8186],[100,8271],[100,8351],[100,8436],[100,8519],[100,8603],[100,8686],[100,8772],[100,8853],[100,8937],[100,9020],[100,9104],[100,9190],[100,9271],[100,9354],[100,9437],[100,9521],[100,9605],[100,9688],[100,9772],[100,9855],[100,9939],[100,10022],[100,10106],[100,10189],[100,10273],[100,10357],[100,10440],[100,10524],[100,10608],[100,10691],[100,10775],[100,10858],[100,10942],[100,11025],[100,11109],[100,11193],[100,11276],[100,11360],[100,11443],[100,11527],[100,11613],[100,11694],[100,11777],[100,11861],[100,11944],[100,12028],[100,12114],[100,12196],[100,12279],[100,12362],[100,12446],[100,12531],[100,12613],[100,12696],[99.8,12780],[96.3,12880],[93,12963],[88.4,13047],[78.5,13130],[73.3,13214],[69.1,13297],[66.8,13381],[64.8,13464],[63.1,13548],[59.8,13632],[58,13715],[56.6,13799],[55.5,13882],[55.3,13966],[54.6,14050],[54,14133],[53.6,14217],[52.4,14300],[50.6,14384],[49.4,14467],[47.4,14551],[46.6,14634],[45.8,14718],[43.9,14802],[41.6,14885],[39.6,14969],[37.9,15052],[37.4,15136],[37,15219],[36.1,15303],[35.8,15386],[35.8,15470],[35.8,15553],[35.3,15637],[34.4,15720],[33.6,15804],[32.8,15888],[32.3,15971],[31.3,16055],[30.8,16138],[29.9,16222],[29.8,16305],[29.4,16389],[29,16473],[28.6,16556],[28,16640],[27.6,16723],[27.4,16806],[27.1,16890],[27,16973],[27,17057],[26.9,17141],[26.5,17225],[26.5,17308],[26.5,17391],[26.4,17475],[25.9,17559],[25.6,17642],[25.6,17725],[25.6,17809],[25.6,17893],[25.6,17976],[25.6,18060],[25.6,18143],[25.6,18227],[25.6,18310],[25.4,18394],[25.1,18477],[24.8,18561],[24.6,18644],[24.4,18728],[24.3,18811],[24.3,18895],[24.3,18979],[24.3,19062],[24.3,19146],[24.3,19229],[24.3,19312],[24.3,19396],[24.3,19480],[24.3,19563],[24.3,19647],[24.3,19730],[24.3,19814],[24.3,19898],[24.3,19981],[23.8,20065],[23.6,20148],[23.4,20232],[23.4,20315],[23.3,20399],[23.3,20482],[23.1,20566],[23.1,20649],[23,20733],[22.6,20817],[22.5,20900],[22.4,20984],[22.4,21067],[22.4,21151],[22.4,21234],[22.4,21318],[22.4,21401],[23.4,21485],[30.3,21569],[42.9,21652],[46.3,21736],[51.6,21819],[55.4,21903],[61,21987],[66.9,22070],[74.1,22153],[75.4,22237],[75.4,22320],[75.4,22404],[75.4,22487],[75,22571],[74.9,22654],[74.9,22738],[74.9,22821],[75.8,22905],[76.1,22988],[76.1,23072],[75.4,23156],[74.6,23239],[73.4,23323],[72.8,23406],[72.8,23490],[72.8,23573],[72.8,23657],[72.8,23740],[73,23824],[73.4,23907],[73.5,23991],[73.5,24075],[73.4,24158],[72.6,24242],[70.6,24325],[68.9,24409],[68.1,24492],[65.9,24576],[61.1,24659],[59.8,24743],[59.8,24827],[59.8,24910],[59.8,24994],[62.6,25077],[65.8,25161],[69.5,25244],[69.9,25328],[69.9,25411],[69.9,25495],[69.9,25578],[69.9,25662],[69.9,25745],[69.9,25829],[69.9,25913],[69.9,25996],[69.9,26080],[69.9,26163],[69.9,26247],[69.9,26330],[69.9,26414],[70.6,26497],[71.6,26581]]",1,0,673.4449,680.5451,77.25,6.7518,"[{""rating"":74.5,""responseTime"":3.6391000000015765},{""rating"":77.25,""responseTime"":6.751800000000799}]",space,6.5698,,680.5452,Partially,50,680.5481,,,[],,0,1,1,1,1,audio/Narrative7Situation1.wav,audio/Narrative8Situation1.wav,audio/Narrative5Situation1.wav,audio/Narrative6Situation1.wav,2,5,5,2,,,,,,,,,,,,,,,,,,,,,,,,,,,,,,,,,,,,,,,
,,,,,,58ae37d8e6afe00001d36ac9,2024-02-08_16h20.36.973,group3.1-3.2-social-tom,2023.2.2,Win32,60.24096386,65c5074098b851296ff0b7ed,65c5452b1d5e330b96e5beeb,,,,,,,,,,,,,,,,,,,,,,,,,,,,,680.5485,2,audio/Narrative6Situation2.wav,683.5537,,683.5538,712.0585,"[[66.1,2773],[63.1,2856],[62.3,2940],[62.3,3023],[62.1,3107],[58.3,3190],[50.8,3274],[50.4,3357],[50.4,3440],[50.4,3524],[50.4,3608],[50.4,3691],[50.4,3775],[50.4,3858],[50.4,3942],[52,4026],[57.4,4109],[72,4192],[85.8,4276],[94.9,4360],[97.9,4443],[100,4527],[100,4610],[100,4694],[100,4777],[100,4861],[100,4944],[100,5028],[100,5111],[100,5195],[100,5279],[100,5362],[100,5446],[100,5530],[100,5613],[100,5697],[100,5780],[100,5864],[100,5947],[100,6031],[100,6114],[100,6198],[100,6281],[100,6365],[100,6449],[100,6532],[100,6616],[100,6699],[100,6783],[100,6866],[100,6950],[100,7034],[100,7117],[100,7201],[100,7284],[100,7368],[100,7451],[100,7535],[100,7618],[100,7702],[100,7786],[100,7870],[100,7952],[100,8036],[100,8119],[100,8203],[100,8286],[100,8370],[100,8453],[100,8537],[100,8620],[100,8704],[100,8787],[100,8871],[100,8954],[100,9038],[100,9122],[100,9205],[100,9289],[100,9372],[100,9456],[100,9539],[100,9623],[100,9706],[100,9790],[100,9873],[100,9957],[100,10041],[100,10124],[100,10208],[100,10291],[100,10375],[100,10458],[100,10542],[100,10625],[99.4,10709],[97.8,10793],[97.6,10876],[97.6,10960],[97.6,11043],[97.6,11127],[97.6,11210],[98.3,11294],[99.1,11378],[99.9,11461],[100,11544],[100,11628],[100,11711],[100,11795],[100,11879],[100,11962],[100,12046],[100,12129],[100,12213],[100,12296],[100,12380],[100,12464],[100,12547],[100,12631],[100,12714],[100,12798],[100,12881],[100,12965],[100,13048],[100,13132],[100,13215],[100,13299],[100,13382],[100,13466],[100,13550],[100,13633],[100,13717],[100,13800],[100,13884],[100,13967],[100,14051],[100,14134],[100,14218],[100,14301],[100,14385],[100,14469],[100,14552],[100,14636],[100,14719],[100,14803],[100,14886],[100,14970],[100,15053],[100,15137],[100,15220],[100,15304],[100,15387],[100,15471],[100,15555],[100,15638],[100,15722],[100,15805],[100,15889],[100,15972],[100,16056],[100,16139],[100,16223],[100,16307],[100,16390],[100,16474],[100,16557],[100,16641],[100,16724],[100,16808],[100,16892],[100,16975],[100,17059],[100,17142],[100,17226],[100,17309],[100,17393],[100,17477],[100,17560],[100,17644],[100,17727],[100,17811],[100,17894],[100,17978],[100,18061],[100,18145],[100,18228],[100,18312],[100,18395],[100,18479],[100,18562],[100,18646],[100,18730],[100,18813],[100,18897],[100,18980],[100,19064],[100,19147],[100,19231],[100,19314],[100,19398],[100,19481],[100,19565],[100,19648],[100,19732],[100,19815],[100,19899],[100,19983],[100,20066],[100,20150],[100,20233],[100,20317],[100,20400],[100,20484],[100,20567],[100,20651],[100,20735],[100,20818],[100,20902],[100,20985],[100,21069],[100,21153],[100,21236],[100,21320],[100,21403],[100,21487],[100,21570],[100,21654],[100,21737],[100,21821],[100,21904],[100,21988],[100,22071],[100,22155],[100,22239],[100,22322],[100,22406],[100,22489],[100,22573],[100,22656],[100,22740],[100,22823],[100,22907],[100,22991],[100,23074],[100,23158],[100,23241],[100,23325],[100,23408],[100,23492],[100,23575],[100,23659],[100,23742],[100,23826],[100,23909],[100,23993],[100,24077],[100,24160],[100,24244],[100,24327],[100,24411],[100,24494],[100,24578],[100,24661],[100,24745],[100,24829],[100,24912],[100,24996],[100,25079],[100,25163],[100,25246],[100,25330],[100,25413],[100,25497],[100,25580],[100,25664],[100,25747],[100,25831],[100,25915],[100,25998],[100,26082],[100,26165],[100,26249],[100,26332],[100,26416],[100,26500],[100,26583],[100,26666],[100,26750],[100,26834],[100,26917],[100,27001],[100,27084],[100,27168],[100,27251],[100,27335],[100,27418],[100,27502],[100,27585],[100,27669],[100,27752],[100,27836],[100,27920],[100,28003],[100,28087],[100,28170],[100,28253],[100,28337],[100,28421],[100,28504]]",1,0,712.0589,714.715,99.375,1.0886,"[{""rating"":99.375,""responseTime"":1.0885999999977685}]",space,2.1223,,714.7152,Partially,50,714.7171,,,[],,0,2,2,2,1,audio/Narrative7Situation2.wav,audio/Narrative8Situation2.wav,audio/Narrative5Situation2.wav,audio/Narrative6Situation2.wav,3,3,3,3,,,,,,,,,,,,,,,,,,,,,,,,,,,,,,,,,,,,,,,
,,,,,,58ae37d8e6afe00001d36ac9,2024-02-08_16h20.36.973,group3.1-3.2-social-tom,2023.2.2,Win32,60.24096386,65c5074098b851296ff0b7ed,65c5452b1d5e330b96e5beeb,,,,,,,,,,,,,,,,,,,,,,,,,,,,,714.7173,2,audio/Narrative6Situation3.wav,719.7282,,719.7284,732.3266,"[[98.8,935],[98.8,1018],[98.8,1102],[98.8,1186],[98.8,1269],[98.8,1353],[98.8,1436],[98.8,1520],[98.8,1603],[98.8,1687],[98.8,1770],[99.3,1854],[100,1937],[100,2021],[100,2105],[100,2188],[100,2272],[100,2355],[100,2439],[100,2522],[100,2606],[100,2689],[100,2773],[100,2856],[100,2940],[100,3023],[100,3107],[98.3,3191],[92.5,3275],[82.6,3358],[68.1,3442],[58.1,3525],[56,3609],[53,3692],[50.5,3776],[50.4,3859],[50.4,3942],[50.4,4026],[50.4,4110],[50.4,4193],[50.4,4277],[49.8,4361],[49.8,4443],[49.8,4527],[49.8,4611],[49.8,4694],[49.8,4778],[49.8,4861],[49.9,4945],[49.9,5028],[49.9,5112],[47.8,5196],[44.8,5279],[44.5,5363],[44.5,5446],[44.5,5530],[44.5,5613],[44.5,5697],[44.5,5781],[44.5,5864],[44.5,5947],[44.6,6031],[44.6,6114],[44.6,6198],[44.6,6282],[44.6,6365],[43.1,6449],[42.1,6533],[42,6616],[42,6699],[42.1,6783],[45.3,6867],[55.5,6950],[63.4,7034],[75.9,7118],[86.3,7201],[93.4,7284],[96.6,7368],[98.3,7451],[98.9,7535],[99.3,7619],[99.4,7702],[99.5,7785],[99.8,7869],[99.9,7952],[100,8036],[100,8119],[100,8203],[100,8287],[100,8370],[100,8454],[100,8537],[100,8621],[100,8704],[100,8788],[100,8871],[100,8955],[100,9039],[100,9122],[100,9206],[100,9289],[100,9373],[100,9456],[100,9540],[100,9623],[100,9707],[100,9790],[100,9874],[100,9958],[100,10041],[100,10125],[100,10208],[100,10292],[100,10375],[100,10459],[100,10542],[100,10626],[100,10709],[100,10793],[100,10877],[100,10960],[100,11044],[100,11127],[100,11211],[100,11294],[100,11378],[100,11461],[100,11545],[100,11628],[100,11712],[100,11796],[100,11879],[100,11963],[100,12046],[100,12130],[100,12213],[100,12297],[100,12380],[100,12464],[100,12547]]",1,0,732.3269,735.6191,100,2.3126,"[{""rating"":99,""responseTime"":1.5393000000008215},{""rating"":100,""responseTime"":2.3126000000015665}]",space,2.7712,,735.6192,Definitely yes,100,735.6262,,,[],,0,3,3,3,1,audio/Narrative7Situation3.wav,audio/Narrative8Situation3.wav,audio/Narrative5Situation3.wav,audio/Narrative6Situation3.wav,8,4,3,5,,,,,,,,,,,,,,,,,,,,,,,,,,,,,,,,,,,,,,,
,,,,,,58ae37d8e6afe00001d36ac9,2024-02-08_16h20.36.973,group3.1-3.2-social-tom,2023.2.2,Win32,60.24096386,65c5074098b851296ff0b7ed,65c5452b1d5e330b96e5beeb,,,,,,,,,,,,,,,,,,,,,,,,,,,,,735.6269,2,audio/Narrative6Situation4.wav,737.6404,,737.6405,750.2551,"[[100,252],[100,336],[100,420],[100,500],[100,586],[100,670],[100,753],[100,835],[99.9,919],[99.5,1004],[97.9,1088],[93.5,1169],[93,1253],[93,1336],[92.5,1423],[92.5,1503],[94.6,1591],[96,1670],[96.4,1755],[96.8,1839],[97,1922],[97,2004],[95.3,2091],[89.3,2174],[81.3,2257],[72,2340],[66.4,2423],[61,2508],[57,2591],[53.6,2676],[51.1,2756],[49.4,2841],[49,2927],[49,3007],[49,3090],[49.8,3177],[52.5,3259],[57,3345],[59.9,3425],[67.3,3510],[72.1,3591],[74.6,3678],[77.1,3759],[79.9,3842],[84.5,3929],[89.5,4013],[91.9,4094],[95,4178],[96.6,4262],[97,4343],[97.3,4429],[98,4513],[98.1,4594],[98.1,4677],[98.1,4761],[98.6,4848],[99.3,4931],[99.3,5012],[99.3,5096],[99.3,5179],[99.3,5265],[99.3,5348],[99.3,5430],[99.3,5513],[99.3,5597],[99.3,5680],[99.3,5764],[99.3,5847],[99.3,5931],[99.3,6014],[99.3,6098],[99.3,6182],[99.3,6265],[99.3,6349],[99.3,6433],[99.3,6515],[99.3,6599],[99.3,6682],[99.3,6766],[99.3,6850],[99.3,6933],[99.3,7016],[99.3,7100],[99.3,7185],[99.3,7267],[97.6,7354],[93.8,7436],[82.5,7521],[71,7603],[65.4,7687],[58.6,7770],[53.3,7854],[49.3,7937],[47.5,8021],[47.3,8102],[48,8188],[49,8271],[49,8353],[49,8437],[49,8520],[49,8604],[49,8687],[49,8771],[49,8854],[49,8938],[49,9022],[49.3,9110],[49.8,9192],[49.9,9275],[53.8,9359],[58.5,9442],[62.8,9527],[65.9,9608],[83.1,9693],[92.3,9775],[99.6,9860],[100,9944],[100,10026],[100,10108],[100,10192],[100,10275],[100,10360],[100,10442],[100,10526],[100,10609],[100,10693],[100,10776],[100,10860],[100,10944],[100,11027],[100,11110],[100,11196],[100,11278],[100,11361],[100,11445],[100,11528],[100,11614],[100,11696],[100,11780],[100,11864],[100,11945],[100,12029],[100,12113],[100,12196],[100,12280],[100,12364],[100,12448],[100,12532],[100,12614]]",1,0,750.2552,752.0769,99.625,0.6601,"[{""rating"":99.62500000000001,""responseTime"":0.660099999997783}]",space,1.275,,752.0771,Partially,50,752.0842,,,[],,0,4,4,4,1,audio/Narrative7Situation4.wav,audio/Narrative8Situation4.wav,audio/Narrative5Situation4.wav,audio/Narrative6Situation4.wav,3,3,1,2,,,,,,,,,,,,,,,,,,,,,,,,,,,,,,,,,,,,,,,
,,,,,,58ae37d8e6afe00001d36ac9,2024-02-08_16h20.36.973,group3.1-3.2-social-tom,2023.2.2,Win32,60.24096386,65c5074098b851296ff0b7ed,65c5452b1d5e330b96e5beeb,,,,,,,,,,,,,,,,,,,,,,,,,,,,,752.0848,2,audio/Narrative6Situation5.wav,754.0986,,754.0987,762.0695,"[[98.3,86],[98,168],[97.8,252],[96.6,335],[90.1,418],[77.5,503],[64.6,586],[55.4,670],[49.8,752],[49.3,836],[49.3,918],[49.3,1003],[49.3,1086],[49.3,1168],[50.6,1254],[53,1338],[53.6,1421],[53.8,1503],[54,1586],[54.8,1670],[66,1755],[76.5,1839],[86.5,1922],[96,2006],[100,2090],[100,2172],[100,2254],[100,2339],[100,2423],[100,2507],[100,2590],[100,2674],[100,2756],[100,2839],[100,2923],[100,3006],[100,3090],[100,3173],[100,3257],[100,3341],[100,3424],[100,3508],[100,3591],[100,3675],[100,3758],[100,3842],[100,3925],[100,4009],[100,4092],[100,4176],[100,4260],[100,4343],[100,4427],[100,4510],[100,4594],[100,4677],[100,4761],[100,4845],[100,4930],[100,5012],[100,5095],[100,5179],[100,5262],[100,5347],[100,5429],[100,5513],[100,5596],[100,5680],[100,5764],[100,5847],[100,5931],[100,6014],[100,6099],[100,6181],[100,6267],[100,6348],[100,6432],[100,6515],[100,6599],[100,6683],[100,6766],[100,6850],[100,6933],[100,7017],[100,7100],[100,7184],[100,7267],[100,7351],[100,7436],[100,7520],[100,7601],[100,7686],[100,7770],[100,7855],[100,7936]]",1,0,762.07,766.9143,50.625,2.8555,"[{""rating"":50.625,""responseTime"":2.8555000000000064}]",space,4.3021,,766.9145,Definitely yes,100,766.9218,,,[],,0,5,5,5,1,audio/Narrative7Situation5.wav,audio/Narrative8Situation5.wav,audio/Narrative5Situation5.wav,audio/Narrative6Situation5.wav,5,2,5,2,,,,,,,,,,,,,,,,,,,,,,,,,,,,,,,,,,,,,,,
,,,,,,58ae37d8e6afe00001d36ac9,2024-02-08_16h20.36.973,group3.1-3.2-social-tom,2023.2.2,Win32,60.24096386,65c5074098b851296ff0b7ed,65c5452b1d5e330b96e5beeb,,,,,,,,,,,,,,,,,,,,,,,,,,,,,766.9226,2,audio/Narrative6Situation6.wav,768.9362,,768.9363,780.0145,"[[48.8,751],[48.4,835],[48.3,919],[48.3,1002],[48.3,1085],[48.3,1169],[48.8,1252],[48.9,1336],[49,1419],[49.1,1503],[49.3,1586],[49.4,1670],[49.5,1754],[49.5,1837],[49.5,1921],[49.5,2004],[49.5,2088],[49.5,2171],[49.5,2254],[49.5,2338],[49.5,2422],[49.5,2505],[49.5,2589],[49.5,2673],[49.5,2756],[49.5,2840],[49.5,2923],[49.5,3007],[49.5,3090],[49.5,3174],[49.5,3257],[49.5,3341],[49.5,3425],[49.5,3508],[49.5,3592],[49.5,3675],[49.5,3759],[49.5,3842],[49.5,3926],[49.5,4009],[49.5,4093],[49.5,4176],[49.5,4260],[49.5,4343],[49.5,4427],[49.5,4510],[49.5,4594],[49.5,4677],[49.5,4761],[49.5,4845],[49.5,4928],[49.5,5012],[49.5,5095],[49.5,5179],[49.5,5262],[49.5,5346],[49.5,5429],[49.5,5513],[49.5,5597],[49.5,5680],[49.5,5764],[49.5,5847],[49.5,5931],[49.5,6014],[49.5,6098],[49.4,6194],[49.4,6265],[49.4,6349],[49.4,6434],[49.4,6515],[49.4,6600],[49.4,6682],[49.4,6766],[50.4,6850],[53.3,6936],[72.8,7020],[81.8,7102],[91.6,7185],[100,7269],[100,7353],[100,7436],[100,7518],[100,7604],[100,7688],[99.9,7769],[99.9,7852],[99.8,7939],[99.8,8020],[99.8,8103],[99.8,8187],[99.8,8270],[99.9,8353],[100,8439],[100,8523],[100,8607],[100,8690],[100,8771],[100,8855],[100,8938],[100,9022],[100,9108],[100,9190],[100,9274],[100,9356],[100,9439],[100,9525],[100,9607],[100,9690],[100,9774],[100,9857],[100,9942],[100,10025],[100,10108],[100,10192],[100,10275],[100,10359],[100,10442],[100,10526],[100,10612],[100,10693],[100,10777],[100,10860],[100,10944],[100,11027]]",1,0,780.0148,783.5573,100,2.9732,"[{""rating"":98.875,""responseTime"":2.210900000002198},{""rating"":100,""responseTime"":2.973199999999224}]",space,3.0155,,783.5575,Partially,50,783.5648,,,[],,0,6,6,6,1,audio/Narrative7Situation6.wav,audio/Narrative8Situation6.wav,audio/Narrative5Situation6.wav,audio/Narrative6Situation6.wav,3,2,3,2,,,,,,,,,,,,,,,,,,,,,,,,,,,,,,,,,,,,,,,
,,,,,,58ae37d8e6afe00001d36ac9,2024-02-08_16h20.36.973,group3.1-3.2-social-tom,2023.2.2,Win32,60.24096386,65c5074098b851296ff0b7ed,65c5452b1d5e330b96e5beeb,,,,,,,,,,,,,,,,,,,,,,,,,,,,,783.5655,2,audio/Narrative6Situation7.wav,788.5694,,788.5695,813.4182,"[[97,685],[92.1,769],[83.6,851],[77.8,934],[74.6,1018],[73.6,1102],[73.6,1185],[76,1269],[81.1,1352],[88.5,1436],[94.6,1520],[97,1603],[98.4,1687],[99,1770],[99,1854],[99,1937],[99,2021],[99,2104],[99,2188],[99,2271],[99,2355],[99,2438],[99,2522],[99,2605],[99,2689],[99,2772],[99,2856],[99,2940],[99.3,3024],[99.4,3107],[99.5,3191],[99.5,3274],[99.5,3357],[99.5,3441],[99.5,3524],[99.5,3608],[95.6,3692],[71,3775],[58.9,3859],[55.1,3942],[50.3,4026],[49.6,4110],[49.4,4193],[49.4,4276],[49.4,4360],[49.4,4443],[49.4,4527],[49.4,4610],[49.4,4694],[49.4,4777],[49.9,4861],[50.6,4945],[50.9,5028],[51,5112],[51.3,5195],[51.3,5279],[51.4,5362],[51.9,5446],[53.1,5529],[54.9,5613],[55.8,5697],[56.3,5780],[57,5864],[57.8,5947],[58.3,6031],[59,6115],[59.4,6198],[60.4,6282],[61.1,6365],[62.4,6449],[63.6,6532],[64.8,6616],[66.6,6699],[68.1,6783],[72.1,6866],[74.5,6950],[78.8,7033],[80.5,7117],[82.9,7201],[85.8,7284],[87.4,7367],[88.4,7451],[90,7535],[92.3,7618],[94,7702],[96.1,7786],[97.6,7869],[98.3,7953],[98.6,8035],[99,8119],[99.3,8203],[99.6,8287],[99.6,8370],[99.6,8453],[99.6,8537],[99.6,8621],[99.6,8704],[99.6,8788],[99.6,8871],[99.6,8955],[99.6,9038],[99.6,9122],[99.6,9205],[99.6,9289],[99.6,9373],[99.6,9456],[99.6,9540],[99.6,9623],[99.6,9707],[99.6,9790],[99.6,9874],[99.6,9957],[99.6,10041],[99.6,10124],[99.6,10208],[99.6,10292],[99.6,10375],[99.6,10458],[99.6,10542],[99.6,10626],[99.6,10709],[99.6,10793],[99.6,10876],[99.6,10960],[99.6,11043],[99.6,11127],[99.6,11211],[99.6,11294],[99.6,11377],[99.6,11461],[99.6,11544],[99.6,11628],[99.6,11712],[99.6,11795],[99.6,11879],[99.6,11962],[99.6,12046],[99.6,12129],[99.6,12213],[99.6,12297],[99.6,12380],[99.6,12464],[99.6,12547],[99.6,12631],[99.6,12714],[99.6,12798],[99.6,12881],[99.6,12965],[99.6,13048],[99.6,13132],[99.6,13216],[99.6,13299],[99.6,13383],[99.6,13466],[99.6,13550],[99.6,13633],[99.6,13717],[99.6,13800],[99.6,13884],[99.6,13967],[99.6,14051],[99.6,14135],[99.6,14218],[99.6,14302],[99.6,14385],[99.6,14469],[99.6,14552],[99.6,14636],[99.6,14719],[99.6,14803],[99.6,14886],[99.6,14970],[99.6,15053],[99.6,15137],[99.6,15221],[99.6,15304],[99.6,15387],[99.6,15471],[99.6,15555],[99.6,15638],[99.6,15722],[99.6,15806],[99.6,15889],[99.6,15973],[99.6,16056],[99.6,16140],[99.6,16223],[99.6,16307],[99.6,16390],[99.6,16474],[99.6,16557],[99.6,16641],[99.6,16725],[99.6,16808],[99.6,16892],[99.6,16975],[99.6,17059],[99.6,17142],[99.6,17226],[99.6,17309],[99.6,17393],[99.6,17476],[99.6,17560],[99.6,17644],[99.6,17727],[99.6,17811],[99.6,17894],[99.6,17978],[99.6,18061],[99.6,18145],[99.6,18228],[99.6,18312],[99.6,18395],[99.6,18479],[99.6,18563],[99.6,18646],[99.6,18730],[99.6,18813],[99.6,18897],[99.6,18980],[99.6,19064],[99.6,19147],[99.6,19231],[99.6,19314],[99.6,19398],[99.6,19481],[99.6,19565],[99.6,19649],[99.6,19732],[99.6,19816],[99.6,19899],[99.6,19983],[99.6,20066],[99.6,20150],[99.6,20234],[99.6,20317],[99.6,20400],[99.6,20485],[99.6,20568],[99.6,20651],[99.6,20735],[99.6,20818],[99.6,20902],[99.6,20985],[99.6,21069],[99.6,21153],[99.6,21236],[99.6,21320],[99.6,21403],[99.6,21487],[99.6,21570],[99.6,21654],[99.9,21739],[100,21823],[100,21904],[100,21990],[100,22072],[100,22157],[100,22239],[100,22322],[100,22406],[100,22493],[100,22574],[100,22656],[100,22740],[100,22823],[100,22908],[100,22994],[100,23074],[100,23158],[100,23241],[100,23325],[100,23410],[100,23492],[100,23575],[100,23659],[100,23742],[100,23826],[100,23910],[100,23993],[100,24077],[100,24160],[100,24245],[100,24327],[100,24411],[100,24494],[100,24578],[100,24664],[100,24745],[100,24828]]",1,0,813.4186,815.8051,99.25,1.1099,"[{""rating"":99.25,""responseTime"":1.1098999999985608}]",space,1.8395,,815.8052,Partially,50,815.8104,,,[],,0,7,7,7,1,audio/Narrative7Situation7.wav,audio/Narrative8Situation7.wav,audio/Narrative5Situation7.wav,audio/Narrative6Situation7.wav,5,3,4,5,,,,,,,,,,,,,,,,,,,,,,,,,,,,,,,,,,,,,,,
,,,,,,58ae37d8e6afe00001d36ac9,2024-02-08_16h20.36.973,group3.1-3.2-social-tom,2023.2.2,Win32,60.24096386,65c5074098b851296ff0b7ed,65c5452b1d5e330b96e5beeb,,,,,,,,,,,,,,,,,,,,,,,,,,,,,815.8111,2,audio/Narrative6Situation8.wav,820.8168,,820.8169,827.6846,"[[98.6,921],[98.4,1003],[98.4,1086],[98.4,1170],[98.4,1253],[98.4,1337],[98.6,1425],[99,1503],[99.3,1589],[99.3,1670],[99.3,1754],[99.3,1838],[97.1,1924],[86.6,2006],[76.3,2091],[52.8,2174],[47.8,2257],[44.4,2342],[43.4,2424],[42.4,2508],[41.8,2592],[41.1,2676],[40.9,2757],[40.9,2841],[40.3,2928],[39,3011],[36.8,3096],[34.4,3178],[31.5,3261],[28.5,3344],[26.8,3427],[25.1,3509],[23.8,3594],[22.2,3677],[21,3761],[20.4,3843],[20.4,3926],[20.3,4010],[20.3,4093],[20.3,4177],[20,4264],[18.8,4347],[18.1,4428],[18.1,4511],[18.1,4595],[18.1,4678],[18.1,4762],[18.1,4846],[18.1,4929],[18.1,5013],[18.1,5098],[18.1,5180],[18.1,5263],[18.1,5347],[18.1,5430],[17.6,5517],[17.4,5597],[17,5684],[16.5,5766],[15.9,5850],[15.6,5931],[15.4,6018],[15.1,6098],[15,6186],[15,6266],[15,6349],[15,6433],[15,6516],[15,6600],[15,6684],[15,6769],[15,6850]]",1,0,827.6848,832.1143,0,2.8337,"[{""rating"":2.374999999999999,""responseTime"":2.241800000000808},{""rating"":0,""responseTime"":2.8336999999993395}]",space,3.8939,,832.1145,Definitely yes,100,832.1184,,,[],,0,8,8,8,1,audio/Narrative7Situation8.wav,audio/Narrative8Situation8.wav,audio/Narrative5Situation8.wav,audio/Narrative6Situation8.wav,2,3,3,5,,,,,,,,,,,,,,,,,,,,,,,,,,,,,,,,,,,,,,,
,,,,,,58ae37d8e6afe00001d36ac9,2024-02-08_16h20.36.973,group3.1-3.2-social-tom,2023.2.2,Win32,60.24096386,65c5074098b851296ff0b7ed,65c5452b1d5e330b96e5beeb,,,,,,,,,,,,,,,,,,,,,,,,,,,,,832.1188,2,audio/Narrative6Situation9.wav,836.1226,,836.1227,846.0651,"[[32,335],[29.5,419],[28.4,503],[28.4,584],[28.4,668],[28.4,751],[28.4,835],[28.4,918],[28.4,1002],[28.4,1087],[28.4,1169],[28.4,1253],[28.4,1336],[28.4,1420],[28.4,1503],[28.4,1587],[26.5,1674],[22,1757],[19.5,1842],[19,1923],[17.8,2006],[17.1,2088],[17,2174],[17,2255],[14.3,2341],[10.6,2424],[7.4,2510],[6,2589],[4.3,2675],[3.1,2759],[2.3,2840],[1.8,2925],[1.4,3008],[1,3094],[0.8,3177],[0.4,3257],[0.4,3343],[0.4,3424],[0.4,3508],[0.4,3593],[0.4,3675],[0.4,3759],[0.4,3842],[0.4,3926],[0.4,4011],[0.4,4093],[0.4,4177],[0.4,4260],[0.4,4343],[0.4,4428],[0.4,4511],[0.4,4594],[0.4,4679],[0.4,4762],[0.4,4846],[0.4,4931],[0.4,5012],[0.4,5096],[0.4,5179],[0.4,5265],[0.4,5348],[0.4,5430],[0.4,5516],[0.4,5597],[0.4,5683],[0.4,5764],[0.4,5848],[0.4,5931],[0.4,6014],[0.4,6099],[0.4,6182],[0.4,6265],[0.4,6349],[0.4,6432],[0.4,6518],[0.4,6600],[0.4,6683],[0.4,6766],[0.4,6850],[0.4,6933],[0.4,7017],[0.4,7101],[0.4,7184],[0.4,7268],[0.4,7353],[0.4,7435],[0.4,7518],[0.4,7602],[0.4,7685],[0.4,7770],[0.4,7852],[0.4,7936],[0.4,8020],[0.4,8104],[0.4,8188],[0.4,8271],[0.4,8354],[0.4,8438],[0.4,8521],[0.4,8605],[0.4,8688],[0.4,8772],[0.4,8855],[0.4,8939],[0.4,9025],[0.4,9106],[0.4,9190],[0.4,9273],[0.4,9357],[0.4,9443],[0.4,9524],[0.4,9607],[0.4,9691],[0.4,9775],[0.4,9860],[0.4,9942]]",1,0,846.0655,848.8881,0.375,0.7595,"[{""rating"":0.37499999999999756,""responseTime"":0.7595000000000027}]",space,2.2875,,848.8882,Definitely yes,100,848.8901,,,[],,0,9,9,9,1,audio/Narrative7Situation9.wav,audio/Narrative8Situation9.wav,audio/Narrative5Situation9.wav,audio/Narrative6Situation9.wav,2,3,3,4,,,,,,,,,,,,,,,,,,,,,,,,,,,,,,,,,,,,,,,
,,,,,,58ae37d8e6afe00001d36ac9,2024-02-08_16h20.36.973,group3.1-3.2-social-tom,2023.2.2,Win32,60.24096386,65c5074098b851296ff0b7ed,65c5452b1d5e330b96e5beeb,,,,,,,,,,,,,,,,,,,,,,,,,,,,,848.8903,2,audio/Narrative5Situation1.wav,853.9008,,853.9009,867.1852,"[[1,518],[18.5,602],[30.9,686],[35.3,769],[37.3,852],[42.5,936],[42.3,1019],[35.1,1103],[33.9,1187],[33.4,1270],[32.1,1354],[21.3,1437],[11,1521],[14,1604],[97,2105],[95,2189],[95,2272],[95,2356],[94.5,2440],[80.1,2523],[54.5,2607],[49.1,2690],[47.4,2774],[44.9,2857],[44.9,2940],[44.9,3024],[44.9,3108],[44.9,3191],[44.1,3275],[37.1,3359],[33,3442],[33,3525],[32.9,3609],[32.6,3692],[32.6,3776],[32.6,3859],[32.6,3943],[32.6,4027],[32.6,4110],[32.6,4194],[32.6,4277],[32.6,4361],[32.6,4444],[32.6,4528],[32.6,4611],[32.9,4695],[33.3,4778],[33.5,4862],[33.5,4946],[33.5,5029],[33.5,5113],[30,5197],[29.5,5280],[29.5,5363],[29.4,5447],[23.3,5531],[20.5,5614],[20.5,5698],[20.5,5781],[20.5,5865],[20.6,5949],[21.4,6031],[21.4,6115],[21.4,6199],[21.4,6282],[21.4,6366],[21.4,6449],[21.4,6533],[21.4,6616],[21.4,6700],[21.4,6783],[21.4,6867],[21.4,6950],[21.4,7034],[21.4,7117],[21.4,7201],[21.4,7285],[21.4,7368],[21.4,7452],[21.4,7535],[21.4,7619],[21.4,7702],[21.4,7786],[21.4,7869],[21.4,7953],[21.4,8036],[21.4,8120],[21.4,8204],[21.4,8287],[20.9,8371],[20.8,8454],[20.8,8538],[20.5,8621],[20.5,8705],[20.3,8789],[20.1,8872],[20.1,8956],[20.1,9039],[20.1,9123],[20.1,9206],[20.1,9290],[20.1,9374],[20.1,9457],[20.1,9541],[20.1,9624],[20.1,9708],[20.1,9791],[20.1,9875],[20.1,9958],[20.1,10042],[20.1,10125],[20.1,10209],[20.1,10292],[20.1,10376],[20.1,10460],[20.1,10543],[20.1,10627],[20.1,10710],[20.1,10794],[20.6,10878],[22.2,10961],[24.9,11045],[28.1,11128],[30.1,11211],[31.9,11295],[37,11379],[40,11462],[42.3,11546],[44.4,11630],[45.5,11712],[47.3,11796],[48.5,11880],[49.9,11964],[50,12047],[50,12130],[50,12214],[50,12297],[50,12381],[50,12465],[50,12548],[50,12632],[50,12715],[50,12799],[50,12882],[50,12966],[50,13049],[50,13133],[50,13216]]",1,0,867.1855,868.989,50.25,0.7426,"[{""rating"":50.24999999999999,""responseTime"":0.7426000000015165}]",space,1.2673,,868.9891,Not at all,0,868.9918,,,[],,0,10,10,10,1,audio/Narrative8Situation1.wav,audio/Narrative7Situation1.wav,audio/Narrative6Situation1.wav,audio/Narrative5Situation1.wav,5,2,2,5,,,,,,,,,,,,,,,,,,,,,,,,,,,,,,,,,,,,,,,
,,,,,,58ae37d8e6afe00001d36ac9,2024-02-08_16h20.36.973,group3.1-3.2-social-tom,2023.2.2,Win32,60.24096386,65c5074098b851296ff0b7ed,65c5452b1d5e330b96e5beeb,,,,,,,,,,,,,,,,,,,,,,,,,,,,,868.9921,2,audio/Narrative5Situation2.wav,871.9968,,871.9969,901.4552,"[[50,1169],[47.9,1253],[47.9,1336],[47.9,1420],[47.9,1503],[47.9,1587],[49.1,1671],[49.3,1754],[49.4,1838],[49.4,1921],[49.4,2004],[49.5,2088],[49.5,2172],[49.9,2255],[51,2338],[51.6,2422],[52,2506],[52.3,2589],[52.6,2673],[53.8,2756],[55.5,2840],[57.5,2923],[58.3,3007],[58.6,3090],[58.9,3174],[58.9,3257],[58.9,3341],[58.9,3424],[58.9,3508],[60,3592],[60.3,3675],[60.3,3759],[60.3,3842],[60.3,3926],[60.3,4009],[60.3,4093],[60.3,4176],[60.3,4260],[60.3,4343],[60.3,4427],[60.3,4511],[60.3,4594],[60.3,4678],[58.9,4762],[58.5,4845],[58.5,4928],[58.5,5012],[61.1,5096],[63.5,5179],[66.1,5263],[70.1,5346],[75.1,5430],[82.3,5514],[86.5,5597],[90.9,5681],[93.1,5764],[96.6,5848],[99,5931],[100,6015],[100,6098],[100,6182],[100,6265],[100,6349],[100,6432],[100,6516],[100,6599],[100,6683],[100,6766],[100,6850],[100,6933],[100,7018],[99.6,7101],[97.3,7184],[92,7268],[78.3,7352],[67.5,7435],[60.5,7518],[56.6,7602],[53.4,7686],[51,7769],[51,7853],[51,7936],[51,8020],[51,8104],[52.6,8187],[60.5,8270],[62.9,8354],[70.4,8438],[74.5,8521],[75.9,8604],[76,8688],[76,8771],[76,8855],[76,8939],[76,9022],[76,9106],[76,9189],[76,9273],[76,9357],[76,9440],[76,9523],[76,9607],[76,9690],[76,9774],[75.8,9858],[75,9942],[74,10025],[73,10109],[72.4,10192],[71.3,10275],[71,10359],[70.9,10442],[70,10526],[66.4,10609],[60.5,10693],[57.3,10776],[57,10860],[57,10944],[57,11027],[56.1,11111],[55.4,11195],[53.9,11278],[52.9,11362],[52.3,11445],[51.5,11529],[51.5,11612],[51.5,11696],[51.5,11779],[53.3,11863],[54.5,11946],[54.8,12030],[55,12114],[55.5,12197],[56.5,12281],[56.9,12364],[56.9,12447],[56.9,12531],[57.1,12615],[60.6,12698],[65.1,12782],[70.8,12865],[79,12949],[82.8,13033],[93.1,13116],[96.1,13200],[97.9,13283],[98.6,13367],[98.6,13450],[98.6,13534],[98.9,13617],[98.9,13701],[98.9,13784],[98.9,13868],[98.9,13952],[98.9,14035],[98.9,14119],[98.9,14202],[99,14286],[99.5,14370],[99.5,14453],[99.5,14536],[99.5,14620],[99.5,14703],[99.5,14787],[99.5,14871],[99.5,14954],[99.5,15038],[99.5,15121],[99.5,15205],[99.5,15289],[99.5,15372],[99.5,15455],[99.5,15539],[99.5,15622],[99.5,15706],[99.5,15789],[99.5,15873],[99.5,15956],[99.5,16040],[99.5,16123],[99.5,16207],[99.5,16290],[99.5,16374],[99.5,16458],[99.5,16541],[99.5,16625],[99.5,16708],[99.5,16792],[99.5,16875],[99.5,16959],[99.5,17042],[99.5,17126],[99.5,17209],[99.5,17293],[99.5,17377],[99.5,17460],[99.5,17544],[99.5,17627],[99.5,17711],[99.5,17794],[100,17879],[100,17962],[100,18045],[100,18129],[100,18212],[100,18296],[100,18380],[100,18463],[100,18547],[100,18630],[100,18714],[100,18797],[100,18881],[100,18964],[100,19048],[100,19131],[100,19215],[100,19298],[100,19382],[100,19466],[100,19549],[100,19633],[100,19716],[100,19800],[100,19883],[100,19967],[100,20050],[100,20134],[100,20217],[100,20301],[100,20384],[100,20468],[100,20552],[100,20635],[100,20719],[100,20802],[100,20886],[100,20969],[100,21053],[100,21137],[100,21220],[100,21304],[100,21387],[100,21471],[100,21554],[100,21637],[100,21721],[100,21805],[100,21888],[100,21972],[100,22056],[100,22139],[100,22223],[100,22306],[100,22390],[100,22473],[100,22557],[100,22640],[100,22724],[100,22807],[100,22891],[100,22974],[100,23058],[100,23142],[100,23225],[100,23309],[100,23392],[100,23476],[100,23559],[100,23643],[100,23726],[100,23810],[100,23893],[100,23976],[100,24060],[100,24144],[100,24228],[100,24311],[100,24395],[100,24478],[100,24562],[100,24645],[100,24729],[100,24812],[100,24896],[100,24980],[100,25063],[100,25147],[100,25230],[100,25313],[100,25397],[100,25480],[100,25564],[100,25648],[100,25731],[100,25815],[100,25898],[100,25982],[100,26065],[100,26149],[100,26233],[100,26316],[100,26400],[100,26483],[100,26567],[100,26650],[100,26734],[100,26817],[100,26901],[100,26985],[100,27068],[100,27152],[100,27235],[100,27319],[100,27402],[100,27486],[100,27569],[100,27653],[100,27737],[100,27820],[100,27903],[100,27987],[100,28071],[100,28154],[100,28238],[100,28321],[100,28405],[100,28488],[100,28572],[100,28655],[100,28739],[100,28823],[100,28906],[100,28990],[100,29073],[100,29157],[100,29240],[100,29324],[100,29407]]",1,0,901.4556,904.3952,99.5,1.9772,"[{""rating"":99.5,""responseTime"":1.9772000000029948}]",space,2.4159,,904.3953,Definitely yes,100,904.3983,,,[],,0,11,11,11,1,audio/Narrative8Situation2.wav,audio/Narrative7Situation2.wav,audio/Narrative6Situation2.wav,audio/Narrative5Situation2.wav,3,3,3,3,,,,,,,,,,,,,,,,,,,,,,,,,,,,,,,,,,,,,,,
,,,,,,58ae37d8e6afe00001d36ac9,2024-02-08_16h20.36.973,group3.1-3.2-social-tom,2023.2.2,Win32,60.24096386,65c5074098b851296ff0b7ed,65c5452b1d5e330b96e5beeb,,,,,,,,,,,,,,,,,,,,,,,,,,,,,904.3987,2,audio/Narrative5Situation3.wav,907.4029,,907.4029,921.3051,"[[98.6,1420],[98.6,1503],[98.6,1587],[98.6,1670],[98.6,1754],[98.6,1837],[98.6,1921],[98.6,2004],[98.4,2088],[96.3,2172],[94.9,2255],[94,2338],[84.8,2423],[75.4,2506],[75,2590],[81.5,2673],[87.3,2757],[90.5,2840],[99.5,2924],[100,3007],[100,3091],[100,3174],[100,3258],[100,3341],[100,3425],[100,3509],[100,3592],[100,3676],[100,3759],[100,3842],[100,3927],[100,4010],[100,4093],[100,4177],[100,4260],[100,4344],[100,4427],[100,4511],[100,4594],[100,4678],[100,4762],[100,4845],[100,4929],[100,5012],[100,5096],[100,5179],[100,5263],[100,5346],[100,5430],[100,5514],[100,5597],[100,5681],[100,5764],[100,5848],[100,5931],[100,6015],[100,6098],[100,6182],[100,6265],[100,6349],[100,6432],[100,6516],[100,6599],[100,6683],[100,6767],[100,6850],[100,6934],[100,7018],[100,7101],[100,7185],[100,7269],[100,7351],[100,7435],[100,7519],[100,7602],[100,7686],[100,7769],[100,7853],[100,7936],[100,8020],[100,8103],[100,8187],[100,8271],[100,8355],[100,8438],[100,8521],[100,8605],[100,8688],[100,8772],[100,8855],[100,8939],[100,9022],[100,9106],[100,9189],[100,9273],[100,9357],[100,9440],[100,9524],[100,9607],[100,9691],[100,9774],[100,9858],[100,9942],[100,10025],[100,10109],[100,10192],[100,10276],[100,10359],[100,10443],[100,10526],[100,10610],[100,10693],[100,10777],[100,10860],[100,10944],[100,11028],[100,11111],[100,11195],[100,11278],[100,11362],[100,11445],[100,11529],[100,11612],[100,11696],[100,11779],[100,11863],[100,11947],[100,12030],[100,12113],[100,12197],[100,12281],[100,12365],[100,12448],[100,12531],[100,12615],[100,12698],[100,12782],[100,12865],[100,12949],[100,13033],[100,13116],[100,13200],[100,13284],[100,13367],[100,13450],[100,13534],[100,13617],[100,13701],[100,13784],[100,13868]]",1,0,921.3054,923.6441,99.5,1.5927,"[{""rating"":99.5,""responseTime"":1.5926999999992404}]",space,1.8069,,923.6442,Partially,50,923.6469,,,[],,0,12,12,12,1,audio/Narrative8Situation3.wav,audio/Narrative7Situation3.wav,audio/Narrative6Situation3.wav,audio/Narrative5Situation3.wav,4,8,5,3,,,,,,,,,,,,,,,,,,,,,,,,,,,,,,,,,,,,,,,
,,,,,,58ae37d8e6afe00001d36ac9,2024-02-08_16h20.36.973,group3.1-3.2-social-tom,2023.2.2,Win32,60.24096386,65c5074098b851296ff0b7ed,65c5452b1d5e330b96e5beeb,,,,,,,,,,,,,,,,,,,,,,,,,,,,,923.6472,2,audio/Narrative5Situation4.wav,924.6633,,924.6633,945.0488,"[[98.3,3097],[96.5,3175],[96.4,3258],[96.1,3341],[96.1,3425],[98.9,3509],[99.1,3592],[99.1,3676],[99,3759],[98.6,3843],[97.8,3927],[97.1,4010],[97.5,4094],[98.3,4177],[98.1,4260],[98,4344],[98,4428],[95.3,4511],[91.3,4595],[91.1,4678],[92.4,4762],[96.5,4846],[96.5,4929],[96.4,5012],[96.4,5096],[96.4,5179],[96.4,5263],[96.4,5346],[98.3,5430],[98.9,5513],[99.1,5597],[99.1,5681],[99.1,5764],[98.9,5848],[98.8,5931],[98.8,6015],[99,6098],[99.4,6182],[99.5,6265],[99.5,6349],[99.5,6432],[99.3,6516],[99.3,6599],[99,6683],[98.6,6767],[98.3,6850],[96.6,6934],[96.3,7017],[96,7101],[95.9,7184],[95.8,7268],[95.8,7351],[95.8,7435],[95.8,7518],[95.8,7602],[95.8,7685],[95.8,7769],[95.8,7853],[96.1,7936],[96.6,8020],[96.9,8103],[96.9,8187],[97.1,8270],[97.1,8354],[97.1,8438],[97.1,8521],[97.1,8605],[97.1,8689],[97.1,8772],[97.1,8856],[100,8940],[100,9023],[100,9106],[100,9190],[100,9273],[100,9356],[100,9440],[100,9524],[100,9607],[100,9691],[100,9774],[100,9858],[100,9941],[100,10025],[100,10109],[100,10192],[100,10275],[100,10359],[100,10442],[100,10526],[100,10610],[100,10693],[100,10777],[100,10860],[100,10944],[100,11027],[100,11111],[100,11194],[100,11278],[100,11362],[100,11445],[100,11529],[100,11612],[100,11696],[100,11779],[100,11863],[100,11947],[100,12030],[100,12114],[100,12197],[100,12281],[100,12364],[100,12448],[100,12532],[100,12615],[100,12699],[100,12782],[100,12866],[100,12949],[100,13033],[100,13116],[100,13200],[100,13284],[100,13367],[100,13451],[100,13534],[100,13618],[100,13701],[100,13785],[100,13868],[100,13952],[100,14035],[100,14119],[100,14202],[100,14286],[100,14370],[100,14453],[100,14537],[100,14620],[100,14704],[100,14787],[100,14871],[100,14954],[100,15038],[100,15122],[100,15205],[100,15289],[100,15372],[100,15456],[100,15539],[100,15623],[100,15706],[100,15790],[100,15873],[100,15957],[100,16041],[100,16124],[100,16208],[100,16291],[100,16375],[100,16458],[100,16542],[100,16626],[100,16709],[100,16792],[100,16876],[100,16960],[100,17043],[100,17127],[100,17210],[100,17294],[100,17377],[100,17461],[100,17544],[100,17628],[100,17711],[100,17795],[100,17879],[100,17962],[100,18046],[100,18129],[100,18213],[100,18296],[100,18380],[100,18463],[100,18547],[100,18630],[100,18714],[100,18798],[100,18881],[100,18964],[100,19048],[100,19132],[100,19215],[100,19299],[100,19382],[100,19466],[100,19549],[100,19633],[100,19716],[100,19800],[100,19884],[100,19967],[100,20050],[100,20134],[100,20218],[100,20301],[100,20385]]",1,0,945.0491,947.9053,100,2.1336,"[{""rating"":97.75,""responseTime"":1.6318000000005668},{""rating"":100,""responseTime"":2.133600000001479}]",space,2.3227,,947.9053,Partially,50,947.9072,,,[],,0,13,13,13,1,audio/Narrative8Situation4.wav,audio/Narrative7Situation4.wav,audio/Narrative6Situation4.wav,audio/Narrative5Situation4.wav,3,3,2,1,,,,,,,,,,,,,,,,,,,,,,,,,,,,,,,,,,,,,,,
,,,,,,58ae37d8e6afe00001d36ac9,2024-02-08_16h20.36.973,group3.1-3.2-social-tom,2023.2.2,Win32,60.24096386,65c5074098b851296ff0b7ed,65c5452b1d5e330b96e5beeb,,,,,,,,,,,,,,,,,,,,,,,,,,,,,947.9076,2,audio/Narrative5Situation5.wav,952.9186,,952.9187,968.3416,"[[100,4198],[100,4277],[100,4360],[100,4444],[100,4528],[100,4611],[100,4694],[100,4778],[99.1,4862],[98.8,4945],[98.4,5029],[98.4,5112],[98.3,5196],[85,5280],[63.6,5363],[57,5447],[46,5530],[42,5614],[37.9,5697],[35.5,5780],[35.5,5864],[34.4,5948],[32,6032],[31.6,6115],[29.6,6198],[28.9,6282],[28,6366],[25.3,6450],[23.9,6533],[23.6,6617],[22.5,6700],[21.5,6783],[20.6,6867],[20,6950],[19.6,7034],[19.6,7117],[19.6,7201],[19.6,7284],[19.6,7368],[19.6,7452],[19.6,7535],[19.6,7621],[19.6,7702],[19.6,7785],[19.6,7869],[19.6,7952],[19.6,8036],[19.6,8119],[19.6,8203],[19.6,8287],[19.6,8370],[19.6,8454],[19.6,8537],[19.6,8621],[19.6,8704],[19.6,8788],[19.6,8871],[19.6,8955],[19.6,9038],[19.6,9122],[19.6,9206],[19.6,9289],[19.6,9373],[19.6,9456],[19.6,9540],[19.6,9623],[19.6,9707],[19.6,9790],[19.6,9874],[19.6,9957],[19.6,10041],[19.6,10125],[19.6,10208],[19.6,10292],[19.6,10375],[19.6,10459],[19.6,10543],[19.6,10626],[19.6,10709],[19.6,10793],[19.6,10876],[19.6,10960],[19.6,11044],[19.6,11127],[19.6,11211],[19.6,11294],[19.6,11378],[19.6,11461],[19.6,11545],[19.6,11628],[19.6,11712],[19.6,11796],[19.6,11879],[19.6,11963],[19.6,12046],[19.6,12130],[19.6,12214],[19.6,12297],[19.6,12381],[19.8,12464],[20.1,12547],[20.1,12631],[20.1,12714],[19.9,12798],[16.4,12882],[14.9,12965],[14.3,13049],[13.6,13132],[13.6,13216],[13.6,13299],[13.6,13383],[13.6,13466],[13.6,13550],[13.6,13634],[13.6,13717],[13.6,13801],[13.6,13884],[13.6,13968],[14.1,14051],[21,14135],[31.4,14219],[34.4,14302],[35.9,14386],[35.9,14469],[35.9,14552],[33.6,14636],[32.5,14720],[31.8,14803],[31.6,14887],[31.5,14971],[30.6,15055],[29.1,15138],[28.9,15221],[28.5,15306],[28.5,15388]]",1,0,968.342,969.845,28,0.6261,"[{""rating"":28.000000000000004,""responseTime"":0.6261000000015429}]",space,0.9719,,969.8451,Not at all,0,969.848,,,[],,0,14,14,14,1,audio/Narrative8Situation5.wav,audio/Narrative7Situation5.wav,audio/Narrative6Situation5.wav,audio/Narrative5Situation5.wav,2,5,2,5,,,,,,,,,,,,,,,,,,,,,,,,,,,,,,,,,,,,,,,
,,,,,,58ae37d8e6afe00001d36ac9,2024-02-08_16h20.36.973,group3.1-3.2-social-tom,2023.2.2,Win32,60.24096386,65c5074098b851296ff0b7ed,65c5452b1d5e330b96e5beeb,,,,,,,,,,,,,,,,,,,,,,,,,,,,,969.8483,2,audio/Narrative5Situation6.wav,972.8523,,972.8523,978.5171,[],1,0,978.5174,982.5933,99.75,2.965,"[{""rating"":98.5,""responseTime"":2.430399999998599},{""rating"":99.75,""responseTime"":2.964999999999918}]",space,3.5444,,982.5933,Partially,50,982.5961,,,[],,0,15,15,15,1,audio/Narrative8Situation6.wav,audio/Narrative7Situation6.wav,audio/Narrative6Situation6.wav,audio/Narrative5Situation6.wav,2,3,2,3,,,,,,,,,,,,,,,,,,,,,,,,,,,,,,,,,,,,,,,
