exp_question,consent.started,consent.stopped,consentResponse.keys,consentResponse.rt,consentResponse.duration,participantID,date,expName,psychopyVersion,OS,frameRate,STUDY_ID,SESSION_ID,opening1.started,opening1.stopped,keyEndingOpening1.keys,keyEndingOpening1.rt,keyEndingOpening1.duration,volumeAdjust.started,volumeAdjust.stopped,endingAdjust.keys,endingAdjust.rt,endingAdjust.duration,opening2.started,opening2.stopped,keyEndingOpening.keys,keyEndingOpening.rt,keyEndingOpening.duration,mouse.x,mouse.y,mouse.leftButton,mouse.midButton,mouse.rightButton,mouse.time,instructionLoop.thisRepN,instructionLoop.thisTrialN,instructionLoop.thisN,instructionLoop.thisIndex,instructionLoop.ran,readyForAudio.started,readyForAudio.stopped,fixation.started,run,audio_played,fixation.stopped,endPractice.keys,audioPre.started,audioPre.stopped,continuousResponses_audio,continuousSlider.response,continuousSlider.rt,intRating.started,intRating.stopped,intQuestionSlider.response,intQuestionSlider.rt,intQuestionSlider.history,confirmResponse.keys,confirmResponse.rt,confirmResponse.duration,catchQuestion.started,catch_label,catch_value,catchQuestion.stopped,catchQuestionSlider.response,catchQuestionSlider.rt,catchQuestionSlider.history,confirmResponse_2.keys,confirmResponse_2.rt,confirmResponse_2.duration,audioRunLoop.thisRepN,audioRunLoop.thisTrialN,audioRunLoop.thisN,audioRunLoop.thisIndex,audioRunLoop.ran,conditions1_1,conditions2_1,conditions1_2,conditions2_2,dur1_1,dur2_1,dur1_2,dur2_2,endPractice.rt,endPractice.duration,runIntervalBreak.started,runIntervalBreak.stopped,endingBreakKey.keys,endingBreakKey.rt,endingBreakKey.duration,connection.started,connection.stopped,connectionEnding.keys,connectionEnding.rt,connectionEnding.duration,readyForText.started,readyForText.stopped,textPre.started,run_dup,textPre.stopped,continuousResponses_text,textRunLoop.thisRepN,textRunLoop.thisTrialN,textRunLoop.thisN,textRunLoop.thisIndex,textRunLoop.ran,text1_1,text1_2,text2_1,text2_2,runBreakText.started,runBreakText.stopped,endingBreakKey_2.keys,endingBreakKey_2.rt,endingBreakKey_2.duration,ending.started,ending.stopped,endingEnding.keys,endingEnding.rt,endingEnding.duration
tom,0.0002,11.4806,y,11.15,,58f7cdd4c31d4d00015aac83,2024-05-13_11h32.45.930,group3.1-3.2-social-tom,2023.2.2,Win32,59.88023952,65c5074098b851296ff0b7ed,6642326731f69ad65d0ea8bd,,,,,,,,,,,,,,,,,,,,,,,,,,,,,,,,,,,,,,,,,,,,,,,,,,,,,,,,,,,,,,,,,,,,,,,,,,,,,,,,,,,,,,,,,,,,,,,,,,,,,,,,,,
,,,,,,58f7cdd4c31d4d00015aac83,2024-05-13_11h32.45.930,group3.1-3.2-social-tom,2023.2.2,Win32,59.88023952,65c5074098b851296ff0b7ed,6642326731f69ad65d0ea8bd,11.4811,18.6472,space,7.1122,,,,,,,,,,,,,,,,,,,,,,,,,,,,,,,,,,,,,,,,,,,,,,,,,,,,,,,,,,,,,,,,,,,,,,,,,,,,,,,,,,,,,,,,,,,,,,,,,,,,,,
,,,,,,58f7cdd4c31d4d00015aac83,2024-05-13_11h32.45.930,group3.1-3.2-social-tom,2023.2.2,Win32,59.88023952,65c5074098b851296ff0b7ed,6642326731f69ad65d0ea8bd,,,,,,18.6475,59.0311,space,40.0507,,,,,,,,,,,,,,,,,,,,,,,,,,,,,,,,,,,,,,,,,,,,,,,,,,,,,,,,,,,,,,,,,,,,,,,,,,,,,,,,,,,,,,,,,,,,,,,,,
,,,,,,58f7cdd4c31d4d00015aac83,2024-05-13_11h32.45.930,group3.1-3.2-social-tom,2023.2.2,Win32,59.88023952,65c5074098b851296ff0b7ed,6642326731f69ad65d0ea8bd,,,,,,,,,,,59.0359,69.1644,space,10.106,,[],[],[],[],[],[],0,0,0,0,1,,,,,,,,,,,,,,,,,,,,,,,,,,,,,,,,,,,,,,,,,,,,,,,,,,,,,,,,,,,,,,,,,,,,,,,,,,,,,,,,
,,,,,,58f7cdd4c31d4d00015aac83,2024-05-13_11h32.45.930,group3.1-3.2-social-tom,2023.2.2,Win32,59.88023952,65c5074098b851296ff0b7ed,6642326731f69ad65d0ea8bd,,,,,,,,,,,69.1723,85.8465,space,16.5414,,[],[],[],[],[],[],1,0,1,0,1,,,,,,,,,,,,,,,,,,,,,,,,,,,,,,,,,,,,,,,,,,,,,,,,,,,,,,,,,,,,,,,,,,,,,,,,,,,,,,,,
,,,,,,58f7cdd4c31d4d00015aac83,2024-05-13_11h32.45.930,group3.1-3.2-social-tom,2023.2.2,Win32,59.88023952,65c5074098b851296ff0b7ed,6642326731f69ad65d0ea8bd,,,,,,,,,,,85.8549,103.5125,space,17.614,,[],[],[],[],[],[],2,0,2,0,1,,,,,,,,,,,,,,,,,,,,,,,,,,,,,,,,,,,,,,,,,,,,,,,,,,,,,,,,,,,,,,,,,,,,,,,,,,,,,,,,
,,,,,,58f7cdd4c31d4d00015aac83,2024-05-13_11h32.45.930,group3.1-3.2-social-tom,2023.2.2,Win32,59.88023952,65c5074098b851296ff0b7ed,6642326731f69ad65d0ea8bd,,,,,,,,,,,103.5213,113.8125,space,10.2654,,[],[],[],[],[],[],3,0,3,0,1,,,,,,,,,,,,,,,,,,,,,,,,,,,,,,,,,,,,,,,,,,,,,,,,,,,,,,,,,,,,,,,,,,,,,,,,,,,,,,,,
,,,,,,58f7cdd4c31d4d00015aac83,2024-05-13_11h32.45.930,group3.1-3.2-social-tom,2023.2.2,Win32,59.88023952,65c5074098b851296ff0b7ed,6642326731f69ad65d0ea8bd,,,,,,,,,,,113.8213,116.4457,p,2.6043,,[],[],[],[],[],[],4,0,4,0,1,,,,,,,,,,,,,,,,,,,,,,,,,,,,,,,,,,,,,,,,,,,,,,,,,,,,,,,,,,,,,,,,,,,,,,,,,,,,,,,,
,,,,,,58f7cdd4c31d4d00015aac83,2024-05-13_11h32.45.930,group3.1-3.2-social-tom,2023.2.2,Win32,59.88023952,65c5074098b851296ff0b7ed,6642326731f69ad65d0ea8bd,,,,,,,,,,,116.446,124.0958,space,7.6251,,[],[],[],[],[],[],5,0,5,0,1,,,,,,,,,,,,,,,,,,,,,,,,,,,,,,,,,,,,,,,,,,,,,,,,,,,,,,,,,,,,,,,,,,,,,,,,,,,,,,,,
,,,,,,58f7cdd4c31d4d00015aac83,2024-05-13_11h32.45.930,group3.1-3.2-social-tom,2023.2.2,Win32,59.88023952,65c5074098b851296ff0b7ed,6642326731f69ad65d0ea8bd,,,,,,,,,,,124.1047,136.4961,space,12.3704,,[],[],[],[],[],[],6,0,6,0,1,,,,,,,,,,,,,,,,,,,,,,,,,,,,,,,,,,,,,,,,,,,,,,,,,,,,,,,,,,,,,,,,,,,,,,,,,,,,,,,,
,,,,,,58f7cdd4c31d4d00015aac83,2024-05-13_11h32.45.930,group3.1-3.2-social-tom,2023.2.2,Win32,59.88023952,65c5074098b851296ff0b7ed,6642326731f69ad65d0ea8bd,,,,,,,,,,,,,,,,,,,,,,,,,,,136.5079,139.0792,139.1012,1,audio/Narrative13Situation2.wav,141.1132,,141.1137,170.8632,"[[999,1],[999,131],[999,215],[999,298],[999,382],[999,465],[999,548],[999,631],[999,715],[999,798],[999,882],[999,965],[999,1048],[999,1132],[50.2,1215],[50.6,1298],[50.6,1382],[50.6,1465],[50.6,1548],[50.6,1631],[50.6,1715],[50.6,1798],[50.6,1882],[50.6,1965],[50.6,2048],[50.6,2131],[50.6,2215],[50.6,2298],[50.6,2382],[50.6,2465],[50.6,2548],[50.6,2632],[50.6,2715],[50.6,2798],[50.6,2882],[50.6,2965],[50.6,3048],[50.6,3131],[50.6,3215],[50.6,3298],[50.6,3382],[50.6,3465],[50.7,3549],[52.7,3632],[54,3715],[55.8,3798],[55.8,3882],[55.8,3965],[55.8,4048],[55.8,4131],[55.9,4215],[55.9,4298],[55.9,4381],[55.9,4465],[55.9,4548],[55.9,4631],[55.9,4715],[55.9,4798],[55.9,4882],[55.9,4965],[55.9,5048],[55.9,5132],[55.9,5215],[55.9,5298],[55.9,5381],[55.9,5465],[55.9,5548],[55.9,5631],[55.9,5715],[55.9,5798],[55.9,5881],[55.9,5965],[55.9,6048],[56.1,6132],[56.3,6215],[56.3,6298],[56.3,6382],[56.3,6465],[56.3,6548],[56.3,6631],[56.3,6715],[56.3,6798],[56.3,6882],[56.3,6965],[56.3,7048],[56.3,7131],[56.3,7215],[56.3,7298],[56.3,7381],[56.3,7465],[56.3,7548],[56.3,7631],[56.3,7715],[56.3,7798],[56.4,7882],[56.5,7965],[56.5,8048],[56.5,8131],[56.5,8215],[56.5,8298],[56.9,8382],[57.1,8465],[57.2,8548],[57.9,8632],[58.5,8715],[58.6,8798],[60,8882],[60.4,8965],[60.8,9048],[60.9,9132],[60.9,9215],[60.9,9298],[60.9,9381],[60.9,9465],[61,9548],[61,9632],[61,9715],[61,9798],[61,9882],[61,9965],[61,10048],[61,10131],[61,10215],[61,10298],[61,10381],[61,10465],[61,10548],[60.8,10632],[60.8,10715],[60.8,10798],[60.8,10882],[61.4,10965],[62.1,11048],[62.4,11131],[62.9,11215],[62.9,11298],[62.9,11382],[62.9,11465],[62.9,11548],[62.9,11632],[62.9,11715],[62.9,11798],[62.9,11881],[62.9,11965],[62.9,12048],[62.9,12131],[62.9,12215],[62.9,12298],[63.2,12382],[63.2,12465],[63.2,12548],[63.2,12631],[63.2,12715],[63.2,12798],[63.2,12882],[63.2,12965],[63.2,13048],[63.2,13131],[63.2,13215],[63.2,13298],[63.2,13381],[63.2,13465],[63.2,13548],[63.2,13631],[63.2,13715],[63.2,13798],[63.2,13881],[63.2,13965],[63.2,14048],[63.2,14131],[63.2,14215],[63.2,14298],[63.2,14382],[63.2,14465],[63.2,14548],[63.2,14631],[63.2,14715],[63.2,14798],[62,14882],[60.9,14965],[60.7,15048],[56.5,15132],[47.8,15215],[47.2,15298],[46.4,15382],[41.6,15465],[37.7,15548],[36.3,15632],[35,15715],[34.9,15798],[34.9,15881],[34.9,15965],[34.4,16048],[32.4,16132],[32.2,16215],[32.1,16298],[31.4,16382],[30.5,16465],[29,16548],[28.5,16632],[28.5,16715],[28.5,16798],[28.5,16881],[28.5,16965],[28.5,17048],[28.5,17132],[28.5,17215],[28.5,17298],[28.5,17381],[28.5,17465],[28.5,17548],[28.5,17631],[28.5,17715],[28.4,17798],[28.4,17882],[28.4,17965],[28.4,18048],[28.3,18132],[27.6,18215],[26.9,18298],[26.9,18382],[26.9,18465],[26.9,18548],[26.9,18632],[26.9,18715],[26.9,18798],[26.9,18881],[26.9,18965],[26.9,19048],[26.9,19131],[26.9,19215],[26.9,19298],[26.9,19381],[26.9,19465],[26.9,19548],[26.9,19632],[26.6,19715],[25.9,19798],[23.4,19882],[21.3,19965],[20.1,20049],[19.7,20131],[19.7,20215],[19.7,20298],[19.7,20382],[19.7,20465],[19.7,20548],[19.7,20631],[19.7,20715],[19.7,20798],[19.7,20881],[19.7,20965],[19.7,21048],[19.7,21131],[19.7,21215],[19.7,21298],[19.7,21382],[19.7,21465],[19.7,21548],[19.7,21631],[19.7,21715],[19.7,21798],[19.7,21882],[19.7,21965],[19.7,22048],[19.7,22131],[19.7,22215],[19.7,22298],[19.7,22382],[19.7,22465],[19.7,22548],[19.8,22631],[19.8,22715],[19.8,22798],[19.8,22882],[19.8,22965],[19.8,23048],[19.8,23131],[19.8,23215],[19.8,23298],[19.8,23381],[19.8,23465],[19.8,23548],[19.8,23631],[19.9,23715],[20,23798],[20.4,23882],[21.3,23965],[25,24049],[29.9,24132],[32.5,24215],[44.2,24299],[50.7,24382],[52.7,24465],[60.1,24549],[70.4,24632],[76.3,24715],[76.6,24798],[76.9,24882],[77.3,24965],[77.3,25048],[77.3,25131],[77.3,25215],[77.3,25298],[77.3,25381],[77.3,25465],[77.3,25548],[77.3,25631],[77.3,25715],[77.3,25798],[77.3,25882],[77.3,25965],[77.3,26048],[77.3,26131],[77.3,26215],[77.3,26298],[77.3,26382],[77.3,26465],[77.3,26548],[77.3,26631],[77.3,26715],[77.3,26798],[77.3,26881],[77.3,26965],[77.3,27048],[77.3,27131],[77.3,27215],[77.3,27298],[77.3,27381],[77.3,27465],[77.3,27548],[77.3,27631],[77.3,27715],[77.3,27798],[77.3,27882],[77.3,27965],[77.3,28048],[77.3,28131],[77.4,28215],[77.6,28298],[77.6,28381],[77.8,28465],[78.8,28548],[79.7,28632],[80.1,28715],[80.5,28798],[80.6,28882],[80.6,28965],[81.6,29048],[82.2,29132],[82.4,29215],[82.4,29298],[82.4,29382],[82.4,29465],[82.4,29548],[82.4,29631],[82.4,29715]]",1,0,170.8645,182.3632,62.8125,10.1565,"[{""rating"":62.81250000000001,""responseTime"":10.156499999999994}]",space,10.9519,,182.364,All the time,100,187.363,100,3.2119,"[{""rating"":100,""responseTime"":3.2119000000003837}]",space,4.4556,,0,0,0,0,1,audio/Narrative13Situation2.wav,audio/Narrative13Situation2.wav,audio/Narrative13Situation2.wav,audio/Narrative13Situation2.wav,2,2,2,2,,,,,,,,,,,,,,,,,,,,,,,,,,,,,,,,,,,,,
,,,,,,58f7cdd4c31d4d00015aac83,2024-05-13_11h32.45.930,group3.1-3.2-social-tom,2023.2.2,Win32,59.88023952,65c5074098b851296ff0b7ed,6642326731f69ad65d0ea8bd,,,,,,,,,,,,,,,,,,,,,,,,,,,,,187.3639,1,audio/Narrative8Situation1.wav,190.7792,space,190.7792,206.7134,"[[999,1],[999,83],[999,166],[999,249],[999,333],[999,416],[999,500],[999,583],[999,667],[999,750],[999,833],[999,916],[51.1,1000],[50.5,1083],[50.3,1166],[50.3,1249],[50.3,1333],[50.3,1416],[50.3,1499],[50.3,1583],[50.3,1666],[50.3,1749],[50.3,1833],[50.3,1916],[50.3,1999],[50.3,2083],[50.3,2166],[50.3,2249],[50.3,2333],[50.3,2416],[50.3,2499],[50.3,2583],[50.3,2666],[50.3,2749],[50.3,2832],[50.3,2916],[50.3,2999],[50.3,3083],[50.3,3166],[50.3,3249],[50.3,3333],[50.3,3416],[50.3,3499],[50.3,3583],[50.3,3666],[50.3,3749],[50.3,3833],[50.3,3916],[50.3,3999],[49.9,4083],[49.3,4166],[49.3,4249],[49.3,4332],[49.3,4416],[49.3,4499],[48.4,4583],[47.8,4666],[47.6,4750],[47.2,4833],[47.1,4916],[46.9,4999],[46.7,5083],[46.5,5166],[46.1,5249],[46,5333],[45.7,5416],[44.4,5500],[41.3,5583],[39.2,5667],[38.3,5749],[38.2,5833],[37.1,5916],[34,6000],[32.9,6082],[32.9,6166],[35.2,6250],[51.6,6333],[59.2,6416],[59.7,6500],[61.1,6583],[66.1,6666],[66.1,6749],[66.1,6833],[65.2,6916],[61.5,7000],[60.9,7083],[60.9,7166],[60.9,7249],[60.9,7332],[60.9,7416],[60.9,7499],[60.9,7583],[60.9,7666],[60.9,7749],[60.9,7833],[60.9,7916],[60.9,7999],[60.9,8083],[60.9,8166],[60.9,8249],[60.9,8332],[60.9,8416],[60.9,8499],[60.9,8583],[60.9,8666],[60.9,8749],[60.9,8833],[60.9,8916],[60.9,8999],[60.9,9083],[60.9,9166],[60.9,9249],[60.9,9333],[60.9,9416],[60.9,9499],[60.9,9583],[60.9,9666],[60.9,9749],[60.4,9833],[60.2,9916],[60,10000],[58.2,10083],[56.5,10166],[56.4,10249],[56.4,10332],[56.4,10416],[54.2,10500],[53,10583],[53,10666],[53,10749],[53,10833],[53,10916],[53,10999],[53,11083],[53,11166],[53,11249],[53,11333],[53,11416],[53,11499],[53,11583],[53,11666],[53,11749],[52.9,11833],[52.9,11916],[52.9,11999],[52.9,12083],[52.9,12166],[52.9,12249],[52.9,12334],[52.9,12416],[52.9,12499],[52.9,12583],[52.9,12666],[52.8,12749],[52,12833],[51.4,12916],[51.4,12999],[51.4,13082],[51.4,13166],[51.4,13249],[51.4,13333],[51.4,13416],[50.9,13500],[47.9,13583],[43.2,13666],[40.3,13750],[37.6,13833],[31,13916],[21.9,14000],[15.9,14083],[15.1,14166],[12.9,14250],[10.2,14333],[6.8,14416],[6.5,14499],[6.5,14582],[6.5,14666],[6.5,14749],[6.5,14833],[6.5,14916],[6.5,14999],[6.5,15083],[6.5,15166],[6.5,15249],[7.2,15333],[10.2,15416],[19.3,15500],[19.8,15583],[19.8,15666],[26.3,15750],[48.3,15833],[60.1,15917]]",1,0,206.7142,214.6291,8.958333333,6.9252,"[{""rating"":8.958333333333336,""responseTime"":6.925200000001098}]",space,7.3769,,214.6292,Not at all,0,214.6335,,,[],,,,0,1,1,1,1,audio/Narrative7Situation1.wav,audio/Narrative8Situation1.wav,audio/Narrative5Situation1.wav,audio/Narrative6Situation1.wav,2,5,5,2,3.3911,,,,,,,,,,,,,,,,,,,,,,,,,,,,,,,,,,,,
,,,,,,58f7cdd4c31d4d00015aac83,2024-05-13_11h32.45.930,group3.1-3.2-social-tom,2023.2.2,Win32,59.88023952,65c5074098b851296ff0b7ed,6642326731f69ad65d0ea8bd,,,,,,,,,,,,,,,,,,,,,,,,,,,,,214.6337,1,audio/Narrative8Situation2.wav,217.646,,217.6461,227.7791,"[[999,8],[999,99],[999,182],[999,266],[999,349],[999,432],[999,516],[999,599],[999,683],[999,766],[999,849],[999,933],[999,1016],[999,1099],[999,1183],[999,1266],[999,1349],[999,1432],[999,1516],[999,1599],[50.3,1683],[50.3,1766],[50.3,1849],[50.3,1932],[50.1,2016],[48.5,2099],[48.1,2182],[48.1,2266],[48.1,2349],[48.1,2432],[48.1,2516],[48.1,2599],[48.1,2682],[48.1,2766],[48.1,2849],[48.1,2932],[48.1,3016],[48.1,3099],[48.1,3182],[48.1,3266],[48.1,3349],[48.1,3432],[48.1,3516],[48.1,3599],[48.1,3682],[48.1,3766],[48.1,3849],[48.1,3932],[48.2,4016],[49.2,4099],[49.9,4183],[50.6,4266],[50.6,4349],[50.8,4433],[54.5,4516],[59.5,4600],[62.9,4683],[63,4766],[63,4849],[63.8,4933],[65.2,5016],[65.2,5099],[65.2,5182],[65.2,5266],[66,5349],[66,5432],[66,5516],[66,5599],[66,5682],[66,5766],[66,5849],[66,5932],[65.7,6016],[64.6,6099],[64.4,6183],[61.7,6266],[60.2,6349],[60.2,6432],[60.2,6516],[60.2,6599],[60.2,6682],[60.2,6766],[60.2,6849],[60.2,6932],[60.2,7016],[60.2,7099],[60.2,7182],[60.2,7266],[60.2,7349],[60.2,7432],[60.2,7516],[60.2,7599],[60.2,7682],[60.2,7766],[60.1,7849],[60.1,7932],[60.1,8016],[60.1,8099],[60.1,8182],[60.1,8266],[60.1,8349],[60.1,8432],[60.1,8516],[60.1,8599],[60.1,8682],[60.1,8766],[60.1,8849],[60.2,8933],[61.6,9016],[64.7,9099],[68.2,9183],[70.1,9266],[70.1,9349],[70.4,9433],[74.1,9516],[75.5,9599],[76,9682],[76,9766],[76,9849],[76,9932],[76,10016],[76,10099]]",1,0,227.7793,235.0624,73.22916667,2.4777,"[{""rating"":73.22916666666667,""responseTime"":2.4777000000011355}]",space,6.7355,,235.0625,Half the time,50,235.0738,,,[],,,,0,2,2,2,1,audio/Narrative7Situation2.wav,audio/Narrative8Situation2.wav,audio/Narrative5Situation2.wav,audio/Narrative6Situation2.wav,3,3,3,3,,,,,,,,,,,,,,,,,,,,,,,,,,,,,,,,,,,,,
,,,,,,58f7cdd4c31d4d00015aac83,2024-05-13_11h32.45.930,group3.1-3.2-social-tom,2023.2.2,Win32,59.88023952,65c5074098b851296ff0b7ed,6642326731f69ad65d0ea8bd,,,,,,,,,,,,,,,,,,,,,,,,,,,,,235.0741,1,audio/Narrative8Situation3.wav,239.0791,,239.0792,261.4625,"[[999,7],[999,83],[999,166],[999,249],[999,333],[999,416],[999,499],[999,583],[999,666],[999,750],[999,833],[999,917],[999,1000],[49.2,1083],[49.3,1166],[49.3,1250],[47,1333],[32.5,1416],[18.6,1500],[18.6,1583],[18.6,1666],[18.6,1749],[18.6,1833],[17.9,1916],[14,2000],[13.4,2083],[13.4,2166],[13.4,2249],[12,2333],[8.9,2416],[8.8,2499],[8.8,2583],[8.8,2666],[8.6,2749],[8.6,2833],[8.6,2916],[8.6,2999],[8.6,3083],[8.6,3166],[8.6,3249],[8.6,3333],[8.6,3416],[8.6,3499],[8.6,3583],[9.3,3666],[9.4,3749],[9.4,3833],[9.7,3916],[15.6,4000],[25,4083],[58.9,4666],[58.8,4750],[58.8,4833],[59,4916],[59,4999],[59,5082],[59,5166],[59,5249],[59,5333],[59,5416],[59,5499],[59,5583],[59,5666],[59,5749],[59,5832],[59,5916],[59,5999],[59,6083],[59.1,6166],[59.4,6250],[60.1,6333],[60.5,6416],[60.5,6499],[60.5,6582],[60.5,6666],[60.5,6749],[60.5,6833],[60.5,6916],[60.5,6999],[60.5,7083],[61,7166],[61,7249],[61,7333],[61,7416],[61,7499],[61,7583],[61,7666],[61,7749],[61,7833],[61,7916],[61,7999],[61,8083],[61,8166],[61,8249],[61,8333],[61,8416],[61,8499],[61,8583],[61.7,8666],[64.2,8750],[68.2,8833],[69.6,8916],[69.9,8999],[71.1,9083],[71.5,9166],[71.5,9249],[71.5,9333],[71.5,9416],[71.5,9499],[70.4,9583],[70.2,9666],[70.1,9749],[70.1,9833],[70.1,9916],[70.1,9999],[67.2,10083],[62.8,10166],[62.2,10250],[58.2,10333],[54.6,10416],[52.5,10500],[51.6,10583],[51.5,10666],[50.3,10750],[47.3,10833],[46.8,10916],[46.8,10999],[46.8,11083],[46.8,11166],[46.8,11249],[46.8,11333],[46.8,11416],[46.8,11499],[46.8,11583],[46.8,11666],[46.8,11749],[46.8,11833],[46.8,11916],[46.8,11999],[46.8,12083],[46.8,12166],[46.8,12249],[46.8,12333],[46.8,12416],[46.8,12499],[46.8,12583],[46.8,12666],[46.8,12749],[46.8,12832],[46.8,12916],[46.8,12999],[46.8,13083],[46.8,13166],[46.8,13249],[46.8,13333],[46.8,13416],[48,13500],[50.4,13583],[51.5,13666],[51.9,13749],[52.2,13833],[53.2,13916],[53.6,13999],[53.9,14083],[54,14166],[54.4,14250],[54.6,14333],[54.6,14416],[54.6,14499],[54.6,14583],[54.6,14666],[54.6,14749],[54.6,14833],[54.6,14916],[54.6,14999],[54.6,15082],[55,15166],[55.9,15250],[56.8,15333],[57.6,15416],[57.7,15499],[57.7,15583],[57.7,15666],[57.7,15749],[57.7,15833],[57.7,15916],[57.7,15999],[57.7,16083],[57.7,16166],[57.7,16249],[57.7,16333],[57.7,16416],[57.7,16499],[57.8,16583],[57.8,16666],[57.9,16749],[57.9,16833],[57.9,16916],[57.9,16999],[57.9,17083],[57.9,17166],[57.9,17249],[57.9,17333],[57.9,17416],[58.2,17499],[58.2,17583],[58.2,17666],[58.2,17749],[58.3,17833],[58.3,17916],[58.4,18000],[58.9,18083],[59.2,18166],[59.6,18250],[59.7,18333],[59.9,18416],[59.9,18499],[60.3,18583],[61,18666],[61.4,18749],[61.5,18833],[61.5,18916],[61.5,18999],[61.5,19083],[61.6,19166],[61.6,19249],[61.6,19333],[61.6,19416],[61.6,19499],[61.6,19583],[61.6,19666],[61.6,19749],[61.6,19833],[61.6,19916],[61.6,19999],[61.6,20082],[61.6,20166],[61.6,20249],[61.6,20333],[61.6,20416],[61.6,20499],[61.6,20583],[61.6,20666],[61.6,20749],[61.6,20833],[61.6,20916],[61.6,20999],[61.6,21083],[61.6,21166],[61.6,21250],[61.6,21333],[61.6,21416],[61.6,21499],[61.6,21583],[61.6,21666],[62.1,21750],[62.5,21833],[62.6,21916],[62.6,21999],[62.6,22083],[62.6,22166],[62.6,22249],[62.6,22333]]",1,0,261.4628,266.8624,62.8125,2.2722,"[{""rating"":62.81250000000001,""responseTime"":2.272200000001135}]",space,4.8518,,266.8625,All the time,100,266.8668,,,[],,,,0,3,3,3,1,audio/Narrative7Situation3.wav,audio/Narrative8Situation3.wav,audio/Narrative5Situation3.wav,audio/Narrative6Situation3.wav,8,4,3,5,,,,,,,,,,,,,,,,,,,,,,,,,,,,,,,,,,,,,
,,,,,,58f7cdd4c31d4d00015aac83,2024-05-13_11h32.45.930,group3.1-3.2-social-tom,2023.2.2,Win32,59.88023952,65c5074098b851296ff0b7ed,6642326731f69ad65d0ea8bd,,,,,,,,,,,,,,,,,,,,,,,,,,,,,266.867,1,audio/Narrative8Situation4.wav,269.8791,,269.8791,284.0625,"[[999,8],[999,83],[999,166],[999,250],[999,333],[999,416],[999,500],[999,583],[52.6,667],[50.6,750],[46.1,833],[42.7,916],[42.5,1000],[37.1,1083],[28.5,1168],[25,1250],[22.7,1333],[22.3,1416],[22.3,1499],[22.2,1583],[21.4,1666],[21.1,1750],[21.1,1833],[21.1,1916],[21.1,2000],[21.1,2083],[21.1,2166],[21.1,2250],[21.1,2333],[21.1,2416],[21.1,2499],[21.1,2583],[21.1,2666],[21.1,2749],[20.8,2833],[10.1,2916],[4.6,3000],[4.6,3083],[4.6,3166],[6.6,3250],[12,3333],[12.9,3416],[13.1,3500],[16.4,3583],[20.7,3666],[22.2,3750],[22.3,3833],[22.4,3916],[22.3,3999],[22,4083],[22,4166],[21.9,4250],[21.9,4333],[21.9,4416],[21.9,4499],[19.5,4583],[8.8,5500],[8.8,5583],[8.5,5666],[8.5,5749],[8.5,5833],[8.5,5916],[8.5,6000],[8.5,6083],[8.8,6166],[9.1,6250],[13.1,6333],[15.7,6416],[15.8,6499],[15.8,6583],[15.8,6666],[15.8,6749],[16,6833],[17.2,6916],[18.4,7000],[19,7083],[19.1,7166],[19.1,7250],[19.1,7333],[19.1,7416],[19.1,7499],[19.1,7583],[19.1,7666],[19.1,7749],[19.1,7833],[19.1,7916],[19.1,7999],[19.1,8083],[19.1,8166],[19.1,8249],[19.1,8333],[19.1,8416],[19.2,8499],[19.2,8583],[19.2,8666],[19.3,8750],[19.3,8833],[19.3,8916],[19.6,9000],[20.7,9083],[22.8,9166],[25.7,9250],[28.6,9333],[32.7,9416],[34.4,9500],[35.1,9583],[35.3,9666],[35.3,9749],[36.6,9833],[40,9916],[43.9,10000],[44.9,10084],[44.9,10166],[44.9,10249],[45,10333],[45.1,10416],[45.1,10499],[45.1,10583],[45.1,10666],[45.4,10750],[45.4,10833],[45.4,10916],[44.9,11000],[42.4,11083],[42.1,11166],[42.1,11250],[42.1,11333],[42.1,11416],[42.1,11499],[42.3,11583],[44.2,11666],[45.2,11750],[46.1,11833],[46.5,11916],[46.9,12000],[47.4,12083],[47.7,12166],[49.7,12250],[50.7,12333],[50.7,12416],[50.7,12500],[50.7,12583],[50.7,12666],[50.7,12749],[50.7,12833],[50.9,12916],[53,13000],[53.8,13083],[53.8,13166],[53.8,13250],[53.8,13333],[53.8,13416],[53.8,13500],[53.8,13583],[53.8,13666],[53.8,13750],[53.8,13833],[53.8,13916],[53.8,14000],[53.8,14083],[53.8,14166]]",1,0,284.0626,288.8791,56.14583333,1.6376,"[{""rating"":56.14583333333333,""responseTime"":1.6375999999996225}]",space,4.2865,,288.8792,Half the time,50,288.883,,,[],,,,0,4,4,4,1,audio/Narrative7Situation4.wav,audio/Narrative8Situation4.wav,audio/Narrative5Situation4.wav,audio/Narrative6Situation4.wav,3,3,1,2,,,,,,,,,,,,,,,,,,,,,,,,,,,,,,,,,,,,,
,,,,,,58f7cdd4c31d4d00015aac83,2024-05-13_11h32.45.930,group3.1-3.2-social-tom,2023.2.2,Win32,59.88023952,65c5074098b851296ff0b7ed,6642326731f69ad65d0ea8bd,,,,,,,,,,,,,,,,,,,,,,,,,,,,,288.8832,1,audio/Narrative8Situation5.wav,290.896,,290.8961,299.1461,"[[56.5,82],[56.5,166],[52.5,667],[49.1,750],[48.8,832],[48.6,916],[48.6,999],[48.6,1082],[49.1,1166],[49.2,1249],[49.3,1332],[49.3,1416],[49.4,1499],[49.4,1583],[49.4,1666],[49.4,1749],[49.4,1832],[49.5,1916],[49.5,1999],[49.5,2082],[49.5,2166],[41.1,2250],[20.7,2333],[15.7,2416],[15.4,2499],[9,2583],[1.8,3083],[5,3166],[5.7,3249],[5.7,3332],[5.7,3416],[5.7,3499],[5.7,3583],[5.7,3666],[5.7,3749],[5.7,3833],[5.7,3916],[5.8,3999],[11.7,4083],[33.5,4166],[42.8,4250],[42.9,4333],[42.9,4416],[42.9,4499],[42.9,4582],[45.3,4666],[46.8,4749],[46.8,4832],[47.8,4916],[50.7,4999],[53.3,5083],[55.7,5166],[55.8,5249],[55.8,5333],[55.8,5416],[55.8,5499],[55.8,5582],[55.8,5666],[55.8,5749],[55.8,5832],[56.4,5916],[59.7,5999],[62.7,6083],[64.7,6166],[65.2,6249],[65.2,6332],[65.2,6416],[65.2,6499],[65.2,6582],[65.2,6666],[65.2,6749],[65.2,6832],[65.2,6916],[65.2,6999],[65.2,7083],[65.2,7166],[65.2,7249],[65.2,7332],[65.2,7416],[65.2,7499],[65.2,7582],[65.2,7666],[65.2,7749],[65.2,7832],[65.2,7916],[65.2,7999],[65.2,8082],[65.2,8166],[65.3,8249]]",1,0,299.1463,301.5958,81.5625,1.7453,"[{""rating"":77.1875,""responseTime"":1.255299999998897},{""rating"":81.5625,""responseTime"":1.7452999999988492}]",space,1.9041,,301.5959,Not at all,0,301.6003,,,[],,,,0,5,5,5,1,audio/Narrative7Situation5.wav,audio/Narrative8Situation5.wav,audio/Narrative5Situation5.wav,audio/Narrative6Situation5.wav,5,2,5,2,,,,,,,,,,,,,,,,,,,,,,,,,,,,,,,,,,,,,
,,,,,,58f7cdd4c31d4d00015aac83,2024-05-13_11h32.45.930,group3.1-3.2-social-tom,2023.2.2,Win32,59.88023952,65c5074098b851296ff0b7ed,6642326731f69ad65d0ea8bd,,,,,,,,,,,,,,,,,,,,,,,,,,,,,301.6008,1,audio/Narrative8Situation6.wav,303.6127,,303.6128,310.0957,"[[999,0],[999,82],[999,166],[999,249],[999,332],[999,416],[999,499],[999,582],[999,666],[999,749],[999,833],[999,916],[50.3,1000],[50.4,1083],[50.4,1166],[50.4,1249],[50.4,1332],[50.4,1416],[50.4,1499],[45.5,1583],[30.7,1666],[18.5,1750],[14.4,1833],[9.9,1916],[2.9,1999],[2.5,2082],[2.5,2166],[2.6,2249],[2.8,2333],[2.9,2416],[3,2499],[3,2582],[3,2666],[3,2749],[3,2832],[3,2916],[3,2999],[3,3082],[3,3166],[3,3249],[3,3332],[3,3416],[3,3499],[3.4,3583],[4.4,3666],[4.6,3749],[5,3833],[6.4,3916],[8.5,3999],[9.9,4083],[11.5,4166],[12.1,4249],[12.1,4332],[12.1,4416],[12.1,4499],[12.2,4582],[12.5,4666],[14.8,4750],[21.9,4833],[25.4,4916],[25.4,4999],[25.4,5082],[25.4,5166],[25.4,5249],[25.4,5332],[25.4,5416],[25.4,5499],[25.5,5583],[26.7,5666],[31.8,5750],[38.5,5833],[39.4,5916],[39.4,5999],[38.1,6083],[37.2,6166],[37.2,6249],[37.2,6332],[37.4,6416]]",1,0,310.0959,313.9294,59.79166667,3.3451,"[{""rating"":55.41666666666667,""responseTime"":2.6771000000015306},{""rating"":59.791666666666664,""responseTime"":3.34510000000148}]",space,3.2993,,313.9295,All the time,100,313.9333,,,[],,,,0,6,6,6,1,audio/Narrative7Situation6.wav,audio/Narrative8Situation6.wav,audio/Narrative5Situation6.wav,audio/Narrative6Situation6.wav,3,2,3,2,,,,,,,,,,,,,,,,,,,,,,,,,,,,,,,,,,,,,
,,,,,,58f7cdd4c31d4d00015aac83,2024-05-13_11h32.45.930,group3.1-3.2-social-tom,2023.2.2,Win32,59.88023952,65c5074098b851296ff0b7ed,6642326731f69ad65d0ea8bd,,,,,,,,,,,,,,,,,,,,,,,,,,,,,313.9334,1,audio/Narrative8Situation7.wav,316.9457,,316.9458,329.0458,"[[999,0],[999,83],[999,166],[999,249],[999,333],[999,416],[999,499],[999,583],[999,666],[999,749],[999,833],[999,916],[999,999],[999,1083],[999,1166],[999,1249],[999,1333],[999,1416],[999,1499],[999,1583],[999,1666],[999,1749],[999,1833],[999,1916],[999,1999],[999,2083],[999,2166],[999,2249],[999,2333],[999,2417],[999,2500],[999,2583],[999,2666],[999,2750],[999,2833],[999,2916],[999,3000],[999,3083],[999,3166],[999,3249],[999,3333],[999,3416],[999,3499],[999,3583],[999,3666],[999,3750],[999,3833],[999,3916],[999,3999],[999,4083],[999,4166],[999,4249],[999,4333],[999,4416],[999,4499],[999,4583],[999,4667],[999,4750],[51.9,4833],[55.9,4917],[60.4,5000],[60.5,5083],[60.9,5167],[61.7,5249],[61.7,5333],[61.7,5416],[61.7,5499],[61.7,5583],[62.5,5666],[62.8,5749],[62.8,5833],[64.3,5916],[67.5,6000],[68.1,6083],[68.1,6166],[68.1,6249],[68.1,6333],[68.1,6416],[68.1,6499],[68.1,6583],[67.9,6666],[66.4,6750],[63.4,6833],[61.8,6916],[61.8,6999],[61.4,7083],[54.7,7167],[51.8,7250],[51.7,7333],[47.9,7417],[32.6,7500],[31.4,7583],[31.7,7666],[40.4,7750],[46.3,7833],[46.3,7916],[46.3,7999],[46.3,8083],[46.3,8166],[46.3,8249],[46.3,8333],[46.3,8416],[47,8500],[48.5,8583],[51.1,8666],[53.4,8750],[53.9,8833],[53.9,8916],[53.9,8999],[53.9,9083],[53.9,9166],[53.9,9249],[53.9,9333],[53.9,9416],[53.9,9499],[53.9,9583],[53.9,9666],[53.9,9749],[53.9,9833],[53.9,9916],[53.9,9999],[53.9,10083],[53.9,10166],[53.9,10249],[53.9,10333],[54.2,10416],[59.8,10500],[64.8,10583],[64.8,10666],[65.1,10750],[65.3,10833],[65.3,10916],[65.3,10999],[65.3,11083],[65.3,11166],[65.3,11249],[65.3,11333],[65.3,11416],[65.3,11499],[65.3,11583],[65.3,11666],[65.3,11749],[65.3,11833],[65.3,11916],[65.3,12000],[65.3,12083]]",1,0,329.0459,334.1627,58.75,4.7789,"[{""rating"":50,""responseTime"":2.376000000000033},{""rating"":58.75,""responseTime"":4.7788999999985435}]",space,4.5795,,334.1628,All the time,100,334.1657,,,[],,,,0,7,7,7,1,audio/Narrative7Situation7.wav,audio/Narrative8Situation7.wav,audio/Narrative5Situation7.wav,audio/Narrative6Situation7.wav,5,3,4,5,,,,,,,,,,,,,,,,,,,,,,,,,,,,,,,,,,,,,
,,,,,,58f7cdd4c31d4d00015aac83,2024-05-13_11h32.45.930,group3.1-3.2-social-tom,2023.2.2,Win32,59.88023952,65c5074098b851296ff0b7ed,6642326731f69ad65d0ea8bd,,,,,,,,,,,,,,,,,,,,,,,,,,,,,334.1659,1,audio/Narrative8Situation8.wav,337.1791,,337.1791,350.0458,"[[999,8],[999,83],[999,166],[999,249],[999,333],[999,416],[999,500],[999,583],[999,666],[999,750],[999,833],[999,916],[999,999],[999,1083],[999,1166],[999,1250],[999,1333],[999,1416],[999,1500],[999,1583],[999,1666],[999,1749],[999,1833],[999,1916],[999,1999],[999,2083],[999,2166],[999,2249],[999,2333],[999,2416],[999,2499],[999,2583],[999,2666],[999,2749],[999,2833],[999,2916],[999,2999],[999,3083],[999,3166],[999,3249],[999,3333],[999,3416],[999,3500],[999,3583],[999,3666],[999,3749],[999,3833],[999,3916],[999,4000],[999,4083],[999,4166],[999,4250],[999,4333],[999,4416],[999,4500],[999,4583],[999,4666],[999,4749],[999,4833],[999,4916],[999,4999],[999,5083],[999,5166],[999,5250],[999,5333],[999,5416],[999,5500],[999,5583],[37.9,5666],[37.2,5750],[36.8,5833],[36.8,5916],[36.8,5999],[36.8,6083],[36.8,6166],[38.3,6250],[45.1,6333],[49.8,6416],[50.4,6500],[52.8,6583],[57.5,6666],[57.8,6749],[57.8,6833],[57.8,6916],[57.8,6999],[58.5,7083],[59.2,7166],[59.3,7250],[59.3,7333],[59.3,7416],[59.3,7500],[59.3,7583],[59.3,7666],[59.3,7750],[59.3,7833],[59.3,7916],[59.3,7999],[59.3,8083],[59.3,8166],[59.3,8249],[59.3,8333],[59.3,8416],[59.3,8500],[59.3,8583],[59.3,8666],[59.3,8749],[59.3,8833],[59.3,8916],[59.3,8999],[59.3,9083],[59.3,9166],[59.3,9250],[59.3,9333],[59.4,9416],[60.2,9500],[61,9583],[61.8,9666],[61.8,9750],[61.8,9833],[61.8,9916],[61.8,9999],[61.8,10083],[61.8,10166],[61.8,10249],[61.8,10333],[61.8,10416],[61.8,10500],[61.8,10583],[61.8,10666],[61.8,10750],[61.8,10833],[61.8,10916],[61.8,10999],[61.8,11083],[61.8,11166],[61.8,11250],[61.8,11333],[61.8,11416],[61.8,11499],[61.8,11583],[61.8,11666],[61.8,11750],[61.8,11833],[62,11916],[66.3,12000],[69.8,12083],[70.2,12166],[70.3,12249],[70.3,12333],[70.3,12416],[71,12500],[75.3,12583],[76.4,12666],[76.4,12749],[76.4,12833]]",1,0,350.0459,355.1464,14.16666667,4.5082,"[{""rating"":42.91666666666667,""responseTime"":3.154700000001071},{""rating"":32.08333333333333,""responseTime"":3.9420999999995843},{""rating"":14.166666666666666,""responseTime"":4.508200000001068}]",space,4.5751,,355.1464,Half the time,50,355.1504,,,[],,,,0,8,8,8,1,audio/Narrative7Situation8.wav,audio/Narrative8Situation8.wav,audio/Narrative5Situation8.wav,audio/Narrative6Situation8.wav,2,3,3,5,,,,,,,,,,,,,,,,,,,,,,,,,,,,,,,,,,,,,
,,,,,,58f7cdd4c31d4d00015aac83,2024-05-13_11h32.45.930,group3.1-3.2-social-tom,2023.2.2,Win32,59.88023952,65c5074098b851296ff0b7ed,6642326731f69ad65d0ea8bd,,,,,,,,,,,,,,,,,,,,,,,,,,,,,355.1506,1,audio/Narrative8Situation9.wav,358.1624,,358.1624,369.4957,"[[999,0],[999,83],[999,166],[999,250],[999,333],[999,416],[999,499],[999,583],[999,666],[999,750],[999,833],[999,916],[999,1000],[999,1083],[999,1166],[999,1249],[999,1333],[999,1416],[999,1500],[999,1583],[999,1666],[999,1750],[999,1833],[999,1916],[999,2000],[999,2083],[999,2166],[999,2249],[999,2333],[999,2416],[999,2499],[999,2583],[999,2666],[999,2749],[999,2833],[999,2916],[999,3000],[999,3083],[999,3166],[999,3249],[999,3333],[999,3416],[999,3499],[999,3583],[999,3666],[999,3749],[999,3833],[999,3916],[999,4000],[999,4083],[999,4166],[999,4249],[999,4333],[999,4416],[999,4500],[999,4583],[999,4666],[999,4749],[999,4833],[999,4916],[999,5000],[999,5083],[999,5167],[999,5250],[999,5333],[999,5416],[999,5500],[999,5583],[999,5666],[999,5750],[999,5833],[60.3,5916],[58.5,6000],[58.3,6083],[58.4,6166],[58.4,6249],[58.4,6333],[58.6,7000],[54.3,7083],[53.9,7166],[53.6,7249],[53.5,7333],[53.4,7416],[53.4,7500],[53.4,7583],[53.3,7666],[53.3,7749],[53.3,7833],[53.3,7916],[53.3,7999],[53.3,8083],[53.3,8166],[53.3,8249],[53.3,8333],[53.3,8416],[53.3,8499],[53.3,8583],[53.3,8666],[53.3,8750],[53.3,8833],[53.3,8916],[53.3,9000],[53.6,9083],[58.9,9167],[65.9,9250],[71,9333],[72.5,9416],[72.7,9500],[73.5,9583],[73.5,9666],[73.5,9749],[73.5,9833],[73.5,9916],[73.5,9999],[73.5,10083],[73.2,10166],[71,10250],[64.7,10333],[61.7,10417],[59.8,10500],[58.2,10583],[55.5,10666],[55.2,10750],[55.1,10833],[55.1,10916],[54.6,11000],[50,11083],[38.8,11166],[32.8,11250],[32.8,11333]]",1,0,369.496,371.4128,43.33333333,1.5876,"[{""rating"":38.4375,""responseTime"":1.0640000000000214},{""rating"":43.333333333333336,""responseTime"":1.587599999999668}]",space,1.3736,,371.4129,Half the time,50,371.4161,,,[],,,,0,9,9,9,1,audio/Narrative7Situation9.wav,audio/Narrative8Situation9.wav,audio/Narrative5Situation9.wav,audio/Narrative6Situation9.wav,2,3,3,4,,,,,,,,,,,,,,,,,,,,,,,,,,,,,,,,,,,,,
,,,,,,58f7cdd4c31d4d00015aac83,2024-05-13_11h32.45.930,group3.1-3.2-social-tom,2023.2.2,Win32,59.88023952,65c5074098b851296ff0b7ed,6642326731f69ad65d0ea8bd,,,,,,,,,,,,,,,,,,,,,,,,,,,,,371.4163,1,audio/Narrative7Situation1.wav,373.4291,,373.4291,429.3296,"[[999,0],[999,83],[999,166],[999,250],[999,333],[999,416],[999,500],[999,583],[999,666],[999,750],[999,833],[999,916],[999,1000],[999,1083],[999,1167],[999,1250],[999,1333],[999,1416],[999,1500],[999,1583],[999,1666],[999,1750],[0.1,2166],[0.1,2250],[0.1,2333],[0.1,2416],[0.1,2500],[4.1,8171],[7.4,8254],[7.5,8333],[7.5,8421],[7.5,8503],[7.5,8585],[7.5,8666],[7.5,8753],[7.5,8837],[7.5,8917],[7.5,9000],[9,9089],[9.4,9170],[9.4,9253],[9.4,9335],[9.4,9416],[9.4,9503],[9.4,9588],[9.4,9666],[9.4,9750],[9.4,9833],[9.4,9916],[10,10005],[13.8,10088],[13.9,10166],[14,10254],[14,10333],[14,10416],[14,10500],[14.3,10588],[15.3,10671],[15.5,10750],[15.8,10834],[15.9,10920],[16,11000],[16.3,11083],[16.4,11166],[16.4,11250],[16.4,11333],[16.6,11421],[17.3,11504],[18.1,11587],[19.6,11671],[20.2,11754],[20.2,11833],[20.2,11916],[20.4,12000],[20.4,12083],[20.9,12171],[21.5,12254],[21.8,12334],[22.4,12422],[23.4,12504],[23.6,12583],[23.6,12666],[23.6,12750],[23.6,12833],[23.6,12916],[23.6,13000],[23.6,13083],[23.6,13166],[23.6,13250],[23.6,13333],[22.2,13421],[22,13500],[22,13583],[22,13666],[20.4,13755],[18.6,13838],[18.5,13916],[18.5,14000],[18.5,14083],[18.5,14166],[18.5,14250],[18.5,14337],[18.5,14416],[18.5,14500],[18.5,14583],[18.5,14666],[18.5,14750],[18.5,14833],[18.5,14916],[18.5,15000],[18.5,15083],[18.5,15166],[18.5,15250],[18.5,15333],[18.8,15421],[18.9,15500],[18.9,15583],[18.9,15666],[19,15754],[19,15837],[19.2,15921],[19.8,16004],[20.7,16088],[21.8,16171],[22.7,16255],[23.1,16337],[23.3,16420],[23.3,16504],[23.5,16588],[24.2,16670],[24.4,16750],[24.5,16833],[24.7,16920],[24.9,17000],[25,17083],[25,17166],[25,17250],[25,17337],[25,17416],[25,17500],[25,17583],[25,17666],[25,17750],[25,17833],[25,17920],[25,18000],[25,18083],[25,18166],[25,18250],[25,18337],[25,18416],[25,18500],[25,18587],[25,18666],[25,18750],[25,18833],[25.4,18921],[25.9,19004],[27.8,19088],[34.6,19172],[39,19254],[39.5,19338],[40.5,19420],[40.5,19500],[40.5,19587],[40.5,19666],[37.9,19755],[34.7,19838],[34.5,19916],[32.6,20004],[31.1,20088],[30.1,20171],[27.1,20254],[26.9,20335],[27.4,20418],[32.3,20506],[34.7,20587],[34.7,20666],[33.2,20755],[32.4,20838],[32.4,20916],[32.4,21000],[31.7,21088],[30.5,21171],[29.9,21254],[29.9,21333],[29.9,21420],[29.9,21500],[29.9,21587],[29.9,21668],[29.9,21750],[29.9,21837],[29.9,21916],[29.9,22003],[29.9,22087],[29.9,22166],[29.9,22250],[29.9,22333],[29.9,22420],[29.9,22504],[29.9,22583],[29.9,22666],[29.9,22750],[29.9,22833],[29.9,22916],[29.9,23000],[29.9,23083],[29.9,23166],[29.9,23250],[29.9,23333],[29.9,23416],[29.9,23500],[29.9,23583],[29.9,23666],[29.9,23750],[29.9,23833],[29.9,23916],[29.9,24003],[29.9,24083],[29.9,24170],[29.9,24250],[29.9,24333],[29.9,24420],[29.9,24502],[29.9,24587],[29.9,24666],[29.9,24750],[29.9,24833],[29.9,24920],[29.9,25004],[29.9,25083],[29.9,25166],[29.9,25250],[29.9,25333],[29.9,25420],[29.9,25500],[29.9,25583],[29.9,25670],[29.9,25750],[29.9,25835],[29.9,25920],[29.9,26000],[29.9,26087],[29.9,26166],[29.9,26250],[29.9,26333],[29.9,26420],[29.9,26503],[29.9,26583],[29.9,26670],[29.9,26750],[29.9,26833],[29.9,26916],[29.9,27003],[29.9,27083],[29.9,27166],[29.9,27250],[29.9,27337],[29.9,27416],[29.9,27500],[29.9,27583],[29.9,27666],[29.9,27753],[30,27835],[33.5,27921],[36.3,28005],[39.4,28088],[40.4,28170],[40.4,28253],[40.4,28337],[40.4,28420],[40.4,28500],[40.4,28583],[40.4,28666],[40.4,28750],[40.4,28833],[40.4,28916],[40.4,29000],[40.4,29083],[40.4,29170],[40.4,29250],[40.4,29333],[40.4,29420],[40.4,29503],[40.4,29583],[40.4,29666],[40.4,29750],[40.4,29837],[40.4,29916],[40.4,30000],[40.4,30083],[40.4,30166],[40.4,30250],[40.4,30337],[40.4,30420],[40.4,30500],[40.4,30583],[40.4,30666],[40.4,30751],[40.4,30837],[40.4,30916],[40.4,31000],[40.4,31087],[40.4,31166],[40.4,31253],[40.4,31333],[40.4,31416],[40.4,31503],[40.4,31583],[40.4,31666],[40.4,31750],[40.4,31833],[40.4,31920],[40.4,32000],[40.4,32087],[40.4,32166],[40.4,32250],[40.4,32333],[40.4,32416],[40.4,32504],[40.4,32583],[40.4,32666],[40.4,32750],[40.4,32833],[40.4,32920],[40.4,33000],[40.4,33083],[40.4,33166],[40.4,33250],[40.4,33337],[40.4,33416],[40.4,33500],[40.4,33587],[40.4,33666],[40.4,33754],[40.4,33833],[40.4,33916],[40.4,34000],[40.4,34083],[40.4,34168],[40.4,34253],[40.4,34333],[40.4,34417],[40.4,34504],[40.4,34586],[40.4,34666],[40.4,34750],[40.4,34833],[40.4,34916],[40.4,35003],[40.4,35083],[40.4,35166],[40.4,35254],[40.4,35337],[40.4,35416],[40.4,35500],[40.4,35583],[40.4,35670],[40.4,35750],[40.4,35833],[40.4,35916],[40.4,36000],[40.4,36083],[40.4,36166],[40.4,36250],[40.4,36333],[40.4,36416],[40.4,36500],[40.4,36585],[40.4,36670],[40.4,36750],[40.4,36833],[40.4,36920],[40.4,37000],[40.4,37087],[40.4,37167],[40.4,37250],[40.4,37333],[40.4,37416],[40.4,37503],[40.4,37583],[40.4,37666],[40.4,37750],[40.7,37837],[41.8,37921],[42,38000],[42,38083],[42,38170],[42,38254],[42,38333],[42,38416],[42,38500],[42,38583],[42,38666],[42,38752],[42,38833],[42,38916],[42,39000],[42,39083],[42,39170],[42,39250],[42,39333],[42,39416],[42,39500],[42,39587],[42,39666],[42,39750],[42,39833],[42,39916],[42,40004],[42,40083],[42,40170],[42,40250],[42,40337],[42,40420],[42,40500],[42,40583],[42,40666],[42,40750],[42,40833],[42,40916],[42,41000],[42,41083],[42,41166],[42,41253],[42,41333],[42,41416],[42,41503],[42,41583],[42,41666],[42,41750],[42,41833],[42,41916],[42,42000],[42,42087],[42,42166],[42,42253],[42,42333],[42,42416],[42,42503],[42,42583],[42,42666],[42,42750],[42,42835],[42,42917],[42,43000],[42,43083],[42,43166],[42,43250],[42,43337],[42,43416],[42,43500],[42,43583],[42,43666],[42,43753],[42,43833],[42,43916],[42,44003],[42,44083],[42,44166],[42,44250],[42,44333],[42,44416],[42,44503],[42,44583],[42,44666],[42,44753],[42,44833],[42,44918],[42,45004],[42,45083],[42,45166],[39.2,45255],[34.2,45338],[32.4,45421],[31.8,45505],[31.3,45588],[29.2,45671],[24.3,45755],[23,45837],[23,45916],[23,46000],[23,46087],[23,46166],[23,46250],[23,46333],[23,46416],[23,46500],[23,46583],[23,46666],[23,46750],[23,46833],[23,46916],[23,47000],[23,47087],[23,47166],[23,47250],[23,47337],[23,47416],[23,47503],[23,47583],[23,47666],[23,47750],[22.9,47834],[21.4,47921],[20.2,48004],[19.9,48087],[19.9,48166],[19.8,48253],[19.8,48335],[19.7,48416],[19.6,48503],[19.6,48586],[19.6,48666],[19.6,48750],[19.6,48833],[19.6,48916],[19.6,49000],[19.6,49083],[19.6,49170],[20.9,49254],[26,49338],[28.1,49421],[29.2,49504],[29.9,49588],[31.1,49672],[31.7,49755],[32.7,49838],[34.2,49921],[36.1,50004],[36.9,50088],[37.2,50170],[37.2,50253],[37.2,50333],[37.2,50420],[37.2,50500],[37.2,50583],[37.2,50666],[37.2,50750],[37.2,50837],[37.2,50916],[37.2,51000],[37.2,51083],[37.2,51166],[37.2,51254],[37.2,51333],[37.2,51416],[37.2,51500],[37.2,51583],[37.2,51670],[37.2,51750],[37.2,51833],[37.2,51920],[37.2,52000],[37.2,52085],[37.2,52166],[37.2,52253],[37.2,52337],[37.2,52416],[37.2,52501],[37.2,52583],[37.2,52666],[37.2,52750],[37.2,52833],[37.2,52916],[37.2,53000],[37.2,53083],[37.2,53166],[37.2,53251],[37.2,53333],[37.2,53416],[37.2,53500],[37.2,53583],[37.2,53666],[37.2,53753],[37.2,53833],[37.2,53916],[37.2,54000],[37.2,54083],[37.2,54170],[37.2,54250],[37.2,54333],[37.2,54416],[37.2,54500],[37.2,54587],[37.2,54666],[37.2,54750],[37.2,54833],[37.2,54918],[37.2,55002],[37.2,55083],[37.2,55170],[37.2,55250],[37.2,55333],[37.2,55420],[37.2,55500],[37.2,55583],[37.2,55670],[37.2,55750],[37.2,55837]]",1,0,429.3305,433.0003,38.64583333,1.1289,"[{""rating"":38.645833333333336,""responseTime"":1.1289000000003853}]",space,3.1227,,433.0005,All the time,100,433.0035,,,[],,,,0,10,10,10,1,audio/Narrative8Situation1.wav,audio/Narrative7Situation1.wav,audio/Narrative6Situation1.wav,audio/Narrative5Situation1.wav,5,2,2,5,,,,,,,,,,,,,,,,,,,,,,,,,,,,,,,,,,,,,
,,,,,,58f7cdd4c31d4d00015aac83,2024-05-13_11h32.45.930,group3.1-3.2-social-tom,2023.2.2,Win32,59.88023952,65c5074098b851296ff0b7ed,6642326731f69ad65d0ea8bd,,,,,,,,,,,,,,,,,,,,,,,,,,,,,433.0037,1,audio/Narrative7Situation2.wav,436.0126,,436.0127,443.4847,"[[999,8],[999,83],[999,166],[999,249],[999,333],[999,416],[999,499],[999,583],[999,666],[999,753],[999,838],[999,922],[999,1005],[999,1087],[999,1170],[999,1249],[999,1333],[999,1416],[999,1500],[999,1587],[999,1670],[999,1750],[999,1833],[999,1920],[999,2004],[999,2087],[999,2170],[999,2254],[999,2337],[999,2420],[999,2499],[999,2584],[999,2672],[999,2754],[999,2833],[999,2916],[999,2999],[999,3083],[999,3166],[999,3249],[999,3333],[999,3416],[999,3504],[999,3587],[999,3666],[999,3754],[999,3838],[999,3920],[999,4004],[999,4087],[999,4170],[999,4254],[999,4338],[999,4416],[999,4505],[999,4587],[999,4666],[999,4749],[999,4838],[999,4921],[999,5005],[999,5088],[999,5170],[17.3,5255],[11.6,5338],[10,5421],[7.8,5505],[4.7,5588],[3.5,5671],[3.5,5750],[2.9,5837],[2.9,5920],[3.1,6004],[3.5,6087],[5,6171],[6.4,6254],[6.7,6337],[6.7,6420],[6.7,6499],[6.7,6583],[8.5,6671],[9.7,6754],[9.8,6837],[9.8,6916],[9.8,7000],[9.8,7083],[9.8,7166],[9.8,7250],[9.8,7333],[9.8,7416]]",1,0,443.4848,452.0791,85.41666667,7.0601,"[{""rating"":69.89583333333333,""responseTime"":6.254200000001106},{""rating"":85.41666666666667,""responseTime"":7.060099999999636}]",space,8.0528,,452.0791,Not at all,0,452.0831,,,[],,,,0,11,11,11,1,audio/Narrative8Situation2.wav,audio/Narrative7Situation2.wav,audio/Narrative6Situation2.wav,audio/Narrative5Situation2.wav,3,3,3,3,,,,,,,,,,,,,,,,,,,,,,,,,,,,,,,,,,,,,
,,,,,,58f7cdd4c31d4d00015aac83,2024-05-13_11h32.45.930,group3.1-3.2-social-tom,2023.2.2,Win32,59.88023952,65c5074098b851296ff0b7ed,6642326731f69ad65d0ea8bd,,,,,,,,,,,,,,,,,,,,,,,,,,,,,452.0834,1,audio/Narrative7Situation3.wav,460.0957,,460.0957,469.3469,"[[999,9],[999,83],[999,166],[999,250],[999,333],[999,416],[999,500],[999,583],[999,666],[999,750],[999,833],[999,916],[999,1000],[999,1083],[999,1166],[999,1250],[999,1333],[999,1416],[999,1500],[999,1583],[999,1666],[999,1750],[999,1833],[999,1916],[999,2000],[999,2083],[999,2166],[999,2249],[999,2333],[999,2416],[999,2499],[999,2583],[999,2666],[999,2750],[999,2833],[999,2916],[999,3000],[999,3083],[999,3166],[999,3250],[999,3333],[999,3416],[999,3500],[999,3583],[999,3666],[999,3750],[999,3833],[999,3916],[999,4000],[999,4083],[999,4167],[999,4250],[999,4333],[999,4417],[999,4500],[999,4583],[999,4666],[999,4750],[16.9,4833],[14.4,4916],[13.2,5000],[13,5083],[13,5166],[13,5250],[12.8,5333],[12.4,5416],[12.2,5500],[11,5583],[10.1,5666],[9.8,5750],[9.8,5833],[9.9,5916],[10.7,6000],[19.1,6083],[33.8,6170],[44,6250],[47.8,6333],[47.9,6416],[51.1,6500],[54.4,6583],[55.2,6666],[57.4,6750],[57.5,6833],[57.5,6916],[57.5,7000],[57.6,7083],[57.6,7166],[57.6,7250],[57.6,7333],[57.6,7416],[57.6,7500],[57.6,7583],[57.6,7666],[57.6,7750],[57.6,7833],[57.6,7916],[57.6,7999],[57.6,8083],[57.6,8166],[57.6,8250],[57.6,8333],[57.6,8416],[57.6,8499],[57.6,8583],[57.6,8666],[57.6,8750],[57.6,8833],[57.6,8916],[57.6,9000],[57.6,9083],[57.6,9166],[56.1,9250]]",1,0,469.3472,480.5957,44.0625,10.3145,"[{""rating"":44.0625,""responseTime"":10.31450000000001}]",space,10.7025,,480.5958,Not at all,0,480.5988,,,[],,,,0,12,12,12,1,audio/Narrative8Situation3.wav,audio/Narrative7Situation3.wav,audio/Narrative6Situation3.wav,audio/Narrative5Situation3.wav,4,8,5,3,,,,,,,,,,,,,,,,,,,,,,,,,,,,,,,,,,,,,
,,,,,,58f7cdd4c31d4d00015aac83,2024-05-13_11h32.45.930,group3.1-3.2-social-tom,2023.2.2,Win32,59.88023952,65c5074098b851296ff0b7ed,6642326731f69ad65d0ea8bd,,,,,,,,,,,,,,,,,,,,,,,,,,,,,480.5991,1,audio/Narrative7Situation4.wav,483.6124,,483.6125,495.3462,"[[999,8],[999,83],[999,166],[999,249],[999,333],[999,416],[999,500],[999,583],[999,667],[999,750],[999,833],[999,917],[999,999],[999,1083],[999,1166],[999,1250],[999,1333],[999,1416],[999,1500],[999,1583],[999,1666],[999,1750],[999,1833],[999,1916],[999,2000],[999,2083],[999,2166],[999,2250],[999,2333],[999,2416],[999,2500],[999,2583],[999,2666],[999,2750],[999,2833],[999,2916],[999,3000],[999,3083],[999,3166],[999,3249],[999,3333],[999,3416],[999,3500],[999,3583],[999,3666],[999,3749],[999,3833],[999,3916],[999,4000],[999,4083],[999,4166],[999,4249],[999,4333],[999,4416],[999,4500],[999,4583],[999,4666],[999,4750],[999,4833],[999,4916],[999,5000],[999,5083],[999,5166],[999,5250],[999,5333],[999,5416],[999,5500],[999,5583],[999,5666],[999,5750],[999,5833],[999,5916],[999,5999],[999,6083],[999,6166],[999,6250],[999,6333],[999,6416],[999,6499],[999,6583],[999,6666],[999,6749],[999,6833],[999,6916],[999,6999],[999,7083],[999,7166],[999,7250],[999,7333],[999,7416],[999,7500],[999,7583],[999,7666],[999,7750],[999,7833],[999,7916],[999,8000],[15.9,8083],[11.7,8166],[6.5,8250],[3.1,8333],[0.8,8416],[0.8,8499],[0.8,8583],[1.7,8666],[7.5,8750],[17.9,8833],[20.2,8916],[20.2,8999],[20.2,9083],[20.2,9166],[20.2,9250],[20,9333],[15.1,9416],[13.6,9500],[13.6,9583],[13.6,9666],[13.6,9749],[13.6,9833],[13.6,9916],[13.6,10000],[13.6,10083],[13.6,10166],[13.6,10250],[13.6,10333],[13.8,10416],[14,10500],[14.1,10583],[14.3,10666],[14.5,10750],[14.5,10833],[14.6,10916],[14.7,11000],[14.7,11083],[14.7,11166],[14.7,11250],[14.7,11333],[14.7,11416],[14.7,11500],[14.8,11583],[15,11666]]",1,0,495.3463,498.8958,30.72916667,2.7715,"[{""rating"":30.729166666666664,""responseTime"":2.7714999999999463}]",space,3.0011,,498.8959,Not at all,0,498.8991,,,[],,,,0,13,13,13,1,audio/Narrative8Situation4.wav,audio/Narrative7Situation4.wav,audio/Narrative6Situation4.wav,audio/Narrative5Situation4.wav,3,3,2,1,,,,,,,,,,,,,,,,,,,,,,,,,,,,,,,,,,,,,
,,,,,,58f7cdd4c31d4d00015aac83,2024-05-13_11h32.45.930,group3.1-3.2-social-tom,2023.2.2,Win32,59.88023952,65c5074098b851296ff0b7ed,6642326731f69ad65d0ea8bd,,,,,,,,,,,,,,,,,,,,,,,,,,,,,498.8992,1,audio/Narrative7Situation5.wav,503.9124,,503.9124,512.3962,"[[999,8],[999,83],[999,166],[999,254],[999,333],[999,420],[999,500],[999,583],[999,670],[999,750],[999,837],[999,919],[999,1004],[999,1087],[999,1171],[999,1250],[999,1333],[999,1416],[999,1500],[999,1583],[999,1666],[999,1754],[999,1837],[999,1921],[999,2004],[999,2088],[999,2172],[999,2255],[999,2337],[999,2418],[999,2501],[999,2587],[999,2666],[999,2750],[999,2833],[999,2917],[999,3000],[999,3084],[999,3171],[999,3254],[999,3335],[999,3416],[999,3504],[999,3584],[999,3670],[999,3750],[999,3833],[999,3916],[999,4000],[999,4083],[999,4166],[999,4250],[999,4333],[999,4416],[999,4500],[999,4583],[999,4667],[999,4754],[999,4833],[999,4916],[999,5002],[999,5083],[999,5166],[999,5250],[999,5333],[999,5416],[999,5500],[999,5583],[999,5666],[999,5750],[999,5833],[999,5916],[999,6000],[999,6083],[999,6170],[999,6255],[999,6337],[999,6422],[999,6505],[999,6587],[999,6671],[999,6750],[999,6833],[999,6916],[999,7005],[999,7088],[999,7166],[999,7250],[999,7333],[999,7421],[59.5,7505],[59.8,7587],[60,7672],[60.2,7754],[61.1,7838],[66.9,7922],[73.2,8005],[76,8088],[77.5,8171],[77.7,8250],[79.6,8338],[80.1,8418]]",1,0,512.3965,515.0172,83.54166667,1.1697,"[{""rating"":83.54166666666667,""responseTime"":1.1696999999992386}]",space,2.0758,,515.0172,Half the time,50,515.02,,,[],,,,0,14,14,14,1,audio/Narrative8Situation5.wav,audio/Narrative7Situation5.wav,audio/Narrative6Situation5.wav,audio/Narrative5Situation5.wav,2,5,2,5,,,,,,,,,,,,,,,,,,,,,,,,,,,,,,,,,,,,,
,,,,,,58f7cdd4c31d4d00015aac83,2024-05-13_11h32.45.930,group3.1-3.2-social-tom,2023.2.2,Win32,59.88023952,65c5074098b851296ff0b7ed,6642326731f69ad65d0ea8bd,,,,,,,,,,,,,,,,,,,,,,,,,,,,,515.0201,1,audio/Narrative7Situation6.wav,518.0295,,518.0296,528.0124,"[[999,8],[999,99],[999,182],[999,266],[999,349],[999,432],[999,516],[999,599],[999,682],[999,766],[999,849],[999,932],[999,1016],[999,1099],[999,1182],[999,1266],[999,1349],[999,1432],[999,1516],[999,1599],[999,1682],[999,1766],[999,1849],[999,1932],[999,2016],[999,2099],[999,2183],[999,2266],[999,2349],[999,2432],[999,2516],[999,2599],[999,2682],[999,2766],[999,2849],[999,2933],[999,3016],[999,3099],[999,3182],[999,3266],[999,3349],[999,3433],[999,3516],[33.3,3599],[30.5,3683],[28.9,3766],[27.6,3849],[27.4,3932],[27.2,4016],[26.6,4099],[26.5,4182],[26.5,4266],[26.5,4349],[26.5,4432],[26.1,4516],[25.4,4599],[25.2,4682],[25.2,4766],[25.2,4849],[25.2,4932],[25.2,5016],[25.2,5099],[25.2,5182],[25.2,5266],[25.2,5349],[25.2,5432],[25.2,5516],[25.2,5599],[25.2,5682],[25.2,5766],[25.2,5849],[25.2,5932],[25.2,6016],[25.2,6099],[25.2,6182],[25.2,6266],[25.2,6349],[25.2,6432],[27.4,6516],[35.3,6599],[43.9,6683],[49.4,6766],[51,6849],[54.4,6933],[60.5,7016],[66.3,7099],[70.1,7183],[70.6,7266],[70.6,7349],[71.4,7433],[71.4,7516],[71.4,7599],[71.4,7682],[71.4,7766],[71.4,7849],[71.4,7932],[71.4,8016],[71.4,8099],[71.4,8182],[71.4,8266],[71.4,8349],[71.4,8432],[71.4,8516],[72.2,8599],[76.3,8682],[76.8,8766],[76.8,8849],[76.8,8932],[81.7,9016],[84,9099],[84.1,9182],[84.1,9266],[84.2,9349],[84.2,9432],[84.2,9516],[84.2,9599],[84.2,9682],[84.2,9766],[84.2,9849],[84.2,9932]]",1,0,528.0126,530.479,84.16666667,0.7929,"[{""rating"":84.16666666666667,""responseTime"":0.7929000000003725}]",space,1.919,,530.4791,All the time,100,530.4837,,,[],,,,0,15,15,15,1,audio/Narrative8Situation6.wav,audio/Narrative7Situation6.wav,audio/Narrative6Situation6.wav,audio/Narrative5Situation6.wav,2,3,2,3,,,,,,,,,,,,,,,,,,,,,,,,,,,,,,,,,,,,,
,,,,,,58f7cdd4c31d4d00015aac83,2024-05-13_11h32.45.930,group3.1-3.2-social-tom,2023.2.2,Win32,59.88023952,65c5074098b851296ff0b7ed,6642326731f69ad65d0ea8bd,,,,,,,,,,,,,,,,,,,,,,,,,,,,,530.484,1,audio/Narrative7Situation7.wav,535.496,,535.4961,552.6996,"[[999,8],[999,87],[999,167],[999,249],[999,333],[999,417],[999,504],[999,588],[999,671],[999,754],[999,838],[26.3,921],[25.1,1004],[25.1,1083],[22.2,1171],[14,1255],[10.2,1337],[9.9,1421],[9.9,1499],[20.8,1589],[41.1,1672],[45.2,1753],[45.2,1833],[45.7,1921],[48.4,2004],[51.1,2087],[52.2,2171],[52.8,2254],[52.8,2333],[52.8,2416],[52.8,2499],[52.8,2583],[52.8,2668],[52.5,2754],[50.7,2838],[49.4,2921],[49.3,3000],[49.3,3083],[49.3,3166],[49.3,3249],[49.3,3333],[49.3,3416],[49.3,3501],[49.3,3583],[49.3,3666],[49.3,3749],[49.3,3833],[49.3,3916],[49.3,4000],[49.3,4083],[49.3,4166],[49.3,4249],[49.3,4333],[49.3,4416],[49.3,4499],[49.3,4583],[49.3,4666],[49.3,4753],[49.3,4833],[49.3,4916],[49.3,4999],[49.3,5083],[49.3,5166],[49.3,5249],[49.3,5333],[49.3,5416],[49.3,5499],[50.3,5588],[53.4,5671],[55.2,5754],[58.3,5837],[60.3,5921],[60.3,6001],[60.3,6083],[60.4,6167],[63.9,6255],[67.5,6338],[67.6,6416],[67.6,6499],[67.6,6586],[67.6,6666],[67.6,6749],[67.6,6837],[67.6,6916],[67.6,7000],[67.6,7083],[67.6,7168],[67.6,7250],[67.6,7333],[67.6,7416],[67.6,7499],[67.6,7583],[67.6,7666],[67.6,7749],[67.6,7837],[67.6,7916],[67.6,8000],[67.6,8086],[67.6,8166],[67.6,8249],[67.6,8333],[67.6,8416],[67.6,8499],[67.6,8586],[67.6,8666],[67.6,8749],[67.6,8833],[67.6,8916],[67.6,8999],[67.6,9083],[67.6,9166],[67.9,9254],[68,9334],[71.5,9421],[75.9,9504],[76.8,9588],[79.9,9671],[81.7,9754],[81.8,9833],[81.8,9916],[81.8,10003],[81.8,10083],[81.8,10166],[81.8,10250],[81.8,10333],[81.8,10416],[81.8,10500],[81.8,10583],[81.8,10668],[81.8,10749],[81.8,10833],[81.8,10916],[81.8,10999],[81.8,11083],[81.8,11166],[81.8,11250],[81.8,11336],[81.8,11416],[81.8,11499],[81.8,11587],[81.8,11666],[81.8,11749],[81.8,11833],[81.8,11916],[81.8,11999],[81.8,12083],[81.8,12166],[81.8,12250],[81.8,12333],[81.8,12416],[81.8,12499],[81.8,12584],[81.8,12666],[81.8,12749],[81.8,12833],[81.8,12916],[81.8,12999],[81.8,13083],[81.8,13166],[81.8,13249],[81.8,13336],[81.8,13416],[81.8,13499],[81.8,13586],[81.8,13667],[81.8,13749],[81.8,13833],[81.8,13920],[81.8,13999],[81.8,14083],[81.8,14170],[81.8,14249],[81.8,14333],[81.8,14416],[81.8,14499],[81.8,14583],[81.8,14668],[81.8,14749],[81.8,14833],[81.8,14916],[81.8,14999],[81.8,15083],[81.8,15166],[81.8,15253],[81.8,15333],[81.8,15416],[81.8,15499],[81.8,15585],[81.8,15670],[81.8,15749],[82.2,15844],[82.8,15921],[83.9,16004],[84,16083],[84,16166],[84,16253],[84,16333],[84,16416],[84,16499],[84,16586],[84,16666],[84,16749],[84,16836],[84,16916],[84,16999],[84,17087],[84,17166]]",1,0,552.6999,557.5794,43.22916667,3.0257,"[{""rating"":46.458333333333336,""responseTime"":2.567699999999263},{""rating"":43.22916666666667,""responseTime"":3.025699999999233}]",space,4.3431,,557.5795,Half the time,50,557.5831,,,[],,,,0,16,16,16,1,audio/Narrative8Situation7.wav,audio/Narrative7Situation7.wav,audio/Narrative6Situation7.wav,audio/Narrative5Situation7.wav,3,5,5,4,,,,,,,,,,,,,,,,,,,,,,,,,,,,,,,,,,,,,
,,,,,,58f7cdd4c31d4d00015aac83,2024-05-13_11h32.45.930,group3.1-3.2-social-tom,2023.2.2,Win32,59.88023952,65c5074098b851296ff0b7ed,6642326731f69ad65d0ea8bd,,,,,,,,,,,,,,,,,,,,,,,,,,,,,557.5833,1,audio/Narrative7Situation8.wav,559.5977,,559.5977,569.6293,"[[999,0],[999,97],[999,181],[999,264],[999,347],[999,431],[999,514],[999,597],[999,681],[999,764],[999,848],[999,931],[999,1014],[999,1097],[999,1181],[999,1264],[999,1347],[999,1431],[999,1514],[999,1597],[999,1681],[999,1765],[999,1848],[999,1931],[999,2015],[999,2098],[999,2181],[999,2265],[999,2348],[3.1,2431],[2.1,2515],[1.6,2597],[1.6,2681],[1.6,2764],[1.3,2848],[0.8,2931],[0.4,3014],[0.2,3097],[0.2,3181],[0.2,3264],[0.2,3347],[0.2,3431],[0.2,3514],[0.2,3598],[0.2,3681],[0.2,3764],[0.2,3847],[0.2,3931],[0.2,4014],[0.2,4097],[0.2,4181],[0.2,4264],[0.2,4347],[0.2,4431],[0.2,4514],[0.2,4597],[0.2,4681],[0.2,4764],[0.2,4847],[0.2,4931],[0.2,5014],[0.2,5097],[0.2,5181],[0.2,5264],[0.2,5347],[0.2,5431],[0.2,5514],[0.2,5597],[0.2,5681],[0.2,5764],[0.2,5847],[0.2,5931],[0.2,6014],[0.2,6097],[0.2,6181],[0.2,6264],[0.2,6347],[0.2,6431],[0.2,6514],[0.2,6597],[0.2,6681],[0.2,6764],[0.2,6847],[0.2,6931],[0.2,7014],[0.2,7097],[0.2,7181],[0.2,7264],[0.2,7347],[0.2,7431],[0.2,7514],[0.2,7597],[0.2,7681],[0.2,7764],[0.2,7847],[0.2,7931],[0.2,8014],[0.2,8097],[0.2,8181],[0.2,8264],[0.2,8347],[0.2,8431],[0.2,8514],[0.2,8597],[0.2,8681],[0.2,8764],[0.2,8847],[0.2,8931],[0.2,9014],[0.2,9097],[0.2,9181],[0.2,9264],[0.2,9347],[0.2,9431],[0.2,9514],[0.2,9597],[0.2,9681],[0.2,9764],[0.2,9847],[0.2,9931],[0.2,10014]]",1,0,569.6293,573.0291,0,1.8159,"[{""rating"":0,""responseTime"":1.8158999999984644}]",space,2.865,,573.0292,Half the time,50,573.0321,,,[],,,,0,17,17,17,1,audio/Narrative8Situation8.wav,audio/Narrative7Situation8.wav,audio/Narrative6Situation8.wav,audio/Narrative5Situation8.wav,3,2,5,3,,,,,,,,,,,,,,,,,,,,,,,,,,,,,,,,,,,,,
,,,,,,58f7cdd4c31d4d00015aac83,2024-05-13_11h32.45.930,group3.1-3.2-social-tom,2023.2.2,Win32,59.88023952,65c5074098b851296ff0b7ed,6642326731f69ad65d0ea8bd,,,,,,,,,,,,,,,,,,,,,,,,,,,,,573.0324,1,audio/Narrative7Situation9.wav,575.0457,,575.0457,583.6797,"[[999,0],[999,83],[999,166],[999,249],[999,333],[999,416],[999,500],[999,583],[999,666],[999,750],[999,833],[999,916],[999,1000],[999,1083],[999,1166],[999,1249],[999,1333],[999,1416],[999,1500],[999,1583],[999,1666],[999,1750],[999,1833],[999,1917],[999,2000],[999,2083],[999,2166],[999,2250],[999,2333],[999,2417],[999,2500],[4,2583],[3.5,2666],[3.3,2750],[3.2,2833],[2.8,2916],[2.7,3000],[2.6,3083],[2.6,3166],[2.5,3250],[2.3,3333],[2.3,3416],[2.3,3499],[2.3,3583],[2.3,3666],[2.7,3750],[4.2,3833],[10.6,3917],[27.1,4000],[38.4,4083],[43.4,4167],[47.4,4250],[47.6,4333],[47.6,4416],[47.7,4500],[48.1,4583],[49.6,4666],[50.3,4750],[50.5,4833],[50.5,4916],[47,5000],[39.5,5083],[38.5,5166],[38.5,5250],[33.5,5333],[32.2,5416],[32.1,5500],[30.1,5583],[27,5667],[23.6,5750],[23.6,5833],[23.6,5916],[23.6,6000],[23.6,6083],[23.6,6166],[24.1,6250],[28.1,6336],[30.9,6418],[31.8,6499],[31.9,6583],[31.9,6666],[31.9,6749],[31.9,6833],[31.9,6916],[31.9,7000],[31.9,7083],[31.9,7166],[31.9,7250],[31.9,7333],[31.9,7416],[32,7499],[32.1,7583],[32.2,7666],[32.6,7750],[33.3,7833],[34.2,7916],[34.6,8000],[34.7,8083],[34.9,8167],[35.9,8250],[37.1,8333],[37.2,8416],[37.2,8500],[38.2,8583]]",1,0,583.6797,586.6457,47.70833333,2.6372,"[{""rating"":50.72916666666667,""responseTime"":1.0750000000000455},{""rating"":47.708333333333336,""responseTime"":2.6371999999992113}]",space,2.422,,586.6457,All the time,100,595.2958,100,4.768,"[{""rating"":100,""responseTime"":4.768000000000029}]",space,8.1184,,0,18,18,18,1,audio/Narrative8Situation9.wav,audio/Narrative7Situation9.wav,audio/Narrative6Situation9.wav,audio/Narrative5Situation9.wav,3,2,4,3,,,,,,,,,,,,,,,,,,,,,,,,,,,,,,,,,,,,,
,,,,,,58f7cdd4c31d4d00015aac83,2024-05-13_11h32.45.930,group3.1-3.2-social-tom,2023.2.2,Win32,59.88023952,65c5074098b851296ff0b7ed,6642326731f69ad65d0ea8bd,,,,,,,,,,,,,,,,,,,,,,,,,,,602.3887,604.9625,604.9744,2,audio/Narrative13Situation2.wav,604.9744,,604.9745,634.7135,"[[999,0],[999,71],[999,154],[999,238],[999,321],[999,404],[999,488],[999,571],[999,660],[999,742],[999,821],[999,910],[999,993],[19.7,1077],[0.7,15325],[0.7,15408],[0.7,15488],[0.7,15571],[0.7,15654],[0.7,15738],[0.7,15821],[0.7,15906],[0.7,15988],[0.7,16071],[0.7,16154],[0.7,16238],[0.7,16321],[0.7,16404],[0.7,16487],[0.7,16571],[0.7,16656],[0.7,16738],[0.7,16821],[0.7,16904],[0.7,16988],[0.7,17071],[0.7,17154],[0.8,17242],[0.9,17323],[0.9,17404],[0.9,17487],[0.9,17571],[0.9,17654],[3,17743],[5,17826],[6,17909],[6.4,17992],[6.4,18071],[6.5,18159],[6.5,18241],[6.5,18321],[6.5,18404],[6.5,18488],[6.5,18573],[6.5,18654],[6.5,18737],[6.5,18821],[6.5,18906],[6.5,18988],[6.5,19075],[6.5,19158],[6.5,19238],[6.5,19321],[6.5,19404],[6.5,19488],[6.5,19571],[6.5,19658],[6.5,19737],[6.5,19821],[3.6,19910],[4.7,22493],[12.7,22576],[19.2,22661],[22.8,22742],[22.8,22821],[22.6,22908],[22.6,22987],[22.6,23071],[21.5,23159],[17.8,23243],[17.1,23326],[16.4,23409],[13.1,23493],[11,23575],[11,23654],[11,23737],[11,23821],[11,23904],[11,23988],[11,24075],[11,24154],[12.9,24243],[15.9,24326],[17.7,24409],[17.8,24488],[17.8,24571],[17.8,24654],[17.8,24738],[17.8,24821],[17.8,24904],[17.8,24988],[17.8,25071],[17.8,25154],[17.8,25238],[17.8,25321],[17.8,25408],[17.8,25488],[17.8,25571],[17.8,25654],[17.8,25738],[17.8,25821],[17.8,25904],[17.8,25987],[17.8,26071],[17.8,26154],[17.8,26238],[17.8,26325],[17.8,26404],[17.8,26488],[17.8,26571],[17.8,26654],[17.8,26738],[17.8,26821],[17.8,26904],[17.8,26988],[17.8,27071],[17.8,27154],[17.8,27238],[17.8,27321],[18,27405],[19.7,27492],[22.2,27576],[23.2,27659],[24.2,27742],[24.6,27825],[24.6,27904],[24.6,27988],[24.6,28071],[24.6,28154],[24.6,28238],[24.6,28321],[24.6,28408],[24.6,28488],[24.6,28571],[24.6,28658],[24.6,28738],[24.6,28821],[24.6,28906],[24.6,28988],[24.6,29071],[24.6,29154],[24.6,29238],[24.6,29321],[24.6,29404],[24.6,29488],[24.6,29571],[24.6,29658],[24.6,29738]]",1,0,634.7139,634.7157,,,[],,,,634.7158,All the time,100,634.7168,,,[],,,,0,0,0,0,1,audio/Narrative13Situation2.wav,audio/Narrative13Situation2.wav,audio/Narrative13Situation2.wav,audio/Narrative13Situation2.wav,2,2,2,2,,,595.304,602.3804,space,6.5594,,,,,,,,,,,,,,,,,,,,,,,,,,,,,,,
,,,,,,58f7cdd4c31d4d00015aac83,2024-05-13_11h32.45.930,group3.1-3.2-social-tom,2023.2.2,Win32,59.88023952,65c5074098b851296ff0b7ed,6642326731f69ad65d0ea8bd,,,,,,,,,,,,,,,,,,,,,,,,,,,,,634.7171,2,audio/Narrative6Situation1.wav,636.7294,,636.7296,663.3125,"[[24.5,1516],[24.1,1599],[24.1,1682],[24.1,1766],[24.1,1849],[24.1,1932],[24.1,2016],[24.1,2099],[21.7,2183],[16,2266],[14.5,2349],[14.5,2432],[14.5,2516],[14.5,2599],[14.5,2682],[14.5,2766],[14.5,2849],[14.5,2932],[14.5,3015],[14.5,3099],[14.5,3182],[14.5,3266],[14.5,3349],[14.5,3432],[14.5,3515],[14.5,3599],[14.5,3682],[14.5,3765],[14.5,3849],[14.5,3932],[14.5,4015],[10.5,4099],[7.5,4182],[7.5,4266],[20.4,4349],[33,4433],[36.6,4516],[43.3,4599],[45.4,4683],[50,4766],[51.4,4849],[53,4933],[54.3,5015],[54.3,5099],[54.3,5182],[54.3,5266],[54.3,5349],[54.3,5432],[54.5,5516],[54.8,5599],[54.8,5682],[53.9,5766],[49.9,5849],[48.1,5932],[47.8,6016],[47.8,6099],[47.8,6182],[47.7,6266],[47.7,6349],[47.7,6432],[47.7,6516],[47,6599],[41.5,6683],[41.4,6765],[41.4,6849],[41.8,6933],[45.5,7016],[52.3,7099],[54.7,7182],[54.7,7266],[54.7,7349],[54.6,7432],[54.6,7516],[54.6,7599],[54.6,7682],[54.6,7766],[54.5,7849],[49.9,7933],[49.5,8016],[49.5,8099],[49.5,8182],[49.5,8266],[49.5,8349],[49.5,8432],[49.5,8516],[49.5,8599],[49.5,8682],[49.4,8766],[49.3,8849],[49.3,8932],[49.3,9016],[49.3,9099],[49.3,9182],[49.4,9266],[49.4,9349],[49.4,9432],[49.4,9516],[49.4,9599],[49.4,9682],[49.4,9766],[49.4,9849],[49.4,9932],[49.4,10016],[49.4,10099],[49.4,10182],[49.4,10266],[49.4,10349],[49.4,10432],[49.4,10516],[49.4,10599],[49.4,10682],[49.4,10766],[49.4,10849],[49.4,10932],[49.4,11015],[49.4,11099],[49.4,11182],[49.4,11266],[49.4,11349],[49.4,11432],[49.4,11516],[49.4,11599],[49.4,11682],[49.4,11765],[49.4,11849],[49.4,11932],[49.4,12016],[49.4,12099],[49.4,12182],[49.4,12266],[49.4,12349],[49.4,12432],[49.4,12516],[49.4,12599],[49.4,12682],[49.4,12766],[49.4,12849],[49.4,12932],[49.4,13015],[49.4,13099],[49.4,13182],[49.4,13266],[49.4,13349],[49.4,13432],[49.4,13516],[49.4,13599],[49.4,13682],[49.4,13766],[49.4,13849],[49.4,13932],[49.4,14016],[49.4,14099],[49.5,14182],[51,14266],[52.6,14349],[53,14432],[53.3,14516],[53.4,14599],[53.4,14682],[53.4,14766],[53.4,14849],[53.4,14932],[53.4,15016],[53.4,15099],[53.5,15183],[55.7,15266],[57.2,15349],[57.2,15432],[57.2,15516],[57.2,15599],[57.2,15682],[57.2,15765],[57.2,15849],[57.2,15932],[57.2,16015],[57.2,16099],[57.2,16182],[57.2,16266],[57.2,16349],[57.2,16432],[57.2,16516],[57.2,16599],[57.2,16682],[57.2,16766],[57.2,16849],[57.2,16932],[61.7,17016],[74.3,17099],[74.4,17182],[74.4,17266],[74.4,17349],[74.4,17432],[74.4,17516],[74.4,17599],[74.4,17682],[74.4,17766],[74.4,17849],[74.4,17932],[74.4,18016],[74.4,18099],[74.4,18182],[74.4,18266],[74.4,18349],[74.4,18432],[74.4,18516],[74.4,18599],[74.4,18682],[74.4,18766],[74.4,18849],[74.4,18932],[74.4,19016],[74.4,19099],[74.4,19182],[74.4,19266],[74.4,19349],[74.4,19432],[74.4,19516],[74.4,19599],[74.4,19682],[74.4,19766],[74.4,19849],[74.4,19932],[74.4,20015],[74.4,20099],[74.4,20182],[74.4,20266],[74.4,20349],[74.4,20432],[74.4,20516],[74.4,20599],[74.4,20682],[74.4,20765],[74.4,20849],[74.4,20932],[74.4,21016],[74.4,21099],[74.4,21182],[74.4,21266],[74.4,21349],[74.4,21432],[74.4,21516],[74.4,21599],[74.4,21682],[74.4,21765],[74.4,21849],[74.4,21932],[74.4,22016],[74.4,22099],[74.8,22182],[74.7,22266],[74.7,22349],[74.7,22432],[76.9,22516],[78.8,22599],[81.5,22683],[84,22766],[86.8,22849],[85.9,22932],[85.7,23016],[85.7,23099],[85.7,23182],[85.7,23266],[85.7,23349],[85.7,23432],[86.6,23516],[86.6,23599],[86.6,23682],[86.6,23766],[86.6,23849],[86.6,23932],[86.6,24015],[86.6,24099],[86.6,24182],[86.6,24266],[86.6,24349],[86.6,24432],[86.6,24516],[86.6,24599],[86.6,24682],[86.6,24766],[86.6,24849],[86.6,24932],[86.6,25016],[86.6,25099],[86.6,25182],[86.6,25266],[86.6,25349],[86.6,25432],[86.6,25516],[86.6,25600],[86.6,25682],[86.6,25766],[86.6,25849],[86.6,25932],[86.6,26015],[86.6,26099],[86.6,26182],[86.6,26266],[86.6,26349],[86.6,26432],[86.6,26516]]",1,0,663.3127,669.3458,90.625,3.9335,"[{""rating"":95.10416666666667,""responseTime"":2.3815000000000737},{""rating"":90.625,""responseTime"":3.933499999999981}]",space,5.5075,,669.3458,All the time,100,669.3488,,,[],,,,0,1,1,1,1,audio/Narrative7Situation1.wav,audio/Narrative8Situation1.wav,audio/Narrative5Situation1.wav,audio/Narrative6Situation1.wav,2,5,5,2,,,,,,,,,,,,,,,,,,,,,,,,,,,,,,,,,,,,,
,,,,,,58f7cdd4c31d4d00015aac83,2024-05-13_11h32.45.930,group3.1-3.2-social-tom,2023.2.2,Win32,59.88023952,65c5074098b851296ff0b7ed,6642326731f69ad65d0ea8bd,,,,,,,,,,,,,,,,,,,,,,,,,,,,,669.3492,2,audio/Narrative6Situation2.wav,672.3632,,672.3633,700.8667,"[[999,9],[999,87],[999,171],[999,253],[999,337],[999,421],[999,504],[999,582],[999,670],[999,749],[999,832],[999,918],[999,1004],[21.8,1088],[13.6,1171],[12.5,1251],[12.5,1336],[12.4,1420],[10.8,1504],[10.7,1587],[11.9,1671],[13.6,1754],[16.4,1837],[21.6,1921],[22.1,2003],[19.9,2087],[7,2172],[2.5,2254],[1.1,2337],[1,2420],[1,2499],[1,2586],[1,2666],[1,2749],[1,2836],[1,2916],[1,2999],[1,3087],[1,3166],[1,3253],[1,3332],[1,3420],[1,3503],[1,3582],[3.9,3671],[15.8,3754],[32,3838],[32.1,3919],[32.1,3999],[32.1,4086],[32.1,4166],[32.1,4249],[32.1,4336],[32.1,4421],[32.1,4499],[32.1,4586],[32.1,4666],[32.1,4749],[32.1,4832],[32.1,4920],[32.1,4999],[30.5,5087],[19.5,5172],[13.1,5254],[13.1,5336],[13.1,5416],[13.1,5499],[13.3,5586],[14.2,5670],[14.8,5754],[14.9,5832],[14.9,5916],[14.9,5999],[15.1,6087],[15.1,6170],[15.1,6249],[15.1,6332],[15.1,6416],[15.3,6504],[16,6587],[23.1,6670],[26,6753],[26,6832],[26.1,6920],[26.1,7003],[26.1,7082],[26.1,7166],[26.1,7249],[26.1,7332],[26.1,7416],[26.1,7499],[26.1,7586],[26.1,7669],[26.1,7749],[26.1,7836],[26.1,7920],[26.1,7999],[26.1,8082],[26.1,8166],[26.1,8249],[26.1,8332],[26.1,8416],[26.1,8499],[26.1,8586],[26.1,8670],[26.1,8749],[26.1,8836],[26.1,8916],[26.1,8999],[26.1,9086],[26.1,9170],[26.1,9249],[26.1,9332],[26.1,9416],[26.1,9499],[26.1,9582],[26.1,9666],[26.1,9753],[26.1,9832],[26.1,9916],[26.1,9999],[26.1,10082],[26.1,10166],[26.1,10251],[26.1,10332],[26.1,10416],[26.1,10499],[26.8,10587],[30,10670],[34,10754],[35.4,10837],[36.1,10921],[37.9,11004],[39,11087],[39.9,11170],[42.1,11254],[45,11337],[46.5,11420],[46.8,11504],[47.3,11587],[48.9,11671],[51.1,11754],[51.7,11832],[51.7,11916],[51.7,12003],[51.3,12087],[50.9,12169],[50.9,12249],[50.9,12332],[50.9,12419],[50.8,12499],[50.7,12582],[50.5,12669],[50.5,12749],[50.3,12833],[50,12919],[49.8,12999],[49.8,13086],[49.8,13166],[49.7,13250],[49.5,13332],[49.5,13416],[49.5,13499],[49.5,13586],[49.5,13666],[49.5,13749],[49.5,13836],[49.5,13916],[49.5,13999],[49.5,14082],[49.5,14166],[49.5,14249],[49.5,14332],[49.5,14416],[49.5,14499],[49.5,14586],[49.5,14665],[49.5,14749],[49.5,14836],[49.5,14915],[49.5,14999],[49.5,15082],[49.5,15166],[49.5,15249],[49.5,15336],[49.5,15416],[49.5,15499],[49.5,15582],[49.5,15666],[49.5,15751],[49.5,15832],[49.5,15916],[49.5,16003],[49.5,16082],[49.5,16166],[49.5,16249],[49.5,16332],[49.5,16416],[49.5,16501],[49.5,16582],[49.5,16666],[49.5,16749],[49.5,16832],[49.5,16916],[49.5,17001],[49.5,17082],[49.5,17166],[49.5,17249],[49.5,17332],[49.5,17416],[49.5,17499],[49.5,17582],[49.5,17666],[49.5,17753],[49.5,17836],[49.5,17916],[49.5,17999],[49.5,18086],[49.5,18166],[49.5,18253],[49.5,18332],[49.5,18416],[49.5,18499],[49.5,18582],[49.5,18666],[49.5,18749],[49.5,18832],[49.5,18919],[49.5,18999],[49.5,19082],[49.5,19166],[49.5,19249],[49.5,19332],[49.5,19419],[49.5,19503],[49.5,19586],[49.5,19666],[49.5,19749],[49.5,19832],[49.5,19916],[49.5,19999],[49.5,20082],[49.5,20169],[49.5,20249],[49.5,20336],[49.5,20416],[49.5,20499],[49.5,20582],[49.5,20667],[49.5,20753],[49.5,20832],[49.5,20916],[49.5,20999],[49.5,21082],[49.5,21170],[49.5,21249],[49.5,21332],[49.5,21416],[49.5,21501],[49.5,21586],[49.5,21666],[49.5,21749],[49.5,21832],[49.5,21920],[49.5,22003],[49.5,22082],[49.5,22166],[49.5,22253],[49.5,22332],[49.5,22416],[49.5,22503],[49.5,22582],[49.5,22666],[49.5,22749],[49.5,22836],[49.5,22916],[49.5,22999],[49.5,23082],[49.5,23166],[49.5,23251],[49.5,23332],[49.5,23416],[49.5,23503],[49.5,23582],[49.5,23669],[49.5,23749],[49.5,23836],[49.5,23919],[49.5,24003],[49.5,24086],[49.5,24166],[49.9,24254],[49.9,24334],[49.9,24416],[49.9,24503],[49.9,24582],[49.9,24666],[49.9,24749],[49.9,24834],[49.9,24917],[49.9,24999],[49.9,25082],[49.9,25169],[49.9,25249],[50,25332],[50,25419],[50,25503],[50,25582],[50,25666],[50,25753],[50,25832],[50,25916],[50.3,26004],[51,26087],[53.2,26171],[54.9,26254],[54.9,26332],[54.9,26416],[54.9,26499],[54.3,26587],[53.9,26667],[53.6,26753],[53.6,26832],[53.6,26916],[53.6,27003],[53.6,27082],[53.6,27166],[53.6,27253],[53.6,27332],[53.5,27419],[53.5,27503],[53.5,27582],[53.5,27666],[53.5,27750],[53.5,27836],[53.5,27916],[53.5,27999],[53.5,28082],[53.5,28166],[53.5,28253],[53.5,28333],[53.5,28416],[53.5,28503]]",1,0,700.867,703.7293,54.27083333,1.5011,"[{""rating"":54.270833333333336,""responseTime"":1.5010999999996102}]",space,2.3179,,703.7294,Not at all,0,703.7331,,,[],,,,0,2,2,2,1,audio/Narrative7Situation2.wav,audio/Narrative8Situation2.wav,audio/Narrative5Situation2.wav,audio/Narrative6Situation2.wav,3,3,3,3,,,,,,,,,,,,,,,,,,,,,,,,,,,,,,,,,,,,,
,,,,,,58f7cdd4c31d4d00015aac83,2024-05-13_11h32.45.930,group3.1-3.2-social-tom,2023.2.2,Win32,59.88023952,65c5074098b851296ff0b7ed,6642326731f69ad65d0ea8bd,,,,,,,,,,,,,,,,,,,,,,,,,,,,,703.7333,2,audio/Narrative6Situation3.wav,708.7458,,708.7459,721.3625,"[[55.5,1000],[52.9,1083],[49.3,1167],[45.7,1250],[44.4,1333],[43.4,1416],[33.9,1501],[17.6,1584],[10,1666],[7.6,1750],[4.4,1833],[2.9,1916],[2,1999],[1.5,2083],[1.4,2166],[1.4,2249],[1.4,2333],[1.4,2416],[1.4,2499],[1.4,2583],[1.5,2666],[1.5,2749],[1.5,2833],[1.5,2916],[1.5,2999],[1.5,3083],[1.5,3166],[1.5,3249],[1.5,3333],[1.5,3416],[1.5,3499],[1.5,3583],[1.5,3666],[1.5,3749],[1.5,3833],[1.5,3916],[1.5,3999],[1.6,4083],[1.7,4166],[1.7,4249],[1.8,4333],[1.9,4416],[1.9,4499],[1.9,4583],[2,4666],[2,4749],[2,4833],[2,4916],[2,4999],[2,5083],[2,5166],[2,5249],[2,5333],[2,5416],[2,5499],[2,5583],[2,5666],[2,5749],[2,5833],[2,5916],[2,5999],[2.1,6083],[2.1,6166],[2.1,6249],[2.2,6333],[2.3,6416],[2.3,6499],[2.3,6583],[2.3,6666],[2.3,6749],[2.3,6833],[2.3,6916],[2.3,6999],[2.4,7083],[2.4,7166],[2.4,7249],[2.4,7333],[2.4,7416],[2.4,7499],[2.4,7583],[2.4,7666],[2.4,7749],[2.4,7833],[2.4,7916],[2.4,7999],[2.4,8083],[2.4,8166],[2.4,8249],[2.4,8333],[2.4,8416],[2.4,8499],[2.4,8583],[2.4,8666],[2.4,8749],[2.4,8833],[2.4,8916],[2.4,8999],[2.4,9083],[2.4,9166],[2.4,9249],[2.4,9333],[2.4,9416],[2.4,9499],[2.4,9583],[2.4,9666],[2.4,9749],[2.4,9833],[2.5,9916],[2.5,9999],[2.5,10083],[2.9,10167],[4.3,10250],[13.4,10334],[22.6,10416],[23.4,10499],[23.4,10583],[23.4,10666],[23.4,10749],[22,10833],[16.8,10916],[15.6,10999],[15.6,11083],[15.6,11166],[15.6,11249],[15.6,11333],[15.6,11416],[15.6,11499],[15.6,11583],[15.6,11666],[15.6,11749],[15.6,11833],[15.6,11916],[15.6,11999],[15.6,12083],[15.6,12166],[15.6,12249],[15.6,12333],[15.6,12416],[15.6,12499],[15.6,12583]]",1,0,721.3627,723.2292,18.95833333,1.2891,"[{""rating"":18.958333333333332,""responseTime"":1.28910000000144}]",space,1.3329,,723.2293,Half the time,50,723.2329,,,[],,,,0,3,3,3,1,audio/Narrative7Situation3.wav,audio/Narrative8Situation3.wav,audio/Narrative5Situation3.wav,audio/Narrative6Situation3.wav,8,4,3,5,,,,,,,,,,,,,,,,,,,,,,,,,,,,,,,,,,,,,
,,,,,,58f7cdd4c31d4d00015aac83,2024-05-13_11h32.45.930,group3.1-3.2-social-tom,2023.2.2,Win32,59.88023952,65c5074098b851296ff0b7ed,6642326731f69ad65d0ea8bd,,,,,,,,,,,,,,,,,,,,,,,,,,,,,723.2332,2,audio/Narrative6Situation4.wav,725.2458,,725.2459,737.8626,"[[18.9,249],[18.9,333],[18.9,416],[18.9,499],[18.9,583],[18.9,666],[18.9,750],[18.9,833],[18.9,917],[18.9,999],[17.7,1084],[10.1,1169],[7.5,1250],[5.4,1333],[2.4,1416],[1.1,1500],[0.4,1583],[0.4,1666],[0.4,1749],[0.7,1833],[2,1916],[3.1,2000],[3.9,2083],[4.4,2166],[4.5,2249],[4.6,2333],[4.9,2417],[5,2500],[5,2583],[5,2666],[5,2749],[5,2833],[5,2916],[5,2999],[5,3083],[5,3166],[5,3249],[5,3333],[5,3416],[5,3499],[5,3583],[5,3666],[5,3749],[5,3833],[5,3916],[5,3999],[5,4083],[5,4166],[5,4249],[5,4333],[5,4416],[5,4499],[5,4583],[5,4666],[5,4749],[5,4833],[5,4916],[5,4999],[5,5083],[5,5166],[5,5249],[5,5333],[5,5416],[5,5499],[5,5583],[5.8,5667],[7.6,5750],[8.4,5833],[9,5916],[9.1,5999],[9.1,6083],[9.1,6166],[9.1,6249],[9.3,6333],[9.8,6417],[10.2,6500],[11.1,6583],[13.1,6666],[14.4,6750],[16.9,6833],[18.2,6917],[18.3,6999],[18.4,7083],[18.8,7166],[23.2,7250],[33.2,7334],[44,7418],[46.1,7500],[46.6,7583],[46.9,7666],[47,7749],[47,7833],[47,7916],[47,7999],[47,8083],[46.9,8166],[45.6,8250],[42.3,8334],[41.3,8416],[41.3,8499],[41.3,8583],[41.3,8666],[41.3,8749],[41.3,8833],[41.3,8916],[41.3,8999],[41.9,9083],[44.3,9167],[46,9250],[46.4,9333],[46.5,9416],[46.7,9500],[47.8,9583],[49,9666],[49.9,9750],[50.5,9833],[50.5,9916],[50.5,9999],[50,10083],[49.7,10166],[49.7,10249],[49.8,10333],[49.8,10416],[50.1,10500],[50.3,10583],[50.3,10666],[50.3,10750],[50.3,10833],[50.3,10916],[50.3,10999],[50.3,11083],[50.3,11166],[50.3,11249],[50.3,11333],[50.3,11416],[50.3,11499],[50.3,11583],[50.3,11666],[50.3,11749],[50.3,11833],[50.3,11916],[50.3,11999],[50.3,12083],[50.3,12166],[50.3,12249],[50.3,12333],[50.3,12416],[50.3,12499],[50.3,12583]]",1,0,737.8628,739.8125,49.89583333,0.714,"[{""rating"":49.895833333333336,""responseTime"":0.7140000000000555}]",space,1.4182,,739.8127,Not at all,0,739.8165,,,[],,,,0,4,4,4,1,audio/Narrative7Situation4.wav,audio/Narrative8Situation4.wav,audio/Narrative5Situation4.wav,audio/Narrative6Situation4.wav,3,3,1,2,,,,,,,,,,,,,,,,,,,,,,,,,,,,,,,,,,,,,
,,,,,,58f7cdd4c31d4d00015aac83,2024-05-13_11h32.45.930,group3.1-3.2-social-tom,2023.2.2,Win32,59.88023952,65c5074098b851296ff0b7ed,6642326731f69ad65d0ea8bd,,,,,,,,,,,,,,,,,,,,,,,,,,,,,739.8167,2,audio/Narrative6Situation5.wav,741.8292,,741.8292,749.7966,"[[47.5,917],[33.2,1000],[21.8,1084],[18.9,1167],[14.8,1251],[8.3,1335],[0.1,1417],[0.2,2833],[2.9,2917],[9.4,3000],[14.6,3083],[14.7,3166],[14.7,3250],[14.7,3333],[14.3,3417],[11.7,3500],[8.9,3584],[8.6,3666],[8.6,3749],[8.6,3833],[8.6,3916],[8.6,3999],[9.7,4083],[19.8,4168],[22.7,4249],[22.7,4333],[22.7,4416],[22.7,4500],[22.7,4583],[22.7,4666],[22.7,4749],[22.7,4833],[22.7,4916],[22.7,5000],[22.7,5083],[22.7,5166],[22.7,5249],[22.7,5333],[22.7,5416],[22.7,5499],[22.7,5583],[22.7,5666],[22.7,5749],[22.7,5833],[22.7,5916],[22.7,5999],[22.7,6083],[22.7,6166],[22.7,6249],[22.7,6333],[22.7,6416],[26.3,6500],[39.6,6585],[45.2,6667],[47.8,6750],[53.4,6833],[54.7,6916],[54.7,6999],[54.7,7083],[54.7,7166],[54.7,7249],[54.7,7333],[54.7,7416],[54.7,7499],[54.7,7583],[54.7,7666],[55.7,7750],[57.1,7833],[58.5,7916]]",1,0,749.7969,754.0792,62.60416667,3.7098,"[{""rating"":62.60416666666666,""responseTime"":0.8808000000008178},{""rating"":65.83333333333333,""responseTime"":2.747699999999327},{""rating"":62.60416666666666,""responseTime"":3.7098000000007687}]",space,3.7386,,754.0792,All the time,100,754.0829,,,[],,,,0,5,5,5,1,audio/Narrative7Situation5.wav,audio/Narrative8Situation5.wav,audio/Narrative5Situation5.wav,audio/Narrative6Situation5.wav,5,2,5,2,,,,,,,,,,,,,,,,,,,,,,,,,,,,,,,,,,,,,
,,,,,,58f7cdd4c31d4d00015aac83,2024-05-13_11h32.45.930,group3.1-3.2-social-tom,2023.2.2,Win32,59.88023952,65c5074098b851296ff0b7ed,6642326731f69ad65d0ea8bd,,,,,,,,,,,,,,,,,,,,,,,,,,,,,754.0832,2,audio/Narrative6Situation6.wav,756.0976,,756.0977,767.1793,"[[56.4,832],[45.4,916],[2,1582],[2,1664],[1.5,1748],[0.8,1831],[0.8,1914],[0.7,1998],[0.6,2081],[0.5,2164],[0.4,2248],[0.4,2331],[0.4,2414],[0.4,2497],[0.2,7581],[0.2,7664],[0.2,7748],[0.2,7831],[0.2,7914],[0.2,7998],[0.2,8081],[0.2,8164],[0.2,8247],[0.2,8331],[0.3,8414],[0.3,8498],[0.3,8581],[0.3,8664],[0.3,8747],[0.3,8831],[0.3,8914],[0.3,8998],[0.3,9081],[0.3,9164],[0.3,9248],[0.3,9331],[0.8,9414],[1,9498],[1.3,9581],[1.3,9664],[2.5,9748],[15.7,9832],[23.4,9915],[23.5,9997],[23.5,10081],[23.5,10164],[23.5,10247],[22.3,10331],[21.6,10415],[20.1,10498],[19.6,10581],[19.6,10664],[19.6,10748],[19.6,10831],[19.6,10914],[19.6,10998],[19.6,11081]]",1,0,767.1794,770.6959,21.66666667,0.7793,"[{""rating"":21.666666666666668,""responseTime"":0.7793000000007169}]",space,2.9679,,770.696,Not at all,0,770.7075,,,[],,,,0,6,6,6,1,audio/Narrative7Situation6.wav,audio/Narrative8Situation6.wav,audio/Narrative5Situation6.wav,audio/Narrative6Situation6.wav,3,2,3,2,,,,,,,,,,,,,,,,,,,,,,,,,,,,,,,,,,,,,
,,,,,,58f7cdd4c31d4d00015aac83,2024-05-13_11h32.45.930,group3.1-3.2-social-tom,2023.2.2,Win32,59.88023952,65c5074098b851296ff0b7ed,6642326731f69ad65d0ea8bd,,,,,,,,,,,,,,,,,,,,,,,,,,,,,770.7077,2,audio/Narrative6Situation7.wav,775.7125,,775.7125,800.5793,"[[999,8],[999,83],[999,166],[999,249],[999,333],[999,417],[999,501],[48.6,583],[49,667],[49.1,750],[49.4,834],[49.5,916],[49.5,1000],[49.5,1083],[49.5,1166],[49.5,1249],[49.5,1333],[49.5,1416],[49.5,1499],[49.5,1583],[49.5,1666],[49.5,1749],[49.5,1833],[49.5,1916],[49.5,1999],[49.5,2083],[49.5,2166],[49.5,2250],[49.5,2333],[49.5,2416],[49.5,2499],[49.5,2583],[49.4,2666],[49.1,2750],[48.5,2833],[48.3,2917],[48.3,3000],[48.2,3083],[48.2,3166],[48.2,3249],[48.2,3333],[48.2,3416],[48.2,3500],[48.2,3583],[48.2,3666],[48.2,3749],[48.1,3833],[48,3916],[47.7,4000],[47.2,4083],[46.7,4167],[46.3,4250],[46.1,4333],[46.1,4416],[46.1,4499],[46.1,4583],[46.1,4666],[47.7,4750],[54,4835],[58.1,4917],[58.2,4999],[58.2,5083],[58.2,5166],[58.2,5249],[58.2,5333],[58.2,5416],[58.2,5499],[58.2,5583],[58.2,5666],[57.8,5750],[57.1,5833],[55.2,5917],[50.4,6001],[48.4,6083],[48.4,6166],[48.4,6249],[48.4,6333],[48.9,6417],[49,6499],[49,6583],[49,6666],[49,6750],[49,6833],[49,6916],[49,7000],[49,7083],[49,7166],[49,7249],[49,7333],[49,7416],[49,7499],[49,7583],[49,7666],[49,7749],[49.4,7833],[50.8,7916],[52,8000],[54.3,8083],[55.2,8166],[55.2,8249],[55.2,8333],[55.6,8417],[56.3,8500],[56.9,8583],[57.2,8666],[57.2,8749],[57.2,8833],[57.2,8916],[57.2,9000],[57.2,9083],[57.2,9166],[57.2,9249],[57.2,9333],[57.2,9416],[57.2,9499],[57.2,9583],[57.2,9666],[57.2,9749],[57.2,9833],[57.2,9916],[57.2,9999],[57.2,10083],[57.2,10166],[57.2,10249],[57.2,10333],[57.2,10416],[57.2,10499],[57.2,10583],[57.2,10666],[57.2,10749],[57.2,10833],[57.2,10916],[57.2,10999],[57.2,11083],[57.2,11166],[57.2,11250],[57.2,11333],[57.2,11416],[57.2,11499],[57.2,11583],[57.2,11666],[57.2,11749],[57.2,11833],[57.2,11916],[57.2,11999],[57.2,12083],[57.2,12166],[57.2,12249],[57.2,12333],[57.2,12416],[57.2,12499],[57.2,12583],[57.2,12666],[57.2,12749],[57.2,12833],[57.2,12916],[57.2,12999],[57.2,13083],[57.2,13166],[57.2,13249],[57.2,13333],[57.2,13416],[57.2,13499],[57.2,13583],[57.2,13666],[57.2,13749],[57.2,13833],[57.2,13916],[57.2,13999],[57.2,14083],[57.2,14166],[57.2,14250],[57.2,14333],[57.2,14416],[57.2,14500],[57.2,14583],[57.2,14666],[57.2,14749],[57.2,14833],[57.2,14916],[57.2,14999],[57.2,15083],[57.2,15166],[57.2,15249],[57.2,15333],[57.2,15416],[57.2,15499],[57.2,15583],[57.2,15666],[57.2,15750],[57.2,15833],[57.2,15916],[57.2,15999],[57.2,16083],[57.2,16167],[57.2,16249],[57.2,16333],[57.2,16416],[57.2,16499],[57.2,16583],[57.2,16666],[57.2,16750],[57.2,16833],[57.2,16916],[57.2,16999],[57.2,17083],[57.2,17166],[57.2,17249],[57.2,17333],[57.2,17416],[57.2,17499],[57.2,17583],[57.2,17666],[57.2,17749],[57.2,17833],[57.2,17916],[57.2,18000],[57.2,18083],[57.2,18166],[57.2,18249],[57.2,18333],[57.2,18416],[57.2,18499],[57.2,18583],[57.2,18666],[57.2,18749],[57.2,18833],[57.2,18916],[57.2,18999],[57.2,19083],[55.2,19167],[52.8,19250],[47.6,19333],[43.3,19417],[43.1,19499],[43.1,19583],[43.1,19666],[43.1,19750],[43.1,19833],[43.1,19916],[43.1,19999],[43.1,20083],[43.1,20166],[43.1,20249],[43.1,20333],[43.2,20416],[43.2,20500],[43.2,20583],[43.2,20666],[43.2,20750],[43.2,20833],[43.2,20916],[43.2,20999],[43.2,21083],[43.2,21166],[43.2,21249],[43.2,21333],[43.2,21416],[43.2,21499],[43.2,21583],[43.2,21666],[43.2,21750],[43.2,21833],[43.2,21916],[43.2,21999],[43.8,22083],[49.1,22167],[56,22251],[59,22333],[59.8,22417],[60.2,22499],[60.2,22583],[60.2,22666],[60.2,22749],[60.2,22833],[60.1,22916],[60.1,22999],[60.1,23083],[60.1,23166],[60.1,23249],[60.1,23333],[60.1,23416],[60.1,23499],[60.1,23583],[60.1,23666],[60.1,23749],[60.1,23833],[60.1,23916],[60.1,24000],[60.1,24083],[60.1,24166],[60.1,24250],[60.1,24333],[60.1,24416],[60.1,24499],[60.1,24583],[60.1,24666],[60.1,24749],[60.1,24833]]",1,0,800.5795,803.9459,60.3125,1.8302,"[{""rating"":60.3125,""responseTime"":1.8302000000011276}]",space,2.8174,,803.9459,Not at all,0,803.9486,,,[],,,,0,7,7,7,1,audio/Narrative7Situation7.wav,audio/Narrative8Situation7.wav,audio/Narrative5Situation7.wav,audio/Narrative6Situation7.wav,5,3,4,5,,,,,,,,,,,,,,,,,,,,,,,,,,,,,,,,,,,,,
,,,,,,58f7cdd4c31d4d00015aac83,2024-05-13_11h32.45.930,group3.1-3.2-social-tom,2023.2.2,Win32,59.88023952,65c5074098b851296ff0b7ed,6642326731f69ad65d0ea8bd,,,,,,,,,,,,,,,,,,,,,,,,,,,,,803.9488,2,audio/Narrative6Situation8.wav,808.9626,,808.9627,815.8293,"[[999,7],[999,82],[999,166],[999,249],[999,332],[999,416],[999,499],[999,583],[999,666],[999,750],[999,833],[999,916],[999,1001],[999,1083],[999,1166],[999,1251],[999,1335],[999,1417],[1.1,2166],[1.5,2249],[1.6,2333],[2.2,2416],[4.6,2500],[8.1,2583],[8.6,2666],[8.8,2749],[8.8,2833],[8.8,2916],[8.8,2999],[8.8,3083],[8.8,3166],[8.8,3249],[8.8,3332],[8.8,3416],[8.8,3499],[8.8,3582],[8.8,3666],[8.8,3749],[8.8,3832],[8.8,3916],[8.8,3999],[8.8,4083],[8.8,4166],[8.8,4249],[8.8,4332],[8.8,4416],[8.8,4499],[8.8,4583],[8.8,4666],[8.8,4749],[8.8,4833],[8.8,4916],[8.8,4999],[8.8,5082],[8.8,5166],[8.8,5249],[9.6,5333],[11.1,5416],[12.8,5500],[13.3,5583],[13.4,5666],[13.4,5749],[13.5,5833],[17.9,5916],[20,5999],[20.6,6083],[22.9,6166],[25.4,6250],[26.4,6333],[27.1,6416],[27.2,6500],[27.2,6583],[27.4,6666],[27.6,6749],[27.6,6833]]",1,0,815.8294,821.0463,12.1875,4.3292,"[{""rating"":15.208333333333336,""responseTime"":3.8712000000010676},{""rating"":12.187500000000002,""responseTime"":4.329200000001151}]",space,4.6778,,821.0466,All the time,100,821.0502,,,[],,,,0,8,8,8,1,audio/Narrative7Situation8.wav,audio/Narrative8Situation8.wav,audio/Narrative5Situation8.wav,audio/Narrative6Situation8.wav,2,3,3,5,,,,,,,,,,,,,,,,,,,,,,,,,,,,,,,,,,,,,
,,,,,,58f7cdd4c31d4d00015aac83,2024-05-13_11h32.45.930,group3.1-3.2-social-tom,2023.2.2,Win32,59.88023952,65c5074098b851296ff0b7ed,6642326731f69ad65d0ea8bd,,,,,,,,,,,,,,,,,,,,,,,,,,,,,821.0505,2,audio/Narrative6Situation9.wav,825.0625,,825.0626,835.0134,"[[17.5,1666],[13.9,1750],[10.1,1833],[8.6,1916],[8.6,1999],[7.6,2083],[5.7,2167],[4.4,2250],[4.4,2333],[6.4,2417],[12.4,2501],[15.4,2583],[15.5,2666],[15.5,2749],[15.5,2833],[15.5,2916],[15.5,2999],[15.5,3083],[15.5,3166],[15.5,3249],[15.5,3333],[15.5,3416],[15.5,3499],[15.5,3583],[15.5,3666],[15.5,3749],[15.5,3833],[15.5,3916],[15.5,3999],[15.5,4083],[15.5,4166],[15.5,4249],[16.7,4333],[23,4416],[29,4501],[29.4,4583],[29.4,4666],[29.4,4749],[29.4,4833],[29.4,4916],[29.4,4999],[29.4,5083],[29.4,5166],[32.3,5251],[39.1,5334],[41.6,5416],[43.8,5500],[46.8,5584],[48.8,5666],[49.1,5749],[49.1,5833],[49.1,5916],[49.1,5999],[49.1,6083],[49.1,6166],[49.1,6249],[49.1,6333],[49.1,6416],[49.1,6499],[49.1,6583],[49.1,6666],[49.1,6749],[49.1,6833],[49.1,6916],[49.1,6999],[49.1,7083],[49.1,7166],[49.1,7249],[49.1,7333],[49.1,7416],[49.1,7499],[49.1,7583],[49.1,7666],[49.1,7750],[49.1,7833],[49.1,7916],[49.1,7999],[49.1,8083],[49.1,8166],[49.1,8249],[49.1,8333],[49.1,8416],[49.1,8499],[49.1,8583],[49.1,8666],[49.1,8749],[49.1,8833],[49.1,8916],[49.1,8999],[49.1,9083],[47,9168],[42,9250],[39.9,9333],[38.9,9416],[37.7,9500],[35.1,9583],[34.3,9666],[34,9750],[33.5,9833],[32.9,9916]]",1,0,835.0137,839.5458,33.64583333,1.8202,"[{""rating"":33.64583333333333,""responseTime"":1.8201999999993177}]",space,3.99,,839.5458,All the time,100,839.5549,,,[],,,,0,9,9,9,1,audio/Narrative7Situation9.wav,audio/Narrative8Situation9.wav,audio/Narrative5Situation9.wav,audio/Narrative6Situation9.wav,2,3,3,4,,,,,,,,,,,,,,,,,,,,,,,,,,,,,,,,,,,,,
,,,,,,58f7cdd4c31d4d00015aac83,2024-05-13_11h32.45.930,group3.1-3.2-social-tom,2023.2.2,Win32,59.88023952,65c5074098b851296ff0b7ed,6642326731f69ad65d0ea8bd,,,,,,,,,,,,,,,,,,,,,,,,,,,,,839.5551,2,audio/Narrative5Situation1.wav,844.5626,,844.5626,857.8627,"[[999,7],[999,83],[999,166],[999,249],[999,333],[999,416],[999,499],[999,583],[999,666],[999,750],[999,833],[999,917],[999,1000],[999,1084],[9.7,1168],[3.8,1251],[2.5,1333],[2.2,1416],[2,1500],[1.1,1583],[0.5,1666],[0.5,1749],[0.5,1833],[0.5,1916],[0.5,1999],[0.5,2083],[0.5,2166],[0.5,2249],[0.5,2333],[0.5,2416],[0.5,2499],[0.5,2583],[0.5,2666],[0.5,2749],[0.5,2833],[0.5,2916],[0.5,2999],[0.5,3083],[0.5,3166],[0.2,3250],[2.9,5916],[4.3,5999],[4.3,6083],[4.5,6166],[4.5,6249],[4.5,6333],[4.5,6416],[4.5,6499],[4.5,6583],[4.5,6666],[4.5,6749],[4.5,6833],[4.5,6916],[4.5,6999],[4.5,7083],[4.5,7166],[4.5,7249],[4.5,7333],[4.5,7416],[4.5,7499],[4.5,7583],[4.5,7666],[4.5,7749],[4.5,7833],[4.5,7916],[4.5,7999],[4.5,8083],[4.5,8166],[4.5,8249],[4.5,8333],[4.5,8416],[4.5,8499],[4.5,8583],[4.5,8666],[4.5,8749],[4.5,8833],[4.5,8916],[4.5,8999],[4.5,9083],[4.5,9166],[4.5,9249],[4.5,9333],[4.5,9416],[4.5,9499],[4.5,9583],[4.5,9666],[4.5,9749],[4.5,9833],[4.5,9916],[4.5,9999],[4.5,10083],[4.5,10166],[4.5,10249],[4.5,10333],[4.5,10416],[4.5,10499],[4.5,10583],[4.5,10666],[4.5,10749],[4.5,10833],[4.5,10916],[4.5,10999],[4.5,11083],[4.5,11166],[4.5,11249],[4.5,11333],[4.5,11416],[4.5,11499],[4.5,11583],[4.5,11666],[4.5,11749],[4.5,11833],[4.5,11916],[4.5,11999],[4.5,12083],[4.5,12166],[4.5,12249],[4.8,12333],[5.4,12416],[6,12500],[6.7,12583],[7.2,12666],[7.2,12749],[7.2,12833],[7.2,12916],[7.2,12999],[7.2,13083],[6.8,13166],[6.4,13250]]",1,0,857.8628,860.1959,6.25,0.7307,"[{""rating"":6.25,""responseTime"":0.730700000001093}]",space,1.7884,,860.1959,Half the time,50,860.1996,,,[],,,,0,10,10,10,1,audio/Narrative8Situation1.wav,audio/Narrative7Situation1.wav,audio/Narrative6Situation1.wav,audio/Narrative5Situation1.wav,5,2,2,5,,,,,,,,,,,,,,,,,,,,,,,,,,,,,,,,,,,,,
,,,,,,58f7cdd4c31d4d00015aac83,2024-05-13_11h32.45.930,group3.1-3.2-social-tom,2023.2.2,Win32,59.88023952,65c5074098b851296ff0b7ed,6642326731f69ad65d0ea8bd,,,,,,,,,,,,,,,,,,,,,,,,,,,,,860.1998,2,audio/Narrative5Situation2.wav,863.2125,,863.2125,892.6793,"[[999,8],[999,83],[999,166],[999,250],[999,333],[999,416],[999,499],[999,583],[999,667],[999,750],[999,833],[999,917],[999,999],[999,1083],[999,1166],[999,1250],[999,1333],[999,1416],[999,1499],[999,1583],[999,1666],[999,1750],[999,1833],[999,1916],[999,1999],[999,2083],[999,2166],[999,2249],[999,2333],[999,2416],[999,2499],[999,2583],[999,2666],[999,2749],[999,2833],[999,2916],[999,3000],[999,3083],[999,3166],[999,3250],[999,3333],[999,3416],[999,3499],[999,3583],[999,3667],[999,3749],[999,3833],[999,3916],[999,4000],[999,4083],[999,4166],[999,4250],[999,4333],[999,4416],[999,4499],[999,4583],[999,4666],[999,4750],[999,4833],[999,4916],[999,5000],[999,5083],[999,5166],[999,5249],[999,5333],[999,5416],[999,5499],[999,5583],[999,5666],[999,5750],[999,5833],[999,5916],[999,5999],[999,6083],[999,6166],[999,6250],[999,6333],[999,6416],[999,6499],[999,6583],[999,6666],[999,6750],[999,6833],[999,6916],[999,6999],[999,7083],[999,7166],[999,7250],[999,7333],[999,7416],[999,7499],[999,7583],[999,7666],[999,7749],[999,7833],[999,7916],[999,7999],[999,8083],[999,8166],[999,8249],[999,8333],[999,8416],[999,8500],[999,8583],[999,8666],[999,8749],[999,8833],[999,8916],[999,9000],[999,9083],[999,9166],[999,9249],[999,9333],[999,9416],[999,9499],[999,9583],[999,9666],[999,9749],[999,9833],[999,9916],[999,9999],[999,10083],[999,10166],[999,10250],[999,10333],[999,10416],[999,10499],[999,10583],[999,10666],[999,10750],[999,10833],[999,10916],[999,11000],[999,11083],[999,11166],[999,11249],[999,11333],[999,11417],[999,11500],[999,11583],[999,11666],[999,11749],[999,11833],[999,11916],[999,11999],[999,12083],[999,12166],[999,12250],[999,12333],[999,12416],[999,12500],[999,12583],[999,12667],[999,12751],[999,12834],[15.2,12918],[10.9,13000],[10.8,13083],[10.8,13167],[10.8,13250],[10.8,13333],[10.3,13416],[9.3,13501],[9.1,13583],[8.9,13667],[6.9,13751],[5.9,13833],[5.8,13916],[5.8,13999],[5.6,14083],[6.5,14167],[6.5,14250],[6.5,14333],[6.5,14416],[6.5,14499],[6.5,14583],[5,14667],[4.5,14749],[4.5,14833],[4.5,14916],[4.7,15000],[8,15084],[13.1,15167],[14.1,15250],[14.1,15333],[14.1,15416],[14.2,15500],[14.2,15583],[14.2,15667],[14.2,15749],[14.2,15833],[14.2,15916],[14.2,15999],[14.2,16083],[14.2,16166],[14.2,16250],[14.2,16333],[14.2,16416],[14.2,16499],[14.2,16583],[14.2,16666],[14.2,16750],[14.2,16833],[14.2,16916],[14.2,16999],[14.2,17083],[14.2,17166],[14.2,17250],[14.2,17333],[14.3,17417],[14.3,17499],[14.3,17583],[14.5,17667],[21.1,17751],[29,17833],[29.3,17917],[29.3,17999],[29.3,18083],[29.3,18166],[29.3,18249],[29.3,18333],[29.3,18416],[29.3,18499],[29.3,18583],[29.3,18666],[29.3,18750],[29.3,18833],[29.3,18916],[29.3,18999],[29.3,19083],[29.3,19166],[29.3,19249],[29.3,19333],[29.3,19416],[29.3,19499],[29.2,19583],[29.2,19666],[29.2,19750],[29.2,19833],[29.2,19916],[29.2,19999],[29.2,20083],[29.2,20166],[29.2,20250],[29.2,20333],[29.2,20416],[29.2,20500],[29.2,20583],[29.2,20666],[29.2,20750],[29.2,20833],[29.2,20916],[29.2,21000],[29.2,21083],[29.2,21166],[29.2,21250],[29.2,21333],[29.2,21416],[29.2,21499],[29.2,21583],[29.2,21666],[29.2,21749],[29.2,21833],[29.2,21916],[29.2,22000],[29.2,22083],[29.2,22166],[29.2,22249],[29.2,22333],[29.2,22416],[29.2,22499],[29.2,22583],[29.2,22666],[29.2,22749],[29.2,22833],[29.2,22916],[29.2,22999],[29.2,23083],[29.2,23166],[29.2,23249],[29.2,23333],[29.2,23416],[29.2,23499],[29.2,23583],[29.2,23666],[29.2,23749],[29.2,23833],[29.2,23916],[29.2,23999],[29.2,24083],[29.2,24166],[29.2,24249],[29.2,24333],[29.2,24416],[29.2,24499],[29.2,24583],[29.2,24666],[29.5,24750],[29.9,24833],[31.6,24917],[33.9,25000],[35.2,25083],[35.3,25166],[35.3,25250],[35.3,25333],[35.3,25416],[34.4,25500],[33.1,25583],[32.6,25667],[31.6,25750],[29,25834],[27.2,25917],[26.9,25999],[26.9,26083],[26.9,26166],[27.6,26250],[29.1,26334],[29.5,26416],[29.5,26500],[29.5,26583],[29.5,26666],[29.8,26750],[30,26833],[30,26916],[27.6,27000],[25,27083],[25,27166],[25,27249],[25,27333],[24.8,27417],[24.5,27500],[24.5,27583],[24.5,27666],[24.5,27750],[26.9,27833],[28.8,27916],[28.8,27999],[27.9,28083],[26.3,28167],[25.2,28250],[24.9,28333],[24,28417],[22.6,28500],[22.6,28583],[22.5,28666],[22.5,28749],[22.5,28833],[22.5,28916],[22.5,28999],[22.5,29083],[22.5,29166],[22.5,29250],[22.5,29333],[22.5,29416]]",1,0,892.6795,895.8816,33.22916667,2.8214,"[{""rating"":22.708333333333336,""responseTime"":0.8883999999984553},{""rating"":27.083333333333336,""responseTime"":1.957399999998529},{""rating"":27.083333333333336,""responseTime"":2.4093000000007123},{""rating"":33.229166666666664,""responseTime"":2.821399999998448}]",space,2.6561,,895.8817,All the time,100,895.8848,,,[],,,,0,11,11,11,1,audio/Narrative8Situation2.wav,audio/Narrative7Situation2.wav,audio/Narrative6Situation2.wav,audio/Narrative5Situation2.wav,3,3,3,3,,,,,,,,,,,,,,,,,,,,,,,,,,,,,,,,,,,,,
,,,,,,58f7cdd4c31d4d00015aac83,2024-05-13_11h32.45.930,group3.1-3.2-social-tom,2023.2.2,Win32,59.88023952,65c5074098b851296ff0b7ed,6642326731f69ad65d0ea8bd,,,,,,,,,,,,,,,,,,,,,,,,,,,,,895.8851,2,audio/Narrative5Situation3.wav,898.8958,,898.8959,912.8126,"[[999,7],[999,83],[999,166],[999,249],[999,333],[999,416],[999,499],[999,583],[999,669],[999,751],[999,833],[999,916],[999,999],[999,1083],[999,1167],[4.3,1250],[3.3,1333],[2,1416],[1.5,1499],[1.5,1583],[1.5,1666],[1.5,1749],[1.5,1833],[1.5,1916],[1.5,1999],[1.5,2083],[1.5,2166],[1.5,2249],[1.5,2333],[1.5,2416],[1.5,2499],[1.5,2583],[1.5,2666],[1.5,2749],[1.5,2833],[1.5,2916],[1.5,2999],[1.5,3083],[1.5,3166],[1.5,3249],[1.5,3333],[1.5,3416],[1.5,3499],[1.5,3583],[1.5,3666],[1.5,3749],[1.5,3833],[1.5,3916],[1.5,3999],[1.5,4083],[1.5,4166],[1.5,4249],[1.5,4333],[1.5,4416],[1.5,4499],[1.5,4583],[1.5,4666],[1.5,4749],[1.5,4833],[1.5,4916],[1.5,4999],[1.5,5083],[1.5,5166],[1.5,5249],[1.5,5333],[1.5,5416],[1.5,5499],[1.5,5583],[1.5,5666],[1.5,5750],[1.5,5833],[1.5,5916],[1.5,5999],[1.5,6083],[1.5,6166],[1.5,6249],[1.5,6333],[1.5,6416],[1.5,6499],[1.5,6583],[1.5,6666],[1.5,6750],[1.5,6833],[1.5,6916],[1.5,6999],[1.5,7083],[1.5,7166],[1.5,7249],[1.5,7333],[1.5,7416],[1.5,7499],[1.5,7583],[1.5,7666],[1.5,7749],[1.5,7833],[1.5,7916],[1.5,7999],[1.5,8083],[1.5,8166],[1.5,8249],[1.5,8333],[1.5,8416],[1.5,8499],[1.5,8583],[1.5,8666],[1.5,8749],[1.5,8833],[1.5,8916],[1.5,8999],[1.5,9083],[1.5,9166],[1.5,9249],[1.5,9333],[1.5,9416],[1.5,9499],[1.5,9583],[1.5,9666],[1.5,9749],[1.5,9833],[1.5,9916],[1.5,9999],[1.5,10083],[1.5,10166],[1.5,10249],[1.5,10333],[1.5,10416],[1.5,10499],[1.5,10583],[1.5,10666],[1.5,10749],[1.5,10833],[1.5,10916],[1.5,10999],[1.5,11083],[1.5,11166],[1.5,11249],[1.5,11333],[1.5,11416],[1.5,11499],[1.5,11583],[1.5,11666],[1.5,11749],[1.5,11833],[1.5,11916],[1.5,11999],[1.5,12083],[1.5,12166],[1.5,12249],[1.5,12333],[1.6,12416],[1.6,12499],[1.7,12583],[6.5,12666],[10.2,12750],[12.7,12833],[15.3,12916],[17.3,13000],[21.7,13084],[27.8,13167],[34,13250],[37.8,13333],[38.1,13416],[38.1,13500],[38.1,13583],[38.1,13666],[38.1,13749],[38.1,13833],[38.1,13916]]",1,0,912.8127,915.1959,49.16666667,1.1884,"[{""rating"":49.166666666666664,""responseTime"":1.1883999999985235}]",space,1.8339,,915.196,All the time,100,915.1987,,,[],,,,0,12,12,12,1,audio/Narrative8Situation3.wav,audio/Narrative7Situation3.wav,audio/Narrative6Situation3.wav,audio/Narrative5Situation3.wav,4,8,5,3,,,,,,,,,,,,,,,,,,,,,,,,,,,,,,,,,,,,,
,,,,,,58f7cdd4c31d4d00015aac83,2024-05-13_11h32.45.930,group3.1-3.2-social-tom,2023.2.2,Win32,59.88023952,65c5074098b851296ff0b7ed,6642326731f69ad65d0ea8bd,,,,,,,,,,,,,,,,,,,,,,,,,,,,,915.1989,2,audio/Narrative5Situation4.wav,916.2125,,916.2126,936.6127,"[[30.7,667],[40.3,751],[44.5,833],[45.1,917],[47,1000],[47.5,1083],[48.9,1166],[49.4,1250],[49.8,1333],[49.8,1416],[49.8,1499],[41.4,1584],[34.8,1667],[34.7,1749],[34.7,1833],[34.7,1916],[34.7,1999],[34.7,2083],[34.7,2166],[34.7,2249],[34.7,2333],[34.7,2416],[34.7,2499],[34.7,2583],[34.7,2666],[34.8,2750],[41.5,2833],[42.7,2916],[42.7,2999],[44.9,3083],[47.8,3166],[48.3,3250],[49,3333],[49.1,3416],[49.1,3499],[49.1,3583],[49.1,3666],[49.1,3749],[49.1,3833],[49.1,3916],[48.5,4000],[48.5,4083],[48.5,4166],[48.5,4249],[48.5,4333],[48.5,4416],[48.5,4499],[48.5,4583],[48.5,4666],[48.5,4749],[48.5,4833],[48.5,4916],[48.5,4999],[48.5,5083],[48.5,5166],[48.5,5249],[48.4,5333],[46.9,5416],[45.1,5500],[43.2,5583],[41.5,5667],[41.1,5749],[41.1,5833],[41.1,5916],[41.1,5999],[41.1,6083],[41.1,6166],[41.1,6249],[41.1,6333],[41.1,6416],[41.1,6499],[41.1,6583],[41.1,6666],[41.1,6749],[41.1,6833],[41.1,6916],[41.1,6999],[41.1,7083],[41.1,7166],[41.1,7249],[41.1,7333],[41.1,7416],[41.1,7499],[41.1,7583],[41.1,7666],[41.1,7749],[41.1,7833],[41.1,7916],[41.1,7999],[41.1,8083],[41.1,8166],[41.1,8249],[41.1,8333],[41.1,8416],[41.1,8499],[41.1,8583],[41.1,8666],[41.1,8749],[41.1,8833],[41.1,8916],[41.1,8999],[41.1,9083],[41.1,9166],[41.1,9249],[41.1,9333],[41.1,9416],[41.1,9499],[41.1,9583],[41.1,9666],[41.1,9749],[41.1,9833],[41.1,9916],[41.1,9999],[41.1,10083],[41.1,10166],[41.1,10249],[41.1,10333],[41.1,10416],[41.1,10499],[41.1,10583],[41.1,10666],[41.1,10749],[41.1,10833],[41.1,10916],[41.1,10999],[41.1,11083],[41.1,11166],[41.1,11249],[41.1,11333],[41.1,11416],[41.1,11499],[41.1,11583],[41.1,11666],[41.1,11749],[41.1,11833],[41.1,11916],[41.5,11999],[41.5,12083],[41.8,12167],[44.1,12250],[46.1,12334],[48,12417],[50.3,12500],[50.9,12583],[51.7,12666],[52.4,12750],[52.7,12833],[52.8,12916],[52.8,12999],[52.8,13083],[52.8,13166],[52.8,13249],[52.8,13333],[52.8,13416],[52.8,13500],[52.8,13583],[52.8,13666],[52.8,13749],[52.8,13833],[52.8,13916],[52.8,13999],[52.8,14083],[52.8,14166],[52.8,14249],[52.8,14333],[52.8,14416],[52.8,14499],[52.8,14583],[52.8,14666],[52.8,14749],[52.8,14833],[52.8,14916],[52.8,14999],[52.8,15083],[52.8,15166],[52.8,15249],[52.8,15333],[52.8,15416],[52.8,15499],[52.8,15583],[52.8,15666],[52.8,15749],[52.8,15833],[52.8,15916],[52.8,15999],[52.8,16083],[52.8,16166],[52.8,16249],[52.8,16333],[52.8,16416],[52.8,16499],[52.8,16583],[52.8,16666],[52.8,16749],[52.8,16833],[52.8,16916],[52.8,16999],[52.8,17083],[51.8,17168],[49.6,17250],[49.3,17333],[49.3,17416],[49.3,17499],[49.3,17583],[49.3,17666],[49.3,17749],[49.3,17833],[49.3,17916],[49.3,17999],[45.4,18084],[40.5,18166],[40.4,18249],[40.4,18333],[40.4,18416],[40.4,18499],[40.4,18583],[40.4,18666],[40.4,18749],[40.4,18833],[40.4,18916],[42.9,19001],[45.3,19083],[45.7,19166],[45.7,19249],[45.7,19333],[45.7,19416],[45.7,19499],[45.7,19583],[45.7,19666],[45.7,19749],[45.7,19833],[45.7,19916],[45.7,19999],[45.7,20083],[45.7,20166],[45.7,20249],[45.7,20333]]",1,0,936.6128,939.7625,53.22916667,2.1932,"[{""rating"":53.22916666666667,""responseTime"":2.1931999999992513}]",space,2.6043,,939.7626,Half the time,50,939.7663,,,[],,,,0,13,13,13,1,audio/Narrative8Situation4.wav,audio/Narrative7Situation4.wav,audio/Narrative6Situation4.wav,audio/Narrative5Situation4.wav,3,3,2,1,,,,,,,,,,,,,,,,,,,,,,,,,,,,,,,,,,,,,
,,,,,,58f7cdd4c31d4d00015aac83,2024-05-13_11h32.45.930,group3.1-3.2-social-tom,2023.2.2,Win32,59.88023952,65c5074098b851296ff0b7ed,6642326731f69ad65d0ea8bd,,,,,,,,,,,,,,,,,,,,,,,,,,,,,939.7665,2,audio/Narrative5Situation5.wav,944.7792,,944.7793,960.2127,"[[999,8],[999,83],[999,166],[999,249],[999,333],[999,416],[999,500],[999,583],[999,668],[52,750],[51.7,833],[50.2,916],[47.7,1000],[20.2,1084],[7.3,2002],[9,2083],[9,2166],[9,2249],[9,2333],[9,2416],[8.3,2500],[5.3,2583],[4.8,2666],[3.1,2752],[2.1,2833],[1.9,2916],[1.5,3000],[1.4,3083],[1.4,3166],[1.4,3249],[1.4,3333],[1.4,3416],[1.1,3500],[0.6,3583],[1.3,4667],[25.6,4752],[54.2,4834],[60.9,4917],[61.6,5000],[61.8,5083],[61.8,5166],[61.8,5249],[61.8,5333],[61.8,5416],[61.6,5500],[58.2,5585],[56.6,5667],[54.9,5750],[53.8,5833],[53.8,5916],[53.8,5999],[53.8,6083],[53.8,6166],[53.8,6249],[53.8,6333],[53.8,6416],[53.8,6500],[53.8,6583],[53.8,6666],[53.8,6749],[53.8,6833],[53.8,6916],[53.8,6999],[53.8,7083],[53.8,7166],[53.8,7249],[53.8,7333],[53.8,7416],[53.8,7499],[53.8,7583],[53.8,7666],[53.8,7749],[53.8,7833],[53.8,7916],[53.8,7999],[53.8,8083],[53.8,8166],[53.8,8249],[53.8,8333],[53.8,8416],[53.8,8499],[53.8,8583],[53.8,8666],[53.8,8749],[53.8,8833],[53.8,8916],[53.9,9000],[57.3,9085],[63.1,9168],[64.3,9250],[65.3,9333],[67.2,9416],[69.3,9500],[69.4,9583],[69.4,9666],[69.4,9749],[69.4,9833],[69.4,9916],[69.4,9999],[69.4,10083],[69.4,10166],[69.4,10249],[69.4,10333],[69.4,10416],[69.4,10499],[69.4,10583],[69.4,10666],[69.4,10749],[69.4,10833],[69.4,10916],[69.4,11000],[69.4,11083],[69.4,11166],[69.4,11249],[69.4,11333],[69.4,11416],[69.4,11499],[69.4,11583],[69.4,11666],[69.4,11749],[69.4,11833],[69.4,11916],[69.4,11999],[69.4,12083],[69.4,12166],[69.4,12249],[69.4,12333],[69.4,12416],[69.4,12499],[69.4,12583],[69.4,12666],[69.4,12749],[69.4,12833],[69.4,12916],[69.4,12999],[69.4,13083],[69.4,13166],[69.4,13249],[69.4,13333],[69.4,13416],[69.4,13499],[69.4,13583],[69.4,13666],[69.4,13749],[69.4,13833],[69.4,13916],[69.4,13999],[69.4,14083],[69.4,14166],[69.4,14249],[69.8,14333],[70.6,14416],[70.8,14499],[70.8,14583],[70.9,14666],[71.9,14750],[73.3,14834],[77.8,14916],[80.6,15000],[81,15083],[81,15166],[80.7,15250],[80.7,15333],[80.7,15416]]",1,0,960.2128,962.7126,88.125,1.0778,"[{""rating"":88.125,""responseTime"":1.0777999999970689}]",space,1.9778,,962.7127,Not at all,0,962.7167,,,[],,,,0,14,14,14,1,audio/Narrative8Situation5.wav,audio/Narrative7Situation5.wav,audio/Narrative6Situation5.wav,audio/Narrative5Situation5.wav,2,5,2,5,,,,,,,,,,,,,,,,,,,,,,,,,,,,,,,,,,,,,
,,,,,,58f7cdd4c31d4d00015aac83,2024-05-13_11h32.45.930,group3.1-3.2-social-tom,2023.2.2,Win32,59.88023952,65c5074098b851296ff0b7ed,6642326731f69ad65d0ea8bd,,,,,,,,,,,,,,,,,,,,,,,,,,,,,962.7169,2,audio/Narrative5Situation6.wav,965.7292,,965.7293,971.3968,"[[999,8],[999,83],[999,166],[999,249],[999,333],[999,417],[44.7,500],[30.1,584],[21.7,668],[14.2,751],[3.2,834],[0.5,2500],[8.8,2585],[22.8,2667],[29.3,2750],[34.5,2835],[38.9,2917],[39.3,2999],[39.3,3083],[37.3,3167],[27.1,3250],[20.8,3333],[20.8,3416],[20.8,3499],[32.3,3584],[48.8,3668],[55.8,3750],[56,3833],[56.1,3916],[53.9,4000],[52.1,4083],[52.1,4166],[52.1,4249],[55.5,4334],[70.2,4417],[81.9,4500],[82.8,4583],[86.6,4668],[100,4751],[100,4833],[99.5,4917],[96.3,5000],[95.1,5083],[95.1,5166],[95,5250],[95,5333],[95,5416],[93.3,5500],[90.6,5583],[90.4,5666]]",1,0,971.3971,979.7125,73.02083333,7.2277,"[{""rating"":73.02083333333333,""responseTime"":7.227699999999231}]",space,7.7672,,979.7126,Not at all,0,979.7153,,,[],,,,0,15,15,15,1,audio/Narrative8Situation6.wav,audio/Narrative7Situation6.wav,audio/Narrative6Situation6.wav,audio/Narrative5Situation6.wav,2,3,2,3,,,,,,,,,,,,,,,,,,,,,,,,,,,,,,,,,,,,,
