exp_question,consent.started,consent.stopped,consentResponse.keys,consentResponse.rt,consentResponse.duration,participantID,date,expName,psychopyVersion,OS,frameRate,STUDY_ID,SESSION_ID,opening1.started,opening1.stopped,keyEndingOpening1.keys,keyEndingOpening1.rt,keyEndingOpening1.duration,volumeAdjust.started,volumeAdjust.stopped,endingAdjust.keys,endingAdjust.rt,endingAdjust.duration,opening2.started,opening2.stopped,keyEndingOpening.keys,keyEndingOpening.rt,keyEndingOpening.duration,mouse.x,mouse.y,mouse.leftButton,mouse.midButton,mouse.rightButton,mouse.time,instructionLoop.thisRepN,instructionLoop.thisTrialN,instructionLoop.thisN,instructionLoop.thisIndex,instructionLoop.ran,readyForAudio.started,readyForAudio.stopped,fixation.started,run,audio_played,fixation.stopped,endPractice.keys,audioPre.started,audioPre.stopped,continuousResponses_audio,continuousSlider.response,continuousSlider.rt,intRating.started,intRating.stopped,intQuestionSlider.response,intQuestionSlider.rt,intQuestionSlider.history,confirmResponse.keys,confirmResponse.rt,confirmResponse.duration,catchQuestion.started,catch_label,catch_value,catchQuestion.stopped,catchQuestionSlider.response,catchQuestionSlider.rt,catchQuestionSlider.history,confirmResponse_2.keys,audioRunLoop.thisRepN,audioRunLoop.thisTrialN,audioRunLoop.thisN,audioRunLoop.thisIndex,audioRunLoop.ran,conditions1_1,conditions2_1,conditions1_2,conditions2_2,dur1_1,dur2_1,dur1_2,dur2_2,endPractice.rt,endPractice.duration,confirmResponse_2.rt,confirmResponse_2.duration,runIntervalBreak.started,runIntervalBreak.stopped,endingBreakKey.keys,endingBreakKey.rt,endingBreakKey.duration,connection.started,connection.stopped,connectionEnding.keys,connectionEnding.rt,connectionEnding.duration,readyForText.started,readyForText.stopped,textPre.started,run_dup,textPre.stopped,continuousResponses_text,textRunLoop.thisRepN,textRunLoop.thisTrialN,textRunLoop.thisN,textRunLoop.thisIndex,textRunLoop.ran,text1_1,text1_2,text2_1,text2_2,runBreakText.started,runBreakText.stopped,endingBreakKey_2.keys,endingBreakKey_2.rt,endingBreakKey_2.duration,ending.started,ending.stopped,endingEnding.keys,endingEnding.rt,endingEnding.duration
tom,0.0006,3.6374,y,3.3316,,590208c89571f50001c666e3,2024-02-08_16h02.09.323,group3.1-3.2-social-tom,2023.2.2,Win32,74.62686567,65c5074098b851296ff0b7ed,65c54145da616938d6969f12,,,,,,,,,,,,,,,,,,,,,,,,,,,,,,,,,,,,,,,,,,,,,,,,,,,,,,,,,,,,,,,,,,,,,,,,,,,,,,,,,,,,,,,,,,,,,,,,,,,,,,,,,,
,,,,,,590208c89571f50001c666e3,2024-02-08_16h02.09.323,group3.1-3.2-social-tom,2023.2.2,Win32,74.62686567,65c5074098b851296ff0b7ed,65c54145da616938d6969f12,3.6376,6.9985,space,3.3406,,,,,,,,,,,,,,,,,,,,,,,,,,,,,,,,,,,,,,,,,,,,,,,,,,,,,,,,,,,,,,,,,,,,,,,,,,,,,,,,,,,,,,,,,,,,,,,,,,,,,,
,,,,,,590208c89571f50001c666e3,2024-02-08_16h02.09.323,group3.1-3.2-social-tom,2023.2.2,Win32,74.62686567,65c5074098b851296ff0b7ed,65c54145da616938d6969f12,,,,,,6.9986,16.7886,space,9.4726,,,,,,,,,,,,,,,,,,,,,,,,,,,,,,,,,,,,,,,,,,,,,,,,,,,,,,,,,,,,,,,,,,,,,,,,,,,,,,,,,,,,,,,,,,,,,,,,,
,,,,,,590208c89571f50001c666e3,2024-02-08_16h02.09.323,group3.1-3.2-social-tom,2023.2.2,Win32,74.62686567,65c5074098b851296ff0b7ed,65c54145da616938d6969f12,,,,,,,,,,,16.7922,20.5232,space,3.7071,,[],[],[],[],[],[],0,0,0,0,1,,,,,,,,,,,,,,,,,,,,,,,,,,,,,,,,,,,,,,,,,,,,,,,,,,,,,,,,,,,,,,,,,,,,,,,,,,,,,,,,
,,,,,,590208c89571f50001c666e3,2024-02-08_16h02.09.323,group3.1-3.2-social-tom,2023.2.2,Win32,74.62686567,65c5074098b851296ff0b7ed,65c54145da616938d6969f12,,,,,,,,,,,20.5236,32.367,space,11.7522,,[],[],[],[],[],[],1,0,1,0,1,,,,,,,,,,,,,,,,,,,,,,,,,,,,,,,,,,,,,,,,,,,,,,,,,,,,,,,,,,,,,,,,,,,,,,,,,,,,,,,,
,,,,,,590208c89571f50001c666e3,2024-02-08_16h02.09.323,group3.1-3.2-social-tom,2023.2.2,Win32,74.62686567,65c5074098b851296ff0b7ed,65c54145da616938d6969f12,,,,,,,,,,,32.3673,40.3164,space,7.9072,,[],[],[],[],[],[],2,0,2,0,1,,,,,,,,,,,,,,,,,,,,,,,,,,,,,,,,,,,,,,,,,,,,,,,,,,,,,,,,,,,,,,,,,,,,,,,,,,,,,,,,
,,,,,,590208c89571f50001c666e3,2024-02-08_16h02.09.323,group3.1-3.2-social-tom,2023.2.2,Win32,74.62686567,65c5074098b851296ff0b7ed,65c54145da616938d6969f12,,,,,,,,,,,40.3167,53.3208,space,12.9855,,[],[],[],[],[],[],3,0,3,0,1,,,,,,,,,,,,,,,,,,,,,,,,,,,,,,,,,,,,,,,,,,,,,,,,,,,,,,,,,,,,,,,,,,,,,,,,,,,,,,,,
,,,,,,590208c89571f50001c666e3,2024-02-08_16h02.09.323,group3.1-3.2-social-tom,2023.2.2,Win32,74.62686567,65c5074098b851296ff0b7ed,65c54145da616938d6969f12,,,,,,,,,,,53.3267,60.0832,space,6.7384,,[],[],[],[],[],[],4,0,4,0,1,,,,,,,,,,,,,,,,,,,,,,,,,,,,,,,,,,,,,,,,,,,,,,,,,,,,,,,,,,,,,,,,,,,,,,,,,,,,,,,,
,,,,,,590208c89571f50001c666e3,2024-02-08_16h02.09.323,group3.1-3.2-social-tom,2023.2.2,Win32,74.62686567,65c5074098b851296ff0b7ed,65c54145da616938d6969f12,,,,,,,,,,,,,,,,,,,,,,,,,,,60.0985,62.6709,62.6863,1,audio/Narrative13Situation2.wav,64.6981,,64.6982,94.4421,"[[999,0],[999,79],[999,159],[999,239],[999,319],[999,399],[999,479],[999,559],[999,640],[999,720],[999,799],[999,879],[999,959],[999,1040],[999,1120],[999,1200],[999,1280],[999,1360],[999,1440],[999,1520],[999,1600],[999,1680],[999,1760],[999,1840],[999,1920],[999,2000],[999,2080],[999,2160],[999,2240],[999,2320],[999,2400],[999,2480],[999,2560],[999,2640],[999,2720],[999,2800],[999,2880],[999,2960],[999,3040],[999,3120],[999,3200],[999,3280],[999,3360],[999,3441],[999,3520],[999,3600],[999,3680],[999,3761],[999,3840],[999,3921],[999,4001],[999,4081],[999,4161],[999,4241],[999,4321],[999,4401],[999,4481],[999,4561],[999,4641],[999,4721],[999,4801],[12,4881],[33.1,4961],[45.2,6081],[45.2,6162],[44.5,6242],[43.3,6322],[42.6,6402],[42.4,6482],[42.3,6562],[42.4,6642],[42.8,6722],[42.8,6802],[42.7,6882],[42.4,6962],[41.2,7042],[40.5,7122],[40.4,7202],[40.3,7286],[42,7362],[43,7442],[48,8162],[47.9,8242],[47.8,8322],[48.3,8402],[48.6,8482],[49.1,8562],[49.2,8642],[50.5,8722],[50.8,8802],[51.4,8882],[51.6,8962],[51.6,9042],[51.6,9122],[51.2,9203],[50.8,9282],[50.7,9362],[50.7,9442],[50.7,9522],[51.1,9602],[51.7,9683],[52,9763],[52,9931],[52,10003],[52,10083],[52,10163],[52,10243],[52,10323],[52,10403],[52,10483],[52,10563],[52,10643],[52,10723],[52,10803],[52,10883],[52,10963],[52,11043],[52.3,11123],[52.7,11203],[52.7,11283],[52.7,11363],[52.8,11443],[53.5,11523],[54.3,11603],[55,11683],[57,11763],[59.3,11843],[59.5,11923],[59.8,12003],[60.5,12084],[61.5,12164],[61.7,12243],[61.8,12323],[61.8,12403],[62.1,12483],[62.3,12564],[62.4,12644],[62.4,12724],[62.4,12804],[62.4,12884],[62.7,12964],[63,13044],[63.4,13124],[63.4,13204],[63.4,13284],[63.4,13364],[63.4,13444],[63.4,13524],[63.4,13604],[63.4,13684],[63.4,13764],[63.4,13844],[63.4,13924],[63.4,14004],[63.4,14084],[63.4,14164],[63.4,14244],[63.4,14324],[63.4,14404],[64.1,14538],[64.4,14618],[64.4,14697],[64.6,14778],[65.2,14858],[66.2,14938],[67.2,15018],[67.2,15098],[67.2,15178],[67.5,15258],[68.5,15338],[68.7,15418],[68.8,15498],[68.8,15578],[68.8,15658],[68.8,15738],[68.8,15818],[68.8,15898],[69,15978],[69.1,16058],[69.1,16138],[69.3,16218],[69.3,16298],[69.3,16378],[69.3,16458],[69.3,16539],[69.3,16618],[69.3,16698],[69.3,16778],[69.3,16858],[69.3,16938],[69.3,17018],[69.3,17098],[69.3,17178],[69.3,17258],[69.3,17338],[69.3,17418],[69.3,17498],[69.3,17578],[69.3,17659],[69.3,17739],[69.3,17819],[69.3,17899],[69.3,17979],[69.3,18059],[69.3,18139],[69.3,18219],[69.3,18299],[69.3,18379],[69.3,18459],[69.3,18539],[69.3,18619],[69.3,18699],[69.3,18779],[69.3,18859],[69.3,18939],[69.3,19019],[69.3,19099],[69.3,19179],[69.3,19259],[69.3,19339],[69.3,19419],[69.3,19499],[69.6,19580],[69.9,19659],[70,19739],[70,19819],[70,19900],[70,19979],[70,20059],[70,20140],[70,20219],[70,20299],[70,20380],[70,20459],[70,20540],[70.2,20620],[70.2,20700],[70.2,20780],[70.2,20860],[70.2,20940],[70.2,21020],[70.2,21100],[70.2,21180],[70.2,21260],[70.2,21340],[70.2,21420],[70.2,21500],[70.2,21580],[70.2,21660],[70.2,21740],[70.2,21820],[71.2,21900],[71.8,21980],[72.8,22060],[73.6,22140],[74.5,22220],[75.7,22301],[77.8,22380],[80.1,22460],[81.2,22540],[82.3,22620],[84.2,22700],[86.2,22780],[86.8,22860],[87.4,22940],[87.4,23021],[87.4,23100],[86.6,23180],[86.5,23260],[86.5,23340],[86.3,23421],[85.5,23501],[85,23581],[85,23661],[85,23741],[85,23821],[85,23901],[85,23981],[85,24061],[85,24141],[85,24221],[84.9,24301],[82.3,24381],[81,24461],[80.9,24541],[80.7,24621],[80.4,24701],[79.5,24781],[78.4,24861],[77.7,24941],[77.5,25021],[77.5,25101],[77.5,25181],[77.5,25262],[77.8,25341],[79.1,25421],[79.5,25501],[79.7,25581],[79.8,25661],[79.9,25742],[79.9,25821],[79.9,25902],[78.8,25982],[78.4,26061],[78.4,26141],[78.4,26221],[78.4,26302],[78.4,26382],[78.4,26462],[78.4,26542],[78.4,26622],[78.4,26702],[78.4,26782],[78.4,26862],[78.4,26942],[78.4,27022],[78.4,27102],[78.4,27182],[78.4,27262],[78.4,27342],[78.4,27423],[78.4,27502],[78.4,27582],[78.4,27662],[78.4,27742],[78.4,27822],[78.4,27902],[78.4,27982],[78.4,28062],[78.4,28142],[78.4,28222],[78.4,28302],[78.4,28382],[78.4,28462],[78.4,28542],[78.4,28622],[78.4,28702],[78.4,28782],[78.4,28862],[78.4,28942],[78.4,29022],[78.4,29102],[78.4,29183],[78.4,29263],[78.4,29343],[78.4,29423],[78.4,29503],[78.4,29583],[78.4,29663],[78.4,29743]]",1,0,94.4423,100.4573,67.58041331,4.6892,"[{""rating"":67.58041330864285,""responseTime"":4.689199999988077}]",space,5.4931,,100.4574,Not at all,0,100.4605,,,[],,0,0,0,0,1,audio/Narrative13Situation2.wav,audio/Narrative13Situation2.wav,audio/Narrative13Situation2.wav,audio/Narrative13Situation2.wav,2,2,2,2,,,,,,,,,,,,,,,,,,,,,,,,,,,,,,,,,,,,,,,
,,,,,,590208c89571f50001c666e3,2024-02-08_16h02.09.323,group3.1-3.2-social-tom,2023.2.2,Win32,74.62686567,65c5074098b851296ff0b7ed,65c54145da616938d6969f12,,,,,,,,,,,,,,,,,,,,,,,,,,,,,100.4607,1,audio/Narrative8Situation1.wav,101.6707,space,101.6707,117.5964,"[[999,0],[999,79],[999,159],[999,240],[999,320],[999,400],[999,480],[999,560],[999,640],[999,720],[999,800],[999,880],[999,960],[999,1040],[999,1120],[999,1200],[999,1280],[999,1360],[999,1440],[999,1520],[999,1600],[999,1680],[999,1760],[999,1840],[999,1920],[999,2000],[999,2080],[999,2160],[999,2240],[999,2320],[999,2400],[999,2480],[999,2560],[999,2640],[999,2720],[999,2800],[999,2880],[999,2960],[999,3040],[999,3120],[999,3201],[999,3281],[999,3361],[999,3441],[999,3521],[999,3600],[999,3680],[999,3761],[999,3841],[999,3921],[999,4001],[999,4081],[999,4161],[999,4241],[999,4321],[999,4401],[999,4481],[999,4561],[999,4641],[999,4721],[999,4801],[999,4975],[999,5055],[999,5135],[999,5215],[999,5295],[26.7,5375],[25.4,5455],[25.3,5534],[25.3,5615],[25.3,5695],[25.7,5775],[26.4,5855],[26.9,5935],[26.9,6015],[26.9,6095],[26.9,6175],[26.9,6255],[26.9,6335],[26.9,6415],[26.9,6495],[26.9,6575],[26.9,6655],[27.6,6735],[29.3,6815],[29.9,6895],[30,6975],[30.2,7055],[31.2,7135],[31.8,7215],[32.5,7296],[34.3,7376],[37.2,7456],[39,7536],[41.4,7616],[41.7,7696],[42.8,7776],[44.3,7856],[44.3,7936],[44.8,8016],[46.5,8096],[47.2,8176],[47.9,8256],[49.2,8336],[49.9,8415],[50.2,8496],[50.3,8576],[50.3,8656],[50.2,8736],[50.1,8816],[49.9,8896],[49.9,8976],[49.9,9056],[49.9,9136],[49.9,9216],[49.9,9296],[49.9,9376],[49.9,9456],[49.9,9536],[49.9,9616],[49.9,9696],[49.9,9776],[49.9,9856],[49.9,9936],[49.9,10016],[49.9,10096],[49.9,10176],[49.9,10256],[50.3,10337],[51.3,10416],[52.1,10497],[57.3,10576],[62.3,10656],[63,10736],[64.2,10817],[78.7,11457],[73,11537],[73.2,11617],[74.3,11697],[75.4,11777],[76.5,11857],[78,11937],[79.7,12017],[81,12097],[81.9,12177],[82.2,12257],[82.4,12337],[83.9,12417],[84.9,12497],[85.2,12577],[86,12657],[86.5,12737],[86.5,12817],[86.5,12897],[86.5,12977],[86.5,13057],[86.5,13137],[86.5,13217],[86.5,13297],[86.5,13377],[86.5,13457],[86.5,13537],[86.5,13617],[86,13791],[86,13871],[86,13951],[86,14031],[85.9,14111],[85.9,14191],[85.9,14271],[85.9,14351],[85.9,14431],[85.9,14511],[85.9,14591],[85.9,14671],[86.1,14751],[86.3,14831],[86.3,14911],[86.8,14992],[88,15072],[89.2,15151],[89.4,15231],[89.5,15311],[90.2,15392],[90.4,15471],[90.5,15551],[90.5,15631],[90.5,15712],[90.2,15792],[89.9,15871]]",1,0,117.5965,121.3973,90.28416619,2.6949,"[{""rating"":90.28416618789669,""responseTime"":2.6949000000059726}]",space,3.2669,,121.3974,All the time,100,121.3994,,,[],,0,1,1,1,1,audio/Narrative7Situation1.wav,audio/Narrative8Situation1.wav,audio/Narrative5Situation1.wav,audio/Narrative6Situation1.wav,2,5,5,2,1.1945,,,,,,,,,,,,,,,,,,,,,,,,,,,,,,,,,,,,,,
,,,,,,590208c89571f50001c666e3,2024-02-08_16h02.09.323,group3.1-3.2-social-tom,2023.2.2,Win32,74.62686567,65c5074098b851296ff0b7ed,65c54145da616938d6969f12,,,,,,,,,,,,,,,,,,,,,,,,,,,,,121.3996,1,audio/Narrative8Situation2.wav,124.4117,,124.4117,134.5352,"[[999,6],[999,80],[999,159],[999,240],[999,319],[999,400],[999,480],[999,560],[999,640],[999,720],[999,800],[999,880],[999,960],[999,1040],[999,1120],[999,1200],[999,1280],[999,1360],[999,1440],[999,1520],[999,1600],[999,1680],[999,1760],[999,1840],[999,1920],[999,2000],[999,2080],[999,2160],[999,2240],[999,2320],[999,2400],[999,2480],[999,2560],[999,2640],[999,2720],[999,2801],[999,2881],[50.7,2961],[51.6,3041],[51.6,3120],[51.5,3200],[51.4,3281],[51,3361],[50.1,3441],[50.1,3521],[50.1,3601],[50.1,3681],[49.9,3761],[49.9,3841],[49.8,3921],[49.7,4001],[49.7,4081],[49.7,4161],[49.7,4241],[49.7,4321],[49.8,4401],[49.9,4481],[50.1,4561],[50.1,4641],[50.1,4721],[50.1,4801],[50.1,4881],[50.1,4961],[50.1,5041],[50.1,5121],[50.1,5201],[50.1,5281],[50.1,5361],[50.1,5441],[50.1,5521],[50.1,5601],[50.1,5681],[49.4,5762],[49.3,5841],[49.3,5921],[49.3,6001],[49.3,6081],[51.4,6162],[54.3,6242],[58.6,6322],[60.4,6402],[61.1,6482],[62.8,6562],[63.8,6642],[64.7,6722],[66.7,6802],[67.9,6882],[69.1,6962],[70.3,7042],[72,7122],[72.8,7202],[73.6,7282],[74.3,7363],[75.2,7442],[76.1,7522],[76.1,7602],[76.2,7683],[76.7,7762],[76.7,7842],[76.7,7922],[76.6,8002],[76.5,8082],[76.5,8162],[76.5,8242],[76.5,8322],[76.5,8402],[76.6,8482],[77.6,8562],[77.7,8642],[77.7,8722],[78,8802],[79.8,8883],[82.6,8963],[84.8,9043],[86.1,9123],[86.9,9203],[86.9,9283],[86.9,9363],[87,9443],[87.1,9523],[88.4,9603],[88.7,9683],[88.9,9763],[88.9,9843],[88.9,9923],[88.9,10003],[88.9,10083]]",1,0,134.5353,136.5225,92.67951432,1.2292,"[{""rating"":92.67951432035987,""responseTime"":1.229200000002976}]",space,1.4549,,136.5225,Not at all,0,136.5246,,,[],,0,2,2,2,1,audio/Narrative7Situation2.wav,audio/Narrative8Situation2.wav,audio/Narrative5Situation2.wav,audio/Narrative6Situation2.wav,3,3,3,3,,,,,,,,,,,,,,,,,,,,,,,,,,,,,,,,,,,,,,,
,,,,,,590208c89571f50001c666e3,2024-02-08_16h02.09.323,group3.1-3.2-social-tom,2023.2.2,Win32,74.62686567,65c5074098b851296ff0b7ed,65c54145da616938d6969f12,,,,,,,,,,,,,,,,,,,,,,,,,,,,,136.5247,1,audio/Narrative8Situation3.wav,140.5371,,140.5371,162.9181,"[[49.5,1920],[50.1,2000],[52.9,2080],[60.1,2160],[69.8,2240],[76.4,2320],[77.2,2400],[81.3,2481],[84.9,2561],[87,2640],[89.5,2721],[91.8,2801],[92.7,2881],[93.6,2961],[94.3,3041],[94.3,3121],[95.2,3201],[95.3,3281],[95.3,3361],[95.3,3441],[95.3,3521],[95.3,3601],[95.3,3681],[95.3,3828],[95.3,3908],[95.3,3988],[95.3,4068],[95.3,4148],[95.3,4228],[95.3,4308],[95.3,4388],[95.3,4468],[95.3,4548],[95.3,4628],[95.3,4708],[95.3,4788],[95.3,4868],[95.3,4948],[95.3,5028],[95.4,5108],[97,5188],[98.4,5268],[99.9,5348],[100,5428],[100,5508],[100,5588],[100,5668],[100,5748],[100,5828],[100,5908],[100,5988],[100,6068],[100,6148],[100,6228],[100,6308],[100,6388],[100,6468],[100,6548],[100,6628],[100,6708],[100,6788],[100,6868],[100,6948],[100,7028],[100,7109],[100,7189],[100,7269],[100,7349],[100,7429],[100,7509],[100,7589],[100,7669],[100,7749],[100,7829],[97.6,7909],[97.3,7989],[97.2,8069],[96.7,8149],[96.3,8229],[95.4,8309],[94.8,8389],[94.8,8469],[94.8,8549],[96.2,8629],[96.8,8709],[96.8,8789],[96.8,8869],[96.8,8949],[96.6,9029],[96.5,9109],[96.5,9189],[96.5,9269],[96.5,9349],[96.5,9429],[96.5,9509],[96.4,9590],[96.2,9670],[96.1,9750],[95.8,9830],[95.4,9910],[95.1,9992],[95.1,10070],[94.8,10150],[94.7,10230],[94.7,10310],[94.7,10390],[94.7,10470],[94.7,10550],[94.7,10630],[94.7,10710],[94.7,10790],[94.7,10870],[94.7,10950],[94.7,11030],[94.7,11110],[94.7,11190],[94.7,11270],[94.7,11350],[94.7,11430],[94.7,11510],[94.7,11590],[94.7,11670],[94.7,11750],[94.7,11831],[94.7,11910],[94.7,11990],[94.7,12070],[94.7,12150],[94.7,12230],[94.7,12310],[94.7,12390],[94.7,12471],[94.7,12550],[94.7,12631],[94.7,12710],[94.7,12791],[94.7,12871],[94.7,12951],[94.7,13031],[94.7,13111],[94.7,13191],[94.7,13271],[94.7,13351],[94.7,13431],[94.7,13511],[94.7,13591],[94.7,13671],[94.7,13751],[94.7,13831],[94.7,13911],[94.7,13991],[94.7,14071],[94.7,14151],[94.7,14231],[94.7,14311],[94.7,14391],[94.7,14471],[94.7,14551],[94.7,14631],[94.7,14711],[94.7,14791],[94.7,14871],[94.7,14951],[94.7,15031],[94.7,15111],[94.7,15191],[94.7,15271],[94.7,15352],[94.7,15431],[94.7,15512],[94.7,15591],[94.7,15671],[94.7,15752],[94.7,15831],[94.7,15912],[94.7,15992],[94.7,16072],[94.7,16152],[94.7,16232],[94.7,16407],[94.7,16485],[94.7,16565],[94.7,16645],[94.7,16726],[94.7,16805],[94.4,16885],[94.2,16966],[93.3,17046],[92.8,17126],[92.8,17205],[92.8,17285],[92.6,17366],[92.1,17445],[92,17525],[92,17605],[92,17766],[91.6,17846],[91.4,17926],[91.4,18006],[91.4,18086],[91.4,18166],[91.4,18246],[91.4,18326],[91.4,18406],[91.4,18486],[91.4,18566],[91.4,18646],[91.3,18726],[90.8,18806],[90.3,18886],[90.2,18966],[90.2,19046],[90.2,19126],[90.2,19206],[90.2,19286],[90.3,19366],[90.4,19446],[90.4,19526],[90.4,19686],[90.4,19766],[90.4,19846],[90.4,19926],[90.4,20006],[90.4,20086],[90.4,20166],[90.4,20246],[90.4,20326],[90.4,20407],[90.4,20486],[90.4,20567],[90.4,20646],[90.4,20727],[90.4,20806],[90.4,20887],[90.4,20967],[90.4,21047],[90.4,21127],[90.4,21207],[90.4,21287],[90.4,21368],[90.4,21454],[90.4,21527],[90.4,21607],[90.4,21687],[90.4,21767],[90.4,21847],[90.4,21927],[90.4,22007],[90.4,22087],[90.4,22167],[90.4,22247],[90.4,22327]]",1,0,162.9183,166.626,89.55514172,3.565,"[{""rating"":89.55514171890431,""responseTime"":3.5649999999999977}]",space,3.1842,,166.6261,Half the time,50,166.6282,,,[],,0,3,3,3,1,audio/Narrative7Situation3.wav,audio/Narrative8Situation3.wav,audio/Narrative5Situation3.wav,audio/Narrative6Situation3.wav,8,4,3,5,,,,,,,,,,,,,,,,,,,,,,,,,,,,,,,,,,,,,,,
,,,,,,590208c89571f50001c666e3,2024-02-08_16h02.09.323,group3.1-3.2-social-tom,2023.2.2,Win32,74.62686567,65c5074098b851296ff0b7ed,65c54145da616938d6969f12,,,,,,,,,,,,,,,,,,,,,,,,,,,,,166.6284,1,audio/Narrative8Situation4.wav,169.6406,,169.6407,183.8188,"[[88.4,640],[88.3,719],[88.3,799],[88.3,879],[88.3,960],[88.3,1039],[88.3,1120],[88.3,1200],[88.3,1280],[88.3,1360],[88.3,1440],[88.3,1520],[88.3,1600],[88.3,1680],[88.3,1760],[87.7,1840],[86,1920],[81.5,2000],[78.7,2080],[77.7,2160],[77.7,2240],[78.7,2320],[79.4,2400],[79.4,2480],[79.4,2560],[79.4,2640],[79.1,2720],[78.8,2800],[78.7,2907],[78.5,2987],[78.5,3067],[78.5,3147],[78.5,3227],[78.5,3307],[78.5,3387],[78.5,3467],[78.5,3547],[78.5,3627],[78.5,3707],[78,3787],[77,3867],[75.6,3948],[75.1,4027],[74,4108],[70.7,4188],[69.1,4268],[68.8,4348],[68.2,4427],[65.2,4508],[62.3,4587],[62.2,4667],[58.5,4748],[55.6,4828],[53.7,4908],[51.8,4988],[50.4,5068],[49.4,5148],[49.4,5228],[49.4,5308],[49.4,5388],[49.4,5468],[49.4,5548],[49.4,5628],[49.4,5708],[49.4,5788],[49.5,5868],[49.6,5948],[49.7,6028],[51.1,6108],[53.6,6188],[55,6268],[56.4,6348],[58.8,6428],[62.3,6508],[64.6,6588],[67.6,6668],[69,6748],[69.7,6828],[71.8,6908],[75.3,6989],[76.6,7068],[79.1,7211],[80.9,7282],[84.2,7362],[87,7442],[89.7,7522],[91,7602],[91,7682],[91,7762],[91,7842],[91,7922],[91,8002],[91,8082],[91,8162],[91,8242],[91,8322],[91,8402],[91,8482],[91,8562],[91,8642],[91,8722],[91,8802],[91,8882],[91,8962],[91,9042],[91,9122],[91,9202],[91,9282],[91,9522],[91,9602],[91,9682],[91,9762],[91,9842],[91,9923],[91,10003],[91,10085],[91.1,10163],[91.1,10243],[91.2,10323],[91.3,10403],[91.4,10483],[91.4,10563],[91.5,10643],[91.6,10723],[91.6,10803],[91.6,10883],[91.7,10963],[91.8,11043],[91.9,11123],[92,11203],[92.1,11283],[92.2,11363],[92.2,11443],[92.3,11523],[92.4,11603],[92.5,11683],[92.5,11763],[92.5,11843],[92.5,11923],[92.6,12004],[92.6,12083],[92.6,12163],[92.6,12244],[92.6,12324],[92.6,12403],[92.6,12483],[92.6,12563],[92.6,12644],[92.6,12724],[92.6,12804],[92.6,12884],[92.6,12964],[92.7,13044],[92.7,13124],[92.7,13204],[92.8,13284],[92.8,13364],[92.8,13444],[93,13524],[93,13604],[93.1,13684],[93.3,13764],[93.3,13844],[93.3,13924],[93.4,14004],[93.4,14084],[93.4,14164]]",1,0,183.819,187.0202,91.74220368,2.0482,"[{""rating"":91.74220368410124,""responseTime"":2.0482000000029643}]",space,2.6769,,187.0203,All the time,100,187.0234,,,[],,0,4,4,4,1,audio/Narrative7Situation4.wav,audio/Narrative8Situation4.wav,audio/Narrative5Situation4.wav,audio/Narrative6Situation4.wav,3,3,1,2,,,,,,,,,,,,,,,,,,,,,,,,,,,,,,,,,,,,,,,
,,,,,,590208c89571f50001c666e3,2024-02-08_16h02.09.323,group3.1-3.2-social-tom,2023.2.2,Win32,74.62686567,65c5074098b851296ff0b7ed,65c54145da616938d6969f12,,,,,,,,,,,,,,,,,,,,,,,,,,,,,187.0237,1,audio/Narrative8Situation5.wav,189.0339,,189.0339,197.2765,"[[44.2,1520],[44.5,1600],[48.1,1680],[48.6,1760],[48.6,1840],[48.6,1920],[48.6,2000],[48.6,2080],[48.6,2160],[49.4,2240],[50.4,2320],[50.4,2400],[50.5,2480],[51.8,2560],[52.6,2640],[52.6,2720],[52.6,2801],[52.6,2880],[52.6,2960],[52.6,3040],[53,3120],[53.8,3201],[55.5,3281],[56,3360],[56.2,3440],[56.5,3521],[57.2,3601],[57.7,3681],[57.7,3761],[57.8,3841],[57.8,3921],[57.8,4001],[57.8,4081],[58.1,4161],[59.6,4241],[61,4321],[62.2,4401],[64.9,4481],[66.8,4561],[68.7,4641],[70.9,4721],[72.2,4801],[74.1,4881],[76.5,4961],[76.6,5041],[76.9,5121],[79.5,5201],[80.2,5281],[80.2,5361],[80.5,5441],[80.9,5521],[81.9,5601],[84.2,5681],[88.9,5761],[89.2,5841],[89.2,5921],[89.2,6001],[89.2,6081],[89.2,6161],[89.2,6241],[89.2,6321],[89.2,6401],[89.2,6481],[89.2,6561],[89.2,6641],[89.2,6721],[89.2,6802],[89.2,6882],[89.2,6962],[89.2,7042],[89.2,7122],[89.2,7202],[89.2,7282],[89.2,7362],[89.2,7442],[89.2,7522],[89.2,7602],[89.2,7682],[89.2,7762],[89.2,7842],[89.2,7922],[89.2,8002],[89.2,8082],[89.2,8162],[89.2,8242]]",1,0,197.2766,200.0107,92.15878746,1.9506,"[{""rating"":92.15878746041398,""responseTime"":1.95059999999404}]",space,2.2098,,200.0108,Not at all,0,200.0126,,,[],,0,5,5,5,1,audio/Narrative7Situation5.wav,audio/Narrative8Situation5.wav,audio/Narrative5Situation5.wav,audio/Narrative6Situation5.wav,5,2,5,2,,,,,,,,,,,,,,,,,,,,,,,,,,,,,,,,,,,,,,,
,,,,,,590208c89571f50001c666e3,2024-02-08_16h02.09.323,group3.1-3.2-social-tom,2023.2.2,Win32,74.62686567,65c5074098b851296ff0b7ed,65c54145da616938d6969f12,,,,,,,,,,,,,,,,,,,,,,,,,,,,,200.0128,1,audio/Narrative8Situation6.wav,202.0248,,202.0248,208.4937,"[[87.1,1280],[87.1,1360],[87.1,1440],[87.1,1520],[87.1,1600],[87.1,1680],[87.1,1760],[87.1,1840],[87.1,1920],[87.1,2000],[87,2080],[87,2160],[87,2240],[87,2320],[86.7,2400],[86.3,2480],[86.2,2560],[86.2,2640],[86.2,2720],[86.2,2800],[86.2,2880],[86.2,2960],[86.1,3040],[86.2,3120],[87.5,3201],[88.6,3281],[88.9,3361],[88.9,3441],[88.9,3521],[88.8,3601],[88.8,3681],[88.8,3761],[88.8,3841],[88.8,3921],[88.8,4001],[88.8,4081],[88.8,4161],[88.8,4241],[88.8,4321],[88.8,4401],[88.8,4481],[88.8,4561],[88.8,4641],[88.8,4721],[88.8,4801],[88.8,4881],[88.8,4961],[88.8,5041],[88.8,5121],[88.8,5201],[88.8,5281],[88.6,5361],[88.6,5441],[88.6,5521],[88.6,5601],[88.5,5681],[88.5,5761],[88.5,5841],[88.5,5921],[88.5,6002],[88.5,6081],[88.5,6161],[88.5,6241],[88.5,6322],[88.5,6402]]",1,0,208.4937,210.0277,88.93027178,1.1975,"[{""rating"":88.93027177532531,""responseTime"":1.197499999999991}]",space,1.0009,,210.0278,Not at all,0,210.0289,,,[],,0,6,6,6,1,audio/Narrative7Situation6.wav,audio/Narrative8Situation6.wav,audio/Narrative5Situation6.wav,audio/Narrative6Situation6.wav,3,2,3,2,,,,,,,,,,,,,,,,,,,,,,,,,,,,,,,,,,,,,,,
,,,,,,590208c89571f50001c666e3,2024-02-08_16h02.09.323,group3.1-3.2-social-tom,2023.2.2,Win32,74.62686567,65c5074098b851296ff0b7ed,65c54145da616938d6969f12,,,,,,,,,,,,,,,,,,,,,,,,,,,,,210.029,1,audio/Narrative8Situation7.wav,213.0419,,213.0419,225.126,"[[999,0],[999,80],[999,160],[999,240],[999,320],[999,400],[999,480],[999,560],[999,640],[999,720],[999,800],[999,880],[999,960],[999,1040],[999,1120],[999,1200],[999,1280],[999,1360],[999,1440],[999,1520],[999,1600],[999,1680],[999,1760],[999,1840],[999,1920],[999,2000],[999,2080],[999,2161],[999,2240],[999,2321],[999,2400],[999,2481],[999,2561],[999,2641],[999,2721],[999,2801],[999,2881],[999,2961],[999,3041],[999,3120],[999,3201],[999,3281],[999,3361],[999,3441],[999,3521],[999,3601],[21.8,3681],[22,3761],[22.1,3841],[21.6,3921],[21.2,4094],[21.6,4174],[22.2,4254],[23.2,4334],[23.4,4414],[23.6,4494],[23.7,4574],[23.8,4655],[24.1,4734],[24.7,4814],[25.5,4895],[26.2,4975],[26.6,5054],[26.6,5134],[26.6,5215],[26.6,5295],[26.6,5375],[26.7,5455],[26.9,5535],[26.9,5615],[27,5695],[27.2,5775],[27.3,5855],[27.4,5935],[27.8,6015],[28.4,6095],[28.6,6175],[28.8,6255],[28.9,6335],[28.9,6415],[29,6495],[29,6575],[29.1,6655],[29.1,6735],[29.1,6815],[29.1,6895],[29.1,6975],[29.1,7055],[29.1,7135],[29.1,7215],[29.1,7295],[29.1,7375],[29.1,7455],[29.1,7535],[29.1,7615],[29.1,7695],[29.5,7775],[30.1,7856],[30.5,7935],[30.8,8015],[31,8096],[31.3,8176],[31.5,8256],[31.7,8335],[31.8,8416],[32.1,8496],[32.4,8576],[32.6,8656],[32.7,8736],[32.7,8816],[32.7,8896],[32.8,8976],[32.8,9056],[32.8,9136],[32.9,9216],[32.9,9296],[32.9,9376],[30.7,9456],[28.4,9536],[28.4,9616],[28.4,9696],[29.4,9776],[29.7,9856],[29.9,9937],[30.5,10016],[30.8,10096],[30.8,10176],[30.8,10256],[30.3,10336],[29.6,10496],[29.6,10576],[29.6,10656],[29.6,10736],[29.6,10816],[29.6,10896],[29.6,10976],[29.6,11056],[29.6,11137],[29.6,11217],[29.6,11296],[29.8,11377],[30,11457],[30,11537],[29.6,11617],[29.3,11697],[29.1,11777],[29.1,11857],[29.1,11937],[29.1,12017]]",1,0,225.1261,228.6072,24.46412404,3.2133,"[{""rating"":24.464124040745354,""responseTime"":3.2133000000119125}]",space,2.9526,,228.6072,All the time,100,228.6089,,,[],,0,7,7,7,1,audio/Narrative7Situation7.wav,audio/Narrative8Situation7.wav,audio/Narrative5Situation7.wav,audio/Narrative6Situation7.wav,5,3,4,5,,,,,,,,,,,,,,,,,,,,,,,,,,,,,,,,,,,,,,,
,,,,,,590208c89571f50001c666e3,2024-02-08_16h02.09.323,group3.1-3.2-social-tom,2023.2.2,Win32,74.62686567,65c5074098b851296ff0b7ed,65c54145da616938d6969f12,,,,,,,,,,,,,,,,,,,,,,,,,,,,,228.6091,1,audio/Narrative8Situation8.wav,231.6214,,231.6215,244.4795,"[[999,0],[999,79],[999,159],[999,240],[999,319],[999,400],[999,480],[999,636],[999,706],[999,786],[999,866],[999,946],[999,1026],[999,1106],[999,1187],[999,1267],[999,1347],[999,1427],[999,1507],[999,1587],[999,1667],[999,1747],[999,1827],[999,1907],[999,1987],[999,2067],[999,2147],[999,2227],[999,2307],[999,2387],[999,2467],[999,2547],[999,2627],[999,2707],[999,2787],[999,2867],[999,2947],[999,3027],[999,3107],[999,3188],[999,3267],[999,3347],[999,3427],[999,3507],[999,3587],[999,3667],[999,3747],[999,3828],[31.8,3907],[35.3,3988],[37.7,4068],[39.8,4148],[41.2,4228],[43.1,4308],[45.4,4388],[48.8,4468],[49.7,4548],[50,4628],[50.3,4708],[50.3,4788],[50.3,4868],[50.3,4948],[50.3,5028],[50.3,5108],[50.3,5188],[51.2,5268],[51.7,5348],[51.7,5428],[51.7,5508],[51.7,5588],[52.3,5668],[55,5748],[57.6,5828],[59.3,5908],[61.1,5988],[63.5,6068],[64.4,6148],[65.1,6228],[65.3,6308],[65.6,6388],[65.6,6468],[65.6,6548],[65.6,6628],[65.6,6708],[65.6,6788],[65.6,6868],[65.6,6949],[65.6,7028],[65.6,7109],[65.6,7189],[65.6,7269],[65.6,7349],[65.6,7429],[65.6,7509],[65.6,7589],[65.6,7669],[65.6,7749],[65.6,7829],[65.6,7909],[65.6,7989],[65.6,8069],[65.6,8149],[65.6,8229],[65.6,8309],[65.6,8389],[65.6,8469],[65.6,8549],[65.6,8629],[65.6,8709],[65.6,8789],[65.6,8869],[65.6,8949],[65.6,9029],[65.6,9109],[66.1,9189],[66.3,9269],[66.7,9349],[66.8,9429],[67,9509],[67.4,9590],[67.7,9670],[68,9749],[68.1,9829],[68.4,9909],[68.4,9990],[68.4,10070],[68.4,10150],[68.4,10229],[68.4,10310],[68.4,10389],[68.7,10470],[69.4,10550],[70,10630],[70.5,10710],[70.5,10790],[70.5,10870],[70.6,10950],[70.6,11030],[70.6,11110],[70.6,11190],[70.6,11270],[70.6,11350],[70.6,11430],[70.6,11510],[70.6,11590],[70.6,11670],[70.6,11750],[70.6,11830],[70.6,11910],[70.6,11991],[70.9,12071],[71.6,12150],[72.8,12230],[73,12310],[73.1,12390],[73.5,12471],[73.5,12550],[73.5,12630],[73.2,12711],[72.6,12791]]",1,0,244.4797,246.1998,68.83016464,1.5637,"[{""rating"":68.83016463758108,""responseTime"":1.5637000000029957}]",space,1.1913,,246.1998,All the time,100,246.2009,,,[],,0,8,8,8,1,audio/Narrative7Situation8.wav,audio/Narrative8Situation8.wav,audio/Narrative5Situation8.wav,audio/Narrative6Situation8.wav,2,3,3,5,,,,,,,,,,,,,,,,,,,,,,,,,,,,,,,,,,,,,,,
,,,,,,590208c89571f50001c666e3,2024-02-08_16h02.09.323,group3.1-3.2-social-tom,2023.2.2,Win32,74.62686567,65c5074098b851296ff0b7ed,65c54145da616938d6969f12,,,,,,,,,,,,,,,,,,,,,,,,,,,,,246.2011,1,audio/Narrative8Situation9.wav,249.2141,,249.2142,260.5382,"[[65.4,640],[65.1,720],[65.1,800],[65.1,880],[65.1,960],[65.1,1040],[65.1,1120],[65,1200],[64.4,1280],[64.3,1360],[64.3,1440],[64.5,1520],[66.2,1600],[67.1,1680],[67.1,1760],[67.1,1840],[66.9,1920],[65.9,2000],[65.5,2080],[65.5,2160],[64.9,2240],[64,2320],[63.2,2400],[62.7,2480],[62.7,2560],[62.7,2640],[63.1,2721],[64.8,2801],[65,2881],[65,2960],[65,3040],[65.9,3121],[66.1,3200],[66.1,3281],[66,3361],[64.7,3441],[64.3,3521],[64.3,3601],[64.3,3681],[64.9,3761],[65.6,3841],[65.6,3921],[66.4,4001],[66.4,4081],[66.4,4161],[66.4,4241],[66.4,4321],[66.1,4401],[65.1,4481],[64.6,4561],[64.6,4641],[65.1,4721],[65.6,4894],[65.6,4974],[65.6,5054],[65.6,5134],[65.6,5214],[65,5295],[64.5,5375],[64.4,5455],[65.4,5535],[66.1,5615],[66.1,5695],[65,5775],[64.3,5855],[64.3,5935],[64.3,6015],[64.3,6095],[64.3,6175],[64.3,6255],[64.2,6335],[64.1,6415],[64,6495],[63.9,6575],[63.9,6655],[63.9,6735],[63.9,6815],[64.5,6895],[64.8,6975],[64.8,7055],[64.8,7135],[64.4,7215],[64.1,7295],[63.9,7375],[63.5,7455],[62.7,7535],[61.5,7615],[61,7695],[61,7775],[61,7855],[61,7935],[61,8015],[62,8096],[62,8176],[61.2,8256],[60.2,8336],[59,8416],[58.6,8496],[58,8576],[57.3,8656],[55.8,8736],[54.2,8816],[53.2,8896],[52.4,8976],[52,9056],[51.9,9136],[51.8,9216],[51.6,9296],[51.5,9376],[51.5,9456],[51.5,9536],[51.5,9616],[51.5,9696],[51.5,9776],[51.5,9856],[51.5,9936],[51.5,10016],[51.5,10096],[52.7,10176],[54.1,10256],[55.5,10336],[56.4,10416],[56.6,10496],[56.8,10576],[57.4,10657],[58.1,10816],[58.7,10897],[59.1,10976],[59.3,11056],[59.3,11137],[59.3,11217],[59.4,11296]]",1,0,260.5384,261.6985,59.56120136,0.9289,"[{""rating"":59.56120135862781,""responseTime"":0.9288999999910743}]",space,0.636,,261.6985,Half the time,50,261.7002,,,[],,0,9,9,9,1,audio/Narrative7Situation9.wav,audio/Narrative8Situation9.wav,audio/Narrative5Situation9.wav,audio/Narrative6Situation9.wav,2,3,3,4,,,,,,,,,,,,,,,,,,,,,,,,,,,,,,,,,,,,,,,
,,,,,,590208c89571f50001c666e3,2024-02-08_16h02.09.323,group3.1-3.2-social-tom,2023.2.2,Win32,74.62686567,65c5074098b851296ff0b7ed,65c54145da616938d6969f12,,,,,,,,,,,,,,,,,,,,,,,,,,,,,261.7004,1,audio/Narrative7Situation1.wav,263.7127,,263.7128,319.5982,"[[999,0],[999,79],[999,159],[999,240],[999,319],[999,399],[999,479],[999,559],[999,639],[999,719],[999,800],[999,879],[999,959],[999,1039],[999,1120],[999,1199],[999,1279],[999,1360],[999,1439],[999,1519],[999,1600],[999,1680],[999,1760],[999,1840],[999,1920],[999,2000],[999,2080],[999,2253],[999,2333],[999,2413],[999,2493],[999,2573],[999,2653],[999,2733],[999,2813],[999,2893],[999,2973],[999,3053],[999,3134],[999,3213],[999,3293],[999,3373],[999,3454],[999,3533],[999,3614],[999,3694],[999,3774],[999,3854],[999,3934],[999,4014],[999,4094],[999,4174],[999,4254],[999,4334],[999,4416],[999,4494],[999,4574],[999,4654],[999,4734],[999,4814],[999,4894],[999,4974],[999,5054],[999,5134],[17.7,5214],[17.5,5294],[17.4,5374],[17.4,5454],[17.4,5534],[17.4,5614],[17.4,5694],[17.4,5774],[17.4,5854],[17.4,5934],[17.4,6014],[17.4,6094],[17.4,6175],[17.4,6254],[17.4,6335],[17.4,6415],[17.4,6495],[17.4,6574],[17.4,6655],[17.4,6735],[17.4,6815],[17.4,6895],[17.4,6975],[17.4,7055],[17.4,7135],[17.4,7215],[17.4,7295],[17.4,7375],[17.4,7455],[17.4,7535],[17.4,7615],[17.4,7695],[17.4,7775],[17.4,7855],[17.4,7935],[17.4,8015],[17.4,8095],[17.4,8175],[17.4,8255],[17.4,8335],[17.4,8415],[17.4,8495],[17.4,8575],[17.4,8655],[17.4,8735],[17.8,8816],[19.1,8895],[19.5,8976],[20.2,9056],[20.9,9136],[21.8,9216],[22.6,9296],[23.6,9376],[24.6,9456],[25.4,9536],[26.1,9616],[26.1,9696],[26.1,9776],[26.1,9856],[26.1,9936],[26.1,10016],[26.2,10096],[26.2,10176],[26.2,10256],[26.2,10336],[26.3,10416],[26.5,10496],[26.5,10576],[26.5,10656],[26.5,10736],[26.5,10816],[26.3,10896],[25.8,10976],[25.8,11056],[25.8,11136],[25.8,11216],[25.8,11296],[26.2,11376],[26.6,11456],[26.8,11536],[26.9,11616],[26.9,11696],[26.9,11776],[26.9,11856],[26.9,11937],[26.9,12016],[26.9,12096],[26.9,12176],[26.9,12257],[26.9,12337],[26.9,12417],[26.9,12497],[26.9,12577],[26.9,12657],[26.9,12737],[26.9,12817],[26.9,12897],[26.9,12977],[26.9,13057],[26.9,13137],[26.9,13217],[27.2,13297],[27.7,13377],[28.1,13457],[28.4,13537],[28.8,13617],[29.3,13697],[29.9,13777],[30.4,13857],[31.2,13937],[32,14017],[32.1,14097],[32.2,14177],[32.2,14257],[32.8,14338],[32.8,14417],[32.8,14497],[32.8,14577],[32.8,14657],[32.9,14737],[33.7,14817],[33.7,14897],[33.7,14978],[33.8,15057],[33.8,15137],[33.8,15217],[33.8,15298],[33.8,15378],[33.6,15458],[33.2,15538],[33.2,15618],[33.2,15698],[33.1,15778],[33.7,15858],[34.3,15938],[34.7,16018],[34.7,16098],[34.7,16178],[34.4,16258],[33.7,16338],[33.2,16418],[33.1,16498],[33.1,16578],[33.1,16658],[33.1,16738],[33.1,16818],[33.1,16898],[33.5,16978],[33.6,17058],[33.9,17138],[34.1,17218],[34.1,17298],[33.9,17378],[33.7,17458],[33.7,17538],[33.7,17618],[33.7,17698],[33.5,17778],[33.5,17858],[33.5,17938],[33,18019],[32.7,18099],[32.7,18178],[32.7,18259],[32.7,18339],[32.8,18419],[33,18499],[33.3,18579],[33.3,18659],[33.6,18739],[33.7,18819],[33.9,18899],[33.9,18979],[33.9,19059],[33.9,19139],[33.8,19219],[32.9,19299],[32.4,19379],[32.4,19459],[32.4,19539],[32.4,19619],[32.4,19699],[32.4,19779],[32.4,19859],[32.4,19939],[32.6,20019],[33,20099],[33.2,20179],[33.2,20259],[33.2,20339],[33.2,20419],[33.2,20499],[33.1,20579],[32.7,20659],[32.5,20739],[32.4,20819],[32.4,20899],[32.4,20980],[32.9,21060],[32.9,21140],[32.9,21220],[32.9,21300],[32.9,21380],[32.9,21460],[32.9,21540],[32.9,21620],[32.9,21700],[32.9,21780],[32.9,21860],[32.9,21940],[32.9,22020],[32.9,22100],[32.9,22180],[32.9,22260],[32.9,22340],[32.9,22420],[32.9,22500],[32.9,22580],[32.9,22660],[32.9,22740],[32.9,22820],[32.9,22900],[32.9,22980],[32.9,23060],[32.9,23140],[32.9,23220],[32.9,23300],[32.9,23380],[32.9,23461],[32.9,23540],[32.9,23620],[32.9,23700],[32.9,23781],[32.9,23860],[32.9,23940],[32.9,24020],[32.9,24101],[32.9,24181],[32.7,24261],[32.7,24341],[32.7,24421],[32.7,24501],[32.7,24581],[32.7,24661],[32.7,24741],[32.7,24821],[32.7,24901],[32.7,24981],[32.6,25061],[32.4,25141],[32.4,25221],[32.4,25301],[32.4,25381],[32.4,25461],[32.4,25541],[32.4,25621],[32.4,25701],[32.4,25781],[32.4,25861],[32.4,25968],[32.4,26048],[32.4,26128],[32.4,26208],[32.4,26288],[32.4,26368],[32.4,26448],[32.4,26528],[32.4,26608],[32.4,26688],[32.4,26768],[32.4,26848],[32.4,26928],[32.4,27008],[32.4,27088],[32.4,27168],[32.4,27248],[32.4,27328],[32.4,27408],[32.4,27488],[32.4,27568],[32.4,27649],[32.4,27728],[32.4,27809],[32.4,27889],[32.4,27968],[32.4,28049],[32.4,28128],[32.4,28209],[32.4,28289],[32.4,28369],[32.4,28449],[32.4,28529],[32.4,28609],[32.4,28689],[32.4,28769],[32.4,28849],[32.4,28929],[32.4,29009],[32.4,29089],[32.4,29169],[32.4,29249],[32.4,29329],[32.4,29409],[32.4,29489],[32.4,29569],[32.4,29649],[32.4,29729],[32.4,29809],[32.4,29889],[32.4,29969],[32.4,30049],[32.4,30129],[32.4,30209],[32.4,30289],[32.4,30369],[32.4,30449],[32.4,30529],[32.4,30610],[32.4,30689],[32.4,30770],[32.4,30850],[32.4,30930],[32.4,31010],[32.4,31090],[32.4,31170],[32.4,31250],[32.4,31330],[32.4,31410],[32.4,31490],[32.4,31570],[32.4,31650],[32.4,31730],[32.4,31810],[32.4,31890],[32.4,31970],[32.4,32050],[32.4,32130],[32.4,32210],[32.4,32290],[32.4,32370],[32.4,32450],[32.4,32530],[32.4,32610],[32.4,32690],[32.4,32770],[32.4,32850],[32.4,32930],[32.4,33010],[32.4,33091],[32.4,33170],[32.4,33250],[32.4,33330],[32.4,33411],[32.4,33490],[32.4,33570],[32.4,33651],[32.4,33730],[32.4,33811],[32.4,33891],[32.4,33971],[32.4,34051],[32.4,34131],[32.4,34211],[32.4,34291],[32.6,34371],[34.1,34451],[35.3,34531],[36,34611],[36.4,34691],[37.2,34771],[38.3,34851],[39.7,34931],[42.2,35011],[45.3,35091],[47.1,35171],[47.1,35251],[47.9,35331],[48,35411],[48,35491],[48.2,35571],[48.2,35651],[48.2,35731],[48.2,35811],[48.2,35891],[48.3,35971],[48.5,36051],[48.5,36132],[48.8,36211],[49.1,36291],[49.1,36371],[49.1,36451],[49.1,36531],[49.1,36611],[49.1,36692],[49,36772],[48.8,36851],[48.7,36932],[48.6,37012],[48.6,37092],[48.6,37172],[48.6,37252],[48.6,37332],[48.6,37412],[49.1,37492],[49.3,37572],[49.4,37652],[49.6,37732],[49.6,37812],[49.6,37892],[49.7,37972],[49.7,38052],[49.7,38132],[49.7,38212],[49.7,38292],[49.7,38372],[49.7,38452],[49.7,38532],[49.7,38612],[49.7,38692],[49.7,38772],[49.7,38852],[49.7,38932],[49.7,39013],[49.7,39092],[49.7,39172],[49.7,39253],[49.7,39332],[49.7,39413],[49.7,39492],[49.7,39572],[49.7,39652],[49.7,39733],[49.7,39812],[49.7,39893],[49.7,39973],[49.7,40053],[49.7,40133],[49.7,40213],[49.7,40293],[49.7,40373],[49.7,40453],[49.7,40533],[49.7,40613],[49.7,40693],[49.7,40773],[49.7,40853],[49.7,40933],[49.7,41013],[49.7,41093],[49.7,41173],[49.7,41253],[49.7,41333],[49.7,41413],[49.7,41493],[49.7,41573],[49.7,41653],[49.7,41733],[49.7,41813],[49.7,41893],[49.7,41973],[49.7,42053],[49.7,42134],[49.7,42213],[49.7,42294],[49.7,42373],[49.7,42454],[50.2,42534],[51,42614],[51.4,42694],[52.6,42774],[54.6,42854],[56.7,42934],[59.3,43014],[60.1,43094],[61.5,43174],[63.5,43254],[64.9,43334],[65.7,43414],[66.5,43495],[67.3,43574],[67.9,43654],[68.9,43734],[69.5,43814],[69.8,43894],[70,43974],[70.1,44054],[70.5,44134],[70.9,44214],[70.9,44294],[70.9,44374],[70.9,44454],[70.9,44534],[70.9,44614],[70.9,44694],[70.9,44774],[70.9,44854],[70.9,44934],[70.9,45014],[70.9,45094],[70.9,45174],[70.9,45255],[70.9,45334],[70.7,45415],[70.7,45495],[70.7,45575],[70.7,45744],[72.6,45801],[74.8,45882],[75.4,45961],[76.5,46042],[77,46121],[77.1,46202],[77.4,46281],[77.4,46361],[77.4,46442],[77.4,46522],[77.7,46602],[77.7,46682],[77.7,46762],[77.7,46842],[77.7,46922],[77.7,47002],[77.7,47082],[77.7,47162],[77.7,47242],[77.7,47322],[77.7,47402],[77.7,47482],[77.7,47562],[77.7,47642],[77.7,47722],[77.7,47802],[77.7,47882],[77.7,47962],[77.7,48042],[77.6,48122],[77.6,48202],[77.5,48282],[77.5,48362],[77.3,48442],[77.1,48522],[76.9,48602],[76.9,48682],[76.9,48762],[76.9,48842],[76.9,48922],[77.1,49002],[77.4,49082],[78,49163],[78.6,49243],[78.9,49323],[79.3,49403],[79.6,49483],[79.6,49562],[79.6,49642],[79.6,49723],[79.6,49803],[79.4,49883],[79.3,49963],[79.2,50043],[79.2,50123],[79.2,50203],[79.2,50283],[79.2,50363],[79.2,50443],[79.2,50523],[79.2,50603],[79.2,50683],[79.2,50763],[79.2,50843],[79.2,50923],[79.2,51003],[79.1,51083],[79.1,51163],[79.1,51244],[79.1,51323],[79.1,51403],[79.1,51483],[79.1,51563],[79.1,51643],[79.1,51723],[79.1,51803],[79.1,51883],[79.1,51963],[79.1,52043],[79.1,52123],[79.1,52204],[79.1,52283],[79.1,52363],[79.1,52443],[79.1,52524],[79.1,52604],[79.1,52684],[79.1,52764],[79.1,52844],[79.1,52924],[79,53004],[78.9,53084],[78.9,53164],[78.9,53244],[78.9,53324],[78.9,53404],[78.9,53484],[78.9,53564],[78.9,53644],[78.8,53724],[78.8,53804],[78.8,53884],[78.8,53964],[78.8,54044],[78.8,54124],[78.8,54204],[78.8,54284],[78.8,54364],[78.8,54444],[78.8,54524],[78.8,54604],[78.8,54684],[78.7,54764],[78.6,54844],[78.5,54924],[78.5,55004],[78.5,55084],[78.5,55165],[78.5,55245],[78.6,55324],[78.7,55405],[78.7,55485],[78.7,55565],[78.7,55645],[78.7,55725],[78.7,55805],[78.7,55885]]",1,0,319.5983,323.6261,49.77151122,2.5503,"[{""rating"":49.77151121972867,""responseTime"":2.550299999997037}]",space,3.4944,,323.6262,Not at all,0,323.6278,,,[],,0,10,10,10,1,audio/Narrative8Situation1.wav,audio/Narrative7Situation1.wav,audio/Narrative6Situation1.wav,audio/Narrative5Situation1.wav,5,2,2,5,,,,,,,,,,,,,,,,,,,,,,,,,,,,,,,,,,,,,,,
,,,,,,590208c89571f50001c666e3,2024-02-08_16h02.09.323,group3.1-3.2-social-tom,2023.2.2,Win32,74.62686567,65c5074098b851296ff0b7ed,65c54145da616938d6969f12,,,,,,,,,,,,,,,,,,,,,,,,,,,,,323.6279,1,audio/Narrative7Situation2.wav,326.6406,,326.6406,334.1231,"[[999,6],[999,80],[999,160],[999,240],[999,319],[999,400],[999,480],[999,560],[999,640],[999,720],[999,800],[999,880],[999,960],[999,1040],[999,1120],[999,1200],[999,1280],[999,1360],[999,1440],[999,1520],[999,1600],[999,1680],[999,1760],[999,1840],[999,1920],[999,2000],[999,2080],[999,2160],[999,2240],[999,2320],[999,2400],[999,2480],[999,2560],[999,2640],[999,2720],[999,2800],[999,2880],[999,2960],[999,3040],[999,3121],[999,3201],[999,3280],[999,3360],[999,3441],[999,3521],[999,3601],[999,3681],[999,3761],[999,3841],[999,3921],[999,4001],[999,4081],[999,4161],[999,4241],[999,4321],[999,4401],[999,4481],[999,4561],[999,4641],[999,4721],[999,4801],[999,4881],[999,4961],[999,5041],[999,5121],[999,5201],[999,5281],[999,5361],[999,5441],[999,5521],[999,5601],[999,5681],[999,5761],[999,5841],[999,5922],[999,6002],[30.2,6082],[30.4,6162],[30.3,6242],[30.3,6322],[30.3,6402],[30.3,6482],[30.2,6562],[30.1,6642],[30,6722],[30,6802],[30,6882],[30,6962],[29.6,7042],[29.2,7122],[29,7202],[29,7282],[29,7362],[29,7442]]",1,0,334.1233,338.8446,28.62995036,4.4981,"[{""rating"":30.192136662820456,""responseTime"":3.457099999994057},{""rating"":28.629950362092682,""responseTime"":4.498099999994054}]",space,4.1947,,338.8446,Half the time,50,338.8462,,,[],,0,11,11,11,1,audio/Narrative8Situation2.wav,audio/Narrative7Situation2.wav,audio/Narrative6Situation2.wav,audio/Narrative5Situation2.wav,3,3,3,3,,,,,,,,,,,,,,,,,,,,,,,,,,,,,,,,,,,,,,,
,,,,,,590208c89571f50001c666e3,2024-02-08_16h02.09.323,group3.1-3.2-social-tom,2023.2.2,Win32,74.62686567,65c5074098b851296ff0b7ed,65c54145da616938d6969f12,,,,,,,,,,,,,,,,,,,,,,,,,,,,,338.8463,1,audio/Narrative7Situation3.wav,346.8475,,346.8475,356.1039,"[[999,6],[999,79],[999,159],[999,239],[999,319],[999,399],[999,480],[999,560],[999,640],[999,720],[999,800],[999,879],[999,960],[999,1040],[999,1120],[999,1200],[999,1280],[999,1360],[999,1440],[999,1520],[999,1600],[999,1680],[999,1760],[999,1840],[999,1920],[999,2000],[999,2080],[999,2160],[999,2240],[999,2320],[999,2400],[999,2480],[999,2560],[999,2640],[999,2720],[999,2800],[999,2881],[999,2961],[999,3040],[999,3120],[999,3200],[999,3281],[999,3360],[999,3440],[999,3520],[999,3600],[999,3681],[999,3761],[999,3841],[999,3921],[999,4094],[999,4175],[999,4254],[999,4334],[999,4414],[999,4494],[999,4574],[999,4654],[999,4734],[999,4814],[999,4894],[999,4974],[999,5054],[999,5134],[999,5214],[999,5295],[999,5374],[999,5454],[999,5534],[999,5615],[999,5694],[999,5775],[999,5855],[999,5935],[999,6015],[999,6095],[999,6175],[999,6255],[999,6335],[999,6415],[999,6495],[999,6575],[999,6655],[999,6735],[999,6815],[999,6895],[999,6975],[999,7055],[999,7135],[999,7215],[999,7295],[999,7376],[999,7455],[999,7536],[33.2,7616],[33,7695],[33,7776],[34.1,7855],[36.6,7935],[37.2,8015],[37.2,8095],[37.2,8175],[36.9,8256],[36.4,8335],[36.1,8415],[36,8496],[36,8576],[36,8656],[36,8735],[36,8815],[36,8896],[35.7,8976],[35.6,9056],[35.6,9136],[35.6,9216]]",1,0,356.104,427.0346,32.37919291,1.4993,"[{""rating"":32.37919290712724,""responseTime"":1.4993000000119423}]",space,70.3989,,427.0347,Not at all,0,434.8107,0,4.0981,"[{""rating"":0,""responseTime"":4.098099999994076}]",space,0,12,12,12,1,audio/Narrative8Situation3.wav,audio/Narrative7Situation3.wav,audio/Narrative6Situation3.wav,audio/Narrative5Situation3.wav,4,8,5,3,,,7.2442,,,,,,,,,,,,,,,,,,,,,,,,,,,,,,,,,,,,
,,,,,,590208c89571f50001c666e3,2024-02-08_16h02.09.323,group3.1-3.2-social-tom,2023.2.2,Win32,74.62686567,65c5074098b851296ff0b7ed,65c54145da616938d6969f12,,,,,,,,,,,,,,,,,,,,,,,,,,,,,434.811,1,audio/Narrative7Situation4.wav,437.8117,,437.8117,449.5356,"[[999,6],[999,93],[999,173],[999,253],[999,333],[999,413],[999,493],[999,573],[999,653],[999,733],[999,813],[999,893],[999,973],[999,1053],[999,1133],[999,1213],[999,1293],[999,1373],[999,1453],[999,1533],[999,1613],[999,1693],[999,1773],[999,1853],[999,1933],[999,2013],[999,2093],[999,2173],[999,2253],[999,2333],[999,2413],[999,2494],[999,2574],[999,2654],[999,2734],[999,2814],[999,2894],[999,2974],[999,3054],[999,3134],[999,3214],[999,3294],[999,3374],[999,3454],[999,3534],[999,3614],[999,3694],[999,3774],[999,3854],[999,3934],[999,4014],[999,4094],[999,4174],[999,4254],[999,4334],[999,4414],[999,4494],[999,4575],[27,4655],[27.5,4734],[27.5,4814],[27.5,4895],[26.8,4974],[26.4,5054],[26.4,5134],[26.4,5214],[26.4,5295],[26.4,5375],[26.4,5454],[26.4,5535],[26.4,5615],[26.4,5695],[26.4,5775],[26.4,5855],[26.4,5935],[26.4,6015],[26.4,6095],[26.4,6175],[26.4,6255],[26.4,6335],[26.4,6415],[26.4,6495],[26.4,6575],[26.4,6655],[26.4,6735],[26.4,6815],[26.4,6895],[26.4,6975],[26.4,7055],[26.4,7135],[26.4,7215],[26.4,7295],[26.4,7375],[26.6,7455],[26.8,7535],[26.8,7615],[26.8,7695],[26.8,7775],[26.8,7855],[26.8,7935],[26.8,8015],[26.8,8096],[26.8,8175],[26.8,8256],[26.8,8336],[26.8,8415],[26.8,8496],[26.8,8576],[26.8,8656],[26.8,8736],[26.8,8816],[26.8,8896],[26.8,8976],[26.8,9057],[26.8,9136],[26.8,9216],[26.8,9296],[26.8,9377],[26.8,9456],[26.8,9536],[26.8,9616],[26.8,9696],[26.8,9776],[26.8,9856],[26.8,9936],[26.8,10016],[26.8,10096],[26.8,10176],[26.8,10256],[26.8,10336],[26.8,10416],[26.8,10496],[26.8,10576],[26.8,10656],[26.8,10736],[26.8,10816],[26.8,10896],[26.8,10976],[26.8,11057],[26.8,11137],[26.8,11216],[26.8,11297],[26.8,11377],[26.8,11456],[26.8,11537],[26.8,11617],[26.8,11697]]",1,0,449.5357,451.1361,26.75532909,1.246,"[{""rating"":26.75532908957539,""responseTime"":1.245999999999981}]",space,1.0712,,451.1361,Not at all,0,451.1373,,,[],,0,13,13,13,1,audio/Narrative8Situation4.wav,audio/Narrative7Situation4.wav,audio/Narrative6Situation4.wav,audio/Narrative5Situation4.wav,3,3,2,1,,,,,,,,,,,,,,,,,,,,,,,,,,,,,,,,,,,,,,,
,,,,,,590208c89571f50001c666e3,2024-02-08_16h02.09.323,group3.1-3.2-social-tom,2023.2.2,Win32,74.62686567,65c5074098b851296ff0b7ed,65c54145da616938d6969f12,,,,,,,,,,,,,,,,,,,,,,,,,,,,,451.1375,1,audio/Narrative7Situation5.wav,456.1378,,456.1378,464.6207,"[[999,5],[999,79],[999,159],[999,240],[999,319],[999,400],[999,480],[999,560],[999,640],[999,720],[999,800],[999,880],[999,960],[999,1040],[999,1120],[999,1200],[999,1280],[999,1360],[999,1440],[999,1520],[999,1600],[999,1680],[999,1760],[999,1840],[999,1920],[999,2000],[999,2080],[999,2160],[999,2240],[999,2320],[999,2400],[999,2480],[999,2560],[999,2640],[999,2721],[999,2800],[999,2880],[999,2961],[999,3040],[999,3120],[999,3201],[999,3281],[999,3361],[999,3441],[999,3521],[999,3601],[999,3681],[999,3761],[999,3841],[999,3921],[999,4001],[999,4081],[999,4161],[999,4241],[25.4,4321],[25.7,4401],[26.1,4481],[26.7,4561],[27.2,4641],[28.4,4721],[29.9,4801],[31.5,4881],[33.5,4961],[33.9,5041],[34.3,5121],[34.8,5201],[35.7,5281],[36.2,5361],[36.7,5441],[37,5521],[37.2,5602],[38,5682],[39.3,5762],[39.8,5842],[40.2,5922],[40.2,6001],[40.1,6082],[40,6162],[40,6242],[40,6322],[40,6402],[40,6482],[40.2,6562],[40.2,6642],[40.2,6722],[40.2,6802],[40.2,6882],[40.2,6962],[40.2,7042],[40.2,7122],[40.2,7202],[40.2,7282],[40.2,7362],[40.2,7442],[40.2,7522],[40.2,7602],[40.2,7682],[40.2,7762],[40.2,7842],[40.2,7922],[40.2,8002],[40.2,8082],[40.2,8162],[40.2,8242],[40.2,8322],[40.2,8402],[40.2,8482]]",1,0,464.6208,465.3278,40.19011869,0.5025,"[{""rating"":40.19011868987599,""responseTime"":0.5024999999999977}]",space,0.178,,465.3278,Half the time,50,465.3298,,,[],,0,14,14,14,1,audio/Narrative8Situation5.wav,audio/Narrative7Situation5.wav,audio/Narrative6Situation5.wav,audio/Narrative5Situation5.wav,2,5,2,5,,,,,,,,,,,,,,,,,,,,,,,,,,,,,,,,,,,,,,,
,,,,,,590208c89571f50001c666e3,2024-02-08_16h02.09.323,group3.1-3.2-social-tom,2023.2.2,Win32,74.62686567,65c5074098b851296ff0b7ed,65c54145da616938d6969f12,,,,,,,,,,,,,,,,,,,,,,,,,,,,,465.3301,1,audio/Narrative7Situation6.wav,468.342,,468.342,478.3188,"[[999,0],[999,79],[999,159],[999,240],[999,319],[999,400],[999,479],[999,560],[999,640],[999,720],[999,800],[999,880],[999,960],[999,1040],[999,1120],[999,1200],[999,1280],[999,1360],[999,1440],[999,1520],[999,1600],[999,1680],[999,1760],[999,1840],[999,1920],[999,2000],[999,2080],[35.5,2160],[36.1,2240],[36.4,2320],[36.6,2400],[36.7,2481],[36.9,2561],[37,2640],[37,2720],[37,2800],[37,2880],[37,2961],[37,3040],[37,3120],[37,3200],[37,3281],[37,3361],[37,3441],[37,3521],[37,3601],[37,3681],[37,3761],[37,3841],[37,3921],[37,4001],[37,4081],[37,4161],[37,4241],[37,4321],[37,4401],[37,4481],[37,4561],[37,4641],[37,4721],[37,4801],[37,4881],[37,4961],[37,5041],[37,5121],[37,5201],[37,5281],[37,5361],[37,5441],[37,5522],[37,5601],[37,5681],[37,5761],[37,5841],[37,5921],[37,6002],[37,6081],[37,6161],[37,6241],[37,6322],[37,6402],[37,6482],[37,6562],[37,6642],[37,6722],[37,6802],[37,6882],[37,6962],[37,7042],[37,7122],[37,7202],[37,7282],[37,7362],[37,7442],[37,7522],[37,7602],[37,7682],[37,7762],[37,7842],[37,7922],[37,8002],[37,8082],[37,8162],[37,8242],[37,8322],[37,8402],[37,8482],[37,8562],[37,8642],[37,8723],[37,8802],[37,8882],[37,8962],[37,9043],[37,9122],[37,9202],[37,9283],[37,9363],[37,9443],[37,9523],[37,9603],[37,9683],[37,9763],[37,9843],[37,9923]]",1,0,478.319,480.7462,37.27403798,2.2063,"[{""rating"":37.27403797657683,""responseTime"":2.206300000011936}]",space,1.8959,,480.7463,Half the time,50,480.7473,,,[],,0,15,15,15,1,audio/Narrative8Situation6.wav,audio/Narrative7Situation6.wav,audio/Narrative6Situation6.wav,audio/Narrative5Situation6.wav,2,3,2,3,,,,,,,,,,,,,,,,,,,,,,,,,,,,,,,,,,,,,,,
,,,,,,590208c89571f50001c666e3,2024-02-08_16h02.09.323,group3.1-3.2-social-tom,2023.2.2,Win32,74.62686567,65c5074098b851296ff0b7ed,65c54145da616938d6969f12,,,,,,,,,,,,,,,,,,,,,,,,,,,,,480.7474,1,audio/Narrative7Situation7.wav,485.7478,,485.7479,502.9272,"[[999,5],[999,79],[999,159],[999,240],[999,320],[999,400],[999,480],[999,560],[999,640],[999,720],[999,800],[999,880],[999,960],[999,1040],[999,1120],[999,1200],[999,1280],[999,1360],[999,1440],[999,1520],[999,1600],[35.8,1680],[35.8,1760],[35.6,1840],[35.6,1920],[35.6,2000],[35.6,2080],[35.6,2160],[35.6,2240],[35.6,2320],[35.6,2400],[35.6,2480],[35.6,2560],[35.5,2641],[35.4,2720],[35.3,2800],[34.8,2881],[34.8,2960],[34.5,3040],[34.4,3121],[34.2,3201],[33.8,3281],[33.8,3361],[33.8,3441],[33.5,3521],[33.3,3601],[33.3,3681],[33.3,3761],[33.3,3841],[33.3,3921],[33.3,4001],[33.3,4081],[33.3,4161],[33.3,4241],[33.3,4321],[33.3,4401],[33.3,4481],[33.3,4561],[33.3,4641],[33.3,4721],[33.3,4801],[33.3,4881],[33.3,4961],[33.3,5041],[33.3,5121],[33.3,5201],[33.3,5281],[33.3,5361],[33.3,5441],[33.3,5521],[33.3,5601],[33.3,5681],[33.3,5762],[33.3,5842],[33.3,5921],[33.3,6001],[33.3,6081],[33.3,6162],[33.3,6242],[33.3,6322],[33.3,6402],[33.3,6482],[33.3,6562],[33.3,6642],[33.3,6722],[33.3,6802],[33.3,6882],[33.3,6962],[33.3,7042],[33.3,7122],[33.3,7202],[33.3,7282],[33.3,7362],[33.3,7442],[33.3,7522],[33.3,7602],[33.3,7682],[33.3,7762],[33.3,7842],[33.3,7922],[33.3,8002],[33.3,8082],[33.3,8162],[33.3,8242],[33.3,8322],[33.3,8402],[33.3,8482],[33.3,8562],[33.3,8642],[33.8,8723],[34.2,8802],[34.7,8883],[35.1,8963],[35.6,9043],[36.1,9123],[36.6,9203],[36.9,9283],[37.2,9363],[37.2,9443],[37.2,9523],[37.2,9603],[36.6,9683],[36.6,9850],[36.6,9923],[36.6,10003],[36.6,10083],[36.6,10163],[36.6,10243],[36.6,10323],[36.6,10403],[36.6,10483],[36.6,10563],[36.6,10643],[36.6,10723],[36.6,10803],[36.6,10883],[36.6,10963],[36.6,11043],[36.6,11123],[36.6,11203],[36.6,11283],[36.6,11363],[36.6,11443],[36.6,11523],[36.6,11604],[36.6,11683],[36.6,11764],[36.6,11844],[36.6,11923],[36.6,12004],[36.6,12084],[36.6,12164],[36.6,12244],[36.6,12325],[36.6,12404],[36.6,12484],[36.4,12564],[36.4,12644],[36.4,12724],[36.4,12804],[36.4,12884],[36.4,12964],[36.4,13044],[36.4,13124],[36.4,13204],[36.4,13284],[36.4,13364],[36.4,13444],[36.4,13524],[36.4,13604],[36.4,13684],[36.4,13764],[36.4,13844],[36.4,13924],[36.4,14004],[36.4,14084],[36.4,14164],[36.4,14244],[36.4,14324],[36.4,14404],[36.4,14484],[36.4,14564],[36.4,14644],[36.4,14724],[36.4,14804],[36.4,14884],[36.4,14965],[36.4,15045],[36.4,15125],[36.4,15205],[36.4,15285],[36.4,15365],[36.4,15445],[36.4,15525],[36.4,15605],[36.4,15685],[36.4,15765],[36.4,15845],[36.4,15925],[36.4,16005],[36.4,16085],[36.4,16165],[36.4,16245],[36.4,16325],[36.4,16405],[36.4,16485],[36.4,16565],[36.4,16645],[36.4,16725],[36.4,16805],[36.4,16885],[36.4,16965],[36.4,17045],[36.4,17125]]",1,0,502.9273,504.5676,36.33672734,1.0944,"[{""rating"":36.336727340318184,""responseTime"":1.094399999991083}]",space,1.112,,504.5676,Half the time,50,504.5687,,,[],,0,16,16,16,1,audio/Narrative8Situation7.wav,audio/Narrative7Situation7.wav,audio/Narrative6Situation7.wav,audio/Narrative5Situation7.wav,3,5,5,4,,,,,,,,,,,,,,,,,,,,,,,,,,,,,,,,,,,,,,,
,,,,,,590208c89571f50001c666e3,2024-02-08_16h02.09.323,group3.1-3.2-social-tom,2023.2.2,Win32,74.62686567,65c5074098b851296ff0b7ed,65c54145da616938d6969f12,,,,,,,,,,,,,,,,,,,,,,,,,,,,,504.5688,1,audio/Narrative7Situation8.wav,506.5816,,506.5817,516.5985,"[[999,0],[999,79],[999,159],[999,239],[999,320],[999,400],[999,480],[999,560],[999,640],[999,720],[999,800],[999,880],[999,960],[999,1040],[999,1120],[999,1200],[999,1280],[999,1360],[999,1440],[999,1520],[999,1600],[999,1680],[999,1760],[999,1840],[999,1920],[999,2000],[999,2080],[999,2160],[999,2240],[999,2320],[999,2400],[999,2480],[999,2560],[999,2640],[999,2720],[999,2800],[999,2880],[999,2960],[999,3040],[999,3120],[999,3201],[999,3280],[999,3361],[999,3441],[999,3520],[999,3601],[999,3681],[999,3761],[999,3841],[999,3921],[999,4001],[999,4081],[999,4161],[999,4241],[999,4321],[999,4401],[999,4481],[999,4561],[999,4641],[999,4721],[999,4801],[999,4881],[999,4961],[999,5041],[999,5121],[999,5201],[999,5281],[999,5361],[999,5441],[999,5521],[999,5601],[999,5681],[999,5761],[999,5841],[999,5921],[999,6001],[999,6081],[999,6161],[999,6242],[999,6322],[999,6402],[999,6482],[999,6562],[999,6642],[999,6722],[999,6802],[999,6882],[999,6962],[999,7042],[999,7122],[999,7202],[999,7282],[999,7362],[999,7442],[999,7522],[999,7602],[999,7682],[999,7762],[999,7842],[999,7922],[999,8002],[999,8082],[999,8162],[45.8,8242],[47.8,8323],[48.5,8403],[49.2,8482],[49.4,8562],[49.6,8642],[49.6,8722],[49.4,8803],[49.4,8882],[49.4,8962],[49.4,9043],[49.4,9122],[49.4,9202],[49.4,9283],[49.4,9363],[49.4,9443],[49.4,9523],[49.4,9603],[49.4,9683],[49.4,9763],[49.4,9843],[49.4,9923],[49.4,10003]]",1,0,516.5986,518.2789,50.29223808,1.1008,"[{""rating"":50.29223807967453,""responseTime"":1.1007999999970934}]",space,1.1521,,518.279,All the time,100,518.2805,,,[],,0,17,17,17,1,audio/Narrative8Situation8.wav,audio/Narrative7Situation8.wav,audio/Narrative6Situation8.wav,audio/Narrative5Situation8.wav,3,2,5,3,,,,,,,,,,,,,,,,,,,,,,,,,,,,,,,,,,,,,,,
,,,,,,590208c89571f50001c666e3,2024-02-08_16h02.09.323,group3.1-3.2-social-tom,2023.2.2,Win32,74.62686567,65c5074098b851296ff0b7ed,65c54145da616938d6969f12,,,,,,,,,,,,,,,,,,,,,,,,,,,,,518.2806,1,audio/Narrative7Situation9.wav,520.2929,,520.2929,528.9226,"[[999,0],[999,80],[999,160],[999,240],[999,320],[999,400],[999,480],[999,560],[999,640],[999,720],[999,800],[999,880],[999,960],[999,1040],[999,1120],[999,1200],[999,1280],[999,1360],[999,1440],[999,1520],[999,1600],[999,1680],[999,1760],[999,1840],[999,1920],[999,2000],[999,2080],[999,2160],[999,2240],[999,2320],[999,2400],[999,2480],[999,2560],[999,2721],[999,2801],[999,2881],[999,2961],[999,3041],[999,3121],[999,3201],[999,3281],[999,3361],[999,3441],[50,3521],[50,3601],[50,3681],[50,3761],[50,3841],[50,3921],[50,4001],[50,4081],[50,4161],[50,4241],[50,4321],[50,4401],[50.1,4481],[50.3,4561],[50.4,4641],[50.5,4721],[50.5,4801],[50.5,4881],[50.8,4961],[51.3,5041],[51.8,5122],[52.5,5201],[56.1,5282],[57.5,5361],[57.5,5441],[58.4,5522],[59.4,5602],[59.6,5682],[59.9,5762],[62.6,5842],[65.3,5922],[65.3,6002],[65.4,6081],[66,6162],[66.8,6242],[66.8,6322],[66.8,6402],[66.8,6482],[66.8,6562],[66.8,6642],[66.8,6722],[68.8,6802],[70.1,6882],[70.4,6962],[70.4,7042],[69.4,7122],[69.1,7202],[69.1,7282],[70.6,7362],[71.1,7442],[71.1,7522],[71.7,7602],[72.5,7682],[72.5,7762],[72.8,7842],[72.8,7922],[72.8,8002],[72.3,8083],[71.4,8163],[71.1,8242],[71.1,8322],[72.2,8403],[73.8,8482],[74,8562]]",1,0,528.9227,530.203,72.57940718,0.9767,"[{""rating"":72.57940718261567,""responseTime"":0.9767000000028929}]",space,0.7563,,530.203,Not at all,0,530.2047,,,[],,0,18,18,18,1,audio/Narrative8Situation9.wav,audio/Narrative7Situation9.wav,audio/Narrative6Situation9.wav,audio/Narrative5Situation9.wav,3,2,4,3,,,,,,,,,,,,,,,,,,,,,,,,,,,,,,,,,,,,,,,
,,,,,,590208c89571f50001c666e3,2024-02-08_16h02.09.323,group3.1-3.2-social-tom,2023.2.2,Win32,74.62686567,65c5074098b851296ff0b7ed,65c54145da616938d6969f12,,,,,,,,,,,,,,,,,,,,,,,,,,,533.0178,535.5916,535.6074,2,audio/Narrative13Situation2.wav,535.6075,,535.6075,565.3486,"[[999,0],[999,63],[999,144],[999,223],[999,304],[999,384],[999,464],[999,544],[999,624],[999,704],[999,784],[999,864],[999,944],[999,1024],[999,1104],[999,1184],[999,1264],[999,1344],[999,1424],[999,1504],[999,1584],[999,1664],[999,1744],[999,1824],[999,1904],[999,1984],[999,2064],[999,2144],[999,2224],[999,2304],[999,2384],[999,2464],[999,2544],[999,2624],[999,2704],[999,2784],[999,2865],[999,2944],[999,3024],[999,3105],[999,3184],[999,3265],[999,3345],[999,3425],[999,3505],[999,3585],[999,3665],[999,3745],[999,3825],[999,3905],[999,3985],[999,4065],[999,4145],[999,4225],[999,4306],[999,4385],[999,4465],[999,4545],[999,4625],[999,4705],[999,4785],[999,4865],[999,4945],[999,5025],[999,5105],[999,5185],[999,5265],[999,5345],[37.4,5425],[37.4,5505],[37.2,5585],[37,5665],[36.9,5745],[36.9,5825],[35.6,5906],[31.8,5986],[30.4,6065],[30,6146],[28.8,6226],[28.6,6306],[28.6,6386],[28.6,6466],[29,6546],[29,6626],[29,6706],[28.7,6786],[28.3,6866],[27.4,6946],[27.2,7026],[27.2,7106],[27.2,7186],[27.2,7266],[27.2,7346],[27.2,7426],[27,7506],[26.4,7586],[26.2,7666],[26.2,7746],[26.2,7826],[26.1,7906],[26.3,7986],[26.6,8066],[27.5,8146],[28.4,8226],[28.8,8306],[29.7,8387],[30.2,8466],[30.6,8546],[31.2,8627],[31.5,8707],[31.8,8786],[31.9,8867],[31.9,8947],[31.9,9026],[31.9,9107],[31.9,9187],[32,9267],[32,9347],[32,9427],[32,9507],[32,9587],[32,9667],[32,9747],[32,9827],[32,9907],[32,9987],[32,10067],[32,10147],[32,10227],[32,10307],[32,10387],[32,10467],[32,10547],[32,10627],[32,10707],[32,10787],[32,10867],[32,10947],[32,11027],[32,11107],[32,11187],[32,11267],[32,11347],[32,11427],[32,11507],[32,11587],[32,11667],[32,11747],[32,11827],[32,11908],[32,11988],[32,12068],[32,12148],[31.9,12228],[31.6,12308],[30.3,12388],[28.8,12468],[28.8,12548],[28.8,12628],[29,12708],[29.5,12788],[29.5,12868],[29.4,12948],[29,13028],[28.7,13108],[28.7,13188],[28.7,13268],[28.7,13348],[28.6,13428],[28.3,13508],[28.3,13588],[28.3,13668],[28.3,13748],[28.3,13828],[28.3,13908],[28.3,13988],[28.3,14068],[28.3,14148],[28.3,14228],[28.3,14308],[28.3,14388],[28.3,14468],[28.3,14549],[28.3,14629],[28.2,14709],[28.2,14788],[28.1,14868],[28,14948],[27.9,15029],[27.9,15109],[27.9,15189],[27.9,15269],[27.9,15349],[27.9,15429],[27.9,15509],[27.9,15589],[27.9,15669],[27.9,15749],[27.9,15829],[27.9,15909],[27.9,15989],[27.9,16069],[27.9,16149],[27.9,16229],[27.9,16309],[27.9,16389],[27.9,16469],[27.9,16549],[27.9,16629],[27.9,16709],[27.9,16789],[27.9,16869],[27.9,16949],[27.9,17029],[27.9,17109],[27.9,17189],[27.9,17269],[27.9,17349],[27.9,17429],[27.9,17509],[27.9,17589],[27.9,17669],[27.9,17750],[27.9,17829],[27.9,17909],[27.9,17990],[27.9,18070],[27.9,18149],[27.9,18230],[27.9,18310],[27.9,18390],[27.9,18470],[27.9,18550],[27.9,18630],[27.9,18710],[27.9,18790],[27.9,18870],[27.9,18950],[27.9,19030],[27.9,19110],[27.9,19190],[27.9,19270],[27.9,19351],[27.6,19430],[27.3,19510],[26.7,19590],[26.4,19670],[26.1,19750],[25.8,19830],[25.7,19910],[25.6,19990],[25.5,20070],[25.4,20150],[25.4,20230],[25.4,20310],[25.4,20390],[25.4,20470],[25.4,20550],[25.4,20630],[25.4,20710],[25.4,20790],[25.4,20871],[25.4,20951],[25.4,21031],[25.4,21111],[25.4,21191],[25.4,21271],[25.4,21351],[25.4,21431],[25.4,21511],[25.4,21591],[25.4,21671],[25.4,21751],[25.4,21831],[25.4,21912],[25.4,21992],[25.4,22071],[25.4,22151],[25.4,22231],[25.4,22311],[25.4,22391],[25.4,22471],[25.4,22551],[25.4,22631],[25.5,22711],[27.9,22791],[30.3,22871],[30.8,22952],[31.6,23031],[32.4,23111],[33.5,23192],[36.1,23271],[37.3,23351],[38,23431],[39.2,23512],[40.4,23592],[41.3,23672],[42.7,23752],[44.6,23832],[46.1,23912],[47.2,23992],[48.8,24072],[49.3,24152],[49.9,24232],[49.9,24312],[49.9,24392],[49.9,24472],[49.9,24552],[49.9,24632],[49.9,24712],[49.9,24792],[49.9,24872],[49.9,24952],[49.9,25032],[49.9,25112],[49.9,25192],[49.9,25272],[49.9,25352],[49.9,25432],[49.9,25512],[49.9,25592],[49.9,25672],[49.9,25752],[49.9,25832],[49.9,25912],[49.9,25992],[49.9,26072],[49.9,26152],[49.8,26232],[49.8,26312],[49.8,26392],[49.8,26472],[49.8,26632],[49.8,26712],[49.8,26793],[49.8,26873],[49.8,26953],[49.8,27033],[49.8,27113],[49.8,27193],[49.8,27273],[49.8,27353],[49.8,27433],[49.8,27513],[49.8,27593],[49.8,27673],[49.8,27753],[49.8,27833],[49.8,27913],[49.8,27993],[49.8,28073],[49.8,28153],[49.8,28233],[49.8,28313],[49.8,28393],[49.8,28473],[49.8,28553],[49.7,28633],[49.4,28713],[49.3,28793],[49.3,28873],[49.3,28953],[49.3,29033],[49.3,29113],[49.3,29193],[49.7,29274],[50.2,29353],[50.6,29433],[50.8,29514],[50.8,29594],[50.8,29674]]",1,0,565.3487,565.3499,,,[],,,,565.3499,Half the time,50,565.3512,,,[],,0,0,0,0,1,audio/Narrative13Situation2.wav,audio/Narrative13Situation2.wav,audio/Narrative13Situation2.wav,audio/Narrative13Situation2.wav,2,2,2,2,,,,,530.2051,533.0176,space,2.2999,,,,,,,,,,,,,,,,,,,,,,,,,,,,,,,
,,,,,,590208c89571f50001c666e3,2024-02-08_16h02.09.323,group3.1-3.2-social-tom,2023.2.2,Win32,74.62686567,65c5074098b851296ff0b7ed,65c54145da616938d6969f12,,,,,,,,,,,,,,,,,,,,,,,,,,,,,565.3513,2,audio/Narrative6Situation1.wav,567.3623,,567.3623,593.9448,"[[47.4,720],[20.6,1760],[19.2,1840],[17.4,1920],[16.8,2000],[16.3,2080],[14.9,2160],[13.9,2240],[13.9,2320],[13.9,2400],[11.6,2481],[10.2,2561],[9.2,2640],[8.2,2720],[6.9,2801],[5.5,2881],[4.1,2961],[3.1,3041],[2.9,3120],[2.9,3201],[3.2,3281],[4.5,3361],[7.6,3441],[13.3,3521],[20.4,3601],[24.4,3681],[26.4,3761],[28.4,3841],[31.3,3921],[33.7,4001],[36.3,4081],[37.8,4161],[38.6,4241],[39.1,4321],[39.7,4401],[40.6,4481],[41.2,4561],[41.2,4641],[41.3,4721],[42.5,4801],[45.3,4881],[49.7,4961],[51.6,5041],[51.4,5121],[51,5201],[51,5281],[50.3,5361],[50,5442],[50,5522],[50,5601],[50,5682],[50,5762],[50,5842],[50,5921],[50,6001],[50,6081],[50,6162],[50,6242],[50,6322],[50,6402],[50,6482],[50,6562],[50,6642],[50,6722],[50,6802],[50,6882],[50,6962],[50,7042],[50,7215],[50,7295],[50,7375],[50,7455],[50,7535],[50,7615],[50,7696],[51.5,7776],[52.5,7855],[53.1,7936],[54.6,8016],[57.1,8096],[58,8176],[58.9,8256],[59.6,8336],[60.3,8416],[62.6,8496],[64,8576],[64.8,8656],[65.4,8736],[67,8816],[67.2,8896],[67.2,8976],[67.2,9056],[67.2,9136],[67.2,9216],[67.2,9296],[67.2,9376],[67.2,9456],[67.2,9536],[67.2,9616],[67.2,9696],[67.2,9776],[67.2,9856],[67.4,9936],[67.9,10016],[68.1,10096],[68.2,10176],[69.6,10256],[70.5,10336],[70.7,10416],[71.8,10496],[71.9,10576],[72.3,10656],[72.5,10736],[72.5,10817],[72.5,10897],[72.5,10977],[72.5,11057],[72.5,11137],[72.5,11217],[72.5,11297],[72.5,11377],[72.5,11457],[72.5,11537],[72.5,11617],[72.5,11697],[72.5,11777],[72.5,11857],[73.5,11937],[74,12017],[74,12097],[74,12177],[75.9,12257],[76.9,12337],[77.6,12417],[78.1,12497],[78.9,12577],[79.3,12657],[81.3,12737],[82.7,12817],[84,12897],[84,12977],[84,13057],[84,13137],[84,13217],[84,13297],[84,13377],[84,13457],[84,13537],[84,13617],[84,13697],[84,13778],[84,13857],[84,13938],[84,14018],[84,14098],[84.9,14178],[85.6,14258],[86.2,14338],[86.8,14418],[87.2,14498],[88.1,14578],[89.3,14658],[90,14738],[90.2,14818],[90.2,14898],[90.2,14978],[90.2,15058],[90.2,15138],[90.2,15218],[90.2,15298],[90.5,15378],[90.6,15458],[90.6,15538],[90.6,15618],[90.8,15698],[90.8,15778],[90.8,15858],[90.8,15938],[90.8,16018],[90.8,16098],[90.8,16178],[90.8,16258],[90.8,16338],[90.8,16418],[90.8,16498],[90.8,16578],[90.8,16658],[90.8,16738],[90.8,16818],[90.8,16899],[90.8,16979],[90.8,17059],[90.8,17235],[90.4,17312],[90.1,17392],[90.1,17472],[90.1,17552],[90.1,17632],[90.1,17712],[90.1,17792],[90.1,17872],[90.4,17952],[91.3,18032],[92,18112],[92.3,18192],[93.4,18273],[94,18352],[94.6,18432],[95.2,18512],[95.5,18592],[95.6,18673],[95.9,18753],[96.2,18833],[96.4,18913],[96.8,18993],[96.8,19073],[96.8,19153],[96.8,19233],[96.8,19313],[96.8,19393],[96.8,19473],[96.8,19553],[96.8,19633],[96.8,19713],[96.8,19793],[96.8,19873],[96.8,19953],[96.8,20033],[96.8,20113],[96.8,20193],[96.8,20273],[96.8,20353],[96.8,20433],[96.8,20513],[96.8,20593],[96.8,20673],[96.8,20757],[96.8,20833],[96.8,20913],[96.8,20993],[96.8,21073],[96.8,21153],[96.8,21233],[96.8,21313],[96.8,21393],[96.8,21473],[96.8,21553],[96.8,21634],[96.8,21713],[96.8,21793],[96.8,21874],[97.3,21954],[97.7,22034],[98.5,22114],[99.1,22194],[99.7,22274],[99.8,22354],[99.8,22434],[99.8,22514],[99.8,22594],[99.8,22674],[99.8,22754],[99.8,22834],[99.8,22914],[99.8,22994],[99.8,23074],[99.8,23154],[99.8,23234],[99.8,23314],[99.8,23394],[99.8,23474],[99.8,23554],[99.8,23634],[99.8,23714],[99.8,23794],[99.8,23874],[99.8,23954],[99.7,24034],[99.7,24114],[99.6,24194],[99.6,24274],[99.5,24355],[99.3,24435],[99.3,24514],[99.3,24594],[99.3,24674],[99.3,24754],[99.3,24835],[99.3,24915],[99.3,24995],[99.3,25075],[99.3,25155],[99.3,25235],[99.3,25315],[99.3,25395],[99.3,25475],[99.3,25555],[99.3,25635],[99.3,25715],[99.3,25795],[99.3,25875],[99.3,25955],[99.3,26035],[99.3,26115],[99.3,26195],[99.3,26275],[99.3,26355],[99.3,26435],[99.3,26515]]",1,0,593.945,596.3855,95.17900554,2.3224,"[{""rating"":95.17900553645615,""responseTime"":2.3224000000060414}]",space,1.9182,,596.3856,All the time,100,596.3871,,,[],,0,1,1,1,1,audio/Narrative7Situation1.wav,audio/Narrative8Situation1.wav,audio/Narrative5Situation1.wav,audio/Narrative6Situation1.wav,2,5,5,2,,,,,,,,,,,,,,,,,,,,,,,,,,,,,,,,,,,,,,,
,,,,,,590208c89571f50001c666e3,2024-02-08_16h02.09.323,group3.1-3.2-social-tom,2023.2.2,Win32,74.62686567,65c5074098b851296ff0b7ed,65c54145da616938d6969f12,,,,,,,,,,,,,,,,,,,,,,,,,,,,,596.3873,2,audio/Narrative6Situation2.wav,599.4,,599.4001,627.9033,"[[999,5],[999,79],[999,159],[999,239],[999,319],[999,399],[999,479],[999,559],[999,639],[999,720],[999,799],[999,879],[999,960],[999,1040],[999,1120],[999,1200],[999,1280],[999,1360],[999,1440],[999,1520],[999,1600],[999,1680],[999,1760],[999,1840],[999,1920],[999,2000],[999,2080],[999,2160],[999,2240],[999,2320],[999,2400],[999,2480],[999,2560],[999,2640],[999,2720],[999,2800],[999,2880],[999,2960],[999,3040],[999,3120],[999,3201],[999,3280],[999,3360],[999,3441],[999,3520],[999,3600],[999,3681],[999,3761],[999,3841],[999,3921],[999,4000],[999,4081],[999,4161],[999,4241],[999,4321],[999,4401],[999,4481],[999,4561],[999,4641],[999,4721],[999,4801],[999,4881],[999,4961],[999,5041],[999,5121],[999,5201],[68.4,5282],[70.5,5361],[73.2,5441],[75.6,5521],[77.1,5601],[78.7,5681],[79.4,5761],[81.6,5841],[83.4,5921],[85,6001],[86.2,6081],[86.5,6161],[87.1,6241],[87.6,6321],[87.6,6481],[88.3,6562],[88.7,6642],[89.4,6722],[89.6,6802],[90,6882],[90,6962],[90,7042],[89.9,7122],[89.5,7202],[89.5,7282],[89.5,7362],[89.7,7442],[90.4,7522],[90.8,7602],[90.9,7682],[90.9,7762],[91.1,7842],[91.1,7922],[91.1,8002],[91.1,8082],[91.1,8162],[91.1,8242],[91.1,8322],[91.1,8402],[91.1,8482],[91.1,8562],[91.1,8642],[91.1,8722],[91.1,8802],[91.1,8882],[91.1,8962],[91.1,9042],[91.1,9122],[91.1,9202],[91.1,9282],[91.1,9362],[91.2,9442],[91.2,9522],[91.2,9603],[91.2,9682],[91.2,9763],[91.1,9843],[91.1,9923],[91.1,10003],[91.1,10083],[91,10163],[90.9,10243],[90.9,10323],[90.9,10403],[90.9,10483],[90.8,10563],[90.8,10643],[90.8,10723],[90.8,10803],[90.8,10883],[90.8,10963],[90.8,11043],[90.8,11123],[90.8,11203],[90.8,11283],[90.8,11363],[90.8,11443],[90.8,11523],[90.8,11603],[90.6,11683],[90.5,11763],[90.5,11843],[90.5,11923],[90.5,12003],[90.5,12083],[90.5,12163],[90.5,12243],[90.5,12323],[90.5,12403],[90.5,12483],[90.5,12564],[90.5,12644],[90.5,12724],[90.5,12803],[90.2,12884],[90.2,12964],[90.2,13044],[90.2,13204],[90.2,13284],[90.2,13364],[90.2,13444],[90.2,13524],[90.2,13604],[90.2,13684],[90.2,13764],[90.2,13844],[90.2,13924],[90.2,14004],[90.4,14084],[90.4,14164],[90.4,14244],[90.4,14324],[90.6,14404],[90.6,14484],[90.6,14564],[90.8,14644],[90.8,14724],[90.8,14804],[90.8,14884],[90.8,14964],[90.8,15044],[90.8,15124],[90.8,15204],[90.8,15285],[90.8,15364],[90.8,15444],[90.8,15525],[90.8,15605],[90.8,15685],[90.6,15765],[90.6,15845],[90.6,15925],[90.6,16005],[90.6,16085],[90.6,16165],[90.9,16245],[90.9,16325],[90.9,16405],[90.9,16485],[90.9,16565],[90.8,16645],[90.1,16725],[89.6,16805],[89.6,16885],[89.6,16965],[89.6,17045],[89.6,17125],[89.6,17205],[89.6,17285],[89.6,17365],[89.6,17445],[89.4,17525],[89.3,17605],[89.3,17686],[89.3,17766],[89.3,17845],[89.3,17925],[89.3,18005],[89.3,18085],[89.3,18165],[89.3,18245],[89.3,18325],[89.3,18406],[89.3,18486],[89.3,18566],[89.3,18646],[89.3,18726],[89.3,18806],[89.3,18886],[89.3,18966],[89.3,19046],[89.3,19126],[89.3,19206],[89.3,19286],[89.3,19366],[89.3,19446],[89.3,19526],[89.3,19606],[89.3,19686],[89.3,19766],[89.3,19846],[89.3,19926],[89.3,20006],[89.3,20086],[89.3,20166],[89.3,20246],[89.3,20326],[89.3,20406],[89.3,20486],[89.3,20566],[89.3,20646],[89.3,20726],[89.3,20806],[89.3,20886],[89.3,20966],[89.3,21046],[89.3,21126],[89.3,21206],[89.3,21286],[89.3,21367],[89.3,21447],[89.3,21527],[89.3,21607],[89.3,21687],[89.3,21767],[89.3,21847],[89.3,21927],[89.3,22007],[89.3,22087],[89.3,22167],[89.3,22247],[89.3,22327],[89.3,22407],[89.3,22487],[89.3,22567],[89.3,22647],[89.3,22727],[89.3,22807],[89.3,22887],[89.3,22967],[89.3,23047],[89.3,23127],[89.3,23207],[89.3,23287],[89.3,23367],[89.3,23447],[89.3,23527],[89.3,23607],[89.3,23687],[89.3,23767],[89.3,23847],[89.3,23927],[89.3,24008],[89.3,24087],[89.3,24167],[89.3,24248],[89.3,24327],[89.3,24408],[89.3,24488],[89.3,24567],[89.3,24648],[89.3,24728],[89.3,24808],[89.3,24888],[89.3,24968],[89.3,25048],[89.3,25128],[89.3,25208],[89.3,25288],[89.3,25368],[89.3,25448],[89.3,25528],[89.3,25608],[89.3,25688],[89.3,25768],[89.3,25848],[89.3,25928],[89.3,26008],[89.3,26088],[89.3,26168],[89.3,26248],[89.3,26328],[89.3,26408],[89.3,26488],[89.3,26568],[89.3,26648],[89.3,26728],[89.3,26808],[89.3,26888],[89.3,26968],[89.3,27048],[89.3,27128],[89.3,27209],[89.3,27288],[89.3,27369],[89.3,27449],[89.3,27528],[89.3,27609],[89.3,27689],[89.3,27863],[89.3,27942],[89.3,28022],[89.3,28102],[89.3,28182],[89.3,28262],[89.3,28342],[89.3,28422],[89.5,28503]]",1,0,627.9035,629.6768,89.34685555,1.3556,"[{""rating"":89.34685555163804,""responseTime"":1.3555999999939559}]",space,1.2406,,629.6768,Not at all,0,629.6782,,,[],,0,2,2,2,1,audio/Narrative7Situation2.wav,audio/Narrative8Situation2.wav,audio/Narrative5Situation2.wav,audio/Narrative6Situation2.wav,3,3,3,3,,,,,,,,,,,,,,,,,,,,,,,,,,,,,,,,,,,,,,,
,,,,,,590208c89571f50001c666e3,2024-02-08_16h02.09.323,group3.1-3.2-social-tom,2023.2.2,Win32,74.62686567,65c5074098b851296ff0b7ed,65c54145da616938d6969f12,,,,,,,,,,,,,,,,,,,,,,,,,,,,,629.6784,2,audio/Narrative6Situation3.wav,634.6786,,634.6786,647.2961,"[[999,5],[999,79],[999,159],[999,240],[999,320],[999,400],[999,480],[999,560],[999,639],[999,720],[999,800],[999,880],[999,960],[999,1040],[999,1120],[999,1200],[999,1280],[999,1360],[999,1440],[999,1520],[999,1600],[999,1680],[999,1760],[999,1840],[999,1920],[999,2000],[999,2080],[999,2160],[999,2240],[82.9,2320],[89.1,2400],[93.8,2480],[96.3,2560],[96.8,2640],[96.8,2720],[96.8,2800],[97.1,2881],[97.8,2961],[98,3040],[98.5,3121],[98.7,3201],[98.7,3281],[98.7,3360],[98.9,3441],[99.3,3521],[99.9,3601],[100,3781],[100,3854],[100,3934],[100,4014],[100,4094],[100,4175],[100,4254],[100,4334],[100,4414],[100,4494],[100,4574],[100,4654],[100,4734],[100,4815],[100,4894],[100,4974],[100,5054],[100,5134],[100,5214],[100,5294],[100,5375],[100,5455],[100,5534],[100,5615],[100,5695],[100,5775],[100,5855],[100,5935],[100,6015],[100,6095],[100,6175],[100,6255],[100,6335],[100,6415],[100,6495],[100,6575],[100,6655],[100,6735],[100,6815],[100,6895],[100,6975],[100,7055],[100,7135],[100,7215],[100,7295],[100,7376],[100,7455],[100,7535],[100,7615],[100,7695],[100,7775],[100,7855],[100,7935],[100,8015],[100,8095],[100,8176],[100,8255],[100,8336],[100,8416],[100,8496],[100,8576],[100,8656],[100,8736],[100,8816],[100,8896],[100,8976],[100,9056],[100,9136],[100,9216],[100,9296],[100,9376],[100,9456],[100,9536],[100,9616],[100,9696],[100,9776],[100,9856],[100,9936],[100,10016],[100,10096],[100,10178],[100,10256],[100,10336],[100,10416],[100,10497],[100,10577],[100,10656],[100,10736],[100,10816],[100,10896],[100,10976],[100,11057],[100,11137],[100,11216],[100,11297],[100,11377],[100,11457],[100,11537],[100,11617],[100,11697],[100,11777],[100,11857],[100,11937],[100,12017],[100,12097],[100,12177],[100,12257],[100,12337],[100,12417],[100,12497],[100,12577]]",1,0,647.2962,648.9633,100,1.2454,"[{""rating"":99.65727255048309,""responseTime"":0.5092999999970971},{""rating"":100,""responseTime"":1.2453999999911503}]",space,1.1346,,648.9633,Not at all,0,648.9643,,,[],,0,3,3,3,1,audio/Narrative7Situation3.wav,audio/Narrative8Situation3.wav,audio/Narrative5Situation3.wav,audio/Narrative6Situation3.wav,8,4,3,5,,,,,,,,,,,,,,,,,,,,,,,,,,,,,,,,,,,,,,,
,,,,,,590208c89571f50001c666e3,2024-02-08_16h02.09.323,group3.1-3.2-social-tom,2023.2.2,Win32,74.62686567,65c5074098b851296ff0b7ed,65c54145da616938d6969f12,,,,,,,,,,,,,,,,,,,,,,,,,,,,,648.9645,2,audio/Narrative6Situation4.wav,650.978,,650.978,663.5954,"[[69,1119],[84.1,1199],[83.9,1279],[91.3,1359],[91.9,1439],[91.9,1519],[91.9,1599],[92,1679],[92.9,1760],[93.5,1839],[93.5,1919],[93.5,1999],[93.5,2079],[93.5,2159],[93.3,2240],[93.3,2320],[93.3,2400],[93.3,2480],[93.1,2560],[93.1,2640],[93.1,2720],[93.1,2800],[94,2880],[94.4,2961],[94.6,3040],[95,3120],[95.3,3200],[95.9,3280],[96.3,3360],[96.5,3440],[96.5,3520],[96.5,3600],[96.5,3680],[96.5,3760],[96.1,3840],[96,3920],[96,4000],[96,4080],[96,4160],[96,4240],[96.2,4320],[96.2,4400],[96.2,4480],[96.2,4560],[96.2,4640],[96.2,4720],[96.2,4800],[96.2,4880],[96.2,4961],[96.2,5040],[96.2,5120],[96.3,5201],[96.4,5281],[96.5,5361],[96.5,5441],[96.5,5521],[96.5,5601],[96.5,5681],[96,5761],[95.9,5841],[95.3,5921],[93.9,6001],[92.7,6081],[92.3,6161],[92.3,6241],[92.3,6321],[92.3,6401],[92.6,6482],[93.6,6561],[94.1,6641],[94.4,6721],[94.5,6801],[94.6,6881],[94.6,6961],[94.6,7041],[94.6,7121],[94.6,7201],[94.6,7281],[94.6,7361],[94.6,7441],[94.5,7521],[94.5,7601],[94.5,7681],[94.4,7761],[94.4,7841],[94.4,7922],[94.3,8002],[94.2,8082],[94.2,8162],[94.2,8242],[94.2,8322],[94.2,8402],[94.2,8482],[94.2,8562],[94.2,8642],[94.2,8722],[94.2,8802],[94.2,8882],[94.2,8962],[94.2,9042],[94.2,9122],[94.2,9202],[94.2,9282],[94.2,9362],[94.2,9442],[94.2,9522],[94.2,9602],[94.2,9682],[94.2,9762],[94.2,9842],[94.2,9922],[94.2,10002],[94.1,10082],[94.1,10162],[94,10242],[94,10322],[95,10402],[99.4,10482],[100,10562],[100,10642],[100,10722],[100,10802],[100,10882],[100,10962],[100,11043],[100,11123],[100,11203],[99.3,11283],[96,11363],[95.9,11443],[95.9,11523],[96.9,11603],[98.3,11683],[100,11763],[100,11843],[100,11923],[100,12003],[99.8,12083],[99.8,12163],[99.8,12243],[99.8,12323],[99.8,12403],[99.5,12483],[99.3,12563]]",1,0,663.5955,665.4757,98.51167575,1.2817,"[{""rating"":98.5116757469582,""responseTime"":1.2817000000029566}]",space,1.357,,665.4757,Half the time,50,665.4773,,,[],,0,4,4,4,1,audio/Narrative7Situation4.wav,audio/Narrative8Situation4.wav,audio/Narrative5Situation4.wav,audio/Narrative6Situation4.wav,3,3,1,2,,,,,,,,,,,,,,,,,,,,,,,,,,,,,,,,,,,,,,,
,,,,,,590208c89571f50001c666e3,2024-02-08_16h02.09.323,group3.1-3.2-social-tom,2023.2.2,Win32,74.62686567,65c5074098b851296ff0b7ed,65c54145da616938d6969f12,,,,,,,,,,,,,,,,,,,,,,,,,,,,,665.4774,2,audio/Narrative6Situation5.wav,667.4896,,667.4896,675.4524,"[[999,0],[999,80],[999,160],[999,240],[999,320],[999,400],[999,480],[999,560],[999,640],[999,720],[999,800],[999,880],[999,960],[999,1040],[999,1120],[999,1200],[999,1280],[999,1360],[999,1440],[999,1520],[999,1600],[999,1680],[999,1760],[999,1840],[999,1920],[999,2000],[999,2080],[999,2160],[999,2240],[999,2320],[999,2400],[999,2480],[999,2560],[999,2640],[999,2720],[999,2800],[999,2880],[999,2961],[999,3040],[999,3121],[999,3201],[999,3281],[999,3361],[999,3441],[999,3521],[999,3601],[999,3681],[999,3761],[999,3841],[999,3921],[999,4001],[999,4081],[999,4161],[999,4241],[999,4321],[999,4401],[999,4481],[999,4561],[999,4641],[999,4721],[999,4801],[999,4881],[999,4961],[999,5041],[999,5121],[999,5201],[999,5281],[93.6,5361],[93.6,5441],[94.1,5522],[95.1,5602],[95.2,5682],[95.6,5762],[96.1,5841],[96.7,5922],[97.2,6002],[97.6,6082],[97.9,6162],[98.3,6242],[98.7,6322],[98.8,6402],[98.8,6482],[98.8,6562],[98.8,6642],[98.8,6722],[98.8,6802],[98.9,6882],[98.9,6962],[98.9,7042],[98.9,7122],[98.9,7202],[98.9,7282],[98.9,7362],[98.9,7442],[98.9,7522],[98.9,7602],[98.9,7682],[98.9,7762],[98.9,7842],[98.9,7922]]",1,0,675.4526,677.2664,100,1.263,"[{""rating"":100,""responseTime"":1.2630000000000337}]",space,1.2826,,677.2664,All the time,100,677.2679,,,[],,0,5,5,5,1,audio/Narrative7Situation5.wav,audio/Narrative8Situation5.wav,audio/Narrative5Situation5.wav,audio/Narrative6Situation5.wav,5,2,5,2,,,,,,,,,,,,,,,,,,,,,,,,,,,,,,,,,,,,,,,
,,,,,,590208c89571f50001c666e3,2024-02-08_16h02.09.323,group3.1-3.2-social-tom,2023.2.2,Win32,74.62686567,65c5074098b851296ff0b7ed,65c54145da616938d6969f12,,,,,,,,,,,,,,,,,,,,,,,,,,,,,677.268,2,audio/Narrative6Situation6.wav,679.2803,,679.2803,690.3642,"[[999,0],[999,79],[999,160],[999,240],[999,319],[999,400],[999,480],[999,560],[999,640],[999,773],[999,853],[999,933],[999,1013],[999,1093],[999,1173],[999,1253],[999,1333],[999,1413],[999,1493],[999,1574],[91.1,1654],[91.1,1733],[90.9,1814],[90.6,1894],[90.3,1974],[90.1,2053],[90.1,2134],[90.6,2214],[91.5,2294],[92.2,2374],[92.5,2454],[93,2534],[93.9,2614],[94.6,2694],[95.6,2774],[95.8,2854],[96.5,2934],[97.2,3014],[97.9,3094],[98.8,3174],[98.8,3254],[98.8,3334],[98.8,3414],[98.8,3494],[98.8,3574],[98.8,3654],[98.8,3734],[98.8,3814],[98.8,3894],[98.8,3974],[98.8,4054],[98.9,4134],[99.1,4214],[99.2,4295],[99.3,4375],[99.4,4454],[99.4,4534],[99.4,4615],[99.4,4694],[99.4,4775],[99.5,4855],[99.6,4935],[99.6,5014],[99.6,5095],[99.6,5175],[99.6,5255],[99.6,5335],[99.6,5415],[99.6,5495],[99.6,5575],[99.6,5655],[99.6,5735],[99.6,5815],[99.6,5895],[99.6,5975],[99.6,6055],[99.6,6135],[99.6,6215],[99.6,6295],[99.6,6375],[99.6,6455],[99.6,6535],[99.6,6615],[100,6695],[100,6775],[100,6855],[100,6935],[100,7015],[100,7095],[100,7175],[100,7255],[100,7335],[100,7415],[100,7495],[100,7576],[100,7655],[100,7735],[100,7815],[100,7895],[100,7975],[100,8056],[100,8136],[100,8216],[100,8296],[100,8376],[100,8456],[100,8536],[100,8616],[100,8696],[100,8776],[100,8856],[100,8936],[100,9016],[100,9096],[100,9176],[100,9256],[100,9336],[100,9416],[100,9496],[100,9576],[100,9656],[100,9736],[100,9816],[100,9896],[100,9976],[100,10056],[100,10136],[100,10216],[100,10296],[100,10376],[100,10456],[100,10536],[100,10616],[100,10697],[100,10777],[100,10856],[100,10936],[100,11017]]",1,0,690.3643,692.4184,100,1.6335,"[{""rating"":100,""responseTime"":1.6334999999999127}]",space,1.531,,692.4184,Not at all,0,692.4202,,,[],,0,6,6,6,1,audio/Narrative7Situation6.wav,audio/Narrative8Situation6.wav,audio/Narrative5Situation6.wav,audio/Narrative6Situation6.wav,3,2,3,2,,,,,,,,,,,,,,,,,,,,,,,,,,,,,,,,,,,,,,,
,,,,,,590208c89571f50001c666e3,2024-02-08_16h02.09.323,group3.1-3.2-social-tom,2023.2.2,Win32,74.62686567,65c5074098b851296ff0b7ed,65c54145da616938d6969f12,,,,,,,,,,,,,,,,,,,,,,,,,,,,,692.4203,2,audio/Narrative6Situation7.wav,697.4333,,697.4333,722.2815,"[[999,5],[999,79],[999,159],[999,239],[999,319],[999,399],[999,480],[999,559],[999,639],[999,720],[999,799],[999,880],[999,960],[999,1040],[999,1120],[999,1200],[999,1280],[999,1360],[999,1440],[999,1520],[999,1600],[999,1680],[999,1760],[999,1840],[999,1920],[999,2000],[999,2080],[999,2160],[999,2240],[999,2320],[999,2400],[999,2480],[999,2560],[999,2640],[999,2720],[999,2800],[86,2880],[86.1,2960],[86.3,3040],[86.3,3120],[86.5,3201],[87.4,3281],[88.7,3360],[89.3,3441],[89.5,3521],[89.5,3600],[89.5,3681],[89.6,3761],[89.6,3841],[89.4,3921],[89.4,4001],[89.5,4081],[90.1,4161],[90.1,4241],[90.1,4321],[89.9,4401],[89.5,4481],[89.2,4561],[89.1,4641],[88.8,4721],[88.5,4801],[88.1,4881],[88,4961],[87.9,5041],[87.8,5121],[87.6,5201],[87.3,5281],[87.2,5361],[87,5441],[86.8,5521],[86.7,5601],[86.7,5681],[86.7,5761],[86.7,5841],[86.8,5921],[86.8,6001],[86.8,6081],[86.8,6161],[86.8,6241],[86.8,6321],[86.8,6401],[86.8,6482],[86.8,6562],[86.8,6641],[86.8,6722],[86.8,6802],[88,6882],[88.6,6962],[89,7042],[89.1,7122],[89.5,7202],[89.7,7282],[89.9,7362],[89.9,7442],[90.1,7522],[91,7602],[91.6,7682],[91.7,7762],[91.7,7842],[92.9,7922],[93.9,8002],[94,8082],[94,8162],[94.6,8242],[95,8322],[96.4,8402],[96.4,8482],[96.4,8562],[97.5,8642],[97.8,8722],[98,8802],[98.6,8882],[99.2,8962],[99.8,9042],[100,9123],[100,9202],[100,9282],[100,9363],[100,9443],[100,9523],[100,9603],[100,9683],[100,9763],[100,9843],[100,9923],[100,10003],[100,10083],[100,10163],[100,10243],[100,10323],[100,10403],[100,10483],[100,10563],[100,10643],[100,10723],[100,10803],[100,10883],[100,10963],[100,11043],[100,11123],[100,11203],[100,11283],[100,11363],[100,11443],[100,11523],[100,11604],[100,11683],[100,11763],[100,11843],[100,11923],[100,12004],[100,12083],[100,12164],[100,12244],[100,12323],[100,12403],[100,12483],[100,12564],[100,12644],[100,12724],[100,12804],[100,12884],[100,12964],[100,13044],[100,13124],[100,13204],[100,13284],[100,13364],[100,13444],[100,13524],[100,13604],[100,13684],[100,13764],[100,13844],[100,13924],[100,14004],[100,14084],[100,14164],[100,14244],[100,14324],[100,14404],[100,14484],[100,14564],[100,14644],[100,14724],[100,14804],[100,14884],[100,14964],[100,15044],[100,15125],[100,15204],[100,15284],[100,15365],[100,15444],[100,15524],[100,15605],[100,15685],[100,15765],[100,15845],[100,15925],[100,16005],[100,16085],[100,16165],[100,16245],[100,16325],[100,16405],[100,16485],[100,16565],[100,16645],[100,16725],[100,16805],[100,16886],[100,16965],[100,17045],[100,17125],[100,17292],[100,17365],[100,17445],[100,17525],[100,17605],[100,17685],[100,17765],[100,17846],[100,17925],[100,18005],[100,18086],[100,18166],[100,18246],[100,18326],[100,18405],[100,18486],[100,18566],[100,18739],[100,18819],[100,18899],[100,18979],[100,19059],[100,19139],[100,19219],[100,19299],[100,19379],[100,19459],[100,19539],[100,19619],[100,19699],[100,19779],[100,19859],[100,19939],[100,20019],[100,20099],[100,20179],[100,20259],[100,20340],[100,20419],[100,20500],[100,20580],[100,20660],[100,20740],[100,20820],[100,20900],[100,20980],[100,21060],[100,21140],[100,21220],[100,21300],[100,21380],[100,21460],[100,21540],[100,21620],[100,21700],[100,21780],[100,21860],[100,21940],[100,22020],[100,22100],[100,22180],[100,22260],[100,22340],[100,22420],[100,22500],[100,22580],[100,22660],[100,22740],[100,22820],[100,22900],[100,22980],[100,23060],[100,23140],[100,23221],[100,23300],[100,23381],[100,23461],[100,23541],[100,23621],[100,23701],[100,23781],[100,23861],[100,23941],[100,24021],[100,24101],[100,24181],[100,24261],[100,24341],[100,24421],[100,24501],[100,24581],[100,24661],[100,24741],[100,24821]]",1,0,722.2817,725.1361,100,2.1879,"[{""rating"":100,""responseTime"":2.1879000000060387}]",space,2.3262,,725.1361,Half the time,50,725.1376,,,[],,0,7,7,7,1,audio/Narrative7Situation7.wav,audio/Narrative8Situation7.wav,audio/Narrative5Situation7.wav,audio/Narrative6Situation7.wav,5,3,4,5,,,,,,,,,,,,,,,,,,,,,,,,,,,,,,,,,,,,,,,
,,,,,,590208c89571f50001c666e3,2024-02-08_16h02.09.323,group3.1-3.2-social-tom,2023.2.2,Win32,74.62686567,65c5074098b851296ff0b7ed,65c54145da616938d6969f12,,,,,,,,,,,,,,,,,,,,,,,,,,,,,725.1378,2,audio/Narrative6Situation8.wav,730.1509,,730.1509,737.0067,"[[999,6],[999,79],[999,159],[999,240],[999,319],[999,400],[999,480],[999,560],[999,640],[999,720],[999,800],[999,880],[999,960],[999,1040],[999,1120],[999,1200],[999,1280],[999,1360],[999,1440],[999,1520],[999,1600],[999,1680],[999,1760],[999,1840],[999,1920],[999,2000],[999,2080],[999,2160],[999,2240],[999,2320],[999,2400],[999,2481],[999,2560],[999,2641],[999,2720],[999,2800],[999,2881],[999,2961],[999,3040],[999,3121],[999,3201],[999,3281],[999,3361],[999,3441],[999,3521],[999,3601],[80,3681],[81,3761],[82.2,3841],[82.8,3921],[83.6,4001],[84.8,4081],[86,4161],[87.2,4241],[88.9,4321],[89.2,4401],[90.6,4481],[92.8,4561],[94.1,4641],[96.3,4721],[96.8,4803],[96.8,4881],[97.1,4961],[97.7,5042],[97.9,5121],[98.5,5201],[99.6,5281],[100,5361],[100,5442],[100,5521],[100,5601],[100,5681],[100,5761],[100,5841],[100,5921],[100,6001],[100,6081],[100,6162],[100,6241],[100,6322],[100,6402],[100,6482],[100,6562],[100,6642],[100,6722],[100,6802]]",1,0,737.0067,739.2074,100,1.9324,"[{""rating"":100,""responseTime"":1.9323999999910484}]",space,1.6724,,739.2075,Half the time,50,739.2085,,,[],,0,8,8,8,1,audio/Narrative7Situation8.wav,audio/Narrative8Situation8.wav,audio/Narrative5Situation8.wav,audio/Narrative6Situation8.wav,2,3,3,5,,,,,,,,,,,,,,,,,,,,,,,,,,,,,,,,,,,,,,,
,,,,,,590208c89571f50001c666e3,2024-02-08_16h02.09.323,group3.1-3.2-social-tom,2023.2.2,Win32,74.62686567,65c5074098b851296ff0b7ed,65c54145da616938d6969f12,,,,,,,,,,,,,,,,,,,,,,,,,,,,,739.2086,2,audio/Narrative6Situation9.wav,743.2087,,743.2088,753.159,"[[999,5],[999,79],[999,159],[999,239],[999,320],[999,399],[999,480],[999,560],[999,640],[999,720],[999,800],[999,880],[999,960],[999,1040],[999,1120],[999,1200],[999,1280],[999,1360],[999,1440],[999,1520],[999,1600],[999,1680],[999,1760],[999,1840],[999,1920],[999,2000],[999,2080],[999,2160],[999,2240],[999,2320],[999,2400],[999,2480],[999,2560],[999,2640],[999,2720],[999,2800],[999,2968],[999,3027],[999,3107],[999,3187],[999,3267],[999,3347],[999,3427],[999,3507],[999,3587],[999,3668],[999,3748],[999,3828],[999,3908],[999,3988],[999,4068],[999,4148],[999,4227],[999,4307],[999,4388],[999,4468],[999,4548],[999,4628],[90.1,4708],[90,4788],[89.9,4868],[90,4948],[91.1,5028],[91.9,5108],[92.6,5188],[93.6,5268],[94,5348],[94.5,5428],[94.9,5508],[95.6,5588],[96,5668],[96.3,5748],[96.7,5828],[97.2,5908],[98.4,5988],[99.1,6068],[99.7,6148],[100,6228],[100,6308],[100,6388],[100,6468],[100,6548],[100,6628],[100,6709],[100,6788],[100,6868],[100,6949],[100,7028],[99.9,7108],[99.9,7188],[99.9,7269],[99.9,7349],[99.9,7428],[99.9,7509],[99.9,7589],[99.9,7669],[99.9,7749],[99.9,7829],[99.9,7909],[99.9,7989],[99.9,8069],[99.9,8149],[99.9,8229],[99.9,8309],[99.9,8389],[99.9,8469],[99.9,8549],[99.9,8629],[99.9,8709],[100,8789],[100,8869],[100,8949],[100,9029],[100,9109],[100,9189],[100,9269],[100,9349],[100,9429],[100,9509],[100,9589],[100,9669],[100,9749],[100,9829],[100,9909]]",1,0,753.1591,757.1212,100,3.2124,"[{""rating"":99.3448318578035,""responseTime"":2.6842000000029884},{""rating"":100,""responseTime"":3.212399999991021}]",space,3.4312,,757.1213,Half the time,50,757.1229,,,[],,0,9,9,9,1,audio/Narrative7Situation9.wav,audio/Narrative8Situation9.wav,audio/Narrative5Situation9.wav,audio/Narrative6Situation9.wav,2,3,3,4,,,,,,,,,,,,,,,,,,,,,,,,,,,,,,,,,,,,,,,
,,,,,,590208c89571f50001c666e3,2024-02-08_16h02.09.323,group3.1-3.2-social-tom,2023.2.2,Win32,74.62686567,65c5074098b851296ff0b7ed,65c54145da616938d6969f12,,,,,,,,,,,,,,,,,,,,,,,,,,,,,757.1231,2,audio/Narrative5Situation1.wav,762.1352,,762.1352,775.4196,"[[999,5],[999,79],[999,159],[999,239],[999,320],[999,399],[999,480],[999,560],[999,640],[999,720],[999,800],[999,880],[999,960],[999,1040],[999,1120],[999,1200],[999,1280],[999,1360],[999,1440],[999,1520],[999,1600],[999,1680],[999,1760],[999,1840],[999,1920],[999,2000],[999,2080],[999,2161],[999,2241],[999,2321],[999,2400],[999,2480],[999,2560],[999,2640],[8.6,2721],[8.8,2801],[8.8,2881],[8.8,2961],[8.8,3040],[8.8,3120],[8.8,3200],[8.8,3280],[8.8,3360],[8.8,3441],[8.8,3520],[8.8,3601],[8.8,3681],[8.8,3761],[8.8,3841],[8.8,3921],[8.8,4001],[8.8,4081],[8.8,4161],[8.8,4241],[8.8,4321],[8.8,4401],[8.8,4481],[8.8,4561],[8.8,4641],[8.8,4721],[8.8,4801],[8.8,4881],[8.9,4961],[9.5,5041],[10.1,5121],[10.4,5201],[10.9,5281],[11.1,5361],[11.6,5441],[12,5521],[12.6,5602],[13.1,5682],[13.8,5762],[14.8,5842],[16.6,5922],[17.8,6002],[19,6081],[20.2,6162],[21.1,6242],[22.2,6322],[24.7,6402],[26.5,6482],[27.5,6562],[28.2,6642],[28.7,6722],[28.7,6802],[28.7,6882],[28.9,6962],[29.4,7042],[30.1,7122],[30.5,7202],[32.6,7282],[35.1,7362],[35.4,7442],[35.4,7522],[35.4,7602],[35.4,7682],[35.4,7762],[35.4,7842],[35.4,7922],[35.4,8002],[35.4,8082],[35.4,8162],[35.4,8242],[35.4,8322],[35.4,8402],[35.4,8482],[35.4,8562],[35.4,8642],[35.4,8722],[35.4,8802],[35.4,8882],[35.4,8962],[35.4,9043],[35.4,9122],[35.4,9202],[35.4,9283],[35.4,9363],[35.4,9442],[35.4,9523],[35.4,9603],[35.4,9683],[35.4,9763],[35.4,9843],[35.4,9923],[35.4,10003],[35.4,10083],[35.4,10163],[35.4,10243],[35.4,10323],[35.4,10403],[35.4,10483],[35.4,10563],[35.4,10643],[35.4,10723],[35.4,10803],[35.4,10883],[35.4,10963],[35.4,11043],[34.5,11124],[33.8,11203],[32.5,11283],[31.9,11364],[31,11443],[30.5,11523],[30.5,11603],[30.1,11683],[30,11764],[29.7,11843],[29.2,11925],[29.1,12004],[29.1,12083],[28.9,12163],[28.8,12244],[28.4,12324],[28.4,12404],[28.4,12484],[28.4,12564],[28.4,12644],[28.4,12724],[28.4,12804],[28.4,12884],[28.4,12964],[28.4,13044],[28.4,13124],[28.4,13204],[28.4,13284]]",1,0,775.4198,777.5004,28.00508042,1.1596,"[{""rating"":28.00508041851366,""responseTime"":1.1596000000089361}]",space,1.5477,,777.5004,Not at all,0,777.502,,,[],,0,10,10,10,1,audio/Narrative8Situation1.wav,audio/Narrative7Situation1.wav,audio/Narrative6Situation1.wav,audio/Narrative5Situation1.wav,5,2,2,5,,,,,,,,,,,,,,,,,,,,,,,,,,,,,,,,,,,,,,,
,,,,,,590208c89571f50001c666e3,2024-02-08_16h02.09.323,group3.1-3.2-social-tom,2023.2.2,Win32,74.62686567,65c5074098b851296ff0b7ed,65c54145da616938d6969f12,,,,,,,,,,,,,,,,,,,,,,,,,,,,,777.5021,2,audio/Narrative5Situation2.wav,780.5147,,780.5147,809.9781,"[[999,6],[999,79],[999,159],[999,240],[999,319],[999,399],[999,480],[999,560],[999,640],[999,720],[999,800],[999,880],[999,960],[999,1040],[999,1120],[999,1200],[999,1280],[999,1360],[999,1440],[999,1520],[999,1600],[999,1680],[999,1760],[999,1840],[999,1920],[999,2000],[999,2080],[999,2160],[999,2240],[999,2320],[999,2400],[999,2480],[999,2561],[999,2641],[999,2721],[999,2801],[999,2880],[999,2961],[999,3041],[999,3121],[999,3201],[999,3281],[17.5,3361],[17.5,3441],[17.4,3521],[17.3,3601],[17.3,3681],[17.1,3761],[17.1,3841],[17.1,3921],[17.1,4001],[17.1,4081],[17.1,4161],[17.1,4241],[17.1,4321],[17.1,4401],[17.1,4481],[17.1,4561],[17.1,4641],[17,4721],[16.9,4801],[16.6,4881],[16.4,4961],[16.4,5041],[16.4,5121],[16.4,5201],[16.4,5281],[16.3,5361],[16.3,5441],[16.3,5521],[16.3,5601],[16.3,5681],[16.3,5761],[16.3,5841],[16.3,5921],[16.4,6001],[16.6,6082],[16.6,6162],[16.6,6242],[16.6,6322],[16.6,6402],[16.6,6482],[16.6,6562],[16.6,6642],[16.8,6722],[17.1,6803],[17.1,6882],[17.1,6962],[17.1,7042],[17.1,7122],[17.1,7202],[17.1,7282],[17,7362],[17,7442],[17,7522],[17,7602],[17.2,7682],[17.7,7762],[17.8,7842],[17.9,7922],[17.9,8002],[17.9,8082],[17.9,8162],[17.9,8242],[17.9,8322],[17.9,8402],[17.9,8482],[17.6,8562],[17.6,8642],[17.6,8722],[17.6,8802],[17.6,8882],[17.6,8962],[17.6,9043],[17.6,9123],[17.6,9203],[17.6,9283],[17.6,9363],[17.6,9443],[17.6,9523],[17.6,9603],[17.6,9683],[17.6,9763],[17.6,9843],[17.6,9923],[17.6,10003],[17.6,10083],[17.6,10163],[17.5,10243],[17.5,10323],[17.5,10403],[17.5,10483],[17.5,10563],[17.5,10643],[17.6,10723],[17.6,10804],[17.7,10883],[17.7,10963],[17.9,11043],[18.2,11123],[18.7,11204],[19,11283],[19,11365],[19,11443],[19,11524],[19,11603],[19,11773],[19,11843],[19.1,11923],[19.3,12004],[19.5,12084],[19.5,12163],[19.5,12244],[19.8,12324],[19.9,12404],[20.1,12484],[20.1,12564],[20.1,12644],[20.1,12724],[20.1,12804],[20.1,12884],[20.1,12964],[20.1,13044],[20.1,13124],[19.9,13204],[19.7,13284],[19.6,13364],[19.6,13444],[19.6,13524],[19.5,13604],[19.5,13684],[19.5,13764],[19.5,13844],[19.5,13924],[19.5,14004],[19.5,14084],[19.5,14164],[19.3,14245],[19.3,14324],[19,14404],[18.9,14485],[18.7,14564],[18.7,14644],[18.7,14725],[18.7,14805],[18.7,14884],[18.7,14965],[18.7,15045],[18.7,15125],[18.8,15205],[19.5,15285],[20.3,15365],[20.9,15445],[21.2,15525],[21.2,15605],[23.1,15685],[24.1,15765],[25.3,15845],[26.2,15925],[26.6,16005],[26.8,16085],[27.5,16165],[27.6,16245],[28.4,16325],[29,16405],[29.9,16485],[30.5,16565],[30.5,16645],[31.7,16725],[32.7,16805],[32.7,16885],[32.7,16965],[32.7,17045],[32.7,17134],[32.9,17206],[34.2,17286],[35.4,17366],[35.7,17445],[35.7,17525],[36.4,17606],[36.7,17685],[37,17765],[37.9,17846],[38.7,17926],[39.1,18006],[40.2,18094],[41.2,18166],[41.2,18246],[41.3,18326],[41.5,18406],[41.6,18486],[41.6,18566],[41.6,18646],[41.6,18726],[41.6,18807],[41.6,18886],[41.6,18966],[41.6,19046],[42.2,19126],[42.4,19206],[42.4,19286],[42.5,19366],[42.9,19446],[43.2,19526],[43.3,19606],[43.5,19686],[43.5,19766],[43.6,19846],[43.6,19926],[44,20006],[44.3,20086],[44.6,20166],[45,20246],[45,20326],[45,20406],[45,20486],[45,20567],[45,20646],[45,20726],[45.2,20807],[45.2,20887],[45.2,20967],[45.5,21047],[45.6,21127],[45.8,21207],[46,21287],[46,21367],[46.1,21447],[46.2,21527],[46.4,21607],[46.4,21687],[46.4,21767],[46.4,21847],[46.5,21927],[46.5,22007],[46.5,22087],[46.5,22167],[46.5,22247],[46.5,22327],[46.5,22407],[46.5,22487],[46.5,22567],[46.5,22647],[46.5,22727],[46.5,22808],[46.5,22887],[46.5,22967],[46.5,23047],[46.5,23127],[46.5,23207],[47.1,23288],[48.6,23368],[50.2,23448],[50.6,23528],[50.7,23608],[51.3,23688],[52.3,23768],[53.2,23848],[54.2,23928],[54.8,24008],[55.8,24088],[57.4,24168],[58.8,24248],[61.3,24328],[62.8,24409],[64.2,24489],[65.3,24568],[68.4,24648],[69.8,24728],[71.8,24808],[74.1,24888],[74.6,24968],[75.5,25048],[76.8,25128],[77.5,25208],[79.6,25288],[82.6,25368],[82.7,25448],[83.4,25528],[84.3,25609],[85.8,25688],[86,25768],[86,25848],[86,25928],[86,26008],[86,26088],[86,26168],[85.8,26248],[85.4,26329],[85.4,26408],[85.4,26489],[85.4,26568],[85.4,26648],[85.4,26729],[85.4,26809],[85.4,26889],[85.4,26969],[85.4,27049],[85.4,27129],[85.4,27209],[85.4,27289],[85.4,27369],[85.4,27449],[85.4,27529],[85.4,27609],[85.4,27689],[85.4,27769],[85.4,27849],[85.4,27929],[85.4,28009],[85.4,28089],[85.4,28169],[85.4,28249],[85.4,28329],[85.4,28409],[85.4,28489],[85.4,28569],[85.4,28649],[85.4,28729],[85.4,28809],[85.4,28889],[85.4,28969],[85.4,29049],[85.4,29129],[85.4,29210],[85.4,29289],[85.4,29369],[85.4,29449]]",1,0,809.9782,848.2577,51.22954872,37.8572,"[{""rating"":53.93733754107598,""responseTime"":1.6837000000030002},{""rating"":51.229548715933184,""responseTime"":37.85720000000299}]",space,37.7479,,848.2578,Half the time,50,848.2595,,,[],,0,11,11,11,1,audio/Narrative8Situation2.wav,audio/Narrative7Situation2.wav,audio/Narrative6Situation2.wav,audio/Narrative5Situation2.wav,3,3,3,3,,,,,,,,,,,,,,,,,,,,,,,,,,,,,,,,,,,,,,,
,,,,,,590208c89571f50001c666e3,2024-02-08_16h02.09.323,group3.1-3.2-social-tom,2023.2.2,Win32,74.62686567,65c5074098b851296ff0b7ed,65c54145da616938d6969f12,,,,,,,,,,,,,,,,,,,,,,,,,,,,,848.2596,2,audio/Narrative5Situation3.wav,851.2721,,851.2721,865.1836,"[[999,5],[999,79],[999,159],[999,240],[999,320],[999,399],[999,480],[999,560],[999,640],[999,720],[999,800],[999,880],[999,960],[999,1040],[999,1120],[999,1200],[999,1280],[999,1360],[999,1440],[999,1520],[999,1600],[999,1680],[999,1760],[999,1840],[999,1920],[999,2000],[999,2080],[999,2160],[999,2240],[999,2320],[999,2400],[999,2480],[999,2560],[999,2640],[999,2720],[999,2800],[999,2880],[999,2960],[999,3040],[999,3120],[999,3201],[999,3281],[999,3361],[999,3441],[999,3521],[999,3601],[999,3681],[999,3761],[999,3841],[999,3921],[999,4001],[999,4081],[999,4161],[999,4241],[999,4321],[999,4401],[999,4481],[999,4561],[999,4641],[999,4721],[999,4801],[999,4881],[999,4961],[999,5041],[999,5121],[999,5201],[999,5281],[999,5361],[999,5441],[999,5521],[999,5601],[999,5681],[999,5761],[999,5841],[34.9,5921],[34.9,6001],[34.9,6081],[34.9,6161],[34.9,6241],[34.4,6322],[34.4,6401],[33.7,6482],[32.8,6562],[32.6,6642],[32.6,6722],[32.6,6802],[32.6,6882],[32.6,6962],[32.6,7042],[32.6,7122],[32.6,7202],[32.6,7282],[32.6,7362],[32.6,7442],[32.6,7522],[32.6,7602],[32.6,7682],[32.6,7762],[32.6,7842],[32.6,7922],[32.6,8002],[32.6,8082],[32.6,8162],[32.6,8242],[32.6,8322],[32.6,8402],[32.6,8482],[32.6,8562],[32.6,8642],[32.6,8722],[32.6,8802],[32.6,8882],[32.6,8962],[32.6,9043],[32.6,9122],[32.6,9203],[32.6,9282],[32.6,9363],[32.6,9443],[32.6,9523],[32.6,9603],[32.6,9683],[32.6,9763],[32.6,9843],[32.6,9923],[32.6,10003],[32.6,10083],[32.6,10163],[32.6,10243],[32.6,10323],[32.6,10403],[32.6,10483],[32.6,10563],[32.6,10643],[32.6,10723],[32.6,10803],[32.6,10883],[32.6,10963],[32.6,11043],[32.6,11123],[32.6,11203],[32.6,11283],[33.3,11364],[38.6,11443],[47.5,11524],[48.5,11603],[52.5,11684],[54.8,11764],[55.1,11844],[55.8,11924],[57,12004],[57.2,12084],[57.8,12164],[58,12244],[58,12324],[58.1,12404],[58.1,12484],[58.1,12564],[58.1,12644],[58.1,12724],[58.1,12804],[58.1,12884],[58.1,12964],[58.1,13044],[58.1,13124],[58.1,13204],[58.1,13284],[58.1,13364],[58.1,13444],[58.1,13524],[58.1,13604],[58.1,13684],[58.1,13764],[58.1,13844]]",1,0,865.1838,868.2511,39.77353491,2.0835,"[{""rating"":39.77353491356324,""responseTime"":2.083499999999958}]",space,2.5356,,868.2512,Not at all,0,868.2526,,,[],,0,12,12,12,1,audio/Narrative8Situation3.wav,audio/Narrative7Situation3.wav,audio/Narrative6Situation3.wav,audio/Narrative5Situation3.wav,4,8,5,3,,,,,,,,,,,,,,,,,,,,,,,,,,,,,,,,,,,,,,,
