exp_question,consent.started,consent.stopped,consentResponse.keys,consentResponse.rt,consentResponse.duration,participantID,date,expName,psychopyVersion,OS,frameRate,STUDY_ID,SESSION_ID,opening1.started,opening1.stopped,keyEndingOpening1.keys,keyEndingOpening1.rt,keyEndingOpening1.duration,volumeAdjust.started,volumeAdjust.stopped,endingAdjust.keys,endingAdjust.rt,endingAdjust.duration,opening2.started,opening2.stopped,keyEndingOpening.keys,keyEndingOpening.rt,keyEndingOpening.duration,mouse.x,mouse.y,mouse.leftButton,mouse.midButton,mouse.rightButton,mouse.time,instructionLoop.thisRepN,instructionLoop.thisTrialN,instructionLoop.thisN,instructionLoop.thisIndex,instructionLoop.ran,readyForAudio.started,readyForAudio.stopped,fixation.started,run,audio_played,fixation.stopped,endPractice.keys,audioPre.started,audioPre.stopped,continuousResponses_audio,continuousSlider.response,continuousSlider.rt,intRating.started,intRating.stopped,intQuestionSlider.response,intQuestionSlider.rt,intQuestionSlider.history,confirmResponse.keys,confirmResponse.rt,confirmResponse.duration,catchQuestion.started,catch_label,catch_value,catchQuestion.stopped,catchQuestionSlider.response,catchQuestionSlider.rt,catchQuestionSlider.history,confirmResponse_2.keys,audioRunLoop.thisRepN,audioRunLoop.thisTrialN,audioRunLoop.thisN,audioRunLoop.thisIndex,audioRunLoop.ran,conditions1_1,conditions2_1,conditions1_2,conditions2_2,dur1_1,dur2_1,dur1_2,dur2_2,endPractice.rt,endPractice.duration,confirmResponse_2.rt,confirmResponse_2.duration,runIntervalBreak.started,runIntervalBreak.stopped,endingBreakKey.keys,endingBreakKey.rt,endingBreakKey.duration,connection.started,connection.stopped,connectionEnding.keys,connectionEnding.rt,connectionEnding.duration,readyForText.started,readyForText.stopped,textPre.started,run_dup,textPre.stopped,continuousResponses_text,textRunLoop.thisRepN,textRunLoop.thisTrialN,textRunLoop.thisN,textRunLoop.thisIndex,textRunLoop.ran,text1_1,text1_2,text2_1,text2_2,runBreakText.started,runBreakText.stopped,endingBreakKey_2.keys,endingBreakKey_2.rt,endingBreakKey_2.duration,ending.started,ending.stopped,endingEnding.keys,endingEnding.rt,endingEnding.duration
tom,0.0003,9.2571,y,8.858,,5953462b2d8f240001481c53,2024-02-08_16h48.47.737,group3.1-3.2-social-tom,2023.2.2,MacIntel,62.5,65c5074098b851296ff0b7ed,65c54c261d5e330b96e5c1a4,,,,,,,,,,,,,,,,,,,,,,,,,,,,,,,,,,,,,,,,,,,,,,,,,,,,,,,,,,,,,,,,,,,,,,,,,,,,,,,,,,,,,,,,,,,,,,,,,,,,,,,,,,
,,,,,,5953462b2d8f240001481c53,2024-02-08_16h48.47.737,group3.1-3.2-social-tom,2023.2.2,MacIntel,62.5,65c5074098b851296ff0b7ed,65c54c261d5e330b96e5c1a4,9.2575,11.3896,space,2.0985,,,,,,,,,,,,,,,,,,,,,,,,,,,,,,,,,,,,,,,,,,,,,,,,,,,,,,,,,,,,,,,,,,,,,,,,,,,,,,,,,,,,,,,,,,,,,,,,,,,,,,
,,,,,,5953462b2d8f240001481c53,2024-02-08_16h48.47.737,group3.1-3.2-social-tom,2023.2.2,MacIntel,62.5,65c5074098b851296ff0b7ed,65c54c261d5e330b96e5c1a4,,,,,,11.3898,14.839,space,3.1206,,,,,,,,,,,,,,,,,,,,,,,,,,,,,,,,,,,,,,,,,,,,,,,,,,,,,,,,,,,,,,,,,,,,,,,,,,,,,,,,,,,,,,,,,,,,,,,,,
,,,,,,5953462b2d8f240001481c53,2024-02-08_16h48.47.737,group3.1-3.2-social-tom,2023.2.2,MacIntel,62.5,65c5074098b851296ff0b7ed,65c54c261d5e330b96e5c1a4,,,,,,,,,,,14.8483,18.2732,space,3.3973,,[],[],[],[],[],[],0,0,0,0,1,,,,,,,,,,,,,,,,,,,,,,,,,,,,,,,,,,,,,,,,,,,,,,,,,,,,,,,,,,,,,,,,,,,,,,,,,,,,,,,,
,,,,,,5953462b2d8f240001481c53,2024-02-08_16h48.47.737,group3.1-3.2-social-tom,2023.2.2,MacIntel,62.5,65c5074098b851296ff0b7ed,65c54c261d5e330b96e5c1a4,,,,,,,,,,,18.2738,28.272,space,9.8946,,[],[],[],[],[],[],1,0,1,0,1,,,,,,,,,,,,,,,,,,,,,,,,,,,,,,,,,,,,,,,,,,,,,,,,,,,,,,,,,,,,,,,,,,,,,,,,,,,,,,,,
,,,,,,5953462b2d8f240001481c53,2024-02-08_16h48.47.737,group3.1-3.2-social-tom,2023.2.2,MacIntel,62.5,65c5074098b851296ff0b7ed,65c54c261d5e330b96e5c1a4,,,,,,,,,,,28.2726,30.8552,space,2.5313,,[],[],[],[],[],[],2,0,2,0,1,,,,,,,,,,,,,,,,,,,,,,,,,,,,,,,,,,,,,,,,,,,,,,,,,,,,,,,,,,,,,,,,,,,,,,,,,,,,,,,,
,,,,,,5953462b2d8f240001481c53,2024-02-08_16h48.47.737,group3.1-3.2-social-tom,2023.2.2,MacIntel,62.5,65c5074098b851296ff0b7ed,65c54c261d5e330b96e5c1a4,,,,,,,,,,,30.8556,33.7893,space,2.9085,,[],[],[],[],[],[],3,0,3,0,1,,,,,,,,,,,,,,,,,,,,,,,,,,,,,,,,,,,,,,,,,,,,,,,,,,,,,,,,,,,,,,,,,,,,,,,,,,,,,,,,
,,,,,,5953462b2d8f240001481c53,2024-02-08_16h48.47.737,group3.1-3.2-social-tom,2023.2.2,MacIntel,62.5,65c5074098b851296ff0b7ed,65c54c261d5e330b96e5c1a4,,,,,,,,,,,33.7896,35.3884,space,1.5733,,[],[],[],[],[],[],4,0,4,0,1,,,,,,,,,,,,,,,,,,,,,,,,,,,,,,,,,,,,,,,,,,,,,,,,,,,,,,,,,,,,,,,,,,,,,,,,,,,,,,,,
,,,,,,5953462b2d8f240001481c53,2024-02-08_16h48.47.737,group3.1-3.2-social-tom,2023.2.2,MacIntel,62.5,65c5074098b851296ff0b7ed,65c54c261d5e330b96e5c1a4,,,,,,,,,,,,,,,,,,,,,,,,,,,35.3905,37.9719,37.9936,1,audio/Narrative13Situation2.wav,40.006,,40.0062,69.7737,"[[999,1],[999,99],[999,182],[999,266],[999,349],[999,432],[999,516],[999,615],[999,699],[999,782],[999,865],[999,949],[999,1032],[999,1115],[999,1198],[999,1282],[999,1376],[999,1449],[999,1532],[999,1618],[999,1699],[999,1782],[999,1866],[999,1949],[999,2036],[999,2115],[999,2199],[999,2282],[999,2365],[999,2449],[999,2532],[999,2615],[66,2699],[57,3865],[56.9,3949],[56.9,4031],[56.9,4115],[56.9,4199],[56.9,4282],[58.5,4366],[58.7,4449],[58.7,4532],[58.7,4615],[59,4699],[62.2,4782],[64,4865],[66.7,4948],[67.7,5032],[68.2,5116],[68.2,5198],[68.2,5282],[68.2,5366],[68.1,5448],[68.1,5532],[68.1,5616],[68.1,5699],[68.1,5781],[68.1,5866],[68.1,5949],[68.1,6032],[68.1,6115],[68.1,6199],[68.2,6282],[69.5,6365],[69.8,6448],[69.8,6532],[69.8,6615],[69.8,6699],[69.8,6783],[69.8,6865],[69.8,6948],[69.8,7032],[69.8,7115],[69.8,7199],[69.8,7282],[69.8,7366],[69.8,7449],[69.8,7531],[69.8,7615],[69.8,7698],[69.8,7781],[69.8,7865],[69.8,7948],[69.8,8032],[69.8,8115],[69.8,8199],[69.8,8282],[69.8,8366],[69.8,8449],[69.8,8532],[69.8,8616],[69.8,8698],[69.8,8781],[69.8,8865],[69.8,8948],[69.8,9033],[69.8,9115],[69.8,9199],[69.8,9282],[69.8,9365],[69.8,9449],[69.8,9532],[69.8,9616],[69.8,9699],[69.8,9782],[69.8,9865],[69.8,9948],[69.8,10032],[69.8,10115],[69.8,10199],[69.8,10281],[69.8,10365],[69.8,10449],[69.8,10532],[69.8,10615],[69.8,10699],[69.8,10782],[69.8,10865],[69.8,10949],[69.8,11032],[69.8,11115],[69.8,11199],[69.8,11281],[69.8,11366],[69.8,11452],[69,11532],[67.5,11615],[67.1,11698],[66.6,11782],[64.7,11865],[64.5,11948],[64.5,12031],[64.5,12115],[64.5,12199],[62.1,12282],[60.6,12365],[60.6,12448],[60.5,12531],[60.2,12615],[59.9,12698],[59.8,12781],[59.2,12865],[58.6,12949],[57.9,13031],[57.9,13116],[57.9,13199],[57.9,13281],[57.9,13366],[56.3,13448],[52.2,13532],[51.4,13615],[51.2,13698],[50.8,13782],[50.2,13866],[49.7,13948],[49.3,14032],[49.2,14115],[49.2,14199],[49.2,14282],[49.2,14366],[49.2,14449],[49.2,14532],[49.2,14616],[49.2,14699],[49.2,14782],[48.5,14865],[47.9,14948],[47.3,15034],[46.6,15115],[45.8,15198],[45.6,15282],[45.6,15365],[45.6,15449],[45.6,15532],[45.6,15616],[45.6,15699],[45.5,15781],[44.7,15865],[44.1,15949],[43.7,16031],[43.2,16116],[42.8,16199],[42.8,16281],[42.8,16365],[42.8,16448],[42.8,16532],[42.8,16614],[42.5,16698],[39.5,16782],[38.7,16865],[38.6,16948],[38.4,17031],[37.9,17115],[37.5,17198],[37.3,17282],[37.3,17365],[37.3,17448],[37.3,17532],[37.3,17615],[37.5,17698],[37.9,17781],[38.5,17865],[39,17948],[39.4,18036],[39.5,18115],[39.6,18199],[39.6,18282],[39.6,18365],[39.6,18448],[39.6,18532],[39.6,18616],[39.6,18698],[39.6,18782],[39.6,18865],[39.6,18948],[39.6,19031],[39.6,19115],[39.6,19199],[39.6,19281],[39.6,19365],[39.6,19449],[39.6,19532],[39.6,19615],[39.6,19699],[39.6,19782],[39.6,19865],[39.6,19948],[39.6,20031],[39.6,20114],[39.6,20198],[39.6,20282],[39.6,20365],[39.6,20448],[39.6,20532],[39.6,20615],[39.6,20699],[39.6,20781],[39.6,20866],[39.6,20949],[39.6,21032],[39.6,21115],[39.6,21199],[39.6,21282],[39.6,21365],[39.6,21449],[39.6,21532],[39.6,21615],[39.6,21698],[39.6,21782],[39.6,21865],[39.6,21948],[39.6,22031],[42.5,22115],[47.6,22198],[49.9,22282],[51.4,22365],[53,22448],[54.7,22532],[57.5,22615],[60.5,22698],[60.9,22781],[60.9,22865],[60.9,22949],[60.9,23075],[60.9,23198],[60.9,23281],[60.9,23365],[60.9,23449],[60.9,23532],[60.9,23615],[60.9,23698],[60.9,23782],[61.1,23865],[61.3,23948],[61.4,24031],[61.5,24115],[61.5,24198],[61.6,24281],[61.7,24365],[61.7,24448],[61.8,24531],[61.9,24615],[62,24698],[62.1,24781],[62.3,24865],[62.7,24948],[62.7,25031],[62.7,25115],[62.7,25199],[62.7,25282],[62.7,25364],[62.7,25449],[62.7,25531],[62.7,25614],[62.7,25699],[62.7,25782],[62.7,25865],[62.7,25949],[62.7,26032],[62.7,26115],[62.7,26198],[62.7,26282],[62.7,26365],[62.7,26449],[62.8,26532],[63.2,26614],[63.5,26698],[64.1,26781],[64.4,26864],[64.4,26949],[64.4,27031],[65.1,27115],[65.3,27199],[65.4,27281],[65.7,27365],[65.9,27448],[66,27531],[66,27615],[66,27698],[66.4,27781],[67.9,27865],[68.4,27948],[69.2,28031],[70.1,28115],[70.4,28199],[70.4,28281],[70.4,28365],[70.4,28449],[70.4,28532],[70.4,28615],[70.4,28699],[70.4,28782],[71.3,28865],[73.5,28948],[74.2,29031],[74.5,29114],[74.7,29198],[74.7,29282],[74.7,29365],[74.7,29449],[74.7,29531],[74.7,29615],[74.7,29699]]",1,0,69.774,73.3559,67.44627211,2.3971,"[{""rating"":67.44627210828993,""responseTime"":2.3970999999940403}]",space,3.0411,,73.3563,All the time,100,73.3599,,,[],,0,0,0,0,1,audio/Narrative13Situation2.wav,audio/Narrative13Situation2.wav,audio/Narrative13Situation2.wav,audio/Narrative13Situation2.wav,2,2,2,2,,,,,,,,,,,,,,,,,,,,,,,,,,,,,,,,,,,,,,,
,,,,,,5953462b2d8f240001481c53,2024-02-08_16h48.47.737,group3.1-3.2-social-tom,2023.2.2,MacIntel,62.5,65c5074098b851296ff0b7ed,65c54c261d5e330b96e5c1a4,,,,,,,,,,,,,,,,,,,,,,,,,,,,,73.3602,1,audio/Narrative8Situation1.wav,75.1709,space,75.171,91.105,"[[60.9,667],[55.6,750],[55.6,835],[55.6,917],[52.7,1001],[49.8,1084],[49.7,1167],[49.7,1250],[49.7,1333],[49.7,1417],[49.7,1500],[49.7,1583],[49.7,1667],[52.3,1751],[56.2,1833],[56.4,1917],[56.4,2000],[56.4,2083],[56.4,2167],[56.4,2251],[56.4,2333],[56.4,2417],[56.4,2500],[56.4,2584],[56.4,2666],[56.4,2750],[56.4,2834],[56.4,2917],[56.4,3000],[56.4,3084],[56.7,3167],[59.7,3250],[61.1,3334],[61.1,3417],[61.1,3500],[61.1,3584],[61.1,3667],[61.1,3750],[61.1,3833],[61.1,3917],[61.1,4000],[61.1,4084],[61.1,4166],[63.3,4251],[65.4,4334],[67.2,4417],[68.7,4500],[70.6,4584],[71.3,4667],[71.3,4750],[71.3,4834],[71.3,4917],[71.3,4999],[71.3,5084],[71.3,5167],[71.3,5250],[71.3,5333],[71.3,5417],[71.3,5500],[71.3,5583],[71.3,5667],[71.3,5750],[71.3,5833],[71.3,5916],[71.5,6001],[72.6,6084],[73.2,6167],[73.2,6251],[73.2,6334],[73.2,6417],[73.2,6500],[73.2,6584],[73.2,6666],[73.2,6750],[73.2,6834],[73.2,6917],[73.2,6999],[73.2,7083],[73.2,7167],[73.2,7250],[73.2,7334],[73.2,7417],[73.2,7500],[73.2,7584],[73.2,7667],[73.2,7750],[73.2,7833],[73.2,7916],[73.2,8000],[73.2,8083],[73.2,8166],[73.2,8250],[73.2,8334],[73.2,8416],[73.2,8500],[73.2,8583],[73.2,8667],[73.2,8750],[73.2,8834],[73.2,8916],[73.2,8999],[73.2,9083],[73.2,9167],[73.2,9251],[73.2,9333],[73.2,9417],[73.2,9500],[73.7,9583],[74.7,9667],[75.2,9750],[75.3,9833],[75.3,9917],[75.3,9999],[75.3,10083],[75.3,10167],[75.3,10250],[75.3,10333],[75.3,10417],[75.1,10500],[74.8,10583],[74.8,10666],[74.8,10749],[74.8,10834],[74.8,10917],[74.8,11000],[74.8,11084],[74.8,11166],[74.8,11249],[74.8,11334],[74.8,11417],[74.8,11500],[74.8,11583],[74.8,11666],[74.8,11750],[74.8,11833],[74.8,11916],[74.8,12000],[74.8,12084],[74.8,12166],[74.8,12249],[74.8,12334],[74.8,12416],[74.8,12500],[74.8,12584],[74.8,12667],[74.8,12750],[74.8,12833],[74.8,12917],[74.8,13000],[74.8,13083],[74.8,13167],[74.8,13250],[74.8,13334],[74.8,13417],[74.8,13500],[75,13583],[75.2,13667],[75.2,13750],[75.4,13834],[79.1,13917],[82,14000],[82.5,14084],[82.5,14167],[83,14250],[85.2,14334],[85.8,14417],[85.9,14500],[85.9,14583],[85.9,14666],[85.9,14750],[85.9,14833],[85.9,14917],[85.9,15000],[85.9,15083],[85.9,15167],[85.9,15250],[85.9,15333],[85.9,15416],[85.9,15500],[85.5,15584],[85.3,15666],[85.3,15750],[85.1,15834],[82.4,15916]]",1,0,91.1051,93.4041,68.33044264,1.4067,"[{""rating"":68.33044264051648,""responseTime"":1.4066999999880778}]",space,1.7573,,93.4041,Not at all,0,99.1392,0.327830844,4.3239,"[{""rating"":0.32783084445529576,""responseTime"":4.323900000005963}]",space,0,1,1,1,1,audio/Narrative7Situation1.wav,audio/Narrative8Situation1.wav,audio/Narrative5Situation1.wav,audio/Narrative6Situation1.wav,2,5,5,2,1.7852,,5.2,,,,,,,,,,,,,,,,,,,,,,,,,,,,,,,,,,,,
,,,,,,5953462b2d8f240001481c53,2024-02-08_16h48.47.737,group3.1-3.2-social-tom,2023.2.2,MacIntel,62.5,65c5074098b851296ff0b7ed,65c54c261d5e330b96e5c1a4,,,,,,,,,,,,,,,,,,,,,,,,,,,,,99.1397,1,audio/Narrative8Situation2.wav,102.1551,,102.1551,112.3049,"[[50.8,82],[50.8,166],[50.8,249],[50.8,333],[50.8,415],[50.9,499],[51.3,582],[51.3,665],[51.3,749],[51.3,832],[51.3,915],[51.3,999],[51.3,1089],[49.9,1166],[49.6,1249],[49.5,1376],[49.5,1468],[49.5,1549],[49.7,1633],[54.1,1724],[55.2,1799],[57.3,1883],[58.8,1965],[59.3,2050],[59.4,2133],[59.4,2216],[59.4,2299],[59.4,2382],[59.4,2466],[59.5,2550],[60.3,2633],[60.5,2716],[60.7,2800],[60.8,2883],[61.1,2967],[61.8,3049],[63.6,3133],[65.5,3216],[65.8,3300],[66.2,3383],[66.2,3466],[66.2,3549],[66.2,3632],[66.3,3716],[66.3,3798],[64.9,3883],[60,3967],[58.7,4049],[58.7,4133],[58.7,4215],[58.7,4299],[58.7,4383],[58.7,4466],[58.7,4549],[58.7,4633],[58.7,4716],[58.7,4799],[58.7,4882],[58.7,4965],[58.7,5049],[58.7,5132],[58.7,5215],[58.7,5299],[58.7,5382],[58.7,5466],[58.7,5549],[58.7,5633],[58.7,5715],[58.7,5799],[58.7,5882],[58.7,5965],[58.7,6049],[58.7,6135],[58.7,6288],[58.7,6366],[59.3,6454],[60.7,6534],[61.5,6617],[64.1,6699],[67.8,6784],[68.5,6870],[68.5,6949],[68.5,7032],[68.5,7116],[68.5,7199],[68.5,7282],[68.6,7366],[69.3,7450],[70.3,7533],[71.2,7616],[72.5,7700],[73.9,7782],[75.1,7868],[75.8,7949],[76.3,8032],[77.1,8116],[77.5,8198],[77.8,8282],[77.8,8366],[78.2,8449],[79.9,8533],[81.5,8616],[81.9,8699],[81.9,8782],[81.9,8867],[81.9,8949],[81.9,9032],[81.9,9116],[81.9,9199],[81.9,9283],[81.9,9365],[81.9,9450],[82.4,9532],[83.2,9615],[83.8,9698],[84,9782],[84.3,9869],[84.5,9948],[84.5,10033],[84.5,10116]]",1,0,112.305,114.654,71.00735982,1.7164,"[{""rating"":71.00735982259114,""responseTime"":1.7163999999761472}]",space,1.8067,,114.6541,Not at all,0,114.6569,,,[],,0,2,2,2,1,audio/Narrative7Situation2.wav,audio/Narrative8Situation2.wav,audio/Narrative5Situation2.wav,audio/Narrative6Situation2.wav,3,3,3,3,,,,,,,,,,,,,,,,,,,,,,,,,,,,,,,,,,,,,,,
,,,,,,5953462b2d8f240001481c53,2024-02-08_16h48.47.737,group3.1-3.2-social-tom,2023.2.2,MacIntel,62.5,65c5074098b851296ff0b7ed,65c54c261d5e330b96e5c1a4,,,,,,,,,,,,,,,,,,,,,,,,,,,,,114.6572,1,audio/Narrative8Situation3.wav,118.6714,,118.6714,141.0545,"[[999,10],[999,82],[999,166],[999,249],[999,332],[999,416],[999,500],[999,583],[999,666],[999,750],[999,833],[999,918],[999,999],[999,1083],[51.7,1167],[50.8,1250],[50.7,1333],[51.5,1416],[55.6,1499],[56.9,1583],[59.3,1666],[59.6,1750],[61.6,1834],[68.1,1916],[78.2,2000],[82.5,2084],[82.7,2166],[82.7,2249],[82.7,2333],[82.7,2416],[83.5,2499],[84.6,2582],[85,2665],[85.5,2750],[85.9,2833],[86,2916],[86.2,2998],[86.7,3083],[86.8,3166],[86.8,3249],[86.7,3333],[86.5,3415],[86.5,3499],[86.5,3582],[86.5,3665],[86.5,3749],[86.5,3832],[86.5,3915],[86.5,3999],[86.5,4082],[86.5,4165],[86.5,4248],[86.5,4338],[86.3,4466],[86.1,4549],[85.9,4632],[85.8,4716],[85.7,4799],[85.6,4883],[85.5,4966],[85.3,5049],[84.8,5133],[84.6,5216],[84.6,5299],[84.6,5382],[84.6,5465],[84.6,5549],[84.5,5633],[84.5,5716],[84.4,5800],[84.1,5883],[83.7,5967],[83.5,6049],[83.4,6133],[83.4,6216],[83.3,6299],[83.2,6382],[83.2,6466],[83.2,6549],[83.3,6633],[83.3,6715],[83.3,6798],[83.3,6883],[83,6965],[81,7049],[80.4,7133],[80.3,7215],[80.6,7299],[80.6,7383],[80.6,7466],[80.6,7548],[80.6,7633],[80.6,7715],[80.6,7798],[80.6,7882],[80.6,7965],[80.6,8049],[80.6,8132],[75.3,8215],[70.5,8299],[70.4,8382],[68.7,8465],[66.8,8549],[66.8,8633],[66.9,8715],[67,8799],[67,8882],[67,8965],[67.1,9048],[67.2,9132],[67.2,9215],[67.2,9298],[67.2,9382],[67.4,9466],[67.8,9550],[70.3,9632],[74.4,9716],[77.7,9800],[80.6,9882],[81.6,9966],[81.6,10049],[81.6,10133],[81.6,10216],[81.6,10299],[81.6,10382],[81.6,10466],[81.6,10548],[81.6,10633],[81.6,10716],[81.6,10798],[81.6,10882],[81.6,10966],[81.6,11049],[81.6,11132],[81.6,11216],[81.6,11299],[81.6,11382],[81.6,11466],[81.6,11549],[81.6,11632],[81.6,11715],[81.6,11799],[81.6,11882],[81.2,11966],[80.2,12049],[80,12132],[79.9,12216],[79.5,12298],[79.2,12383],[79,12466],[78.9,12548],[78.8,12632],[78.7,12716],[78.6,12800],[78.3,12882],[77.7,12966],[76.8,13049],[76.7,13132],[76.6,13216],[76.6,13299],[76.6,13383],[76.6,13465],[75.6,13549],[71.8,13633],[68.7,13716],[67.9,13799],[67.9,13883],[67.9,13966],[67.9,14049],[67.9,14132],[67.9,14216],[67.9,14299],[67.9,14382],[67.7,14466],[66.4,14548],[65.4,14632],[64.9,14716],[64.7,14848],[64.6,14932],[64.4,15016],[64.3,15099],[64.3,15182],[64.3,15266],[64.3,15349],[64.3,15481],[64.3,15566],[64.3,15649],[64.3,15732],[64.3,15815],[64.3,15899],[64.3,15982],[64.3,16065],[62.5,16216],[61.9,16299],[61.9,16382],[61.9,16465],[61.9,16549],[61.9,16632],[61.9,16715],[61.9,16799],[61.9,16882],[61.9,16965],[61.9,17049],[61.9,17131],[61.9,17217],[61.9,17299],[61.9,17382],[61.9,17466],[60.2,17550],[59.2,17632],[59.1,17716],[59.1,17799],[59.2,17883],[59.2,17966],[59.2,18049],[59.2,18133],[59.2,18216],[59.2,18298],[59.2,18383],[59.2,18465],[59.2,18549],[59.2,18633],[59.2,18717],[59.2,18799],[59.2,18883],[59.6,18966],[60.6,19049],[62.2,19132],[63,19215],[63.9,19300],[64.4,19382],[64.7,19466],[64.8,19549],[64.8,19632],[64.8,19716],[64.8,19799],[64.8,19883],[64.8,19965],[65.6,20049],[66,20133],[66.1,20216],[66.1,20299],[66.1,20382],[66.1,20465],[66.1,20548],[66.1,20632],[66.1,20716],[66.7,20800],[68.1,20882],[68.3,20966],[68.3,21049],[68.3,21132],[68.3,21216],[68.3,21299],[68.3,21383],[68.3,21466],[68.3,21549],[68.3,21632],[68.3,21715],[68.3,21799],[68.3,21882],[68.3,21966],[68.3,22048],[68.3,22132],[68.4,22217],[68.6,22299],[70.4,22382]]",1,0,141.0547,143.3217,75.70252313,1.1661,"[{""rating"":75.70252312554253,""responseTime"":1.1660999999940316}]",space,1.7331,,143.3219,Half the time,50,143.3243,,,[],,0,3,3,3,1,audio/Narrative7Situation3.wav,audio/Narrative8Situation3.wav,audio/Narrative5Situation3.wav,audio/Narrative6Situation3.wav,8,4,3,5,,,,,,,,,,,,,,,,,,,,,,,,,,,,,,,,,,,,,,,
,,,,,,5953462b2d8f240001481c53,2024-02-08_16h48.47.737,group3.1-3.2-social-tom,2023.2.2,MacIntel,62.5,65c5074098b851296ff0b7ed,65c54c261d5e330b96e5c1a4,,,,,,,,,,,,,,,,,,,,,,,,,,,,,143.3245,1,audio/Narrative8Situation4.wav,146.3369,,146.337,160.5036,"[[49.9,83],[49.9,167],[49.9,250],[49.9,333],[49.9,416],[49.4,501],[49.7,751],[50.9,835],[51.5,917],[51.5,1000],[51.5,1083],[51.5,1167],[51.5,1250],[51.5,1332],[52.7,1416],[54.2,1500],[55.2,1583],[55.3,1667],[55.3,1750],[55.3,1833],[55.3,1917],[55.3,2000],[55.3,2083],[55.3,2167],[55.3,2250],[55.3,2332],[55.4,2417],[55.5,2500],[55.6,2584],[55.7,2667],[55.8,2751],[55.9,2833],[56.1,2916],[56.3,3000],[56.3,3084],[56.3,3167],[56.3,3249],[56.3,3334],[56.3,3416],[56.3,3499],[56.3,3583],[56.3,3667],[56.3,3750],[56.3,3833],[56.3,3917],[56.3,4000],[56.3,4083],[56.3,4167],[52.4,4251],[44.5,4333],[43.5,4416],[43.4,4507],[43.4,4583],[43.4,4666],[38.1,4751],[34.3,4834],[34.3,4917],[34.3,5000],[34.3,5084],[34.3,5167],[34.3,5250],[34.3,5333],[34.3,5417],[34.3,5499],[34.3,5583],[34.3,5667],[34.3,5750],[34.3,5834],[35.3,5917],[36.2,6001],[36.2,6084],[38.1,6167],[39.8,6250],[40,6334],[40,6416],[40,6500],[40,6583],[40,6666],[40,6750],[40,6833],[40,6916],[40,7000],[40,7084],[42.6,7167],[47.4,7250],[49.9,7334],[50.3,7417],[50.3,7500],[50.3,7583],[51.5,7666],[55.1,7750],[56,7833],[56.8,7917],[56.8,8000],[56.8,8082],[56.8,8167],[56.8,8250],[56.8,8334],[56.8,8417],[56.8,8500],[56.8,8583],[56.8,8667],[56.8,8750],[56.8,8834],[56.8,8917],[56.8,9000],[56.8,9083],[56.8,9167],[56.8,9249],[56.9,9333],[60.5,9417],[63.1,9500],[64.3,9584],[64.5,9666],[64.5,9750],[64.5,9833],[64.5,9917],[64.5,9999],[64.5,10083],[64.5,10166],[66,10250],[67.3,10334],[67.8,10416],[67.8,10500],[67.8,10583],[67.8,10666],[67.8,10750],[67.8,10833],[67.8,10917],[67.8,11000],[67.8,11084],[67.8,11167],[67.8,11250],[67.8,11333],[67.8,11417],[67.8,11500],[69.4,11583],[70,11668],[71.5,11751],[72.2,11832],[72.2,11917],[72.2,12000],[72.2,12083],[72.2,12167],[72.2,12250],[72.2,12332],[72.2,12417],[72.2,12500],[72.2,12583],[72.2,12667],[72.2,12750],[72.2,12833],[72.2,12917],[72.1,13000],[71.7,13084],[70.4,13168],[69.8,13249],[68.4,13334],[66.3,13417],[65,13504],[64.5,13584],[63.9,13667],[63.6,13750],[62.2,13833],[61.5,13917],[61.4,14001],[61.4,14083],[61.4,14166]]",1,0,160.5037,162.1707,56.84050666,1.0499,"[{""rating"":56.84050665961371,""responseTime"":1.0499000000059766}]",space,1.1342,,162.1709,Not at all,0,162.1735,,,[],,0,4,4,4,1,audio/Narrative7Situation4.wav,audio/Narrative8Situation4.wav,audio/Narrative5Situation4.wav,audio/Narrative6Situation4.wav,3,3,1,2,,,,,,,,,,,,,,,,,,,,,,,,,,,,,,,,,,,,,,,
,,,,,,5953462b2d8f240001481c53,2024-02-08_16h48.47.737,group3.1-3.2-social-tom,2023.2.2,MacIntel,62.5,65c5074098b851296ff0b7ed,65c54c261d5e330b96e5c1a4,,,,,,,,,,,,,,,,,,,,,,,,,,,,,162.1737,1,audio/Narrative8Situation5.wav,164.1874,,164.1874,172.4373,"[[999,0],[999,83],[999,166],[999,250],[999,333],[999,416],[999,500],[999,582],[999,668],[999,750],[999,840],[51.1,917],[50.4,999],[50.4,1083],[50.4,1166],[50.4,1249],[50.4,1333],[50.4,1416],[50.4,1499],[50.8,1582],[51.2,1666],[51.2,1749],[51.2,1832],[51.2,1916],[50.5,1999],[44,2083],[41.7,2165],[41.7,2248],[41.7,2333],[41.7,2415],[41.7,2499],[40.9,2583],[37.4,2668],[36.7,2749],[36.7,2837],[36.7,2916],[36.7,2999],[36.7,3083],[36.7,3165],[36.7,3249],[36.7,3332],[34.1,3415],[33.3,3500],[33.1,3582],[33.1,3670],[33.1,3750],[33.1,3833],[33.1,3916],[33.1,3999],[33.1,4083],[33.1,4166],[33.1,4249],[33.1,4332],[33.3,4416],[33.7,4499],[34.1,4582],[34.5,4666],[35.8,4750],[38.3,4835],[40.3,4916],[40.5,5000],[40.5,5083],[40.5,5165],[40.5,5250],[40.5,5333],[40.5,5416],[40.5,5499],[40.5,5583],[40.5,5665],[40.5,5748],[40.5,5836],[41.2,5917],[48.3,5999],[51.9,6083],[52,6166],[52,6249],[52,6333],[52,6416],[52,6499],[52,6582],[52,6666],[52,6749],[52,6832],[52,6916],[52,7031],[52,7099],[52,7182],[52.9,7266],[59.8,7350],[64.9,7432],[64.9,7516],[64.9,7599],[64.9,7682],[64.9,7766],[64.9,7850],[64.9,7932],[64.9,8016],[64.9,8100],[64.9,8183]]",1,0,172.4374,174.1848,56.61046346,1.2657,"[{""rating"":56.61046346028647,""responseTime"":1.2657000000178584}]",space,1.1937,,174.1849,All the time,100,174.1873,,,[],,0,5,5,5,1,audio/Narrative7Situation5.wav,audio/Narrative8Situation5.wav,audio/Narrative5Situation5.wav,audio/Narrative6Situation5.wav,5,2,5,2,,,,,,,,,,,,,,,,,,,,,,,,,,,,,,,,,,,,,,,
,,,,,,5953462b2d8f240001481c53,2024-02-08_16h48.47.737,group3.1-3.2-social-tom,2023.2.2,MacIntel,62.5,65c5074098b851296ff0b7ed,65c54c261d5e330b96e5c1a4,,,,,,,,,,,,,,,,,,,,,,,,,,,,,174.1874,1,audio/Narrative8Situation6.wav,176.204,,176.2041,182.6875,"[[999,0],[999,83],[999,166],[999,249],[999,332],[999,415],[999,499],[999,582],[999,667],[51.6,757],[50.9,832],[50.9,916],[50.9,1000],[53.3,1083],[57.1,1166],[58.6,1250],[59,1332],[59,1416],[59,1499],[59,1581],[59,1666],[59,1748],[59,1833],[59,1916],[59,1998],[59,2082],[59,2166],[59,2249],[59,2332],[59,2416],[59,2499],[59,2582],[59,2667],[59,2749],[59,2833],[59,2915],[58.2,3000],[43.4,3082],[41.5,3165],[41.5,3248],[41.5,3332],[41.5,3416],[41.5,3499],[41.5,3583],[41.5,3666],[41.5,3749],[41.5,3833],[41.5,3916],[41.1,3998],[40.7,4082],[40.7,4166],[40.7,4249],[39,4332],[35.1,4416],[34.7,4500],[34.7,4582],[34.7,4666],[34.8,4750],[34.8,4831],[34.8,4916],[34.8,4998],[34.8,5082],[34.8,5166],[34.8,5249],[34.8,5332],[34.8,5415],[34.8,5498],[34.8,5582],[34.8,5666],[34.8,5748],[34.8,5833],[34.8,5916],[34.8,5998],[34.8,6082],[34.8,6166],[34.9,6250],[36.1,6332],[40.3,6416]]",1,0,182.6877,184.2209,34.89547729,1.1734,"[{""rating"":34.895477294921875,""responseTime"":1.1734000000059552}]",space,0.9848,,184.221,All the time,100,184.2232,,,[],,0,6,6,6,1,audio/Narrative7Situation6.wav,audio/Narrative8Situation6.wav,audio/Narrative5Situation6.wav,audio/Narrative6Situation6.wav,3,2,3,2,,,,,,,,,,,,,,,,,,,,,,,,,,,,,,,,,,,,,,,
,,,,,,5953462b2d8f240001481c53,2024-02-08_16h48.47.737,group3.1-3.2-social-tom,2023.2.2,MacIntel,62.5,65c5074098b851296ff0b7ed,65c54c261d5e330b96e5c1a4,,,,,,,,,,,,,,,,,,,,,,,,,,,,,184.2234,1,audio/Narrative8Situation7.wav,187.2363,,187.2364,199.3361,"[[50.6,500],[50.4,583],[50.4,666],[50.4,750],[50.4,835],[50.4,916],[50.4,999],[50.5,1084],[50.8,1166],[51.2,1250],[51.9,1334],[52.5,1417],[53.4,1500],[54.3,1583],[54.6,1667],[54.9,1751],[56.1,1833],[56.8,1917],[56.8,2000],[56.8,2082],[56.8,2166],[56.8,2250],[56.8,2333],[56.8,2417],[56.8,2500],[56.8,2583],[56.8,2666],[56.8,2750],[56.8,2833],[56.9,2918],[57,3000],[57.1,3083],[57.1,3167],[57.2,3250],[57.2,3333],[57.2,3417],[57.2,3500],[57.2,3583],[57.2,3667],[57.2,3750],[57.2,3832],[57.2,3916],[57.2,3999],[57.2,4082],[57.2,4166],[46.4,4250],[43.3,4333],[43.3,4416],[43.3,4499],[43.3,4583],[42,4671],[37.4,4750],[37,4833],[37,4917],[37,4999],[37,5083],[37,5166],[37,5250],[37,5332],[37,5416],[37,5500],[37,5583],[37,5666],[36.5,5750],[33.7,5832],[33,5916],[33,6000],[33,6083],[33,6167],[33,6250],[33,6333],[33,6416],[33,6499],[33,6583],[33,6667],[32.5,6750],[28.8,6833],[28.3,6917],[28.3,6999],[28.3,7083],[28.3,7167],[28.3,7250],[28.3,7333],[28.3,7417],[28.3,7500],[28.3,7583],[28.3,7667],[28.3,7750],[28.3,7833],[28.3,7916],[28.3,8000],[28.3,8083],[28.3,8166],[28.3,8250],[28.4,8333],[28.4,8415],[28.4,8500],[28.4,8583],[28.4,8666],[28.4,8750],[28.4,8832],[28.4,8916],[28.5,9000],[28.6,9083],[28.6,9166],[28.6,9250],[28.6,9333],[28.7,9417],[29.2,9499],[29.7,9582],[29.7,9667],[29.7,9749],[29.7,9833],[29.7,9917],[29.7,10000],[29.7,10082],[29.7,10166],[29.7,10249],[29.7,10332],[29.7,10416],[29.8,10500],[48.3,10584],[48.2,11833],[37.4,11916],[37.3,12000],[37.3,12082]]",1,0,199.3361,200.5536,34.84248691,0.8,"[{""rating"":34.84248691134982,""responseTime"":0.799999999999983}]",space,0.6893,,200.5536,Half the time,50,200.5563,,,[],,0,7,7,7,1,audio/Narrative7Situation7.wav,audio/Narrative8Situation7.wav,audio/Narrative5Situation7.wav,audio/Narrative6Situation7.wav,5,3,4,5,,,,,,,,,,,,,,,,,,,,,,,,,,,,,,,,,,,,,,,
,,,,,,5953462b2d8f240001481c53,2024-02-08_16h48.47.737,group3.1-3.2-social-tom,2023.2.2,MacIntel,62.5,65c5074098b851296ff0b7ed,65c54c261d5e330b96e5c1a4,,,,,,,,,,,,,,,,,,,,,,,,,,,,,200.5566,1,audio/Narrative8Situation8.wav,203.5703,,203.5705,216.4359,"[[47.4,582],[48.8,666],[49.1,749],[49.1,832],[49.1,916],[49.1,998],[49.1,1081],[49.1,1166],[49.1,1249],[49.1,1332],[49.1,1416],[49.1,1499],[49.1,1582],[49.1,1665],[49.1,1749],[49.1,1832],[49.1,1915],[49.1,1999],[49.1,2082],[49.1,2165],[49.1,2248],[49.1,2332],[49.1,2417],[49.1,2499],[49.1,2583],[49.1,2666],[49.1,2749],[49.1,2831],[49.1,2916],[49.1,2999],[49.1,3082],[49.1,3166],[49.1,3249],[49.1,3332],[49.1,3415],[49.1,3499],[49.1,3617],[49.4,3699],[50.1,3782],[50.3,3865],[50.3,3949],[50.3,4031],[50.3,4115],[48.9,4236],[43.1,4317],[41,4399],[41,4482],[41,4566],[41,4648],[41,4732],[37.3,4816],[36.4,4899],[36.4,4984],[36.4,5066],[36.4,5149],[36.4,5231],[36.4,5315],[36.4,5400],[36.4,5482],[36.4,5566],[36.4,5648],[36.3,5733],[34.1,5816],[32.7,5899],[32.7,5981],[32.7,6066],[31.5,6149],[31,6232],[31,6315],[31,6399],[31,6482],[31,6565],[31,6649],[31,6732],[31,6815],[31,6898],[31,6982],[31,7066],[31,7149],[31,7232],[31,7316],[31,7399],[31,7482],[31,7565],[31,7649],[31,7732],[31,7815],[31,7899],[31,7981],[31,8066],[31,8149],[31,8232],[31,8316],[31,8398],[31,8482],[31,8566],[31,8649],[31,8732],[31,8815],[31,8899],[31,8982],[31,9066],[31,9148],[31,9232],[31,9316],[31,9398],[31,9482],[31,9566],[31,9649],[31,9732],[31,9816],[31,9899],[31,9982],[31,10065],[31,10149],[31,10232],[31,10315],[31,10399],[31,10482],[31,10565],[31,10649],[31,10733],[31,10815],[31,10899],[31,10983],[31,11065],[31,11149],[31,11232],[35.7,11316],[38.6,11398],[38.8,11482],[38.8,11566],[38.8,11649],[38.8,11732],[38.8,11816],[38.8,11899],[34.7,11982],[26.8,12066],[26.5,12150],[26.5,12232],[26.5,12316],[26.5,12399],[26.5,12482],[26.5,12565],[26.5,12649],[26.5,12732],[26.5,12815]]",1,0,216.4362,217.8204,29.62335375,0.8329,"[{""rating"":29.62335374620226,""responseTime"":0.8329000000059636}]",space,0.8494,,217.8205,Not at all,0,217.8237,,,[],,0,8,8,8,1,audio/Narrative7Situation8.wav,audio/Narrative8Situation8.wav,audio/Narrative5Situation8.wav,audio/Narrative6Situation8.wav,2,3,3,5,,,,,,,,,,,,,,,,,,,,,,,,,,,,,,,,,,,,,,,
,,,,,,5953462b2d8f240001481c53,2024-02-08_16h48.47.737,group3.1-3.2-social-tom,2023.2.2,MacIntel,62.5,65c5074098b851296ff0b7ed,65c54c261d5e330b96e5c1a4,,,,,,,,,,,,,,,,,,,,,,,,,,,,,217.824,1,audio/Narrative8Situation9.wav,220.8366,,220.8367,232.1694,"[[31.8,752],[38.6,834],[45.9,916],[47.3,999],[47.6,1083],[50,1166],[50.6,1249],[50.6,1332],[50.6,1416],[50.6,1499],[50.6,1583],[50.6,1666],[50.6,1749],[50.6,1832],[50.6,1915],[50.6,1999],[50.6,2082],[50.6,2166],[50.4,2249],[49.4,2332],[48.4,2416],[48.1,2500],[48.1,2583],[48.1,2666],[48.1,2749],[48.1,2833],[48.1,2916],[48.1,2999],[48.1,3082],[48.1,3165],[48.1,3249],[48.1,3333],[45.9,3416],[41.2,3500],[39.7,3583],[39.5,3666],[38.3,3749],[34.3,3833],[31.6,3916],[31.4,3998],[31.4,4083],[31.4,4165],[31.4,4249],[30.9,4332],[26.7,4415],[24.8,4500],[24.7,4582],[24.7,4666],[24.7,4749],[24.7,4833],[24.7,4916],[24.7,4999],[24.6,5083],[24.5,5165],[24.5,5249],[24.5,5332],[24.6,5416],[24.7,5500],[24.7,5582],[24.7,5666],[24.7,5750],[24.7,5833],[24.7,5916],[26.4,6001],[28.4,6083],[28.8,6166],[28.8,6250],[28.8,6333],[28.8,6415],[29.8,6499],[30.9,6583],[31,6666],[31,6749],[31,6833],[31,6915],[31,6998],[31,7082],[31,7168],[31,7249],[30.9,7333],[30.9,7416],[34.4,7499],[35.3,7583],[35.3,7666],[35.3,7750],[35.3,7832],[35.3,7915],[35.3,8000],[35.3,8082],[35.3,8165],[35.3,8249],[35.3,8333],[35.3,8416],[35.3,8499],[35.2,8583],[35.2,8665],[35.2,8749],[35.2,8833],[35.2,8916],[35.2,8999],[35.2,9082],[35.2,9166],[35.2,9249],[35.2,9332],[35.2,9416],[35.2,9500],[35.2,9581],[35.2,9666],[35.2,9750],[35.2,9832],[35.2,9916],[35.2,10000],[35.2,10082],[35.2,10165],[35.2,10249],[35.1,10333],[33.4,10416],[31.3,10499],[30.7,10583],[30.5,10666],[30.5,10748],[30.5,10833],[30.5,10917],[30.5,10999],[30.5,11083],[30.5,11166],[30.5,11249],[30.5,11332]]",1,0,232.1696,233.3039,28.56278314,0.6996,"[{""rating"":28.562783135308155,""responseTime"":0.6995999999940352}]",space,0.6072,,233.3039,Not at all,0,233.3057,,,[],,0,9,9,9,1,audio/Narrative7Situation9.wav,audio/Narrative8Situation9.wav,audio/Narrative5Situation9.wav,audio/Narrative6Situation9.wav,2,3,3,4,,,,,,,,,,,,,,,,,,,,,,,,,,,,,,,,,,,,,,,
,,,,,,5953462b2d8f240001481c53,2024-02-08_16h48.47.737,group3.1-3.2-social-tom,2023.2.2,MacIntel,62.5,65c5074098b851296ff0b7ed,65c54c261d5e330b96e5c1a4,,,,,,,,,,,,,,,,,,,,,,,,,,,,,233.306,1,audio/Narrative7Situation1.wav,235.3198,,235.3198,291.2192,"[[28.9,2833],[29.7,2916],[30.2,2999],[30.6,3083],[31.5,3166],[33.4,3249],[34.3,3332],[34.5,3416],[34.5,3500],[34.5,3583],[34.5,3667],[36.3,3750],[37.9,3833],[38,3916],[38,3999],[38,4083],[38,4166],[38,4249],[40.4,4332],[42,4416],[42.1,4499],[42.1,4583],[38.7,4666],[29,4750],[28.2,4833],[28.2,4916],[28.2,4999],[28.2,5082],[28.2,5166],[28,5249],[25.1,5333],[24.3,5416],[24.3,5499],[24.3,5582],[24.3,5665],[24.3,5748],[24.3,5832],[24.3,5916],[24.3,5999],[24.3,6082],[24.3,6166],[24.3,6250],[24.3,6332],[24.3,6416],[24.3,6499],[24.3,6583],[24.3,6666],[24.3,6749],[24.3,6833],[24.3,6916],[24.3,6999],[24.3,7083],[24.3,7166],[24.3,7249],[24.3,7333],[24.3,7417],[24.3,7499],[24.3,7582],[24.3,7666],[24.3,7861],[24.3,7932],[24.3,8016],[24.3,8099],[24.3,8266],[24.3,8375],[24.3,8449],[24.3,8532],[24.3,8616],[24.3,8701],[24.3,8783],[24.3,8866],[24.3,8949],[24.3,9032],[24.3,9115],[24.3,9199],[24.4,9283],[25,9366],[26,9449],[28.4,9533],[30.1,9616],[30.2,9698],[30.3,9782],[30.3,9866],[30.3,9948],[30.3,10033],[30.3,10116],[30.3,10200],[30.3,10282],[30.3,10366],[30.3,10449],[30.3,10532],[30.1,10616],[29.6,10701],[28.8,10782],[28.6,10865],[28.6,10949],[30.2,11033],[34.6,11116],[35.2,11199],[35.6,11283],[36.3,11366],[37,11449],[38.4,11532],[38.6,11615],[38.6,11703],[38.6,11782],[38.6,11866],[41.4,11950],[49.7,12033],[53.3,12116],[54.3,12200],[54.3,12282],[54.3,12366],[54.3,12448],[54.3,12532],[54.2,12615],[54.2,12707],[54.2,12782],[54.5,12866],[58,12949],[58.8,13033],[59.2,13116],[59.2,13198],[59.2,13282],[59.2,13366],[59.2,13450],[59.2,13532],[59.2,13616],[59.2,13702],[59.2,13782],[59.2,13866],[59.2,13949],[59.2,14032],[59.2,14116],[59.2,14199],[59.2,14282],[59.2,14365],[59.2,14449],[59.2,14533],[60.9,14616],[62,14699],[62,14783],[62,14866],[62,14949],[62,15033],[62,15116],[62,15199],[62,15282],[62,15366],[62,15449],[62,15532],[62.2,15617],[62.3,15699],[62.3,15782],[62.3,15865],[62.3,15950],[62.3,16032],[62.3,16116],[62.3,16199],[62.3,16282],[62.3,16366],[62.3,16448],[62.3,16532],[62.3,16616],[62.3,16702],[62.1,16782],[60.1,16865],[59.1,16948],[58.9,17033],[57.1,17115],[53.9,17198],[53.8,17282],[53.8,17365],[53.8,17449],[53.8,17532],[53.8,17616],[53.8,17698],[53.8,17782],[53.8,17866],[52.6,17950],[45,18033],[44.5,18115],[44.5,18199],[44.5,18282],[44.5,18365],[44.5,18449],[44.5,18532],[44.5,18615],[44.5,18702],[44.5,18783],[44.5,18866],[44.5,18949],[44.5,19032],[44.5,19116],[36.2,19199],[33.9,19282],[33.9,19366],[33.9,19448],[33.9,19532],[30.1,19616],[25.3,19700],[25.2,19782],[25.2,19866],[25.2,19950],[25.2,20032],[25.2,20116],[25.2,20199],[25.2,20282],[25.2,20366],[25.1,20449],[25.1,20533],[25.1,20616],[25.1,20699],[25.1,20782],[25.1,20865],[25.1,20949],[25.1,21032],[25.1,21117],[25.1,21198],[25.1,21282],[25.1,21366],[25.1,21448],[25.1,21532],[25.1,21615],[25.1,21701],[25.1,21782],[25.1,21865],[25.1,21949],[25.1,22032],[25.1,22115],[25.1,22199],[25.1,22282],[25.1,22365],[25.1,22449],[25.1,22533],[25.1,22616],[25.1,22699],[25.1,22782],[25.1,22866],[25.1,22948],[25.1,23032],[25.1,23116],[25.1,23199],[25.1,23281],[25.1,23366],[25.1,23448],[25.1,23532],[24.9,23615],[23.3,23700],[22.2,23783],[22.1,23866],[20.2,23950],[19.6,24032],[19.6,24116],[19.6,24199],[19.6,24282],[19.6,24366],[19.6,24448],[19.6,24532],[19.6,24615],[19.6,24701],[19.6,24782],[19.6,24866],[19.6,24949],[19.6,25031],[19.6,25115],[19.6,25198],[19.6,25282],[19.6,25366],[19.6,25449],[19.6,25532],[19.6,25615],[19.7,25700],[19.8,25782],[20,25865],[20.6,25949],[21.3,26033],[21.9,26116],[22.4,26200],[23.4,26283],[24.4,26366],[25,26448],[25.2,26532],[25.2,26616],[25.2,26699],[25.2,26782],[25.2,26866],[25.2,26949],[25.2,27032],[25.2,27116],[25.2,27199],[25.2,27281],[25.2,27365],[25.2,27449],[25.2,27532],[25.2,27616],[25.2,27699],[25.2,27782],[25.2,27866],[25.2,27949],[25.2,28032],[25.2,28116],[25.2,28198],[25.2,28281],[25.7,28366],[29.2,28448],[31.7,28533],[35.2,28615],[35.3,28699],[35.3,28782],[35.3,28865],[35.3,28949],[35.3,29032],[35.3,29116],[35.3,29199],[35.3,29282],[35.3,29365],[35.3,29448],[35.3,29532],[37,29615],[38.4,29699],[39,29782],[39.2,29866],[39.2,29949],[39.2,30033],[39.2,30116],[39.2,30199],[39.2,30282],[39.2,30366],[39.2,30449],[39.2,30532],[39.2,30615],[39.2,30699],[39.2,30782],[39.2,30866],[39.2,30949],[39.7,31032],[40.3,31116],[40.6,31200],[42.5,31282],[43.2,31366],[43.2,31449],[43.2,31531],[43.1,31616],[42.9,31701],[42.8,31783],[42.6,31866],[42.6,31948],[42.6,32032],[42.6,32116],[41,32198],[37.8,32282],[35.8,32367],[35.3,32449],[35.3,32532],[35.3,32616],[35.3,32698],[35.3,32782],[35.3,32866],[35.3,32950],[35.3,33032],[35.3,33115],[35.3,33199],[35.3,33282],[35.3,33365],[35.3,33449],[35.3,33532],[35.3,33616],[35.3,33698],[35.2,33783],[33.9,33866],[32.1,33948],[31.1,34033],[30.7,34116],[30.7,34199],[30.7,34282],[30.7,34366],[30.7,34449],[30.7,34532],[30.7,34616],[30.7,34701],[30.7,34782],[30.7,34866],[30.7,34949],[30.7,35032],[30.7,35116],[30.7,35199],[30.7,35282],[30.7,35366],[30.7,35449],[30.7,35532],[30.7,35616],[30.7,35701],[30.7,35782],[30.7,35865],[30.7,35948],[30.7,36032],[30.7,36116],[30.7,36198],[30.7,36282],[30.7,36366],[32.4,36449],[35.9,36533],[38.7,36616],[43.1,36701],[44.6,36782],[44.6,36865],[44.6,36949],[44.6,37032],[44.6,37115],[44.6,37199],[44.6,37282],[44.6,37365],[44.6,37448],[44.6,37532],[44.6,37615],[44.6,37698],[44.6,37782],[44.6,37865],[44.6,37949],[44.6,38032],[44.6,38116],[44.6,38198],[44.6,38282],[44.6,38366],[44.6,38449],[44.6,38531],[44.6,38616],[44.6,38699],[44.6,38782],[39.1,38865],[37.9,38949],[37.9,39032],[37.9,39116],[37.9,39199],[37.9,39282],[37.9,39366],[33.6,39449],[31.3,39532],[31.3,39616],[31.3,39698],[31.3,39782],[31.3,39866],[31.3,39948],[31.3,40032],[31.3,40116],[31.3,40199],[31.3,40282],[31.3,40366],[31.3,40449],[30.5,40533],[29.4,40616],[29.3,40699],[29.3,40782],[29.3,40865],[29.3,40949],[29.3,41032],[29.3,41114],[29.3,41199],[29.3,41282],[29.3,41365],[29.3,41449],[29.3,41532],[29.3,41616],[29.2,41699],[26.8,41783],[25.3,41865],[25.1,41949],[25.2,42032],[25.2,42116],[25.2,42199],[25.2,42281],[25.2,42365],[25.2,42449],[25.2,42531],[25.2,42616],[25.2,42701],[25.2,42782],[25.2,42866],[25.2,42949],[25.2,43032],[25.2,43116],[25.7,43199],[34.1,43282],[46,43366],[47.7,43449],[47.7,43532],[47.7,43615],[47.7,43700],[47.7,43782],[47.7,43866],[48.5,43949],[53.9,44032],[57,44117],[57.8,44199],[57.8,44282],[57.8,44365],[57.8,44449],[57.8,44532],[57.8,44615],[57.8,44699],[57.8,44782],[57.8,44865],[57.8,44949],[57.8,45032],[57.8,45115],[57.8,45199],[57.8,45282],[57.8,45365],[57.8,45449],[57.8,45532],[57.8,45615],[57.8,45704],[57.8,45782],[57.8,45866],[57.8,45949],[57.8,46031],[57.8,46115],[57.8,46198],[57.8,46281],[57.8,46365],[57.8,46449],[57.8,46532],[58.8,46616],[60.6,46699],[60.6,46782],[60.7,46866],[60.7,46948],[60.7,47031],[65.5,47116],[69.9,47198],[69.9,47282],[69.9,47365],[69.9,47448],[69.9,47532],[69.9,47616],[69.9,47698],[69.9,47781],[69.9,47866],[69.9,47950],[69.9,48032],[69.9,48115],[69.9,48199],[69.9,48281],[69.9,48365],[69.9,48448],[69.9,48532],[69.9,48615],[69.9,48699],[69.9,48782],[69.9,48865],[69.9,48949],[69.9,49032],[67.4,49116],[65.9,49199],[65.9,49281],[65.9,49365],[65.9,49448],[65.9,49532],[65.9,49615],[65.9,49698],[65.9,49781],[65.9,49864],[65.9,49949],[65.9,50031],[65.9,50114],[65.9,50198],[65.9,50282],[65.9,50364],[65.9,50449],[65.9,50532],[65.9,50616],[65.9,50700],[65.9,50782],[65.9,50865],[65.9,50948],[65.9,51032],[65.9,51115],[65.9,51198],[65.9,51282],[65.8,51365],[65.8,51449],[65.8,51531],[65.8,51616],[65.8,51699],[65.8,51782],[65.8,51865],[62.6,51949],[54.7,52032],[54.7,52115],[54.7,52199],[54.7,52282],[54.7,52365],[54.7,52448],[54.7,52532],[52.6,52614],[48,52700],[47.7,52785],[47.7,52866],[47.7,52949],[47.7,53032],[47.7,53115],[47.7,53199],[47.7,53282],[47.7,53365],[47.7,53449],[47.7,53531],[47.7,53614],[47.7,53699],[47.7,53781],[47.7,53866],[47.7,53949],[47.7,54032],[47.7,54115],[47.7,54199],[47.7,54282],[47.7,54365],[47.5,54450],[46.2,54532],[45.5,54616],[45.5,54698],[45.5,54782],[45.5,54865],[45.5,54948],[45.5,55032],[45.5,55115],[45.5,55198],[45.5,55282],[45.5,55366],[45.5,55449],[45.5,55532],[45.5,55615],[45.5,55698],[45.5,55781],[45.5,55865]]",1,0,291.2201,293.9856,42.88567437,2.2976,"[{""rating"":45.358530680338546,""responseTime"":1.3157999999821186},{""rating"":42.88567437065972,""responseTime"":2.29759999999402}]",space,2.217,,293.9857,Not at all,0,293.9874,,,[],,0,10,10,10,1,audio/Narrative8Situation1.wav,audio/Narrative7Situation1.wav,audio/Narrative6Situation1.wav,audio/Narrative5Situation1.wav,5,2,2,5,,,,,,,,,,,,,,,,,,,,,,,,,,,,,,,,,,,,,,,
,,,,,,5953462b2d8f240001481c53,2024-02-08_16h48.47.737,group3.1-3.2-social-tom,2023.2.2,MacIntel,62.5,65c5074098b851296ff0b7ed,65c54c261d5e330b96e5c1a4,,,,,,,,,,,,,,,,,,,,,,,,,,,,,293.9878,1,audio/Narrative7Situation2.wav,297.0018,,297.0019,304.4686,"[[50.8,750],[49.9,834],[49.9,917],[49.9,1000],[49.9,1082],[49.9,1166],[49.9,1249],[49.9,1333],[49.9,1416],[49.9,1500],[49.9,1582],[49.9,1666],[49.9,1750],[49.9,1833],[49.9,1916],[49.9,2000],[49.9,2083],[49.9,2166],[49.9,2250],[49.8,2333],[45.7,2416],[45.1,2500],[45.1,2583],[45.1,2666],[45.1,2750],[45.1,2832],[45.1,2916],[45.1,3000],[45.1,3082],[45.1,3165],[45.1,3249],[45.1,3333],[45.1,3416],[45.1,3500],[45.1,3583],[45.1,3666],[45.1,3750],[45.1,3833],[45.1,3916],[45.1,3999],[45.1,4083],[45.1,4166],[45.1,4249],[45.1,4332],[45.1,4417],[45.1,4500],[45.1,4582],[45.1,4667],[44.7,4750],[42.8,4833],[42.7,4916],[42.7,5000],[42.7,5083],[42.7,5166],[42.7,5250],[42.7,5333],[42.7,5415],[42.7,5500],[42.7,5583],[42.7,5666],[42.7,5750],[42.7,5833],[42.7,5916],[42.7,6000],[42.7,6189],[42.7,6266],[42.7,6349],[42.7,6432],[42.7,6516],[42.7,6599],[42.7,6682],[42.7,6765],[42.7,6849],[42.7,6933],[42.7,7015],[42.7,7099],[42.4,7182],[41.5,7267],[41.3,7349],[41.3,7433]]",1,0,304.4688,305.5688,42.8312344,0.8402,"[{""rating"":42.83123440212674,""responseTime"":0.8402000000178305}]",space,0.559,,305.5688,Not at all,0,305.5707,,,[],,0,11,11,11,1,audio/Narrative8Situation2.wav,audio/Narrative7Situation2.wav,audio/Narrative6Situation2.wav,audio/Narrative5Situation2.wav,3,3,3,3,,,,,,,,,,,,,,,,,,,,,,,,,,,,,,,,,,,,,,,
,,,,,,5953462b2d8f240001481c53,2024-02-08_16h48.47.737,group3.1-3.2-social-tom,2023.2.2,MacIntel,62.5,65c5074098b851296ff0b7ed,65c54c261d5e330b96e5c1a4,,,,,,,,,,,,,,,,,,,,,,,,,,,,,305.5708,1,audio/Narrative7Situation3.wav,313.5853,,313.5853,322.8515,"[[48.5,249],[48.5,332],[48.5,416],[48.5,499],[48.5,583],[48.5,665],[48.5,750],[48.5,833],[48.5,916],[49.7,999],[50.7,1083],[50.7,1166],[50.7,1249],[50.7,1332],[50.7,1416],[50.7,1499],[50.7,1583],[50.7,1665],[50.7,1749],[50.7,1833],[52.7,1916],[56,1999],[64.6,2083],[65.3,2165],[65.3,2249],[65.3,2332],[65.3,2416],[65.3,2498],[65.3,2582],[65.3,2665],[65.6,2749],[71.8,2832],[73.3,2915],[73.3,2998],[73.3,3082],[73.3,3165],[73.3,3249],[73.3,3333],[73.3,3415],[73.3,3499],[73.3,3583],[73.3,3666],[73.3,3749],[73.3,3832],[73.3,3915],[73.3,3999],[73.3,4082],[73.3,4166],[73.3,4249],[74.5,4333],[76.3,4416],[76.6,4500],[76.6,4582],[76.6,4665],[76.6,4749],[77.9,4833],[79.4,4916],[79.9,4999],[79.9,5083],[79.9,5165],[79.9,5250],[79.9,5332],[79.9,5415],[79.9,5516],[79.9,5599],[79.9,5682],[79.9,5765],[80,5849],[82.9,5932],[83.6,6015],[83.6,6122],[83.6,6199],[83.6,6282],[83.6,6366],[83.6,6449],[83.6,6533],[83.6,6615],[83.6,6699],[83.6,6782],[80.5,6865],[76.7,6950],[76.5,7032],[76.5,7115],[76.5,7199],[76.5,7282],[76.5,7365],[74.6,7449],[72.8,7533],[72.8,7615],[72.8,7698],[72.8,7783],[72.8,7865],[72.8,7949],[72.8,8033],[72.8,8116],[72.8,8199],[72.8,8281],[72.8,8366],[72.8,8448],[72.8,8533],[72.8,8615],[72.8,8699],[72.8,8782],[72.8,8865],[72.8,8949],[72.8,9032],[72.8,9115],[72.8,9198]]",1,0,322.8516,323.9353,69.16513231,0.8495,"[{""rating"":69.16513231065538,""responseTime"":0.8494999999999777}]",space,0.5411,,323.9353,Not at all,0,323.9376,,,[],,0,12,12,12,1,audio/Narrative8Situation3.wav,audio/Narrative7Situation3.wav,audio/Narrative6Situation3.wav,audio/Narrative5Situation3.wav,4,8,5,3,,,,,,,,,,,,,,,,,,,,,,,,,,,,,,,,,,,,,,,
,,,,,,5953462b2d8f240001481c53,2024-02-08_16h48.47.737,group3.1-3.2-social-tom,2023.2.2,MacIntel,62.5,65c5074098b851296ff0b7ed,65c54c261d5e330b96e5c1a4,,,,,,,,,,,,,,,,,,,,,,,,,,,,,323.9378,1,audio/Narrative7Situation4.wav,326.9517,,326.9518,338.6851,"[[62,916],[52,999],[51.2,1083],[51.2,1166],[51.2,1249],[51.2,1332],[51.2,1416],[51.2,1499],[51.2,1582],[51.2,1665],[51.2,1749],[51.2,1832],[47.7,1915],[40.9,2000],[40.4,2083],[40.4,2166],[40.4,2250],[40.4,2332],[31.9,2416],[26.9,2499],[26.8,2583],[26.8,2666],[26.8,2748],[26.8,2832],[26.8,2916],[26.8,2998],[26.8,3083],[26.8,3166],[26.8,3249],[26.8,3332],[24.1,3416],[23.6,3498],[23.6,3583],[23.6,3666],[23.6,3749],[23.6,3833],[23.6,3916],[23.6,3998],[23.6,4082],[23.6,4165],[23.6,4249],[23.6,4332],[23.6,4415],[23.6,4498],[23.6,4583],[23.6,4666],[23.6,4748],[23.6,4833],[23.6,4916],[23.6,4999],[23.6,5082],[23.6,5166],[23.6,5248],[23.6,5332],[23.6,5416],[23.6,5498],[23.6,5582],[23.6,5666],[23.6,5749],[23.6,5832],[23.6,5916],[23.6,5998],[23.6,6083],[23.6,6166],[23.6,6250],[23.6,6333],[23.6,6416],[23.6,6499],[23.6,6582],[23.6,6666],[23.6,6748],[23.6,6833],[23.6,6916],[23.6,6998],[23.6,7083],[23.6,7165],[23.6,7248],[23.6,7333],[23.6,7416],[23.6,7498],[23.6,7583],[23.6,7666],[23.6,7748],[23.6,7833],[23.6,7915],[23.6,7998],[23.6,8083],[23.6,8165],[23.6,8248],[23.6,8332],[23.6,8416],[23.6,8498],[23.6,8582],[23.6,8666],[23.6,8748],[23.6,8832],[23.6,8915],[23.6,8998],[23.6,9082],[23.6,9166],[23.6,9248],[23.6,9332],[23.6,9416],[23.6,9499],[23.6,9583],[23.6,9665],[23,9748],[20.8,9833],[20.7,9916],[20.9,9998],[20.9,10082],[21.4,10165],[31.3,10249],[34.4,10333],[34.4,10416],[34.4,10499],[34.4,10583],[34.4,10666],[35.2,10749],[54.5,10833],[58.6,10916],[58.6,10998],[58.6,11083],[58.6,11216],[58.6,11298],[58.6,11383],[58.6,11465],[58.6,11548],[58.6,11632],[58.6,11716]]",1,0,338.6853,339.8673,34.91834852,0.9738,"[{""rating"":34.91834852430556,""responseTime"":0.97380000001192}]",space,0.634,,339.8673,All the time,100,339.8701,,,[],,0,13,13,13,1,audio/Narrative8Situation4.wav,audio/Narrative7Situation4.wav,audio/Narrative6Situation4.wav,audio/Narrative5Situation4.wav,3,3,2,1,,,,,,,,,,,,,,,,,,,,,,,,,,,,,,,,,,,,,,,
,,,,,,5953462b2d8f240001481c53,2024-02-08_16h48.47.737,group3.1-3.2-social-tom,2023.2.2,MacIntel,62.5,65c5074098b851296ff0b7ed,65c54c261d5e330b96e5c1a4,,,,,,,,,,,,,,,,,,,,,,,,,,,,,339.8704,1,audio/Narrative7Situation5.wav,344.8848,,344.8849,353.3847,"[[43.8,1250],[45.5,1333],[47.9,1415],[48.5,1500],[48.6,1582],[48.6,1665],[48.6,1749],[48.6,1832],[48.5,1915],[48,1999],[43.7,2082],[42.5,2166],[42.4,2248],[42.4,2332],[42.4,2415],[42.4,2499],[37.5,2582],[35.2,2665],[35.2,2749],[35.2,2832],[35.2,2916],[35.2,2998],[35.2,3082],[35.2,3165],[35.2,3249],[35.2,3332],[35.2,3415],[35.2,3498],[38.1,3582],[46.7,3665],[47.7,3749],[48.2,3832],[50.3,3915],[50.7,3999],[50.7,4083],[56.1,4165],[58.5,4250],[58.6,4332],[58.6,4415],[58.6,4499],[60,4583],[66.7,4665],[67.1,4749],[67.1,4831],[67.1,4915],[67.1,5000],[67.1,5082],[67.1,5165],[67.1,5249],[67.1,5332],[67.1,5415],[67.1,5499],[67.2,5582],[67.2,5709],[67.2,5833],[67.2,5915],[67.6,5999],[69.4,6082],[69.8,6165],[70,6249],[70,6331],[70,6415],[70,6499],[70,6581],[70,6665],[70,6749],[70,6832],[70,6916],[70,6999],[70,7082],[70,7165],[70,7249],[71.1,7332],[73.1,7415],[73.4,7500],[73.4,7582],[73.4,7665],[73.4,7749],[73.4,7833],[73.4,7915],[73.4,7999],[73.3,8082],[62,8166],[53.7,8250],[53.7,8332],[53.7,8415],[53.7,8499]]",1,0,353.3849,354.7009,59.46146647,1.1236,"[{""rating"":59.461466471354164,""responseTime"":1.1235999999940418}]",space,0.7668,,354.7009,Not at all,0,354.7038,,,[],,0,14,14,14,1,audio/Narrative8Situation5.wav,audio/Narrative7Situation5.wav,audio/Narrative6Situation5.wav,audio/Narrative5Situation5.wav,2,5,2,5,,,,,,,,,,,,,,,,,,,,,,,,,,,,,,,,,,,,,,,
,,,,,,5953462b2d8f240001481c53,2024-02-08_16h48.47.737,group3.1-3.2-social-tom,2023.2.2,MacIntel,62.5,65c5074098b851296ff0b7ed,65c54c261d5e330b96e5c1a4,,,,,,,,,,,,,,,,,,,,,,,,,,,,,354.704,1,audio/Narrative7Situation6.wav,357.7169,,357.717,367.7169,"[[52.5,417],[51.2,500],[51,583],[51,666],[51,750],[51,833],[51,917],[51,1000],[51,1083],[51,1166],[51,1250],[50.5,1334],[46.1,1417],[45.9,1500],[45.9,1583],[45.9,1668],[45.9,1749],[39.5,1833],[38,1916],[38,2000],[38,2083],[38,2167],[38,2250],[38,2333],[38,2417],[38,2500],[38,2583],[37.9,2666],[34,2750],[33.5,2833],[33.5,2916],[33.5,3000],[33.5,3083],[33.5,3167],[33.5,3250],[33.5,3333],[33.5,3417],[33.5,3500],[33.5,3583],[33.5,3667],[33.5,3749],[33.5,3833],[30.6,3917],[29.4,4000],[29.4,4083],[29.4,4166],[29.4,4249],[29.4,4333],[29.4,4416],[29.4,4499],[29.4,4583],[29.4,4666],[29.4,4750],[29.4,4833],[29.5,4917],[30.9,5000],[34.5,5084],[35.2,5167],[35.2,5250],[35.2,5368],[35.2,5450],[35.2,5533],[35.2,5616],[35.2,5699],[35.2,5783],[35.2,5867],[35.2,5949],[35.2,6033],[35.2,6117],[35.2,6199],[35.2,6283],[35.2,6367],[35.2,6449],[35.2,6533],[35.3,6616],[35.3,6699],[35.3,6783],[35.3,6866],[35.3,6950],[35.3,7033],[36.8,7117],[44.1,7200],[48.2,7283],[48.2,7367],[48.2,7450],[48.2,7534],[48.2,7617],[48.2,7700],[48.2,7783],[48.2,7867],[48.2,7950],[48.2,8033],[48.2,8117],[48.2,8200],[48.2,8283],[48.2,8367],[48.2,8450],[48.2,8533],[48.2,8617],[48.2,8700],[51.7,8784],[53.3,8867],[53.3,8950],[53.3,9033],[53.3,9117],[53.3,9200],[53.3,9283],[53.3,9366],[53.3,9449],[53.3,9533],[53.3,9618],[53.3,9700],[53.3,9783],[53.3,9907],[53.3,9983]]",1,0,367.7171,369.1845,38.97444831,1.2577,"[{""rating"":38.97444831000434,""responseTime"":1.2576999999880627}]",space,0.9421,,369.1846,All the time,100,369.1872,,,[],,0,15,15,15,1,audio/Narrative8Situation6.wav,audio/Narrative7Situation6.wav,audio/Narrative6Situation6.wav,audio/Narrative5Situation6.wav,2,3,2,3,,,,,,,,,,,,,,,,,,,,,,,,,,,,,,,,,,,,,,,
,,,,,,5953462b2d8f240001481c53,2024-02-08_16h48.47.737,group3.1-3.2-social-tom,2023.2.2,MacIntel,62.5,65c5074098b851296ff0b7ed,65c54c261d5e330b96e5c1a4,,,,,,,,,,,,,,,,,,,,,,,,,,,,,369.1875,1,audio/Narrative7Situation7.wav,374.2006,,374.2007,391.3843,"[[45.7,1249],[46.6,1333],[48.3,1416],[49,1499],[49.1,1584],[52.1,1666],[55.9,1750],[55.9,1833],[55.9,1916],[55.9,1999],[55.9,2089],[55.9,2166],[55.9,2249],[55.9,2332],[59.2,2416],[60,2499],[60,2583],[60,2666],[60,2749],[60,2833],[60,2916],[60,2999],[60,3084],[60,3166],[60,3249],[60,3333],[60,3416],[60,3499],[60,3583],[60,3666],[60,3749],[60,3832],[60,3916],[60,3999],[60,4082],[59.9,4166],[59.9,4249],[59.9,4332],[59.9,4416],[59.9,4504],[59.9,4583],[59.9,4666],[59.9,4750],[59.9,4833],[59.9,4916],[59.9,4999],[59.9,5083],[59.9,5166],[60.5,5250],[64.4,5333],[65.6,5416],[66.1,5500],[66.7,5582],[68.4,5666],[70.2,5750],[70.5,5832],[70.6,5916],[70.5,6000],[70.4,6082],[70.4,6166],[70.4,6249],[70.4,6333],[70.4,6416],[70.4,6499],[70.4,6583],[70.4,6666],[70.4,6750],[66.9,6833],[64.7,6916],[64.7,6999],[64.7,7083],[64.7,7166],[64.7,7249],[64.7,7333],[64.7,7418],[64.7,7500],[63.5,7582],[61.3,7666],[61.3,7749],[61.3,7833],[61.3,7916],[61.3,7999],[61.3,8083],[61.3,8166],[61.3,8250],[61.3,8333],[61.3,8416],[61.3,8500],[61.3,8582],[61.3,8666],[61.3,8749],[61.3,8833],[61.3,8916],[61.3,8999],[61.3,9083],[61.3,9166],[59,9249],[58.3,9333],[58.3,9416],[58.3,9499],[55.2,9583],[51.4,9666],[51.3,9749],[51.3,9833],[51.3,9916],[51.3,9999],[51.3,10083],[51.2,10166],[42.6,10250],[41.4,10333],[41.4,10416],[41.4,10499],[41.4,10583],[41.4,10666],[41.2,10749],[41.1,10833],[41,10916],[40.9,10999],[40.9,11083],[40.8,11166],[40.8,11249],[40.8,11332],[40.8,11416],[40.8,11499],[40.8,11582],[40.8,11666],[40.8,11749],[40.8,11833],[40.8,11916],[40.9,12000],[41.7,12082],[56.8,12166],[60.1,12250],[60.1,12333],[60.1,12416],[60.1,12499],[60.1,12583],[60.1,12666],[60.1,12749],[60.1,12833],[60.1,12916],[60.1,12999],[60.1,13083],[60.1,13166],[60.1,13249],[60.4,13333],[65.1,13417],[67,13499],[67,13583],[67,13666],[67,13749],[67,13833],[69.3,13916],[74.7,13999],[75.7,14083],[75.7,14166],[75.7,14249],[75.7,14333],[75.7,14416],[75.7,14499],[75.7,14582],[75.7,14666],[75.7,14749],[75.7,14833],[75.7,14916],[75.7,14999],[75.7,15082],[75.7,15166],[75.7,15249],[75.7,15332],[75.7,15416],[75.7,15499],[75.7,15582],[70.8,15666],[66.8,15750],[66.8,15833],[66.8,15916],[66.8,16000],[66.8,16082],[66.8,16166],[66.8,16249],[66.8,16333],[66.8,16416],[66.8,16499],[66.8,16583],[66.8,16666],[66.8,16749],[66.8,16833],[66.8,16916],[66.8,16999],[66.8,17082],[66.8,17166]]",1,0,391.3848,392.6535,63.34092882,0.9988,"[{""rating"":63.34092881944444,""responseTime"":0.9987999999821113}]",space,0.7194,,392.6535,Not at all,0,392.6603,,,[],,0,16,16,16,1,audio/Narrative8Situation7.wav,audio/Narrative7Situation7.wav,audio/Narrative6Situation7.wav,audio/Narrative5Situation7.wav,3,5,5,4,,,,,,,,,,,,,,,,,,,,,,,,,,,,,,,,,,,,,,,
,,,,,,5953462b2d8f240001481c53,2024-02-08_16h48.47.737,group3.1-3.2-social-tom,2023.2.2,MacIntel,62.5,65c5074098b851296ff0b7ed,65c54c261d5e330b96e5c1a4,,,,,,,,,,,,,,,,,,,,,,,,,,,,,392.6604,1,audio/Narrative7Situation8.wav,394.6672,,394.6674,404.7007,"[[66,2333],[67.6,2416],[67.6,2499],[67.6,2582],[67.6,2666],[67.6,2749],[67.6,2833],[67.6,2916],[67.6,2999],[67.6,3082],[67.6,3165],[67.6,3249],[67.6,3332],[67.6,3416],[67.6,3499],[67.6,3583],[69,3666],[71.1,3749],[71.7,3833],[71.7,3915],[71.7,3999],[71.7,4083],[71.7,4165],[78.1,4249],[82.3,4333],[82.3,4415],[82.3,4499],[82.3,4583],[82.3,4666],[82.3,4749],[82.3,4833],[82.3,4916],[82.3,4999],[82.3,5083],[82.3,5166],[82.3,5249],[82.3,5333],[82.3,5415],[82.3,5499],[82.3,5583],[82.3,5668],[82.3,5749],[82.3,5833],[82.3,5916],[82.3,6000],[82.3,6083],[82.3,6166],[82.3,6249],[82.3,6332],[82.3,6416],[82.3,6499],[82.3,6583],[82.3,6666],[82.3,6749],[82.3,6833],[82.3,6915],[82.3,6999],[82.3,7083],[82.3,7166],[82.3,7249],[82.2,7333],[80.6,7416],[79.3,7499],[79.4,7583],[79.4,7665],[79.4,7749],[75.7,7833],[65.5,7915],[65.3,7999],[65.3,8083],[65.3,8166],[65.3,8249],[65.3,8333],[65.3,8415],[65.3,8499],[65.3,8583],[65.3,8665],[65.3,8749],[65.3,8833],[65.3,8916],[65.3,8999],[65.3,9082],[65.3,9166],[65.3,9249],[65.3,9333],[65.3,9416],[65.3,9499],[65.3,9583],[62.6,9666],[58.9,9750],[58.4,9833],[58.4,9916],[58.4,9999]]",1,0,404.7008,405.5671,67.33224657,0.6667,"[{""rating"":67.33224656846788,""responseTime"":0.6666999999881114}]",space,0.3345,,405.5671,Half the time,50,405.5702,,,[],,0,17,17,17,1,audio/Narrative8Situation8.wav,audio/Narrative7Situation8.wav,audio/Narrative6Situation8.wav,audio/Narrative5Situation8.wav,3,2,5,3,,,,,,,,,,,,,,,,,,,,,,,,,,,,,,,,,,,,,,,
,,,,,,5953462b2d8f240001481c53,2024-02-08_16h48.47.737,group3.1-3.2-social-tom,2023.2.2,MacIntel,62.5,65c5074098b851296ff0b7ed,65c54c261d5e330b96e5c1a4,,,,,,,,,,,,,,,,,,,,,,,,,,,,,405.5705,1,audio/Narrative7Situation9.wav,407.5831,,407.5832,416.2175,"[[62.8,167],[59.3,250],[59.2,333],[50.2,423],[47,500],[47.3,584],[49.4,668],[50.2,750],[50.2,833],[50.2,917],[50.2,1000],[50.2,1083],[50.2,1167],[50.2,1250],[50.2,1333],[50.2,1417],[50.2,1501],[50.2,1583],[50.2,1667],[50.2,1750],[50.2,1833],[50.2,1916],[50.2,2000],[50.2,2083],[47.6,2167],[45.3,2250],[45.3,2333],[45.3,2417],[45.3,2499],[45.3,2583],[45.3,2667],[45.3,2750],[45.3,2833],[45.3,2916],[45.2,3000],[45.2,3083],[45.4,3167],[50.5,3250],[55.3,3334],[57.3,3417],[58.5,3500],[58.5,3583],[58.5,3666],[58.5,3750],[58.5,3833],[58.5,3916],[58.5,4000],[58.5,4084],[58.5,4167],[58.5,4250],[58.7,4334],[62.7,4417],[63.9,4500],[63.9,4583],[63.9,4667],[63.9,4750],[63.9,4833],[63.9,4917],[66.3,5000],[67.1,5083],[67.1,5167],[67.1,5250],[67.1,5333],[67.1,5417],[67.1,5500],[67.1,5583],[67.1,5667],[67.1,5750],[67.1,5833],[67.1,5917],[67.1,6000],[67.1,6083],[68.4,6167],[69.6,6249],[69.8,6333],[69.8,6417],[69.8,6500],[69.8,6583],[69.8,6667],[69.8,6750],[69.8,6833],[69.8,6916],[69.8,7000],[69.8,7083],[69.8,7166],[69.8,7250],[69.8,7333],[69.8,7416],[69.8,7499],[69.8,7583],[69.8,7666],[69.7,7750],[64.8,7834],[63.7,7917],[63.7,7999],[63.7,8084],[63.7,8167],[63.7,8250],[63.7,8333],[63.7,8417],[63.7,8500],[63.7,8583]]",1,0,416.2176,416.9505,63.72631497,0.523,"[{""rating"":63.72631496853298,""responseTime"":0.5229999999999677}]",space,0.1839,,416.9506,Not at all,0,416.9533,,,[],,0,18,18,18,1,audio/Narrative8Situation9.wav,audio/Narrative7Situation9.wav,audio/Narrative6Situation9.wav,audio/Narrative5Situation9.wav,3,2,4,3,,,,,,,,,,,,,,,,,,,,,,,,,,,,,,,,,,,,,,,
,,,,,,5953462b2d8f240001481c53,2024-02-08_16h48.47.737,group3.1-3.2-social-tom,2023.2.2,MacIntel,62.5,65c5074098b851296ff0b7ed,65c54c261d5e330b96e5c1a4,,,,,,,,,,,,,,,,,,,,,,,,,,,420.3444,422.9162,422.9268,2,audio/Narrative13Situation2.wav,422.9268,,422.927,452.6669,"[[54.4,1306],[51.9,1390],[51.1,1473],[51.1,1556],[51.1,1639],[51.1,1723],[51.1,1806],[51.1,1889],[51,1973],[47.4,2057],[46.9,2139],[46.9,2222],[46.9,2306],[46.9,2390],[46.9,2472],[46.9,2556],[46.9,2640],[46.9,2723],[46.9,2806],[46.7,2890],[39.6,2973],[38,3055],[38,3139],[38,3223],[38,3306],[38,3390],[38,3473],[38,3556],[38,3639],[38,3722],[38,3806],[38,3889],[38,3973],[38,4056],[38,4139],[37.2,4223],[31.7,4305],[30.9,4389],[30.9,4472],[30.9,4556],[30.9,4640],[30.9,4723],[30.9,4805],[30.9,4890],[30.9,4973],[30.9,5056],[30.9,5139],[30.9,5223],[30.9,5306],[30.9,5389],[30.9,5473],[30.9,5556],[30.9,5639],[30.9,5723],[30.9,5806],[30.9,5889],[26.6,5973],[23.7,6055],[23.7,6139],[23.7,6223],[23.7,6306],[23.7,6389],[23.7,6473],[23.7,6556],[23.7,6639],[23.7,6723],[23.7,6805],[23.7,6889],[23.7,6973],[23.7,7056],[23.7,7139],[23.7,7223],[23.7,7306],[23.7,7389],[23.7,7472],[23.7,7556],[23.7,7639],[23.7,7723],[23.7,7806],[23.7,7889],[23.7,7972],[23.7,8055],[23.7,8139],[21.8,8222],[19.8,8307],[19.8,8389],[19.8,8473],[19.8,8556],[19.8,8639],[19.8,8723],[19.8,8806],[19.8,8890],[19.8,8973],[19.8,9056],[19.8,9139],[19.8,9222],[19.8,9306],[19.8,9389],[19.8,9477],[19.8,9556],[19.8,9639],[19.8,9722],[19.8,9806],[19.8,9889],[19.8,9973],[19.8,10056],[19.8,10139],[19.8,10223],[19.8,10306],[19.8,10389],[19.8,10473],[19.8,10556],[19.8,10640],[19.8,10723],[23.2,10805],[25.9,10890],[28.4,10973],[28.8,11056],[28.8,11139],[28.8,11222],[28.8,11306],[28.8,11389],[28.8,11473],[28.8,11556],[28.8,11639],[28.8,11722],[24.9,11807],[21,11889],[21,11972],[21,12056],[21,12139],[21,12222],[21,12306],[21,12390],[21,12472],[21,12555],[20.6,12639],[18.4,12723],[18.2,12805],[18.2,12889],[18.2,12973],[18.2,13056],[18.2,13139],[17.8,13223],[16,13307],[15.9,13388],[15.9,13473],[15.9,13556],[15.9,13639],[15.9,13723],[15.9,13806],[15.9,13889],[15.9,13973],[15.9,14056],[15.9,14140],[15.9,14223],[15.9,14305],[15.9,14389],[15.9,14472],[15.9,14555],[15.9,14639],[15.2,14724],[12.9,14806],[12.8,14889],[12.8,14973],[12.8,15055],[12.8,15139],[12.8,15224],[12.8,15306],[12.8,15389],[12.8,15472],[12.8,15556],[12.9,15639],[12.9,15722],[12.9,15806],[12.9,15889],[12.9,15973],[12.9,16056],[12.9,16140],[13.2,16223],[14,16306],[14.1,16390],[14.2,16473],[14.2,16556],[14.2,16639],[14.2,16723],[14.9,16807],[15.8,16889],[16,16973],[16,17056],[16,17139],[16,17223],[16,17307],[19.1,17389],[22.9,17473],[23,17556],[23,17639],[23,17722],[23,17806],[23,17889],[23,17973],[23,18055],[23,18140],[23,18223],[21.8,18306],[19,18389],[19,18473],[19,18556],[19,18639],[18.5,18723],[13.1,18807],[12.5,18889],[12.5,18973],[12.5,19055],[12.5,19139],[12.5,19222],[12.5,19305],[12.5,19388],[12.5,19472],[11.6,19556],[11.5,19639],[11.5,19722],[11.5,19806],[11.5,19890],[11.5,19973],[11.5,20056],[11.5,20139],[11.5,20223],[11.5,20305],[11.5,20389],[11.5,20473],[11.5,20556],[11.5,20639],[11.5,20723],[11.5,20806],[11.5,20889],[11.5,20973],[11.5,21056],[11.5,21139],[11.5,21223],[11.5,21306],[13.3,21389],[16.3,21473],[17.9,21556],[17.9,21639],[17.9,21723],[17.9,21806],[21.6,21889],[24.6,21973],[24.6,22055],[24.6,22139],[24.6,22223],[25.9,22305],[29.2,22389],[29.2,22473],[29.2,22556],[29.2,22639],[29.2,22723],[29.2,22806],[29.2,22890],[29.2,22972],[29.2,23056],[29.2,23139],[29.2,23223],[29.2,23306],[29.2,23389],[29.2,23472],[29.2,23555],[29.2,23639],[29.2,23722],[29.1,23806],[29.1,23889],[29.1,23973],[29.1,24056],[29.1,24139],[29.1,24223],[29.1,24306],[29.1,24389],[29.1,24473],[29.1,24556],[29.1,24638],[29.1,24723],[29.1,24807],[29.3,24889],[29.8,24972],[35.8,25056],[38.2,25139],[38.2,25223],[38.2,25306],[38.2,25389],[38.2,25472],[38.2,25556],[38.2,25639],[38.2,25722],[38.2,25805],[38.2,25889],[38.2,25973],[38.2,26055],[38.2,26139],[38.2,26223],[38.2,26306],[38.2,26389],[38.2,26473],[38.2,26555],[38.2,26639],[37.8,26723],[30.4,26805],[30.1,26889],[30.1,26972],[30.1,27055],[30.1,27139],[26,27222],[24.8,27306],[24.8,27389],[24.8,27472],[24.8,27556],[24.8,27638],[24.8,27722],[24.8,27806],[24.8,27889],[24.8,27972],[24.8,28056],[24.8,28139],[24.3,28223],[21.2,28306],[21,28388],[21,28473],[21,28556],[21,28638],[21,28723],[21,28805],[21,28889],[21,28973],[21,29056],[21,29139],[24.1,29223],[29.4,29306],[29.7,29388],[29.7,29473],[29.7,29555],[29.7,29639],[29.7,29722]]",1,0,452.6673,452.6693,,,[],,,,452.6694,Half the time,50,452.6714,,,[],,0,0,0,0,1,audio/Narrative13Situation2.wav,audio/Narrative13Situation2.wav,audio/Narrative13Situation2.wav,audio/Narrative13Situation2.wav,2,2,2,2,,,,,416.954,420.3333,space,2.8502,,,,,,,,,,,,,,,,,,,,,,,,,,,,,,,
,,,,,,5953462b2d8f240001481c53,2024-02-08_16h48.47.737,group3.1-3.2-social-tom,2023.2.2,MacIntel,62.5,65c5074098b851296ff0b7ed,65c54c261d5e330b96e5c1a4,,,,,,,,,,,,,,,,,,,,,,,,,,,,,452.6716,2,audio/Narrative6Situation1.wav,454.6827,,454.6828,481.2499,"[[31,1334],[46.1,1584],[46.1,1668],[48.8,1749],[50.3,1834],[50.3,1917],[50.3,2000],[50.3,2083],[50.3,2167],[50.3,2250],[50.3,2333],[50.2,2417],[49.8,2500],[49.6,2583],[49.5,2667],[49.5,2750],[49.5,2832],[49.5,2917],[49.5,3000],[49.5,3083],[49.5,3167],[49.5,3251],[49.5,3333],[49.5,3417],[49.5,3500],[49.5,3583],[49.5,3667],[49.5,3750],[49.5,3832],[49.5,3917],[49.5,3999],[49.5,4083],[49.5,4167],[49.5,4250],[49.5,4333],[49.5,4417],[49.5,4500],[49.5,4583],[49.5,4667],[49.5,4750],[49.5,4833],[42.6,4917],[41,5000],[41,5083],[41,5166],[41,5250],[41,5333],[41,5416],[41,5499],[41,5582],[41,5666],[41,5749],[41,5833],[44.8,5917],[57,5999],[58,6083],[58,6166],[58,6249],[58,6333],[58,6416],[58,6500],[58,6582],[58.5,6667],[62.1,6750],[62.8,6833],[62.8,6916],[62.8,7001],[62.8,7082],[62.8,7167],[62.8,7250],[62.8,7333],[62.8,7417],[62.8,7500],[62.8,7582],[62.8,7666],[62.8,7749],[62.8,7833],[62.8,7917],[63,7999],[64.7,8083],[65.4,8166],[65.4,8249],[65.4,8333],[65.4,8417],[65.4,8499],[65.4,8582],[65.4,8666],[65.4,8750],[65.4,8833],[65.4,8916],[65.4,9000],[65.4,9083],[65.4,9166],[65.4,9250],[65.4,9332],[65.4,9417],[65.4,9499],[67.5,9584],[67.9,9666],[67.9,9750],[69,9833],[71.2,9917],[71.3,10000],[71.3,10083],[71.3,10167],[71.3,10250],[71.3,10333],[71.3,10417],[71.3,10500],[71.3,10583],[71.3,10667],[71.2,10751],[71.2,10832],[71.2,10916],[71.2,11000],[71.2,11082],[71.2,11166],[71.2,11250],[71.2,11333],[71.2,11416],[71.2,11500],[71.2,11583],[71.2,11666],[71.2,11749],[71.2,11833],[71.2,11917],[71.2,12000],[71.2,12083],[71.2,12167],[71.2,12250],[71.2,12333],[71.2,12516],[71.2,12600],[71.2,12683],[71.2,12766],[71.2,12849],[71.2,12933],[71.2,13016],[71.2,13100],[71.2,13182],[71.2,13266],[71.2,13350],[71.2,13432],[71.2,13516],[69.8,13601],[68.9,13683],[68.8,13766],[68.8,13850],[68.8,13933],[68.8,14016],[68.8,14100],[51.2,14183],[43.1,14267],[43.1,14349],[43.1,14433],[43.1,14516],[43.1,14599],[43.1,14683],[43.1,14766],[43.1,14850],[43.1,14933],[43.1,15016],[43.1,15100],[43.1,15182],[43.1,15266],[43.1,15349],[43,15433],[42.9,15516],[42.9,15600],[42.8,15683],[42.5,15766],[42.2,15849],[42,15933],[41.9,16015],[41.9,16099],[41.9,16183],[41.9,16266],[41.9,16350],[41.9,16433],[41.9,16516],[41.9,16600],[41.1,16683],[40.4,16766],[39.8,16850],[38.6,16934],[38.5,17016],[38.4,17100],[36.4,17214],[35.9,17316],[45.5,17399],[58,17484],[62,17567],[65.1,17650],[65.9,17734],[65.9,17816],[65.9,17900],[65.9,17983],[66.5,18067],[70.9,18149],[71.6,18233],[71.6,18316],[71.6,18399],[71.6,18482],[71.6,18566],[71.6,18649],[71.6,18732],[71.6,18816],[71.6,18900],[71.6,18983],[71.6,19066],[71.6,19150],[71.6,19233],[71.6,19317],[71.6,19400],[71.6,19483],[71.6,19567],[71.6,19650],[71.6,19733],[71.6,19816],[71.6,19899],[71.6,19983],[71.6,20066],[71.6,20149],[71.6,20233],[71.6,20317],[71.6,20400],[71.6,20483],[71.6,20567],[71.6,20650],[71.6,20733],[71.6,20816],[71.6,20900],[71.6,20983],[71.6,21066],[71.6,21150],[71.6,21233],[71.6,21316],[71.6,21400],[71.6,21484],[71.8,21566],[77.6,21650],[79.7,21734],[79.9,21816],[83.5,21900],[85,21983],[85,22066],[85,22150],[85,22233],[85,22316],[85,22400],[85,22482],[85,22566],[85,22650],[85,22733],[85,22816],[85,22900],[85,22983],[85,23066],[85,23150],[85,23233],[85,23316],[85,23400],[85,23483],[85,23566],[85,23649],[85,23733],[85,23816],[85,23900],[85,23983],[85,24066],[85,24150],[85,24233],[85,24317],[85,24400],[85,24483],[85,24566],[85,24649],[84.8,24733],[82.8,24816],[82.6,24900],[82.6,24983],[82.6,25066],[82.6,25150],[82.6,25233],[80,25316],[79.7,25400],[79.7,25483],[79.7,25566],[79.7,25650],[79.7,25733],[79.7,25820],[79.7,25899],[79.7,25983],[79.7,26066],[79.7,26150],[79.7,26232],[79.7,26316],[79.7,26399],[79.7,26482],[79.7,26566]]",1,0,481.2502,483.333,73.34481133,1.2503,"[{""rating"":76.17993672688802,""responseTime"":0.6488000000118745},{""rating"":73.34481133355035,""responseTime"":1.2503000000119187}]",space,1.5333,,483.3331,Half the time,50,483.3354,,,[],,0,1,1,1,1,audio/Narrative7Situation1.wav,audio/Narrative8Situation1.wav,audio/Narrative5Situation1.wav,audio/Narrative6Situation1.wav,2,5,5,2,,,,,,,,,,,,,,,,,,,,,,,,,,,,,,,,,,,,,,,
,,,,,,5953462b2d8f240001481c53,2024-02-08_16h48.47.737,group3.1-3.2-social-tom,2023.2.2,MacIntel,62.5,65c5074098b851296ff0b7ed,65c54c261d5e330b96e5c1a4,,,,,,,,,,,,,,,,,,,,,,,,,,,,,483.3357,2,audio/Narrative6Situation2.wav,486.3491,,486.3491,514.8486,"[[53.8,500],[52.5,582],[52.3,667],[52.3,750],[52.3,833],[52.4,917],[52.6,1000],[54.2,1084],[57.3,1166],[57.3,1249],[57.3,1333],[57.3,1416],[57.3,1500],[57.3,1583],[57.3,1666],[57.3,1749],[57.3,1834],[57.7,1917],[58.3,1999],[58.4,2083],[58.5,2170],[58.5,2250],[58.5,2333],[58.5,2416],[58.5,2500],[58.5,2582],[58.5,2667],[58.5,2750],[58.5,2832],[58.5,2917],[59.4,3000],[69.3,3083],[71.6,3166],[71.7,3250],[71.7,3333],[71.7,3417],[71.7,3500],[71.7,3583],[71.7,3666],[71.7,3749],[71.7,3833],[71.7,3916],[71.7,3999],[71.7,4083],[71.7,4167],[71.7,4250],[71.7,4332],[71.7,4417],[71.7,4500],[71.7,4583],[71.7,4666],[71.7,4750],[71.7,4833],[71.7,4916],[71.8,5000],[76.7,5083],[77,5166],[77,5249],[77,5333],[77,5416],[80.4,5499],[86.2,5583],[86.5,5666],[86.5,5750],[86.5,5833],[86.5,5917],[86.5,6000],[86.5,6083],[86.5,6166],[86.5,6250],[86.5,6332],[86.4,6417],[83.3,6501],[80.7,6582],[80.5,6666],[80.5,6750],[80.5,6833],[80.5,6916],[80.5,6999],[80.5,7083],[80.5,7166],[80.5,7250],[84.4,7333],[86.4,7417],[86.4,7500],[86.4,7583],[86.4,7667],[86.4,7749],[86.4,7832],[86.4,7916],[86.4,7999],[86,8083],[76.9,8166],[76,8250],[76,8333],[76,8416],[76,8500],[76,8583],[76,8666],[76,8750],[76,8833],[76,8916],[76,9000],[76,9083],[76,9165],[75.7,9250],[74,9332],[73.7,9416],[73.7,9500],[73.7,9582],[73.7,9666],[73.6,9750],[73.5,9833],[73.3,9916],[73.1,10000],[73,10083],[73,10165],[73,10250],[73,10332],[73,10416],[73,10499],[73,10583],[73,10666],[73,10749],[73,10833],[73,10916],[73,11000],[73,11083],[73,11166],[72,11249],[68.9,11333],[68.5,11416],[68.5,11499],[68.5,11582],[68.5,11666],[62.3,11750],[50.5,11833],[49.7,11915],[49.7,11999],[49.7,12083],[49.7,12167],[49.6,12249],[49.6,12333],[49.6,12416],[49.7,12499],[49.7,12583],[49.7,12666],[50,12750],[57.9,12833],[58.9,12915],[58.9,13000],[58.9,13083],[58.9,13165],[58.9,13250],[58.9,13333],[58.9,13416],[53.1,13500],[43.1,13583],[42.7,13666],[42.7,13750],[42.7,13833],[42.7,13916],[42.7,14000],[42.7,14082],[42.7,14166],[42.7,14249],[42.7,14333],[42.7,14416],[42.7,14500],[42.7,14583],[42.7,14665],[42.7,14750],[42.7,14832],[42.7,14916],[42.7,14999],[42.7,15084],[42.7,15166],[42.7,15249],[42.7,15333],[42.7,15416],[42.7,15499],[42.7,15583],[42.7,15667],[42.7,15750],[42.7,15833],[42.7,15915],[42.7,15999],[42.7,16082],[42.7,16166],[42.7,16249],[42.7,16333],[42.7,16416],[42.7,16499],[42.7,16582],[42.7,16665],[42.8,16750],[49.7,16834],[56.2,16916],[56.3,17000],[56.3,17083],[56.3,17165],[58.3,17250],[65.3,17333],[65.7,17416],[65.7,17500],[65.7,17583],[65.7,17666],[65.7,17750],[65.7,17832],[65.7,17916],[65.7,17999],[65.7,18082],[65.7,18166],[65.7,18250],[65.7,18332],[65.7,18416],[65.7,18500],[65.7,18583],[66.5,18666],[68.7,18750],[68.9,18833],[68.9,18916],[68.9,18999],[68.9,19083],[68.8,19166],[68.8,19249],[68.8,19333],[68.8,19416],[68.8,19499],[68.8,19583],[68.8,19666],[68.8,19749],[68.7,19832],[68.7,19916],[71.5,20000],[73.6,20083],[73.6,20166],[73.6,20250],[73.6,20333],[73.6,20415],[73.6,20500],[73.6,20583],[73.6,20665],[73.6,20750],[73.6,20833],[73.6,20916],[73.6,21000],[73.6,21083],[73.6,21166],[73.6,21249],[73.6,21333],[73.6,21415],[73.6,21499],[73.6,21582],[73.6,21666],[73.6,21750],[73.6,21832],[73.6,21916],[73.6,22000],[73.6,22083],[73.6,22166],[73.6,22250],[73.6,22333],[73.6,22415],[73.6,22499],[72.6,22583],[67,22666],[66.5,22749],[66.5,22833],[66.5,22916],[66.5,22999],[66.5,23083],[66.5,23166],[66.5,23249],[66.5,23333],[66.5,23416],[66.5,23500],[66.5,23583],[66.5,23666],[66.5,23749],[66.5,23832],[66.5,23916],[66.5,23999],[66.5,24083],[66.5,24166],[66.5,24249],[66.5,24332],[66.5,24416],[66.5,24500],[59.4,24583],[52.6,24666],[52.3,24749],[52.3,24833],[52.3,24916],[52.3,24999],[52.3,25082],[52.3,25166],[52.4,25250],[62.2,25333],[64.6,25416],[64.6,25500],[64.6,25582],[64.6,25666],[64.6,25749],[64.6,25833],[64.6,25916],[64.7,26000],[69.3,26083],[72.1,26166],[72.1,26249],[72.1,26333],[72.1,26416],[72.1,26499],[72.1,26583],[72.1,26666],[72.1,26749],[72.1,26832],[72.1,26916],[72.1,26999],[72.1,27082],[72.1,27166],[72.1,27249],[72.1,27333],[72.1,27416],[72.1,27500],[72.1,27583],[72.1,27666],[74.9,27750],[76.5,27832],[76.5,27915],[76.5,27998],[76.5,28082],[76.5,28165],[76.5,28250],[76.5,28333],[76.5,28416],[76.5,28499]]",1,0,514.8487,515.8659,64.9590132,0.5416,"[{""rating"":64.9590131971571,""responseTime"":0.5415999999939913}]",space,0.4904,,515.866,All the time,100,515.8682,,,[],,0,2,2,2,1,audio/Narrative7Situation2.wav,audio/Narrative8Situation2.wav,audio/Narrative5Situation2.wav,audio/Narrative6Situation2.wav,3,3,3,3,,,,,,,,,,,,,,,,,,,,,,,,,,,,,,,,,,,,,,,
,,,,,,5953462b2d8f240001481c53,2024-02-08_16h48.47.737,group3.1-3.2-social-tom,2023.2.2,MacIntel,62.5,65c5074098b851296ff0b7ed,65c54c261d5e330b96e5c1a4,,,,,,,,,,,,,,,,,,,,,,,,,,,,,515.8684,2,audio/Narrative6Situation3.wav,520.8827,,520.8827,533.4982,"[[999,10],[999,81],[999,165],[999,249],[999,332],[999,415],[999,499],[999,582],[999,666],[999,749],[51.9,833],[51.4,916],[51.4,999],[51.4,1083],[51.4,1166],[51.4,1249],[51.4,1332],[51.4,1416],[51.4,1499],[51.4,1582],[51.4,1665],[51.4,1749],[51.4,1832],[51.4,1915],[51.4,1998],[51.4,2082],[51.4,2165],[51.4,2248],[51.4,2332],[51.4,2415],[51.4,2499],[60.7,2582],[67.4,2665],[67.7,2748],[67.7,2832],[67.7,2915],[67.7,2999],[67.7,3082],[67.7,3166],[67.7,3249],[67.7,3332],[67.7,3416],[67.7,3499],[67.7,3581],[67.7,3666],[67.7,3749],[67.7,3832],[67.7,3915],[67.7,3999],[69.2,4083],[76.9,4166],[80,4249],[80.4,4332],[80.4,4416],[80.4,4498],[80.4,4582],[81.2,4666],[84.2,4748],[85.9,4832],[85.9,4916],[85.9,4999],[85.9,5082],[85.9,5166],[85.9,5249],[85.9,5332],[85.9,5415],[85.9,5499],[85.9,5582],[85.9,5665],[85.9,5749],[85.9,5832],[85.9,5915],[85.9,5998],[85.9,6082],[85.9,6166],[85.9,6249],[85.9,6332],[85.9,6415],[85.9,6498],[85.9,6582],[85.9,6666],[85.9,6749],[85.9,6832],[85.9,6916],[85.9,6999],[85.9,7082],[85.9,7165],[86.1,7249],[87.6,7331],[87.9,7415],[87.4,7499],[77,7582],[71.4,7666],[71.4,7749],[71.4,7832],[71.4,7916],[71.4,7999],[71.4,8082],[71.4,8166],[71.4,8249],[71.4,8332],[71.3,8416],[71.3,8498],[71,8582],[64.8,8666],[62.4,8749],[62.3,8831],[62.3,8915],[62.3,8998],[62.3,9081],[62.3,9165],[62.3,9248],[62.3,9331],[62.3,9415],[62.3,9498],[62.7,9582],[64.1,9665],[64.1,9749],[64.1,9833],[66,9915],[72.4,9999],[73.2,10082],[73.2,10166],[73.2,10249],[73.2,10332],[73.2,10416],[73.2,10498],[73.2,10582],[73.2,10666],[73.2,10749],[73.2,10832],[84.8,10915],[87.9,10999],[87.9,11081],[87.9,11166],[87.9,11249],[87.9,11331],[87.9,11416],[87.9,11498],[87.9,11582],[87.9,11666],[87.9,11749],[87.9,11832],[87.9,11916],[87.9,11998],[87.9,12082],[87.9,12166],[87.9,12248],[87.9,12332],[87.9,12415],[87.9,12499],[87.9,12582]]",1,0,533.4983,534.6318,73.66152445,0.9665,"[{""rating"":73.66152445475261,""responseTime"":0.9664999999999964}]",space,0.5861,,534.6322,Not at all,0,534.6354,,,[],,0,3,3,3,1,audio/Narrative7Situation3.wav,audio/Narrative8Situation3.wav,audio/Narrative5Situation3.wav,audio/Narrative6Situation3.wav,8,4,3,5,,,,,,,,,,,,,,,,,,,,,,,,,,,,,,,,,,,,,,,
,,,,,,5953462b2d8f240001481c53,2024-02-08_16h48.47.737,group3.1-3.2-social-tom,2023.2.2,MacIntel,62.5,65c5074098b851296ff0b7ed,65c54c261d5e330b96e5c1a4,,,,,,,,,,,,,,,,,,,,,,,,,,,,,534.6355,2,audio/Narrative6Situation4.wav,536.6494,,536.6495,549.2654,"[[72.3,998],[60.7,1082],[52.4,1166],[51.7,1249],[51.3,1332],[51.3,1415],[51.3,1498],[51.3,1581],[51.3,1665],[51.3,1749],[51.4,1832],[51.4,1915],[51.4,1999],[51.5,2082],[51.5,2165],[51.5,2249],[51.5,2332],[51.5,2415],[51.5,2498],[51.5,2582],[51.5,2665],[51.5,2749],[51.5,2832],[46.9,2916],[41.6,2998],[41.4,3081],[41.4,3165],[41.4,3249],[41.4,3331],[41.4,3415],[41.4,3499],[41.4,3582],[41.4,3666],[41.4,3749],[41.4,3831],[41.5,3916],[43.5,3999],[44.5,4081],[44.5,4165],[44.5,4248],[44.5,4332],[44.5,4414],[44.5,4498],[44.5,4582],[44.2,4665],[41.7,4748],[41.5,4832],[42.5,4917],[49.8,4998],[54.2,5082],[54.7,5165],[55,5249],[55.1,5332],[55.1,5415],[55.1,5499],[57,5581],[57.6,5665],[59.9,5748],[60.9,5832],[60.9,5914],[60.9,5999],[60.9,6082],[60.9,6164],[60.9,6249],[60.9,6332],[60.9,6498],[60.9,6565],[60.9,6648],[60.9,6732],[60.9,6815],[60.8,6899],[60.8,6981],[60.8,7065],[60.8,7149],[60.8,7232],[60.8,7315],[60.8,7399],[60.8,7482],[60.8,7565],[60.8,7649],[60.8,7731],[60.8,7815],[60.8,7899],[60.7,7987],[60.6,8065],[60.5,8149],[60.4,8232],[60.4,8315],[60.4,8400],[60.3,8482],[60.3,8566],[60.3,8648],[60.3,8731],[60.3,8815],[60.3,8898],[60.3,8982],[60.2,9066],[60,9149],[59.5,9232],[58.2,9316],[57.9,9398],[57.9,9482],[57.9,9567],[57.9,9649],[57.9,9731],[57.9,9815],[57.1,9899],[56.4,9981],[59.4,10065],[68,10149],[72,10232],[73,10315],[73,10399],[73,10482],[73,10565],[73,10649],[73,10732],[73,10815],[73,10899],[73,10982],[73,11065],[73,11149],[73,11232],[73,11315],[73,11399],[73,11482],[73,11565],[73,11648],[73,11731],[73,11815],[73,11898],[73,11981],[73,12066],[73.2,12149],[73.8,12233],[75.1,12316],[75.3,12399],[75.3,12482],[75.2,12565]]",1,0,549.2655,550.1657,56.90661112,0.7497,"[{""rating"":56.90661112467448,""responseTime"":0.7496999999880245}]",space,0.3677,,550.1658,Half the time,50,550.168,,,[],,0,4,4,4,1,audio/Narrative7Situation4.wav,audio/Narrative8Situation4.wav,audio/Narrative5Situation4.wav,audio/Narrative6Situation4.wav,3,3,1,2,,,,,,,,,,,,,,,,,,,,,,,,,,,,,,,,,,,,,,,
,,,,,,5953462b2d8f240001481c53,2024-02-08_16h48.47.737,group3.1-3.2-social-tom,2023.2.2,MacIntel,62.5,65c5074098b851296ff0b7ed,65c54c261d5e330b96e5c1a4,,,,,,,,,,,,,,,,,,,,,,,,,,,,,550.1682,2,audio/Narrative6Situation5.wav,552.1817,,552.1817,560.1322,"[[52,501],[51.2,583],[51.1,667],[51.1,751],[51.1,832],[51.1,916],[51.1,1000],[51.1,1083],[51.1,1166],[51.1,1249],[51.1,1333],[51.1,1416],[51.1,1499],[51.1,1583],[51.1,1666],[49.1,1750],[44.6,1833],[44.4,1917],[44.4,2000],[44.4,2083],[44.4,2167],[44.4,2250],[44.4,2333],[44.4,2416],[44.4,2500],[44.4,2582],[44.4,2666],[44.4,2750],[37.4,2835],[31.7,2916],[31.7,3000],[31.7,3083],[31.7,3165],[31.7,3250],[31.7,3333],[31.7,3416],[31.7,3499],[31.7,3583],[31.7,3666],[31.7,3750],[27.9,3833],[25.7,3917],[25.5,4000],[25.4,4082],[23,4166],[20.6,4250],[20.3,4332],[20.3,4416],[20.3,4500],[20.3,4584],[20.3,4666],[20.3,4750],[20.3,4832],[20.3,4915],[20.4,4999],[20.4,5083],[20.4,5167],[20.4,5249],[20.4,5333],[20.4,5416],[20.4,5499],[20.4,5583],[20.4,5667],[20.4,5751],[20.4,5833],[20.4,5917],[20.4,6000],[20.4,6082],[20.4,6166],[20.4,6249],[20.5,6333],[20.6,6416],[20.9,6500],[21,6582],[21.1,6666],[21.1,6750],[21.2,6832],[21.4,6916],[21.9,6999],[23.1,7083],[24.6,7166],[25.9,7249],[26.9,7333],[27.5,7417],[28,7501],[28.3,7583],[28.5,7667],[28.8,7751],[29.5,7833],[29.9,7916]]",1,0,560.1323,561.1159,40.78160604,0.832,"[{""rating"":40.781606038411454,""responseTime"":0.8319999999999936}]",space,0.4409,,561.116,Half the time,50,561.118,,,[],,0,5,5,5,1,audio/Narrative7Situation5.wav,audio/Narrative8Situation5.wav,audio/Narrative5Situation5.wav,audio/Narrative6Situation5.wav,5,2,5,2,,,,,,,,,,,,,,,,,,,,,,,,,,,,,,,,,,,,,,,
,,,,,,5953462b2d8f240001481c53,2024-02-08_16h48.47.737,group3.1-3.2-social-tom,2023.2.2,MacIntel,62.5,65c5074098b851296ff0b7ed,65c54c261d5e330b96e5c1a4,,,,,,,,,,,,,,,,,,,,,,,,,,,,,561.1182,2,audio/Narrative6Situation6.wav,563.1315,,563.1316,574.1986,"[[46.7,833],[46.9,916],[47.2,1000],[48.9,1083],[50.2,1167],[50.9,1250],[52.6,1334],[53.7,1416],[54,1500],[54,1583],[54,1666],[54,1750],[54,1833],[54,1916],[54,2000],[54,2083],[54,2166],[54,2250],[54,2333],[54,2416],[54,2499],[54,2583],[54,2666],[54,2750],[54.4,2833],[55.1,2917],[55.5,2999],[55.9,3083],[56.4,3166],[56.5,3250],[56.5,3333],[56.5,3416],[56.5,3500],[56.5,3583],[56.5,3667],[56.2,3750],[54.7,3833],[45.1,3917],[41.4,3999],[41,4083],[41,4166],[41,4249],[41,4333],[29,4417],[23.3,4500],[23.3,4583],[23.3,4667],[23.3,4750],[23.3,4833],[23.3,4916],[23.3,5000],[23.3,5083],[23.3,5166],[23.3,5250],[23.3,5333],[23.3,5416],[23.3,5500],[23.3,5583],[23.2,5667],[23.1,5750],[22.7,5834],[22.1,5916],[22,5999],[22,6083],[22,6166],[22,6250],[22,6333],[22,6416],[22,6500],[22,6582],[22,6666],[22,6750],[22.1,6832],[22.4,6915],[24.4,7000],[25.1,7082],[25.5,7166],[25.5,7249],[25.5,7332],[25.5,7416],[25.5,7499],[25.5,7583],[25.5,7666],[25.5,7749],[25.5,7833],[25.5,7916],[25.5,7999],[25.5,8083],[25.5,8166],[25.5,8249],[25.5,8333],[25.5,8417],[25.5,8500],[25.5,8582],[25.5,8666],[25.5,8750],[25.5,8833],[25.5,8916],[25.5,9000],[25.5,9083],[25.5,9165],[25.5,9249],[25.5,9332],[25.5,9415],[25.5,9499],[25.5,9583],[26.4,9666],[27.7,9750],[28.5,9832],[29.6,9916],[29.8,9999],[29.9,10083],[30.4,10166],[38.9,10249],[40.6,10333],[40.6,10416],[40.6,10499],[40.6,10582],[40.6,10667],[40.6,10750],[40.6,10832],[40.6,10916],[40.6,11000]]",1,0,574.1988,575.0493,34.0713501,0.6823,"[{""rating"":34.07135009765625,""responseTime"":0.6823000000118782}]",space,0.3183,,575.0493,All the time,100,575.0519,,,[],,0,6,6,6,1,audio/Narrative7Situation6.wav,audio/Narrative8Situation6.wav,audio/Narrative5Situation6.wav,audio/Narrative6Situation6.wav,3,2,3,2,,,,,,,,,,,,,,,,,,,,,,,,,,,,,,,,,,,,,,,
,,,,,,5953462b2d8f240001481c53,2024-02-08_16h48.47.737,group3.1-3.2-social-tom,2023.2.2,MacIntel,62.5,65c5074098b851296ff0b7ed,65c54c261d5e330b96e5c1a4,,,,,,,,,,,,,,,,,,,,,,,,,,,,,575.0521,2,audio/Narrative6Situation7.wav,580.0649,,580.065,604.9314,"[[34.5,1416],[35.3,1500],[35.8,1583],[39.1,1665],[44.9,1750],[47.4,1834],[47.5,1915],[47.4,2000],[42.7,2084],[34.5,2166],[33.1,2249],[32.9,2333],[32.9,2416],[32.9,2499],[32.9,2582],[32.9,2666],[32.9,2749],[32.8,2832],[31.9,2915],[31.8,2999],[31.8,3082],[31.8,3166],[31.8,3251],[31.8,3332],[31.8,3416],[31.8,3500],[31.8,3583],[31.8,3666],[31.8,3749],[31.8,3833],[31.8,3915],[31.8,3999],[31.8,4082],[31.8,4166],[31.8,4248],[31.8,4332],[31.8,4416],[31.8,4499],[31.8,4583],[31.8,4665],[31.8,4748],[31.8,4832],[31.8,4915],[31.8,4999],[31.8,5082],[31.8,5166],[32.2,5250],[32.5,5334],[33,5416],[33.9,5499],[34.4,5582],[34.8,5666],[35.2,5749],[38.6,5833],[44.5,5916],[46.2,6000],[46.2,6083],[46.2,6166],[46.2,6249],[46.2,6332],[46.2,6416],[46.2,6499],[42.1,6583],[39.1,6666],[36.3,6750],[33.4,6832],[33.1,6916],[33.8,7000],[36.4,7083],[42.3,7165],[50.3,7250],[52.3,7333],[54.1,7416],[55.1,7500],[55.4,7583],[58.1,7666],[59.7,7749],[59.7,7832],[59.7,7916],[59.7,7999],[59.7,8083],[59.7,8166],[59.7,8249],[59.7,8332],[59.7,8416],[59.7,8499],[59.7,8582],[59.7,8666],[59.7,8749],[59.7,8832],[59.6,8916],[59.6,8999],[59.6,9083],[59.6,9165],[59.6,9249],[59.6,9333],[59.1,9415],[57.3,9499],[57.2,9582],[57.2,9666],[57.2,9749],[57.2,9833],[57.2,9915],[57.2,9998],[57.2,10082],[57.2,10165],[57.2,10249],[57.2,10332],[57.2,10416],[57.2,10499],[57.2,10582],[57.1,10666],[57.1,10749],[57.1,10832],[57.1,10915],[57.1,11000],[57.1,11082],[57.1,11166],[57.1,11249],[57.1,11333],[57.1,11416],[57.1,11499],[57.1,11583],[57.1,11666],[57.1,11750],[57.1,11833],[57.1,11916],[57.1,11999],[57.1,12082],[57.1,12166],[57.1,12249],[57.1,12332],[57.1,12416],[57.1,12499],[57.1,12583],[57.1,12671],[57.1,12749],[57.1,12833],[57.1,12915],[57.1,12999],[57.1,13083],[57.1,13165],[57.1,13249],[57.1,13332],[57.1,13416],[57.1,13499],[57.1,13582],[53.9,13666],[43.3,13750],[41.3,13833],[41.3,13916],[41.3,13999],[41.3,14083],[41.3,14165],[33.2,14249],[29.1,14332],[29.1,14416],[29.1,14499],[29.1,14582],[29.1,14666],[29.1,14750],[29.1,14833],[29.1,14916],[29.1,15000],[29.1,15081],[29.1,15166],[29.1,15249],[29.1,15332],[29.1,15416],[29.1,15499],[29.1,15583],[29.1,15666],[29.1,15748],[29.1,15832],[29,15915],[29,15999],[29,16082],[29,16166],[29,16249],[29,16332],[29,16416],[29,16498],[29,16583],[29.1,16665],[29.1,16748],[29.1,16832],[29.1,16915],[29.1,16999],[29.1,17082],[29.1,17166],[29.1,17249],[29.1,17333],[29.1,17416],[29.1,17499],[29.1,17582],[29.1,17665],[29.1,17749],[29.1,17832],[29.1,17915],[29.1,17999],[29.1,18082],[29.1,18165],[29.1,18249],[29.1,18331],[29.1,18416],[29.1,18499],[29.1,18582],[29.1,18666],[29.1,18749],[29.1,18832],[29,18916],[26.8,18999],[26.5,19083],[26.5,19166],[26.5,19249],[26.5,19332],[26.5,19415],[45.6,20166],[45,20250],[45,20332],[45.1,20415],[47.8,20499],[54.2,20582],[55,20665],[55,20749],[55,20833],[55,20915],[55,20999],[55,21083],[55.7,21166],[59.9,21249],[60.9,21333],[60.9,21416],[60.9,21499],[60.9,21582],[60.9,21666],[60.9,21749],[62.3,21832],[63.6,21916],[64.5,22001],[65.5,22083],[67.3,22166],[68.2,22250],[69.2,22332],[70.7,22415],[70.8,22499],[70.8,22581],[70.8,22665],[70.8,22749],[70.8,22832],[70.8,22915],[79.6,23084],[79.6,23167],[79.6,23248],[79.6,23332],[79.6,23416],[79.6,23499],[79.6,23582],[79.6,23665],[79.6,23749],[79.6,23832],[79.6,23916],[79.5,23999],[77.5,24084],[73.4,24166],[72.7,24249],[72.7,24332],[72.7,24415],[72.7,24499],[72.7,24582],[72.7,24665],[72.7,24748],[72.7,24833]]",1,0,604.9317,606.1987,50.47363281,0.8821,"[{""rating"":50.4736328125,""responseTime"":0.882099999994125}]",space,0.7406,,606.1988,All the time,100,609.8479,99.62344699,3.1224,"[{""rating"":99.62344699435764,""responseTime"":3.12239999997621}]",space,0,7,7,7,1,audio/Narrative7Situation7.wav,audio/Narrative8Situation7.wav,audio/Narrative5Situation7.wav,audio/Narrative6Situation7.wav,5,3,4,5,,,3.101,,,,,,,,,,,,,,,,,,,,,,,,,,,,,,,,,,,,
,,,,,,5953462b2d8f240001481c53,2024-02-08_16h48.47.737,group3.1-3.2-social-tom,2023.2.2,MacIntel,62.5,65c5074098b851296ff0b7ed,65c54c261d5e330b96e5c1a4,,,,,,,,,,,,,,,,,,,,,,,,,,,,,609.8484,2,audio/Narrative6Situation8.wav,614.8647,,614.8647,621.7311,"[[97.7,1082],[55.4,1167],[48.2,1249],[48.2,1333],[48.2,1416],[48.2,1498],[48.2,1582],[48.2,1666],[49,1750],[49.6,1832],[49.6,1922],[49.6,1999],[49.6,2082],[49.6,2166],[49.6,2249],[49.3,2334],[48.9,2415],[48.9,2499],[48.9,2583],[48.9,2665],[48.9,2749],[48.7,2833],[47.5,2917],[47.4,2998],[47.4,3081],[47.4,3165],[47.4,3249],[47.4,3332],[46.3,3416],[44.8,3500],[44.8,3582],[44.8,3666],[44.8,3749],[44.8,3832],[44.8,3916],[44.8,3999],[44.8,4082],[44.8,4165],[44.8,4249],[44.8,4332],[44.8,4415],[44.6,4500],[44.1,4583],[43.9,4667],[43.9,4749],[43.9,4832],[43.9,4916],[43.9,4999],[43.9,5082],[43.9,5166],[43.9,5248],[43.9,5332],[43.9,5417],[43.9,5499],[43.9,5582],[43.9,5666],[43.9,5749],[43.9,5832],[43.9,5916],[43.9,5998],[43.9,6082],[43.9,6166],[43.9,6248],[43.9,6331],[43.9,6415],[43.9,6498],[43.9,6582],[43.9,6666],[43.9,6748],[43.9,6833]]",1,0,621.7312,622.5807,48.00728692,0.649,"[{""rating"":48.007286919487846,""responseTime"":0.6490000000000009}]",space,0.3316,,622.5808,Not at all,0,622.5834,,,[],,0,8,8,8,1,audio/Narrative7Situation8.wav,audio/Narrative8Situation8.wav,audio/Narrative5Situation8.wav,audio/Narrative6Situation8.wav,2,3,3,5,,,,,,,,,,,,,,,,,,,,,,,,,,,,,,,,,,,,,,,
,,,,,,5953462b2d8f240001481c53,2024-02-08_16h48.47.737,group3.1-3.2-social-tom,2023.2.2,MacIntel,62.5,65c5074098b851296ff0b7ed,65c54c261d5e330b96e5c1a4,,,,,,,,,,,,,,,,,,,,,,,,,,,,,622.5835,2,audio/Narrative6Situation9.wav,626.5973,,626.5975,636.5474,"[[50.1,916],[50.2,1000],[50.2,1083],[50.2,1166],[50.2,1250],[50.2,1333],[50.2,1416],[50.2,1499],[50.2,1583],[50.2,1665],[50.2,1749],[50.2,1833],[50.2,1915],[50.2,2000],[50.2,2083],[50.2,2165],[50,2250],[44.3,2333],[42.4,2416],[42.4,2500],[42.4,2583],[42.4,2666],[42.4,2750],[42.4,2832],[42.4,2915],[42.4,3000],[42.4,3082],[42.4,3166],[42.4,3249],[42.4,3333],[42.4,3415],[39.1,3500],[34.6,3583],[34.4,3665],[34.4,3750],[34.4,3833],[34.4,3916],[34.4,3999],[34.4,4082],[34.4,4166],[34.4,4249],[34.4,4333],[34.4,4416],[34.4,4500],[35,4583],[40.2,4667],[42.7,4750],[43.2,4833],[43.3,4915],[43.3,4999],[43.3,5083],[44,5166],[54,5250],[55.9,5333],[55.9,5415],[55.9,5500],[55.9,5582],[55.9,5665],[55.9,5750],[57.1,5834],[62.7,5916],[63,6000],[63,6083],[63,6165],[63,6250],[63,6333],[63,6415],[63,6500],[63.2,6582],[64.7,6666],[65.4,6750],[65.4,6832],[65.4,6915],[65.4,7000],[65.4,7083],[65.4,7166],[65.4,7250],[65.4,7332],[65.4,7416],[65.4,7500],[65.4,7582],[65.4,7666],[65.4,7749],[65.4,7833],[65.4,7915],[65.4,7999],[65.4,8083],[65.4,8165],[65.4,8249],[65.4,8333],[65.4,8417],[65.4,8499],[65.4,8583],[65.4,8666],[65.4,8749],[65.4,8833],[65.4,8917],[65.4,8999],[65.3,9083],[65.3,9166],[65.3,9250],[65.3,9332],[65.3,9415],[65.3,9499],[65.3,9583],[65.3,9666],[65.3,9749],[65.3,9833],[65.3,9915]]",1,0,636.5476,637.3484,59.59336175,0.5828,"[{""rating"":59.593361748589416,""responseTime"":0.5827999999820577}]",space,0.2495,,637.3484,All the time,100,637.3508,,,[],,0,9,9,9,1,audio/Narrative7Situation9.wav,audio/Narrative8Situation9.wav,audio/Narrative5Situation9.wav,audio/Narrative6Situation9.wav,2,3,3,4,,,,,,,,,,,,,,,,,,,,,,,,,,,,,,,,,,,,,,,
,,,,,,5953462b2d8f240001481c53,2024-02-08_16h48.47.737,group3.1-3.2-social-tom,2023.2.2,MacIntel,62.5,65c5074098b851296ff0b7ed,65c54c261d5e330b96e5c1a4,,,,,,,,,,,,,,,,,,,,,,,,,,,,,637.351,2,audio/Narrative5Situation1.wav,642.3643,,642.3644,655.6805,"[[59.4,417],[51.1,499],[48.6,582],[48.6,667],[48.6,750],[48.7,832],[48.7,916],[48.7,999],[48.7,1081],[48.7,1166],[48.7,1249],[48.7,1333],[48.7,1415],[48.7,1498],[48.7,1583],[48.7,1665],[48.7,1748],[48.7,1832],[48.7,1915],[48.7,1998],[48.7,2083],[48.7,2166],[48.7,2249],[46,2332],[39.4,2416],[38.9,2499],[38.9,2582],[38.9,2665],[38.9,2748],[36.3,2833],[24.8,2915],[24.8,2999],[24.8,3081],[24.8,3166],[24.8,3249],[24.8,3333],[24.8,3415],[24.8,3499],[24.8,3582],[24.8,3666],[24.8,3749],[24.8,3832],[24.8,3916],[24.8,3999],[24.8,4083],[24.8,4166],[24.8,4248],[32.6,4333],[40.6,4416],[40.9,4499],[40.9,4582],[40.9,4666],[40.9,4749],[40.9,4832],[40.9,4916],[40.9,4998],[40.9,5082],[40.9,5165],[40.9,5249],[40.9,5332],[40.9,5415],[40.9,5499],[40.9,5582],[40.9,5665],[40.9,5748],[40.9,5832],[40.9,5916],[40.9,5999],[40.9,6082],[41.2,6166],[49.8,6249],[55.9,6333],[56.5,6416],[56.5,6499],[56.5,6582],[56.5,6666],[56.5,6749],[56.8,6832],[62.1,6916],[63.6,6999],[63.6,7082],[63.6,7166],[63.6,7250],[63.6,7332],[63.6,7416],[63.6,7499],[63.6,7582],[63.6,7666],[63.6,7749],[63.6,7833],[63.6,7916],[63.6,7998],[63.6,8082],[63.6,8166],[63.6,8248],[63.6,8333],[63.6,8416],[63.6,8499],[63.6,8582],[63.6,8665],[63.6,8749],[63.6,8832],[63.6,8916],[63.6,8998],[63.6,9082],[62.2,9165],[61.5,9249],[61.4,9333],[58.9,9415],[58.2,9500],[58.2,9581],[58.2,9666],[58.2,9749],[58.2,9833],[58.2,9916],[58.2,9999],[58.2,10083],[58.2,10166],[58.2,10249],[58.3,10332],[63.5,10416],[66.3,10499],[66.4,10581],[66.4,10666],[66.4,10749],[66.4,10832],[66.4,10916],[69.9,10999],[72.4,11083],[72.4,11166],[72.4,11249],[72.4,11332],[72.4,11416],[72.4,11499],[72.4,11582],[72.4,11666],[72.4,11748],[72.4,11832],[74.3,11917],[75.3,11998],[75.4,12082],[75.4,12166],[75.4,12248],[75.4,12332],[75.4,12415],[75.4,12499],[75.4,12582],[75.4,12666],[75.4,12749],[75.4,12832],[75.4,12915],[75.4,12998],[75.4,13082],[75.4,13165],[75.4,13249]]",1,0,655.6807,656.4977,59.78668213,0.6486,"[{""rating"":59.78668212890626,""responseTime"":0.6485999999940759}]",space,0.2758,,656.4979,Not at all,0,656.5006,,,[],,0,10,10,10,1,audio/Narrative8Situation1.wav,audio/Narrative7Situation1.wav,audio/Narrative6Situation1.wav,audio/Narrative5Situation1.wav,5,2,2,5,,,,,,,,,,,,,,,,,,,,,,,,,,,,,,,,,,,,,,,
,,,,,,5953462b2d8f240001481c53,2024-02-08_16h48.47.737,group3.1-3.2-social-tom,2023.2.2,MacIntel,62.5,65c5074098b851296ff0b7ed,65c54c261d5e330b96e5c1a4,,,,,,,,,,,,,,,,,,,,,,,,,,,,,656.5007,2,audio/Narrative5Situation2.wav,659.5138,,659.5139,688.9794,"[[999,10],[999,83],[999,166],[999,249],[999,333],[999,416],[50.3,500],[50.1,583],[50.1,666],[50.1,750],[50.1,833],[50.1,916],[50.1,998],[50.1,1082],[52.1,1165],[52.9,1249],[53.2,1333],[53.2,1416],[53.2,1499],[53.2,1582],[53.9,1666],[56.5,1750],[56.6,1832],[56.6,1915],[56.6,2000],[56.6,2083],[56.6,2166],[56.6,2249],[56.6,2333],[56.6,2416],[56.6,2500],[56.6,2583],[56.6,2666],[56.6,2749],[56.6,2832],[54.2,2916],[41.9,2999],[40.9,3083],[40.9,3166],[40.9,3249],[40.9,3332],[40.9,3416],[40.9,3499],[40.9,3713],[40.5,3782],[33.1,3865],[31.5,3949],[31.5,4032],[31.5,4116],[31.5,4199],[31.5,4282],[31.5,4366],[31.5,4450],[31.5,4532],[30.7,4615],[28.3,4700],[28.3,4783],[28.3,4866],[28.3,4949],[28.3,5033],[28.3,5115],[28.3,5199],[28.3,5283],[28.3,5372],[28.3,5448],[28.3,5533],[28.3,5616],[28.3,5699],[28.3,5783],[28.3,5867],[28.3,5949],[28.3,6032],[28.3,6116],[28.3,6199],[28.3,6283],[28.3,6365],[28.3,6449],[28.3,6533],[28.3,6615],[28.3,6699],[28.3,6783],[28.3,6866],[28.3,6949],[28.3,7033],[28.3,7116],[28.3,7199],[28.3,7283],[28.3,7366],[28.3,7450],[28.3,7532],[28.3,7616],[28.3,7699],[28.3,7782],[28.4,7865],[29.3,7949],[29.7,8032],[29.7,8116],[29.7,8199],[29.7,8283],[32.6,8366],[34.6,8449],[34.8,8532],[34.8,8616],[34.8,8699],[34.8,8783],[34.8,8865],[34.6,8949],[34.4,9033],[34.4,9116],[34.4,9198],[30.8,9282],[21.5,9366],[21,9449],[21,9533],[21,9616],[21,9699],[21,9783],[21,9866],[21,9949],[21,10033],[21,10115],[21,10199],[21,10283],[21,10365],[21,10449],[21,10533],[21,10615],[21,10699],[21,10783],[21,10866],[21,10949],[21,11033],[21,11115],[21,11199],[21,11282],[21,11366],[21,11449],[21,11532],[21,11616],[21,11699],[21,11782],[21.1,11865],[21.6,11949],[21.7,12032],[19.6,12116],[17.2,12199],[17.2,12282],[17.2,12365],[17.4,12449],[25.2,12532],[33.7,12616],[34.7,12699],[34.8,12782],[34.8,12866],[34.8,12948],[34.8,13032],[34.8,13116],[34.8,13199],[34.8,13282],[34.8,13366],[34.8,13449],[34.8,13532],[34.8,13616],[35.3,13699],[38.2,13782],[39.8,13866],[39.8,13949],[39.8,14032],[39.8,14115],[39.8,14199],[39.8,14283],[39.8,14366],[39.8,14448],[39.8,14533],[39.8,14616],[39.8,14699],[39.8,14783],[39.8,14866],[39.8,14949],[39.8,15032],[39.8,15116],[39.8,15198],[39.8,15282],[39.8,15366],[39.8,15449],[39.8,15532],[39.8,15615],[39.9,15699],[40.6,15782],[41.4,15866],[41.5,15950],[41.8,16033],[43.2,16116],[45.5,16200],[46.6,16282],[46.6,16366],[46.6,16449],[46.6,16532],[46.6,16616],[46.6,16698],[46.6,16782],[46.6,16866],[46.6,16948],[46.6,17033],[46.6,17116],[46.6,17199],[46.6,17282],[46.6,17366],[46.6,17449],[46.6,17532],[46.6,17615],[46.6,17699],[46.6,17783],[46.6,17865],[46.6,17949],[46.6,18032],[46.6,18115],[46.6,18199],[46.6,18283],[46.6,18366],[46.6,18449],[46.6,18533],[46.6,18616],[46.6,18698],[46.6,18782],[46.6,18866],[46.6,18949],[46.6,19032],[46.6,19116],[46.6,19199],[46.6,19282],[46.6,19366],[46.6,19449],[50.3,19533],[57.6,19615],[58,19699],[58,19782],[58,19865],[58,19949],[58,20032],[58,20116],[58,20199],[58,20282],[58,20366],[58,20448],[58,20532],[58,20616],[58,20698],[54.5,20782],[47.4,20866],[47.2,20949],[47.2,21032],[47.2,21116],[47.2,21199],[40.4,21283],[38.9,21365],[38.9,21449],[38.9,21532],[38.9,21615],[38.9,21699],[38.9,21782],[38.9,21865],[38.9,21949],[38.9,22032],[38.9,22116],[38.9,22198],[38.9,22283],[38.9,22366],[38.9,22449],[38.9,22532],[38.9,22616],[36.5,22699],[35.5,22782],[35.5,22866],[37,22949],[48.8,23032],[53.3,23115],[56.9,23199],[59.5,23282],[59.9,23365],[59.9,23449],[59.9,23532],[59.9,23616],[59.9,23699],[59.9,23782],[59.9,23866],[61.5,23949],[64.6,24032],[65,24116],[65.2,24198],[65.2,24282],[65.2,24365],[65.2,24448],[65.2,24532],[65.2,24616],[65.2,24699],[65.2,24782],[65.2,24866],[65.2,24949],[65.1,25033],[65.1,25115],[65.1,25199],[65.1,25282],[65,25365],[64.9,25449],[64.9,25532],[64.9,25615],[64.9,25699],[64.9,25782],[64.9,25865],[64.8,25949],[64.8,26032],[64.8,26116],[64.8,26198],[64.8,26283],[64.8,26365],[64.8,26449],[64.8,26532],[64.8,26615],[64.8,26699],[64.8,26782],[64.8,26865],[64.8,26949],[64.8,27032],[64.8,27116],[64.8,27198],[64.8,27282],[64.8,27365],[64.8,27448],[64.8,27532],[64.8,27616],[64.8,27699],[64.8,27782],[64.8,27865],[64.8,27948],[64.8,28031],[64.8,28115],[64.8,28198],[64.8,28282],[64.8,28365],[64.8,28449],[64.8,28532],[64.8,28615],[64.8,28699],[64.8,28782],[64.8,28866],[64.8,28949],[64.8,29032],[64.8,29115],[64.8,29199],[64.7,29282],[64.5,29365],[64.2,29449]]",1,0,688.9798,689.9802,57.65225728,0.7905,"[{""rating"":57.652257283528655,""responseTime"":0.7904999999999518}]",space,0.4699,,689.9802,All the time,100,689.983,,,[],,0,11,11,11,1,audio/Narrative8Situation2.wav,audio/Narrative7Situation2.wav,audio/Narrative6Situation2.wav,audio/Narrative5Situation2.wav,3,3,3,3,,,,,,,,,,,,,,,,,,,,,,,,,,,,,,,,,,,,,,,
,,,,,,5953462b2d8f240001481c53,2024-02-08_16h48.47.737,group3.1-3.2-social-tom,2023.2.2,MacIntel,62.5,65c5074098b851296ff0b7ed,65c54c261d5e330b96e5c1a4,,,,,,,,,,,,,,,,,,,,,,,,,,,,,689.9831,2,audio/Narrative5Situation3.wav,692.9961,,692.9961,706.9133,"[[51.9,1416],[49.3,1500],[49.3,1584],[49.3,1667],[52.1,1750],[55.6,1833],[57,1916],[58.1,2001],[59.4,2083],[60.5,2167],[61,2251],[61,2333],[61,2417],[61.1,2501],[61.7,2584],[62.2,2667],[62.3,2750],[62.3,2833],[62.3,2916],[62.3,3000],[62.3,3083],[62.3,3167],[62.3,3249],[62.3,3333],[62.3,3417],[62.3,3500],[62.3,3583],[62.3,3667],[62.3,3750],[62.3,3834],[62.3,3916],[62.3,4000],[62.3,4083],[62.3,4167],[62.3,4250],[62.3,4333],[62.3,4416],[62.3,4499],[62,4584],[61.8,4666],[61.7,4751],[51.5,4833],[44.3,4917],[44.3,5000],[44.4,5084],[44.6,5167],[44.6,5249],[44.6,5334],[44.6,5416],[44.6,5499],[44.6,5583],[44.6,5666],[44.6,5750],[44.6,5833],[44.6,5917],[44.6,6000],[44.6,6084],[44.6,6167],[44.5,6249],[44.5,6333],[44.5,6417],[44.5,6500],[44.5,6583],[44.5,6667],[44.5,6750],[44.4,6834],[42,6917],[40,7000],[39.9,7083],[39.9,7167],[39.9,7250],[40,7334],[40.4,7417],[41.6,7499],[43.2,7584],[44.5,7668],[46.2,7750],[48.4,7833],[49.7,7917],[51.3,8000],[53.1,8084],[54.9,8166],[55.4,8250],[55.4,8333],[55.4,8416],[55.4,8500],[55.4,8583],[55.4,8667],[55.4,8750],[55.4,8834],[55.4,8916],[58.3,9000],[59.3,9084],[59.3,9166],[59.3,9250],[59.3,9333],[59.3,9416],[59.3,9500],[59.3,9582],[59.3,9667],[59.3,9752],[59.3,9832],[59.3,9917],[59.3,10000],[59.3,10083],[59.3,10167],[59.3,10250],[59.3,10333],[59.3,10417],[59.3,10499],[59.3,10583],[59.3,10667],[59.3,10750],[59.3,10833],[59.3,10917],[59.3,10999],[59.3,11083],[59.3,11166],[59.3,11250],[59.3,11333],[59.3,11417],[59.3,11500],[59.3,11583],[59.3,11667],[59.3,11750],[59.3,11833],[59.3,11916],[59.3,12000],[59.3,12082],[59.3,12167],[59.3,12250],[59.3,12333],[59.3,12417],[58.8,12500],[54.3,12584],[53.7,12665],[53.7,12750],[53.7,12833],[53.7,12917],[53.7,13000],[53.7,13083],[53.7,13167],[53.7,13250],[53.7,13332],[53.7,13417],[53.7,13500],[53.7,13583],[53.7,13667],[53.7,13749],[53.7,13833],[53.7,13917]]",1,0,706.9136,707.7301,57.01956007,0.6489,"[{""rating"":57.01956007215712,""responseTime"":0.6489000000059377}]",space,0.2855,,707.7302,Half the time,50,707.7324,,,[],,0,12,12,12,1,audio/Narrative8Situation3.wav,audio/Narrative7Situation3.wav,audio/Narrative6Situation3.wav,audio/Narrative5Situation3.wav,4,8,5,3,,,,,,,,,,,,,,,,,,,,,,,,,,,,,,,,,,,,,,,
,,,,,,5953462b2d8f240001481c53,2024-02-08_16h48.47.737,group3.1-3.2-social-tom,2023.2.2,MacIntel,62.5,65c5074098b851296ff0b7ed,65c54c261d5e330b96e5c1a4,,,,,,,,,,,,,,,,,,,,,,,,,,,,,707.7327,2,audio/Narrative5Situation4.wav,708.7456,,708.7456,729.1295,"[[55.6,167],[52.9,254],[52.9,334],[52.9,417],[52.9,500],[52.9,584],[52.9,667],[52.9,751],[52.9,834],[52.9,916],[52.9,1000],[52.9,1084],[51.8,1168],[50,1250],[50,1333],[50,1417],[50,1500],[50,1583],[47.9,1667],[44.1,1751],[44,1834],[44,1916],[44,2000],[44,2083],[44,2167],[44,2250],[44,2333],[44,2417],[44,2500],[44,2584],[44,2666],[44,2750],[44,2834],[43,2918],[41.9,3000],[41.8,3084],[41.8,3168],[41.8,3250],[41.8,3334],[41.8,3417],[41.8,3500],[41.8,3584],[41.8,3667],[41.8,3750],[41.8,3834],[41.8,3916],[41.8,4000],[41.8,4084],[41.8,4167],[41.8,4250],[41.8,4334],[41.8,4416],[41.8,4500],[41.8,4584],[41.8,4667],[41.8,4750],[41.8,4833],[41.8,4917],[41.8,4999],[41.8,5083],[41.8,5167],[41.8,5250],[41.8,5334],[41.8,5417],[41.8,5500],[41.8,5583],[41.8,5667],[41.8,5750],[41.8,5833],[41.8,5917],[41.8,6000],[41.8,6084],[40,6168],[39.7,6250],[39.7,6334],[39.7,6417],[39.7,6499],[39.7,6584],[39.7,6667],[39.7,6750],[39.7,6834],[40.2,6918],[48.4,7001],[53.5,7083],[53.6,7167],[53.6,7250],[53.6,7333],[53.6,7417],[53.5,7501],[53.5,7583],[53.5,7666],[53.5,7750],[54.3,7834],[60.9,7917],[61.3,8000],[61.3,8084],[61.3,8167],[61.3,8250],[61.3,8334],[61.8,8417],[70.4,8501],[72.5,8583],[72.5,8667],[72.5,8750],[72.5,8833],[72.5,8917],[72.5,9000],[72.5,9083],[72.6,9167],[80.2,9250],[82.8,9334],[82.8,9417],[82.8,9499],[82.8,9582],[82.8,9666],[82.8,9750],[82.5,9834],[82.2,9917],[82,10000],[82,10084],[82,10167],[78.8,10250],[74.8,10334],[74.7,10417],[74.7,10499],[74.7,10584],[74.7,10667],[74.7,10750],[61.9,11500],[61.5,11584],[61.4,11667],[61.2,11750],[61.2,11834],[61.2,11917],[61.2,12000],[61.1,12084],[61,12167],[50.4,12251],[44.6,12334],[44.6,12417],[44.6,12500],[44.6,12583],[44.6,12667],[44.6,12750],[44.6,12833],[44.6,12917],[44.6,13000],[44.6,13083],[44.6,13167],[44.6,13250],[44.6,13334],[44.6,13416],[44.6,13500],[44.6,13584],[44.6,13667],[44.6,13750],[44.8,13834],[44.8,13917],[48.4,14000],[55.9,14084],[56.2,14167],[56.2,14249],[56.2,14407],[56.2,14482],[56.2,14566],[56.2,14649],[56.2,14734],[58.8,14817],[67,14900],[68.2,14983],[68.2,15067],[68.2,15150],[68.2,15232],[68.2,15317],[68.2,15400],[68.2,15483],[68.2,15567],[68.2,15649],[68.2,15733],[68.2,15816],[68.2,15900],[68.2,15983],[68.2,16066],[68.2,16150],[68.2,16233],[68.2,16316],[68.2,16399],[68.2,16483],[68.2,16567],[68.2,16649],[68.2,16733],[68.2,16817],[68.2,16900],[68.2,16983],[68.2,17067],[68.2,17150],[68.2,17233],[68.2,17317],[68.2,17400],[68.2,17483],[68.2,17567],[68.2,17650],[68.2,17733],[68.2,17816],[68.2,17900],[68.2,17983],[68.2,18067],[68.2,18150],[68.2,18234],[68.2,18317],[68.2,18399],[68.2,18483],[68.2,18567],[68.2,18649],[68.2,18732],[69.2,18817],[75.8,18900],[75.8,18983],[75.8,19067],[75.8,19150],[75.8,19233],[75.8,19317],[75.8,19400],[75.8,19483],[75.8,19566],[75.8,19650],[75.8,19733],[75.8,19816],[75.8,19900],[75.8,19983],[75.8,20066],[75.8,20149],[75.8,20233],[75.8,20317]]",1,0,729.1297,730.6628,63.90506321,1.1739,"[{""rating"":63.90506320529514,""responseTime"":1.1739000000060287}]",space,1.0072,,730.663,All the time,100,730.6657,,,[],,0,13,13,13,1,audio/Narrative8Situation4.wav,audio/Narrative7Situation4.wav,audio/Narrative6Situation4.wav,audio/Narrative5Situation4.wav,3,3,2,1,,,,,,,,,,,,,,,,,,,,,,,,,,,,,,,,,,,,,,,
