exp_question,consent.started,consent.stopped,consentResponse.keys,consentResponse.rt,consentResponse.duration,participantID,date,expName,psychopyVersion,OS,frameRate,STUDY_ID,SESSION_ID,opening1.started,opening1.stopped,keyEndingOpening1.keys,keyEndingOpening1.rt,keyEndingOpening1.duration,volumeAdjust.started,volumeAdjust.stopped,endingAdjust.keys,endingAdjust.rt,endingAdjust.duration,opening2.started,opening2.stopped,keyEndingOpening.keys,keyEndingOpening.rt,keyEndingOpening.duration,mouse.x,mouse.y,mouse.leftButton,mouse.midButton,mouse.rightButton,mouse.time,instructionLoop.thisRepN,instructionLoop.thisTrialN,instructionLoop.thisN,instructionLoop.thisIndex,instructionLoop.ran,readyForAudio.started,readyForAudio.stopped,fixation.started,run,audio_played,fixation.stopped,endPractice.keys,audioPre.started,audioPre.stopped,continuousResponses_audio,continuousSlider.response,continuousSlider.rt,intRating.started,intRating.stopped,intQuestionSlider.response,intQuestionSlider.rt,intQuestionSlider.history,confirmResponse.keys,confirmResponse.rt,confirmResponse.duration,catchQuestion.started,catch_label,catch_value,catchQuestion.stopped,catchQuestionSlider.response,catchQuestionSlider.rt,catchQuestionSlider.history,confirmResponse_2.keys,audioRunLoop.thisRepN,audioRunLoop.thisTrialN,audioRunLoop.thisN,audioRunLoop.thisIndex,audioRunLoop.ran,conditions1_1,conditions2_1,conditions1_2,conditions2_2,dur1_1,dur2_1,dur1_2,dur2_2,endPractice.rt,endPractice.duration,confirmResponse_2.rt,confirmResponse_2.duration,runIntervalBreak.started,runIntervalBreak.stopped,endingBreakKey.keys,endingBreakKey.rt,endingBreakKey.duration,connection.started,connection.stopped,connectionEnding.keys,connectionEnding.rt,connectionEnding.duration,readyForText.started,readyForText.stopped,textPre.started,run_dup,textPre.stopped,continuousResponses_text,textRunLoop.thisRepN,textRunLoop.thisTrialN,textRunLoop.thisN,textRunLoop.thisIndex,textRunLoop.ran,text1_1,text1_2,text2_1,text2_2,runBreakText.started,runBreakText.stopped,endingBreakKey_2.keys,endingBreakKey_2.rt,endingBreakKey_2.duration,ending.started,ending.stopped,endingEnding.keys,endingEnding.rt,endingEnding.duration
social,0.0007,91.2117,y,90.8776,,5a5e94a7eedc32000142cd08,2024-02-08_16h07.13.822,group3.1-3.2-social-tom,2023.2.2,Win32,59.52380952,65c5074098b851296ff0b7ed,65c5413db9c1cb009ea672c8,,,,,,,,,,,,,,,,,,,,,,,,,,,,,,,,,,,,,,,,,,,,,,,,,,,,,,,,,,,,,,,,,,,,,,,,,,,,,,,,,,,,,,,,,,,,,,,,,,,,,,,,,,
,,,,,,5a5e94a7eedc32000142cd08,2024-02-08_16h07.13.822,group3.1-3.2-social-tom,2023.2.2,Win32,59.52380952,65c5074098b851296ff0b7ed,65c5413db9c1cb009ea672c8,91.2118,96.6448,space,5.4056,,,,,,,,,,,,,,,,,,,,,,,,,,,,,,,,,,,,,,,,,,,,,,,,,,,,,,,,,,,,,,,,,,,,,,,,,,,,,,,,,,,,,,,,,,,,,,,,,,,,,,
,,,,,,5a5e94a7eedc32000142cd08,2024-02-08_16h07.13.822,group3.1-3.2-social-tom,2023.2.2,Win32,59.52380952,65c5074098b851296ff0b7ed,65c5413db9c1cb009ea672c8,,,,,,96.6449,109.2282,space,12.258,,,,,,,,,,,,,,,,,,,,,,,,,,,,,,,,,,,,,,,,,,,,,,,,,,,,,,,,,,,,,,,,,,,,,,,,,,,,,,,,,,,,,,,,,,,,,,,,,
,,,,,,5a5e94a7eedc32000142cd08,2024-02-08_16h07.13.822,group3.1-3.2-social-tom,2023.2.2,Win32,59.52380952,65c5074098b851296ff0b7ed,65c5413db9c1cb009ea672c8,,,,,,,,,,,109.2346,119.3117,space,10.0498,,[],[],[],[],[],[],0,0,0,0,1,,,,,,,,,,,,,,,,,,,,,,,,,,,,,,,,,,,,,,,,,,,,,,,,,,,,,,,,,,,,,,,,,,,,,,,,,,,,,,,,
,,,,,,5a5e94a7eedc32000142cd08,2024-02-08_16h07.13.822,group3.1-3.2-social-tom,2023.2.2,Win32,59.52380952,65c5074098b851296ff0b7ed,65c5413db9c1cb009ea672c8,,,,,,,,,,,119.316,157.8945,space,38.5128,,[],[],[],[],[],[],1,0,1,0,1,,,,,,,,,,,,,,,,,,,,,,,,,,,,,,,,,,,,,,,,,,,,,,,,,,,,,,,,,,,,,,,,,,,,,,,,,,,,,,,,
,,,,,,5a5e94a7eedc32000142cd08,2024-02-08_16h07.13.822,group3.1-3.2-social-tom,2023.2.2,Win32,59.52380952,65c5074098b851296ff0b7ed,65c5413db9c1cb009ea672c8,,,,,,,,,,,157.8991,264.1605,space,106.2352,,[],[],[],[],[],[],2,0,2,0,1,,,,,,,,,,,,,,,,,,,,,,,,,,,,,,,,,,,,,,,,,,,,,,,,,,,,,,,,,,,,,,,,,,,,,,,,,,,,,,,,
,,,,,,5a5e94a7eedc32000142cd08,2024-02-08_16h07.13.822,group3.1-3.2-social-tom,2023.2.2,Win32,59.52380952,65c5074098b851296ff0b7ed,65c5413db9c1cb009ea672c8,,,,,,,,,,,264.1652,328.7601,space,64.572,,[],[],[],[],[],[],3,0,3,0,1,,,,,,,,,,,,,,,,,,,,,,,,,,,,,,,,,,,,,,,,,,,,,,,,,,,,,,,,,,,,,,,,,,,,,,,,,,,,,,,,
,,,,,,5a5e94a7eedc32000142cd08,2024-02-08_16h07.13.822,group3.1-3.2-social-tom,2023.2.2,Win32,59.52380952,65c5074098b851296ff0b7ed,65c5413db9c1cb009ea672c8,,,,,,,,,,,328.7648,341.01,space,12.2347,,[],[],[],[],[],[],4,0,4,0,1,,,,,,,,,,,,,,,,,,,,,,,,,,,,,,,,,,,,,,,,,,,,,,,,,,,,,,,,,,,,,,,,,,,,,,,,,,,,,,,,
,,,,,,5a5e94a7eedc32000142cd08,2024-02-08_16h07.13.822,group3.1-3.2-social-tom,2023.2.2,Win32,59.52380952,65c5074098b851296ff0b7ed,65c5413db9c1cb009ea672c8,,,,,,,,,,,,,,,,,,,,,,,,,,,341.0153,343.5933,343.603,1,audio/Narrative13Situation2.wav,345.6099,,345.6101,375.3601,"[[62.3,2249],[51.1,2333],[31.9,2416],[3.1,2749],[1.5,2833],[1.5,2916],[1.5,2999],[1.6,3083],[4.5,3166],[13.8,3249],[26.9,3333],[35.6,3416],[42.2,3499],[47.7,3583],[51.6,3666],[53.5,3749],[55.3,3833],[55.7,3916],[55.7,3999],[55.7,4083],[55.7,4166],[55.7,4249],[55.7,4333],[55.7,4416],[55.7,4499],[55.7,4582],[55.7,4666],[55.6,4749],[55,4833],[54.4,4916],[54.2,4999],[54.2,5083],[54.2,5166],[54.5,5249],[57.4,5333],[61,5416],[64.7,5500],[68.3,5583],[70.9,5666],[72.4,5749],[73.6,5833],[74.3,5916],[74.3,5999],[74.3,6083],[74.9,6166],[75.7,6249],[75.7,6333],[75.7,6416],[75.7,6499],[75.7,6583],[75.7,6666],[75.7,6749],[75.7,6833],[75.7,6916],[75.7,6999],[75.7,7083],[75.7,7166],[75.7,7249],[75.7,7333],[75.7,7416],[75.7,7499],[75.7,7583],[75.7,7666],[75.7,7749],[75.7,7832],[75.7,7916],[75.7,7999],[75.7,8082],[76.3,8166],[81,8249],[86.1,8333],[91.7,8416],[95.8,8499],[97.1,8583],[98.9,8666],[100,8749],[100,8832],[100,8916],[100,8999],[100,9082],[100,9166],[100,9249],[100,9333],[100,9416],[100,9499],[100,9582],[100,9666],[100,9749],[100,9833],[100,9916],[100,9999],[100,10082],[100,10166],[100,10249],[100,10333],[100,10416],[100,10499],[100,10583],[100,10666],[100,10749],[100,10833],[100,10916],[100,10999],[100,11082],[100,11166],[100,11249],[100,11332],[100,11416],[100,11499],[100,11583],[100,11666],[100,11749],[100,11832],[100,11916],[100,11999],[100,12082],[100,12166],[100,12249],[100,12333],[100,12416],[100,12499],[100,12583],[100,12666],[100,12749],[100,12832],[100,12916],[100,12999],[100,13082],[100,13166],[100,13249],[100,13332],[100,13416],[100,13499],[100,13582],[100,13666],[100,13749],[100,13832],[100,13916],[100,13999],[100,14082],[100,14166],[100,14249],[100,14332],[100,14416],[100,14499],[100,14583],[100,14666],[100,14749],[100,14832],[100,14916],[100,14999],[100,15082],[100,15166],[100,15249],[100,15332],[100,15416],[100,15499],[100,15582],[100,15666],[100,15749],[100,15832],[100,15916],[100,15999],[100,16083],[100,16166],[100,16249],[100,16333],[100,16416],[100,16499],[100,16582],[100,16666],[100,16749],[100,16833],[100,16916],[100,16999],[100,17082],[100,17166],[100,17249],[100,17332],[100,17416],[100,17499],[100,17582],[100,17666],[100,17749],[100,17832],[100,17916],[100,17999],[100,18082],[100,18166],[100,18249],[100,18332],[100,18416],[100,18499],[100,18582],[100,18666],[100,18749],[100,18832],[100,18916],[100,18999],[100,19083],[100,19166],[100,19249],[100,19332],[100,19416],[100,19499],[100,19582],[100,19666],[100,19749],[100,19832],[100,19916],[100,19999],[100,20082],[100,20166],[100,20249],[100,20332],[100,20416],[100,20499],[100,20582],[100,20666],[100,20749],[100,20832],[100,20916],[100,20999],[100,21082],[100,21166],[100,21249],[100,21332],[100,21416],[100,21499],[100,21582],[100,21666],[100,21749],[100,21833],[100,21916],[100,21999],[100,22082],[100,22166],[100,22249],[100,22332],[100,22416],[100,22499],[100,22582],[100,22666],[100,22749],[100,22832],[100,22916],[100,22999],[100,23082],[100,23166],[100,23249],[100,23332],[100,23416],[100,23499],[100,23582],[100,23666],[100,23749],[100,23832],[100,23916],[100,23999],[100,24082],[100,24166],[100,24249],[100,24332],[100,24416],[100,24499],[100,24582],[100,24666],[100,24749],[100,24832],[100,24916],[100,24999],[100,25082],[100,25166],[100,25249],[100,25332],[100,25416],[100,25499],[100,25582],[100,25666],[100,25749],[100,25832],[100,25916],[100,25999],[100,26082],[100,26166],[100,26249],[100,26332],[100,26416],[100,26499],[100,26582],[100,26666],[100,26749],[100,26832],[100,26916],[100,26999],[100,27082],[100,27166],[100,27249],[100,27332],[100,27416],[100,27499],[100,27582],[100,27666],[100,27749],[100,27832],[100,27916],[100,27999],[100,28082],[100,28166],[100,28249],[100,28332],[100,28416],[100,28499],[100,28582],[100,28666],[100,28749],[100,28832],[100,28916],[100,28999],[100,29082],[100,29166],[100,29249],[100,29332],[100,29416],[100,29499],[100,29582],[100,29666],[100,29749]]",1,0,375.3603,385.3602,89.0625,9.0441,"[{""rating"":89.0625,""responseTime"":9.044099999999617}]",space,9.4501,,385.3602,Definitely yes,100,385.3622,,,[],,0,0,0,0,1,audio/Narrative13Situation2.wav,audio/Narrative13Situation2.wav,audio/Narrative13Situation2.wav,audio/Narrative13Situation2.wav,2,2,2,2,,,,,,,,,,,,,,,,,,,,,,,,,,,,,,,,,,,,,,,
,,,,,,5a5e94a7eedc32000142cd08,2024-02-08_16h07.13.822,group3.1-3.2-social-tom,2023.2.2,Win32,59.52380952,65c5074098b851296ff0b7ed,65c5413db9c1cb009ea672c8,,,,,,,,,,,,,,,,,,,,,,,,,,,,,385.3623,1,audio/Narrative7Situation1.wav,388.1764,space,388.1764,444.0761,"[[88.4,2499],[87.8,2583],[87.1,2666],[85.9,2750],[85.5,2833],[85.6,2916],[88.3,3000],[92.1,3083],[93,3166],[93.5,3249],[94.1,3333],[94.1,3416],[94.1,3499],[94.1,3583],[94.1,3666],[94.8,3750],[96.6,3833],[98.1,3916],[99.3,3999],[99.4,4083],[99.7,4166],[100,4249],[100,4333],[100,4416],[100,4499],[100,4583],[100,4666],[100,4749],[100,4833],[100,4916],[100,4999],[100,5083],[100,5166],[100,5249],[100,5333],[100,5416],[100,5499],[100,5583],[100,5666],[100,5749],[100,5833],[100,5916],[100,5999],[100,6083],[100,6166],[100,6249],[100,6333],[100,6416],[100,6499],[100,6583],[100,6666],[100,6749],[100,6833],[100,6916],[100,6999],[100,7083],[100,7166],[100,7249],[100,7333],[100,7416],[100,7499],[100,7583],[100,7666],[100,7749],[100,7833],[100,7916],[100,7999],[100,8083],[100,8166],[100,8249],[100,8333],[100,8416],[100,8499],[100,8583],[100,8666],[100,8749],[100,8833],[100,8916],[100,8999],[100,9083],[100,9166],[100,9250],[100,9333],[100,9416],[100,9499],[100,9583],[100,9666],[100,9749],[100,9833],[100,9916],[100,9999],[100,10083],[100,10166],[100,10249],[100,10333],[100,10416],[100,10499],[100,10583],[100,10666],[100,10749],[100,10833],[100,10916],[100,10999],[100,11083],[100,11166],[100,11249],[100,11333],[100,11416],[100,11499],[100,11583],[100,11666],[100,11750],[100,11833],[100,11916],[100,11999],[100,12083],[100,12166],[100,12249],[100,12333],[100,12416],[100,12499],[100,12583],[100,12666],[100,12749],[100,12833],[100,12916],[100,12999],[100,13083],[100,13166],[100,13249],[99.9,13333],[99.6,13416],[99.3,13499],[99,13583],[98.6,13666],[98.6,13749],[98.5,13833],[98.5,13916],[98.5,13999],[98.5,14083],[98.5,14166],[98.5,14249],[98.5,14333],[98.5,14416],[98.5,14499],[98.5,14583],[98.5,14666],[98.5,14749],[98.5,14833],[98.5,14916],[98.1,14999],[97.7,15083],[97.6,15166],[97.6,15249],[97.6,15333],[97.4,15416],[97.4,15499],[97.4,15583],[97.4,15666],[97.4,15749],[97.4,15833],[97.4,15916],[97.4,15999],[97.4,16083],[97.4,16166],[97.4,16249],[97.4,16333],[97.4,16416],[97.4,16499],[97.4,16583],[97.4,16666],[97.4,16749],[97.4,16833],[97.8,16916],[100,16999],[100,17083],[100,17166],[100,17249],[100,17333],[100,17416],[100,17499],[100,17583],[100,17666],[100,17749],[100,17832],[100,17916],[100,17999],[100,18083],[100,18166],[100,18249],[100,18333],[100,18416],[100,18499],[100,18583],[100,18666],[100,18749],[100,18832],[100,18916],[100,18999],[100,19083],[100,19166],[100,19249],[100,19333],[100,19416],[100,19499],[100,19583],[100,19666],[100,19749],[100,19832],[100,19916],[100,19999],[100,20083],[100,20166],[100,20249],[100,20332],[100,20416],[100,20499],[100,20583],[100,20666],[100,20749],[100,20832],[100,20916],[100,20999],[100,21083],[100,21166],[100,21249],[100,21333],[100,21416],[100,21499],[100,21583],[100,21666],[100,21749],[100,21833],[100,21916],[100,21999],[100,22083],[100,22166],[100,22249],[100,22332],[100,22416],[100,22499],[100,22583],[100,22666],[100,22749],[100,22832],[100,22916],[100,22999],[100,23083],[100,23166],[100,23249],[100,23332],[100,23416],[100,23499],[100,23583],[100,23666],[100,23749],[100,23833],[100,23916],[100,24000],[100,24083],[100,24166],[100,24249],[100,24333],[100,24416],[100,24499],[100,24583],[100,24666],[100,24749],[100,24833],[100,24916],[100,24999],[100,25083],[100,25166],[100,25249],[100,25333],[100,25416],[100,25499],[100,25583],[100,25666],[100,25749],[100,25832],[100,25916],[100,25999],[100,26083],[100,26166],[100,26249],[100,26333],[100,26416],[100,26499],[100,26583],[100,26666],[100,26749],[100,26833],[100,26916],[100,26999],[100,27083],[100,27166],[100,27249],[100,27333],[100,27416],[100,27499],[100,27583],[100,27666],[100,27749],[100,27832],[100,27916],[100,27999],[100,28082],[100,28166],[100,28249],[100,28333],[100,28416],[100,28499],[100,28582],[100,28666],[100,28749],[100,28833],[100,28916],[100,28999],[100,29082],[100,29166],[100,29249],[100,29333],[100,29416],[99.8,29499],[98.9,29582],[97.8,29666],[96.8,29749],[95.9,29833],[94.8,29916],[93.8,29999],[93.3,30082],[92.9,30166],[92.9,30249],[92.9,30332],[92.6,30416],[92.1,30499],[91.6,30582],[91.4,30666],[91.4,30749],[91.4,30832],[91,30916],[91,30999],[91,31082],[91,31166],[90.4,31249],[89.8,31333],[89.4,31416],[89.4,31499],[89.3,31583],[89.2,31666],[89.2,31749],[89.2,31833],[89.2,31916],[89.2,31999],[89.1,32082],[88.6,32166],[88.3,32249],[88.1,32332],[88.1,32416],[88.1,32499],[88.1,32583],[88.1,32666],[88.1,32749],[88.1,32833],[88.1,32916],[88.1,32999],[88.1,33083],[88.3,33166],[89.1,33249],[90.2,33333],[92.1,33416],[94.7,33499],[99.2,33583],[100,33666],[100,33749],[100,33832],[100,33916],[100,33999],[100,34083],[100,34166],[100,34249],[100,34332],[100,34416],[100,34499],[100,34583],[100,34666],[100,34749],[100,34832],[100,34916],[100,34999],[100,35083],[100,35166],[100,35249],[100,35332],[100,35416],[100,35499],[100,35582],[100,35666],[100,35749],[100,35833],[100,35916],[100,35999],[100,36082],[100,36166],[100,36249],[100,36332],[100,36416],[100,36499],[100,36583],[100,36666],[100,36749],[100,36833],[100,36916],[100,36999],[100,37082],[100,37166],[100,37249],[100,37333],[100,37416],[100,37499],[100,37582],[100,37666],[100,37749],[100,37833],[100,37916],[100,37999],[100,38083],[97.7,38166],[95.2,38249],[92.4,38333],[90.2,38416],[88.3,38499],[86.8,38583],[85.7,38666],[84.6,38749],[83.5,38832],[82.9,38916],[82.9,38999],[82.9,39082],[82.9,39166],[82.9,39249],[82.9,39333],[82.9,39416],[82.9,39499],[82.9,39583],[82.9,39666],[82.9,39749],[82.9,39832],[82.9,39916],[82.9,39999],[83,40082],[83,40166],[83,40249],[83,40332],[83,40416],[83,40499],[83,40582],[83,40666],[83,40749],[83,40832],[83.1,40916],[83.1,40999],[83.1,41082],[83.1,41166],[83.1,41249],[83.1,41333],[83.1,41416],[83.1,41499],[83.1,41582],[83.1,41666],[83.1,41749],[83.4,41833],[83.6,41916],[83.6,41999],[83.6,42082],[83.8,42166],[84.3,42249],[84.5,42333],[85.1,42416],[85.7,42499],[86.1,42582],[86.3,42666],[86.4,42749],[86.4,42833],[86.4,42916],[86.4,42999],[86.4,43082],[86.4,43166],[86.4,43249],[86.4,43332],[86.4,43416],[86.4,43499],[86.4,43582],[86.4,43666],[86.4,43749],[86.4,43832],[86.4,43916],[86.4,43999],[86.4,44082],[86.4,44166],[87.3,44249],[88.2,44333],[88.8,44416],[89.1,44499],[89.1,44582],[89.1,44666],[89.1,44749],[89.1,44832],[89.1,44916],[89.1,44999],[89.1,45082],[89.1,45166],[89.6,45249],[90.8,45332],[90.9,45416],[90.9,45499],[90.9,45582],[90.9,45666],[90.9,45749],[90.9,45832],[90.9,45916],[90.9,45999],[90.9,46082],[90.9,46166],[90.9,46249],[90.9,46332],[90.9,46416],[90.9,46499],[90.9,46582],[90.9,46666],[90.9,46749],[90.9,46832],[90.9,46916],[90.9,46999],[90.9,47082],[90.9,47166],[90.9,47249],[90.9,47332],[90.9,47416],[90.8,47499],[90.5,47582],[90.5,47666],[90.5,47749],[90.5,47832],[90.5,47916],[90.5,47999],[90.8,48082],[91.9,48166],[92.8,48249],[93.2,48332],[93.2,48416],[93.2,48499],[93.2,48582],[93.2,48666],[93.2,48749],[93.2,48832],[93.2,48916],[93.2,48999],[93.2,49082],[92.3,49166],[90.8,49249],[90.5,49332],[90.4,49416],[90.1,49499],[89.7,49582],[89,49666],[87.7,49749],[86.7,49832],[85,49916],[83.9,49999],[82.9,50082],[82,50166],[81.6,50249],[81.1,50333],[80.1,50416],[79.1,50499],[78.1,50582],[77.5,50666],[77.4,50749],[77.4,50832],[77.4,50916],[77.4,50999],[77.4,51082],[77.4,51166],[77.4,51249],[77.3,51332],[76.8,51416],[76.4,51499],[75.3,51583],[74.7,51666],[75.4,51749],[88.8,51833],[100,51916],[100,51999],[100,52082],[100,52166],[100,52249],[100,52332],[100,52416],[100,52500],[100,52582],[100,52666],[100,52749],[100,52832],[100,52916],[100,52999],[99.9,53082],[99.8,53166],[99.7,53249],[99.7,53332],[99.7,53416],[99.7,53499],[99.7,53582],[99.7,53666],[99.7,53749],[99.7,53832],[99.7,53916],[99.7,53999],[99.6,54082],[99.4,54166],[99.4,54249],[99.4,54332],[99.4,54416],[99.4,54499],[99.1,54582],[98.5,54666],[98.2,54749],[98.1,54832],[98.1,54916],[98.1,54999],[97.9,55082],[97.7,55166],[97.6,55249],[97.6,55332],[97.6,55416],[97.6,55499],[97.6,55582],[97.6,55666],[97.6,55749],[97.6,55832]]",1,0,444.0762,459.826,88.125,11.4698,"[{""rating"":88.125,""responseTime"":11.46980000000076}]",space,15.2117,,459.826,Partially,50,459.8318,,,[],,0,1,1,1,1,audio/Narrative7Situation1.wav,audio/Narrative8Situation1.wav,audio/Narrative5Situation1.wav,audio/Narrative6Situation1.wav,2,5,5,2,2.8052,,,,,,,,,,,,,,,,,,,,,,,,,,,,,,,,,,,,,,
,,,,,,5a5e94a7eedc32000142cd08,2024-02-08_16h07.13.822,group3.1-3.2-social-tom,2023.2.2,Win32,59.52380952,65c5074098b851296ff0b7ed,65c5413db9c1cb009ea672c8,,,,,,,,,,,,,,,,,,,,,,,,,,,,,459.8319,1,audio/Narrative7Situation2.wav,462.8426,,462.8426,470.3092,"[[999,0],[999,83],[999,166],[999,249],[999,333],[999,416],[999,499],[999,583],[999,666],[999,749],[999,833],[999,916],[999,999],[999,1083],[999,1166],[999,1249],[999,1333],[999,1416],[999,1499],[999,1583],[999,1666],[999,1749],[999,1833],[999,1916],[999,1999],[999,2083],[999,2166],[999,2249],[83.5,2333],[84.1,2416],[84.4,2499],[84.4,2583],[84.4,2666],[85.2,2750],[87.5,2833],[90,2916],[91.8,2999],[94.1,3083],[95.8,3166],[98.2,3250],[100,3333],[100,3416],[100,3500],[100,3583],[100,3666],[100,3750],[100,3833],[100,3916],[100,3999],[100,4083],[100,4166],[100,4249],[100,4333],[100,4416],[100,4499],[100,4583],[100,4666],[100,4750],[99.4,4833],[96.4,4916],[92.9,4999],[89.9,5083],[86.6,5166],[83.5,5250],[80.5,5333],[77.8,5416],[76.1,5499],[75,5583],[74.5,5666],[74.5,5749],[74.5,5833],[74.5,5916],[74.5,5999],[74.5,6083],[74.5,6166],[74.5,6249],[74.5,6333],[74.5,6416],[74.4,6499],[72.7,6583],[70,6666],[66.1,6750],[60.8,6833],[57.2,6916],[55,6999],[51.9,7083],[50.6,7166],[50.1,7250],[49.9,7333],[49.9,7416]]",1,0,470.3093,482.8592,22.39583333,6.3219,"[{""rating"":22.395833333333332,""responseTime"":6.321900000000369}]",space,12.006,,482.8592,Definitely yes,100,482.8651,,,[],,0,2,2,2,1,audio/Narrative7Situation2.wav,audio/Narrative8Situation2.wav,audio/Narrative5Situation2.wav,audio/Narrative6Situation2.wav,3,3,3,3,,,,,,,,,,,,,,,,,,,,,,,,,,,,,,,,,,,,,,,
,,,,,,5a5e94a7eedc32000142cd08,2024-02-08_16h07.13.822,group3.1-3.2-social-tom,2023.2.2,Win32,59.52380952,65c5074098b851296ff0b7ed,65c5413db9c1cb009ea672c8,,,,,,,,,,,,,,,,,,,,,,,,,,,,,482.8652,1,audio/Narrative7Situation3.wav,490.8757,,490.8758,500.1422,"[[59.9,2249],[59.5,2333],[57.9,2416],[56.5,2499],[54.2,2583],[50.3,2666],[45.1,2750],[34.8,2833],[15.6,2916],[2.2,3000],[0.4,3583],[0.6,3666],[0.6,3749],[0.6,3833],[0.6,3916],[0.6,3999],[0.6,4083],[0.9,4999],[8.1,5083],[22.3,5166],[29.9,5249],[34.2,5333],[41.8,5416],[57.7,5500],[74.4,5583],[87.4,5666],[94.8,5749],[100,5833],[100,5916],[100,5999],[100,6083],[100,6166],[100,6249],[100,6333],[100,6416],[100,6499],[100,6583],[100,6666],[100,6749],[100,6833],[100,6916],[100,6999],[100,7083],[100,7166],[100,7250],[100,7333],[100,7416],[100,7499],[100,7583],[100,7666],[100,7749],[100,7833],[100,7916],[100,7999],[100,8083],[100,8166],[100,8249],[100,8333],[100,8416],[100,8499],[100,8583],[100,8666],[100,8749],[100,8833],[100,8916],[100,8999],[100,9082],[100,9166],[100,9249]]",1,0,500.1423,514.9923,78.22916667,13.2484,"[{""rating"":78.22916666666666,""responseTime"":13.248400000000345}]",space,14.3215,,514.9924,Not at all,0,514.994,,,[],,0,3,3,3,1,audio/Narrative7Situation3.wav,audio/Narrative8Situation3.wav,audio/Narrative5Situation3.wav,audio/Narrative6Situation3.wav,8,4,3,5,,,,,,,,,,,,,,,,,,,,,,,,,,,,,,,,,,,,,,,
,,,,,,5a5e94a7eedc32000142cd08,2024-02-08_16h07.13.822,group3.1-3.2-social-tom,2023.2.2,Win32,59.52380952,65c5074098b851296ff0b7ed,65c5413db9c1cb009ea672c8,,,,,,,,,,,,,,,,,,,,,,,,,,,,,514.9942,1,audio/Narrative7Situation4.wav,518.009,,518.009,529.7423,"[[999,4],[999,83],[999,166],[999,249],[999,333],[999,416],[999,499],[999,583],[999,666],[999,749],[999,833],[999,916],[999,999],[999,1083],[999,1166],[999,1249],[999,1333],[999,1416],[999,1500],[999,1583],[999,1666],[16.7,1749],[8.1,1833],[3.6,1916],[0.4,2000],[1.7,2916],[3.9,2999],[4.2,3083],[4.2,3166],[2.8,3250],[0.1,6083],[3.6,6166],[8.9,6250],[16.6,6333],[25.7,6416],[30.1,6499],[30.3,6583],[30.6,6666],[30.6,6750],[30.6,6833],[30.6,6916],[30.6,6999],[30.6,7083],[30.6,7166],[30.6,7250],[30.6,7333],[30.6,7416],[30.6,7499],[30.7,7583],[35.5,7666],[46.6,7749],[52.5,7833],[54,7916],[54.1,7999],[54.1,8083],[54.1,8166],[54.1,8249],[52,8333],[51,8416],[51,8499],[51,8583],[50.9,8666],[50.9,8749],[50.9,8833],[50.9,8916],[50.9,8999],[50.9,9083],[50.9,9166],[50.9,9249],[50.9,9333],[50.9,9416],[51.4,9499],[52.1,9583],[53.2,9666],[54,9749],[54,9833],[55.5,9916],[61.6,9999],[68.5,10083],[74.1,10166],[77.6,10249],[79.3,10333],[80.7,10416],[81.9,10499],[82.3,10583],[82.3,10666],[82.3,10749],[82.3,10833],[82.3,10916],[82.3,10999],[82.3,11083],[82.3,11166],[82.3,11250],[82.3,11333],[82.3,11416],[82.3,11499],[82.3,11583],[82.3,11666]]",1,0,529.7423,532.8089,50.20833333,1.5195,"[{""rating"":50.208333333333336,""responseTime"":1.5194999999999936}]",space,2.5202,,532.8089,Definitely yes,100,532.8103,,,[],,0,4,4,4,1,audio/Narrative7Situation4.wav,audio/Narrative8Situation4.wav,audio/Narrative5Situation4.wav,audio/Narrative6Situation4.wav,3,3,1,2,,,,,,,,,,,,,,,,,,,,,,,,,,,,,,,,,,,,,,,
,,,,,,5a5e94a7eedc32000142cd08,2024-02-08_16h07.13.822,group3.1-3.2-social-tom,2023.2.2,Win32,59.52380952,65c5074098b851296ff0b7ed,65c5413db9c1cb009ea672c8,,,,,,,,,,,,,,,,,,,,,,,,,,,,,532.8104,1,audio/Narrative7Situation5.wav,537.8255,,537.8255,546.3088,"[[34.2,2416],[32.6,2500],[32.5,2583],[32.5,2666],[32.5,2750],[32.5,2833],[32.5,2916],[29.8,3000],[20.1,3083],[3.6,3166]]",1,0,546.3089,556.642,1.041666667,2.0535,"[{""rating"":1.0416666666666685,""responseTime"":2.0534999999999854}]",space,9.7935,,556.642,Not at all,0,556.6477,,,[],,0,5,5,5,1,audio/Narrative7Situation5.wav,audio/Narrative8Situation5.wav,audio/Narrative5Situation5.wav,audio/Narrative6Situation5.wav,5,2,5,2,,,,,,,,,,,,,,,,,,,,,,,,,,,,,,,,,,,,,,,
,,,,,,5a5e94a7eedc32000142cd08,2024-02-08_16h07.13.822,group3.1-3.2-social-tom,2023.2.2,Win32,59.52380952,65c5074098b851296ff0b7ed,65c5413db9c1cb009ea672c8,,,,,,,,,,,,,,,,,,,,,,,,,,,,,556.6479,1,audio/Narrative7Situation6.wav,559.6587,,559.6588,569.642,"[[999,4],[999,83],[999,166],[999,249],[999,333],[999,416],[999,500],[999,583],[999,666],[999,749],[999,833],[999,916],[999,999],[999,1083],[999,1166],[999,1249],[999,1333],[999,1416],[999,1499],[999,1583],[2.3,1749],[22.3,1833],[58.1,1916],[88.8,2000],[100,2083],[100,2166],[100,2249],[100,2333],[100,2416],[100,2499],[100,2583],[100,2666],[100,2749],[100,2833],[100,2916],[100,2999],[100,3083],[100,3166],[100,3249],[100,3333],[100,3416],[100,3499],[100,3582],[100,3666],[100,3749],[100,3833],[100,3916],[100,3999],[100,4083],[100,4166],[100,4249],[100,4333],[100,4416],[100,4499],[100,4582],[97,4666],[91.1,4750],[82.7,4833],[78.1,4916],[75.3,4999],[71.7,5083],[69.2,5166],[68.8,5249],[68.8,5332],[68.8,5416],[68.8,5499],[68.2,5583],[66.1,5666],[64.2,5749],[62.1,5833],[58.5,5916],[54.2,5999],[53.5,6083],[53.5,6166],[51.4,6249],[49.8,6332],[49.3,6416],[47.5,6499],[42.6,6583],[30,6666],[14.4,6750],[4.7,6832],[2.3,6916],[2.1,6999],[1.4,7083],[0.8,7166],[0.4,7249],[0.1,7333]]",1,0,569.6421,587.6585,50.10416667,6.3007,"[{""rating"":50.10416666666667,""responseTime"":6.30069999999921}]",space,17.4712,,587.6586,Partially,50,587.6642,,,[],,0,6,6,6,1,audio/Narrative7Situation6.wav,audio/Narrative8Situation6.wav,audio/Narrative5Situation6.wav,audio/Narrative6Situation6.wav,3,2,3,2,,,,,,,,,,,,,,,,,,,,,,,,,,,,,,,,,,,,,,,
,,,,,,5a5e94a7eedc32000142cd08,2024-02-08_16h07.13.822,group3.1-3.2-social-tom,2023.2.2,Win32,59.52380952,65c5074098b851296ff0b7ed,65c5413db9c1cb009ea672c8,,,,,,,,,,,,,,,,,,,,,,,,,,,,,587.6644,1,audio/Narrative7Situation7.wav,592.6752,,592.6752,609.8585,"[[49.7,2750],[41.9,2833],[20,2916],[1.7,3000],[0.4,4250],[6.9,4333],[10.6,4416],[14.3,4500],[21.1,4583],[30.7,4666],[43.4,4750],[63.4,4833],[100,5500],[100,5583],[100,5666],[100,5749],[100,5833],[100,5916],[100,6000],[100,6083],[100,6166],[100,6249],[100,6333],[100,6416],[100,6499],[100,6583],[100,6666],[100,6749],[100,6833],[100,6916],[100,7000],[100,7083],[100,7166],[100,7250],[100,7333],[100,7416],[100,7500],[99.8,7583],[99.8,7666],[99.7,7749],[99.7,7833],[99.7,7916],[99.7,7999],[99.7,8083],[99.6,8166],[99.6,8249],[99.5,8333],[99.4,8416],[99.3,8500],[99.2,8583],[99.1,8666],[99.1,8749],[98.9,8833],[98.9,8916],[98.9,8999],[98.9,9084],[98.9,9166],[98.9,9249],[98.9,9333],[98.9,9416],[98.9,9500],[98.9,9583],[98.9,9666],[98.9,9749],[98.9,9833],[98.9,9916],[98.9,10000],[98.9,10083],[98.9,10166],[98.9,10249],[98.9,10333],[98.9,10416],[98.9,10499],[98.9,10583],[98.9,10666],[98.9,10749],[98.9,10833],[98.9,10916],[98.9,10999],[98.9,11083],[98.9,11166],[98.9,11250],[98.9,11333],[98.9,11416],[98.9,11499],[98.9,11583],[98.9,11666],[98.9,11749],[98.9,11833],[98.9,11916],[98.9,11999],[98.9,12083],[98.9,12166],[98.9,12249],[98.9,12333],[98.9,12416],[98.9,12499],[98.9,12583],[98.9,12666],[98.9,12749],[98.9,12833],[98.9,12916],[98.9,12999],[98.9,13083],[98.9,13166],[98.9,13249],[98.9,13333],[98.9,13416],[98.9,13499],[98.9,13583],[98.9,13666],[98.9,13749],[98.9,13832],[98.9,13916],[98.3,14000],[93.1,14083],[82.6,14166],[72.4,14249],[63.8,14333],[58.9,14416],[56,14499],[53.4,14583],[53.2,14666],[53.2,14750],[53.2,14833],[53.4,14916],[56.3,15000],[61.1,15083],[70.1,15166],[78.2,15249],[82.7,15333],[90.3,15416],[96.5,15500],[98.3,15583],[99.4,15666],[100,15749],[100,15833],[100,15916],[100,16000],[100,16083],[100,16166],[100,16249],[100,16333],[100,16416],[100,16499],[100,16583],[100,16666],[100,16749],[100,16833],[100,16916],[100,16999],[100,17083],[100,17166]]",1,0,609.8585,615.1084,99.6875,3.2883,"[{""rating"":99.6875,""responseTime"":3.2882999999989124}]",space,4.7126,,615.1085,Definitely yes,100,615.1098,,,[],,0,7,7,7,1,audio/Narrative7Situation7.wav,audio/Narrative8Situation7.wav,audio/Narrative5Situation7.wav,audio/Narrative6Situation7.wav,5,3,4,5,,,,,,,,,,,,,,,,,,,,,,,,,,,,,,,,,,,,,,,
,,,,,,5a5e94a7eedc32000142cd08,2024-02-08_16h07.13.822,group3.1-3.2-social-tom,2023.2.2,Win32,59.52380952,65c5074098b851296ff0b7ed,65c5413db9c1cb009ea672c8,,,,,,,,,,,,,,,,,,,,,,,,,,,,,615.1099,1,audio/Narrative7Situation8.wav,617.1251,,617.1251,627.1584,"[[98.1,166],[91,249],[77.3,333],[61.5,416],[51.1,1000],[50.9,1083],[50.4,1166],[50.4,1249],[58.6,1333],[100,1500],[100,1583],[100,1666],[100,1750],[100,1833],[100,1916],[100,1999],[100,2083],[100,2166],[100,2249],[100,2333],[100,2416],[100,2499],[100,2583],[100,2666],[100,2749],[100,2833],[100,2916],[100,2999],[100,3083],[100,3166],[100,3249],[100,3333],[100,3416],[100,3499],[100,3583],[100,3666],[100,3749],[100,3833],[100,3916],[100,3999],[100,4083],[100,4166],[100,4249],[100,4333],[100,4416],[100,4499],[100,4583],[100,4666],[100,4749],[100,4833],[100,4916],[100,4999],[100,5083],[100,5166],[100,5249],[100,5333],[100,5416],[100,5499],[100,5583],[100,5666],[100,5749],[100,5833],[100,5916],[100,5999],[100,6083],[100,6166],[100,6249],[100,6333],[100,6416],[100,6499],[100,6583],[100,6666],[100,6749],[100,6833],[100,6916],[100,6999],[100,7083],[100,7166],[100,7249],[100,7333],[100,7416],[98.9,7499],[97,7583],[96.3,7666],[95.5,7749],[93.1,7833],[90.6,7916],[87.2,7999],[84,8083],[80.7,8166],[78.5,8249],[76.5,8333],[75.7,8416],[75.7,8499],[75.7,8583],[75.7,8666],[75.7,8749],[75.7,8833],[75.5,8916],[74.6,9000],[73.9,9083],[73.9,9166],[73.9,9249],[73.9,9333],[73.9,9416],[73.9,9499],[73.9,9583],[73.9,9666],[73.9,9749],[73.9,9833],[73.9,9916],[73.9,9999]]",1,0,627.1585,631.5417,82.39583333,0.8102,"[{""rating"":82.39583333333333,""responseTime"":0.8102000000011458}]",space,3.8355,,631.5417,Partially,50,631.543,,,[],,0,8,8,8,1,audio/Narrative7Situation8.wav,audio/Narrative8Situation8.wav,audio/Narrative5Situation8.wav,audio/Narrative6Situation8.wav,2,3,3,5,,,,,,,,,,,,,,,,,,,,,,,,,,,,,,,,,,,,,,,
,,,,,,5a5e94a7eedc32000142cd08,2024-02-08_16h07.13.822,group3.1-3.2-social-tom,2023.2.2,Win32,59.52380952,65c5074098b851296ff0b7ed,65c5413db9c1cb009ea672c8,,,,,,,,,,,,,,,,,,,,,,,,,,,,,631.5431,1,audio/Narrative7Situation9.wav,633.5583,,633.5583,642.1917,"[[81.3,2166],[82.9,2250],[86.1,2333],[88.1,2416],[88.5,2500],[89.3,2583],[89.4,2666],[89.5,2750],[90.1,2833],[91.4,2916],[92.1,3000],[92.1,3083],[92.1,3166],[92.1,3249],[92.1,3333],[92.1,3416],[92.1,3499],[92.1,3583],[92.1,3666],[94,3750],[97.3,3833],[97.9,3916],[98.6,4000],[100,4083],[100,4166],[100,4249],[100,4333],[100,4416],[100,4500],[100,4583],[100,4666],[100,4750],[100,4833],[100,4916],[100,5000],[100,5083],[100,5166],[100,5249],[100,5333],[100,5416],[100,5500],[100,5583],[100,5666],[100,5749],[100,5833],[100,5916],[100,6000],[100,6083],[100,6166],[100,6250],[100,6333],[100,6416],[100,6500],[100,6583],[100,6666],[100,6749],[100,6833],[100,6916],[100,6999],[100,7083],[100,7166],[100,7249],[100,7333],[100,7416],[100,7499],[100,7583],[100,7666],[100,7749],[100,7833],[100,7916],[100,8000],[100,8083],[100,8166],[100,8250],[100,8333],[99.3,8416],[97,8500],[94.8,8583]]",1,0,642.1918,646.225,99.6875,1.577,"[{""rating"":99.6875,""responseTime"":1.5769999999999982}]",space,3.4832,,646.225,Not at all,0,646.2264,,,[],,0,9,9,9,1,audio/Narrative7Situation9.wav,audio/Narrative8Situation9.wav,audio/Narrative5Situation9.wav,audio/Narrative6Situation9.wav,2,3,3,4,,,,,,,,,,,,,,,,,,,,,,,,,,,,,,,,,,,,,,,
,,,,,,5a5e94a7eedc32000142cd08,2024-02-08_16h07.13.822,group3.1-3.2-social-tom,2023.2.2,Win32,59.52380952,65c5074098b851296ff0b7ed,65c5413db9c1cb009ea672c8,,,,,,,,,,,,,,,,,,,,,,,,,,,,,646.2264,1,audio/Narrative8Situation1.wav,651.2416,,651.2416,667.1748,"[[999,4],[999,83],[999,166],[999,249],[999,333],[999,416],[999,499],[999,583],[999,666],[999,749],[999,833],[999,916],[999,999],[999,1083],[999,1166],[999,1249],[999,1333],[999,1416],[999,1499],[999,1583],[999,1666],[999,1749],[999,1833],[999,1916],[999,1999],[999,2083],[999,2166],[999,2249],[999,2333],[999,2416],[999,2499],[999,2583],[999,2666],[999,2750],[81.5,2833],[85.2,2916],[88.2,2999],[91.4,3083],[95.1,3166],[99.3,3250],[100,3333],[100,3416],[100,3499],[100,3583],[100,3666],[100,3749],[100,3833],[100,3916],[100,3999],[100,4083],[100,4166],[100,4249],[100,4333],[100,4416],[100,4499],[100,4583],[100,4666],[100,4749],[100,4833],[100,4916],[100,4999],[100,5083],[100,5166],[100,5249],[100,5333],[100,5416],[100,5499],[100,5583],[100,5666],[100,5749],[100,5833],[100,5916],[100,5999],[100,6083],[100,6166],[100,6249],[100,6333],[100,6416],[100,6499],[100,6583],[100,6666],[100,6749],[100,6833],[100,6916],[100,6999],[100,7083],[100,7166],[100,7250],[100,7333],[100,7416],[100,7499],[100,7583],[100,7666],[100,7749],[100,7833],[100,7916],[100,7999],[100,8083],[100,8166],[100,8249],[99.9,8333],[99.9,8416],[99.9,8499],[99.9,8583],[99.9,8666],[99.9,8749],[99.9,8833],[99.9,8916],[99.9,8999],[99.9,9083],[99.9,9166],[99.9,9249],[99.9,9333],[99.9,9416],[99.9,9499],[99.9,9583],[99.9,9666],[99.9,9749],[99.9,9833],[99.9,9916],[99.9,9999],[99.9,10083],[99.9,10166],[99.9,10250],[99.9,10333],[99.9,10416],[99.9,10499],[99.9,10583],[99.9,10666],[99.9,10749],[99.9,10833],[99.9,10916],[99.9,10999],[99.9,11083],[99.9,11166],[99.7,11249],[99.7,11333],[99.7,11416],[99.7,11499],[99.7,11583],[99.7,11666],[99.7,11749],[99.7,11833],[99.7,11916],[99.7,11999],[99.7,12083],[99.7,12166],[99.7,12249],[99.7,12333],[99.7,12416],[99.7,12499],[99.7,12583],[99.7,12666],[99.7,12749],[99.7,12833],[99.7,12916],[99.7,12999],[99.7,13083],[99.7,13166],[99.7,13250],[99.7,13333],[99.7,13416],[99.7,13499],[99.7,13583],[99.7,13666],[99.7,13749],[99.7,13833],[99.7,13916],[99.7,13999],[99.7,14083],[99.7,14166],[99.7,14249],[99.7,14333],[99.7,14416],[99.7,14499],[99.7,14583],[99.7,14666],[99.7,14749],[99.7,14833],[99.7,14916],[99.7,14999],[99.7,15083],[99.7,15166],[99.7,15249],[99.7,15333],[99.7,15416],[99.7,15499],[99.7,15583],[99.7,15666],[99.7,15749],[99.7,15832],[99.7,15916]]",1,0,667.1749,669.1081,99.6875,1.0205,"[{""rating"":99.6875,""responseTime"":1.02049999999997}]",space,1.39,,669.1081,Not at all,0,669.109,,,[],,0,10,10,10,1,audio/Narrative8Situation1.wav,audio/Narrative7Situation1.wav,audio/Narrative6Situation1.wav,audio/Narrative5Situation1.wav,5,2,2,5,,,,,,,,,,,,,,,,,,,,,,,,,,,,,,,,,,,,,,,
,,,,,,5a5e94a7eedc32000142cd08,2024-02-08_16h07.13.822,group3.1-3.2-social-tom,2023.2.2,Win32,59.52380952,65c5074098b851296ff0b7ed,65c5413db9c1cb009ea672c8,,,,,,,,,,,,,,,,,,,,,,,,,,,,,669.1091,1,audio/Narrative8Situation2.wav,672.1246,,672.1246,682.2412,"[[99.6,2250],[89.9,2333],[84.2,2416],[77.1,2500],[65.2,2583],[53.5,2666],[49.4,2750],[49.3,2833],[49,2916],[49,2999],[49,3083],[49,3166],[49,3250],[48.5,3333],[38.2,3416],[13,3500],[1.8,6916],[21.8,7000],[45.2,7083],[60.4,7166],[67.2,7250],[70.4,7333],[72.2,7416],[76.5,7500],[81.3,7583],[85.6,7666],[90.1,7750],[94.5,7833],[97.3,7916],[98.8,7999],[99.6,8083],[100,8166],[100,8250],[100,8333],[100,8416],[100,8500],[100,8583],[100,8666],[100,8750],[100,8833],[100,8916],[100,8999],[100,9083],[100,9166],[100,9250],[100,9333],[100,9416],[100,9500],[100,9583],[100,9666],[100,9750],[100,9833],[100,9916],[100,9999],[100,10083]]",1,0,682.2412,696.5413,85.52083333,3.7765,"[{""rating"":85.52083333333333,""responseTime"":3.776499999999942}]",space,13.7772,,696.5413,Partially,50,696.5473,,,[],,0,11,11,11,1,audio/Narrative8Situation2.wav,audio/Narrative7Situation2.wav,audio/Narrative6Situation2.wav,audio/Narrative5Situation2.wav,3,3,3,3,,,,,,,,,,,,,,,,,,,,,,,,,,,,,,,,,,,,,,,
,,,,,,5a5e94a7eedc32000142cd08,2024-02-08_16h07.13.822,group3.1-3.2-social-tom,2023.2.2,Win32,59.52380952,65c5074098b851296ff0b7ed,65c5413db9c1cb009ea672c8,,,,,,,,,,,,,,,,,,,,,,,,,,,,,696.5473,1,audio/Narrative8Situation3.wav,700.558,,700.558,722.9412,"[[89.3,3166],[93.9,3249],[96.9,3333],[99.8,3416],[100,3499],[100,3583],[100,3666],[100,3749],[100,3833],[100,3916],[100,3999],[100,4083],[100,4166],[100,4249],[100,4333],[100,4416],[100,4499],[100,4583],[100,4666],[100,4749],[100,4833],[100,4916],[100,4999],[100,5083],[100,5166],[100,5249],[100,5333],[100,5416],[100,5499],[100,5583],[100,5666],[100,5749],[100,5833],[100,5916],[100,5999],[100,6083],[100,6166],[100,6249],[100,6333],[98.1,6416],[92.6,6499],[78.6,6583],[63.3,6666],[54.4,6749],[50.7,6833],[49.1,6916],[48.9,6999],[47.7,7083],[43,7166],[22.6,7249],[5.5,7333],[2.2,7416],[2.1,7499],[1.4,7583],[1.1,7666],[1.1,7749],[1.1,7833],[1,7916],[0.8,7999],[1.1,8083],[3.4,8166],[3.5,8249],[3.5,8333],[5.8,8416],[8.9,8500],[10.9,8583],[12,8666],[12.1,8749],[12.2,8833],[12.8,8916],[14.8,8999],[18.5,9083],[22.4,9166],[24.9,9249],[25.1,9333],[23.1,9416],[17.3,9499],[12.1,9583],[9.7,9666],[7.2,9749],[5.8,9833],[5,9916],[3.4,9999],[3,10083],[4.2,10166],[14.6,10249],[29.6,10333],[37.3,10416],[38.9,10499],[41.7,10583],[45.4,10666],[47.9,10749],[48.3,10833],[49,10916],[49.3,10999],[49.3,11083],[49.3,11166],[49.3,11249],[49.3,11333],[49.3,11416],[49.3,11499],[49.3,11583],[49.6,11666],[49.8,11749],[49.8,11832],[49.8,11916],[49.8,11999],[49.8,12083],[49.8,12166],[49.8,12249],[49.8,12332],[49.8,12416],[49.8,12499],[49.8,12583],[49.8,12666],[49.8,12749],[49.8,12833],[49.8,12916],[49.8,12999],[49.8,13083],[49.8,13166],[49.8,13249],[49.8,13332],[49.8,13416],[49.8,13499],[49.8,13583],[49.8,13666],[49.8,13749],[49.8,13833],[49.8,13916],[49.8,13999],[49.8,14083],[49.8,14166],[49.8,14249],[49.8,14333],[49.8,14416],[49.8,14499],[49.8,14583],[49.8,14666],[52.7,14749],[55.7,14833],[59.1,14916],[60.9,14999],[63,15083],[64.6,15166],[65.1,15249],[65.4,15333],[65.6,15416],[66,15499],[66,15583],[66,15666],[66,15749],[66,15833],[66,15916],[66,15999],[66,16082],[66,16166],[66,16249],[66,16333],[66,16416],[66.8,16499],[68.8,16583],[69.7,16666],[70.1,16749],[71.4,16833],[73.5,16916],[75.4,16999],[76.9,17083],[78.3,17166],[82.2,17249],[88.3,17333],[94.5,17416],[98.6,17499],[99.9,17583],[100,17666],[100,17749],[100,17833],[100,17916],[100,17999],[100,18083],[100,18166],[100,18249],[100,18333],[100,18416],[100,18499],[100,18583],[100,18666],[100,18749],[100,18833],[100,18916],[100,18999],[100,19083],[100,19166],[100,19249],[100,19333],[100,19416],[100,19499],[100,19583],[100,19666],[100,19749],[100,19833],[100,19916],[100,19999],[100,20082],[100,20166],[100,20249],[100,20332],[100,20416],[100,20499],[100,20582],[100,20666],[100,20749],[100,20833],[100,20916],[100,20999],[100,21082],[100,21166],[100,21249],[100,21333],[100,21416],[100,21499],[100,21582],[100,21666],[100,21749],[100,21832],[100,21916],[100,21999],[100,22082],[100,22166],[100,22249],[100,22333]]",1,0,722.9412,738.6744,85.10416667,14.9023,"[{""rating"":85.10416666666667,""responseTime"":14.902300000000764}]",space,15.1918,,738.6744,Definitely yes,100,738.6757,,,[],,0,12,12,12,1,audio/Narrative8Situation3.wav,audio/Narrative7Situation3.wav,audio/Narrative6Situation3.wav,audio/Narrative5Situation3.wav,4,8,5,3,,,,,,,,,,,,,,,,,,,,,,,,,,,,,,,,,,,,,,,
,,,,,,5a5e94a7eedc32000142cd08,2024-02-08_16h07.13.822,group3.1-3.2-social-tom,2023.2.2,Win32,59.52380952,65c5074098b851296ff0b7ed,65c5413db9c1cb009ea672c8,,,,,,,,,,,,,,,,,,,,,,,,,,,,,738.6758,1,audio/Narrative8Situation4.wav,741.691,,741.691,755.8577,"[[87,2499],[91.5,2583],[96.6,2666],[99.2,2749],[100,2833],[100,2916],[100,2999],[100,3083],[100,3166],[100,3249],[100,3333],[100,3416],[100,3499],[100,3583],[100,3666],[100,3750],[100,3833],[100,3916],[100,3999],[99.9,4083],[99.9,4166],[99.7,4250],[99.5,4333],[99.3,4416],[99.3,4500],[99.1,4583],[99,4666],[98.9,4750],[98.9,4833],[98.9,4916],[98.9,4999],[98.9,5083],[98.9,5166],[98.9,5249],[98.9,5333],[98.9,5416],[98.6,5499],[98.5,5583],[98.5,5666],[98.5,5750],[98.5,5833],[98.5,5916],[98.5,5999],[98.5,6083],[98.5,6167],[98.5,6250],[98.2,6333],[97.6,6416],[96,6499],[93.9,6583],[91.9,6666],[89.2,6750],[85.3,6833],[81.6,6916],[74.5,7000],[63.1,7083],[54.5,7166],[48.3,7250],[47.3,7333],[47.3,7416],[47.5,7500],[49.7,7583],[50.4,7666],[50.4,7750],[50.4,7833],[50.4,7916],[50.4,8016],[50.4,8099],[50.4,8183],[50.4,8266],[50.4,8349],[50.4,8433],[50.4,8516],[50.4,8600],[50.4,8683],[50.4,8766],[50.4,8849],[50.4,8933],[50.4,9016],[50.4,9099],[50.4,9183],[51.5,9266],[58.6,9350],[74,9433],[85.3,9516],[92.9,9599],[99.3,9683],[100,9766],[100,9850],[100,9933],[100,10016],[100,10099],[100,10183],[100,10266],[100,10350],[100,10433],[100,10516],[100,10599],[100,10683],[100,10766],[100,10850],[100,10933],[100,11016],[100,11100],[100,11183],[100,11266],[100,11349],[100,11433],[100,11516],[100,11599],[100,11683],[100,11766],[100,11849],[100,11933],[100,12016],[100,12100],[100,12183],[100,12266],[100,12350],[100,12433],[100,12516],[100,12599],[100,12683],[100,12766],[100,12849],[100,12933],[100,13016],[100,13099],[100,13183],[100,13266],[100,13349],[100,13432],[100,13516],[100,13600],[100,13683],[100,13766],[100,13849],[100,13933],[100,14016],[100,14099]]",1,0,755.8577,763.4743,99.58333333,4.3207,"[{""rating"":99.58333333333333,""responseTime"":4.320700000001125}]",space,7.0771,,763.4743,Partially,50,763.4756,,,[],,0,13,13,13,1,audio/Narrative8Situation4.wav,audio/Narrative7Situation4.wav,audio/Narrative6Situation4.wav,audio/Narrative5Situation4.wav,3,3,2,1,,,,,,,,,,,,,,,,,,,,,,,,,,,,,,,,,,,,,,,
,,,,,,5a5e94a7eedc32000142cd08,2024-02-08_16h07.13.822,group3.1-3.2-social-tom,2023.2.2,Win32,59.52380952,65c5074098b851296ff0b7ed,65c5413db9c1cb009ea672c8,,,,,,,,,,,,,,,,,,,,,,,,,,,,,763.4756,1,audio/Narrative8Situation5.wav,765.4909,,765.4909,773.7408,"[[98.2,1333],[98.2,1416],[98.2,1500],[98.2,1583],[98.2,1666],[98.1,1750],[98,1833],[98,1916],[98,1999],[98,2083],[98,2166],[98,2250],[98,2333],[97.8,2416],[96.7,2500],[90.7,2583],[82.8,2666],[89.6,3166],[92.9,3250],[94.4,3333],[96.1,3416],[98.2,3500],[98.9,3583],[99.3,3666],[99.5,3750],[99.5,3833],[99.5,3916],[99.5,4000],[99.5,4083],[99.5,4166],[99.5,4249],[99.5,4333],[99.5,4416],[99.5,4499],[99.3,4583],[99.1,4666],[99,4749],[99,4833],[99,4916],[99,4999],[99,5083],[99,5166],[99,5250],[99,5333],[99,5416],[99,5500],[99,5583],[98.5,5666],[96.6,5750],[88.6,5833],[76.8,5916],[72.7,6000],[72,6083],[72.3,6166],[74.9,6250],[80.8,6333],[87.2,6416],[92.7,6499],[95.3,6583],[96.6,6666],[97.1,6750],[97.9,6833],[98.8,6916],[98.9,6999],[98.9,7083],[98.9,7166],[98.9,7249],[98.9,7333],[98.9,7416],[98.9,7499],[98.9,7583],[98.9,7666],[98.9,7749],[98.9,7832],[98.9,7916],[98.9,7999],[98.9,8083],[98.9,8166],[98.8,8249]]",1,0,773.7409,777.0575,99.375,2.3766,"[{""rating"":99.375,""responseTime"":2.3765999999995984}]",space,2.7718,,777.0575,Not at all,0,777.0588,,,[],,0,14,14,14,1,audio/Narrative8Situation5.wav,audio/Narrative7Situation5.wav,audio/Narrative6Situation5.wav,audio/Narrative5Situation5.wav,2,5,2,5,,,,,,,,,,,,,,,,,,,,,,,,,,,,,,,,,,,,,,,
,,,,,,5a5e94a7eedc32000142cd08,2024-02-08_16h07.13.822,group3.1-3.2-social-tom,2023.2.2,Win32,59.52380952,65c5074098b851296ff0b7ed,65c5413db9c1cb009ea672c8,,,,,,,,,,,,,,,,,,,,,,,,,,,,,777.059,1,audio/Narrative8Situation6.wav,779.0742,,779.0742,785.5575,"[[98.2,4583],[97.8,4666],[97.8,4749],[97.8,4833],[98.8,4916],[99.3,4999],[99.3,5083],[99.3,5166],[99.3,5249],[99.3,5333],[99.3,5416],[99.3,5499],[99.3,5583],[99.3,5666],[99.3,5749],[99.3,5833],[99.3,5916],[99.3,5999],[99.3,6083],[99.3,6166],[99.3,6249],[99.3,6332],[99.3,6416]]",1,0,785.5576,795.0074,98.85416667,1.5258,"[{""rating"":98.85416666666667,""responseTime"":1.525799999998867}]",space,8.9061,,795.0074,Partially,50,795.0133,,,[],,0,15,15,15,1,audio/Narrative8Situation6.wav,audio/Narrative7Situation6.wav,audio/Narrative6Situation6.wav,audio/Narrative5Situation6.wav,2,3,2,3,,,,,,,,,,,,,,,,,,,,,,,,,,,,,,,,,,,,,,,
,,,,,,5a5e94a7eedc32000142cd08,2024-02-08_16h07.13.822,group3.1-3.2-social-tom,2023.2.2,Win32,59.52380952,65c5074098b851296ff0b7ed,65c5413db9c1cb009ea672c8,,,,,,,,,,,,,,,,,,,,,,,,,,,,,795.0134,1,audio/Narrative8Situation7.wav,798.0241,,798.0241,810.124,"[[999,4],[999,83],[999,166],[999,249],[999,333],[999,416],[999,499],[999,583],[999,666],[999,749],[999,833],[999,916],[999,999],[999,1083],[999,1166],[999,1249],[999,1333],[999,1416],[999,1499],[999,1583],[999,1666],[999,1749],[999,1833],[999,1916],[999,1999],[999,2083],[999,2166],[999,2249],[999,2333],[999,2416],[999,2500],[78.9,2583],[85.1,2666],[88.8,2750],[91.7,2833],[93.6,2916],[95.9,3000],[97.5,3083],[98.6,3166],[100,3250],[100,3333],[100,3416],[100,3499],[100,3583],[100,3666],[100,3749],[100,3833],[100,3916],[100,3999],[100,4083],[100,4166],[100,4249],[100,4333],[100,4416],[100,4499],[100,4583],[100,4666],[100,4749],[100,4833],[100,4916],[100,4999],[100,5083],[100,5166],[100,5249],[100,5333],[100,5416],[100,5499],[100,5583],[100,5666],[100,5749],[100,5833],[100,5916],[100,5999],[100,6083],[100,6166],[100,6249],[100,6333],[100,6416],[100,6499],[100,6583],[100,6666],[100,6749],[100,6833],[100,6916],[100,6999],[100,7083],[100,7166],[100,7249],[100,7333],[100,7416],[100,7499],[100,7583],[100,7666],[100,7750],[100,7833],[100,7916],[100,7999],[100,8083],[100,8166],[100,8250],[100,8333],[100,8416],[100,8500],[100,8583],[100,8666],[100,8749],[100,8833],[100,8916],[100,8999],[100,9083],[100,9166],[100,9249],[100,9333],[100,9416],[100,9499],[100,9583],[100,9666],[100,9749],[100,9833],[99,9916],[98.8,10000],[98.3,10083],[98,10166],[97.9,10249],[97.9,10333],[97.9,10416],[97.8,10499],[97.6,10583],[97.2,10666],[97,10749],[97,10833],[97,10916],[97.5,10999],[98.6,11083],[99.4,11166],[100,11249],[100,11333],[100,11416],[100,11499],[100,11583],[100,11666],[100,11749],[100,11833],[100,11916],[100,11999],[100,12083]]",1,0,810.1241,816.3571,100,2.0374,"[{""rating"":100,""responseTime"":2.0373999999984562}]",space,5.6905,,816.3572,Not at all,0,816.3631,,,[],,0,16,16,16,1,audio/Narrative8Situation7.wav,audio/Narrative7Situation7.wav,audio/Narrative6Situation7.wav,audio/Narrative5Situation7.wav,3,5,5,4,,,,,,,,,,,,,,,,,,,,,,,,,,,,,,,,,,,,,,,
,,,,,,5a5e94a7eedc32000142cd08,2024-02-08_16h07.13.822,group3.1-3.2-social-tom,2023.2.2,Win32,59.52380952,65c5074098b851296ff0b7ed,65c5413db9c1cb009ea672c8,,,,,,,,,,,,,,,,,,,,,,,,,,,,,816.3632,1,audio/Narrative8Situation8.wav,819.3739,,819.3739,832.2239,"[[91.3,2083],[89.8,2166],[3,2916],[0.9,3000],[0.3,3083],[0.2,3166],[2.2,5416],[10.9,5499],[12.4,5583],[12.4,5666],[11.5,5749],[8.8,5833],[7.6,5916],[5.9,5999],[4.2,6083],[2.9,6166],[2.6,6249],[2.6,6333],[2.6,6416],[3.2,6499],[4.4,6583],[6,6666],[9.7,6750],[15.3,6833],[24.4,6916],[36.3,7000],[44.4,7083],[45.9,7166],[45.9,7250],[45.9,7333],[45.9,7416],[46.5,7499],[47.1,7583],[47.7,7666],[47.9,7749],[47.9,7833],[47.9,7916],[48,7999],[48.2,8083],[48.3,8166],[48.9,8250],[49.1,8333],[49.1,8416],[49.1,8499],[49.1,8583],[49.1,8666],[49.1,8750],[49.1,8833],[49.1,8916],[49.5,8999],[53.1,9083],[58.5,9166],[63.6,9250],[68.4,9333],[72.7,9416],[76.8,9500],[79.7,9583],[81.3,9666],[83.2,9750],[84.8,9833],[84.9,9916],[84.9,10000],[85.5,10083],[87.1,10166],[88.3,10250],[90.4,10333],[90.7,10416],[90.7,10499],[90.7,10583],[90.7,10666],[90.7,10750],[90.7,10833],[90.7,10916],[90.7,10999],[90.7,11083],[90.7,11166],[90.7,11250],[90.7,11333],[90.7,11416],[90.7,11500],[90.7,11583],[90.7,11666],[90.7,11749],[90.7,11833],[90.7,11916],[90.7,11999],[90.7,12083],[90.7,12166],[90.7,12250],[90.7,12333],[90.7,12416],[90.7,12500],[90.7,12583],[90.7,12666],[90.7,12750],[90.7,12833]]",1,0,832.2239,836.8905,50.20833333,2.764,"[{""rating"":50.208333333333336,""responseTime"":2.76400000000001}]",space,4.1207,,836.8906,Partially,50,836.8918,,,[],,0,17,17,17,1,audio/Narrative8Situation8.wav,audio/Narrative7Situation8.wav,audio/Narrative6Situation8.wav,audio/Narrative5Situation8.wav,3,2,5,3,,,,,,,,,,,,,,,,,,,,,,,,,,,,,,,,,,,,,,,
,,,,,,5a5e94a7eedc32000142cd08,2024-02-08_16h07.13.822,group3.1-3.2-social-tom,2023.2.2,Win32,59.52380952,65c5074098b851296ff0b7ed,65c5413db9c1cb009ea672c8,,,,,,,,,,,,,,,,,,,,,,,,,,,,,836.8919,1,audio/Narrative8Situation9.wav,839.907,,839.907,851.2405,"[[999,4],[999,83],[999,166],[999,250],[999,333],[999,416],[999,499],[999,583],[999,666],[999,750],[999,833],[999,916],[999,999],[999,1083],[999,1166],[999,1250],[999,1333],[999,1416],[999,1499],[999,1583],[999,1666],[999,1750],[999,1833],[999,1916],[999,1999],[999,2083],[999,2166],[999,2250],[999,2333],[999,2416],[999,2500],[999,2583],[999,2667],[999,2750],[999,2833],[999,2916],[999,3000],[999,3083],[999,3166],[999,3250],[999,3333],[999,3416],[999,3499],[999,3583],[999,3666],[999,3750],[999,3833],[999,3916],[999,4000],[999,4083],[999,4166],[71.4,4250],[75.8,4333],[79.6,4416],[83.4,4500],[89.6,4583],[95.6,4666],[96.9,4750],[97.4,4833],[98.5,4916],[98.6,5000],[98.6,5083],[98.6,5166],[98.6,5250],[98.6,5333],[98.6,5416],[98.6,5500],[98.6,5583],[98.6,5666],[98.6,5750],[98.6,5833],[98.6,5916],[98.6,6000],[98.6,6083],[98.6,6166],[98.6,6250],[98.6,6333],[98.6,6416],[98.6,6500],[98.6,6583],[98.6,6666],[98.6,6750],[98.6,6833],[98.6,6916],[98.6,7000],[98.6,7083],[98.6,7166],[98.6,7250],[98.6,7333],[98.6,7416],[98.6,7500],[98.6,7583],[98.6,7666],[98.6,7750],[98.6,7833],[98.6,7917],[98.6,8000],[98.6,8083],[98.6,8166],[97.3,8250],[94.8,8333],[93.5,8416],[90.1,8499],[75.9,8583],[60.5,8666],[55,8749],[51.4,8833],[48.5,8916],[48.5,8999],[48.5,9083],[49.6,9166],[49.9,9249],[49.9,9333],[49.9,9416],[49.9,9500],[51.7,9583],[59.7,9666],[73,9749],[81.5,9833],[84.4,9916],[85.3,10000],[85.4,10083],[85.4,10166],[85.4,10250],[85.4,10333],[85.4,10416],[85.4,10500],[85.5,10583],[85.8,10666],[85.9,10750],[85.9,10833],[85.9,10916],[85.9,11000],[85.9,11083],[84.6,11166],[83.1,11249],[81.7,11333]]",1,0,851.2405,853.6571,78.64583333,0.7038,"[{""rating"":78.64583333333333,""responseTime"":0.7037999999988642}]",space,1.8775,,853.6571,Partially,50,874.9736,49.58333333,16.7013,"[{""rating"":49.583333333333336,""responseTime"":16.701299999998923}]",space,0,18,18,18,1,audio/Narrative8Situation9.wav,audio/Narrative7Situation9.wav,audio/Narrative6Situation9.wav,audio/Narrative5Situation9.wav,3,2,4,3,,,20.7888,,,,,,,,,,,,,,,,,,,,,,,,,,,,,,,,,,,,
,,,,,,5a5e94a7eedc32000142cd08,2024-02-08_16h07.13.822,group3.1-3.2-social-tom,2023.2.2,Win32,59.52380952,65c5074098b851296ff0b7ed,65c5413db9c1cb009ea672c8,,,,,,,,,,,,,,,,,,,,,,,,,,,884.8449,887.4236,887.4292,2,audio/Narrative13Situation2.wav,887.4292,,887.4292,917.1734,"[[999,0],[999,77],[999,160],[999,244],[999,327],[999,411],[999,494],[999,577],[999,661],[999,744],[999,827],[999,911],[999,994],[999,1077],[999,1161],[999,1244],[999,1327],[999,1411],[999,1494],[999,1577],[999,1661],[999,1744],[999,1827],[999,1911],[999,1994],[999,2077],[999,2161],[999,2244],[999,2327],[999,2411],[999,2494],[999,2577],[999,2660],[999,2744],[999,2827],[999,2911],[999,2994],[999,3077],[999,3161],[999,3244],[999,3327],[999,3411],[999,3494],[999,3577],[999,3661],[999,3744],[999,3827],[999,3911],[999,3994],[999,4077],[999,4160],[999,4244],[999,4327],[999,4411],[999,4494],[999,4577],[4.8,4660],[2.2,4744],[0.5,4827],[0.2,4910],[0.2,4994],[0.2,5077],[1.8,7827],[2.3,7910],[2.7,7994],[10.1,8077],[43.8,8161],[84.5,8244],[100,8327],[100,8410],[100,8494],[100,8577],[100,8661],[100,8744],[100,8827],[100,8910],[100,8994],[100,9077],[100,9161],[100,9244],[100,9327],[100,9411],[100,9494],[100,9577],[100,9660],[100,9744],[100,9827],[100,9910],[100,9994],[100,10077],[100,10160],[100,10244],[100,10327],[100,10411],[100,10494],[100,10577],[100,10661],[100,10744],[100,10827],[100,10910],[100,10994],[100,11077],[100,11161],[100,11244],[98.5,11327],[96.5,11411],[94.1,11494],[91.8,11577],[90.2,11661],[88.2,11744],[86.3,11827],[85,11911],[84.1,11994],[83.3,12077],[82.3,12160],[81.5,12244],[81.3,12327],[81,12411],[80.6,12494],[79.9,12577],[78.4,12660],[76,12744],[71.9,12827],[67.2,12910],[62.8,12994],[59.4,13077],[57.5,13160],[56.6,13244],[57,13327],[60.4,13410],[64.3,13494],[64.8,13577],[63.4,13660],[59.1,13744],[53,13827],[51.9,13910],[51.7,13994],[51.7,14077],[51.5,14160],[51.5,14244],[51.5,14327],[51.3,14411],[50.8,14494],[50.8,14577],[50.7,14660],[50.7,14744],[50.7,14827],[50.6,14911],[50.5,14994],[50.1,15077],[50.1,15160],[50.1,15244],[50.1,15327],[50.1,15410],[50.1,15494],[50.1,15577],[50.1,15661],[50.1,15744],[50.1,15827],[50.1,15910],[50.1,15994],[50.1,16077],[50.1,16160],[50.1,16244],[50.1,16327],[50.1,16410],[50.1,16494],[50.1,16577],[49.2,16660],[47.8,16744],[46.3,16827],[44.7,16910],[42.5,16994],[40.9,17077],[40,17160],[38.4,17244],[35.3,17327],[31.1,17410],[25.2,17494],[18.1,17577],[9.6,17660],[2.6,17744],[0.9,17827],[0.2,17910],[0.2,18910],[0.4,18994],[2.6,19077],[12.3,19161],[30.4,19244],[46.3,19327],[51.8,19410],[51.8,19494],[51.8,19577],[51.4,19661],[50.8,19744],[50.8,19827],[50.8,19910],[50.8,19994],[50.8,20077],[50.8,20160],[50.8,20244],[50.8,20327],[50.8,20410],[50.8,20494],[50.6,20577],[50.5,20660],[50.5,20744],[50.5,20827],[50.5,20910],[50.5,20994],[50.5,21077],[50.5,21160],[50.5,21244],[50.5,21327],[50.5,21410],[50.5,21494],[50.5,21577],[50.5,21660],[50.5,21744],[50.5,21827],[50.5,21910],[50.5,21994],[50.4,22077],[50.4,22160],[50.4,22244],[50.3,22327],[50.3,22410],[50.3,22494],[50.3,22577],[50.3,22660],[50.3,22744],[50.1,22827],[42.6,22911],[27.1,22994],[10.8,23077],[1.5,23161]]",1,0,917.1735,917.1785,,,[],,,,917.1785,Partially,50,917.1789,,,[],,0,0,0,0,1,audio/Narrative13Situation2.wav,audio/Narrative13Situation2.wav,audio/Narrative13Situation2.wav,audio/Narrative13Situation2.wav,2,2,2,2,,,,,874.9783,884.8406,space,9.3441,,,,,,,,,,,,,,,,,,,,,,,,,,,,,,,
,,,,,,5a5e94a7eedc32000142cd08,2024-02-08_16h07.13.822,group3.1-3.2-social-tom,2023.2.2,Win32,59.52380952,65c5074098b851296ff0b7ed,65c5413db9c1cb009ea672c8,,,,,,,,,,,,,,,,,,,,,,,,,,,,,917.179,2,audio/Narrative5Situation1.wav,922.19,,922.19,935.49,"[[39.2,1166],[39.2,1250],[39.2,1333],[39,1416],[38.6,1500],[38.6,1583],[38.6,1666],[38.6,1750],[43,1833],[66.7,1916],[99.1,2333],[98.8,2416],[99.1,2500],[99.1,2583],[99.1,2666],[99.1,2750],[100,2833],[100,2916],[100,2999],[100,3083],[100,3166],[100,3250],[100,3333],[100,3416],[100,3499],[100,3583],[100,3666],[100,3750],[100,3833],[100,3916],[100,3999],[99.9,4083],[99.8,4166],[99.7,4250],[99.5,4333],[99.5,4416],[99.5,4500],[99.5,4583],[99.5,4666],[99.5,4749],[99.5,4833],[99.5,4916],[99.5,4999],[99.5,5083],[99.5,5166],[99.5,5250],[99.5,5333],[99.5,5416],[99.5,5500],[99.5,5583],[99.5,5666],[99.5,5750],[99.5,5833],[99.5,5916],[99.5,6000],[99.5,6083],[99.5,6166],[99.5,6249],[99.5,6333],[98.1,6416],[91.7,6500],[78.8,6583],[65.9,6666],[61.5,6749],[60.3,6833],[58.5,6916],[56.3,7000],[53.1,7083],[48.6,7166],[36.7,7249],[16.8,7333],[4.1,7416]]",1,0,935.49,941.3399,67.08333333,4.7973,"[{""rating"":67.08333333333334,""responseTime"":4.797299999998927}]",space,5.3004,,941.3399,Definitely yes,100,941.3412,,,[],,0,1,1,1,1,audio/Narrative7Situation1.wav,audio/Narrative8Situation1.wav,audio/Narrative5Situation1.wav,audio/Narrative6Situation1.wav,2,5,5,2,,,,,,,,,,,,,,,,,,,,,,,,,,,,,,,,,,,,,,,
,,,,,,5a5e94a7eedc32000142cd08,2024-02-08_16h07.13.822,group3.1-3.2-social-tom,2023.2.2,Win32,59.52380952,65c5074098b851296ff0b7ed,65c5413db9c1cb009ea672c8,,,,,,,,,,,,,,,,,,,,,,,,,,,,,941.3413,2,audio/Narrative5Situation2.wav,944.3567,,944.3567,973.8231,"[[66.3,166],[66.3,249],[66.1,333],[66.1,416],[66,499],[65.9,583],[65.6,666],[65.6,749],[65.6,833],[65.6,916],[65.6,999],[65.5,1083],[63.9,1166],[59.8,1249],[51.1,1333],[44.1,1416],[39.4,1499],[25.3,1583],[3.6,1666],[0.3,15499],[0.8,15583],[1.3,15666],[2.5,15749],[4.7,15833],[6.9,15916],[7.8,15999],[7.8,16083],[7.8,16166],[7.8,16249],[7.8,16333],[8.1,16416],[11.1,16499],[17.7,16583],[22.9,16666],[28.6,16749],[35,16833],[39.5,16916],[42.2,16999],[44.8,17083],[46.8,17166],[48.5,17249],[49.6,17332],[49.8,17416],[50,17499],[50.1,17583],[50.1,17666],[50.1,17749],[50.1,17832],[50.1,17916],[50.1,17999],[50.1,18083],[50.1,18166],[50.1,18249],[50.1,18332],[50.1,18416],[50.1,18499],[50.1,18583],[50.1,18666],[50.1,18749],[50.1,18832],[50.1,18916],[50.1,18999],[50.1,19083],[50.1,19166],[50.1,19249],[50.1,19332],[50.1,19416],[50.1,19499],[49.8,19582],[49.7,19666],[49.6,19749],[49.4,19832],[49.4,19916],[49.4,19999],[49.4,20083],[49.3,20166],[49.3,20249],[49.3,20332],[49.3,20416],[49.3,20499],[49.3,20583],[49.3,20666],[49.3,20749],[49.2,20832],[48.9,20916],[48.4,20999],[47.8,21083],[47.5,21166],[47.5,21249],[47.5,21333],[47.5,21416],[47.5,21499],[47.5,21583],[47.5,21666],[47.5,21749],[47.5,21832],[47.5,21916],[48,21999],[49.1,22083],[50.1,22166],[50.7,22249],[52.9,22333],[100,22666],[100,22749],[100,22833],[100,22916],[100,22999],[100,23082],[100,23166],[100,23249],[100,23333],[100,23416],[100,23499],[100,23582],[100,23666],[100,23749],[100,23833],[100,23916],[100,23999],[100,24083],[100,24166],[100,24249],[100,24332],[100,24416],[100,24499],[100,24583],[100,24666],[100,24749],[100,24832],[100,24916],[100,24999],[100,25083],[100,25166],[100,25249],[100,25332],[100,25416],[100,25499],[100,25582],[100,25666],[100,25749],[100,25832],[100,25916],[100,25999],[100,26082],[100,26166],[100,26249],[100,26332],[100,26416],[100,26499],[100,26582],[100,26666],[100,26749],[100,26832],[100,26916],[100,26999],[100,27082],[100,27166],[99.8,27249],[99.8,27332],[99.8,27416],[99.8,27499],[99.8,27582],[99.8,27666],[99.8,27749],[99.8,27832],[99.8,27916],[99.5,27999],[99.2,28082],[99,28166],[98.9,28249],[98.9,28332],[98.9,28416],[99.4,28499],[100,28582],[100,28666],[100,28749],[100,28832],[100,28916],[100,28999],[100,29082],[100,29166],[100,29249],[100,29333],[100,29416]]",1,0,973.8233,977.5063,25.41666667,1.8699,"[{""rating"":25.416666666666664,""responseTime"":1.8699000000003707}]",space,3.1356,,977.5064,Partially,50,977.5077,,,[],,0,2,2,2,1,audio/Narrative7Situation2.wav,audio/Narrative8Situation2.wav,audio/Narrative5Situation2.wav,audio/Narrative6Situation2.wav,3,3,3,3,,,,,,,,,,,,,,,,,,,,,,,,,,,,,,,,,,,,,,,
,,,,,,5a5e94a7eedc32000142cd08,2024-02-08_16h07.13.822,group3.1-3.2-social-tom,2023.2.2,Win32,59.52380952,65c5074098b851296ff0b7ed,65c5413db9c1cb009ea672c8,,,,,,,,,,,,,,,,,,,,,,,,,,,,,977.5077,2,audio/Narrative5Situation3.wav,980.5229,,980.5229,994.4395,"[[999,4],[999,83],[999,166],[999,250],[999,333],[999,416],[999,499],[999,583],[999,666],[999,750],[999,833],[999,916],[999,999],[999,1083],[999,1166],[999,1250],[999,1333],[999,1416],[999,1499],[999,1583],[999,1666],[999,1750],[999,1833],[999,1916],[999,2000],[999,2083],[999,2166],[999,2250],[999,2333],[999,2416],[999,2500],[999,2583],[999,2666],[999,2750],[999,2833],[999,2916],[999,2999],[999,3083],[999,3166],[999,3250],[58.8,3333],[62.1,3416],[65.4,3500],[71.6,3583],[83,3666],[96,3750],[100,3833],[100,3916],[100,3999],[100,4083],[100,4166],[100,4250],[100,4333],[100,4416],[100,4500],[100,4583],[100,4666],[100,4750],[100,4833],[100,4916],[100,5000],[100,5083],[100,5166],[100,5250],[100,5333],[100,5416],[100,5500],[100,5583],[100,5666],[100,5750],[100,5833],[100,5916],[100,6000],[100,6083],[100,6166],[100,6250],[100,6333],[100,6416],[100,6500],[100,6583],[100,6666],[100,6750],[100,6833],[100,6916],[100,7000],[100,7083],[100,7166],[100,7250],[100,7333],[100,7416],[100,7500],[100,7583],[100,7666],[100,7750],[100,7833],[99.9,7916],[99.9,8000],[99.9,8083],[99.9,8166],[99.9,8249],[99.9,8333],[99.9,8416],[99.9,8500],[99.9,8583],[99.9,8666],[99.9,8749],[99.9,8833],[99.9,8916],[99.9,9000],[99.9,9083],[99.9,9166],[99.9,9249],[99.9,9333],[100,9416],[100,9500],[100,9583],[100,9666],[100,9749],[100,9833],[100,9916],[100,10000],[100,10083],[100,10166],[100,10249],[100,10333],[100,10416],[100,10500],[100,10583],[100,10666],[100,10750],[100,10833],[100,10916],[100,10999],[100,11083],[100,11166],[100,11250],[100,11333],[100,11416],[100,11500],[100,11583],[100,11666],[100,11750],[100,11833],[100,11916],[100,12000],[100,12083],[100,12166],[100,12250],[100,12333],[100,12416],[100,12500],[100,12583],[100,12666],[100,12750],[100,12833],[100,12916],[100,13000],[100,13083],[100,13166],[100,13250],[100,13333],[100,13416],[100,13500],[99.4,13583],[97.5,13666],[96.9,13750],[96.9,13833],[97.7,13916]]",1,0,994.4396,997.3897,100,1.5495,"[{""rating"":100,""responseTime"":1.5494999999999663}]",space,2.4,,997.3897,Definitely yes,100,997.3913,,,[],,0,3,3,3,1,audio/Narrative7Situation3.wav,audio/Narrative8Situation3.wav,audio/Narrative5Situation3.wav,audio/Narrative6Situation3.wav,8,4,3,5,,,,,,,,,,,,,,,,,,,,,,,,,,,,,,,,,,,,,,,
,,,,,,5a5e94a7eedc32000142cd08,2024-02-08_16h07.13.822,group3.1-3.2-social-tom,2023.2.2,Win32,59.52380952,65c5074098b851296ff0b7ed,65c5413db9c1cb009ea672c8,,,,,,,,,,,,,,,,,,,,,,,,,,,,,997.3914,2,audio/Narrative5Situation4.wav,998.4063,,998.4063,1018.8062,"[[999,0],[999,83],[999,166],[999,249],[999,333],[999,416],[999,500],[999,583],[999,666],[999,750],[999,833],[999,916],[999,1000],[999,1083],[999,1166],[999,1249],[999,1333],[999,1416],[999,1499],[999,1583],[999,1666],[999,1749],[999,1833],[999,1916],[999,1999],[999,2083],[999,2166],[999,2250],[13.9,2333],[0.2,9249],[14,9333],[38.2,9416],[60.1,9499],[93.3,9999],[96.9,10083],[98.2,10166],[98.2,10249],[98.2,10333],[98.3,10416],[98.8,10500],[99.2,10583],[99.6,10666],[99.6,10749],[99.6,10833],[99.6,10916],[99.6,10999],[99.7,11083],[99.7,11166],[99.7,11249],[99.7,11333],[99.7,11416],[99.7,11500],[99.7,11583],[99.7,11666],[99.7,11749],[99.7,11833],[99.7,11916],[99.7,11999],[99.7,12083],[99.7,12166],[99.7,12249],[99.7,12333],[99.7,12416],[99.7,12499],[99.7,12583],[99.7,12666],[99.7,12749],[99.7,12833],[99.7,12916],[99.7,12999],[99.7,13083],[99.7,13166],[99.7,13249],[99.7,13333],[99.7,13416],[99.7,13499],[99.7,13583],[99.7,13666],[99.7,13749],[99.7,13833],[99.7,13916],[99.7,13999],[99.7,14083],[99.7,14166],[99.7,14249],[99.7,14333],[99.7,14416],[99.7,14499],[99.7,14583],[99.7,14666],[99.7,14749],[99.7,14833],[99.7,14916],[99.7,14999],[99.7,15083],[99.7,15166],[99.7,15249],[99.7,15333],[99.7,15416],[99.7,15499],[99.7,15583],[99.7,15666],[99.7,15749],[99.7,15833],[99.7,15916],[99.7,15999],[99.7,16083],[99.7,16166],[99.7,16249],[99.7,16333],[99.7,16416],[99.7,16499],[99.4,16583],[99.2,16666],[99.1,16749],[99.1,16833],[99.2,16916],[99.4,16999],[99.4,17083],[99.5,17166],[99.5,17249],[99.5,17333],[99.5,17416],[99.9,17499],[100,17583],[100,17666],[100,17749],[100,17833],[100,17916],[100,17999],[100,18083],[100,18166],[100,18249],[100,18333],[100,18416],[100,18499],[100,18583],[100,18666],[100,18749],[100,18833],[100,18916],[100,18999],[100,19083],[100,19166],[100,19249],[100,19333],[100,19416],[100,19499],[100,19583],[100,19666],[100,19749],[100,19833],[100,19916],[100,19999],[100,20083],[100,20166],[100,20249],[100,20333]]",1,0,1018.8063,1023.5561,73.33333333,3.5918,"[{""rating"":73.33333333333334,""responseTime"":3.5918000000008306}]",space,4.207,,1023.5561,Partially,50,1023.5572,,,[],,0,4,4,4,1,audio/Narrative7Situation4.wav,audio/Narrative8Situation4.wav,audio/Narrative5Situation4.wav,audio/Narrative6Situation4.wav,3,3,1,2,,,,,,,,,,,,,,,,,,,,,,,,,,,,,,,,,,,,,,,
,,,,,,5a5e94a7eedc32000142cd08,2024-02-08_16h07.13.822,group3.1-3.2-social-tom,2023.2.2,Win32,59.52380952,65c5074098b851296ff0b7ed,65c5413db9c1cb009ea672c8,,,,,,,,,,,,,,,,,,,,,,,,,,,,,1023.5573,2,audio/Narrative5Situation5.wav,1028.5728,,1028.5728,1044.0059,"[[72.2,1916],[66.7,1999],[58.3,2083],[54,2166],[49.9,2250],[48.8,2333],[48.8,2416],[48.8,2499],[49,2583],[49.1,2666],[49.1,2750],[48.5,2833],[36.5,2916],[10.2,3000],[8.4,3333],[39.7,3416],[66.3,3500],[70.4,3583],[70.4,3666],[70.2,3750],[62.6,3833],[55.1,3916],[54.6,3999],[54,4083],[52.7,4166],[52.7,4249],[52.1,4333],[52,4416],[51.9,4499],[51.9,4583],[51.7,4666],[51.6,4749],[51.3,4833],[51.3,4916],[51.3,5000],[51.1,5083],[50.5,5166],[50.3,5249],[50.3,5333],[50.3,5416],[50.3,5500],[50.3,5583],[50.3,5666],[50.3,5749],[50.3,5833],[50.3,5916],[50.3,6000],[50.3,6083],[50.3,6166],[50.3,6249],[50.3,6333],[50.3,6416],[50.3,6499],[50.3,6583],[50.3,6666],[50.3,6749],[50.3,6833],[50.3,6916],[50.3,6999],[50.3,7083],[50.3,7166],[50.3,7249],[50.3,7333],[50.3,7416],[50.3,7499],[50.3,7583],[50.3,7666],[50.3,7749],[50.3,7833],[50.3,7916],[50.3,7999],[50.3,8083],[50.3,8166],[50.3,8249],[50.3,8333],[50.3,8416],[50.3,8499],[50.3,8583],[50.3,8666],[50.3,8749],[50.3,8833],[50.3,8916],[50.3,8999],[50.3,9083],[50.3,9166],[50.3,9249],[50.3,9333],[50.3,9416],[50.3,9499],[50.3,9583],[50.3,9666],[50.3,9749],[50.3,9833],[50.3,9916],[50.3,9999],[50.3,10083],[50.3,10166],[50.3,10250],[50.3,10333],[50.3,10416],[50.3,10499],[50.3,10583],[50.3,10666],[50.3,10749],[50.3,10833],[50.3,10916],[50.3,10999],[50.3,11083],[50.3,11166],[50.3,11249],[50.3,11333],[50.3,11416],[50.3,11499],[50.3,11583],[50.3,11666],[50.3,11749],[50.3,11833],[50.3,11916],[50.3,11999],[50.3,12083],[50.3,12166],[50.3,12249],[50.3,12333],[50.3,12416],[50.3,12499],[50.3,12583],[50.3,12666],[50.7,12749],[51,12833],[51.3,12916],[51.5,12999],[51.5,13083],[51.5,13166],[51.5,13249],[51.5,13333],[51.5,13416],[51.5,13500],[51.5,13583],[49.3,13666],[40.7,13749],[28.6,13833],[17,13916],[9.9,13999],[5.2,14083],[3.6,14166],[2.4,14250],[1.7,14333],[1.5,14416],[1.1,14499],[1,14583],[1,14666],[1,14749],[1,14833],[1,14916],[1,14999],[1,15082],[1,15166],[1,15249],[1,15333],[1,15416]]",1,0,1044.006,1045.9727,14.47916667,0.93,"[{""rating"":14.479166666666664,""responseTime"":0.9300000000000637}]",space,1.4428,,1045.9728,Definitely yes,100,1045.974,,,[],,0,5,5,5,1,audio/Narrative7Situation5.wav,audio/Narrative8Situation5.wav,audio/Narrative5Situation5.wav,audio/Narrative6Situation5.wav,5,2,5,2,,,,,,,,,,,,,,,,,,,,,,,,,,,,,,,,,,,,,,,
,,,,,,5a5e94a7eedc32000142cd08,2024-02-08_16h07.13.822,group3.1-3.2-social-tom,2023.2.2,Win32,59.52380952,65c5074098b851296ff0b7ed,65c5413db9c1cb009ea672c8,,,,,,,,,,,,,,,,,,,,,,,,,,,,,1045.9742,2,audio/Narrative5Situation6.wav,1048.9893,,1048.9893,1054.6726,"[[999,0],[999,83],[999,166],[999,249],[999,333],[999,416],[999,500],[999,583],[999,666],[999,749],[999,833],[999,916],[999,1000],[999,1083],[999,1166],[999,1249],[999,1333],[999,1416],[999,1500],[999,1583],[999,1666],[999,1750],[999,1833],[999,1916],[999,2000],[999,2083],[75.2,2166],[94.7,2250],[100,2916],[100,3000],[100,3083],[100,3166],[100,3250],[100,3333],[100,3416],[100,3500],[99.9,3583],[99.6,3666],[99.6,3750],[99.6,3833],[99.6,3916],[99.6,4000],[99.6,4083],[99.8,4166],[100,4250],[100,4333],[100,4416],[100,4499],[100,4583],[100,4666],[100,4750],[100,4833],[100,4916],[100,5000],[100,5083],[100,5166],[100,5250],[100,5333],[100,5416],[100,5500],[100,5583],[100,5666]]",1,0,1054.6727,1057.0059,100,1.6073,"[{""rating"":100,""responseTime"":1.607299999998986}]",space,1.788,,1057.0059,Definitely yes,100,1057.0068,,,[],,0,6,6,6,1,audio/Narrative7Situation6.wav,audio/Narrative8Situation6.wav,audio/Narrative5Situation6.wav,audio/Narrative6Situation6.wav,3,2,3,2,,,,,,,,,,,,,,,,,,,,,,,,,,,,,,,,,,,,,,,
,,,,,,5a5e94a7eedc32000142cd08,2024-02-08_16h07.13.822,group3.1-3.2-social-tom,2023.2.2,Win32,59.52380952,65c5074098b851296ff0b7ed,65c5413db9c1cb009ea672c8,,,,,,,,,,,,,,,,,,,,,,,,,,,,,1057.0069,2,audio/Narrative5Situation7.wav,1061.0226,,1061.0226,1082.0725,"[[999,4],[999,83],[999,166],[999,249],[999,333],[999,416],[999,499],[999,583],[999,666],[999,749],[999,833],[999,916],[999,1000],[999,1083],[999,1166],[999,1249],[999,1333],[999,1416],[999,1500],[999,1583],[999,1666],[999,1750],[28.3,1833],[21.7,1916],[10.3,2000],[1.5,2083],[5.3,3666],[24.2,3750],[53.5,3833],[77,3916],[83.2,4000],[85,4083],[86.9,4166],[89.5,4250],[90.7,4333],[91.6,4416],[92.4,4500],[93.1,4583],[93.6,4666],[94.8,4749],[95.8,4833],[97,4916],[97.8,5000],[99.1,5083],[100,5166],[100,5249],[100,5333],[100,5416],[100,5499],[100,5583],[100,5666],[100,5750],[100,5833],[100,5916],[100,5999],[100,6083],[100,6166],[100,6249],[100,6332],[100,6416],[100,6499],[100,6583],[100,6666],[100,6749],[100,6832],[100,6916],[100,6999],[100,7083],[100,7166],[100,7249],[100,7333],[100,7416],[100,7499],[100,7583],[100,7666],[100,7749],[100,7833],[100,7916],[100,7999],[100,8083],[100,8166],[100,8249],[100,8333],[100,8416],[100,8499],[100,8583],[100,8666],[100,8749],[100,8833],[100,8916],[100,8999],[99.9,9083],[99.9,9166],[99.7,9250],[99,9333],[98.3,9416],[97.9,9500],[97.9,9583],[98.2,9666],[99.8,9750],[100,9833],[100,9916],[100,9999],[100,10083],[100,10166],[100,10249],[100,10333],[100,10416],[100,10499],[100,10583],[100,10666],[100,10749],[100,10833],[100,10916],[100,10999],[100,11083],[100,11166],[100,11250],[100,11333],[100,11416],[100,11499],[100,11583],[100,11666],[100,11749],[100,11833],[100,11916],[100,11999],[100,12083],[100,12166],[100,12249],[100,12333],[100,12416],[100,12499],[100,12583],[100,12666],[99.8,12750],[99.5,12833],[99.1,12916],[98.3,13000],[98.2,13083],[98.2,13166],[99.1,13249],[99.4,13333],[99.4,13416],[99.4,13499],[99.4,13583],[99.4,13666],[99.4,13749],[99.4,13833],[99.2,13916],[98.1,13999],[97.8,14083],[97.8,14166],[97.8,14249],[97.3,14333],[97,14416],[97,14499],[97,14583],[96.7,14666],[96.1,14749],[96,14833],[95.7,14916],[95.5,14999],[95.2,15083],[94.5,15166],[92.6,15250],[90.9,15333],[90.8,15416],[90.8,15500],[92.4,15583],[96.1,15666],[98.1,15749],[99,15833],[100,15916],[100,16000],[100,16083],[100,16166],[100,16249],[100,16333],[100,16416],[100,16499],[100,16583],[100,16666],[100,16749],[100,16833],[100,16916],[100,16999],[100,17083],[100,17166],[100,17249],[100,17333],[100,17416],[100,17499],[100,17583],[100,17666],[100,17750],[100,17833],[100,17916],[100,18000],[100,18083],[100,18166],[100,18249],[100,18333],[100,18416],[100,18499],[100,18583],[100,18666],[100,18749],[100,18833],[100,18916],[100,18999],[100,19083],[100,19166],[100,19249],[100,19333],[100,19416],[100,19499],[100,19583],[100,19666],[100,19749],[100,19833],[100,19916],[100,19999],[100,20083],[100,20166],[100,20249],[100,20333],[100,20416],[100,20499],[100,20583],[100,20666],[100,20749],[100,20833],[100,20916],[100,20999]]",1,0,1082.0726,1087.2558,100,4.1331,"[{""rating"":100,""responseTime"":4.133099999999558}]",space,4.6339,,1087.2558,Definitely yes,100,1087.2566,,,[],,0,7,7,7,1,audio/Narrative7Situation7.wav,audio/Narrative8Situation7.wav,audio/Narrative5Situation7.wav,audio/Narrative6Situation7.wav,5,3,4,5,,,,,,,,,,,,,,,,,,,,,,,,,,,,,,,,,,,,,,,
,,,,,,5a5e94a7eedc32000142cd08,2024-02-08_16h07.13.822,group3.1-3.2-social-tom,2023.2.2,Win32,59.52380952,65c5074098b851296ff0b7ed,65c5413db9c1cb009ea672c8,,,,,,,,,,,,,,,,,,,,,,,,,,,,,1087.2567,2,audio/Narrative5Situation8.wav,1090.2725,,1090.2725,1099.1056,"[[63.8,666],[63.8,749],[63.8,833],[63.8,916],[63.8,999],[63.8,1083],[63.8,1166],[63.8,1249],[63.8,1333],[63.8,1416],[63.8,1500],[63.8,1583],[63.8,1666],[63.8,1749],[63.8,1833],[63.8,1916],[63.8,1999],[63.8,2083],[60.2,2166],[51.9,2250],[48.8,2333],[47.2,2416],[48.1,2500],[51.7,2583],[55.4,2666],[59.5,2750],[64.3,2833],[69.2,2916],[73.1,3000],[76.1,3083],[78.3,3166],[81.1,3250],[84,3333],[87.3,3416],[87.9,3499],[88.1,3583],[89.1,3666],[89.5,3749],[89.5,3833],[89.5,3916],[89.5,3999],[89.5,4083],[89.5,4166],[89.5,4249],[89.5,4333],[89.5,4416],[89.5,4499],[89.5,4583],[89.5,4666],[89.5,4749],[89.5,4833],[89.5,4916],[89.5,4999],[89.5,5083],[89.5,5166],[89.5,5249],[89.5,5333],[88.2,5416],[82.3,5499],[73.8,5583],[67.3,5666],[66.7,5749],[66.7,5833],[66.6,5916],[66.1,5999],[65,6083],[64.9,6166],[64.9,6249],[64.9,6333],[64.9,6416],[64.9,6499],[65.2,6583],[66,6666],[70.4,6749],[79.8,6833],[86.7,6916],[88.1,6999],[88.1,7083],[88.8,7166],[90,7249],[90,7333],[90,7416],[90,7499],[90,7583],[90,7666],[90,7749],[90,7833],[90,7916],[90,7999],[90,8083],[90,8166],[90,8249],[90,8333],[90,8416],[90,8499],[90,8583],[90,8666],[90,8749],[90,8832]]",1,0,1099.1056,1102.1724,77.5,2.1993,"[{""rating"":77.5,""responseTime"":2.199299999998857}]",space,2.5336,,1102.1724,Definitely yes,100,1102.1731,,,[],,0,8,8,8,1,audio/Narrative7Situation8.wav,audio/Narrative8Situation8.wav,audio/Narrative5Situation8.wav,audio/Narrative6Situation8.wav,2,3,3,5,,,,,,,,,,,,,,,,,,,,,,,,,,,,,,,,,,,,,,,
,,,,,,5a5e94a7eedc32000142cd08,2024-02-08_16h07.13.822,group3.1-3.2-social-tom,2023.2.2,Win32,59.52380952,65c5074098b851296ff0b7ed,65c5413db9c1cb009ea672c8,,,,,,,,,,,,,,,,,,,,,,,,,,,,,1102.1733,2,audio/Narrative5Situation9.wav,1105.1891,,1105.1891,1144.7386,"[[77,2249],[71.8,2333],[56.8,2416],[0.8,3083],[2.6,3166],[3,3249],[8.2,3333],[25.6,3416],[47.6,3499],[57.6,3583],[58.3,3666],[57.9,3749],[55.7,3833],[55.1,3916],[54.7,3999],[53.3,4083],[52.8,4166],[52.8,4249],[52.8,4333],[52.4,4416],[49.6,4499],[45.3,4583],[43.6,4666],[43.6,4749],[43.6,4833],[43.6,4916],[43.6,4999],[43.6,5083],[43.6,5166],[43.6,5249],[43.6,5333],[43.6,5416],[43.8,5499],[44.3,5583],[44.6,5666],[44.7,5749],[44.7,5833],[44.7,5916],[44.7,5999],[44.7,6082],[44.7,6166],[44.7,6249],[44.7,6333],[42.5,6416],[42.3,6499],[44.3,6583],[48.2,6666],[51,6749],[52.6,6833],[54.6,6916],[57.6,6999],[61.6,7083],[65.9,7166],[68.1,7249],[69.3,7333],[69.5,7416],[69.5,7499],[69.5,7583],[69.5,7666],[72.7,7749],[79.9,7833],[85.7,7916],[90.3,7999],[95.2,8083],[98.6,8166],[99.1,8249],[99.1,8333],[99.1,8416],[99.1,8499],[99.1,8583],[99.1,8666],[100,8749],[100,8833],[100,8916],[100,8999],[100,9083],[100,9166],[100,9249],[100,9333],[100,9416],[100,9499],[100,9583],[100,9666],[100,9749],[100,9833],[100,9916],[100,9999],[100,10083],[100,10166],[100,10249],[100,10333],[100,10416],[100,10500],[99.9,10583],[98.1,10666],[95.4,10749],[93.9,10833],[93.1,10916],[91.9,10999],[90.9,11083],[89.9,11166],[88.3,11249],[86.7,11333],[82.4,11416],[75.6,11499],[69,11583],[65.2,11666],[60.1,11749],[54.1,11833],[52.7,11916],[52.7,11999],[51.9,12083],[50.6,12166],[50.5,12249],[50.2,12333],[50,12416],[49.9,12499],[49.9,12583],[49.9,12666],[49.9,12749],[49.9,12833],[49.9,12916],[49.9,12999],[49.9,13083],[49.9,13166],[49.9,13249],[49.9,13333],[49.9,13416],[49.9,13499],[49.9,13583],[49.9,13666],[49.9,13749],[49.9,13833],[49.9,13916],[49.9,13999],[49.9,14083],[49.9,14166],[49.9,14249],[49.9,14333],[49.9,14416],[49.9,14499],[49.9,14583],[49.9,14666],[49.9,14749],[49.9,14833],[49.9,14916],[49.9,14999],[49.9,15083],[49.9,15166],[49.9,15249],[49.9,15333],[49.9,15416],[49.9,15499],[49.9,15583],[49.9,15666],[49.9,15749],[49.9,15833],[49.9,15916],[49.9,15999],[49.9,16083],[49.9,16166],[49.9,16249],[48.8,16333],[43.5,16416],[39.1,16499],[38.8,16583],[37.9,16666],[37.8,16749],[39.2,16833],[46.7,16916],[56.6,16999],[62.2,17083],[63.6,17166],[65,17249],[69.3,17333],[72.4,17416],[73.1,17499],[73.5,17583],[73.8,17666],[73.9,17749],[73.9,17833],[73.9,17916],[73.9,17999],[73.9,18083],[73.9,18166],[73.9,18249],[73.9,18333],[73.8,18416],[73.6,18499],[73.4,18583],[73.2,18666],[73.1,18749],[73,18833],[73,18916],[73,18999],[72.8,19083],[72.8,19166],[72.6,19249],[72.6,19333],[72.5,19416],[72.4,19499],[72.4,19583],[72.4,19666],[72.4,19749],[72.4,19833],[72.4,19916],[72.4,19999],[72.4,20083],[72.4,20166],[72.4,20249],[72.7,20333],[73.6,20416],[74.7,20499],[75.7,20583],[76.1,20666],[76.3,20749],[77.1,20833],[79.2,20916],[82.3,20999],[86.5,21083],[90.3,21166],[93.5,21249],[97,21333],[98.8,21416],[99,21499],[99.1,21583],[99.1,21666],[98.6,21749],[94.5,21833],[92.3,21916],[90.2,21999],[87.5,22083],[85.9,22166],[84.7,22249],[82.2,22333],[80.3,22416],[79.1,22499],[78.6,22583],[78.6,22666],[78.1,22749],[77,22833],[76.4,22916],[75.8,22999],[75.4,23083],[74.8,23166],[74.8,23249],[74.8,23333],[74.9,23416],[75.1,23499],[75.2,23583],[75.4,23666],[75.4,23749],[75.4,23833],[75.5,23916],[76.3,23999],[76.5,24083],[76.5,24166],[76.8,24249],[78.3,24333],[81.1,24416],[83.6,24499],[84.3,24583],[84.7,24666],[85,24749],[85.7,24833],[88,24916],[90.5,24999],[93,25083],[96.4,25166],[98.3,25249],[100,25333],[100,25416],[100,25499],[100,25583],[100,25666],[100,25749],[100,25833],[100,25916],[100,25999],[100,26083],[100,26166],[100,26249],[100,26333],[100,26416],[100,26499],[100,26583],[100,26666],[100,26749],[100,26833],[100,26916],[100,26999],[99.9,27083],[99.9,27166],[99.9,27249],[99.9,27333],[99.9,27416],[99.7,27499],[99.7,27583],[99.7,27666],[99.7,27749],[99.7,27833],[99.7,27916],[99.7,27999],[99.7,28083],[99.7,28166],[99.6,28249],[99.5,28333],[99.4,28416],[99.3,28499],[99.3,28583],[99.3,28666],[99.3,28749],[99.3,28833],[99.3,28916],[99.3,28999],[99.3,29083],[99.3,29166],[97.9,29249],[96.1,29333],[94.4,29416],[92.6,29499],[90.6,29582],[89.6,29666],[87.9,29749],[84.7,29833],[82.4,29916],[81,29999],[79.8,30083],[78.9,30166],[78.4,30249],[78.2,30333],[78.2,30416],[78.3,30499],[81.6,30582],[87.8,30666],[92.9,30749],[96.3,30833],[97.8,30916],[98.3,30999],[99.1,31083],[99.5,31166],[100,31249],[100,31333],[100,31416],[100,31499],[100,31582],[100,31666],[100,31749],[100,31833],[100,31916],[100,31999],[100,32083],[100,32166],[100,32249],[100,32333],[100,32416],[100,32499],[100,32582],[100,32666],[100,32749],[100,32833],[100,32916],[100,32999],[100,33082],[100,33166],[100,33249],[100,33332],[100,33416],[100,33499],[100,33583],[100,33666],[100,33749],[100,33833],[100,33916],[100,33999],[100,34082],[100,34166],[100,34249],[100,34333],[99.8,34416],[99.1,34499],[98.9,34582],[98.9,34666],[98.9,34749],[98.9,34833],[98.9,34916],[98.9,34999],[98.9,35082],[98.9,35166],[98.9,35249],[98.9,35333],[98.9,35416],[98.9,35499],[98.9,35582],[98.9,35666],[98.8,35749],[97,35833],[91.7,35916],[83.6,35999],[74.4,36083],[66,36166],[58,36249],[51,36333],[48.4,36416],[47.5,36499],[45.7,36583],[45.5,36666],[45.5,36749],[45.6,36833],[45.6,36916],[42.6,36999],[30.1,37083],[18.2,37166],[13.6,37249],[10.2,37333],[4.7,37416],[2.5,37499],[0.9,37583],[0.4,37666],[0.4,37749],[0.4,37833],[0.4,37916],[0.4,37999],[0.4,38083],[0.3,38166],[0.3,38249],[0.3,38333],[0.3,38416],[0.3,38499],[0.3,38583],[0.3,38666],[0.3,38749],[0.3,38833],[0.3,38916],[0.3,38999],[0.3,39082],[0.3,39166],[0.3,39249],[0.3,39333],[0.3,39416],[0.3,39499]]",1,0,1144.7387,1184.0053,91.04166667,1.8348,"[{""rating"":91.04166666666667,""responseTime"":1.8348000000007687}]",space,38.7367,,1184.0053,Definitely yes,100,1184.0103,,,[],,0,9,9,9,1,audio/Narrative7Situation9.wav,audio/Narrative8Situation9.wav,audio/Narrative5Situation9.wav,audio/Narrative6Situation9.wav,2,3,3,4,,,,,,,,,,,,,,,,,,,,,,,,,,,,,,,,,,,,,,,
,,,,,,5a5e94a7eedc32000142cd08,2024-02-08_16h07.13.822,group3.1-3.2-social-tom,2023.2.2,Win32,59.52380952,65c5074098b851296ff0b7ed,65c5413db9c1cb009ea672c8,,,,,,,,,,,,,,,,,,,,,,,,,,,,,1184.0104,2,audio/Narrative6Situation1.wav,1186.0219,,1186.0219,1212.6051,"[[89.2,1500],[86.4,1583],[80.4,1666],[77.3,1750],[73.6,1833],[72,1916],[73.6,2000],[80.3,2083],[81.9,2166],[84.6,2250],[91.5,2333],[94.9,2416],[96.6,2500],[99.1,2583],[100,2666],[100,2749],[100,2833],[100,2916],[100,3000],[100,3083],[100,3166],[100,3249],[100,3333],[100,3416],[100,3499],[100,3583],[100,3666],[100,3750],[100,3833],[100,3916],[100,3999],[100,4083],[100,4166],[100,4249],[100,4333],[100,4416],[100,4500],[100,4583],[100,4666],[100,4749],[100,4833],[100,4916],[100,5000],[100,5083],[100,5166],[100,5249],[100,5333],[100,5416],[100,5500],[100,5583],[100,5666],[100,5749],[100,5833],[100,5916],[100,6000],[100,6083],[99.1,6166],[97.7,6250],[95.3,6333],[88.5,6416],[75.8,6499],[64.8,6583],[59.4,6666],[55.5,6750],[53.5,6833],[51.8,6916],[51.6,7000],[51.5,7083],[52.2,7166],[58.4,7250],[69,7333],[75.2,7416],[79.2,7500],[84,7583],[90.3,7666],[91.5,7749],[91.5,7833],[91.7,7916],[92.4,7999],[92.4,8083],[92.4,8166],[92.4,8249],[92.4,8333],[92.4,8416],[92.4,8499],[92.2,8583],[92.2,8666],[92.1,8749],[92,8833],[91.7,8916],[91.4,8999],[90.8,9083],[90.7,9166],[90.7,9249],[90.7,9333],[90.7,9416],[90.7,9499],[90.7,9583],[90.7,9666],[90.7,9749],[90.7,9833],[90.7,9916],[90.7,9999],[90.7,10083],[90.7,10166],[90.7,10249],[90.7,10333],[90.7,10416],[90.7,10499],[90.7,10583],[90.7,10666],[90.7,10749],[90.6,10833],[87,10916],[77.9,10999],[70.6,11083],[70.5,11166],[70.4,11250],[67.3,11333],[63.1,11416],[59.4,11500],[55.1,11583],[50.5,11666],[47.7,11749],[44.9,11833],[42.4,11916],[36.8,11999],[21.9,12083],[8.6,12166],[3.5,12249],[0.5,12333],[7.2,13083],[25.2,13166],[42.7,13250],[50.4,13333],[54.1,13416],[55.5,13499],[55.5,13583],[53.2,13666],[50.9,13749],[50.9,13833],[50.9,13916],[50.9,13999],[50.9,14083],[51,14166],[51.4,14249],[52.4,14333],[54.3,14416],[57.6,14500],[61.9,14583],[66.7,14666],[68.8,14750],[69,14833],[69,14916],[69,14999],[69,15083],[69,15166],[69,15249],[69,15333],[69,15416],[69,15499],[69,15583],[69,15666],[69,15749],[69,15833],[69,15916],[69,15999],[69,16083],[69,16166],[69,16249],[68.3,16333],[66.7,16416],[64.6,16499],[62.5,16583],[61.1,16666],[58.6,16749],[55.4,16833],[52.4,16916],[50.3,17000],[50.1,17083],[50,17166],[50,17249],[50,17333],[50,17416],[50,17499],[50,17583],[50,17666],[50,17749],[50,17833],[50,17916],[50,17999],[50,18083],[49.8,18166],[49.8,18249],[49.8,18333],[49.3,18416],[46.7,18499],[42.6,18583],[32.3,18666],[0.2,19833],[1.3,19916],[1.6,19999],[1.7,20083],[1.7,20166],[1.7,20249],[1.7,20333],[1.7,20416],[2.4,20499],[8.1,20583],[26.9,20666],[51.9,20749],[65.5,20833],[70.9,20916],[73.9,20999],[79.1,21083],[85,21166],[89.6,21249],[93.1,21333],[96.1,21416],[97.8,21499],[98.4,21583],[98.4,21666],[98.4,21749],[98.4,21833],[98.4,21916],[98.4,21999],[98.4,22083],[98.4,22166],[98.4,22249],[98.4,22333],[98.4,22416],[98.4,22499],[98.4,22583],[98.4,22666],[98.4,22749],[98.4,22833],[98.4,22916],[98.4,22999],[98.4,23083],[98.4,23166],[98.6,23249],[99.1,23333],[99.1,23416],[99.1,23499],[99.1,23583],[99.1,23666],[99.1,23749],[99.1,23833],[99.1,23916],[99.1,23999],[99.1,24083],[99.1,24166],[99.1,24249],[99.1,24333],[99.1,24416],[99.1,24499],[99.1,24583],[99.1,24666],[99.1,24749],[99.1,24833],[99.1,24916],[99.1,24999],[99.1,25083],[99.1,25166],[99.1,25249],[97.4,25333],[90.2,25416],[79,25499],[65.4,25583],[57.5,25666],[54.6,25749],[52.8,25833],[51.3,25916],[50.6,25999],[50.4,26083],[50.4,26166],[50.4,26249],[50.4,26333],[50.4,26416],[50.4,26499],[50.4,26583]]",1,0,1212.6052,1215.1384,50.3125,0.8605,"[{""rating"":50.31250000000001,""responseTime"":0.8605000000000018}]",space,1.9938,,1215.1384,Partially,50,1215.1397,,,[],,0,10,10,10,1,audio/Narrative8Situation1.wav,audio/Narrative7Situation1.wav,audio/Narrative6Situation1.wav,audio/Narrative5Situation1.wav,5,2,2,5,,,,,,,,,,,,,,,,,,,,,,,,,,,,,,,,,,,,,,,
,,,,,,5a5e94a7eedc32000142cd08,2024-02-08_16h07.13.822,group3.1-3.2-social-tom,2023.2.2,Win32,59.52380952,65c5074098b851296ff0b7ed,65c5413db9c1cb009ea672c8,,,,,,,,,,,,,,,,,,,,,,,,,,,,,1215.1398,2,audio/Narrative6Situation2.wav,1218.1551,,1218.1551,1246.6716,"[[49.8,3916],[48.1,3999],[48.1,4083],[48.1,4166],[48.1,4249],[48.8,4333],[49.7,4416],[50.9,4500],[55.9,4583],[67.8,4666],[81.8,4749],[86.6,4833],[87.1,4916],[87.6,5000],[87.6,5083],[87.6,5166],[87.6,5249],[87.6,5333],[87.3,5416],[87.1,5499],[86.8,5583],[86.1,5666],[85.5,5749],[85.3,5833],[85.2,5916],[86.4,6000],[87.3,6083],[87.4,6166],[87.5,6250],[87.7,6333],[87.7,6416],[87,6499],[84.1,6583],[80.6,6666],[77.8,6750],[75.4,6833],[73.6,6916],[72.8,7000],[71.8,7083],[69.6,7166],[66.8,7250],[61.3,7333],[55.1,7416],[52.8,7499],[52.6,7583],[52.4,7666],[52.2,7749],[52.2,7833],[51.8,7916],[51.4,8000],[3,10416],[2.3,10499],[1.8,10583],[1.8,10666],[4.6,10750],[16.7,10833],[33.4,10916],[44.1,11000],[48,11083],[49.2,11166],[49.2,11249],[49.2,11333],[49.2,11416],[49.2,11499],[49.2,11583],[49.2,11666],[50.2,11750],[59.6,11833],[78.3,11916],[94.3,11999],[100,12083],[100,12166],[100,12249],[100,12333],[100,12416],[100,12499],[100,12583],[100,12666],[100,12749],[100,12833],[100,12916],[100,12999],[100,13083],[100,13166],[100,13249],[100,13333],[100,13416],[100,13499],[100,13583],[99.8,13666],[99.7,13749],[99.4,13833],[99.3,13916],[99.2,13999],[99.1,14083],[98.8,14166],[98.6,14249],[98.4,14333],[98.4,14416],[98.4,14499],[98.4,14583],[98.4,14666],[98.4,14749],[98.4,14833],[98.4,14916],[98.3,14999],[98,15083],[97.8,15166],[97.5,15249],[97.4,15333],[97.2,15416],[97.2,15499],[97.2,15583],[97.2,15666],[97.2,15749],[97.2,15833],[97.2,15916],[96.9,15999],[95.7,16083],[94.5,16166],[94,16249],[93.4,16333],[93.4,16416],[95.1,16499],[97.8,16583],[98.4,16666],[98.5,16749],[99.2,16833],[99.8,16916],[99.9,16999],[99.9,17083],[99.9,17166],[99.9,17249],[99.9,17333],[99.9,17416],[99.9,17499],[99.9,17583],[99.9,17666],[99.9,17749],[99.9,17833],[99.9,17916],[99.9,17999],[100,18083],[100,18166],[100,18249],[100,18333],[100,18416],[100,18499],[100,18583],[100,18666],[100,18749],[100,18833],[100,18916],[100,18999],[100,19083],[100,19166],[100,19249],[100,19333],[100,19416],[100,19499],[100,19583],[100,19666],[100,19749],[100,19833],[100,19916],[100,19999],[100,20083],[100,20166],[100,20249],[100,20333],[100,20416],[100,20499],[100,20582],[100,20666],[100,20749],[100,20833],[100,20916],[100,20999],[100,21083],[100,21166],[100,21249],[100,21333],[100,21416],[100,21499],[100,21582],[100,21666],[100,21749],[100,21833],[100,21916],[100,21999],[100,22083],[100,22166],[100,22249],[100,22333],[100,22416],[100,22499],[100,22582],[100,22666],[100,22749],[100,22833],[100,22916],[100,22999],[100,23082],[100,23166],[100,23249],[100,23333],[100,23416],[100,23499],[100,23582],[100,23666],[100,23749],[100,23833],[100,23916],[100,23999],[100,24082],[100,24166],[100,24249],[100,24333],[100,24416],[100,24499],[100,24583],[100,24666],[100,24750],[100,24833],[100,24916],[100,24999],[100,25082],[100,25166],[100,25249],[100,25333],[100,25416],[100,25499],[100,25582],[100,25666],[100,25749],[100,25833],[100,25916],[100,25999],[100,26082],[100,26166],[100,26249],[100,26333],[100,26416],[100,26499],[100,26582],[100,26666],[100,26749],[100,26832],[100,26916],[100,26999],[100,27083],[100,27166],[100,27249],[100,27333],[100,27416],[100,27499],[100,27583],[100,27666],[100,27749],[100,27833],[100,27916],[100,27999],[100,28083],[100,28166],[100,28249],[100,28333],[100,28416],[100,28499]]",1,0,1246.6717,1249.4383,100,1.3591,"[{""rating"":100,""responseTime"":1.3590999999996711}]",space,2.2397,,1249.4383,Partially,50,1249.439,,,[],,0,11,11,11,1,audio/Narrative8Situation2.wav,audio/Narrative7Situation2.wav,audio/Narrative6Situation2.wav,audio/Narrative5Situation2.wav,3,3,3,3,,,,,,,,,,,,,,,,,,,,,,,,,,,,,,,,,,,,,,,
,,,,,,5a5e94a7eedc32000142cd08,2024-02-08_16h07.13.822,group3.1-3.2-social-tom,2023.2.2,Win32,59.52380952,65c5074098b851296ff0b7ed,65c5413db9c1cb009ea672c8,,,,,,,,,,,,,,,,,,,,,,,,,,,,,1249.4392,2,audio/Narrative6Situation3.wav,1254.4547,,1254.4548,1267.0716,"[[999,4],[999,83],[999,166],[999,250],[999,333],[999,416],[999,499],[999,583],[999,666],[999,750],[999,833],[999,916],[999,999],[999,1083],[999,1166],[999,1250],[999,1333],[999,1416],[999,1500],[999,1583],[999,1666],[999,1750],[999,1833],[999,1916],[999,2000],[999,2083],[999,2166],[999,2250],[999,2333],[999,2416],[999,2500],[999,2583],[999,2666],[999,2750],[999,2833],[999,2916],[999,3000],[999,3083],[999,3166],[999,3250],[999,3333],[999,3416],[999,3500],[999,3583],[999,3666],[999,3750],[999,3833],[999,3916],[999,3999],[999,4083],[999,4166],[999,4250],[999,4333],[999,4416],[999,4499],[999,4583],[999,4666],[999,4750],[999,4833],[999,4916],[999,5000],[999,5083],[999,5166],[999,5250],[52.7,5333],[52.3,5416],[51.9,5500],[51.7,5583],[50.3,5666],[43.8,5750],[29.6,5833],[14.5,5916],[3.9,6000],[1.5,6083],[0.3,6166],[5,6750],[22.8,6833],[44.5,6916],[61.8,7000],[72.6,7083],[82.1,7166],[91.4,7249],[97,7333],[97.2,7416],[97.2,7500],[97.2,7583],[98,7666],[98.6,7750],[98.9,7833],[98.9,7916],[98.9,7999],[98.9,8083],[98.9,8166],[98.9,8249],[98.9,8333],[98.6,8416],[98.6,8500],[98.6,8583],[98.6,8666],[98.6,8750],[98.4,8833],[98.1,8916],[97.9,9000],[97.6,9083],[97.4,9166],[97.3,9250],[97.2,9333],[97.2,9416],[97.2,9500],[97.2,9583],[97.2,9666],[96.8,9750],[96.3,9833],[95.6,9916],[95.3,10000],[95,10083],[94.7,10166],[94.7,10249],[96.7,10333],[99.3,10416],[99.6,10499],[99.6,10583],[99.6,10666],[99.6,10750],[99.6,10833],[99.6,10916],[99.6,11000],[99.5,11083],[99.1,11166],[98.9,11250],[98.5,11333],[98.4,11416],[98.2,11500],[97.9,11583],[97.6,11666],[97.4,11750],[97.1,11833],[97,11916],[96.9,12000],[96.8,12083],[96.6,12166],[96.5,12249],[96.4,12333],[96.4,12416],[96.4,12499],[96.4,12583]]",1,0,1267.0717,1272.1714,50.52083333,4.274,"[{""rating"":67.39583333333333,""responseTime"":2.5481999999992695},{""rating"":50.520833333333336,""responseTime"":4.274000000000115}]",space,4.5566,,1272.1714,Partially,50,1272.1722,,,[],,0,12,12,12,1,audio/Narrative8Situation3.wav,audio/Narrative7Situation3.wav,audio/Narrative6Situation3.wav,audio/Narrative5Situation3.wav,4,8,5,3,,,,,,,,,,,,,,,,,,,,,,,,,,,,,,,,,,,,,,,
,,,,,,5a5e94a7eedc32000142cd08,2024-02-08_16h07.13.822,group3.1-3.2-social-tom,2023.2.2,Win32,59.52380952,65c5074098b851296ff0b7ed,65c5413db9c1cb009ea672c8,,,,,,,,,,,,,,,,,,,,,,,,,,,,,1272.1722,2,audio/Narrative6Situation4.wav,1274.1881,,1274.1881,1286.8048,"[[49.9,1250],[49.9,1333],[49.9,1416],[49.9,1499],[49.9,1583],[49.9,1666],[49.9,1749],[49.9,1833],[49.9,1916],[47.5,1999],[27.9,2083],[4.5,2166],[0.2,2250],[1,3166],[6.8,3249],[12.9,3333],[18.9,3416],[27.5,3500],[39,3583],[46.3,3666],[48.6,3750],[50,3833],[50.6,3916],[51.5,4000],[57.3,4083],[67.4,4166],[71.6,4250],[71.6,4333],[71.6,4416],[71.6,4500],[71.3,4583],[70.4,4666],[70.4,4750],[70.4,4833],[70.4,4916],[70.4,4999],[70.4,5083],[70.4,5166],[70.4,5249],[70.4,5333],[70.4,5416],[70.4,5499],[70.4,5583],[70.4,5666],[70.4,5749],[70.4,5833],[70.4,5916],[70.4,5999],[70.4,6083],[70.4,6166],[70.4,6249],[70.4,6333],[70.4,6416],[70.7,6500],[71.5,6583],[71.9,6666],[71.9,6749],[71.9,6833],[71.9,6916],[71.9,6999],[71.9,7083],[71.9,7166],[71.9,7249],[71.9,7333],[71.9,7416],[71.9,7499],[71.9,7583],[71.9,7666],[71.8,7749],[71.8,7833],[71.8,7916],[71.8,7999],[71.8,8083],[71.8,8166],[71.8,8249],[71.7,8333],[71.7,8416],[71.7,8499],[71.7,8583],[71.7,8666],[71.7,8749],[71.7,8833],[71.6,8916],[71.5,8999],[71.5,9083],[71.5,9166],[71.5,9249],[71.5,9333],[71.4,9416],[71.3,9499],[71.3,9583],[71.3,9666],[71.3,9749],[71.3,9833],[71.3,9916],[71.3,9999],[71.3,10083],[71.3,10166],[71.3,10249],[71.3,10333],[71.1,10416],[70.9,10499],[70.9,10583],[70.8,10666],[70.8,10749],[70.8,10833],[70.8,10916],[70.8,10999],[70.8,11083],[70.8,11166],[70.1,11249],[68.2,11333],[66,11416],[64.8,11499],[63.2,11583],[63.1,11666],[63.4,11749],[66.7,11833],[74.6,11916],[81,11999],[86.1,12083],[88.5,12166],[89.1,12249],[89.4,12333],[89.4,12416],[89.4,12499],[89.4,12583]]",1,0,1286.8048,1288.988,79.89583333,0.8488,"[{""rating"":79.89583333333333,""responseTime"":0.848800000000665}]",space,1.6361,,1288.9881,Definitely yes,100,1288.9894,,,[],,0,13,13,13,1,audio/Narrative8Situation4.wav,audio/Narrative7Situation4.wav,audio/Narrative6Situation4.wav,audio/Narrative5Situation4.wav,3,3,2,1,,,,,,,,,,,,,,,,,,,,,,,,,,,,,,,,,,,,,,,
,,,,,,5a5e94a7eedc32000142cd08,2024-02-08_16h07.13.822,group3.1-3.2-social-tom,2023.2.2,Win32,59.52380952,65c5074098b851296ff0b7ed,65c5413db9c1cb009ea672c8,,,,,,,,,,,,,,,,,,,,,,,,,,,,,1288.9895,2,audio/Narrative6Situation5.wav,1291.0046,,1291.0047,1298.9713,"[[79.8,1916],[79.8,1999],[79.8,2083],[79.9,2166],[82.1,2249],[88.1,2333],[94,2416],[96.3,2500],[97.2,2583],[97.6,2666],[98.9,2749],[99.3,2833],[99.3,2916],[99.3,2999],[99.3,3083],[99.3,3166],[99.3,3249],[99.3,3333],[99.4,3416],[99.4,3500],[99.4,3583],[99.4,3666],[99.4,3749],[99.4,3833],[99.4,3916],[99.4,3999],[99.4,4083],[99.4,4166],[99.4,4249],[99.4,4333],[99.4,4416],[99.4,4499],[99.4,4583],[99.4,4666],[99.4,4749],[99.4,4833],[99.4,4916],[99.4,4999],[99.4,5083],[99.4,5166],[99.4,5249],[99.4,5333],[99.4,5416],[99.4,5499],[99.4,5583],[99.4,5666],[99.4,5749],[99.4,5833],[99.4,5916],[99.4,5999],[99.4,6083],[99.4,6166],[99.4,6249],[99.4,6333],[99.4,6416],[99.4,6499],[99.4,6583],[99.4,6666],[99.4,6749],[99.4,6833],[99.4,6916],[99.4,6999],[99.4,7083],[99.4,7166],[99.4,7249],[99.4,7333],[99.4,7416],[99.4,7499],[99.4,7583],[99.4,7666],[99.4,7749],[99.4,7833],[99,7916]]",1,0,1298.9714,1301.5046,100,1.3482,"[{""rating"":100,""responseTime"":1.348199999999224}]",space,1.9828,,1301.5047,Not at all,0,1301.5059,,,[],,0,14,14,14,1,audio/Narrative8Situation5.wav,audio/Narrative7Situation5.wav,audio/Narrative6Situation5.wav,audio/Narrative5Situation5.wav,2,5,2,5,,,,,,,,,,,,,,,,,,,,,,,,,,,,,,,,,,,,,,,
,,,,,,5a5e94a7eedc32000142cd08,2024-02-08_16h07.13.822,group3.1-3.2-social-tom,2023.2.2,Win32,59.52380952,65c5074098b851296ff0b7ed,65c5413db9c1cb009ea672c8,,,,,,,,,,,,,,,,,,,,,,,,,,,,,1301.506,2,audio/Narrative6Situation6.wav,1303.5213,,1303.5213,1314.6046,"[[87.6,83],[87.3,166],[87.3,249],[87.3,333],[87.3,416],[86.9,499],[86.9,583],[86.9,666],[86.9,749],[86.7,833],[85.1,916],[84.6,999],[84.6,1083],[83.8,1166],[81.5,1249],[77,1333],[72.1,1416],[66.3,1499],[61.4,1583],[57.2,1666],[53.5,1750],[51.9,1833],[51.7,1916],[51.7,1999],[51.7,2083],[51.7,2166],[51.5,2249],[51,2333],[45.6,2416],[32.4,2500],[8.2,2583],[1.3,4916],[4.3,4999],[8.1,5083],[10.6,5166],[15,5249],[20.4,5333],[26.1,5416],[29.9,5499],[31.8,5583],[34,5666],[36.5,5750],[44.4,5833],[51.8,5916],[56,5999],[59.6,6083],[62.8,6166],[66.3,6249],[69.8,6333],[71.9,6416],[74.5,6500],[75.3,6583],[75.4,6666],[75.4,6749],[75.4,6833],[75.4,6916],[75.8,7000],[76.6,7083],[76.7,7166],[77,7249],[77.2,7333],[77.2,7416],[77.2,7499],[77.2,7583],[77.2,7666],[77.2,7749],[77.2,7833],[77.2,7916],[77.2,7999],[77.2,8083],[77.2,8166],[77.2,8249],[77.2,8333],[77.2,8416],[77.2,8499],[77.2,8583],[77.5,8666],[77.6,8749],[77.6,8833],[77.6,8916],[78.8,8999],[79.1,9083],[79.1,9166],[79.1,9249],[79.1,9333],[79.1,9416],[79.1,9499],[79.1,9583],[79.1,9666],[79.1,9749],[79.1,9833],[79.1,9916],[79.1,9999],[79.1,10083],[79.1,10166],[79.1,10249],[79.1,10333],[79.1,10416],[79.1,10499],[79.1,10583],[79.1,10666],[79.1,10749],[79.2,10833],[79.7,10916],[80.4,10999],[81.3,11083]]",1,0,1314.6046,1317.5044,78.54166667,1.7568,"[{""rating"":78.54166666666667,""responseTime"":1.7567999999989752}]",space,2.351,,1317.5044,Definitely yes,100,1317.5055,,,[],,0,15,15,15,1,audio/Narrative8Situation6.wav,audio/Narrative7Situation6.wav,audio/Narrative6Situation6.wav,audio/Narrative5Situation6.wav,2,3,2,3,,,,,,,,,,,,,,,,,,,,,,,,,,,,,,,,,,,,,,,
,,,,,,5a5e94a7eedc32000142cd08,2024-02-08_16h07.13.822,group3.1-3.2-social-tom,2023.2.2,Win32,59.52380952,65c5074098b851296ff0b7ed,65c5413db9c1cb009ea672c8,,,,,,,,,,,,,,,,,,,,,,,,,,,,,1317.5056,2,audio/Narrative6Situation7.wav,1322.5211,,1322.5212,1347.3877,"[[999,4],[999,83],[999,166],[999,249],[999,333],[999,416],[999,499],[999,583],[999,666],[999,749],[999,833],[999,916],[999,999],[999,1083],[999,1166],[999,1249],[999,1333],[999,1416],[999,1499],[999,1583],[999,1666],[999,1749],[999,1833],[999,1916],[999,1999],[999,2083],[999,2166],[999,2249],[999,2333],[999,2416],[999,2499],[71.9,2583],[74,2666],[74.4,2749],[74.7,2833],[74.7,2916],[74.7,2999],[74.7,3083],[74.7,3166],[74.7,3249],[74.7,3333],[74.7,3416],[74.2,3500],[71.8,3583],[65.5,3666],[46.6,3750],[22.6,3833],[8,3916],[1.7,3999],[0.9,4083],[0.9,4166],[0.9,4249],[0.9,4333],[0.9,4416],[0.9,4499],[0.8,4583],[0.1,4666],[0.8,5000],[2.2,5083],[4.8,5166],[7.9,5249],[10.8,5333],[12.5,5416],[15.5,5499],[24.6,5583],[36.6,5666],[43.3,5749],[45.7,5833],[46.9,5916],[47,5999],[47,6083],[47,6166],[47,6249],[48,6333],[50,6416],[52.8,6499],[58,6583],[63.4,6666],[68.2,6750],[71.9,6833],[75.4,6916],[77.5,6999],[79,7083],[79.2,7166],[79.3,7249],[79.6,7333],[79.7,7416],[80,7499],[80.3,7583],[81.4,7666],[82.3,7749],[82.5,7833],[82.5,7916],[82.5,7999],[82.5,8083],[82.5,8166],[82.5,8249],[82.5,8333],[82.5,8416],[82.5,8499],[84.1,8583],[85.5,8666],[86.1,8749],[86.5,8833],[86.7,8916],[87,8999],[87,9083],[87.1,9166],[87.1,9249],[87.1,9333],[87.1,9416],[87.1,9499],[87.1,9583],[87.1,9666],[87.1,9749],[87.1,9833],[87.1,9916],[87.1,9999],[87.1,10083],[87.1,10166],[87.1,10249],[87.1,10333],[87.1,10416],[87.1,10499],[87.1,10583],[87.1,10666],[87.1,10749],[87.1,10833],[87.1,10916],[87.1,10999],[87.1,11083],[87.1,11166],[87.1,11249],[87.1,11333],[87.1,11416],[87.2,11499],[89,11583],[90.6,11666],[91.1,11749],[93.1,11833],[93.9,11916],[93.9,11999],[94.2,12083],[95,12166],[96.9,12249],[98.9,12333],[99.8,12416],[100,12499],[100,12583],[100,12666],[100,12749],[100,12833],[100,12916],[100,12999],[100,13083],[100,13166],[100,13249],[100,13333],[100,13416],[100,13499],[100,13583],[100,13666],[100,13749],[100,13833],[100,13916],[100,13999],[100,14083],[100,14166],[100,14249],[100,14333],[100,14416],[100,14499],[100,14583],[100,14666],[100,14749],[100,14833],[100,14916],[100,14999],[100,15083],[100,15166],[100,15249],[100,15333],[100,15416],[100,15499],[100,15583],[100,15666],[100,15749],[100,15833],[100,15916],[100,15999],[100,16083],[100,16166],[100,16249],[100,16333],[100,16416],[100,16499],[100,16583],[100,16666],[100,16749],[100,16833],[100,16916],[100,16999],[100,17083],[100,17166],[100,17250],[100,17333],[100,17416],[100,17499],[100,17583],[100,17666],[100,17749],[100,17833],[100,17916],[100,17999],[99.9,18083],[99.4,18166],[98.5,18249],[98.2,18333],[98.2,18416],[98.2,18499],[98.2,18583],[98.2,18666],[97.2,18749],[94.6,18833],[94.4,18916],[94.4,18999],[93.8,19083],[91.5,19166],[89.3,19249],[87.7,19333],[86.1,19416],[82.7,19499],[74.9,19583],[66,19666],[61.6,19749],[57.8,19833],[54.7,19916],[53.2,19999],[52.5,20083],[52.4,20166],[52.4,20249],[52.4,20333],[52.4,20416],[52.4,20499],[52.4,20583],[52.4,20666],[52.4,20749],[52.4,20833],[52.4,20916],[52.4,20999],[52.4,21083],[52.2,21166],[52,21249],[51.6,21333],[51.5,21416],[51.5,21499],[51.5,21583],[50.7,21666],[48.4,21749],[44.3,21833],[40.1,21916],[36.1,21999],[31.7,22083],[29.1,22166],[27.2,22249],[27.2,22333],[27.2,22416],[27.2,22499],[27.2,22582],[27.2,22666],[27.2,22749],[27.2,22833],[27.2,22916],[27.2,22999],[27.2,23082],[26.9,23166],[22.7,23249],[15.7,23333],[10.2,23416],[6.8,23499],[4.7,23582],[1.1,23666]]",1,0,1347.3878,1350.821,49.79166667,1.9426,"[{""rating"":49.791666666666664,""responseTime"":1.9425999999996293}]",space,2.8941,,1350.821,Partially,50,1350.8223,,,[],,0,16,16,16,1,audio/Narrative8Situation7.wav,audio/Narrative7Situation7.wav,audio/Narrative6Situation7.wav,audio/Narrative5Situation7.wav,3,5,5,4,,,,,,,,,,,,,,,,,,,,,,,,,,,,,,,,,,,,,,,
,,,,,,5a5e94a7eedc32000142cd08,2024-02-08_16h07.13.822,group3.1-3.2-social-tom,2023.2.2,Win32,59.52380952,65c5074098b851296ff0b7ed,65c5413db9c1cb009ea672c8,,,,,,,,,,,,,,,,,,,,,,,,,,,,,1350.8224,2,audio/Narrative6Situation8.wav,1355.8375,,1355.8375,1362.7043,"[[48.4,1416],[46.6,1500],[36.5,1583],[29.2,1666],[25.5,1750],[25.1,1833],[27.4,1916],[28.2,2000],[26.7,2083],[19.5,2166],[11.5,2250],[7.1,2333],[4.3,2416],[2.2,2500],[1.9,2583],[1.6,2666],[1.6,2750],[1.6,2833],[1.5,2916],[1.4,3000],[1.4,3083],[1.4,3166],[1.4,3250],[1.3,3333],[1.3,3416],[0.9,3500],[0.8,3583],[0.8,3666],[0.8,3750],[0.8,3833],[0.8,3916],[0.8,4000],[0.8,4083],[0.8,4166],[0.8,4250],[0.8,4333],[0.8,4416],[0.8,4499],[0.8,4583],[0.8,4666],[0.8,4750],[0.8,4833],[0.8,4916],[0.8,4999],[0.8,5083],[0.8,5166],[0.8,5250],[0.8,5333],[0.8,5416],[0.8,5499],[0.8,5583],[0.8,5666],[0.8,5750],[0.8,5833],[0.8,5916],[0.8,5999],[0.8,6083],[0.8,6166],[0.8,6250],[0.8,6333],[0.8,6416],[0.8,6499],[0.8,6583],[0.8,6666],[0.8,6750],[0.8,6833]]",1,0,1362.7043,1365.7378,0.729166667,1.814,"[{""rating"":0.7291666666666641,""responseTime"":1.8140000000000782}]",space,2.4883,,1365.7379,Not at all,0,1365.739,,,[],,0,17,17,17,1,audio/Narrative8Situation8.wav,audio/Narrative7Situation8.wav,audio/Narrative6Situation8.wav,audio/Narrative5Situation8.wav,3,2,5,3,,,,,,,,,,,,,,,,,,,,,,,,,,,,,,,,,,,,,,,
,,,,,,5a5e94a7eedc32000142cd08,2024-02-08_16h07.13.822,group3.1-3.2-social-tom,2023.2.2,Win32,59.52380952,65c5074098b851296ff0b7ed,65c5413db9c1cb009ea672c8,,,,,,,,,,,,,,,,,,,,,,,,,,,,,1365.7391,2,audio/Narrative6Situation9.wav,1369.7542,,1369.7542,1379.7045,"[[999,4],[999,83],[999,166],[999,249],[999,333],[999,416],[999,499],[999,583],[999,666],[999,750],[999,833],[999,916],[999,1000],[999,1083],[999,1166],[999,1250],[999,1333],[999,1416],[999,1500],[999,1583],[999,1666],[999,1750],[999,1833],[999,1916],[999,2000],[999,2083],[999,2166],[999,2250],[999,2333],[999,2416],[999,2500],[999,2583],[999,2666],[999,2750],[999,2833],[999,2916],[999,3000],[999,3083],[999,3166],[999,3250],[999,3333],[999,3416],[999,3500],[999,3583],[999,3666],[999,3749],[999,3833],[999,3916],[999,3999],[999,4083],[999,4166],[999,4250],[999,4333],[999,4416],[999,4499],[999,4583],[999,4666],[999,4749],[999,4833],[999,4916],[999,5000],[999,5083],[7,5166],[1.4,5250]]",1,0,1379.7045,1384.0042,0,2.8478,"[{""rating"":0,""responseTime"":2.8478000000006887}]",space,3.7607,,1384.0042,Partially,50,1395.0874,49.79166667,5.755,"[{""rating"":49.791666666666664,""responseTime"":5.754999999999882}]",space,0,18,18,18,1,audio/Narrative8Situation9.wav,audio/Narrative7Situation9.wav,audio/Narrative6Situation9.wav,audio/Narrative5Situation9.wav,3,2,4,3,,,10.5383,,,,,,,,,,,,,,,,,,,,,,,,,,,,,,,,,,,,
,,,,,,5a5e94a7eedc32000142cd08,2024-02-08_16h07.13.822,group3.1-3.2-social-tom,2023.2.2,Win32,59.52380952,65c5074098b851296ff0b7ed,65c5413db9c1cb009ea672c8,,,,,,,,,,,,,,,,,,,,,,,,,,,,,,,,,,,,,,,,,,,,,,,,,,,,,,,,,,,,,,,,,,,,,,,,1395.0917,1397.7541,space,2.145,,1397.7542,1411.1544,space,13.0668,,,,,,,,,,,,,,,,,,,,,,,,,,
