exp_question,consent.started,consent.stopped,consentResponse.keys,consentResponse.rt,consentResponse.duration,participantID,date,expName,psychopyVersion,OS,frameRate,STUDY_ID,SESSION_ID,opening1.started,opening1.stopped,keyEndingOpening1.keys,keyEndingOpening1.rt,keyEndingOpening1.duration,volumeAdjust.started,volumeAdjust.stopped,endingAdjust.keys,endingAdjust.rt,endingAdjust.duration,opening2.started,opening2.stopped,keyEndingOpening.keys,keyEndingOpening.rt,keyEndingOpening.duration,mouse.x,mouse.y,mouse.leftButton,mouse.midButton,mouse.rightButton,mouse.time,instructionLoop.thisRepN,instructionLoop.thisTrialN,instructionLoop.thisN,instructionLoop.thisIndex,instructionLoop.ran,readyForAudio.started,readyForAudio.stopped,fixation.started,run,audio_played,fixation.stopped,endPractice.keys,audioPre.started,audioPre.stopped,continuousResponses_audio,continuousSlider.response,continuousSlider.rt,intRating.started,intRating.stopped,intQuestionSlider.response,intQuestionSlider.rt,intQuestionSlider.history,confirmResponse.keys,confirmResponse.rt,confirmResponse.duration,catchQuestion.started,catch_label,catch_value,catchQuestion.stopped,catchQuestionSlider.response,catchQuestionSlider.rt,catchQuestionSlider.history,confirmResponse_2.keys,audioRunLoop.thisRepN,audioRunLoop.thisTrialN,audioRunLoop.thisN,audioRunLoop.thisIndex,audioRunLoop.ran,conditions1_1,conditions2_1,conditions1_2,conditions2_2,dur1_1,dur2_1,dur1_2,dur2_2,endPractice.rt,endPractice.duration,confirmResponse_2.rt,confirmResponse_2.duration,runIntervalBreak.started,runIntervalBreak.stopped,endingBreakKey.keys,endingBreakKey.rt,endingBreakKey.duration,connection.started,connection.stopped,connectionEnding.keys,connectionEnding.rt,connectionEnding.duration,readyForText.started,readyForText.stopped,textPre.started,run_dup,textPre.stopped,continuousResponses_text,textRunLoop.thisRepN,textRunLoop.thisTrialN,textRunLoop.thisN,textRunLoop.thisIndex,textRunLoop.ran,text1_1,text1_2,text2_1,text2_2,runBreakText.started,runBreakText.stopped,endingBreakKey_2.keys,endingBreakKey_2.rt,endingBreakKey_2.duration,ending.started,ending.stopped,endingEnding.keys,endingEnding.rt,endingEnding.duration
social,0.0002,7.2811,y,6.9339,,5a89cc2c000dab00018cbd38,2024-02-08_16h04.55.502,group3.1-3.2-social-tom,2023.2.2,Win32,59.88023952,65c5074098b851296ff0b7ed,65c541823184e001d549af57,,,,,,,,,,,,,,,,,,,,,,,,,,,,,,,,,,,,,,,,,,,,,,,,,,,,,,,,,,,,,,,,,,,,,,,,,,,,,,,,,,,,,,,,,,,,,,,,,,,,,,,,,,
,,,,,,5a89cc2c000dab00018cbd38,2024-02-08_16h04.55.502,group3.1-3.2-social-tom,2023.2.2,Win32,59.88023952,65c5074098b851296ff0b7ed,65c541823184e001d549af57,7.2813,11.8145,space,4.5183,,,,,,,,,,,,,,,,,,,,,,,,,,,,,,,,,,,,,,,,,,,,,,,,,,,,,,,,,,,,,,,,,,,,,,,,,,,,,,,,,,,,,,,,,,,,,,,,,,,,,,
,,,,,,5a89cc2c000dab00018cbd38,2024-02-08_16h04.55.502,group3.1-3.2-social-tom,2023.2.2,Win32,59.88023952,65c5074098b851296ff0b7ed,65c541823184e001d549af57,,,,,,11.8145,52.4144,space,40.2691,,,,,,,,,,,,,,,,,,,,,,,,,,,,,,,,,,,,,,,,,,,,,,,,,,,,,,,,,,,,,,,,,,,,,,,,,,,,,,,,,,,,,,,,,,,,,,,,,
,,,,,,5a89cc2c000dab00018cbd38,2024-02-08_16h04.55.502,group3.1-3.2-social-tom,2023.2.2,Win32,59.88023952,65c5074098b851296ff0b7ed,65c541823184e001d549af57,,,,,,,,,,,52.4165,1589.3994,space,1536.9593,,[],[],[],[],[],[],0,0,0,0,1,,,,,,,,,,,,,,,,,,,,,,,,,,,,,,,,,,,,,,,,,,,,,,,,,,,,,,,,,,,,,,,,,,,,,,,,,,,,,,,,
,,,,,,5a89cc2c000dab00018cbd38,2024-02-08_16h04.55.502,group3.1-3.2-social-tom,2023.2.2,Win32,59.88023952,65c5074098b851296ff0b7ed,65c541823184e001d549af57,,,,,,,,,,,1589.3999,1616.8822,space,27.4284,,[],[],[],[],[],[],1,0,1,0,1,,,,,,,,,,,,,,,,,,,,,,,,,,,,,,,,,,,,,,,,,,,,,,,,,,,,,,,,,,,,,,,,,,,,,,,,,,,,,,,,
,,,,,,5a89cc2c000dab00018cbd38,2024-02-08_16h04.55.502,group3.1-3.2-social-tom,2023.2.2,Win32,59.88023952,65c5074098b851296ff0b7ed,65c541823184e001d549af57,,,,,,,,,,,1616.8868,1621.6989,space,4.7794,,[],[],[],[],[],[],2,0,2,0,1,,,,,,,,,,,,,,,,,,,,,,,,,,,,,,,,,,,,,,,,,,,,,,,,,,,,,,,,,,,,,,,,,,,,,,,,,,,,,,,,
,,,,,,5a89cc2c000dab00018cbd38,2024-02-08_16h04.55.502,group3.1-3.2-social-tom,2023.2.2,Win32,59.88023952,65c5074098b851296ff0b7ed,65c541823184e001d549af57,,,,,,,,,,,1621.7035,1638.0656,space,16.3494,,[],[],[],[],[],[],3,0,3,0,1,,,,,,,,,,,,,,,,,,,,,,,,,,,,,,,,,,,,,,,,,,,,,,,,,,,,,,,,,,,,,,,,,,,,,,,,,,,,,,,,
,,,,,,5a89cc2c000dab00018cbd38,2024-02-08_16h04.55.502,group3.1-3.2-social-tom,2023.2.2,Win32,59.88023952,65c5074098b851296ff0b7ed,65c541823184e001d549af57,,,,,,,,,,,1638.0703,1641.1155,space,3.0249,,[],[],[],[],[],[],4,0,4,0,1,,,,,,,,,,,,,,,,,,,,,,,,,,,,,,,,,,,,,,,,,,,,,,,,,,,,,,,,,,,,,,,,,,,,,,,,,,,,,,,,
,,,,,,5a89cc2c000dab00018cbd38,2024-02-08_16h04.55.502,group3.1-3.2-social-tom,2023.2.2,Win32,59.88023952,65c5074098b851296ff0b7ed,65c541823184e001d549af57,,,,,,,,,,,,,,,,,,,,,,,,,,,1641.1169,1643.699,1643.7092,1,audio/Narrative13Situation2.wav,1645.7157,,1645.7158,1675.4659,"[[999,0],[999,83],[999,166],[999,249],[999,333],[999,416],[999,499],[999,583],[999,666],[999,749],[999,833],[999,916],[999,999],[999,1083],[50.1,1166],[49.7,1249],[49.7,1332],[49.7,1416],[49.7,1499],[49.7,1583],[49.7,1666],[49.7,1749],[49.7,1833],[49.7,1916],[49.7,1999],[49.7,2083],[49.7,2166],[49.7,2249],[49.7,2333],[49.7,2416],[49.7,2499],[49.6,2583],[49.6,2666],[49.6,2749],[49.6,2833],[49.6,2916],[49.6,2999],[49.6,3083],[49.6,3166],[49.6,3249],[49.6,3332],[49.6,3416],[50,3499],[59.6,3583],[70.2,3666],[76.3,3749],[79.7,3833],[85.8,3916],[91.3,3999],[94.8,4083],[97.7,4166],[99.4,4249],[99.7,4333],[100,4416],[100,4499],[100,4583],[100,4666],[100,4749],[100,4833],[100,4916],[100,4999],[100,5083],[100,5166],[100,5249],[100,5333],[100,5416],[100,5499],[100,5583],[100,5666],[100,5749],[100,5833],[100,5916],[100,5999],[100,6083],[100,6166],[100,6249],[100,6333],[100,6416],[100,6499],[100,6583],[100,6666],[100,6749],[100,6833],[100,6916],[100,6999],[100,7083],[100,7166],[100,7249],[100,7333],[100,7416],[100,7499],[100,7583],[100,7666],[100,7749],[100,7833],[100,7916],[100,7999],[100,8083],[100,8166],[100,8249],[100,8333],[100,8416],[100,8499],[100,8583],[100,8666],[100,8749],[100,8833],[100,8916],[100,8999],[100,9083],[100,9166],[100,9249],[100,9333],[100,9416],[100,9499],[100,9583],[100,9666],[100,9749],[100,9833],[100,9916],[100,9999],[100,10082],[100,10166],[100,10249],[100,10333],[100,10416],[100,10499],[100,10583],[100,10666],[100,10749],[100,10833],[100,10916],[100,10999],[100,11083],[100,11166],[100,11249],[100,11333],[100,11416],[100,11499],[100,11583],[100,11666],[100,11749],[100,11833],[100,11916],[100,11999],[100,12083],[100,12166],[100,12249],[100,12333],[100,12416],[100,12499],[100,12583],[100,12666],[100,12749],[100,12833],[100,12916],[100,12999],[100,13083],[100,13166],[100,13249],[100,13333],[100,13416],[100,13499],[100,13583],[100,13666],[100,13749],[100,13833],[100,13916],[100,13999],[100,14083],[100,14166],[100,14249],[100,14333],[100,14416],[100,14499],[100,14583],[100,14666],[100,14749],[100,14833],[100,14916],[100,14999],[100,15083],[100,15166],[100,15249],[100,15333],[100,15416],[100,15499],[100,15583],[100,15666],[100,15749],[100,15833],[100,15916],[100,15999],[100,16083],[100,16166],[100,16249],[100,16333],[100,16416],[100,16499],[100,16583],[100,16666],[100,16749],[100,16833],[100,16916],[100,16999],[100,17082],[100,17166],[100,17249],[100,17333],[98.2,17416],[93,17499],[83.8,17583],[75,17666],[69.8,17749],[52.4,18333],[52.3,18416],[51.6,18499],[51.1,18583],[51.1,18666],[50.7,18749],[50,18833],[50,18916],[50,18999],[50,19083],[50,19166],[50,19249],[50,19333],[50,19416],[50,19499],[50,19583],[50,19666],[50,19749],[50,19833],[50,19916],[50,19999],[50,20083],[50,20166],[50,20249],[50,20333],[50,20416],[50,20499],[49.9,20583],[49.3,20666],[49.2,20749],[49.2,20833],[48.5,20916],[47.7,20999],[44.5,21083],[38.9,21166],[41,21249],[57.4,21333],[70.4,21416],[70.4,21499],[69.6,21583],[68.3,21666],[62.6,21749],[52.8,21833],[48.8,21916],[48.6,21999],[48.6,22083],[48.6,22166],[49.1,22249],[60.2,22333],[73.5,22416],[80.2,22499],[87.8,22583],[92.7,22666],[97.2,22749],[100,22833],[100,22916],[100,22999],[100,23083],[100,23166],[100,23249],[100,23333],[100,23416],[100,23499],[100,23583],[100,23666],[100,23749],[100,23833],[100,23916],[100,23999],[100,24083],[100,24166],[100,24249],[95.4,24333],[88.1,24416],[80.8,24499],[69.7,24583],[60.4,24666],[55.6,24749],[54.9,24833],[55.6,24916],[57.5,24999],[57.5,25083],[58.5,25166],[70.4,25249],[84.8,25333],[92.6,25416],[94.8,25499],[96.3,25583],[96.5,25666],[97.7,25749],[98.1,25833],[98.4,25916],[98.9,25999],[99,26083],[99,26166],[99,26249],[99,26333],[99,26416],[99,26499],[99,26583],[99,26666],[99,26749],[99,26833],[99,26916],[99,26999],[99,27083],[99,27166],[99,27249],[99,27333],[99,27416],[99,27499],[99,27583],[99,27666],[99,27749],[99,27833],[99,27916],[99,27999],[99,28083],[99,28166],[99,28249],[99,28333],[99,28416],[99,28499],[99,28583],[99,28666],[99,28749],[99,28833],[99,28916],[99,28999],[99,29083],[99,29166],[99,29249],[99,29333],[99,29416],[99,29499],[99,29583],[99,29666],[99,29749]]",1,0,1675.4662,1686.8493,99.47916667,8.6216,"[{""rating"":80.52083333333333,""responseTime"":4.267799999952331},{""rating"":99.47916666666667,""responseTime"":8.621599999904674}]",space,10.8435,,1686.8495,Not at all,0,1686.8516,,,[],,0,0,0,0,1,audio/Narrative13Situation2.wav,audio/Narrative13Situation2.wav,audio/Narrative13Situation2.wav,audio/Narrative13Situation2.wav,2,2,2,2,,,,,,,,,,,,,,,,,,,,,,,,,,,,,,,,,,,,,,,
,,,,,,5a89cc2c000dab00018cbd38,2024-02-08_16h04.55.502,group3.1-3.2-social-tom,2023.2.2,Win32,59.88023952,65c5074098b851296ff0b7ed,65c541823184e001d549af57,,,,,,,,,,,,,,,,,,,,,,,,,,,,,1686.8518,1,audio/Narrative7Situation1.wav,1693.4989,space,1693.499,1749.399,"[[999,4],[999,83],[999,166],[999,249],[999,333],[999,416],[999,499],[999,583],[999,666],[999,749],[999,833],[999,916],[999,999],[999,1083],[999,1166],[999,1249],[999,1333],[999,1416],[52.5,1500],[51.6,1583],[51,1666],[50.9,1749],[50.9,1833],[57.5,1916],[65.3,2000],[74.6,2083],[89.3,2166],[93.6,2250],[93.8,2333],[93.8,2416],[93.8,2499],[93.8,2583],[93.8,2666],[93.8,2749],[93.8,2833],[93.8,2916],[93.8,2999],[93.8,3083],[93.2,3166],[86.8,3250],[77.6,3333],[72.2,3416],[68.4,3500],[67.3,3583],[65.2,3666],[64.9,3749],[64.7,3833],[64.7,3916],[64.7,3999],[64.7,4083],[64.7,4166],[64.7,4249],[64.7,4333],[64.7,4416],[64.7,4499],[65.2,4583],[67.3,4666],[68.3,4750],[69.2,4833],[70.5,4916],[71.7,4999],[73.9,5083],[73.9,5166],[74,5249],[74,5333],[74,5416],[73.8,5500],[71.1,5583],[64,5666],[57.1,5750],[56.9,5833],[56.9,5916],[56.9,5999],[56.9,6083],[56.9,6166],[56.9,6249],[56.9,6333],[56.9,6416],[56.9,6499],[56.9,6583],[56.9,6666],[56.9,6749],[56.9,6833],[56.9,6916],[56.9,6999],[56.9,7083],[56.9,7166],[56.9,7249],[56.9,7333],[56.9,7416],[56.9,7499],[56.9,7583],[56.9,7666],[56.9,7749],[56.9,7833],[56.9,7916],[56.9,7999],[56.9,8083],[56.9,8166],[59.2,8250],[72.2,8333],[86.5,8416],[94.7,8500],[100,8583],[100,23166],[100,23249],[100,23333],[100,23416],[99.6,23500],[99.3,23583],[99.3,23666],[99.3,23749],[99.3,23833],[99.3,23916],[99.3,23999],[99.3,24083],[99.3,24166],[99.3,24249],[99.3,24333],[99.3,24416],[99.3,24499],[99.3,24583],[99.3,24666],[99.3,24749],[99.3,24833],[99.3,24916],[99.3,24999],[99.3,25083],[99.3,25166],[99.3,25249],[99.3,25333],[99.3,25416],[99.3,25499],[99.3,25583],[99.3,25666],[99.3,25749],[99.3,25833],[99.3,25916],[99.3,25999],[99.3,26083],[99.3,26166],[99.3,26249],[99.3,26333],[99.3,26416],[99.3,26499],[99.3,26583],[99.3,26666],[99.3,26749],[99.3,26833],[99.3,26916],[99.3,26999],[99.3,27083],[99.3,27166],[99.3,27249],[99.3,27333],[99.3,27416],[99.3,27499],[99.3,27583],[99.3,27666],[99.3,27749],[99.3,27833],[99.3,27916],[99.3,27999],[99.3,28083],[99.3,28166],[99.3,28249],[99.3,28333],[99.3,28416],[99.3,28499],[99.3,28583],[99.3,28666],[99.3,28749],[99.3,28833],[99.3,28916],[99.3,28999],[99.3,29083],[99.3,29166],[99.3,29249],[99.3,29333],[99.3,29416],[99.3,29499],[99.3,29583],[99.3,29666],[99.3,29749],[99.3,29833],[99.3,29916],[99.3,29999],[99.3,30083],[99.3,30166],[99.3,30249],[99.3,30333],[99.3,30416],[99.3,30499],[99.3,30583],[99.3,30666],[99.3,30749],[99.3,30833],[99.3,30916],[99.3,30999],[99.3,31083],[99.3,31166],[99.3,31249],[99.3,31333],[99.3,31416],[99.3,31499],[99.3,31583],[99.3,31666],[99.3,31749],[99.3,31833],[99.3,31916],[99.3,31999],[99.3,32083],[99.3,32166],[99.3,32249],[99.3,32333],[99.3,32416],[100,32500],[100,32583],[100,32666],[100,32749],[100,32833],[100,32916],[100,32999],[100,33083],[100,33166],[100,33249],[100,33333],[100,33416],[100,33499],[100,33583],[100,33666],[100,33749],[100,33833],[100,33916],[100,33999],[100,34083],[100,34166],[100,34249],[100,34333],[100,34416],[100,34499],[100,34583],[100,34666],[100,34750],[100,34833],[100,34916],[100,34999],[100,35083],[100,35166],[100,35249],[100,35333],[100,35416],[100,35499],[100,35583],[100,35666],[100,35749],[100,35833],[100,35916],[100,35999],[100,36083],[100,36166],[100,36249],[100,36333],[100,36416],[100,36499],[100,36583],[100,36666],[100,36749],[100,36833],[100,36916],[100,36999],[100,37083],[100,37166],[100,37249],[100,37333],[100,37416],[100,37499],[100,37583],[100,37666],[100,37749],[100,37833],[100,37916],[100,37999],[100,38083],[100,38166],[100,38249],[100,38333],[100,38416],[100,38499],[100,38583],[100,38666],[100,38749],[100,38833],[100,38916],[100,38999],[100,39083],[100,39166],[100,39249],[100,39333],[100,39416],[100,39499],[100,39583],[100,39666],[100,39749],[100,39833],[100,39916],[100,39999],[100,40083],[100,40166],[100,40249],[100,40333],[100,40416],[100,40499],[100,40583],[100,40666],[100,40749],[100,40833],[100,40916],[100,40999],[100,41083],[100,41166],[100,41249],[100,41333],[100,41416],[100,41499],[100,41583],[100,41666],[100,41749],[100,41833],[100,41916],[100,41999],[100,42083],[100,42166],[100,42249],[100,42333],[100,42416],[100,42499],[100,42583],[100,42666],[100,42749],[100,42833],[100,42916],[100,42999],[100,43083],[100,43166],[100,43249],[100,43333],[100,43416],[100,43499],[100,43583],[100,43666],[100,43749],[100,43833],[100,43916],[100,43999],[100,44083],[100,44166],[100,44249],[100,44333],[100,44416],[100,44499],[100,44583],[100,44666],[100,44749],[100,44833],[100,44916],[100,44999],[100,45083],[100,45166],[100,45249],[100,45333],[100,45416],[100,45499],[100,45583],[100,45666],[100,45749],[100,45833],[100,45916],[100,45999],[100,46083],[100,46166],[100,46249],[100,46333],[100,46416],[100,46499],[100,46583],[100,46666],[100,46749],[100,46833],[100,46916],[100,46999],[100,47083],[100,47166],[100,47249],[100,47333],[100,47416],[100,47499],[100,47583],[100,47666],[100,47749],[100,47833],[100,47916],[100,47999],[100,48083],[100,48166],[100,48249],[100,48333],[100,48416],[100,48499],[100,48583],[100,48666],[100,48749],[100,48833],[100,48916],[100,48999],[100,49083],[100,49166],[100,49249],[100,49333],[100,49416],[100,49499],[100,49583],[100,49666],[100,49749],[100,49833],[100,49916],[100,49999],[100,50083],[100,50166],[100,50249],[100,50333],[100,50416],[100,50499],[100,50583],[100,50666],[100,50749],[100,50833],[100,50916],[100,50999],[100,51083],[100,51166],[100,51249],[100,51333],[100,51416],[100,51499],[100,51583],[100,51666],[100,51749],[100,51833],[100,51916],[100,51999],[100,52083],[100,52166],[100,52249],[100,52333],[100,52416],[100,52499],[100,52583],[100,52666],[100,52749],[100,52833],[100,52916],[100,52999],[100,53083],[100,53166],[100,53249],[100,53333],[100,53416],[100,53499],[100,53583],[100,53666],[100,53749],[100,53833],[100,53916],[100,53999],[100,54083],[100,54166],[100,54249],[100,54333],[100,54416],[100,54499],[100,54583],[100,54666],[100,54749],[100,54833],[100,54916],[100,54999],[100,55083],[100,55166],[100,55249],[100,55333],[100,55416],[100,55499],[100,55583],[100,55666],[100,55749],[100,55833]]",1,0,1749.3992,1752.499,99.79166667,2.7986,"[{""rating"":99.79166666666667,""responseTime"":2.7985999999045816}]",space,2.5501,,1752.499,Not at all,0,1752.4999,,,[],,0,1,1,1,1,audio/Narrative7Situation1.wav,audio/Narrative8Situation1.wav,audio/Narrative5Situation1.wav,audio/Narrative6Situation1.wav,2,5,5,2,6.6329,,,,,,,,,,,,,,,,,,,,,,,,,,,,,,,,,,,,,,
,,,,,,5a89cc2c000dab00018cbd38,2024-02-08_16h04.55.502,group3.1-3.2-social-tom,2023.2.2,Win32,59.88023952,65c5074098b851296ff0b7ed,65c541823184e001d549af57,,,,,,,,,,,,,,,,,,,,,,,,,,,,,1752.5,1,audio/Narrative7Situation2.wav,1755.1989,space,1755.199,1762.6824,"[[999,0],[999,83],[999,166],[999,249],[999,333],[999,416],[999,500],[999,583],[999,666],[999,749],[999,833],[999,916],[999,1000],[52.4,1083],[52,1166],[51.7,1249],[51.7,1333],[51.7,1416],[51.6,1500],[51.3,1583],[51,1666],[51.8,1750],[62.2,1833],[76.5,1916],[81.5,2000],[89.4,2083],[93.8,2166],[96.1,2250],[99.7,2333],[100,2416],[100,2499],[100,2583],[100,2666],[100,2749],[100,2833],[100,2916],[100,2999],[100,3083],[100,3166],[100,3249],[100,3333],[100,3416],[100,3499],[100,3583],[100,3666],[100,3749],[100,3833],[100,3916],[100,4000],[100,4083],[100,4166],[100,4249],[100,4333],[100,4416],[100,4499],[100,4583],[100,4666],[100,4749],[100,4833],[100,4916],[100,4999],[100,5083],[100,5166],[100,5250],[100,5333],[100,5416],[100,5499],[100,5583],[100,5666],[100,5749],[100,5833],[100,5916],[100,5999],[100,6083],[100,6166],[100,6249],[100,6333],[100,6416],[100,6500],[100,6583],[100,6666],[100,6749],[100,6833],[100,6916],[100,6999],[100,7083],[100,7166],[100,7249],[100,7333],[100,7416]]",1,0,1762.6825,1765.4157,99.6875,2.451,"[{""rating"":99.6875,""responseTime"":2.451000000000022}]",space,2.1867,,1765.4157,Not at all,0,1765.4166,,,[],,0,2,2,2,1,audio/Narrative7Situation2.wav,audio/Narrative8Situation2.wav,audio/Narrative5Situation2.wav,audio/Narrative6Situation2.wav,3,3,3,3,2.6926,,,,,,,,,,,,,,,,,,,,,,,,,,,,,,,,,,,,,,
,,,,,,5a89cc2c000dab00018cbd38,2024-02-08_16h04.55.502,group3.1-3.2-social-tom,2023.2.2,Win32,59.88023952,65c5074098b851296ff0b7ed,65c541823184e001d549af57,,,,,,,,,,,,,,,,,,,,,,,,,,,,,1765.4167,1,audio/Narrative7Situation3.wav,1769.199,space,1769.1991,1778.4656,"[[99.4,2833],[98.1,2916],[98.1,2999],[98.3,3083],[99.6,3166],[99.8,3249],[99.8,3333],[99.2,3416],[98.4,3500],[92.4,3583],[84.9,3666],[80.9,3749],[76,3833],[75.4,3916],[73.3,3999],[72.4,4083],[71.5,4166],[70.9,4249],[70.6,4333],[70.6,4416],[70.6,4499],[70.6,4583],[70.6,4666],[70.6,4749],[70.6,4833],[70.6,4916],[70.6,4999],[70.6,5083],[70.6,5166],[70.6,5249],[70.6,5333],[70.7,5416],[79.7,5500],[91.1,5583],[96.6,5666],[97.3,5749],[98.2,5833],[99.6,5916],[99.6,5999],[99.6,6083],[99.6,6166],[99.6,6249],[99.6,6333],[99.6,6416],[99.6,6499],[99.6,6583],[99.6,6666],[99.6,6749],[99.6,6833],[99.6,6916],[99.6,6999],[99.6,7083],[99.6,7166],[99.6,7249],[99.6,7333],[99.6,7416],[99.6,7499],[99.6,7583],[99.6,7666],[99.6,7749],[99.6,7833],[99.6,7916],[99.6,7999],[99.6,8083],[99.6,8166],[99.6,8249],[99.6,8333],[99.6,8416],[99.6,8499],[99.6,8583],[99.6,8666],[99.6,8749],[99.6,8833],[99.6,8916],[99.6,8999],[99.6,9083],[99.6,9166],[99.6,9249]]",1,0,1778.4657,1783.599,96.14583333,4.1136,"[{""rating"":96.14583333333333,""responseTime"":4.113600000143151}]",space,4.5951,,1783.599,Not at all,0,1783.6,,,[],,0,3,3,3,1,audio/Narrative7Situation3.wav,audio/Narrative8Situation3.wav,audio/Narrative5Situation3.wav,audio/Narrative6Situation3.wav,8,4,3,5,3.7692,,,,,,,,,,,,,,,,,,,,,,,,,,,,,,,,,,,,,,
,,,,,,5a89cc2c000dab00018cbd38,2024-02-08_16h04.55.502,group3.1-3.2-social-tom,2023.2.2,Win32,59.88023952,65c5074098b851296ff0b7ed,65c541823184e001d549af57,,,,,,,,,,,,,,,,,,,,,,,,,,,,,1783.6002,1,audio/Narrative7Situation4.wav,1784.9156,space,1784.9156,1796.6491,"[[999,0],[999,83],[999,166],[999,249],[999,333],[999,416],[999,500],[999,583],[999,666],[999,750],[83.8,833],[92.5,916],[94.6,1000],[95.9,1083],[97.4,1166],[97.5,1250],[97.5,1333],[97.5,1416],[97.4,1500],[90.3,1583],[78.6,1666],[70.3,1750],[64.5,1833],[58.1,1916],[56.3,2000],[53.5,2083],[50.7,2166],[50.6,2250],[50.1,2333],[49.9,2416],[49.9,2499],[49.9,2583],[49.9,2666],[49.9,2750],[49.9,2833],[49.9,2916],[49.9,3000],[49.9,3083],[49.9,3166],[49.9,3250],[49.9,3333],[49.9,3416],[49.9,3499],[49.9,3583],[49.9,3666],[49.9,3750],[49.9,3833],[49.9,3916],[49.9,3999],[49.9,4083],[49.9,4166],[49.9,4250],[49.9,4333],[52.2,4416],[52.2,4500],[50.9,4583],[44.9,4666],[34.2,4750],[32,4833],[32,4916],[32,5000],[32,5083],[32,5166],[32,5250],[32,5333],[32,5416],[32,5500],[32,5583],[32,5666],[29.6,5750],[18.2,5833],[8.5,5916],[4.1,6000],[3.1,6083],[2.8,6166],[2.3,6250],[1.5,6333],[0.7,6416]]",1,0,1796.6491,1802.5658,0.3125,5.5513,"[{""rating"":0.3124999999999989,""responseTime"":5.5512999999523345}]",space,5.3798,,1802.5658,Partially,50,1802.5673,,,[],,0,4,4,4,1,audio/Narrative7Situation4.wav,audio/Narrative8Situation4.wav,audio/Narrative5Situation4.wav,audio/Narrative6Situation4.wav,3,3,1,2,1.3141,,,,,,,,,,,,,,,,,,,,,,,,,,,,,,,,,,,,,,
,,,,,,5a89cc2c000dab00018cbd38,2024-02-08_16h04.55.502,group3.1-3.2-social-tom,2023.2.2,Win32,59.88023952,65c5074098b851296ff0b7ed,65c541823184e001d549af57,,,,,,,,,,,,,,,,,,,,,,,,,,,,,1802.5675,1,audio/Narrative7Situation5.wav,1805.5491,space,1805.5492,1814.049,"[[999,4],[999,83],[999,166],[999,249],[999,333],[999,416],[999,499],[999,583],[999,666],[999,749],[999,833],[999,916],[999,999],[999,1083],[999,1166],[999,1250],[999,1333],[999,1416],[999,1499],[999,1583],[999,1666],[999,1749],[999,1833],[999,1916],[999,1999],[999,2083],[999,2166],[999,2249],[999,2333],[999,2416],[999,2500],[999,2583],[999,2666],[999,2749],[999,2833],[999,2916],[44.3,3000],[49.7,3083],[49.7,3166],[49.7,3249],[50.4,3333],[52.2,3416],[54.9,3500],[59.3,3583],[65.5,3666],[70.3,3750],[72.9,3833],[76,3916],[79.3,4000],[79.5,4083],[79.5,4166],[79.5,4249],[76.1,4333],[63.4,4416],[51.5,4500],[46.8,4583],[46.7,4666],[46.7,4749],[46.7,4833],[47.1,4916],[47.3,4999],[47.3,5083],[47.4,5166],[49.8,5250],[50,5333],[50,5416],[50,5499],[50,5583],[50,5666],[50,5749],[50,5833],[50,5916],[50,5999],[50,6083],[50,6166],[50,6249],[51.3,6333],[52.6,6416],[52.6,6499],[53,6583],[53.1,6666],[53.1,6749],[53.1,6833],[53.1,6916],[53.1,6999],[53.1,7083],[53.1,7166],[53.1,7249],[53.1,7333],[53.1,7416],[53.1,7499],[53.1,7583],[53.1,7666],[53.1,7749],[53.1,7833],[53.1,7916],[53.1,7999],[53.1,8083],[53.1,8166],[53.1,8249],[53.1,8333],[53.1,8416],[53.1,8499]]",1,0,1814.0491,1816.5657,50.10416667,1.4015,"[{""rating"":50.10416666666667,""responseTime"":1.4014999999999418}]",space,1.9721,,1816.5659,Definitely yes,100,1816.5674,,,[],,0,5,5,5,1,audio/Narrative7Situation5.wav,audio/Narrative8Situation5.wav,audio/Narrative5Situation5.wav,audio/Narrative6Situation5.wav,5,2,5,2,2.9693,,,,,,,,,,,,,,,,,,,,,,,,,,,,,,,,,,,,,,
,,,,,,5a89cc2c000dab00018cbd38,2024-02-08_16h04.55.502,group3.1-3.2-social-tom,2023.2.2,Win32,59.88023952,65c5074098b851296ff0b7ed,65c541823184e001d549af57,,,,,,,,,,,,,,,,,,,,,,,,,,,,,1816.5676,1,audio/Narrative7Situation6.wav,1819.5824,,1819.5824,1829.5657,"[[999,4],[999,83],[999,166],[999,249],[999,333],[999,416],[999,499],[999,583],[999,666],[999,750],[999,833],[999,916],[999,1000],[999,1083],[49.9,1166],[49.9,1249],[49.9,1333],[50.1,1416],[54.8,1500],[66.6,1583],[82.6,1666],[93.6,1750],[96.6,1833],[98.4,1916],[98.4,1999],[98.4,2083],[98.4,2166],[98.4,2249],[98.4,2333],[100,2416],[100,2499],[100,2583],[100,2666],[100,2749],[100,2833],[100,2916],[100,2999],[100,3083],[100,3166],[100,3249],[100,3333],[100,3416],[100,3499],[100,3583],[100,3666],[100,3749],[100,3833],[100,3916],[100,3999],[100,4083],[100,4166],[100,4249],[100,4333],[100,4416],[100,4499],[100,4583],[100,4666],[100,4749],[100,4833],[100,4916],[100,4999],[100,5083],[100,5166],[100,5249],[100,5333],[100,5416],[100,5499],[100,5583],[100,5666],[100,5749],[100,5833],[100,5916],[100,5999],[100,6083],[100,6166],[100,6249],[100,6333],[100,6416],[100,6499],[100,6583],[100,6666],[100,6749],[100,6833],[100,6916],[100,6999],[100,7083],[100,7166],[100,7249],[100,7333],[100,7416],[100,7499],[100,7583],[100,7666],[100,7750],[100,7833],[100,7916],[100,7999],[100,8083],[100,8166],[100,8249],[100,8333],[100,8416],[100,8499],[100,8583],[100,8666],[100,8750],[100,8833],[100,8916],[100,9000],[100,9083],[100,9166],[100,9249],[100,9333],[100,9416],[100,9499],[100,9583],[100,9666],[100,9749],[100,9833],[100,9916]]",1,0,1829.5658,1832.5324,98.54166667,2.7605,"[{""rating"":98.54166666666666,""responseTime"":2.7605000000000928}]",space,2.4315,,1832.5324,Definitely yes,100,1832.5333,,,[],,0,6,6,6,1,audio/Narrative7Situation6.wav,audio/Narrative8Situation6.wav,audio/Narrative5Situation6.wav,audio/Narrative6Situation6.wav,3,2,3,2,,,,,,,,,,,,,,,,,,,,,,,,,,,,,,,,,,,,,,,
,,,,,,5a89cc2c000dab00018cbd38,2024-02-08_16h04.55.502,group3.1-3.2-social-tom,2023.2.2,Win32,59.88023952,65c5074098b851296ff0b7ed,65c541823184e001d549af57,,,,,,,,,,,,,,,,,,,,,,,,,,,,,1832.5333,1,audio/Narrative7Situation7.wav,1837.549,,1837.5491,1854.7158,"[[89.3,166],[50.8,1333],[50.8,1416],[50.8,1500],[51,1583],[51.1,1666],[59.9,1750],[69.4,1833],[69.6,1916],[69.6,1999],[69.6,2083],[69.6,2166],[69.6,2249],[69.6,2333],[69.6,2416],[69.6,2499],[69.6,2583],[69.6,2666],[69.6,2749],[69.6,2833],[69.6,2916],[74.3,3000],[88.4,3083],[96.4,3166],[97.9,3250],[100,3333],[100,3416],[100,3499],[100,3583],[100,3666],[100,3749],[100,3833],[100,3916],[100,3999],[100,4083],[100,4166],[100,4249],[100,4333],[100,4416],[100,4499],[100,4583],[100,4666],[100,4749],[100,4833],[100,4916],[100,4999],[100,5083],[100,5166],[100,5249],[100,5333],[100,5416],[100,5499],[100,5583],[100,5666],[100,5749],[100,5833],[100,5916],[100,5999],[100,6083],[100,6166],[100,6249],[100,6333],[100,6416],[100,6499],[100,6583],[100,6666],[100,6749],[100,6833],[100,6916],[100,6999],[100,7083],[100,7166],[100,7249],[100,7333],[100,7416],[100,7499],[100,7583],[100,7666],[100,7749],[100,7833],[100,7916],[100,7999],[100,8083],[100,8166],[100,8249],[100,8333],[100,8416],[100,8499],[100,8583],[100,8666],[100,8749],[100,8833],[100,8916],[100,8999],[100,9083],[100,9166],[100,9249],[100,9333],[100,9416],[100,9499],[100,9583],[100,9666],[100,9749],[100,9833],[100,9916],[100,9999],[100,10083],[100,10166],[100,10249],[100,10333],[100,10416],[100,10499],[100,10583],[100,10666],[100,10749],[100,10833],[100,10916],[100,10999],[100,11083],[100,11166],[100,11249],[100,11333],[100,11416],[100,11499],[100,11583],[100,11666],[100,11749],[100,11833],[100,11916],[100,11999],[100,12083],[100,12166],[100,12249],[100,12333],[100,12416],[100,12499],[100,12583],[100,12666],[100,12749],[100,12833],[100,12916],[100,12999],[100,13083],[100,13166],[100,13249],[100,13333],[100,13416],[100,13499],[100,13583],[100,13666],[100,13749],[100,13833],[100,13916],[100,13999],[100,14083],[100,14166],[100,14249],[100,14333],[100,14416],[100,14499],[100,14583],[100,14666],[100,14749],[100,14833],[100,14916],[100,14999],[100,15083],[100,15166],[100,15249],[100,15333],[100,15416],[100,15499],[100,15583],[100,15666],[100,15749],[100,15833],[100,15916],[100,15999],[100,16083],[100,16166],[100,16249],[100,16333],[100,16416],[100,16499],[100,16583],[100,16666],[100,16749],[100,16833],[100,16916],[100,16999],[100,17083],[100,17166]]",1,0,1854.7159,1856.699,99.6875,1.7024,"[{""rating"":99.6875,""responseTime"":1.7023999998568797}]",space,1.4339,,1856.6991,Definitely yes,100,1856.7,,,[],,0,7,7,7,1,audio/Narrative7Situation7.wav,audio/Narrative8Situation7.wav,audio/Narrative5Situation7.wav,audio/Narrative6Situation7.wav,5,3,4,5,,,,,,,,,,,,,,,,,,,,,,,,,,,,,,,,,,,,,,,
,,,,,,5a89cc2c000dab00018cbd38,2024-02-08_16h04.55.502,group3.1-3.2-social-tom,2023.2.2,Win32,59.88023952,65c5074098b851296ff0b7ed,65c541823184e001d549af57,,,,,,,,,,,,,,,,,,,,,,,,,,,,,1856.7002,1,audio/Narrative7Situation8.wav,1858.7157,,1858.7158,1868.7491,"[[96.9,2166],[92.8,2250],[90.6,2333],[90.3,2416],[88.2,2500],[85,2583],[85,2666],[83.6,2750],[82.6,2833],[82.6,2916],[82.6,2999],[82.5,3083],[82.5,3166],[90.2,3250],[100,3333],[100,3416],[100,3499],[100,3583],[100,3666],[100,3749],[100,3833],[100,3916],[100,3999],[100,4083],[100,4166],[100,4249],[100,4333],[100,4416],[100,4499],[100,4583],[100,4666],[100,4749],[100,4833],[100,4916],[100,4999],[100,5083],[100,5166],[100,5249],[100,5333],[100,5416],[100,5499],[100,5583],[100,5666],[100,5749],[100,5833],[100,5916],[100,5999],[100,6083],[100,6166],[100,6249],[100,6333],[100,6416],[100,6499],[100,6583],[100,6666],[100,6749],[100,6833],[100,6916],[100,6999],[100,7083],[100,7166],[100,7249],[100,7333],[100,7416],[100,7499],[100,7583],[100,7666],[100,7749],[100,7833],[100,7916],[100,7999],[100,8083],[100,8166],[100,8249],[100,8333],[100,8416],[100,8499],[100,8583],[100,8666],[100,8749],[100,8833],[100,8916],[100,8999],[100,9083],[100,9166],[100,9249],[100,9333],[100,9416],[100,9499],[100,9583],[100,9666],[100,9749],[100,9833],[100,9916],[100,9999]]",1,0,1868.7492,1872.4991,99.6875,3.3081,"[{""rating"":99.6875,""responseTime"":3.3081000001429857}]",space,3.2076,,1872.4991,Not at all,0,1872.5006,,,[],,0,8,8,8,1,audio/Narrative7Situation8.wav,audio/Narrative8Situation8.wav,audio/Narrative5Situation8.wav,audio/Narrative6Situation8.wav,2,3,3,5,,,,,,,,,,,,,,,,,,,,,,,,,,,,,,,,,,,,,,,
,,,,,,5a89cc2c000dab00018cbd38,2024-02-08_16h04.55.502,group3.1-3.2-social-tom,2023.2.2,Win32,59.88023952,65c5074098b851296ff0b7ed,65c541823184e001d549af57,,,,,,,,,,,,,,,,,,,,,,,,,,,,,1872.5007,1,audio/Narrative7Situation9.wav,1874.5157,,1874.5158,1883.1324,[],1,0,1883.1325,1887.299,99.6875,2.0496,"[{""rating"":99.6875,""responseTime"":2.0495999999047854}]",space,3.6274,,1887.2991,Definitely yes,100,1887.3004,,,[],,0,9,9,9,1,audio/Narrative7Situation9.wav,audio/Narrative8Situation9.wav,audio/Narrative5Situation9.wav,audio/Narrative6Situation9.wav,2,3,3,4,,,,,,,,,,,,,,,,,,,,,,,,,,,,,,,,,,,,,,,
,,,,,,5a89cc2c000dab00018cbd38,2024-02-08_16h04.55.502,group3.1-3.2-social-tom,2023.2.2,Win32,59.88023952,65c5074098b851296ff0b7ed,65c541823184e001d549af57,,,,,,,,,,,,,,,,,,,,,,,,,,,,,1887.3005,1,audio/Narrative8Situation1.wav,1892.3158,,1892.3158,1908.2491,"[[999,4],[999,83],[999,166],[999,249],[999,333],[999,416],[999,499],[999,583],[999,666],[999,750],[999,833],[999,916],[49,1000],[48.8,1083],[48.8,1166],[48.8,1249],[48.8,1333],[48.8,1416],[48.8,1499],[48.8,1583],[48.8,1666],[48.8,1749],[49.2,1833],[49.7,1916],[50.9,2000],[52.2,2083],[53.4,2166],[54.2,2250],[54.3,2333],[54.3,2416],[54.3,2499],[54.3,2583],[54.3,2666],[53.8,2750],[53.8,2833],[53.4,2916],[52.7,3000],[52,3083],[51.1,3166],[51.1,3249],[51.1,3333],[51.1,3416],[51.1,3499],[51.1,3583],[51.1,3666],[51.1,3749],[51.1,3833],[51.1,3916],[51.1,3999],[51.1,4083],[51.1,4166],[51.1,4249],[51.1,4333],[51.1,4416],[51.1,4499],[51.1,4583],[51.1,4666],[51.1,4749],[51.1,4833],[51.1,4916],[51.1,4999],[51.1,5083],[51.1,5166],[51.1,5249],[51.1,5333],[51.1,5416],[46.4,5500],[37.7,5583],[34.2,5666],[33.1,5750],[29.6,5833],[24.3,5916],[22.4,5999],[22.4,6083],[22.4,6166],[22.4,6249],[22.4,6333],[22.4,6416],[22.4,6499],[22.4,6583],[22.4,6666],[22.4,6749],[22.4,6833],[22.4,6916],[22.4,6999],[22.4,7083],[22.4,7166],[22.4,7249],[22.4,7333],[22.4,7416],[22.4,7499],[22.4,7583],[22.4,7666],[22.4,7749],[22.4,7833],[22.4,7916],[22.4,7999],[22.4,8083],[22.4,8166],[22.4,8249],[22.4,8333],[22.4,8416],[22.4,8499],[22.4,8583],[22.4,8666],[22.4,8749],[22.4,8833],[22.4,8916],[22.4,8999],[22.4,9083],[22.4,9166],[22.4,9249],[22.4,9333],[22.4,9416],[22.4,9499],[22.4,9583],[22.4,9666],[22.4,9749],[22.4,9833],[22.4,9916],[30.9,10000],[94,10250],[96.3,10333],[98.8,10416],[98.8,10499],[98.8,10583],[98.8,10666],[98.8,10750],[98.8,10833],[98.8,10916],[98.8,10999],[98.8,11083],[98.8,11166],[98.8,11250],[98.8,11333],[98.8,11416],[98.8,11499],[98.8,11583],[98.8,11666],[98.8,11750],[98.8,11833],[98.8,11916],[98.8,12000],[98.8,12083],[98.8,12166],[98.8,12250],[98.8,12333],[98.8,12416],[98.8,12499],[98.8,12583],[98.8,12666],[98.8,12749],[98.8,12833],[98.8,12916],[98.8,12999],[98.8,13083],[98.8,13166],[98.8,13249],[98.8,13333],[98.8,13416],[98.8,13499],[98.8,13583],[98.8,13666],[98.8,13749],[98.8,13833],[98.8,13916],[98.8,13999],[98.8,14083],[98.8,14166],[98.8,14250],[98.8,14333],[98.8,14416],[98.8,14499],[98.8,14583],[98.8,14666],[98.8,14750],[98.8,14833],[98.8,14916],[98.8,14999],[98.8,15083],[98.8,15166],[98.8,15250],[98.8,15333],[98.8,15416],[98.8,15499],[98.8,15583],[98.8,15666],[98.8,15750],[98.8,15833],[98.8,15916]]",1,0,1908.2492,1911.3657,98.75,1.3674,"[{""rating"":98.75,""responseTime"":1.3674000000953583}]",space,2.5799,,1911.3658,Not at all,0,1911.3671,,,[],,0,10,10,10,1,audio/Narrative8Situation1.wav,audio/Narrative7Situation1.wav,audio/Narrative6Situation1.wav,audio/Narrative5Situation1.wav,5,2,2,5,,,,,,,,,,,,,,,,,,,,,,,,,,,,,,,,,,,,,,,
,,,,,,5a89cc2c000dab00018cbd38,2024-02-08_16h04.55.502,group3.1-3.2-social-tom,2023.2.2,Win32,59.88023952,65c5074098b851296ff0b7ed,65c541823184e001d549af57,,,,,,,,,,,,,,,,,,,,,,,,,,,,,1911.3673,1,audio/Narrative8Situation2.wav,1913.8992,space,1913.8992,1924.0325,"[[999,0],[999,83],[999,166],[999,249],[999,333],[999,416],[999,499],[999,583],[999,666],[999,750],[999,833],[53,916],[52.8,999],[52.8,1083],[52.8,1166],[52.8,1249],[52.8,1333],[52.8,1416],[52.8,1499],[52.8,1583],[52.8,1666],[53.9,1750],[66.5,1833],[81,1916],[82.8,1999],[82.8,2083],[82.8,2166],[82.8,2249],[82.8,2333],[82.8,2416],[82.8,2499],[82.8,2583],[82.8,2666],[79.1,2749],[63.3,2833],[50.1,2916],[48.5,2999],[48.5,3083],[48.5,3166],[48.5,3249],[43,3333],[32.4,3416],[26.7,3500],[25.8,3583],[25.8,3666],[25.8,3749],[25.8,3833],[25.8,3916],[25.8,3999],[25.8,4083],[25.8,4166],[25.8,4249],[25.8,4333],[25.8,4416],[25.8,4499],[25.8,4583],[25.8,4666],[25.8,4749],[25.8,4833],[25.8,4916],[25.8,4999],[24.5,5083],[21.3,5166],[20.9,5249],[20.9,5333],[20.9,5416],[20.9,5499],[20.9,5583],[20.9,5666],[20.9,5749],[20.9,5833],[20.9,5916],[20.9,5999],[20.9,6083],[20.9,6166],[20.9,6249],[20.9,6333],[20.9,6416],[20.9,6499],[20.9,6583],[20.9,6666],[20.9,6749],[20.9,6833],[20.9,6916],[20.9,6999],[20.9,7083],[20.9,7166],[20.9,7249],[20.9,7333],[20.9,7416],[20.9,7499],[20.9,7583],[20.9,7666],[20.9,7749],[20.9,7833],[20.9,7916],[20.9,7999],[20.9,8083],[20.9,8166],[20.9,8249],[20.9,8333],[20.9,8416],[20.9,8499],[20.9,8583],[20.9,8666],[20.5,8750],[17.3,8833],[11.1,8916],[4.4,9000],[3.2,9083],[1.8,9166],[1.4,9249],[1.4,9333],[1.4,9416],[1.4,9499],[1.4,9583],[1.4,9666],[1.4,9749],[1.4,9833],[1.4,9916],[0.6,9999]]",1,0,1924.0326,1930.2158,6.666666667,6.1762,"[{""rating"":6.666666666666665,""responseTime"":6.176200000047629}]",space,4.573,,1930.2158,Definitely yes,100,1939.5992,99.89583333,6.9879,"[{""rating"":99.89583333333334,""responseTime"":6.987899999856836}]",space,0,11,11,11,1,audio/Narrative8Situation2.wav,audio/Narrative7Situation2.wav,audio/Narrative6Situation2.wav,audio/Narrative5Situation2.wav,3,3,3,3,2.514,,8.8534,,,,,,,,,,,,,,,,,,,,,,,,,,,,,,,,,,,,
,,,,,,5a89cc2c000dab00018cbd38,2024-02-08_16h04.55.502,group3.1-3.2-social-tom,2023.2.2,Win32,59.88023952,65c5074098b851296ff0b7ed,65c541823184e001d549af57,,,,,,,,,,,,,,,,,,,,,,,,,,,,,1939.5994,1,audio/Narrative8Situation3.wav,1942.7491,space,1942.7492,1965.1325,"[[999,0],[999,83],[999,166],[999,249],[999,333],[999,416],[999,499],[999,583],[999,666],[999,749],[999,833],[999,916],[999,999],[999,1083],[999,1166],[999,1249],[999,1333],[999,1416],[999,1499],[999,1583],[999,1666],[999,1749],[999,1833],[999,1916],[999,1999],[999,2083],[999,2166],[999,2249],[999,2333],[999,2416],[999,2500],[999,2583],[999,2666],[999,2749],[999,2833],[999,2916],[999,2999],[999,3083],[999,3166],[999,3249],[999,3333],[999,3416],[999,3499],[999,3583],[999,3666],[999,3749],[999,3833],[999,3916],[999,3999],[999,4083],[999,4166],[999,4249],[999,4333],[999,4416],[999,4499],[999,4583],[999,4666],[999,4749],[999,4833],[999,4916],[999,4999],[999,5083],[999,5166],[999,5249],[999,5333],[999,5416],[999,5499],[999,5583],[999,5666],[999,5749],[999,5833],[999,5916],[999,6000],[999,6083],[999,6166],[999,6250],[999,6333],[999,6416],[51.3,6500],[50,6583],[50,6666],[50,6749],[50,6833],[50,6916],[50,6999],[50,7083],[51,7166],[56.7,7250],[59.3,7333],[61.1,7416],[74.3,7500],[79.7,7583],[79.7,7666],[79.7,7749],[79.7,7833],[79.7,7916],[79.7,7999],[79.7,8083],[79.7,8166],[79.7,8249],[83.2,8333],[92.3,8416],[93.5,8499],[93.9,8583],[97.6,8666],[98.4,8750],[99.6,8833],[99.7,8916],[99.7,8999],[99.7,9083],[99.7,9166],[99.7,9249],[99.7,9333],[99.7,9416],[99.7,9499],[99.7,9583],[99.7,9666],[99.7,9749],[99.7,9833],[99.7,9916],[99.7,9999],[99.7,10083],[99.7,10166],[99.7,10249],[99.7,10333],[99.7,10416],[99.7,10499],[99.7,10583],[99.7,10666],[99.7,10749],[99.7,10833],[99.7,10916],[99.7,10999],[99.7,11083],[99.7,11166],[99.7,11249],[99.7,11333],[99.7,11416],[99.7,11499],[99.7,11583],[99.7,11666],[99.7,11749],[99.7,11833],[99.7,11916],[99.7,11999],[99.7,12083],[99.7,12166],[99.7,12249],[99.7,12333],[99.7,12416],[99.7,12499],[99.7,12583],[99.7,12666],[99.7,12749],[99.7,12833],[99.7,12916],[99.7,12999],[99.7,13083],[99.7,13166],[99.7,13249],[99.7,13333],[99.7,13416],[99.7,13499],[99.7,13583],[99.7,13666],[99.7,13749],[99.7,13833],[99.7,13916],[99.7,13999],[99.7,14083],[99.7,14166],[99.7,14249],[99.7,14333],[99.7,14416],[99.7,14499],[99.7,14583],[99.7,14666],[99.7,14749],[99.7,14833],[99.7,14916],[99.7,14999],[99.7,15083],[99.7,15166],[99.7,15249],[99.7,15333],[99.7,15416],[99.7,15499],[99.7,15583],[99.7,15666],[99.7,15749],[99.7,15833],[99.7,15916],[99.7,15999],[99.7,16083],[99.7,16166],[99.7,16249],[99.7,16333],[99.7,16416],[99.7,16499],[99.7,16583],[99.7,16666],[99.7,16749],[99.7,16833],[99.7,16916],[99.7,16999],[99.7,17083],[99.7,17166],[99.7,17249],[99.7,17333],[99.7,17416],[99.7,17499],[99.7,17583],[99.7,17666],[99.7,17749],[99.7,17833],[99.7,17916],[99.7,17999],[99.7,18083],[99.7,18166],[99.7,18249],[99.7,18333],[99.7,18416],[99.7,18499],[99.7,18583],[99.7,18666],[99.7,18749],[99.7,18833],[99.7,18916],[99.7,19000],[99.7,19083],[99.7,19166],[99.7,19249],[99.7,19333],[99.7,19416],[99.7,19499],[99.7,19583],[99.7,19666],[99.7,19749],[99.7,19833],[99.7,19916],[99.7,20000],[99.7,20083],[99.7,20166],[99.7,20249],[99.7,20333],[99.7,20416],[99.7,20499],[99.7,20583],[99.7,20666],[99.7,20749],[99.7,20833],[99.7,20916],[99.7,20999],[99.7,21083],[99.7,21166],[99.7,21249],[99.7,21333],[99.7,21416],[99.7,21499],[99.7,21583],[99.7,21666],[99.7,21749],[99.7,21833],[99.7,21916],[99.7,21999],[99.7,22083],[99.7,22166],[99.7,22249],[99.7,22333]]",1,0,1965.1326,1969.0492,99.6875,3.671,"[{""rating"":99.6875,""responseTime"":3.6710000000002765}]",space,3.3768,,1969.0492,Definitely yes,100,1969.0501,,,[],,0,12,12,12,1,audio/Narrative8Situation3.wav,audio/Narrative7Situation3.wav,audio/Narrative6Situation3.wav,audio/Narrative5Situation3.wav,4,8,5,3,3.1465,,,,,,,,,,,,,,,,,,,,,,,,,,,,,,,,,,,,,,
,,,,,,5a89cc2c000dab00018cbd38,2024-02-08_16h04.55.502,group3.1-3.2-social-tom,2023.2.2,Win32,59.88023952,65c5074098b851296ff0b7ed,65c541823184e001d549af57,,,,,,,,,,,,,,,,,,,,,,,,,,,,,1969.0503,1,audio/Narrative8Situation4.wav,1971.8994,space,1971.8994,1986.0825,"[[97.5,499],[97.5,583],[97.5,666],[97.5,749],[97.5,833],[97.5,916],[97.5,999],[97.5,1083],[97.5,1166],[97.5,1249],[97.5,1333],[97.5,1416],[97.5,1499],[97.5,1583],[97.5,1666],[95.9,1749],[90.7,2583],[92.3,2666],[93.6,2749],[94.3,2833],[94.7,2916],[94.7,2999],[94.7,3083],[94.7,3166],[94.7,3249],[94.7,3333],[94.7,3416],[94.7,3499],[95.3,3583],[100,3666],[100,3749],[100,3833],[100,3916],[100,3999],[100,4083],[100,4166],[100,4249],[100,4333],[100,4416],[100,4499],[100,4583],[100,4666],[100,4749],[100,4833],[100,4916],[100,4999],[100,5083],[100,5166],[100,5249],[100,5333],[100,5416],[100,5499],[100,5583],[100,5666],[100,5749],[100,5833],[100,5916],[100,5999],[100,6083],[100,6166],[100,6249],[100,6333],[100,6416],[100,6499],[100,6583],[100,6666],[100,6749],[100,6833],[100,6916],[100,6999],[100,7083],[100,7166],[100,7249],[100,7333],[100,7416],[100,7499],[100,7583],[100,7666],[100,7749],[100,7833],[100,7916],[100,7999],[100,8083],[100,8166],[100,8249],[100,8333],[100,8416],[100,8499],[100,8583],[100,8666],[100,8749],[100,8833],[100,8916],[100,8999],[100,9083],[100,9166],[100,9249],[100,9333],[100,9416],[100,9499],[100,9583],[100,9666],[100,9749],[100,9833],[100,9916],[100,9999],[100,10083],[100,10166],[100,10249],[100,10333],[100,10416],[100,10499],[100,10583],[100,10666],[100,10749],[100,10833],[100,10916],[100,10999],[100,11083],[100,11166],[100,11249],[100,11333],[100,11416],[100,11499],[100,11583],[100,11666],[100,11749],[100,11833],[100,11916],[100,11999],[100,12083],[100,12166],[100,12249],[100,12333],[100,12416],[100,12499],[100,12583],[100,12666],[100,12749],[100,12833],[100,12916],[100,12999],[100,13083],[100,13166],[100,13249],[100,13333],[100,13416],[100,13499],[100,13583],[100,13666],[100,13749],[100,13833],[100,13916],[100,13999],[100,14083],[100,14166]]",1,0,1986.0826,1988.3492,99.6875,1.9142,"[{""rating"":99.6875,""responseTime"":1.9141999998091705}]",space,1.7228,,1988.3492,Not at all,0,1988.3507,,,[],,0,13,13,13,1,audio/Narrative8Situation4.wav,audio/Narrative7Situation4.wav,audio/Narrative6Situation4.wav,audio/Narrative5Situation4.wav,3,3,2,1,2.848,,,,,,,,,,,,,,,,,,,,,,,,,,,,,,,,,,,,,,
,,,,,,5a89cc2c000dab00018cbd38,2024-02-08_16h04.55.502,group3.1-3.2-social-tom,2023.2.2,Win32,59.88023952,65c5074098b851296ff0b7ed,65c541823184e001d549af57,,,,,,,,,,,,,,,,,,,,,,,,,,,,,1988.3507,1,audio/Narrative8Situation5.wav,1990.3658,,1990.3659,1998.6159,"[[98.3,3916],[96.1,4000],[94.4,4083],[94.4,4166],[94.2,4250],[93.9,4333],[93.9,4416],[93.9,4499],[93.9,4583],[95,4666],[99,4750],[99.6,4833],[99.6,4916],[99.6,4999],[99.6,5083],[99.6,5166],[99.6,5249],[99.6,5333],[99.6,5416],[99.6,5499],[99.6,5583],[99.6,5666],[99.6,5749],[99.6,5833],[99.6,5916],[99.6,5999],[99.6,6083],[99.6,6166],[99.6,6250],[99.6,6333],[99.6,6416],[99.6,6499],[99.6,6583],[99.6,6666],[99.6,6749],[99.6,6833],[99.6,6916],[99.6,6999],[99.6,7083],[99.6,7166],[99.6,7249],[99.6,7333],[99.6,7416],[99.6,7499],[99.6,7583],[99.6,7666],[99.6,7749],[99.6,7833],[99.6,7916],[99.6,7999],[99.6,8083],[99.6,8166],[99.6,8249]]",1,0,1998.616,2000.3991,99.58333333,0.9694,"[{""rating"":99.58333333333333,""responseTime"":0.9694000000949927}]",space,1.2449,,2000.3993,Definitely yes,100,2000.4004,,,[],,0,14,14,14,1,audio/Narrative8Situation5.wav,audio/Narrative7Situation5.wav,audio/Narrative6Situation5.wav,audio/Narrative5Situation5.wav,2,5,2,5,,,,,,,,,,,,,,,,,,,,,,,,,,,,,,,,,,,,,,,
,,,,,,5a89cc2c000dab00018cbd38,2024-02-08_16h04.55.502,group3.1-3.2-social-tom,2023.2.2,Win32,59.88023952,65c5074098b851296ff0b7ed,65c541823184e001d549af57,,,,,,,,,,,,,,,,,,,,,,,,,,,,,2000.4006,1,audio/Narrative8Situation6.wav,2002.4159,,2002.4159,2008.8992,"[[99.2,666],[98.9,750],[98.8,833],[98.8,916],[98.8,999],[98.8,1083],[98.8,1166],[98.8,1249],[98.8,1333],[98.8,1416],[99.1,1500],[99.3,1583],[99.3,1666],[99.3,1749],[99.3,1833],[99.3,1916],[99.3,1999],[99.3,2083],[99.3,2166],[99.3,2249],[99.3,2333],[99.3,2416],[99.3,2499],[99.3,2583],[99.3,2666],[99.3,2750],[99.3,2833],[99.3,2916],[99.3,2999],[99.3,3083],[99.3,3166],[99.3,3249],[99.3,3333],[99.3,3416],[99.3,3499],[99.3,3583],[99.3,3666],[99.3,3749],[99.3,3833],[99.3,3916],[99.3,3999],[99.3,4083],[99.3,4166],[99.3,4249],[99.3,4333],[99.3,4416],[99.3,4499],[99.3,4583],[99.3,4666],[99.3,4749],[99.3,4833],[99.3,4916],[99.3,4999],[99.3,5083],[99.3,5166],[99.3,5249],[99.3,5333],[99.3,5416],[99.3,5499],[99.3,5583],[99.3,5666],[99.3,5749],[99.3,5833],[99.3,5916],[99.3,5999],[99.3,6083],[99.3,6166],[99.3,6249],[99.3,6333],[99.3,6416]]",1,0,2008.8993,2012.3825,99.0625,2.9354,"[{""rating"":99.0625,""responseTime"":2.9353999998570544}]",space,2.938,,2012.3826,Partially,50,2012.3838,,,[],,0,15,15,15,1,audio/Narrative8Situation6.wav,audio/Narrative7Situation6.wav,audio/Narrative6Situation6.wav,audio/Narrative5Situation6.wav,2,3,2,3,,,,,,,,,,,,,,,,,,,,,,,,,,,,,,,,,,,,,,,
,,,,,,5a89cc2c000dab00018cbd38,2024-02-08_16h04.55.502,group3.1-3.2-social-tom,2023.2.2,Win32,59.88023952,65c5074098b851296ff0b7ed,65c541823184e001d549af57,,,,,,,,,,,,,,,,,,,,,,,,,,,,,2012.3839,1,audio/Narrative8Situation7.wav,2015.3992,,2015.3993,2027.4992,"[[98.5,750],[97.2,833],[96.7,916],[96.7,999],[96.7,1083],[97.3,1166],[97.6,1249],[97.8,1333],[98.1,1416],[98.4,1499],[98.4,1583],[98.4,1666],[98.4,1749],[98.4,1833],[98.4,1916],[98.4,1999],[98.4,2083],[98.4,2166],[98.4,2249],[98.4,2333],[98.4,2416],[98.4,2499],[98.4,2583],[98.4,2666],[98.4,2749],[98.4,2833],[98.4,2916],[98.4,2999],[98.4,3083],[98.4,3166],[98.6,3249],[98.6,3333],[98.6,3416],[98.6,3499],[98.6,3583],[98.6,3666],[98.6,3749],[98.6,3833],[98.6,3916],[98.6,3999],[98.6,4083],[98.6,4166],[98.6,4249],[98.6,4333],[98.6,4416],[98.6,4499],[98.6,4583],[98.6,4666],[98.6,4749],[98.6,4833],[98.6,4916],[98.6,4999],[98.6,5083],[98.6,5166],[98.6,5249],[98.6,5333],[98.6,5416],[98.6,5499],[98.6,5583],[98.6,5666],[98.6,5749],[98.6,5833],[98.6,5916],[98.6,5999],[98.6,6083],[98.6,6166],[98.6,6249],[98.6,6333],[98.6,6416],[98.6,6499],[98.6,6583],[98.6,6666],[98.6,6749],[98.6,6833],[98.6,6916],[98.6,6999],[98.6,7083],[98.6,7166],[98.6,7249],[98.6,7333],[98.6,7416],[98.6,7499],[98.6,7583],[98.6,7666],[98.6,7749],[98.6,7833],[98.6,7916],[98.6,7999],[98.6,8083],[98.6,8166],[98.6,8249],[98.6,8333],[98.6,8416],[98.6,8499],[98.6,8583],[98.6,8666],[98.6,8749],[98.6,8833],[98.6,8916],[98.6,8999],[98.6,9083],[98.6,9166],[98.6,9249],[98.6,9333],[98.6,9416],[98.6,9499],[98.6,9583],[98.6,9666],[98.6,9749],[98.6,9833],[98.6,9916],[98.6,9999],[98.6,10083],[98.6,10166],[98.6,10249],[98.6,10333],[98.6,10416],[98.6,10499],[98.6,10583],[98.6,10666],[98.6,10749],[98.6,10833],[98.6,10916],[98.6,10999],[98.6,11083],[98.6,11166],[98.6,11249],[98.6,11333],[98.6,11416],[98.6,11499],[98.6,11583],[98.6,11666],[98.6,11749],[98.6,11833],[98.6,11916],[98.6,12000],[98.6,12083]]",1,0,2027.4993,2029.8659,98.64583333,1.3069,"[{""rating"":98.64583333333333,""responseTime"":1.3069000000950837}]",space,1.8257,,2029.866,Definitely yes,100,2029.8672,,,[],,0,16,16,16,1,audio/Narrative8Situation7.wav,audio/Narrative7Situation7.wav,audio/Narrative6Situation7.wav,audio/Narrative5Situation7.wav,3,5,5,4,,,,,,,,,,,,,,,,,,,,,,,,,,,,,,,,,,,,,,,
,,,,,,5a89cc2c000dab00018cbd38,2024-02-08_16h04.55.502,group3.1-3.2-social-tom,2023.2.2,Win32,59.88023952,65c5074098b851296ff0b7ed,65c541823184e001d549af57,,,,,,,,,,,,,,,,,,,,,,,,,,,,,2029.8673,1,audio/Narrative8Situation8.wav,2032.8825,,2032.8825,2045.7326,"[[98.5,1083],[98.8,1166],[98.8,1250],[98.8,1333],[98.8,1416],[98.8,1499],[98.8,1583],[98.8,1666],[98.8,1750],[98.8,1833],[98.9,1916],[98.9,2000],[98.9,2083],[98.9,2166],[98.9,2250],[98.9,2333],[98.9,2416],[98.9,2499],[98.9,2583],[98.9,2666],[98.9,2750],[98.9,2833],[98.9,2916],[98.9,3000],[98.9,3083],[98.9,3166],[98.9,3250],[98.9,3333],[98.9,3416],[98.9,3499],[98.9,3583],[98.9,3666],[98.9,3750],[98.9,3833],[98.9,3916],[98.9,4000],[98.9,4083],[98.9,4166],[98.9,4250],[98.9,4333],[98.9,4416],[98.9,4500],[98.9,4583],[98.9,4666],[98.9,4750],[98.9,4833],[98.9,4916],[98.9,5000],[98.9,5083],[98.9,5166],[98.9,5250],[98.9,5333],[98.9,5416],[98.9,5500],[98.9,5583],[98.9,5666],[98.9,5750],[98.9,5833],[98.9,5916],[98.9,6000],[98.9,6083],[98.9,6166],[98.9,6250],[98.9,6333],[98.9,6416],[98.9,6500],[98.9,6583],[98.9,6666],[98.9,6750],[98.9,6833],[98.9,6916],[98.9,7000],[98.9,7083],[98.9,7166],[98.9,7250],[98.9,7333],[98.9,7416],[98.9,7500],[98.9,7583],[98.9,7666],[98.9,7749],[98.9,7833],[98.9,7916],[98.9,8000],[98.9,8083],[98.9,8166],[98.9,8250],[98.9,8333],[98.9,8416],[98.9,8500],[98.9,8583],[98.9,8666],[98.9,8750],[98.9,8833],[98.9,8916],[98.9,9000],[98.9,9083],[98.9,9166],[98.9,9250],[98.9,9333],[98.9,9416],[98.9,9500],[98.9,9583],[98.9,9666],[98.9,9750],[98.9,9833],[98.9,9916],[98.9,10000],[98.9,10083],[98.9,10166],[98.9,10250],[98.9,10333],[98.9,10416],[98.9,10500],[98.9,10583],[98.9,10666],[98.9,10750],[98.9,10833],[98.9,10916],[98.9,11000],[98.9,11083],[98.9,11166],[98.9,11250],[98.9,11333],[98.9,11416],[98.9,11500],[98.9,11583],[98.9,11666],[98.9,11750],[98.9,11833],[98.9,11916],[98.9,12000],[98.9,12083],[98.9,12166],[98.9,12249],[98.9,12333],[98.9,12416],[98.9,12500],[98.9,12583],[98.9,12666],[98.9,12750],[98.9,12833]]",1,0,2045.7326,2048.2492,98.85416667,1.7548,"[{""rating"":98.85416666666667,""responseTime"":1.7547999999524109}]",space,1.9847,,2048.2493,Not at all,0,2048.2505,,,[],,0,17,17,17,1,audio/Narrative8Situation8.wav,audio/Narrative7Situation8.wav,audio/Narrative6Situation8.wav,audio/Narrative5Situation8.wav,3,2,5,3,,,,,,,,,,,,,,,,,,,,,,,,,,,,,,,,,,,,,,,
,,,,,,5a89cc2c000dab00018cbd38,2024-02-08_16h04.55.502,group3.1-3.2-social-tom,2023.2.2,Win32,59.88023952,65c5074098b851296ff0b7ed,65c541823184e001d549af57,,,,,,,,,,,,,,,,,,,,,,,,,,,,,2048.2507,1,audio/Narrative8Situation9.wav,2051.2659,,2051.266,2062.5992,"[[98,7833],[97.9,7916],[97.9,7999],[97.9,8083],[97.9,8166],[97.9,8249],[97.9,8333],[98,8416],[98.2,8500],[98.3,8583],[98.4,8666],[98.9,8749],[99,8833],[99,8916],[99,8999],[99,9083],[99,9166],[99,9249],[99,9333],[99,9416],[99,9499],[99,9583],[99,9666],[99,9749],[99,9833],[99,9916],[99,9999],[99,10083],[99,10166],[99,10249],[99,10333],[99,10416],[99,10499],[99,10583],[99,10666],[99,10749],[99,10833],[99,10916],[99,10999],[98.6,11083],[98.5,11166],[98.5,11249],[98.5,11333]]",1,0,2062.5993,2067.2159,100,3.6406,"[{""rating"":95.625,""responseTime"":2.9148000001910077},{""rating"":100,""responseTime"":3.6406000001429675}]",space,4.0694,,2067.216,Definitely yes,100,2067.2173,,,[],,0,18,18,18,1,audio/Narrative8Situation9.wav,audio/Narrative7Situation9.wav,audio/Narrative6Situation9.wav,audio/Narrative5Situation9.wav,3,2,4,3,,,,,,,,,,,,,,,,,,,,,,,,,,,,,,,,,,,,,,,
,,,,,,5a89cc2c000dab00018cbd38,2024-02-08_16h04.55.502,group3.1-3.2-social-tom,2023.2.2,Win32,59.88023952,65c5074098b851296ff0b7ed,65c541823184e001d549af57,,,,,,,,,,,,,,,,,,,,,,,,,,,2069.3329,2071.9159,2071.9262,2,audio/Narrative13Situation2.wav,2071.9263,,2071.9263,2101.666,"[[999,0],[999,72],[999,156],[999,239],[999,322],[999,406],[999,489],[999,572],[999,656],[999,739],[999,822],[999,906],[999,989],[999,1072],[999,1156],[999,1239],[999,1322],[999,1406],[999,1489],[91.4,1572],[96.3,1656],[97.8,1739],[98.2,1822],[99.4,1906],[99.5,1989],[99.5,2072],[99.5,2156],[99.5,2239],[99.5,2322],[99.5,2406],[99.5,2489],[99.5,2572],[99.5,2656],[99.5,2739],[99.5,2822],[99.5,2906],[99.5,2989],[99.5,3072],[99.5,3156],[99.5,3239],[99.5,3322],[99.5,3406],[99.5,3489],[99.5,3572],[99.5,3656],[99.5,3739],[99.5,3822],[99.5,3906],[99.5,3989],[99.5,4072],[99.5,4156],[99.5,4239],[99.5,4322],[99.5,4406],[99.5,4489],[99.5,4572],[99.5,4656],[99.5,4739],[99.5,4822],[99.5,4906],[99.5,4989],[99.5,5072],[99.5,5156],[99.5,5239],[99.5,5322],[99.5,5406],[99.5,5489],[99.5,5572],[99.5,5656],[99.5,5739],[99.5,5822],[99.5,5906],[99.5,5989],[99.5,6072],[99.5,6156],[99.5,6239],[99.5,6322],[99.5,6406],[99.5,6489],[99.5,6572],[99.5,6656],[99.5,6739],[99.5,6822],[99.5,6906],[99.5,6989],[99.5,7072],[99.5,7156],[99.5,7239],[99.5,7322],[99.5,7406],[99.5,7489],[99.5,7572],[99.5,7656],[99.5,7739],[99.5,7822],[99.5,7906],[99.5,7989],[99.5,8072],[99.5,8156],[99.5,8239],[99.5,8322],[99.5,8406],[99.5,8489],[99.5,8572],[99.5,8656],[99.5,8739],[99.5,8822],[99.5,8906],[99.5,8989],[99.5,9072],[99.5,9156],[99.5,9239],[99.5,9323],[99.5,9406],[99.5,9489],[99.5,9572],[99.5,9656],[99.5,9739],[99.5,9822],[99.5,9906],[99.5,9989],[99.5,10072],[99.5,10156],[99.5,10239],[99.5,10322],[99.5,10406],[99.5,10489],[99.5,10572],[99.5,10656],[99.5,10739],[99.5,10822],[99.5,10906],[99.5,10989],[99.5,11072],[99.5,11156],[99.5,11239],[99.5,11322],[99.5,11406],[99.5,11489],[99.5,11572],[99.5,11656],[99.5,11739],[99.5,11822],[99.5,11906],[99.5,11989],[99.5,12072],[99.5,12156],[99.5,12239],[99.5,12322],[99.5,12406],[99.5,12489],[99.5,12572],[99.5,12656],[99.5,12739],[99.5,12822],[99.5,12906],[99.5,12989],[99.5,13072],[99.5,13156],[99.5,13239],[99.5,13322],[99.5,13406],[99.5,13489],[99.5,13572],[99.5,13656],[99.5,13739],[99.5,13822],[99.5,13906],[99.5,13989],[99.5,14072],[99.5,14156],[99.5,14239],[99.5,14322],[99.5,14406],[99.5,14489],[99.5,14572],[99.5,14656],[99.5,14739],[99.5,14822],[99.5,14906],[99.5,14989],[99.5,15072],[99.5,15156],[99.5,15239],[99.5,15322],[99.5,15406],[99.5,15489],[99.5,15572],[99.5,15656],[98.1,15739],[91.3,15822],[84.5,15906],[79.2,15989],[73.8,16073],[69.2,16156],[65,16239],[62,16323],[59.1,16406],[58.6,16489],[58.2,16572],[57.7,16656],[56.8,16739],[55.5,16822],[55.1,16906],[55.1,16989],[55.1,17072],[55.1,17156],[55.1,17239],[55.1,17322],[55.1,17406],[55.1,17489],[55.1,17572],[55.1,17656],[55.1,17739],[55.1,17822],[55.1,17906],[55.1,17989],[55.1,18072],[55.1,18156],[55.1,18239],[55.1,18322],[55.1,18406],[55.1,18489],[55.1,18572],[55.1,18656],[55.1,18739],[54.9,18822],[54.3,18906],[53,18989],[51.7,19072],[51.1,19156],[50.1,19239],[50,19322],[50,19406],[50,19489],[50,19572],[50,19656],[50,19739],[50,19822],[50,19906],[50,19989],[49.4,20072],[42.7,20156],[35.9,20239],[13.3,20906],[12.5,20989],[12.1,21072],[12.1,21156],[11.9,21239],[10.8,21323],[10.1,21406],[9,21489],[7,21573],[5.7,21656],[4.9,21739],[4.3,21822],[3.9,21906],[3.2,21989],[3.2,22072],[3.2,22156],[3.2,22239],[3.2,22322],[3.2,22406],[3.2,22489],[3.2,22572],[3.2,22656],[3.2,22739],[3.2,22822],[3.2,22906],[3.2,22989],[3.2,23072],[3.2,23156],[3.2,23239],[3.2,23322],[3.2,23406],[3.2,23489],[3.2,23572],[3.2,23656],[3.2,23739],[3.2,23822],[3.2,23906],[3.2,23989],[3.2,24072],[3.2,24156],[3.2,24239],[3.2,24322],[3.2,24406],[3.2,24489],[3.2,24572],[3.2,24656],[3.2,24739],[3.2,24822],[3.2,24906],[3.2,24989],[3.2,25072],[3.2,25156],[3.2,25239],[3.2,25322],[3.2,25406],[3.2,25489],[3.2,25572],[3.2,25656],[3.2,25739],[3.2,25822],[3.2,25906],[3.2,25989],[3.2,26072],[3.2,26156],[3.2,26239],[3.2,26322],[3.2,26406],[3.2,26489],[3.2,26572],[3.2,26656],[3.2,26739],[3.2,26822],[3.2,26906],[3.2,26989],[3.2,27072],[3.2,27156],[3.2,27239],[3.2,27322],[3.2,27406],[3.2,27489],[3.2,27572],[3.2,27656],[3.2,27739],[3.2,27822],[3.2,27906],[3.2,27989],[3.2,28072],[3.2,28156],[3.2,28239],[3.2,28322],[3.2,28406],[3.2,28489],[3.2,28572],[3.2,28656],[3.2,28739],[3.2,28822],[3.2,28906],[3.2,28989],[3.2,29072],[3.2,29156],[3.2,29239],[3.2,29322],[3.2,29406],[3.2,29489],[3.2,29572],[3.2,29656],[3.2,29739]]",1,0,2101.6661,2101.6714,,,[],,,,2101.6715,Partially,50,2101.6725,,,[],,0,0,0,0,1,audio/Narrative13Situation2.wav,audio/Narrative13Situation2.wav,audio/Narrative13Situation2.wav,audio/Narrative13Situation2.wav,2,2,2,2,,,,,2067.2177,2069.3327,space,1.5894,,,,,,,,,,,,,,,,,,,,,,,,,,,,,,,
,,,,,,5a89cc2c000dab00018cbd38,2024-02-08_16h04.55.502,group3.1-3.2-social-tom,2023.2.2,Win32,59.88023952,65c5074098b851296ff0b7ed,65c541823184e001d549af57,,,,,,,,,,,,,,,,,,,,,,,,,,,,,2101.6726,2,audio/Narrative5Situation1.wav,2106.6827,,2106.6827,2119.9827,"[[999,5],[999,83],[999,166],[999,249],[999,333],[999,416],[999,499],[999,583],[999,666],[999,749],[999,833],[999,916],[999,1000],[999,1083],[999,1166],[49.2,1250],[49.2,1333],[49.2,1416],[49.5,1499],[49.6,1583],[49.6,1666],[49.7,1749],[49.7,1833],[49.7,1916],[49.7,1999],[49.7,2083],[49.7,2166],[49.7,2249],[49.7,2333],[49.7,2416],[49.7,2499],[49.7,2583],[49.7,2666],[49.7,2749],[49.7,2833],[49.7,2916],[49.7,2999],[49.7,3083],[49.7,3166],[49.7,3249],[49.7,3333],[49.7,3416],[49.7,3499],[49.7,3583],[49.7,3666],[49.7,3749],[49.7,3833],[49.7,3916],[49.7,3999],[49.7,4083],[49.7,4166],[49.7,4249],[49.7,4333],[49.7,4416],[49.7,4499],[49.7,4583],[49.7,4666],[49.7,4749],[49.7,4833],[49.7,4916],[49.7,4999],[49.7,5083],[49.7,5166],[49.7,5249],[49.7,5333],[49.7,5416],[49.7,5499],[49.7,5583],[49.7,5666],[49.7,5749],[49.7,5833],[49.7,5916],[49.7,5999],[49.7,6083],[49.7,6166],[49.7,6249],[49.7,6333],[49.7,6416],[49.7,6499],[46.8,6583],[38.6,6666],[27.8,6749],[19.5,6833],[13.3,6916],[7.9,7000],[2.6,7083],[0.1,8250],[1,8333],[2.1,8416],[2.9,8499],[3,8583],[3,8666],[3,8749],[3,8833],[3,8916],[3,8999],[3,9083],[3,9166],[3,9249],[3,9333],[3,9416],[3,9499],[3,9583],[3,9666],[3,9749],[4.4,9833],[18.5,9916],[38.3,10000],[44.1,10083],[47.1,10166],[50.8,10250],[52,10333],[55.8,10416],[66,10500],[78.5,10583],[82.1,10666],[83.8,10750],[87.7,10833],[88.8,10916],[89.4,11000],[90.7,11083],[93.1,11166],[95.6,11250],[96,11333],[96.4,11416],[96.4,11499],[96.4,11583],[96.6,11666],[96.7,11749],[96.7,11833],[96.7,11916],[96.7,11999],[96.7,12083],[96.7,12166],[96.7,12249],[96.7,12333],[96.7,12416],[96.9,12500],[97,12583],[97.7,12666],[98.6,12750],[99.1,12833],[99.1,12916],[99.1,13000],[99.1,13083],[99.1,13166],[99.1,13249]]",1,0,2119.9827,2124.2993,49.58333333,4.3043,"[{""rating"":49.583333333333336,""responseTime"":4.3043000001907785}]",space,3.3345,,2124.2993,Partially,50,2124.3,,,[],,0,1,1,1,1,audio/Narrative7Situation1.wav,audio/Narrative8Situation1.wav,audio/Narrative5Situation1.wav,audio/Narrative6Situation1.wav,2,5,5,2,,,,,,,,,,,,,,,,,,,,,,,,,,,,,,,,,,,,,,,
,,,,,,5a89cc2c000dab00018cbd38,2024-02-08_16h04.55.502,group3.1-3.2-social-tom,2023.2.2,Win32,59.88023952,65c5074098b851296ff0b7ed,65c541823184e001d549af57,,,,,,,,,,,,,,,,,,,,,,,,,,,,,2124.3001,2,audio/Narrative5Situation2.wav,2124.4994,space,2124.4994,2153.9661,"[[50.3,83],[50.5,166],[50.5,249],[50.5,333],[50.5,416],[50.7,500],[49.6,1416],[50.1,1500],[52.2,1583],[54.9,1666],[59.6,1750],[71.9,1833],[82.5,1916],[86.6,2000],[87,2083],[87.6,2166],[90.5,2250],[91.3,2333],[91.3,2416],[89.2,2500],[88.8,2583],[88.6,2666],[81.7,2750],[75.1,2833],[74.1,2916],[73.9,2999],[73.9,3083],[73.9,3166],[73.9,3249],[73.9,3333],[73.9,3416],[73.9,3499],[73.9,3583],[73.9,3666],[73.9,3749],[73.9,3833],[73.9,3916],[73.9,3999],[73.9,4083],[73.9,4166],[73.9,4249],[73.9,4333],[73.9,4416],[73.9,4499],[73.9,4583],[73.9,4666],[73.9,4749],[73.9,4833],[73.9,4916],[73.9,4999],[73.9,5083],[73.9,5166],[73.9,5249],[73.9,5333],[73.9,5416],[73.9,5499],[73.9,5583],[73.9,5666],[73.9,5749],[73.9,5833],[73.9,5916],[73.9,5999],[73.9,6083],[73.9,6166],[73.9,6249],[74.1,6333],[74.1,6416],[74.1,6499],[74.1,6583],[74.1,6666],[74.1,6749],[74.1,6833],[74,6916],[74,6999],[74,7083],[74,7166],[74,7249],[74,7333],[74,7416],[74,7499],[74,7583],[74,7666],[74,7749],[74,7833],[74,7916],[74,7999],[74,8083],[74,8166],[74,8249],[74,8333],[74,8416],[74,8499],[74,8583],[74,8666],[74,8749],[74,8833],[74,8916],[74,9000],[74,9083],[74,9166],[74,9249],[74,9333],[74,9416],[74,9499],[74,9583],[74,9666],[74,9749],[74,9833],[74,9916],[74,9999],[74,10083],[74,10166],[74,10249],[74,10333],[74,10416],[74,10499],[74,10583],[74,10666],[74,10749],[75.3,10833],[80.4,10916],[88.3,11000],[93.6,11083],[95.3,11166],[96.8,11250],[97.4,11333],[97.4,11416],[97.4,11499],[97.4,11583],[97.7,11666],[97.9,11749],[97.9,11833],[97.9,11916],[97.9,11999],[97.9,12083],[97.9,12166],[97.9,12249],[97.9,12333],[97.9,12416],[97.9,12499],[97.9,12583],[97.9,12666],[97.9,12749],[97.9,12833],[97.9,12916],[97.9,12999],[97.9,13083],[97.9,13166],[97.9,13249],[97.9,13333],[97.9,13416],[97.9,13499],[97.9,13583],[97.9,13666],[97.9,13749],[97.9,13833],[97.9,13916],[97.9,13999],[97.9,14083],[97.9,14166],[97.9,14249],[97.9,14333],[97.9,14416],[97.9,14499],[97.9,14583],[97.9,14666],[97.9,14749],[97.9,14833],[97.9,14916],[97.9,14999],[97.9,15083],[97.9,15166],[97.9,15249],[97.9,15333],[97.9,15416],[97.9,15499],[97.9,15583],[97.9,15666],[97.9,15749],[97.9,15833],[97.9,15916],[97.9,15999],[97.9,16083],[97.9,16166],[97.9,16249],[97.9,16333],[97.9,16416],[97.9,16499],[97.9,16583],[97.9,16666],[97.9,16749],[97.9,16833],[97.9,16916],[97.9,16999],[97.9,17083],[97.9,17166],[97.9,17249],[97.9,17333],[97.9,17416],[97.9,17499],[97.9,17583],[97.9,17666],[97.9,17749],[97.9,17833],[97.9,17916],[97.9,17999],[98.1,18083],[98.5,18166],[98.6,18249],[98.6,18333],[98.6,18416],[98.6,18499],[98.6,18583],[98.6,18666],[98.6,18749],[98.6,18833],[98.6,18916],[98.6,18999],[98.6,19083],[98.6,19166],[98.6,19249],[98.6,19333],[98.6,19416],[98.6,19499],[98.6,19583],[98.6,19666],[98.6,19749],[98.6,19833],[98.6,19916],[98.6,19999],[98.6,20083],[98.6,20166],[98.6,20249],[98.6,20333],[98.6,20416],[98.6,20499],[98.6,20583],[98.6,20666],[98.6,20749],[98.6,20833],[98.6,20916],[98.6,20999],[98.6,21083],[98.6,21166],[98.6,21249],[98.6,21333],[98.6,21416],[98.6,21499],[98.6,21583],[98.6,21666],[98.6,21749],[98.6,21833],[98.6,21916],[98.6,21999],[98.6,22083],[98.6,22166],[98.6,22249],[98.6,22333],[98.6,22416],[98.6,22499],[98.6,22583],[98.6,22666],[98.6,22749],[98.6,22833],[98.6,22916],[98.6,22999],[98.6,23083],[98.6,23166],[98.6,23249],[98.6,23333],[98.6,23416],[98.6,23499],[98.6,23583],[98.6,23666],[98.6,23749],[98.6,23833],[98.6,23916],[98.6,23999],[98.6,24083],[98.6,24166],[98.6,24249],[98.6,24333],[98.6,24416],[98.6,24499],[98.6,24583],[98.6,24666],[98.6,24749],[98.6,24833],[98.6,24916],[98.6,24999],[98.6,25083],[98.6,25166],[98.6,25249],[98.6,25333],[98.6,25416],[98.6,25499],[98.6,25583],[98.6,25666],[98.6,25749],[98.6,25833],[98.6,25916],[98.6,25999],[98.6,26083],[98.6,26166],[98.6,26249],[98.6,26333],[98.6,26416],[98.6,26499],[98.6,26583],[98.6,26666],[98.6,26749],[98.6,26833],[98.6,26916],[98.6,26999],[98.6,27083],[98.6,27166],[98.6,27249],[98.6,27333],[98.6,27416],[98.6,27499],[98.6,27583],[98.6,27666],[98.6,27750],[98.6,27833],[98.6,27916],[98.6,27999],[98.6,28083],[98.6,28166],[98.6,28249],[98.6,28333],[98.6,28416],[98.6,28499],[98.6,28583],[98.6,28666],[98.6,28749],[98.6,28833],[98.6,28916],[98.6,28999],[98.6,29083],[98.6,29166],[98.6,29249],[98.6,29333],[98.6,29416]]",1,0,2153.9661,2155.5495,99.6875,1.3026,"[{""rating"":99.6875,""responseTime"":1.302599999904487}]",space,1.0395,,2155.5496,Not at all,0,2155.5506,,,[],,0,2,2,2,1,audio/Narrative7Situation2.wav,audio/Narrative8Situation2.wav,audio/Narrative5Situation2.wav,audio/Narrative6Situation2.wav,3,3,3,3,0.1825,,,,,,,,,,,,,,,,,,,,,,,,,,,,,,,,,,,,,,
,,,,,,5a89cc2c000dab00018cbd38,2024-02-08_16h04.55.502,group3.1-3.2-social-tom,2023.2.2,Win32,59.88023952,65c5074098b851296ff0b7ed,65c541823184e001d549af57,,,,,,,,,,,,,,,,,,,,,,,,,,,,,2155.5507,2,audio/Narrative5Situation3.wav,2158.566,,2158.566,2172.4827,"[[999,0],[999,83],[999,166],[999,250],[999,333],[999,416],[999,500],[999,583],[999,666],[999,750],[52.2,833],[50.7,916],[49.8,999],[49.7,1083],[49.7,1166],[49.7,1250],[49.7,1333],[49.7,1416],[49.7,1499],[49.7,1583],[49.7,1666],[49.7,1750],[49.7,1833],[49.7,1916],[49.7,1999],[49.7,2083],[49.7,2166],[49.7,2250],[49.7,2333],[49.7,2416],[49.7,2500],[49.7,2583],[49.7,2666],[49.7,2750],[49.7,2833],[49.7,2916],[49.7,2999],[49.7,3083],[49.7,3166],[49.7,3250],[49.7,3333],[49.7,3416],[49.7,3500],[49.7,3583],[49.7,3667],[49.7,3750],[49.7,3833],[49.7,3916],[49.7,3999],[49.7,4083],[49.7,4166],[49.7,4249],[49.7,4333],[51.4,4416],[55.6,4500],[59.9,4583],[65.5,4666],[70.8,4750],[76.6,4833],[79.3,4916],[79.5,5000],[79.5,5083],[79.5,5166],[79.5,5250],[79.5,5333],[79.5,5416],[79.5,5500],[79.7,5583],[82.3,5666],[87.6,5750],[94.4,5833],[97.1,5916],[98.5,6000],[98.6,6083],[98.6,6166],[98.6,6249],[98.6,6333],[98.6,6416],[98.6,6500],[98.6,6583],[98.6,6666],[98.6,6749],[98.6,6833],[98.6,6916],[98.6,7000],[98.6,7083],[98.6,7166],[98.6,7249],[98.6,7333],[98.6,7416],[98.6,7500],[98.6,7583],[98.6,7666],[98.6,7749],[98.6,7833],[98.6,7916],[98.6,8000],[98.6,8083],[98.6,8166],[98.6,8250],[98.6,8333],[98.6,8416],[98.6,8500],[98.6,8583],[98.6,8666],[98.6,8749],[98.6,8833],[98.6,8916],[98.6,9000],[98.6,9083],[98.6,9166],[98.6,9250],[98.6,9333],[98.6,9416],[98.6,9500],[98.6,9583],[98.6,9666],[98.6,9750],[98.6,9833],[98.6,9916],[98.6,10000],[98.6,10083],[98.6,10166],[98.6,10249],[98.6,10333],[98.6,10416],[98.6,10499],[98.6,10583],[98.6,10666],[98.6,10750],[98.6,10833],[98.6,10916],[98.6,10999],[98.6,11083],[98.6,11166],[98.6,11250],[98.6,11333],[98.6,11416],[98.6,11500],[98.6,11583],[98.6,11666],[98.6,11750],[98.6,11833],[98.6,11916],[98.6,11999],[98.6,12083],[98.6,12166],[98.6,12249],[98.6,12333],[98.6,12416],[98.6,12500],[98.6,12583],[98.6,12666],[98.6,12749],[98.6,12833],[98.6,12916],[98.6,12999],[98.6,13083],[98.6,13166],[98.6,13249],[98.6,13333],[98.6,13416],[98.6,13500],[98.6,13583],[98.6,13666],[98.6,13749],[98.6,13833],[98.6,13916]]",1,0,2172.4828,2177.4161,97.8125,4.3658,"[{""rating"":97.8125,""responseTime"":4.3658000001910295}]",space,4.3869,,2177.4161,Not at all,0,2177.4168,,,[],,0,3,3,3,1,audio/Narrative7Situation3.wav,audio/Narrative8Situation3.wav,audio/Narrative5Situation3.wav,audio/Narrative6Situation3.wav,8,4,3,5,,,,,,,,,,,,,,,,,,,,,,,,,,,,,,,,,,,,,,,
,,,,,,5a89cc2c000dab00018cbd38,2024-02-08_16h04.55.502,group3.1-3.2-social-tom,2023.2.2,Win32,59.88023952,65c5074098b851296ff0b7ed,65c541823184e001d549af57,,,,,,,,,,,,,,,,,,,,,,,,,,,,,2177.4169,2,audio/Narrative5Situation4.wav,2178.4326,,2178.4326,2198.8327,"[[999,0],[999,83],[999,166],[999,250],[999,333],[999,416],[999,500],[999,583],[999,666],[999,750],[999,833],[999,916],[999,1000],[999,1083],[999,1166],[999,1250],[999,1333],[999,1416],[999,1500],[100,1583],[100,1666],[99.8,1750],[99.4,1833],[99,1916],[99,2000],[99,2083],[98.3,2166],[97.3,2250],[97.1,2333],[97.1,2416],[97.1,2500],[97.1,2583],[97.1,2666],[97.1,2750],[97.1,2833],[97.1,2916],[97.1,3000],[97.1,3083],[97.1,3166],[97.1,3250],[97.1,3333],[97.1,3416],[97.1,3500],[97.1,3583],[97.1,3666],[97.1,3750],[97.1,3833],[97.1,3916],[97.1,4000],[97.1,4083],[97.1,4166],[97.1,4250],[97.1,4333],[97.1,4416],[97.1,4500],[97.1,4583],[97.1,4666],[97.1,4750],[97.1,4833],[97.1,4916],[97.1,5000],[97.1,5083],[97.1,5166],[97.1,5250],[97.1,5333],[97.1,5416],[97.1,5500],[97.1,5583],[97.1,5666],[96.9,5750],[96.7,5833],[96.6,5916],[96.6,6000],[96.6,6083],[96.6,6166],[96.6,6250],[96.6,6333],[96.6,6416],[96.6,6500],[96.6,6583],[96.6,6666],[96.6,6750],[96.6,6833],[96.6,6916],[96.6,7000],[96.6,7083],[96.6,7166],[96.6,7250],[96.6,7333],[96.6,7416],[96.6,7500],[96.6,7583],[96.6,7666],[96.6,7750],[96.6,7833],[96.6,7916],[96.6,8000],[96.6,8083],[96.6,8166],[96.6,8250],[96.6,8333],[96.6,8416],[96.6,8500],[96.6,8583],[96.6,8666],[96.6,8750],[96.6,8833],[96.6,8916],[96.6,9000],[96.6,9083],[96.6,9166],[96.6,9250],[96.6,9333],[96.6,9416],[96.6,9500],[96.6,9583],[96.6,9666],[96.6,9750],[96.6,9833],[96.6,9916],[96.6,10000],[96.6,10083],[96.6,10166],[96.6,10250],[96.6,10333],[96.6,10416],[96.6,10500],[96.6,10583],[96.6,10666],[96.6,10750],[96.6,10833],[96.6,10916],[96.6,11000],[96.6,11083],[96.6,11166],[96.6,11250],[96.6,11333],[96.6,11416],[96.6,11500],[96.6,11583],[96.6,11666],[96.6,11750],[96.6,11833],[96.6,11916],[96.6,12000],[96.6,12083],[96.6,12166],[96.6,12250],[96.6,12333],[96.6,12416],[96.6,12500],[96.6,12583],[96.6,12666],[96.6,12750],[96.6,12833],[96.6,12916],[96.6,13000],[96.6,13083],[96.6,13166],[96.6,13250],[96.6,13333],[96.6,13416],[96.6,13500],[96.6,13583],[96.6,13666],[96.6,13750],[96.6,13833],[96.6,13916],[96.6,14000],[96.6,14083],[96.6,14166],[96.6,14250],[96.6,14333],[96.6,14416],[96.6,14500],[96.6,14583],[96.6,14666],[96.6,14750],[96.6,14833],[96.6,14916],[96.6,15000],[96.6,15083],[96.6,15166],[96.6,15250],[96.6,15333],[96.6,15416],[96.6,15500],[96.6,15583],[96.6,15666],[96.6,15750],[96.6,15833],[96.6,15916],[96.6,16000],[96.6,16083],[96.6,16166],[96.6,16250],[96.6,16333],[96.6,16416],[96.6,16500],[96.6,16583],[96.6,16666],[96.6,16750],[96.6,16833],[96.6,16916],[96.6,17000],[96.6,17083],[96.6,17166],[96.6,17250],[96.6,17333],[96.6,17416],[96.6,17500],[96.6,17583],[96.6,17666],[96.6,17750],[96.6,17833],[96.6,17916],[96.6,18000],[96.9,18083],[97.5,18166],[98.1,18250],[98.2,18333],[98.2,18416],[98.2,18500],[98.2,18583],[98.2,18666],[98.2,18750],[98.2,18833],[98.2,18916],[98.4,19000],[99.1,19083],[99.3,19166],[99.3,19250],[99.3,19333],[99.3,19416],[99.3,19500],[99.3,19583],[99.3,19666],[99.3,19750],[99.3,19833],[99.3,19916],[99.3,20000],[99.3,20083],[99.3,20166],[99.3,20250],[99.3,20333]]",1,0,2198.8328,2200.6828,99.27083333,0.6985,"[{""rating"":99.27083333333333,""responseTime"":0.6984999999999673}]",space,1.3003,,2200.6828,Not at all,0,2200.6836,,,[],,0,4,4,4,1,audio/Narrative7Situation4.wav,audio/Narrative8Situation4.wav,audio/Narrative5Situation4.wav,audio/Narrative6Situation4.wav,3,3,1,2,,,,,,,,,,,,,,,,,,,,,,,,,,,,,,,,,,,,,,,
,,,,,,5a89cc2c000dab00018cbd38,2024-02-08_16h04.55.502,group3.1-3.2-social-tom,2023.2.2,Win32,59.88023952,65c5074098b851296ff0b7ed,65c541823184e001d549af57,,,,,,,,,,,,,,,,,,,,,,,,,,,,,2200.6837,2,audio/Narrative5Situation5.wav,2205.6994,,2205.6994,2221.1327,"[[99.6,1583],[99.3,1666],[99.2,1749],[99.2,1833],[99.2,1916],[99.2,2000],[99.2,2083],[99.2,2166],[99.2,2249],[99.2,2333],[99.2,2416],[99.2,2500],[99.2,2583],[99.2,2666],[99.2,2749],[99.2,2833],[99.2,2916],[99.2,3000],[99.2,3083],[99.2,3166],[99.2,3249],[99.2,3333],[99.2,3416],[99.2,3499],[99.2,3583],[99.2,3666],[99.2,3749],[99.2,3833],[99.2,3916],[99.2,4000],[99.2,4083],[99.2,4166],[99.2,4249],[99.2,4333],[99.2,4416],[99.2,4499],[99.2,4583],[99.2,4666],[99.2,4750],[99.2,4833],[99.2,4916],[99.2,4999],[99.2,5083],[99.2,5166],[99.2,5249],[99.2,5333],[99.2,5416],[99.2,5499],[99.2,5583],[99.2,5666],[99.2,5749],[99.2,5833],[99.2,5916],[99.2,5999],[99.2,6083],[99.2,6166],[99.2,6249],[99.2,6333],[99.2,6416],[99.2,6499],[99.2,6583],[99.2,6666],[99.2,6749],[99.2,6833],[99.2,6916],[99.2,7000],[99.2,7083],[99.2,7166],[99.2,7249],[99.2,7333],[99.2,7416],[99.2,7499],[99.2,7583],[99.2,7666],[99.2,7749],[99.2,7833],[99.2,7916],[99.2,7999],[99.2,8083],[99.2,8166],[99.2,8250],[99.2,8333],[99.2,8416],[99.2,8499],[99.2,8583],[99.2,8666],[99.2,8749],[99.2,8833],[99.2,8916],[99.2,8999],[99.2,9083],[99.2,9166],[99.2,9250],[99.2,9333],[99.2,9416],[99.2,9499],[99.2,9583],[99.2,9666],[99.2,9750],[99.2,9833],[99.2,9916],[99.2,9999],[99.2,10083],[99.2,10166],[99.2,10249],[99.2,10333],[99.2,10416],[99.2,10500],[99.2,10583],[99.2,10666],[99.2,10750],[99.2,10833],[99.2,10916],[99.2,11000],[99.2,11083],[99.2,11166],[99.2,11249],[99.2,11333],[99.2,11416],[99.2,11500],[99.2,11583],[99.2,11666],[99.2,11749],[99.2,11833],[99.2,11916],[99.2,11999],[99.2,12083],[99.2,12166],[99.2,12249],[99.2,12333],[99.2,12416],[99.2,12499],[99.2,12583],[99.2,12666],[99.2,12750],[99.2,12833],[99.2,12916],[99.2,12999],[99.2,13083],[99.2,13166],[99.2,13249],[99.2,13333],[99.2,13416],[99.2,13499],[99.2,13583],[99.2,13666],[99.2,13749],[99.2,13833],[99.2,13916],[99.2,14000],[99.2,14083],[99.2,14166],[99.2,14249],[99.2,14333],[99.2,14416],[99.2,14499],[99.2,14583],[99.2,14666],[99.2,14749],[99.2,14833],[99.2,14916],[99.2,14999],[99.2,15083],[99.2,15166],[99.2,15249],[99.2,15333],[99.2,15416]]",1,0,2221.1329,2222.6661,98.22916667,0.9579,"[{""rating"":98.22916666666667,""responseTime"":0.9579000000953783}]",space,0.9846,,2222.6661,Definitely yes,100,2222.6675,,,[],,0,5,5,5,1,audio/Narrative7Situation5.wav,audio/Narrative8Situation5.wav,audio/Narrative5Situation5.wav,audio/Narrative6Situation5.wav,5,2,5,2,,,,,,,,,,,,,,,,,,,,,,,,,,,,,,,,,,,,,,,
,,,,,,5a89cc2c000dab00018cbd38,2024-02-08_16h04.55.502,group3.1-3.2-social-tom,2023.2.2,Win32,59.88023952,65c5074098b851296ff0b7ed,65c541823184e001d549af57,,,,,,,,,,,,,,,,,,,,,,,,,,,,,2222.6676,2,audio/Narrative5Situation6.wav,2225.6828,,2225.6828,2231.3662,"[[97.9,2416],[97.6,2500],[97.4,2583],[97.4,2666],[99.4,2750],[100,2833],[100,2916],[100,2999],[100,3083],[100,3166],[100,3249],[100,3333],[100,3416],[100,3499],[100,3583],[100,3666],[100,3749],[100,3833],[100,3916],[100,4000],[100,4083],[100,4166],[100,4249],[100,4333],[100,4416],[100,4499],[100,4583],[100,4666],[100,4749],[100,4833],[100,4916],[100,4999],[100,5083],[100,5166],[100,5249],[100,5333],[100,5416],[100,5499],[100,5583],[100,5666]]",1,0,2231.3662,2234.3661,99.47916667,2.5677,"[{""rating"":99.47916666666667,""responseTime"":2.5677000000473527}]",space,2.4551,,2234.3661,Not at all,0,2240.4994,0.104166667,3.0878,"[{""rating"":0.1041666666666663,""responseTime"":3.08779999995204}]",space,0,6,6,6,1,audio/Narrative7Situation6.wav,audio/Narrative8Situation6.wav,audio/Narrative5Situation6.wav,audio/Narrative6Situation6.wav,3,2,3,2,,,5.5836,,,,,,,,,,,,,,,,,,,,,,,,,,,,,,,,,,,,
,,,,,,5a89cc2c000dab00018cbd38,2024-02-08_16h04.55.502,group3.1-3.2-social-tom,2023.2.2,Win32,59.88023952,65c5074098b851296ff0b7ed,65c541823184e001d549af57,,,,,,,,,,,,,,,,,,,,,,,,,,,,,2240.4996,2,audio/Narrative5Situation7.wav,2244.5162,,2244.5162,2265.5662,"[[999,4],[999,83],[999,166],[999,249],[999,333],[999,416],[999,499],[999,583],[999,666],[999,749],[999,833],[49.5,916],[49.5,999],[49.5,1083],[49.6,1166],[49.6,1249],[49.6,1333],[49.6,1416],[49.6,1499],[49.6,1583],[49.6,1666],[49.6,1749],[49.6,1833],[49.6,1916],[49.6,1999],[49.6,2083],[49.6,2166],[49.6,2249],[49.6,2333],[49.6,2416],[49.6,2499],[49.6,2583],[49.7,2666],[49.7,2749],[49.7,2833],[49.7,2916],[49.7,2999],[49.7,3083],[49.7,3166],[49.7,3249],[49.7,3333],[49.7,3416],[49.7,3499],[49.7,3583],[49.7,3666],[49.7,3749],[49.7,3833],[49.7,3916],[49.7,3999],[49.7,4083],[49.7,4166],[49.7,4249],[49.7,4333],[49.7,4416],[49.7,4499],[49.7,4583],[49.7,4666],[49.7,4749],[49.7,4833],[49.7,4916],[49.7,4999],[49.7,5083],[49.7,5166],[49.7,5249],[49.6,5333],[48.3,5416],[46,5499],[43.8,5583],[42.4,5666],[40,5750],[37.8,5833],[37,5916],[37,5999],[37,6083],[37,6166],[37,6249],[37.4,6333],[44.1,6416],[56.9,6499],[68.1,6583],[78.1,6666],[85.7,6750],[87.6,6833],[91.1,6916],[92.4,6999],[92.4,7083],[92.4,7166],[92.4,7249],[92.4,7333],[92.4,7416],[92.4,7499],[92.4,7583],[92.4,7666],[92.4,7749],[92.4,7833],[92.4,7916],[92.4,7999],[92.4,8083],[92.4,8166],[92.4,8249],[92.4,8333],[92.4,8416],[92.4,8499],[92.4,8583],[92.4,8666],[92.4,8749],[92.4,8833],[92.1,8916],[91.7,8999],[89.8,9083],[82.3,9166],[74.7,9250],[68.4,9333],[62.4,9416],[55.9,9500],[51.4,9583],[47.7,9666],[45.8,9750],[42.5,9833],[40.7,9916],[39.5,9999],[38.3,10083],[38,10166],[38,10249],[38,10333],[38,10416],[38,10499],[38,10583],[38,10666],[38,10749],[38,10833],[38,10916],[38,10999],[38,11083],[38,11166],[38,11249],[38,11333],[38,11416],[38,11499],[38,11583],[38,11666],[38,11749],[38,11833],[38,11916],[38,11999],[38,12083],[38,12166],[38,12249],[38,12333],[38,12416],[38,12499],[38,12583],[38,12666],[38,12749],[38,12833],[38,12916],[38,12999],[38,13083],[38,13166],[38,13249],[38,13333],[38,13416],[38,13499],[38,13583],[38,13666],[38,13749],[38,13833],[33.5,13916],[23,14000],[15.5,14083],[11,14166],[8.8,14249],[6.6,14333],[5.2,14416],[5.2,14499],[5.1,14583],[4.7,14666],[4.7,14749],[4.4,14833],[4.3,14916],[4.3,14999],[4.3,15083],[4.3,15166],[4.3,15249],[4.3,15333],[4.3,15416],[4.3,15499],[4.3,15583],[4.3,15666],[4.3,15749],[4.3,15833],[4.3,15916],[4.3,15999],[4.3,16083],[4.3,16166],[4.3,16249],[4.3,16333],[4.3,16416],[4.3,16499],[4.3,16583],[4.3,16666],[4.3,16749],[4.3,16833],[4.3,16916],[4.3,16999],[4.3,17083],[3.2,17166],[3,17249],[2.3,17333],[2.1,17416],[2.1,17499],[1.9,17583],[1.9,17666],[1.9,17749],[1.9,17833],[1.9,17916],[1.9,17999],[1.9,18083],[1.9,18166],[1.8,18250],[1.5,18333],[1.1,18416],[0.9,18499],[0.8,18583],[0.8,18666],[0.8,18749],[0.8,18833],[0.8,18916],[0.8,18999],[0.8,19083],[0.8,19166],[0.8,19249],[0.8,19333],[0.8,19416],[0.8,19499],[0.8,19583],[0.8,19666],[0.8,19749],[0.8,19833],[0.8,19916],[0.8,19999],[0.8,20083],[0.8,20166],[0.8,20249],[0.8,20333],[0.8,20416],[0.8,20499],[0.8,20583],[0.8,20666],[0.8,20749],[0.8,20833],[0.8,20916],[0.8,20999]]",1,0,2265.5662,2267.7163,11.66666667,1.8618,"[{""rating"":11.666666666666664,""responseTime"":1.8617999999523818}]",space,1.6078,,2267.7163,Not at all,0,2267.717,,,[],,0,7,7,7,1,audio/Narrative7Situation7.wav,audio/Narrative8Situation7.wav,audio/Narrative5Situation7.wav,audio/Narrative6Situation7.wav,5,3,4,5,,,,,,,,,,,,,,,,,,,,,,,,,,,,,,,,,,,,,,,
,,,,,,5a89cc2c000dab00018cbd38,2024-02-08_16h04.55.502,group3.1-3.2-social-tom,2023.2.2,Win32,59.88023952,65c5074098b851296ff0b7ed,65c541823184e001d549af57,,,,,,,,,,,,,,,,,,,,,,,,,,,,,2267.7171,2,audio/Narrative5Situation8.wav,2270.7328,,2270.7328,2279.5495,"[[999,0],[999,83],[999,166],[999,250],[999,333],[999,416],[999,500],[999,583],[999,666],[999,750],[999,833],[17.2,916],[15.2,1000],[15,1083],[14.8,1166],[13.5,1250],[11.1,1333],[8.3,1416],[5.7,1500],[5.5,1583],[5.5,1666],[5.5,1749],[5.5,1833],[5.5,1916],[5.5,1999],[5.5,2083],[5.5,2166],[5.6,2250],[7.6,2333],[20.2,2416],[37,2500],[41.3,2583],[41.3,2666],[41.3,2749],[41.3,2833],[41.3,2916],[41.3,2999],[41.3,3083],[34.2,3166],[16.3,3250],[6.4,3333],[3.8,3416],[2.2,3500],[2.2,3583],[2.2,3666],[2.2,3749],[2.2,3833],[2.2,3916],[2.2,3999],[2.2,4083],[2.2,4166],[2.2,4249],[2.2,4333],[2.2,4416],[2.2,4500],[2.2,4583],[2.2,4666],[2.2,4749],[2.2,4833],[2.2,4916],[2.2,5000],[2.2,5083],[2.2,5166],[2.2,5249],[2.2,5333],[2.2,5416],[2.2,5499],[2.2,5583],[2.2,5666],[2.2,5750],[2.2,5833],[2.2,5916],[2.2,5999],[2.2,6083],[2.2,6166],[2.2,6250],[2.2,6333],[2.2,6416],[2.2,6499],[2.2,6583],[2.2,6666],[2.2,6749],[2.2,6833],[2.2,6916],[2.2,6999],[2.2,7083],[2.2,7166],[2.2,7249],[2.2,7333],[2.2,7416],[2.2,7500],[2.2,7583],[2.2,7666],[2.2,7750],[2.2,7833],[2.2,7916],[2.2,7999],[2.2,8083],[2.2,8166],[2.2,8249],[2.2,8333],[2.2,8416],[2.2,8500],[2.2,8583],[2.2,8666],[2.2,8749]]",1,0,2279.5496,2281.0496,1.666666667,0.9982,"[{""rating"":1.6666666666666663,""responseTime"":0.9982000000477456}]",space,0.9599,,2281.0497,Not at all,0,2281.0504,,,[],,0,8,8,8,1,audio/Narrative7Situation8.wav,audio/Narrative8Situation8.wav,audio/Narrative5Situation8.wav,audio/Narrative6Situation8.wav,2,3,3,5,,,,,,,,,,,,,,,,,,,,,,,,,,,,,,,,,,,,,,,
,,,,,,5a89cc2c000dab00018cbd38,2024-02-08_16h04.55.502,group3.1-3.2-social-tom,2023.2.2,Win32,59.88023952,65c5074098b851296ff0b7ed,65c541823184e001d549af57,,,,,,,,,,,,,,,,,,,,,,,,,,,,,2281.0506,2,audio/Narrative5Situation9.wav,2284.0661,,2284.0661,2323.6162,"[[3.6,416],[3.1,500],[2.6,583],[2.5,666],[2.5,750],[2.5,833],[2.5,916],[2.5,1000],[2.5,1083],[2.5,1166],[2.5,1250],[2.5,1333],[2.5,1416],[2.5,1500],[2.5,1583],[2.5,1666],[2.5,1749],[2.5,1833],[2.5,1916],[2.5,2000],[2.5,2083],[2.5,2166],[2.5,2249],[2.5,2333],[2.5,2416],[2.5,2500],[2.5,2583],[2.5,2666],[2.5,2749],[2.5,2833],[2.5,2916],[2.5,3000],[5,3083],[19.9,3166],[36.4,3250],[44.6,3333],[51.9,3416],[59.8,3500],[68.3,3583],[77.8,3666],[87.3,3750],[91.5,3833],[94.4,3916],[95.9,4000],[96.7,4083],[97.4,4166],[97.7,4250],[98.1,4333],[98.2,4416],[98.2,4500],[98.2,4583],[98.2,4666],[98.2,4750],[98.3,4833],[98.3,4916],[98.5,5000],[98.8,5083],[98.8,5166],[98.8,5249],[98.8,5333],[98.8,5416],[98.8,5500],[98.8,5583],[98.8,5666],[98.8,5750],[98.8,5833],[98.8,5916],[98.8,6000],[98.8,6083],[98.8,6166],[98.8,6249],[98.8,6333],[98.8,6416],[98.8,6500],[98.8,6583],[98.8,6666],[98.8,6750],[98.8,6833],[98.8,6916],[98.8,6999],[98.8,7083],[98.8,7166],[98.8,7249],[98.8,7333],[98.8,7416],[98.8,7500],[98.8,7583],[98.8,7666],[98.8,7750],[98.8,7833],[98.8,7916],[98.8,8000],[98.8,8083],[98.8,8166],[98.8,8250],[98.8,8333],[98.8,8416],[98.8,8500],[98.8,8583],[98.8,8666],[98.8,8750],[98.8,8833],[98.8,8916],[98.8,8999],[98.8,9083],[98.8,9166],[98.8,9250],[98.8,9333],[98.8,9416],[98.8,9500],[98.8,9583],[98.8,9666],[98.8,9749],[98.8,9833],[98.8,9916],[98.8,10000],[98.8,10083],[98.8,10166],[98.8,10249],[98.8,10333],[98.8,10416],[98.8,10499],[98.8,10583],[98.8,10666],[98.8,10750],[98.8,10833],[98.8,10916],[98.8,10999],[98.8,11083],[98.8,11166],[98.8,11250],[98.8,11333],[98.8,11416],[98.8,11499],[98.8,11583],[98.8,11666],[98.8,11749],[98.8,11833],[98.8,11916],[98.8,12000],[98.8,12083],[98.8,12166],[98.8,12250],[98.8,12333],[98.8,12416],[98.8,12500],[98.8,12583],[98.8,12666],[98.8,12750],[98.8,12833],[98.8,12916],[98.8,13000],[98.8,13083],[98.8,13166],[98.8,13249],[98.8,13333],[98.8,13416],[98.8,13500],[98.8,13583],[98.8,13666],[98.8,13750],[98.8,13833],[98.8,13916],[98.8,14000],[98.8,14083],[98.8,14166],[98.8,14250],[98.8,14333],[98.8,14416],[98.8,14500],[98.8,14583],[98.8,14666],[98.8,14750],[98.8,14833],[98.8,14916],[98.8,14999],[98.8,15083],[98.8,15166],[98.8,15250],[98.8,15333],[98.8,15416],[98.8,15500],[98.8,15583],[98.8,15666],[98.8,15750],[98.8,15833],[98.8,15916],[98.8,15999],[98.8,16083],[98.8,16166],[98.8,16250],[98.8,16333],[98.8,16416],[98.8,16500],[98.8,16583],[98.8,16666],[98.8,16750],[98.8,16833],[98.8,16916],[98.8,17000],[98.8,17083],[98.8,17166],[98.8,17250],[98.8,17333],[98.8,17416],[98.8,17499],[98.8,17583],[98.8,17666],[98.8,17749],[98.8,17833],[98.8,17916],[98.8,18000],[98.8,18083],[98.8,18166],[98.8,18249],[98.8,18333],[98.8,18416],[98.8,18500],[98.8,18583],[98.8,18666],[98.8,18750],[98.8,18833],[98.8,18916],[98.8,19000],[98.8,19083],[98.8,19166],[98.8,19250],[98.8,19333],[98.8,19416],[98.8,19499],[98.8,19583],[98.8,19666],[98.8,19750],[98.8,19833],[98.8,19916],[98.8,20000],[98.8,20083],[98.8,20166],[98.8,20249],[98.8,20333],[98.8,20416],[98.8,20499],[98.8,20583],[98.8,20666],[98.8,20750],[98.8,20833],[98.8,20916],[98.8,21000],[98.8,21083],[98.8,21166],[98.8,21250],[98.8,21333],[98.8,21416],[98.8,21500],[98.8,21583],[98.8,21666],[98.8,21749],[98.8,21833],[98.8,21916],[98.8,22000],[98.8,22083],[98.8,22166],[98.8,22250],[98.8,22333],[98.8,22416],[98.8,22500],[98.8,22583],[98.8,22666],[98.8,22750],[98.8,22833],[98.8,22916],[98.8,22999],[98.8,23083],[98.8,23166],[98.8,23250],[98.8,23333],[98.8,23416],[98.8,23500],[98.8,23583],[98.8,23666],[98.8,23750],[98.8,23833],[98.8,23916],[98.8,24000],[98.8,24083],[98.8,24166],[98.8,24250],[98.8,24333],[98.8,24416],[98.8,24500],[98.8,24583],[98.8,24666],[98.8,24750],[98.8,24833],[98.8,24916],[98.8,24999],[98.8,25083],[98.8,25166],[98.8,25250],[98.8,25333],[98.8,25416],[98.8,25500],[98.8,25583],[98.8,25666],[98.8,25750],[98.8,25833],[98.8,25916],[98.8,26000],[98.8,26083],[98.8,26166],[98.8,26250],[98.8,26333],[98.8,26416],[98.8,26499],[98.8,26583],[98.8,26666],[98.8,26750],[98.8,26833],[98.8,26916],[98.8,27000],[98.8,27083],[98.8,27166],[98.8,27250],[98.8,27333],[98.8,27416],[98.8,27500],[98.8,27583],[98.8,27666],[98.8,27750],[98.8,27833],[98.8,27916],[98.8,28000],[98.8,28083],[98.8,28166],[98.8,28250],[98.8,28333],[98.8,28416],[98.8,28499],[98.8,28583],[98.8,28666],[98.8,28750],[98.8,28833],[98.8,28916],[98.8,29000],[98.8,29083],[98.8,29166],[98.8,29250],[98.8,29333],[98.8,29416],[98.8,29499],[98.8,29583],[98.8,29666],[98.8,29750],[98.8,29833],[98.8,29916],[98.8,30000],[98.8,30083],[98.8,30166],[98.8,30250],[98.8,30333],[98.8,30416],[98.8,30499],[98.8,30583],[98.8,30666],[98.8,30750],[98.8,30833],[98.8,30916],[98.8,30999],[98.8,31083],[98.8,31166],[98.8,31250],[98.8,31333],[98.8,31416],[98.8,31500],[98.8,31583],[98.8,31666],[98.8,31750],[98.8,31833],[98.8,31916],[98.8,32000],[98.8,32083],[98.8,32166],[98.8,32250],[98.8,32333],[98.8,32416],[98.8,32500],[98.8,32583],[98.8,32666],[98.8,32749],[98.8,32833],[98.8,32916],[98.8,33000],[98.8,33083],[98.8,33166],[98.8,33250],[98.8,33333],[98.8,33416],[98.8,33500],[98.8,33583],[98.8,33666],[98.8,33750],[98.8,33833],[98.8,33916],[98.8,34000],[98.8,34083],[98.8,34166],[98.8,34250],[98.8,34333],[98.8,34416],[98.8,34500],[98.8,34583],[98.8,34666],[98.8,34750],[98.8,34833],[98.8,34916],[98.8,35000],[98.8,35083],[98.8,35166],[98.8,35250],[98.8,35333],[98.8,35416],[98.8,35500],[98.8,35583],[98.8,35666],[98.8,35750],[98.8,35833],[98.8,35916],[98.8,36000],[98.8,36083],[98.8,36166],[98.8,36250],[98.8,36333],[98.8,36416],[98.8,36500],[98.8,36583],[98.8,36666],[98.8,36750],[98.8,36833],[98.8,36916],[98.8,37000],[98.8,37083],[98.8,37166],[98.8,37250],[98.8,37333],[98.8,37416],[98.8,37500],[98.8,37583],[98.8,37666],[98.8,37750],[98.8,37833],[98.8,37916],[98.8,38000],[98.8,38083],[98.8,38166],[98.8,38250],[98.8,38333],[98.8,38416],[98.8,38499],[98.8,38583],[98.8,38666],[98.8,38750],[98.8,38833],[98.8,38916],[98.8,39000],[98.8,39083],[98.8,39166],[98.8,39250],[98.8,39333],[98.8,39416],[98.8,39500]]",1,0,2323.6163,2327.4495,99.58333333,2.9866,"[{""rating"":99.58333333333333,""responseTime"":2.9865999999046835}]",space,3.2934,,2327.4495,Definitely yes,100,2327.4506,,,[],,0,9,9,9,1,audio/Narrative7Situation9.wav,audio/Narrative8Situation9.wav,audio/Narrative5Situation9.wav,audio/Narrative6Situation9.wav,2,3,3,4,,,,,,,,,,,,,,,,,,,,,,,,,,,,,,,,,,,,,,,
,,,,,,5a89cc2c000dab00018cbd38,2024-02-08_16h04.55.502,group3.1-3.2-social-tom,2023.2.2,Win32,59.88023952,65c5074098b851296ff0b7ed,65c541823184e001d549af57,,,,,,,,,,,,,,,,,,,,,,,,,,,,,2327.4508,2,audio/Narrative6Situation1.wav,2329.4662,,2329.4662,2356.0495,"[[98.1,14499],[98.1,14583],[98.1,14666],[98.1,14749],[98.1,14833],[98.4,14916],[99,14999],[99.3,15083],[99.3,15166],[99.3,15250],[99.3,15333],[99.3,15416],[99.3,15499],[99.3,15583],[99.3,15666],[99.3,15749],[99.3,15833],[99.3,15916],[99.3,15999],[99.3,16083],[99.3,16166],[99.3,16250],[99.3,16333],[99.3,16416],[99.3,16499],[99.3,16583],[99.3,16666],[99.3,16749],[99.3,16833],[99.3,16916],[99.3,16999],[99.3,17083],[99.3,17166],[99.3,17250],[99.3,17333],[99.3,17416],[99.3,17499],[99.3,17583],[99.3,17666],[99.3,17750],[99.3,17833],[99.3,17916],[99.3,17999],[99.3,18083],[99.3,18166],[99.3,18249],[99.3,18333],[99.3,18416],[99.3,18499],[99.3,18583],[99.3,18666],[99.3,18749],[99.3,18833],[99.3,18916],[99.3,18999],[99.3,19083],[99.3,19166],[99.3,19249],[99.3,19333],[99.3,19416],[99.3,19499],[99.3,19583],[99.3,19666],[99.3,19749],[99.3,19833],[99.3,19916],[99.3,19999],[99.3,20083],[99.3,20166],[99.3,20249],[99.3,20333],[99.3,20416],[99.3,20499],[99.3,20583],[99.3,20666],[99.3,20750],[99.3,20833],[99.3,20916],[99.3,21000],[99.3,21083],[99.3,21166],[99.3,21249],[99.3,21333],[99.3,21416],[99.3,21499],[99.3,21583],[99.3,21666],[99.3,21749],[99.3,21833],[99.3,21916],[99.3,22000],[99.3,22083],[99.3,22166],[99.3,22250],[99.3,22333],[99.3,22416],[99.3,22499],[99.3,22583],[99.3,22666],[99.3,22749],[99.3,22833],[99.3,22916],[99.3,22999],[99.3,23083],[99.3,23166],[99.3,23250],[99.3,23333],[99.3,23416],[99.3,23499],[99.3,23583],[99.3,23666],[99.3,23749],[99.3,23833],[99.3,23916],[99.3,24000],[99.3,24083],[99.3,24166],[99.3,24250],[99.3,24333],[99.3,24416],[99.3,24499],[99.3,24583],[99.3,24666],[99.3,24749],[99.3,24833],[99.3,24916],[99.3,25000],[99.3,25083],[99.3,25166],[99.3,25250],[99.3,25333],[99.3,25416],[99.3,25500],[99.3,25583],[99.3,25666],[99.3,25749],[99.3,25833],[99.3,25916],[99.3,25999],[99.3,26083],[99.3,26166],[99.3,26250],[99.3,26333],[99.3,26416],[99.3,26499],[99.3,26583]]",1,0,2356.0497,2358.4829,99.27083333,1.2319,"[{""rating"":99.27083333333333,""responseTime"":1.2319000000952656}]",space,1.8922,,2358.4829,Partially,50,2358.4842,,,[],,0,10,10,10,1,audio/Narrative8Situation1.wav,audio/Narrative7Situation1.wav,audio/Narrative6Situation1.wav,audio/Narrative5Situation1.wav,5,2,2,5,,,,,,,,,,,,,,,,,,,,,,,,,,,,,,,,,,,,,,,
,,,,,,5a89cc2c000dab00018cbd38,2024-02-08_16h04.55.502,group3.1-3.2-social-tom,2023.2.2,Win32,59.88023952,65c5074098b851296ff0b7ed,65c541823184e001d549af57,,,,,,,,,,,,,,,,,,,,,,,,,,,,,2358.4843,2,audio/Narrative6Situation2.wav,2361.4995,,2361.4995,2390.0162,"[[100,3583],[100,3666],[98.5,3750],[98.1,3833],[98.1,3916],[98.1,3999],[98.1,4083],[98.6,4166],[99.2,4250],[99.7,4333],[99.7,4416],[99.7,4500],[99.7,4583],[99.7,4666],[99.7,4750],[99.7,4833],[99.7,4916],[99.7,5000],[99.7,5083],[99.7,5166],[99.7,5249],[99.7,5333],[99.7,5416],[99.7,5500],[99.7,5583],[99.7,5666],[99.7,5750],[99.7,5833],[99.7,5916],[99.7,6000],[99.7,6083],[99.7,6166],[99.7,6250],[99.7,6333],[99.7,6416],[99.7,6500],[99.7,6583],[99.7,6666],[99.7,6749],[99.7,6833],[99.7,6916],[99.7,7000],[99.7,7083],[99.7,7166],[99.7,7250],[99.7,7333],[99.7,7416],[99.7,7500],[99.7,7583],[99.7,7666],[99.7,7750],[99.7,7833],[99.7,7916],[99.7,8000],[99.7,8083],[99.7,8166],[99.7,8249],[99.7,8333],[99.7,8416],[99.7,8500],[99.7,8583],[99.7,8666],[99.7,8750],[99.7,8833],[99.7,8916],[99.7,8999],[99.7,9083],[99.7,9166],[99.7,9250],[99.7,9333],[99.7,9416],[99.7,9499],[99.7,9583],[99.7,9666],[99.7,9750],[99.7,9833],[99.7,9916],[99.7,10000],[99.7,10083],[99.7,10166],[99.7,10249],[99.7,10333],[99.7,10416],[99.7,10500],[99.7,10583],[99.7,10666],[99.7,10749],[99.7,10833],[99.7,10916],[99.7,10999],[99.7,11083],[99.7,11166],[99.7,11250],[99.7,11333],[99.7,11416],[99.7,11500],[99.7,11583],[99.7,11666],[99.7,11750],[99.7,11833],[99.7,11916],[99.7,11999],[99.7,12083],[99.7,12166],[99.7,12249],[99.7,12333],[99.7,12416],[99.7,12499],[99.7,12583],[99.7,12666],[99.7,12749],[99.7,12833],[99.7,12916],[99.7,13000],[99.7,13083],[99.7,13166],[99.7,13250],[99.7,13333],[99.7,13416],[99.7,13499],[99.7,13583],[99.7,13666],[99.7,13750],[99.7,13833],[99.7,13916],[99.7,13999],[99.7,14083],[99.7,14166],[99.7,14250],[99.7,14333],[99.7,14416],[99.7,14500],[99.7,14583],[99.7,14666],[99.7,14750],[99.7,14833],[99.7,14916],[99.7,15000],[99.7,15083],[99.7,15166],[99.7,15250],[99.7,15333],[99.7,15416],[99.7,15500],[99.7,15583],[99.7,15666],[99.7,15750],[99.7,15833],[99.7,15916],[99.7,16000],[99.7,16083],[99.7,16166],[99.7,16250],[99.7,16333],[99.7,16416],[99.7,16500],[99.7,16583],[99.7,16666],[99.7,16750],[99.7,16833],[99.7,16916],[99.7,17000],[99.7,17083],[99.7,17166],[99.7,17250],[99.7,17333],[99.7,17416],[99.7,17499],[99.7,17583],[99.7,17666],[99.7,17750],[99.7,17833],[99.7,17916],[99.7,17999],[99.7,18083],[99.7,18166],[99.7,18250],[99.7,18333],[99.7,18416],[99.7,18500],[99.7,18583],[99.7,18666],[99.7,18750],[99.7,18833],[99.7,18916],[99.7,19000],[99.7,19083],[99.7,19166],[99.7,19250],[99.7,19333],[99.7,19416],[99.7,19500],[99.7,19583],[99.7,19666],[99.7,19750],[99.7,19833],[99.7,19916],[99.7,20000],[99.7,20083],[99.7,20166],[99.7,20249],[99.7,20333],[99.7,20416],[99.7,20500],[99.7,20583],[99.7,20666],[99.7,20750],[99.7,20833],[99.7,20916],[99.7,21000],[99.7,21083],[99.7,21166],[99.7,21250],[99.7,21333],[99.7,21416],[99.7,21500],[99.7,21583],[99.7,21666],[99.7,21750],[99.7,21833],[99.7,21916],[99.7,22000],[99.7,22083],[99.7,22166],[99.7,22250],[99.7,22333],[99.7,22416],[99.7,22500],[99.7,22583],[99.7,22666],[99.7,22750],[99.7,22833],[99.7,22916],[99.7,23000],[99.7,23083],[99.7,23166],[99.7,23250],[99.7,23333],[99.7,23416],[99.7,23500],[99.7,23583],[99.7,23666],[99.7,23750],[99.7,23833],[99.7,23916],[99.7,23999],[99.7,24083],[99.7,24166],[99.7,24250],[99.7,24333],[99.7,24416],[99.7,24500],[99.7,24583],[99.7,24666],[99.7,24750],[99.7,24833],[99.7,24916],[99.7,25000],[99.7,25083],[99.7,25166],[99.7,25250],[99.7,25333],[99.7,25416],[99.7,25500],[99.7,25583],[99.7,25666],[99.7,25750],[99.7,25833],[99.7,25916],[99.7,26000],[99.7,26083],[99.7,26166],[99.7,26250],[99.7,26333],[99.7,26416],[99.7,26500],[99.7,26583],[99.7,26666],[99.7,26750],[99.7,26833],[99.7,26916],[99.7,26999],[99.7,27083],[99.7,27166],[99.7,27250],[99.7,27333],[99.7,27416],[99.7,27500],[99.7,27583],[99.7,27666],[99.7,27750],[99.7,27833],[99.7,27916],[99.7,28000],[99.7,28083],[99.7,28166],[99.7,28250],[99.7,28333],[99.7,28416],[99.7,28500]]",1,0,2390.0163,2392.4662,99.6875,1.4785,"[{""rating"":99.6875,""responseTime"":1.4785000000001673}]",space,1.9092,,2392.4662,Partially,50,2392.467,,,[],,0,11,11,11,1,audio/Narrative8Situation2.wav,audio/Narrative7Situation2.wav,audio/Narrative6Situation2.wav,audio/Narrative5Situation2.wav,3,3,3,3,,,,,,,,,,,,,,,,,,,,,,,,,,,,,,,,,,,,,,,
,,,,,,5a89cc2c000dab00018cbd38,2024-02-08_16h04.55.502,group3.1-3.2-social-tom,2023.2.2,Win32,59.88023952,65c5074098b851296ff0b7ed,65c541823184e001d549af57,,,,,,,,,,,,,,,,,,,,,,,,,,,,,2392.4671,2,audio/Narrative6Situation3.wav,2397.4828,,2397.4828,2410.0829,"[[999,4],[999,83],[999,166],[999,250],[999,333],[999,416],[999,500],[999,583],[999,666],[999,750],[999,833],[999,916],[999,1000],[999,1083],[75.9,1166],[84.4,1250],[88.6,1333],[94.1,1416],[100,1500],[100,1583],[100,1666],[100,1750],[100,1833],[100,1916],[100,2000],[100,2083],[100,2166],[100,2250],[100,2333],[100,2416],[100,2500],[99.3,2583],[98.5,2666],[98.5,2750],[98.5,2833],[98.5,2916],[98.5,3000],[98.5,3083],[98.5,3166],[99.1,3250],[99.4,3333],[99.5,3416],[99.5,3500],[99.5,3583],[99.5,3666],[99.5,3750],[99.5,3833],[99.5,3916],[99.5,4000],[99.5,4083],[99.5,4166],[99.5,4250],[99.5,4333],[99.5,4416],[99.5,4500],[99.5,4583],[99.5,4666],[99.5,4750],[99.5,4833],[99.5,4916],[99.5,5000],[99.5,5083],[99.5,5166],[99.5,5250],[99.5,5333],[99.5,5416],[99.5,5500],[99.5,5583],[99.5,5666],[99.5,5750],[99.5,5833],[99.5,5916],[99.5,6000],[99.5,6083],[99.5,6166],[99.5,6250],[99.5,6333],[99.5,6416],[99.5,6500],[99.5,6583],[99.5,6666],[99.5,6750],[99.5,6833],[99.5,6916],[99.5,7000],[99.5,7083],[99.5,7166],[99.5,7250],[99.5,7333],[99.5,7416],[99.5,7500],[99.5,7583],[99.5,7666],[99.5,7750],[99.5,7833],[99.5,7916],[99.5,8000],[99.5,8083],[99.5,8166],[99.5,8250],[99.5,8333],[99.5,8416],[99.5,8500],[99.5,8583],[99.5,8666],[99.5,8750],[99.5,8833],[99.5,8916],[99.5,9000],[99.5,9083],[99.5,9166],[99.5,9250],[99.5,9333],[99.5,9416],[99.5,9500],[99.5,9583],[99.5,9666],[99.5,9750],[99.5,9833],[99.5,9916],[99.5,10000],[99.5,10083],[99.5,10166],[99.5,10250],[99.5,10333],[99.5,10416],[99.5,10500],[99.5,10583],[99.5,10666],[99.5,10750],[99.5,10833],[99.5,10916],[99.5,11000],[99.5,11083],[99.5,11166],[99.5,11250],[99.5,11333],[99.5,11416],[99.5,11500],[99.5,11583],[99.5,11666],[99.5,11750],[99.5,11833],[99.5,11916],[99.5,12000],[99.5,12083],[99.5,12166],[99.5,12250],[99.5,12333],[99.5,12416],[99.5,12500],[99.5,12583]]",1,0,2410.083,2415.7996,99.47916667,5.001,"[{""rating"":99.47916666666667,""responseTime"":5.000999999999749}]",space,5.1788,,2415.7996,Not at all,0,2415.8007,,,[],,0,12,12,12,1,audio/Narrative8Situation3.wav,audio/Narrative7Situation3.wav,audio/Narrative6Situation3.wav,audio/Narrative5Situation3.wav,4,8,5,3,,,,,,,,,,,,,,,,,,,,,,,,,,,,,,,,,,,,,,,
,,,,,,5a89cc2c000dab00018cbd38,2024-02-08_16h04.55.502,group3.1-3.2-social-tom,2023.2.2,Win32,59.88023952,65c5074098b851296ff0b7ed,65c541823184e001d549af57,,,,,,,,,,,,,,,,,,,,,,,,,,,,,2415.8009,2,audio/Narrative6Situation4.wav,2417.8163,,2417.8163,2430.4329,"[[999,0],[999,83],[999,166],[999,249],[999,333],[999,416],[999,499],[999,583],[999,666],[999,749],[999,833],[999,916],[999,999],[999,1083],[999,1166],[999,1249],[999,1333],[999,1416],[999,1499],[999,1583],[999,1666],[999,1749],[999,1833],[999,1916],[999,1999],[999,2083],[999,2166],[999,2249],[999,2333],[999,2416],[999,2499],[999,2583],[999,2666],[999,2749],[999,2833],[999,2916],[999,2999],[999,3083],[999,3166],[999,3249],[999,3333],[999,3416],[999,3499],[999,3583],[999,3666],[999,3749],[999,3833],[999,3916],[999,3999],[999,4083],[999,4166],[999,4249],[999,4333],[999,4416],[999,4499],[999,4583],[999,4666],[999,4749],[999,4833],[999,4916],[999,5000],[999,5083],[98.5,5166],[98.5,5249],[98.5,5333],[98.5,5416],[98.9,5499],[99.2,5583],[99.4,5666],[99.7,5749],[99.7,5833],[99.7,5916],[99.7,5999],[99.7,6083],[99.7,6166],[99.7,6249],[99.7,6333],[99.7,6416],[99.7,6499],[99.7,6583],[99.7,6666],[99.7,6749],[99.7,6833],[99.7,6916],[99.7,6999],[99.7,7083],[99.7,7166],[99.7,7249],[99.7,7333],[99.7,7416],[99.7,7499],[99.7,7583],[99.7,7666],[99.7,7749],[99.7,7833],[99.7,7916],[99.7,7999],[99.7,8083],[99.7,8166],[99.7,8249],[99.7,8333],[99.7,8416],[99.7,8499],[99.7,8583],[99.7,8666],[99.7,8749],[99.7,8833],[99.7,8916],[99.7,8999],[99.7,9083],[99.7,9166],[99.7,9250],[99.7,9333],[99.7,9416],[99.7,9499],[99.7,9583],[99.7,9666],[99.7,9749],[99.7,9833],[99.7,9916],[99.7,9999],[99.7,10083],[99.7,10166],[99.7,10249],[99.7,10333],[99.7,10416],[99.7,10499],[99.7,10583],[99.7,10666],[99.7,10749],[99.7,10833],[99.7,10916],[99.7,10999],[99.7,11083],[99.7,11166],[99.7,11249],[99.7,11333],[99.7,11416],[99.7,11499],[99.7,11583],[99.7,11666],[99.7,11749],[99.7,11833],[99.7,11916],[99.7,11999],[99.7,12083],[99.7,12166],[99.7,12249],[99.7,12333],[99.7,12416],[99.7,12499],[99.7,12583]]",1,0,2430.433,2434.4331,99.79166667,3.692,"[{""rating"":99.79166666666667,""responseTime"":3.6920000000000073}]",space,3.453,,2434.4331,Definitely yes,100,2434.4344,,,[],,0,13,13,13,1,audio/Narrative8Situation4.wav,audio/Narrative7Situation4.wav,audio/Narrative6Situation4.wav,audio/Narrative5Situation4.wav,3,3,2,1,,,,,,,,,,,,,,,,,,,,,,,,,,,,,,,,,,,,,,,
,,,,,,5a89cc2c000dab00018cbd38,2024-02-08_16h04.55.502,group3.1-3.2-social-tom,2023.2.2,Win32,59.88023952,65c5074098b851296ff0b7ed,65c541823184e001d549af57,,,,,,,,,,,,,,,,,,,,,,,,,,,,,2434.4345,2,audio/Narrative6Situation5.wav,2436.4496,,2436.4496,2444.3996,"[[999,0],[999,83],[999,166],[999,250],[999,333],[999,416],[999,500],[999,583],[999,666],[999,749],[999,833],[999,916],[999,1000],[999,1083],[999,1166],[999,1250],[999,1333],[999,1416],[999,1499],[999,1583],[999,1666],[999,1749],[999,1833],[999,1916],[999,2000],[999,2083],[999,2166],[999,2250],[999,2333],[999,2416],[999,2500],[999,2583],[999,2666],[999,2750],[999,2833],[999,2916],[999,3000],[999,3083],[999,3166],[999,3250],[999,3333],[999,3416],[999,3499],[999,3583],[999,3666],[999,3749],[999,3833],[999,3916],[999,4000],[999,4083],[999,4166],[999,4250],[999,4333],[96.4,4416],[96.7,4499],[97.3,4583],[98.3,4666],[98.3,4749],[98.3,4833],[98.3,4916],[98.3,4999],[98.3,5083],[98.3,5166],[98.3,5250],[98.3,5333],[98.3,5416],[98.3,5500],[98.3,5583],[98.3,5666],[98.3,5749],[98.3,5833],[98.3,5916],[98.4,5999],[98.4,6083],[98.4,6166],[98.5,6249],[98.5,6333],[98.5,6416],[98.5,6500],[98.5,6583],[98.5,6666],[98.5,6750],[98.5,6833],[98.5,6916],[98.5,6999],[98.5,7083],[98.5,7166],[98.5,7249],[98.5,7333],[98.5,7416],[98.5,7500],[98.5,7583],[98.5,7666],[98.5,7749],[98.5,7833],[98.5,7916]]",1,0,2444.3996,2446.3496,99.58333333,1.0857,"[{""rating"":99.58333333333333,""responseTime"":1.0857000000473818}]",space,1.43,,2446.3497,Not at all,0,2446.351,,,[],,0,14,14,14,1,audio/Narrative8Situation5.wav,audio/Narrative7Situation5.wav,audio/Narrative6Situation5.wav,audio/Narrative5Situation5.wav,2,5,2,5,,,,,,,,,,,,,,,,,,,,,,,,,,,,,,,,,,,,,,,
,,,,,,5a89cc2c000dab00018cbd38,2024-02-08_16h04.55.502,group3.1-3.2-social-tom,2023.2.2,Win32,59.88023952,65c5074098b851296ff0b7ed,65c541823184e001d549af57,,,,,,,,,,,,,,,,,,,,,,,,,,,,,2446.351,2,audio/Narrative6Situation6.wav,2448.3663,,2448.3664,2459.4496,"[[99.1,833],[97.9,916],[97.9,999],[98.3,1083],[99.1,1166],[99.4,1249],[99.4,1333],[99.4,1416],[99.4,1499],[99.4,1583],[99.4,1666],[99.4,1749],[99.4,1833],[99.4,1916],[99.4,1999],[99.4,2083],[99.4,2166],[99.4,2249],[99.4,2333],[99.4,2416],[99.4,2499],[99.4,2583],[99.4,2666],[99.4,2749],[99.4,2833],[99.4,2916],[99.4,2999],[99.4,3083],[99.4,3166],[99.4,3249],[99.4,3333],[99.4,3416],[99.4,3499],[99.4,3583],[99.4,3666],[99.4,3749],[99.4,3833],[99.4,3916],[99.4,3999],[99.4,4083],[99.4,4166],[99.4,4249],[99.4,4333],[99.4,4416],[99.4,4499],[99.4,4583],[99.4,4666],[99.4,4749],[99.4,4833],[99.4,4916],[99.4,4999],[99.4,5083],[99.4,5166],[99.4,5249],[99.4,5333],[99.4,5416],[99.4,5499],[99.4,5583],[99.4,5666],[99.4,5749],[99.4,5833],[99.4,5916],[99.4,5999],[99.4,6083],[99.4,6166],[99.4,6249],[99.4,6333],[99.4,6416],[99.4,6499],[99.4,6583],[99.4,6666],[99.4,6749],[99.4,6833],[99.4,6916],[99.4,6999],[99.4,7083],[99.4,7166],[99.4,7249],[99.4,7333],[99.4,7416],[99.4,7499],[99.4,7583],[99.4,7666],[99.4,7749],[99.4,7833],[99.4,7916],[99.4,7999],[99.4,8083],[99.4,8166],[99.4,8249],[99.4,8333],[99.4,8416],[99.4,8499],[99.4,8583],[99.4,8666],[99.4,8749],[99.4,8833],[99.4,8916],[99.4,8999],[99.4,9083],[99.4,9166],[99.4,9249],[99.4,9333],[99.4,9416],[99.4,9499],[99.4,9583],[99.4,9666],[99.4,9749],[99.4,9833],[99.4,9916],[99.4,9999],[99.4,10083],[99.4,10166],[99.4,10249],[99.4,10333],[99.4,10416],[99.4,10499],[99.4,10583],[99.4,10666],[99.4,10749],[99.4,10833],[99.4,10916],[99.4,10999],[99.4,11083]]",1,0,2459.4497,2461.7497,99.375,1.394,"[{""rating"":99.375,""responseTime"":1.3940000000002328}]",space,1.7634,,2461.7497,Partially,50,2461.7508,,,[],,0,15,15,15,1,audio/Narrative8Situation6.wav,audio/Narrative7Situation6.wav,audio/Narrative6Situation6.wav,audio/Narrative5Situation6.wav,2,3,2,3,,,,,,,,,,,,,,,,,,,,,,,,,,,,,,,,,,,,,,,
