exp_question,consent.started,consent.stopped,consentResponse.keys,consentResponse.rt,consentResponse.duration,participantID,date,expName,psychopyVersion,OS,frameRate,STUDY_ID,SESSION_ID,opening1.started,opening1.stopped,keyEndingOpening1.keys,keyEndingOpening1.rt,keyEndingOpening1.duration,volumeAdjust.started,volumeAdjust.stopped,endingAdjust.keys,endingAdjust.rt,endingAdjust.duration,opening2.started,opening2.stopped,keyEndingOpening.keys,keyEndingOpening.rt,keyEndingOpening.duration,mouse.x,mouse.y,mouse.leftButton,mouse.midButton,mouse.rightButton,mouse.time,instructionLoop.thisRepN,instructionLoop.thisTrialN,instructionLoop.thisN,instructionLoop.thisIndex,instructionLoop.ran,readyForAudio.started,readyForAudio.stopped,fixation.started,run,audio_played,fixation.stopped,endPractice.keys,audioPre.started,audioPre.stopped,continuousResponses_audio,continuousSlider.response,continuousSlider.rt,intRating.started,intRating.stopped,intQuestionSlider.response,intQuestionSlider.rt,intQuestionSlider.history,confirmResponse.keys,confirmResponse.rt,confirmResponse.duration,catchQuestion.started,catch_label,catch_value,catchQuestion.stopped,catchQuestionSlider.response,catchQuestionSlider.rt,catchQuestionSlider.history,confirmResponse_2.keys,audioRunLoop.thisRepN,audioRunLoop.thisTrialN,audioRunLoop.thisN,audioRunLoop.thisIndex,audioRunLoop.ran,conditions1_1,conditions2_1,conditions1_2,conditions2_2,dur1_1,dur2_1,dur1_2,dur2_2,endPractice.rt,endPractice.duration,confirmResponse_2.rt,confirmResponse_2.duration,runIntervalBreak.started,runIntervalBreak.stopped,endingBreakKey.keys,endingBreakKey.rt,endingBreakKey.duration,connection.started,connection.stopped,connectionEnding.keys,connectionEnding.rt,connectionEnding.duration,readyForText.started,readyForText.stopped,textPre.started,run_dup,textPre.stopped,continuousResponses_text,textRunLoop.thisRepN,textRunLoop.thisTrialN,textRunLoop.thisN,textRunLoop.thisIndex,textRunLoop.ran,text1_1,text1_2,text2_1,text2_2,runBreakText.started,runBreakText.stopped,endingBreakKey_2.keys,endingBreakKey_2.rt,endingBreakKey_2.duration,ending.started,ending.stopped,endingEnding.keys,endingEnding.rt,endingEnding.duration
tom,0.0002,9.1778,y,8.8504,,5a9262251eda410001360b2c,2024-02-08_16h03.06.251,group3.1-3.2-social-tom,2023.2.2,Win32,59.52380952,65c5074098b851296ff0b7ed,65c5415e025bb618405c3017,,,,,,,,,,,,,,,,,,,,,,,,,,,,,,,,,,,,,,,,,,,,,,,,,,,,,,,,,,,,,,,,,,,,,,,,,,,,,,,,,,,,,,,,,,,,,,,,,,,,,,,,,,
,,,,,,5a9262251eda410001360b2c,2024-02-08_16h03.06.251,group3.1-3.2-social-tom,2023.2.2,Win32,59.52380952,65c5074098b851296ff0b7ed,65c5415e025bb618405c3017,9.1785,29.0466,space,19.7979,,,,,,,,,,,,,,,,,,,,,,,,,,,,,,,,,,,,,,,,,,,,,,,,,,,,,,,,,,,,,,,,,,,,,,,,,,,,,,,,,,,,,,,,,,,,,,,,,,,,,,
,,,,,,5a9262251eda410001360b2c,2024-02-08_16h03.06.251,group3.1-3.2-social-tom,2023.2.2,Win32,59.52380952,65c5074098b851296ff0b7ed,65c5415e025bb618405c3017,,,,,,29.0469,41.3637,space,11.9933,,,,,,,,,,,,,,,,,,,,,,,,,,,,,,,,,,,,,,,,,,,,,,,,,,,,,,,,,,,,,,,,,,,,,,,,,,,,,,,,,,,,,,,,,,,,,,,,,
,,,,,,5a9262251eda410001360b2c,2024-02-08_16h03.06.251,group3.1-3.2-social-tom,2023.2.2,Win32,59.52380952,65c5074098b851296ff0b7ed,65c5415e025bb618405c3017,,,,,,,,,,,41.389,49.5552,space,8.1481,,[],[],[],[],[],[],0,0,0,0,1,,,,,,,,,,,,,,,,,,,,,,,,,,,,,,,,,,,,,,,,,,,,,,,,,,,,,,,,,,,,,,,,,,,,,,,,,,,,,,,,
,,,,,,5a9262251eda410001360b2c,2024-02-08_16h03.06.251,group3.1-3.2-social-tom,2023.2.2,Win32,59.52380952,65c5074098b851296ff0b7ed,65c5415e025bb618405c3017,,,,,,,,,,,49.5808,80.5438,space,30.8553,,[],[],[],[],[],[],1,0,1,0,1,,,,,,,,,,,,,,,,,,,,,,,,,,,,,,,,,,,,,,,,,,,,,,,,,,,,,,,,,,,,,,,,,,,,,,,,,,,,,,,,
,,,,,,5a9262251eda410001360b2c,2024-02-08_16h03.06.251,group3.1-3.2-social-tom,2023.2.2,Win32,59.52380952,65c5074098b851296ff0b7ed,65c5415e025bb618405c3017,,,,,,,,,,,80.5579,116.5214,space,35.9217,,[],[],[],[],[],[],2,0,2,0,1,,,,,,,,,,,,,,,,,,,,,,,,,,,,,,,,,,,,,,,,,,,,,,,,,,,,,,,,,,,,,,,,,,,,,,,,,,,,,,,,
,,,,,,5a9262251eda410001360b2c,2024-02-08_16h03.06.251,group3.1-3.2-social-tom,2023.2.2,Win32,59.52380952,65c5074098b851296ff0b7ed,65c5415e025bb618405c3017,,,,,,,,,,,116.5489,167.7218,space,51.1513,,[],[],[],[],[],[],3,0,3,0,1,,,,,,,,,,,,,,,,,,,,,,,,,,,,,,,,,,,,,,,,,,,,,,,,,,,,,,,,,,,,,,,,,,,,,,,,,,,,,,,,
,,,,,,5a9262251eda410001360b2c,2024-02-08_16h03.06.251,group3.1-3.2-social-tom,2023.2.2,Win32,59.52380952,65c5074098b851296ff0b7ed,65c5415e025bb618405c3017,,,,,,,,,,,167.7476,201.2278,space,33.4582,,[],[],[],[],[],[],4,0,4,0,1,,,,,,,,,,,,,,,,,,,,,,,,,,,,,,,,,,,,,,,,,,,,,,,,,,,,,,,,,,,,,,,,,,,,,,,,,,,,,,,,
,,,,,,5a9262251eda410001360b2c,2024-02-08_16h03.06.251,group3.1-3.2-social-tom,2023.2.2,Win32,59.52380952,65c5074098b851296ff0b7ed,65c5415e025bb618405c3017,,,,,,,,,,,,,,,,,,,,,,,,,,,201.2538,203.8358,203.8757,1,audio/Narrative13Situation2.wav,205.8785,,205.8791,235.6451,"[[999,3],[999,122],[999,207],[999,290],[999,372],[999,455],[999,539],[999,622],[999,705],[999,789],[999,872],[999,955],[53.9,1040],[45.9,1122],[45.8,1205],[45.8,1289],[45.8,1372],[45.8,1455],[47.2,1540],[48.3,1622],[49,1705],[49,1788],[49,1871],[49,1956],[49,2040],[49,2122],[49,2206],[49,2281],[49,2372],[49,2456],[49,2539],[49,2622],[49,2705],[49,2781],[49,2872],[49,2956],[49,3039],[49,3122],[49,3206],[49,3289],[49.1,3372],[49.1,3456],[49.1,3539],[49.1,3622],[49.1,3705],[49.1,3789],[49.1,3872],[49.1,3955],[49.1,4039],[49.1,4122],[49.1,4205],[49.1,4281],[49.1,4372],[49.1,4455],[49.1,4531],[49.1,4622],[49.2,4706],[49.2,4789],[49.2,4872],[49.2,4948],[49.2,5039],[49.2,5122],[49.2,5203],[49.3,5289],[49.3,5372],[49.3,5456],[49.3,5539],[49.3,5622],[49.3,5699],[49.3,5789],[49.3,5873],[49.3,5955],[49.3,6039],[49.3,6123],[49.3,6202],[49.3,6289],[49.3,6372],[49.3,6448],[49.3,6539],[49.3,6615],[49.3,6705],[49.3,6789],[49.3,6865],[49.3,6956],[49.3,7039],[49.3,7122],[49.3,7202],[49.3,7286],[49.3,7373],[49.3,7448],[49.3,7539],[49.3,7622],[49.3,7699],[49.3,7789],[49.3,7872],[49.3,7949],[49.3,8039],[49.3,8122],[49.3,8206],[49.3,8289],[49.3,8372],[49.3,8455],[49.3,8539],[49.3,8622],[49.3,8702],[49.3,8789],[49.3,8872],[49.3,8947],[49.3,9039],[49.3,9122],[49.3,9205],[49.3,9289],[49.3,9372],[49.3,9455],[49.3,9539],[49.3,9622],[49.3,9705],[49.3,9789],[49.3,9865],[49.3,9955],[49.3,10039],[49.3,10115],[49.3,10199],[49.3,10281],[49.3,10365],[49.3,10456],[49.3,10539],[49.3,10615],[49.3,10698],[49.3,10789],[49.3,10865],[49.3,10949],[49.3,11031],[49.3,11122],[49.3,11199],[49.3,11281],[49.3,11373],[49.3,11456],[49.3,11539],[49.3,11622],[49.3,11706],[49.3,11790],[51,11889],[56.9,11973],[57.4,12055],[57.4,12131],[59.7,12223],[60,12305],[60,12389],[62.3,12472],[67.6,12556],[67.6,12631],[67.6,12715],[67.6,12798],[67.6,12885],[67.6,12964],[67.6,13055],[67.6,13139],[67.6,13222],[67.6,13298],[67.6,13389],[67.6,13472],[67.6,13556],[67.6,13639],[67.6,13719],[67.6,13802],[67.6,13889],[67.6,13971],[67.6,14055],[67.6,14139],[67.6,14216],[67.6,14305],[67.6,14389],[67.6,14465],[67.6,14552],[67.6,14640],[67.6,14715],[67.6,14799],[67.6,14889],[67.6,14973],[67.6,15048],[67.6,15139],[67.6,15222],[67.6,15306],[67.6,15385],[67.6,15472],[67.6,15554],[67.6,15635],[67.6,15722],[67.6,15798],[67.6,15889],[67.6,15972],[67.6,16056],[67.6,16132],[67.5,16216],[67.5,16322],[67.5,16399],[67.5,16481],[67.5,16573],[67.5,16648],[67.5,16739],[67.5,16823],[67.5,16898],[67.5,16990],[67.5,17072],[67.5,17155],[67.5,17239],[67.5,17322],[67.5,17405],[67.5,17486],[67.5,17572],[67.5,17648],[67.5,17739],[67.5,17822],[67.5,17906],[67.5,17981],[67.5,18072],[67.5,18148],[67.5,18231],[67.5,18323],[67.5,18405],[67.5,18489],[67.5,18573],[67.5,18655],[67.5,18739],[67.5,18815],[67.5,18905],[67.5,18989],[67.5,19072],[67.5,19155],[67.5,19240],[67.5,19322],[67.5,19406],[67.5,19481],[67.5,19572],[67.5,19649],[67.5,19739],[67.5,19815],[67.5,19899],[67.5,19981],[67.5,20072],[67.5,20156],[67.5,20239],[67.5,20322],[67.5,20406],[67.5,20489],[67.5,20565],[67.5,20652],[67.5,20739],[67.5,20822],[67.5,20897],[67.5,20989],[67.5,21073],[67.5,21155],[67.5,21239],[67.5,21323],[67.5,21399],[67.5,21489],[67.5,21569],[67.5,21647],[67.5,21736],[67.5,21822],[67.5,21906],[67.5,21981],[67.5,22072],[67.5,22149],[67.5,22231],[67.5,22322],[67.5,22402],[68.5,22497],[71.6,22582],[74,22665],[74.6,22748],[75.9,22831],[79.7,22915],[82,22998],[82.9,23082],[84.6,23164],[86.5,23248],[88.6,23332],[90.1,23416],[90.9,23498]]",1,0,235.6454,249.3961,49.89583184,7.4218,"[{""rating"":49.89583184476944,""responseTime"":7.421799999952299}]",space,13.2048,,249.413,All the time,100,249.4175,,,[],,0,0,0,0,1,audio/Narrative13Situation2.wav,audio/Narrative13Situation2.wav,audio/Narrative13Situation2.wav,audio/Narrative13Situation2.wav,2,2,2,2,,,,,,,,,,,,,,,,,,,,,,,,,,,,,,,,,,,,,,,
,,,,,,5a9262251eda410001360b2c,2024-02-08_16h03.06.251,group3.1-3.2-social-tom,2023.2.2,Win32,59.52380952,65c5074098b851296ff0b7ed,65c5415e025bb618405c3017,,,,,,,,,,,,,,,,,,,,,,,,,,,,,249.4178,1,audio/Narrative7Situation1.wav,251.3111,space,251.3112,307.2184,"[[53.3,749],[53.1,834],[53,916],[53,999],[53,1083],[53,1166],[48.8,1250],[39,1333],[30,1416],[20.6,1500],[10.8,1583],[4.6,1666],[3,1749],[1.9,1833],[0.7,1916],[0.7,1999],[0.7,2083],[0.7,2167],[0.7,2249],[0.7,2332],[0.7,2416],[0.7,2499],[0.7,2583],[0.7,2666],[0.7,2749],[0.9,2833],[1.1,2916],[1.1,2999],[1.3,3083],[1.3,3166],[1.7,3250],[1.8,3333],[2.2,3417],[2.5,3500],[2.5,3583],[2.5,3666],[2.5,3749],[2.5,3833],[2.5,3916],[2.5,3999],[2.5,4083],[2.5,4166],[2.5,4249],[2.8,4332],[3,4415],[3,4499],[3.5,4584],[4.8,4666],[6.9,4749],[9.3,4834],[11.4,4915],[13.1,4999],[15.3,5083],[16.6,5166],[18,5250],[19.1,5333],[19.6,5417],[20.8,5500],[22.3,5582],[22.6,5666],[22.6,5749],[22.6,5833],[22.6,5916],[22.6,5999],[22.6,6083],[22.6,6166],[22.6,6249],[22.6,6333],[22.6,6423],[22.6,6499],[22.6,6590],[22.6,6673],[22.6,6757],[22.6,6840],[22.6,6924],[22.6,7007],[22.6,7090],[22.6,7174],[27.4,7257],[33,7340],[35.3,7424],[37.7,7507],[42.1,7590],[46.5,7674],[49.5,7757],[50.3,7840],[50.3,7922],[50.3,8007],[50.3,8090],[50.3,8166],[50.3,8250],[50.3,8340],[50.3,8424],[50.3,8507],[50.3,8590],[50.3,8666],[50.3,8749],[50.3,8840],[50.3,8917],[50.3,9007],[50.3,9090],[50.3,9174],[50.3,9255],[50.3,9340],[50.3,9417],[50.3,9507],[50.3,9590],[50.3,9674],[50.3,9757],[50.3,9840],[50.3,9923],[50.3,10007],[50.3,10091],[50.3,10174],[50.3,10257],[50.3,10340],[50.3,10416],[50.3,10507],[50.3,10590],[50.3,10665],[50.3,10757],[50.3,10833],[50.3,10920],[50.3,11007],[50.3,11090],[50.3,11173],[56.5,11267],[58.3,11350],[60.6,11433],[63.4,11516],[66,11600],[66.7,11683],[68.1,11766],[72.3,11850],[74.3,11932],[74.3,12016],[74.3,12099],[74.3,12183],[74.3,12266],[74.3,12349],[74.3,12433],[74.3,12516],[74.3,12599],[74.3,12682],[74.3,12766],[74.3,12849],[74.3,12933],[74.3,13016],[74.3,13099],[74.3,13182],[74.3,13266],[74.3,13349],[74.3,13433],[74.3,13516],[74.3,13600],[74.3,13683],[74.3,13767],[74.3,13850],[74.3,13933],[74.3,14017],[74.3,14099],[74.3,14183],[74.3,14266],[74.3,14349],[74.3,14433],[74.3,14516],[74.3,14599],[74.3,14683],[74.3,14766],[74.3,14849],[74.3,14933],[74.3,15016],[74.3,15099],[74.3,15182],[74.3,15266],[74.3,15349],[74.3,15433],[74.3,15515],[74.3,15599],[74.3,15683],[74.3,15766],[74.3,15849],[74.6,15933],[74.9,16017],[76,16100],[77.4,16184],[78.9,16267],[80.1,16349],[81.1,16433],[82.8,16516],[85.2,16600],[87,16683],[88.1,16766],[88.9,16849],[89.5,16934],[89.6,17016],[89.6,17100],[89.6,17183],[89.6,17267],[89.6,17349],[89.6,17433],[89.6,17516],[89.6,17599],[89.6,17683],[89.6,17766],[89.6,17849],[89.6,17933],[89.6,18016],[89.6,18099],[89.6,18183],[89.6,18266],[89.6,18349],[89.6,18433],[89.6,18516],[89.6,18599],[89.6,18683],[89.6,18766],[89.6,18849],[89.6,18933],[89.6,19016],[89.6,19099],[89.6,19183],[89.6,19266],[89.6,19349],[89.6,19433],[89.6,19516],[89.6,19599],[89.6,19683],[89.6,19766],[89.6,19849],[89.6,19933],[89.6,20016],[89.6,20099],[89.6,20183],[89.6,20266],[89.6,20349],[88.2,20449],[81.5,20524],[71.8,20607],[63.4,20691],[56.5,20774],[54.8,20857],[52.7,20940],[52.3,21024],[52.2,21100],[51.9,21191],[51.6,21266],[51.6,21357],[51.3,21441],[50,21525],[50,21608],[50,21690],[50,21774],[50,21849],[50,21941],[50,22016],[50,22107],[50,22190],[50,22275],[50,22354],[50,22441],[50,22517],[50,22599],[50,22683],[50,22767],[50,22857],[50,22933],[50,23022],[50,23107],[50,23191],[50,23266],[50,23357],[50,23440],[50,23520],[50,23607],[50,23683],[50,23773],[50,23858],[50,23933],[50,24020],[50,24107],[50,24191],[50,24270],[50,24356],[50,24433],[50,24517],[50,24607],[50,24683],[50,24767],[50,24857],[50,24939],[50,25024],[50,25108],[50,25183],[50,25267],[50,25357],[50,25440],[50,25516],[50,25607],[50,25691],[50,25774],[50,25849],[50,25933],[50,26025],[50,26106],[50,26190],[50,26273],[50,26357],[50,26441],[50,26524],[50,26608],[50,26683],[50,26766],[50,26858],[50,26940],[50,27023],[50,27107],[50,27183],[50,27274],[50,27349],[50,27440],[50,27524],[50,27599],[50,27690],[50,27774],[50,27857],[50,27933],[50,28016],[50,28099],[50,28183],[50,28265],[50,28350],[50,28440],[50,28517],[50,28603],[50,28690],[50,28774],[50,28857],[50,28932],[50,29025],[50,29099],[50,29191],[50,29271],[50,29349],[50,29441],[50,29516],[50,29599],[50,29683],[50,29773],[50,29857],[50,29940],[50,30017],[50,30107],[50,30190],[50,30273],[50,30357],[50,30440],[50,30524],[50,30607],[50,30691],[50,30774],[50,30850],[44.7,30956],[42.4,31040],[40.5,31124],[38.8,31208],[33.5,31291],[29.6,31374],[27,31456],[26.7,31540],[26.7,31624],[26.7,31707],[26.7,31791],[26.7,31870],[26.7,31957],[26.7,32040],[26.7,32116],[26.7,32207],[26.7,32290],[26.7,32373],[26.7,32457],[26.7,32540],[26.7,32624],[26.7,32707],[26.7,32790],[26.7,32866],[26.7,32950],[26.7,33040],[26.7,33124],[26.7,33204],[26.7,33290],[27.2,33375],[27.2,33449],[27.2,33540],[27.2,33616],[27.2,33707],[27.2,33791],[27.2,33874],[27.2,33957],[27.2,34040],[27.2,34124],[27.2,34207],[27.2,34283],[27.2,34374],[27.2,34458],[27.2,34533],[27.2,34624],[27.2,34699],[27.2,34791],[27.2,34866],[27.2,34957],[27.2,35033],[27.2,35116],[27.2,35207],[27.2,35283],[27.2,35373],[27.2,35449],[27.2,35540],[27.2,35624],[27.2,35706],[27.3,35790],[27.3,35866],[27.3,35957],[27.3,36037],[27.3,36124],[27.3,36207],[27.3,36283],[27.3,36374],[27.3,36457],[27.3,36540],[27.3,36623],[27.3,36707],[27.3,36791],[27.3,36866],[27.3,36958],[27.3,37041],[27.3,37124],[27.3,37199],[27.3,37291],[27.3,37374],[27.3,37458],[27.3,37540],[27.3,37624],[27.3,37708],[27.3,37784],[27.3,37874],[27.3,37958],[27.3,38040],[27.3,38116],[27.3,38199],[27.3,38283],[27.3,38371],[26.8,38458],[26,38540],[25.3,38624],[24.8,38699],[24.5,38790],[24.5,38866],[24.5,38957],[24.5,39041],[24.5,39124],[24.5,39207],[24.3,39291],[24.3,39374],[24.2,39449],[24.2,39534],[24.2,39623],[25,39708],[32.8,39790],[43.6,39874],[50.5,39958],[59.9,40040],[64.5,40124],[67.3,40208],[72.9,40291],[75.9,40374],[76.9,40449],[77.8,40540],[80.8,40624],[81,40707],[81.1,40790],[81.1,40867],[81.6,40957],[81.6,41040],[81.7,41124],[81.8,41199],[81.9,41284],[82.1,41367],[82.1,41453],[82.1,41540],[82.1,41624],[82.1,41707],[82.1,41790],[82.1,41866],[82.1,41957],[82.3,42033],[82.5,42124],[82.6,42207],[82.7,42291],[82.8,42373],[82.9,42457],[82.9,42540],[82.9,42620],[83,42707],[83.1,42783],[83.1,42870],[83.1,42949],[83.1,43040],[83.3,43117],[83.4,43199],[83.6,43290],[83.8,43374],[84,43449],[84.1,43533],[84.1,43621],[84.1,43699],[84.1,43790],[84.1,43867],[84.1,43954],[84.2,44040],[84.3,44124],[84.3,44199],[84.3,44284],[84.4,44374],[84.5,44458],[84.6,44534],[84.6,44624],[84.6,44707],[84.6,44791],[84.6,44866],[84.6,44957],[84.6,45041],[84.6,45123],[84.8,45208],[85,45291],[85.2,45374],[85.2,45457],[85.2,45533],[85.2,45624],[85.2,45708],[85.2,45790],[85.2,45867],[85.2,45949],[85.2,46040],[85.2,46124],[85.2,46199],[85.2,46290],[85.2,46367],[85.2,46449],[85.2,46540],[85.2,46624],[85.2,46707],[85.2,46790],[85.2,46867],[85.2,46957],[85.2,47040],[85.2,47117],[85.4,47207],[86.4,47290],[87.1,47374],[87.3,47457],[87.3,47540],[87.3,47616],[87.3,47699],[87.3,47783],[87.3,47873],[87.3,47957],[87.3,48040],[87.3,48116],[85.4,48208],[78.1,48292],[63.2,49124],[64,49208],[65.4,49290],[65.4,49373],[65.4,49457],[65.2,49540],[62.9,49624],[60.9,49708],[59.4,49791],[59.4,49874],[59.4,49957],[59.4,50040],[58.3,50125],[57.5,50207],[57.5,50290],[57.5,50374],[57.5,50449],[57.5,50540],[57.5,50624],[57.5,50699],[57.5,50791],[57.5,50866],[56.7,50957],[54.2,51041],[52.8,51124],[51.9,51208],[50.8,51291],[50,51374],[49.1,51457],[47.6,51541],[44.9,51624],[43.6,51707],[43.2,51791],[42.5,51874],[41.3,51957],[41.1,52040],[40.9,52123],[40.9,52207],[40.9,52290],[40.9,52373],[40.9,52457],[40.9,52540],[40.9,52623],[40.9,52707],[40.9,52790],[40.9,52866],[40.9,52953],[40.9,53040],[40.9,53117],[41,53207],[41,53290],[41,53373],[41,53457],[41,53540],[41,53616],[41,53707],[41,53791],[41,53873],[41,53957],[41,54040],[41,54123],[41,54207],[41,54291],[41,54373],[41,54457],[41,54533],[41,54624],[41,54708],[41,54783],[41,54874],[41,54958],[41,55040],[41,55116],[41,55207],[41,55290],[41,55370],[41,55457],[41,55540],[41,55616],[41,55707],[41,55790],[41,55865]]",1,0,307.2188,317.045,40.72916531,8.2012,"[{""rating"":48.95833185873927,""responseTime"":4.468700000047704},{""rating"":42.49999862164261,""responseTime"":4.918300000190754},{""rating"":38.85416534263643,""responseTime"":5.7205000000000155},{""rating"":45.41666524484755,""responseTime"":6.8145000000000095},{""rating"":40.72916531469674,""responseTime"":8.20120000004772}]",space,9.2733,,317.0453,All the time,100,317.048,,,[],,0,1,1,1,1,audio/Narrative7Situation1.wav,audio/Narrative8Situation1.wav,audio/Narrative5Situation1.wav,audio/Narrative6Situation1.wav,2,5,5,2,1.8723,,,,,,,,,,,,,,,,,,,,,,,,,,,,,,,,,,,,,,
,,,,,,5a9262251eda410001360b2c,2024-02-08_16h03.06.251,group3.1-3.2-social-tom,2023.2.2,Win32,59.52380952,65c5074098b851296ff0b7ed,65c5415e025bb618405c3017,,,,,,,,,,,,,,,,,,,,,,,,,,,,,317.0485,1,audio/Narrative7Situation2.wav,320.0606,,320.0607,327.5282,"[[999,0],[999,84],[999,167],[999,249],[999,333],[999,417],[999,500],[999,583],[999,667],[999,750],[999,834],[999,917],[999,1000],[999,1084],[999,1166],[999,1250],[999,1334],[999,1417],[999,1500],[8.5,1584],[6.6,1667],[5,1750],[3.3,1834],[3.1,1916],[1.4,2000],[1.1,2083],[1.1,2167],[1.1,2250],[1.1,2334],[1.1,2417],[1.1,2499],[1.1,2583],[1.1,2666],[1.1,2750],[1.1,2833],[1.1,2916],[1.1,2999],[1.1,3083],[1.1,3167],[1.1,3250],[1.1,3334],[1.1,3417],[1.4,3500],[5.5,3584],[18.6,3666],[27.6,3750],[35.9,3835],[47.3,3917],[50,4000],[50.2,4084],[50.4,4167],[50.4,4250],[50.4,4333],[50.4,4416],[50.4,4500],[50.4,4583],[50.4,4666],[50.4,4750],[50.4,4833],[50.4,4917],[50.4,5000],[50.4,5084],[50.4,5168],[50.4,5250],[50.4,5333],[50.4,5417],[50.4,5500],[50.4,5583],[50.4,5666],[50.4,5750],[50.4,5834],[50.4,5917],[50.4,6000],[50.4,6084],[50.4,6167],[50.4,6249],[50.4,6334],[50.4,6417],[50.4,6500],[50.4,6583],[50.4,6668],[50.4,6750],[50.4,6833],[50.4,6917],[50.4,7000],[50.4,7084],[50.4,7166],[50.4,7250],[50.4,7333],[50.4,7416]]",1,0,327.5286,337.3693,50.20833184,8.7595,"[{""rating"":49.583331849426045,""responseTime"":4.230300000190709},{""rating"":61.979164998047075,""responseTime"":6.938900000095373},{""rating"":50.20833184011283,""responseTime"":8.759500000000003}]",space,9.2981,,337.3693,Not at all,0,337.3731,,,[],,0,2,2,2,1,audio/Narrative7Situation2.wav,audio/Narrative8Situation2.wav,audio/Narrative5Situation2.wav,audio/Narrative6Situation2.wav,3,3,3,3,,,,,,,,,,,,,,,,,,,,,,,,,,,,,,,,,,,,,,,
,,,,,,5a9262251eda410001360b2c,2024-02-08_16h03.06.251,group3.1-3.2-social-tom,2023.2.2,Win32,59.52380952,65c5074098b851296ff0b7ed,65c5415e025bb618405c3017,,,,,,,,,,,,,,,,,,,,,,,,,,,,,337.3734,1,audio/Narrative7Situation3.wav,345.3862,,345.3862,354.6453,"[[6.6,1264],[6.1,1350],[3.8,1433],[3.3,1516],[3.3,1598],[3.3,1683],[3,1758],[2.3,1849],[1.7,1925],[1.4,2008],[1.4,2091],[1.4,2175],[1.4,2266],[1.4,2341],[1.4,2428],[1.4,2515],[1.4,2591],[1.4,2681],[1.4,2765],[1.4,2841],[1.4,2932],[1.4,3008],[1.4,3099],[1.4,3175],[1.4,3265],[1.4,3349],[1.4,3432],[1.4,3508],[1.4,3598],[1.4,3682],[1.4,3758],[1.4,3847],[1.4,3932],[1.4,4016],[1.4,4092],[1.4,4175],[1.4,4265],[1.4,4348],[1.4,4433],[1.4,4508],[1.4,4598],[1.4,4682],[1.4,4765],[1.4,4842],[1.4,4931],[1.4,5015],[1.4,5098],[1.4,5174],[1.4,5265],[1.4,5342],[1.4,5428],[10.4,5533],[17.7,5615],[21,5699],[22,5782],[22.4,5866],[22.8,5942],[22.9,6032],[22.9,6108],[22.9,6192],[22.9,6274],[22.9,6358],[22.9,6441],[22.9,6524],[22.9,6615],[22.9,6698],[22.9,6774],[22.9,6858],[22.9,6948],[22.9,7025],[22.9,7108],[22.9,7192],[22.9,7282],[22.9,7358],[22.9,7442],[22.9,7524],[22.9,7608],[22.9,7691],[22.9,7774],[22.9,7859],[22.9,7942],[22.9,8024],[22.9,8108],[22.9,8191],[22.9,8275],[22.9,8358],[22.9,8441],[22.9,8524],[22.9,8609],[22.9,8691],[22.9,8774],[22.9,8858],[22.9,8941],[22.9,9024],[22.9,9108],[22.9,9191]]",1,0,354.6456,357.9454,18.54166565,1.8221,"[{""rating"":18.54166564531625,""responseTime"":1.8220999999045944}]",space,2.7511,,357.9456,Not at all,0,357.949,,,[],,0,3,3,3,1,audio/Narrative7Situation3.wav,audio/Narrative8Situation3.wav,audio/Narrative5Situation3.wav,audio/Narrative6Situation3.wav,8,4,3,5,,,,,,,,,,,,,,,,,,,,,,,,,,,,,,,,,,,,,,,
,,,,,,5a9262251eda410001360b2c,2024-02-08_16h03.06.251,group3.1-3.2-social-tom,2023.2.2,Win32,59.52380952,65c5074098b851296ff0b7ed,65c5415e025bb618405c3017,,,,,,,,,,,,,,,,,,,,,,,,,,,,,357.9494,1,audio/Narrative7Situation4.wav,360.9613,,360.9615,372.6953,"[[7.1,683],[6.6,766],[4.2,849],[4.1,933],[3.9,1016],[3.8,1099],[3.8,1183],[3.8,1266],[3.8,1349],[3.2,1433],[2.5,1516],[2.2,1599],[2.2,1683],[2.2,1766],[2.2,1849],[2.2,1933],[2.2,2015],[2.2,2098],[2.2,2183],[2.2,2266],[2.2,2349],[2.2,2433],[2.2,2517],[2.1,2600],[2.1,2683],[2.1,2765],[2.1,2849],[2.1,2933],[2.1,3015],[2.1,3099],[2.1,3182],[2.1,3266],[7.7,3350],[21.5,3433],[35.7,3516],[48.1,3600],[56.1,3683],[61.7,3766],[64.7,3849],[66.6,3933],[67.3,4015],[67.3,4098],[67.3,4183],[67.3,4266],[67.3,4349],[67.3,4433],[67.3,4516],[67.9,4599],[68,4683],[70.1,4765],[74.6,4849],[75.4,4932],[75.4,5016],[75.4,5099],[75.4,5183],[78.4,5266],[80.8,5349],[80.8,5433],[80.8,5516],[80.8,5599],[80.8,5683],[80.8,5766],[80.8,5849],[80.8,5933],[80.8,6016],[80.8,6099],[80.8,6182],[80.8,6266],[80.8,6348],[80.8,6433],[80.8,6516],[80.8,6599],[80.8,6683],[80.8,6765],[80.8,6849],[80.8,6933],[80.8,7017],[80.8,7099],[80.8,7183],[80.8,7266],[80.8,7350],[80.8,7433],[80.8,7517],[80.8,7599],[80.8,7682],[80.8,7765],[81,7850],[83.1,7941],[85.2,8024],[87,8107],[89.4,8190],[92,8273],[93.1,8357],[94.2,8441],[95,8524],[95.8,8607],[95.8,8686],[95.8,8772],[95.8,8857],[95.8,8940],[95.8,9024],[95.8,9108],[95.8,9183],[95.8,9270],[95.8,9357],[95.8,9440],[95.8,9524],[95.8,9607],[95.8,9690],[95.8,9774],[95.8,9856],[95.8,9940],[95.8,10016],[95.8,10107],[95.8,10190],[95.8,10273],[95.8,10357],[95.8,10437],[95.8,10524],[95.8,10599],[95.8,10687],[95.8,10766],[95.6,10857],[95.6,10933],[95.6,11024],[95.6,11107],[95.6,11183],[95.6,11274],[95.6,11354],[95.6,11440],[95.6,11523],[95.6,11599],[95.6,11690]]",1,0,372.6956,376.4452,77.29166477,2.9224,"[{""rating"":71.14583152811976,""responseTime"":1.8394999999999868},{""rating"":77.29166476987304,""responseTime"":2.922399999856907}]",space,3.2055,,376.4454,Half the time,50,376.4505,,,[],,0,4,4,4,1,audio/Narrative7Situation4.wav,audio/Narrative8Situation4.wav,audio/Narrative5Situation4.wav,audio/Narrative6Situation4.wav,3,3,1,2,,,,,,,,,,,,,,,,,,,,,,,,,,,,,,,,,,,,,,,
,,,,,,5a9262251eda410001360b2c,2024-02-08_16h03.06.251,group3.1-3.2-social-tom,2023.2.2,Win32,59.52380952,65c5074098b851296ff0b7ed,65c5415e025bb618405c3017,,,,,,,,,,,,,,,,,,,,,,,,,,,,,376.4508,1,audio/Narrative7Situation5.wav,381.4524,,381.4525,389.9454,"[[5.6,509],[4.3,593],[2.6,675],[1.5,758],[1.4,842],[0.9,924],[0.9,1008],[0.9,1091],[0.9,1175],[0.9,1258],[0.9,1342],[0.9,1425],[0.9,1508],[0.9,1592],[0.9,1675],[0.9,1759],[0.9,1842],[0.9,1925],[0.9,2008],[0.9,2091],[0.9,2174],[0.9,2258],[0.9,2341],[0.9,2425],[0.9,2508],[0.9,2591],[0.9,2675],[0.9,2758],[0.9,2843],[0.9,2925],[0.9,3008],[0.9,3092],[0.9,3175],[0.9,3258],[0.9,3342],[0.9,3425],[0.9,3509],[0.9,3592],[0.9,3675],[0.9,3758],[1,3843],[12.4,3925],[21.3,4008],[29,4092],[41.3,4175],[48.4,4258],[51.6,4342],[52.8,4425],[53,4508],[54.6,4593],[57.5,4675],[59.2,4758],[60.5,4843],[65,4925],[68.3,5008],[68.8,5092],[68.8,5175],[68.8,5258],[68.8,5342],[68.8,5425],[68.8,5508],[68.8,5592],[68.8,5675],[68.8,5758],[68.8,5842],[68.8,5925],[68.8,6008],[68.8,6092],[68.8,6175],[68.9,6259],[70.9,6342],[72.6,6425],[72.6,6508],[72.6,6591],[72.6,6675],[72.6,6758],[72.6,6842],[72.6,6925],[72.6,7008],[72.6,7092],[72.6,7175],[72.6,7258],[72.6,7342],[72.6,7425],[72.6,7508],[72.6,7592],[72.6,7675],[72.6,7758],[72.6,7842],[72.6,7926],[72.6,8008],[72.6,8092],[72.6,8174],[72.6,8266],[72.6,8349],[72.6,8432]]",1,0,389.9458,392.7025,80.10416473,2.0456,"[{""rating"":75.41666479781273,""responseTime"":1.3557999999522963},{""rating"":80.10416472796354,""responseTime"":2.0455999999046526}]",space,2.2009,,392.7028,Not at all,0,392.7073,,,[],,0,5,5,5,1,audio/Narrative7Situation5.wav,audio/Narrative8Situation5.wav,audio/Narrative5Situation5.wav,audio/Narrative6Situation5.wav,5,2,5,2,,,,,,,,,,,,,,,,,,,,,,,,,,,,,,,,,,,,,,,
,,,,,,5a9262251eda410001360b2c,2024-02-08_16h03.06.251,group3.1-3.2-social-tom,2023.2.2,Win32,59.52380952,65c5074098b851296ff0b7ed,65c5415e025bb618405c3017,,,,,,,,,,,,,,,,,,,,,,,,,,,,,392.7077,1,audio/Narrative7Situation6.wav,395.7183,,395.7184,405.6951,"[[14.8,417],[7.4,500],[1.1,583],[0.4,666],[5.6,4593],[13.9,4676],[23.1,4759],[37.1,4842],[49.8,4926],[50.4,5010],[51.8,5092],[51.9,5176],[51.9,5259],[51.4,5342],[49.4,5426],[49.4,5509],[49.4,5592],[49.4,5676],[49.4,5759],[49.4,5842],[49.4,5926],[49.4,6009],[49.4,6092],[49.4,6175],[49.4,6259],[49.4,6342],[49.4,6426],[49.4,6509],[49.4,6592],[49.4,6676],[49.4,6760],[49.4,6843],[49.4,6926],[49.4,7009],[49.4,7092],[49.4,7176],[49.4,7259],[49.4,7342],[49.4,7426],[49.4,7510],[49.4,7592],[49.4,7676],[49.4,7759],[49.4,7842],[49.4,7926],[49.4,8010],[49.4,8092],[49.4,8176],[49.4,8259],[49.4,8342],[49.4,8426],[49.4,8509],[49.4,8592],[49.4,8676],[49.4,8759],[49.4,8843],[49.4,8925],[49.4,9009],[49.4,9093],[49.4,9176],[49.4,9259],[49.4,9342],[49.4,9426],[49.4,9509],[49.4,9592],[49.4,9676],[49.4,9759],[49.4,9842],[49.4,9926]]",1,0,405.6954,408.8863,53.43749846,1.973,"[{""rating"":47.4999985471368,""responseTime"":1.4569999999999936},{""rating"":53.43749845866116,""responseTime"":1.9730000000000132}]",space,2.6447,,408.8864,Half the time,50,408.8906,,,[],,0,6,6,6,1,audio/Narrative7Situation6.wav,audio/Narrative8Situation6.wav,audio/Narrative5Situation6.wav,audio/Narrative6Situation6.wav,3,2,3,2,,,,,,,,,,,,,,,,,,,,,,,,,,,,,,,,,,,,,,,
,,,,,,5a9262251eda410001360b2c,2024-02-08_16h03.06.251,group3.1-3.2-social-tom,2023.2.2,Win32,59.52380952,65c5074098b851296ff0b7ed,65c5415e025bb618405c3017,,,,,,,,,,,,,,,,,,,,,,,,,,,,,408.891,1,audio/Narrative7Situation7.wav,413.9024,,413.9025,431.0786,"[[7.4,508],[2.8,593],[1.8,675],[1.8,759],[1.5,843],[1.4,925],[1.4,1008],[1.4,1092],[1.4,1175],[1.4,1259],[1.4,1341],[1.4,1426],[1.4,1508],[1.4,1592],[1.4,1675],[1.4,1758],[1.4,1841],[1.4,1925],[1.4,2008],[1.4,2091],[1.4,2176],[1.4,2259],[1.4,2343],[1.4,2425],[1.4,2508],[1.4,2592],[1.4,2675],[1.4,2757],[1.4,2842],[1.4,2925],[1.4,3009],[1.4,3092],[1.4,3175],[1.4,3258],[1.4,3341],[1.4,3424],[1.4,3508],[1.4,3592],[1.4,3675],[1.4,3758],[1.4,3842],[1.4,3926],[1.4,4007],[15.7,4100],[27.1,4183],[37.5,4266],[44.8,4349],[52.4,4433],[60.4,4516],[67.5,4599],[75.4,4683],[77.7,4758],[78.4,4849],[78.4,4925],[78.9,5016],[86.6,5100],[86.7,5182],[86.7,5266],[86.7,5342],[86.7,5432],[86.7,5516],[86.7,5599],[86.7,5675],[86.7,5766],[86.7,5842],[86.7,5932],[86.7,6016],[86.7,6092],[86.7,6184],[86.7,6266],[86.7,6342],[86.7,6432],[86.7,6516],[86.7,6599],[86.7,6683],[86.7,6759],[86.7,6850],[86.7,6933],[86.7,7009],[86.7,7100],[86.7,7183],[86.7,7258],[86.7,7349],[86.7,7426],[86.7,7508],[86.7,7599],[86.7,7683],[86.7,7766],[86.7,7849],[86.7,7933],[86.7,8016],[86.7,8099],[86.7,8182],[85.3,8266],[77.4,8350],[74.5,8433],[70.8,8517],[67.3,8600],[63.5,8683],[60.1,8765],[56.7,8849],[54.2,8933],[52.9,9017],[51.5,9100],[50.2,9183],[49.1,9266],[49.1,9342],[49.1,9425],[49.1,9516],[49.1,9592],[49.1,9675],[48.9,9763],[45.1,9849],[41.4,9933],[39.3,10017],[38.2,10099],[38.2,10182],[38,10266],[37.4,10350],[37.1,10429],[37.1,10508],[37.1,10599],[37.1,10679],[37.1,10766],[37.1,10849],[37.1,10933],[37.1,11015],[37,11092],[37,11175],[37,11266],[37,11342],[37,11425],[37,11516],[37,11591],[37,11675],[37,11766],[37,11842],[37,11932],[37,12016],[37,12099],[37,12182],[37,12266],[37,12349],[36.8,12433],[35,12517],[34.4,12599],[33.1,12683],[32.5,12767],[32.1,12850],[31.9,12933],[31.7,13016],[31.4,13093],[31.1,13175],[31.1,13258],[31.1,13349],[31.1,13425],[31.1,13509],[36.9,13599],[48.9,13683],[51.7,13766],[53.1,13849],[56.5,13933],[59.5,14016],[60.8,14100],[62.2,14183],[62.7,14258],[62.7,14350],[62.7,14425],[62.7,14508],[62.7,14592],[62.7,14675],[62.7,14765],[62.7,14849],[62.7,14924],[62.7,15017],[62.7,15092],[62.7,15176],[62.7,15266],[62.7,15349],[62.7,15432],[62.7,15508],[62.7,15592],[62.7,15682],[62.7,15766],[62.7,15842],[62.7,15932],[62.7,16016],[62.7,16092],[62.7,16175],[62.7,16262],[62.7,16342],[62.7,16432],[62.7,16512],[62.7,16599],[62.7,16674],[62.7,16766],[62.7,16849],[62.7,16926],[62.7,17016],[62.7,17099],[62.7,17175]]",1,0,431.0787,442.4359,80.72916472,10.8387,"[{""rating"":66.14583160262558,""responseTime"":6.470799999952305},{""rating"":74.68749814201148,""responseTime"":9.062999999999988},{""rating"":80.72916471865031,""responseTime"":10.838700000047652}]",space,10.8177,,442.4361,Not at all,0,442.4397,,,[],,0,7,7,7,1,audio/Narrative7Situation7.wav,audio/Narrative8Situation7.wav,audio/Narrative5Situation7.wav,audio/Narrative6Situation7.wav,5,3,4,5,,,,,,,,,,,,,,,,,,,,,,,,,,,,,,,,,,,,,,,
,,,,,,5a9262251eda410001360b2c,2024-02-08_16h03.06.251,group3.1-3.2-social-tom,2023.2.2,Win32,59.52380952,65c5074098b851296ff0b7ed,65c5415e025bb618405c3017,,,,,,,,,,,,,,,,,,,,,,,,,,,,,442.44,1,audio/Narrative7Situation8.wav,444.4525,,444.4525,454.4779,"[[999,0],[18.9,166],[18.9,246],[18.9,333],[18.9,416],[11.8,500],[5.4,583],[2.9,667],[2,750],[0.4,833],[0.1,916],[0.1,999],[0.1,1076],[0.1,1166],[0.1,1250],[0.1,1333],[0.1,1408],[0.1,1499],[0.1,1583],[0.1,1658],[0.1,1746],[0.1,1825],[0.1,1916],[0.1,1992],[0.1,2079],[0.1,2166],[0.1,2250],[0.1,2332],[0.1,2416],[0.1,2492],[0.1,2582],[0.1,2659],[0.1,2742],[0.1,2825],[0.1,2916],[0.1,2992],[0.1,3074],[0.1,3158],[0.1,3249],[0.1,3324],[0.1,3408],[0.1,3492],[0.1,3582],[0.1,3666],[0.1,3742],[0.1,3832],[0.1,3916],[0.1,3999],[0.1,4079],[0.1,4158],[0.1,4242],[0.1,4332],[0.1,4416],[0.1,4492],[0.1,4582],[0.1,4666],[0.1,4742],[0.1,4829],[0.1,4908],[0.1,4992],[0.1,5083],[0.1,5162],[0.1,5249],[0.1,5326],[0.1,5416],[0.1,5499],[0.1,5575],[0.1,5666],[0.1,5750],[0.1,5831],[0.1,5912],[0.1,5992],[0.1,6075],[0.1,6166],[0.1,6242],[0.1,6325],[0.1,6416],[0.1,6498],[0.1,6579],[0.1,6666],[0.1,6749],[0.1,6825],[0.1,6916],[0.1,6992],[0.1,7082],[0.1,7166],[0.1,7242],[0.1,7325],[0.1,7416],[0.1,7499],[0.1,7575],[0.1,7666],[0.1,7749],[0.1,7825],[0.1,7914],[0.1,7999],[0.1,8076],[0.1,8166],[0.1,8249],[0.1,8332],[0.1,8409],[0.3,8500],[0.9,8592],[0.9,8675],[0.9,8758],[0.9,8841],[0.9,8926],[0.9,9008],[0.9,9091],[0.9,9175],[1.4,9258],[2,9342],[2.4,9425],[2.7,9508],[4.1,9592],[6.1,9675],[6.3,9758],[6.3,9842],[6.3,9925],[6.3,10008]]",1,0,454.4781,459.6193,13.22916572,4.1903,"[{""rating"":13.22916572447867,""responseTime"":4.190299999952288}]",space,4.6168,,459.6193,Not at all,0,459.6207,,,[],,0,8,8,8,1,audio/Narrative7Situation8.wav,audio/Narrative8Situation8.wav,audio/Narrative5Situation8.wav,audio/Narrative6Situation8.wav,2,3,3,5,,,,,,,,,,,,,,,,,,,,,,,,,,,,,,,,,,,,,,,
,,,,,,5a9262251eda410001360b2c,2024-02-08_16h03.06.251,group3.1-3.2-social-tom,2023.2.2,Win32,59.52380952,65c5074098b851296ff0b7ed,65c5415e025bb618405c3017,,,,,,,,,,,,,,,,,,,,,,,,,,,,,459.621,1,audio/Narrative7Situation9.wav,461.6358,,461.6359,470.2788,"[[20.7,83],[20.5,165],[20.5,251],[20.5,324],[20.5,416],[20.1,500],[18.4,583],[15.8,660],[6.8,750],[1.1,833],[15.5,7425],[15.5,7509],[15.5,7592],[15.5,7675],[15.5,7758],[15.5,7841],[14.6,7925],[14.1,8008],[16.1,8116],[25.7,8199],[27.1,8283],[27.5,8359],[30.5,8449],[36.8,8533],[36.8,8615]]",1,0,470.2789,472.9856,24.0624989,2.1058,"[{""rating"":28.645832161419104,""responseTime"":1.3233999998569743},{""rating"":26.249998863786473,""responseTime"":1.640299999952333},{""rating"":24.06249889638276,""responseTime"":2.105799999952353}]",space,2.1558,,472.9857,Not at all,0,472.9882,,,[],,0,9,9,9,1,audio/Narrative7Situation9.wav,audio/Narrative8Situation9.wav,audio/Narrative5Situation9.wav,audio/Narrative6Situation9.wav,2,3,3,4,,,,,,,,,,,,,,,,,,,,,,,,,,,,,,,,,,,,,,,
,,,,,,5a9262251eda410001360b2c,2024-02-08_16h03.06.251,group3.1-3.2-social-tom,2023.2.2,Win32,59.52380952,65c5074098b851296ff0b7ed,65c5415e025bb618405c3017,,,,,,,,,,,,,,,,,,,,,,,,,,,,,472.9887,1,audio/Narrative8Situation1.wav,478.0029,,478.003,493.9452,"[[10.5,508],[7.3,591],[6.5,675],[3.8,759],[2.2,841],[1.8,925],[0.9,1007],[0.9,1091],[0.9,1176],[0.9,1258],[0.9,1341],[0.9,1424],[0.9,1507],[0.9,1591],[0.8,1675],[0.8,1757],[0.8,1841],[0.8,1924],[0.8,2008],[0.8,2091],[0.8,2174],[0.8,2258],[0.8,2341],[0.8,2424],[0.8,2507],[0.8,2591],[0.8,2675],[0.8,2758],[0.8,2841],[0.8,2924],[0.8,3008],[0.8,3091],[0.8,3175],[0.8,3258],[0.8,3341],[0.8,3425],[0.8,3507],[0.8,3592],[0.8,3675],[0.8,3757],[0.8,3842],[0.8,3924],[0.8,4008],[0.8,4092],[0.8,4175],[0.8,4258],[0.8,4341],[0.8,4425],[0.8,4508],[0.8,4591],[0.8,4675],[0.8,4757],[0.8,4841],[0.8,4924],[0.8,5007],[0.8,5091],[0.8,5175],[0.8,5258],[0.8,5341],[0.8,5425],[0.8,5508],[0.8,5591],[0.8,5675],[0.8,5758],[0.8,5841],[0.8,5925],[0.8,6007],[0.8,6091],[0.8,6174],[0.8,6258],[0.8,6341],[0.8,6424],[0.8,6507],[0.8,6591],[0.8,6674],[0.8,6758],[0.8,6842],[0.8,6926],[0.8,7008],[0.8,7092],[0.8,7174],[0.8,7257],[0.8,7341],[0.8,7424],[0.8,7508],[0.8,7591],[0.8,7676],[1.1,7759],[4.1,7841],[11.4,7925],[20.4,8008],[29.8,8092],[36.3,8175],[37.1,8257],[38.3,8342],[38.3,8425],[38.3,8507],[38.3,8591],[36.7,8675],[33.2,8758],[33.1,8841],[33.1,8924],[33.1,9007],[33.1,9091],[33.1,9174],[33.1,9258],[33.1,9341],[33.1,9425],[33.1,9507],[33.1,9591],[33.1,9675],[33.1,9757],[33.1,9841],[33.1,9925],[33.1,10008],[33.1,10091],[33.1,10175],[33.1,10257],[33.1,10341],[33.1,10425],[33.1,10507],[33.1,10591],[33.1,10674],[33.1,10758],[33.1,10841],[33.1,10925],[33.1,11007],[33.1,11091],[33.1,11175],[33.1,11258],[33.1,11341],[33.1,11425],[33.1,11508],[33.1,11591],[33.1,11674],[33.1,11758],[33.1,11841],[33.1,11925],[33.1,12007],[33.1,12091],[33.1,12174],[33.1,12257],[33.1,12341],[33.1,12425],[33.1,12508],[33.1,12592],[33.1,12675],[33.1,12758],[33.1,12841],[33.1,12925],[33.1,13007],[33.1,13091],[33.1,13175],[33.1,13258],[33.1,13342],[33.1,13425],[33.1,13507],[33.1,13591],[33.1,13674],[33.1,13758],[33.1,13841],[33.1,13925],[33.1,14008],[33.1,14091],[33.1,14175],[33.1,14257],[33.1,14342],[33.1,14424],[33.1,14507],[33.1,14591],[33.1,14675],[33.1,14758],[33.1,14841],[33.1,14924],[33.1,15007],[33.1,15091],[33.1,15174],[36.9,15266],[40.5,15349],[42.9,15432],[44.9,15516],[46,15599],[46.7,15683],[47.2,15758],[47.2,15848],[47.2,15925]]",1,0,493.9455,496.3703,38.64583201,1.4732,"[{""rating"":38.645832012407496,""responseTime"":1.4732000000476546}]",space,1.8836,,496.3703,Not at all,0,496.3723,,,[],,0,10,10,10,1,audio/Narrative8Situation1.wav,audio/Narrative7Situation1.wav,audio/Narrative6Situation1.wav,audio/Narrative5Situation1.wav,5,2,2,5,,,,,,,,,,,,,,,,,,,,,,,,,,,,,,,,,,,,,,,
,,,,,,5a9262251eda410001360b2c,2024-02-08_16h03.06.251,group3.1-3.2-social-tom,2023.2.2,Win32,59.52380952,65c5074098b851296ff0b7ed,65c5415e025bb618405c3017,,,,,,,,,,,,,,,,,,,,,,,,,,,,,496.3727,1,audio/Narrative8Situation2.wav,499.3864,,499.3867,509.5118,"[[20.2,82],[19.8,165],[19.8,241],[19.8,324],[17.2,415],[8.4,498],[5.1,582],[4.4,665],[0.6,749],[1.4,2666],[3.8,2750],[6.1,2832],[9.8,2917],[14.3,2999],[15.6,3083],[17.2,3164],[20.5,3248],[25.5,3333],[30,3415],[31.7,3498],[32,3581],[32,3658],[32,3749],[32,3824],[32,3915],[32.9,3999],[33,4074],[33,4165],[33,4245],[33,4331],[33,4415],[33,4490],[33,4582],[33,4666],[33,4742],[33,4832],[33,4914],[33,4990],[33,5082],[33,5158],[33,5240],[35.5,5333],[38,5416],[41.4,5499],[44.1,5582],[47.6,5666],[48.8,5740],[48.9,5832],[48.9,5908],[48.9,5998],[48.9,6082],[48.9,6164],[48.9,6242],[48.9,6332],[48.9,6415],[48.9,6498],[48.9,6575],[48.9,6657],[48.9,6748],[48.9,6832],[48.9,6915],[48.9,6990],[48.9,7073],[48.9,7158],[48.9,7249],[48.9,7325],[48.9,7415],[48.9,7498],[48.9,7574],[48.9,7665],[48.9,7741],[48.9,7832],[48.9,7908],[48.9,7991],[48.9,8082],[48.9,8165],[48.9,8241],[48.9,8332],[48.9,8408],[48.9,8490],[48.9,8582],[48.9,8658],[48.9,8749],[48.9,8832],[48.9,8908],[48.9,8991],[48.9,9082],[48.9,9158],[48.9,9248],[48.9,9331],[48.9,9409],[48.9,9499],[50.6,9592],[54.8,9674],[62.1,9758],[62.8,9840],[63,9925],[76.6,10009],[78.5,10091]]",1,0,509.512,514.279,72.81249817,3.8473,"[{""rating"":61.77083166781815,""responseTime"":1.8474000000953765},{""rating"":72.81249816995116,""responseTime"":3.84729999995227}]",space,4.2302,,514.2791,Half the time,50,514.2835,,,[],,0,11,11,11,1,audio/Narrative8Situation2.wav,audio/Narrative7Situation2.wav,audio/Narrative6Situation2.wav,audio/Narrative5Situation2.wav,3,3,3,3,,,,,,,,,,,,,,,,,,,,,,,,,,,,,,,,,,,,,,,
,,,,,,5a9262251eda410001360b2c,2024-02-08_16h03.06.251,group3.1-3.2-social-tom,2023.2.2,Win32,59.52380952,65c5074098b851296ff0b7ed,65c5415e025bb618405c3017,,,,,,,,,,,,,,,,,,,,,,,,,,,,,514.2841,1,audio/Narrative8Situation3.wav,518.2949,,518.295,540.6787,"[[35.8,425],[18.4,508],[15.3,590],[11,674],[4.8,757],[2,840],[1.9,923],[1.9,1007],[1,1090],[1,1174],[1,1257],[1,1340],[1,1423],[1,1500],[1,1590],[1,1665],[1,1750],[1,1840],[1,1916],[1,1999],[1,2090],[1,2173],[1.6,2250],[5.1,2341],[16.4,2424],[27.7,2508],[34.6,2590],[39.6,2674],[42.8,2757],[44.1,2840],[45.4,2924],[46.3,3007],[47.5,3091],[48.9,3174],[49.6,3257],[49.6,3332],[49.6,3423],[49.6,3506],[49.6,3590],[49.6,3673],[49.6,3750],[49.6,3840],[49.6,3923],[49.6,4007],[49.6,4083],[49.6,4166],[49.6,4257],[49.6,4339],[49.6,4415],[49.6,4500],[49.6,4589],[49.6,4673],[49.6,4757],[49.6,4841],[49.6,4925],[49.6,5000],[49.6,5091],[49.6,5174],[49.6,5250],[49.6,5333],[49.6,5420],[49.6,5507],[49.6,5582],[49.6,5666],[49.6,5757],[49.6,5836],[49.6,5916],[49.6,6007],[49.6,6083],[49.6,6173],[49.6,6249],[49.6,6340],[49.6,6423],[49.6,6503],[49.6,6590],[49.6,6673],[49.6,6750],[49.6,6833],[49.6,6924],[49.6,6999],[49.6,7083],[49.6,7174],[49.6,7250],[49.6,7340],[49.6,7420],[49.6,7500],[49.6,7583],[49.6,7670],[49.6,7757],[49.6,7832],[49.6,7924],[49.6,8007],[49.6,8091],[49.6,8166],[49.6,8249],[49.6,8341],[49.7,8424],[49.9,8515],[49.9,8599],[50.5,8683],[50.7,8766],[50.7,8849],[50.7,8932],[50.7,9016],[50.7,9100],[50.7,9183],[50.8,9266],[51,9351],[51.4,9433],[51.5,9515],[51.5,9599],[51.5,9682],[51.5,9765],[51.5,9849],[51.5,9932],[51.5,10016],[51.5,10099],[51.5,10183],[51.5,10265],[51.5,10349],[51.5,10433],[51.5,10516],[51.5,10599],[51.5,10682],[51.5,10766],[51.5,10849],[51.5,10933],[51.5,11016],[51.5,11106],[51.5,11190],[51.5,11270],[51.5,11357],[51.5,11433],[51.5,11524],[51.5,11607],[51.5,11683],[51.5,11765],[51.5,11857],[51.5,11933],[51.5,12024],[51.5,12100],[51.5,12183],[51.5,12266],[51.5,12354],[51.5,12437],[51.5,12523],[51.5,12600],[51.5,12682],[51.5,12774],[51.5,12854],[51.5,12937],[51.5,13024],[51.5,13100],[51.5,13190],[51.5,13274],[51.5,13357],[51.5,13440],[51.5,13523],[51.5,13599],[51.5,13690],[51.5,13765],[51.5,13857],[51.5,13941],[51.5,14024],[51.5,14100],[51.5,14182],[51.5,14273],[51.5,14353],[51.5,14433],[50.5,14533],[50.4,14616],[50.4,14699],[50.4,14783],[53.1,14867],[55.4,14950],[58,15033],[60.5,15115],[60.5,15199],[60.5,15283],[60.5,15366],[60.5,15450],[60.5,15533],[60.5,15615],[60.5,15699],[60.5,15783],[60.5,15865],[60.5,15949],[60.5,16033],[60.5,16115],[60.5,16199],[60.5,16282],[60.5,16365],[60.5,16450],[60.5,16533],[60.5,16615],[60.5,16699],[60.5,16783],[60.5,16865],[60.5,16949],[60.5,17033],[60.5,17115],[60.5,17200],[60.5,17283],[60.5,17365],[60.5,17449],[60.5,17533],[60.5,17615],[60.5,17700],[60.5,17784],[60.5,17865],[60.5,17949],[60.5,18032],[60.5,18115],[60.5,18199],[60.5,18282],[60.5,18366],[60.5,18449],[60.5,18533],[60.5,18616],[60.5,18699],[60.5,18783],[60.5,18866],[60.5,18949],[60.5,19033],[60.5,19116],[60.5,19199],[60.5,19283],[60.5,19365],[60.5,19450],[60.5,19532],[60.5,19616],[60.5,19699],[60.5,19782],[60.5,19865],[60.5,19949],[60.5,20033],[60.5,20115],[60.5,20199],[60.5,20283],[60.5,20366],[60.5,20449],[60.5,20533],[60.5,20616],[60.5,20700],[60.5,20782],[60.5,20865],[60.5,20950],[60.5,21033],[60.5,21116],[60.5,21200],[60.5,21283],[60.5,21366],[60.5,21449],[60.5,21533],[60.5,21615],[60.5,21699],[60.5,21783],[60.5,21865],[60.5,21949],[60.5,22032],[60.5,22116],[60.5,22200],[60.5,22283],[60.5,22366]]",1,0,540.6792,545.3195,49.79166518,3.7718,"[{""rating"":50.20833184011283,""responseTime"":2.11099999999999},{""rating"":49.79166517965498,""responseTime"":3.77179999995235}]",space,4.1005,,545.3196,Half the time,50,545.3214,,,[],,0,12,12,12,1,audio/Narrative8Situation3.wav,audio/Narrative7Situation3.wav,audio/Narrative6Situation3.wav,audio/Narrative5Situation3.wav,4,8,5,3,,,,,,,,,,,,,,,,,,,,,,,,,,,,,,,,,,,,,,,
,,,,,,5a9262251eda410001360b2c,2024-02-08_16h03.06.251,group3.1-3.2-social-tom,2023.2.2,Win32,59.52380952,65c5074098b851296ff0b7ed,65c5415e025bb618405c3017,,,,,,,,,,,,,,,,,,,,,,,,,,,,,545.3218,1,audio/Narrative8Situation4.wav,548.3372,,548.3374,562.5117,"[[18.8,98],[18.1,181],[17.5,265],[17,341],[10,431],[7.1,515],[4.3,598],[3.5,681],[3.1,765],[3,841],[2.9,924],[2.5,1015],[1.7,1098],[1.7,1173],[1.7,1264],[1.7,1340],[1.7,1431],[1.7,1511],[1.7,1597],[1.7,1674],[1.7,1757],[1.7,1847],[1.7,1924],[1.7,2008],[1.7,2090],[1.7,2173],[1.7,2264],[1.7,2348],[1.7,2431],[1.7,2507],[1.7,2597],[1.7,2681],[1.7,2764],[1.7,2841],[1.7,2931],[1.7,3007],[1.7,3090],[1.7,3181],[1.7,3257],[1.7,3348],[1.7,3423],[1.7,3514],[1.7,3594],[1.7,3681],[1.7,3764],[1.7,3840],[1.7,3931],[1.7,4015],[1.7,4097],[1.7,4181],[1.7,4264],[1.7,4347],[1.7,4431],[1.7,4507],[1.7,4590],[1.7,4681],[1.7,4757],[1.7,4847],[1.7,4924],[3.4,5023],[4.2,5107],[4.2,5190],[4.2,5274],[4.2,5357],[4.2,5441],[4.2,5524],[3.9,5607],[2.9,5691],[2.3,5774],[2.3,5857],[2.3,5940],[2.3,6023],[2.3,6107],[2.3,6190],[2.3,6274],[2.5,6357],[3.4,6440],[4.9,6523],[5.4,6606],[6.1,6691],[7.9,6774],[9.3,6857],[9.6,6941],[9.7,7025],[10.9,7107],[13.1,7191],[13.6,7273],[13.6,7357],[14.7,7440],[15.6,7524],[15.9,7608],[16.5,7690],[16.6,7774],[17,7857],[17.5,7940],[17.8,8024],[17.8,8108],[17.8,8190],[17.8,8273],[17.8,8358],[17.8,8440],[17.8,8524],[17.8,8607],[17.8,8691],[17.8,8774],[17.8,8857],[17.8,8940],[17.8,9024],[17.8,9107],[17.8,9191],[17.8,9273],[17.8,9357],[17.8,9440],[17.8,9523],[17.8,9607],[18,9691],[18,9773],[18,9857],[18,9940],[18.3,10024],[18.8,10106],[18.8,10190],[18.9,10273],[19,10357],[19.1,10441],[19.6,10524],[20.6,10624],[21.7,10707],[23.4,10791],[24.6,10873],[25.6,10958],[26.9,11041],[27.9,11123],[29.1,11207],[29.7,11290],[30.3,11374],[30.8,11457],[31,11540],[31.6,11624],[32.3,11707],[33.8,11790],[35.5,11874],[36.6,11957],[37.4,12040],[38,12124],[38.6,12207],[38.6,12291],[38.6,12374],[38.6,12457],[38.6,12540],[38.6,12624],[38.6,12707],[38.6,12790],[38.6,12874],[38.6,12960],[38.6,13040],[38.6,13124],[38.6,13207],[38.6,13290],[38.6,13374],[38.6,13457],[38.6,13540],[38.6,13624],[38.6,13707],[38.6,13790],[38.6,13873],[38.6,13957],[38.6,14041],[38.6,14123]]",1,0,562.5119,564.9282,29.58333215,1.7113,"[{""rating"":29.583332147449266,""responseTime"":1.7112999999523026}]",space,1.8683,,564.9283,Not at all,0,564.9311,,,[],,0,13,13,13,1,audio/Narrative8Situation4.wav,audio/Narrative7Situation4.wav,audio/Narrative6Situation4.wav,audio/Narrative5Situation4.wav,3,3,2,1,,,,,,,,,,,,,,,,,,,,,,,,,,,,,,,,,,,,,,,
,,,,,,5a9262251eda410001360b2c,2024-02-08_16h03.06.251,group3.1-3.2-social-tom,2023.2.2,Win32,59.52380952,65c5074098b851296ff0b7ed,65c5415e025bb618405c3017,,,,,,,,,,,,,,,,,,,,,,,,,,,,,564.9314,1,audio/Narrative8Situation5.wav,566.9451,,566.9452,575.1951,"[[28.3,1416],[27.8,1499],[27.3,1583],[27.2,1665],[26.8,1750],[26.8,1832],[26.8,1916],[26.8,1999],[26.8,2082],[26.8,2165],[26.5,2250],[23.4,2333],[22.2,2415],[21.9,2499],[20.5,2583],[19,2666],[16,2750],[10.2,2832],[7.8,2916],[5.3,3000],[3.8,3083],[3.4,3166],[2.8,3249],[2.8,3332],[2.8,3415],[2.8,3500],[2.8,3582],[2.8,3665],[2.8,3749],[2.8,3833],[2.8,3915],[2.8,3999],[2.8,4082],[2.8,4166],[2.8,4250],[2.8,4332],[2.8,4416],[2.8,4499],[2.8,4582],[2.8,4666],[2.8,4749],[2.8,4833],[2.8,4916],[2.8,4999],[2.8,5082],[2.8,5166],[2.8,5249],[2.8,5332],[2.8,5415],[2.8,5499],[2.8,5582],[2.8,5666],[2.8,5750],[2.8,5832],[3,5916],[3.1,5999],[3.1,6082],[3.1,6166],[3.1,6249],[3.3,6332],[3.9,6416],[4.4,6499],[5,6582],[5.3,6666],[5.6,6749],[5.9,6833],[6.3,6916],[6.9,7000],[7.1,7082],[7.6,7166],[7.6,7249],[7.6,7332],[7.7,7415],[7.7,7500],[7.7,7582],[7.7,7665],[7.7,7749],[7.7,7832],[7.7,7916],[7.7,7999],[7.7,8082],[7.7,8166],[7.5,8249]]",1,0,575.1955,577.1612,8.333332464,1.209,"[{""rating"":8.333332464098941,""responseTime"":1.2089999999999463}]",space,1.4173,,577.1613,Not at all,0,577.1641,,,[],,0,14,14,14,1,audio/Narrative8Situation5.wav,audio/Narrative7Situation5.wav,audio/Narrative6Situation5.wav,audio/Narrative5Situation5.wav,2,5,2,5,,,,,,,,,,,,,,,,,,,,,,,,,,,,,,,,,,,,,,,
,,,,,,5a9262251eda410001360b2c,2024-02-08_16h03.06.251,group3.1-3.2-social-tom,2023.2.2,Win32,59.52380952,65c5074098b851296ff0b7ed,65c5415e025bb618405c3017,,,,,,,,,,,,,,,,,,,,,,,,,,,,,577.1645,1,audio/Narrative8Situation6.wav,579.1786,,579.1787,585.6613,"[[9.8,82],[9.8,166],[9.8,249],[9.8,332],[9.8,416],[9.8,500],[9.8,582],[9.8,666],[9.8,749],[9.8,832],[9.8,916],[9.8,999],[9.8,1082],[9.8,1166],[9.8,1249],[9.8,1333],[9.8,1416],[9.8,1498],[9.8,1582],[9.8,1666],[9.3,1749],[7.9,1832],[5.5,1917],[2.4,1999],[1,2082],[1,2166],[1,2249],[1,2332],[1,2415],[1,2499],[1,2582],[1,2666],[1,2749],[1,2832],[1,2916],[1,2999],[1,3082],[1,3166],[1,3250],[1,3332],[1,3416],[1,3500],[1,3582],[1,3666],[1,3750],[1,3833],[1.5,3916],[1.7,3999],[1.8,4082],[2,4165],[2.1,4249],[2.2,4332],[2.2,4416],[2.2,4499],[2.2,4582],[2.2,4665],[2.5,4749],[5.2,4833],[9.9,4917],[12.3,4999],[15.1,5082],[19.4,5166],[24,5249],[27.2,5333],[28.8,5416],[30.2,5499],[32.6,5582],[33.6,5666],[34.2,5749],[34.4,5832],[35.1,5916],[35.3,5999],[35.3,6082],[35.3,6166],[35.3,6249],[35.3,6332],[35.3,6416]]",1,0,585.6615,590.3781,23.12499891,3.7755,"[{""rating"":27.395832180045552,""responseTime"":1.1294000000954156},{""rating"":25.72916553821416,""responseTime"":2.865900000095394},{""rating"":23.124998910352595,""responseTime"":3.7754999999999654}]",space,4.1834,,590.3783,Half the time,50,590.3825,,,[],,0,15,15,15,1,audio/Narrative8Situation6.wav,audio/Narrative7Situation6.wav,audio/Narrative6Situation6.wav,audio/Narrative5Situation6.wav,2,3,2,3,,,,,,,,,,,,,,,,,,,,,,,,,,,,,,,,,,,,,,,
,,,,,,5a9262251eda410001360b2c,2024-02-08_16h03.06.251,group3.1-3.2-social-tom,2023.2.2,Win32,59.52380952,65c5074098b851296ff0b7ed,65c5415e025bb618405c3017,,,,,,,,,,,,,,,,,,,,,,,,,,,,,590.3829,1,audio/Narrative8Situation7.wav,593.3953,,593.3955,605.4856,"[[21.4,332],[20.3,416],[19.8,499],[17.9,582],[15.5,667],[14.7,750],[0.3,1332],[0.9,1416],[1.7,1499],[1.7,1582],[1.7,1665],[1.6,1749],[1.3,1832],[1,1916],[0.8,1999],[0.3,2082],[0.3,2165],[0.3,2249],[0.3,2332],[0.3,2415],[0.3,2500],[0.3,2582],[0.3,2665],[0.3,2749],[0.3,2833],[0.3,2916],[0.3,2999],[0.3,3082],[0.3,3166],[0.3,3249],[0.3,3332],[0.3,3415],[0.3,3499],[0.3,3582],[0.3,3666],[0.3,3749],[0.3,3832],[0.3,3916],[0.3,3999],[0.3,4082],[0.3,4166],[0.3,4249],[0.3,4332],[0.3,4415],[0.3,4499],[0.3,4582],[0.3,4666],[0.3,4749],[0.3,4832],[0.3,4915],[0.3,5000],[0.3,5082],[0.3,5165],[0.3,5249],[0.3,5332],[0.3,5416],[0.3,5499],[0.3,5582],[0.3,5665],[0.3,5748],[0.3,5832],[0.3,5915],[0.3,5999],[0.3,6082],[0.3,6166],[0.3,6249],[0.3,6332],[0.3,6416],[0.3,6499],[0.3,6583],[0.3,6665],[0.3,6750],[0.3,6832],[0.3,6916],[0.3,6999],[0.3,7082],[0.3,7166],[0.3,7250],[0.3,7331],[0.3,7416],[0.3,7499],[0.3,7582],[0.3,7666],[0.3,7749],[0.3,7832],[0.3,7916],[0.3,7999],[0.3,8082],[0.3,8166],[0.3,8249],[8.9,8341],[15,8424],[18.8,8508],[20.6,8590],[21,8674],[22.2,8757],[23.5,8840],[24.9,8924],[25.4,9007],[26.8,9090],[28.8,9173],[30.7,9257],[31.9,9340],[33,9424],[34.4,9507],[34.4,9590],[34.4,9674],[34.4,9749],[34.4,9840],[34.4,9916],[34.4,10006],[34.4,10090],[34.4,10174],[34.4,10249],[34.4,10333],[34.4,10423],[34.4,10499],[41,10591],[42,10674],[45.5,10757],[48.9,10841],[52.5,10924],[54.6,11006],[57,11090],[60,11173],[60.3,11257],[60.7,11341],[61.5,11424],[61.7,11500],[61.7,11582],[61.7,11672],[61.7,11749],[61.7,11840],[61.7,11924],[61.7,12006],[61.7,12089]]",1,0,605.4858,610.1029,44.79166525,3.9159,"[{""rating"":47.395831882022335,""responseTime"":2.331099999904609},{""rating"":44.791665254160776,""responseTime"":3.9159000000953483}]",space,4.084,,610.103,Half the time,50,610.1056,,,[],,0,16,16,16,1,audio/Narrative8Situation7.wav,audio/Narrative7Situation7.wav,audio/Narrative6Situation7.wav,audio/Narrative5Situation7.wav,3,5,5,4,,,,,,,,,,,,,,,,,,,,,,,,,,,,,,,,,,,,,,,
,,,,,,5a9262251eda410001360b2c,2024-02-08_16h03.06.251,group3.1-3.2-social-tom,2023.2.2,Win32,59.52380952,65c5074098b851296ff0b7ed,65c5415e025bb618405c3017,,,,,,,,,,,,,,,,,,,,,,,,,,,,,610.106,1,audio/Narrative8Situation8.wav,613.1192,,613.1192,625.9693,"[[25.1,83],[23.5,167],[21.8,250],[19.3,334],[9.5,417],[5.7,500],[3.4,584],[0.3,658],[0.3,749],[0.3,826],[0.3,908],[0.3,999],[0.3,1083],[0.3,1166],[0.3,1250],[0.3,1329],[0.3,1416],[0.3,1500],[0.3,1583],[0.3,1665],[0.3,1741],[0.3,1831],[0.3,1916],[0.3,1991],[0.3,2082],[0.3,2159],[0.3,2249],[0.3,2332],[0.3,2413],[0.3,2491],[0.3,2576],[0.3,2659],[0.3,2742],[0.3,2832],[0.3,2915],[0.3,2999],[0.3,3083],[0.3,3162],[0.3,3242],[0.3,3325],[0.3,3409],[0.3,3499],[0.3,3575],[0.3,3659],[0.3,3750],[0.3,3825],[0.3,3916],[0.3,4000],[0.3,4075],[0.3,4159],[0.3,4250],[0.3,4333],[0.3,4408],[0.3,4500],[0.3,4575],[0.3,4666],[0.3,4750],[0.3,4833],[0.3,4916],[0.3,5000],[0.3,5083],[0.3,5159],[0.3,5249],[0.3,5325],[0.3,5416],[0.3,5499],[0.3,5575],[0.3,5666],[0.3,5750],[0.3,5826],[0.3,5916],[0.3,5999],[0.3,6083],[0.3,6166],[0.3,6249],[0.3,6326],[0.3,6416],[0.3,6500],[0.3,6583],[0.3,6666],[0.3,6750],[0.3,6833],[0.3,6917],[0.3,7000],[0.3,7083],[0.3,7166],[0.3,7241],[0.3,7333],[0.3,7416],[0.3,7499],[0.3,7575],[0.3,7658],[0.3,7741],[0.3,7829],[0.3,7908],[0.3,7991],[0.3,8080],[0.3,8166],[0.3,8241],[0.3,8325],[0.3,8416],[0.3,8500],[0.3,8583],[0.3,8666],[3.3,8772],[8.3,8850],[10.9,8933],[13.1,9016],[16.3,9100],[18.9,9184],[21.9,9266],[25,9350],[28.1,9433],[29.9,9516],[32.2,9600],[32.9,9683],[33.5,9766],[34.5,9850],[34.5,9925],[34.5,10016],[34.5,10092],[34.5,10183],[34.5,10266],[34.5,10342],[34.5,10429],[34.5,10516],[34.5,10600],[34.5,10675],[34.5,10765],[34.5,10846],[34.5,10926],[34.5,11016],[34.5,11099],[34.5,11183],[34.5,11259],[34.5,11349],[34.5,11426],[34.5,11516],[34.5,11599],[34.5,11676],[34.5,11766],[34.5,11850],[34.5,11933],[34.5,12016],[34.5,12092],[34.5,12183],[34.5,12258],[34.5,12341],[34.5,12426],[34.5,12516],[34.5,12591],[34.5,12683],[34.5,12766],[34.5,12850]]",1,0,625.9695,633.3946,35.83333205,6.8378,"[{""rating"":38.22916535194965,""responseTime"":5.652200000047628},{""rating"":35.83333205431701,""responseTime"":6.837799999952267}]",space,6.8873,,633.3947,All the time,100,633.3983,,,[],,0,17,17,17,1,audio/Narrative8Situation8.wav,audio/Narrative7Situation8.wav,audio/Narrative6Situation8.wav,audio/Narrative5Situation8.wav,3,2,5,3,,,,,,,,,,,,,,,,,,,,,,,,,,,,,,,,,,,,,,,
,,,,,,5a9262251eda410001360b2c,2024-02-08_16h03.06.251,group3.1-3.2-social-tom,2023.2.2,Win32,59.52380952,65c5074098b851296ff0b7ed,65c5415e025bb618405c3017,,,,,,,,,,,,,,,,,,,,,,,,,,,,,633.3985,1,audio/Narrative8Situation9.wav,636.4111,,636.4111,647.7283,"[[29.2,685],[1.6,767],[0.2,6268],[2.2,6350],[3.1,6433],[3.2,6517],[3.2,6600],[3.2,6683],[3.2,6767],[3.2,6850],[5,6934],[8.6,7017],[10.9,7101],[12.1,7184],[14.1,7268],[17.1,7350],[20,7433],[20.3,7516],[20.3,7600],[20.3,7683],[20.3,7766],[20.3,7850],[20.3,7933],[20.3,8016],[20.3,8099],[20.3,8183],[20.3,8266],[20.3,8350],[20.3,8433],[20.3,8517],[20.3,8600],[20.3,8683],[20.3,8766],[20.3,8850],[20.3,8933],[20.3,9018],[20.3,9099],[20.3,9183],[20.3,9266],[20.3,9349],[20.3,9434],[20.3,9518],[20.3,9600],[20.3,9683],[20.3,9766],[20.3,9850],[20.3,9933],[20.3,10016],[20.3,10100],[20.3,10183],[20.6,10267],[24.8,10350],[27.8,10434],[30.3,10517],[32.5,10600],[34.5,10684],[36.7,10766],[41.3,10850],[44.6,10933],[46.3,11016],[49,11100],[53.6,11184],[55.8,11267]]",1,0,647.7284,650.4947,35.52083206,2.1989,"[{""rating"":37.812498691491804,""responseTime"":1.6069000000953793},{""rating"":35.520832058973625,""responseTime"":2.198900000095364}]",space,2.2306,,650.4948,Not at all,0,692.3944,0,39.8318,"[{""rating"":0,""responseTime"":15.048099999904593},{""rating"":0,""responseTime"":16.02339999985702},{""rating"":0,""responseTime"":21.71309999990467},{""rating"":0,""responseTime"":39.831799999952295}]",space,0,18,18,18,1,audio/Narrative8Situation9.wav,audio/Narrative7Situation9.wav,audio/Narrative6Situation9.wav,audio/Narrative5Situation9.wav,3,2,4,3,,,41.3735,,,,,,,,,,,,,,,,,,,,,,,,,,,,,,,,,,,,
,,,,,,5a9262251eda410001360b2c,2024-02-08_16h03.06.251,group3.1-3.2-social-tom,2023.2.2,Win32,59.52380952,65c5074098b851296ff0b7ed,65c5415e025bb618405c3017,,,,,,,,,,,,,,,,,,,,,,,,,,,714.8683,717.4292,717.4551,2,audio/Narrative13Situation2.wav,717.4552,,717.4552,747.1955,"[[1,2157],[0.4,2239],[0.4,2323],[0.2,2407],[0.2,2489],[0.2,2574],[0.2,2656],[0.2,2739],[0.2,2824],[0.2,2907],[0.2,2989],[0.2,3074],[0.2,3156],[0.2,3239],[0.2,3323],[0.2,3406],[0.2,3489],[0.2,3573],[0.2,3656],[0.2,3739],[0.2,3824],[0.2,3906],[0.2,3989],[0.2,4073],[0.2,4156],[0.2,4239],[10,4324],[14.3,4407],[19.7,4489],[25.6,4573],[28.6,4656],[32,4739],[33.8,4823],[37,4906],[42.3,4990],[45.6,5073],[46.5,5156],[46.9,5240],[47.4,5323],[47.4,5406],[47.4,5489],[47.4,5574],[47.4,5656],[47.4,5739],[47.4,5823],[47.4,5906],[47.4,5989],[47.4,6073],[47.4,6156],[47.4,6239],[47.4,6323],[47.4,6406],[47.4,6490],[47.4,6573],[47.4,6657],[47.4,6740],[47.4,6823],[47.4,6905],[47.3,6989],[46.8,7073],[45.7,7156],[45.2,7240],[44.1,7323],[43.5,7406],[43.3,7490],[43.3,7573],[43.3,7656],[42.1,7739],[38.4,7823],[34.6,7906],[31.4,7989],[31,8073],[31,8156],[31,8239],[31,8323],[31,8406],[31,8489],[31,8572],[31,8656],[31,8739],[31,8824],[31,8905],[31,8989],[31,9073],[27.9,9156],[25.7,9239],[25.6,9323],[25.6,9406],[25.6,9490],[25.6,9573],[25.6,9656],[25.6,9739],[25.6,9823],[25.6,9906],[25.6,9989],[25.6,10072],[25.6,10156],[25.6,10240],[25.6,10323],[25.6,10406],[25.6,10489],[25.6,10573],[25.6,10656],[25.6,10739],[25.6,10824],[25.6,10906],[25.6,10990],[25.6,11073],[25.6,11156],[25.6,11239],[25.6,11323],[25.6,11406],[25.6,11489],[25.6,11574],[25.6,11656],[25.6,11739],[25.6,11823],[25.6,11906],[25.6,11989],[25.6,12073],[25.6,12156],[25.6,12239],[25.6,12323],[25.6,12407],[25.6,12489],[25.6,12574],[25.6,12656],[25.6,12740],[25.6,12823],[32.3,12906],[36.6,12990],[39.1,13073],[42.8,13156],[48.4,13239],[50.8,13323],[53,13406],[55.4,13490],[58.1,13573],[59.1,13656],[60.1,13740],[60.6,13823],[63.2,13906],[66.4,13990],[67.3,14073],[68,14156],[69.3,14239],[69.9,14323],[69.9,14406],[69.9,14489],[69.9,14573],[69.9,14656],[69.9,14739],[69.9,14823],[69.9,14906],[69.9,14989],[69.9,15073],[69.9,15156],[69.9,15239],[70,15323],[69.9,15407],[69.5,15490],[66.5,15573],[59.4,15656],[50,15740],[43.5,15824],[38.8,15906],[37,15989],[33.1,16073],[31.4,16156],[31.3,16239],[30.1,16323],[29.4,16407],[29.3,16489],[29.3,16573],[29.3,16656],[29.3,16739],[29.3,16823],[29.3,16906],[29.3,16989],[29.3,17073],[29.3,17155],[29.3,17239],[29.9,17323],[34.1,17407],[38.5,17490],[40.8,17573],[41.8,17656],[43.8,17740],[45.7,17824],[46,17907],[46.4,17989],[46.8,18075],[48.2,18156],[48.5,18239],[48.5,18324],[48.5,18406],[48.5,18489],[48.5,18573],[48.5,18656],[48.5,18740],[48.5,18823],[48.5,18907],[48.5,18989],[48.5,19073],[48.5,19157],[48.5,19239],[48.5,19323],[48.5,19406],[48.5,19489],[48.5,19573],[48.5,19656],[48.5,19740],[48.5,19823],[48.5,19906],[48.5,19989],[48.5,20073],[48.5,20156],[48.5,20239],[48.5,20324],[48.5,20407],[48.5,20490],[48.5,20573],[48.5,20656],[48.5,20739],[48.5,20824],[48.5,20906],[48.5,20989],[48.5,21072],[48.5,21157],[48.5,21240],[48.5,21323],[48.5,21407],[48.5,21489],[48.5,21574],[48.5,21656],[48.5,21740],[48.5,21823],[48.5,21906],[48.5,21989],[48.5,22073],[48.5,22156],[48.5,22239],[48.5,22323],[48.5,22407],[48.5,22490],[48.5,22572],[48.5,22656],[48.5,22739],[48.5,22824],[48.5,22907],[48.5,22989],[48.5,23074],[48.5,23157],[48.5,23239],[48.5,23323],[48.5,23406],[48.5,23489],[48.5,23573],[48.5,23656],[47.9,23740],[47.6,23823],[47.3,23906],[47.3,23989],[47.3,24072],[47.3,24156],[47.3,24239],[47.3,24323],[47.3,24406],[47.3,24489],[47.3,24572],[47.3,24656],[47.3,24740],[47.3,24822],[47.3,24905],[47.3,24989],[47.6,25073],[48.1,25157],[48.9,25240],[49.7,25322],[50.3,25406],[51.5,25490],[52.2,25573],[53.2,25656],[55.2,25739],[58.9,25823],[61.5,25906],[62.5,25990],[64.1,26073],[68,26156],[71.9,26240],[73.2,26323],[74.8,26406],[75.5,26490],[75.6,26573],[75.7,26656],[75.9,26739],[75.9,26823],[75.9,26906],[75.9,26989],[75.9,27073],[75.9,27156],[75.9,27239],[75.9,27323],[75.9,27406],[75.9,27490],[75.9,27573],[75.9,27656],[75.9,27740],[75.9,27823],[75.9,27906],[75.9,27990],[75.9,28073],[75.9,28156],[75.9,28239],[75.9,28323],[75.9,28406],[75.9,28490],[75.9,28573],[75.9,28656],[75.9,28739],[75.9,28823],[75.9,28906],[75.9,28989],[75.9,29072],[75.9,29156],[75.9,29239],[75.9,29323],[75.9,29406],[75.9,29489],[75.9,29573],[75.9,29656],[75.9,29740]]",1,0,747.1959,747.2179,,,[],,,,747.218,All the time,100,747.2202,,,[],,0,0,0,0,1,audio/Narrative13Situation2.wav,audio/Narrative13Situation2.wav,audio/Narrative13Situation2.wav,audio/Narrative13Situation2.wav,2,2,2,2,,,,,692.3954,714.8474,space,21.9219,,,,,,,,,,,,,,,,,,,,,,,,,,,,,,,
,,,,,,5a9262251eda410001360b2c,2024-02-08_16h03.06.251,group3.1-3.2-social-tom,2023.2.2,Win32,59.52380952,65c5074098b851296ff0b7ed,65c5415e025bb618405c3017,,,,,,,,,,,,,,,,,,,,,,,,,,,,,747.2205,2,audio/Narrative5Situation1.wav,752.23,,752.23,765.5287,"[[999,11],[999,81],[999,165],[999,248],[999,332],[999,414],[999,499],[999,582],[999,664],[999,748],[999,832],[999,915],[999,998],[999,1081],[999,1164],[999,1249],[999,1331],[999,1414],[999,1498],[999,1581],[999,1665],[2.1,1748],[1.6,7176],[6.5,7255],[11.7,7339],[14.6,7422],[20.6,7506],[29.9,7589],[35.4,7672],[37.7,7756],[40.5,7839],[43.5,7923],[46.6,8006],[49.7,8089],[51.7,8173],[51.9,8248],[51.9,8339],[51.9,8422],[51.9,8498],[53.2,8589],[56.4,8672],[57.9,8755],[59.5,8839],[60.8,8923],[61,9005],[61.5,9089],[62.5,9173],[64.9,9256],[65.8,9340],[69.6,9422],[70.8,9506],[71,9581],[71,9666],[71,9749],[71.1,9839],[71.1,9923],[71.1,10006],[71.1,10089],[71.1,10173],[71.1,10248],[71.1,10331],[71.1,10415],[71.1,10498],[71.1,10589],[71.1,10673],[71.1,10756],[71.1,10840],[71.1,10915],[71.1,11005],[71.1,11089],[71.1,11172],[71.1,11248],[71,11340],[70.3,11422],[67.9,11506],[64.7,11589],[44.7,12173],[40.7,12256],[38.8,12340],[38.4,12422],[38,12506],[37.2,12590],[36.3,12672],[36.3,12748],[36.3,12840],[36.3,12923],[36.3,12999],[36.3,13089],[36.3,13172],[36.3,13248]]",1,0,765.529,768.3364,43.02083195,1.9745,"[{""rating"":43.02083194721492,""responseTime"":1.9744999999999209}]",space,2.2673,,768.3365,Half the time,50,768.3402,,,[],,0,1,1,1,1,audio/Narrative7Situation1.wav,audio/Narrative8Situation1.wav,audio/Narrative5Situation1.wav,audio/Narrative6Situation1.wav,2,5,5,2,,,,,,,,,,,,,,,,,,,,,,,,,,,,,,,,,,,,,,,
,,,,,,5a9262251eda410001360b2c,2024-02-08_16h03.06.251,group3.1-3.2-social-tom,2023.2.2,Win32,59.52380952,65c5074098b851296ff0b7ed,65c5415e025bb618405c3017,,,,,,,,,,,,,,,,,,,,,,,,,,,,,768.3406,2,audio/Narrative5Situation2.wav,771.3458,,771.346,800.8196,"[[28.6,89],[27.3,173],[27.1,249],[26.4,341],[18.4,424],[9.5,507],[7.8,590],[6.6,673],[4.9,758],[1.7,840],[0.6,923],[0.6,999],[0.6,1090],[0.6,1173],[0.6,1256],[0.6,1333],[0.6,1423],[0.6,1506],[0.6,1590],[0.6,1673],[0.6,1756],[0.6,1832],[0.6,1916],[0.5,2006],[0.5,2082],[0.5,2165],[0.5,2256],[0.5,2339],[0.5,2423],[0.5,2506],[0.5,2582],[0.5,2665],[0.5,2756],[0.5,2840],[0.5,2923],[0.5,3007],[0.5,3083],[0.5,3173],[0.5,3257],[0.5,3333],[0.5,3423],[0.5,3507],[0.5,3582],[0.5,3673],[0.5,3757],[0.5,3840],[0.5,3923],[0.5,4007],[0.5,4083],[0.5,4173],[0.5,4256],[0.5,4339],[0.9,4415],[0.9,4499],[0.9,4583],[0.9,4674],[0.9,4757],[0.9,4840],[0.9,4916],[0.9,5006],[0.9,5090],[0.9,5166],[0.9,5248],[0.9,5332],[0.9,5415],[0.9,5506],[0.9,5587],[0.9,5673],[0.9,5757],[0.9,5838],[1.1,5923],[1.3,6007],[1.3,6088],[1.3,6173],[1.5,6256],[3.5,6340],[4.8,6423],[4.8,6506],[4.8,6589],[4.8,6666],[4.8,6752],[4.8,6832],[4.8,6915],[4.8,7003],[4.8,7090],[4.8,7166],[4.8,7256],[4.8,7342],[4.8,7416],[4.8,7506],[5.3,7590],[9.8,7674],[15.3,7758],[19.1,7841],[20.1,7924],[21.3,8007],[22,8089],[23.5,8173],[24.3,8257],[24.6,8332],[24.6,8415],[24.6,8499],[24.6,8589],[24.6,8665],[24.6,8748],[24.6,8839],[24.6,8922],[24.6,9006],[24.6,9083],[24.6,9166],[24.6,9255],[24.6,9333],[24.6,9415],[24.6,9498],[24.6,9583],[24.6,9665],[24.6,9757],[24.6,9840],[24.6,9916],[24.6,10006],[24.6,10082],[24.6,10170],[24.6,10249],[24.6,10339],[24.6,10415],[24.6,10507],[23.8,10591],[22.5,10674],[21,10758],[20,10841],[19.7,10923],[19.5,10998],[19,11082],[18.9,11165],[18.9,11256],[18.9,11332],[18.9,11423],[18.9,11506],[18.9,11590],[18.9,11673],[18.9,11757],[18.9,11832],[18.9,11923],[16.4,12000],[15.8,12089],[15.8,12165],[15.8,12255],[15.8,12340],[15.8,12424],[15.8,12499],[15.8,12590],[15.8,12666],[15.8,12749],[15.8,12832],[15.8,12916],[15.8,13007],[15.8,13090],[15.8,13166],[15.8,13250],[15.8,13340],[15.8,13424],[15.8,13507],[15.8,13590],[15.8,13670],[15.8,13748],[15.8,13833],[15.8,13916],[15.8,14006],[15.8,14082],[15.8,14172],[15.8,14257],[15.8,14340],[15.8,14423],[15.8,14506],[15.8,14582],[15.8,14673],[15.8,14749],[15.8,14832],[15.8,14916],[15.8,14999],[15.8,15082],[15.8,15166],[15.8,15249],[15.8,15332],[15.8,15415],[15.8,15499],[15.8,15582],[15.8,15673],[15.8,15749],[15.8,15839],[15.8,15920],[15.8,16006],[15.8,16082],[15.8,16166],[15.8,16248],[15.8,16340],[15.8,16415],[15.8,16506],[15.8,16589],[15.8,16665],[15.8,16756],[15.8,16840],[15.8,16916],[15.8,17006],[15.8,17082],[15.8,17173],[15.8,17256],[15.8,17332],[15.8,17423],[15.8,17506],[15.8,17582],[15.8,17673],[15.8,17757],[15.8,17836],[15.8,17915],[15.8,18000],[15.8,18090],[15.8,18169],[15.8,18249],[15.8,18332],[15.8,18423],[15.8,18506],[15.8,18581],[15.8,18674],[15.8,18757],[15.8,18833],[15.8,18923],[15.8,19006],[15.8,19089],[15.8,19166],[15.8,19256],[15.8,19340],[15.8,19415],[15.8,19507],[15.8,19590],[15.8,19673],[15.8,19757],[15.8,19840],[15.8,19915],[15.8,20006],[15.8,20086],[15.8,20173],[15.8,20249],[15.8,20340],[15.8,20423],[15.8,20499],[15.8,20590],[15.8,20674],[15.8,20749],[15.8,20840],[15.8,20916],[15.8,20999],[15.8,21090],[15.8,21165],[15.8,21249],[15.8,21340],[15.8,21415],[15.8,21499],[15.8,21582],[15.8,21674],[15.8,21749],[15.8,21840],[15.8,21915],[15.8,22006],[15.8,22082],[15.4,22185],[15.4,22265],[15.4,22349],[15.4,22432],[15.4,22515],[15.4,22598],[15.4,22683],[15.4,22765],[15.4,22848],[15.4,22932],[15.4,23015],[15.4,23099],[15.4,23183],[15.4,23266],[15.4,23349],[15.4,23432],[15.4,23516],[15.4,23598],[15.4,23682],[15.4,23766],[15.4,23850],[15.4,23932],[15.4,24016],[15.4,24099],[15.4,24183],[15.4,24266],[15.4,24348],[15.4,24432],[15.4,24516],[15.4,24598],[15.4,24683],[15.4,24765],[15.4,24849],[15.4,24931],[15.4,25015],[15.4,25098],[15.4,25182],[15.4,25266],[15.4,25349],[15.4,25433],[15.4,25515],[15.4,25599],[15.4,25683],[15.4,25766],[15.4,25848],[15.4,25932],[15.4,26015],[15.4,26098],[15.4,26182],[15.4,26266],[15.4,26348],[15.4,26432],[15.4,26515],[15.4,26598],[15.4,26683],[15.4,26766],[15.4,26848],[15.4,26932],[15.4,27015],[15.5,27098],[16.4,27189],[17.1,27273],[18.5,27357],[18.6,27439],[19.1,27523],[19.4,27599],[19.5,27689],[19.8,27773],[19.9,27856],[19.9,27940],[19.9,28016],[19.9,28098],[19.9,28190],[19.9,28265],[20,28357],[20,28440],[20,28515],[20,28606],[20,28690],[20,28773],[20,28856],[20,28933],[20,29023],[20,29099],[20,29182],[20.5,29274],[20.5,29356]]",1,0,800.82,804.6205,10.93749909,2.6288,"[{""rating"":10.9374990919605,""responseTime"":2.628800000190722}]",space,3.2511,,804.6206,Half the time,50,804.623,,,[],,0,2,2,2,1,audio/Narrative7Situation2.wav,audio/Narrative8Situation2.wav,audio/Narrative5Situation2.wav,audio/Narrative6Situation2.wav,3,3,3,3,,,,,,,,,,,,,,,,,,,,,,,,,,,,,,,,,,,,,,,
,,,,,,5a9262251eda410001360b2c,2024-02-08_16h03.06.251,group3.1-3.2-social-tom,2023.2.2,Win32,59.52380952,65c5074098b851296ff0b7ed,65c5415e025bb618405c3017,,,,,,,,,,,,,,,,,,,,,,,,,,,,,804.6235,2,audio/Narrative5Situation3.wav,807.6369,,807.6369,821.545,"[[999,20],[999,91],[14.4,174],[14.3,258],[13.8,342],[6.8,424],[3.5,508],[1.5,591],[1.4,674],[1.4,757],[1.4,841],[1.4,925],[1.4,1007],[1.4,1092],[1.4,1175],[1.4,1258],[1.4,1341],[1.4,1424],[1.4,1507],[1.4,1592],[1.4,1674],[1.4,1757],[1.4,1841],[1.4,1924],[1.5,2007],[1.5,2091],[1.5,2174],[1.5,2258],[1.5,2341],[1.5,2424],[1.6,2507],[1.7,2592],[1.7,2675],[1.7,2757],[1.7,2841],[1.7,2925],[1.7,3007],[1.7,3092],[1.7,3174],[1.7,3258],[1.7,3341],[1.7,3424],[1.7,3507],[1.7,3591],[1.7,3675],[1.7,3757],[1.7,3841],[1.7,3924],[1.7,4007],[1.7,4091],[1.9,4175],[1.9,4257],[1.9,4341],[1.9,4424],[1.9,4507],[1.9,4592],[1.9,4674],[1.9,4758],[1.9,4842],[1.9,4924],[4.3,5007],[6.3,5091],[7.4,5175],[9.1,5258],[12.2,5341],[15.3,5425],[17.2,5508],[19.2,5592],[21.8,5675],[23.8,5758],[24.3,5841],[24.3,5924],[24.3,6007],[24.3,6091],[24.3,6175],[24.3,6258],[24.3,6341],[24.3,6424],[24.3,6508],[24.3,6591],[24.3,6675],[24.3,6759],[24.3,6841],[24.3,6924],[24.3,7007],[24.3,7091],[24.3,7174],[24.3,7258],[24.3,7341],[24.3,7424],[24.3,7507],[24.3,7591],[24.3,7675],[24.3,7757],[24.3,7841],[24.3,7925],[24.3,8007],[24.3,8091],[24.3,8175],[24.3,8257],[24.3,8341],[24.3,8424],[24.3,8508],[24.3,8591],[24.3,8674],[24.3,8757],[24.3,8842],[24.3,8925],[24.3,9008],[24.3,9092],[24.3,9174],[24.3,9258],[24.3,9341],[24.3,9424],[24.3,9508],[24.3,9591],[24.3,9674],[24.3,9757],[24.3,9841],[24.3,9925],[24.3,10007],[24.3,10091],[24.3,10174],[24.3,10257],[24.3,10342],[24.3,10424],[24.3,10508],[24.3,10591],[24.3,10675],[24.3,10757],[24.3,10841],[24.3,10925],[24.3,11007],[24.3,11092],[24.3,11174],[24.3,11257],[24.3,11342],[24.3,11424],[24.3,11508],[24.3,11591],[24.3,11675],[24.3,11758],[24.3,11841],[24.3,11925],[24.3,12007],[24.3,12091],[24.3,12175],[24.3,12258],[24.3,12341],[24.3,12425],[24.3,12507],[24.3,12591],[24.3,12675],[24.3,12758],[24.3,12842],[24.3,12925],[24.3,13008],[24.3,13091],[24.3,13174],[24.3,13257],[24.3,13342],[22.8,13424],[20.5,13508],[20.5,13592],[20.5,13675],[20.5,13758],[20.5,13842]]",1,0,821.5454,825.2455,17.39583233,2.814,"[{""rating"":17.395832329057164,""responseTime"":2.8139999999999645}]",space,3.1531,,825.2457,Half the time,50,825.2474,,,[],,0,3,3,3,1,audio/Narrative7Situation3.wav,audio/Narrative8Situation3.wav,audio/Narrative5Situation3.wav,audio/Narrative6Situation3.wav,8,4,3,5,,,,,,,,,,,,,,,,,,,,,,,,,,,,,,,,,,,,,,,
,,,,,,5a9262251eda410001360b2c,2024-02-08_16h03.06.251,group3.1-3.2-social-tom,2023.2.2,Win32,59.52380952,65c5074098b851296ff0b7ed,65c5415e025bb618405c3017,,,,,,,,,,,,,,,,,,,,,,,,,,,,,825.2478,2,audio/Narrative5Situation4.wav,826.2622,,826.2622,846.6296,"[[17.5,167],[17.1,250],[16.1,332],[15.6,415],[15.2,500],[14.6,583],[11.5,666],[6.5,749],[2.7,834],[1.1,917],[1.1,999],[1.1,1082],[1.1,1166],[1.1,1249],[1.1,1332],[1.1,1417],[1.1,1500],[1.1,1583],[1.1,1667],[1.1,1750],[1.1,1832],[1.1,1916],[1.1,1999],[1.1,2082],[1.1,2167],[1.1,2249],[1.1,2332],[1.1,2416],[1.1,2499],[1.1,2582],[1.1,2665],[1.1,2749],[1.1,2833],[1.1,2916],[1.1,2999],[1.1,3082],[1.1,3166],[1.1,3249],[1.1,3332],[1.1,3415],[1.1,3499],[1.1,3582],[1.1,3666],[1.1,3750],[1.1,3832],[1.1,3916],[1.1,3999],[1.1,4082],[1.1,4166],[1.1,4249],[1.1,4332],[1.1,4416],[1.1,4499],[1.1,4582],[1.1,4666],[1.1,4749],[1.1,4832],[1.1,4916],[1.1,5000],[1.1,5082],[1.1,5166],[1.1,5249],[1.1,5332],[1.1,5416],[1.1,5499],[1.1,5582],[1.1,5666],[1.1,5749],[1.1,5832],[1.1,5916],[1.1,5999],[1.1,6082],[1.1,6166],[1.1,6249],[1.1,6332],[1.1,6417],[1.1,6499],[1.1,6583],[1.1,6666],[1.1,6750],[1.1,6832],[1.1,6916],[1.1,6999],[1.1,7082],[1.1,7166],[1.1,7249],[1.1,7332],[1.1,7416],[1.1,7500],[1.1,7582],[1.1,7666],[1.1,7749],[1.1,7832],[1.1,7916],[1.1,7999],[1.1,8082],[1.1,8166],[1.1,8249],[1.1,8332],[1.1,8416],[1.1,8499],[1.1,8582],[1.1,8666],[0.2,8757],[2.2,9590],[9.8,9673],[20.6,9757],[24.4,9841],[24.9,9923],[25.2,10007],[25.2,10090],[25.2,10166],[25.2,10249],[25.2,10340],[25.2,10417],[25.2,10499],[25.2,10590],[25.2,10666],[25.2,10749],[25.2,10833],[25.2,10924],[25.2,10999],[25.2,11091],[25.2,11166],[25.4,11258],[25.4,11332],[25.4,11424],[25.5,11506],[25.6,11584],[25.6,11666],[26,11757],[28.6,11841],[28.9,11917],[28.9,12000],[28.9,12083],[28.9,12173],[28.9,12249],[29.7,12342],[30,12417],[30.1,12507],[30.1,12591],[30.1,12674],[30.1,12757],[30.1,12841],[31.5,12925],[31.9,13009],[32.7,13090],[32.7,13173],[32.7,13249],[32.7,13332],[33.2,13423],[35.5,13508],[37.5,13591],[40.7,13674],[43,13758],[44,13841],[44.9,13924],[45.5,14008],[45.8,14082],[45.9,14166],[45.9,14257],[45.9,14340],[45.9,14416],[45.9,14499],[45.9,14590],[45.9,14666],[45.9,14749],[45.9,14833],[45.9,14917],[45.9,15007],[45.9,15091],[45.9,15167],[45.9,15258],[45.9,15340],[45.9,15423],[45.9,15507],[45.9,15582],[45.9,15674],[45.9,15749],[45.9,15836],[45.9,15916],[45.9,16000],[45.9,16090],[45.9,16166],[45.9,16257],[45.9,16340],[45.9,16423],[45.9,16506],[45.9,16590],[45.9,16666],[45.9,16749],[45.9,16832],[45.9,16916],[45.9,16999],[45.9,17083],[45.9,17167],[45.9,17257],[45.9,17332],[45.9,17417],[45.9,17505],[45.9,17590],[45.9,17666],[45.9,17753],[45.9,17841],[45.9,17924],[45.9,18007],[45.9,18091],[45.9,18166],[45.9,18257],[45.9,18340],[45.9,18417],[45.9,18507],[45.9,18589],[45.9,18674],[45.9,18749],[45.9,18840],[45.9,18920],[45.9,19007],[45.9,19083],[45.9,19170],[43.8,19273],[42,19358],[41.8,19433],[41.8,19523],[41.8,19599],[43.1,19691],[44.4,19774],[44.6,19849],[45.4,19941],[45.4,20016],[45.4,20099],[45.4,20190],[45.4,20267],[45.5,20353]]",1,0,846.6299,854.4958,31.56249878,7.856,"[{""rating"":31.56249878462406,""responseTime"":7.856000000000108}]",space,0.9184,,854.4958,Not at all,0,854.4982,,,[],,0,4,4,4,1,audio/Narrative7Situation4.wav,audio/Narrative8Situation4.wav,audio/Narrative5Situation4.wav,audio/Narrative6Situation4.wav,3,3,1,2,,,,,,,,,,,,,,,,,,,,,,,,,,,,,,,,,,,,,,,
,,,,,,5a9262251eda410001360b2c,2024-02-08_16h03.06.251,group3.1-3.2-social-tom,2023.2.2,Win32,59.52380952,65c5074098b851296ff0b7ed,65c5415e025bb618405c3017,,,,,,,,,,,,,,,,,,,,,,,,,,,,,854.4985,2,audio/Narrative5Situation5.wav,859.503,,859.5032,874.9208,"[[30.8,426],[24.5,509],[1.6,1091],[1.8,1175],[1.8,1258],[1.8,1341],[1.8,1425],[1.7,1509],[1.7,1591],[1.7,1675],[1.7,1758],[1.7,1841],[1.7,1926],[1.7,2008],[1.7,2092],[1.7,2175],[1.7,2258],[1.7,2342],[1.7,2425],[1.7,2508],[1.7,2591],[1.7,2675],[1.7,2759],[1.7,2841],[1.7,2925],[1.7,3008],[1.7,3092],[1.7,3176],[1.7,3258],[1.7,3341],[1.7,3426],[1.7,3508],[1.7,3591],[1.7,3675],[1.7,3758],[5.7,3841],[13.9,3926],[21.7,4009],[27.4,4091],[30.8,4176],[32.1,4259],[59.2,9676],[61.7,9766],[63.2,9850],[63.4,9932],[63.4,10016],[63.4,10100],[63.4,10176],[63.5,10266],[63.5,10350],[63.5,10425],[63.5,10516],[63.5,10592],[63.5,10682],[63.5,10758],[63.5,10842],[63.5,10933],[63.5,11017],[63.5,11099],[63.5,11182],[63.5,11266],[63.5,11350],[63.5,11425],[63.5,11517],[63.5,11599],[63.5,11682],[63.5,11758],[63.5,11843],[63.5,11933],[63.5,12017],[63.5,12100],[63.5,12185],[63.5,12266],[63.5,12349],[63.5,12425],[63.5,12509],[63.5,12600],[63.5,12676],[63.5,12766],[63.5,12842],[63.5,12925],[63.5,13016],[63.5,13100],[63.5,13183],[63.5,13266],[63.5,13343],[63.5,13433],[63.5,13516],[63.5,13593],[63.5,13683],[63.5,13758],[63.5,13850],[63.5,13933],[63.5,14017],[63.5,14100],[63.5,14183],[63.5,14267],[63.5,14350],[63.5,14432],[63.5,14516],[63.5,14599],[63.5,14682],[63.5,14762],[63.5,14849],[63.5,14925],[63.5,15008],[63.5,15100],[63.5,15183],[63.5,15266],[63.5,15350]]",1,0,874.921,878.7035,37.08333204,3.2074,"[{""rating"":43.854165268130615,""responseTime"":2.37470000004771},{""rating"":37.08333203569056,""responseTime"":3.20740000009539}]",space,3.2409,,878.7036,Half the time,50,878.707,,,[],,0,5,5,5,1,audio/Narrative7Situation5.wav,audio/Narrative8Situation5.wav,audio/Narrative5Situation5.wav,audio/Narrative6Situation5.wav,5,2,5,2,,,,,,,,,,,,,,,,,,,,,,,,,,,,,,,,,,,,,,,
,,,,,,5a9262251eda410001360b2c,2024-02-08_16h03.06.251,group3.1-3.2-social-tom,2023.2.2,Win32,59.52380952,65c5074098b851296ff0b7ed,65c5415e025bb618405c3017,,,,,,,,,,,,,,,,,,,,,,,,,,,,,878.7075,2,audio/Narrative5Situation6.wav,881.7202,,881.7204,887.4032,"[[31.5,81],[31.5,159],[31.5,249],[31.5,325],[31.5,409],[31.5,499],[31.5,575],[31.5,659],[31.5,749],[31.5,833],[31.5,908],[31.5,999],[31.5,1082],[31.5,1158],[31.5,1249],[31.5,1325],[31.5,1415],[31.5,1499],[31.5,1582],[31.5,1658],[31.5,1741],[31.5,1832],[31,1913],[25,2000],[15.2,2083],[12,2168],[6.6,2250],[4.2,2326],[4.1,2408],[3,2499],[1.8,2582],[1.5,2658],[1.1,2749],[1.1,2832],[1,2908],[1,2999],[1,3082],[1,3158],[1,3241],[1,3328],[1,3415],[1,3499],[1,3575],[1,3657],[1,3749],[1,3825],[1,3908],[1,3991],[1,4082],[1,4158],[1,4241],[1,4332],[1,4408],[1,4491],[1,4584],[1,4659],[1,4749],[1,4825],[1,4915],[1,4990],[1,5075],[1,5158],[1,5249],[26.5,5332]]",1,0,887.4032,890.5203,24.58333222,1.8829,"[{""rating"":24.58333222195507,""responseTime"":1.8829000000954466}]",space,2.5765,,890.5204,Half the time,50,890.5227,,,[],,0,6,6,6,1,audio/Narrative7Situation6.wav,audio/Narrative8Situation6.wav,audio/Narrative5Situation6.wav,audio/Narrative6Situation6.wav,3,2,3,2,,,,,,,,,,,,,,,,,,,,,,,,,,,,,,,,,,,,,,,
,,,,,,5a9262251eda410001360b2c,2024-02-08_16h03.06.251,group3.1-3.2-social-tom,2023.2.2,Win32,59.52380952,65c5074098b851296ff0b7ed,65c5415e025bb618405c3017,,,,,,,,,,,,,,,,,,,,,,,,,,,,,890.5233,2,audio/Narrative5Situation7.wav,894.5361,,894.5362,915.586,"[[5.4,1093],[2.8,1177],[1.7,1258],[1.5,1341],[1.5,1425],[1.5,1509],[1.5,1592],[1.5,1675],[1.5,1758],[1.4,1842],[1.4,1926],[1.4,2009],[1.4,2093],[1.4,2176],[1.4,2259],[1.4,2342],[1.4,2426],[1.4,2509],[1.4,2592],[1.4,2675],[1.4,2759],[1.4,2842],[1.4,2925],[1.4,3008],[1.4,3092],[1.4,3175],[1.4,3258],[1.4,3343],[1.4,3426],[1.4,3509],[1.4,3593],[1.4,3675],[1.4,3759],[6.1,3842],[16.7,3925],[33,4009],[46.9,4092],[52.4,4176],[54.8,4259],[64.4,5009],[61.6,5092],[57.5,5176],[57.2,5259],[57.2,5342],[60.4,5426],[64.2,5509],[67.1,5592],[69.3,5675],[69.6,5759],[69.6,5842],[69.6,5925],[69.6,6010],[69.6,6091],[69.6,6176],[69.6,6258],[69.6,6342],[69.6,6425],[69.6,6508],[69.6,6592],[69.6,6675],[69.6,6760],[69.6,6842],[69.6,6925],[69.6,7008],[70.8,7093],[73.2,7176],[75.2,7259],[75.5,7342],[75.8,7425],[75.9,7509],[75.9,7592],[75.9,7675],[75.9,7758],[75.9,7842],[75.9,7925],[75.9,8008],[75.9,8092],[75.9,8175],[75.9,8258],[75.9,8342],[75.9,8426],[75.9,8509],[75.9,8592],[75.9,8675],[75.9,8758],[75.9,8843],[75.9,8926],[75.9,9008],[75.9,9092],[75.9,9175],[75.9,9258],[75.9,9342],[75.9,9425],[75.9,9508],[75.9,9592],[75.9,9675],[75.9,9758],[75.9,9842],[75.9,9925],[75.9,10009],[75.9,10093],[75.9,10175],[75.9,10259],[75.9,10342],[75.9,10426],[75.9,10508],[75.9,10592],[75.9,10675],[75.9,10759],[75.9,10842],[75.9,10925],[75.9,11009],[75.9,11093],[75.9,11175],[75.9,11258],[75.9,11342],[75.9,11425],[75.9,11509],[75.9,11592],[75.9,11675],[75.9,11758],[75.9,11843],[75.9,11925],[75.9,12008],[75.9,12092],[75.9,12175],[75.9,12258],[75.9,12342],[75.9,12426],[75.9,12508],[75.9,12592],[75.9,12675],[75.9,12759],[75.9,12842],[75.9,12926],[75.9,13009],[75.9,13093],[75.9,13175],[75.9,13258],[75.9,13342],[75.9,13426],[75.9,13509],[75.9,13593],[75.9,13676],[75.9,13759],[75.9,13842],[75.9,13925],[75.9,14008],[75.9,14092],[75.9,14176],[75.9,14258],[75.9,14342],[75.9,14425],[75.9,14508],[75.9,14592],[75.9,14675],[75.9,14758],[75.9,14842],[75.9,14925],[75.9,15009],[75.9,15092],[75.9,15175],[75.9,15258],[75.9,15342],[75.9,15425],[75.9,15508],[75.9,15592],[75.9,15675],[75.9,15758],[75.9,15842],[74.9,15931],[74.5,16016],[74.5,16097],[74.5,16176],[74.5,16266],[74.5,16343],[74.5,16426],[74.5,16509],[74.5,16593],[74.5,16683],[74.5,16759],[74.5,16850],[74.5,16932],[74.5,17016],[74.5,17099],[74.5,17175],[74.5,17266],[74.5,17343],[74.5,17425],[74.3,17517],[72.6,17600],[71.7,17684],[71.1,17767],[70.9,17849],[70.9,17933],[70.9,18008],[70.9,18099],[70.2,18184],[69.9,18259],[69.9,18349],[69.5,18434],[68.3,18517],[66.6,18600],[63.3,18684],[62,18767],[59.1,18851],[58,18934],[55.9,19016],[53.8,19100],[51.6,19183],[50.5,19267],[49.6,19350],[48.6,19433],[48.6,19509],[48.6,19592],[48.6,19682],[48.6,19766],[48.6,19842],[48.6,19933],[48.6,20017],[48.6,20093],[48.6,20183],[48.6,20259],[48.6,20349],[48.6,20426],[48.6,20516],[48.6,20598],[48.6,20683],[48.6,20766],[48.6,20842],[48.6,20933],[48.6,21016]]",1,0,915.5862,920.7374,66.56249826,4.583,"[{""rating"":59.16666503995659,""responseTime"":1.6831000001430994},{""rating"":64.27083163056524,""responseTime"":2.683200000047691},{""rating"":64.47916496079417,""responseTime"":3.616799999952377},{""rating"":66.56249826308341,""responseTime"":4.583000000000084}]",space,4.6162,,920.7375,All the time,100,920.7416,,,[],,0,7,7,7,1,audio/Narrative7Situation7.wav,audio/Narrative8Situation7.wav,audio/Narrative5Situation7.wav,audio/Narrative6Situation7.wav,5,3,4,5,,,,,,,,,,,,,,,,,,,,,,,,,,,,,,,,,,,,,,,
,,,,,,5a9262251eda410001360b2c,2024-02-08_16h03.06.251,group3.1-3.2-social-tom,2023.2.2,Win32,59.52380952,65c5074098b851296ff0b7ed,65c5415e025bb618405c3017,,,,,,,,,,,,,,,,,,,,,,,,,,,,,920.742,2,audio/Narrative5Situation8.wav,923.7532,,923.7533,932.5799,"[[1.7,1826],[1,1908],[0.8,2076],[0.9,2158],[1,2242],[1,2325],[1,2409],[1,2492],[1.7,2576],[2.2,2658],[2.2,2741],[2.2,2825],[2.2,2908],[2.2,2992],[2.2,3075],[2.2,3158],[2.2,3242],[2.2,3326],[2.2,3408],[2.2,3491],[2.2,3575],[2.2,3658],[2.2,3741],[2.2,3825],[2.2,3908],[2.2,3992],[2.2,4075],[2.2,4158],[2.2,4242],[2.2,4325],[2.2,4409],[2.2,4492],[2.2,4575],[2.2,4659],[2.2,4742],[2.2,4825],[2.2,4908],[2.2,4992],[2.2,5075],[7.1,5159],[15.1,5242],[26,5325],[35.4,5409],[39.1,5492],[44.7,5575],[47.8,5658],[49,5742],[49.8,5825],[51,5909],[51,5992],[51,6075],[51,6158],[51,6242],[51,6325],[51,6408],[51,6491],[51,6575],[51,6658],[51,6741],[51,6826],[51,6909],[51,6992],[51,7075],[51,7158],[51,7242],[51,7326],[51,7409],[51,7492],[51,7575],[51,7659],[51,7742],[51,7825],[51,7909],[51,7992],[51,8075],[52.9,8159],[59.8,8242],[64.2,8326],[70.2,8409],[71.7,8492],[73.8,8575],[73.8,8659],[73.8,8742],[73.8,8826]]",1,0,932.5801,938.0297,61.45833167,1.3315,"[{""rating"":61.45833167247476,""responseTime"":1.3315000000000055}]",space,4.9063,,938.0299,Not at all,0,938.0541,,,[],,0,8,8,8,1,audio/Narrative7Situation8.wav,audio/Narrative8Situation8.wav,audio/Narrative5Situation8.wav,audio/Narrative6Situation8.wav,2,3,3,5,,,,,,,,,,,,,,,,,,,,,,,,,,,,,,,,,,,,,,,
,,,,,,5a9262251eda410001360b2c,2024-02-08_16h03.06.251,group3.1-3.2-social-tom,2023.2.2,Win32,59.52380952,65c5074098b851296ff0b7ed,65c5415e025bb618405c3017,,,,,,,,,,,,,,,,,,,,,,,,,,,,,938.0544,2,audio/Narrative5Situation9.wav,941.0621,,941.0622,980.5959,"[[999,14],[999,82],[999,167],[999,250],[999,333],[999,417],[2.4,499],[2.1,583],[2.1,667],[2.1,750],[1.5,833],[1.5,917],[1.5,999],[1.5,1083],[1.5,1166],[1.5,1249],[1.5,1333],[1.5,1416],[1.5,1500],[1.5,1582],[1.5,1667],[1.5,1750],[1.5,1833],[1.5,1916],[1.5,2000],[1.5,2083],[1.5,2166],[2.6,2251],[12,2334],[25.2,2418],[37.6,2500],[44.6,2583],[47.6,2667],[49,2750],[50,2833],[50,2917],[50,2999],[50,3083],[50,3167],[50,3250],[50,3333],[50,3416],[50,3499],[50,3583],[49.9,3667],[49.9,3750],[49.8,3833],[49.8,3917],[49.8,4000],[49.8,4083],[49.8,4167],[49.8,4249],[49.8,4333],[49.8,4416],[49.8,4500],[49.8,4583],[49.8,4666],[49.8,4750],[49.8,4833],[49.8,4917],[49.8,5000],[49.8,5083],[49.8,5167],[49.8,5249],[49.8,5333],[49.8,5417],[49.8,5499],[49.8,5583],[49.8,5667],[49.8,5750],[49.8,5833],[49.8,5917],[49.8,6000],[49.8,6082],[49.8,6166],[49.8,6250],[49.8,6332],[49.8,6417],[49.8,6500],[49.8,6582],[49.8,6666],[49.8,6749],[49.8,6833],[49.8,6916],[49.8,6999],[49.8,7083],[49.8,7167],[49.8,7250],[49.8,7335],[49.8,7417],[49.8,7500],[49.8,7583],[49.8,7667],[49.8,7750],[49.8,7833],[49.8,7917],[49.8,8000],[49.8,8083],[49.8,8166],[52.7,8250],[56.4,8333],[63.1,8416],[71.8,8499],[76.7,8583],[78.1,8666],[79.5,8749],[81.4,8832],[83,8917],[84.4,9000],[85.5,9083],[86.1,9166],[86.1,9250],[86.1,9333],[86.1,9417],[86.1,9499],[86.1,9583],[86.1,9666],[86.1,9750],[86.1,9832],[86.1,9916],[86.1,9999],[86.1,10083],[86.1,10166],[86.1,10250],[86.1,10333],[87.6,10418],[89.5,10500],[89.9,10583],[89.9,10666],[89.9,10750],[89.9,10832],[89.9,10916],[89.9,11000],[89.9,11083],[89.9,11167],[89.9,11249],[89.9,11334],[89.9,11417],[89.9,11500],[89.9,11584],[89.9,11667],[89.9,11750],[89.9,11832],[89.9,11917],[89.9,11999],[89.9,12084],[89.9,12167],[89.9,12250],[89.9,12333],[89.9,12417],[89.9,12500],[90.2,12583],[90.2,12667],[90.2,12749],[90.2,12833],[90.2,12918],[90.2,13000],[90.2,13083],[90.2,13166],[90.2,13250],[90.2,13333],[90.2,13417],[90.2,13500],[90.2,13583],[90.2,13667],[90.2,13750],[90.2,13833],[90.2,13917],[90.2,14000],[90.2,14082],[90.2,14166],[88.9,14251],[88.1,14333],[87.5,14416],[87,14500],[87,14583],[87,14667],[87,14749],[87,14833],[85.4,14916],[83.3,15000],[82.3,15083],[81.7,15166],[81.7,15249],[81.7,15333],[81.7,15417],[81.7,15500],[81.7,15583],[81.7,15667],[81.7,15749],[81.7,15833],[81.7,15916],[81.7,16000],[81.7,16083],[81.7,16166],[81.7,16250],[81.7,16333],[81.7,16416],[81.7,16499],[81.7,16583],[81.1,16666],[81.1,16749],[81.1,16833],[81.1,16917],[81,17001],[77.3,17085],[75.8,17167],[75.8,17250],[75.8,17333],[75.8,17416],[75.8,17499],[75.8,17583],[75.8,17666],[75.8,17750],[75.8,17833],[75.8,17917],[75.8,18000],[75.8,18083],[75.8,18167],[75.8,18250],[75.8,18333],[75.8,18416],[75.8,18499],[75.8,18583],[75.8,18667],[75.8,18750],[75.8,18833],[75.8,18916],[75.8,19000],[75.8,19083],[75.8,19167],[75.8,19249],[75.8,19333],[75.8,19416],[75.8,19500],[75.8,19583],[75.8,19667],[76.3,19765],[77.1,19833],[78.4,19917],[80.2,19999],[82.7,20083],[84.1,20167],[84.9,20250],[85.3,20333],[85.6,20417],[85.9,20500],[85.9,20583],[86.1,20667],[86.4,20750],[86.4,20833],[86.4,20916],[86.4,20999],[86.4,21083],[86.4,21166],[86.4,21250],[86.5,21333],[86.5,21417],[86.5,21499],[86.5,21583],[86.5,21666],[86.5,21750],[86.5,21833],[86.5,21917],[86.5,22000],[86.5,22083],[86.5,22166],[86.5,22249],[86.5,22333],[86.5,22416],[86.5,22499],[86.5,22583],[86.5,22666],[86.5,22750],[86.5,22832],[86.5,22916],[86.5,22999],[86.5,23083],[86.5,23166],[86.5,23249],[86.5,23333],[86.5,23417],[86.5,23500],[86.5,23584],[86.5,23667],[86.5,23750],[86.3,23855],[86,23933],[86,24016],[86,24099],[86,24182],[86,24266],[86,24349],[86,24433],[86,24517],[86,24600],[86,24683],[86,24766],[86,24849],[86,24933],[86,25017],[86,25100],[86,25183],[86,25266],[86,25349],[86,25433],[86,25516],[86,25600],[86,25683],[86,25767],[86,25849],[86,25933],[86,26017],[86,26100],[86,26183],[86,26266],[86,26350],[86,26433],[86,26516],[86,26599],[86,26684],[86,26766],[85.8,26850],[85.7,26933],[85.7,27016],[85.3,27100],[85.1,27182],[85,27266],[85,27349],[85,27432],[85,27517],[85,27600],[85,27683],[85,27766],[85,27849],[85,27933],[85,28017],[85,28100],[85,28183],[85,28266],[85,28350],[85,28432],[85,28517],[85,28599],[85,28682],[83.9,28766],[81,28850],[80.5,28932],[79.7,29016],[77.4,29099],[75.7,29182],[74.6,29266],[74.2,29349],[73,29433],[72.9,29517],[72.8,29600],[72.8,29682],[72.8,29766],[72.8,29849],[72.8,29932],[72.8,30016],[72.8,30099],[72.8,30183],[72.8,30266],[72.8,30349],[72.8,30433],[72.8,30516],[72.8,30599],[72.8,30682],[72.8,30766],[72.8,30849],[72.8,30933],[72.8,31016],[72.8,31100],[72.8,31183],[72.8,31266],[72.8,31350],[72.8,31433],[73.3,31517],[74.4,31599],[75.6,31683],[76.7,31767],[78.1,31850],[80.2,31933],[81.3,32016],[82.1,32100],[83.2,32183],[85.1,32267],[86.8,32350],[87.7,32433],[87.9,32516],[87.9,32599],[87.9,32683],[87.9,32766],[87.9,32849],[87.9,32933],[87.9,33016],[87.9,33099],[88.2,33183],[89.4,33267],[90.8,33350],[91.3,33433],[91.8,33516],[92.7,33599],[92.8,33683],[92.8,33766],[92.8,33849],[92.8,33932],[92.8,34017],[92.8,34100],[92.8,34182],[92.8,34266],[92.8,34349],[92.8,34433],[92.8,34516],[92.8,34600],[92.8,34682],[92.8,34767],[92.8,34849],[92.8,34932],[92.9,35017],[93.8,35100],[93.8,35182],[93.8,35265],[93.8,35349],[93.8,35433],[93.8,35517],[93.8,35599],[93.8,35683],[93.8,35766],[93.8,35849],[93.8,35932],[93.8,36016],[93.8,36100],[93.8,36182],[93.8,36267],[93.8,36350],[93.8,36433],[93.8,36517],[93.8,36599],[93.8,36682],[93.8,36766],[93.8,36850],[93.8,36932],[93.8,37016],[93.8,37099],[93.8,37183],[93.8,37266],[93.8,37350],[93.8,37432],[93.8,37517],[93.8,37599],[93.8,37683],[93.8,37766],[93.8,37850],[93.8,37933],[93.8,38016],[93.8,38100],[93.8,38183],[93.8,38267],[93.8,38349],[93.8,38434],[93.8,38517],[93.8,38599],[93.8,38682],[93.8,38767],[93.8,38849],[93.8,38933],[93.8,39016],[93.8,39099],[93.8,39182],[93.8,39266],[93.8,39350],[93.8,39433],[93.8,39517]]",1,0,980.5965,984.6372,86.87499796,2.0186,"[{""rating"":86.87499796040359,""responseTime"":2.0185999999047226}]",space,3.4844,,984.6373,Not at all,0,984.6396,,,[],,0,9,9,9,1,audio/Narrative7Situation9.wav,audio/Narrative8Situation9.wav,audio/Narrative5Situation9.wav,audio/Narrative6Situation9.wav,2,3,3,4,,,,,,,,,,,,,,,,,,,,,,,,,,,,,,,,,,,,,,,
,,,,,,5a9262251eda410001360b2c,2024-02-08_16h03.06.251,group3.1-3.2-social-tom,2023.2.2,Win32,59.52380952,65c5074098b851296ff0b7ed,65c5415e025bb618405c3017,,,,,,,,,,,,,,,,,,,,,,,,,,,,,984.64,2,audio/Narrative6Situation1.wav,986.646,,986.646,1013.2359,"[[59.3,2843],[50.8,2924],[40.1,3007],[34.9,3090],[34.2,3170],[34.2,3253],[34.2,3340],[34.2,3424],[34.2,3500],[39.5,3591],[66.1,3675],[78.6,3758],[82.5,3842],[84.9,3925],[85.4,4006],[89.2,4090],[90.5,4170],[90.5,4256],[90.5,4340],[90.5,4420],[90.5,4507],[90.5,4582],[91.5,4674],[92.6,4757],[93.3,4842],[95.2,4924],[95.2,4999],[95.2,5090],[95.2,5173],[95.2,5257],[95.2,5333],[95.2,5423],[95.2,5499],[95.3,5582],[95.6,5666],[96.6,5758],[96.6,5833],[96.6,5916],[96.6,5999],[96.6,6083],[96.6,6173],[96.6,6257],[96.6,6333],[96.6,6424],[96.6,6499],[96.6,6590],[96.6,6665],[96.6,6757],[96.6,6840],[96.6,6916],[96.6,7007],[96.6,7090],[96.6,7174],[96.6,7254],[96.6,7340],[96.6,7422],[96.6,7506],[96.6,7583],[96.6,7674],[96.6,7753],[96.6,7833],[96.6,7923],[96.6,8006],[96.6,8091],[96.6,8166],[96.6,8249],[96.6,8334],[96.6,8425],[96.6,8499],[96.6,8584],[96.6,8665],[96.6,8757],[96.6,8833],[96.6,8924],[96.6,9006],[96.6,9082],[96.6,9174],[96.6,9249],[96.6,9333],[96.6,9422],[96.6,9499],[96.6,9590],[96.6,9673],[96.6,9756],[96.6,9839],[96.6,9923],[96.6,9999],[96.6,10090],[96.6,10174],[96.6,10249],[96.6,10333],[96.6,10420],[96.6,10499],[96.6,10590],[96.6,10674],[96.6,10749],[95.8,10863],[94.9,10940],[94,11024],[92.6,11106],[91.4,11190],[90,11274],[89.4,11349],[88.5,11440],[87.8,11524],[87,11606],[85.6,11689],[84.5,11774],[83.2,11857],[81.7,11941],[80.5,12023],[80.1,12106],[79.2,12190],[77.4,12274],[75.6,12357],[73.8,12432],[71.8,12524],[69.4,12607],[66.4,12690],[64.8,12773],[63.4,12857],[61.9,12940],[61.4,13023],[60.5,13107],[59.1,13190],[57.2,13274],[55.7,13357],[54.8,13440],[54,13524],[53.5,13607],[53.4,13682],[53.4,13774],[53.4,13857],[53.4,13933],[53.4,14023],[53.4,14106],[53.4,14183],[53.4,14273],[53.4,14349],[53.4,14433],[53.4,14524],[53.4,14608],[53.4,14687],[53.4,14774],[53.4,14857],[53.4,14933],[53.4,15024],[53.4,15107],[53.4,15182],[53.4,15273],[53.4,15357],[60.8,15440],[60.9,15516],[60.9,15603],[60.9,15690],[60.9,15770],[60.9,15850],[60.9,15932],[60.9,16016],[60.9,16106],[60.9,16183],[60.9,16267],[60.9,16349],[60.9,16440],[60.9,16524],[60.9,16606],[60.9,16690],[60.9,16774],[60.9,16856],[60.9,16933],[60.9,17024],[60.9,17106],[60.9,17190],[58.2,17274],[56.9,17357],[54,17441],[51.8,17524],[50.7,17608],[48,17690],[47.9,17773],[47.9,17857],[47.9,17940],[47.9,18015],[49.5,18107],[51.1,18190],[51.5,18273],[51.5,18349],[51.5,18436],[56.7,18524],[63,18607],[64.3,18683],[64.3,18773],[64.3,18857],[62.2,18940],[60.7,19024],[60.4,19100],[60.4,19190],[60.4,19274],[60.4,19357],[60.4,19440],[60.4,19524],[60.4,19606],[60.4,19683],[60.4,19770],[60.4,19857],[60.4,19941],[60.4,20022],[60.4,20103],[60.4,20183],[60.4,20266],[60.4,20356],[60.4,20433],[60.4,20515],[60.4,20606],[60.4,20683],[60.4,20774],[60.4,20849],[60.4,20932],[60.4,21024],[60.4,21107],[60.4,21190],[60.4,21274],[60.4,21349],[60.4,21433],[60.4,21523],[62.4,21607],[66.1,21689],[68.4,21773],[69.5,21857],[71.4,21940],[72.4,22024],[73.5,22107],[74.5,22190],[75.4,22274],[76,22357],[77.2,22441],[78.5,22524],[79.4,22608],[80.2,22690],[80.2,22765],[80.2,22857],[80.2,22940],[80.2,23016],[80.2,23107],[80.2,23189],[80.2,23265],[80.2,23357],[80.2,23440],[80.2,23515],[80.2,23599],[80.2,23690],[80.2,23773],[80.2,23857],[80.2,23940],[80.2,24020],[80.2,24106],[80.2,24190],[80.2,24273],[80.2,24349],[80.2,24432],[80.2,24523],[80.2,24607],[83.5,24690],[84.9,24774],[85.8,24858],[87.1,24941],[88.3,25024],[90,25107],[90.9,25190],[91.3,25273],[91.3,25357],[91.3,25433],[91.3,25523],[91.3,25606],[91.3,25682],[91.3,25774],[91.3,25856],[91.3,25940],[91.3,26015],[91.3,26106],[91.3,26190],[91.3,26274],[91.3,26349],[91.3,26439],[91.1,26523]]",1,0,1013.2361,1015.6864,84.79166466,1.6831,"[{""rating"":84.79166465811434,""responseTime"":1.683100000143213}]",space,1.9175,,1015.6865,Half the time,50,1015.6898,,,[],,0,10,10,10,1,audio/Narrative8Situation1.wav,audio/Narrative7Situation1.wav,audio/Narrative6Situation1.wav,audio/Narrative5Situation1.wav,5,2,2,5,,,,,,,,,,,,,,,,,,,,,,,,,,,,,,,,,,,,,,,
,,,,,,5a9262251eda410001360b2c,2024-02-08_16h03.06.251,group3.1-3.2-social-tom,2023.2.2,Win32,59.52380952,65c5074098b851296ff0b7ed,65c5415e025bb618405c3017,,,,,,,,,,,,,,,,,,,,,,,,,,,,,1015.6902,2,audio/Narrative6Situation2.wav,1018.6949,,1018.695,1047.1958,"[[46.8,259],[46.7,334],[45.2,425],[28.3,509],[20,593],[10.3,675],[4,751],[2.1,840],[2.1,924],[1,1009],[0.7,1084],[0.7,1175],[0.7,1258],[0.7,1334],[0.7,1425],[0.7,1508],[0.7,1584],[0.7,1675],[0.7,1758],[0.7,1834],[0.7,1925],[0.7,2008],[0.7,2083],[0.7,2175],[0.7,2258],[0.7,2342],[0.7,2425],[0.7,2508],[0.7,2584],[0.7,2675],[0.7,2758],[0.7,2834],[0.7,2918],[0.7,3000],[0.7,3091],[0.7,3166],[0.7,3250],[4,3342],[12.7,3425],[25.5,3508],[39.3,3591],[50.8,3675],[58.5,3758],[66,3841],[71.6,3924],[77.6,4008],[79.6,4092],[80.1,4167],[80.1,4257],[80.1,4334],[80.1,4424],[80.1,4500],[80.1,4592],[80.1,4675],[80.1,4758],[80.1,4834],[80.1,4921],[80.1,5008],[80.1,5083],[80.1,5167],[80.1,5258],[80.1,5334],[80.1,5425],[80.1,5500],[80.1,5584],[80.1,5674],[80.1,5750],[80.1,5838],[80.1,5925],[80.1,6007],[80.1,6083],[80.1,6175],[80.1,6251],[80.1,6334],[80.1,6424],[80.1,6500],[80.1,6591],[80.1,6675],[80.1,6750],[80.1,6838],[80.1,6925],[80.1,7002],[80.1,7091],[80.1,7168],[80.1,7258],[80.1,7335],[80.1,7417],[80.1,7504],[80.1,7591],[80.1,7667],[80.1,7757],[80.1,7841],[80.1,7916],[80.1,8008],[80.1,8090],[80.1,8166],[80.1,8257],[80.1,8334],[80.1,8416],[80.1,8508],[80.1,8584],[80.1,8666],[80.1,8758],[80.1,8834],[80.1,8917],[80.1,9008],[80.1,9083],[80.1,9175],[80.1,9251],[79.8,9341],[78.9,9434],[77.8,9524],[76.6,9608],[75.3,9691],[74.2,9774],[73.2,9858],[72.9,9934],[71.3,10025],[68,10108],[66.8,10191],[65.7,10275],[65.2,10358],[64.1,10441],[63.2,10525],[63,10608],[63,10691],[63,10767],[63,10858],[63,10934],[63,11025],[63,11108],[62.9,11188],[60.8,11275],[59,11359],[57.9,11442],[57.1,11525],[55.9,11609],[54.5,11692],[53.3,11775],[52.4,11858],[52.1,11933],[51.8,12025],[51.1,12108],[50.2,12191],[49.7,12275],[49.3,12358],[49,12440],[48.8,12525],[48.6,12608],[48.6,12691],[48.6,12775],[48.6,12850],[48.6,12934],[48.3,13021],[48.3,13108],[48.3,13184],[48.3,13267],[48.3,13358],[48.3,13434],[48.3,13517],[48.3,13600],[48.3,13684],[48.3,13775],[48.3,13858],[48.3,13934],[48.3,14017],[48.3,14105],[48.3,14191],[48.3,14274],[48.3,14358],[48.3,14433],[48.3,14525],[48.3,14600],[48.3,14691],[48.3,14775],[48.3,14850],[48.3,14934],[48.3,15016],[34.9,15108],[21.7,15191],[10.5,15275],[6.1,15358],[4.2,15441],[4.2,15525],[4.2,15608],[4.2,15692],[4.2,15775],[4.2,15851],[4.2,15942],[4.2,16025],[4.2,16108],[4.2,16184],[4.2,16274],[4.2,16350],[4.2,16434],[4.2,16517],[4.2,16605],[4.2,16684],[4.2,16774],[4.2,16858],[4.2,16941],[4.2,17025],[4.2,17108],[4.2,17190],[4.2,17274],[10.3,17359],[18.2,17442],[21.9,17525],[24.4,17609],[24.4,17683],[24.4,17775],[24.4,17858],[24.4,17934],[24.4,18024],[24.4,18100],[24.4,18184],[24.4,18266],[24.4,18358],[24.4,18441],[24.4,18525],[24.4,18600],[24.4,18691],[24.4,18767],[24.4,18858],[24.4,18935],[24.4,19017],[24.4,19108],[24.4,19192],[24.4,19275],[24.4,19358],[24,19435],[23.9,19517],[23.9,19601],[23.9,19683],[23.9,19774],[23.9,19850],[23.9,19941],[23.9,20025],[23.9,20100],[23.2,20191],[22.8,20275],[22.8,20351],[22.8,20441],[22.8,20521],[22.8,20600],[22.8,20691],[22.8,20766],[22.8,20858],[22.8,20933],[22.8,21017],[22.8,21108],[23,21192],[23,21266],[25.6,21359],[29.1,21442],[29.2,21517],[29.3,21609],[29.3,21683],[29.3,21766],[29.3,21858],[34.7,21943],[43.4,22025],[47.6,22109],[47.7,22192],[47.8,22274],[48.2,22359],[49.8,22441],[51.4,22525],[52.2,22600],[52.4,22684],[52.7,22774],[52.7,22858],[52.7,22941],[52.7,23016],[52.7,23108],[52.7,23184],[52.7,23266],[52.7,23350],[52.7,23434],[52.7,23517],[52.7,23605],[52.6,23685],[51.8,23776],[51.7,23858],[51.7,23934],[51.7,24016],[51.7,24108],[51.7,24191],[51.7,24274],[51.7,24359],[51.7,24434],[51.7,24517],[51.7,24604],[51.7,24691],[51.7,24775],[51.7,24850],[51.7,24934],[51.7,25026],[51.7,25100],[51.7,25191],[51.7,25275],[51.7,25358],[51.7,25434],[51.7,25517],[51.7,25608],[51.7,25684],[51.7,25767],[51.7,25850],[51.7,25934],[51.7,26016],[51.7,26101],[51.7,26184],[51.7,26267],[51.7,26358],[51.7,26441],[51.7,26516],[51.7,26608],[51.7,26692],[51.7,26767],[51.7,26858],[51.7,26934],[51.7,27016],[52.4,27108],[55,27201],[56.9,27284],[58.9,27368],[59.7,27450],[59.7,27533],[59.7,27617],[59.7,27700],[59.7,27784],[59.7,27867],[59.7,27951],[59.7,28035],[59.7,28116],[59.7,28200],[59.7,28283],[59.7,28367],[59.7,28450]]",1,0,1047.1963,1049.6126,64.68749829,1.4272,"[{""rating"":64.68749829102309,""responseTime"":1.4272000000476055}]",space,1.8775,,1049.6127,All the time,100,1049.6176,,,[],,0,11,11,11,1,audio/Narrative8Situation2.wav,audio/Narrative7Situation2.wav,audio/Narrative6Situation2.wav,audio/Narrative5Situation2.wav,3,3,3,3,,,,,,,,,,,,,,,,,,,,,,,,,,,,,,,,,,,,,,,
,,,,,,5a9262251eda410001360b2c,2024-02-08_16h03.06.251,group3.1-3.2-social-tom,2023.2.2,Win32,59.52380952,65c5074098b851296ff0b7ed,65c5415e025bb618405c3017,,,,,,,,,,,,,,,,,,,,,,,,,,,,,1049.6181,2,audio/Narrative6Situation3.wav,1054.629,,1054.6291,1067.2533,"[[36.4,757],[36.3,841],[15.4,1257],[12.7,1341],[7.6,1425],[3.8,1508],[3,1591],[2.9,1674],[1.9,1758],[1.5,1841],[0.6,1924],[0.6,2000],[0.6,2090],[0.6,2173],[0.6,2257],[0.6,2332],[0.6,2416],[0.6,2507],[0.6,2590],[0.6,2673],[0.6,2749],[0.6,2840],[0.6,2916],[0.6,2999],[0.6,3082],[0.6,3166],[0.6,3257],[0.6,3341],[0.6,3424],[0.6,3499],[0.6,3583],[0.6,3666],[0.6,3757],[0.6,3840],[0.6,3924],[0.6,4007],[0.6,4082],[0.6,4174],[0.6,4257],[0.6,4340],[0.5,4424],[0.5,4523],[0.2,4607],[0.3,5440],[4.6,5524],[12.6,5608],[24.3,5690],[39.2,5774],[49.1,5857],[55,5941],[66.7,7432],[66.8,7516],[66.8,7600],[66.8,7683],[73.8,7775],[73.8,7854],[73.8,7941],[73.8,8016],[73.8,8106],[73.8,8191],[73.8,8266],[73.8,8356],[73.8,8440],[73.8,8517],[73.8,8599],[73.8,8690],[73.8,8774],[73.8,8850],[73.8,8940],[73.8,9020],[73.8,9100],[73.8,9191],[73.8,9270],[73.8,9349],[73.8,9432],[73.8,9524],[73.8,9607],[73.8,9691],[73.8,9766],[73.8,9849],[72.3,9941],[72.3,10024],[72.3,10107],[72.3,10191],[72.3,10266],[72.3,10356],[72.3,10437],[72.3,10520],[72.3,10607],[72.3,10683],[72.3,10774],[72.3,10858],[72.3,10933],[72.3,11016],[72.3,11100],[72.3,11183],[72.3,11274],[72.3,11349],[72.3,11432],[72.3,11523],[72.3,11607],[72.3,11690],[72.3,11774],[72.3,11857],[72.3,11937],[72.3,12022],[72.3,12106],[72.3,12190],[72.3,12266],[72.3,12350],[72.3,12432],[72.3,12524],[71.3,12605]]",1,0,1067.2533,1070.1364,55.72916509,1.9326,"[{""rating"":61.77083166781815,""responseTime"":1.4835999999047544},{""rating"":55.72916509117933,""responseTime"":1.9325999999045962}]",space,2.3511,,1070.1365,Half the time,50,1070.1394,,,[],,0,12,12,12,1,audio/Narrative8Situation3.wav,audio/Narrative7Situation3.wav,audio/Narrative6Situation3.wav,audio/Narrative5Situation3.wav,4,8,5,3,,,,,,,,,,,,,,,,,,,,,,,,,,,,,,,,,,,,,,,
,,,,,,5a9262251eda410001360b2c,2024-02-08_16h03.06.251,group3.1-3.2-social-tom,2023.2.2,Win32,59.52380952,65c5074098b851296ff0b7ed,65c5415e025bb618405c3017,,,,,,,,,,,,,,,,,,,,,,,,,,,,,1070.1397,2,audio/Narrative6Situation4.wav,1072.153,,1072.153,1084.7797,"[[57.6,85],[57.6,167],[57.5,243],[57.5,326],[57.5,413],[52.7,500],[35.7,584],[27.6,667],[21.6,751],[15.7,834],[10,916],[3.8,1000],[1.9,1076],[1,1167],[0.7,1250],[0.7,1325],[0.7,1409],[0.7,1499],[0.7,1575],[0.7,1667],[0.7,1750],[0.7,1825],[0.7,1909],[0.7,2000],[0.7,2076],[0.7,2167],[0.7,2242],[0.7,2326],[0.7,2408],[0.7,2492],[0.7,2575],[0.7,2658],[0.7,2746],[0.7,2833],[0.7,2912],[0.7,2999],[0.7,3083],[0.7,3166],[0.7,3243],[0.7,3326],[0.7,3417],[0.7,3501],[0.7,3575],[0.7,3667],[0.7,3751],[0.7,3834],[0.7,3917],[0.7,4001],[0.7,4083],[0.7,4158],[0.7,4242],[0.7,4325],[0.7,4409],[0.7,4494],[7.8,4584],[23.1,4668],[36.1,4751],[48.6,4833],[53.2,4917],[54.7,5000],[55,5075],[55,5167],[55,5249],[55,5333],[55,5408],[55,5492],[60.3,5584],[67.9,5668],[69.4,5751],[69.6,5825],[69.6,5916],[69.6,5992],[69.6,6076],[69.6,6160],[71,6251],[79.9,6336],[84.1,6418],[85.6,6502],[85.6,6584],[85.6,6666],[85.6,6746],[85.6,6826],[85.6,6916],[85.6,6992],[85.6,7079],[85.6,7165],[85.6,7250],[85.6,7326],[85.6,7417],[85.6,7493],[85.6,7576],[87.9,7667],[89.1,7749],[89.8,7833],[90.3,7916],[90.4,7992],[90.6,8083],[90.6,8163],[90.6,8242],[90.6,8333],[90.6,8417],[90.6,8496],[90.6,8582],[90.6,8658],[90.6,8742],[90.6,8826],[90.6,8909],[90.6,9000],[90.6,9083],[90.6,9166],[90.6,9249],[90.6,9326],[90.6,9413],[90.6,9493],[90.6,9579],[90.6,9667],[90.6,9743],[90.6,9833],[90.6,9917],[90.6,10000],[90.6,10076],[90.6,10167],[90.6,10242],[90.6,10333],[90.6,10417],[90.6,10500],[90.6,10583],[90.6,10666],[90.6,10750],[90.6,10833],[90.6,10916],[90.6,10999],[90.6,11083],[90.6,11167],[90.6,11248],[90.6,11333],[90.6,11416],[91.7,11519],[92.8,11592],[94,11675],[94.3,11759],[94.3,11841],[94.8,11925],[95,12009],[95,12092],[95,12176],[95,12258],[95,12342],[95,12425],[95,12509],[95,12592]]",1,0,1084.7799,1092.1461,88.22916461,6.3637,"[{""rating"":89.79166458360852,""responseTime"":2.6245999999046035},{""rating"":85.20833131857218,""responseTime"":3.3317000000477037},{""rating"":86.14583130460234,""responseTime"":4.775899999857074},{""rating"":88.22916460689159,""responseTime"":6.363700000047629}]",space,6.815,,1092.1462,All the time,100,1092.1524,,,[],,0,13,13,13,1,audio/Narrative8Situation4.wav,audio/Narrative7Situation4.wav,audio/Narrative6Situation4.wav,audio/Narrative5Situation4.wav,3,3,2,1,,,,,,,,,,,,,,,,,,,,,,,,,,,,,,,,,,,,,,,
