exp_question,consent.started,consent.stopped,consentResponse.keys,consentResponse.rt,consentResponse.duration,participantID,date,expName,psychopyVersion,OS,frameRate,STUDY_ID,SESSION_ID,opening1.started,opening1.stopped,keyEndingOpening1.keys,keyEndingOpening1.rt,keyEndingOpening1.duration,volumeAdjust.started,volumeAdjust.stopped,endingAdjust.keys,endingAdjust.rt,endingAdjust.duration,opening2.started,opening2.stopped,keyEndingOpening.keys,keyEndingOpening.rt,keyEndingOpening.duration,mouse.x,mouse.y,mouse.leftButton,mouse.midButton,mouse.rightButton,mouse.time,instructionLoop.thisRepN,instructionLoop.thisTrialN,instructionLoop.thisN,instructionLoop.thisIndex,instructionLoop.ran,readyForAudio.started,readyForAudio.stopped,fixation.started,run,audio_played,fixation.stopped,endPractice.keys,audioPre.started,audioPre.stopped,continuousResponses_audio,continuousSlider.response,continuousSlider.rt,intRating.started,intRating.stopped,intQuestionSlider.response,intQuestionSlider.rt,intQuestionSlider.history,confirmResponse.keys,confirmResponse.rt,confirmResponse.duration,catchQuestion.started,catch_label,catch_value,catchQuestion.stopped,catchQuestionSlider.response,catchQuestionSlider.rt,catchQuestionSlider.history,confirmResponse_2.keys,audioRunLoop.thisRepN,audioRunLoop.thisTrialN,audioRunLoop.thisN,audioRunLoop.thisIndex,audioRunLoop.ran,conditions1_1,conditions2_1,conditions1_2,conditions2_2,dur1_1,dur2_1,dur1_2,dur2_2,endPractice.rt,endPractice.duration,confirmResponse_2.rt,confirmResponse_2.duration,runIntervalBreak.started,runIntervalBreak.stopped,endingBreakKey.keys,endingBreakKey.rt,endingBreakKey.duration,connection.started,connection.stopped,connectionEnding.keys,connectionEnding.rt,connectionEnding.duration,readyForText.started,readyForText.stopped,textPre.started,run_dup,textPre.stopped,continuousResponses_text,textRunLoop.thisRepN,textRunLoop.thisTrialN,textRunLoop.thisN,textRunLoop.thisIndex,textRunLoop.ran,text1_1,text1_2,text2_1,text2_2,runBreakText.started,runBreakText.stopped,endingBreakKey_2.keys,endingBreakKey_2.rt,endingBreakKey_2.duration,ending.started,ending.stopped,endingEnding.keys,endingEnding.rt,endingEnding.duration
tom,0.0002,3.2964,y,2.9842,,5aa83a71f6dfdd0001eb1690,2024-02-08_16h02.30.492,group3.1-3.2-social-tom,2023.2.2,MacIntel,128.2051282,65c5074098b851296ff0b7ed,65c541564e257756d7946f83,,,,,,,,,,,,,,,,,,,,,,,,,,,,,,,,,,,,,,,,,,,,,,,,,,,,,,,,,,,,,,,,,,,,,,,,,,,,,,,,,,,,,,,,,,,,,,,,,,,,,,,,,,
,,,,,,5aa83a71f6dfdd0001eb1690,2024-02-08_16h02.30.492,group3.1-3.2-social-tom,2023.2.2,MacIntel,128.2051282,65c5074098b851296ff0b7ed,65c541564e257756d7946f83,3.2967,4.1591,space,0.8437,,,,,,,,,,,,,,,,,,,,,,,,,,,,,,,,,,,,,,,,,,,,,,,,,,,,,,,,,,,,,,,,,,,,,,,,,,,,,,,,,,,,,,,,,,,,,,,,,,,,,,
,,,,,,5aa83a71f6dfdd0001eb1690,2024-02-08_16h02.30.492,group3.1-3.2-social-tom,2023.2.2,MacIntel,128.2051282,65c5074098b851296ff0b7ed,65c541564e257756d7946f83,,,,,,4.1594,4.5488,space,0.0835,,,,,,,,,,,,,,,,,,,,,,,,,,,,,,,,,,,,,,,,,,,,,,,,,,,,,,,,,,,,,,,,,,,,,,,,,,,,,,,,,,,,,,,,,,,,,,,,,
,,,,,,5aa83a71f6dfdd0001eb1690,2024-02-08_16h02.30.492,group3.1-3.2-social-tom,2023.2.2,MacIntel,128.2051282,65c5074098b851296ff0b7ed,65c541564e257756d7946f83,,,,,,,,,,,4.5544,4.9116,space,0.3441,,[],[],[],[],[],[],0,0,0,0,1,,,,,,,,,,,,,,,,,,,,,,,,,,,,,,,,,,,,,,,,,,,,,,,,,,,,,,,,,,,,,,,,,,,,,,,,,,,,,,,,
,,,,,,5aa83a71f6dfdd0001eb1690,2024-02-08_16h02.30.492,group3.1-3.2-social-tom,2023.2.2,MacIntel,128.2051282,65c5074098b851296ff0b7ed,65c541564e257756d7946f83,,,,,,,,,,,4.9123,5.1362,space,0.1778,,[],[],[],[],[],[],1,0,1,0,1,,,,,,,,,,,,,,,,,,,,,,,,,,,,,,,,,,,,,,,,,,,,,,,,,,,,,,,,,,,,,,,,,,,,,,,,,,,,,,,,
,,,,,,5aa83a71f6dfdd0001eb1690,2024-02-08_16h02.30.492,group3.1-3.2-social-tom,2023.2.2,MacIntel,128.2051282,65c5074098b851296ff0b7ed,65c541564e257756d7946f83,,,,,,,,,,,5.1365,5.8727,space,0.718,,[],[],[],[],[],[],2,0,2,0,1,,,,,,,,,,,,,,,,,,,,,,,,,,,,,,,,,,,,,,,,,,,,,,,,,,,,,,,,,,,,,,,,,,,,,,,,,,,,,,,,
,,,,,,5aa83a71f6dfdd0001eb1690,2024-02-08_16h02.30.492,group3.1-3.2-social-tom,2023.2.2,MacIntel,128.2051282,65c5074098b851296ff0b7ed,65c541564e257756d7946f83,,,,,,,,,,,5.8737,6.5831,space,0.6978,,[],[],[],[],[],[],3,0,3,0,1,,,,,,,,,,,,,,,,,,,,,,,,,,,,,,,,,,,,,,,,,,,,,,,,,,,,,,,,,,,,,,,,,,,,,,,,,,,,,,,,
,,,,,,5aa83a71f6dfdd0001eb1690,2024-02-08_16h02.30.492,group3.1-3.2-social-tom,2023.2.2,MacIntel,128.2051282,65c5074098b851296ff0b7ed,65c541564e257756d7946f83,,,,,,,,,,,6.5834,6.9477,space,0.3515,,[],[],[],[],[],[],4,0,4,0,1,,,,,,,,,,,,,,,,,,,,,,,,,,,,,,,,,,,,,,,,,,,,,,,,,,,,,,,,,,,,,,,,,,,,,,,,,,,,,,,,
,,,,,,5aa83a71f6dfdd0001eb1690,2024-02-08_16h02.30.492,group3.1-3.2-social-tom,2023.2.2,MacIntel,128.2051282,65c5074098b851296ff0b7ed,65c541564e257756d7946f83,,,,,,,,,,,,,,,,,,,,,,,,,,,6.9487,9.5243,9.5403,1,audio/Narrative13Situation2.wav,11.5475,,11.5481,41.2862,"[[999,1],[999,104],[999,197],[999,288],[999,379],[999,471],[999,565],[999,654],[999,754],[999,846],[999,945],[999,1038],[999,1129],[999,1221],[999,1314],[999,1406],[999,1496],[999,1595],[999,1687],[999,1778],[999,1871],[999,1967],[999,2054],[999,2146],[999,2237],[999,2338],[999,2430],[999,2521],[999,2612],[999,2704],[999,2797],[999,2887],[999,2979],[999,3071],[999,3161],[999,3259],[999,3354],[999,3451],[999,3538],[999,3629],[999,3730],[999,3821],[999,3923],[999,4014],[999,4104],[999,4198],[999,4289],[999,4379],[999,4476],[999,4564],[999,4654],[999,4745],[999,4837],[999,4930],[999,5020],[999,5114],[999,5206],[999,5298],[999,5387],[999,5479],[999,5570],[999,5665],[999,5754],[999,5847],[999,5946],[999,6037],[999,6132],[999,6221],[999,6313],[999,6405],[999,6495],[999,6587],[999,6679],[999,6774],[999,6864],[999,6954],[999,7048],[999,7138],[999,7238],[999,7329],[999,7422],[999,7512],[999,7604],[999,7696],[999,7790],[999,7879],[999,7970],[999,8062],[999,8154],[999,8246],[999,8337],[999,8430],[999,8520],[999,8624],[999,8712],[999,8804],[999,8896],[999,8987],[999,9079],[999,9171],[999,9271],[999,9362],[999,9458],[999,9547],[999,9637],[999,9738],[999,9832],[999,9921],[999,10012],[999,10105],[999,10196],[999,10293],[999,10379],[999,10470],[999,10564],[999,10654],[61.3,10746],[63.4,10843],[63.7,10929],[63.7,11026],[63.7,11113],[63.7,11208],[63.7,11299],[63.7,11387],[63.7,11482],[63.7,11570],[65.3,11662],[70.1,12221],[70.6,12315],[70.8,12407],[70.8,12496],[70.8,12596],[70.8,12687],[70.8,12783],[70.8,12871],[70.8,12962],[70.8,13054],[70.8,13146],[70.8,13238],[70.8,13331],[70.6,13429],[54.3,14345],[53.9,14438],[52.8,14532],[52.6,14621],[51.8,14712],[49.5,14807],[47.5,14896],[44.9,14989],[41.7,15079],[40.2,15175],[40.2,15262],[40.2,15354],[40.2,15451],[40.2,15537],[40.2,15629],[37.3,15721]]",1,0,41.2869,46.566,64.39992704,2.5054,"[{""rating"":64.39992704280155,""responseTime"":2.505399999976163}]",space,4.7563,,46.567,Not at all,0,46.5707,,,[],,0,0,0,0,1,audio/Narrative13Situation2.wav,audio/Narrative13Situation2.wav,audio/Narrative13Situation2.wav,audio/Narrative13Situation2.wav,2,2,2,2,,,,,,,,,,,,,,,,,,,,,,,,,,,,,,,,,,,,,,,
,,,,,,5aa83a71f6dfdd0001eb1690,2024-02-08_16h02.30.492,group3.1-3.2-social-tom,2023.2.2,MacIntel,128.2051282,65c5074098b851296ff0b7ed,65c541564e257756d7946f83,,,,,,,,,,,,,,,,,,,,,,,,,,,,,46.5711,1,audio/Narrative7Situation1.wav,49.4781,space,49.4783,105.357,"[[999,2],[999,101],[999,187],[999,278],[999,370],[999,462],[999,559],[999,644],[56.8,736],[56.7,829],[56.7,919],[56.7,1011],[56.7,1103],[56.7,1202],[56.7,1286],[56.7,1378],[56.7,1481]]",1,0,105.3573,110.1409,78.02696376,3.0739,"[{""rating"":78.02696376459144,""responseTime"":3.073899999976163}]",space,4.2666,,110.1412,Half the time,50,117.3088,49.85522556,6.548,"[{""rating"":49.85522555933852,""responseTime"":6.548000000000002}]",space,0,1,1,1,1,audio/Narrative7Situation1.wav,audio/Narrative8Situation1.wav,audio/Narrative5Situation1.wav,audio/Narrative6Situation1.wav,2,5,5,2,2.8946,,6.6486,,,,,,,,,,,,,,,,,,,,,,,,,,,,,,,,,,,,
,,,,,,5aa83a71f6dfdd0001eb1690,2024-02-08_16h02.30.492,group3.1-3.2-social-tom,2023.2.2,MacIntel,128.2051282,65c5074098b851296ff0b7ed,65c541564e257756d7946f83,,,,,,,,,,,,,,,,,,,,,,,,,,,,,117.309,1,audio/Narrative7Situation2.wav,120.3175,,120.3176,127.7812,[],1,0,127.7815,130.3394,39.36610834,2.212,"[{""rating"":39.366108341439684,""responseTime"":2.2120000000000175}]",space,2.0333,,130.3396,All the time,100,130.3429,,,[],,0,2,2,2,1,audio/Narrative7Situation2.wav,audio/Narrative8Situation2.wav,audio/Narrative5Situation2.wav,audio/Narrative6Situation2.wav,3,3,3,3,,,,,,,,,,,,,,,,,,,,,,,,,,,,,,,,,,,,,,,
,,,,,,5aa83a71f6dfdd0001eb1690,2024-02-08_16h02.30.492,group3.1-3.2-social-tom,2023.2.2,MacIntel,128.2051282,65c5074098b851296ff0b7ed,65c541564e257756d7946f83,,,,,,,,,,,,,,,,,,,,,,,,,,,,,130.3431,1,audio/Narrative7Situation3.wav,138.3471,,138.3471,147.5811,"[[999,9],[999,99],[999,191],[999,286],[999,379],[999,468],[999,559],[999,649],[999,745],[999,833],[13.2,924],[13.2,1025],[13.1,1118]]",1,0,147.5812,149.9739,64.1639561,2.0515,"[{""rating"":64.1639561040856,""responseTime"":2.0515000000000043}]",space,1.8787,,149.9741,Half the time,50,149.9774,,,[],,0,3,3,3,1,audio/Narrative7Situation3.wav,audio/Narrative8Situation3.wav,audio/Narrative5Situation3.wav,audio/Narrative6Situation3.wav,8,4,3,5,,,,,,,,,,,,,,,,,,,,,,,,,,,,,,,,,,,,,,,
,,,,,,5aa83a71f6dfdd0001eb1690,2024-02-08_16h02.30.492,group3.1-3.2-social-tom,2023.2.2,MacIntel,128.2051282,65c5074098b851296ff0b7ed,65c541564e257756d7946f83,,,,,,,,,,,,,,,,,,,,,,,,,,,,,149.9777,1,audio/Narrative7Situation4.wav,152.9801,,152.9801,164.6895,"[[999,0],[999,93],[999,183],[999,279],[999,367],[999,458],[999,551],[999,642],[999,733],[999,828],[999,920],[999,1017],[999,1109],[999,1200],[999,1292],[999,1384],[999,1475],[999,1567],[999,1659],[999,1750],[999,1842],[999,1934],[999,2025],[999,2117],[999,2209],[999,2299],[999,2392],[999,2484],[999,2579],[999,2667],[999,2764],[999,2851],[999,2941],[999,3034],[999,3127],[999,3219],[999,3309],[999,3402],[999,3493],[999,3583],[999,3676],[999,3767],[999,3859],[999,3950],[999,4043],[999,4142],[999,4234],[999,4328],[999,4417],[999,4509],[999,4600],[999,4693],[999,4783],[999,4875],[999,4967],[999,5058],[999,5153],[999,5242],[999,5334],[999,5426],[999,5517],[999,5609],[999,5701],[999,5792],[999,5884],[999,5975],[999,6067],[999,6158],[999,6250],[999,6342],[999,6434],[999,6527],[999,6617],[999,6712],[999,6800],[999,6891],[999,6984],[999,7075],[999,7171],[999,7259],[999,7350],[999,7442],[999,7534],[999,7625],[999,7717],[999,7812],[999,7900],[999,7992],[999,8084],[999,8175],[999,8267],[999,8360],[999,8450],[999,8542],[999,8638],[999,8725],[999,8824],[999,8909],[999,9000],[999,9092],[999,9183],[999,9276],[999,9367],[999,9460],[999,9550],[999,9642],[999,9734],[999,9826],[999,9917],[999,10009],[999,10100],[999,10191],[999,10284],[999,10375],[999,10467],[999,10558],[999,10650],[999,10742],[999,10834],[999,10925],[999,11017],[999,11109],[999,11200],[999,11292],[999,11384],[999,11475],[999,11567],[999,11658]]",1,0,164.6897,167.1882,50.45028271,2.0725,"[{""rating"":54.84633390077821,""responseTime"":1.5364999999999895},{""rating"":50.45028270914397,""responseTime"":2.072499999999991}]",space,1.982,,167.1883,Not at all,0,167.1911,,,[],,0,4,4,4,1,audio/Narrative7Situation4.wav,audio/Narrative8Situation4.wav,audio/Narrative5Situation4.wav,audio/Narrative6Situation4.wav,3,3,1,2,,,,,,,,,,,,,,,,,,,,,,,,,,,,,,,,,,,,,,,
,,,,,,5aa83a71f6dfdd0001eb1690,2024-02-08_16h02.30.492,group3.1-3.2-social-tom,2023.2.2,MacIntel,128.2051282,65c5074098b851296ff0b7ed,65c541564e257756d7946f83,,,,,,,,,,,,,,,,,,,,,,,,,,,,,167.1913,1,audio/Narrative7Situation5.wav,172.1979,,172.198,180.6821,"[[999,7],[999,99],[999,189],[999,282],[999,374],[999,466],[999,557],[999,649],[999,743],[999,833],[999,924],[999,1016],[999,1108],[999,1203],[999,1292],[999,1382],[999,1476],[999,1567],[999,1657],[999,1750],[999,1840],[999,1932],[999,2024],[999,2115],[999,2208],[999,2306],[999,2391],[999,2483],[999,2574],[999,2666],[999,2758],[999,2849],[999,2941],[999,3032],[999,3124],[999,3215],[999,3307],[999,3398],[999,3491],[999,3582],[999,3673],[999,3766],[999,3857],[999,3949],[999,4040],[999,4132],[999,4227],[999,4315],[999,4407],[999,4499],[999,4591],[999,4682],[999,4774],[999,4868],[999,4957],[999,5049],[999,5141],[999,5232],[999,5324],[999,5415],[999,5511],[999,5599],[999,5691],[999,5782],[999,5874],[999,5966],[999,6059],[999,6149],[999,6241],[999,6332],[999,6424],[999,6523],[999,6616],[999,6708],[999,6799],[999,6891],[999,6983],[999,7074],[999,7166],[999,7257],[999,7353],[999,7441],[999,7532],[999,7624],[999,7715],[999,7807],[999,7899],[999,7991],[999,8082],[999,8174],[999,8266],[999,8358],[999,8451]]",1,0,180.6824,181.9907,59.51673456,1.1357,"[{""rating"":59.516734557392994,""responseTime"":1.1357000000477058}]",space,0.7852,,181.9907,Half the time,50,181.9925,,,[],,0,5,5,5,1,audio/Narrative7Situation5.wav,audio/Narrative8Situation5.wav,audio/Narrative5Situation5.wav,audio/Narrative6Situation5.wav,5,2,5,2,,,,,,,,,,,,,,,,,,,,,,,,,,,,,,,,,,,,,,,
,,,,,,5aa83a71f6dfdd0001eb1690,2024-02-08_16h02.30.492,group3.1-3.2-social-tom,2023.2.2,MacIntel,128.2051282,65c5074098b851296ff0b7ed,65c541564e257756d7946f83,,,,,,,,,,,,,,,,,,,,,,,,,,,,,181.9927,1,audio/Narrative7Situation6.wav,184.9985,,184.9986,194.9568,"[[999,14],[999,98],[999,190],[999,282],[999,373],[999,465],[999,557],[999,650],[999,739],[999,832],[999,923],[999,1015],[999,1107],[999,1197],[999,1290],[999,1382],[999,1473],[999,1565],[999,1657],[999,1749],[999,1840],[999,1932],[999,2023],[999,2115],[999,2209],[999,2298],[999,2389],[999,2481],[999,2573],[999,2665],[999,2757],[999,2850],[999,2940],[999,3032],[999,3123],[999,3215],[999,3306],[999,3398],[999,3491],[999,3581],[999,3673],[999,3765],[999,3857],[999,3948],[999,4040],[999,4131],[999,4222],[999,4316],[999,4407],[999,4499],[999,4590],[999,4682],[999,4780],[999,4865],[999,4957],[999,5050],[999,5140],[999,5231],[999,5323],[999,5415],[999,5507],[999,5598],[999,5690],[999,5782],[999,5873],[999,5965],[999,6058],[999,6148],[999,6242],[999,6332],[999,6425],[999,6515],[999,6606],[999,6698],[999,6789],[999,6882],[999,6973],[999,7065],[999,7157],[999,7249],[999,7340],[999,7432],[999,7523],[999,7615],[999,7707],[999,7798],[999,7890],[999,7981],[999,8073],[999,8165],[999,8257],[999,8355],[999,8448],[999,8540],[999,8631],[999,8723],[999,8815],[999,8906],[999,8998],[999,9090],[999,9181],[999,9273],[999,9366],[999,9456],[999,9548],[999,9640],[70.6,9735],[70.6,9823],[70.6,9915]]",1,0,194.957,195.6902,77.93766719,0.5938,"[{""rating"":76.40404608463035,""responseTime"":0.3125},{""rating"":77.93766719357977,""responseTime"":0.5938000000715249}]",space,0.2144,,195.6903,Not at all,0,195.6929,,,[],,0,6,6,6,1,audio/Narrative7Situation6.wav,audio/Narrative8Situation6.wav,audio/Narrative5Situation6.wav,audio/Narrative6Situation6.wav,3,2,3,2,,,,,,,,,,,,,,,,,,,,,,,,,,,,,,,,,,,,,,,
,,,,,,5aa83a71f6dfdd0001eb1690,2024-02-08_16h02.30.492,group3.1-3.2-social-tom,2023.2.2,MacIntel,128.2051282,65c5074098b851296ff0b7ed,65c541564e257756d7946f83,,,,,,,,,,,,,,,,,,,,,,,,,,,,,195.6931,1,audio/Narrative7Situation7.wav,200.6977,,200.6977,217.8566,"[[999,10],[999,99],[999,191],[999,281],[999,376],[999,466],[999,558],[999,649],[999,740],[999,834],[999,923],[999,1016],[999,1107],[999,1199],[999,1290],[999,1382],[999,1473],[999,1564],[999,1657],[999,1749],[999,1841],[999,1932],[999,2024],[999,2116],[999,2207],[999,2311],[999,2399],[999,2490],[999,2582],[999,2674],[999,2766],[999,2857],[999,2949],[999,3043],[999,3133],[999,3224],[999,3316],[999,3407],[999,3500],[999,3591],[999,3683],[999,3775],[999,3866],[999,3969],[999,4049],[999,4141],[999,4233],[999,4325],[999,4416],[999,4507],[999,4599],[999,4691],[999,4782],[999,4874],[999,4966],[999,5057],[999,5149],[999,5241],[999,5332],[999,5423],[999,5516],[999,5607],[999,5699],[999,5791],[999,5882],[999,5976],[999,6065],[999,6157],[999,6249],[999,6341],[999,6432],[999,6524],[999,6618],[999,6707],[999,6799],[999,6891],[999,6982],[999,7073],[999,7166],[999,7259],[999,7349],[999,7440],[999,7533],[999,7625],[999,7716],[999,7807],[999,7900],[999,7990],[999,8082],[999,8175],[999,8266],[999,8357],[999,8449],[999,8541],[999,8632],[999,8724],[999,8816],[999,8907],[999,8999],[999,9091],[999,9182],[999,9274],[999,9366],[999,9457],[999,9551],[999,9640],[999,9732],[999,9824],[999,9916],[999,10007],[999,10099],[999,10193],[999,10282],[999,10374],[999,10466],[999,10557],[999,10649],[999,10741],[999,10833],[999,10924],[999,11017],[999,11110],[999,11199],[999,11291],[999,11383],[999,11482],[999,11575],[999,11674],[999,11771],[999,11866],[999,11959],[999,12050],[999,12141],[999,12232],[999,12332],[999,12426],[999,12516],[999,12608],[999,12699],[999,12791],[999,12890],[999,12982],[999,13074],[999,13166],[999,13257],[999,13349],[999,13440],[999,13533],[999,13624],[999,13718],[999,13807],[999,13902],[999,13991],[999,14082],[999,14174],[999,14267],[999,14358],[999,14449],[999,14547],[999,14632],[999,14727],[999,14816],[999,14908],[999,14999],[999,15091],[999,15184],[999,15274],[999,15366],[999,15457],[999,15560],[999,15640],[999,15732],[999,15824],[999,15916],[999,16007],[999,16099],[999,16191],[999,16284],[999,16377],[999,16466],[999,16557],[999,16649],[999,16741],[999,16833],[999,16924],[999,17016],[999,17107]]",1,0,217.8571,219.1226,89.40828672,0.8682,"[{""rating"":89.40828672178989,""responseTime"":0.8681999999284642}]",space,0.7483,,219.1227,All the time,100,219.1244,,,[],,0,7,7,7,1,audio/Narrative7Situation7.wav,audio/Narrative8Situation7.wav,audio/Narrative5Situation7.wav,audio/Narrative6Situation7.wav,5,3,4,5,,,,,,,,,,,,,,,,,,,,,,,,,,,,,,,,,,,,,,,
,,,,,,5aa83a71f6dfdd0001eb1690,2024-02-08_16h02.30.492,group3.1-3.2-social-tom,2023.2.2,MacIntel,128.2051282,65c5074098b851296ff0b7ed,65c541564e257756d7946f83,,,,,,,,,,,,,,,,,,,,,,,,,,,,,219.1245,1,audio/Narrative7Situation8.wav,221.1294,,221.1294,231.1387,"[[999,0],[999,92],[999,184],[999,276],[999,367],[999,459],[999,550],[999,642],[999,734],[999,826],[999,917],[999,1008],[999,1100],[999,1192],[999,1284],[999,1376],[999,1468],[999,1559],[999,1650],[999,1742],[999,1834],[999,1926],[999,2018],[999,2109],[999,2200],[999,2292],[999,2384],[999,2475],[999,2568],[999,2659],[999,2751],[999,2842],[999,2935],[999,3025],[999,3116],[999,3209],[999,3300],[999,3392],[999,3485],[999,3575],[999,3667],[999,3759],[999,3850],[999,3943],[999,4034],[999,4130],[999,4217],[999,4309],[999,4402],[999,4492],[999,4584],[999,4676],[999,4769],[999,4858],[999,4951],[999,5042],[999,5133],[999,5226],[999,5317],[999,5410],[999,5501],[999,5593],[999,5684],[999,5776],[999,5867],[999,5959],[999,6050],[999,6150],[999,6242],[999,6334],[999,6427],[999,6517],[999,6611],[999,6701],[999,6792],[999,6885],[999,6976],[999,7068],[999,7159],[999,7254],[999,7342],[999,7434],[999,7525],[999,7617],[999,7709],[999,7800],[999,7895],[999,7984],[999,8076],[999,8168],[999,8259],[999,8350],[999,8442],[999,8535],[999,8626],[999,8717],[999,8809],[999,8900],[999,8992],[999,9084],[999,9175],[999,9266],[999,9359],[999,9459],[999,9550],[999,9642],[999,9734],[999,9825],[999,9919],[999,10009]]",1,0,231.1389,232.8052,60.60349283,1.4649,"[{""rating"":60.603492825875485,""responseTime"":1.4648999999761543}]",space,1.1393,,232.8052,Half the time,50,232.8068,,,[],,0,8,8,8,1,audio/Narrative7Situation8.wav,audio/Narrative8Situation8.wav,audio/Narrative5Situation8.wav,audio/Narrative6Situation8.wav,2,3,3,5,,,,,,,,,,,,,,,,,,,,,,,,,,,,,,,,,,,,,,,
,,,,,,5aa83a71f6dfdd0001eb1690,2024-02-08_16h02.30.492,group3.1-3.2-social-tom,2023.2.2,MacIntel,128.2051282,65c5074098b851296ff0b7ed,65c541564e257756d7946f83,,,,,,,,,,,,,,,,,,,,,,,,,,,,,232.807,1,audio/Narrative7Situation9.wav,234.8072,,234.8073,243.4223,"[[999,0],[999,89],[999,180],[999,273],[999,364],[999,456],[999,548],[999,649],[999,740],[999,831],[999,922],[999,1014],[999,1107],[999,1198],[999,1289],[999,1381],[999,1472],[999,1564],[999,1656],[999,1748],[999,1839],[999,1931],[999,2022],[999,2114],[999,2205],[999,2298],[999,2389],[999,2481],[999,2573],[999,2664],[999,2756],[999,2849],[999,2938],[999,3031],[999,3122],[999,3215],[999,3306],[999,3397],[999,3489],[999,3581],[999,3673],[999,3764],[999,3858],[999,3948],[999,4039],[999,4131],[999,4222],[999,4314],[999,4406],[999,4500],[999,4589],[999,4681],[999,4773],[999,4864],[999,4956],[999,5048],[999,5139],[999,5231],[999,5323],[999,5414],[999,5506],[999,5597],[999,5696],[999,5780],[999,5872],[999,5965],[999,6056],[999,6148],[999,6239],[999,6330],[999,6423],[999,6514],[999,6606],[999,6699],[999,6791],[999,6881],[999,6972],[999,7064],[999,7156],[999,7248],[999,7339],[999,7433],[999,7524],[999,7614],[999,7706],[999,7798],[999,7889],[999,7982],[999,8073],[999,8164],[999,8256],[999,8347],[999,8439],[999,8531]]",1,0,243.4224,244.2479,70.73086393,0.519,"[{""rating"":70.73086393482491,""responseTime"":0.5190000000000055}]",space,0.3022,,244.2479,Half the time,50,244.2494,,,[],,0,9,9,9,1,audio/Narrative7Situation9.wav,audio/Narrative8Situation9.wav,audio/Narrative5Situation9.wav,audio/Narrative6Situation9.wav,2,3,3,4,,,,,,,,,,,,,,,,,,,,,,,,,,,,,,,,,,,,,,,
,,,,,,5aa83a71f6dfdd0001eb1690,2024-02-08_16h02.30.492,group3.1-3.2-social-tom,2023.2.2,MacIntel,128.2051282,65c5074098b851296ff0b7ed,65c541564e257756d7946f83,,,,,,,,,,,,,,,,,,,,,,,,,,,,,244.2496,1,audio/Narrative8Situation1.wav,253.863,,253.8631,269.772,"[[999,8],[999,99],[999,191],[999,283],[999,375],[999,466],[999,562],[999,658],[52.9,750],[52.9,842],[52.9,935],[54.1,1030],[54.6,1125],[54.8,1218]]",1,0,269.7721,271.4136,42.13924185,1.3786,"[{""rating"":42.13924185311284,""responseTime"":1.3786000000238232}]",space,1.1323,,271.4138,Not at all,0,271.4166,,,[],,0,10,10,10,1,audio/Narrative8Situation1.wav,audio/Narrative7Situation1.wav,audio/Narrative6Situation1.wav,audio/Narrative5Situation1.wav,5,2,2,5,,,,,,,,,,,,,,,,,,,,,,,,,,,,,,,,,,,,,,,
,,,,,,5aa83a71f6dfdd0001eb1690,2024-02-08_16h02.30.492,group3.1-3.2-social-tom,2023.2.2,MacIntel,128.2051282,65c5074098b851296ff0b7ed,65c541564e257756d7946f83,,,,,,,,,,,,,,,,,,,,,,,,,,,,,271.4167,1,audio/Narrative8Situation2.wav,274.4219,,274.422,284.5225,"[[999,8],[999,99],[999,190],[999,283],[999,375],[999,466],[999,563],[999,649],[999,740],[999,831],[999,925],[999,1016],[999,1108],[999,1198],[999,1292],[999,1384],[999,1474],[999,1566],[999,1658],[999,1750],[999,1848],[999,1932],[999,2029],[999,2116],[999,2211],[999,2299],[999,2391],[999,2484],[999,2575],[999,2667],[999,2758],[999,2850],[999,2940],[999,3032],[999,3124],[999,3216],[999,3308],[999,3401],[999,3492],[999,3583],[999,3676],[999,3766],[999,3857],[999,3953],[999,4041],[999,4132],[999,4224],[999,4323],[999,4407],[999,4499],[999,4595],[999,4683],[999,4775],[999,4867],[999,4958],[999,5049],[999,5141],[999,5233],[999,5324],[999,5416],[999,5508],[999,5599],[999,5691],[999,5783],[999,5875],[999,5966],[999,6057],[999,6149],[999,6241],[999,6332],[999,6424],[999,6516],[999,6607],[999,6699],[999,6791],[999,6882],[999,6974],[999,7065],[999,7158],[999,7250],[999,7341],[999,7438],[999,7525],[999,7616],[999,7708],[999,7812],[999,7900],[999,7992],[999,8084],[999,8174],[999,8266],[999,8358],[999,8449],[999,8541],[999,8632],[999,8724],[999,8816],[999,8908],[999,8999],[999,9091],[999,9183],[999,9275],[999,9366],[999,9458],[999,9549],[999,9641],[999,9731],[999,9823],[999,9916],[999,10008],[999,10100]]",1,0,284.5227,285.6733,60.37322167,0.9269,"[{""rating"":60.37322166828793,""responseTime"":0.9268999999761718}]",space,0.6309,,285.6733,Half the time,50,285.6749,,,[],,0,11,11,11,1,audio/Narrative8Situation2.wav,audio/Narrative7Situation2.wav,audio/Narrative6Situation2.wav,audio/Narrative5Situation2.wav,3,3,3,3,,,,,,,,,,,,,,,,,,,,,,,,,,,,,,,,,,,,,,,
,,,,,,5aa83a71f6dfdd0001eb1690,2024-02-08_16h02.30.492,group3.1-3.2-social-tom,2023.2.2,MacIntel,128.2051282,65c5074098b851296ff0b7ed,65c541564e257756d7946f83,,,,,,,,,,,,,,,,,,,,,,,,,,,,,285.6751,1,audio/Narrative8Situation3.wav,289.6808,,289.6813,312.0467,"[[999,9],[999,98],[999,190],[999,281],[999,372],[999,465],[999,557],[999,648],[999,740],[999,832],[999,923],[999,1015],[999,1106],[999,1197],[999,1290],[999,1382],[999,1472],[999,1565],[999,1656],[999,1748],[999,1841],[999,1932],[999,2023],[999,2115],[999,2207],[999,2298],[999,2390],[999,2482],[999,2573],[999,2665],[999,2759],[999,2849],[999,2940],[999,3031],[999,3123],[999,3214],[999,3307],[999,3398],[999,3492],[999,3581],[999,3673],[999,3765],[999,3857],[999,3948],[999,4040],[999,4141],[999,4224],[999,4317],[999,4406],[999,4498],[999,4590],[999,4682],[999,4772],[999,4872],[999,4965],[999,5057],[999,5148],[999,5240],[999,5333],[999,5423],[999,5515],[999,5606],[999,5698],[999,5790],[999,5882],[999,5976],[999,6065],[999,6156],[999,6249],[999,6340],[999,6432],[999,6523],[999,6617],[999,6706],[999,6799],[999,6889],[999,6982],[999,7073],[999,7166],[999,7259],[999,7350],[999,7439],[999,7531],[999,7623],[999,7715],[999,7807],[999,7900],[999,7989],[999,8081],[999,8173],[999,8266],[999,8357],[999,8452],[999,8542],[999,8632],[999,8726],[999,8816],[999,8906],[999,8999],[999,9090],[999,9183],[999,9274],[999,9368],[999,9456],[999,9548],[999,9640],[999,9732],[999,9823],[999,9915],[999,10009],[999,10098],[999,10196],[999,10284],[999,10382],[999,10474],[999,10566],[999,10656],[999,10748],[999,10840],[999,10935],[999,11023],[999,11115],[999,11206],[999,11298],[999,11391],[999,11481],[999,11573],[999,11667],[999,11756],[999,11848],[999,11940],[999,12032],[999,12122],[999,12215],[999,12306],[999,12398],[999,12490],[999,12581],[999,12673],[999,12765],[999,12856],[999,12948],[999,13039],[999,13131],[999,13222],[999,13317],[999,13406],[999,13498],[999,13590],[999,13685],[999,13773],[999,13866],[999,13959],[999,14048],[999,14140],[999,14232],[999,14323],[999,14415],[999,14506],[999,14600],[999,14690],[999,14784],[999,14873],[999,14965],[999,15056],[999,15148],[999,15240],[999,15331],[999,15425],[999,15515],[999,15607],[999,15698],[999,15790],[999,15881],[999,15973],[999,16065],[999,16156],[999,16250],[999,16340],[999,16432],[999,16523],[999,16617],[999,16706],[999,16799],[999,16890],[999,16982],[999,17073],[999,17166],[999,17258],[999,17348],[999,17440],[999,17532],[999,17623],[999,17715],[999,17807],[999,17898],[999,17990],[999,18081],[999,18180],[999,18267],[999,18365],[999,18447],[999,18542],[999,18633],[999,18723],[999,18815],[999,18906],[999,19007],[999,19098],[999,19189],[999,19281],[999,19373],[999,19464],[999,19563],[999,19657],[999,19756],[999,19848],[999,19939],[999,20033],[999,20123],[999,20215],[999,20308],[999,20398],[999,20494],[999,20582],[999,20673],[999,20765],[999,20858],[999,20953],[999,21040],[999,21131],[999,21223],[999,21315],[999,21406],[999,21498],[999,21590],[999,21687],[999,21773],[999,21866],[999,21956],[999,22048],[999,22139],[999,22231],[999,22322]]",1,0,312.047,312.7297,61.874924,0.4603,"[{""rating"":61.874924002918284,""responseTime"":0.4602999999523263}]",space,0.1585,,312.7297,Not at all,0,312.7319,,,[],,0,12,12,12,1,audio/Narrative8Situation3.wav,audio/Narrative7Situation3.wav,audio/Narrative6Situation3.wav,audio/Narrative5Situation3.wav,4,8,5,3,,,,,,,,,,,,,,,,,,,,,,,,,,,,,,,,,,,,,,,
,,,,,,5aa83a71f6dfdd0001eb1690,2024-02-08_16h02.30.492,group3.1-3.2-social-tom,2023.2.2,MacIntel,128.2051282,65c5074098b851296ff0b7ed,65c541564e257756d7946f83,,,,,,,,,,,,,,,,,,,,,,,,,,,,,312.7321,1,audio/Narrative8Situation4.wav,315.7379,,315.7379,329.8883,"[[999,0],[999,91],[999,184],[999,274],[999,366],[999,460],[999,552],[999,642],[999,738],[999,827],[999,920],[999,1016],[999,1108],[999,1199],[999,1291],[999,1382],[999,1474],[999,1567],[999,1657],[999,1751],[999,1841],[999,1944],[999,2033],[999,2125],[999,2225],[999,2325],[999,2417],[999,2515],[999,2600],[999,2698],[999,2784],[999,2883],[999,2974],[999,3069],[999,3161],[999,3334],[999,3424],[999,3548],[999,3633],[999,3728],[999,3820],[999,3907],[999,4000],[999,4091],[999,4184],[999,4279],[999,4372],[999,4459],[999,4558],[999,4650],[999,4741],[999,4834],[999,4926],[999,5016],[999,5108],[999,5200],[999,5291],[999,5383],[999,5475],[999,5566],[999,5665],[999,5750],[999,5842],[999,5933],[999,6032],[999,6116],[999,6208],[999,6300],[999,6392],[999,6483],[999,6575],[999,6672],[999,6758],[999,6850],[999,6941],[999,7033],[999,7128],[999,7217],[999,7311],[999,7399],[999,7492],[999,7583],[999,7675],[999,7766],[999,7858],[999,7951],[999,8041],[999,8133],[999,8225],[999,8316],[999,8408],[999,8500],[999,8592],[999,8684],[999,8777],[999,8867],[999,8959],[999,9050],[999,9142],[999,9234],[999,9325],[999,9416],[999,9508],[999,9603],[999,9691],[999,9783],[999,9875],[999,9966],[999,10058],[999,10150],[999,10245],[999,10333],[999,10425],[999,10516],[999,10609],[999,10701],[999,10792],[999,10883],[999,10975],[999,11071],[999,11158],[999,11251],[999,11342],[999,11433],[999,11525],[999,11616],[999,11708],[999,11800],[999,11892],[999,11984],[999,12075],[999,12166],[999,12258],[999,12350],[999,12442],[999,12535],[999,12625],[999,12716],[999,12809],[999,12900],[999,12992],[999,13083],[999,13177],[999,13268],[999,13359],[999,13450],[999,13542],[999,13633],[999,13731],[999,13817],[999,13908],[999,14000],[999,14091]]",1,0,329.8883,332.4015,58.3646188,1.4407,"[{""rating"":58.36461879863813,""responseTime"":1.4407000000476842}]",space,1.9881,,332.4016,Half the time,50,332.4038,,,[],,0,13,13,13,1,audio/Narrative8Situation4.wav,audio/Narrative7Situation4.wav,audio/Narrative6Situation4.wav,audio/Narrative5Situation4.wav,3,3,2,1,,,,,,,,,,,,,,,,,,,,,,,,,,,,,,,,,,,,,,,
,,,,,,5aa83a71f6dfdd0001eb1690,2024-02-08_16h02.30.492,group3.1-3.2-social-tom,2023.2.2,MacIntel,128.2051282,65c5074098b851296ff0b7ed,65c541564e257756d7946f83,,,,,,,,,,,,,,,,,,,,,,,,,,,,,332.404,1,audio/Narrative8Situation5.wav,334.4063,,334.4063,342.6379,"[[999,0],[999,90],[999,180],[999,273],[999,367],[999,456],[999,548],[999,640],[999,731],[999,824],[999,914],[999,1006],[999,1098],[999,1190],[999,1281],[999,1373],[999,1464],[999,1556],[999,1648],[999,1747],[999,1839],[999,1931],[999,2023],[999,2114],[999,2206],[999,2299],[999,2390],[999,2486],[999,2573],[999,2664],[999,2756],[999,2848],[999,2941],[999,3031],[999,3123],[999,3214],[999,3309],[999,3397],[999,3490],[999,3582],[999,3681],[999,3773],[999,3874],[999,3964],[999,4056],[999,4151],[999,4244],[999,4333],[999,4423],[999,4515],[999,4607],[999,4698],[999,4790],[999,4882],[999,4975],[999,5066],[999,5156],[999,5248],[999,5339],[999,5431],[999,5524],[999,5615],[999,5706],[999,5798],[999,5891],[999,5983],[999,6074],[999,6165],[999,6256],[999,6347],[999,6439],[999,6531],[999,6623],[999,6714],[999,6806],[999,6897],[999,6989],[999,7081],[999,7172],[999,7264],[999,7357],[999,7448],[999,7539],[999,7632],[999,7723],[999,7815],[999,7907],[999,7999],[999,8090],[999,8181]]",1,0,342.638,344.3798,64.8201909,1.2937,"[{""rating"":64.82019090466926,""responseTime"":1.2936999999284922}]",space,1.2188,,344.3799,All the time,100,344.3836,,,[],,0,14,14,14,1,audio/Narrative8Situation5.wav,audio/Narrative7Situation5.wav,audio/Narrative6Situation5.wav,audio/Narrative5Situation5.wav,2,5,2,5,,,,,,,,,,,,,,,,,,,,,,,,,,,,,,,,,,,,,,,
,,,,,,5aa83a71f6dfdd0001eb1690,2024-02-08_16h02.30.492,group3.1-3.2-social-tom,2023.2.2,MacIntel,128.2051282,65c5074098b851296ff0b7ed,65c541564e257756d7946f83,,,,,,,,,,,,,,,,,,,,,,,,,,,,,344.3838,1,audio/Narrative8Situation6.wav,346.3883,,346.3883,352.8466,"[[999,1],[999,91],[999,183],[999,277],[999,366],[999,458],[999,550],[999,641],[999,732],[999,824],[999,916],[999,1010],[999,1102],[999,1191],[999,1283],[999,1374],[999,1467],[999,1558],[999,1649],[999,1740],[999,1833],[999,1924],[999,2016],[999,2108],[999,2200],[999,2291],[999,2382],[999,2475],[999,2573],[999,2658],[999,2749],[999,2843],[999,2933],[999,3027],[999,3116],[999,3208],[999,3300],[999,3393],[999,3482],[999,3574],[999,3666],[999,3765],[999,3857],[999,3949],[999,4041],[999,4132],[999,4224],[999,4316],[999,4408],[999,4500],[999,4591],[999,4687],[999,4774],[999,4866],[999,4957],[999,5049],[999,5141],[999,5232],[999,5324],[999,5416],[999,5508],[999,5599],[999,5695],[999,5782],[999,5874],[999,5966],[999,6057],[999,6150],[999,6241],[999,6334],[999,6424]]",1,0,352.8468,354.2457,66.2994741,1.1489,"[{""rating"":66.29947410019456,""responseTime"":1.1488999999761518}]",space,0.8848,,354.2457,Half the time,50,354.2484,,,[],,0,15,15,15,1,audio/Narrative8Situation6.wav,audio/Narrative7Situation6.wav,audio/Narrative6Situation6.wav,audio/Narrative5Situation6.wav,2,3,2,3,,,,,,,,,,,,,,,,,,,,,,,,,,,,,,,,,,,,,,,
,,,,,,5aa83a71f6dfdd0001eb1690,2024-02-08_16h02.30.492,group3.1-3.2-social-tom,2023.2.2,MacIntel,128.2051282,65c5074098b851296ff0b7ed,65c541564e257756d7946f83,,,,,,,,,,,,,,,,,,,,,,,,,,,,,354.2486,1,audio/Narrative8Situation7.wav,357.2591,,357.2591,369.33,"[[999,8],[999,96],[999,186],[999,277],[999,371],[999,462],[999,553],[999,645],[999,738],[999,836],[999,928],[999,1023],[999,1112],[999,1204],[999,1295],[999,1388],[999,1478],[999,1572],[999,1663],[999,1756],[999,1845],[999,1937],[999,2028],[999,2120],[999,2212],[999,2304],[999,2395],[999,2488],[999,2578],[999,2670],[999,2762],[999,2853],[999,2944],[999,3038],[999,3136],[999,3228],[999,3322],[999,3411],[999,3504],[999,3595],[999,3687],[999,3778],[999,3869],[999,3961],[999,4053],[999,4147],[999,4237],[999,4331],[999,4428],[999,4520],[999,4612],[999,4703],[999,4795],[999,4886],[999,4979],[999,5070],[999,5162],[999,5253],[999,5345],[999,5437],[999,5528],[999,5620],[999,5712],[999,5803],[999,5895],[999,5987],[999,6079],[999,6170],[999,6262],[999,6353],[999,6445],[999,6538],[999,6632],[999,6720],[999,6812],[999,6903],[999,6995],[999,7086],[999,7178],[999,7274],[999,7361],[999,7454],[999,7546],[999,7637],[999,7728],[999,7820],[999,7914],[999,8003],[999,8096],[999,8187],[999,8278],[999,8370],[999,8461],[999,8553],[999,8645],[999,8736],[999,8828],[999,8921],[999,9012],[999,9103],[999,9195],[999,9287],[999,9378],[999,9470],[999,9563],[999,9655],[999,9746],[999,9837],[999,9930],[999,10019],[999,10111],[999,10204],[999,10303],[999,10396],[999,10486],[999,10578],[999,10671],[999,10767],[999,10855],[999,10945],[999,11037],[999,11128],[999,11220],[999,11312],[999,11403],[999,11495],[999,11587],[999,11679],[999,11772],[999,11861],[999,11960],[999,12045]]",1,0,369.3301,370.8603,59.5649927,1.1902,"[{""rating"":59.56499270428015,""responseTime"":1.190200000047696}]",space,1.0135,,370.8604,Half the time,50,370.8614,,,[],,0,16,16,16,1,audio/Narrative8Situation7.wav,audio/Narrative7Situation7.wav,audio/Narrative6Situation7.wav,audio/Narrative5Situation7.wav,3,5,5,4,,,,,,,,,,,,,,,,,,,,,,,,,,,,,,,,,,,,,,,
,,,,,,5aa83a71f6dfdd0001eb1690,2024-02-08_16h02.30.492,group3.1-3.2-social-tom,2023.2.2,MacIntel,128.2051282,65c5074098b851296ff0b7ed,65c541564e257756d7946f83,,,,,,,,,,,,,,,,,,,,,,,,,,,,,370.8615,1,audio/Narrative8Situation8.wav,373.8669,,373.867,386.7044,"[[999,8],[999,98],[999,191],[999,282],[999,375],[999,467],[999,558],[999,649],[999,741],[999,833],[999,924],[999,1016],[999,1108],[999,1200],[999,1291],[999,1387],[999,1475],[999,1566],[999,1658],[999,1750],[999,1841],[999,1933],[999,2025],[999,2118],[999,2208],[999,2300],[999,2391],[999,2484],[999,2575],[999,2666],[999,2759],[999,2850],[999,2941],[999,3037],[999,3130],[999,3230],[999,3321],[999,3415],[999,3504],[999,3597],[999,3687],[999,3782],[999,3876],[999,3962],[999,4054],[999,4147],[999,4239],[999,4329],[999,4420],[999,4512],[999,4604],[999,4695],[999,4787],[999,4880],[999,4970],[999,5062],[999,5154],[999,5245],[999,5339],[999,5429],[999,5521],[999,5612],[999,5704],[999,5795],[999,5887],[999,5980],[999,6079],[999,6170],[999,6262],[999,6354],[999,6445],[999,6537],[999,6629],[999,6720],[999,6813],[999,6903],[999,6995],[999,7086],[999,7182],[999,7270],[999,7362],[999,7454],[999,7546],[999,7637],[999,7728],[999,7820],[999,7912],[999,8004],[999,8095],[999,8187],[999,8279],[999,8370],[999,8462],[999,8553],[999,8645],[999,8737],[999,8829],[999,8920],[999,9012],[999,9104],[999,9195],[999,9287],[999,9379],[999,9469],[999,9563],[999,9654],[999,9752],[999,9845],[999,9937],[999,10028],[999,10120],[999,10212],[999,10304],[999,10395],[999,10488],[999,10578],[999,10670],[999,10762],[999,10853],[999,10945],[999,11036],[999,11128],[999,11221],[999,11312],[999,11404],[999,11495],[999,11587],[999,11678],[999,11770],[999,11862],[999,11953],[999,12045],[999,12137],[999,12228],[999,12320],[999,12412],[999,12503],[999,12596],[999,12687],[999,12781]]",1,0,386.7045,388.921,62.51937926,2.0949,"[{""rating"":62.51937925583657,""responseTime"":2.094900000095322}]",space,1.6965,,388.921,All the time,100,388.9238,,,[],,0,17,17,17,1,audio/Narrative8Situation8.wav,audio/Narrative7Situation8.wav,audio/Narrative6Situation8.wav,audio/Narrative5Situation8.wav,3,2,5,3,,,,,,,,,,,,,,,,,,,,,,,,,,,,,,,,,,,,,,,
,,,,,,5aa83a71f6dfdd0001eb1690,2024-02-08_16h02.30.492,group3.1-3.2-social-tom,2023.2.2,MacIntel,128.2051282,65c5074098b851296ff0b7ed,65c541564e257756d7946f83,,,,,,,,,,,,,,,,,,,,,,,,,,,,,388.924,1,audio/Narrative8Situation9.wav,391.9306,,391.9306,403.2294,"[[999,0],[999,90],[999,182],[999,273],[999,364],[999,458],[999,549],[999,640],[999,731],[999,823],[999,914],[999,1006],[999,1098],[999,1190],[999,1282],[999,1374],[999,1465],[999,1559],[999,1648],[999,1740],[999,1831],[999,1923],[999,2015],[999,2106],[999,2198],[999,2290],[999,2382],[999,2475],[999,2565],[999,2658],[999,2747],[999,2840],[999,2933],[999,3031],[999,3123],[999,3215],[999,3307],[999,3398],[999,3490],[999,3581],[999,3673],[999,3765],[999,3856],[999,3949],[999,4040],[999,4132],[999,4223],[999,4315],[999,4407],[999,4498],[999,4590],[999,4682],[999,4773],[999,4865],[999,4956],[999,5048],[999,5140],[999,5232],[999,5323],[999,5415],[999,5507],[999,5599],[999,5690],[999,5781],[999,5873],[999,5965],[999,6055],[999,6148],[999,6243],[999,6331],[999,6423],[999,6515],[999,6606],[999,6698],[999,6789],[999,6881],[999,6974],[999,7065],[999,7156],[999,7248],[999,7340],[999,7432],[999,7523],[999,7615],[999,7707],[999,7798],[999,7890],[999,7982],[999,8074],[999,8165],[999,8257],[999,8348],[999,8440],[999,8531],[999,8623],[999,8715],[999,8806],[999,8900],[999,8990],[999,9081],[999,9176],[999,9265],[999,9357],[999,9448],[999,9540],[999,9632],[999,9723],[999,9815],[999,9906],[999,9999],[999,10090],[999,10181],[999,10273],[999,10365],[999,10458],[999,10548],[999,10640],[999,10733],[999,10822],[999,10922],[999,11015],[78.8,11106],[78.5,11198],[74.8,11289]]",1,0,403.2296,404.4294,69.56278879,0.2733,"[{""rating"":69.56278878891051,""responseTime"":0.27329999995231447}]",space,0.6728,,404.4295,All the time,100,404.4331,,,[],,0,18,18,18,1,audio/Narrative8Situation9.wav,audio/Narrative7Situation9.wav,audio/Narrative6Situation9.wav,audio/Narrative5Situation9.wav,3,2,4,3,,,,,,,,,,,,,,,,,,,,,,,,,,,,,,,,,,,,,,,
,,,,,,5aa83a71f6dfdd0001eb1690,2024-02-08_16h02.30.492,group3.1-3.2-social-tom,2023.2.2,MacIntel,128.2051282,65c5074098b851296ff0b7ed,65c541564e257756d7946f83,,,,,,,,,,,,,,,,,,,,,,,,,,,407.8253,410.3966,410.4109,2,audio/Narrative13Situation2.wav,410.411,,410.4111,440.1536,"[[71,1004]]",1,0,440.1536,440.1613,,,[],,,,440.1613,Not at all,0,440.1622,,,[],,0,0,0,0,1,audio/Narrative13Situation2.wav,audio/Narrative13Situation2.wav,audio/Narrative13Situation2.wav,audio/Narrative13Situation2.wav,2,2,2,2,,,,,404.4338,407.815,space,2.8723,,,,,,,,,,,,,,,,,,,,,,,,,,,,,,,
,,,,,,5aa83a71f6dfdd0001eb1690,2024-02-08_16h02.30.492,group3.1-3.2-social-tom,2023.2.2,MacIntel,128.2051282,65c5074098b851296ff0b7ed,65c541564e257756d7946f83,,,,,,,,,,,,,,,,,,,,,,,,,,,,,440.1623,2,audio/Narrative5Situation1.wav,445.1706,,445.1707,458.4373,"[[999,0],[999,93],[999,183],[999,275],[999,367],[999,460],[999,548],[999,641],[999,733],[999,828],[999,916],[999,1007],[999,1100],[999,1197],[999,1283],[999,1383],[999,1475],[999,1569],[999,1657],[999,1749],[999,1844],[999,1934],[999,2024],[999,2115],[999,2208],[999,2300],[999,2393],[999,2483],[999,2574],[999,2665],[999,2758],[999,2849],[999,2941],[999,3033],[999,3124],[999,3216],[999,3308],[999,3400],[999,3496],[999,3582],[999,3684],[999,3774],[999,3875],[999,3966],[999,4059],[999,4150],[999,4247],[999,4332],[999,4429],[999,4516],[999,4608],[999,4702],[999,4791],[999,4883],[999,4977],[999,5071],[999,5160],[999,5251],[999,5341],[999,5433],[999,5528],[999,5616],[999,5707],[999,5800],[999,5891],[999,5983],[999,6074],[999,6166],[999,6258],[999,6349],[999,6442],[999,6532],[999,6623],[999,6716],[999,6808],[999,6899],[999,6992],[999,7091],[999,7182],[999,7275],[999,7366],[999,7458],[999,7552],[999,7643],[999,7733],[999,7824],[999,7916],[999,8007],[999,8101],[999,8191],[999,8283],[999,8374],[999,8472],[999,8558],[999,8650],[999,8740],[999,8833],[999,8926],[999,9016],[999,9110],[999,9199],[999,9293],[999,9383],[999,9476],[999,9565],[999,9663],[999,9750],[999,9841],[999,9933],[999,10024],[999,10116],[999,10208],[999,10300],[999,10392],[999,10483],[999,10574],[999,10666],[999,10757],[999,10849],[999,10941],[999,11033],[999,11125],[999,11216],[999,11308],[999,11401],[999,11491],[999,11583],[999,11675],[999,11766],[999,11860],[999,11949],[999,12045],[999,12132],[999,12224],[999,12315],[999,12408],[999,12499],[999,12591],[999,12682],[999,12774],[999,12869],[999,12958],[999,13048],[999,13141],[999,13233]]",1,0,458.4374,460.7294,75.74591136,1.576,"[{""rating"":75.74591135700389,""responseTime"":1.575999999999965}]",space,1.78,,460.7294,Half the time,50,460.7323,,,[],,0,1,1,1,1,audio/Narrative7Situation1.wav,audio/Narrative8Situation1.wav,audio/Narrative5Situation1.wav,audio/Narrative6Situation1.wav,2,5,5,2,,,,,,,,,,,,,,,,,,,,,,,,,,,,,,,,,,,,,,,
,,,,,,5aa83a71f6dfdd0001eb1690,2024-02-08_16h02.30.492,group3.1-3.2-social-tom,2023.2.2,MacIntel,128.2051282,65c5074098b851296ff0b7ed,65c541564e257756d7946f83,,,,,,,,,,,,,,,,,,,,,,,,,,,,,460.7327,2,audio/Narrative5Situation2.wav,463.7374,,463.7375,493.1785,"[[999,0],[999,91],[999,183],[999,274],[999,366],[999,458],[999,549],[999,641],[999,733],[999,825],[999,916],[999,1007],[999,1099],[999,1191],[999,1291],[999,1382],[999,1474],[999,1566],[999,1658],[999,1750],[999,1843],[999,1945],[999,2033],[999,2130],[999,2216],[999,2307],[999,2399],[999,2507],[999,2599],[999,2691],[999,2782],[999,2882],[999,2974],[999,3074],[999,3165],[999,3257],[999,3349],[999,3441],[999,3540],[999,3632],[999,3724],[999,3832],[999,3932],[999,4024],[999,4116],[999,4216],[999,4307],[999,4405],[999,4490],[999,4582],[999,4674],[999,4766],[999,4858],[999,4949],[999,5041],[999,5133],[999,5224],[999,5316],[999,5406],[999,5499],[999,5591],[999,5682],[999,5774],[999,5866],[999,5958],[999,6051],[999,6142],[999,6242],[999,6334],[999,6429],[999,6520],[999,6612],[999,6711],[999,6795],[999,6895],[999,6987],[999,7093],[999,7178],[999,7269],[999,7369],[999,7469],[999,7562],[999,7657],[999,7753],[999,7845],[999,7937],[999,8036],[999,8129],[999,8228],[999,8326],[999,8419],[999,8511],[999,8603],[999,8695],[999,8786],[999,8878],[999,8971],[999,9062],[999,9154],[999,9249],[999,9337],[999,9428],[999,9522],[999,9614],[999,9704],[999,9795],[999,9887],[999,9978],[999,10070],[999,10164],[999,10269],[999,10386],[999,10478],[999,10584],[999,10670],[999,10763],[999,10853],[999,10945],[999,11037],[999,11129],[999,11220],[999,11312],[999,11403],[999,11495],[999,11587],[999,11678],[999,11770],[999,11862],[999,11953],[999,12053],[999,12139],[999,12228],[999,12320],[999,12412],[999,12503],[999,12603],[999,12697],[999,12795],[999,12887],[999,12979],[999,13070],[999,13162],[999,13253],[999,13345],[999,13436],[999,13530],[999,13620],[999,13715],[999,13804],[999,13895],[999,13987],[999,14078],[999,14170],[999,14262],[999,14355],[999,14445],[999,14542],[999,14628],[999,14722],[999,14811],[999,14903],[999,14995],[999,15086],[999,15178],[999,15270],[999,15362],[999,15454],[999,15545],[999,15636],[999,15728],[999,15820],[999,15911],[999,16004],[999,16095],[999,16186],[999,16278],[999,16371],[999,16461],[999,16553],[999,16645],[999,16737],[999,16828],[999,16920],[999,17011],[999,17103],[999,17195],[999,17286],[999,17378],[999,17470],[999,17561],[999,17653],[999,17745],[999,17836],[999,17928],[999,18020],[999,18111],[999,18203],[999,18295],[999,18386],[999,18478],[999,18566],[999,18657],[999,18749],[999,18841],[999,18933],[999,19024],[999,19116],[999,19207],[999,19299],[999,19390],[999,19483],[999,19575],[999,19665],[999,19757],[999,19849],[999,19940],[999,20033],[999,20124],[999,20216],[999,20307],[999,20398],[999,20491],[999,20582],[999,20674],[999,20766],[999,20857],[999,20948],[999,21040],[999,21132],[999,21225],[999,21316],[999,21407],[999,21499],[999,21591],[999,21684],[999,21774],[999,21866],[999,21957],[999,22049],[999,22141],[999,22232],[999,22325],[999,22416],[999,22508],[999,22599],[999,22691],[999,22782],[999,22874],[999,22965],[999,23057],[999,23151],[999,23241],[999,23332],[999,23424],[999,23515],[999,23607],[999,23699],[999,23792],[999,23882],[999,23983],[999,24075],[999,24165],[999,24257],[999,24348],[999,24440],[999,24532],[999,24626],[999,24716],[999,24807],[999,24899],[999,24990],[999,25082],[999,25174],[999,25266],[999,25357],[999,25459],[999,25549],[999,25641],[999,25732],[999,25824],[999,25916],[999,26007],[999,26099],[999,26191],[999,26282],[999,26374],[999,26465],[999,26557],[999,26649],[999,26741],[999,26832],[999,26925],[999,27016],[999,27107],[999,27198],[999,27291],[999,27382],[999,27474],[999,27566],[999,27658],[999,27749],[999,27841],[999,27932],[999,28024],[999,28115],[999,28207],[999,28299],[999,28390],[999,28482],[999,28575],[999,28666],[999,28757],[999,28849],[999,28941],[999,29032],[999,29124],[999,29216],[999,29307],[999,29399]]",1,0,493.1786,494.6228,61.44098067,1.174,"[{""rating"":61.44098066634241,""responseTime"":1.1739999999999782}]",space,0.9182,,494.6228,All the time,100,494.6251,,,[],,0,2,2,2,1,audio/Narrative7Situation2.wav,audio/Narrative8Situation2.wav,audio/Narrative5Situation2.wav,audio/Narrative6Situation2.wav,3,3,3,3,,,,,,,,,,,,,,,,,,,,,,,,,,,,,,,,,,,,,,,
,,,,,,5aa83a71f6dfdd0001eb1690,2024-02-08_16h02.30.492,group3.1-3.2-social-tom,2023.2.2,MacIntel,128.2051282,65c5074098b851296ff0b7ed,65c541564e257756d7946f83,,,,,,,,,,,,,,,,,,,,,,,,,,,,,494.6253,2,audio/Narrative5Situation3.wav,497.6285,,497.6285,511.5206,"[[999,7],[999,91],[999,183],[999,275],[999,366],[999,459],[999,549],[999,641],[999,733],[999,825],[999,916],[999,1008],[999,1100],[999,1191],[999,1283],[999,1375],[999,1466],[999,1557],[999,1650],[999,1741],[999,1834],[999,1925],[999,2017],[999,2108],[999,2200],[999,2291],[999,2383],[999,2474],[999,2567],[999,2657],[999,2750],[999,2841],[999,2933],[999,3024],[999,3118],[999,3208],[999,3299],[999,3392],[999,3483],[999,3574],[999,3666],[999,3758],[999,3849],[999,3941],[999,4033],[999,4125],[999,4216],[999,4308],[999,4403],[999,4491],[999,4583],[999,4675],[999,4765],[999,4858],[999,4950],[999,5042],[999,5133],[999,5225],[999,5316],[999,5408],[999,5499],[999,5591],[999,5683],[999,5774],[999,5865],[999,5958],[999,6049],[999,6141],[999,6233],[999,6324],[999,6417],[999,6507],[999,6599],[999,6691],[999,6783],[999,6875],[999,6966],[999,7058],[999,7149],[999,7241],[999,7333],[999,7424],[999,7516],[999,7607],[999,7699],[999,7790],[999,7883],[999,7975],[999,8067],[999,8159],[999,8250],[999,8341],[999,8433],[999,8524],[999,8616],[999,8708],[999,8799],[999,8900],[999,8991],[999,9083],[999,9175],[999,9266],[999,9358],[999,9450],[999,9541],[999,9633],[999,9724],[999,9816],[999,9908],[999,9999],[999,10091],[999,10183],[999,10274],[999,10366],[999,10458],[999,10550],[999,10641],[999,10733],[999,10825],[999,10916],[999,11008],[999,11100],[999,11191],[999,11283],[999,11375],[999,11466],[999,11557],[999,11649],[999,11741],[999,11833],[999,11924],[999,12016],[999,12108],[999,12199],[999,12291],[999,12383],[999,12475],[999,12566],[999,12658],[999,12749],[999,12841],[999,12933],[999,13024],[999,13116],[999,13208],[999,13299],[999,13390],[999,13483],[999,13576],[999,13666],[999,13758],[999,13850]]",1,0,511.5207,514.0955,41.15545963,1.9134,"[{""rating"":41.155459630350194,""responseTime"":1.9134000000954074}]",space,2.0563,,514.0956,Not at all,0,514.0983,,,[],,0,3,3,3,1,audio/Narrative7Situation3.wav,audio/Narrative8Situation3.wav,audio/Narrative5Situation3.wav,audio/Narrative6Situation3.wav,8,4,3,5,,,,,,,,,,,,,,,,,,,,,,,,,,,,,,,,,,,,,,,
,,,,,,5aa83a71f6dfdd0001eb1690,2024-02-08_16h02.30.492,group3.1-3.2-social-tom,2023.2.2,MacIntel,128.2051282,65c5074098b851296ff0b7ed,65c541564e257756d7946f83,,,,,,,,,,,,,,,,,,,,,,,,,,,,,514.0985,2,audio/Narrative5Situation4.wav,515.1034,,515.1036,535.4786,"[[999,0],[999,91],[999,183],[999,274],[999,367],[999,458],[999,549],[999,641],[999,734],[999,825],[999,916],[999,1009],[999,1100],[999,1191],[999,1283],[999,1374],[999,1468],[999,1559],[999,1649],[999,1741],[999,1833],[999,1924],[999,2016],[999,2111],[999,2199],[999,2291],[999,2383],[999,2475],[999,2566],[999,2658],[999,2751],[999,2841],[999,2933],[999,3024],[999,3119],[999,3209],[999,3300],[999,3391],[999,3483],[999,3575],[999,3666],[999,3763],[999,3850],[999,3941],[999,4033],[999,4125],[999,4216],[999,4308],[999,4403],[999,4491],[999,4583],[999,4674],[999,4766],[999,4858],[999,4949],[999,5043],[999,5133],[999,5224],[999,5316],[999,5408],[999,5499],[999,5591],[999,5684],[999,5775],[999,5866],[999,5958],[999,6049],[999,6141],[999,6234],[999,6324],[999,6416],[999,6508],[999,6600],[999,6691],[999,6783],[999,6875],[999,6965],[999,7057],[999,7149],[999,7241],[999,7334],[999,7424],[999,7518],[999,7608],[999,7700],[999,7791],[999,7883],[999,7975],[999,8066],[999,8158],[999,8250],[999,8341],[999,8433],[999,8524],[999,8618],[999,8708],[999,8799],[999,8891],[999,8983],[999,9074],[999,9168],[999,9259],[999,9351],[999,9441],[999,9533],[999,9624],[999,9716],[999,9808],[999,9901],[999,9990],[999,10083],[999,10182],[999,10266],[999,10358],[999,10450],[999,10541],[999,10633],[999,10726],[999,10816],[999,10908],[999,10999],[999,11092],[999,11183],[999,11274],[999,11367],[999,11458],[999,11549],[999,11641],[999,11733],[999,11825],[999,11919],[999,12008],[999,12100],[999,12191],[999,12283],[999,12379],[999,12466],[999,12566],[999,12658],[999,12749],[999,12841],[999,12941],[999,13032],[999,13124],[999,13216],[999,13307],[999,13400],[999,13491],[999,13582],[999,13674],[999,13766],[999,13858],[999,13949],[999,14041],[999,14132],[999,14224],[999,14316],[999,14408],[999,14499],[999,14591],[999,14684],[999,14775],[999,14866],[999,14957],[999,15048],[999,15143],[999,15232],[999,15324],[999,15415],[999,15508],[999,15599],[999,15691],[999,15783],[999,15874],[999,15966],[999,16057],[999,16148],[999,16241],[999,16332],[999,16424],[999,16515],[999,16607],[999,16700],[999,16791],[999,16883],[999,16975],[999,17066],[999,17157],[999,17249],[999,17341],[999,17435],[999,17524],[999,17616],[999,17707],[999,17812],[999,17899],[999,17991],[999,18085],[999,18174],[999,18265],[999,18357],[999,18449],[999,18541],[999,18633],[999,18725],[999,18817],[999,18907],[999,18999],[999,19091],[999,19182],[999,19274],[999,19366],[999,19458],[999,19549],[999,19641],[999,19732],[999,19823],[999,19916],[999,20007],[999,20100],[999,20191],[999,20282],[999,20374]]",1,0,535.4788,536.7439,59.23592534,1.0036,"[{""rating"":59.23592534046692,""responseTime"":1.00360000002388}]",space,0.7478,,536.7439,All the time,100,536.7448,,,[],,0,4,4,4,1,audio/Narrative7Situation4.wav,audio/Narrative8Situation4.wav,audio/Narrative5Situation4.wav,audio/Narrative6Situation4.wav,3,3,1,2,,,,,,,,,,,,,,,,,,,,,,,,,,,,,,,,,,,,,,,
,,,,,,5aa83a71f6dfdd0001eb1690,2024-02-08_16h02.30.492,group3.1-3.2-social-tom,2023.2.2,MacIntel,128.2051282,65c5074098b851296ff0b7ed,65c541564e257756d7946f83,,,,,,,,,,,,,,,,,,,,,,,,,,,,,536.7449,2,audio/Narrative5Situation5.wav,541.7451,,541.7451,557.1527,"[[999,7],[999,92],[999,183],[999,274],[999,369],[999,458],[999,550],[999,641],[999,741],[999,833],[999,924],[999,1016],[999,1108],[999,1200],[999,1291],[999,1384],[999,1473],[999,1572],[999,1657],[999,1750],[999,1841],[999,1933],[999,2024],[999,2116],[999,2208],[999,2302],[999,2390],[999,2486],[999,2575],[999,2666],[999,2758],[999,2849],[999,2941],[999,3033],[999,3124],[999,3216],[999,3308],[999,3399],[999,3491],[999,3583],[999,3674],[999,3766],[999,3859],[999,3951],[999,4041],[999,4133],[999,4224],[999,4316],[999,4407],[999,4502],[999,4591],[999,4683],[999,4774],[999,4865],[999,4958],[999,5055],[999,5142],[999,5233],[999,5324],[999,5416],[999,5507],[999,5599],[999,5691],[999,5784],[999,5874],[999,5966],[999,6059],[999,6150],[999,6241],[999,6333],[999,6425],[999,6517],[999,6608],[999,6699],[999,6796],[999,6883],[999,6975],[999,7067],[999,7158],[999,7251],[999,7340],[999,7433],[999,7524],[999,7616],[999,7708],[999,7799],[999,7894],[999,7983],[999,8074],[999,8166],[999,8258],[999,8349],[999,8441],[999,8534],[999,8624],[999,8716],[999,8808],[999,8899],[999,9000],[999,9091],[999,9183],[999,9277],[999,9366],[999,9457],[999,9549],[999,9641],[999,9733],[999,9824],[999,9916],[999,10008],[999,10099],[999,10191],[999,10283],[999,10374],[999,10466],[999,10557],[999,10649],[999,10741],[999,10837],[999,10924],[999,11017],[999,11108],[999,11199],[999,11291],[999,11382],[999,11482],[999,11575],[999,11666],[999,11766],[999,11866],[999,11958],[999,12049],[999,12141],[999,12233],[999,12324],[999,12416],[999,12508],[999,12599],[999,12691],[999,12791],[999,12883],[999,12974],[999,13065],[999,13158],[999,13257],[999,13349],[999,13443],[999,13533],[999,13624],[999,13724],[999,13816],[999,13908],[999,13999],[999,14091],[999,14183],[999,14274],[999,14367],[999,14458],[999,14549],[999,14641],[999,14733],[999,14824],[999,14917],[999,15008],[999,15099],[999,15191],[999,15283],[999,15374]]",1,0,557.1528,558.521,41.57230362,1.1007,"[{""rating"":41.572303623540854,""responseTime"":1.1007000000475955}]",space,0.848,,558.5211,All the time,100,558.5237,,,[],,0,5,5,5,1,audio/Narrative7Situation5.wav,audio/Narrative8Situation5.wav,audio/Narrative5Situation5.wav,audio/Narrative6Situation5.wav,5,2,5,2,,,,,,,,,,,,,,,,,,,,,,,,,,,,,,,,,,,,,,,
,,,,,,5aa83a71f6dfdd0001eb1690,2024-02-08_16h02.30.492,group3.1-3.2-social-tom,2023.2.2,MacIntel,128.2051282,65c5074098b851296ff0b7ed,65c541564e257756d7946f83,,,,,,,,,,,,,,,,,,,,,,,,,,,,,558.5241,2,audio/Narrative5Situation6.wav,561.5289,,561.529,567.1951,"[[999,9],[999,99],[999,190],[999,282],[999,373],[999,467],[999,559],[999,649],[999,740],[999,832],[999,923],[999,1016],[999,1107],[999,1199],[999,1290],[999,1383],[999,1474],[999,1565],[999,1657],[999,1749],[999,1840],[999,1932],[999,2023],[999,2116],[999,2208],[999,2298],[999,2391],[999,2482],[999,2574],[999,2666],[999,2757],[999,2854],[999,2940],[999,3032],[999,3124],[999,3215],[999,3307],[999,3399],[999,3492],[999,3582],[999,3674],[999,3766],[999,3857],[999,3949],[999,4041],[999,4132],[999,4224],[999,4315],[999,4407],[999,4498],[999,4592],[999,4685],[999,4774],[999,4865],[999,4957],[999,5049],[999,5143],[999,5233],[999,5324],[999,5415],[999,5510],[999,5598]]",1,0,567.1952,569.6113,29.87673273,2.2038,"[{""rating"":29.876732733463037,""responseTime"":2.2037999999522526}]",space,1.9021,,569.6115,All the time,100,569.6141,,,[],,0,6,6,6,1,audio/Narrative7Situation6.wav,audio/Narrative8Situation6.wav,audio/Narrative5Situation6.wav,audio/Narrative6Situation6.wav,3,2,3,2,,,,,,,,,,,,,,,,,,,,,,,,,,,,,,,,,,,,,,,
,,,,,,5aa83a71f6dfdd0001eb1690,2024-02-08_16h02.30.492,group3.1-3.2-social-tom,2023.2.2,MacIntel,128.2051282,65c5074098b851296ff0b7ed,65c541564e257756d7946f83,,,,,,,,,,,,,,,,,,,,,,,,,,,,,569.6143,2,audio/Narrative5Situation7.wav,573.6211,,573.623,594.6457,"[[999,8],[999,96],[999,188],[999,280],[999,371],[999,464],[999,554],[999,645],[999,739],[999,829],[999,921],[999,1013],[999,1109],[999,1197],[999,1287],[999,1381],[999,1470],[999,1563],[999,1654],[999,1749],[999,1841],[999,1934],[999,2021],[999,2120],[999,2204],[999,2296],[999,2388],[999,2480],[999,2572],[999,2664],[999,2761],[999,2846],[999,2939],[999,3032],[999,3122],[999,3213],[999,3305],[999,3405],[999,3497],[999,3591],[999,3682],[999,3770],[999,3863],[999,3955],[999,4047],[999,4138],[999,4228],[999,4324],[999,4423],[999,4513],[999,4605],[999,4696],[999,4788],[999,4879],[999,4971],[999,5063],[999,5156],[999,5249],[999,5339],[999,5430],[999,5524],[999,5616],[999,5707],[999,5797],[999,5889],[999,5980],[999,6073],[999,6163],[999,6255],[999,6346],[999,6439],[999,6529],[999,6622],[999,6716],[999,6805],[999,6897],[999,6988],[999,7079],[999,7171],[999,7263],[999,7355],[999,7446],[999,7538],[999,7629],[999,7722],[999,7813],[999,7908],[999,7997],[999,8087],[999,8179],[999,8272],[999,8363],[999,8455],[999,8548],[999,8638],[999,8730],[999,8823],[999,8913],[999,9007],[999,9096],[999,9188],[999,9280],[999,9374],[999,9464],[999,9555],[999,9649],[999,9738],[999,9830],[999,9923],[999,10012],[999,10104],[999,10196],[999,10289],[999,10380],[999,10471],[999,10565],[999,10655],[999,10747],[999,10839],[999,10929],[999,11021],[999,11112],[999,11205],[999,11298],[999,11399],[999,11493],[999,11580],[999,11672],[999,11763],[999,11855],[999,11946],[999,12038],[999,12130],[999,12221],[999,12314],[999,12404],[999,12496],[999,12591],[999,12679],[999,12771],[999,12863],[999,12954],[999,13047],[999,13138],[999,13232],[999,13321],[999,13413],[999,13509],[999,13597],[999,13689],[999,13779],[999,13870],[999,13963],[999,14063],[999,14154],[999,14247],[999,14339],[999,14431],[999,14521],[999,14613],[999,14706],[999,14797],[999,14892],[999,14981],[999,15081],[999,15163],[999,15254],[999,15347],[999,15446],[999,15546],[999,15637],[999,15730],[999,15824],[999,15914],[999,16004],[999,16096],[999,16188],[999,16280],[999,16371],[999,16462],[999,16555],[999,16646],[999,16742],[999,16832],[999,16924],[999,17014],[999,17107],[999,17196],[999,17288],[999,17396],[999,17496],[999,17588],[999,17679],[999,17771],[999,17863],[999,17954],[999,18046],[999,18140],[999,18231],[999,18323],[999,18413],[999,18514],[999,18604],[999,18697],[999,18788],[999,18887],[999,18980],[999,19072],[999,19165],[999,19256],[999,19346],[999,19437],[999,19529],[999,19621],[999,19715],[999,19812],[999,19904],[999,19997],[999,20088],[999,20179],[999,20271],[999,20367],[999,20455],[999,20546],[999,20637],[999,20731],[999,20824],[999,20913],[999,21005]]",1,0,594.6459,596.2955,37.28416829,1.4498,"[{""rating"":37.284168287937746,""responseTime"":1.4497999999523472}]",space,1.133,,596.2955,Half the time,50,596.2971,,,[],,0,7,7,7,1,audio/Narrative7Situation7.wav,audio/Narrative8Situation7.wav,audio/Narrative5Situation7.wav,audio/Narrative6Situation7.wav,5,3,4,5,,,,,,,,,,,,,,,,,,,,,,,,,,,,,,,,,,,,,,,
,,,,,,5aa83a71f6dfdd0001eb1690,2024-02-08_16h02.30.492,group3.1-3.2-social-tom,2023.2.2,MacIntel,128.2051282,65c5074098b851296ff0b7ed,65c541564e257756d7946f83,,,,,,,,,,,,,,,,,,,,,,,,,,,,,596.2974,2,audio/Narrative5Situation8.wav,599.3038,,599.3039,608.1126,"[[999,7],[999,98],[999,189],[999,282],[999,374],[999,465],[999,557],[999,649],[999,740],[999,832],[999,924],[999,1018],[999,1107],[999,1198],[999,1290],[999,1381],[999,1473],[999,1565],[999,1657],[999,1766],[999,1848],[999,1941],[999,2034],[999,2123],[999,2215],[999,2308],[999,2399],[999,2492],[999,2587],[999,2678],[999,2766],[999,2857],[999,2950],[999,3040],[999,3132],[999,3224],[999,3315],[999,3407],[999,3500],[999,3591],[999,3682],[999,3775],[999,3865],[999,3958],[999,4048],[999,4141],[999,4231],[999,4324],[999,4415],[999,4507],[999,4597],[999,4691],[999,4785],[999,4874],[999,4968],[999,5057],[999,5148],[999,5239],[999,5333],[999,5425],[999,5516],[999,5611],[999,5699],[999,5790],[999,5885],[999,5973],[999,6065],[999,6157],[999,6249],[999,6340],[999,6433],[999,6524],[999,6614],[999,6707],[999,6798],[999,6890],[999,6982],[999,7074],[999,7165],[999,7257],[999,7349],[999,7440],[999,7533],[999,7623],[999,7715],[999,7808],[999,7901],[999,7990],[999,8082],[999,8174],[999,8265],[999,8358],[999,8452],[999,8543],[999,8633],[999,8723]]",1,0,608.1126,609.9297,77.86774988,1.5992,"[{""rating"":77.86774987840467,""responseTime"":1.599200000047631}]",space,1.2983,,609.9297,Not at all,0,609.9311,,,[],,0,8,8,8,1,audio/Narrative7Situation8.wav,audio/Narrative8Situation8.wav,audio/Narrative5Situation8.wav,audio/Narrative6Situation8.wav,2,3,3,5,,,,,,,,,,,,,,,,,,,,,,,,,,,,,,,,,,,,,,,
,,,,,,5aa83a71f6dfdd0001eb1690,2024-02-08_16h02.30.492,group3.1-3.2-social-tom,2023.2.2,MacIntel,128.2051282,65c5074098b851296ff0b7ed,65c541564e257756d7946f83,,,,,,,,,,,,,,,,,,,,,,,,,,,,,609.9313,2,audio/Narrative5Situation9.wav,612.9364,,612.9365,652.4701,"[[999,11],[999,99],[999,191],[999,282],[999,374],[999,467],[999,557],[999,649],[999,740],[999,834],[999,924],[999,1016],[999,1108],[999,1198],[999,1291],[999,1382],[999,1474],[999,1566],[999,1657],[999,1749],[999,1841],[999,1932],[999,2024],[999,2116],[999,2208],[999,2299],[999,2390],[999,2483],[999,2574],[999,2665],[999,2758],[999,2849],[999,2941],[999,3033],[999,3124],[999,3216],[999,3307],[999,3404],[999,3490],[999,3584],[999,3681],[999,3776],[999,3866],[999,3956],[999,4050],[999,4141],[999,4234],[999,4328],[999,4417],[999,4507],[999,4600],[999,4691],[999,4786],[999,4874],[999,4966],[999,5057],[999,5151],[999,5244],[999,5333],[999,5424],[999,5516],[999,5607],[999,5699],[999,5791],[999,5885],[999,5975],[999,6066],[999,6162],[999,6251],[999,6342],[999,6433],[999,6527],[999,6616],[999,6710],[999,6806],[999,6899],[999,6991],[999,7082],[999,7176],[999,7266],[999,7359],[999,7449],[999,7541],[999,7633],[999,7724],[999,7815],[999,7910],[999,7999],[999,8091],[999,8183],[999,8274],[999,8366],[999,8457],[999,8550],[999,8641],[999,8732],[999,8824],[999,8916],[999,9008],[999,9099],[999,9190],[999,9284],[999,9374],[999,9467],[999,9557],[999,9648],[999,9741],[999,9833],[999,9925],[999,10016],[999,10108],[999,10199],[999,10290],[999,10382],[999,10474],[999,10566],[999,10657],[999,10749],[999,10843],[999,10934],[999,11024],[999,11117],[999,11207],[999,11299],[999,11391],[999,11482],[999,11574],[999,11666],[999,11757],[999,11849],[999,11941],[999,12033],[999,12125],[999,12217],[999,12307],[999,12400],[999,12491],[999,12583],[999,12674],[999,12765],[999,12858],[999,12949],[999,13047],[999,13133],[999,13224],[999,13316],[999,13407],[999,13499],[999,13591],[999,13683],[999,13774],[999,13865],[999,13957],[999,14050],[999,14142],[999,14233],[999,14324],[999,14420],[999,14514],[999,14599],[999,14691],[999,14782],[999,14875],[999,14969],[999,15057],[999,15150],[999,15241],[999,15333],[999,15424],[999,15516],[999,15611],[999,15700],[999,15799],[999,15899],[999,15990],[999,16084],[999,16174],[999,16267],[999,16361],[999,16449],[999,16543],[999,16632],[999,16724],[999,16815],[999,16909],[999,17000],[999,17091],[999,17181],[999,17275],[999,17365],[999,17465],[999,17558],[999,17657],[999,17761],[999,17852],[999,17941],[999,18032],[999,18124],[999,18216],[999,18307],[999,18399],[999,18491],[999,18582],[999,18676],[999,18765],[999,18858],[999,18957],[999,19051],[999,19143],[999,19240],[999,19332],[999,19425],[999,19517],[999,19607],[999,19701],[999,19790],[999,19882],[999,19974],[999,20066],[999,20157],[999,20254],[999,20347],[999,20432],[999,20524],[999,20618],[999,20707],[999,20800],[999,20894],[999,20982],[999,21077],[999,21166],[999,21256],[999,21349],[999,21441],[999,21535],[999,21625],[999,21716],[999,21807],[999,21899],[999,21991],[999,22082],[999,22175],[999,22266],[999,22358],[999,22449],[999,22541],[999,22632],[999,22724],[999,22816],[999,22911],[999,23001],[999,23094],[999,23182],[999,23274],[999,23366],[999,23457],[999,23565],[999,23657],[999,23750],[999,23841],[999,23932],[999,24024],[999,24115],[999,24207],[999,24299],[999,24390],[999,24487],[999,24574],[999,24668],[999,24757],[999,24857],[999,24961],[999,25049],[999,25140],[999,25235],[999,25324],[999,25416],[999,25509],[999,25599],[999,25691],[999,25782],[999,25875],[999,25966],[999,26057],[999,26149],[999,26241],[999,26332],[999,26424],[999,26516],[999,26607],[999,26699],[999,26791],[999,26882],[999,26974],[999,27067],[999,27157],[999,27250],[999,27341],[999,27433],[999,27526],[999,27616],[999,27707],[999,27798],[999,27894],[999,27982],[999,28074],[999,28167],[999,28257],[999,28349],[999,28440],[999,28532],[999,28625],[999,28716],[999,28807],[999,28902],[999,28992],[999,29081],[999,29176],[999,29266],[999,29359],[999,29449],[999,29541],[999,29632],[999,29724],[999,29816],[999,29910],[999,30000],[999,30090],[999,30181],[999,30278],[999,30365],[999,30456],[999,30549],[999,30640],[999,30732],[999,30824],[999,30917],[999,31007],[999,31101],[999,31191],[999,31282],[999,31374],[999,31466],[999,31557],[999,31649],[999,31742],[999,31833],[999,31924],[999,32016],[999,32107],[999,32199],[999,32290],[999,32383],[999,32474],[999,32566],[999,32657],[999,32749],[999,32840],[999,32933],[999,33024],[999,33116],[999,33207],[999,33299],[999,33392],[999,33482],[999,33576],[999,33674],[999,33766],[999,33860],[999,33950],[999,34041],[999,34133],[999,34224],[999,34316],[999,34407],[999,34499],[999,34591],[999,34682],[999,34774],[999,34868],[999,34957],[999,35049],[999,35141],[999,35232],[999,35324],[999,35416],[999,35507],[999,35600],[999,35691],[999,35790],[999,35884],[999,35975],[999,36069],[999,36158],[999,36249],[999,36343],[999,36437],[999,36525],[999,36616],[999,36707],[999,36799],[999,36891],[999,36982],[999,37073],[999,37174],[999,37272],[999,37358],[999,37453],[999,37546],[999,37632],[999,37724],[999,37816],[999,37918],[999,38008],[999,38099],[999,38190],[999,38282],[999,38375],[999,38467],[999,38556],[999,38649],[999,38741],[999,38832],[999,38924],[999,39015],[999,39107],[999,39198],[999,39299],[999,39390],[999,39482]]",1,0,652.4705,653.6331,60.43287938,0.9028,"[{""rating"":60.4328793774319,""responseTime"":0.9028000000714655}]",space,0.6499,,653.6331,Half the time,50,653.634,,,[],,0,9,9,9,1,audio/Narrative7Situation9.wav,audio/Narrative8Situation9.wav,audio/Narrative5Situation9.wav,audio/Narrative6Situation9.wav,2,3,3,4,,,,,,,,,,,,,,,,,,,,,,,,,,,,,,,,,,,,,,,
,,,,,,5aa83a71f6dfdd0001eb1690,2024-02-08_16h02.30.492,group3.1-3.2-social-tom,2023.2.2,MacIntel,128.2051282,65c5074098b851296ff0b7ed,65c541564e257756d7946f83,,,,,,,,,,,,,,,,,,,,,,,,,,,,,653.6341,2,audio/Narrative6Situation1.wav,655.6397,,655.6397,682.1993,"[[999,0],[999,91],[999,184],[999,279],[999,366],[999,458],[999,551],[999,644],[999,733],[999,825],[999,917],[999,1008],[999,1102],[999,1192],[999,1283],[999,1375],[999,1467],[999,1558],[999,1650],[999,1744],[999,1833],[999,1925],[999,2018],[999,2108],[999,2200],[999,2291],[999,2383],[999,2477],[999,2567],[999,2658],[999,2750],[999,2842],[999,2933],[999,3031],[999,3117],[999,3210],[999,3300],[999,3391],[999,3483],[999,3576],[999,3667],[999,3759],[999,3850],[999,3942],[999,4037],[999,4125],[999,4217],[999,4308],[999,4401],[999,4491],[999,4583],[999,4678],[999,4767],[999,4868],[999,4960],[999,5050],[999,5142],[999,5233],[999,5325],[999,5417],[999,5508],[999,5608],[999,5702],[999,5793],[999,5884],[999,5978],[999,6066],[999,6160],[999,6250],[999,6342],[999,6433],[999,6525],[999,6616],[999,6708],[999,6800],[999,6891],[999,6983],[999,7076],[999,7166],[999,7258],[999,7350],[999,7442],[999,7533],[999,7624],[999,7716],[999,7809],[999,7903],[999,7992],[999,8084],[999,8175],[999,8267],[999,8358],[999,8450],[999,8542],[999,8634],[999,8726],[999,8817],[999,8908],[999,9000],[999,9091],[999,9183],[999,9275],[999,9367],[999,9458],[999,9549],[999,9643],[999,9733],[999,9825],[999,9916],[999,10008],[999,10100],[999,10192],[999,10284],[999,10375],[999,10467],[999,10558],[999,10650],[999,10743],[999,10833],[999,10929],[999,11016],[999,11107],[999,11200],[999,11292],[999,11384],[999,11475],[999,11567],[999,11659],[999,11750],[999,11843],[999,11934],[999,12025],[999,12116],[999,12208],[999,12301],[999,12394],[999,12483],[999,12574],[999,12666],[999,12758],[999,12850],[999,12942],[999,13033],[999,13125],[999,13218],[999,13308],[999,13402],[999,13491],[999,13583],[999,13676],[999,13766],[999,13859],[999,13950],[999,14043],[999,14133],[999,14227],[999,14319],[999,14408],[999,14499],[999,14591],[999,14683],[999,14775],[999,14867],[999,14960],[999,15050],[999,15142],[999,15233],[999,15325],[999,15416],[999,15508],[999,15601],[999,15691],[999,15783],[999,15876],[999,15968],[999,16058],[999,16150],[999,16241],[999,16333],[999,16427],[999,16519],[999,16613],[999,16700],[999,16794],[999,16883],[999,16975],[999,17066],[999,17158],[999,17252],[999,17341],[999,17433],[999,17526],[999,17616],[999,17709],[999,17800],[999,17892],[999,17984],[999,18077],[999,18167],[999,18258],[999,18350],[999,18442],[999,18535],[999,18625],[999,18717],[999,18808],[999,18908],[999,19000],[999,19091],[999,19183],[999,19275],[999,19366],[999,19458],[999,19550],[999,19650],[999,19743],[999,19833],[999,19925],[999,20017],[999,20108],[999,20199],[999,20291],[999,20383],[999,20475],[999,20566],[999,20658],[999,20750],[999,20841],[999,20933],[999,21025],[999,21118],[999,21209],[999,21300],[999,21392],[999,21483],[999,21575],[999,21668],[999,21758],[999,21851],[999,21942],[999,22035],[999,22126],[999,22215],[999,22308],[999,22401],[999,22491],[999,22583],[999,22674],[999,22766],[999,22858],[999,22950],[999,23041],[999,23139],[999,23225],[999,23316],[999,23408],[999,23504],[999,23592],[999,23683],[999,23775],[999,23866],[999,23958],[999,24050],[999,24144],[999,24233],[999,24324],[999,24417],[999,24507],[999,24599],[999,24692],[999,24791],[999,24884],[999,24979],[999,25067],[999,25159],[999,25249],[999,25341],[999,25433],[999,25525],[999,25616],[999,25708],[999,25800],[999,25895],[999,25985],[999,26075],[999,26166],[999,26258],[999,26350],[999,26441],[999,26533]]",1,0,682.1995,684.3281,85.02021522,1.8236,"[{""rating"":85.0202152237354,""responseTime"":1.8236000000238164}]",space,1.6109,,684.3281,Half the time,50,684.33,,,[],,0,10,10,10,1,audio/Narrative8Situation1.wav,audio/Narrative7Situation1.wav,audio/Narrative6Situation1.wav,audio/Narrative5Situation1.wav,5,2,2,5,,,,,,,,,,,,,,,,,,,,,,,,,,,,,,,,,,,,,,,
,,,,,,5aa83a71f6dfdd0001eb1690,2024-02-08_16h02.30.492,group3.1-3.2-social-tom,2023.2.2,MacIntel,128.2051282,65c5074098b851296ff0b7ed,65c541564e257756d7946f83,,,,,,,,,,,,,,,,,,,,,,,,,,,,,684.3302,2,audio/Narrative6Situation2.wav,687.3359,,687.3361,715.8275,"[[999,0],[999,91],[999,191],[999,282],[999,373],[999,466],[999,558],[999,649],[999,743],[999,832],[999,924],[999,1016],[999,1113],[999,1200],[999,1291],[999,1386],[999,1474],[999,1566],[999,1659],[999,1749],[999,1842],[999,1942],[999,2025],[999,2116],[999,2216],[999,2306],[999,2404],[999,2493],[999,2584],[999,2673],[999,2768],[999,2857],[999,2951],[999,3041],[999,3141],[999,3238],[999,3324],[999,3416],[999,3511],[999,3599],[999,3691],[999,3782],[999,3873],[999,3967],[999,4064],[999,4149],[999,4242],[999,4333],[999,4423],[999,4517],[999,4607],[999,4704],[999,4790],[999,4883],[999,4973],[999,5066],[999,5168],[999,5258],[999,5349],[999,5441],[999,5533],[999,5624],[999,5717],[999,5808],[999,5900],[999,5993],[999,6082],[999,6175],[999,6266],[999,6360],[999,6449],[999,6541],[999,6632],[999,6725],[999,6816],[999,6908],[999,6999],[999,7091],[999,7181],[999,7274],[999,7366],[999,7457],[999,7549],[999,7641],[999,7732],[999,7824],[999,7916],[999,8007],[999,8099],[999,8191],[999,8282],[999,8374],[999,8466],[999,8557],[999,8649],[999,8741],[999,8832],[999,8924],[999,9016],[999,9108],[999,9200],[999,9300],[999,9391],[999,9483],[999,9574],[999,9666],[999,9757],[999,9850],[999,9941],[999,10032],[999,10124],[999,10224],[999,10318],[999,10409],[999,10499],[999,10591],[999,10682],[999,10779],[999,10867],[999,10957],[999,11048],[999,11146],[999,11232],[999,11326],[999,11416],[999,11512],[999,11600],[999,11694],[999,11785],[999,11874],[999,11974],[999,12066],[999,12158],[999,12249],[999,12341],[999,12433],[999,12524],[999,12617],[999,12711],[999,12798],[999,12891],[999,12982],[999,13074],[999,13165],[999,13258],[999,13349],[999,13440],[999,13533],[999,13624],[999,13716],[999,13807],[999,13899],[999,13991],[999,14082],[999,14174],[999,14269],[999,14358],[999,14449],[999,14541],[999,14633],[999,14725],[999,14816],[999,14911],[999,14999],[999,15091],[999,15185],[999,15274],[999,15366],[999,15457],[999,15550],[999,15641],[999,15733],[999,15824],[999,15917],[999,16009],[999,16099],[999,16191],[999,16282],[999,16374],[999,16466],[999,16557],[999,16649],[999,16741],[999,16832],[999,16924],[999,17016],[999,17107],[999,17200],[999,17290],[999,17382],[999,17474],[999,17566],[999,17657],[999,17751],[999,17841],[999,17932],[999,18025],[999,18116],[999,18207],[999,18300],[999,18391],[999,18482],[999,18573],[999,18665],[999,18757],[999,18849],[999,18945],[999,19032],[999,19124],[999,19217],[999,19313],[999,19399],[999,19495],[999,19582],[999,19675],[999,19766],[999,19857],[999,19949],[999,20041],[999,20136],[999,20224],[999,20317],[999,20416],[999,20510],[999,20599],[999,20691],[999,20782],[999,20874],[999,20968],[999,21057],[999,21153],[999,21241],[999,21332],[999,21424],[999,21516],[999,21607],[999,21698],[999,21789],[999,21882],[999,21974],[999,22075],[999,22166],[999,22258],[999,22349],[999,22440],[999,22532],[999,22625],[999,22716],[999,22808],[999,22899],[999,22991],[999,23086],[999,23174],[999,23266],[999,23357],[999,23449],[999,23543],[999,23633],[999,23723],[999,23815],[999,23908],[999,23998],[999,24092],[999,24182],[999,24274],[999,24367],[999,24458],[999,24554],[999,24641],[999,24732],[999,24826],[999,24916],[999,25011],[999,25101],[999,25202],[999,25291],[999,25387],[999,25475],[999,25565],[999,25656],[999,25748],[999,25841],[999,25932],[999,26024],[999,26116],[999,26206],[999,26299],[999,26391],[999,26483],[999,26574],[999,26666],[999,26757],[999,26849],[999,26940],[999,27032],[999,27124],[999,27215],[999,27307],[999,27399],[999,27490],[999,27582],[999,27674],[999,27765],[999,27857],[999,27949],[999,28040],[999,28133],[999,28224],[999,28315],[999,28407]]",1,0,715.8277,717.2491,60.79234557,1.2182,"[{""rating"":60.792345573929964,""responseTime"":1.2182000000476592}]",space,0.8989,,717.2492,Half the time,50,717.25,,,[],,0,11,11,11,1,audio/Narrative8Situation2.wav,audio/Narrative7Situation2.wav,audio/Narrative6Situation2.wav,audio/Narrative5Situation2.wav,3,3,3,3,,,,,,,,,,,,,,,,,,,,,,,,,,,,,,,,,,,,,,,
,,,,,,5aa83a71f6dfdd0001eb1690,2024-02-08_16h02.30.492,group3.1-3.2-social-tom,2023.2.2,MacIntel,128.2051282,65c5074098b851296ff0b7ed,65c541564e257756d7946f83,,,,,,,,,,,,,,,,,,,,,,,,,,,,,717.2501,2,audio/Narrative6Situation3.wav,722.2541,,722.2542,734.8524,"[[999,7],[999,97],[999,189],[999,281],[999,373],[999,465],[999,556],[999,647],[999,740],[999,830],[999,923],[999,1014],[999,1106],[999,1198],[999,1289],[999,1381],[999,1473],[999,1564],[999,1656],[999,1747],[999,1839],[999,1931],[999,2024],[999,2114],[999,2206],[999,2298],[999,2389],[999,2481],[999,2572],[999,2664],[999,2756],[999,2848],[999,2939],[999,3031],[999,3122],[999,3214],[999,3306],[999,3398],[999,3489],[999,3581],[999,3675],[999,3764],[999,3856],[999,3947],[999,4039],[999,4131],[999,4223],[999,4314],[999,4406],[999,4497],[999,4590],[999,4682],[999,4772],[999,4864],[999,4956],[999,5048],[999,5141],[999,5231],[999,5325],[999,5414],[999,5506],[999,5598],[999,5690],[999,5787],[999,5872],[999,5965],[999,6056],[999,6148],[999,6239],[999,6331],[999,6424],[999,6514],[999,6606],[999,6699],[999,6789],[999,6881],[999,6972],[999,7066],[999,7157],[999,7247],[999,7341],[999,7431],[999,7523],[999,7614],[999,7706],[999,7798],[999,7889],[999,7989],[999,8081],[999,8173],[999,8264],[999,8355],[999,8447],[999,8539],[999,8631],[999,8722],[999,8814],[999,8905],[999,8997],[999,9089],[999,9180],[999,9274],[999,9364],[999,9456],[999,9549],[999,9639],[999,9731],[999,9823],[999,9914],[999,10007],[999,10096],[999,10192],[999,10282],[999,10372],[999,10466],[999,10556],[999,10647],[999,10740],[999,10831],[999,10923],[999,11014],[999,11105],[999,11197],[999,11289],[999,11381],[999,11472],[999,11564],[999,11656],[999,11747],[999,11839],[999,11931],[999,12025],[999,12117],[999,12206],[999,12298],[999,12389],[999,12482],[999,12573]]",1,0,734.8525,736.6959,69.79343993,1.6054,"[{""rating"":69.7934399319066,""responseTime"":1.6053999999761572}]",space,1.3316,,736.6959,Half the time,50,736.6969,,,[],,0,12,12,12,1,audio/Narrative8Situation3.wav,audio/Narrative7Situation3.wav,audio/Narrative6Situation3.wav,audio/Narrative5Situation3.wav,4,8,5,3,,,,,,,,,,,,,,,,,,,,,,,,,,,,,,,,,,,,,,,
,,,,,,5aa83a71f6dfdd0001eb1690,2024-02-08_16h02.30.492,group3.1-3.2-social-tom,2023.2.2,MacIntel,128.2051282,65c5074098b851296ff0b7ed,65c541564e257756d7946f83,,,,,,,,,,,,,,,,,,,,,,,,,,,,,736.6971,2,audio/Narrative6Situation4.wav,738.7028,,738.7028,751.2939,"[[999,0],[999,93],[999,186],[999,274],[999,366],[999,457],[999,549],[999,640],[999,731],[999,824],[999,916],[999,1019],[999,1109],[999,1199],[999,1292],[999,1382],[999,1473],[999,1566],[999,1660],[999,1749],[999,1844],[999,1931],[999,2028],[999,2116],[999,2207],[999,2299],[999,2390],[999,2482],[999,2574],[999,2665],[999,2757],[999,2848],[999,2942],[999,3032],[999,3123],[999,3218],[999,3307],[999,3407],[999,3499],[999,3590],[999,3681],[999,3774],[999,3865],[999,3966],[999,4049],[999,4141],[999,4233],[999,4325],[999,4419],[999,4507],[999,4606],[999,4708],[999,4802],[999,4890],[999,4983],[999,5074],[999,5166],[999,5257],[999,5348],[999,5440],[999,5536],[999,5624],[999,5715],[999,5807],[999,5899],[999,5991],[999,6082],[999,6174],[999,6265],[999,6357],[999,6448],[999,6540],[999,6635],[999,6724],[999,6815],[999,6907],[999,6999],[999,7092],[999,7184],[999,7279],[999,7365],[999,7457],[999,7548],[999,7644],[999,7732],[999,7824],[999,7915],[999,8007],[999,8102],[999,8190],[999,8284],[999,8377],[999,8466],[999,8557],[999,8648],[999,8741],[999,8832],[999,8923],[999,9017],[999,9107],[999,9198],[999,9290],[999,9382],[999,9476],[999,9567],[999,9658],[999,9749],[999,9840],[999,9932],[999,10024],[999,10117],[999,10211],[999,10300],[999,10390],[999,10483],[999,10573],[999,10665],[999,10757],[999,10848],[999,10940],[999,11033],[999,11126],[999,11215],[999,11307],[999,11400],[999,11490],[999,11582],[999,11674],[999,11765],[999,11857],[999,11948],[999,12044],[999,12134],[999,12223],[999,12315],[999,12409],[999,12501],[999,12590]]",1,0,751.2941,753.9774,55.86013497,2.4414,"[{""rating"":55.86013497081712,""responseTime"":2.44139999997617}]",space,2.1629,,753.9774,Not at all,0,753.9808,,,[],,0,13,13,13,1,audio/Narrative8Situation4.wav,audio/Narrative7Situation4.wav,audio/Narrative6Situation4.wav,audio/Narrative5Situation4.wav,3,3,2,1,,,,,,,,,,,,,,,,,,,,,,,,,,,,,,,,,,,,,,,
,,,,,,5aa83a71f6dfdd0001eb1690,2024-02-08_16h02.30.492,group3.1-3.2-social-tom,2023.2.2,MacIntel,128.2051282,65c5074098b851296ff0b7ed,65c541564e257756d7946f83,,,,,,,,,,,,,,,,,,,,,,,,,,,,,753.9811,2,audio/Narrative6Situation5.wav,755.9853,,755.9853,763.9311,"[[999,0],[999,91],[999,182],[999,274],[999,366],[999,458],[999,550],[999,641],[999,733],[999,833],[999,924],[999,1015],[999,1108],[999,1199],[999,1294],[999,1383],[999,1473],[999,1566],[999,1658],[999,1749],[999,1841],[999,1932],[999,2024],[999,2115],[999,2210],[999,2300],[999,2391],[999,2483],[999,2575],[999,2668],[999,2757],[999,2850],[999,2946],[999,3033],[999,3125],[999,3216],[999,3309],[999,3400],[999,3491],[999,3583],[999,3676],[999,3766],[999,3858],[999,3950],[999,4042],[999,4133],[999,4225],[999,4316],[999,4407],[999,4500],[999,4591],[999,4682],[999,4774],[999,4866],[999,4957],[999,5050],[999,5140],[999,5233],[999,5324],[999,5416],[999,5516],[999,5608],[999,5699],[999,5791],[999,5884],[999,5975],[999,6067],[999,6157],[999,6250],[999,6341],[999,6432],[999,6527],[999,6616],[999,6708],[999,6799],[999,6891],[999,6983],[999,7074],[999,7166],[999,7258],[999,7353],[999,7442],[999,7541],[999,7633],[999,7725],[999,7816],[999,7909]]",1,0,763.9313,767.1344,67.0415856,2.7519,"[{""rating"":67.04158560311284,""responseTime"":2.7518999999761036}]",space,2.6829,,767.1344,All the time,100,767.136,,,[],,0,14,14,14,1,audio/Narrative8Situation5.wav,audio/Narrative7Situation5.wav,audio/Narrative6Situation5.wav,audio/Narrative5Situation5.wav,2,5,2,5,,,,,,,,,,,,,,,,,,,,,,,,,,,,,,,,,,,,,,,
,,,,,,5aa83a71f6dfdd0001eb1690,2024-02-08_16h02.30.492,group3.1-3.2-social-tom,2023.2.2,MacIntel,128.2051282,65c5074098b851296ff0b7ed,65c541564e257756d7946f83,,,,,,,,,,,,,,,,,,,,,,,,,,,,,767.1361,2,audio/Narrative6Situation6.wav,769.1432,,769.1432,780.2021,"[[999,0],[999,91],[999,182],[999,275],[999,369],[999,466],[999,558],[999,649],[999,741],[999,836],[999,925],[999,1016],[999,1109],[999,1200],[999,1291],[999,1385],[999,1477],[999,1565],[999,1658],[999,1751],[999,1841],[999,1933],[999,2025],[999,2117],[999,2208],[999,2301],[999,2392],[999,2483],[999,2575],[999,2667],[999,2758],[999,2849],[999,2942],[999,3034],[999,3124],[999,3218],[999,3308],[999,3399],[999,3491],[999,3585],[999,3675],[999,3768],[999,3858],[999,3950],[999,4043],[999,4133],[999,4225],[999,4316],[999,4408],[999,4500],[999,4594],[999,4683],[999,4775],[999,4867],[999,4958],[999,5050],[999,5142],[999,5234],[999,5325],[999,5417],[999,5508],[999,5600],[999,5691],[999,5783],[999,5875],[999,5966],[999,6062],[999,6149],[999,6241],[999,6333],[999,6425],[999,6517],[999,6608],[999,6702],[999,6791],[999,6884],[999,6974],[999,7066],[999,7160],[999,7252],[999,7351],[999,7441],[999,7534],[999,7625],[999,7720],[999,7808],[999,7899],[999,7991],[999,8084],[999,8175],[999,8267],[999,8366],[999,8458],[999,8560],[999,8650],[999,8741],[999,8833],[999,8925],[999,9016],[999,9107],[999,9200],[999,9291],[999,9383],[999,9475],[999,9566],[999,9658],[999,9750],[999,9841],[999,9933],[999,10024],[999,10116],[999,10207],[999,10300],[999,10392],[999,10483],[999,10575],[999,10666],[999,10758],[999,10850],[999,10941],[999,11032]]",1,0,780.2023,782.8133,82.66696559,2.4185,"[{""rating"":41.44956833657588,""responseTime"":1.469799999952329},{""rating"":82.6669655885214,""responseTime"":2.4184999999999945}]",space,2.0857,,782.8133,Half the time,50,782.8149,,,[],,0,15,15,15,1,audio/Narrative8Situation6.wav,audio/Narrative7Situation6.wav,audio/Narrative6Situation6.wav,audio/Narrative5Situation6.wav,2,3,2,3,,,,,,,,,,,,,,,,,,,,,,,,,,,,,,,,,,,,,,,
,,,,,,5aa83a71f6dfdd0001eb1690,2024-02-08_16h02.30.492,group3.1-3.2-social-tom,2023.2.2,MacIntel,128.2051282,65c5074098b851296ff0b7ed,65c541564e257756d7946f83,,,,,,,,,,,,,,,,,,,,,,,,,,,,,782.8151,2,audio/Narrative6Situation7.wav,787.8182,,787.8182,812.6515,"[[999,9],[999,100],[999,193],[999,282],[999,374],[999,466],[999,558],[999,650],[999,745],[999,833],[999,925],[999,1016],[999,1108],[999,1199],[999,1291],[999,1383],[999,1474],[999,1566],[999,1658],[999,1751],[999,1843],[999,1933],[999,2025],[999,2116],[999,2208],[999,2299],[999,2392],[999,2483],[999,2574],[999,2666],[999,2758],[999,2850],[999,2941],[999,3036],[999,3125],[999,3216],[999,3308],[999,3399],[999,3491],[999,3583],[999,3675],[999,3766],[999,3858],[999,3950],[999,4047],[999,4133],[999,4224],[999,4315],[999,4408],[999,4507],[999,4600],[999,4691],[999,4783],[999,4877],[999,4966],[999,5067],[999,5158],[999,5251],[999,5340],[999,5432],[999,5525],[999,5617],[999,5709],[999,5800],[999,5890],[999,5984],[999,6074],[999,6171],[999,6258],[999,6349],[999,6441],[999,6534],[999,6625],[999,6716],[999,6808],[999,6900],[999,6991],[999,7083],[999,7176],[999,7267],[999,7361],[999,7450],[999,7540],[999,7633],[999,7724],[999,7817],[999,7908],[999,8001],[999,8091],[999,8184],[999,8276],[999,8367],[999,8458],[999,8550],[999,8644],[999,8733],[999,8825],[999,8916],[999,9010],[999,9104],[999,9191],[999,9284],[999,9375],[999,9466],[999,9558],[999,9649],[999,9741],[999,9833],[999,9925],[999,10017],[999,10109],[999,10200],[999,10291],[999,10383],[999,10475],[999,10566],[999,10658],[999,10750],[999,10841],[999,10933],[999,11025],[999,11117],[999,11207],[999,11299],[999,11392],[999,11483],[999,11577],[999,11667],[999,11758],[999,11850],[999,11942],[999,12032],[999,12136],[999,12226],[999,12324],[999,12415],[999,12508],[999,12601],[999,12691],[999,12783],[999,12875],[999,12966],[999,13058],[999,13149],[999,13243],[999,13333],[999,13424],[999,13517],[999,13608],[999,13699],[999,13791],[999,13883],[999,13974],[999,14066],[999,14159],[999,14249],[999,14341],[999,14433],[999,14526],[999,14618],[999,14708],[999,14800],[999,14891],[999,14982],[999,15074],[999,15165],[999,15259],[999,15349],[999,15441],[999,15533],[999,15624],[999,15716],[999,15809],[999,15899],[999,15991],[999,16083],[999,16176],[999,16266],[999,16358],[999,16450],[999,16540],[999,16633],[999,16724],[999,16817],[999,16908],[999,17000],[999,17091],[999,17183],[999,17274],[999,17365],[999,17457],[999,17550],[999,17641],[999,17733],[999,17824],[999,17916],[999,18008],[999,18099],[999,18191],[999,18283],[999,18374],[999,18466],[999,18558],[999,18649],[999,18741],[999,18832],[999,18925],[999,19016],[999,19108],[999,19199],[999,19291],[999,19383],[999,19474],[999,19566],[999,19658],[999,19752],[999,19849],[999,19942],[999,20033],[999,20125],[999,20216],[999,20307],[999,20400],[999,20491],[999,20583],[999,20674],[999,20766],[999,20858],[999,20949],[999,21041],[999,21133],[999,21224],[999,21316],[999,21408],[999,21500],[999,21591],[999,21683],[999,21775],[999,21866],[999,21958],[999,22051],[999,22141],[999,22234],[999,22324],[999,22416],[999,22506],[999,22599],[999,22691],[999,22782],[999,22876],[999,22966],[999,23058],[999,23149],[999,23240],[999,23333],[999,23424],[999,23516],[999,23607],[999,23699],[999,23791],[999,23883],[999,23974],[999,24065],[999,24159],[999,24249],[999,24341],[999,24433],[999,24524],[999,24616],[999,24708],[999,24801]]",1,0,812.6516,817.3401,55.77577821,2.9085,"[{""rating"":55.775778210116734,""responseTime"":2.9085000000000036}]",space,4.1594,,817.3401,All the time,100,817.3418,,,[],,0,16,16,16,1,audio/Narrative8Situation7.wav,audio/Narrative7Situation7.wav,audio/Narrative6Situation7.wav,audio/Narrative5Situation7.wav,3,5,5,4,,,,,,,,,,,,,,,,,,,,,,,,,,,,,,,,,,,,,,,
,,,,,,5aa83a71f6dfdd0001eb1690,2024-02-08_16h02.30.492,group3.1-3.2-social-tom,2023.2.2,MacIntel,128.2051282,65c5074098b851296ff0b7ed,65c541564e257756d7946f83,,,,,,,,,,,,,,,,,,,,,,,,,,,,,817.3419,2,audio/Narrative6Situation8.wav,822.3474,,822.3475,829.1851,"[[999,8],[999,95],[999,187],[999,282],[999,380],[999,471],[999,562],[999,662],[999,753],[999,845],[999,948],[999,1037],[999,1129],[999,1221],[999,1316],[999,1407],[999,1494],[999,1587],[999,1689],[999,1778],[999,1870],[999,1962],[999,2053],[999,2145],[999,2237],[999,2328],[999,2420],[999,2512],[999,2604],[999,2695],[999,2787],[999,2878],[999,2975],[999,3062],[999,3154],[999,3245],[999,3345],[999,3437],[999,3528],[999,3621],[999,3713],[999,3803],[999,3895],[999,3987],[999,4081],[999,4172],[999,4262],[999,4355],[999,4453],[999,4537],[999,4629],[999,4722],[999,4812],[999,4902],[999,4996],[999,5086],[999,5180],[999,5271],[999,5363],[999,5453],[999,5548],[999,5637],[999,5729],[999,5830],[999,5921],[999,6012],[999,6105],[999,6195],[999,6287],[999,6381],[999,6470],[999,6562],[999,6653],[999,6745],[999,6837]]",1,0,829.1854,830.5767,35.46061831,1.2581,"[{""rating"":35.460618312256805,""responseTime"":1.2581000000238873}]",space,0.8715,,830.5769,All the time,100,830.5797,,,[],,0,17,17,17,1,audio/Narrative8Situation8.wav,audio/Narrative7Situation8.wav,audio/Narrative6Situation8.wav,audio/Narrative5Situation8.wav,3,2,5,3,,,,,,,,,,,,,,,,,,,,,,,,,,,,,,,,,,,,,,,
,,,,,,5aa83a71f6dfdd0001eb1690,2024-02-08_16h02.30.492,group3.1-3.2-social-tom,2023.2.2,MacIntel,128.2051282,65c5074098b851296ff0b7ed,65c541564e257756d7946f83,,,,,,,,,,,,,,,,,,,,,,,,,,,,,830.5801,2,audio/Narrative6Situation9.wav,834.5851,,834.5852,844.5286,"[[999,8],[999,109],[999,191],[999,285],[999,374],[999,466],[999,557],[999,649],[999,742],[999,833],[999,923],[999,1016],[999,1108],[999,1199],[999,1295],[999,1384],[999,1473],[999,1567],[999,1658],[999,1749],[999,1844],[999,1933],[999,2026],[999,2116],[999,2207],[999,2299],[999,2391],[999,2482],[999,2574],[999,2667],[999,2757],[999,2849],[999,2942],[999,3033],[999,3124],[999,3217],[999,3307],[999,3399],[999,3491],[999,3583],[999,3675],[999,3765],[999,3863],[999,3951],[999,4041],[999,4133],[999,4225],[999,4318],[999,4409],[999,4499],[999,4592],[999,4686],[999,4785],[999,4874],[999,4970],[999,5058],[999,5157],[999,5241],[999,5332],[999,5425],[999,5516],[999,5610],[999,5699],[999,5793],[999,5882],[999,5974],[999,6066],[999,6158],[999,6251],[999,6341],[999,6434],[999,6524],[999,6615],[999,6707],[999,6799],[999,6891],[999,6981],[999,7074],[999,7166],[999,7257],[999,7349],[999,7443],[999,7532],[999,7635],[999,7724],[999,7816],[999,7907],[999,7999],[999,8090],[999,8182],[999,8274],[999,8365],[999,8457],[999,8548],[999,8641],[999,8737],[999,8825],[999,8923],[999,9016],[999,9107],[999,9199],[999,9291],[999,9382],[999,9474],[999,9565],[999,9657],[999,9749],[999,9841]]",1,0,844.5287,846.1931,40.2370349,1.3668,"[{""rating"":40.23703489785993,""responseTime"":1.366800000071521}]",space,1.1441,,846.1932,Not at all,0,849.6521,0.040278453,3.23,"[{""rating"":0.04027845330739077,""responseTime"":3.230000000000018}]",space,0,18,18,18,1,audio/Narrative8Situation9.wav,audio/Narrative7Situation9.wav,audio/Narrative6Situation9.wav,audio/Narrative5Situation9.wav,3,2,4,3,,,2.9432,,,,,,,,,,,,,,,,,,,,,,,,,,,,,,,,,,,,
,,,,,,5aa83a71f6dfdd0001eb1690,2024-02-08_16h02.30.492,group3.1-3.2-social-tom,2023.2.2,MacIntel,128.2051282,65c5074098b851296ff0b7ed,65c541564e257756d7946f83,,,,,,,,,,,,,,,,,,,,,,,,,,,,,,,,,,,,,,,,,,,,,,,,,,,,,,,,,,,,,,,,,,,,,,,,849.6527,851.426,space,1.2588,,851.4263,861.5247,space,9.7882,,,,,,,,,,,,,,,,,,,,,,,,,,
,,,,,,5aa83a71f6dfdd0001eb1690,2024-02-08_16h02.30.492,group3.1-3.2-social-tom,2023.2.2,MacIntel,128.2051282,65c5074098b851296ff0b7ed,65c541564e257756d7946f83,,,,,,,,,,,,,,,,,,,,,,,,,,,,,864.1244,1,audio/Narrative8Situation9.wav,866.126,,,,,,,898.0131,899.8009,39.12239583,1.4354,"[{""rating"":39.122395833333336,""responseTime"":1.4353999999761982}]",space,1.2772,,898.0007,All the time,100,898.0131,,,[],,,,,,,,,,,2,2,2,2,,,,,,,,,,,,,,,861.5339,864.1118,866.1264,3,898.0007,"[[82.4,1752],[81.9,1840],[81.8,1933],[73.6,2024],[72.6,2115],[72.5,2211],[72.5,2299],[72.5,2391],[72.5,2486],[72.5,2575],[72.5,2667],[72.5,2758],[72.5,2851],[72.5,2941],[72.5,3032],[72.5,3124],[72.5,3219],[72.5,3307],[72.5,3399],[72.5,3493],[72.5,3585],[72.5,3674],[72.5,3767],[72.5,3859],[72.5,3949],[72.5,4049],[72.5,4141],[72.5,4235],[72.5,4327],[72.5,4419],[72.5,4507],[72.5,4598],[72.5,4696],[72.5,4784],[72.5,4874],[72.5,4967],[72.5,5057],[72.5,5149],[72.5,5243],[72.5,5339],[72.5,5424],[72.5,5516],[72.5,5607],[72.5,5710],[72.5,5799],[72.5,5894],[72.5,5986],[72.5,6074],[72.5,6173]]",0,0,0,0,1,"Larry had recently lost his family, job and home, and was now living on his own in the park. He had most of his belongings, including some clothes, a blanket, and his mother’s special necklace. His family had been very important to him and he felt as though he did not have much going for him. One of his first days in the park he came across a family that did not have much food and looked very cold. He decided to give them some of his food and his blanket.","Larry had recently lost his family, job and home, and was now living on his own in the park. He had most of his belongings, including some clothes, a blanket, and his mother’s special necklace. His family had been very important to him and he felt as though he did not have much going for him. One of his first days in the park he came across a family that did not have much food and looked very cold. He decided to give them some of his food and his blanket.","Larry had recently lost his family, job and home, and was now living on his own in the park. He had most of his belongings, including some clothes, a blanket, and his mother’s special necklace. His family had been very important to him and he felt as though he did not have much going for him. One of his first days in the park he came across a family that did not have much food and looked very cold. He decided to give them some of his food and his blanket.","Larry had recently lost his family, job and home, and was now living on his own in the park. He had most of his belongings, including some clothes, a blanket, and his mother’s special necklace. His family had been very important to him and he felt as though he did not have much going for him. One of his first days in the park he came across a family that did not have much food and looked very cold. He decided to give them some of his food and his blanket.",,,,,,,,,,
,,,,,,5aa83a71f6dfdd0001eb1690,2024-02-08_16h02.30.492,group3.1-3.2-social-tom,2023.2.2,MacIntel,128.2051282,65c5074098b851296ff0b7ed,65c541564e257756d7946f83,,,,,,,,,,,,,,,,,,,,,,,,,,,,,899.8015,1,audio/Narrative8Situation9.wav,901.7257,space,,,,,,935.2502,938.9167,36.7578125,3.4378,"[{""rating"":36.7578125,""responseTime"":3.4378000000715474}]",space,3.1501,,935.2428,Not at all,0,935.2502,,,[],,,,,,,,,,,6,2,3,9,1.9158,,,,,,,,,,,,,,,,901.7258,3,935.2428,"[[999,0],[999,91],[999,184],[999,283],[999,374],[999,465],[999,559],[999,650],[999,743],[999,833],[999,926],[999,1017],[999,1109],[999,1201],[999,1292]]",0,1,1,1,1,"It was just another Sunday afternoon for Lucy, she was on her way to the farmer's market to pick up some produce. When she arrived at the old train depot that housed the market, she noticed two men fighting on the steps. Before she could call for help, one of the men crumpled to his knees. The other man dropped an object that appeared to be a knife and ran off. When Lucy approached the crime scene she realized that the man who had been murdered was the Mayor and that he had a gunshot wound.","One day at work, Margaret walked up to her partner, Al, to ask him to talk to the chief of staff at the local hospital where she worked as a nurse.","Luke always thought of himself as an honest man. That's why during his evening jog around the swamp, he pondered his recent affair with the receptionist at work. Luke looked up at the sky and asked God why he was so weak and unfaithful. He thought of the impact this would have on his family and told God of his conflicted feelings toward telling his wife Marta.","Linda and Amy had been best friends since kindergarten, they even found homes on the same street in the forest on the edge of town. Their biggest fight had been over who gets the bigger slice of cake, until Amy married Dan. Linda loathed Dan, she thought he was manipulative and had a violent temper. She only put up with him because Amy loved him. ",,,,,,,,,,
,,,,,,5aa83a71f6dfdd0001eb1690,2024-02-08_16h02.30.492,group3.1-3.2-social-tom,2023.2.2,MacIntel,128.2051282,65c5074098b851296ff0b7ed,65c541564e257756d7946f83,,,,,,,,,,,,,,,,,,,,,,,,,,,,,938.9172,1,audio/Narrative8Situation9.wav,942.9177,,,,,,,961.4341,965.6503,38.61111111,4.0327,"[{""rating"":38.611111111111114,""responseTime"":4.032700000047612}]",space,3.6931,,961.4257,Half the time,50,961.4341,,,[],,,,,,,,,,,4,5,2,2,,,,,,,,,,,,,,,,,942.9179,3,961.4256,"[[999,14],[999,99],[999,190],[999,282],[999,373],[999,465],[999,557],[999,649],[999,740],[999,832],[999,923],[999,1016],[999,1107],[999,1199],[999,1290],[999,1382],[999,1474],[999,1566],[999,1656],[999,1748],[999,1840],[999,1932],[999,2023],[999,2116],[999,2207],[999,2299],[999,2390],[999,2482],[999,2574],[999,2666],[999,2758],[999,2848],[999,2941],[999,3032],[999,3124],[999,3216],[999,3307],[999,3399],[999,3490],[999,3582],[999,3674],[999,3765],[999,3857],[999,3949],[999,4041],[999,4132],[999,4224],[999,4315],[999,4407],[999,4499],[999,4591],[999,4681],[999,4774],[999,4865],[999,4957],[999,5049],[999,5140],[999,5231],[999,5324],[999,5416],[999,5507],[999,5599],[999,5690],[999,5785],[999,5874],[999,5965],[999,6057],[999,6149],[999,6240],[999,6332],[999,6424],[999,6516],[999,6607],[999,6698],[999,6790],[999,6882],[999,6974],[999,7066],[999,7157],[999,7249],[999,7340],[999,7431],[999,7524],[999,7616],[999,7707],[999,7799],[999,7890],[999,7982],[999,8074],[999,8165],[999,8256],[999,8349],[999,8441],[999,8532],[999,8625],[999,8715],[999,8807],[999,8899],[999,8990],[999,9082],[999,9174],[999,9265],[999,9357],[999,9449],[999,9541],[999,9632],[999,9724],[999,9816],[999,9907],[999,9999],[999,10090],[999,10182],[999,10274],[999,10365],[999,10457],[999,10549],[999,10640],[999,10732],[999,10824],[999,10915],[999,11007],[999,11099],[999,11191],[999,11282],[999,11374],[999,11465],[999,11557],[999,11649],[999,11740],[999,11833],[999,11923],[999,12016],[999,12107],[999,12198],[999,12291],[999,12382],[999,12474],[999,12566],[999,12658],[999,12749],[999,12841],[999,12932],[999,13024],[999,13116],[999,13207],[999,13298],[999,13391],[999,13482],[999,13574],[999,13666],[999,13756],[999,13848],[999,13940],[999,14032],[999,14123],[999,14215],[999,14307],[999,14399],[999,14490],[999,14582],[999,14674],[999,14766],[999,14857],[999,14949],[999,15040],[999,15132],[999,15224],[999,15315],[999,15407],[999,15500],[999,15590],[999,15689],[999,15782],[999,15874],[999,15966],[999,16057],[999,16150],[999,16241],[999,16332],[999,16424],[999,16516],[999,16608],[999,16699],[999,16790],[999,16882],[999,16974],[999,17066],[999,17160],[999,17249],[999,17340],[999,17432],[999,17524],[999,17615],[999,17708],[999,17799],[999,17890],[999,17982],[999,18074],[999,18165],[999,18257],[999,18349],[999,18440]]",0,2,2,2,1,On the ground beside him was a pen that she had mistaken for a knife. Lucy looked for the gunman and saw a suspicious man in black with distinct pointy features darting into an alley across the street. Cops who were nearby chased the man who had fled and arrested him.,"While waiting outside the chief of staff's office, Al heard nondescript shouting and yelling, there was a loud clatter in the room and then an eerie silence. An unfamiliar employee ran hastily out of the office with a terrified look on their face.","Suddenly, Luke heard a woman call out his name and when he turned around he saw Carly, his receptionist, across the road with a gun in her hand. Carly ran to him and explained how she had followed him here to confess her love. She exclaimed if Luke didn't love her back that she would kill him and his family. Carly explained that the only way they could be together is to kill Marta.","This feeling of hate between Amy and Dan was mutual, Dan didn't like how much time his wife spent with her and thought Amy was creating distance between their marriage. That's why Dan decided to try and tarnish Linda's reputation with his wife, in hopes it would get rid of her. He came home one afternoon and exclaimed that Linda had tried to kiss him. Amy was taken aback and immediately called Linda to confront her about these accusations. When Linda arrived she denied having made a move on Dan, but discovered Dan had enlisted the help of his friend Will who said he witnessed it all happen.",,,,,,,,,,
