exp_question,consent.started,consent.stopped,consentResponse.keys,consentResponse.rt,consentResponse.duration,participantID,date,expName,psychopyVersion,OS,frameRate,STUDY_ID,SESSION_ID,opening1.started,opening1.stopped,keyEndingOpening1.keys,keyEndingOpening1.rt,keyEndingOpening1.duration,volumeAdjust.started,volumeAdjust.stopped,endingAdjust.keys,endingAdjust.rt,endingAdjust.duration,opening2.started,opening2.stopped,keyEndingOpening.keys,keyEndingOpening.rt,keyEndingOpening.duration,mouse.x,mouse.y,mouse.leftButton,mouse.midButton,mouse.rightButton,mouse.time,instructionLoop.thisRepN,instructionLoop.thisTrialN,instructionLoop.thisN,instructionLoop.thisIndex,instructionLoop.ran,readyForAudio.started,readyForAudio.stopped,fixation.started,run,audio_played,fixation.stopped,endPractice.keys,audioPre.started,audioPre.stopped,continuousResponses_audio,continuousSlider.response,continuousSlider.rt,intRating.started,intRating.stopped,intQuestionSlider.response,intQuestionSlider.rt,intQuestionSlider.history,confirmResponse.keys,confirmResponse.rt,confirmResponse.duration,catchQuestion.started,catch_label,catch_value,catchQuestion.stopped,catchQuestionSlider.response,catchQuestionSlider.rt,catchQuestionSlider.history,confirmResponse_2.keys,audioRunLoop.thisRepN,audioRunLoop.thisTrialN,audioRunLoop.thisN,audioRunLoop.thisIndex,audioRunLoop.ran,conditions1_1,conditions2_1,conditions1_2,conditions2_2,dur1_1,dur2_1,dur1_2,dur2_2,endPractice.rt,endPractice.duration,confirmResponse_2.rt,confirmResponse_2.duration,runIntervalBreak.started,runIntervalBreak.stopped,endingBreakKey.keys,endingBreakKey.rt,endingBreakKey.duration,connection.started,connection.stopped,connectionEnding.keys,connectionEnding.rt,connectionEnding.duration,readyForText.started,readyForText.stopped,textPre.started,run_dup,textPre.stopped,continuousResponses_text,textRunLoop.thisRepN,textRunLoop.thisTrialN,textRunLoop.thisN,textRunLoop.thisIndex,textRunLoop.ran,text1_1,text1_2,text2_1,text2_2,runBreakText.started,runBreakText.stopped,endingBreakKey_2.keys,endingBreakKey_2.rt,endingBreakKey_2.duration,ending.started,ending.stopped,endingEnding.keys,endingEnding.rt,endingEnding.duration
tom,0.0003,3.3667,y,2.9493,,5acbd1ecf69e940001d9cd4d,2024-05-13_13h51.26.475,group3.1-3.2-social-tom,2023.2.2,Win32,20,65c5074098b851296ff0b7ed,664252f9e97a631f919fa7aa,,,,,,,,,,,,,,,,,,,,,,,,,,,,,,,,,,,,,,,,,,,,,,,,,,,,,,,,,,,,,,,,,,,,,,,,,,,,,,,,,,,,,,,,,,,,,,,,,,,,,,,,,,
,,,,,,5acbd1ecf69e940001d9cd4d,2024-05-13_13h51.26.475,group3.1-3.2-social-tom,2023.2.2,Win32,20,65c5074098b851296ff0b7ed,664252f9e97a631f919fa7aa,3.3669,9.3014,space,5.8679,,,,,,,,,,,,,,,,,,,,,,,,,,,,,,,,,,,,,,,,,,,,,,,,,,,,,,,,,,,,,,,,,,,,,,,,,,,,,,,,,,,,,,,,,,,,,,,,,,,,,,
,,,,,,5acbd1ecf69e940001d9cd4d,2024-05-13_13h51.26.475,group3.1-3.2-social-tom,2023.2.2,Win32,20,65c5074098b851296ff0b7ed,664252f9e97a631f919fa7aa,,,,,,9.3016,25.5266,space,15.8663,,,,,,,,,,,,,,,,,,,,,,,,,,,,,,,,,,,,,,,,,,,,,,,,,,,,,,,,,,,,,,,,,,,,,,,,,,,,,,,,,,,,,,,,,,,,,,,,,
,,,,,,5acbd1ecf69e940001d9cd4d,2024-05-13_13h51.26.475,group3.1-3.2-social-tom,2023.2.2,Win32,20,65c5074098b851296ff0b7ed,664252f9e97a631f919fa7aa,,,,,,,,,,,25.5321,35.0444,space,9.4528,,[],[],[],[],[],[],0,0,0,0,1,,,,,,,,,,,,,,,,,,,,,,,,,,,,,,,,,,,,,,,,,,,,,,,,,,,,,,,,,,,,,,,,,,,,,,,,,,,,,,,,
,,,,,,5acbd1ecf69e940001d9cd4d,2024-05-13_13h51.26.475,group3.1-3.2-social-tom,2023.2.2,Win32,20,65c5074098b851296ff0b7ed,664252f9e97a631f919fa7aa,,,,,,,,,,,35.0447,55.2112,space,20.0502,,[],[],[],[],[],[],1,0,1,0,1,,,,,,,,,,,,,,,,,,,,,,,,,,,,,,,,,,,,,,,,,,,,,,,,,,,,,,,,,,,,,,,,,,,,,,,,,,,,,,,,
,,,,,,5acbd1ecf69e940001d9cd4d,2024-05-13_13h51.26.475,group3.1-3.2-social-tom,2023.2.2,Win32,20,65c5074098b851296ff0b7ed,664252f9e97a631f919fa7aa,,,,,,,,,,,55.2164,72.4119,space,17.1178,,[],[],[],[],[],[],2,0,2,0,1,,,,,,,,,,,,,,,,,,,,,,,,,,,,,,,,,,,,,,,,,,,,,,,,,,,,,,,,,,,,,,,,,,,,,,,,,,,,,,,,
,,,,,,5acbd1ecf69e940001d9cd4d,2024-05-13_13h51.26.475,group3.1-3.2-social-tom,2023.2.2,Win32,20,65c5074098b851296ff0b7ed,664252f9e97a631f919fa7aa,,,,,,,,,,,72.4198,106.7209,space,34.2342,,[],[],[],[],[],[],3,0,3,0,1,,,,,,,,,,,,,,,,,,,,,,,,,,,,,,,,,,,,,,,,,,,,,,,,,,,,,,,,,,,,,,,,,,,,,,,,,,,,,,,,
,,,,,,5acbd1ecf69e940001d9cd4d,2024-05-13_13h51.26.475,group3.1-3.2-social-tom,2023.2.2,Win32,20,65c5074098b851296ff0b7ed,664252f9e97a631f919fa7aa,,,,,,,,,,,106.7265,113.3017,space,6.5125,,[],[],[],[],[],[],4,0,4,0,1,,,,,,,,,,,,,,,,,,,,,,,,,,,,,,,,,,,,,,,,,,,,,,,,,,,,,,,,,,,,,,,,,,,,,,,,,,,,,,,,
,,,,,,5acbd1ecf69e940001d9cd4d,2024-05-13_13h51.26.475,group3.1-3.2-social-tom,2023.2.2,Win32,20,65c5074098b851296ff0b7ed,664252f9e97a631f919fa7aa,,,,,,,,,,,,,,,,,,,,,,,,,,,113.308,115.8618,115.8754,1,audio/Narrative13Situation2.wav,117.9131,,117.9133,147.7718,"[[999,0],[999,126],[999,237],[999,347],[999,456],[999,566],[999,676],[999,787],[999,895],[999,1025],[999,1148],[999,1262],[999,1371],[999,1480],[999,1591],[999,1701],[999,1811],[999,1922],[999,2033],[15.4,2158],[13.8,2273],[13.8,2388],[13.2,2502],[13.2,2614],[13.2,2726],[13.2,2839],[13.2,2949],[13.2,3062],[13.2,3174],[13.2,3288],[13.2,3400],[13.2,3514],[13.2,3627],[13.2,3740],[13.2,3851],[13.2,3963],[13.2,4074],[13.2,4182],[13.2,4295],[13.2,4406],[13.2,4517],[13.2,4630],[12,4745],[11,4859],[10.1,4973],[9.2,5085],[9.2,5201],[9.2,5321],[9.2,5435],[9.2,5546],[9.2,5658],[9.2,5769],[9.2,5882],[9.2,5996],[9.2,6109],[9.2,6223],[9.2,6335],[9.7,6449],[9.7,6562],[9.7,6673],[9.8,6787],[9.8,6899],[10.1,7010],[10.6,7124],[11.3,7239],[15,7352],[32.5,7467],[36.1,7581],[36.1,7693],[36.1,7807],[36.1,7919],[36.1,8030],[36.1,8144],[36.1,8271],[36.1,8384],[36.1,8497],[36.1,8610],[36.1,8721],[36.1,8833],[36.1,8946],[36.1,9057],[36.1,9167],[36.1,9280],[36.1,9391],[36.1,9504],[36.1,9616],[36.1,9729],[36.1,9842],[36.1,9953],[36.1,10064],[36.1,10176],[36.1,10287],[36.1,10398],[35.8,10517],[35.8,10627],[35.8,10741],[35.8,10856],[35.8,10964],[35.8,11083],[35.8,11202],[35.5,11315],[35.1,11428],[34.7,11544],[33.3,11657],[31,11773],[28.8,11888],[25.1,12003],[24.7,12117],[22,12237],[21.9,12349],[21.9,12459],[20.4,12572],[20.4,12685],[20.4,12796],[20.4,12908],[20.4,13020],[20.4,13132],[20.3,13245],[20.1,13357],[20,13468],[20,13582],[19.8,13695],[19.8,13807],[19.8,13918],[19.8,14030],[19.8,14141],[19.1,14263],[18.9,14384],[18.9,14497],[18.9,14610],[18.9,14724],[18.9,14836],[18.5,14949],[18.5,15061],[18.2,15172],[17,15289],[16.4,15406],[15.7,15519],[15.4,15634],[15.3,15748],[15.3,15862],[15.3,15975],[15.3,16086],[15.3,16200],[15.3,16315],[15.3,16431],[15.3,16544],[15.3,16656],[15.3,16767],[15.3,16881],[15.3,16994],[15.3,17105],[15.3,17218],[15.3,17348],[15.3,17461],[15.3,17578],[15.3,17691],[15.3,17803],[16,17918],[16.1,18030],[16.3,18142],[16.7,18256],[16.7,18372],[16.7,18483],[16.7,18595],[16.7,18708],[16.7,18821],[16.7,18935],[16.7,19046],[16.7,19158],[16.7,19270],[16.7,19381],[16.7,19496],[16.7,19608],[16.7,19721],[16.7,19834],[16.7,19947],[16.6,20060],[16.4,20173],[16.4,20287],[16.4,20399],[16,20515],[16,20628],[16,20749],[16,20867],[16,20980],[16,21092],[15.8,21205],[15.8,21318],[15.8,21433],[15.8,21546],[15.8,21663],[15.8,21775],[15.8,21888],[15.8,22003],[15.8,22116],[15.8,22228],[15.8,22340],[15.8,22453],[15.8,22566],[15.8,22679],[15.7,22792],[15.6,22904],[14.8,23018],[13.6,23130],[13.5,23247],[13.5,23358],[13.5,23486],[13.2,23599],[12.9,23710],[12.8,23823],[12.8,23935],[12.8,24050],[12.8,24161],[12.5,24277],[12.5,24390],[12.3,24503],[12.3,24616],[12.3,24733],[12.3,24843],[12.3,24957],[12.3,25068],[12.3,25181],[12.3,25294],[12.3,25406],[12.3,25518],[12.3,25628],[11.4,25744],[11,25859],[11,25974],[11,26087],[11.4,26204],[13.6,26319],[16.3,26444],[17.9,26563],[18.2,26677],[18.2,26789],[18.2,26907],[18.2,27020],[18.2,27132],[18.2,27243],[18.2,27356],[18.2,27468],[18.2,27579],[18.2,27693],[18.2,27804],[18.2,27919],[18.2,28031],[18.2,28142],[18.2,28254],[18.1,28366],[18.1,28478],[17.2,28593],[10.6,28710],[10.3,28825],[10.3,28937],[10.3,29052],[10.4,29167],[10.9,29282],[10.9,29395],[10.9,29506],[10.9,29628],[10.9,29745],[10.9,29858]]",1,0,147.772,153.7956,12.43627992,2.5106,"[{""rating"":12.436279919522935,""responseTime"":2.5106000000089352}]",space,5.386,,153.8008,Not at all,0,153.8038,,,[],,0,0,0,0,1,audio/Narrative13Situation2.wav,audio/Narrative13Situation2.wav,audio/Narrative13Situation2.wav,audio/Narrative13Situation2.wav,2,2,2,2,,,,,,,,,,,,,,,,,,,,,,,,,,,,,,,,,,,,,,,
,,,,,,5acbd1ecf69e940001d9cd4d,2024-05-13_13h51.26.475,group3.1-3.2-social-tom,2023.2.2,Win32,20,65c5074098b851296ff0b7ed,664252f9e97a631f919fa7aa,,,,,,,,,,,,,,,,,,,,,,,,,,,,,153.804,1,audio/Narrative7Situation1.wav,155.712,space,155.7121,211.7184,"[[999,0],[999,114],[999,227],[999,336],[999,447],[999,556],[999,664],[999,775],[999,899],[999,1008],[999,1118],[999,1226],[999,1337],[40.4,1449],[52.9,1561],[52.2,1672],[49.5,1781],[49.4,1894],[49.4,2005],[49.4,2114],[49.4,2225],[49.4,2335],[49.4,2445],[49.4,2557],[49.4,2668],[49.4,2778],[49.4,2894],[49.4,3003],[49.4,3114],[49.4,3226],[49.4,3336],[49.4,3448],[49.4,3559],[49.4,3670],[49.4,3782],[49.4,3893],[49.4,4004],[49.4,4116],[49.4,4230],[49.4,4340],[49.5,4451],[50.7,4567],[51.7,4679],[52.9,4809],[53.5,4924],[53.9,5043],[53.9,5153],[53.9,5266],[56.6,5423],[56.7,5624],[56.7,5735],[56.7,5843],[56.7,5952],[56.7,6061],[56.7,6170],[56.7,6282],[56.7,6392],[56.7,6502],[56.7,6612],[56.7,6723],[56.7,6835],[56.4,6947],[56.4,7058],[56.4,7171],[56.6,7296],[56.6,7407],[56.6,7516],[56.6,7625],[55.8,7743],[55.7,7854],[55.4,7969],[54.9,8080],[54.5,8190],[54.5,8304],[53.9,8417],[53.9,8528],[53.9,8638],[53.6,8750],[52.6,8863],[51.6,8974],[51,9088],[51,9198],[51,9310],[51,9422],[51,9533],[51,9643],[50.8,9756],[50.7,9870],[49.2,9981],[48.3,10092],[48.3,10203],[47.6,10314],[47.2,10425],[47.2,10536],[47.2,10647],[47.2,10758],[47.2,10870],[47.2,10978],[47.2,11087],[47.2,11197],[47.2,11308],[47.2,11418],[47.2,11528],[47.2,11638],[47.2,11750],[47.2,11861],[47.2,11975],[47.2,12098],[47.2,12207],[47.4,12320],[48,12432],[48.6,12549],[49.1,12660],[49.5,12882],[49.5,13028],[49.9,13138],[49.9,13244],[49.9,13352],[49.9,13471],[49.9,13581],[50.5,13691],[51.4,13804],[52.3,13917],[52.3,14029],[52.3,14144],[52.3,14267],[52.3,14377],[52.3,14486],[52.3,14596],[52.3,14706],[52.3,14816],[52.3,14929],[53,15042],[54.2,15155],[55.8,15266],[56.6,15378],[57,15489],[57.7,15601],[58,15712],[58,15824],[59.1,15937],[60.7,16049],[61.1,16160],[61.1,16274],[61.1,16384],[60.8,16496],[60.4,16606],[60.4,16721],[60.2,16834],[60.2,16961],[60.2,17072],[60.2,17182],[60.2,17293],[60.2,17403],[60.2,17514],[60.2,17624],[60.4,17734],[61,17843],[61,17955],[61,18064],[61,18174],[61,18285],[61,18395],[61,18505],[61,18615],[61,18725],[61,18836],[61,18951],[61,19060],[61,19169],[61,19283],[61,19395],[61,19502],[61,19613],[61,19723],[61,19834],[61,19946],[60.8,20056],[60.7,20172],[60.7,20284],[60.7,20406],[60.7,20520],[60.7,20629],[60.7,20739],[60.7,20849],[60.7,20961],[60.7,21078],[60.7,21187],[60.7,21299],[60.7,21409],[60.7,21519],[60.7,21628],[60.7,21738],[60.7,21851],[60.7,21963],[60.7,22074],[60.5,22184],[60.2,22294],[60.2,22407],[60.2,22517],[60.2,22627],[60.2,22737],[60.2,22847],[60.2,22972],[60.2,23087],[60.1,23199],[60.1,23310],[60.1,23419],[59.4,23663],[59.1,23786],[58.8,23894],[58.6,24004],[58.5,24114],[58.5,24223],[58.5,24335],[58.5,24446],[58.5,24556],[58.5,24666],[58.2,24779],[57.9,24891],[56.9,25005],[56.3,25117],[55.7,25229],[55.2,25340],[54.5,25454],[54.5,25567],[54.5,25676],[54.5,25787],[54.5,25909],[54.5,26024],[54.2,26135],[54.2,26246],[54.2,26358],[54.1,26472],[49.2,26584],[46,26696],[46,26805],[45.2,26917],[42.7,27029],[41.3,27143],[40.4,27257],[40.4,27365],[39.1,27482],[38.6,27593],[38.6,27702],[38.6,27812],[38,27926],[38,28037],[37.6,28149],[37.2,28261],[37.2,28374],[37.2,28485],[36.7,28599],[36.4,28711],[36,28836],[35.3,28949],[35.1,29061],[34.4,29174],[33.9,29284],[33.6,29396],[33.2,29506],[33,29616],[33,29731],[33,29840],[32.8,29956],[32.5,30067],[31.9,30181],[31.1,30292],[30.8,30406],[30,30520],[29.2,30630],[29.2,30739],[29.2,30851],[28.9,30967],[28.8,31076],[28.5,31188],[28.5,31298],[28,31409],[27.9,31520],[27.9,31632],[27.9,31741],[27.9,31854],[27.9,31964],[27.9,32084],[27.8,32200],[27.8,32310],[27.8,32421],[27.8,32532],[27.3,32642],[27.2,32753],[27.2,32861],[27,32974],[27,33086],[27,33197],[26.7,33308],[26.6,33419],[26.4,33532],[26.4,33642],[26.4,33751],[26.4,33862],[26.4,33972],[26.3,34081],[25.4,34198],[25,34310],[24.7,34425],[24.7,34536],[24.5,34643],[24.5,34753],[24.5,34868],[24.5,34979],[24.5,35088],[24.1,35212],[24.1,35324],[24.1,35436],[24.1,35547],[24.1,35658],[24.1,35766],[24.1,35878],[23.9,35988],[23.8,36098],[23.6,36212],[23.6,36325],[23.6,36437],[23.6,36546],[23.9,36657],[26.6,36769],[29.1,36882],[30.7,36995],[32.9,37109],[34.8,37222],[35.1,37335],[38.6,37447],[45.1,37559],[55.1,37672],[55.8,37783],[55.8,37894],[55.8,38006],[55.8,38123],[55.8,38238],[55.8,38349],[55.8,38463],[55.8,38571],[55.8,38681],[55.8,38793],[55.8,38902],[55.8,39013],[55.8,39125],[55.8,39235],[55.8,39347],[55.8,39457],[55.8,39567],[55.8,39678],[55.8,39789],[55.8,39900],[56,40011],[56.1,40120],[56.6,40233],[56.7,40344],[56.7,40464],[57,40575],[57.3,40683],[57.7,40794],[58.2,40910],[58.6,41024],[58.9,41146],[58.9,41257],[59.1,41367],[59.1,41480],[59.1,41591],[59.1,41701],[59.1,41813],[59.1,41927],[59.1,42037],[59.1,42147],[59.1,42259],[59.1,42370],[59.1,42481],[59.1,42591],[59.1,42703],[58.9,42814],[58.8,42927],[58.5,43039],[57.6,43154],[57.2,43265],[56.4,43376],[56.3,43489],[56.3,43599],[56.3,43708],[56.3,43816],[56.1,43929],[56.1,44045],[56.1,44166],[55.2,44277],[54.5,44388],[54.5,44499],[54.5,44609],[54.5,44720],[54.5,44830],[54.5,44942],[54.5,45052],[54.8,45165],[55.1,45279],[55.1,45387],[55.1,45502],[55.4,45613],[55.5,45725],[56,45835],[56.4,45947],[56.4,46058],[56.6,46172],[56.6,46282],[56.7,46392],[56.7,46503],[57,46615],[57,46727],[57.2,46839],[57.2,46948],[55.8,47064],[55.8,47191],[55.8,47307],[55.8,47421],[55.8,47561],[54.8,47691],[54.1,47834],[53.9,47964],[53.9,48074],[53.9,48185],[53.9,48295],[53.9,48411],[53.9,48521],[53.9,48640],[53.9,48749],[53.8,48860],[53.2,48972],[53.2,49083],[53.2,49197],[53.2,49309],[53.2,49419],[53.2,49530],[53,49642],[52.7,49754],[51.7,49867],[48,49981],[43.5,50106],[40.8,50222],[39.2,50335],[39.2,50445],[39.2,50557],[39.2,50665],[41,50777],[53.3,50894],[56.3,51006],[57.2,51118],[57.7,51230],[57.7,51343],[57.9,51457],[58.2,51568],[58.3,51684],[58.3,51794],[58.3,51906],[58.3,52019],[58.3,52131],[58.3,52242],[58.3,52354],[58.3,52464],[58.8,52576],[58.8,52689],[58.9,52798],[59.2,52909],[59.2,53019],[59.2,53135],[59.2,53253],[59.2,53362],[59.2,53472],[59.2,53585],[59.2,53700],[59.2,53807],[59.2,53920],[59.2,54033],[59.2,54144],[59.2,54255],[59.2,54365],[59.2,54480],[59.2,54590],[59.2,54704],[59.2,54814],[59.2,54929],[59.2,55041],[59.2,55157],[59.2,55269],[59.8,55384],[59.8,55496],[59.8,55607],[59.8,55722],[59.8,55832],[59.8,55950]]",1,0,211.7187,217.8127,50.63259112,3.3261,"[{""rating"":47.10677838763385,""responseTime"":1.795000000000016},{""rating"":50.632591122474366,""responseTime"":3.20659999999404},{""rating"":50.632591122474366,""responseTime"":3.3260999999940566}]",space,5.4411,,217.8127,All the time,100,217.8199,,,[],,0,1,1,1,1,audio/Narrative7Situation1.wav,audio/Narrative8Situation1.wav,audio/Narrative5Situation1.wav,audio/Narrative6Situation1.wav,2,5,5,2,1.8539,,,,,,,,,,,,,,,,,,,,,,,,,,,,,,,,,,,,,,
,,,,,,5acbd1ecf69e940001d9cd4d,2024-05-13_13h51.26.475,group3.1-3.2-social-tom,2023.2.2,Win32,20,65c5074098b851296ff0b7ed,664252f9e97a631f919fa7aa,,,,,,,,,,,,,,,,,,,,,,,,,,,,,217.8201,1,audio/Narrative7Situation2.wav,220.8463,,220.8464,228.386,"[[49.8,685],[49.8,797],[49.8,908],[49.8,1019],[49.8,1130],[49.8,1240],[49.8,1348],[49.8,1458],[49.8,1569],[49.8,1685],[49.8,1803],[49.8,1915],[49.8,2029],[49.8,2140],[49.8,2250],[49.8,2359],[49.8,2470],[49.8,2582],[49.8,2696],[49.8,2806],[49.8,2917],[49.8,3028],[49.8,3140],[49.8,3253],[49.8,3364],[49.8,3481],[49.8,3601],[49.8,3717],[49.8,3829],[49.8,3940],[49.8,4051],[49.8,4163],[49.8,4277],[50.7,4391],[50.8,4505],[51,4618],[51,4730],[51.1,4839],[51.7,4951],[52.2,5066],[52.4,5179],[52.4,5290],[53.2,5402],[54.2,5515],[54.5,5627],[54.5,5741],[54.7,5852],[54.8,5962],[54.9,6074],[54.9,6188],[54.9,6303],[55.1,6420],[55.1,6531],[55.1,6641],[55.1,6752],[54.9,6864],[54.7,6977],[54.5,7093],[54.5,7205],[54.5,7317],[54.5,7428],[54.5,7539]]",1,0,228.3861,231.8227,53.27695314,2.073,"[{""rating"":53.27695313942191,""responseTime"":2.0730000000000075}]",space,2.7165,,231.8228,Not at all,0,231.8255,,,[],,0,2,2,2,1,audio/Narrative7Situation2.wav,audio/Narrative8Situation2.wav,audio/Narrative5Situation2.wav,audio/Narrative6Situation2.wav,3,3,3,3,,,,,,,,,,,,,,,,,,,,,,,,,,,,,,,,,,,,,,,
,,,,,,5acbd1ecf69e940001d9cd4d,2024-05-13_13h51.26.475,group3.1-3.2-social-tom,2023.2.2,Win32,20,65c5074098b851296ff0b7ed,664252f9e97a631f919fa7aa,,,,,,,,,,,,,,,,,,,,,,,,,,,,,231.8257,1,audio/Narrative7Situation3.wav,239.8784,,239.8785,249.2424,"[[52.2,1011],[51,1126],[51,1237],[51,1352],[51,1463],[51,1682],[51,1827],[51,1933],[51,2040],[51,2147],[51,2258],[51,2364],[51,2474],[51,2584],[51,2694],[51,2805],[50.8,2915],[50.8,3027],[50.8,3136],[50.8,3247],[50.8,3357],[50.8,3468],[50.4,3578],[50.4,3691],[51.3,3805],[54.5,3920],[56.4,4044],[56.4,4153],[56.7,4265],[57.4,4374],[57.9,4486],[58.3,4598],[59.9,4711],[61.6,4825],[62.3,4935],[62.3,5046],[62.3,5154],[62.4,5267],[63.5,5376],[63.9,5490],[64.2,5601],[64.4,5715],[64.4,5827],[63,5938],[61.9,6053],[61.9,6163],[61.7,6278],[61.7,6389],[61.1,6503],[60.7,6614],[60.5,6728],[60.5,6838],[60.5,6949],[60.5,7069],[60.5,7181],[60.4,7292],[60.1,7404],[60.1,7515],[59.6,7626],[59.5,7736],[59.2,7848],[58.6,7961],[57.9,8073],[57.4,8182],[57,8296],[56.9,8409],[56.9,8524],[56.3,8636],[55.8,8747],[55.4,8860],[55.4,8970],[55.4,9081],[55.4,9192],[55.4,9308]]",1,0,249.2425,253.8463,54.89295105,3.654,"[{""rating"":54.89295105386002,""responseTime"":3.6539999999999964}]",space,3.969,,253.8463,Half the time,50,253.8482,,,[],,0,3,3,3,1,audio/Narrative7Situation3.wav,audio/Narrative8Situation3.wav,audio/Narrative5Situation3.wav,audio/Narrative6Situation3.wav,8,4,3,5,,,,,,,,,,,,,,,,,,,,,,,,,,,,,,,,,,,,,,,
,,,,,,5acbd1ecf69e940001d9cd4d,2024-05-13_13h51.26.475,group3.1-3.2-social-tom,2023.2.2,Win32,20,65c5074098b851296ff0b7ed,664252f9e97a631f919fa7aa,,,,,,,,,,,,,,,,,,,,,,,,,,,,,253.8483,1,audio/Narrative7Situation4.wav,256.8757,,256.8758,268.724,"[[999,5],[999,112],[999,222],[999,332],[999,444],[999,553],[999,663],[999,773],[999,884],[999,992],[999,1099],[999,1208],[999,1319],[52.2,1431],[51.1,1545],[51,1656],[50.1,1769],[50.1,1887],[50.1,1997],[50.1,2108],[50.1,2220],[50.1,2339],[50.1,2459],[50.1,2570],[50.1,2681],[50.1,2795],[50.1,2905],[50.1,3018],[50.1,3128],[50.1,3238],[49.7,3350],[48.9,3462],[47.2,3574],[45.8,3684],[42.5,3796],[37.5,3912],[36.1,4027],[34.8,4139],[34.2,4252],[34.2,4365],[34.2,4481],[33.3,4592],[32.6,4704],[30.8,4817],[29.8,4930],[29.8,5039],[29.5,5150],[27,5262],[26.7,5374],[26.1,5486],[26,5598],[25.7,5718],[25.5,5830],[25.3,5946],[25.3,6060],[25.3,6170],[25.3,6281],[25.3,6393],[25.3,6503],[25.3,6615],[25.3,6727],[25.3,6838],[25.8,6950],[26.3,7062],[26.9,7175],[27.3,7289],[27.5,7400],[27.5,7517],[27.5,7628],[27.5,7740],[27.9,7851],[28,7963],[29.1,8077],[35,8191],[46.4,8320],[46.4,8432],[46.4,8542],[46.4,8654],[46.4,8766],[46.4,8878],[46.6,8990],[46.9,9101],[47,9212],[47,9322],[46.1,9435],[44.8,9548],[44.8,9655],[44.8,9767],[44.7,9881],[44.7,9992],[44.7,10103],[44.7,10216],[45.2,10328],[45.4,10443],[45.4,10555],[45.8,10667],[46.1,10778],[46.1,10889],[46.1,10998],[46.1,11112],[46.1,11222],[46.1,11340],[46.1,11448],[46.1,11561],[46.1,11677],[46,11792]]",1,0,268.7241,272.8121,36.97007047,3.4416,"[{""rating"":38.586068388131125,""responseTime"":1.0719000000059964},{""rating"":36.97007047369302,""responseTime"":3.4415999999940823}]",space,3.4411,,272.8121,Half the time,50,272.8134,,,[],,0,4,4,4,1,audio/Narrative7Situation4.wav,audio/Narrative8Situation4.wav,audio/Narrative5Situation4.wav,audio/Narrative6Situation4.wav,3,3,1,2,,,,,,,,,,,,,,,,,,,,,,,,,,,,,,,,,,,,,,,
,,,,,,5acbd1ecf69e940001d9cd4d,2024-05-13_13h51.26.475,group3.1-3.2-social-tom,2023.2.2,Win32,20,65c5074098b851296ff0b7ed,664252f9e97a631f919fa7aa,,,,,,,,,,,,,,,,,,,,,,,,,,,,,272.8135,1,audio/Narrative7Situation5.wav,272.8677,space,272.8677,281.4723,"[[38.6,1101],[45.5,1220],[47.9,1351],[49.5,1467],[50.1,1584],[50.1,1695],[50.1,1807],[50.1,1922],[50.2,2036],[50.5,2145],[50.5,2260],[50.5,2372],[50.5,2483],[50.4,2593],[50.4,2705],[49.9,2814],[46.3,3042],[40.5,3184],[39.7,3295],[38.3,3409],[36.3,3520],[33.9,3633],[32.8,3744],[32.6,3857],[32.5,3968],[31.9,4079],[31.9,4190],[31.9,4301],[31.9,4414],[31.7,4524],[31.7,4636],[31.7,4748],[31.6,4857],[31.6,4970],[31.6,5084],[31.6,5194],[31.6,5307],[31.6,5430],[31.6,5550],[31.6,5661],[31.7,5774],[32.8,5885],[33.5,5999],[34.8,6113],[35.3,6223],[35.5,6336],[35.7,6446],[35.7,6558],[34.7,6673],[34.2,6785],[36.1,6898],[37.2,7014],[37.2,7125],[36.6,7236],[35.3,7348],[33.6,7469],[33,7584],[33,7699],[33,7809],[33,7919],[33,8031],[33,8141],[32.6,8253],[32.6,8369],[32.6,8491],[32.6,8604]]",1,0,281.4724,283.5229,36.82315709,1.2469,"[{""rating"":36.82315708907658,""responseTime"":1.246899999991058}]",space,1.3911,,283.523,Half the time,50,283.5243,,,[],,0,5,5,5,1,audio/Narrative7Situation5.wav,audio/Narrative8Situation5.wav,audio/Narrative5Situation5.wav,audio/Narrative6Situation5.wav,5,2,5,2,0.0032,,,,,,,,,,,,,,,,,,,,,,,,,,,,,,,,,,,,,,
,,,,,,5acbd1ecf69e940001d9cd4d,2024-05-13_13h51.26.475,group3.1-3.2-social-tom,2023.2.2,Win32,20,65c5074098b851296ff0b7ed,664252f9e97a631f919fa7aa,,,,,,,,,,,,,,,,,,,,,,,,,,,,,283.5245,1,audio/Narrative7Situation6.wav,286.5556,,286.5556,296.6458,"[[48.2,552],[48.2,665],[48.6,781],[49.7,902],[49.7,1028],[49.7,1137],[49.7,1248],[49.7,1363],[49.7,1474],[49.5,1582],[49.5,1693],[49.5,1803],[49.5,1914],[49.5,2030],[49.5,2141],[49.5,2251],[49.5,2367],[49.5,2487],[49.5,2603],[49.4,2716],[48.3,2828],[47.2,2942],[46,3056],[44.7,3169],[42.7,3284],[41.3,3401],[40.8,3518],[40.8,3631],[40.8,3742],[40.8,3851],[40.8,3961],[40.7,4075],[40.7,4185],[40.7,4296],[40.7,4407],[40.7,4517],[40.7,4628],[40.7,4739],[40.7,4849],[40.7,4960],[40.7,5073],[40.7,5182],[40.7,5293],[40.7,5404],[39.8,5517],[37.6,5638],[37.5,5752],[36.9,5864],[36.9,5976],[36.9,6099],[36.9,6214],[36.9,6325],[36.9,6436],[36.9,6548],[36.9,6663],[36.9,6773],[36.9,6882],[36.9,6993],[36.9,7106],[36.9,7216],[37.7,7336],[38.2,7461],[38.2,7576],[38.2,7694],[38.2,7804],[38.2,7916],[38.8,8030],[38.9,8142],[38.9,8253],[39.4,8368],[39.4,8478],[35.8,8591],[35.3,8701],[33.2,8818],[30.5,8936],[30.5,9059],[30,9185],[30,9295],[30,9405],[30,9517],[30,9629],[30,9741],[30,9858],[30,9975],[30,10090]]",1,0,296.6459,298.2852,37.4107909,0.9908,"[{""rating"":37.41079090100526,""responseTime"":0.990799999997023}]",space,1.0036,,298.2852,Half the time,50,298.2865,,,[],,0,6,6,6,1,audio/Narrative7Situation6.wav,audio/Narrative8Situation6.wav,audio/Narrative5Situation6.wav,audio/Narrative6Situation6.wav,3,2,3,2,,,,,,,,,,,,,,,,,,,,,,,,,,,,,,,,,,,,,,,
,,,,,,5acbd1ecf69e940001d9cd4d,2024-05-13_13h51.26.475,group3.1-3.2-social-tom,2023.2.2,Win32,20,65c5074098b851296ff0b7ed,664252f9e97a631f919fa7aa,,,,,,,,,,,,,,,,,,,,,,,,,,,,,298.2867,1,audio/Narrative7Situation7.wav,303.3261,,303.3261,320.6006,"[[49.8,884],[49.8,997],[49.8,1107],[49.8,1221],[49.8,1343],[49.8,1454],[49.8,1561],[49.1,1674],[48.8,1789],[47.4,1902],[45.7,2015],[43.3,2128],[39.8,2241],[39.1,2359],[38.6,2469],[34.8,2582],[34.2,2694],[33.6,2809],[33.5,2919],[33.5,3030],[33.5,3137],[33.5,3248],[33.5,3359],[33.3,3470],[33.2,3581],[33.3,3695],[36.4,3811],[41.7,3924],[57.6,4037],[66,4154],[66,4275],[66,4388],[66,4499],[66,4610],[66,4724],[66,4841],[66,4954],[66,5066],[66,5176],[66,5286],[66,5397],[66.1,5509],[66.1,5620],[66.1,5731],[65.7,5967],[64.9,6099],[64.5,6206],[64.2,6318],[64.1,6431],[64.1,6541],[64.1,6651],[64.1,6761],[64.1,6878],[64.1,6990],[63.3,7103],[62.3,7229],[62,7349],[62,7459],[62,7570],[62,7679],[62.4,7791],[62.4,7902],[62.4,8013],[62.4,8122],[62.4,8235],[62.4,8350],[62.4,8468],[62.4,8577],[62.4,8687],[62.4,8797],[62.6,8910],[62.9,9025],[63.2,9138],[63.5,9250],[63.6,9361],[63.6,9472],[63.3,9583],[62.6,9698],[62.4,9812],[61.7,9925],[61.3,10039],[60.7,10163],[60.7,10272],[60.7,10384],[60.5,10496],[59.2,10608],[58.5,10719],[58.2,10830],[57.7,10940],[57,11056],[56.9,11172],[56.4,11284],[56.1,11397],[56.1,11508],[55.8,11620],[55.8,11731],[55.8,11843],[54.9,11956],[54.7,12066],[53.9,12180],[53.6,12294],[53.3,12405],[52.7,12518],[52.2,12630],[51.7,12742],[51.6,12854],[51.6,12969],[51.3,13083],[51,13201],[51,13324],[51,13443],[51,13555],[51,13667],[51,13779],[51,13900],[51,14011],[50.4,14124],[50.1,14236],[49.9,14347],[49.9,14461],[49.9,14571],[49.8,14682],[49.8,14794],[49.8,14907],[49.8,15020],[49.8,15134],[49.8,15245],[49.8,15359],[49.8,15473],[49.8,15586],[49.8,15696],[49.8,15808],[49.8,15919],[49.8,16030],[49.8,16146],[48.9,16270],[48.9,16384],[48.9,16497],[48.9,16607],[48.9,16718],[48.9,16830],[48.9,16940],[48.9,17050],[48.9,17162],[48.9,17274]]",1,0,320.6007,322.2728,58.71258069,1.1264,"[{""rating"":58.71258069466489,""responseTime"":1.1264000000059582}]",space,1.0228,,322.2728,Not at all,0,336.4105,0,11.5465,"[{""rating"":0.6835691595097393,""responseTime"":10.55579999999702},{""rating"":0.6835691595097393,""responseTime"":10.61460000000892},{""rating"":0.6835691595097393,""responseTime"":11.07570000000294},{""rating"":0,""responseTime"":11.54649999999998}]",space,0,7,7,7,1,audio/Narrative7Situation7.wav,audio/Narrative8Situation7.wav,audio/Narrative5Situation7.wav,audio/Narrative6Situation7.wav,5,3,4,5,,,13.4852,,,,,,,,,,,,,,,,,,,,,,,,,,,,,,,,,,,,
,,,,,,5acbd1ecf69e940001d9cd4d,2024-05-13_13h51.26.475,group3.1-3.2-social-tom,2023.2.2,Win32,20,65c5074098b851296ff0b7ed,664252f9e97a631f919fa7aa,,,,,,,,,,,,,,,,,,,,,,,,,,,,,336.4107,1,audio/Narrative7Situation8.wav,338.4122,,338.4122,348.7087,"[[999,0],[999,123],[999,238],[999,347],[999,457],[999,570],[58,686],[68.6,796],[57.3,911],[50.7,1023],[49.7,1136],[49.7,1251],[49.7,1363],[49.7,1473],[49.7,1586],[49.7,1696],[49.7,1807],[49.7,1918],[49.7,2029],[49.7,2140],[49.7,2251],[49.7,2361],[49.7,2471],[49.7,2582],[49.7,2694],[49.7,2810],[49.7,2923],[49.2,3038],[48.8,3151],[47.7,3262],[47.2,3374],[46.9,3486],[46.7,3597],[46.7,3712],[46.4,3823],[46.4,3932],[46.4,4046],[45.8,4156],[43.8,4269],[42.9,4382],[41.9,4497],[41,4609],[40.7,4722],[40.7,4835],[40.7,4944],[39.7,5059],[38.8,5172],[38.8,5280],[38.8,5391],[38.8,5505],[38.5,5624],[38.5,5742],[38.5,5856],[38.5,5965],[38.6,6079],[38.6,6192],[38.6,6303],[38.6,6413],[38.6,6524],[38.6,6636],[38.6,6748],[38.6,6859],[38.6,6971],[38.6,7084],[38.6,7195],[38.6,7307],[38.6,7418],[38.6,7525],[38.6,7636],[38.6,7746],[38.6,7858],[38.6,7964],[38.6,8075],[38.6,8187],[38.6,8297],[38.6,8408],[38.6,8518],[38.6,8630],[38.6,8741],[38.8,8851],[39.1,8964],[39.4,9085],[39.5,9201],[39.5,9312],[38.2,9424],[36,9538],[35.5,9649],[35.5,9761],[35.5,9875],[35.5,9988],[36.3,10234]]",1,0,348.7088,350.1448,41.96496774,0.9437,"[{""rating"":41.96496773835522,""responseTime"":0.9437000000029911}]",space,0.7951,,350.1448,All the time,100,350.1468,,,[],,0,8,8,8,1,audio/Narrative7Situation8.wav,audio/Narrative8Situation8.wav,audio/Narrative5Situation8.wav,audio/Narrative6Situation8.wav,2,3,3,5,,,,,,,,,,,,,,,,,,,,,,,,,,,,,,,,,,,,,,,
,,,,,,5acbd1ecf69e940001d9cd4d,2024-05-13_13h51.26.475,group3.1-3.2-social-tom,2023.2.2,Win32,20,65c5074098b851296ff0b7ed,664252f9e97a631f919fa7aa,,,,,,,,,,,,,,,,,,,,,,,,,,,,,350.147,1,audio/Narrative7Situation9.wav,352.192,,352.1921,360.9087,"[[49.4,891],[49.5,1007],[49.5,1116],[49.5,1227],[49.5,1340],[49.5,1451],[48,1566],[46.3,1679],[46.1,1791],[45.8,1903],[45.7,2014],[45.2,2126],[45.1,2236],[43.5,2349],[42,2466],[40.7,2578],[39.1,2690],[37.7,2802],[37,2916],[36.9,3031],[36.9,3142],[36.9,3254],[36.9,3366],[36.9,3478],[37.3,3590],[41,3704],[45.1,3820],[46.4,3942],[48.9,4053],[54.2,4166],[60.2,4279],[63.6,4395],[63.6,4507],[63.5,4621],[63.5,4730],[62.9,4843],[62,4956],[61.7,5067],[61.7,5178],[61.7,5289],[62.1,5406],[62.6,5517],[62.9,5627],[63.2,5739],[64.1,5850],[64.6,5962],[64.8,6074],[65.1,6185],[65.1,6294],[65.1,6408],[65.2,6518],[65.5,6630],[65.5,6740],[65.5,6857],[65.5,6976],[65.2,7089],[64.8,7201],[64.8,7311],[64.2,7425],[64.2,7536],[64.2,7651],[64.2,7761],[64.2,7871],[64.2,7984],[64.2,8094],[64.2,8207],[64.2,8317],[64.2,8437],[64.4,8548],[64.5,8660]]",1,0,360.9089,362.7025,57.09658278,1.1902,"[{""rating"":57.09658278022678,""responseTime"":1.190200000003017}]",space,1.1448,,362.7026,Half the time,50,362.7042,,,[],,0,9,9,9,1,audio/Narrative7Situation9.wav,audio/Narrative8Situation9.wav,audio/Narrative5Situation9.wav,audio/Narrative6Situation9.wav,2,3,3,4,,,,,,,,,,,,,,,,,,,,,,,,,,,,,,,,,,,,,,,
,,,,,,5acbd1ecf69e940001d9cd4d,2024-05-13_13h51.26.475,group3.1-3.2-social-tom,2023.2.2,Win32,20,65c5074098b851296ff0b7ed,664252f9e97a631f919fa7aa,,,,,,,,,,,,,,,,,,,,,,,,,,,,,362.7044,1,audio/Narrative8Situation1.wav,367.7435,,367.7436,383.7919,"[[49.9,896],[49.9,1008],[49.9,1121],[49.9,1232],[49.9,1343],[49.9,1454],[49.9,1563],[49.9,1673],[49.9,1782],[49.9,1895],[49.9,2007],[49.9,2122],[49.9,2232],[49.9,2343],[49.9,2454],[49.9,2566],[49.9,2675],[49.9,2786],[49.9,2901],[49.9,3008],[49.9,3119],[49.5,3232],[48.8,3345],[48.3,3469],[46.6,3583],[45.5,3693],[45,3805],[44.5,3918],[39.4,4031],[29.1,4147],[28,4258],[27,4370],[25.1,4483],[24.4,4595],[23.8,4706],[23.6,4819],[23.3,4931],[23.3,5042],[23.3,5153],[22.8,5263],[21.9,5374],[21.7,5488],[21.7,5598],[20.8,5710],[20.7,5821],[20.7,5934],[20.7,6047],[20.7,6163],[20.7,6274],[20.7,6396],[20.7,6508],[21.3,6620],[21.9,6731],[21.9,6845],[22,6958],[22,7069],[22,7179],[21.6,7290],[20.6,7401],[19.5,7513],[19.5,7624],[19.5,7736],[19.5,7982],[20.3,8100],[21,8208],[21,8317],[21.3,8428],[21.3,8538],[21.1,8649],[20.4,8761],[20.3,8871],[20,8988],[20,9098],[20,9208],[20,9318],[20,9428],[20.3,9544],[20.7,9668],[21,9778],[21,9891],[21,10002],[21,10112],[21,10222],[20.7,10334],[20.4,10445],[20,10555],[19.5,10666],[19.5,10775],[19.5,10886],[19.5,10998],[19.5,11108],[19.5,11218],[19.7,11328],[19.8,11440],[20.3,11555],[20.4,11665],[20.4,11774],[20.4,11884],[20,11998],[19.8,12107],[19.5,12217],[19.2,12331],[18.8,12454],[18.8,12567],[18.8,12676],[18.8,12787],[18.8,12899],[18.9,13011],[19.1,13122],[19.2,13237],[19.4,13348],[19.7,13459],[19.7,13571],[19.7,13681],[19.2,13793],[19.1,13904],[18.8,14017],[18.6,14129],[18.5,14239],[18.5,14351],[18.5,14463],[18.5,14577],[18.5,14687],[18.5,14798],[18.6,14912],[19.1,15023],[19.2,15134],[19.4,15250],[19.4,15360],[19.4,15474],[19.4,15602],[19.4,15712],[19.4,15822],[19.4,15933],[19.2,16048]]",1,0,383.7921,385.7047,21.1039033,1.3783,"[{""rating"":21.103903303642102,""responseTime"":1.3782999999970116}]",space,1.2093,,385.7048,Half the time,50,385.7059,,,[],,0,10,10,10,1,audio/Narrative8Situation1.wav,audio/Narrative7Situation1.wav,audio/Narrative6Situation1.wav,audio/Narrative5Situation1.wav,5,2,2,5,,,,,,,,,,,,,,,,,,,,,,,,,,,,,,,,,,,,,,,
,,,,,,5acbd1ecf69e940001d9cd4d,2024-05-13_13h51.26.475,group3.1-3.2-social-tom,2023.2.2,Win32,20,65c5074098b851296ff0b7ed,664252f9e97a631f919fa7aa,,,,,,,,,,,,,,,,,,,,,,,,,,,,,385.706,1,audio/Narrative8Situation2.wav,388.7477,,388.7477,398.973,"[[50.4,113],[50.4,223],[50.4,332],[50.4,442],[50.4,554],[50.4,668],[50.4,790],[50.4,909],[50.4,1019],[50.4,1128],[50.4,1240],[50.4,1349],[50.4,1459],[50.4,1569],[50.1,1684],[46.9,1797],[45.7,1912],[45.5,2024],[45.2,2133],[45.2,2244],[45.2,2353],[45.2,2463],[45.8,2574],[47,2691],[47.7,2802],[48.6,2916],[48.9,3030],[48.9,3141],[48.8,3251],[46.9,3360],[44.7,3472],[43.2,3583],[34.8,3701],[32.9,3817],[32.9,3937],[32.9,4046],[31.7,4159],[25.1,4271],[22,4382],[22,4494],[22,4603],[22,4716],[22,4833],[23.1,4945],[25.3,5065],[25.8,5180],[26.3,5290],[26.9,5400],[27.3,5513],[27.6,5625],[27.6,5738],[27,5851],[26.3,5962],[26.3,6076],[26,6187],[25.4,6300],[25,6411],[24.8,6522],[24.4,6632],[23.8,6750],[23.2,6875],[23.1,6986],[23.1,7100],[23.1,7213],[23.1,7324],[23.1,7435],[23.1,7543],[23.1,7655],[23.1,7767],[23.1,7877],[23.1,7988],[23.1,8098],[23.1,8209],[23.1,8318],[23.1,8428],[23.5,8540],[25.8,8791],[26.6,8906],[27,9016],[27.5,9128],[27.5,9238],[27.5,9347],[27.5,9457],[27.5,9566],[27.5,9677],[27.5,9786],[27.5,9896],[27.5,10005],[27.5,10114],[27.5,10225]]",1,0,398.9731,400.279,26.98026115,0.7732,"[{""rating"":26.98026114946583,""responseTime"":0.773200000002987}]",space,0.6522,,400.279,Half the time,50,400.28,,,[],,0,11,11,11,1,audio/Narrative8Situation2.wav,audio/Narrative7Situation2.wav,audio/Narrative6Situation2.wav,audio/Narrative5Situation2.wav,3,3,3,3,,,,,,,,,,,,,,,,,,,,,,,,,,,,,,,,,,,,,,,
,,,,,,5acbd1ecf69e940001d9cd4d,2024-05-13_13h51.26.475,group3.1-3.2-social-tom,2023.2.2,Win32,20,65c5074098b851296ff0b7ed,664252f9e97a631f919fa7aa,,,,,,,,,,,,,,,,,,,,,,,,,,,,,400.2802,1,audio/Narrative8Situation3.wav,404.3054,,404.3054,426.8107,"[[50.2,1123],[50.5,1234],[50.5,1346],[49.4,1459],[48.6,1572],[47.2,1685],[44.4,1799],[41.4,1911],[38,2023],[35.7,2135],[26.6,2253],[26.3,2366],[25.4,2481],[21.4,2594],[21.4,2704],[21.4,2814],[21.4,2926],[21.4,3038],[21.6,3151],[22.9,3264],[23.6,3380],[23.6,3502],[23.8,3618],[23.8,3729],[23.8,3840],[22.8,3952],[21.9,4065],[21.9,4176],[21.9,4289],[21.3,4406],[21.1,4518],[21.1,4630],[22.9,4743],[27.9,4874],[31,5011],[32.3,5142],[34.1,5275],[36.3,5408],[36.7,5530],[36.7,5654],[37.6,5775],[38.8,5888],[39.5,6000],[40.5,6112],[41,6224],[41,6343],[41,6464],[41.3,6577],[41.3,6688],[41.3,6798],[41.6,6910],[41.6,7021],[41.6,7132],[41.7,7243],[41.7,7357],[41.7,7468],[41.7,7577],[41.7,7690],[42.5,7802],[42.7,7917],[42.9,8028],[42.9,8136],[42.9,8251],[42.9,8362],[42.9,8473],[42.9,8584],[42.9,8698],[42.9,8809],[42.9,8919],[43,9031],[43.3,9142],[45.4,9255],[46.9,9370],[48.9,9483],[53.2,9597],[55.1,9716],[55.7,9839],[56.3,9951],[56.4,10062],[57.3,10179],[57.7,10291],[58.3,10402],[58.8,10512],[60.4,10623],[62.6,10740],[62.6,10852],[62.4,10963],[62.4,11072],[62.4,11183],[62.4,11296],[62.4,11405],[62.4,11516],[62.4,11627],[62.4,11738],[62.1,11854],[61.9,11966],[61.7,12076],[61.7,12186],[61.7,12299],[61.7,12410],[62,12535],[62.1,12649],[62.1,12763],[62.4,12873],[62.6,12985],[62.7,13100],[62.7,13345],[62.7,13459],[62.7,13566],[62.7,13679],[62.6,13789],[62.4,13897],[62.3,14009],[61.9,14119],[61.1,14230],[60.7,14342],[60.4,14453],[60.2,14565],[60.1,14676],[59.9,14791],[59.9,14900],[59.9,15011],[59.9,15118],[59.9,15229],[60.7,15345],[61,15463],[61.1,15578],[61.4,15688],[61.9,15802],[62.1,15914],[62.3,16026],[62.4,16135],[62.4,16248],[62.4,16360],[61.1,16473],[60.4,16584],[59.4,16696],[58.2,16808],[56.6,16922],[54.5,17039],[53.3,17151],[52,17262],[50.1,17375],[48,17487],[47.6,17601],[47.6,17711],[47.2,17824],[46.3,17935],[46,18047],[46,18158],[46,18267],[46,18382],[46,18505],[46,18615],[46,18727],[45.8,18843],[45.7,18956],[45.7,19066],[45.8,19177],[45.8,19288],[45.8,19400],[45.7,19511],[45.5,19623],[45,19736],[44.2,19848],[43.5,19964],[42.7,20075],[41.7,20186],[41,20300],[40.8,20410],[40.7,20522],[40.7,20630],[40.7,20741],[39.7,20854],[39.4,20968],[39.1,21080],[38.8,21192],[38.5,21307],[38.5,21420],[38.3,21531],[38.3,21652],[38.3,21764],[38.3,21874],[38.3,22118],[38.3,22235],[38.3,22342],[38.3,22450]]",1,0,426.8107,428.2702,44.75623328,0.9337,"[{""rating"":44.756233276650654,""responseTime"":0.9337000000029434}]",space,0.8253,,428.2702,All the time,100,428.272,,,[],,0,12,12,12,1,audio/Narrative8Situation3.wav,audio/Narrative7Situation3.wav,audio/Narrative6Situation3.wav,audio/Narrative5Situation3.wav,4,8,5,3,,,,,,,,,,,,,,,,,,,,,,,,,,,,,,,,,,,,,,,
,,,,,,5acbd1ecf69e940001d9cd4d,2024-05-13_13h51.26.475,group3.1-3.2-social-tom,2023.2.2,Win32,20,65c5074098b851296ff0b7ed,664252f9e97a631f919fa7aa,,,,,,,,,,,,,,,,,,,,,,,,,,,,,428.2722,1,audio/Narrative8Situation4.wav,431.2973,,431.2973,445.5646,"[[49.8,790],[49.7,903],[49.7,1015],[49.7,1126],[49.7,1236],[49.7,1351],[49.7,1461],[49.7,1571],[49.7,1682],[49.7,1794],[49.7,1904],[49.7,2016],[49.7,2126],[49.7,2239],[49.7,2353],[49.7,2462],[49.7,2570],[49.7,2680],[49.7,2790],[49.7,2908],[49.7,3019],[49.7,3130],[49.7,3240],[49.7,3351],[49.7,3461],[49.7,3578],[49.7,3701],[49.7,3812],[49.7,3922],[49.7,4033],[47.6,4152],[45.1,4263],[42.6,4375],[41.1,4487],[40.7,4599],[40.7,4709],[40.7,4820],[40.4,4930],[36.1,5041],[33.8,5154],[32.6,5267],[29.4,5382],[29.2,5496],[27.9,5608],[15.8,5721],[15.8,5831],[15.8,5944],[18.2,6057],[23.3,6170],[23.9,6283],[23.9,6395],[23.9,6508],[23.9,6617],[23.6,6743],[23.5,6856],[22.8,6971],[22.3,7084],[22.2,7196],[22.2,7306],[22.2,7418],[22.2,7530],[22.2,7639],[22.2,7750],[22.2,7861],[22.2,7972],[22.2,8084],[22.2,8195],[22.2,8303],[22.3,8420],[23.9,8531],[24.8,8644],[24.8,8753],[24.8,8873],[26.7,8988],[29.1,9101],[33.8,9213],[40.5,9326],[40.5,9439],[40.5,9551],[40.5,9670],[42.7,9788],[43.3,9899],[43.3,10010],[43.3,10121],[43.5,10231],[44.2,10343],[45.4,10460],[45.4,10570],[45.7,10679],[47,10791],[48,10903],[48,11013],[48.3,11126],[48.6,11236],[49.4,11349],[49.7,11466],[49.8,11576],[49.8,11688],[49.8,11800],[49.8,11914],[49.8,12024],[49.7,12133],[49.7,12242],[49.5,12353],[49.5,12470],[49.4,12582],[49.4,12692],[49.4,12803],[49.5,12931],[49.9,13045],[50.2,13156],[50.5,13267],[50.5,13378],[50.5,13488],[50.5,13599],[50.4,13710],[50.1,13820],[50.1,13935],[50.1,14046],[50.1,14156],[50.1,14267]]",1,0,445.5647,448.8174,42.69951493,0.9945,"[{""rating"":42.699514934900314,""responseTime"":0.9945000000000164}]",space,2.6191,,448.8174,Half the time,50,448.8192,,,[],,0,13,13,13,1,audio/Narrative8Situation4.wav,audio/Narrative7Situation4.wav,audio/Narrative6Situation4.wav,audio/Narrative5Situation4.wav,3,3,2,1,,,,,,,,,,,,,,,,,,,,,,,,,,,,,,,,,,,,,,,
,,,,,,5acbd1ecf69e940001d9cd4d,2024-05-13_13h51.26.475,group3.1-3.2-social-tom,2023.2.2,Win32,20,65c5074098b851296ff0b7ed,664252f9e97a631f919fa7aa,,,,,,,,,,,,,,,,,,,,,,,,,,,,,448.8194,1,audio/Narrative8Situation5.wav,450.8726,,450.8726,459.2089,"[[51.1,663],[51.1,775],[51,891],[50.8,1005],[50.7,1117],[49.9,1231],[49.9,1341],[49.9,1455],[49.7,1567],[49.7,1677],[49.7,1791],[49.5,1900],[49.4,2011],[49.4,2122],[49.4,2238],[49.4,2361],[49.4,2474],[49.4,2584],[49.4,2699],[49.4,2809],[49.4,2921],[49.4,3031],[49.4,3139],[49.4,3252],[49.4,3363],[49.4,3475],[49.4,3587],[49.4,3697],[49.4,3807],[49.4,3917],[49.4,4027],[49.4,4137],[49.4,4248],[49.4,4358],[49.4,4467],[49.4,4577],[49.4,4686],[49.4,4797],[49.4,4906],[49.4,5017],[49.4,5126],[49.4,5239],[49.4,5349],[49.4,5463],[49.4,5587],[49.4,5703],[49.4,5816],[49.4,5926],[49.4,6037],[49.4,6148],[49.4,6259],[48.9,6371],[48.8,6488],[48.2,6599],[47.2,6712],[45.7,6823],[43.6,6936],[42.9,7050],[39.1,7163],[36.7,7279],[32.9,7394],[31.4,7508],[31.4,7619],[31.4,7730],[31.4,7840],[31.4,7948],[31.4,8061],[31.4,8171],[31.4,8281]]",1,0,459.209,461.5262,33.29734435,1.666,"[{""rating"":33.297344354236046,""responseTime"":1.6659999999999968}]",space,1.6777,,461.5262,Not at all,0,461.528,,,[],,0,14,14,14,1,audio/Narrative8Situation5.wav,audio/Narrative7Situation5.wav,audio/Narrative6Situation5.wav,audio/Narrative5Situation5.wav,2,5,2,5,,,,,,,,,,,,,,,,,,,,,,,,,,,,,,,,,,,,,,,
,,,,,,5acbd1ecf69e940001d9cd4d,2024-05-13_13h51.26.475,group3.1-3.2-social-tom,2023.2.2,Win32,20,65c5074098b851296ff0b7ed,664252f9e97a631f919fa7aa,,,,,,,,,,,,,,,,,,,,,,,,,,,,,461.528,1,audio/Narrative8Situation6.wav,463.5357,,463.5358,470.0651,"[[51.6,437],[50.5,548],[50.5,659],[50.4,772],[49.8,888],[49.8,998],[49.8,1110],[49.5,1222],[48.9,1333],[48.8,1446],[48.3,1559],[48,1674],[47.7,1784],[47.7,1897],[47.7,2004],[48.2,2115],[48.6,2228],[49.4,2338],[49.8,2453],[50.2,2567],[51.1,2692],[51.6,2801],[52,2915],[52.7,3026],[53.3,3139],[53.5,3250],[53.8,3359],[56.6,3474],[58.2,3585],[58,3696],[57.9,3808],[57.4,3921],[53.6,4043],[48,4163],[48,4276],[48,4388],[48,4501],[49.8,4613],[51.6,4726],[52.3,4838],[52.6,4950],[52.6,5063],[51.1,5175],[50.1,5288],[50.1,5401],[49.8,5513],[49.5,5629],[49.5,5749],[49.5,5857],[49.7,5969],[49.7,6084],[49.7,6197],[49.7,6307],[49.7,6418],[49.7,6529]]",1,0,470.0652,471.8126,49.60422702,1.3277,"[{""rating"":49.604227019964966,""responseTime"":1.3277000000029489}]",space,1.1091,,471.8127,Not at all,0,471.8137,,,[],,0,15,15,15,1,audio/Narrative8Situation6.wav,audio/Narrative7Situation6.wav,audio/Narrative6Situation6.wav,audio/Narrative5Situation6.wav,2,3,2,3,,,,,,,,,,,,,,,,,,,,,,,,,,,,,,,,,,,,,,,
,,,,,,5acbd1ecf69e940001d9cd4d,2024-05-13_13h51.26.475,group3.1-3.2-social-tom,2023.2.2,Win32,20,65c5074098b851296ff0b7ed,664252f9e97a631f919fa7aa,,,,,,,,,,,,,,,,,,,,,,,,,,,,,471.8138,1,audio/Narrative8Situation7.wav,474.8383,,474.8383,487.0338,"[[49.9,1110],[50.1,1221],[50.2,1331],[50.5,1440],[50.8,1552],[51,1663],[51,1774],[50.1,1888],[49.5,1998],[49.2,2110],[48.8,2221],[48,2334],[47.4,2445],[47.2,2557],[47.2,2671],[47.2,2782],[47.2,2893],[47.3,3004],[48,3117],[48.5,3230],[49.1,3357],[49.7,3470],[50.2,3581],[50.8,3690],[51.1,3804],[51.6,3916],[52.2,4030],[52.3,4141],[52.3,4253],[51.6,4368],[50.4,4481],[49.8,4594],[49.2,4709],[48.8,4822],[48.3,4934],[47.9,5045],[47.7,5159],[47.6,5271],[47.6,5385],[47.6,5500],[47.6,5612],[47.6,5723],[47.7,5835],[48,5947],[48,6060],[48,6171],[48,6281],[48,6391],[48,6500],[48.2,6610],[48.3,6721],[48.5,6834],[48.6,6942],[48.6,7052],[48.6,7163],[48.5,7272],[48.3,7382],[48.2,7491],[47.7,7602],[47.7,7714],[47.2,7825],[46.1,7936],[46,8048],[46,8163],[46,8286],[46,8396],[45,8510],[43.6,8622],[42.6,8736],[42.3,8848],[42.3,8958],[41.7,9069],[39.7,9182],[39.4,9292],[39.4,9403],[39.4,9516],[39.4,9626],[39.4,9736],[38.3,9847],[38,9958],[38,10068],[38,10179],[38,10291],[38.2,10401],[38.8,10512],[38.9,10623],[38.9,10734],[38.9,10845],[38.9,10955],[38.9,11068],[38.9,11192],[38.9,11302],[38.9,11416],[38.9,11526],[38.9,11635],[38.9,11746],[38.9,11860],[38.9,11972],[38.9,12083],[38.9,12195]]",1,0,487.0339,489.7567,39.02678882,1.7076,"[{""rating"":39.02678881544336,""responseTime"":1.707599999994045}]",space,2.076,,489.7567,Not at all,0,489.7577,,,[],,0,16,16,16,1,audio/Narrative8Situation7.wav,audio/Narrative7Situation7.wav,audio/Narrative6Situation7.wav,audio/Narrative5Situation7.wav,3,5,5,4,,,,,,,,,,,,,,,,,,,,,,,,,,,,,,,,,,,,,,,
,,,,,,5acbd1ecf69e940001d9cd4d,2024-05-13_13h51.26.475,group3.1-3.2-social-tom,2023.2.2,Win32,20,65c5074098b851296ff0b7ed,664252f9e97a631f919fa7aa,,,,,,,,,,,,,,,,,,,,,,,,,,,,,489.7578,1,audio/Narrative8Situation8.wav,492.7831,,492.7832,505.7189,"[[39.5,776],[41.1,890],[41.7,1003],[42.5,1116],[45.8,1227],[49.1,1341],[50.5,1452],[51.9,1564],[52.3,1675],[52.4,1785],[52.4,1895],[52.4,2005],[51.7,2121],[51.6,2239],[51.3,2358],[51,2468],[50.7,2578],[50.4,2688],[50.4,2801],[49.9,2915],[49.9,3025],[49.9,3138],[49.8,3250],[49.7,3361],[49.5,3477],[49.5,3585],[49.4,3696],[49.4,3807],[49.4,3917],[49.2,4027],[49.1,4137],[48.9,4368],[48.9,4509],[48.9,4618],[48.9,4727],[49.9,4839],[50.8,4950],[51.6,5060],[52.4,5173],[53.3,5294],[53.8,5408],[54.7,5524],[54.9,5635],[55.5,5746],[56.1,5860],[57,5971],[57.4,6081],[57.6,6188],[57.7,6299],[58.3,6412],[61,6527],[61.9,6636],[62,6747],[62.1,6858],[62.1,6970],[62.1,7081],[62,7192],[62,7302],[63.9,7419],[64.8,7532],[65.8,7644],[66.3,7756],[66.4,7866],[66.4,7977],[64.6,8089],[63.3,8202],[62.6,8324],[61.6,8444],[61.4,8556],[61.6,8668],[62.4,8779],[63.2,8890],[63.8,9002],[64.4,9112],[64.8,9225],[65.1,9336],[65.1,9447],[63.8,9692],[63.3,9810],[62,9919],[61.4,10030],[60.8,10142],[60.8,10249],[60.8,10361],[60.7,10472],[62,10584],[63.2,10695],[63.9,10807],[65.1,10918],[65.8,11029],[66.3,11140],[66.3,11261],[66.4,11373],[65.8,11488],[65.2,11603],[64.5,11717],[63.9,11829],[63.9,11938],[63.9,12050],[63.3,12161],[59.8,12274],[59.8,12384],[59.8,12496],[59.8,12605],[59.8,12715],[59.8,12825],[59.8,12935]]",1,0,505.7189,508.3272,55.62749825,2.4262,"[{""rating"":42.40569802893599,""responseTime"":1.1086000000088916},{""rating"":42.84640859297969,""responseTime"":1.4191000000089389},{""rating"":46.37223119108876,""responseTime"":1.5430000000000064},{""rating"":49.45732349861705,""responseTime"":1.6619000000059714},{""rating"":54.30531724193134,""responseTime"":1.8985000000000127},{""rating"":55.62749825040512,""responseTime"":2.3094999999999573},{""rating"":55.62749825040512,""responseTime"":2.42620000000295}]",space,1.9736,,508.3272,Not at all,0,508.3282,,,[],,0,17,17,17,1,audio/Narrative8Situation8.wav,audio/Narrative7Situation8.wav,audio/Narrative6Situation8.wav,audio/Narrative5Situation8.wav,3,2,5,3,,,,,,,,,,,,,,,,,,,,,,,,,,,,,,,,,,,,,,,
,,,,,,5acbd1ecf69e940001d9cd4d,2024-05-13_13h51.26.475,group3.1-3.2-social-tom,2023.2.2,Win32,20,65c5074098b851296ff0b7ed,664252f9e97a631f919fa7aa,,,,,,,,,,,,,,,,,,,,,,,,,,,,,508.3283,1,audio/Narrative8Situation9.wav,511.3598,,511.3599,522.7747,"[[49.5,786],[49.5,906],[49.5,1014],[49.5,1120],[49.5,1231],[49.8,1338],[50.5,1451],[51,1569],[51.4,1684],[51.7,1799],[52.7,1914],[54.5,2026],[55.8,2140],[56,2251],[56.6,2365],[58.2,2477],[59.2,2588],[59.6,2699],[59.6,2814],[60.2,2927],[60.4,3038],[60.4,3148],[60.4,3258],[60.4,3372],[60.4,3484],[60.1,3594],[59.2,3705],[58.5,3817],[57.9,3929],[57.3,4040],[57.3,4152],[57.3,4263],[54.2,4377],[54.2,4487],[54.2,4595],[54.2,4704],[54.2,4816],[54.2,4928],[51,5047],[45.1,5166],[44.1,5281],[42.5,5391],[40,5506],[38.2,5620],[36.3,5732],[34.1,5850],[33.2,5970],[30.4,6099],[29.2,6209],[28.2,6321],[27.3,6433],[27,6546],[26.9,6654],[27.2,6766],[27.9,6879],[27.9,6990],[27.9,7101],[27.9,7211],[28.6,7324],[28.9,7437],[29.1,7551],[29.4,7659],[29.4,7770],[29.4,7879],[28.9,7992],[28.5,8104],[28.3,8215],[27.2,8328],[26.9,8441],[26.9,8556],[26.9,8678],[26.4,8790],[24.4,8902],[24.4,9014],[24.4,9123],[24.4,9233],[24.4,9344],[24.4,9456],[24.7,9568],[24.7,9679],[24.7,9794],[24.7,9906],[23.8,10018],[23.1,10131],[22.8,10244],[22.3,10357],[22.2,10469],[22.2,10583],[22.2,10693],[21.6,10803],[21.1,10914],[21.1,11025],[21.1,11136],[21.1,11248],[21.1,11360]]",1,0,522.7747,524.3243,20.95698992,0.6464,"[{""rating"":20.956989919025666,""responseTime"":0.6464000000059968}]",space,0.8518,,524.3243,All the time,100,524.3261,,,[],,0,18,18,18,1,audio/Narrative8Situation9.wav,audio/Narrative7Situation9.wav,audio/Narrative6Situation9.wav,audio/Narrative5Situation9.wav,3,2,4,3,,,,,,,,,,,,,,,,,,,,,,,,,,,,,,,,,,,,,,,
,,,,,,5acbd1ecf69e940001d9cd4d,2024-05-13_13h51.26.475,group3.1-3.2-social-tom,2023.2.2,Win32,20,65c5074098b851296ff0b7ed,664252f9e97a631f919fa7aa,,,,,,,,,,,,,,,,,,,,,,,,,,,527.9045,530.4527,530.4605,2,audio/Narrative13Situation2.wav,530.4605,,530.4605,560.2656,"[[27,650],[32.8,766],[47.7,879],[47.7,999],[47.7,1106],[47.7,1216],[48.6,1328],[49.9,1440],[49.9,1550],[50.5,1666],[51,1788],[51,1902],[51,2013],[51,2125],[50.8,2237],[50.8,2347],[50.8,2459],[50.8,2580],[50.8,2694],[50.8,2805],[50.8,2914],[51,3025],[51.4,3134],[51.9,3245],[51.9,3353],[51.1,3464],[50.8,3577],[50.8,3685],[49.9,3798],[48.8,3909],[48.5,4023],[48.5,4136],[48.5,4250],[49.5,4361],[50.2,4474],[50.7,4586],[51,4697],[51.1,4808],[51.1,4918],[50.7,5032],[50.5,5144],[50.5,5256],[50.5,5376],[50.5,5493],[50.5,5604],[50.5,5713],[50.5,5824],[50.5,5933],[50.5,6052],[49.4,6166],[49.2,6276],[49.2,6390],[49.2,6500],[49.2,6613],[49.2,6724],[49.2,6836],[49.2,6946],[49.2,7058],[49.2,7168],[49.2,7279],[49.2,7388],[49.2,7500],[49.2,7611],[49.2,7722],[49.2,7835],[49.2,7945],[49.2,8057],[49.2,8167],[49.2,8283],[49.2,8401],[49.2,8515],[49.2,8627],[49.2,8736],[49.1,8850],[49.1,8966],[48.5,9078],[46.4,9192],[46.1,9303],[45.5,9415],[45.2,9525],[44.8,9636],[44.4,9748],[43.8,9862],[43.8,9972],[44.1,10084],[45,10195],[46.1,10309],[47.2,10421],[48.3,10533],[49.7,10647],[50.1,10757],[50.2,10871],[50.2,10983],[50.2,11103],[50.4,11214],[50.1,11325],[49.9,11435],[49.9,11544],[49.9,11655],[49.9,11765],[49.5,11877],[49.5,11987],[49.5,12097],[49.5,12209],[49.7,12324],[50.2,12436],[50.4,12547],[50.4,12660],[50.4,12769],[50.4,12879],[50.1,12990],[49.8,13106],[48.5,13219],[45.7,13331],[44.1,13444],[42.9,13555],[41.9,13665],[40.7,13778],[39.7,13889],[39.7,13999],[39.7,14113],[39.7,14227],[39.5,14349],[39.5,14461],[39.5,14571],[39.5,14681],[39.8,14792],[40.4,14906],[40.7,15015],[41,15129],[41.1,15238],[41.3,15349],[41.6,15462],[41.7,15574],[41.7,15684],[41.7,15795],[41.7,15905],[41.7,16015],[41.7,16128],[41.7,16238],[41.3,16350],[41.3,16461],[41.1,16571],[41.1,16685],[40.8,16806],[40.5,16917],[40.2,17033],[39.5,17146],[39.4,17259],[39.4,17373],[39.4,17483],[39.4,17595],[39.4,17707],[39.1,17819],[39.1,17929],[39.1,18039],[39.1,18153],[39.1,18263],[38.5,18374],[38.3,18486],[38.3,18594],[38.3,18706],[38.5,18820],[38.8,18932],[38.9,19043],[39.4,19155],[39.5,19266],[39.8,19380],[39.8,19491],[39.8,19603],[39.8,19713],[39.1,19825],[37.5,19936],[35.4,20049],[32.6,20162],[29.2,20273],[26.6,20385],[23.6,20497],[22.9,20610],[22.9,20722],[22.9,20832],[22.9,20956],[22.9,21069],[22.9,21182],[22.9,21294],[22.9,21404],[22.9,21514],[22.9,21629],[22.9,21749],[22.9,21859],[22.9,21970],[22.9,22082],[22.9,22193],[22.9,22304],[22.9,22413],[22.9,22524],[22.9,22634],[22.9,22746],[22.9,22864],[22.9,22978],[22.9,23087],[22.9,23203],[22.9,23312],[22.9,23423],[22.9,23532],[22.9,23644],[23.1,23759],[23.1,23869],[23.2,23980],[23.2,24091],[23.2,24205],[23.3,24316],[23.3,24425],[23.3,24536],[23.3,24647],[23.3,24758],[23.3,24868],[23.3,24978],[23.1,25093],[22.9,25204],[22.8,25316],[22.8,25431],[22.8,25542],[22.8,25652],[22.8,25762],[22.8,25881],[22.8,26001],[22.8,26116],[22.8,26227],[22.8,26337],[22.8,26448],[22.8,26559],[22.8,26667],[22.8,26782],[22.8,26892],[22.8,27003],[22.8,27113],[22.8,27224],[22.8,27332],[23.1,27445],[24.2,27556],[25.1,27668],[25.5,27782],[25.8,27894],[25.8,28004],[25.8,28115],[25.5,28228],[25.5,28338],[25.1,28453],[24.8,28564],[24.5,28679],[24.4,28793],[24.2,28903],[24.2,29013],[24.2,29126],[24.2,29243],[24.2,29361],[24.2,29472],[24.2,29583],[24.2,29693],[24.2,29804]]",1,0,560.2657,560.267,,,[],,,,560.267,All the time,100,560.2676,,,[],,0,0,0,0,1,audio/Narrative13Situation2.wav,audio/Narrative13Situation2.wav,audio/Narrative13Situation2.wav,audio/Narrative13Situation2.wav,2,2,2,2,,,,,524.3266,527.8993,space,3.0081,,,,,,,,,,,,,,,,,,,,,,,,,,,,,,,
,,,,,,5acbd1ecf69e940001d9cd4d,2024-05-13_13h51.26.475,group3.1-3.2-social-tom,2023.2.2,Win32,20,65c5074098b851296ff0b7ed,664252f9e97a631f919fa7aa,,,,,,,,,,,,,,,,,,,,,,,,,,,,,560.2677,2,audio/Narrative5Situation1.wav,565.3158,,565.3158,578.7127,"[[31.3,1396],[37.7,1513],[42.7,1626],[46.4,1737],[50.2,1849],[51,1961],[51,2073],[51,2185],[51,2294],[50.8,2406],[50.4,2519],[49.8,2629],[49.7,2741],[49.7,2849],[49.7,2960],[49.7,3069],[49.7,3182],[49.7,3301],[49.7,3411],[49.7,3521],[49.7,3638],[49.7,3751],[49.7,3863],[49.4,3975],[48.3,4089],[46.9,4204],[46.1,4315],[45.5,4428],[45,4540],[45,4652],[45,4760],[43.3,4871],[42.2,4982],[42.2,5093],[42.2,5204],[42.2,5314],[42.2,5426],[42.2,5537],[42,5649],[33.9,5761],[33,5875],[33,5985],[33,6097],[33,6210],[33,6324],[33,6438],[33,6549],[33,6663],[33,6773],[33,6884],[33,6995],[33,7107],[33,7217],[33,7328],[33,7438],[33,7549],[33,7661],[33,7772],[33,7883],[33,7995],[33,8110],[33,8227],[33,8338],[33,8450],[33,8560],[33,8671],[33,8783],[33,8893],[33,9008],[33,9118],[33,9228],[33,9336],[33,9445],[33,9560],[33,9669],[33,9780],[33,9890],[32.6,10004],[32,10125],[30.5,10253],[29.5,10365],[28.6,10479],[27.3,10592],[26.1,10701],[23.1,10815],[23.1,10927],[23.1,11037],[23.1,11147],[23.1,11259],[23.3,11368],[25,11479],[26.4,11591],[26.6,11703],[26.9,11815],[26.9,11927],[26.9,12035],[26.9,12146],[26.9,12257],[26.7,12368],[25.5,12483],[24.4,12598],[24.1,12717],[23.5,12840],[23.5,12952],[23.5,13063],[23.5,13175],[23.5,13285],[23.5,13396]]",1,0,578.7128,580.0621,23.45444841,0.8169,"[{""rating"":23.454448414625297,""responseTime"":0.8169000000059441}]",space,0.7109,,580.0621,All the time,100,580.063,,,[],,0,1,1,1,1,audio/Narrative7Situation1.wav,audio/Narrative8Situation1.wav,audio/Narrative5Situation1.wav,audio/Narrative6Situation1.wav,2,5,5,2,,,,,,,,,,,,,,,,,,,,,,,,,,,,,,,,,,,,,,,
,,,,,,5acbd1ecf69e940001d9cd4d,2024-05-13_13h51.26.475,group3.1-3.2-social-tom,2023.2.2,Win32,20,65c5074098b851296ff0b7ed,664252f9e97a631f919fa7aa,,,,,,,,,,,,,,,,,,,,,,,,,,,,,580.0632,2,audio/Narrative5Situation2.wav,583.0819,,583.0819,612.6566,"[[999,5],[999,111],[999,219],[999,329],[999,442],[999,553],[999,663],[999,776],[999,887],[999,996],[999,1105],[999,1214],[999,1325],[999,1435],[999,1544],[44.7,1652],[49.7,1762],[50.4,1878],[51.1,1993],[51.1,2104],[50.5,2215],[48.8,2330],[47.3,2441],[47.3,2552],[47.3,2663],[47.3,2774],[47.3,2889],[47.3,3007],[41,3120],[24.4,3231],[14.8,3346],[14.8,3458],[14.8,3570],[14.8,3680],[14.8,3792],[17.5,3903],[17.9,4013],[17.9,4124],[17.9,4234],[17.9,4344],[17.9,4457],[17.9,4566],[17.9,4677],[17.9,4788],[17.9,4897],[17.9,5009],[18.2,5120],[18.2,5231],[18.2,5342],[18.2,5457],[18.2,5567],[18.3,5678],[18.5,5792],[18.5,5902],[18.5,6013],[18.5,6133],[18.5,6243],[18.5,6354],[18.5,6465],[18.5,6576],[18.5,6688],[18.5,6803],[18.5,6913],[18.5,7023],[18.5,7134],[18.5,7246],[18.5,7355],[18.5,7476],[18.5,7589],[18.5,7711],[18.5,7823],[18.5,7931],[18.5,8041],[18.3,8151],[18.3,8265],[18.3,8377],[18.3,8489],[18.3,8601],[19.2,8712],[24.1,8825],[32,8937],[37.7,9051],[45.2,9164],[47.3,9276],[47.4,9386],[47.4,9498],[47.6,9613],[48.6,9727],[48.9,9839],[49.2,9952],[49.2,10063],[49.7,10173],[50.4,10284],[50.7,10395],[50.7,10509],[50.7,10628],[50.7,10744],[50.2,10857],[49.7,10967],[49.2,11078],[48.9,11189],[48.5,11301],[48.5,11411],[48.5,11525],[48.5,11634],[48.5,11745],[48.5,11855],[48.5,11970],[48.5,12081],[48.6,12193],[48.9,12312],[49.4,12429],[49.9,12545],[50.2,12659],[50.5,12771],[50.7,12881],[50.7,12991],[51,13107],[51.1,13218],[51.1,13328],[51.1,13438],[51.1,13552],[51.6,13665],[51.9,13779],[52.2,13893],[52.3,14012],[52.3,14128],[52.3,14238],[51.7,14347],[51.1,14460],[51,14573],[51,14683],[50.4,14795],[49.9,14909],[49.7,15020],[49.5,15131],[49.5,15239],[49.5,15351],[49.5,15466],[49.5,15577],[49.5,15690],[49.5,15800],[49.5,15910],[49.5,16022],[49.5,16132],[49.5,16243],[49.5,16353],[49.5,16468],[49.5,16580],[49.5,16692],[49.5,16800],[49.5,16912],[49.5,17022],[48.8,17133],[47.6,17246],[47.6,17357],[46.7,17468],[46.6,17581],[47.9,17698],[50.2,17823],[51.7,17937],[52.4,18049],[56.9,18166],[60.2,18279],[60.5,18391],[61.3,18508],[62.3,18619],[63.2,18732],[64.2,18865],[64.2,18990],[64.6,19121],[64.6,19249],[64.6,19382],[64.6,19498],[64.8,19610],[65.7,19723],[65.8,19836],[65.8,19953],[66.7,20074],[67,20185],[67.1,20295],[67.1,20408],[67.3,20523],[67.7,20635],[67.7,20747],[67.7,20858],[67.6,20971],[67.4,21082],[67.3,21193],[67.3,21306],[67.3,21415],[67.3,21524],[67.3,21635],[67.3,21745],[67.3,21858],[67.3,21974],[67.6,22082],[67.9,22194],[67.9,22307],[67.9,22416],[67.9,22535],[67.9,22646],[67.9,22758],[67.9,22873],[67.9,22983],[67.9,23093],[67.9,23203],[67.4,23315],[67,23427],[67,23538],[66.9,23650],[66.7,23761],[66.7,23873],[66.7,23983],[66.7,24093],[66.7,24205],[66.7,24315],[66.7,24425],[66.7,24538],[66.7,24649],[67,24760],[67.1,24872],[67.3,24984],[67.3,25094],[67.3,25205],[67.3,25317],[67.1,25439],[66.7,25554],[66.3,25666],[65.8,25778],[64.9,25893],[64.9,26002],[64.9,26112],[64.9,26223],[64.9,26335],[64.9,26444],[64.9,26556],[64.9,26667],[64.9,26778],[66.4,26892],[66.4,27002],[66.4,27118],[66.4,27230],[66.4,27341],[66.4,27451],[66.4,27562],[67.1,27674],[67.1,27784],[67.3,27900],[68,28010],[68,28121],[68,28230],[68,28342],[68,28465],[68,28579],[68,28691],[68,28801],[68,28911],[68,29022],[68,29134],[68,29243],[68,29352],[68,29461],[68,29574]]",1,0,612.6567,614.3055,68.11475128,0.6428,"[{""rating"":68.11475127532914,""responseTime"":0.6428000000120164}]",space,1.0098,,614.3055,Half the time,50,619.349,50.04495731,4.0456,"[{""rating"":50.04495731054571,""responseTime"":3.9272999999969898},{""rating"":50.04495731054571,""responseTime"":4.04559999999401}]",space,0,2,2,2,1,audio/Narrative7Situation2.wav,audio/Narrative8Situation2.wav,audio/Narrative5Situation2.wav,audio/Narrative6Situation2.wav,3,3,3,3,,,4.3908,,,,,,,,,,,,,,,,,,,,,,,,,,,,,,,,,,,,
,,,,,,5acbd1ecf69e940001d9cd4d,2024-05-13_13h51.26.475,group3.1-3.2-social-tom,2023.2.2,Win32,20,65c5074098b851296ff0b7ed,664252f9e97a631f919fa7aa,,,,,,,,,,,,,,,,,,,,,,,,,,,,,619.3492,2,audio/Narrative5Situation3.wav,622.3962,,622.3962,636.4151,"[[999,5],[49.7,117],[49.7,365],[49.7,481],[49.7,590],[49.9,703],[50.1,813],[50.1,925],[50.2,1035],[50.5,1150],[51.9,1264],[52.2,1377],[54.1,1496],[64.4,1622],[67.4,1744],[68.2,1855],[68.2,1965],[68.2,2074],[68.2,2187],[68.2,2297],[68.2,2412],[68.2,2520],[68.2,2630],[68.2,2739],[68.2,2850],[68.2,2959],[67.6,3070],[67.3,3184],[67,3296],[66.7,3411],[66.7,3520],[66.7,3631],[66.7,3741],[66.7,3852],[66.7,3962],[66.7,4074],[66.7,4196],[66.7,4310],[66.9,4426],[67,4538],[67.1,4649],[67.4,4759],[67.7,4872],[68,4984],[68,5094],[68,5206],[67.6,5318],[67,5433],[67,5544],[66.6,5656],[66,5767],[65.1,5881],[64.9,5992],[64.6,6103],[64.6,6216],[64.6,6329],[64.6,6439],[64.6,6549],[64.6,6660],[64.6,6773],[64.6,6883],[64.4,6993],[64.1,7104],[64.6,7215],[65.4,7337],[66.1,7455],[68.6,7569],[69.6,7682],[70.2,7794],[71.4,7906],[73.6,8018],[73.8,8129],[73.8,8242],[73.8,8358],[73.8,8468],[73.8,8577],[73.8,8687],[73.6,8812],[73.6,8939],[73.6,9073],[73.6,9209],[73.6,9337],[73.8,9465],[73.9,9582],[74.1,9694],[74.1,9805],[74.1,9916],[74.1,10025],[73.9,10137],[73.9,10251],[73.6,10372],[73.6,10485],[73.6,10596],[73.5,10708],[73.3,10818],[73.3,10928],[73.3,11039],[73.9,11156],[74.2,11267],[74.5,11378],[75.1,11491],[75.1,11602],[75.1,11712],[75.1,11822],[75.8,11935],[76,12043],[76,12158],[76,12270],[76,12381],[75.5,12496],[75.4,12607],[75.4,12719],[75.2,12831],[74.6,12941],[74.6,13054],[74.6,13173],[74.3,13295],[74.2,13405],[74.1,13518],[74.1,13630],[74.1,13740],[74.1,13854],[74.1,13964]]",1,0,636.4152,638.994,75.75401056,0.9304,"[{""rating"":75.75401055693887,""responseTime"":0.9304000000059887}]",space,1.9416,,638.994,Not at all,0,638.9958,,,[],,0,3,3,3,1,audio/Narrative7Situation3.wav,audio/Narrative8Situation3.wav,audio/Narrative5Situation3.wav,audio/Narrative6Situation3.wav,8,4,3,5,,,,,,,,,,,,,,,,,,,,,,,,,,,,,,,,,,,,,,,
,,,,,,5acbd1ecf69e940001d9cd4d,2024-05-13_13h51.26.475,group3.1-3.2-social-tom,2023.2.2,Win32,20,65c5074098b851296ff0b7ed,664252f9e97a631f919fa7aa,,,,,,,,,,,,,,,,,,,,,,,,,,,,,638.9959,2,audio/Narrative5Situation4.wav,640.0272,,640.0272,660.4938,"[[75.7,1649],[74.9,1760],[74.2,1872],[74.2,1981],[74.2,2091],[74.2,2206],[74.2,2322],[74.1,2435],[74.2,2546],[74.2,2656],[74.2,2769],[73.9,2884],[72.7,2996],[72.4,3111],[72.4,3222],[72.6,3332],[72.6,3443],[72.7,3554],[72.9,3664],[73.2,3775],[73.5,3887],[73.8,3998],[73.9,4112],[74.1,4223],[74.2,4334],[74.2,4443],[74.2,4555],[74.2,4664],[74.2,4774],[74.2,4886],[74.1,5003],[73.8,5124],[75.1,5355],[75.1,5496],[75.4,5604],[76.1,5712],[76.1,5821],[76.4,5932],[76.6,6041],[76.6,6154],[76.6,6264],[76,6375],[75.5,6486],[75.4,6596],[75.4,6705],[74.9,6821],[74.8,6942],[74.6,7052],[74.2,7165],[73.8,7276],[73.8,7388],[73.8,7499],[73.9,7612],[74.3,7721],[74.8,7833],[75.1,7947],[75.5,8058],[75.8,8173],[75.8,8283],[76.1,8395],[76.8,8506],[77,8619],[77,8743],[77,8853],[77,8964],[76.6,9077],[76.4,9193],[76.4,9305],[76.4,9417],[76.4,9527],[76.3,9640],[75.5,9753],[75.4,9864],[74.9,9974],[74.8,10085],[74.8,10196],[74.8,10307],[75.1,10418],[75.4,10529],[75.7,10640],[76,10754],[76.1,10872],[76.1,10983],[76.7,11092],[76.8,11201],[76.8,11313],[76.6,11426],[76,11537],[76,11651],[76,11761],[76.1,11871],[76.8,11984],[76.8,12094],[75.5,12207],[74.9,12320],[74.9,12431],[75.7,12540],[75.4,12652],[74.6,12764],[74.9,12875],[75.1,12990],[74.2,13101],[74.2,13215],[75.7,13338],[75.7,13447],[75.1,13558],[76,13670],[76.4,13780],[76,13902],[75.5,14020],[75.7,14131],[75.1,14246],[74.6,14360],[75.4,14471],[75.7,14583],[75.4,14693],[73.5,14804],[71.4,14917],[69.5,15032],[68.5,15144],[66.3,15260],[61.9,15372],[59.5,15486],[58.6,15597],[58.5,15709],[58.5,15819],[58.8,15930],[58.8,16042],[57.3,16154],[55.5,16269],[54.2,16381],[53.2,16494],[49.4,16606],[49.1,16718],[49.1,16831],[49.1,16947],[49.1,17059],[48.8,17171],[47.9,17283],[46.7,17396],[42.9,17507],[41,17619],[39.7,17731],[39.1,17842],[38.3,17952],[38,18065],[38,18176],[38,18287],[36,18399],[36,18510],[34.4,18622],[33.5,18733],[32.9,18843],[31.7,18954],[31.4,19062],[31.4,19173],[30.3,19288],[29.7,19399],[29.7,19511],[29.7,19620],[29.7,19734],[29.7,19855],[29.7,19965],[29.7,20077],[29.7,20187],[29.7,20298],[29.7,20410]]",1,0,660.4939,664.5667,55.33368134,3.0191,"[{""rating"":51.36713831901948,""responseTime"":1.7651000000089425},{""rating"":52.83622284884115,""responseTime"":2.4869999999999663},{""rating"":55.33368134444076,""responseTime"":3.0191000000089616}]",space,3.433,,664.5668,All the time,100,664.5685,,,[],,0,4,4,4,1,audio/Narrative7Situation4.wav,audio/Narrative8Situation4.wav,audio/Narrative5Situation4.wav,audio/Narrative6Situation4.wav,3,3,1,2,,,,,,,,,,,,,,,,,,,,,,,,,,,,,,,,,,,,,,,
,,,,,,5acbd1ecf69e940001d9cd4d,2024-05-13_13h51.26.475,group3.1-3.2-social-tom,2023.2.2,Win32,20,65c5074098b851296ff0b7ed,664252f9e97a631f919fa7aa,,,,,,,,,,,,,,,,,,,,,,,,,,,,,664.5687,2,audio/Narrative5Situation5.wav,669.5829,,669.583,685.1174,"[[46.1,549],[54.2,661],[54.4,774],[51.6,887],[51.3,1000],[51.3,1111],[46,1224],[38.8,1338],[37.2,1451],[30.8,1563],[29.7,1676],[29.7,1787],[29.7,1896],[29.7,2008],[29.7,2119],[30.1,2233],[30.4,2360],[30.4,2476],[29.8,2588],[28.3,2699],[28,2810],[28,2919],[28,3028],[28.2,3140],[28.8,3252],[29.1,3364],[29.4,3475],[29.7,3585],[29.7,3700],[29.4,3812],[28,3923],[27.6,4036],[27.3,4146],[27.3,4254],[27.3,4365],[27.3,4474],[27.8,4586],[29.1,4699],[30,4813],[30.7,4925],[31.3,5039],[31.3,5150],[32.3,5263],[36.1,5381],[38.2,5498],[39.8,5611],[40.5,5724],[40.5,5836],[40.5,5946],[41,6062],[45.1,6174],[47,6286],[50.5,6396],[53.6,6508],[55.1,6623],[55.4,6734],[55.4,6845],[55.5,6956],[57.2,7068],[57.6,7180],[57.6,7289],[57.9,7400],[58.3,7513],[58.3,7623],[58.3,7736],[58.3,7849],[57.6,7961],[57.4,8074],[57.3,8185],[57.2,8301],[57.7,8421],[58.8,8534],[59.1,8647],[59.6,8755],[59.8,8874],[60.2,8986],[61.3,9096],[61.6,9207],[61.6,9316],[63.9,9427],[65.7,9541],[66,9653],[66,9764],[66,9876],[65.8,9987],[65.1,10099],[64.4,10211],[63.8,10323],[63,10433],[62.9,10544],[62.9,10656],[62.9,10767],[63,10878],[64.4,10991],[65.1,11102],[65.7,11216],[66.7,11328],[66.9,11442],[66.9,11557],[66.9,11669],[67,11779],[68.5,11891],[68.9,12000],[69.1,12116],[69.1,12228],[69.1,12340],[69.1,12450],[69.1,12563],[69.1,12671],[69.1,12784],[69.1,12895],[69.1,13006],[69.1,13117],[69.1,13226],[69.1,13337],[69.1,13448],[69.1,13559],[69.1,13673],[69.1,13784],[69.1,13895],[69.1,14006],[69.1,14117],[69.1,14228],[69.1,14338],[69.1,14454],[69.1,14584],[69.1,14696],[69.1,14805],[69.1,14916],[69.1,15024],[69.1,15140],[67.7,15256],[65.4,15369],[65.4,15479]]",1,0,685.1174,687.1304,62.82602724,1.4099,"[{""rating"":65.91111954896238,""responseTime"":0.9347999999970398},{""rating"":62.82602724143407,""responseTime"":1.409900000005905}]",space,1.3703,,687.1305,All the time,100,687.1318,,,[],,0,5,5,5,1,audio/Narrative7Situation5.wav,audio/Narrative8Situation5.wav,audio/Narrative5Situation5.wav,audio/Narrative6Situation5.wav,5,2,5,2,,,,,,,,,,,,,,,,,,,,,,,,,,,,,,,,,,,,,,,
,,,,,,5acbd1ecf69e940001d9cd4d,2024-05-13_13h51.26.475,group3.1-3.2-social-tom,2023.2.2,Win32,20,65c5074098b851296ff0b7ed,664252f9e97a631f919fa7aa,,,,,,,,,,,,,,,,,,,,,,,,,,,,,687.132,2,audio/Narrative5Situation6.wav,690.1586,,690.1587,695.9197,"[[999,0],[999,110],[999,221],[999,334],[999,447],[999,560],[999,668],[999,779],[999,889],[999,997],[999,1106],[999,1216],[999,1325],[999,1436],[999,1545],[999,1654],[999,1762],[999,1871],[999,1982],[999,2092],[51.3,2203],[53.3,2432],[66.7,2544],[61.1,2656],[54.5,2768],[54.5,2893],[54.5,3005],[53,3118],[52.7,3230],[52,3353],[51.6,3467],[51.6,3578],[51.6,3689],[51.6,3799],[54.1,3912],[54.8,4029],[55.1,4140],[55.4,4252],[56.3,4363],[56.6,4477],[56.7,4587],[57,4698],[57.4,4815],[58.2,4934],[59.2,5054],[59.6,5172],[59.6,5294],[59.6,5417],[59.5,5537],[59.5,5648],[59.5,5760]]",1,0,695.9199,697.9516,59.59404128,1.0238,"[{""rating"":59.59404127582639,""responseTime"":1.0237999999969816}]",space,1.3644,,697.9516,All the time,100,697.9527,,,[],,0,6,6,6,1,audio/Narrative7Situation6.wav,audio/Narrative8Situation6.wav,audio/Narrative5Situation6.wav,audio/Narrative6Situation6.wav,3,2,3,2,,,,,,,,,,,,,,,,,,,,,,,,,,,,,,,,,,,,,,,
,,,,,,5acbd1ecf69e940001d9cd4d,2024-05-13_13h51.26.475,group3.1-3.2-social-tom,2023.2.2,Win32,20,65c5074098b851296ff0b7ed,664252f9e97a631f919fa7aa,,,,,,,,,,,,,,,,,,,,,,,,,,,,,697.9528,2,audio/Narrative5Situation7.wav,701.9892,,701.9892,723.1249,"[[59.9,1004],[60.2,1114],[60.2,1225],[60.1,1336],[59.5,1448],[59.1,1563],[58.8,1676],[58.8,1786],[58.8,1900],[58.8,2013],[58.8,2124],[58.8,2235],[58.8,2346],[58.8,2458],[58.8,2568],[58.8,2682],[58.8,2791],[58.8,2902],[58.8,3012],[58.8,3124],[58.8,3237],[58.8,3351],[58.8,3466],[58.8,3587],[58.8,3700],[58.8,3813],[58.8,3926],[58.8,4038],[58.8,4151],[58.8,4260],[58.8,4374],[58.8,4483],[58.8,4598],[58.8,4710],[58.8,4820],[58.8,4932],[58.8,5043],[58.8,5153],[58.8,5263],[58.8,5375],[58.8,5485],[58.8,5599],[58.8,5711],[58.8,5827],[58.8,5938],[58.8,6047],[58.8,6157],[58.8,6267],[58.8,6379],[57.7,6513],[55.7,6628],[54.4,6741],[52.9,6853],[51.1,6963],[49.9,7077],[49.5,7197],[49.4,7313],[49.4,7423],[49.4,7535],[49.4,7647],[48.9,7757],[42.7,7870],[42.6,7980],[42.6,8093],[42.6,8206],[42.6,8316],[42.7,8428],[44.2,8541],[47,8655],[48.5,8768],[49.1,8879],[49.2,8990],[49.4,9100],[49.4,9215],[49.4,9334],[49.4,9451],[49.4,9562],[49.2,9674],[49.1,9786],[49.1,9896],[49.1,10007],[48.8,10123],[47.7,10232],[47.6,10343],[47.6,10455],[47.6,10568],[47.6,10677],[44.7,10791],[44.7,10903],[43,11014],[40.4,11127],[37.2,11239],[36.3,11354],[36.3,11462],[36.3,11573],[36.3,11683],[36.3,11797],[36.3,11907],[36.3,12018],[36.3,12128],[36.3,12239],[36.3,12358],[36.3,12480],[36.3,12594],[36.3,12704],[36.3,12815],[36.3,12929],[36.3,13038],[36.3,13147],[36.3,13264],[36.3,13374],[36.3,13480],[36.3,13594],[36.3,13703],[36.3,13815],[38.3,13926],[39.8,14037],[40.5,14153],[40.5,14264],[40.5,14379],[40.5,14491],[40.5,14602],[40.5,14712],[40.5,14824],[40.5,14933],[40.5,15044],[40.5,15155],[40.5,15266],[40.5,15380],[40.5,15499],[39.7,15612],[39.5,15723],[39.5,15834],[39.5,15945],[39.5,16054],[39.4,16165],[38.3,16277],[37.5,16389],[37,16498],[37,16609],[37,16720],[37,16832],[37,16942],[37,17052],[37,17162],[37,17272],[37,17382],[37,17491],[37,17601],[37,17711],[37,17823],[37,17936],[37,18045],[37,18156],[37,18267],[37,18389],[37,18507],[37,18622],[37,18733],[37,18847],[38.9,18960],[40.5,19072],[41.7,19183],[42.2,19295],[42.2,19406],[42.9,19520],[43,19633],[43,19743],[43,19857],[43,19967],[43,20076],[43,20187],[43,20297],[42.7,20408],[42.3,20519],[41.7,20633],[41,20745],[40.7,20858],[40.5,20968],[40.4,21079]]",1,0,723.125,724.6124,39.46751911,0.7158,"[{""rating"":39.467519106024106,""responseTime"":0.7157999999971025}]",space,0.8326,,724.6124,All the time,100,724.6133,,,[],,0,7,7,7,1,audio/Narrative7Situation7.wav,audio/Narrative8Situation7.wav,audio/Narrative5Situation7.wav,audio/Narrative6Situation7.wav,5,3,4,5,,,,,,,,,,,,,,,,,,,,,,,,,,,,,,,,,,,,,,,
,,,,,,5acbd1ecf69e940001d9cd4d,2024-05-13_13h51.26.475,group3.1-3.2-social-tom,2023.2.2,Win32,20,65c5074098b851296ff0b7ed,664252f9e97a631f919fa7aa,,,,,,,,,,,,,,,,,,,,,,,,,,,,,724.6134,2,audio/Narrative5Situation8.wav,727.6548,,727.6548,736.578,"[[42.3,766],[49.2,879],[50.2,995],[50.2,1106],[50.2,1217],[50.2,1327],[50.4,1438],[50.4,1551],[49.9,1663],[49.7,1782],[49.7,1899],[49.5,2011],[49.4,2124],[49.4,2237],[49.4,2348],[49.4,2461],[49.4,2572],[49.4,2684],[49.4,2800],[49.4,2912],[49.4,3025],[49.4,3137],[49.4,3248],[49.4,3357],[49.4,3467],[49.4,3581],[49.4,3690],[49.2,3801],[49.2,3912],[49.5,4025],[49.5,4135],[49.4,4247],[48.8,4361],[48.3,4472],[48,4583],[48,4694],[48,4811],[48,4929],[48,5041],[48,5153],[48,5264],[48,5375],[48,5485],[48,5595],[47.3,5709],[46,5820],[45.7,5933],[45.7,6045],[45.7,6158],[45.7,6267],[46.4,6379],[49.7,6492],[53.2,6603],[57.2,6714],[60.4,6826],[60.5,6938],[60.5,7048],[64.5,7160],[67,7275],[67.1,7385],[67.1,7497],[67.1,7608],[67.1,7725],[66.9,7849],[66.6,7961],[66.1,8073],[66.1,8183],[66.1,8399],[66.1,8545],[66.1,8652],[66.1,8761],[66.1,8868]]",1,0,736.578,738.2294,62.53221034,0.8247,"[{""rating"":62.53221033546974,""responseTime"":0.824700000002963}]",space,1.0041,,738.2294,Half the time,50,738.2311,,,[],,0,8,8,8,1,audio/Narrative7Situation8.wav,audio/Narrative8Situation8.wav,audio/Narrative5Situation8.wav,audio/Narrative6Situation8.wav,2,3,3,5,,,,,,,,,,,,,,,,,,,,,,,,,,,,,,,,,,,,,,,
,,,,,,5acbd1ecf69e940001d9cd4d,2024-05-13_13h51.26.475,group3.1-3.2-social-tom,2023.2.2,Win32,20,65c5074098b851296ff0b7ed,664252f9e97a631f919fa7aa,,,,,,,,,,,,,,,,,,,,,,,,,,,,,738.2313,2,audio/Narrative5Situation9.wav,741.2548,,741.2548,780.931,"[[56.3,1121],[49.5,1231],[49.5,1340],[49.5,1451],[49.5,1563],[49.5,1674],[49.5,1787],[49.5,1898],[49.5,2011],[49.5,2121],[49.5,2232],[49.5,2344],[49.5,2452],[49.5,2561],[49.5,2671],[49.5,2783],[49.5,2898],[49.5,3008],[49.5,3231],[49.5,3381],[49.5,3491],[49.5,3599],[49.5,3706],[49.5,3817],[49.5,3929],[49.5,4038],[49.5,4150],[49.5,4260],[49.5,4369],[49.5,4479],[49.5,4589],[49.5,4698],[49.5,4809],[49.5,4928],[49.5,5065],[48.5,5211],[44.4,5337],[42.6,5461],[42.6,5573],[42.5,5684],[40.8,5796],[34.8,5915],[33,6032],[33,6146],[33,6280],[33,6405],[33,6516],[33,6637],[33,6771],[33,6893],[33,7018],[33,7137],[33,7251],[32.9,7375],[32.9,7506],[32.9,7633],[32.9,7754],[32.9,7885],[32.9,7998],[32.9,8114],[32.9,8246],[32.9,8367],[32.9,8494],[32.9,8609],[32.9,8720],[32.9,8830],[32.9,8943],[32.9,9053],[32.9,9169],[32.9,9283],[32.9,9395],[32.9,9507],[32.9,9621],[32.9,9731],[32.9,9842],[32.9,9956],[32.9,10067],[32.8,10179],[31.9,10294],[30.8,10405],[29.8,10624],[29.2,10769],[28.5,10878],[28,10986],[27.6,11098],[27.2,11207],[27.2,11317],[27.2,11426],[27,11536],[26.9,11645],[26.9,11754],[26.9,11866],[26.9,11981],[26.9,12090],[26.9,12199],[26.9,12312],[26.9,12422],[26.9,12533],[26.9,12650],[26.9,12769],[26.9,12879],[26.9,12990],[26.9,13096],[26.9,13207],[26.9,13317],[26.9,13427],[26.9,13537],[26.9,13649],[26.9,13759],[26.9,13868],[26.9,13983],[26.9,14096],[26.9,14205],[26.9,14315],[26.9,14426],[26.9,14533],[26.9,14646],[26.9,14755],[26.9,14865],[26.9,14976],[26.9,15091],[26.9,15200],[26.9,15311],[26.9,15421],[26.9,15531],[26.9,15643],[26.9,15756],[26.9,15869],[26.9,15985],[26.9,16096],[26.9,16206],[26.9,16315],[26.9,16426],[26.9,16535],[26.9,16643],[26.7,16757],[26.7,16873],[26.7,16986],[26.7,17097],[26.7,17208],[26.7,17318],[27.5,17427],[28.3,17539],[29.1,17652],[31,17762],[31.6,17876],[32.3,17989],[32.3,18100],[32.3,18211],[32.3,18321],[32.3,18432],[32.3,18541],[32.3,18650],[32.3,18761],[32.3,18871],[32.3,18984],[32.3,19096],[32.3,19214],[33.2,19332],[33.2,19443],[33.2,19552],[39.4,19662],[51,19774],[54.1,19886],[55.5,20000],[55.7,20111],[55.7,20222],[55.7,20333],[54.9,20445],[54.2,20556],[54.2,20667],[54.2,20777],[54.2,20887],[53.9,20999],[47.9,21111],[42.5,21226],[39.5,21337],[39.5,21447],[39.5,21559],[39.5,21669],[39.5,21780],[39.7,21891],[42.5,22004],[44.5,22119],[45.2,22236],[45.4,22358],[45.4,22469],[46.3,22580],[60.2,22693],[60.2,22802],[60.2,22912],[60.2,23025],[59.8,23137],[58.8,23249],[58.8,23363],[59.2,23474],[59.6,23584],[59.8,23699],[59.8,23809],[59.8,23924],[59.8,24037],[59.8,24146],[59.5,24258],[59.1,24370],[58.8,24482],[57.7,24593],[57.7,24707],[57.7,24817],[57.7,24929],[57.7,25040],[57.7,25152],[57.9,25264],[58.3,25377],[58.5,25489],[58.6,25607],[58.8,25720],[59.5,25830],[59.6,25940],[59.8,26052],[60.2,26162],[60.2,26272],[60.4,26385],[60.5,26498],[60.7,26608],[60.7,26719],[61.1,26831],[61.1,26942],[61.1,27053],[61.1,27163],[61.1,27273],[62.1,27387],[62.6,27513],[62.6,27625],[62.3,27736],[62.3,27847],[62.3,27964],[62.3,28078],[62.3,28189],[62.3,28298],[62.3,28410],[62.3,28521],[62.3,28631],[62.3,28743],[62.3,28852],[62.3,28961],[62.3,29073],[62.3,29183],[62.3,29295],[62.3,29406],[62.3,29515],[62.3,29626],[62.3,29736],[62.3,29846],[62.3,29958],[62.3,30067],[62.3,30178],[62.3,30289],[62.3,30401],[62.3,30525],[62.3,30637],[62.3,30750],[62.3,30862],[62.3,30972],[62.3,31083],[62.3,31193],[62.3,31302],[62.3,31414],[62.3,31524],[62.3,31633],[62.3,31745],[62.3,31854],[62.3,31963],[62.3,32073],[62.3,32182],[62.3,32292],[62.3,32407],[62.3,32517],[62.3,32630],[62.3,32737],[62.3,32849],[62.3,32958],[62.3,33067],[62.6,33184],[62.6,33295],[62.6,33410],[62.6,33523],[62.6,33644],[62.6,33759],[62.6,33870],[62.6,33980],[62.6,34091],[62.6,34202],[62.6,34313],[62.6,34423],[62.6,34533],[62.6,34645],[62.6,34756],[62.6,34869],[62.6,34980],[62.6,35092],[62.6,35208],[62.6,35319],[62.6,35427],[62.6,35537],[62.6,35647],[62.6,35755],[62.6,35865],[62.6,35977],[62.6,36088],[62.6,36196],[62.6,36308],[62.6,36423],[62.6,36540],[62.6,36650],[62.6,36762],[62.6,36874],[62.6,36984],[62.6,37095],[62.6,37205],[62.6,37316],[62.6,37428],[62.6,37538],[62.6,37647],[62.6,37757],[61.1,37874],[59.8,37986],[59.8,38098],[59.2,38207],[59.1,38319],[59.1,38429],[59.1,38539],[59.1,38647],[59.1,38762],[59.4,38874],[59.4,38986],[59.4,39100],[59.4,39213],[59.4,39325],[59.1,39437],[58.9,39559],[58,39676]]",1,0,780.9312,782.124,57.24349616,0.765,"[{""rating"":57.24349616484321,""responseTime"":0.7649999999999864}]",space,0.5526,,782.124,Not at all,0,782.1258,,,[],,0,9,9,9,1,audio/Narrative7Situation9.wav,audio/Narrative8Situation9.wav,audio/Narrative5Situation9.wav,audio/Narrative6Situation9.wav,2,3,3,4,,,,,,,,,,,,,,,,,,,,,,,,,,,,,,,,,,,,,,,
,,,,,,5acbd1ecf69e940001d9cd4d,2024-05-13_13h51.26.475,group3.1-3.2-social-tom,2023.2.2,Win32,20,65c5074098b851296ff0b7ed,664252f9e97a631f919fa7aa,,,,,,,,,,,,,,,,,,,,,,,,,,,,,782.1259,2,audio/Narrative6Situation1.wav,784.1364,,784.1364,810.8068,"[[999,0],[999,111],[999,221],[999,329],[999,442],[999,555],[999,662],[999,772],[999,881],[999,989],[999,1102],[999,1213],[999,1323],[999,1433],[999,1545],[999,1653],[999,1763],[999,1873],[999,1983],[999,2095],[999,2204],[999,2313],[999,2422],[999,2532],[999,2648],[999,2766],[999,2877],[999,2986],[999,3098],[999,3207],[999,3321],[999,3431],[999,3540],[999,3646],[999,3755],[46.4,3870],[45.8,3981],[45.8,4092],[45.8,4203],[45.8,4313],[45.8,4422],[45.8,4531],[43.5,4642],[41.4,4755],[41.4,4868],[41.3,4976],[41.1,5089],[40.1,5200],[38.6,5313],[37.5,5430],[37.5,5549],[38.8,5998],[37.5,6111],[36.3,6225],[35.8,6338],[35.8,6450],[35.8,6571],[35.8,6687],[35.8,6797],[35.8,6907],[35.8,7017],[35.8,7127],[35.8,7239],[35.8,7348],[35.8,7459],[35.8,7569],[35.8,7679],[35.8,7790],[35.8,7899],[35.8,8009],[35.8,8120],[35.8,8230],[35.8,8339],[35.8,8452],[35.8,8564],[35.8,8683],[35.8,8796],[35.8,8910],[35.8,9022],[35.8,9135],[35.8,9244],[35.8,9358],[35.8,9468],[35.8,9578],[35.5,9688],[34.5,9804],[33.8,9914],[33.5,10026],[32.2,10138],[31.9,10250],[31.4,10359],[31,10471],[31,10580],[31,10695],[30.8,10810],[30.3,10921],[30,11033],[29.4,11144],[29.2,11255],[28.6,11368],[27.8,11479],[27.6,11593],[27.6,11702],[27.6,11818],[27.6,11934],[27.5,12047],[26.4,12158],[25.7,12270],[24.5,12382],[23.8,12493],[23.3,12605],[23.1,12714],[23.1,12831],[23.1,12943],[23.3,13055],[23.8,13170],[24.2,13280],[25,13395],[25.1,13509],[25.3,13620],[25.3,13729],[25.1,13840],[23.3,13954],[22.8,14066],[22,14177],[22,14287],[22,14396],[22,14507],[22,14632],[22,14751],[21.9,14860],[21.9,14970],[21.9,15081],[21.9,15191],[21.9,15302],[21.9,15414],[21.9,15526],[22.2,15639],[23.5,15753],[24.7,15863],[25.3,15975],[26.7,16088],[28.6,16201],[30.4,16311],[31.1,16422],[32,16533],[33.8,16644],[37.3,16759],[38.3,16872],[38.9,16981],[39.2,17091],[39.5,17204],[39.5,17315],[39.5,17430],[39.5,17541],[39.1,17659],[38.9,17777],[38.8,17887],[38.8,17999],[38.8,18109],[38.8,18221],[38.5,18332],[38.5,18447],[38.5,18556],[39.7,18664],[41.7,18776],[43.6,18888],[45.4,19001],[46,19111],[53,19224],[54.5,19334],[54.7,19449],[54.2,19561],[53.3,19672],[51.6,19784],[50.7,19895],[49.8,20008],[49.2,20122],[48.3,20235],[48.3,20344],[48.3,20458],[48.3,20568],[48.3,20685],[48.3,20804],[48.5,20915],[49.1,21027],[49.2,21140],[49.4,21250],[49.4,21360],[49.4,21476],[49.4,21588],[49.4,21698],[48.5,21807],[47.9,21920],[47.6,22032],[46.7,22146],[46.7,22256],[46.7,22367],[46.7,22479],[46.7,22589],[46.7,22699],[48.5,22811],[51.9,22922],[53,23034],[53.9,23146],[54.7,23259],[56,23373],[56.4,23483],[57.7,23597],[59.1,23709],[59.2,23821],[59.4,23946],[59.4,24057],[59.4,24168],[59.2,24279],[58.8,24391],[58.5,24504],[58.5,24614],[58.5,24723],[58.9,24834],[58.9,24944],[58.9,25055],[58.9,25168],[58.9,25278],[58.9,25389],[58.9,25502],[58.9,25617],[58.9,25726],[58.9,25835],[58.9,25942],[58.9,26055],[58.9,26165],[58.9,26276],[58.9,26387],[58.8,26499],[58.8,26613]]",1,0,810.8069,814.0807,52.54239608,0.9562,"[{""rating"":52.54239607960829,""responseTime"":0.9562000000030366}]",space,2.6077,,814.0808,Half the time,50,814.0826,,,[],,0,10,10,10,1,audio/Narrative8Situation1.wav,audio/Narrative7Situation1.wav,audio/Narrative6Situation1.wav,audio/Narrative5Situation1.wav,5,2,2,5,,,,,,,,,,,,,,,,,,,,,,,,,,,,,,,,,,,,,,,
,,,,,,5acbd1ecf69e940001d9cd4d,2024-05-13_13h51.26.475,group3.1-3.2-social-tom,2023.2.2,Win32,20,65c5074098b851296ff0b7ed,664252f9e97a631f919fa7aa,,,,,,,,,,,,,,,,,,,,,,,,,,,,,814.0827,2,audio/Narrative6Situation2.wav,817.089,,817.089,845.6817,"[[51.9,665],[51.4,778],[51.4,894],[51.4,1004],[51.4,1116],[51.4,1226],[50.5,1337],[50.5,1451],[50.4,1562],[49.8,1676],[49.8,1785],[49.8,1897],[49.8,2007],[49.8,2117],[49.8,2229],[49.8,2339],[49.8,2449],[49.8,2559],[49.8,2671],[49.8,2782],[50.1,2893],[50.5,3003],[51.9,3115],[53.3,3227],[54.8,3339],[56.3,3450],[57.3,3560],[57.3,3671],[57.3,3782],[57.3,3893],[57.3,4004],[57.3,4125],[57.3,4242],[57.3,4354],[57.3,4464],[57.3,4577],[57.3,4688],[57.3,4798],[57.3,4908],[56.1,5019],[54.8,5132],[54.5,5243],[54.5,5355],[54.5,5466],[55.7,5578],[56.1,5693],[56.4,5807],[57.4,5919],[58,6030],[58.2,6141],[58.2,6251],[58.2,6362],[57.9,6473],[57.4,6585],[56.6,6698],[56.3,6810],[56.1,6920],[56,7031],[56,7142],[56,7251],[56,7361],[56,7472],[56,7582],[56,7693],[56,7804],[56,7915],[56,8025],[56,8135],[56,8247],[56,8358],[56,8472],[56,8591],[56,8702],[56,8812],[56,8922],[56,9033],[56,9145],[56,9255],[56,9366],[56,9477],[56,9588],[56,9699],[56,9810],[56,9921],[56,10033],[56,10146],[54.4,10258],[54.2,10368],[54.2,10479],[53.6,10591],[53,10702],[52.7,10813],[52.7,10923],[52.3,11041],[51.7,11160],[51.1,11271],[50.8,11383],[50.4,11497],[50.4,11607],[50.4,11719],[51,11833],[51.3,11944],[51.3,12062],[51.1,12174],[49.9,12287],[49.7,12398],[49.7,12509],[49.7,12621],[49.7,12732],[49.7,12844],[49.7,12955],[49.7,13064],[49.7,13174],[48.8,13285],[48.8,13396],[48.8,13506],[49.4,13617],[49.5,13732],[49.5,13841],[49.7,13954],[49.7,14065],[49.5,14180],[48.2,14291],[47.6,14404],[47.3,14517],[46.9,14628],[46.9,14739],[46.1,14852],[45.2,14964],[44.5,15077],[43.9,15186],[42.5,15299],[42.3,15409],[41.3,15522],[40,15632],[39.2,15743],[39.1,15855],[38.5,15965],[38.5,16076],[38.5,16199],[38.5,16313],[38.5,16427],[38.5,16543],[38.2,16660],[38.8,16792],[39.4,16901],[40,17014],[40.4,17126],[40.5,17236],[40.5,17347],[40.5,17459],[40.4,17567],[40.2,17678],[40.1,17789],[40.1,17902],[40.1,18012],[40.1,18120],[40.1,18230],[40.1,18341],[40.1,18457],[40,18578],[39.8,18692],[39.8,18808],[39.8,18916],[39.8,19026],[39.7,19140],[39.7,19249],[39.5,19366],[39.5,19480],[39.5,19592],[39.5,19701],[39.5,19920],[39.5,20062],[39.5,20169],[37.2,20277],[34.7,20390],[34.7,20500],[34.7,20610],[34.7,20719],[34.7,20829],[34.7,20938],[32.8,21050],[30.8,21164],[30.8,21273],[30.8,21384],[30.8,21500],[30.8,21610],[30.8,21721],[30.8,21831],[30.8,21942],[30.8,22051],[30.8,22160],[30.7,22271],[31.4,22383],[32,22499],[32.2,22609],[32.5,22719],[32.5,22829],[32.5,22941],[32.5,23052],[32.5,23162],[32.2,23273],[30.1,23385],[29.5,23499],[29.5,23611],[29.5,23721],[28.3,23832],[28.3,23943],[28.3,24052],[25.4,24171],[25,24293],[25,24406],[25.1,24520],[26.4,24632],[26.7,24743],[27,24854],[27.5,24966],[27.5,25076],[27.5,25187],[27.5,25296],[27.5,25407],[26.4,25523],[26,25635],[26,25745],[26,25856],[26,25965],[25.5,26080],[25.5,26191],[25.5,26302],[25.5,26415],[25.5,26538],[25.5,26648],[25.5,26758],[25.5,26868],[25.5,26977],[25.5,27088],[25.8,27202],[26.6,27312],[26.6,27422],[26.6,27534],[26.6,27645],[26.6,27756],[26.6,27868],[26.6,27978],[26.6,28088],[26.6,28198],[26.6,28313],[26.6,28423],[26.6,28536]]",1,0,845.6818,847.5119,24.33589913,0.9435,"[{""rating"":24.3358991325183,""responseTime"":0.9434999999999718}]",space,1.1929,,847.5119,Half the time,50,847.5129,,,[],,0,11,11,11,1,audio/Narrative8Situation2.wav,audio/Narrative7Situation2.wav,audio/Narrative6Situation2.wav,audio/Narrative5Situation2.wav,3,3,3,3,,,,,,,,,,,,,,,,,,,,,,,,,,,,,,,,,,,,,,,
,,,,,,5acbd1ecf69e940001d9cd4d,2024-05-13_13h51.26.475,group3.1-3.2-social-tom,2023.2.2,Win32,20,65c5074098b851296ff0b7ed,664252f9e97a631f919fa7aa,,,,,,,,,,,,,,,,,,,,,,,,,,,,,847.513,2,audio/Narrative6Situation3.wav,852.5578,,852.5578,865.2673,"[[25,462],[43.6,573],[43.9,683],[43.6,794],[29.2,907],[28.9,1018],[28.9,1129],[28.9,1240],[28.9,1350],[28.9,1464],[28.9,1573],[28.9,1680],[25.5,1791],[24.4,1903],[24.4,2015],[24.4,2125],[24.4,2238],[24.4,2349],[24.4,2467],[24.4,2580],[24.4,2689],[24.4,2799],[24.4,2907],[24.4,3015],[24.4,3127],[26.1,3241],[32.3,3362],[33,3478],[38.2,3589],[46.1,3700],[46.1,3808],[46.1,3918],[46.1,4029],[45.5,4139],[44.8,4252],[43.9,4363],[43.3,4475],[43.3,4586],[43.3,4695],[43.3,4806],[43.3,4918],[43.3,5028],[43.3,5141],[44.4,5255],[44.5,5367],[44.5,5480],[44.5,5590],[44.5,5701],[44.5,5814],[44.5,5933],[44.5,6047],[42.9,6162],[42.7,6272],[42.7,6384],[42.7,6500],[40.1,6617],[38,6728],[38,6837],[38,6948],[38,7058],[38,7167],[38,7279],[39.1,7390],[39.4,7501],[39.4,7612],[40.1,7724],[40.8,7836],[41.7,7946],[42,8056],[42,8167],[42,8278],[42,8387],[42,8499],[42,8612],[42,8725],[42,8848],[42,8960],[42,9070],[42,9182],[42,9291],[42,9401],[42,9515],[42,9624],[42,9736],[42,9846],[42,9954],[42.5,10066],[43.6,10178],[45,10290],[45.4,10401],[46,10511],[46.4,10626],[46.4,10742],[46.4,10852],[46.4,10961],[45.5,11074],[44.7,11186],[44.5,11301],[43.9,11412],[42.5,11525],[41,11644],[40.8,11767],[40.7,11879],[40.1,11986],[40,12097],[40,12207],[39.8,12318],[39.8,12430],[39.8,12543],[39.8,12654]]",1,0,865.2674,868.2117,37.26388738,1.8723,"[{""rating"":37.26388737965737,""responseTime"":1.8722999999970398}]",space,2.3125,,868.2118,Half the time,50,868.2126,,,[],,0,12,12,12,1,audio/Narrative8Situation3.wav,audio/Narrative7Situation3.wav,audio/Narrative6Situation3.wav,audio/Narrative5Situation3.wav,4,8,5,3,,,,,,,,,,,,,,,,,,,,,,,,,,,,,,,,,,,,,,,
,,,,,,5acbd1ecf69e940001d9cd4d,2024-05-13_13h51.26.475,group3.1-3.2-social-tom,2023.2.2,Win32,20,65c5074098b851296ff0b7ed,664252f9e97a631f919fa7aa,,,,,,,,,,,,,,,,,,,,,,,,,,,,,868.2127,2,audio/Narrative6Situation4.wav,870.2245,,870.2245,882.9658,"[[37.2,1441],[38,1552],[39.2,1664],[40.5,1775],[44.7,1886],[46.4,1997],[48.3,2109],[49.4,2222],[49.5,2333],[49.7,2444],[49.9,2558],[50.2,2668],[50.2,2778],[49.9,2890],[49.8,3000],[49.4,3108],[48.8,3225],[48.5,3343],[47.6,3465],[46,3578],[44.1,3689],[41.9,3800],[39.8,3912],[39.5,4022],[39.5,4133],[37.7,4247],[37.7,4357],[37.7,4469],[37.7,4584],[37.7,4691],[37.7,4802],[37.7,4914],[37.7,5025],[37.7,5134],[37.7,5243],[38,5357],[40,5468],[40.5,5584],[41,5695],[41,5805],[41,5917],[39.8,6030],[39.5,6140],[43.6,6258],[48,6375],[51,6488],[53.2,6604],[54.4,6716],[55.4,6830],[56.7,6944],[57.6,7055],[57.6,7164],[57.6,7274],[57.6,7386],[57.6,7496],[57.6,7607],[57.6,7718],[57.2,7828],[47.2,7942],[29.5,8055],[29.2,8168],[29.2,8278],[33.3,8387],[40.8,8498],[41.7,8609],[41.6,8723],[40.8,8839],[37.6,8957],[33.6,9068],[33.6,9179],[33.6,9293],[33.6,9405],[33.6,9516],[33.6,9625],[33.6,9735],[33.6,9989],[33.6,10112],[33.8,10219],[33.8,10327],[33.8,10435],[34.8,10546],[36.3,10657],[37.6,10768],[38.2,10880],[39.5,10993],[40.5,11107],[41.4,11217],[47.7,11330],[49.1,11443],[49.7,11554],[50.2,11666],[51,11776],[51.9,11886],[52.6,11998],[53.2,12107],[54.8,12218],[55.1,12328],[55.4,12439],[55.7,12552],[55.7,12683]]",1,0,882.9658,885.4381,45.49078047,1.1061,"[{""rating"":45.34387695184784,""responseTime"":1.047100000008868},{""rating"":45.490780473195755,""responseTime"":1.1061000000089507}]",space,1.8402,,885.4382,All the time,100,885.4398,,,[],,0,13,13,13,1,audio/Narrative8Situation4.wav,audio/Narrative7Situation4.wav,audio/Narrative6Situation4.wav,audio/Narrative5Situation4.wav,3,3,2,1,,,,,,,,,,,,,,,,,,,,,,,,,,,,,,,,,,,,,,,
,,,,,,5acbd1ecf69e940001d9cd4d,2024-05-13_13h51.26.475,group3.1-3.2-social-tom,2023.2.2,Win32,20,65c5074098b851296ff0b7ed,664252f9e97a631f919fa7aa,,,,,,,,,,,,,,,,,,,,,,,,,,,,,885.44,2,audio/Narrative6Situation5.wav,887.4438,,887.4438,895.6109,"[[51,656],[51.1,769],[51.1,879],[51.1,991],[51.1,1101],[51.1,1211],[51.1,1323],[51,1434],[51,1545],[51,1654],[51,1768],[51,1879],[51,1989],[51,2100],[51.1,2223],[53,2338],[54.4,2453],[55.5,2564],[56.7,2676],[57.6,2786],[57.9,2897],[57.9,3008],[59.5,3124],[60.5,3234],[60.5,3344],[60.5,3454],[60.7,3566],[61.1,3679],[61.6,3790],[62.3,3902],[63.5,4013],[64.1,4125],[64.4,4237],[64.8,4346],[64.8,4456],[65.2,4569],[65.2,4678],[65.4,4788],[65.4,4901],[65.4,5011],[65.1,5122],[65.1,5234],[65.1,5344],[64.5,5455],[63.5,5568],[62.9,5679],[62.3,5791],[62.1,5903],[62.1,6012],[62.1,6123],[62.1,6245],[62.1,6356],[62.1,6464],[62.1,6577],[62.1,6687],[62.1,6799],[62.1,6911],[62.1,7021],[62.4,7132],[62.9,7244],[63,7356],[63.2,7465],[63.2,7579],[63.6,7690],[63.9,7801],[63.9,8047],[63.9,8167]]",1,0,895.6111,897.528,62.53221034,1.3904,"[{""rating"":62.53221033546974,""responseTime"":1.274000000000001},{""rating"":62.53221033546974,""responseTime"":1.390399999991132}]",space,1.2805,,897.528,All the time,100,897.529,,,[],,0,14,14,14,1,audio/Narrative8Situation5.wav,audio/Narrative7Situation5.wav,audio/Narrative6Situation5.wav,audio/Narrative5Situation5.wav,2,5,2,5,,,,,,,,,,,,,,,,,,,,,,,,,,,,,,,,,,,,,,,
,,,,,,5acbd1ecf69e940001d9cd4d,2024-05-13_13h51.26.475,group3.1-3.2-social-tom,2023.2.2,Win32,20,65c5074098b851296ff0b7ed,664252f9e97a631f919fa7aa,,,,,,,,,,,,,,,,,,,,,,,,,,,,,897.5291,2,audio/Narrative6Situation6.wav,899.5321,,899.5322,910.7241,"[[51.6,107],[51.6,219],[51.6,327],[51.6,438],[51,549],[50.4,658],[50.1,770],[49.9,882],[49.9,993],[49.9,1103],[50.8,1214],[51.6,1325],[52.4,1438],[54.7,1547],[60.4,1658],[62.1,1773],[62.7,1890],[63.2,2011],[63.2,2121],[63.2,2232],[63.2,2343],[62.7,2453],[62.6,2565],[62.6,2674],[62.3,2787],[62.1,2900],[62.1,3008],[62,3119],[61.6,3231],[61.6,3341],[61.4,3453],[61.4,3562],[61.4,3674],[61.4,3784],[61.4,3899],[61.4,4009],[61.6,4119],[62,4231],[62.4,4343],[63,4456],[63.6,4568],[64.4,4684],[65.2,4803],[65.4,4917],[65.4,5026],[65.4,5136],[64.9,5247],[64.2,5359],[64.1,5472],[63.8,5584],[63.3,5696],[63,5807],[62.7,5918],[62.4,6028],[62.4,6139],[62.1,6249],[61.4,6359],[61.4,6470],[60.5,6582],[58.9,6694],[57.6,6805],[57.4,6921],[57.3,7032],[55.2,7147],[53.8,7259],[52,7368],[51.6,7478],[48.2,7592],[45.5,7709],[42.5,7832],[41.4,7945],[40.7,8058],[39.7,8171],[39.1,8284],[38.5,8394],[38.3,8503],[37.7,8616],[37.5,8726],[37,8837],[36.7,8950],[36.3,9062],[36,9170],[36,9280],[36,9389],[36,9498],[36.7,9612],[37,9722],[37,9833],[37,9943],[37,10056],[37,10166],[37,10394],[37,10526],[37,10634],[37,10745],[37,10854],[37,10966],[37,11080],[37,11191]]",1,0,910.7242,913.2451,50.33877422,1.9332,"[{""rating"":50.33877421651004,""responseTime"":1.933200000003012}]",space,1.8888,,913.2451,Not at all,0,913.2467,,,[],,0,15,15,15,1,audio/Narrative8Situation6.wav,audio/Narrative7Situation6.wav,audio/Narrative6Situation6.wav,audio/Narrative5Situation6.wav,2,3,2,3,,,,,,,,,,,,,,,,,,,,,,,,,,,,,,,,,,,,,,,
,,,,,,5acbd1ecf69e940001d9cd4d,2024-05-13_13h51.26.475,group3.1-3.2-social-tom,2023.2.2,Win32,20,65c5074098b851296ff0b7ed,664252f9e97a631f919fa7aa,,,,,,,,,,,,,,,,,,,,,,,,,,,,,913.2468,2,audio/Narrative6Situation7.wav,918.2804,,918.2805,943.232,"[[50.2,1331],[50.1,1441],[50.1,1552],[50.1,1664],[50.1,1786],[50.1,1896],[49.9,2007],[49.9,2118],[51.1,2231],[55.1,2346],[61.4,2455],[62.3,2566],[62.6,2677],[62.6,2787],[62.6,2898],[62.7,3012],[65.1,3125],[65.1,3236],[64.4,3347],[63.8,3457],[62.7,3571],[62.6,3684],[62.6,3793],[62.6,3907],[63.2,4016],[63.2,4127],[63.2,4238],[63.2,4349],[63.2,4459],[63.2,4568],[63.2,4679],[63.2,4801],[63.2,4912],[63.2,5021],[63.2,5135],[62.9,5251],[62.4,5363],[62.1,5473],[61.7,5583],[61.4,5694],[61.4,5804],[61.4,5915],[62.6,6024],[63,6135],[63,6245],[63.2,6357],[63.2,6468],[63.2,6579],[63.2,6689],[63.2,6802],[63,6913],[63,7023],[63,7133],[63,7246],[63,7357],[63,7468],[63,7578],[63,7693],[63,7817],[63,7929],[63,8040],[63,8149],[63,8259],[63,8368],[63,8478],[63,8591],[63,8700],[63,8814],[63,8933],[63,9072],[63,9203],[63,9323],[63,9437],[63,9556],[63,9667],[63,9781],[63,9895],[63,10009],[63,10118],[63,10229],[63,10340],[63,10450],[63,10559],[63,10671],[63,10789],[63,10901],[63,11012],[63,11123],[63,11235],[63,11346],[63,11454],[63,11564],[63,11673],[63,11782],[63,11894],[63,12006],[63,12115],[63,12227],[63,12337],[63,12447],[63,12560],[63,12670],[63,12782],[63,12892],[63,13001],[63,13113],[63,13226],[63,13335],[63,13445],[63,13557],[63,13669],[63,13787],[63,13906],[63,14016],[62.1,14126],[60.7,14244],[59.6,14356],[57.3,14468],[55.4,14580],[53.3,14692],[51.6,14803],[49.5,14916],[48.3,15029],[48.3,15139],[48.3,15252],[48.3,15363],[48.3,15473],[48.3,15584],[48.6,15696],[50.8,15806],[55.2,15916],[59.5,16033],[61.6,16145],[62.9,16259],[63.2,16370],[64.4,16481],[65.7,16594],[65.8,16704],[65.8,16814],[66,16941],[66.9,17059],[67,17169],[67.7,17282],[68.9,17396],[69.1,17504],[69.1,17614],[69.1,17726],[69.1,17838],[69.1,17949],[69.1,18062],[69.1,18170],[69.1,18282],[69.1,18392],[69.1,18503],[69.1,18614],[69.1,18723],[69.1,18834],[68.8,18945],[68.5,19058],[68.5,19168],[68.5,19279],[68.5,19392],[69.4,19502],[69.9,19613],[69.9,19725],[70.4,19835],[70.8,19946],[70.8,20060],[70.8,20171],[71.7,20294],[72.7,20409],[73.2,20518],[74.1,20630],[74.2,20741],[74.2,20851],[75.4,20963],[75.8,21079],[76.1,21189],[76.8,21304],[76.8,21413],[76.7,21524],[77.7,21636],[78,21746],[78,21857],[78,21968],[78,22083],[77.9,22192],[77.9,22303],[77.9,22414],[77.9,22531],[77.9,22647],[78,22760],[78.8,22873],[79.3,22985],[79.3,23102],[79.5,23213],[79.5,23328],[79.5,23438],[79.5,23548],[79.5,23661],[79.5,23771],[79.5,23880],[79.5,23990],[79.5,24106],[79.5,24228],[79.5,24344],[79.5,24453],[79.5,24564],[79.3,24676],[79.1,24786],[79.1,24896]]",1,0,943.2321,945.8225,70.31837314,1.876,"[{""rating"":70.31837313842739,""responseTime"":1.7562999999970543},{""rating"":70.31837313842739,""responseTime"":1.87600000000009}]",space,1.9533,,945.8225,All the time,100,945.8241,,,[],,0,16,16,16,1,audio/Narrative8Situation7.wav,audio/Narrative7Situation7.wav,audio/Narrative6Situation7.wav,audio/Narrative5Situation7.wav,3,5,5,4,,,,,,,,,,,,,,,,,,,,,,,,,,,,,,,,,,,,,,,
,,,,,,5acbd1ecf69e940001d9cd4d,2024-05-13_13h51.26.475,group3.1-3.2-social-tom,2023.2.2,Win32,20,65c5074098b851296ff0b7ed,664252f9e97a631f919fa7aa,,,,,,,,,,,,,,,,,,,,,,,,,,,,,945.8243,2,audio/Narrative6Situation8.wav,950.8655,,950.8656,957.8651,"[[999,5],[999,117],[999,360],[999,472],[999,580],[999,687],[999,794],[999,903],[999,1009],[999,1116],[73.5,1225],[75.1,1337],[75.2,1447],[75.4,1557],[75.5,1667],[75.5,1780],[75.5,1892],[75.8,2004],[76,2114],[76,2223],[76,2334],[75.5,2445],[74.8,2558],[74.6,2669],[74.6,2778],[74.1,2891],[72.7,3006],[72,3119],[71.8,3235],[71.7,3349],[71.7,3457],[71.7,3566],[71.7,3675],[72.1,3785],[72.7,3900],[72.9,4012],[73.3,4124],[73.5,4236],[73.5,4346],[73.5,4457],[73.5,4568],[73.5,4678],[73.5,4789],[73.5,4899],[73.5,5012],[73.5,5122],[73.5,5233],[73.5,5351],[73.5,5581],[73.5,5714],[73.5,5821],[73,5934],[72.7,6056],[72.7,6164],[72.6,6274],[72.9,6386],[73.5,6496],[74.1,6613],[74.5,6724],[74.5,6833],[74.5,6943]]",1,0,957.8652,959.9303,73.84418587,0.8087,"[{""rating"":73.84418587326793,""responseTime"":0.7500999999940632},{""rating"":73.84418587326793,""responseTime"":0.8087000000030002}]",space,1.4341,,959.9304,All the time,100,959.9314,,,[],,0,17,17,17,1,audio/Narrative8Situation8.wav,audio/Narrative7Situation8.wav,audio/Narrative6Situation8.wav,audio/Narrative5Situation8.wav,3,2,5,3,,,,,,,,,,,,,,,,,,,,,,,,,,,,,,,,,,,,,,,
,,,,,,5acbd1ecf69e940001d9cd4d,2024-05-13_13h51.26.475,group3.1-3.2-social-tom,2023.2.2,Win32,20,65c5074098b851296ff0b7ed,664252f9e97a631f919fa7aa,,,,,,,,,,,,,,,,,,,,,,,,,,,,,959.9315,2,audio/Narrative6Situation9.wav,963.969,,963.969,974.0393,"[[999,5],[999,111],[999,219],[999,329],[999,437],[47.9,549],[47.3,661],[48.5,772],[49.7,886],[49.7,998],[49.7,1107],[51,1219],[53.3,1330],[54.9,1440],[65.8,1557],[67.3,1680],[66.7,1792],[65.7,1904],[65.2,2015],[65.2,2125],[64.5,2236],[63.3,2349],[63,2461],[62.4,2573],[60.8,2686],[59.8,2798],[58.5,2909],[58.5,3019],[58.5,3129],[58.5,3242],[59.1,3353],[64.1,3466],[65.7,3580],[66.3,3692],[67,3802],[67,3916],[67.1,4026],[68,4139],[68.6,4251],[68.9,4363],[68.9,4473],[68.9,4583],[69.1,4701],[70.5,4820],[71.1,4933],[71.1,5041],[71.1,5152],[71.1,5264],[71.1,5377],[71.1,5487],[71.1,5598],[71,5709],[69.9,5820],[67.4,5934],[65.8,6047],[64.1,6160],[63.3,6290],[63.3,6422],[64.8,6555],[66.7,6687],[67.6,6809],[68,6949],[68.9,7062],[69.6,7171],[70.2,7288],[70.2,7397],[72,7510],[72.4,7626],[72.6,7740],[72.6,7862],[72.6,7971],[72.6,8081],[72.6,8191],[72.6,8302],[72.6,8528],[73.3,8664],[73.6,8772],[73.6,8879],[73.6,8989],[73.6,9098],[73.6,9209],[73.6,9317],[73.6,9427],[73.6,9535],[73.6,9649],[75.4,9902],[75.7,10016]]",1,0,974.0395,975.9707,74.72565632,0.7583,"[{""rating"":74.72565631769797,""responseTime"":0.758299999997007}]",space,1.3057,,975.9708,All the time,100,975.9716,,,[],,0,18,18,18,1,audio/Narrative8Situation9.wav,audio/Narrative7Situation9.wav,audio/Narrative6Situation9.wav,audio/Narrative5Situation9.wav,3,2,4,3,,,,,,,,,,,,,,,,,,,,,,,,,,,,,,,,,,,,,,,
,,,,,,5acbd1ecf69e940001d9cd4d,2024-05-13_13h51.26.475,group3.1-3.2-social-tom,2023.2.2,Win32,20,65c5074098b851296ff0b7ed,664252f9e97a631f919fa7aa,,,,,,,,,,,,,,,,,,,,,,,,,,,,,,,,,,,,,,,,,,,,,,,,,,,,,,,,,,,,,,,,,,,,,,,,975.9718,989.8085,space,13.2808,,989.8091,1003.1164,space,12.8985,,,,,,,,,,,,,,,,,,,,,,,,,,
,,,,,,5acbd1ecf69e940001d9cd4d,2024-05-13_13h51.26.475,group3.1-3.2-social-tom,2023.2.2,Win32,20,65c5074098b851296ff0b7ed,664252f9e97a631f919fa7aa,,,,,,,,,,,,,,,,,,,,,,,,,,,,,1005.7072,1,audio/Narrative8Situation9.wav,1007.7203,,,,,,,1039.8598,1042.5128,15.96208772,1.5039,"[{""rating"":15.962087722729201,""responseTime"":1.5039000000058422}]",space,2.0174,,1039.8581,Half the time,50,1039.8598,,,[],,,,,,,,,,,2,2,2,2,,,,,,,,,,,,,,,1003.1229,1005.6994,1007.7206,3,1039.858,"[[48.6,569],[49.4,687],[49.7,802],[49.7,915],[49.7,1031],[49.7,1145],[49.7,1262],[49.7,1379],[49.7,1496],[49.7,1616],[49.7,1731],[49.7,1855],[49.5,1971],[49.5,2085],[49.5,2198],[49.5,2313],[49.4,2429],[48.3,2546],[47.4,2662],[45.1,2778],[41.9,2891],[40.2,3008],[39.8,3127],[36.3,3245],[36.3,3361],[36.3,3478],[36.3,3594],[36.3,3707],[36.3,3822],[36.3,3936],[36.3,4052],[36.3,4166],[36.3,4281],[36.3,4396],[36.3,4515],[36.3,4636],[36.3,4748],[36.3,4861],[36.3,4975],[36.3,5089],[36.3,5202],[36.3,5318],[36.1,5437],[35.8,5554],[33.6,5671],[32.5,5787],[32.5,5902],[31.4,6022],[31.1,6137],[30.8,6255],[29.5,6373],[29.2,6493],[29.2,6604],[29.2,6719],[29.2,6834],[29.2,6952],[29.2,7067],[29.2,7181],[29.2,7297],[29.2,7410],[29.2,7526],[29.2,7644],[29.2,7759],[29.2,7873],[29.2,7987],[29.2,8102],[29.2,8215],[29.2,8332],[29.2,8454],[29.4,8582],[29.5,8698],[30,8815],[30.5,8930],[31,9046],[31.1,9165],[31.1,9278],[31,9395],[29.2,9512],[28.2,9629],[27.8,9744],[25.5,9865],[25.5,9978],[25.5,10092],[25.5,10205],[25.5,10321],[25.5,10436],[25.5,10566],[25.5,10681],[25.5,10798],[25.5,10914],[25.5,11028],[25.5,11142],[25.5,11257],[25.5,11371],[25.5,11489],[25.5,11603],[25.5,11720],[25.5,11836],[25.5,11953],[25.5,12068],[25.5,12184],[25.5,12300],[25.5,12414],[25.5,12531],[25.5,12646],[25.5,12760],[25.5,12877],[25.5,12994],[25.5,13109],[25.5,13223],[25.5,13340],[25.5,13455],[25.5,13571],[25.5,13686],[25.5,13801],[25.5,13917],[25.5,14033],[25.5,14161],[25.5,14276],[25.5,14390],[25.5,14510],[25.5,14624],[25.5,14738],[25.5,14852],[25.5,14970],[25.5,15084],[25.5,15200],[25.5,15316],[25.5,15429],[25.5,15546],[25.5,15659],[25.5,15773],[25.5,15886],[25.5,16002],[25.5,16118],[25.5,16234],[25.5,16347],[25.5,16465],[25.5,16588],[25.5,16710],[25.5,16824],[25.5,16939],[25.5,17054],[25.5,17168],[25.5,17284],[25.5,17399],[25.5,17513],[25.5,17627],[25.5,17742],[23.2,17864],[22.9,17981],[22.5,18097],[21.6,18215],[21.6,18331],[21.6,18449],[21.6,18564],[21.6,18680],[21.6,18794],[21.6,18908],[21.4,19022],[20.3,19136],[19.5,19255],[19.2,19370],[19.2,19485],[19.1,19612],[18.9,19727],[18.3,19845],[18.2,19962],[18.2,20076],[18.2,20189],[18.2,20303],[18.2,20418],[18.2,20534],[18.2,20650],[18.2,20764],[18.2,20878],[18.2,20994],[18.2,21112],[18.2,21227],[18.9,21344],[18.9,21458],[19.1,21575],[19.2,21690],[19.2,21802],[19.2,21919],[19.2,22034],[18.9,22149],[17.2,22266],[17,22384],[17,22503],[17,22628],[17,22743],[17.9,22860],[18.3,22974],[18.3,23088],[18.5,23207],[18.8,23325],[18.8,23438],[18.8,23553],[18.8,23669],[18.8,23783],[18.8,23898],[18.8,24014],[18.6,24128],[18.2,24247],[18.1,24364],[18.1,24479],[18.1,24594],[18.1,24709],[18.1,24823],[17.9,24939],[17.9,25057],[17.8,25171],[17.8,25290],[17.8,25404],[17.8,25518],[17.8,25633],[17.8,25747],[17.8,25862],[17.8,25977],[17.8,26094],[17.8,26206],[17.8,26328],[17.8,26444],[17.8,26559],[17.8,26677],[17.8,26792],[17.8,26908],[17.8,27034],[17.8,27149],[17.8,27266],[17.8,27378],[17.8,27495],[17.8,27612],[17.8,27727],[17.8,27840],[17.8,27958],[17.8,28071],[17.8,28190],[17.8,28306],[17.8,28422],[17.8,28539],[17.8,28662],[17.9,28785],[18.5,28902],[19.2,29019],[20,29135],[20,29249],[20,29362],[19.5,29478],[18.5,29594],[17.8,29710],[17,29827],[16.7,29942],[16.7,30056],[16.7,30170],[16.7,30290],[16.7,30407],[16.7,30519],[16.7,30633],[16.6,30747],[16.4,30864],[16,30978],[16,31091],[16,31208],[16,31328],[16,31445],[16,31563],[16,31684],[16,31798],[16,31912],[16,32026],[16,32136]]",0,0,0,0,1,"Larry had recently lost his family, job and home, and was now living on his own in the park. He had most of his belongings, including some clothes, a blanket, and his mother’s special necklace. His family had been very important to him and he felt as though he did not have much going for him. One of his first days in the park he came across a family that did not have much food and looked very cold. He decided to give them some of his food and his blanket.","Larry had recently lost his family, job and home, and was now living on his own in the park. He had most of his belongings, including some clothes, a blanket, and his mother’s special necklace. His family had been very important to him and he felt as though he did not have much going for him. One of his first days in the park he came across a family that did not have much food and looked very cold. He decided to give them some of his food and his blanket.","Larry had recently lost his family, job and home, and was now living on his own in the park. He had most of his belongings, including some clothes, a blanket, and his mother’s special necklace. His family had been very important to him and he felt as though he did not have much going for him. One of his first days in the park he came across a family that did not have much food and looked very cold. He decided to give them some of his food and his blanket.","Larry had recently lost his family, job and home, and was now living on his own in the park. He had most of his belongings, including some clothes, a blanket, and his mother’s special necklace. His family had been very important to him and he felt as though he did not have much going for him. One of his first days in the park he came across a family that did not have much food and looked very cold. He decided to give them some of his food and his blanket.",,,,,,,,,,
