exp_question,consent.started,consent.stopped,consentResponse.keys,consentResponse.rt,consentResponse.duration,participantID,date,expName,psychopyVersion,OS,frameRate,STUDY_ID,SESSION_ID,opening1.started,opening1.stopped,keyEndingOpening1.keys,keyEndingOpening1.rt,keyEndingOpening1.duration,volumeAdjust.started,volumeAdjust.stopped,endingAdjust.keys,endingAdjust.rt,endingAdjust.duration,opening2.started,opening2.stopped,keyEndingOpening.keys,keyEndingOpening.rt,keyEndingOpening.duration,mouse.x,mouse.y,mouse.leftButton,mouse.midButton,mouse.rightButton,mouse.time,instructionLoop.thisRepN,instructionLoop.thisTrialN,instructionLoop.thisN,instructionLoop.thisIndex,instructionLoop.ran,readyForAudio.started,readyForAudio.stopped,fixation.started,fixation.stopped,endPractice.keys,audioPre.started,audioPre.stopped,continuousResponses_audio,continuousSlider.response,continuousSlider.rt,intRating.started,intRating.stopped,intQuestionSlider.response,intQuestionSlider.rt,intQuestionSlider.history,confirmResponse.keys,confirmResponse.rt,confirmResponse.duration,catchQuestion.started,catch_label,catch_value,catchQuestion.stopped,catchQuestionSlider.response,catchQuestionSlider.rt,catchQuestionSlider.history,confirmResponse_2.keys,audioRunLoop.thisRepN,audioRunLoop.thisTrialN,audioRunLoop.thisN,audioRunLoop.thisIndex,audioRunLoop.ran,conditions1_1,conditions2_1,conditions1_2,conditions2_2,dur1_1,dur2_1,dur1_2,dur2_2,endPractice.rt,endPractice.duration,confirmResponse_2.rt,confirmResponse_2.duration,runIntervalBreak.started,runIntervalBreak.stopped,endingBreakKey.keys,endingBreakKey.rt,endingBreakKey.duration,connection.started,connection.stopped,connectionEnding.keys,connectionEnding.rt,connectionEnding.duration,readyForText.started,readyForText.stopped,textPre.started,textPre.stopped,continuousResponses_text,textRunLoop.thisRepN,textRunLoop.thisTrialN,textRunLoop.thisN,textRunLoop.thisIndex,textRunLoop.ran,text1_1,text1_2,text2_1,text2_2,runBreakText.started,runBreakText.stopped,endingBreakKey_2.keys,endingBreakKey_2.rt,endingBreakKey_2.duration,ending.started,ending.stopped,endingEnding.keys,endingEnding.rt,endingEnding.duration
social,1E-04,5.3729,y,5.0547,,5afa19a4f856320001cf920f,2024-02-06_10h41.47.356,group3.1-3.2-social-tom,2023.2.2,Win32,119.047619,65b1b24e3a500fd6b5dc9abd,65c2532d89d54ddc0523b5dc,,,,,,,,,,,,,,,,,,,,,,,,,,,,,,,,,,,,,,,,,,,,,,,,,,,,,,,,,,,,,,,,,,,,,,,,,,,,,,,,,,,,,,,,,,,,,,,,,,,,,,,
,,,,,,5afa19a4f856320001cf920f,2024-02-06_10h41.47.356,group3.1-3.2-social-tom,2023.2.2,Win32,119.047619,65b1b24e3a500fd6b5dc9abd,65c2532d89d54ddc0523b5dc,5.373,8.3812,space,2.9842,,,,,,,,,,,,,,,,,,,,,,,,,,,,,,,,,,,,,,,,,,,,,,,,,,,,,,,,,,,,,,,,,,,,,,,,,,,,,,,,,,,,,,,,,,,,,,,,,,,
,,,,,,5afa19a4f856320001cf920f,2024-02-06_10h41.47.356,group3.1-3.2-social-tom,2023.2.2,Win32,119.047619,65b1b24e3a500fd6b5dc9abd,65c2532d89d54ddc0523b5dc,,,,,,8.3813,16.7003,space,8.0083,,,,,,,,,,,,,,,,,,,,,,,,,,,,,,,,,,,,,,,,,,,,,,,,,,,,,,,,,,,,,,,,,,,,,,,,,,,,,,,,,,,,,,,,,,,,,,
,,,,,,5afa19a4f856320001cf920f,2024-02-06_10h41.47.356,group3.1-3.2-social-tom,2023.2.2,Win32,119.047619,65b1b24e3a500fd6b5dc9abd,65c2532d89d54ddc0523b5dc,,,,,,,,,,,16.7023,29.7561,space,13.0432,,[],[],[],[],[],[],0,0,0,0,1,,,,,,,,,,,,,,,,,,,,,,,,,,,,,,,,,,,,,,,,,,,,,,,,,,,,,,,,,,,,,,,,,,,,,,,,,,,,,
,,,,,,5afa19a4f856320001cf920f,2024-02-06_10h41.47.356,group3.1-3.2-social-tom,2023.2.2,Win32,119.047619,65b1b24e3a500fd6b5dc9abd,65c2532d89d54ddc0523b5dc,,,,,,,,,,,29.7564,54.0141,space,24.2009,,[],[],[],[],[],[],1,0,1,0,1,,,,,,,,,,,,,,,,,,,,,,,,,,,,,,,,,,,,,,,,,,,,,,,,,,,,,,,,,,,,,,,,,,,,,,,,,,,,,
,,,,,,5afa19a4f856320001cf920f,2024-02-06_10h41.47.356,group3.1-3.2-social-tom,2023.2.2,Win32,119.047619,65b1b24e3a500fd6b5dc9abd,65c2532d89d54ddc0523b5dc,,,,,,,,,,,54.0144,66.2891,space,12.254,,[],[],[],[],[],[],2,0,2,0,1,,,,,,,,,,,,,,,,,,,,,,,,,,,,,,,,,,,,,,,,,,,,,,,,,,,,,,,,,,,,,,,,,,,,,,,,,,,,,
,,,,,,5afa19a4f856320001cf920f,2024-02-06_10h41.47.356,group3.1-3.2-social-tom,2023.2.2,Win32,119.047619,65b1b24e3a500fd6b5dc9abd,65c2532d89d54ddc0523b5dc,,,,,,,,,,,66.2936,81.9639,space,15.6575,,[],[],[],[],[],[],3,0,3,0,1,,,,,,,,,,,,,,,,,,,,,,,,,,,,,,,,,,,,,,,,,,,,,,,,,,,,,,,,,,,,,,,,,,,,,,,,,,,,,
,,,,,,5afa19a4f856320001cf920f,2024-02-06_10h41.47.356,group3.1-3.2-social-tom,2023.2.2,Win32,119.047619,65b1b24e3a500fd6b5dc9abd,65c2532d89d54ddc0523b5dc,,,,,,,,,,,81.9684,90.8389,space,8.861,,[],[],[],[],[],[],4,0,4,0,1,,,,,,,,,,,,,,,,,,,,,,,,,,,,,,,,,,,,,,,,,,,,,,,,,,,,,,,,,,,,,,,,,,,,,,,,,,,,,
,,,,,,5afa19a4f856320001cf920f,2024-02-06_10h41.47.356,group3.1-3.2-social-tom,2023.2.2,Win32,119.047619,65b1b24e3a500fd6b5dc9abd,65c2532d89d54ddc0523b5dc,,,,,,,,,,,,,,,,,,,,,,,,,,,90.8441,93.4222,93.4315,95.4389,,95.439,125.1724,"[[999,0],[999,116],[999,216],[999,316],[999,416],[47.1,516],[47.5,617],[48.4,716],[48.4,816],[48.4,916],[48.4,1016],[49.1,1116],[49.1,1216],[49.1,1316],[49.1,1416],[49.1,1516],[49.1,1616],[49.1,1716],[45.7,1816],[42.4,1916],[39.7,2016],[36,2116],[31,2216],[30.5,2316],[30.5,2416],[30.5,2516],[30.5,2616],[30.5,2724],[30.5,2824],[30.5,2924],[30.5,3024],[30.5,3124],[30.5,3224],[30.4,3324],[29.8,3424],[28.3,3524],[21.8,3624],[21.8,3724],[21.9,3824],[22.5,3924],[24.1,4024],[24.1,4124],[24.5,4224],[25.2,4324],[38.1,4424],[38.1,4524],[38.2,4624],[41.3,4724],[43.9,4824],[47.7,4924],[49.5,5024],[49.5,5124],[49.5,5224],[49.5,5324],[49.8,5424],[50.5,5524],[50.6,5624],[50.6,5732],[50.6,5833],[50.6,5933],[51.1,6033],[51.2,6132],[51.6,6232],[52,6333],[52.1,6432],[52.2,6533],[52.2,6633],[52.2,6741],[52.2,6841],[52.2,6941],[52.2,7041],[52.2,7141],[52.2,7241],[52.2,7341],[52.2,7441],[52.2,7541],[52.2,7641],[52.2,7741],[52.2,7841],[52.2,7941],[52.8,8041],[63.3,8141],[67.1,8241],[70.9,8341],[76,8441],[85.5,8541],[92.3,8641],[91.8,8741],[91.5,8841],[91.5,8941],[94.5,9041],[94.8,9141],[94.8,9241],[95,9341],[95,9441],[95,9541],[95,9641],[95,9741],[95,9841],[95,9941],[95,10041],[94.7,10141],[94.6,10241],[94.6,10341],[94.6,10441],[94.8,10541],[94.8,10641],[94.8,10741],[93.6,10841],[92.3,10941],[92,11041],[92,11141],[91.6,11241],[91.4,11341],[91.4,11441],[91.4,11541],[91.4,11641],[91.4,11749],[91.4,11849],[91.4,11949],[91.4,12049],[91.4,12149],[91.4,12249],[91.4,12349],[91.4,12449],[91.4,12549],[91.4,12649],[91.4,12749],[91.1,12849],[91,12949],[91,13049],[91,13149],[91,13249],[91,13349],[92.4,13449],[92.7,13549],[92.7,13649],[94.3,13758],[96.4,13857],[99.7,13958],[99.8,14057],[99.8,14158],[99.6,14257],[99.6,14357],[99.6,14457],[99.6,14557],[99.2,14658],[98.6,14758],[98.4,14857],[98.4,14957],[98.4,15057],[97,15158],[90.7,15257],[87.7,15357],[81.2,15458],[67.8,15557],[64.3,15657],[59.5,15759],[59.1,15857],[58.1,15957],[56.2,16058],[53.8,16158],[52,16257],[52,16357],[51.7,16458],[49.3,16558],[48.8,16658],[44,16757],[42.7,16866],[42.6,16966],[41.5,17066],[39.5,17166],[38.2,17266],[37.6,17366],[36.8,17466],[36.8,17566],[36.6,17666],[36.2,17766],[35.4,17866],[35,17966],[35,18066],[35,18166],[34.9,18266],[34.9,18366],[34.9,18466],[34.9,18566],[34.9,18666],[34.9,18766],[34.9,18866],[35.4,18966],[35.4,19066],[35.4,19166],[35.4,19266],[35.6,19366],[35.6,19466],[35.6,19566],[35.6,19666],[35.6,19766],[37,19874],[37,19974],[37,20074],[37,20174],[37,20274],[34.8,20374],[32.7,20474],[31.4,20574],[29.4,20674],[28,20774],[28,20874],[27.3,20974],[31.2,21074],[33.9,21174],[33.9,21274],[33.9,21374],[34.8,21474],[51.4,21574],[58.4,21674],[58.4,21774],[58.4,21874],[60.6,21974],[62.5,22074],[63,22174],[63,22274],[63.5,22374],[66,22474],[66.6,22574],[66.6,22674],[66.6,22774],[66.6,22874],[66.6,22974],[66.6,23074],[66.6,23174],[67,23274],[67,23374],[67,23474],[67,23574],[67,23674],[67,23774],[67,23882],[67,23982],[67,24082],[67,24182],[66.1,24283],[65.4,24383],[61.5,24482],[61,24583],[60.7,24682],[59.4,24782],[58.7,24891],[58.4,24991],[58.3,25091],[56.6,25191],[56.5,25291],[56.5,25391],[56.3,25491],[54.5,25591],[52.7,25691],[52,25791],[51.6,25891],[50.9,25991],[50.5,26091],[50.5,26191],[50.4,26291],[51.2,27691],[50.2,27791],[42.5,27892],[39.2,27999],[39.2,28099],[39.2,28199],[39.2,28299],[39.3,28399],[39.3,28499],[39.3,28599],[39.3,28699],[39.5,28799],[39.5,28899],[39.5,28999],[39.5,29099],[39.5,29199],[39.5,29299],[39.5,29399],[39.5,29499],[39.9,29599],[40.2,29699]]",1,0,125.1725,133.1638,71.328125,3.962,"[{""rating"":71.328125,""responseTime"":3.9620000000000175}]",space,7.4718,,133.1679,Definitely yes,100,133.1698,,,[],,0,0,0,0,1,audio/Narrative13Situation2.wav,audio/Narrative13Situation2.wav,audio/Narrative13Situation2.wav,audio/Narrative13Situation2.wav,2,2,2,2,,,,,,,,,,,,,,,,,,,,,,,,,,,,,,,,,,,,,,
,,,,,,5afa19a4f856320001cf920f,2024-02-06_10h41.47.356,group3.1-3.2-social-tom,2023.2.2,Win32,119.047619,65b1b24e3a500fd6b5dc9abd,65c2532d89d54ddc0523b5dc,,,,,,,,,,,,,,,,,,,,,,,,,,,,,133.1699,135.7719,space,135.7719,191.6415,"[[999,0],[999,103],[999,199],[999,303],[999,403],[999,503],[999,602],[51.7,702],[51.7,800],[50.2,902],[49.8,999],[49.8,1099],[49.7,1199],[49.7,1299],[49.7,1399],[49.7,1499],[49.7,1601],[49.8,1702],[49.8,1799],[49.8,1899],[49.8,1999],[49.8,2102],[49.8,2199],[49.8,2299],[49.8,2399],[49.8,2503],[48.8,2603],[48.8,2715],[48.8,2808],[45.2,2912],[43.4,3008],[43.4,3108],[43.4,3212],[43.4,3312],[43.4,3408],[43.4,3508],[43.4,3612],[43.9,3720],[44.8,3816],[44.8,3916],[45.5,4020],[47,4120],[47.8,4220],[48,4316],[48.3,4416],[48.4,4516],[48.9,4620],[49.5,4728],[49.5,4824],[49.5,4924],[49.5,5024],[49.5,5127],[49.5,5224],[49.5,5324],[49.5,5424],[49.5,5528],[49.5,5624],[49.5,5728],[49.5,5824],[49.5,5928],[48.4,6028],[46,6128],[44.7,6228],[43.2,6327],[42.8,6435],[42.5,6533],[42,6635],[41.5,6736],[40.9,6833],[40.6,6933],[40.6,7033],[40.6,7133],[40.6,7233],[42.3,7333],[44.4,7433],[44.5,7533],[45.7,7633],[50.6,7737],[51.6,7833],[58.8,7933],[63,8033],[65.5,8133],[66.6,8233],[67,8333],[70.5,8433],[70.7,8533],[70.7,8633],[70.7,8737],[70.7,8841],[70.7,8941],[72.2,9041],[72.7,9141],[72.7,9241],[72.7,9341],[72.7,9441],[72.7,9541],[72.7,9641],[73.1,9742],[73.3,9841],[73.3,9941],[73.3,10041],[73.3,10141],[73.9,10241],[74,10341],[74,10441],[74,10541],[74,10641],[74,10742],[74.1,10849],[74.5,10949],[74.5,11049],[74.5,11149],[74.5,11249],[74.5,11349],[74.5,11449],[74.5,11549],[74.5,11649],[74.5,11749],[74.5,11849],[74.5,11949],[74.5,12049],[74.7,12149],[75.2,12249],[76.1,12349],[76.5,12449],[76.6,12549],[76.6,12649],[76.6,12749],[76.6,12858],[76.6,12958],[76.6,13058],[76.6,13158],[76.8,13258],[77.4,13358],[77.7,13458],[78.9,13558],[78.9,13658],[78.9,13758],[78.9,13866],[79,13966],[79,14066],[79,14166],[79,14266],[79.1,14366],[79.1,14466],[79.1,14566],[79.1,14666],[79.1,14766],[79.1,14866],[79.1,14966],[79.1,15066],[79.1,15166],[79.1,15266],[79.1,15366],[82.2,15466],[86.6,15566],[86.6,15666],[87.3,15766],[88.2,15874],[88.2,15974],[88.2,16074],[88.2,16174],[88.1,16274],[88,16374],[88,16474],[87.7,16574],[83.4,16674],[74.1,16774],[68.1,16874],[62.4,16974],[58.6,17074],[57,17174],[55.9,17274],[54.3,17374],[53.9,17474],[52.9,17574],[52.3,17674],[52,17774],[51.5,17883],[51.4,17983],[51.2,18083],[50.9,18183],[50.8,18283],[50.5,18383],[50.5,18483],[50.5,18583],[50.5,18683],[50.5,18783],[50.5,18895],[50.5,18995],[50.5,19094],[50.5,19194],[50.5,19295],[51.4,19395],[54.3,19494],[57.3,19595],[58.1,19694],[58.1,19794],[59.1,19895],[58.9,19995],[54.2,20095],[46.4,20194],[46.4,20294],[46.1,20394],[45.6,20494],[45.2,20594],[45.2,20694],[45.2,20794],[45.2,20894],[45.2,20994],[45.2,21095],[46.5,21194],[49.3,21295],[49.5,21395],[49.5,21494],[51.5,21594],[56.4,21694],[56.5,21794],[56.5,21903],[56,22003],[55,22103],[54.2,22203],[53.3,22303],[52.8,22403],[52.3,22503],[51.3,22603],[50.8,22703],[50.3,22803],[49,22911],[48,23011],[47,23111],[46,23211],[45.9,23311],[45.8,23411],[46,23511],[46.7,23611],[47.1,23711],[47.6,23811],[48.2,23919],[48.7,24019],[48.7,24119],[48.2,24219],[47.2,24319],[46.9,24419],[46.5,24519],[46,24619],[45.6,24719],[45.1,24819],[44.8,24937],[44.6,25033],[44.5,25133],[44.2,25233],[44.1,25333],[44,25433],[44,25533],[44,25637],[43.9,25733],[43.8,25837],[43.8,25933],[43.8,26033],[43.7,26133],[43.7,26233],[43.5,26333],[43.5,26432],[43.2,26533],[42.7,26633],[41.6,26737],[41.6,26833],[41.5,26932],[41.5,27033],[40.6,27137],[39.9,27233],[39.6,27333],[39.5,27433],[39.1,27533],[38.4,27637],[38,27737],[38,27833],[37.8,27943],[37.7,28045],[37.6,28145],[37.3,28241],[36.8,28341],[36.7,28441],[36.7,28541],[36.7,28645],[37.2,28741],[38.4,28845],[39.3,28953],[48.4,29053],[56,29153],[56.1,29249],[56.1,29349],[56.7,29454],[56.9,29553],[56.9,29658],[57,29758],[57.4,29858],[58.6,29958],[60.9,30057],[60.9,30158],[60.9,30258],[60.9,30358],[60.9,30458],[60.9,30557],[60.9,30658],[60.8,30758],[60.8,30858],[60.8,30961],[60.8,31057],[60.8,31158],[60.8,31258],[60.8,31358],[60.4,31462],[59.6,31557],[59.6,31658],[59.6,31758],[65.8,31861],[66.8,31958],[67.6,32062],[72.1,32162],[72.1,32257],[72.1,32358],[72.1,32458],[72.1,32557],[72.1,32658],[72.1,32761],[72.1,32858],[72.1,32961],[72.1,33057],[72.1,33158],[72.1,33258],[72.1,33358],[72.1,33458],[72.1,33557],[72.1,33658],[72.1,33758],[72.1,33858],[72.1,33960],[72.1,34057],[72.1,34158],[71.1,34258],[71.1,34358],[71.1,34457],[71.1,34557],[71.1,34658],[71.3,34761],[71.8,34861],[72.4,34962],[73.2,35062],[74.8,35161],[75,35262],[75.5,35361],[76.6,35462],[77.5,35560],[79.6,35660],[81.3,35760],[88,35860],[88,35958],[92.6,36060],[97.7,36160],[98,36257],[98.1,36358],[98.1,36458],[98.1,36557],[98.1,36658],[97.5,36760],[96.9,36858],[96.8,36958],[96.8,37057],[97.3,37160],[97.6,37258],[97.6,37361],[97.6,37457],[97.6,37561],[97.5,37661],[97.4,37757],[97.4,37862],[97.4,37957],[97.4,38057],[97.4,38161],[97.4,38257],[97.4,38357],[97.4,38457],[97.4,38557],[97.4,38658],[97.4,38757],[97.4,38858],[97.4,38957],[97.4,39066],[97.4,39166],[97.4,39266],[97.4,39366],[97.4,39466],[97.4,39566],[97.3,39666],[97,39770],[96.8,39866],[96.7,39968],[96.6,40066],[96.5,40170],[96.5,40266],[96.4,40370],[96.4,40466],[96.4,40566],[96.4,40666],[96.3,40770],[96,40870],[96,40966],[97.7,41078],[99,41174],[99.5,41278],[99.8,41374],[100,41478],[100,41574],[100,41678],[100,41774],[100,41877],[100,41974],[100,42082],[100,42182],[100,42282],[100,42387],[100,42482],[100,42586],[100,42686],[100,42782],[100,42882],[100,42982],[100,43086],[100,43182],[100,43282],[100,43383],[100,43483],[100,43587],[100,43682],[100,43782],[100,43882],[100,43982],[100,44091],[100,44191],[100,44293],[100,44391],[100,44491],[100,44591],[100,44691],[100,44791],[100,44891],[100,44995],[100,45091],[100,45195],[100,45291],[100,45391],[100,45491],[100,45591],[100,45695],[100,45791],[100,45891],[100,45991],[100,46091],[100,46195],[100,46291],[100,46391],[100,46495],[100,46591],[100,46695],[99.4,46791],[99,46891],[98.6,46991],[97.6,47091],[95.5,47191],[95.3,47291],[95,47391],[93.8,47491],[90.6,47591],[87,47691],[85.5,47791],[85.5,47891],[85.1,47991],[83,48095],[82.9,48199],[82.6,48299],[82.6,48399],[83.6,48499],[84.1,48599],[84.8,48699],[86.1,48799],[86.3,48899],[90.2,48999],[91.3,49101],[91.3,49199],[91.3,49299],[93,49399],[93.2,49499],[94.2,49599],[94.2,49699],[94.5,49799],[95.4,49899],[95.7,49999],[95.7,50099],[95.7,50212],[96.1,50311],[96.5,50411],[96.8,50511],[96.8,50611],[96.8,50711],[96.8,50811],[96.8,50911],[96.8,51011],[96.8,51112],[96.8,51211],[96.8,51311],[96.8,51411],[96.8,51511],[96.8,51611],[96.8,51711],[96.8,51811],[96.8,51911],[96.8,52011],[97.1,52121],[99.7,52219],[99.8,52319],[99.8,52419],[99.8,52519],[100,52619],[100,52719],[100,52819],[100,52919],[100,53019],[100,53120],[100,53219],[100,53319],[100,53419],[100,53519],[100,53619],[100,53719],[100,53819],[100,53919],[100,54019],[100,54123],[100,54219],[100,54319],[100,54419],[100,54519],[99.8,54619],[99.1,54719],[97.6,54819],[97.1,54919],[97.1,55019],[97.1,55122],[97.1,55227],[96.4,55328],[95.9,55428],[95.9,55527],[95.9,55627],[95.9,55727],[95.9,55827]]",1,0,191.6417,194.8584,91.328125,1.9665,"[{""rating"":91.328125,""responseTime"":1.9664999999999964}]",space,2.6921,,194.8584,Partially,50,203.1498,50.3125,5.1995,"[{""rating"":50.31250000000001,""responseTime"":5.1995000000000005}]",space,0,1,1,1,1,audio/Narrative7Situation1.wav,audio/Narrative8Situation1.wav,audio/Narrative5Situation1.wav,audio/Narrative6Situation1.wav,2,5,5,2,2.5884,,7.7665,,,,,,,,,,,,,,,,,,,,,,,,,,,,,,,,,,,
,,,,,,5afa19a4f856320001cf920f,2024-02-06_10h41.47.356,group3.1-3.2-social-tom,2023.2.2,Win32,119.047619,65b1b24e3a500fd6b5dc9abd,65c2532d89d54ddc0523b5dc,,,,,,,,,,,,,,,,,,,,,,,,,,,,,203.1542,206.1546,,206.1546,213.6169,"[[50.8,912],[51.4,1012],[51.5,1108],[51.5,1208],[51.5,1312],[51.5,1408],[51,1512],[50.5,1612],[50.2,1708],[49.8,1812],[49.7,1916],[49.7,2016],[49.7,2116],[49.8,2216],[49.8,2320],[49.3,2420],[49.3,2516],[48.5,2616],[49.6,2720],[57.5,2820],[58.1,2916],[58.8,3020],[59.5,3116],[60.1,3220],[61,3320],[66.2,3420],[67.5,3516],[67.5,3616],[67,3719],[66.2,3819],[65.9,3916],[65.9,4016],[65.9,4116],[65.9,4216],[65.9,4317],[65.9,4416],[65.9,4518],[66.7,4619],[75.5,4719],[81.5,4816],[82.6,4919],[85.6,5019],[94.5,5119],[95.1,5216],[95,5320],[95,5416],[95,5516],[95,5620],[95.2,5716],[96.3,5816],[96.3,5924],[96.3,6025],[96.3,6125],[96.3,6227],[96.4,6329],[96.4,6425],[96.4,6524],[96.4,6625],[96.4,6725],[96.4,6825],[96.4,6929],[96.4,7024],[96.3,7125],[96.3,7225],[96.3,7324],[96.3,7425]]",1,0,213.617,218.2465,99.921875,3.7196,"[{""rating"":99.921875,""responseTime"":3.7195999999940454}]",space,4.1084,,218.2465,Not at all,0,218.248,,,[],,0,2,2,2,1,audio/Narrative7Situation2.wav,audio/Narrative8Situation2.wav,audio/Narrative5Situation2.wav,audio/Narrative6Situation2.wav,3,3,3,3,,,,,,,,,,,,,,,,,,,,,,,,,,,,,,,,,,,,,,
,,,,,,5afa19a4f856320001cf920f,2024-02-06_10h41.47.356,group3.1-3.2-social-tom,2023.2.2,Win32,119.047619,65b1b24e3a500fd6b5dc9abd,65c2532d89d54ddc0523b5dc,,,,,,,,,,,,,,,,,,,,,,,,,,,,,218.2482,226.2546,,226.2547,235.4962,"[[50.9,99],[50.8,199],[50.8,299],[50.8,399],[50.8,499],[50.8,599],[50.8,699],[49.7,799],[43.1,899],[42.4,999],[42.4,1099],[43.6,1199],[45.1,1299],[47.2,1399],[51.2,1499],[53.5,1599],[54.4,1699],[55.1,1799],[55.1,1899],[55,1999],[54.9,2099],[54.9,2199],[55.6,2299],[56.2,2399],[56.4,2499],[57.3,2599],[58.4,2699],[58.4,2799],[58.2,2899],[56.9,3008],[55.9,3108],[55.3,3208],[54.6,3308],[54.5,3408],[54.5,3508],[54.5,3608],[54.4,3708],[54.1,3808],[54,3908],[54,4008],[54,4108],[54,4207],[54,4307],[54,4407],[53.9,4508],[53.8,4608],[53.8,4708],[54.1,4807],[54.4,4908],[54.4,5007],[53.8,5108],[53.7,5207],[54.1,5308],[61.5,5408],[68,5508],[76.6,5608],[76.4,5708],[76.4,5808],[76.4,5908],[76.1,6016],[75.7,6116],[75.7,6216],[75.7,6316],[74.3,6416],[70.9,6516],[70.5,6616],[70.5,6716],[69.1,6816],[67.7,6916],[67.7,7024],[67.7,7124],[68.8,7224],[73.2,7324],[72.9,7424],[70.8,7524],[69.3,7624],[69.1,7724],[69.1,7824],[67.8,7924],[66.9,8033],[66.6,8133],[66.6,8233],[66.6,8333],[67,8432],[67,8533],[67,8632],[67,8733],[67,8833],[67,8932],[67,9032],[67,9133],[65.4,9233]]",1,0,235.4962,239.7627,62.578125,2.4994,"[{""rating"":62.57812499999999,""responseTime"":2.4994000000059486}]",space,3.7421,,239.7628,Definitely yes,100,239.7639,,,[],,0,3,3,3,1,audio/Narrative7Situation3.wav,audio/Narrative8Situation3.wav,audio/Narrative5Situation3.wav,audio/Narrative6Situation3.wav,8,4,3,5,,,,,,,,,,,,,,,,,,,,,,,,,,,,,,,,,,,,,,
,,,,,,5afa19a4f856320001cf920f,2024-02-06_10h41.47.356,group3.1-3.2-social-tom,2023.2.2,Win32,119.047619,65b1b24e3a500fd6b5dc9abd,65c2532d89d54ddc0523b5dc,,,,,,,,,,,,,,,,,,,,,,,,,,,,,239.764,242.7711,,242.7711,254.4828,"[[50.5,299],[50.5,399],[50.5,500],[50.5,608],[50.5,708],[50.5,808],[50.5,908],[50.6,1008],[50.6,1108],[50.6,1208],[50.9,1308],[50.8,1408],[50.8,1508],[50.7,1608],[50.7,1708],[50.7,1808],[50.7,1908],[50.3,2008],[49.6,2108],[48.4,2208],[48,2308],[47.7,2408],[47.4,2508],[47.5,2608],[49.1,2708],[52,2808],[53.7,2908],[57.4,3008],[64.5,3108],[65.1,3208],[64.6,3308],[64.5,3408],[64.2,3508],[64.2,3610],[64.2,3716],[64.2,3816],[63.8,3916],[63.5,4016],[63.3,4116],[63.1,4216],[62.5,4316],[60.9,4416],[58.4,4516],[56.7,4619],[54.5,4720],[52.3,4820],[50.8,4920],[49.7,5020],[49.3,5120],[48.4,5220],[43.6,5320],[42.7,5420],[40.7,5520],[36.6,5620],[33,5720],[22.1,5820],[10.8,5919],[10.7,6020],[10.7,6119],[12.2,6219],[15.9,6320],[15.9,6419],[15,6520],[14.4,6619],[14.2,6728],[14.2,6828],[25.2,6928],[29.2,7028],[30.5,7128],[30.9,7228],[30.9,7328],[30.9,7428],[29.9,7528],[26.5,7628],[25.4,7728],[21.9,7828],[19.9,7928],[19.8,8028],[19.6,8128],[19.4,8228],[19.2,8328],[17.5,8428],[15.1,8528],[14,8628],[13.8,8728],[13.8,8828],[13.8,8928],[13.7,9029],[13.6,9128],[13.6,9228],[13.6,9328],[13.6,9428],[13.6,9528],[13.6,9628],[13.8,9736],[13.9,9837],[14.1,9936],[14.1,10036],[14.1,10136],[14.1,10236],[14.1,10336],[14.1,10436],[13.9,10536],[13.8,10636],[13.5,10744],[13.5,10846],[13.4,10944],[13.4,11045],[13.4,11144],[13.4,11245],[13.4,11344],[13.4,11445],[13.4,11544],[13.4,11645]]",1,0,254.483,257.8745,7.8125,2.3165,"[{""rating"":7.8125,""responseTime"":2.316500000000019}]",space,2.8667,,257.8745,Definitely yes,100,257.8751,,,[],,0,4,4,4,1,audio/Narrative7Situation4.wav,audio/Narrative8Situation4.wav,audio/Narrative5Situation4.wav,audio/Narrative6Situation4.wav,3,3,1,2,,,,,,,,,,,,,,,,,,,,,,,,,,,,,,,,,,,,,,
,,,,,,5afa19a4f856320001cf920f,2024-02-06_10h41.47.356,group3.1-3.2-social-tom,2023.2.2,Win32,119.047619,65b1b24e3a500fd6b5dc9abd,65c2532d89d54ddc0523b5dc,,,,,,,,,,,,,,,,,,,,,,,,,,,,,257.8752,262.8793,,262.8793,271.3542,"[[999,4],[999,99],[999,199],[999,302],[999,399],[48.3,503],[49.2,603],[49.7,699],[49.7,799],[49.7,899],[49.7,999],[49.7,1099],[49.7,1199],[49.7,1299],[49.7,1399],[48.1,1503],[44.6,1603],[40.6,1699],[40.5,1803],[40.5,1899],[40.5,1999],[40.5,2099],[45.1,2203],[46.3,2299],[46.4,2399],[46.5,2502],[47,2600],[47,2699],[47,2799],[50.9,2902],[51.3,2999],[51.4,3102],[51.7,3199],[52.7,3299],[52.9,3399],[52.9,3502],[52.9,3599],[52.3,3710],[52,3809],[51.2,3908],[49.8,4010],[49.5,4108],[49.5,4208],[47.6,4312],[47,4408],[47,4508],[47,4612],[47,4716],[47,4816],[47,4916],[47,5016],[47,5116],[47,5216],[47.3,5316],[47.3,5416],[47,5520],[45.7,5620],[44.9,5720],[44.3,5820],[43.4,5916],[43,6016],[43,6116],[43,6216],[43,6319],[43.1,6416],[43.3,6520],[43.5,6616],[43.7,6716],[43.8,6816],[41.5,6920],[40.2,7020],[40.2,7116],[41.3,7220],[41.6,7316],[41.8,7416],[41.8,7520],[41.5,7624],[41.4,7727],[41.4,7827],[41.5,7924],[41.6,8024],[41.6,8124],[41.6,8226],[41.6,8324],[41.6,8424]]",1,0,271.3543,276.0971,25.9375,2.8039,"[{""rating"":25.937500000000004,""responseTime"":2.8039000000059673}]",space,4.2205,,276.0972,Partially,50,276.0984,,,[],,0,5,5,5,1,audio/Narrative7Situation5.wav,audio/Narrative8Situation5.wav,audio/Narrative5Situation5.wav,audio/Narrative6Situation5.wav,5,2,5,2,,,,,,,,,,,,,,,,,,,,,,,,,,,,,,,,,,,,,,
,,,,,,5afa19a4f856320001cf920f,2024-02-06_10h41.47.356,group3.1-3.2-social-tom,2023.2.2,Win32,119.047619,65b1b24e3a500fd6b5dc9abd,65c2532d89d54ddc0523b5dc,,,,,,,,,,,,,,,,,,,,,,,,,,,,,276.0986,279.1042,,279.1042,289.0625,"[[50.3,299],[50.3,399],[50.3,499],[50.3,608],[50.3,708],[50.3,808],[50.3,908],[49.9,1008],[49.9,1108],[49.7,1208],[49.7,1308],[49.6,1408],[50.4,1508],[50.5,1608],[55.9,1708],[60.9,1808],[65.3,1908],[67.8,2008],[67.9,2108],[68.2,2208],[77.1,2308],[78.9,2408],[80.1,2508],[88.8,2608],[93.4,2708],[95,2808],[95.4,2908],[97.4,3008],[97.7,3108],[98.9,3208],[99.5,3308],[99.5,3408],[99.5,3508],[99.5,3608],[99.5,3708],[99.5,3808],[99.8,3908],[100,4008],[100,4108],[100,4208],[100,4308],[100,4408],[100,4508],[100,4608],[100,4708],[100,4808],[100,4908],[100,5008],[100,5108],[100,5208],[100,5308],[100,5408],[100,5508],[99.1,5616],[98.4,5716],[98,5816],[97.7,5916],[97.4,6016],[97.3,6116],[97.3,6216],[97.3,6316],[97.3,6416],[97.3,6516],[97.7,6616],[98.1,6716],[98.6,6816],[98.9,6916],[99.1,7016],[99.5,7116],[99.5,7216],[99.5,7316],[99.8,7416],[100,7516],[100,7627],[100,7724],[100,7824],[100,7924],[100,8024],[99.5,8125],[97.7,8224],[95.7,8324],[94.9,8424],[94.8,8524],[94.8,8633],[95.5,8733],[95.7,8833],[95.7,8933],[95.2,9033],[94.7,9133],[94.6,9233],[94.6,9333],[94.6,9433],[94.6,9533],[94.6,9634],[94.6,9733],[94.6,9833],[94.8,9933]]",1,0,289.0626,291.6957,100,1.4616,"[{""rating"":100,""responseTime"":1.4615999999940072}]",space,2.1126,,291.6957,Definitely yes,100,291.6969,,,[],,0,6,6,6,1,audio/Narrative7Situation6.wav,audio/Narrative8Situation6.wav,audio/Narrative5Situation6.wav,audio/Narrative6Situation6.wav,3,2,3,2,,,,,,,,,,,,,,,,,,,,,,,,,,,,,,,,,,,,,,
,,,,,,5afa19a4f856320001cf920f,2024-02-06_10h41.47.356,group3.1-3.2-social-tom,2023.2.2,Win32,119.047619,65b1b24e3a500fd6b5dc9abd,65c2532d89d54ddc0523b5dc,,,,,,,,,,,,,,,,,,,,,,,,,,,,,291.6971,296.704,,296.704,313.8539,"[[999,4],[999,102],[999,199],[999,300],[999,400],[999,500],[999,600],[49.8,700],[49.7,800],[49.7,899],[49.7,999],[49.7,1105],[51.9,1199],[54.8,1300],[58.7,1400],[65.5,1500],[66.6,1599],[66.6,1699],[66.6,1799],[66.6,1899],[66.4,1999],[66.4,2100],[66.4,2208],[66.4,2308],[66.3,2408],[66.3,2508],[66.3,2608],[66.3,2708],[66.3,2808],[66.3,2908],[71.3,3008],[76.3,3108],[76.3,3216],[76.3,3316],[76.3,3416],[77,3516],[80.2,3616],[82.3,3716],[88.5,3816],[90.5,3916],[90.5,4016],[90.5,4116],[90.3,4216],[90.2,4316],[90.2,4416],[90.1,4516],[89.8,4616],[89.8,4716],[89.8,4816],[89.8,4916],[89.8,5016],[88.3,5116],[87,5216],[83.1,5316],[83.1,5416],[83.1,5516],[83.1,5616],[82.2,5716],[80.6,5816],[72.4,5916],[70.8,6016],[70.8,6116],[70.8,6216],[70.8,6316],[70.8,6416],[71.3,6516],[71.3,6616],[73.4,6716],[79.8,6816],[85.6,6916],[85.8,7016],[85.8,7116],[85.8,7216],[89.4,7316],[90.2,7416],[90.2,7516],[91.3,7616],[91.3,7716],[91.3,7816],[91.3,7916],[91.6,8016],[95,8116],[95.9,8216],[96,8316],[95.9,8416],[95.9,8516],[95.9,8616],[95.9,8716],[96.1,8816],[96.7,8916],[97.7,9016],[98.8,9116],[99.1,9216],[99.1,9316],[99.3,9416],[99.3,9516],[99.3,9616],[99.3,9716],[99.3,9816],[100,9916],[100,10016],[100,10117],[100,10225],[100,10324],[100,10424],[100,10525],[100,10624],[100,10724],[100,10824],[100,10925],[100,11025],[100,11125],[100,11226],[100,11324],[100,11424],[100,11525],[100,11624],[100,11724],[100,11824],[100,11924],[100,12024],[100,12124],[100,12225],[100,12324],[100,12425],[99.6,12524],[98.4,12624],[96.3,12725],[95.6,12824],[95.6,12924],[95.6,13024],[95.6,13124],[95.9,13225],[96.5,13324],[96.6,13424],[96.6,13524],[97.3,13624],[97.3,13724],[97.3,13824],[97.3,13925],[97.3,14024],[97.6,14124],[97.7,14224],[97.8,14324],[97.9,14424],[98.5,14524],[98.8,14624],[98.8,14724],[99.1,14824],[99.7,14924],[99.7,15024],[99.7,15124],[99.7,15224],[100,15333],[100,15433],[100,15533],[100,15633],[100,15733],[100,15833],[100,15933],[100,16033],[100,16133],[100,16233],[100,16333],[100,16433],[100,16533],[100,16633],[100,16733],[100,16833],[100,16933],[100,17033],[100,17133]]",1,0,313.854,317.6622,100,2.2402,"[{""rating"":100,""responseTime"":2.2401999999880786}]",space,3.2932,,317.6622,Definitely yes,100,317.6629,,,[],,0,7,7,7,1,audio/Narrative7Situation7.wav,audio/Narrative8Situation7.wav,audio/Narrative5Situation7.wav,audio/Narrative6Situation7.wav,5,3,4,5,,,,,,,,,,,,,,,,,,,,,,,,,,,,,,,,,,,,,,
,,,,,,5afa19a4f856320001cf920f,2024-02-06_10h41.47.356,group3.1-3.2-social-tom,2023.2.2,Win32,119.047619,65b1b24e3a500fd6b5dc9abd,65c2532d89d54ddc0523b5dc,,,,,,,,,,,,,,,,,,,,,,,,,,,,,317.663,319.6659,,319.6659,329.6745,"[[48.2,99],[48.8,199],[49,299],[49.1,399],[49.2,499],[50.3,699],[51.4,799],[51.4,899],[51.3,999],[51.3,1099],[51.1,1199],[51,1299],[51,1408],[51.7,1517],[52.4,1617],[52.4,1712],[52.4,1812],[52.6,1913],[54.4,2017],[54.5,2112],[54.5,2212],[54.5,2312],[54.5,2421],[54.5,2521],[54.7,2621],[54.8,2721],[55.3,2825],[56.3,2925],[56.3,3021],[56.3,3125],[56.3,3221],[56.3,3325],[56.3,3421],[56.3,3521],[56.3,3621],[56.3,3725],[56.3,3821],[56.3,3921],[57.7,4025],[58.7,4125],[58.7,4221],[58.7,4321],[58.8,4425],[58.8,4521],[58.8,4621],[58.8,4721],[60.4,4825],[64,4925],[67.7,5021],[72.3,5125],[84.2,5225],[84.7,5321],[84.9,5429],[86.3,5533],[86.3,5629],[86.3,5733],[86.3,5829],[90.5,5933],[91.1,6029],[91.1,6129],[92.4,6233],[92.8,6329],[92.8,6437],[92.8,6537],[92.8,6638],[96.3,6740],[98.3,6839],[98.4,6937],[98.4,7037],[97.3,7137],[96.7,7238],[96.6,7340],[96.6,7437],[96.6,7537],[97.1,7637],[97.3,7737],[97.3,7837],[98.4,7940],[98.8,8037],[98.8,8137],[99.1,8242],[99.4,8337],[99.5,8442],[100,8542],[100,8637],[100,8737],[100,8837],[100,8937],[100,9037],[100,9141],[100,9238],[100,9337],[100,9439],[100,9541],[99.8,9641],[99.3,9741],[98.6,9837],[98.1,9941]]",1,0,329.6745,333.7871,100,2.8242,"[{""rating"":100,""responseTime"":2.824199999988082}]",space,3.5814,,333.7872,Definitely yes,100,333.7878,,,[],,0,8,8,8,1,audio/Narrative7Situation8.wav,audio/Narrative8Situation8.wav,audio/Narrative5Situation8.wav,audio/Narrative6Situation8.wav,2,3,3,5,,,,,,,,,,,,,,,,,,,,,,,,,,,,,,,,,,,,,,
,,,,,,5afa19a4f856320001cf920f,2024-02-06_10h41.47.356,group3.1-3.2-social-tom,2023.2.2,Win32,119.047619,65b1b24e3a500fd6b5dc9abd,65c2532d89d54ddc0523b5dc,,,,,,,,,,,,,,,,,,,,,,,,,,,,,333.7879,335.7954,,335.7954,344.4078,"[[49.9,604],[49.2,699],[49.2,799],[49.1,900],[49.1,1000],[49.1,1104],[49.2,1203],[49.4,1304],[50.4,1403],[61.3,1504],[75.8,1604],[88.6,1710],[94,1810],[100,1910],[100,2008],[100,2108],[100,2208],[100,2310],[99.9,2416],[99.8,2516],[100,2616],[100,2718],[100,2816],[100,2916],[100,3016],[100,3118],[100,3218],[99.8,3318],[99.4,3418],[99.1,3516],[99,3616],[98.6,3716],[98.4,3816],[98.4,3920],[98.2,4016],[98.2,4116],[98.2,4216],[98.2,4316],[98.2,4424],[98.2,4528],[98.2,4629],[98.2,4724],[98,4828],[98,4928],[97.7,5028],[97.7,5124],[97.7,5225],[97.6,5324],[96.9,5437],[95.8,5537],[95.5,5633],[96.6,5737],[98.3,5837],[99.8,5937],[99.8,6033],[99.8,6133],[99.8,6233],[99.8,6333],[99.8,6441],[99.6,6541],[99.5,6641],[99.3,6741],[99.3,6841],[99,6941],[98.8,7041],[98.6,7145],[98.4,7241],[98.3,7345],[98.1,7442],[98,7545],[97.9,7645],[97.9,7741],[97.9,7841],[97.9,7945],[97.9,8041],[97.9,8141],[97.9,8241],[98,8341],[98.4,8441],[98.4,8541]]",1,0,344.4078,347.9403,100,1.2314,"[{""rating"":100,""responseTime"":1.2314000000059764}]",space,3.0135,,347.9404,Partially,50,347.9415,,,[],,0,9,9,9,1,audio/Narrative7Situation9.wav,audio/Narrative8Situation9.wav,audio/Narrative5Situation9.wav,audio/Narrative6Situation9.wav,2,3,3,4,,,,,,,,,,,,,,,,,,,,,,,,,,,,,,,,,,,,,,
,,,,,,5afa19a4f856320001cf920f,2024-02-06_10h41.47.356,group3.1-3.2-social-tom,2023.2.2,Win32,119.047619,65b1b24e3a500fd6b5dc9abd,65c2532d89d54ddc0523b5dc,,,,,,,,,,,,,,,,,,,,,,,,,,,,,347.9417,352.9492,,352.9492,368.8658,"[[999,4],[999,99],[999,196],[999,295],[999,398],[999,498],[999,596],[999,696],[999,796],[999,896],[999,997],[999,1098],[54.5,1198],[52.8,1298],[51.8,1396],[51.9,1498],[52.3,1598],[52.1,1696],[51.8,1798],[51.3,1896],[51.2,1996],[51.2,2096],[50.9,2200],[51.3,2300],[51.8,2397],[52.2,2500],[52.2,2596],[51.3,2698],[50.9,2796],[50.9,2900],[50.5,2996],[49.8,3100],[49.1,3199],[49,3296],[49.1,3396],[54.1,3500],[56.7,3600],[57.5,3700],[59.5,3800],[60.3,3898],[62.6,3998],[63.5,4098],[63.8,4196],[63.8,4295],[63.7,4398],[63.9,4496],[64.2,4596],[65.5,4698],[71,4798],[71.3,4896],[71.8,4998],[72.1,5098],[73.6,5198],[76.3,5295],[76.1,5397],[75.5,5498],[74.5,5596],[74.5,5696],[74.5,5800],[74.5,5896],[74.5,5996],[74.3,6096],[74.3,6195],[74.2,6296],[74.2,6395],[74.2,6496],[74.2,6599],[74.2,6695],[74.2,6795],[74.2,6896],[74.1,6996],[73.9,7096],[73.3,7200],[72.6,7300],[72.3,7400],[71.9,7496],[71.6,7600],[70.6,7696],[68.4,7800],[67.7,7895],[65.9,7999],[64.5,8098],[63.4,8198],[63.4,8295],[63.4,8396],[63.5,8496],[63.5,8595],[61.5,8698],[60.5,8795],[60.5,8895],[61.1,8998],[64.8,9096],[64.5,9198],[61.6,9296],[60.9,9396],[74.9,9498],[80.2,9598],[89,9698],[92.7,9798],[94.5,9896],[98.8,9996],[99.5,10098],[99.5,10196],[99.8,10299],[100,10399],[100,10496],[100,10596],[100,10700],[100,10800],[100,10900],[99.8,10995],[99.8,11096],[99.8,11195],[99.8,11299],[99.8,11396],[99.8,11499],[100,11595],[100,11699],[100,11795],[100,11895],[99.3,11999],[98.6,12100],[98.4,12196],[98.4,12298],[98.4,12399],[98.4,12495],[98,12600],[98.1,12696],[98.3,12795],[99,12899],[99.7,12995],[99.8,13096],[100,13195],[100,13295],[99.8,13400],[99.8,13496],[99.7,13599],[99.7,13695],[99.7,13795],[99.9,13895],[100,14000],[100,14098],[100,14195],[100,14299],[100,14395],[100,14495],[100,14596],[100,14695],[100,14795],[100,14895],[99.9,14999],[99.9,15100],[99.9,15195],[99.9,15295],[99.9,15399],[99.5,15500],[99.1,15600],[99.1,15695],[99.1,15795],[99.1,15899]]",1,0,368.8658,371.3951,98.359375,0.9181,"[{""rating"":98.359375,""responseTime"":0.9181000000237987}]",space,2.0116,,371.3952,Not at all,0,371.3963,,,[],,0,10,10,10,1,audio/Narrative8Situation1.wav,audio/Narrative7Situation1.wav,audio/Narrative6Situation1.wav,audio/Narrative5Situation1.wav,5,2,2,5,,,,,,,,,,,,,,,,,,,,,,,,,,,,,,,,,,,,,,
,,,,,,5afa19a4f856320001cf920f,2024-02-06_10h41.47.356,group3.1-3.2-social-tom,2023.2.2,Win32,119.047619,65b1b24e3a500fd6b5dc9abd,65c2532d89d54ddc0523b5dc,,,,,,,,,,,,,,,,,,,,,,,,,,,,,371.3965,374.4034,,374.4034,384.4992,"[[999,0],[999,100],[999,199],[999,302],[999,402],[999,500],[999,600],[50.7,704],[50.7,800],[51.6,903],[51.6,1000],[51.6,1108],[51.3,1208],[51.2,1308],[51.2,1408],[50.9,1508],[50.6,1608],[50.5,1708],[50.3,1812],[50,1912],[49.8,2012],[49.7,2108],[49.6,2208],[49.6,2308],[49.6,2411],[49.6,2512],[49.6,2608],[49.6,2712],[49.1,2812],[48.8,2910],[48.3,3008],[48.1,3108],[45.7,3212],[43.9,3308],[43,3412],[41.4,3512],[37.6,3612],[36.6,3718],[33,3819],[33,3916],[33,4016],[32.1,4118],[32,4216],[32,4316],[32,4416],[32.7,4518],[33.4,4616],[33.4,4716],[32.5,4818],[31,4919],[29.1,5019],[27,5118],[22.6,5218],[21.5,5318],[19.7,5420],[18.8,5520],[18.6,5616],[18.4,5720],[18.3,5816],[18.2,5916],[18.4,6016],[18.4,6120],[18.7,6216],[18.7,6320],[18.8,6416],[18.9,6516],[18.9,6616],[18.1,6720],[17.7,6820],[17.3,6916],[16.6,7016],[16,7116],[15.9,7216],[15.9,7316],[16.3,7416],[16.4,7520],[17.2,7620],[17.8,7716],[18.5,7820],[18.5,7920],[18.2,8018],[16.8,8121],[16.6,8218],[16.6,8316],[16.6,8416],[17.1,8518],[17.8,8618],[18,8716],[18.9,8818],[18.9,8916],[18.9,9016],[19,9120],[19,9218],[19.1,9316],[21,9419],[27.7,9518],[45.1,9618],[65.3,9718],[59.5,9820],[48.3,9920],[43.9,10016]]",1,0,384.4993,388.2074,40.9375,1.3241,"[{""rating"":40.9375,""responseTime"":1.3241000000238614}]",space,3.1924,,388.2075,Partially,50,388.2086,,,[],,0,11,11,11,1,audio/Narrative8Situation2.wav,audio/Narrative7Situation2.wav,audio/Narrative6Situation2.wav,audio/Narrative5Situation2.wav,3,3,3,3,,,,,,,,,,,,,,,,,,,,,,,,,,,,,,,,,,,,,,
,,,,,,5afa19a4f856320001cf920f,2024-02-06_10h41.47.356,group3.1-3.2-social-tom,2023.2.2,Win32,119.047619,65b1b24e3a500fd6b5dc9abd,65c2532d89d54ddc0523b5dc,,,,,,,,,,,,,,,,,,,,,,,,,,,,,388.2087,392.2156,,392.2156,414.5822,"[[999,4],[999,95],[999,195],[999,296],[51.2,399],[51.3,500],[51.3,599],[51.2,696],[50.6,796],[50.3,895],[50.2,996],[50.2,1095],[50.2,1195],[50.2,1295],[50.2,1395],[50.8,1500],[50.9,1595],[50.9,1695],[50.9,1796],[50.9,1895],[50.9,1995],[50.8,2095],[50.2,2199],[49,2299],[47.9,2396],[47.5,2498],[47.3,2595],[47.3,2695],[49,2798],[55.9,2898],[56.3,2995],[59.1,3098],[65.2,3198],[65.3,3298],[65.9,3398],[71.1,3498],[71.7,3595],[71.7,3698],[73.2,3798],[75.7,3895],[82.5,3998],[83.6,4098],[85.2,4200],[87.1,4300],[90.8,4408],[92.7,4504],[92.7,4604],[92.7,4704],[95,4808],[95.3,4904],[95.9,5008],[96.3,5108],[96.3,5204],[95.9,5308],[95.3,5416],[95.1,5516],[94.9,5612],[94.2,5716],[92.7,5814],[92.7,5912],[92.7,6012],[94.7,6116],[95.1,6214],[95.1,6316],[95.9,6424],[96.4,6524],[96.4,6620],[96.4,6720],[96.4,6825],[96.8,6924],[97,7022],[97,7129],[97,7229],[97,7329],[97.1,7429],[97.1,7529],[97.1,7629],[97.1,7729],[98,7831],[99.1,7931],[100,8031],[100,8131],[100,8229],[100,8331],[100,8429],[100,8531],[100,8631],[100,8731],[99.8,8829],[99.5,8933],[99.1,9031],[98.9,9133],[98.9,9229],[99.3,9333],[99.7,9433],[100,9529],[100,9629],[100,9729],[99.7,9833],[98.9,9933],[98.8,10029],[98.8,10129],[99.5,10229],[100,10333],[100,10433],[100,10529],[100,10629],[100,10729],[100,10829],[100,10929],[100,11029],[100,11129],[100,11233],[100,11329],[100,11429],[100,11529],[100,11629],[100,11733],[100,11833],[100,11933],[99.9,12029],[99.8,12131],[99.1,12231],[98.5,12329],[98.4,12429],[98.4,12529],[98.4,12629],[98.4,12729],[97.1,12831],[97,12929],[97.7,13031],[98.6,13131],[99.3,13231],[100,13331],[100,13429],[100,13529],[100,13631],[100,13729],[100,13837],[100,13941],[100,14037],[100,14141],[100,14237],[100,14341],[100,14438],[100,14537],[100,14637],[99.9,14737],[99.5,14841],[99,14941],[99,15037],[99.9,15141],[100,15237],[100,15337],[100,15437],[100,15545],[100,15645],[100,15745],[100,15845],[100,15945],[100,16045],[100,16149],[100,16245],[100,16349],[100,16445],[100,16556],[100,16654],[100,16754],[99.8,16854],[99.1,16958],[99.1,17054],[98.9,17154],[98.4,17254],[97.7,17354],[97.6,17454],[97.7,17554],[98.8,17658],[99.1,17754],[99.2,17854],[99.5,17956],[99.8,18054],[99.8,18154],[99.8,18256],[99.8,18354],[99.8,18454],[99.7,18556],[99.1,18656],[98.6,18755],[98.6,18854],[98.8,18954],[99.2,19056],[99.6,19156],[99.9,19256],[100,19356],[100,19454],[100,19554],[100,19654],[100,19754],[100,19858],[100,19958],[100,20054],[100,20158],[100,20254],[100,20358],[100,20458],[100,20566],[99.8,20666],[99.2,20766],[99.1,20862],[99.1,20962],[99.2,21062],[99.7,21166],[99.8,21266],[100,21362],[100,21462],[100,21570],[100,21674],[100,21770],[100,21870],[100,21974],[100,22074],[100,22170],[100,22274]]",1,0,414.5822,417.1804,100,1.7665,"[{""rating"":100,""responseTime"":1.7665000000000077}]",space,2.0752,,417.1804,Not at all,0,417.1816,,,[],,0,12,12,12,1,audio/Narrative8Situation3.wav,audio/Narrative7Situation3.wav,audio/Narrative6Situation3.wav,audio/Narrative5Situation3.wav,4,8,5,3,,,,,,,,,,,,,,,,,,,,,,,,,,,,,,,,,,,,,,
,,,,,,5afa19a4f856320001cf920f,2024-02-06_10h41.47.356,group3.1-3.2-social-tom,2023.2.2,Win32,119.047619,65b1b24e3a500fd6b5dc9abd,65c2532d89d54ddc0523b5dc,,,,,,,,,,,,,,,,,,,,,,,,,,,,,417.1818,420.1897,,420.1897,434.3569,"[[999,0],[999,96],[999,196],[999,299],[51.1,399],[50.8,499],[50.6,598],[50.6,696],[50.2,799],[49.8,896],[49.8,996],[49.5,1098],[49.1,1196],[48.7,1296],[48.7,1396],[48.7,1496],[48.2,1598],[48,1705],[48,1807],[49,1907],[49.5,2007],[49.5,2105],[49.5,2205],[49.5,2305],[48.7,2409],[48.3,2509],[49.6,2610],[56,2709],[58.7,2809],[61,2909],[64.2,3009],[67.3,3105],[70.1,3209],[79.4,3309],[86.3,3408],[90.5,3515],[93.4,3617],[97.3,3715],[99.2,3813],[99.2,3913],[100,4015],[100,4113],[100,4213],[100,4313],[100,4413],[100,4515],[100,4613],[100,4713],[99,4815],[98.8,4913],[98.8,5015],[98.8,5113],[98.8,5213],[98.8,5313],[98.8,5413],[98.3,5517],[97.1,5617],[96.2,5717],[96,5813],[95.7,5917],[94.8,6017],[94.2,6113],[94,6213],[94,6315],[94.2,6417],[94.3,6513],[94.7,6617],[95.2,6713],[95.4,6813],[95.4,6914],[94.2,7017],[93.3,7117],[91.8,7217],[89.8,7317],[89.8,7413],[89.8,7513],[89.8,7613],[93.8,7715],[94.3,7815],[94,7913],[94,8013],[94.9,8115],[93.8,8213],[93.8,8313],[93.8,8413],[93.8,8513],[93.8,8613],[95.9,8713],[95.9,8813],[95.6,8913],[95.6,9013],[95.3,9115],[94.5,9213],[93.8,9317],[93.2,9417],[92.7,9517],[92.6,9613],[92.7,9721],[93.2,9821],[93.2,9925],[93.2,10021],[93.3,10125],[93.8,10221],[94.3,10321],[94.3,10421],[94.3,10521],[94.1,10625],[93.7,10725],[93.7,10821],[94.7,10925],[95.1,11021],[95.3,11125],[95.4,11221],[95.9,11325],[96.6,11421],[96.8,11521],[96.9,11621],[100,11734],[100,11830],[100,11929],[100,12033],[100,12132],[100,12233],[100,12333],[100,12430],[100,12530],[100,12629],[100,12730],[100,12834],[100,12930],[100,13029],[100,13129],[100,13230],[100,13330],[100,13430],[100,13530],[100,13634],[100,13730],[100,13830],[100,13929],[100,14029],[100,14129]]",1,0,434.357,438.0302,100,2.4333,"[{""rating"":100,""responseTime"":1.9499000000059823},{""rating"":100,""responseTime"":2.4333000000119114}]",space,3.1573,,438.0302,Definitely yes,100,438.0312,,,[],,0,13,13,13,1,audio/Narrative8Situation4.wav,audio/Narrative7Situation4.wav,audio/Narrative6Situation4.wav,audio/Narrative5Situation4.wav,3,3,2,1,,,,,,,,,,,,,,,,,,,,,,,,,,,,,,,,,,,,,,
,,,,,,5afa19a4f856320001cf920f,2024-02-06_10h41.47.356,group3.1-3.2-social-tom,2023.2.2,Win32,119.047619,65b1b24e3a500fd6b5dc9abd,65c2532d89d54ddc0523b5dc,,,,,,,,,,,,,,,,,,,,,,,,,,,,,438.0314,440.0363,,440.0363,448.2613,"[[999,0],[73.4,103],[73.8,199],[74,304],[74,403],[73.1,504],[67.9,803],[71.6,903],[77.7,1218],[81.4,1318],[76.6,1418],[90.2,1718],[99.3,2119],[97.3,2216],[97.3,2316],[99.5,2418],[100,2518],[100,2616],[100,2718],[100,2816],[100,2916],[100,3016],[100,3120],[100,3220],[99.9,3316],[99.8,3420],[99.5,3516],[99.2,3616],[98.7,3720],[98.3,3820],[98,3916],[97.6,4016],[97,4120],[96.8,4216],[96.8,4316],[96.8,4416],[96.8,4520],[96.4,4620],[96.1,4716],[95.8,4819],[95.8,4916],[95.8,5024],[95.8,5128],[95.8,5225],[95.7,5328],[95.8,5428],[97,5524],[96.7,5628],[96.3,5727],[96.3,5824],[95.8,5928],[96.3,6045],[97.6,6145],[99.3,6245],[100,6346],[100,6452],[100,6549],[100,6651],[100,6750],[100,6850],[100,6950],[100,7058],[100,7158],[100,7258],[100,7358],[100,7459],[100,7558],[100,7658],[100,7760],[100,7858],[100,7958],[100,8060],[100,8162]]",1,0,448.2614,450.5529,100,1.1204,"[{""rating"":100,""responseTime"":1.1203999999761436}]",space,1.7687,,450.553,Partially,50,450.554,,,[],,0,14,14,14,1,audio/Narrative8Situation5.wav,audio/Narrative7Situation5.wav,audio/Narrative6Situation5.wav,audio/Narrative5Situation5.wav,2,5,2,5,,,,,,,,,,,,,,,,,,,,,,,,,,,,,,,,,,,,,,
,,,,,,5afa19a4f856320001cf920f,2024-02-06_10h41.47.356,group3.1-3.2-social-tom,2023.2.2,Win32,119.047619,65b1b24e3a500fd6b5dc9abd,65c2532d89d54ddc0523b5dc,,,,,,,,,,,,,,,,,,,,,,,,,,,,,450.5542,452.5551,,452.5551,459.0236,"[[63.7,100],[61.7,199],[64,299],[61,800],[59.1,897],[57.9,1000],[54.5,1100],[53,1200],[52.9,1301],[52.9,1401],[53.1,1498],[53.8,1610],[60.2,1710],[69,1810],[78.6,1910],[91.2,2010],[100,2110],[100,2206],[99.1,2308],[99.1,2406],[99.6,2508],[99.8,2614],[100,2716],[100,2816],[99.2,2916],[99.4,3016],[99.8,3116],[99.8,3215],[98.9,3316],[98.7,3416],[98.3,3518],[98.3,3622],[98.3,3722],[98.4,3825],[98.4,3922],[98.4,4022],[98.1,4122],[97.9,4222],[97.9,4322],[97.9,4422],[98,4530],[98,4622],[98,4726],[98,4826],[97.8,4926],[97.7,5022],[97.4,5122],[97.4,5222],[98.1,5326],[99.1,5422],[99.3,5522],[99.3,5631],[99.3,5731],[99.2,5831],[99,5935],[98.4,6034],[98.1,6130],[98.1,6235],[98.3,6331],[99,6434]]",1,0,459.0236,460.9195,100,1.1732,"[{""rating"":100,""responseTime"":1.1732000000178573}]",space,1.3711,,460.9195,Not at all,0,460.9205,,,[],,0,15,15,15,1,audio/Narrative8Situation6.wav,audio/Narrative7Situation6.wav,audio/Narrative6Situation6.wav,audio/Narrative5Situation6.wav,2,3,2,3,,,,,,,,,,,,,,,,,,,,,,,,,,,,,,,,,,,,,,
,,,,,,5afa19a4f856320001cf920f,2024-02-06_10h41.47.356,group3.1-3.2-social-tom,2023.2.2,Win32,119.047619,65b1b24e3a500fd6b5dc9abd,65c2532d89d54ddc0523b5dc,,,,,,,,,,,,,,,,,,,,,,,,,,,,,460.9207,463.9278,,463.9279,476.0028,"[[999,4],[999,99],[999,203],[999,299],[999,399],[999,503],[999,599],[999,699],[999,799],[999,899],[999,999],[999,1103],[999,1203],[999,1304],[999,1403],[61.1,1503],[58,1604],[56.4,1710],[55.3,1810],[52.2,1910],[52.2,2008],[52.1,2110],[51.2,2210],[51.2,2308],[51.3,2408],[52.9,2510],[54.7,2610],[54.8,2708],[58.3,2810],[63.4,2910],[70.4,3010],[72.8,3110],[74,3210],[80.9,3310],[87.7,3408],[87.2,3512],[86.3,3612],[85.8,3708],[85.9,3808],[88.7,3912],[90.1,4012],[91.3,4112],[91.5,4208],[91.2,4312],[91,4408],[91,4508],[91.1,4608],[91.2,4708],[91.2,4808],[91.3,4912],[91.4,5008],[91.4,5108],[91.4,5212],[90.7,5312],[89.1,5412],[89.1,5508],[89.1,5608],[89.2,5708],[90.2,5810],[90.5,5908],[90.5,6008],[90.4,6108],[90.4,6208],[90.4,6316],[90.5,6416],[90.7,6516],[91.6,6616],[92.3,6716],[93.4,6816],[97.2,6916],[100,7016],[100,7116],[100,7216],[99.4,7324],[98.8,7424],[97.9,7524],[97.7,7624],[97.8,7724],[97.9,7824],[98.8,7924],[100,8024],[100,8124],[100,8224],[100,8324],[100,8424],[100,8524],[100,8624],[100,8724],[100,8824],[99.5,8924],[99.5,9024],[99.5,9125],[99.2,9224],[99.1,9324],[99,9424],[98.8,9524],[98.8,9624],[98.7,9724],[98.5,9824],[97.9,9924],[97.4,10024],[96.9,10124],[96.5,10224],[96.5,10333],[96.5,10433],[96.6,10533],[96.9,10633],[97,10733],[97.3,10833],[97.9,10933],[98,11033],[98,11133],[98,11233],[98,11341],[98,11441],[98,11541],[98,11641],[98,11741],[98,11841],[98,11941],[98,12041]]",1,0,476.0028,478.361,100,1.7106,"[{""rating"":100,""responseTime"":1.7106000000238168}]",space,1.8372,,478.361,Definitely yes,100,478.3623,,,[],,0,16,16,16,1,audio/Narrative8Situation7.wav,audio/Narrative7Situation7.wav,audio/Narrative6Situation7.wav,audio/Narrative5Situation7.wav,3,5,5,4,,,,,,,,,,,,,,,,,,,,,,,,,,,,,,,,,,,,,,
,,,,,,5afa19a4f856320001cf920f,2024-02-06_10h41.47.356,group3.1-3.2-social-tom,2023.2.2,Win32,119.047619,65b1b24e3a500fd6b5dc9abd,65c2532d89d54ddc0523b5dc,,,,,,,,,,,,,,,,,,,,,,,,,,,,,478.3624,481.3694,,481.3694,494.211,"[[999,4],[999,99],[81.6,199],[81.6,299],[81.6,399],[81.6,499],[76.9,600],[64.6,700],[64.4,799],[66.1,900],[72.8,1000],[78.5,1100],[82.3,1199],[83,1300],[84,1400],[84.1,1499],[83.6,1600],[83,1699],[82.7,1800],[82.7,1899],[82.3,2000],[81.8,2100],[80.8,2199],[80.8,2299],[80.5,2399],[79.5,2500],[79.5,2599],[79.3,2699],[79.2,2799],[79.1,2899],[79,3008],[78.9,3108],[78.9,3208],[78.6,3308],[78.6,3408],[78.6,3508],[78.8,3608],[80,3708],[83,3808],[83.4,3908],[88,4016],[93,4116],[93.3,4216],[92.7,4316],[90.9,4416],[76.4,4516],[70.3,4816],[70.3,4916],[68.3,5024],[64.7,5125],[60.2,5224],[60.1,5324],[60,5424],[61.8,5525],[67.7,5625],[77.1,5725],[92,5824],[95.5,5924],[96.6,6025],[98.8,6124],[98.8,6224],[98.6,6324],[98.4,6424],[99.1,6524],[99.7,6625],[99.9,6724],[100,6824],[99.8,6924],[99.1,7025],[98.8,7124],[98.8,7224],[98.9,7324],[99.8,7424],[99.8,7524],[99.2,7624],[99.4,7724],[100,7824],[100,7924],[100,8033],[100,8133],[100,8233],[98.8,8333],[98,8433],[98,8533],[98,8633],[98.7,8733],[99.4,8833],[99.4,8933],[99.5,9033],[99.8,9133],[100,9233],[100,9333],[100,9433],[100,9533],[100,9633],[100,9733],[100,9833],[100,9933],[100,10033],[100,10133],[100,10233],[100,10333],[100,10433],[100,10533],[100,10633],[100,10733],[100,10833],[100,10933],[100,11036],[100,11133],[100,11233],[100,11333],[100,11433],[100,11533],[100,11633],[100,11733],[100,11833],[100,11933],[99.7,12033],[99.2,12133],[99.1,12233],[99.1,12333],[99.1,12433],[99.1,12533],[99.1,12633],[99.1,12733],[99.1,12833]]",1,0,494.2112,497.2443,99.921875,1.0019,"[{""rating"":99.921875,""responseTime"":1.0019000000059464}]",space,2.512,,497.2443,Definitely yes,100,497.245,,,[],,0,17,17,17,1,audio/Narrative8Situation8.wav,audio/Narrative7Situation8.wav,audio/Narrative6Situation8.wav,audio/Narrative5Situation8.wav,3,2,5,3,,,,,,,,,,,,,,,,,,,,,,,,,,,,,,,,,,,,,,
,,,,,,5afa19a4f856320001cf920f,2024-02-06_10h41.47.356,group3.1-3.2-social-tom,2023.2.2,Win32,119.047619,65b1b24e3a500fd6b5dc9abd,65c2532d89d54ddc0523b5dc,,,,,,,,,,,,,,,,,,,,,,,,,,,,,497.2451,500.2525,,500.2525,511.5481,"[[91.6,500],[56.1,600],[55.3,700],[54.5,800],[53.7,900],[50.9,1000],[50.5,1100],[50.7,1200],[54,1308],[63.1,1408],[64.9,1508],[70.9,1608],[71.3,1708],[71.3,1808],[69.4,1908],[69.4,2008],[74.1,2108],[74.1,2208],[74.5,2308],[74.5,2408],[74.5,2508],[74.5,2608],[74.8,2712],[76.2,2812],[81.4,2912],[81.8,3010],[81.9,3108],[81.9,3208],[84.3,3320],[84.5,3416],[84.3,3520],[83.7,3620],[82.9,3720],[82.3,3820],[79.1,3920],[73.8,4020],[73.8,4120],[75,4220],[76.8,4316],[78.4,4420],[78.6,4520],[86.2,4620],[87,4716],[87.2,4820],[87,4916],[87,5016],[88,5120],[89.1,5216],[89.1,5316],[90.5,5420],[92.3,5519],[92.3,5616],[92,5716],[92,5816],[91.9,5916],[91.6,6016],[91.4,6116],[91.3,6218],[91.3,6321],[93.7,6419],[100,6516],[99.6,6618],[98.4,6718],[96.4,6818],[95.7,6918],[94.9,7019],[94.1,7116],[94.1,7216],[94,7332],[93.4,7429],[93.4,7525],[94.1,7629],[95.4,7728],[96.6,7829],[97.2,7929],[97.5,8028],[97.8,8124],[97.9,8229],[98,8337],[98.4,8433],[98.8,8533],[98.8,8633],[98.8,8737],[98.8,8833],[98.9,8933],[99,9033],[99,9137],[99,9233],[99.6,9333],[99.6,9433],[99.6,9533],[99.5,9633],[99.4,9733],[99.2,9833],[99.2,9933],[99.6,10037],[99.8,10133],[99.8,10237],[99.8,10333],[99.8,10437],[99.8,10533],[99.8,10633],[99.9,10733],[100,10836],[100,10933],[100,11033],[100,11133],[99.5,11233]]",1,0,511.5481,514.4565,100,1.0433,"[{""rating"":100,""responseTime"":1.0433000000118682}]",space,2.3925,,514.4566,Partially,50,514.4577,,,[],,0,18,18,18,1,audio/Narrative8Situation9.wav,audio/Narrative7Situation9.wav,audio/Narrative6Situation9.wav,audio/Narrative5Situation9.wav,3,2,4,3,,,,,,,,,,,,,,,,,,,,,,,,,,,,,,,,,,,,,,
,,,,,,5afa19a4f856320001cf920f,2024-02-06_10h41.47.356,group3.1-3.2-social-tom,2023.2.2,Win32,119.047619,65b1b24e3a500fd6b5dc9abd,65c2532d89d54ddc0523b5dc,,,,,,,,,,,,,,,,,,,,,,,,,,,517.0902,519.6691,519.6787,519.6788,,519.6788,549.4106,"[[999,0],[999,90],[999,190],[999,290],[999,394],[999,490],[999,594],[999,694],[56,794],[56,890],[54.7,994],[53.1,1092],[50.3,1200],[48.9,1300],[48.5,1398],[48.8,1498],[49.8,1600],[51,1700],[51.3,1798],[50.5,1900],[49.4,2000],[49.4,2098],[49.4,2198],[49.5,2300],[49.5,2400],[50.1,2500],[51.3,2600],[53,2700],[55.2,2800],[55.2,2898],[55.1,2998],[54.7,3098],[54.5,3198],[54.7,3302],[55.8,3402],[56.2,3498],[56.3,3602],[56.3,3698],[56.3,3798],[56,3898],[56,4006],[56.6,4110],[56.9,4206],[57,4306],[56.9,4406],[56.6,4510],[56.5,4610],[56.3,4710],[56,4806],[57.5,4910],[59.5,5019],[59.5,5118],[59.9,5219],[60.5,5319],[60.5,5415],[61.2,5519],[61.3,5615],[61.3,5715],[61.3,5815],[61.2,5919],[60.9,6023],[60.7,6123],[60.5,6227],[60.2,6325],[60.1,6423],[60.1,6523],[60.1,6623],[60.1,6723],[60.1,6823],[58.9,6927],[58.1,7023],[57.5,7127],[57.3,7223],[58.1,7327],[59.2,7423],[59.2,7525],[59.2,7625],[59.2,7725],[59.2,7824],[59.2,7923],[59.2,8023],[59.2,8123],[59.2,8225],[59.2,8323],[59.2,8423],[59.2,8523],[59.2,8623],[59.2,8723],[59.2,8823],[59.4,8923],[59.4,9023],[60.1,9123],[60.1,9223],[60.1,9323],[60.2,9423],[61.1,9527],[62.3,9627],[65.5,9727],[72.5,9827],[80.2,9927],[80.9,10028],[80.9,10123],[81.8,10223],[81.8,10323],[82.1,10427],[85.3,10527],[86.4,10627],[90.7,10733],[91.1,10833],[93.8,10934],[93.8,11035],[93.8,11131],[93.9,11231],[97.6,11334],[97.4,11432],[96.7,11534],[96.4,11633],[96.4,11731],[97.5,11831],[97.5,11931],[97.3,12033],[97.2,12140],[96.9,12240],[96.9,12340],[96.9,12440],[96.9,12542],[96.9,12640],[96.4,12744],[95.6,12844],[94.6,12940],[94.6,13041],[94.7,13148],[96,13248],[96,13352],[96,13448],[96,13548],[96.6,13648],[97.6,13752],[97.7,13848],[97.5,13952],[97.3,14048],[97.3,14156],[97.9,14256],[98.6,14356],[98.6,14459],[98.6,14560],[98.6,14656],[98.6,14756],[98.6,14856],[98.6,14956],[99.1,15061],[99.5,15156],[99.5,15256],[99.5,15356],[99.5,15456],[99.5,15556],[99.5,15659],[99.8,15756],[99.8,15856],[99.8,15956],[99.6,16057],[98.9,16160],[97.7,16260],[96.3,16369],[95.2,16465],[94.1,16569],[93.1,16669],[92.4,16767],[92,16865],[91.9,16965],[91.9,17065],[91.9,17165],[92.7,17267],[92.9,17367],[93,17467],[93.2,17567],[94.2,17667],[94.7,17765],[94.7,17865],[92.7,17967],[85.7,18067],[83.4,18165],[82.3,18265],[81.7,18365],[79.8,18465],[78.4,18565],[77.7,18665],[77.7,18765],[77.7,18865],[75.9,18965],[73.9,19065],[73.6,19173],[73.6,19273],[73.8,19373],[73.8,19473],[73.8,19573],[74.5,19673],[74.8,19773],[74.8,19873],[74.8,19973],[74.6,20073],[74.6,20181],[74.6,20281],[74.6,20381],[74.6,20481],[74.6,20581],[74.6,20681],[74.6,20781],[74.5,20881],[74.1,20981],[73.7,21081],[73.3,21181],[72.6,21281],[71.6,21381],[70.5,21481],[70.1,21581],[69.9,21681],[69.9,21781],[69.9,21881],[69.9,21981],[69.1,22081],[68.4,22190],[67.6,22290],[67.2,22390],[67.2,22490],[66.5,22590],[66.1,22690],[65.5,22790],[65,22890],[64.8,22990],[64.1,23090],[63.3,23190],[62.9,23290],[62.5,23390],[62.3,23490],[62.3,23590],[62.7,23690],[62.9,23790],[62.9,23890],[64,23990],[67.1,24090],[71,24190],[71.2,24290],[72.3,24390],[74.4,24490],[76,24590],[76.6,24690],[77.4,24790],[78.5,24890],[78.5,24990],[78.5,25090],[79.3,25198],[80.1,25298],[80.1,25398],[80.1,25498],[79.9,25598],[77.8,25698],[74.9,25798],[71.4,25898],[70.6,25998],[70.6,26098],[70,26206],[68,26306],[62.8,26406],[61.7,26506],[56.3,26606],[53.6,26706],[52.3,26806],[52.3,26906],[52.3,27006],[52,27106],[50.9,27206],[50.2,27306],[48.9,27406],[48,27506],[47,27606],[45.8,27706],[45.8,27806],[45.9,27906],[45.5,28006],[43.4,28106],[42.3,28214],[42.2,28314],[43.4,28415],[45.7,28515],[47.5,28615],[48.1,28715],[49,28815],[49.1,28915],[49.1,29015],[49.1,29115],[49.1,29214],[49.9,29315],[52,29415],[52.1,29515],[52.1,29615],[52.2,29714]]",1,0,549.4107,549.4116,,,[],,,,549.4116,Not at all,0,549.4124,,,[],,0,0,0,0,1,audio/Narrative13Situation2.wav,audio/Narrative13Situation2.wav,audio/Narrative13Situation2.wav,audio/Narrative13Situation2.wav,2,2,2,2,,,,,514.4583,517.09,space,2.1257,,,,,,,,,,,,,,,,,,,,,,,,,,,,,,
,,,,,,5afa19a4f856320001cf920f,2024-02-06_10h41.47.356,group3.1-3.2-social-tom,2023.2.2,Win32,119.047619,65b1b24e3a500fd6b5dc9abd,65c2532d89d54ddc0523b5dc,,,,,,,,,,,,,,,,,,,,,,,,,,,,,549.4126,554.4189,,554.4189,567.6939,"[[54.1,600],[52,700],[52,800],[51.9,900],[51.8,1000],[51.3,1100],[49.7,1199],[49.5,1299],[49.5,1399],[49.5,1499],[49.5,1599],[49.5,1699],[49.6,1799],[49.6,1899],[49.6,1999],[49.7,2100],[50.2,2199],[50.2,2299],[50.2,2399],[50.2,2499],[49.2,2608],[48.2,2708],[46.7,2808],[45.2,2908],[45.2,3008],[45.5,3108],[45.5,3208],[45.5,3308],[46.3,3408],[49.1,3508],[49.1,3608],[49.5,3708],[53.5,3808],[53.6,3908],[53.6,4008],[53.5,4108],[53.3,4208],[53.3,4308],[53,4408],[53,4508],[53,4616],[53,4716],[53,4816],[53,4916],[53,5016],[53,5116],[53,5216],[52.9,5316],[52.6,5416],[52.4,5516],[52.3,5616],[52.3,5716],[52.3,5816],[52.3,5916],[52.3,6016],[52.3,6116],[52.1,6216],[51.5,6316],[51.3,6416],[51.1,6516],[50.8,6616],[50.1,6716],[49.5,6816],[49.4,6916],[49.1,7016],[48.2,7116],[48,7216],[48,7316],[48,7416],[48.4,7516],[48.5,7624],[49.5,7724],[50,7824],[50.1,7924],[50.1,8024],[50.9,8125],[51.3,8224],[51.3,8324],[51.3,8424],[51.3,8524],[50.4,8633],[50.3,8733],[50.2,8833],[49.8,8933],[49.5,9033],[49.4,9133],[49.1,9233],[48.3,9333],[48,9433],[48,9533],[48.6,9633],[49,9733],[49.7,9833],[50.2,9933],[50.3,10033],[50.4,10133],[51.1,10233],[53.1,10333],[55.5,10433],[62.7,10533],[63.3,10641],[69.8,10741],[71.6,10841],[73.4,10941],[74.8,11041],[75.6,11141],[79.3,11241],[80.8,11341],[85.9,11441],[85.6,11541],[85.6,11641],[85.6,11741],[88.3,11841],[88.9,11941],[89.1,12041],[88.2,12141],[87,12241],[86.8,12341],[86.8,12441],[86.8,12541],[86.3,12649],[86.3,12749],[86.3,12850],[86.3,12949],[86.3,13049],[87.5,13150],[92,13249]]",1,0,567.6939,570.9021,85.46875,1.6872,"[{""rating"":85.46875,""responseTime"":1.6871999999880245}]",space,2.6869,,570.9022,Not at all,0,570.9028,,,[],,0,1,1,1,1,audio/Narrative7Situation1.wav,audio/Narrative8Situation1.wav,audio/Narrative5Situation1.wav,audio/Narrative6Situation1.wav,2,5,5,2,,,,,,,,,,,,,,,,,,,,,,,,,,,,,,,,,,,,,,
,,,,,,5afa19a4f856320001cf920f,2024-02-06_10h41.47.356,group3.1-3.2-social-tom,2023.2.2,Win32,119.047619,65b1b24e3a500fd6b5dc9abd,65c2532d89d54ddc0523b5dc,,,,,,,,,,,,,,,,,,,,,,,,,,,,,570.9029,573.9104,,573.9104,603.3602,"[[50.3,99],[50.3,199],[50.3,308],[50.7,408],[50.7,508],[50.8,608],[50.7,708],[50.5,808],[50.4,908],[50.7,1008],[50.7,1108],[50.9,1208],[51,1316],[51.1,1416],[51.1,1516],[51.1,1616],[51.2,1716],[50.8,1816],[50.2,1916],[49.5,2016],[49.1,2116],[49.1,2216],[49.4,2316],[49.9,2416],[50.1,2516],[50.3,2616],[50.3,2716],[50.3,2816],[50.3,2916],[50.5,3016],[51.2,3116],[51.6,3216],[51.6,3325],[50.9,3424],[50.5,3524],[50.5,3624],[50.5,3724],[50.1,3824],[49.7,3924],[49.5,4024],[49.5,4124],[49.5,4224],[50,4324],[50.4,4424],[50.5,4524],[51.1,4625],[51.6,4724],[52,4824],[52.8,4924],[53.7,5024],[53.9,5124],[53.9,5224],[54.5,5324],[54.9,5424],[54.9,5524],[54.9,5625],[54.4,5724],[52.8,5824],[53.1,5924],[53.4,6024],[54.1,6125],[54.2,6224],[54.2,6324],[54.2,6424],[54.5,6524],[55.5,6624],[57,6724],[57.1,6824],[58,6924],[59.8,7024],[59.8,7124],[59.7,7224],[59.1,7328],[58.9,7424],[58.6,7524],[58.4,7624],[58.8,7724],[60,7824],[73.9,7924],[73.6,8024],[72.7,8125],[71.5,8224],[70.6,8325],[70.6,8433],[70.9,8533],[70.4,8633],[63.4,8733],[62.3,8833],[63.1,8933],[64,9033],[64.3,9133],[65.5,9233],[66,9333],[73.7,9441],[79.2,9541],[78,9641],[76,9741],[74.1,9841],[72.9,9941],[72.1,10041],[68.5,10141],[67.1,10241],[66,10346],[65.5,10441],[65.1,10541],[64.5,10641],[64.3,10741],[64.2,10841],[64.2,10941],[64.2,11041],[63,11141],[61.7,11241],[61.5,11341],[61.5,11449],[60.8,11549],[59.8,11649],[59.8,11749],[59.5,11849],[58.7,11949],[57.1,12049],[56.5,12149],[56.2,12249],[55.9,12349],[55.7,12458],[56.1,12558],[68.4,12658],[69,12758],[71.2,12858],[74.3,12958],[74.8,13058],[74.8,13158],[74.3,13258],[74.1,13358],[73.5,13458],[72.3,13558],[71.2,13658],[70.9,13758],[70.3,13858],[70.3,13958],[70.9,14058],[83.4,14158],[83.6,14258],[82.7,14358],[79.5,14466],[72.9,14566],[71.3,14666],[71.3,14766],[71.3,14866],[71.3,14966],[71.4,15066],[69.8,15166],[66.3,15266],[66.3,15366],[66.6,15466],[67.7,15566],[67.4,15666],[65.3,15766],[64.5,15866],[63,15966],[61.7,16066],[60.8,16166],[59.5,16266],[58,16366],[57.6,16466],[57.2,16566],[57,16666],[57,16766],[57.7,16866],[58.1,16966],[58.1,17066],[57.4,17166],[57.1,17266],[57.1,17366],[57.1,17474],[57.1,17574],[56.9,17674],[56.6,17774],[56.6,17874],[56.3,17974],[56,18074],[56,18174],[56.9,18274],[57.1,18374],[57,18474],[56.6,18574],[56.5,18674],[56.3,18774],[55.7,18874],[56.2,18974],[59.1,19074],[59.8,19174],[61.3,19274],[62.2,19374],[62.7,19474],[62.9,19574],[63.1,19674],[63.1,19774],[62.4,19874],[61.4,19974],[60.5,20074],[59,20174],[58,20274],[57.6,20374],[57.2,20474],[57,20574],[58.1,20674],[61.8,20774],[62.8,20874],[64.4,20974],[65.5,21074],[65.7,21174],[66,21274],[66,21374],[66,21483],[65.2,21583],[64.1,21683],[62.4,21783],[61.1,21883],[60.4,21983],[59.4,22083],[58.8,22183],[58.4,22283],[58.3,22383],[58.3,22483],[58,22583],[57.6,22683],[57.3,22783],[57,22883],[56.5,22983],[55.7,23083],[55.2,23183],[54.8,23283],[54.8,23383],[54.8,23483],[54.9,23583],[56.2,23683],[56.4,23783],[57.3,23883],[61.6,23983],[62.1,24083],[62.2,24183],[62.8,24283],[64.3,24383],[65.1,24483],[65.2,24591],[65.2,24691],[65.3,24791],[65.6,24891],[65.6,24991],[65.2,25091],[63.3,25191],[61.6,25291],[61.3,25391],[61,25491],[62.7,25599],[63,25699],[63,25799],[62.4,25899],[61.3,25999],[61.1,26099],[62.7,26199],[62.7,26299],[62.7,26399],[62.8,26499],[64.5,26599],[64.7,26699],[64.4,26799],[62.3,26899],[59.5,26999],[59.5,27099],[59.5,27199],[59.5,27299],[59.5,27399],[59.7,27499],[58.4,27599],[58,27699],[58,27799],[59.8,27899],[60.6,27999],[60.6,28099],[60.6,28199],[60.6,28299],[60.6,28399],[60.2,28499],[60,28599],[59.9,28699],[59.8,28799],[59.8,28899],[59.8,28999],[59.8,29099],[59.6,29199],[59.4,29299],[59.1,29399]]",1,0,603.3602,606.9852,56.171875,2.0865,"[{""rating"":56.17187500000001,""responseTime"":2.086500000000001}]",space,3.1084,,606.9853,Partially,50,606.9862,,,[],,0,2,2,2,1,audio/Narrative7Situation2.wav,audio/Narrative8Situation2.wav,audio/Narrative5Situation2.wav,audio/Narrative6Situation2.wav,3,3,3,3,,,,,,,,,,,,,,,,,,,,,,,,,,,,,,,,,,,,,,
,,,,,,5afa19a4f856320001cf920f,2024-02-06_10h41.47.356,group3.1-3.2-social-tom,2023.2.2,Win32,119.047619,65b1b24e3a500fd6b5dc9abd,65c2532d89d54ddc0523b5dc,,,,,,,,,,,,,,,,,,,,,,,,,,,,,606.9865,609.9935,,609.9935,623.8975,"[[999,4],[999,100],[999,199],[54.4,299],[53,399],[51.2,500],[50.6,600],[50.2,700],[49.8,800],[49.7,899],[49.6,999],[49.6,1100],[49.6,1199],[49.5,1299],[49.6,1399],[49.6,1500],[49.8,1604],[50,1703],[50,1803],[50,1903],[50,2003],[50,2103],[50.1,2203],[50.1,2303],[50.2,2403],[50.2,2503],[50.5,2603],[50.7,2703],[51.1,2803],[51.7,2903],[52.3,3003],[54.5,3103],[64.8,3203],[68.9,3303],[74.8,3403],[74.7,3503],[73.8,3620],[73.2,3720],[73.2,3821],[74.4,3920],[74.5,4019],[74.6,4120],[74.6,4219],[74.4,4319],[73.4,4419],[73.2,4519],[72.7,4620],[71.5,4720],[71.4,4820],[71.4,4919],[72.9,5020],[73.1,5119],[73.1,5219],[75.4,5320],[79.9,5419],[79.9,5519],[80.3,5620],[81.4,5720],[82.6,5820],[93.5,5920],[96.2,6019],[96.2,6120],[96.2,6219],[96.2,6319],[95.9,6419],[98.1,6520],[98.3,6620],[98.3,6720],[98,6820],[97.3,6919],[97.3,7019],[97.5,7120],[97.7,7220],[97.7,7319],[97.7,7419],[98,7519],[98,7619],[98,7720],[97.8,7819],[97.8,7919],[97.8,8019],[97.8,8119],[97.8,8219],[97.8,8319],[97.8,8419],[97.8,8519],[97.8,8620],[97.8,8719],[97.8,8819],[97.7,8919],[97.3,9019],[97.1,9120],[96.9,9220],[96.8,9319],[96.7,9419],[96.7,9519],[96.6,9633],[96.6,9733],[96.6,9833],[96.6,9933],[96.6,10033],[96.6,10133],[96.6,10233],[96.6,10337],[96.6,10433],[96.6,10533],[96.6,10641],[96.6,10741],[96.6,10845],[96.6,10941],[96.4,11045],[95.9,11145],[95.3,11245],[94.5,11345],[93.3,11445],[91.3,11545],[89.7,11645],[89.1,11745],[88.8,11841],[89.1,11945],[90,12045],[90,12141],[90.2,12241],[90.4,12341],[90.4,12441],[90.5,12541],[91.2,12645],[91.6,12745],[91.7,12843],[91.7,12941],[91.8,13041],[92,13141],[92,13241],[92,13341],[92,13441],[92,13541],[92,13649],[92,13753],[92,13852]]",1,0,623.8976,625.7619,94.21875,1.0691,"[{""rating"":94.21875,""responseTime"":1.0690999999941369}]",space,1.3398,,625.7619,Definitely yes,100,625.7629,,,[],,0,3,3,3,1,audio/Narrative7Situation3.wav,audio/Narrative8Situation3.wav,audio/Narrative5Situation3.wav,audio/Narrative6Situation3.wav,8,4,3,5,,,,,,,,,,,,,,,,,,,,,,,,,,,,,,,,,,,,,,
,,,,,,5afa19a4f856320001cf920f,2024-02-06_10h41.47.356,group3.1-3.2-social-tom,2023.2.2,Win32,119.047619,65b1b24e3a500fd6b5dc9abd,65c2532d89d54ddc0523b5dc,,,,,,,,,,,,,,,,,,,,,,,,,,,,,625.7632,626.7705,,626.7706,647.1433,"[[48.8,97],[48.8,199],[49,300],[49.1,406],[49.3,509],[49.5,605],[49.8,710],[49.6,806],[49.6,906],[48.9,1010],[48.9,1109],[50.9,1210],[51.2,1306],[50.9,1409],[50.2,1509],[50.2,1610],[54.5,1710],[58.8,1810],[65.2,1917],[63,2024],[60.5,2125],[58,2222],[59.1,2325],[59.1,2422],[58.9,2522],[57.7,2622],[57.9,2725],[58.4,2825],[61.3,2925],[64.3,3025],[64.4,3122],[64.4,3224],[63.5,3325],[61.6,3424],[60.6,3522],[61,3622],[61.3,3724],[61.2,3826],[61.2,3922],[58,4026],[48.4,4126],[47.4,4226],[45.9,4326],[43.6,4426],[43,4522],[42.6,4622],[42.1,4722],[40.7,4826],[41.4,4926],[41.4,5022],[41.4,5125],[41.3,5222],[40.9,5322],[40.9,5422],[40.9,5522],[40.9,5622],[40.9,5722],[40.9,5822],[40.9,5922],[40.3,6023],[39.7,6122],[39.6,6222],[39.6,6324],[40.9,6425],[40.2,6524],[36.9,6625],[34.6,6724],[35.7,6826],[35.8,6931],[34.8,7034],[34.1,7134],[34,7230],[34.1,7331],[32.5,7435],[30.3,7531],[30.3,7630],[30.3,7730],[30.3,7831],[30.5,7940],[30.5,8039],[30.3,8143],[30,8243],[29.8,8339],[29.8,8439],[30.4,8539],[30.8,8639],[33.7,8743],[59.8,8843],[60.5,8951],[60.3,9047],[63.8,9151],[74.1,9251],[74.3,9351],[73.8,9449],[71.5,9549],[70.5,9647],[72.7,9750],[72.9,9848],[72.9,9947],[72.9,10047],[71.4,10150],[68.4,10247],[68.6,10350],[69.6,10449],[69.8,10549],[69.8,10647],[67.3,10750],[66.3,10847],[66.9,10958],[68.6,11058],[71.3,11159],[73,11259],[74.1,11355],[74.1,11456],[73.9,11555],[73.9,11655],[73.9,11755],[73.8,11859],[73.6,11959],[73.5,12056],[73.5,12156],[73.5,12255],[71.4,12355],[71.6,12456],[72.2,12556],[73,12656],[73.4,12755],[73.8,12855],[74.6,12956],[76.3,13056],[79.9,13156],[82.5,13256],[82.9,13355],[82.9,13456],[82.8,13556],[82.4,13655],[82.4,13755],[82,13856],[80.7,13956],[77.1,14056],[76.1,14156],[72.6,14256],[70.5,14355],[69.7,14455],[69.7,14556],[70.4,14656],[73.1,14755],[73.8,14855],[74.4,14956],[76.7,15056],[77.3,15156],[78,15255],[79.1,15355],[83.4,15456],[83.6,15555],[83.6,15655],[84.5,15756],[85.7,15855],[87,15956],[87.8,16064],[90.5,16164],[91,16264],[90.6,16364],[89.6,16464],[89.5,16564],[90,16664],[91.6,16764],[92.6,16864],[92.6,16964],[92.3,17072],[91.9,17172],[91.3,17272],[91.3,17372],[91.6,17472],[92.1,17572],[92.1,17672],[92,17772],[91.9,17872],[91.9,17972],[91.9,18080],[91.9,18180],[92,18281],[91.6,18381],[91.2,18480],[91.6,18581],[92.7,18680],[92.9,18780],[92.9,18880],[92.3,18980],[92.1,19080],[92,19181],[92,19280],[92,19380],[91.9,19481],[91.9,19580],[91.9,19680],[91.9,19780],[91.9,19880],[91.9,19980],[91.9,20080],[91.9,20180],[91.7,20280]]",1,0,647.1433,648.9348,91.640625,0.5484,"[{""rating"":91.640625,""responseTime"":0.5484000000059268}]",space,1.2753,,648.9349,Partially,50,648.9359,,,[],,0,4,4,4,1,audio/Narrative7Situation4.wav,audio/Narrative8Situation4.wav,audio/Narrative5Situation4.wav,audio/Narrative6Situation4.wav,3,3,1,2,,,,,,,,,,,,,,,,,,,,,,,,,,,,,,,,,,,,,,
,,,,,,5afa19a4f856320001cf920f,2024-02-06_10h41.47.356,group3.1-3.2-social-tom,2023.2.2,Win32,119.047619,65b1b24e3a500fd6b5dc9abd,65c2532d89d54ddc0523b5dc,,,,,,,,,,,,,,,,,,,,,,,,,,,,,648.9362,653.9432,,653.9433,669.3548,"[[50.6,199],[50.4,299],[50.4,399],[50.5,499],[50.5,599],[50.5,699],[50.5,799],[50.5,899],[50.5,1008],[50.5,1108],[50.5,1208],[50.6,1308],[50.9,1408],[50.9,1508],[50.9,1608],[51,1708],[51.2,1808],[51.2,1908],[51.3,2008],[51.3,2108],[51.3,2208],[51.6,2308],[51.8,2408],[51.9,2508],[51.9,2608],[52,2708],[52.3,2808],[53,2908],[53.2,3016],[53.5,3116],[53.8,3216],[53.8,3316],[53.9,3416],[54,3516],[54,3616],[54,3716],[54.1,3816],[54.2,3916],[54.5,4016],[54.5,4116],[55.2,4216],[55.4,4316],[55.5,4416],[56.1,4516],[58.8,4616],[59,4716],[58.8,4816],[58.4,4916],[57.8,5016],[57.4,5116],[56.4,5216],[47.8,5316],[46.2,5416],[46.6,5516],[46.8,5616],[47.7,5716],[47.7,5816],[48.7,5916],[50.2,6024],[50.4,6124],[50.2,6224],[49.4,6324],[49.4,6424],[49.5,6524],[52.5,6624],[53.6,6724],[54.8,6824],[56.6,6924],[57.6,7024],[57.6,7124],[57.4,7225],[56.6,7324],[54.9,7424],[54.9,7524],[54.9,7624],[54.9,7724],[55.3,7824],[55.8,7925],[55.9,8025],[55.9,8124],[55.7,8224],[55.5,8324],[55.4,8424],[55.2,8524],[55.2,8624],[55.2,8724],[55.2,8824],[55.2,8924],[55.2,9025],[55.2,9124],[55.2,9224],[55.2,9324],[55.2,9424],[55.5,9524],[55.6,9624],[55.6,9724],[55.6,9824],[55.6,9924],[56.3,10025],[56.6,10124],[57.1,10224],[57.2,10324],[57.2,10424],[57.2,10524],[57.1,10624],[57,10724],[56.8,10824],[56.7,10924],[56.6,11024],[56.6,11124],[56.6,11224],[56.6,11324],[56.6,11424],[56.5,11524],[55.9,11624],[55.5,11724],[56.6,11824],[56.6,11924],[58.8,12024],[59.2,12133],[60.1,12233],[61.2,12333],[61.5,12433],[61.6,12533],[61.6,12633],[61.5,12733],[60.9,12833],[60.9,12933],[61.3,13033],[62.4,13141],[62.4,13241],[62.4,13341],[63.2,13441],[63,13541],[62.5,13641],[62.1,13741],[61.9,13841],[61.2,13941],[60.6,14041],[60.3,14145],[60.2,14244],[60.6,14344],[60.9,14444],[60.9,14544],[60.9,14644],[60.9,14744],[60.9,14844],[60.9,14944],[60.9,15044],[60.9,15144],[60.9,15245],[60.8,15344]]",1,0,669.3549,672.4222,58.59375,1.5332,"[{""rating"":58.59375,""responseTime"":1.5331999999880281}]",space,2.5501,,672.4222,Partially,50,677.3464,50,3.7406,"[{""rating"":50,""responseTime"":3.7406000000238464}]",space,0,5,5,5,1,audio/Narrative7Situation5.wav,audio/Narrative8Situation5.wav,audio/Narrative5Situation5.wav,audio/Narrative6Situation5.wav,5,2,5,2,,,4.3998,,,,,,,,,,,,,,,,,,,,,,,,,,,,,,,,,,,
,,,,,,5afa19a4f856320001cf920f,2024-02-06_10h41.47.356,group3.1-3.2-social-tom,2023.2.2,Win32,119.047619,65b1b24e3a500fd6b5dc9abd,65c2532d89d54ddc0523b5dc,,,,,,,,,,,,,,,,,,,,,,,,,,,,,677.3467,680.3547,,680.3547,686.018,"[[999,4],[999,108],[999,204],[999,309],[47.8,409],[49,509],[50.9,609],[51.4,705],[51.3,804],[51,908],[50.9,1008],[50.9,1104],[50.9,1204],[50.9,1305],[50.8,1404],[50.8,1504],[50.8,1604],[50.8,1704],[51,1804],[51,1904],[52,2008],[53.4,2104],[54,2204],[54.6,2308],[56.3,2408],[56.6,2504],[57,2615],[58.5,2715],[58.6,2813],[58.6,2913],[75.5,3015],[75.8,3115],[75.7,3213],[88.3,3315],[86.9,3415],[88,3515],[89.1,3613],[88.2,3715],[86.8,3813],[86.8,3915],[87,4013],[87.9,4115],[88.4,4213],[88.6,4315],[88.7,4413],[88.7,4513],[88.4,4613],[88.1,4717],[87.9,4825],[87.8,4921],[87.8,5021],[87.9,5125],[87.9,5225],[87.9,5321],[87.9,5425],[87.9,5521],[87.9,5621]]",1,0,686.018,688.8525,91.328125,1.8436,"[{""rating"":91.328125,""responseTime"":1.843599999994126}]",space,2.3109,,688.8526,Definitely yes,100,688.8535,,,[],,0,6,6,6,1,audio/Narrative7Situation6.wav,audio/Narrative8Situation6.wav,audio/Narrative5Situation6.wav,audio/Narrative6Situation6.wav,3,2,3,2,,,,,,,,,,,,,,,,,,,,,,,,,,,,,,,,,,,,,,
,,,,,,5afa19a4f856320001cf920f,2024-02-06_10h41.47.356,group3.1-3.2-social-tom,2023.2.2,Win32,119.047619,65b1b24e3a500fd6b5dc9abd,65c2532d89d54ddc0523b5dc,,,,,,,,,,,,,,,,,,,,,,,,,,,,,688.8538,692.8596,,692.8596,713.8764,"[[51.7,399],[50.9,502],[50.2,599],[50.1,699],[50.2,799],[50.5,899],[50.6,999],[50.7,1099],[51,1203],[51.3,1303],[51.5,1412],[54.5,1512],[66,1612],[66.2,1712],[65.7,1808],[65.7,1912],[65.7,2011],[65.7,2112],[65.9,2212],[64.8,2312],[63.4,2412],[63.4,2508],[63.5,2612],[64.1,2712],[64.2,2808],[64.2,2912],[64.2,3008],[64.2,3108],[64.7,3212],[64.9,3312],[64.9,3408],[64.9,3508],[65.1,3610],[65.6,3708],[66.4,3812],[66.6,3908],[66.6,4008],[66.6,4108],[66.6,4208],[68.1,4310],[69.6,4410],[69.6,4508],[69.5,4608],[69.4,4708],[69.3,4808],[69.1,4908],[69.1,5008],[69.1,5108],[69,5208],[69,5308],[69.1,5408],[69.5,5510],[69.8,5608],[70,5708],[70,5812],[70,5912],[70,6012],[73.5,6112],[75.9,6212],[75.9,6308],[75.2,6412],[74,6511],[73,6612],[74.4,6712],[75.2,6808],[75.2,6912],[75.2,7008],[74.8,7112],[73.9,7212],[73.9,7308],[72.4,7412],[72.2,7512],[72.1,7608],[74.1,7710],[76.6,7808],[76.6,7908],[76.3,8008],[69.2,8110],[67.3,8210],[66.9,8310],[66.9,8412],[66.6,8518],[65.9,8618],[64.9,8718],[64.3,8818],[63.8,8918],[62,9018],[61.4,9116],[60.3,9218],[57.6,9318],[54.2,9418],[54,9516],[53.7,9616],[53.2,9720],[52.4,9816],[52,9920],[51.4,10020],[50.9,10116],[50.8,10216],[50.8,10316],[50.3,10416],[50,10528],[49.8,10624],[49.5,10724],[49.4,10824],[49.4,10924],[49.2,11024],[49.2,11124],[49.2,11224],[49,11328],[48.8,11424],[48.5,11533],[48.4,11633],[48.3,11733],[48.2,11833],[48,11933],[48,12033],[48,12133],[47.9,12233],[47.7,12337],[47.3,12437],[47.2,12535],[47.1,12633],[47.1,12733],[47.1,12833],[47,12933],[46.9,13037],[46.7,13133],[46.7,13233],[46.9,13337],[47,13433],[47,13533],[47.3,13637],[48.3,13737],[49.1,13833],[49.5,13933],[50.4,14035],[51.2,14135],[51.6,14235],[51.9,14335],[52,14433],[52,14541],[51.9,14641],[51.7,14741],[51.6,14841],[51.5,14941],[51,15043],[50.6,15141],[49.9,15243],[49.3,15343],[48.7,15443],[48.3,15541],[48.2,15641],[48.3,15745],[49.1,15845],[49.5,15945],[49.5,16041],[50.2,16145],[50.5,16241],[50.7,16345],[50,16445],[49.2,16549],[48.6,16649],[48,16749],[47.6,16849],[47.3,16949],[47,17049],[46.7,17149],[46.3,17249],[45.9,17349],[45.8,17449],[45.5,17549],[45.3,17649],[45.2,17749],[45.5,17849],[45.7,17949],[45.7,18049],[45.7,18149],[45.7,18249],[45.7,18349],[45.7,18449],[45.7,18558],[45.7,18658],[45.7,18758],[45.7,18858],[45.7,18958],[45.7,19058],[45.7,19158],[45.7,19258],[46.1,19358],[46.8,19458],[47.3,19566],[47.3,19666],[47.3,19766],[47.1,19866],[46.7,19966],[46.6,20066],[46.6,20166],[46.6,20266],[46.6,20366],[46.6,20466],[46.6,20566],[46.6,20666],[46.6,20766],[46.6,20866],[46.6,20966]]",1,0,713.8764,716.1678,46.09375,1.0112,"[{""rating"":46.171875,""responseTime"":0.9110999999941214},{""rating"":46.09375,""responseTime"":1.0111999999880936}]",space,1.7789,,716.1678,Partially,50,716.1689,,,[],,0,7,7,7,1,audio/Narrative7Situation7.wav,audio/Narrative8Situation7.wav,audio/Narrative5Situation7.wav,audio/Narrative6Situation7.wav,5,3,4,5,,,,,,,,,,,,,,,,,,,,,,,,,,,,,,,,,,,,,,
,,,,,,5afa19a4f856320001cf920f,2024-02-06_10h41.47.356,group3.1-3.2-social-tom,2023.2.2,Win32,119.047619,65b1b24e3a500fd6b5dc9abd,65c2532d89d54ddc0523b5dc,,,,,,,,,,,,,,,,,,,,,,,,,,,,,716.1691,719.1763,,719.1764,727.9844,"[[48.4,99],[48.2,199],[47.8,299],[48,399],[48.4,499],[49.5,599],[50.5,699],[50.8,799],[50.8,899],[50.8,999],[50.8,1099],[50.8,1199],[50.8,1299],[50.6,1399],[50,1499],[49.8,1599],[49.8,1699],[50.1,1799],[50.9,1899],[52.5,1999],[52.5,2099],[52.3,2199],[51.9,2299],[51.8,2399],[52.3,2499],[52.5,2599],[53.3,2699],[53.7,2799],[53.7,2899],[53.7,2999],[53.6,3099],[53.6,3199],[53.6,3307],[53.5,3407],[53.1,3508],[53,3607],[52.3,3707],[50.9,3807],[50.5,3908],[48.8,4008],[48.1,4107],[47.2,4207],[46.2,4316],[45.8,4416],[45.5,4516],[45.4,4616],[45.4,4716],[45.5,4816],[45.5,4916],[45.9,5016],[46.5,5116],[46.8,5216],[46.9,5324],[46.9,5424],[46.5,5524],[45.8,5624],[45.5,5724],[45.5,5824],[45.3,5924],[43.9,6024],[43.8,6124],[43.4,6224],[43.4,6333],[42.9,6432],[42.2,6533],[41.1,6633],[40.9,6732],[40.9,6832],[40.9,6932],[39.5,7033],[38.4,7133],[37.4,7232],[37.2,7333],[36.6,7432],[36.3,7532],[36.3,7632],[36.3,7732],[36.3,7832],[36.3,7932],[36.6,8033],[36.6,8132],[36.8,8232],[37.4,8343],[37.8,8441],[38.4,8541],[38.4,8641],[38.8,8741]]",1,0,727.9845,731.2927,23.984375,2.8115,"[{""rating"":23.984375000000004,""responseTime"":2.8115000000000236}]",space,2.7863,,731.2927,Definitely yes,100,731.2938,,,[],,0,8,8,8,1,audio/Narrative7Situation8.wav,audio/Narrative8Situation8.wav,audio/Narrative5Situation8.wav,audio/Narrative6Situation8.wav,2,3,3,5,,,,,,,,,,,,,,,,,,,,,,,,,,,,,,,,,,,,,,
,,,,,,5afa19a4f856320001cf920f,2024-02-06_10h41.47.356,group3.1-3.2-social-tom,2023.2.2,Win32,119.047619,65b1b24e3a500fd6b5dc9abd,65c2532d89d54ddc0523b5dc,,,,,,,,,,,,,,,,,,,,,,,,,,,,,731.294,734.3009,,734.301,773.8291,"[[999,4],[999,99],[999,199],[999,299],[999,399],[50.5,499],[50.5,600],[50.5,699],[50.5,799],[50.5,899],[50.5,999],[50.5,1099],[51,1199],[51.9,1299],[51.9,1399],[51.9,1499],[51.9,1599],[51.9,1699],[52.3,1799],[52.4,1899],[52.6,1999],[54.6,2099],[55.3,2199],[55.6,2308],[56.6,2408],[56.6,2508],[55.6,2608],[54.9,2708],[54.6,2808],[54.4,2908],[56.3,3008],[58.9,3108],[58.9,3208],[58.9,3308],[58.9,3408],[58.9,3508],[58.4,3608],[57.8,3708],[57.8,3808],[58.7,3908],[59.5,4008],[59.6,4108],[60.2,4208],[60.5,4309],[60.5,4416],[60.5,4516],[61.6,4616],[64.8,4716],[64.5,4816],[64,4916],[62.7,5016],[60.3,5116],[59.9,5216],[60.7,5316],[61.6,5424],[62.1,5524],[62.7,5624],[63.1,5724],[63.2,5824],[62.8,5924],[62.7,6024],[64.1,6124],[64.2,6224],[64.2,6325],[64.2,6424],[64.1,6524],[63.6,6624],[63.6,6724],[63.6,6824],[63.6,6924],[63.6,7024],[63.6,7124],[63.6,7224],[63.6,7324],[63.6,7424],[63.6,7524],[63.4,7624],[63.4,7724],[63.4,7824],[63.4,7924],[63.7,8024],[63.8,8124],[63.9,8225],[64.8,8324],[68.7,8424],[69,8524],[66.3,8624],[63.4,8724],[63.4,8824],[63.4,8924],[63.4,9024],[63.4,9124],[63.4,9224],[63.4,9324],[63.4,9424],[63.9,9524],[63.9,9624],[63.3,9724],[63.1,9824],[63.1,9924],[63.6,10024],[63.7,10124],[63.7,10224],[63.8,10324],[63.8,10424],[64.3,10524],[64.7,10624],[64.8,10724],[64.8,10824],[64.8,10924],[64.8,11024],[64.8,11124],[64.8,11224],[64.8,11324],[64.8,11433],[64.8,11533],[64.8,11633],[64.8,11733],[64.8,11833],[64.8,11933],[64.8,12033],[64.8,12133],[64.8,12233],[64.8,12333],[64.8,12433],[64.8,12533],[64.8,12633],[64.8,12733],[64.8,12833],[64.8,12933],[64.8,13033],[64.8,13133],[64.8,13233],[64.8,13333],[64.8,13433],[64.8,13533],[64.8,13633],[64.8,13733],[64.8,13833],[64.8,13933],[64.8,14033],[64.8,14133],[64.8,14233],[64.8,14333],[64.8,14433],[64.8,14533],[64.8,14633],[64.8,14733],[64.8,14833],[64.8,14933],[64.8,15033],[64.8,15133],[64.8,15233],[65.5,15333],[65.9,15433],[65.9,15533],[66.1,15633],[66.3,15733],[66.7,15833],[67.2,15933],[67.4,16033],[67.7,16133],[68.2,16233],[68.5,16333],[68.8,16433],[68.8,16541],[69.1,16641],[70.2,16741],[71.3,16841],[72,16941],[74.3,17041],[74.4,17141],[74.8,17241],[83.5,17341],[84.8,17452],[85.2,17549],[86.3,17649],[87.3,17749],[88.3,17849],[88.4,17949],[87.9,18049],[87.7,18149],[87.4,18249],[87.4,18349],[87.8,18450],[89.1,18549],[93,18649],[93,18749],[92.7,18849],[92.3,18949],[91.7,19049],[91.3,19149],[89.9,19249],[86.8,19349],[86.4,19449],[87.4,19558],[89.5,19658],[91.3,19758],[91.8,19858],[91.9,19958],[92,20058],[92,20158],[92,20258],[92,20358],[92.4,20458],[92.9,20558],[93,20658],[93.2,20758],[93.5,20858],[93.9,20958],[94.1,21057],[94.1,21158],[94.1,21258],[93.8,21358],[93,21458],[92.8,21566],[93,21666],[93.5,21766],[94,21866],[94.7,21966],[94.8,22066],[94.7,22166],[94.2,22266],[93.8,22366],[93.3,22466],[92.7,22574],[92.2,22674],[91.9,22774],[91.9,22874],[91.9,22974],[92.1,23074],[92.8,23174],[93.3,23274],[93.5,23374],[93.7,23474],[93.7,23574],[93.7,23674],[94.1,23774],[94.2,23874],[94.2,23974],[94.3,24074],[94.2,24174],[93.4,24274],[90.2,24374],[87,24474],[86.2,24574],[86.2,24674],[86.2,24774],[85.9,24874],[84.7,24974],[83.7,25074],[83.7,25174],[83.4,25274],[81.3,25374],[78.7,25474],[77.5,25578],[77,25678],[76.7,25778],[76.6,25878],[76.7,25978],[77,26078],[77.2,26178],[77.4,26278],[77.7,26378],[77.7,26478],[77.7,26578],[77.7,26678],[77.7,26778],[77.7,26878],[77.6,26978],[77.5,27078],[77.5,27178],[77.5,27278],[77.5,27378],[77.5,27478],[77.9,27578],[78.4,27678],[78.6,27779],[78.7,27878],[78.7,27978],[78.7,28078],[78.7,28178],[78.7,28278],[78.7,28378],[78.7,28478],[78.7,28579],[78.7,28678],[78.7,28778],[78.6,28878],[78.4,28978],[78.4,29078],[78.4,29178],[78.4,29278],[78.4,29378],[78.4,29478],[78.4,29587],[78.4,29686],[78.4,29786],[78.4,29886],[78.4,29986],[78.4,30086],[78.4,30186],[78.4,30286],[78.4,30386],[78.4,30486],[78.4,30589],[78.4,30686],[78.4,30786],[78.4,30886],[78.4,30986],[78.4,31086],[78.4,31186],[78.4,31286],[78.4,31386],[78.4,31486],[78.4,31586],[78.4,31686],[78.4,31786],[78.4,31886],[78.4,31986],[78.4,32086],[78.4,32186],[78.4,32286],[78.4,32386],[78.4,32486],[78.4,32586],[78.4,32694],[78.4,32794],[78.6,32894],[80.4,32994],[80.8,33094],[80.8,33194],[80.7,33294],[81,33394],[82.7,33494],[86.6,33594],[89.4,33703],[89.7,33803],[89.7,33903],[89.7,34003],[89.7,34103],[89.7,34203],[89,34303],[87.9,34403],[87.1,34502],[87.1,34603],[88.4,34703],[88.6,34803],[88.6,34903],[88.6,35002],[88.8,35103],[88.9,35202],[88.9,35303],[88.9,35403],[88.9,35502],[88.9,35602],[88.8,35703],[88.8,35803],[88.8,35903],[88.4,36003],[88,36102],[88.4,36203],[90.1,36303],[90.1,36403],[90.1,36503],[90,36603],[89.8,36711],[89.8,36811],[89.8,36911],[90.5,37011],[90.7,37111],[90.7,37211],[90.6,37311],[90.5,37411],[90.5,37511],[90.5,37611],[90.8,37711],[91.2,37811],[91.3,37911],[91.3,38011],[91.3,38111],[91.2,38211],[91.2,38311],[91.2,38411],[91.3,38511],[91.4,38611],[91.4,38712],[91.4,38811],[91.4,38911],[91.4,39011],[91.4,39111],[91.4,39211],[91.4,39311],[91.4,39411],[91.4,39511]]",1,0,773.8292,776.6958,90.703125,1.3165,"[{""rating"":90.703125,""responseTime"":1.316500000000019}]",space,2.3418,,776.6958,Not at all,0,776.6969,,,[],,0,9,9,9,1,audio/Narrative7Situation9.wav,audio/Narrative8Situation9.wav,audio/Narrative5Situation9.wav,audio/Narrative6Situation9.wav,2,3,3,4,,,,,,,,,,,,,,,,,,,,,,,,,,,,,,,,,,,,,,
,,,,,,5afa19a4f856320001cf920f,2024-02-06_10h41.47.356,group3.1-3.2-social-tom,2023.2.2,Win32,119.047619,65b1b24e3a500fd6b5dc9abd,65c2532d89d54ddc0523b5dc,,,,,,,,,,,,,,,,,,,,,,,,,,,,,776.697,778.704,,778.704,805.2755,"[[999,0],[999,99],[999,199],[999,303],[999,399],[999,499],[999,599],[999,699],[999,799],[999,899],[999,1000],[999,1099],[51,1699],[49.9,1799],[49.5,1899],[49.4,2000],[49.7,2099],[50.1,2199],[50.2,2303],[50.2,2408],[50.2,2508],[50.2,2608],[50.2,2708],[50.2,2808],[50.2,2908],[50.2,3008],[50.2,3108],[50.1,3208],[49.8,3311],[50,3408],[49.5,3508],[50.1,3608],[49.8,3708],[49.8,3808],[49.6,3908],[49.5,4008],[49.2,4108],[49.3,4208],[49,4319],[47.3,4416],[45.9,4516],[45.3,4616],[45.2,4716],[45.3,4816],[47.5,4916],[48,5016],[48.8,5116],[50.6,5217],[52.6,5316],[55,5416],[63,5516],[74.1,5616],[75,5716],[74.7,5816],[74.7,5916],[78.1,6016],[78.3,6116],[78.3,6216],[78.3,6316],[77.5,6416],[77.3,6516],[77.3,6616],[77.2,6716],[77.2,6816],[77.2,6916],[79.5,7016],[79.8,7116],[80.2,7216],[82.3,7319],[82.3,7424],[83,7525],[86.5,7625],[89,7725],[89,7824],[89,7924],[89,8024],[89,8125],[89,8224],[89.5,8335],[89.5,8433],[88.6,8533],[87.7,8633],[86.6,8733],[86.6,8833],[88.5,8933],[91.5,9033],[93.8,9133],[94.2,9233],[92.6,9333],[87.5,9433],[82.9,9533],[82.9,9633],[82.9,9733],[82.9,9833],[82.9,9933],[82.2,10033],[82,10133],[81.6,10233],[81.3,10333],[80.6,10441],[79.3,10541],[78.4,10641],[77.9,10741],[76.8,10841],[67.5,10941],[58.2,11041],[56.9,11141],[56.7,11241],[57.2,11341],[61,11441],[61,11541],[60.6,11641],[58.8,11741],[54.3,11841],[47.6,11941],[47.5,12041],[47.5,12141],[47.5,12241],[47.5,12341],[48,12449],[51.6,12550],[52.3,12649],[52.3,12750],[52.2,12849],[51.8,12949],[51.4,13049],[54.5,13149],[54.8,13249],[54.8,13349],[53.3,13458],[52,13558],[51.3,13658],[50.3,13758],[49.2,13858],[49,13958],[52.7,14058],[54.2,14158],[56,14258],[56.7,14362],[56.8,14458],[56.8,14558],[64.5,14658],[65.5,14758],[65.4,14858],[62.8,14958],[59.7,15058],[58.3,15158],[58.3,15258],[58.2,15358],[60.2,15458],[60.5,15558],[61.7,15658],[62,15758],[62,15858],[62,15958],[62.3,16058],[62.7,16159],[63.1,16258],[63.1,16358],[63,16466],[62.4,16566],[61.8,16666],[61.3,16766],[61.3,16866],[61,16966],[60.8,17066],[60.6,17166],[60.2,17266],[59.8,17366],[59.5,17466],[59.5,17566],[59,17666],[57.8,17766],[56.8,17866],[56.4,17966],[57.4,18066],[58.1,18166],[58.1,18266],[58.1,18366],[58.1,18474],[58.1,18574],[58.1,18674],[58.1,18774],[58.1,18874],[58.7,18974],[58.7,19074],[59,19174],[59.5,19274],[59.5,19374],[59.5,19483],[60.5,19583],[60.5,19683],[60.8,19783],[61.2,19883],[61.2,19983],[61.5,20083],[62.3,20183],[63.3,20283],[64.8,20383],[68.4,20496],[68.4,20596],[68.4,20700],[69,20800],[75.7,20896],[75.7,20996],[75.4,21096],[75.4,21196],[75.4,21300],[75.4,21396],[75.2,21499],[75.1,21599],[75.7,21700],[76.5,21796],[76.6,21896],[76.6,22000],[76.6,22096],[79,22200],[79.5,22296],[79.8,22400],[85.1,22500],[87,22600],[87,22696],[87,22796],[86.3,22896],[86,22996],[86,23096],[86,23196],[86,23296],[85.9,23396],[86.3,23508],[86.3,23604],[86.3,23704],[89.8,23808],[95.2,23904],[95.2,24004],[95.2,24104],[97.3,24208],[100,24308],[100,24404],[100,24513],[100,24613],[100,24716],[98.8,24813],[98.2,24912],[98.2,25012],[97.9,25115],[95.7,25215],[93.8,25315],[93.7,25413],[93.7,25512],[93.7,25613],[93.7,25715],[93.7,25812],[93.7,25913],[93.7,26013],[93.7,26113],[91.6,26215],[90.2,26315],[90.4,26415],[90.4,26512]]",1,0,805.2756,808.4606,85.546875,1.0492,"[{""rating"":85.546875,""responseTime"":1.0491999999881045}]",space,2.6591,,808.4606,Not at all,0,808.4612,,,[],,0,10,10,10,1,audio/Narrative8Situation1.wav,audio/Narrative7Situation1.wav,audio/Narrative6Situation1.wav,audio/Narrative5Situation1.wav,5,2,2,5,,,,,,,,,,,,,,,,,,,,,,,,,,,,,,,,,,,,,,
,,,,,,5afa19a4f856320001cf920f,2024-02-06_10h41.47.356,group3.1-3.2-social-tom,2023.2.2,Win32,119.047619,65b1b24e3a500fd6b5dc9abd,65c2532d89d54ddc0523b5dc,,,,,,,,,,,,,,,,,,,,,,,,,,,,,808.4613,811.4627,,811.4627,839.9544,"[[999,0],[999,99],[999,199],[999,299],[999,399],[46.5,498],[48.8,596],[48.8,695],[49.6,796],[49.8,895],[50,995],[50.3,1096],[50.4,1195],[50.4,1296],[50.2,1395],[50.2,1497],[50.2,1596],[50.2,1696],[50.2,1796],[50.2,1895],[50.7,1998],[50.9,2098],[50.9,2197],[50.9,2296],[50.9,2398],[50.8,2496],[50.7,2596],[50.5,2700],[49.1,2800],[47,2899],[46.2,3000],[44.4,3099],[44.2,3196],[44.2,3296],[44.2,3395],[44.2,3499],[44.2,3595],[44.2,3696],[44.4,3800],[44.5,3895],[44.6,3995],[44.6,4095],[44.6,4195],[44.6,4295],[44.6,4395],[44.6,4495],[44.6,4595],[44.6,4699],[44.7,4808],[44.8,4908],[44.8,5004],[44.8,5104],[44.9,5204],[45,5304],[45,5404],[47.3,5508],[56.6,5608],[64.5,5704],[64.5,5810],[68.7,5908],[70.2,6004],[71.2,6108],[71.3,6206],[71.3,6304],[70.7,6406],[70.4,6504],[70.4,6604],[70.4,6704],[70.4,6813],[70.4,6914],[70.4,7012],[70.4,7114],[70.3,7212],[70.3,7312],[70.2,7412],[70.2,7512],[70.1,7612],[69.9,7712],[69.8,7812],[69.8,7912],[69.8,8012],[69.8,8112],[69.8,8212],[69.8,8312],[69.8,8412],[69.8,8516],[69.8,8612],[69.8,8716],[69.8,8820],[69.7,8912],[69.7,9012],[69.7,9112],[69.5,9212],[69.5,9312],[69.5,9412],[69.5,9512],[69.5,9616],[69.5,9712],[69.5,9812],[70.3,9916],[71.6,10015],[73.5,10116],[81.2,10212],[81,10312],[78.8,10416],[77.3,10516],[77.1,10612],[77.1,10712],[77.7,10816],[77.7,10912],[77.7,11016],[77.7,11112],[77.7,11212],[77.7,11312],[78.7,11416],[78.9,11515],[79.2,11616],[80.2,11716],[80.3,11812],[80.3,11912],[80.3,12012],[80.1,12116],[80.1,12216],[80.5,12316],[80.5,12414],[81.1,12516],[84.5,12623],[85.2,12723],[86.1,12823],[86.2,12920],[86.2,13022],[86.3,13123],[86.8,13223],[87,13320],[87.5,13423],[88.8,13523],[89.7,13620],[91.2,13723],[91.3,13821],[91.6,13931],[92,14031],[92.1,14129],[92.1,14229],[92.1,14329],[92.7,14429],[93.1,14533],[94,14633],[94.4,14733],[94.4,14829],[94.4,14937],[94.4,15037],[94.4,15137],[94.4,15239],[94.4,15337],[94.4,15437],[94.4,15537],[94.4,15637],[94.7,15741],[95.7,15837],[95.8,15937],[95.8,16041],[95.8,16137],[95.8,16237],[95.8,16337],[95.8,16437],[95.8,16537],[97.3,16641],[97.9,16737],[98,16837],[98,16945],[98,17045],[97.7,17149],[97.7,17245],[97.7,17345],[97.6,17450],[97,17549],[96.3,17649],[96.2,17745],[99.9,17849],[100,17954],[100,18058],[100,18158],[100,18254],[100,18358],[99.6,18454],[99.6,18554],[100,18654],[100,18756],[100,18856],[100,18954],[100,19054],[100,19154],[100,19254],[100,19356],[100,19454],[100,19556],[100,19654],[100,19756],[100,19854],[100,19956],[100,20054],[100,20155],[100,20254],[100,20354],[100,20454],[100,20558],[100,20654],[100,20758],[100,20854],[100,20962],[100,21066],[100,21162],[100,21266],[100,21362],[100,21462],[100,21562],[100,21662],[99.8,21766],[99.7,21862],[99.7,21970],[99.7,22070],[99.7,22173],[99.7,22270],[98.9,22370],[98.9,22474],[98.9,22570],[98.9,22670],[99.8,22770],[100,22870],[100,22970],[100,23074],[100,23174],[100,23270],[100,23370],[99.9,23471],[99.8,23570],[99.8,23670],[99.8,23770],[99.7,23870],[99.7,23979],[99.7,24079],[99.5,24183],[99.5,24283],[99.1,24379],[99.1,24479],[99.1,24579],[98.7,24679],[98.7,24779],[99.1,24883],[100,24979],[100,25083],[100,25179],[100,25283],[100,25379],[100,25483],[100,25579],[100,25679],[100,25783],[100,25879],[100,25979],[99.8,26079],[99.5,26179],[99.5,26279],[99.6,26379],[99.6,26479],[100,26583],[100,26679],[100,26779],[100,26883],[99.9,26979],[99.9,27083],[99.9,27179],[99.9,27279],[99.9,27379],[100,27479],[100,27579],[100,27683],[100,27783],[100,27882],[100,27979],[100,28079],[100,28183],[100,28283],[100,28379],[100,28479]]",1,0,839.9544,842.146,99.140625,0.6348,"[{""rating"":99.140625,""responseTime"":0.6347999999820786}]",space,1.6685,,842.146,Not at all,0,842.1467,,,[],,0,11,11,11,1,audio/Narrative8Situation2.wav,audio/Narrative7Situation2.wav,audio/Narrative6Situation2.wav,audio/Narrative5Situation2.wav,3,3,3,3,,,,,,,,,,,,,,,,,,,,,,,,,,,,,,,,,,,,,,
,,,,,,5afa19a4f856320001cf920f,2024-02-06_10h41.47.356,group3.1-3.2-social-tom,2023.2.2,Win32,119.047619,65b1b24e3a500fd6b5dc9abd,65c2532d89d54ddc0523b5dc,,,,,,,,,,,,,,,,,,,,,,,,,,,,,842.1468,847.1502,,847.1502,859.7669,"[[50.3,512],[50.3,608],[50.3,708],[50.3,808],[50.3,908],[50.3,1008],[50.3,1111],[50.3,1208],[50.3,1308],[50.3,1420],[50.2,1520],[50.2,1616],[50.2,1716],[50.2,1816],[50.2,1916],[50.2,2020],[50.2,2116],[50.2,2216],[50.2,2316],[51.1,2428],[51.1,2524],[51.1,2628],[51.1,2724],[51.8,2824],[51.9,2924],[51.9,3028],[51.9,3124],[51.9,3224],[51.9,3324],[51.9,3428],[51.5,3528],[50.9,3624],[50.2,3735],[49.7,3835],[48.9,3935],[48.1,4035],[47.7,4133],[47.7,4233],[47.3,4335],[46.3,4435],[45.9,4533],[45.9,4633],[45.9,4733],[45.9,4833],[45.9,4933],[45.9,5033],[45.2,5135],[44.8,5233],[44.6,5333],[44.6,5433],[44.6,5533],[44.5,5633],[44.8,5737],[44.9,5833],[44.4,5937],[43.8,6037],[43.7,6133],[43.6,6233],[43,6337],[44.8,6445],[63.1,6545],[66.3,6641],[67,6745],[67.3,6841],[69.5,6945],[70.2,7044],[78.2,7145],[78.6,7241],[78.6,7341],[77.7,7445],[77.2,7541],[77.2,7641],[77.2,7741],[75.9,7845],[75.9,7941],[75.9,8041],[77.1,8141],[77.1,8241],[77.1,8341],[77.1,8441],[77.1,8541],[77.1,8641],[77.1,8741],[77.1,8841],[77.1,8941],[77.1,9041],[77.1,9141],[76.5,9245],[76.3,9341],[76.3,9441],[77.6,9545],[77.8,9641],[79.2,9745],[81.6,9845],[81.6,9941],[80.9,10043],[79.1,10143],[78.8,10241],[78.8,10341],[78.8,10443],[78.8,10543],[78.8,10641],[78.8,10741],[78.8,10841],[78.8,10941],[78.8,11041],[78.8,11143],[78.8,11241],[78,11343],[78,11445],[78,11541],[78,11641],[77.8,11741],[77.7,11841],[77.7,11941],[77.7,12041],[77.7,12145],[77.7,12241],[77.7,12341],[77.7,12441],[77.7,12541]]",1,0,859.7669,861.5416,84.296875,0.7293,"[{""rating"":84.296875,""responseTime"":0.7292999999821177}]",space,1.2496,,861.5418,Partially,50,861.5428,,,[],,0,12,12,12,1,audio/Narrative8Situation3.wav,audio/Narrative7Situation3.wav,audio/Narrative6Situation3.wav,audio/Narrative5Situation3.wav,4,8,5,3,,,,,,,,,,,,,,,,,,,,,,,,,,,,,,,,,,,,,,
,,,,,,5afa19a4f856320001cf920f,2024-02-06_10h41.47.356,group3.1-3.2-social-tom,2023.2.2,Win32,119.047619,65b1b24e3a500fd6b5dc9abd,65c2532d89d54ddc0523b5dc,,,,,,,,,,,,,,,,,,,,,,,,,,,,,861.543,863.55,,863.55,876.1533,"[[49.5,110],[49.5,210],[49.5,308],[49.8,408],[49.8,508],[49.8,608],[49.8,708],[49.8,808],[49.8,910],[49.8,1008],[49.8,1116],[49.8,1220],[49.9,1316],[49.9,1416],[49.9,1516],[49.9,1616],[49.9,1716],[49.9,1816],[49.9,1916],[50.9,2020],[51,2125],[51.3,2224],[51.3,2324],[51.3,2427],[51.2,2524],[51.2,2625],[51.2,2724],[50.8,2825],[50.5,2928],[50.5,3024],[50.5,3133],[52.1,3237],[53,3333],[53.4,3433],[53.4,3533],[53.9,3637],[54,3733],[54.1,3833],[54.1,3937],[54.1,4033],[54.7,4137],[54.7,4235],[54.9,4333],[55,4433],[55.6,4537],[56.3,4637],[57.2,4737],[57.3,4833],[57.3,4933],[57.3,5033],[57.3,5133],[57.3,5233],[57.3,5336],[58.2,5437],[58.6,5537],[58.7,5633],[59.1,5737],[59.8,5837],[59.8,5937],[60.5,6037],[61.5,6133],[61.5,6235],[61.5,6335],[61.2,6433],[61,6535],[60.8,6633],[60.5,6735],[60.5,6833],[60.5,6933],[61.3,7033],[61.3,7133],[61.3,7233],[61,7335],[59.9,7435],[58.8,7535],[58.7,7633],[58.4,7733],[57.6,7833],[57.1,7941],[57,8045],[56.9,8146],[56.8,8245],[56.8,8345],[56.8,8445],[56.7,8545],[56.6,8645],[57,8745],[57.7,8845],[58.2,8945],[59.8,9045],[67.6,9145],[70.5,9245],[70.5,9345],[70.5,9445],[70.4,9545],[70.3,9645],[70.3,9745],[70.3,9845],[70.1,9945],[69.5,10045],[67.3,10153],[66.8,10253],[66.8,10353],[66.8,10453],[67.5,10553],[68.9,10653],[69,10753],[69.3,10853],[72.8,10953],[72.9,11053],[72.9,11153],[72.9,11253],[72.9,11353],[72.9,11453],[72.7,11553],[72.6,11653],[72.6,11753],[72.6,11853],[72.6,11953],[72.6,12053],[72.5,12153],[72.5,12253],[72.5,12353],[72.5,12453],[72.5,12553]]",1,0,876.1535,878.4271,69.84375,0.6665,"[{""rating"":69.84375,""responseTime"":0.6665000000000418}]",space,1.7429,,878.4271,Not at all,0,878.4281,,,[],,0,13,13,13,1,audio/Narrative8Situation4.wav,audio/Narrative7Situation4.wav,audio/Narrative6Situation4.wav,audio/Narrative5Situation4.wav,3,3,2,1,,,,,,,,,,,,,,,,,,,,,,,,,,,,,,,,,,,,,,
,,,,,,5afa19a4f856320001cf920f,2024-02-06_10h41.47.356,group3.1-3.2-social-tom,2023.2.2,Win32,119.047619,65b1b24e3a500fd6b5dc9abd,65c2532d89d54ddc0523b5dc,,,,,,,,,,,,,,,,,,,,,,,,,,,,,878.4282,880.4332,,880.4332,888.3706,"[[52.3,400],[51,504],[50.4,600],[50.3,699],[50.2,799],[50.2,903],[50.3,1003],[51.3,1103],[52.3,1203],[53.1,1307],[53.2,1408],[54.8,1512],[55.2,1608],[55.2,1708],[55.2,1808],[55.2,1908],[58.6,2012],[68.4,2112],[69.5,2208],[69.5,2319],[73.4,2418],[74.8,2516],[75.2,2618],[75.2,2718],[75.2,2816],[75.2,2916],[75.2,3018],[75.2,3118],[75.2,3216],[75.2,3318],[75.2,3416],[75.2,3518],[75.2,3618],[75.2,3716],[75.2,3816],[75.2,3916],[75.2,4019],[75.2,4116],[75.2,4220],[75.2,4317],[75.2,4424],[75.5,4528],[76.1,4629],[76.8,4728],[77.1,4824],[77.4,4925],[77.4,5028],[75.6,5129],[73.7,5228],[72.1,5328],[69.8,5437],[67,5537],[65.9,5641],[66.3,5743],[68.1,5841],[68.1,5941],[68.4,6041],[68.4,6143],[67.3,6244],[67.1,6342],[67.1,6441],[68.1,6543],[68.1,6641],[68.1,6741],[68.1,6841],[68.7,6943],[68.9,7043],[69,7141],[69,7241],[69,7346],[69,7441],[69,7545],[68.1,7645],[66.6,7745],[65.2,7845]]",1,0,888.3707,892.6789,68.59375,3.8744,"[{""rating"":54.921875,""responseTime"":1.7164000000059332},{""rating"":68.59375,""responseTime"":3.8744000000059486}]",space,3.7907,,892.6789,Partially,50,892.68,,,[],,0,14,14,14,1,audio/Narrative8Situation5.wav,audio/Narrative7Situation5.wav,audio/Narrative6Situation5.wav,audio/Narrative5Situation5.wav,2,5,2,5,,,,,,,,,,,,,,,,,,,,,,,,,,,,,,,,,,,,,,
,,,,,,5afa19a4f856320001cf920f,2024-02-06_10h41.47.356,group3.1-3.2-social-tom,2023.2.2,Win32,119.047619,65b1b24e3a500fd6b5dc9abd,65c2532d89d54ddc0523b5dc,,,,,,,,,,,,,,,,,,,,,,,,,,,,,892.6803,894.6831,,894.6831,905.75,"[[47.7,100],[48,200],[48.3,299],[48.4,399],[49.2,500],[49.2,600],[49.2,700],[49.2,799],[49.2,900],[49.2,1000],[49.2,1104],[49.2,1200],[49.5,1300],[49.8,1403],[49.8,1499],[49.8,1600],[50.7,1700],[50.7,1799],[51.4,1903],[52.1,2003],[52.4,2103],[55.9,2204],[62.2,2303],[65.4,2399],[63.8,2500],[63.8,2599],[68.8,2703],[71.3,2803],[71.3,2899],[71.3,2999],[72.5,3104],[74.1,3200],[74.4,3299],[75,3400],[75.2,3499],[75.2,3600],[75,3700],[73.9,3800],[72.9,3899],[72.7,4000],[72.5,4099],[72.5,4208],[72.5,4308],[72.5,4408],[72.5,4508],[72.5,4608],[72.5,4708],[72.7,4808],[73,4908],[73.3,5008],[73.5,5108],[73.8,5208],[73.8,5308],[73.8,5408],[73.8,5508],[73.8,5608],[73.8,5708],[73.8,5808],[73.8,5908],[73.8,6008],[73.8,6108],[73.8,6208],[73.8,6308],[73.8,6408],[73.8,6508],[73.8,6608],[73.7,6708],[73.7,6808],[73.6,6908],[73.4,7008],[73.4,7108],[73.4,7208],[73.4,7308],[73.1,7408],[71.9,7508],[71.9,7608],[71.9,7708],[71.9,7808],[71.9,7908],[73.1,8008],[74.2,8108],[77,8208],[77.2,8308],[77.2,8408],[77.2,8508],[77.2,8608],[77.2,8708],[77.2,8808],[78.1,8908],[78.4,9008],[78.5,9108],[78.5,9216],[78.5,9316],[78.2,9416],[78,9516],[78,9616],[77.4,9716],[77.1,9816],[77,9916],[77,10016],[77,10116],[77,10221],[77,10325],[76.8,10424],[76.6,10524],[76.4,10624],[76.4,10724],[76.4,10824],[76.4,10924],[76.4,11024]]",1,0,905.75,909.2414,74.21875,1.803,"[{""rating"":70.859375,""responseTime"":0.6945999999940113},{""rating"":74.21875,""responseTime"":1.8029999999999973}]",space,2.9782,,909.2414,Partially,50,909.2419,,,[],,0,15,15,15,1,audio/Narrative8Situation6.wav,audio/Narrative7Situation6.wav,audio/Narrative6Situation6.wav,audio/Narrative5Situation6.wav,2,3,2,3,,,,,,,,,,,,,,,,,,,,,,,,,,,,,,,,,,,,,,
,,,,,,5afa19a4f856320001cf920f,2024-02-06_10h41.47.356,group3.1-3.2-social-tom,2023.2.2,Win32,119.047619,65b1b24e3a500fd6b5dc9abd,65c2532d89d54ddc0523b5dc,,,,,,,,,,,,,,,,,,,,,,,,,,,,,909.242,914.2497,,914.2497,939.0945,"[[50.8,399],[50.8,500],[50.8,599],[50.8,700],[50.8,800],[50.8,899],[52,1000],[52.7,1099],[52.7,1199],[52.7,1299],[52.7,1399],[52.3,1500],[52,1599],[52.6,1700],[52.9,1799],[53.5,1899],[53.6,2000],[53.9,2099],[55.5,2199],[57,2299],[57.3,2399],[57.3,2499],[57.3,2599],[57.7,2699],[58.1,2799],[59,2899],[60.2,3000],[60.9,3099],[61.2,3199],[61.2,3299],[61.2,3399],[61.5,3499],[61.5,3599],[61.5,3699],[61.5,3808],[61.9,3908],[61.9,4008],[62.1,4108],[63.5,4208],[63.9,4308],[63.9,4408],[63.9,4508],[63.9,4608],[63.9,4708],[63.9,4808],[63.9,4908],[63.9,5008],[63.9,5108],[63.9,5208],[63.9,5308],[63.7,5408],[63.6,5508],[63.4,5608],[63.3,5708],[63.2,5812],[62.9,5908],[62.4,6008],[61.4,6108],[60.8,6208],[60.5,6308],[60.4,6408],[60.4,6508],[60.4,6608],[60.4,6708],[60.4,6808],[60.4,6908],[60.4,7008],[60.4,7108],[60.4,7208],[60.4,7308],[60.4,7408],[60.4,7508],[60.4,7608],[60.4,7708],[62.1,7811],[66,7908],[66.6,8008],[66.6,8108],[66.6,8208],[66.6,8308],[66.6,8408],[66.6,8508],[67,8608],[67,8708],[66.5,8808],[65.9,8916],[65.8,9016],[74.1,9116],[81.3,9216],[83,9316],[87.7,9416],[88.8,9516],[95.9,9616],[95.9,9716],[96.5,9816],[97.9,9924],[98.4,10024],[99.8,10124],[100,10224],[100,10324],[99.8,10424],[99.5,10524],[99.5,10624],[99.5,10724],[99.5,10824],[100,10924],[100,11024],[100,11124],[100,11224],[100,11324],[100,11424],[100,11524],[100,11624],[100,11724],[99.8,11824],[99.5,11924],[99.5,12024],[99.3,12124],[99,12224],[98.8,12324],[98.4,12424],[98.4,12524],[97.9,12624],[97.8,12724],[97.8,12824],[97,12928],[96.3,13028],[96.3,13128],[96.4,13228],[96.4,13328],[96.4,13428],[96.4,13528],[96.4,13628],[96.4,13728],[96.5,13828],[96.4,13928],[95,14028],[94.4,14128],[93.7,14228],[93.7,14328],[94.1,14428],[94.1,14528],[94.1,14628],[94.1,14728],[94.1,14828],[94.1,14928],[94.1,15028],[95,15129],[95.3,15228],[96.1,15328],[97.5,15428],[98.8,15528],[99.8,15628],[99.9,15728],[99.9,15828],[99.9,15936],[99.9,16036],[100,16136],[100,16236],[100,16336],[100,16436],[100,16536],[100,16636],[99.9,16736],[99.8,16836],[99.8,16936],[99.8,17036],[99.8,17136],[99.8,17236],[99.8,17336],[99.8,17436],[99.8,17536],[99.8,17636],[99.8,17736],[99.8,17836],[99.8,17944],[99.8,18044],[99.8,18144],[99.8,18244],[98.3,18344],[98.3,18444],[98.3,18544],[98.8,18644],[99.5,18744],[99.5,18844],[99.5,18944],[99.4,19044],[97.3,19144],[97.9,19244],[98.6,19344],[98.8,19444],[99.4,19544],[99.5,19644],[99.5,19744],[100,19844],[100,19944],[100,20044],[100,20144],[100,20244],[100,20344],[100,20444],[100,20544],[100,20644],[100,20744],[100,20844],[100,20944],[100,21044],[100,21144],[100,21244],[100,21344],[100,21444],[100,21544],[100,21644],[100,21744],[100,21844],[100,21945],[100,22044],[100,22144],[100,22244],[100,22344],[100,22444],[100,22544],[100,22644],[100,22744],[100,22844],[100,22944],[100,23044],[100,23144],[99.1,23244],[99.1,23344],[99.4,23444],[100,23544],[100,23644],[100,23745],[100,23845],[100,23944],[100,24044],[100,24144],[100,24244],[100,24344],[100,24444],[100,24545],[100,24644],[100,24744],[100,24844]]",1,0,939.0946,941.1696,99.140625,1.0166,"[{""rating"":99.140625,""responseTime"":1.0165999999941278}]",space,1.55,,941.1697,Partially,50,941.1704,,,[],,0,16,16,16,1,audio/Narrative8Situation7.wav,audio/Narrative7Situation7.wav,audio/Narrative6Situation7.wav,audio/Narrative5Situation7.wav,3,5,5,4,,,,,,,,,,,,,,,,,,,,,,,,,,,,,,,,,,,,,,
,,,,,,5afa19a4f856320001cf920f,2024-02-06_10h41.47.356,group3.1-3.2-social-tom,2023.2.2,Win32,119.047619,65b1b24e3a500fd6b5dc9abd,65c2532d89d54ddc0523b5dc,,,,,,,,,,,,,,,,,,,,,,,,,,,,,941.1706,946.1746,,946.1746,953.016,"[[50.5,508],[50.4,612],[50.2,712],[50.2,808],[50.2,908],[50.2,1012],[50.2,1108],[50.5,1212],[50.8,1312],[50.8,1412],[50.9,1512],[50.9,1608],[50.9,1708],[50.9,1808],[50.9,1908],[50.9,2011],[50.9,2108],[50.9,2208],[50.9,2308],[50.9,2412],[50.9,2508],[50.9,2608],[50.9,2708],[50.9,2810],[50.9,2908],[50.9,3010],[50.9,3108],[51.3,3208],[51.5,3312],[51.5,3408],[51.5,3512],[51.5,3608],[51.5,3708],[51.5,3808],[51.6,3912],[53,4012],[53.5,4120],[53.6,4216],[53.5,4320],[51.3,4420],[47.5,4520],[46.4,4620],[46.1,4716],[45.2,4820],[44.1,4920],[43.3,5016],[43,5118],[42.2,5218],[41.6,5316],[41.1,5418],[40.7,5518],[40.4,5616],[40.4,5716],[40.4,5818],[40.4,5918],[40.4,6016],[40.4,6116],[40.4,6216],[40.4,6318],[40.4,6416],[40.4,6516],[40.4,6616],[40.4,6716],[40.4,6816]]",1,0,953.0161,958.0201,3.203125,3.62,"[{""rating"":3.203125000000001,""responseTime"":3.6200000000000045}]",space,4.4766,,958.0202,Partially,50,958.0207,,,[],,0,17,17,17,1,audio/Narrative8Situation8.wav,audio/Narrative7Situation8.wav,audio/Narrative6Situation8.wav,audio/Narrative5Situation8.wav,3,2,5,3,,,,,,,,,,,,,,,,,,,,,,,,,,,,,,,,,,,,,,
,,,,,,5afa19a4f856320001cf920f,2024-02-06_10h41.47.356,group3.1-3.2-social-tom,2023.2.2,Win32,119.047619,65b1b24e3a500fd6b5dc9abd,65c2532d89d54ddc0523b5dc,,,,,,,,,,,,,,,,,,,,,,,,,,,,,958.0208,962.0243,,962.0244,971.966,"[[46.6,403],[48.4,503],[49.7,603],[49.8,703],[49.8,799],[49.6,903],[48.8,1003],[48.4,1103],[47.5,1210],[46,1310],[45.6,1408],[45.4,1508],[45.4,1610],[45.4,1708],[45.4,1808],[45.4,1908],[45.4,2010],[45.4,2109],[45.4,2208],[45.4,2308],[45.4,2408],[45.4,2508],[45.4,2608],[45.4,2708],[45.4,2808],[45.4,2908],[45.4,3012],[45.4,3108],[45.3,3208],[43.5,3312],[42.8,3408],[42.4,3512],[42,3612],[40.5,3712],[37.7,3812],[35.9,3912],[34.5,4012],[32.7,4112],[31.5,4208],[31.2,4310],[30.5,4408],[28.2,4510],[27.7,4608],[27.7,4708],[27.7,4808],[27.3,4910],[25.2,5010],[24.4,5110],[23.8,5210],[23.4,5308],[22.4,5418],[22.1,5516],[21.9,5618],[21.9,5716],[21.2,5818],[20.3,5918],[19.5,6020],[19.1,6120],[19.1,6216],[18.2,6320],[16.8,6437],[15.7,6533],[15.5,6637],[15.2,6737],[13.5,6837],[8.5,6937],[5.1,7037],[4.2,7137],[3.9,7235],[3.6,7335],[3.6,7433],[3.3,7535],[2.8,7635],[2.7,7733],[2.6,7833],[2.3,7933],[2.3,8034],[2.3,8133],[2.3,8233],[2.3,8333],[2.3,8441],[2.3,8541],[2.3,8641],[2,8743],[1.7,8841],[1.6,8941],[1.6,9041],[1.6,9141],[1.6,9241],[1.5,9341],[1.4,9441],[1.3,9543],[1.3,9641],[1.3,9741],[1.3,9845],[1.3,9941]]",1,0,971.966,974.0825,0.390625,0.8055,"[{""rating"":0.390625,""responseTime"":0.8054999999999382}]",space,1.5951,,974.0826,Definitely yes,100,974.0836,,,[],,0,18,18,18,1,audio/Narrative8Situation9.wav,audio/Narrative7Situation9.wav,audio/Narrative6Situation9.wav,audio/Narrative5Situation9.wav,3,2,4,3,,,,,,,,,,,,,,,,,,,,,,,,,,,,,,,,,,,,,,
,,,,,,5afa19a4f856320001cf920f,2024-02-06_10h41.47.356,group3.1-3.2-social-tom,2023.2.2,Win32,119.047619,65b1b24e3a500fd6b5dc9abd,65c2532d89d54ddc0523b5dc,,,,,,,,,,,,,,,,,,,,,,,,,,,,,,,,,,,,,,,,,,,,,,,,,,,,,,,,,,,,,,,,,,,,,,974.0838,976.6827,space,2.0826,,976.6828,984.6579,space,7.6584,,,,,,,,,,,,,,,,,,,,,,,,,
