exp_question,consent.started,consent.stopped,consentResponse.keys,consentResponse.rt,consentResponse.duration,participantID,date,expName,psychopyVersion,OS,frameRate,STUDY_ID,SESSION_ID,opening1.started,opening1.stopped,keyEndingOpening1.keys,keyEndingOpening1.rt,keyEndingOpening1.duration,volumeAdjust.started,volumeAdjust.stopped,endingAdjust.keys,endingAdjust.rt,endingAdjust.duration,opening2.started,opening2.stopped,keyEndingOpening.keys,keyEndingOpening.rt,keyEndingOpening.duration,mouse.x,mouse.y,mouse.leftButton,mouse.midButton,mouse.rightButton,mouse.time,instructionLoop.thisRepN,instructionLoop.thisTrialN,instructionLoop.thisN,instructionLoop.thisIndex,instructionLoop.ran,readyForAudio.started,readyForAudio.stopped,fixation.started,run,audio_played,fixation.stopped,endPractice.keys,audioPre.started,audioPre.stopped,continuousResponses_audio,continuousSlider.response,continuousSlider.rt,intRating.started,intRating.stopped,intQuestionSlider.response,intQuestionSlider.rt,intQuestionSlider.history,confirmResponse.keys,confirmResponse.rt,confirmResponse.duration,catchQuestion.started,catch_label,catch_value,catchQuestion.stopped,catchQuestionSlider.response,catchQuestionSlider.rt,catchQuestionSlider.history,confirmResponse_2.keys,audioRunLoop.thisRepN,audioRunLoop.thisTrialN,audioRunLoop.thisN,audioRunLoop.thisIndex,audioRunLoop.ran,conditions1_1,conditions2_1,conditions1_2,conditions2_2,dur1_1,dur2_1,dur1_2,dur2_2,endPractice.rt,endPractice.duration,confirmResponse_2.rt,confirmResponse_2.duration,runIntervalBreak.started,runIntervalBreak.stopped,endingBreakKey.keys,endingBreakKey.rt,endingBreakKey.duration,connection.started,connection.stopped,connectionEnding.keys,connectionEnding.rt,connectionEnding.duration,readyForText.started,readyForText.stopped,textPre.started,run_dup,textPre.stopped,continuousResponses_text,textRunLoop.thisRepN,textRunLoop.thisTrialN,textRunLoop.thisN,textRunLoop.thisIndex,textRunLoop.ran,text1_1,text1_2,text2_1,text2_2,runBreakText.started,runBreakText.stopped,endingBreakKey_2.keys,ending.started,ending.stopped,endingEnding.keys,endingEnding.rt,endingEnding.duration
tom,0.0018,980.35,y,980.0027,,5bf311373a5bf00001401f64,2024-05-13_10h44.36.981,group3.1-3.2-social-tom,2023.2.2,Win32,59.52380952,65c5074098b851296ff0b7ed,66423330e8f5526c44d9f06b,,,,,,,,,,,,,,,,,,,,,,,,,,,,,,,,,,,,,,,,,,,,,,,,,,,,,,,,,,,,,,,,,,,,,,,,,,,,,,,,,,,,,,,,,,,,,,,,,,,,,,,,
,,,,,,5bf311373a5bf00001401f64,2024-05-13_10h44.36.981,group3.1-3.2-social-tom,2023.2.2,Win32,59.52380952,65c5074098b851296ff0b7ed,66423330e8f5526c44d9f06b,980.3502,986.5366,space,6.1572,,,,,,,,,,,,,,,,,,,,,,,,,,,,,,,,,,,,,,,,,,,,,,,,,,,,,,,,,,,,,,,,,,,,,,,,,,,,,,,,,,,,,,,,,,,,,,,,,,,,
,,,,,,5bf311373a5bf00001401f64,2024-05-13_10h44.36.981,group3.1-3.2-social-tom,2023.2.2,Win32,59.52380952,65c5074098b851296ff0b7ed,66423330e8f5526c44d9f06b,,,,,,986.5367,997.1978,space,10.3351,,,,,,,,,,,,,,,,,,,,,,,,,,,,,,,,,,,,,,,,,,,,,,,,,,,,,,,,,,,,,,,,,,,,,,,,,,,,,,,,,,,,,,,,,,,,,,,
,,,,,,5bf311373a5bf00001401f64,2024-05-13_10h44.36.981,group3.1-3.2-social-tom,2023.2.2,Win32,59.52380952,65c5074098b851296ff0b7ed,66423330e8f5526c44d9f06b,,,,,,,,,,,997.2107,1010.5633,space,13.3084,,[],[],[],[],[],[],0,0,0,0,1,,,,,,,,,,,,,,,,,,,,,,,,,,,,,,,,,,,,,,,,,,,,,,,,,,,,,,,,,,,,,,,,,,,,,,,,,,,,,,
,,,,,,5bf311373a5bf00001401f64,2024-05-13_10h44.36.981,group3.1-3.2-social-tom,2023.2.2,Win32,59.52380952,65c5074098b851296ff0b7ed,66423330e8f5526c44d9f06b,,,,,,,,,,,1010.5741,1048.7296,space,38.0324,,[],[],[],[],[],[],1,0,1,0,1,,,,,,,,,,,,,,,,,,,,,,,,,,,,,,,,,,,,,,,,,,,,,,,,,,,,,,,,,,,,,,,,,,,,,,,,,,,,,,
,,,,,,5bf311373a5bf00001401f64,2024-05-13_10h44.36.981,group3.1-3.2-social-tom,2023.2.2,Win32,59.52380952,65c5074098b851296ff0b7ed,66423330e8f5526c44d9f06b,,,,,,,,,,,1048.7376,1060.362,space,11.5783,,[],[],[],[],[],[],2,0,2,0,1,,,,,,,,,,,,,,,,,,,,,,,,,,,,,,,,,,,,,,,,,,,,,,,,,,,,,,,,,,,,,,,,,,,,,,,,,,,,,,
,,,,,,5bf311373a5bf00001401f64,2024-05-13_10h44.36.981,group3.1-3.2-social-tom,2023.2.2,Win32,59.52380952,65c5074098b851296ff0b7ed,66423330e8f5526c44d9f06b,,,,,,,,,,,1060.3716,1074.724,space,14.3309,,[],[],[],[],[],[],3,0,3,0,1,,,,,,,,,,,,,,,,,,,,,,,,,,,,,,,,,,,,,,,,,,,,,,,,,,,,,,,,,,,,,,,,,,,,,,,,,,,,,,
,,,,,,5bf311373a5bf00001401f64,2024-05-13_10h44.36.981,group3.1-3.2-social-tom,2023.2.2,Win32,59.52380952,65c5074098b851296ff0b7ed,66423330e8f5526c44d9f06b,,,,,,,,,,,1074.7341,1084.1942,space,9.4409,,[],[],[],[],[],[],4,0,4,0,1,,,,,,,,,,,,,,,,,,,,,,,,,,,,,,,,,,,,,,,,,,,,,,,,,,,,,,,,,,,,,,,,,,,,,,,,,,,,,,
,,,,,,5bf311373a5bf00001401f64,2024-05-13_10h44.36.981,group3.1-3.2-social-tom,2023.2.2,Win32,59.52380952,65c5074098b851296ff0b7ed,66423330e8f5526c44d9f06b,,,,,,,,,,,,,,,,,,,,,,,,,,,1084.203,1086.7781,1086.8007,1,audio/Narrative13Situation2.wav,1088.8111,,1088.8115,1118.5619,"[[999,2],[999,115],[999,199],[999,282],[999,365],[999,449],[999,532],[999,616],[999,699],[999,782],[999,865],[999,949],[999,1032],[999,1115],[999,1199],[999,1282],[999,1366],[999,1449],[999,1532],[999,1615],[999,1699],[999,1782],[999,1865],[999,1949],[999,2032],[999,2115],[999,2199],[999,2282],[999,2365],[999,2449],[999,2532],[999,2615],[999,2699],[999,2782],[999,2865],[999,2949],[999,3032],[999,3116],[999,3199],[999,3282],[999,3365],[999,3449],[999,3532],[999,3615],[999,3699],[999,3782],[999,3865],[999,3949],[999,4032],[999,4115],[999,4199],[999,4282],[999,4365],[999,4449],[999,4532],[999,4615],[999,4698],[999,4782],[999,4865],[999,4949],[999,5032],[999,5115],[999,5199],[999,5282],[999,5365],[999,5449],[999,5532],[999,5615],[999,5699],[999,5782],[999,5865],[999,5949],[999,6032],[999,6115],[999,6199],[999,6282],[999,6365],[999,6449],[999,6532],[999,6615],[999,6699],[999,6782],[999,6866],[999,6949],[999,7032],[999,7115],[999,7199],[999,7282],[999,7365],[999,7449],[999,7532],[999,7615],[999,7699],[999,7782],[999,7865],[999,7949],[999,8032],[999,8115],[999,8199],[999,8282],[999,8365],[999,8448],[999,8532],[999,8615],[999,8698],[999,8782],[999,8865],[999,8949],[999,9032],[999,9115],[999,9199],[999,9284],[999,9365],[999,9449],[999,9532],[999,9615],[999,9698],[999,9782],[999,9866],[999,9949],[999,10032],[999,10115],[999,10199],[999,10282],[999,10365],[999,10449],[999,10532],[999,10615],[999,10699],[999,10783],[999,10865],[52,10949],[52,11032],[52,11116],[52.5,11198],[52.6,11282],[52.6,11365],[52.3,11448],[51.7,11532],[50.7,11615],[50.6,11698],[50.6,11782],[50.3,11866],[49.9,11949],[49.3,12032],[49.3,12115],[49.6,12199],[50.3,12282],[50.8,12365],[50.8,12448],[50.8,12532],[50.8,12615],[50.8,12698],[50.8,12782],[50.8,12865],[50.8,12948],[50.8,13032],[50.8,13115],[50.8,13198],[50.8,13282],[50.8,13365],[50.8,13449],[50.8,13532],[50.3,13615],[50.1,13698],[50.1,13782],[50.1,13865],[50.1,13949],[50.1,14032],[50.1,14115],[50.1,14199],[50.1,14281],[50.1,14365],[50.1,14448],[50.1,14532],[50.1,14615],[50,14698],[50,14782],[50,14865],[50,14949],[50,15034],[50,15115],[50,15198],[50,15281],[50,15365],[50,15448],[50,15532],[50,15615],[50,15698],[50,15782],[50,15865],[50.4,15948],[51.3,16032],[51.4,16115],[52,16199],[52.1,16282],[52.3,16365],[52.6,16449],[53.1,16532],[53.3,16615],[53.5,16698],[53.9,16782],[54.1,16865],[54.3,16949],[54.4,17032],[54.4,17115],[54.5,17198],[54.5,17282],[54.5,17365],[52.4,17449],[49.5,17532],[46.6,17615],[43.1,17698],[37.2,17782],[32.3,17866],[28.3,17949],[26.5,18032],[23.5,18115],[23.4,18199],[23.4,18282],[23.4,18365],[23.4,18448],[23.9,18532],[23.9,18615],[24.2,18698],[24.4,18782],[24.5,18865],[24.5,18948],[24.5,19032],[24.5,19115],[25,19198],[25.7,19282],[25.7,19365],[25.8,19448],[25.8,19531],[25.8,19615],[25.8,19698],[25.8,19782],[25.8,19865],[26,19948],[26.3,20032],[26.6,20115],[26.8,20198],[26.8,20282],[26.8,20365],[26.7,20448],[26.5,20532],[26.3,20616],[26.1,20698],[26.1,20782],[26.1,20865],[26.1,20948],[26.1,21032],[26.1,21115],[26.1,21199],[26.1,21282],[26.1,21365],[26.1,21448],[26.3,21532],[26.3,21615],[26.3,21698],[26.3,21781],[26.3,21865],[26.3,21949],[26.3,22032],[26.3,22115],[26.3,22198],[26.3,22281],[26.3,22365],[26.3,22448],[26.3,22531],[26.1,22615],[26.1,22698],[26.1,22782],[26.1,22865],[26.1,22948],[26.1,23031],[26.1,23115],[26.1,23198],[26.1,23281],[26.1,23365],[26.1,23448],[26.1,23531],[26.1,23615],[26.1,23698],[26.1,23782],[26.1,23865],[26.1,23948],[26.1,24031],[26.1,24115],[26.1,24198],[26.1,24282],[26.1,24365],[26.1,24448],[26.1,24532],[26.1,24615],[26.1,24698],[26.1,24781],[26.1,24865],[26.1,24948],[25.8,25032],[25.8,25115],[25.8,25198],[25.8,25281],[25.8,25365],[25.8,25448],[25.8,25531],[25.8,25615],[25.8,25698],[25.8,25781],[25.8,25865],[25.8,25948],[25.8,26031],[25.8,26115],[25.8,26198],[25.8,26281],[25.8,26365],[25.8,26448],[25.8,26532],[25.8,26615],[25.8,26698],[25.8,26781],[25.8,26865],[25.8,26948],[25.8,27032],[25.8,27115],[25.8,27198],[25.8,27281],[25.8,27365],[25.8,27448],[25.8,27531],[25.8,27615],[25.8,27698],[25.8,27781],[25.8,27865],[25.8,27948],[25.8,28031],[25.8,28115],[25.8,28198],[25.8,28281],[25.8,28365],[25.8,28448],[25.8,28531],[25.8,28615],[26.3,28698],[27.7,28781],[29.1,28865],[30.2,28948],[33.6,29032],[34.9,29115],[35.4,29199],[35.6,29281],[35.9,29365],[36.3,29448],[38.6,29532],[40.5,29615],[40.6,29698]]",1,0,1118.5627,1127.2275,39.58333333,5.8904,"[{""rating"":49.583331743876144,""responseTime"":4.108499999999822},{""rating"":39.58333333333333,""responseTime"":5.890400000095269}]",space,8.1242,,1127.2349,Half the time,50,1127.2384,,,[],,0,0,0,0,1,audio/Narrative13Situation2.wav,audio/Narrative13Situation2.wav,audio/Narrative13Situation2.wav,audio/Narrative13Situation2.wav,2,2,2,2,,,,,,,,,,,,,,,,,,,,,,,,,,,,,,,,,,,,,
,,,,,,5bf311373a5bf00001401f64,2024-05-13_10h44.36.981,group3.1-3.2-social-tom,2023.2.2,Win32,59.52380952,65c5074098b851296ff0b7ed,66423330e8f5526c44d9f06b,,,,,,,,,,,,,,,,,,,,,,,,,,,,,1127.2387,1,audio/Narrative7Situation1.wav,1129.5102,space,1129.5103,1185.4091,"[[45.6,1020],[45.7,1099],[45.3,1183],[44.4,1266],[43.6,1349],[43.3,1432],[43.1,1516],[49.9,2683],[50.7,2766],[51.3,2849],[51.4,2932],[51.5,3015],[51.5,3099],[51.5,3182],[51.6,3266],[51.6,3349],[51.6,3432],[51.4,3516],[51.1,3599],[51.1,3682],[50.6,3766],[50.2,3850],[49.9,3932],[49.8,4016],[49.8,4099],[49.8,4182],[49.8,4266],[49.8,4349],[49.9,4433],[50.3,4516],[50.3,4599],[50.5,4682],[50.5,4766],[50.5,4849],[50.5,4932],[50.5,5016],[50.5,5099],[50.5,5182],[50.5,5266],[50.5,5349],[50.5,5432],[50.5,5516],[50.5,5599],[50.5,5682],[50.5,5766],[50.5,5849],[50.5,5932],[50.5,6016],[50.5,6099],[50.5,6182],[50.5,6266],[50.5,6349],[50.5,6432],[50.5,6516],[50.5,6599],[50.5,6682],[50.5,6766],[50.5,6849],[50.5,6932],[50.5,7016],[50.5,7099],[50.5,7182],[50.5,7266],[50.5,7349],[50.5,7432],[50.5,7516],[50.5,7599],[50.5,7682],[50.5,7766],[50.5,7849],[50.5,7932],[50.5,8016],[50.5,8099],[50.5,8182],[50.5,8266],[50.5,8350],[50.5,8432],[50.5,8516],[50.5,8599],[50.5,8682],[50.5,8765],[50.5,8849],[50.5,8932],[50.5,9016],[50.5,9099],[50.5,9182],[50.5,9265],[50.5,9349],[50.5,9432],[50.5,9516],[50.5,9599],[50.5,9682],[50.5,9766],[50.5,9849],[50.5,9932],[50.5,10016],[50.5,10099],[50.5,10182],[50.5,10266],[50.5,10349],[50.5,10432],[50.5,10516],[50.5,10599],[50.5,10682],[50.5,10766],[50.5,10849],[50.5,10932],[50.5,11016],[50.5,11099],[50.5,11182],[50.5,11266],[50.5,11349],[50.5,11432],[50.5,11515],[50.5,11599],[50.5,11682],[50.5,11765],[50.5,11849],[50.5,11932],[50.5,12015],[50.5,12099],[50.5,12182],[50.5,12265],[50.5,12349],[50.5,12432],[50.5,12515],[50.5,12599],[50.5,12682],[50.5,12766],[50.5,12849],[50.5,12932],[50.5,13016],[50.5,13099],[50.5,13182],[50.5,13266],[50.5,13349],[50.5,13432],[50.5,13515],[50.5,13599],[50.5,13682],[50.5,13765],[50.5,13849],[50.5,13932],[50.5,14015],[50.5,14099],[50.5,14182],[50.5,14265],[50.5,14349],[50.5,14432],[7.9,20434],[40,21432],[44.9,23515],[45.2,23599],[45.5,23682],[45.6,23765],[45.6,23849],[45.6,23932],[45.7,24015],[49.7,24099],[50.8,24182],[50.9,24265],[51,24349],[51,24432],[51,24515],[51,24599],[51,24682],[51,24765],[51,24849],[51,24932],[50.7,25015],[50.6,25098],[50.4,25182],[50.4,25265],[50.4,25349],[50.4,25432],[50.4,25515],[50.4,25599],[50.6,25682],[50.6,25765],[50.6,25849],[50.7,25932],[50.7,26015],[50.7,26099],[50.7,26182],[50.8,26265],[50.8,26349],[51,26432],[51.1,26515],[51.1,26599],[51.1,26682],[51.3,26765],[51.4,26849],[51.4,26932],[51.4,27015],[51.4,27099],[52.5,27182],[52.5,27265],[52.5,27349],[52.5,27432],[54.2,27516],[56,27599],[61.7,27682],[63.8,27765],[64.5,27849],[66.4,27932],[66.9,28015],[67.1,28099],[67.1,28182],[67.1,28265],[67.1,28348],[67.2,28432],[67.2,28515],[67.2,28598],[67.2,28682],[67.2,28765],[67.2,28849],[67.2,28932],[67.2,29015],[67.2,29098],[67.2,29182],[67.2,29265],[67.2,29349],[67.2,29432],[67.2,29515],[67.2,29598],[67.2,29682],[67.2,29765],[67.2,29849],[67.2,29932],[67.2,30015],[67.2,30099],[67.2,30182],[67.2,30265],[67.4,30349],[67.5,30432],[67.5,30515],[67.5,30598],[67.7,30682],[67.7,30765],[67.7,30849],[67.7,30932],[67.7,31015],[67.7,31099],[67.7,31182],[67.7,31265],[67.7,31348],[67.7,31432],[67.7,31516],[67.7,31598],[67.7,31682],[67.7,31765],[67.7,31849],[67.7,31932],[67.7,32015],[67.7,32099],[67.7,32182],[67.7,32265],[67.7,32349],[67.7,32432],[67.7,32515],[67.7,32599],[67.7,32682],[67.7,32765],[67.7,32849],[67.7,32932],[67.7,33015],[67.7,33098],[67.7,33182],[67.7,33265],[67.7,33348],[67.7,33432],[67.7,33515],[67.7,33598],[67.7,33682],[67.7,33765],[67.7,33848],[67.7,33932],[67.7,34015],[67.7,34099],[67.7,34182],[67.7,34265],[67.7,34348],[67.7,34432],[67.7,34515],[67.7,34599],[67.7,34682],[67.7,34765],[67.7,34848],[67.7,34932],[67.7,35015],[67.7,35098],[67.7,35182],[67.5,35265],[65.5,35349],[59.9,35432],[43.2,36432],[45.8,36515],[50.9,36599],[51.8,36682],[51.8,36765],[51.8,36848],[51.8,36932],[51.3,37015],[50.7,37099],[50.3,37182],[50.3,37265],[50.3,37349],[50.3,37432],[50.3,37515],[50.3,37599],[50.3,37682],[50.3,37765],[50.3,37848],[50.3,37932],[50.3,38015],[50.3,38098],[50.3,38182],[50.3,38265],[50.3,38348],[50.3,38432],[50,38515],[50,38598],[50,38682],[50,38765],[50,38848],[50,38932],[50,39015],[50.2,39098],[50.4,39182],[50.4,39265],[50.4,39348],[50.4,39432],[50.4,39515],[50.4,39598],[50.6,39682],[50.6,39765],[50.7,39848],[50.7,39932],[50.7,40015],[50.7,40098],[50.7,40181],[50.7,40265],[50.7,40349],[50.7,40432],[50.7,40515],[50.7,40598],[50.7,40682],[50.7,40765],[50.7,40848],[50.7,40932],[50.7,41015],[50.7,41098],[50.7,41182],[50.7,41265],[50.7,41348],[50.7,41432],[50.7,41515],[50.7,41598],[50.7,41682],[50.7,41765],[50.7,41848],[50.7,41932],[50.7,42015],[50.7,42098],[50.7,42182],[50.7,42265],[50.7,42348],[50.7,42432],[50.7,42515],[50.7,42599],[50.7,42682],[50.7,42765],[50.7,42848],[50.7,42932],[50.7,43015],[50.7,43098],[50.7,43182],[50.7,43265],[50.7,43348],[50.7,43432],[50.7,43515],[50.7,43598],[50.7,43682],[50.7,43765],[50.7,43848],[50.7,43932],[50.7,44015],[50.7,44098],[50.7,44182],[50.7,44265],[50.7,44348],[50.7,44432],[50.7,44515],[50.7,44598],[50.7,44682],[50.7,44765],[50.7,44848],[50.7,44932],[50.7,45015],[50.7,45098],[50.7,45182],[50.7,45265],[50.7,45348],[50.7,45432],[50.7,45515],[50.7,45598],[50.7,45682],[50.7,45765],[50.7,45848],[50.7,45932],[50.7,46015],[50.7,46098],[50.7,46182],[50.7,46265],[50.7,46348],[50.7,46432],[50.7,46515],[50.7,46598],[50.7,46682],[50.7,46765],[50.7,46848],[50.7,46932],[50.7,47015],[50.7,47098],[50.7,47182],[50.7,47265],[50.7,47348],[50.7,47432],[50.7,47515],[50.7,47598],[50.7,47682],[50.7,47765],[50.7,47848],[50.7,47932],[50.7,48015],[50.7,48098],[50.7,48182],[50.7,48265],[50.7,48348],[50.7,48432],[50.7,48515],[50.7,48598],[50.7,48682],[50.7,48765],[50.7,48848],[50.7,48932],[50.7,49014],[50.7,49098],[50.7,49182],[50.7,49265],[50.7,49348],[50.7,49432],[50.7,49515],[50.7,49598],[50.7,49682],[50.7,49765],[50.7,49848],[50.7,49932],[50.7,50015],[50.7,50098],[50.7,50182],[50.7,50265],[50.7,50348],[50.7,50432],[50.7,50515],[50.7,50598],[50.7,50682],[50.7,50765],[50.7,50848],[50.7,50932],[50.7,51015],[50.7,51098],[50.7,51182],[50.7,51265],[50.7,51348],[50.7,51432],[50.7,51515],[50.7,51598],[50.7,51682],[50.7,51765],[50.7,51848],[50.7,51932],[50.7,52015],[50.7,52098],[50.7,52182],[50.7,52265],[50.8,52350],[50.8,52432],[50.9,52515],[50.9,52600],[50.9,52682],[50.9,52765],[50.9,52848],[50.9,52932],[50.9,53015],[50.9,53098],[50.9,53182],[50.9,53266],[50.9,53348],[50.9,53431],[50.9,53515],[50.9,53598],[50.9,53682],[50.9,53765],[50.9,53848],[50.9,53932],[50.9,54015],[50.9,54098],[50.9,54181],[50.9,54264],[50.9,54348],[50.9,54432],[50.9,54515],[50.9,54598],[50.9,54682],[50.9,54765],[50.9,54848],[50.9,54932],[50.9,55015],[50.9,55098],[50.9,55181],[50.9,55265],[50.8,55348],[50.4,55431]]",1,0,1185.4094,1190.2754,29.6875,1.5441,"[{""rating"":29.6875,""responseTime"":1.5440999999045744}]",space,4.3149,,1190.2754,Half the time,50,1190.2844,,,[],,0,1,1,1,1,audio/Narrative7Situation1.wav,audio/Narrative8Situation1.wav,audio/Narrative5Situation1.wav,audio/Narrative6Situation1.wav,2,5,5,2,2.2527,,,,,,,,,,,,,,,,,,,,,,,,,,,,,,,,,,,,
,,,,,,5bf311373a5bf00001401f64,2024-05-13_10h44.36.981,group3.1-3.2-social-tom,2023.2.2,Win32,59.52380952,65c5074098b851296ff0b7ed,66423330e8f5526c44d9f06b,,,,,,,,,,,,,,,,,,,,,,,,,,,,,1190.2845,1,audio/Narrative7Situation2.wav,1193.2923,,1193.2924,1200.7752,[],1,0,1200.7754,1206.7027,1.458334923,3.155,"[{""rating"":1.4583349227905273,""responseTime"":3.1550000000002}]",space,5.3856,,1206.7028,All the time,100,1206.7068,,,[],,0,2,2,2,1,audio/Narrative7Situation2.wav,audio/Narrative8Situation2.wav,audio/Narrative5Situation2.wav,audio/Narrative6Situation2.wav,3,3,3,3,,,,,,,,,,,,,,,,,,,,,,,,,,,,,,,,,,,,,
,,,,,,5bf311373a5bf00001401f64,2024-05-13_10h44.36.981,group3.1-3.2-social-tom,2023.2.2,Win32,59.52380952,65c5074098b851296ff0b7ed,66423330e8f5526c44d9f06b,,,,,,,,,,,,,,,,,,,,,,,,,,,,,1206.707,1,audio/Narrative7Situation3.wav,1214.7178,,1214.7179,1223.9747,"[[999,10],[999,90],[999,173],[999,256],[999,340],[999,423],[999,506],[999,590],[999,673],[999,757],[999,840],[999,923],[999,1006],[999,1090],[999,1173],[999,1256],[999,1340],[999,1423],[999,1506],[999,1590],[999,1673],[999,1757],[999,1840],[999,1923],[999,2007],[999,2090],[999,2173],[999,2257],[999,2340],[999,2423],[999,2507],[999,2590],[999,2674],[999,2756],[999,2840],[999,2923],[999,3006],[999,3090],[999,3173],[999,3256],[999,3340],[999,3423],[999,3506],[999,3590],[999,3673],[999,3756],[999,3840],[999,3923],[999,4006],[999,4090],[999,4173],[999,4256],[999,4340],[999,4423],[999,4506],[999,4590],[999,4673],[999,4756],[999,4840],[999,4923],[999,5006],[999,5090],[999,5173],[999,5256],[999,5340],[999,5423],[999,5506],[999,5590],[999,5673],[999,5756],[999,5840],[999,5923],[999,6007],[999,6089],[999,6173],[999,6256],[999,6340],[999,6423],[999,6506],[999,6590],[999,6673],[999,6756],[999,6840],[999,6923],[999,7006],[999,7090],[999,7173],[999,7256],[999,7340],[999,7423],[999,7506],[999,7590],[999,7673],[999,7756],[999,7840],[999,7923],[999,8006],[999,8090],[999,8173],[999,8256],[999,8340],[999,8423],[999,8506],[999,8590],[999,8673],[999,8756],[999,8840],[999,8923],[999,9006],[999,9090],[999,9173],[999,9256]]",1,0,1223.9748,1228.1079,30.00000318,2.9528,"[{""rating"":30.00000317891439,""responseTime"":2.9528000001907913}]",space,3.5833,,1228.1081,Not at all,0,1228.1137,,,[],,0,3,3,3,1,audio/Narrative7Situation3.wav,audio/Narrative8Situation3.wav,audio/Narrative5Situation3.wav,audio/Narrative6Situation3.wav,8,4,3,5,,,,,,,,,,,,,,,,,,,,,,,,,,,,,,,,,,,,,
,,,,,,5bf311373a5bf00001401f64,2024-05-13_10h44.36.981,group3.1-3.2-social-tom,2023.2.2,Win32,59.52380952,65c5074098b851296ff0b7ed,66423330e8f5526c44d9f06b,,,,,,,,,,,,,,,,,,,,,,,,,,,,,1228.1138,1,audio/Narrative7Situation4.wav,1231.1246,,1231.1247,1242.8579,"[[999,0],[999,83],[999,166],[999,249],[999,333],[999,416],[999,500],[999,583],[999,666],[999,749],[999,832],[999,916],[999,999],[999,1083],[999,1166],[999,1249],[999,1332],[999,1416],[999,1499],[999,1582],[999,1666],[999,1749],[999,1833],[999,1916],[999,1999],[999,2083],[999,2166],[999,2249],[999,2333],[999,2416],[999,2499],[999,2582],[999,2666],[999,2749],[999,2833],[999,2916],[999,2999],[999,3082],[999,3166],[999,3249],[999,3333],[999,3417],[999,3499],[999,3582],[999,3666],[999,3749],[999,3832],[999,3916],[999,3999],[999,4083],[999,4166],[999,4260],[999,4342],[999,4416],[999,4503],[999,4582],[999,4666],[999,4756],[999,4834],[999,4926],[999,4999],[999,5092],[999,5177],[999,5251],[999,5333],[999,5416],[999,5509],[999,5593],[999,5669],[999,5757],[999,5842],[999,5918],[999,5999],[999,6085],[999,6166],[999,6259],[999,6342],[999,6425],[999,6502],[999,6592],[999,6677],[999,6759],[999,6835],[999,6926],[999,7001],[999,7082],[999,7176],[999,7257],[999,7334],[999,7416],[999,7509],[999,7592],[999,7673],[999,7752],[999,7833],[999,7927],[999,8009],[999,8083],[999,8167],[999,8259],[999,8342],[999,8425],[999,8509],[999,8586],[999,8676],[999,8750],[999,8843],[999,8926],[999,9009],[999,9084],[29.4,9175],[29.6,9266],[30.2,9349],[30.8,9432],[32.1,9516],[32.3,9599],[32.4,9683],[32.7,9766],[33,9849],[48.4,11266],[46.4,11349],[46.4,11432],[47.1,11599],[47.7,11682]]",1,0,1242.858,1245.3577,69.37499841,1.2446,"[{""rating"":69.37499841054282,""responseTime"":1.2446000001432367}]",space,1.9497,,1245.3579,Not at all,0,1245.3611,,,[],,0,4,4,4,1,audio/Narrative7Situation4.wav,audio/Narrative8Situation4.wav,audio/Narrative5Situation4.wav,audio/Narrative6Situation4.wav,3,3,1,2,,,,,,,,,,,,,,,,,,,,,,,,,,,,,,,,,,,,,
,,,,,,5bf311373a5bf00001401f64,2024-05-13_10h44.36.981,group3.1-3.2-social-tom,2023.2.2,Win32,59.52380952,65c5074098b851296ff0b7ed,66423330e8f5526c44d9f06b,,,,,,,,,,,,,,,,,,,,,,,,,,,,,1245.3618,1,audio/Narrative7Situation5.wav,1250.3742,,1250.3742,1258.8742,"[[999,8],[999,83],[999,167],[999,249],[999,333],[999,416],[999,499],[999,583],[999,666],[999,750],[999,833],[999,916],[999,999],[999,1083],[999,1166],[999,1250],[999,1333],[999,1416],[999,1499],[999,1583],[999,1666],[999,1750],[999,1833],[999,1916],[999,1999],[999,2083],[999,2166],[999,2250],[999,2333],[999,2416],[999,2499],[999,2583],[999,2666],[999,2750],[999,2833],[999,2916],[999,2999],[999,3083],[999,3166],[999,3249],[999,3333],[999,3416],[999,3499],[999,3583],[999,3666],[999,3749],[999,3833],[999,3916],[999,3999],[999,4083],[999,4166],[999,4249],[999,4333],[999,4416],[999,4499],[999,4583],[999,4666],[999,4749],[999,4833],[999,4916],[999,4999],[999,5083],[999,5166],[999,5249],[999,5333],[999,5416],[999,5499],[999,5583],[999,5666],[999,5749],[999,5832],[999,5916],[999,5999],[999,6083],[999,6166],[999,6249],[999,6333],[999,6416],[999,6499],[999,6583],[999,6666],[999,6749],[999,6833],[999,6916],[999,6999],[999,7083],[999,7166],[999,7249],[999,7333],[999,7416],[999,7499],[999,7582],[999,7666],[999,7749],[999,7833],[999,7916],[999,7999],[999,8083],[999,8166],[999,8249],[999,8333],[999,8416],[999,8499]]",1,0,1258.8745,1263.134,26.25000477,3.0862,"[{""rating"":26.250004768371582,""responseTime"":3.086200000047711}]",space,3.7097,,1263.1341,All the time,100,1263.137,,,[],,0,5,5,5,1,audio/Narrative7Situation5.wav,audio/Narrative8Situation5.wav,audio/Narrative5Situation5.wav,audio/Narrative6Situation5.wav,5,2,5,2,,,,,,,,,,,,,,,,,,,,,,,,,,,,,,,,,,,,,
,,,,,,5bf311373a5bf00001401f64,2024-05-13_10h44.36.981,group3.1-3.2-social-tom,2023.2.2,Win32,59.52380952,65c5074098b851296ff0b7ed,66423330e8f5526c44d9f06b,,,,,,,,,,,,,,,,,,,,,,,,,,,,,1263.1372,1,audio/Narrative7Situation6.wav,1266.1409,,1266.1411,1276.126,"[[999,1],[999,91],[999,166],[999,249],[999,335],[999,424],[999,510],[999,585],[999,666],[999,749],[999,841],[999,917],[999,1002],[999,1082],[999,1176],[999,1257],[999,1335],[999,1417],[999,1501],[999,1592],[999,1666],[999,1757],[999,1832],[999,1917],[999,2009],[999,2092],[999,2174],[999,2249],[999,2332],[999,2425],[999,2508],[999,2583],[999,2675],[999,2760],[999,2833],[999,2915],[999,2999],[999,3087],[999,3170],[999,3251],[999,3341],[999,3416],[999,3509],[999,3592],[999,3666],[999,3751],[999,3841],[999,3916],[999,3999],[999,4083],[999,4166],[999,4249],[999,4333],[999,4418],[999,4508],[999,4587],[999,4673],[999,4751],[999,4834],[999,4925],[999,5008],[999,5091],[999,5166],[999,5249],[999,5334],[999,5424],[999,5507],[999,5582],[999,5666],[999,5758],[999,5841],[999,5925],[999,5999],[999,6092],[999,6168],[999,6259],[999,6332],[999,6419],[999,6507],[999,6584],[999,6666],[999,6749],[999,6832],[999,6925],[999,6999],[999,7091],[999,7174],[999,7249],[999,7341],[999,7425],[999,7504],[999,7591],[999,7666],[999,7749],[999,7834],[999,7925],[999,7999],[999,8091],[999,8166],[999,8250],[999,8332],[999,8415],[999,8500],[999,8592],[999,8667],[999,8749],[999,8842],[999,8925],[999,9008],[999,9091],[999,9174],[999,9255],[999,9332],[999,9425],[999,9508],[999,9592],[999,9675],[999,9759],[999,9835],[999,9925]]",1,0,1276.1263,1286.0011,10.72916587,3.5652,"[{""rating"":10.729165871938068,""responseTime"":3.5652000000475255}]",space,9.3181,,1286.0012,Half the time,50,1286.0148,,,[],,0,6,6,6,1,audio/Narrative7Situation6.wav,audio/Narrative8Situation6.wav,audio/Narrative5Situation6.wav,audio/Narrative6Situation6.wav,3,2,3,2,,,,,,,,,,,,,,,,,,,,,,,,,,,,,,,,,,,,,
,,,,,,5bf311373a5bf00001401f64,2024-05-13_10h44.36.981,group3.1-3.2-social-tom,2023.2.2,Win32,59.52380952,65c5074098b851296ff0b7ed,66423330e8f5526c44d9f06b,,,,,,,,,,,,,,,,,,,,,,,,,,,,,1286.015,1,audio/Narrative7Situation7.wav,1291.0234,,1291.0235,1308.2063,[],1,0,1308.2065,1312.273,49.89583492,2.8384,"[{""rating"":49.89583492279053,""responseTime"":2.838400000095362}]",space,3.5194,,1312.2732,Half the time,50,1312.276,,,[],,0,7,7,7,1,audio/Narrative7Situation7.wav,audio/Narrative8Situation7.wav,audio/Narrative5Situation7.wav,audio/Narrative6Situation7.wav,5,3,4,5,,,,,,,,,,,,,,,,,,,,,,,,,,,,,,,,,,,,,
,,,,,,5bf311373a5bf00001401f64,2024-05-13_10h44.36.981,group3.1-3.2-social-tom,2023.2.2,Win32,59.52380952,65c5074098b851296ff0b7ed,66423330e8f5526c44d9f06b,,,,,,,,,,,,,,,,,,,,,,,,,,,,,1312.2765,1,audio/Narrative7Situation8.wav,1314.2898,,1314.2898,1324.323,[],1,0,1324.3232,1328.4559,26.14583174,3.0683,"[{""rating"":26.145831743876137,""responseTime"":3.06829999995216}]",space,3.5826,,1328.456,Half the time,50,1328.4596,,,[],,0,8,8,8,1,audio/Narrative7Situation8.wav,audio/Narrative8Situation8.wav,audio/Narrative5Situation8.wav,audio/Narrative6Situation8.wav,2,3,3,5,,,,,,,,,,,,,,,,,,,,,,,,,,,,,,,,,,,,,
,,,,,,5bf311373a5bf00001401f64,2024-05-13_10h44.36.981,group3.1-3.2-social-tom,2023.2.2,Win32,59.52380952,65c5074098b851296ff0b7ed,66423330e8f5526c44d9f06b,,,,,,,,,,,,,,,,,,,,,,,,,,,,,1328.4599,1,audio/Narrative7Situation9.wav,1330.4723,,1330.4724,1339.1055,[],1,0,1339.1057,1346.6219,69.58333651,6.0217,"[{""rating"":69.58333651224771,""responseTime"":6.021700000047758}]",space,6.9839,,1346.622,Half the time,50,1346.6246,,,[],,0,9,9,9,1,audio/Narrative7Situation9.wav,audio/Narrative8Situation9.wav,audio/Narrative5Situation9.wav,audio/Narrative6Situation9.wav,2,3,3,4,,,,,,,,,,,,,,,,,,,,,,,,,,,,,,,,,,,,,
,,,,,,5bf311373a5bf00001401f64,2024-05-13_10h44.36.981,group3.1-3.2-social-tom,2023.2.2,Win32,59.52380952,65c5074098b851296ff0b7ed,66423330e8f5526c44d9f06b,,,,,,,,,,,,,,,,,,,,,,,,,,,,,1346.6253,1,audio/Narrative8Situation1.wav,1351.6389,,1351.639,1367.5557,"[[999,8],[999,82],[999,166],[999,249],[999,332],[999,416],[999,499],[999,582],[999,666],[999,749],[999,832],[999,916],[999,999],[999,1082],[999,1166],[999,1249],[999,1332],[999,1416],[999,1499],[999,1582],[999,1666],[999,1749],[999,1832],[999,1915],[999,1999],[999,2082],[999,2166],[999,2249],[999,2333],[999,2416],[999,2499],[999,2583],[999,2666],[999,2749],[999,2833],[999,2915],[999,2999],[999,3082],[999,3166],[999,3249],[999,3332],[999,3416],[999,3499],[999,3582],[999,3666],[999,3749],[999,3832],[999,3916],[999,3999],[999,4082],[999,4166],[999,4249],[999,4332],[999,4416],[999,4499],[999,4582],[999,4666],[999,4749],[999,4832],[999,4916],[999,4999],[999,5082],[999,5166],[999,5249],[999,5332],[999,5416],[999,5499],[999,5583],[999,5665],[999,5749],[999,5832],[999,5915],[999,5999],[999,6082],[999,6165],[999,6249],[999,6333],[999,6416],[999,6499],[999,6582],[999,6666],[999,6749],[999,6833],[999,6916],[999,6999],[999,7083],[999,7166],[999,7249],[999,7333],[999,7416],[999,7499],[999,7583],[999,7666],[999,7749],[999,7833],[999,7916],[999,7999],[999,8082],[999,8165],[999,8249],[999,8332],[999,8416],[999,8499],[999,8583],[999,8666],[999,8749],[999,8833],[999,8916],[999,8999],[999,9083],[999,9166],[999,9249],[999,9332],[999,9415],[999,9499],[999,9583],[999,9666],[999,9749],[999,9833],[999,9916],[999,9999],[999,10082],[999,10166],[999,10249],[999,10332],[999,10416],[999,10499],[999,10582],[999,10665],[999,10749],[999,10833],[999,10915],[999,10999],[999,11082],[999,11166],[999,11249],[999,11333],[999,11416],[999,11499],[999,11582],[999,11665],[999,11749],[999,11832],[999,11916],[999,11999],[999,12082],[999,12166],[999,12249],[999,12333],[999,12416],[999,12499],[999,12582],[999,12666],[999,12749],[999,12832],[999,12916],[999,12999],[999,13082],[999,13166],[999,13249],[999,13332],[999,13416],[999,13499],[999,13582],[999,13665],[999,13749],[999,13833],[999,13915],[999,13999],[999,14082],[999,14165],[999,14249],[999,14333],[999,14416],[999,14499],[999,14582],[999,14666],[999,14749],[999,14832],[999,14915],[999,14999],[78.3,15082],[47.5,15916]]",1,0,1367.5559,1371.9885,50.2083381,3.7603,"[{""rating"":26.979168256123863,""responseTime"":1.5442000000477947},{""rating"":50.20833810170492,""responseTime"":3.760300000190682}]",space,3.8857,,1371.9885,Not at all,0,1371.9944,,,[],,0,10,10,10,1,audio/Narrative8Situation1.wav,audio/Narrative7Situation1.wav,audio/Narrative6Situation1.wav,audio/Narrative5Situation1.wav,5,2,2,5,,,,,,,,,,,,,,,,,,,,,,,,,,,,,,,,,,,,,
,,,,,,5bf311373a5bf00001401f64,2024-05-13_10h44.36.981,group3.1-3.2-social-tom,2023.2.2,Win32,59.52380952,65c5074098b851296ff0b7ed,66423330e8f5526c44d9f06b,,,,,,,,,,,,,,,,,,,,,,,,,,,,,1371.9947,1,audio/Narrative8Situation2.wav,1375.005,,1375.0051,1385.1393,"[[50.7,1166],[50.7,1249],[50.7,1332],[50.7,1416],[50.7,1499],[50.7,1583],[50.7,1666],[50.7,1749],[50.8,1833],[50.9,1916],[50.9,1999],[51,2083],[51,2166],[51,2249],[51,2332],[51,2416],[51,2499],[51,2582],[51,2666],[51,2749],[51,2832],[51,2916],[51,2999],[51,3083],[51,3166],[51.3,3250],[51.3,3333],[51.5,3416],[51.7,3499],[51.8,3583],[52,3666],[52,3749],[52,3834],[52,3916],[52,3999],[52,4082],[52,4166],[52,4249],[52,4333],[52,4416],[52,4499],[52.1,4583],[52.1,4666],[52.1,4749],[52.1,4833],[52.1,4916],[52.1,4999],[52.1,5083],[52.1,5166],[52.1,5249],[52.1,5332],[52.2,5416],[52.2,5499],[52.2,5582],[52.2,5666],[52.2,5749],[52.2,5833],[52.2,5916],[52.2,5999],[52.2,6083],[52.2,6166],[52.2,6249],[52.2,6333],[52.2,6416],[52.2,6499],[52.2,6583],[52.2,6666],[52.3,6749],[52.3,6832],[52.3,6916],[52.3,6999],[52.3,7083],[52.3,7166],[52.3,7249],[52.3,7333],[52.3,7416],[52.3,7499],[52.3,7582],[52.3,7666],[52.3,7749],[52.3,7832],[52.3,7916],[52.3,7999],[52.3,8082],[52.3,8166],[52.3,8249],[52.3,8332],[52.3,8416],[52.3,8499],[52.3,8582],[52.3,8666],[52.3,8749],[52.3,8833],[52.3,8916],[52.3,8999],[52.3,9083],[52.3,9166],[52.3,9249],[52.3,9333],[52.4,9415],[52.4,9499],[52.4,9582],[52.4,9665],[52.4,9749],[52.4,9833],[52.4,9917],[52.4,10006],[52.4,10082]]",1,0,1385.1398,1387.4639,74.89583492,2.0845,"[{""rating"":74.89583492279053,""responseTime"":2.084500000000162}]",space,1.7946,,1387.4639,All the time,100,1387.4663,,,[],,0,11,11,11,1,audio/Narrative8Situation2.wav,audio/Narrative7Situation2.wav,audio/Narrative6Situation2.wav,audio/Narrative5Situation2.wav,3,3,3,3,,,,,,,,,,,,,,,,,,,,,,,,,,,,,,,,,,,,,
,,,,,,5bf311373a5bf00001401f64,2024-05-13_10h44.36.981,group3.1-3.2-social-tom,2023.2.2,Win32,59.52380952,65c5074098b851296ff0b7ed,66423330e8f5526c44d9f06b,,,,,,,,,,,,,,,,,,,,,,,,,,,,,1387.4665,1,audio/Narrative8Situation3.wav,1391.4715,,1391.4716,1413.8542,"[[74.8,425],[74.9,508],[74.9,592],[74.9,673],[74.9,750],[74.9,833],[74.9,927],[75,999],[75,1090],[75.3,1176],[75.3,1249],[75.3,1335],[75.4,1417],[75.4,1501],[75.4,1584],[75.4,1675],[75.4,1759],[75.4,1833],[75.3,1927],[75.2,2009],[75.2,2092],[75.1,2176],[75.1,2258],[75.1,2342],[75.1,2423],[75.1,2499],[75,2593],[75,2670],[75,2751],[75,2833],[75,2916],[75,3010],[75,3086],[75,3175],[75,3257],[75,3341],[75,3425],[75,3499],[75,3583],[75,3666],[74.9,3760],[74.9,3834],[74.9,3925],[74.8,4000],[74.8,4092],[74.8,4174],[74.8,4251],[74.8,4332],[74.7,4416],[74.7,4502],[74.7,4592],[74.7,4669],[74.7,4759],[74.7,4842],[74.7,4926],[74.7,4999],[74.7,5092],[74.7,5166],[74.7,5259],[74.7,5334],[74.7,5425],[74.7,5510],[74.7,5593],[74.7,5666],[74.7,5758],[74.7,5832],[74.7,5925],[74.7,6003],[74.8,6086],[74.9,6170],[74.9,6249],[74.9,6334],[74.9,6425],[74.9,6499],[74.9,6583],[74.9,6675],[74.9,6750],[74.9,6842],[74.9,6916],[74.9,7000],[74.9,7083],[74.8,7176],[74.7,7258],[74.7,7342],[74.7,7426],[74.7,7507],[74.7,7592],[74.7,7674],[74.7,7759],[74.7,7833],[74.7,7918],[74.7,8000],[74.7,8092],[74.7,8168],[74.7,8260],[74.7,8341],[74.7,8426],[74.7,8499],[74.7,8593],[74.7,8670],[74.7,8750],[74.7,8834],[74.7,8927],[74.7,9004],[74.7,9088],[74.7,9174],[74.7,9250],[74.7,9342],[74.7,9424],[74.7,9508],[74.7,9592],[74.7,9669],[74.7,9758],[74.7,9843],[74.6,9923],[74.6,10016],[74.6,10099],[74.6,10182],[74.6,10266],[74.6,10349],[74.6,10432],[74.6,10515],[74.6,10599],[74.6,10682],[74.5,10766],[74.5,10850],[74.5,10932],[74.5,11015],[74.5,11099],[74.5,11182],[74.5,11266],[74.4,11349],[74.4,11432],[74.4,11516],[74.4,11599],[74.4,11682],[74.4,11766],[74.5,11849],[74.6,11933],[74.6,12016],[74.6,12099],[74.6,12182],[74.6,12266],[74.6,12349],[74.5,12432],[74.2,12516],[73.8,12599],[74,12682],[75,12766],[74.5,12849],[74.3,12932],[74.5,13016],[74.5,13099],[74.5,13182],[74.5,13265],[74.7,13349],[74.8,13432],[74.8,13516],[74.9,13599],[75,13682],[75.1,13765],[75.1,13849],[75.1,13932],[75.1,14015],[75.1,14099],[75.2,14182],[75.2,14265],[75.2,14349],[75.2,14432],[75.2,14516],[75.2,14599],[75.2,14682],[75.2,14765],[75.2,14849],[75.2,14932],[75,15015],[75,15099],[75,15182],[75,15265],[75,15349],[75,15432],[75,15516],[75,15599],[75,15682],[74.2,15766],[67.7,15850],[64.2,15932],[63.8,16016],[63.2,16099],[62.1,16182],[61.6,16266],[60.2,16349],[57.9,16432],[57.5,16515],[57.1,16599],[56.7,16682],[56.4,16766],[56.4,16848],[56.4,16932],[56.4,17015],[56.1,17099],[54.4,17182],[50.3,17266],[50.1,17349],[49.5,17433],[43.6,17515],[33.2,17599],[31.1,17682],[31.1,17765],[31.1,17849],[31.1,17932],[32.2,18016],[34.4,18099],[34.7,18182],[34.8,18265],[34.9,18349],[35.3,18433],[35.3,18516],[35.6,18599],[35.7,18682],[35.8,18765],[35.8,18849],[36.1,18932],[36.4,19016],[36.5,19099],[36.5,19182],[36.8,19266],[36.8,19348],[36.8,19432],[36.8,19516],[36.8,19599],[36.8,19682],[36.8,19766],[36.8,19849],[36.8,19932],[36.8,20016],[36.9,20098],[36.9,20182],[36.9,20265],[36.9,20349],[36.9,20432],[36.9,20516],[36.9,20599],[36.9,20682],[36.9,20765],[36.9,20848],[36.9,20932],[36.9,21016],[36.9,21098],[36.9,21182],[36.8,21265],[36.8,21348],[36.8,21432],[36.7,21515],[36.7,21599],[36.6,21682],[36.6,21765],[36.6,21849],[36.6,21932],[36.6,22016],[36.6,22098],[36.4,22182],[36.1,22265],[36.1,22348]]",1,0,1413.8544,1414.8542,36.1458381,0.2805,"[{""rating"":36.14583810170492,""responseTime"":0.2804999999998472}]",space,0.4512,,1414.8543,Not at all,0,1414.8585,,,[],,0,12,12,12,1,audio/Narrative8Situation3.wav,audio/Narrative7Situation3.wav,audio/Narrative6Situation3.wav,audio/Narrative5Situation3.wav,4,8,5,3,,,,,,,,,,,,,,,,,,,,,,,,,,,,,,,,,,,,,
,,,,,,5bf311373a5bf00001401f64,2024-05-13_10h44.36.981,group3.1-3.2-social-tom,2023.2.2,Win32,59.52380952,65c5074098b851296ff0b7ed,66423330e8f5526c44d9f06b,,,,,,,,,,,,,,,,,,,,,,,,,,,,,1414.8588,1,audio/Narrative8Situation4.wav,1417.8706,,1417.8707,1432.0545,"[[39.3,999],[39.3,1083],[39.3,1167],[39.3,1250],[39.3,1333],[39.3,1416],[39.3,1500],[39.3,1583],[39.3,1666],[39.5,1750],[39.6,1833],[39.6,1916],[39.6,1999],[39.6,2083],[39.6,2166],[39.6,2249],[39.6,2333],[39.6,2416],[39.6,2499],[39.6,2583],[39.6,2666],[39.6,2749],[39.6,2833],[39.6,2916],[39.6,2999],[39.6,3083],[39.7,3166],[39.7,3250],[39.7,3333],[39.7,3416],[39.7,3500],[39.7,3583],[39.7,3666],[39.7,3749],[39.7,3833],[39.8,3916],[39.8,4000],[39.8,4083],[39.8,4166],[39.9,4249],[39.9,4333],[39.9,4416],[39.9,4499],[39.9,4583],[39.9,4666],[40.1,4749],[40.1,4833],[40.1,4916],[40.1,4999],[40.1,5084],[40.1,5166],[40.1,5250],[40.1,5333],[40.2,5416],[40.2,5499],[40.2,5583],[40.2,5666],[40.2,5749],[40.2,5833],[40.3,5916],[40.3,5999],[40.3,6083],[40.3,6166],[40.3,6249],[40.5,6333],[40.5,6416],[40.5,6499],[40.5,6583],[40.6,6666],[40.6,6749],[40.6,6833],[40.6,6916],[40.6,6999],[40.6,7083],[40.9,7166],[41,7249],[41,7333],[41.4,7417],[41.5,7499],[41.5,7583],[41.5,7666],[41.5,7749],[41.5,7833],[41.5,7916],[41.5,7999],[41.5,8083],[41.5,8166],[41.5,8249],[41.5,8333],[41.5,8416],[41.5,8499],[41.4,8583],[41.4,8666],[41.4,8750],[41.4,8833],[41.6,8916],[41.6,8999],[41.6,9083],[41.9,9166],[41.9,9251],[41.9,9333],[41.9,9416],[41.9,9500],[41.9,9583],[41.9,9666],[41.9,9749],[41.9,9833],[42,9916],[42.1,9999],[42.1,10083],[42,10166],[42,10249],[41.9,10332],[41.9,10416],[41.9,10499],[41.9,10583],[41.9,10666],[41.9,10749],[41.9,10833],[41.9,10916],[41.9,10999],[41.9,11083],[41.9,11166],[41.9,11249],[41.9,11332],[41.9,11416],[41.9,11499],[41.9,11582],[41.9,11666],[41.8,11749],[41.7,11833],[41.7,11916],[41.6,11999],[41.4,12083],[41.4,12166],[41.4,12249],[41.4,12333],[41.4,12416],[41.4,12499],[41.4,12583],[41.4,12666],[41.4,12749],[41.5,12833],[41.5,12916],[41.5,12999],[41.5,13083],[41.5,13166],[41.5,13249],[41.6,13332],[41.6,13416],[41.6,13499],[41.6,13583],[41.6,13666],[41.6,13749],[41.6,13833]]",1,0,1432.0547,1434.1543,20.20833492,1.2264,"[{""rating"":20.208334922790527,""responseTime"":1.2264000000955093}]",space,1.5514,,1434.1543,All the time,100,1443.5535,100,8.3588,"[{""rating"":99.47916666666667,""responseTime"":7.05540000009546},{""rating"":100,""responseTime"":8.358799999952453}]",space,0,13,13,13,1,audio/Narrative8Situation4.wav,audio/Narrative7Situation4.wav,audio/Narrative6Situation4.wav,audio/Narrative5Situation4.wav,3,3,2,1,,,8.8495,,,,,,,,,,,,,,,,,,,,,,,,,,,,,,,,,,
,,,,,,5bf311373a5bf00001401f64,2024-05-13_10h44.36.981,group3.1-3.2-social-tom,2023.2.2,Win32,59.52380952,65c5074098b851296ff0b7ed,66423330e8f5526c44d9f06b,,,,,,,,,,,,,,,,,,,,,,,,,,,,,1443.5541,1,audio/Narrative8Situation5.wav,1445.5703,,1445.5703,1453.8204,"[[86.7,599],[86.6,683],[86.6,766],[86.3,849],[85.8,933],[85.5,1016],[85.2,1100],[84.8,1183],[83.6,1266],[74.9,1349],[49.6,1433],[45.9,1516],[45.7,1599],[45.5,1683],[45.5,1766],[47.2,1849],[48.2,1932],[48.4,2016],[48.9,2100],[49,2182],[49.3,2266],[49.3,2349],[49.3,2432],[49.3,2516],[49.3,2599],[49.3,2683],[49.5,2766],[49.6,2849],[49.6,2933],[49.7,3016],[49.7,3099],[49.8,3183],[49.8,3266],[49.8,3349],[49.8,3433],[49.6,3516],[49.4,3599],[49.3,3682],[49.2,3766],[49.2,3849],[49.2,3932],[49.2,4016],[49.2,4099],[49.2,4183],[49.2,4266],[49.2,4349],[49.2,4433],[49.2,4516],[49.2,4599],[49.2,4683],[49.2,4766],[49.2,4849],[49.2,4932],[49.2,5016],[49.2,5099],[49.2,5183],[49.2,5266],[49.2,5349],[49.2,5432],[49.2,5516],[49.2,5599],[49.2,5682],[49.2,5766],[49.2,5849],[49.2,5932],[49.2,6016],[49.2,6099],[49.2,6182],[49.2,6266],[49.2,6349],[49.2,6433],[49.2,6516],[49.2,6599],[49.2,6682],[49.2,6766],[49.2,6849],[49.2,6932],[49.2,7016],[49.2,7099],[49.2,7182],[49.2,7266],[49.2,7349],[49.2,7432],[49.2,7516],[49.2,7599],[49.2,7682],[49.2,7766],[49.2,7849],[49.2,7932],[49.2,8016],[49.2,8099],[49.2,8183]]",1,0,1453.8207,1457.5197,76.87500318,3.0675,"[{""rating"":76.87500317891438,""responseTime"":3.0674999999998818}]",space,3.1504,,1457.5198,Half the time,50,1457.5249,,,[],,0,14,14,14,1,audio/Narrative8Situation5.wav,audio/Narrative7Situation5.wav,audio/Narrative6Situation5.wav,audio/Narrative5Situation5.wav,2,5,2,5,,,,,,,,,,,,,,,,,,,,,,,,,,,,,,,,,,,,,
,,,,,,5bf311373a5bf00001401f64,2024-05-13_10h44.36.981,group3.1-3.2-social-tom,2023.2.2,Win32,59.52380952,65c5074098b851296ff0b7ed,66423330e8f5526c44d9f06b,,,,,,,,,,,,,,,,,,,,,,,,,,,,,1457.5252,1,audio/Narrative8Situation6.wav,1459.5366,,1459.5367,1466.0203,"[[77.8,166],[77.8,249],[77.8,333],[77.8,416],[77.8,500],[77.8,583],[77.7,666],[77.3,750],[77.2,833],[76.9,917],[76.8,999],[76.6,1082],[76.3,1166],[76.1,1249],[76.1,1333],[75.9,1416],[75.8,1499],[75.8,1582],[75.8,1666],[75.8,1750],[75.8,1833],[75.1,4083],[75.2,4166],[75.4,4249],[75.4,4333],[75.5,4416],[75.8,4499],[75.8,4582],[75.8,4666],[75.8,4749],[75.8,4833],[75.8,4916],[75.8,5000],[75.8,5083],[75.7,5166],[75.7,5249],[75.7,5333],[75.7,5416],[75.7,5499],[75.7,5583],[75.7,5666],[75.7,5749],[75.7,5832],[75.7,5916],[75.7,5999],[75.7,6083],[75.7,6166],[75.7,6249],[75.7,6332],[75.6,6416]]",1,0,1466.0205,1468.053,25.72917144,1.8431,"[{""rating"":25.729171435038246,""responseTime"":1.8431000001430675}]",space,1.484,,1468.0531,Half the time,50,1468.0558,,,[],,0,15,15,15,1,audio/Narrative8Situation6.wav,audio/Narrative7Situation6.wav,audio/Narrative6Situation6.wav,audio/Narrative5Situation6.wav,2,3,2,3,,,,,,,,,,,,,,,,,,,,,,,,,,,,,,,,,,,,,
,,,,,,5bf311373a5bf00001401f64,2024-05-13_10h44.36.981,group3.1-3.2-social-tom,2023.2.2,Win32,59.52380952,65c5074098b851296ff0b7ed,66423330e8f5526c44d9f06b,,,,,,,,,,,,,,,,,,,,,,,,,,,,,1468.0564,1,audio/Narrative8Situation7.wav,1471.0695,,1471.0695,1483.1692,"[[37.2,1249],[37.2,1333],[37.2,1416],[37.2,1499],[37.2,1583],[37.2,1666],[37.2,1750],[37.2,1833],[37.2,1916],[37.2,1999],[37.2,2083],[37.2,2166],[37.2,2249],[37.2,2333],[37.2,2416],[37.2,2500],[37.2,2583],[37.2,2666],[37.2,2750],[37.2,2833],[37.5,2916],[37.7,3000],[37.7,3083],[37.8,3167],[38.3,3249],[38.4,3333],[38.4,3416],[38.4,3499],[38.4,3583],[38.5,3666],[38.8,3750],[39.1,3834],[39.1,3916],[39.1,4000],[38.9,4333],[39,4416],[39,4500],[39.2,7666],[39.2,7749],[39.2,7833],[39.2,7916],[39.2,7999],[39.2,8083],[40.5,11416],[40.7,11499],[41.1,11583],[42.6,11666],[43.1,11749],[44.1,11833],[45.2,11916],[46.3,11999],[47.8,12083]]",1,0,1483.1693,1489.8863,25.10416508,4.7814,"[{""rating"":25.104165077209473,""responseTime"":4.781400000095346}]",space,6.1873,,1489.8863,Not at all,0,1489.8907,,,[],,0,16,16,16,1,audio/Narrative8Situation7.wav,audio/Narrative7Situation7.wav,audio/Narrative6Situation7.wav,audio/Narrative5Situation7.wav,3,5,5,4,,,,,,,,,,,,,,,,,,,,,,,,,,,,,,,,,,,,,
,,,,,,5bf311373a5bf00001401f64,2024-05-13_10h44.36.981,group3.1-3.2-social-tom,2023.2.2,Win32,59.52380952,65c5074098b851296ff0b7ed,66423330e8f5526c44d9f06b,,,,,,,,,,,,,,,,,,,,,,,,,,,,,1489.8909,1,audio/Narrative8Situation8.wav,1492.9026,,1492.9027,1505.769,"[[999,1],[999,82],[999,167],[999,249],[999,332],[999,416],[999,499],[999,583],[999,666],[999,749],[999,833],[999,916],[999,999],[999,1083],[999,1166],[999,1249],[999,1332],[999,1416],[999,1499],[999,1582],[999,1666],[999,1749],[999,1833],[999,1916],[999,1999],[999,2082],[999,2166],[999,2249],[999,2333],[999,2416],[999,2499],[999,2583],[999,2666],[999,2749],[999,2833],[999,2916],[999,2999],[999,3083],[999,3166],[999,3249],[999,3332],[999,3416],[999,3499],[999,3582],[999,3666],[999,3749],[999,3832],[999,3916],[999,3999],[999,4083],[999,4166],[999,4249],[999,4332],[999,4416],[999,4499],[999,4582],[999,4666],[999,4749],[999,4833],[999,4916],[999,4999],[999,5082],[999,5166],[999,5249],[999,5332],[999,5416],[999,5499],[999,5583],[999,5666],[999,5749],[999,5833],[999,5916],[999,5999],[999,6083],[999,6166],[999,6249],[999,6332],[999,6416],[999,6499],[999,6583],[999,6666],[999,6749],[999,6832],[999,6916],[999,6999],[999,7083],[999,7166],[999,7249],[999,7333],[999,7416],[999,7499],[999,7582],[999,7666],[999,7749],[999,7832],[999,7916],[999,7999],[999,8083],[999,8166],[999,8249],[999,8332],[999,8416],[999,8499],[999,8583],[999,8666],[999,8749],[999,8832],[999,8916],[999,8999],[999,9082],[999,9166],[999,9249],[999,9332],[999,9416],[999,9499],[999,9582],[999,9666],[999,9749],[999,9832],[999,9916],[999,9999],[999,10082],[999,10166],[999,10249],[999,10332],[999,10416],[999,10499],[999,10582],[999,10666],[999,10749],[999,10832],[999,10916],[999,10999],[999,11082],[999,11166],[999,11249],[999,11332],[999,11416],[999,11499],[999,11582],[999,11666],[999,11749],[999,11832],[999,11916],[999,11999],[999,12082],[999,12166],[999,12249],[999,12332],[999,12416],[999,12499],[999,12582],[999,12666],[999,12749],[999,12832]]",1,0,1505.7692,1511.0023,7.083332539,4.9355,"[{""rating"":7.083332538604736,""responseTime"":4.935500000000047}]",space,4.6848,,1511.0024,Half the time,50,1511.007,,,[],,0,17,17,17,1,audio/Narrative8Situation8.wav,audio/Narrative7Situation8.wav,audio/Narrative6Situation8.wav,audio/Narrative5Situation8.wav,3,2,5,3,,,,,,,,,,,,,,,,,,,,,,,,,,,,,,,,,,,,,
,,,,,,5bf311373a5bf00001401f64,2024-05-13_10h44.36.981,group3.1-3.2-social-tom,2023.2.2,Win32,59.52380952,65c5074098b851296ff0b7ed,66423330e8f5526c44d9f06b,,,,,,,,,,,,,,,,,,,,,,,,,,,,,1511.0072,1,audio/Narrative8Situation9.wav,1514.0187,,1514.0189,1525.3292,"[[44.6,166],[44.7,249],[44.7,333],[44.7,416],[44.7,500],[46.1,1749],[49.3,1833],[49.8,1916],[50.2,1999],[50.2,2083],[50.2,2167],[50.2,2249],[50.2,2332],[50.2,2416],[50.2,2499],[50.2,2583],[50.2,2666],[50.2,2749],[50.2,2833],[50.2,2916],[50.2,3000],[50.2,3082],[50.2,3166],[50.2,3257],[50.2,3333],[50.2,3420],[50.2,3499],[50.2,3587],[50.2,3667],[50.2,3750],[50.2,3833],[50.2,3916],[50.2,4000],[50.2,4084],[50.4,4175],[50.4,4259],[50.4,4333],[50.4,4425],[50.4,4500],[50.4,4593],[50.4,4675],[50.4,4759],[50.4,4842],[50.4,4918],[50.4,4999],[50.4,5093],[50.4,5174],[50.4,5250],[50.4,5333],[50.4,5416],[50.4,5499],[50.4,5593],[50.4,5674],[50.4,5755],[50.4,5843],[50.4,5916],[50.4,6009],[50.4,6092],[50.4,6176],[50.4,6259],[50.4,6340],[50.4,6427],[50.4,6499],[50.4,6590],[50.4,6675],[50.4,6759],[50.4,6842],[50.4,6925],[50.4,7000],[50.4,7087],[50.4,7166],[50.4,7258],[50.4,7333],[50.4,7425],[50.4,7509],[50.4,7583],[50.4,7666],[50.4,7759],[50.4,7836],[50.4,7925],[50.4,8009],[50.4,8084],[50.4,8172],[50.4,8258],[50.4,8342],[50.4,8425],[50.4,8509],[50.4,8593],[50.4,8676],[50.4,8749],[50.4,8842],[50.4,8916],[50.4,9009],[50.4,9090],[50.4,9175],[50.4,9260],[50.4,9336],[50.4,9426],[50.4,9499],[50.4,9584],[50.4,9675],[50.4,9749],[50.4,9832],[50.4,9923],[50.4,10000],[50.4,10093],[50.4,10173],[50.4,10250],[50.4,10332],[50.4,10427],[50.4,10499],[50.4,10592],[50.4,10676],[50.4,10756],[50.4,10842],[50.4,10925],[50.4,11007],[50.4,11086],[50.4,11175],[50.4,11255]]",1,0,1525.3296,1527.6185,0.729167461,1.8719,"[{""rating"":0.7291674613952637,""responseTime"":1.871900000095593}]",space,1.7513,,1527.6185,All the time,100,1527.6232,,,[],,0,18,18,18,1,audio/Narrative8Situation9.wav,audio/Narrative7Situation9.wav,audio/Narrative6Situation9.wav,audio/Narrative5Situation9.wav,3,2,4,3,,,,,,,,,,,,,,,,,,,,,,,,,,,,,,,,,,,,,
,,,,,,5bf311373a5bf00001401f64,2024-05-13_10h44.36.981,group3.1-3.2-social-tom,2023.2.2,Win32,59.52380952,65c5074098b851296ff0b7ed,66423330e8f5526c44d9f06b,,,,,,,,,,,,,,,,,,,,,,,,,,,1587.6382,1590.2106,1590.2243,2,audio/Narrative13Situation2.wav,1590.2243,,1590.2243,1619.9667,"[[999,0],[999,76],[999,159],[999,242],[999,325],[999,409],[999,492],[999,576],[999,659],[999,742],[999,825],[999,909],[999,992],[999,1076],[999,1159],[999,1242],[999,1326],[999,1409],[999,1493],[999,1576],[999,1659],[999,1742],[999,1826],[999,1909],[999,1992],[999,2076],[999,2159],[999,2242],[999,2325],[999,2409],[999,2492],[999,2576],[999,2660],[999,2742],[999,2826],[999,2909],[999,2992],[999,3076],[999,3159],[999,3242],[999,3326],[999,3409],[999,3493],[999,3575],[999,3659],[999,3743],[999,3826],[999,3909],[999,3992],[999,4075],[999,4159],[999,4242],[999,4326],[999,4409],[999,4492],[999,4576],[999,4659],[999,4742],[999,4826],[999,4909],[999,4992],[999,5076],[999,5159],[999,5242],[999,5326],[999,5409],[999,5492],[999,5575],[999,5659],[999,5743],[999,5826],[999,5909],[999,5993],[999,6076],[999,6159],[999,6242],[999,6326],[999,6409],[999,6492],[999,6575],[999,6659],[999,6742],[999,6826],[999,6909],[999,6992],[999,7076],[999,7159],[999,7242],[999,7392],[999,7493],[999,7575],[999,7659],[999,7755],[999,7854],[999,7953],[999,8044],[999,8132],[999,8232],[999,8323],[999,8478],[999,8573],[999,8648],[999,8732],[999,8824],[999,8902],[999,9004],[999,9096],[999,9176],[999,9259],[999,9346],[999,9429],[999,9513],[999,9597],[999,9688],[999,9771],[999,9859],[999,9939],[999,10023],[999,10104],[999,10181],[999,10264],[999,10353],[999,10425],[999,10512],[999,10605],[999,10681],[999,10769],[999,10849],[999,10926],[999,11009],[999,11104],[999,11185],[999,11259],[999,11345],[999,11433],[999,11526],[999,11700],[999,11786],[999,11869],[999,11952],[999,12027],[999,12117],[999,12200],[999,12276],[999,12370],[999,12452],[999,12535],[999,12635],[999,12721],[999,12803],[999,12885],[999,12969],[999,13053],[999,13135],[999,13218],[999,13302],[999,13386],[999,13469],[999,13552],[999,13636],[999,13718],[999,13802],[46.8,13892],[50.7,13976],[52,15892],[51.7,15975],[51.7,16059],[51.7,16142],[51.5,16225],[50.9,16309],[50.9,16392],[50.7,16476],[50.6,16559],[50.6,16642],[50.6,16725],[50.6,16809],[50.6,16892],[50.6,16976],[50.6,17059],[50.6,17142],[50.6,17226],[50.2,17309],[49.2,17392],[49.2,17475],[49.2,17559],[49.2,17642],[49.2,17726],[49.2,17809],[49.2,17892],[49.2,17975],[49.2,18058],[49.2,18142],[49.2,18225],[49.2,18309],[49.2,18392],[49.2,18476],[49.2,18559],[49.2,18642],[49.2,18725],[49.2,18808],[49.2,18892],[49.2,18975],[49.2,19059],[49.2,19142],[49.2,19226],[49.2,19310],[49.2,19392],[49.2,19475],[49.2,19559],[49.2,19642],[49.2,19725],[49.2,19809],[49.2,19892],[49.2,19975],[49.2,20059],[49.2,20142],[49.2,20225],[49.2,20309],[49.2,20392],[49.2,20475],[49.2,20558],[49.2,20642],[49.2,20725],[49.2,20808],[49.2,20892],[49.2,20975],[49.2,21058],[49.2,21142],[49.2,21225],[49.2,21309],[49.2,21392],[49.2,21475],[49.2,21559],[49.2,21642],[49.2,21725],[49.2,21809],[49.2,21892],[49.2,21976],[49.2,22059],[49.2,22142],[49.2,22226],[49.2,22308],[49.2,22392],[49.2,22475],[49.2,22559],[49.2,22642],[49.2,22725],[49.2,22809],[49.2,22892],[49.2,22976],[49.2,23059],[49.2,23142],[49.2,23225],[49.2,23309],[49.2,23392],[49.2,23475],[49.2,23559],[49.2,23642],[49.2,23725],[49.2,23808],[49.2,23892],[49.2,23975],[49.2,24059],[49.2,24142],[49.2,24226],[49.2,24309],[49.2,24392],[49.2,24475],[49.2,24559],[49.2,24642],[49.2,24725],[49.2,24808],[49.2,24892],[49.2,24975],[49.2,25059],[49.2,25142],[49.2,25225],[49.2,25309],[49.2,25392],[49.2,25475],[49.2,25558],[49.2,25642],[49.2,25726],[49.2,25809],[49.2,25892],[49.2,25975],[49.2,26058],[49.2,26142],[49.2,26225],[49.2,26308],[49.2,26392],[49.2,26475],[49.2,26559],[49.2,26642],[49.2,26725],[49.2,26809],[49.2,26892],[49.2,26975],[49.2,27058],[49.2,27142],[49.2,27225],[49.2,27308],[49.2,27392],[49.2,27475],[49.2,27558],[49.2,27642],[49.2,27725],[49.2,27809],[49.2,27892],[49.2,27975],[49.2,28058],[49.2,28142],[49.2,28225],[49.2,28308],[49.2,28392],[49.2,28475],[49.2,28559],[49.2,28642],[49.2,28725],[49.2,28809],[49.2,28892],[49.2,28975],[49.2,29058],[49.2,29142],[49.2,29226],[49.2,29309],[49.2,29392],[49.2,29475],[49.2,29559],[49.2,29642],[49.2,29725]]",1,0,1619.9671,1619.9769,,,[],,,,1619.977,All the time,100,1619.9781,,,[],,0,0,0,0,1,audio/Narrative13Situation2.wav,audio/Narrative13Situation2.wav,audio/Narrative13Situation2.wav,audio/Narrative13Situation2.wav,2,2,2,2,,,,,1527.6239,1587.6277,,,,,,,,,,,,,,,,,,,,,,,,,,,,,,,
,,,,,,5bf311373a5bf00001401f64,2024-05-13_10h44.36.981,group3.1-3.2-social-tom,2023.2.2,Win32,59.52380952,65c5074098b851296ff0b7ed,66423330e8f5526c44d9f06b,,,,,,,,,,,,,,,,,,,,,,,,,,,,,1619.9783,2,audio/Narrative5Situation1.wav,1624.9831,,1624.9831,1638.2851,"[[50,1333],[51.5,1416],[59,10416],[59,10499],[59,10583],[59,10666],[59,10750],[59,10833],[59,10916],[59,10999],[59,11083],[59,11166],[59,11250],[59,11333],[59,11416],[59,11499],[59,11583],[59,11666],[59,11749],[59,11833],[59,11916],[59,11999],[59,12083],[59,12166],[59,12249],[59,12333],[59,12416],[59,12499],[59,12583],[59,12666],[59,12750],[59,12832],[59.2,12916],[59.2,12999],[59.3,13083],[59.4,13166],[59.4,13249]]",1,0,1638.2853,1643.5332,11.04166905,3.1419,"[{""rating"":11.041669050852459,""responseTime"":3.141900000095575}]",space,4.7027,,1643.5333,Not at all,0,1643.5383,,,[],,0,1,1,1,1,audio/Narrative7Situation1.wav,audio/Narrative8Situation1.wav,audio/Narrative5Situation1.wav,audio/Narrative6Situation1.wav,2,5,5,2,,,,,,,,,,,,,,,,,,,,,,,,,,,,,,,,,,,,,
,,,,,,5bf311373a5bf00001401f64,2024-05-13_10h44.36.981,group3.1-3.2-social-tom,2023.2.2,Win32,59.52380952,65c5074098b851296ff0b7ed,66423330e8f5526c44d9f06b,,,,,,,,,,,,,,,,,,,,,,,,,,,,,1643.5388,2,audio/Narrative5Situation2.wav,1646.5492,,1646.5493,1676.0157,[],1,0,1676.0159,1679.826,27.29167144,2.6282,"[{""rating"":27.291671435038246,""responseTime"":2.6282000000474}]",space,3.253,,1679.8262,Not at all,0,1679.8293,,,[],,0,2,2,2,1,audio/Narrative7Situation2.wav,audio/Narrative8Situation2.wav,audio/Narrative5Situation2.wav,audio/Narrative6Situation2.wav,3,3,3,3,,,,,,,,,,,,,,,,,,,,,,,,,,,,,,,,,,,,,
,,,,,,5bf311373a5bf00001401f64,2024-05-13_10h44.36.981,group3.1-3.2-social-tom,2023.2.2,Win32,59.52380952,65c5074098b851296ff0b7ed,66423330e8f5526c44d9f06b,,,,,,,,,,,,,,,,,,,,,,,,,,,,,1679.8298,2,audio/Narrative5Situation3.wav,1682.8358,,1682.8359,1696.7489,"[[999,13],[999,96],[999,179],[999,262],[999,345],[999,429],[999,512],[999,596],[999,679],[999,762],[999,846],[999,929],[999,1012],[999,1096],[999,1179],[999,1262],[999,1345],[999,1429],[999,1512],[999,1596],[999,1679],[999,1762],[999,1846],[999,1929],[999,2012],[999,2095],[999,2179],[999,2262],[999,2345],[999,2429],[999,2512],[999,2595],[999,2679],[999,2762],[999,2846],[999,2929],[999,3012],[999,3096],[999,3179],[999,3262],[999,3346],[999,3429],[999,3512],[999,3596],[999,3679],[999,3762],[999,3845],[999,3929],[999,4012],[999,4095],[999,4179],[999,4262],[999,4345],[999,4429],[999,4512],[999,4595],[999,4679],[999,4762],[999,4846],[999,4929],[999,5012],[999,5095],[999,5179],[999,5262],[999,5345],[999,5429],[999,5512],[999,5595],[999,5679],[999,5762],[999,5846],[999,5929],[999,6012],[999,6095],[999,6179],[999,6262],[999,6345],[999,6429],[999,6512],[999,6595],[999,6679],[999,6762],[999,6845],[999,6929],[999,7012],[999,7096],[999,7178],[999,7262],[999,7345],[999,7429],[999,7512],[999,7596],[999,7679],[999,7762],[999,7846],[999,7929],[999,8012],[999,8096],[999,8179],[999,8262],[999,8345],[999,8429],[999,8512],[999,8596],[999,8679],[999,8762],[999,8845],[999,8929],[999,9012],[999,9096],[999,9179],[999,9262],[999,9345],[999,9429],[999,9512],[999,9595],[999,9679],[999,9762],[999,9846],[999,9929],[999,10012],[999,10096],[999,10189],[999,10262],[999,10345],[999,10429],[999,10522],[999,10605],[999,10680],[999,10762],[999,10845],[999,10928],[999,11015],[999,11096],[999,11181],[999,11265],[999,11356],[999,11438],[999,11520],[999,11605],[999,11689],[999,11771],[999,11855],[999,11938],[999,12022],[999,12105],[999,12189],[999,12272],[999,12353],[999,12431],[999,12516],[999,12597],[999,12688],[999,12770],[999,12855],[999,12938],[999,13021],[999,13095],[999,13186],[999,13266],[999,13355],[999,13439],[999,13523],[999,13598],[999,13680],[999,13765],[999,13845]]",1,0,1696.7494,1702.9578,62.39583492,3.4823,"[{""rating"":62.39583492279053,""responseTime"":3.4822999999523745}]",space,5.6646,,1702.9578,All the time,100,1702.9701,,,[],,0,3,3,3,1,audio/Narrative7Situation3.wav,audio/Narrative8Situation3.wav,audio/Narrative5Situation3.wav,audio/Narrative6Situation3.wav,8,4,3,5,,,,,,,,,,,,,,,,,,,,,,,,,,,,,,,,,,,,,
,,,,,,5bf311373a5bf00001401f64,2024-05-13_10h44.36.981,group3.1-3.2-social-tom,2023.2.2,Win32,59.52380952,65c5074098b851296ff0b7ed,66423330e8f5526c44d9f06b,,,,,,,,,,,,,,,,,,,,,,,,,,,,,1702.9703,2,audio/Narrative5Situation4.wav,1703.9818,,1703.982,1724.3651,"[[999,1],[999,90],[999,176],[53.1,259],[55.2,16849],[64.5,16932],[70.4,17016],[76,17098],[77,17182],[78.2,17265],[79,17349],[79,17432],[79,17515],[79.1,17599],[79.8,17682],[80.1,17766],[82.4,17849],[83.2,17932],[83.6,18015],[83.9,18098],[87.4,18182],[89.7,18265],[89.7,18349],[89.7,18432],[89.7,18515],[89.7,18599],[89.7,18682],[89.7,18765],[89.7,18848],[90.1,18932],[90.3,19015],[90.3,19099],[90.4,19182],[90.4,19265],[90.4,19349],[84.8,19432],[82.5,19515],[82.5,19599],[82.4,19682],[82.4,19765],[82.4,19849],[82.5,19932],[82.6,20015],[82.6,20099],[82.7,20182],[82.7,20265],[82.7,20348]]",1,0,1724.3653,1726.0979,82.70833492,0.3587,"[{""rating"":82.70833492279053,""responseTime"":0.35870000004752}]",space,1.1874,,1726.098,All the time,100,1726.1005,,,[],,0,4,4,4,1,audio/Narrative7Situation4.wav,audio/Narrative8Situation4.wav,audio/Narrative5Situation4.wav,audio/Narrative6Situation4.wav,3,3,1,2,,,,,,,,,,,,,,,,,,,,,,,,,,,,,,,,,,,,,
,,,,,,5bf311373a5bf00001401f64,2024-05-13_10h44.36.981,group3.1-3.2-social-tom,2023.2.2,Win32,59.52380952,65c5074098b851296ff0b7ed,66423330e8f5526c44d9f06b,,,,,,,,,,,,,,,,,,,,,,,,,,,,,1726.1009,2,audio/Narrative5Situation5.wav,1731.1145,,1731.1145,1746.5477,"[[999,7],[999,82],[999,166],[999,249],[999,333],[999,416],[999,499],[999,583],[999,666],[999,749],[999,833],[999,916],[999,999],[999,1083],[999,1166],[999,1249],[999,1333],[999,1416],[999,1499],[999,1583],[999,1666],[999,1750],[999,1833],[999,1916],[999,1999],[999,2083],[999,2166],[999,2249],[999,2332],[999,2416],[999,2500],[999,2583],[999,2666],[999,2749],[999,2833],[999,2916],[999,2999],[999,3082],[999,3166],[999,3249],[999,3332],[999,3416],[999,3499],[999,3582],[999,3666],[999,3749],[999,3833],[999,3916],[999,3999],[999,4083],[999,4166],[999,4249],[999,4333],[999,4416],[999,4499],[999,4583],[999,4666],[999,4749],[999,4833],[999,4916],[999,5000],[999,5082],[999,5166],[999,5249],[999,5333],[999,5416],[999,5500],[999,5583],[999,5666],[999,5749],[999,5832],[999,5916],[999,5999],[999,6082],[999,6166],[999,6249],[999,6333],[999,6416],[999,6499],[999,6583],[999,6666],[999,6749],[999,6833],[999,6916],[999,6999],[999,7082],[999,7166],[999,7249],[999,7333],[999,7416],[999,7500],[999,7583],[999,7666],[999,7749],[999,7832],[999,7916],[999,7999],[999,8083],[999,8166],[999,8249],[999,8333],[999,8416],[999,8499],[999,8583],[999,8666],[999,8749],[999,8832],[999,8916],[999,8999],[999,9082],[999,9166],[999,9249],[999,9332],[999,9416],[999,9499],[999,9582],[75.8,9666]]",1,0,1746.5479,1750.1639,38.22917144,2.7851,"[{""rating"":38.22917143503825,""responseTime"":2.78509999990456}]",space,3.0712,,1750.164,Half the time,50,1750.168,,,[],,0,5,5,5,1,audio/Narrative7Situation5.wav,audio/Narrative8Situation5.wav,audio/Narrative5Situation5.wav,audio/Narrative6Situation5.wav,5,2,5,2,,,,,,,,,,,,,,,,,,,,,,,,,,,,,,,,,,,,,
,,,,,,5bf311373a5bf00001401f64,2024-05-13_10h44.36.981,group3.1-3.2-social-tom,2023.2.2,Win32,59.52380952,65c5074098b851296ff0b7ed,66423330e8f5526c44d9f06b,,,,,,,,,,,,,,,,,,,,,,,,,,,,,1750.1684,2,audio/Narrative5Situation6.wav,1753.1809,,1753.1809,1758.8843,"[[999,11],[999,83],[999,174],[999,258],[999,333],[999,423],[999,508],[999,583],[999,666],[999,749],[999,841],[999,925],[999,1000],[999,1083],[999,1175],[999,1257],[999,1342],[999,1425],[999,1499],[999,1584],[999,1677],[999,1749],[999,1832],[999,1916],[999,2000],[999,2086],[999,2166],[999,2251],[999,2333],[999,2416],[999,2503],[999,2583],[999,2670],[999,2758],[999,2833],[999,2924],[999,3008],[999,3093],[999,3166],[999,3249],[999,3333],[999,3416],[999,3509],[999,3583],[999,3670],[999,3758],[999,3835],[999,3925],[999,4010],[999,4082],[999,4166],[999,4259],[999,4333],[999,4425],[999,4500],[999,4591],[999,4665],[999,4749],[999,4842],[999,4916],[999,4999],[999,5086],[999,5175],[999,5249],[999,5342],[999,5424],[999,5501],[999,5593],[999,5665]]",1,0,1758.8844,1763.3903,8.437502384,2.7996,"[{""rating"":8.437502384185791,""responseTime"":2.7995999999043306}]",space,3.9403,,1763.3903,Not at all,0,1763.3937,,,[],,0,6,6,6,1,audio/Narrative7Situation6.wav,audio/Narrative8Situation6.wav,audio/Narrative5Situation6.wav,audio/Narrative6Situation6.wav,3,2,3,2,,,,,,,,,,,,,,,,,,,,,,,,,,,,,,,,,,,,,
,,,,,,5bf311373a5bf00001401f64,2024-05-13_10h44.36.981,group3.1-3.2-social-tom,2023.2.2,Win32,59.52380952,65c5074098b851296ff0b7ed,66423330e8f5526c44d9f06b,,,,,,,,,,,,,,,,,,,,,,,,,,,,,1763.394,2,audio/Narrative5Situation7.wav,1767.4061,,1767.4062,1788.4469,"[[999,10],[999,90],[999,174],[999,257],[999,340],[999,424],[999,507],[999,590],[999,673],[999,757],[999,840],[999,924],[999,1007],[999,1090],[999,1173],[999,1257],[999,1340],[999,1423],[999,1507],[58.8,1590],[60.3,2507],[60.3,2590],[60.3,2673],[60.3,2757],[60.2,2841],[60.2,2923],[60.2,3007],[60.2,3090],[60.5,3173],[60.8,3257],[60.8,3340],[60.8,3424],[60.8,3507],[60.9,3590],[61.4,3673],[61.4,3757],[61.4,3840],[61.5,3924],[61.5,4007],[61.5,4090],[61.5,4173],[61.5,4257],[61.5,4340],[61.5,4423],[61.5,4507],[61.5,4590],[61.5,4673],[61.5,4757],[61.5,4840],[61.6,4923],[61.7,5007],[61.8,5090],[62.1,5173],[62.1,5258],[62.1,5341],[62.2,5423],[62.2,5506],[62.2,5590],[62.2,5673],[62.2,5756],[62.2,5840],[62.2,5923],[62.2,6007],[62.2,6091],[62.2,6173],[62.2,6257],[62.2,6340],[62.3,6423],[62.5,6506],[62.5,6590],[62.5,6673],[62.5,6757],[62.5,6840],[62.5,6923],[62.5,7007],[62.4,7091],[62.4,7173],[62.4,7257],[62.4,7340],[62.4,7424],[62.4,7507],[62.5,7590],[62.6,7673],[62.6,7756],[62.6,7840],[62.6,7923],[62.6,8007],[62.6,8090],[62.6,8173],[62.6,8257],[62.7,8340],[62.9,8423],[62.9,8506],[63,8590],[63.1,8673],[63.1,8757],[63.1,8840],[63.1,8923],[63.1,9007],[63,9090],[62.9,9173],[62.9,9257],[62.9,9340],[62.8,9423],[62.7,9507],[62.7,9590],[62.7,9673],[62.7,9757],[62.7,9840],[62.7,9923],[62.7,10007],[62.6,10090],[50.6,11090],[49.3,11173],[49.3,11257],[49.3,11340],[49.4,11423],[49.5,11506],[49.5,11590],[49.6,11673],[49.8,11756],[50,11840],[50,11923],[50,12007],[50,12090],[50.1,12173],[50.1,12257],[50.3,12340],[50.3,12423],[50.4,12506],[50.4,12590],[50.4,12673],[50.4,12757],[50.4,12840],[50.4,12923],[50.4,13006],[50.2,13090],[49.9,13173],[49.6,13257],[49.1,13340],[48.8,13423],[48.8,13506],[48.8,13590],[48.8,13673],[48.8,13757],[48.8,13840],[49,13924],[49.1,14007],[49.2,14090],[49.5,14173],[49.7,14256],[49.7,14340],[49.7,14423],[49.7,14507],[49.7,14590],[49.7,14673],[49.7,14756],[49.7,14840],[49.7,14923],[49.7,15006],[49.7,15090],[49.7,15173],[49.7,15256],[49.7,15340],[49.7,15423],[49.7,15507],[49.7,15590],[49.8,15673],[49.8,15757],[49.8,15840],[50,15923],[50,16006],[50,16090],[50,16173],[50,16257],[50,16340],[50.2,16423],[50.2,16506],[50.2,16590],[50.2,16673],[50.3,16756],[50.3,16840],[50.3,16923],[50.3,17007],[50.3,17090],[50.3,17173],[50.3,17256],[50.3,17340],[50.2,17423],[50.2,17506],[50.2,17590],[50.2,17673],[50.2,17757],[50.2,17839],[50.2,17923],[50.2,18006],[50.2,18090],[50.2,18173],[50.2,18257],[50.2,18340],[50.2,18423],[50.2,18506],[50.2,18590],[50.2,18673],[50.2,18758],[50.2,18840],[50.2,18923],[50.2,19007],[50.2,19090],[50.2,19173],[50.2,19256],[50.2,19340],[50.2,19423],[50.2,19506],[50.2,19590],[50.2,19673],[50.2,19756],[50.2,19840],[50.2,19923],[50.2,20006],[50.2,20090],[50.2,20173],[50.2,20256],[50.2,20340],[50.2,20423],[50.2,20506],[50.2,20590],[52.1,20673],[57.1,20757],[59,20840],[61.5,20923],[64.5,21006]]",1,0,1788.447,1793.1297,21.25000159,2.8765,"[{""rating"":21.250001589457195,""responseTime"":2.8765000000003056}]",space,4.1339,,1793.1298,All the time,100,1798.3129,99.89584287,3.992,"[{""rating"":99.89584287007649,""responseTime"":3.9919999999997344}]",space,0,7,7,7,1,audio/Narrative7Situation7.wav,audio/Narrative8Situation7.wav,audio/Narrative5Situation7.wav,audio/Narrative6Situation7.wav,5,3,4,5,,,4.6521,,,,,,,,,,,,,,,,,,,,,,,,,,,,,,,,,,
,,,,,,5bf311373a5bf00001401f64,2024-05-13_10h44.36.981,group3.1-3.2-social-tom,2023.2.2,Win32,59.52380952,65c5074098b851296ff0b7ed,66423330e8f5526c44d9f06b,,,,,,,,,,,,,,,,,,,,,,,,,,,,,1798.3139,2,audio/Narrative5Situation8.wav,1801.3295,,1801.3295,1810.1562,"[[96.3,426],[96.6,510],[96.6,592],[96.6,667],[96.6,759],[96.6,843],[96.6,926],[96.9,1009],[96.9,1092],[96.9,1175],[96.9,1259],[97.1,1342],[97.1,1416],[97.1,1501],[97.1,1593],[97.1,1670],[97.1,1759],[97.1,1833],[97.1,1926],[97.3,2010],[97.4,2093],[97.4,2174],[97.6,2260],[97.8,2333],[97.9,2426],[98.1,2500],[98.4,2584],[98.4,2673],[99,2759],[99.4,2836],[99.5,2927],[99.5,3009],[99.7,3093],[99.8,3167],[99.9,3258],[100,3335],[100,3426],[100,3507],[100,3594],[100,3676],[100,3760],[100,3841],[100,3925],[100,3999],[100,4093],[100,4176],[100,4259],[100,4340],[100,4425],[100,4504],[100,4585],[100,4675],[100,4754],[100,4844],[100,4923],[100,5000],[100,5094],[100,5175],[100,5259],[100,5343],[100,5421],[100,5508],[100,5587],[100,5676],[100,5759],[100,5841],[100,5925],[100,6010],[100,6093],[100,6176],[100,6259],[100,6342],[100,6424],[100,6509],[100,6593],[100,6669],[100,6759],[100,6842],[100,6925],[100,7010],[100,7092],[100,7175],[100,7259],[100,7342],[100,7426],[100,7509],[100,7593],[100,7675],[100,7760],[100,7843],[100,7919],[100,8007],[100,8092],[100,8175],[100,8260],[100,8333],[100,8425],[100,8509],[100,8592],[100,8675],[100,8760]]",1,0,1810.1563,1813.2631,1.5625,2.0684,"[{""rating"":1.5625,""responseTime"":2.068399999856865}]",space,2.565,,1813.2633,Not at all,0,1813.2683,,,[],,0,8,8,8,1,audio/Narrative7Situation8.wav,audio/Narrative8Situation8.wav,audio/Narrative5Situation8.wav,audio/Narrative6Situation8.wav,2,3,3,5,,,,,,,,,,,,,,,,,,,,,,,,,,,,,,,,,,,,,
,,,,,,5bf311373a5bf00001401f64,2024-05-13_10h44.36.981,group3.1-3.2-social-tom,2023.2.2,Win32,59.52380952,65c5074098b851296ff0b7ed,66423330e8f5526c44d9f06b,,,,,,,,,,,,,,,,,,,,,,,,,,,,,1813.2686,2,audio/Narrative5Situation9.wav,1816.2741,,1816.2741,1855.8286,"[[4.5,165],[4.5,249],[4.7,331],[4.7,414],[4.7,498],[4.9,581],[9.9,665],[62.2,750],[67.9,824],[68.9,916],[69.5,991],[70.3,1081],[70.5,1159],[70.4,1239],[68.2,1331],[58.1,1415],[45.9,1498],[10.1,1582],[4.9,1665],[4.9,1740],[9.5,1831],[49,1916],[77.6,1998],[89.6,2081],[98.4,2165],[99.9,2247],[100,2331],[100,2414],[100,2498],[100,2580],[100,2658],[100,2748],[100,2830],[100,2907],[100,2988],[100,3081],[100,3164],[100,3248],[100,3321],[100,3414],[100,3497],[100,3581],[100,3664],[100,3738],[100,3831],[100,3905],[100,3998],[100,4081],[100,4163],[100,4247],[100,4324],[100,4405],[100,4498],[100,4581],[100,4664],[100,4748],[100,4832],[100,4914],[100,4998],[100,5079],[100,5156],[100,5248],[100,5330],[100,5414],[100,5488],[100,5572],[100,5665],[100,5746],[100,5831],[100,5913],[100,5997],[100,6080],[100,6165],[100,6240],[100,6321],[100,6411],[100,6498],[100,6582],[100,6661],[100,6747],[100,6831],[100,6905],[100,6996],[100,7081],[100,7155],[100,7248],[100,7331],[100,7408],[100,7499],[100,7580],[100,7656],[100,7739],[100,7823],[100,7914],[100,7998],[100,8081],[100,8164],[100,8249],[100,8323],[100,8404],[100,8490],[100,8581],[100,8662],[100,8739],[100,8830],[100,8912],[100,8990],[100,9081],[100,9165],[45.3,16921],[45.2,17004],[47.1,17088],[56.8,17171],[57.6,17254],[57.6,17338],[57.6,17421],[57,17504],[55,17588],[54.5,17671],[54.3,17754],[53.3,17838],[52.2,17921],[51.7,18004],[50.9,18088],[50.4,18171],[50.4,18254],[50.4,18338],[50.4,18421],[50.4,18505],[50.4,18588],[50.4,18671],[50.4,18754],[50.4,18837],[50.4,18920],[50.4,19004],[50.4,19088],[50.4,19171],[50.4,19254],[50.4,19337],[50.4,19421],[50.4,19504],[50.4,19587],[50.4,19671],[50.5,19754],[50.5,19838],[50.8,19921],[50.9,20004],[51.1,20088],[51.4,20171],[51.5,20255],[51.6,20337],[51.8,20421],[51.8,20505],[51.9,20588],[51.9,20671],[51.9,20754],[51.9,20838],[51.9,20921],[51.9,21004],[51.9,21087],[52,21172],[52,21254],[52,21337],[52,21421],[52,21504],[52,21587],[52,21671],[51.7,21755],[51.7,21837],[51.3,21921],[50.9,22005],[50.6,22087],[50.4,22171],[50.4,22254],[50.4,22337],[50.4,22421],[50.4,22504],[50.4,22588],[50.4,22671],[50.4,22754],[50.4,22838],[50.4,22921],[50.4,23004],[50.4,23088],[50.4,23171],[50.4,23254],[50.5,23338],[50.5,23421],[50.7,23504],[50.7,23588],[50.8,23671],[50.8,23754],[50.8,23837],[50.8,23921],[50.8,24004],[50.8,24088],[50.8,24171],[51,24254],[51,24337],[51,24421],[51.4,24504],[51.4,24587],[51.6,24671],[51.6,24754],[51.6,24837],[51.9,24921],[51.9,25004],[52.1,25087],[52.1,25171],[52.1,25254],[52.1,25338],[52.1,25421],[52.1,25504],[52.1,25587],[52.1,25670],[52.1,25754],[52.1,25838],[52.2,25922],[52,26004],[51.9,26087],[51.9,26171],[51.9,26254],[51.7,26337],[51.7,26421],[51.7,26504],[51.7,26588],[51.7,26670],[51.7,26754],[51.7,26838],[51.7,26920],[51.7,27004],[51.7,27087],[51.7,27171],[51.7,27254],[51.7,27337],[51.7,27421],[51.7,27504],[51.7,27587],[51.7,27670],[51.7,27754],[51.7,27837],[51.7,27920],[51.7,28004],[51.7,28087],[51.7,28171],[51.7,28254],[51.7,28337],[51.7,28420],[51.7,28504],[51.7,28587],[51.7,28671],[51.7,28754],[51.7,28837],[51.7,28921],[51.8,29004],[51.8,29087],[51.8,29171],[51.8,29254],[51.8,29337],[51.8,29420],[51.8,29504],[51.8,29588],[51.8,29670],[51.8,29754],[51.8,29837],[51.8,29920],[51.8,30004],[51.8,30087],[51.8,30171],[51.8,30254],[51.8,30337],[51.8,30421],[51.8,30504],[51.8,30587],[51.8,30670],[51.8,30754],[51.9,30838],[51.9,30921],[52,31004],[52,31087],[52.1,31171],[52.1,31254],[52.1,31337],[52.3,31420],[52.5,31504],[52.6,31587],[52.7,31671],[52.9,31754],[53.1,31837],[53.4,31921],[53.5,32004],[53.6,32087],[53.6,32170],[53.6,32254],[53.6,32337],[53.6,32420],[53.6,32504],[53.5,32587],[53.4,32670],[53.4,32754],[53.3,32837],[53.3,32920],[53.3,33004],[53.3,33087],[53.3,33170],[53.2,33254],[53.2,33337],[53.2,33420],[53.2,33504],[53.2,33588],[53.2,33670],[53.2,33754],[53.2,33838],[53.2,33920],[53.2,34004],[53.2,34087],[53.2,34170],[53.2,34254],[53.2,34337],[53.2,34421],[53.2,34504],[53.2,34587],[53.2,34671],[53.2,34754],[53.2,34837],[53.2,34920],[53.2,35004],[53.2,35087],[53.2,35171],[53.2,35254],[53.2,35337],[53.2,35420],[53.2,35504],[53.2,35587],[53.2,35670],[53.2,35754],[53.2,35837],[53.2,35920],[53.2,36004],[53.2,36087],[53.2,36170],[53.2,36254],[53.2,36337],[53.2,36420],[53.2,36504],[53.2,36587],[53.3,36670],[53.3,36754],[53.3,36837],[53.4,36921],[53.4,37004],[53.4,37087],[53.4,37170],[53.4,37254],[53.4,37337],[53.4,37421],[53.4,37504],[53.5,37587],[53.6,37670],[54,37754],[54.2,37837],[54.5,37920],[54.5,38004],[54.5,38087],[54.5,38171],[54.6,38254],[54.7,38337],[54.7,38420],[54.7,38504],[54.7,38587],[54.6,38670],[54,38754],[53,38837],[51.7,38920],[50.4,39004],[45.7,39087],[39.3,39171],[38.6,39254],[37.4,39337],[36.3,39420],[35.5,39504]]",1,0,1855.829,1857.8456,35.41666667,1.0111,"[{""rating"":35.416666666666664,""responseTime"":1.0110999999046726}]",space,1.4685,,1857.8456,Half the time,50,1857.8504,,,[],,0,9,9,9,1,audio/Narrative7Situation9.wav,audio/Narrative8Situation9.wav,audio/Narrative5Situation9.wav,audio/Narrative6Situation9.wav,2,3,3,4,,,,,,,,,,,,,,,,,,,,,,,,,,,,,,,,,,,,,
,,,,,,5bf311373a5bf00001401f64,2024-05-13_10h44.36.981,group3.1-3.2-social-tom,2023.2.2,Win32,59.52380952,65c5074098b851296ff0b7ed,66423330e8f5526c44d9f06b,,,,,,,,,,,,,,,,,,,,,,,,,,,,,1857.8506,2,audio/Narrative6Situation1.wav,1859.8622,,1859.8625,1886.4708,"[[999,1],[999,82],[999,165],[999,249],[999,332],[999,415],[999,499],[999,582],[999,665],[999,749],[999,832],[999,916],[999,999],[999,1082],[999,1165],[999,1249],[999,1332],[999,1415],[999,1499],[999,1582],[999,1666],[999,1749],[999,1832],[999,1916],[999,1999],[999,2082],[999,2165],[999,2249],[999,2332],[999,2415],[999,2499],[999,2582],[999,2665],[999,2749],[999,2832],[999,2915],[999,2999],[999,3082],[999,3166],[999,3249],[999,3332],[999,3416],[999,3499],[999,3582],[999,3666],[999,3749],[999,3832],[999,3915],[999,3999],[999,4082],[999,4165],[999,4249],[999,4332],[999,4415],[999,4498],[999,4582],[999,4665],[999,4749],[999,4832],[999,4915],[999,4999],[999,5082],[999,5165],[999,5249],[999,5332],[999,5415],[999,5499],[999,5582],[999,5666],[999,5749],[999,5832],[999,5915],[999,5999],[999,6082],[999,6165],[999,6249],[999,6332],[999,6415],[999,6499],[999,6582],[999,6665],[999,6749],[999,6832],[999,6915],[999,6998],[999,7082],[999,7165],[999,7249],[999,7332],[999,7416],[999,7505],[999,7595],[999,7668],[999,7760],[999,7832],[999,7915],[999,7999],[999,8082],[999,8166],[999,8249],[999,8341],[999,8415],[999,8499],[999,8582],[999,8674],[999,8749],[999,8835],[999,8916],[999,8999],[999,9091],[999,9165],[999,9256],[999,9341],[999,9415],[999,9508],[999,9592],[999,9668],[999,9749],[999,9832],[999,9916],[999,10009],[999,10082],[999,10168],[999,10249],[999,10342],[999,10419],[999,10500],[999,10582],[999,10676],[999,10751],[999,10836],[999,10925],[999,11001],[999,11085],[999,11165],[999,11252],[999,11341],[999,11425],[999,11501],[999,11582],[999,11675],[999,11749],[999,11842],[999,11925],[999,12000],[999,12092],[999,12166],[999,12250],[999,12332],[999,12425],[999,12508],[999,12582],[999,12666],[999,12749],[999,12832],[999,12926],[999,13009],[999,13082],[999,13175],[999,13248],[999,13341],[999,13415],[999,13502],[999,13582],[999,13676],[999,13758],[999,13839],[999,13925],[999,14007],[999,14091],[999,14175],[999,14252],[999,14342],[999,14425],[999,14499],[999,14591],[999,14673],[999,14749],[999,14841],[999,14925],[999,15004],[999,15091],[999,15169],[999,15249],[999,15333],[999,15425],[999,15508],[999,15582],[999,15675],[999,15749],[999,15842],[999,15915],[999,16008],[999,16086],[999,16173],[999,16260],[999,16342],[999,16418],[999,16509],[999,16582],[999,16669],[999,16751],[999,16832],[999,16923],[999,17008],[999,17082],[999,17175],[999,17252],[999,17332],[999,17415],[999,17499],[999,17589],[999,17674],[999,17749],[999,17832],[999,17925],[999,18009],[999,18089],[999,18182],[999,18265],[999,18349],[999,18432],[999,18523],[999,18599],[999,18688],[999,18769],[999,18849],[999,18932],[999,19015],[999,19099],[999,19182],[999,19265],[999,19349],[999,19432],[999,19515],[999,19608],[999,19682],[999,19766],[999,19858],[999,19941],[999,20024],[999,20107],[999,20192],[999,20274],[999,20358],[999,20441],[999,20524],[999,20608],[999,20691],[999,20774],[999,20858],[999,20941],[999,21024],[999,21107],[999,21191],[999,21265],[999,21359],[999,21441],[999,21525],[999,21601],[999,21692],[999,21775],[999,21858],[999,21932],[999,22017],[999,22109],[999,22192],[999,22267],[999,22358],[999,22442],[999,22515],[999,22609],[999,22683],[999,22774],[999,22849],[999,22932],[999,23017],[999,23099],[999,23182],[999,23275],[999,23358],[999,23438],[999,23524],[999,23601],[999,23684],[999,23765],[999,23849],[999,23941],[999,24016],[999,24098],[999,24191],[999,24273],[999,24358],[999,24432],[999,24525],[999,24608],[999,24691],[999,24775],[999,24858],[999,24943],[999,25024],[999,25099],[999,25190],[999,25274],[999,25358],[999,25441],[999,25524],[999,25608],[999,25691],[999,25768],[999,25858],[999,25941],[999,26024],[999,26102],[999,26182],[999,26275],[999,26358],[999,26433],[999,26521],[999,26608]]",1,0,1886.4709,1889.3379,8.020834128,2.1085,"[{""rating"":8.020834128061932,""responseTime"":2.1084999999998217}]",space,2.3317,,1889.338,Not at all,0,1889.3411,,,[],,0,10,10,10,1,audio/Narrative8Situation1.wav,audio/Narrative7Situation1.wav,audio/Narrative6Situation1.wav,audio/Narrative5Situation1.wav,5,2,2,5,,,,,,,,,,,,,,,,,,,,,,,,,,,,,,,,,,,,,
,,,,,,5bf311373a5bf00001401f64,2024-05-13_10h44.36.981,group3.1-3.2-social-tom,2023.2.2,Win32,59.52380952,65c5074098b851296ff0b7ed,66423330e8f5526c44d9f06b,,,,,,,,,,,,,,,,,,,,,,,,,,,,,1889.3414,2,audio/Narrative6Situation2.wav,1892.3537,,1892.3538,1920.8612,"[[999,0],[999,73],[999,166],[999,250],[999,333],[999,416],[999,500],[999,583],[999,660],[999,740],[999,826],[999,917],[999,992],[999,1083],[999,1165],[999,1240],[999,1333],[999,1407],[999,1500],[999,1577],[999,1657],[999,1750],[999,1833],[999,1906],[999,1995],[999,2073],[999,2166],[999,2240],[999,2333],[999,2416],[999,2490],[999,2583],[999,2666],[999,2741],[999,2832],[999,2907],[999,2999],[999,3073],[999,3167],[999,3250],[999,3329],[999,3407],[999,3490],[999,3573],[999,3659],[999,3750],[999,3823],[999,3917],[999,4000],[999,4074],[999,4157],[999,4242],[999,4333],[999,4416],[999,4498],[999,4582],[999,4657],[999,4741],[999,4833],[999,4911],[999,4994],[999,5083],[999,5166],[999,5250],[999,5331],[999,5409],[999,5490],[999,5576],[999,5666],[999,5748],[999,5828],[999,5909],[999,5992],[999,6083],[999,6165],[999,6241],[999,6332],[999,6417],[999,6494],[999,6583],[999,6657],[999,6740],[999,6833],[999,6918],[999,6990],[999,7083],[999,7164],[999,7250],[999,7333],[999,7410],[999,7500],[999,7583],[999,7666],[999,7750],[999,7833],[999,7917],[999,7999],[999,8082],[999,8166],[999,8240],[999,8328],[999,8416],[999,8500],[999,8583],[999,8666],[999,8740],[999,8832],[999,8906],[999,8992],[999,9081],[999,9165],[999,9250],[999,9327],[999,9417],[999,9498],[999,9582],[999,9666],[999,9750],[999,9832],[999,9916],[999,9999],[999,10074],[999,10156],[999,10240],[999,10323],[999,10407],[999,10500],[999,10578],[999,10667],[999,10748],[999,10823],[999,10917],[999,10999],[999,11074],[999,11165],[999,11240],[999,11333],[999,11406],[999,11490],[999,11582],[999,11666],[999,11750],[999,11824],[999,11917],[999,11990],[999,12083],[999,12157],[999,12240],[999,12327],[999,12416],[999,12500],[999,12574],[999,12656],[999,12749],[999,12833],[999,12907],[999,12999],[999,13075],[999,13156],[999,13244],[999,13325],[999,13416],[999,13490],[999,13573],[999,13656],[999,13740],[999,13833],[999,13914],[999,13990],[999,14083],[999,14163],[999,14249],[999,14332],[999,14415],[999,14500],[999,14573],[999,14656],[999,14750],[999,14826],[999,14907],[999,15000],[999,15073],[999,15157],[999,15249],[999,15323],[999,15407],[999,15494],[999,15583],[999,15657],[999,15749],[999,15832],[999,15917],[999,15990],[999,16075],[999,16156],[999,16242],[999,16333],[999,16418],[999,16490],[999,16582],[999,16667],[999,16750],[999,16832],[999,16916],[999,16998],[999,17073],[999,17166],[999,17240],[999,17323],[999,17406],[999,17490],[999,17583],[999,17658],[999,17750],[999,17823],[999,17906],[999,17999],[999,18073],[999,18159],[999,18249],[999,18323],[999,18416],[999,18499],[999,18582],[999,18665],[999,18748],[999,18824],[999,18906],[999,19000],[999,19081],[999,19167],[999,19240],[999,19332],[999,19407],[999,19491],[999,19583],[999,19656],[999,19740],[999,19823],[999,19906],[999,19994],[999,20082],[999,20160],[999,20245],[999,20332],[999,20409],[999,20492],[999,20573],[999,20659],[999,20750],[999,20823],[999,20910],[999,21000],[999,21073],[999,21165],[999,21251],[999,21323],[999,21416],[999,21489],[999,21573],[999,21664],[999,21740],[999,21823],[999,21916],[999,21998],[999,22075],[999,22166],[999,22250],[999,22323],[999,22416],[999,22500],[999,22580],[999,22656],[999,22740],[999,22832],[999,22918],[999,22990],[999,23073],[999,23166],[999,23240],[999,23333],[999,23406],[999,23499],[999,23582],[999,23666],[999,23750],[999,23832],[999,23917],[999,24000],[999,24083],[999,24166],[999,24250],[999,24333],[999,24407],[999,24500],[999,24581],[999,24664],[999,24750],[999,24833],[999,24914],[999,24999],[999,25082],[999,25166],[999,25249],[999,25331],[999,25406],[999,25489],[999,25581],[999,25664],[999,25748],[999,25832],[999,25916],[999,25991],[999,26073],[999,26165],[999,26239],[999,26332],[999,26416],[999,26499],[999,26573],[999,26656],[999,26751],[999,26832],[999,26916],[999,26998],[999,27083],[999,27166],[999,27239],[999,27334],[999,27414],[999,27498],[999,27573],[999,27666],[999,27740],[999,27823],[999,27916],[999,27989],[999,28073],[999,28156],[999,28248],[999,28332],[999,28407],[999,28490]]",1,0,1920.8615,1923.3711,6.979167461,1.3985,"[{""rating"":6.979167461395264,""responseTime"":1.39850000000024}]",space,1.9598,,1923.3712,All the time,100,1923.3752,,,[],,0,11,11,11,1,audio/Narrative8Situation2.wav,audio/Narrative7Situation2.wav,audio/Narrative6Situation2.wav,audio/Narrative5Situation2.wav,3,3,3,3,,,,,,,,,,,,,,,,,,,,,,,,,,,,,,,,,,,,,
,,,,,,5bf311373a5bf00001401f64,2024-05-13_10h44.36.981,group3.1-3.2-social-tom,2023.2.2,Win32,59.52380952,65c5074098b851296ff0b7ed,66423330e8f5526c44d9f06b,,,,,,,,,,,,,,,,,,,,,,,,,,,,,1923.3755,2,audio/Narrative6Situation3.wav,1928.3781,,1928.3781,1940.9939,"[[5.8,592],[5.2,676],[5.2,748],[5.2,832],[5.2,915],[4.8,1008],[4.3,1093],[4,1170],[4,1251],[4,1333],[4,1415],[4,1509],[4,1583],[4,1665],[4,1748],[4,1841],[4,1925],[4,2006],[4,2085],[3.6,2168],[3.5,2255],[3.5,2341],[3.5,2415],[3.5,2500],[3.5,2591],[3.5,2665],[3.5,2749],[3.5,2841],[3.5,2916],[3.5,3008],[3.5,3089],[3.5,3175],[3.5,3252],[3.5,3339],[3.5,3425],[3.5,3508],[3.5,3583],[3.5,3674],[3.5,3749],[3.5,3842],[3.5,3924],[3.5,4006],[3.5,4085],[3.5,4173],[3.5,4251],[3.4,4332],[3.4,4416],[3.4,4498],[3.4,4582],[3.4,4665],[3.4,4758],[3.4,4842],[3.4,4925],[3.4,5006],[3.4,5092],[3.4,5166],[3.4,5258],[3.4,5341],[3.4,5415],[3.4,5508],[3.4,5584],[3.4,5675],[3.4,5758],[3.4,5831],[3.4,5925],[3.4,6008],[3.4,6085],[3.4,6173],[3.4,6259],[3.4,6336],[3.4,6415],[3.4,6508],[3.4,6592],[3.4,6667],[3.4,6758],[3.4,6841],[3.4,6923],[3.4,7006],[3.4,7091],[3.4,7167],[3.4,7255],[3.4,7341],[3.4,7416],[3.4,7508],[3.4,7585],[3.4,7675],[3.3,7765],[3.3,7848],[3.2,7932],[3.2,8015],[3.2,8098],[3.2,8181],[3.2,8265],[3.2,8348],[3.2,8431],[3.2,8515],[3.2,8598],[3.2,8681],[3.2,8765],[3.2,8848],[3.2,8931],[3.2,9015],[3.2,9098],[2.9,9181],[2.9,9265],[2.9,9348],[2.9,9431],[2.9,9515],[2.9,9598],[2.9,9682],[2.8,9765],[2.8,9848],[2.8,9931],[2.8,10015],[2.8,10098],[2.8,10182],[2.8,10265],[2.8,10348],[2.8,10431],[2.8,10515],[2.8,10598],[2.8,10681],[2.7,10765],[2.7,10848],[2.7,10931],[2.7,11015],[2.7,11098],[2.7,11182],[2.7,11265],[2.7,11348],[2.7,11432],[2.7,11515],[2.7,11598],[2.7,11682],[2.7,11765],[2.7,11848],[2.7,11931],[2.7,12015],[2.7,12098],[2.7,12181],[2.7,12265],[2.7,12348],[2.7,12431],[2.7,12515],[2.7,12598]]",1,0,1940.9942,1945.0438,47.60417144,2.5932,"[{""rating"":47.60417143503825,""responseTime"":2.5932000000475455}]",space,3.4992,,1945.0439,Not at all,0,1945.0504,,,[],,0,12,12,12,1,audio/Narrative8Situation3.wav,audio/Narrative7Situation3.wav,audio/Narrative6Situation3.wav,audio/Narrative5Situation3.wav,4,8,5,3,,,,,,,,,,,,,,,,,,,,,,,,,,,,,,,,,,,,,
,,,,,,5bf311373a5bf00001401f64,2024-05-13_10h44.36.981,group3.1-3.2-social-tom,2023.2.2,Win32,59.52380952,65c5074098b851296ff0b7ed,66423330e8f5526c44d9f06b,,,,,,,,,,,,,,,,,,,,,,,,,,,,,1945.0507,2,audio/Narrative6Situation4.wav,1947.0597,,1947.0597,1959.6765,"[[999,0],[999,83],[999,166],[999,249],[999,333],[999,416],[999,500],[999,583],[999,666],[999,750],[999,834],[999,916],[999,1000],[999,1083],[999,1166],[999,1249],[999,1333],[999,1416],[999,1500],[999,1583],[999,1666],[999,1750],[999,1833],[999,1916],[999,2000],[999,2083],[999,2166],[999,2250],[999,2333],[999,2416],[999,2500],[999,2583],[999,2666],[999,2750],[999,2833],[999,2916],[999,3000],[999,3083],[999,3166],[999,3250],[999,3333],[999,3416],[999,3500],[999,3583],[999,3666],[999,3749],[999,3833],[999,3916],[999,4000],[999,4083],[999,4166],[999,4249],[999,4333],[999,4416],[999,4500],[999,4583],[999,4666],[999,4750],[999,4833],[999,4916],[999,5000],[999,5083],[999,5166],[999,5250],[999,5333],[999,5416],[999,5500],[999,5583],[999,5666],[999,5750],[999,5833],[999,5916],[999,5999],[999,6083],[999,6166],[999,6249],[999,6333],[999,6416],[999,6499],[999,6583],[999,6666],[999,6749],[999,6833],[999,6916],[999,6999],[999,7083],[999,7166],[999,7249],[999,7333],[999,7416],[999,7499],[999,7583],[999,7666],[999,7749],[999,7833],[999,7916],[999,8000],[999,8083],[999,8166],[999,8250],[999,8333],[999,8416],[999,8499],[999,8583],[999,8666],[999,8749],[999,8833],[999,8916],[999,8999],[999,9083],[999,9166],[999,9249],[999,9333],[999,9416],[999,9499],[999,9583],[999,9666],[999,9750],[999,9833],[999,9916],[999,10000],[999,10083],[999,10166],[999,10250],[999,10333],[999,10416],[999,10500],[999,10583],[999,10666],[999,10750],[999,10833],[999,10916],[999,10999],[999,11083],[999,11166],[999,11250],[999,11333],[999,11416],[999,11499],[999,11583],[999,11666],[999,11750],[999,11833],[999,11916],[999,11999],[999,12083],[999,12166],[999,12249],[999,12333],[999,12416],[999,12499],[999,12583]]",1,0,1959.6768,1964.4095,7.187501589,3.5196,"[{""rating"":7.187501589457196,""responseTime"":3.519600000142873}]",space,4.1873,,1964.4095,Half the time,50,1964.4143,,,[],,0,13,13,13,1,audio/Narrative8Situation4.wav,audio/Narrative7Situation4.wav,audio/Narrative6Situation4.wav,audio/Narrative5Situation4.wav,3,3,2,1,,,,,,,,,,,,,,,,,,,,,,,,,,,,,,,,,,,,,
,,,,,,5bf311373a5bf00001401f64,2024-05-13_10h44.36.981,group3.1-3.2-social-tom,2023.2.2,Win32,59.52380952,65c5074098b851296ff0b7ed,66423330e8f5526c44d9f06b,,,,,,,,,,,,,,,,,,,,,,,,,,,,,1964.4145,2,audio/Narrative6Situation5.wav,1966.4261,,1966.4262,1974.3935,"[[6.6,2833],[52.5,3999],[51.6,4083],[48.5,4166],[48.5,4249],[48.5,4333],[48.5,4416],[49.9,4500],[50.2,4583],[50.2,4667],[50.2,4749],[50.2,4833],[50.2,4916],[50.2,4999],[50.2,5083],[50.2,5166],[50.2,5249],[50.1,5333],[50.1,5416],[50.1,5499],[50.1,5583],[50.1,5666],[50.1,5749],[50.1,5833],[50.1,5916],[50.1,5999],[50.1,6083],[50.1,6166],[50.1,6249],[50.1,6333],[50.1,6416],[50.1,6499],[50.1,6583],[50.1,6666],[50.1,6749],[50.1,6833],[50.1,6916],[50.1,6999],[50.1,7083],[50.1,7166],[50.1,7249],[50.1,7332],[50.1,7416],[50.1,7499],[50.1,7583],[50.1,7666],[50.1,7749],[50.1,7833],[50.1,7916]]",1,0,1974.3937,1981.1926,74.68750477,3.4932,"[{""rating"":74.68750476837158,""responseTime"":3.4932000000476364}]",space,6.2517,,1981.1926,Not at all,0,1981.1977,,,[],,0,14,14,14,1,audio/Narrative8Situation5.wav,audio/Narrative7Situation5.wav,audio/Narrative6Situation5.wav,audio/Narrative5Situation5.wav,2,5,2,5,,,,,,,,,,,,,,,,,,,,,,,,,,,,,,,,,,,,,
,,,,,,5bf311373a5bf00001401f64,2024-05-13_10h44.36.981,group3.1-3.2-social-tom,2023.2.2,Win32,59.52380952,65c5074098b851296ff0b7ed,66423330e8f5526c44d9f06b,,,,,,,,,,,,,,,,,,,,,,,,,,,,,1981.198,2,audio/Narrative6Situation6.wav,1983.2091,,1983.2092,1994.2755,[],1,0,1994.2757,1997.4043,1.770834128,2.0676,"[{""rating"":1.7708341280619322,""responseTime"":2.067600000143102}]",space,2.5674,,1997.4044,Not at all,0,1997.407,,,[],,0,15,15,15,1,audio/Narrative8Situation6.wav,audio/Narrative7Situation6.wav,audio/Narrative6Situation6.wav,audio/Narrative5Situation6.wav,2,3,2,3,,,,,,,,,,,,,,,,,,,,,,,,,,,,,,,,,,,,,
,,,,,,5bf311373a5bf00001401f64,2024-05-13_10h44.36.981,group3.1-3.2-social-tom,2023.2.2,Win32,59.52380952,65c5074098b851296ff0b7ed,66423330e8f5526c44d9f06b,,,,,,,,,,,,,,,,,,,,,,,,,,,,,1997.4073,2,audio/Narrative6Situation7.wav,2002.4088,,2002.4089,2027.2679,[],1,0,2027.2681,2030.3916,76.7708381,2.2599,"[{""rating"":76.77083810170491,""responseTime"":2.259900000095058}]",space,2.5845,,2030.3917,Half the time,50,2030.3965,,,[],,0,16,16,16,1,audio/Narrative8Situation7.wav,audio/Narrative7Situation7.wav,audio/Narrative6Situation7.wav,audio/Narrative5Situation7.wav,3,5,5,4,,,,,,,,,,,,,,,,,,,,,,,,,,,,,,,,,,,,,
,,,,,,5bf311373a5bf00001401f64,2024-05-13_10h44.36.981,group3.1-3.2-social-tom,2023.2.2,Win32,59.52380952,65c5074098b851296ff0b7ed,66423330e8f5526c44d9f06b,,,,,,,,,,,,,,,,,,,,,,,,,,,,,2030.3968,2,audio/Narrative6Situation8.wav,2035.4079,,2035.4079,2042.2591,[],1,0,2042.2592,2045.2077,63.43750159,1.8025,"[{""rating"":63.43750158945719,""responseTime"":1.8024999999997817}]",space,2.4008,,2045.2078,All the time,100,2045.2128,,,[],,0,17,17,17,1,audio/Narrative8Situation8.wav,audio/Narrative7Situation8.wav,audio/Narrative6Situation8.wav,audio/Narrative5Situation8.wav,3,2,5,3,,,,,,,,,,,,,,,,,,,,,,,,,,,,,,,,,,,,,
,,,,,,5bf311373a5bf00001401f64,2024-05-13_10h44.36.981,group3.1-3.2-social-tom,2023.2.2,Win32,59.52380952,65c5074098b851296ff0b7ed,66423330e8f5526c44d9f06b,,,,,,,,,,,,,,,,,,,,,,,,,,,,,2045.213,2,audio/Narrative6Situation9.wav,2049.2243,,2049.2244,2059.1578,"[[999,8],[999,83],[999,166],[999,249],[999,333],[999,416],[999,499],[999,583],[999,666],[999,749],[999,833],[999,916],[999,1000],[999,1083],[999,1166],[999,1250],[999,1333],[999,1416],[999,1499],[999,1583],[999,1666],[999,1750],[999,1833],[999,1916],[999,1999],[999,2083],[999,2167],[999,2249],[999,2333],[999,2416],[999,2499],[999,2583],[999,2666],[999,2749],[999,2833],[999,2916],[999,2999],[999,3083],[999,3166],[999,3249],[999,3333],[999,3416],[999,3500],[999,3583],[999,3666],[999,3749],[999,3833],[999,3916],[999,3999],[999,4083],[999,4166],[999,4249],[999,4333],[999,4416],[999,4500],[999,4583],[999,4666],[999,4749],[999,4833],[999,4916],[999,4999],[999,5083],[999,5166],[999,5249],[999,5333],[999,5416],[999,5499],[999,5583],[999,5666],[999,5749],[999,5833],[999,5916],[999,5999],[999,6083],[999,6166],[999,6249],[999,6333],[999,6416],[999,6499],[999,6583],[999,6666],[999,6749],[999,6833],[999,6916],[999,6999],[999,7083],[999,7166],[999,7249],[999,7334],[999,7416],[999,7499],[999,7583],[999,7666],[999,7749],[999,7833],[999,7916],[999,7999],[999,8083],[999,8166],[999,8249],[999,8333],[999,8416],[999,8499],[999,8583],[999,8666],[999,8750],[999,8833],[999,8916],[999,8999],[999,9082],[999,9166],[999,9249],[999,9333],[999,9416],[999,9499],[999,9583],[999,9666],[999,9749],[999,9832],[999,9916]]",1,0,2059.1581,2062.7075,93.02083651,1.6706,"[{""rating"":93.02083651224773,""responseTime"":1.67059999990488}]",space,3.0017,,2062.7077,Not at all,0,2062.713,,,[],,0,18,18,18,1,audio/Narrative8Situation9.wav,audio/Narrative7Situation9.wav,audio/Narrative6Situation9.wav,audio/Narrative5Situation9.wav,3,2,4,3,,,,,,,,,,,,,,,,,,,,,,,,,,,,,,,,,,,,,
,,,,,,5bf311373a5bf00001401f64,2024-05-13_10h44.36.981,group3.1-3.2-social-tom,2023.2.2,Win32,59.52380952,65c5074098b851296ff0b7ed,66423330e8f5526c44d9f06b,,,,,,,,,,,,,,,,,,,,,,,,,,,,,,,,,,,,,,,,,,,,,,,,,,,,,,,,,,,,,,,,,,,,,,,,2062.7131,2116.9401,space,53.7022,,2116.9417,2164.8067,space,47.5378,,,,,,,,,,,,,,,,,,,,,,,,
,,,,,,5bf311373a5bf00001401f64,2024-05-13_10h44.36.981,group3.1-3.2-social-tom,2023.2.2,Win32,59.52380952,65c5074098b851296ff0b7ed,66423330e8f5526c44d9f06b,,,,,,,,,,,,,,,,,,,,,,,,,,,,,2167.4037,1,audio/Narrative8Situation9.wav,2169.4052,,,,,,,2201.3465,2206.7379,40.20833174,4.2034,"[{""rating"":40.208331743876144,""responseTime"":4.203400000095371}]",space,4.8522,,2201.3326,All the time,100,2201.3464,,,[],,,,,,,,,,,2,2,2,2,,,,,,,,,,,,,,,2164.816,2167.3895,2169.4058,3,2201.3324,"[[999,1],[999,91],[999,170],[999,259],[999,333],[999,416],[999,504],[999,594],[999,666],[999,750],[999,843],[999,916],[999,1011],[999,1094],[999,1166],[999,1258],[999,1342],[999,1422],[999,1510],[999,1590],[999,1676],[999,1759],[999,1843],[999,1926],[999,2006],[999,2085],[999,2176],[999,2250],[999,2337],[999,2426],[999,2505],[999,2583],[999,2676],[999,2760],[999,2840],[999,2915],[999,3009],[999,3082],[999,3176],[999,3260],[999,3336],[999,3416],[999,3510],[999,3583],[999,3676],[999,3749],[999,3833],[999,3916],[999,4007],[999,4092],[999,4174],[999,4258],[999,4333],[999,4416],[999,4509],[999,4583],[999,4666],[999,4749],[999,4833],[999,4916],[999,5006],[999,5091],[999,5174],[999,5249],[999,5343],[999,5420],[999,5509],[999,5583],[999,5671],[999,5760],[999,5840],[999,5924],[999,6009],[999,6086],[999,6176],[999,6260],[999,6342],[999,6416],[999,6499],[999,6587],[999,6675],[999,6754],[999,6832],[999,6925],[999,6999],[999,7092],[999,7166],[999,7259],[999,7342],[999,7416],[999,7509],[999,7583],[999,7677],[999,7759],[999,7835],[999,7926],[999,8007],[999,8092],[999,8170],[999,8249],[999,8342],[999,8415],[999,8506],[999,8586],[999,8669],[999,8760],[999,8836],[999,8926],[999,9000],[999,9092],[999,9177],[999,9254],[999,9332],[999,9419],[999,9509],[999,9592],[999,9672],[999,9759],[999,9832],[999,9927],[999,10010],[999,10091],[999,10173],[999,10250],[999,10337],[999,10416],[999,10509],[999,10593],[999,10666],[999,10759],[999,10833],[999,10927],[999,11007],[999,11092],[999,11176],[999,11249],[999,11343],[999,11420],[999,11510],[999,11583],[999,11666],[999,11749],[999,11832],[999,11917],[999,12000],[999,12083],[999,12175],[999,12249],[999,12341],[999,12425],[999,12510],[999,12593],[999,12674],[999,12757],[999,12844],[999,12916],[999,12999],[999,13086],[999,13170],[999,13253],[999,13344],[999,13418],[999,13499],[999,13592],[999,13666],[999,13753],[999,13833],[999,13926],[999,14008],[999,14083],[999,14166],[999,14249],[999,14343],[999,14424],[999,14499],[999,14586],[999,14675],[999,14754],[999,14832],[999,14925],[999,15009],[999,15086],[999,15177],[999,15259],[999,15332],[999,15426],[999,15509],[999,15592],[999,15669],[999,15757],[999,15842],[999,15925],[999,16003],[999,16087],[999,16169],[999,16259],[999,16332],[999,16426],[999,16509],[999,16586],[999,16666],[999,16761],[999,16843],[999,16926],[999,17007],[999,17085],[999,17166],[999,17260],[999,17336],[999,17425],[999,17499],[999,17593],[999,17677],[999,17755],[999,17843],[999,17916],[999,17999],[999,18094],[999,18176],[999,18252],[999,18343],[999,18426],[999,18500],[999,18587],[999,18676],[999,18758],[999,18832],[999,18924],[999,19008],[999,19087],[999,19176],[999,19257],[999,19335],[999,19416],[999,19507],[999,19586],[999,19676],[999,19758],[999,19841],[999,19927],[999,20009],[999,20092],[999,20166],[999,20249],[999,20343],[999,20416],[999,20508],[999,20584],[999,20676],[999,20760],[999,20841],[999,20926],[999,21005],[999,21082],[999,21166],[999,21257],[999,21335],[999,21416],[999,21503],[999,21582],[999,21666],[999,21749],[999,21836],[999,21926],[999,22003],[999,22082],[999,22170],[999,22250],[999,22342],[999,22420],[999,22507],[999,22593],[999,22667],[999,22749],[999,22842],[999,22916],[999,23009],[999,23083],[999,23166],[999,23248],[999,23335],[999,23428],[999,23499],[999,23583],[999,23676],[999,23753],[999,23841],[999,23926],[999,24000],[999,24082],[999,24165],[999,24257],[999,24332],[999,24426],[999,24500],[999,24584],[999,24675],[999,24759],[999,24834],[999,24925],[999,24999],[999,25090],[999,25170],[999,25260],[999,25332],[999,25426],[999,25509],[999,25586],[999,25676],[999,25749],[999,25834],[999,25923],[999,25999],[999,26086],[999,26165],[999,26250],[999,26342],[999,26419],[999,26503],[999,26586],[999,26665],[999,26760],[999,26842],[999,26922],[999,26998],[999,27091],[999,27177],[999,27259],[999,27337],[999,27418],[999,27509],[999,27587],[999,27673],[999,27759],[999,27834],[999,27926],[999,28010],[999,28091],[999,28176],[999,28250],[999,28336],[999,28417],[999,28498],[999,28590],[999,28676],[999,28749],[999,28832],[999,28924],[999,29001],[999,29082],[999,29168],[999,29258],[999,29341],[999,29420],[999,29506],[999,29587],[999,29676],[999,29749],[999,29842],[999,29924],[999,29999],[999,30085],[999,30175],[999,30257],[999,30336],[999,30426],[999,30502],[999,30592],[999,30674],[999,30759],[999,30842],[999,30916],[999,31002],[999,31089],[999,31168],[999,31253],[999,31341],[999,31426],[999,31507],[999,31593],[999,31668],[999,31758],[999,31832],[999,31924]]",0,0,0,0,1,"Larry had recently lost his family, job and home, and was now living on his own in the park. He had most of his belongings, including some clothes, a blanket, and his mother’s special necklace. His family had been very important to him and he felt as though he did not have much going for him. One of his first days in the park he came across a family that did not have much food and looked very cold. He decided to give them some of his food and his blanket.","Larry had recently lost his family, job and home, and was now living on his own in the park. He had most of his belongings, including some clothes, a blanket, and his mother’s special necklace. His family had been very important to him and he felt as though he did not have much going for him. One of his first days in the park he came across a family that did not have much food and looked very cold. He decided to give them some of his food and his blanket.","Larry had recently lost his family, job and home, and was now living on his own in the park. He had most of his belongings, including some clothes, a blanket, and his mother’s special necklace. His family had been very important to him and he felt as though he did not have much going for him. One of his first days in the park he came across a family that did not have much food and looked very cold. He decided to give them some of his food and his blanket.","Larry had recently lost his family, job and home, and was now living on his own in the park. He had most of his belongings, including some clothes, a blanket, and his mother’s special necklace. His family had been very important to him and he felt as though he did not have much going for him. One of his first days in the park he came across a family that did not have much food and looked very cold. He decided to give them some of his food and his blanket.",,,,,,,,
,,,,,,5bf311373a5bf00001401f64,2024-05-13_10h44.36.981,group3.1-3.2-social-tom,2023.2.2,Win32,59.52380952,65c5074098b851296ff0b7ed,66423330e8f5526c44d9f06b,,,,,,,,,,,,,,,,,,,,,,,,,,,,,2206.7394,1,audio/Narrative8Situation9.wav,2209.4717,space,,,,,,2243.0038,2248.2316,50.41666826,3.914,"[{""rating"":50.41666825612386,""responseTime"":3.9140000000002146}]",space,4.6879,,2242.9877,Not at all,0,2243.0038,,,[],,,,,,,,,,,6,2,3,9,2.7122,,,,,,,,,,,,,,,,2209.4718,3,2242.9876,[],0,1,1,1,1,"It was just another Sunday afternoon for Lucy, she was on her way to the farmer's market to pick up some produce. When she arrived at the old train depot that housed the market, she noticed two men fighting on the steps. Before she could call for help, one of the men crumpled to his knees. The other man dropped an object that appeared to be a knife and ran off. When Lucy approached the crime scene she realized that the man who had been murdered was the Mayor and that he had a gunshot wound.","One day at work, Margaret walked up to her partner, Al, to ask him to talk to the chief of staff at the local hospital where she worked as a nurse.","Luke always thought of himself as an honest man. That's why during his evening jog around the swamp, he pondered his recent affair with the receptionist at work. Luke looked up at the sky and asked God why he was so weak and unfaithful. He thought of the impact this would have on his family and told God of his conflicted feelings toward telling his wife Marta.","Linda and Amy had been best friends since kindergarten, they even found homes on the same street in the forest on the edge of town. Their biggest fight had been over who gets the bigger slice of cake, until Amy married Dan. Linda loathed Dan, she thought he was manipulative and had a violent temper. She only put up with him because Amy loved him. ",,,,,,,,
