exp_question,consent.started,consent.stopped,consentResponse.keys,consentResponse.rt,consentResponse.duration,participantID,date,expName,psychopyVersion,OS,frameRate,STUDY_ID,SESSION_ID,opening1.started,opening1.stopped,keyEndingOpening1.keys,keyEndingOpening1.rt,keyEndingOpening1.duration,volumeAdjust.started,volumeAdjust.stopped,endingAdjust.keys,endingAdjust.rt,endingAdjust.duration,opening2.started,opening2.stopped,keyEndingOpening.keys,keyEndingOpening.rt,keyEndingOpening.duration,mouse.x,mouse.y,mouse.leftButton,mouse.midButton,mouse.rightButton,mouse.time,instructionLoop.thisRepN,instructionLoop.thisTrialN,instructionLoop.thisN,instructionLoop.thisIndex,instructionLoop.ran,readyForAudio.started,readyForAudio.stopped,fixation.started,run,audio_played,fixation.stopped,endPractice.keys,audioPre.started,audioPre.stopped,continuousResponses_audio,continuousSlider.response,continuousSlider.rt,intRating.started,intRating.stopped,intQuestionSlider.response,intQuestionSlider.rt,intQuestionSlider.history,confirmResponse.keys,confirmResponse.rt,confirmResponse.duration,catchQuestion.started,catch_label,catch_value,catchQuestion.stopped,catchQuestionSlider.response,catchQuestionSlider.rt,catchQuestionSlider.history,confirmResponse_2.keys,audioRunLoop.thisRepN,audioRunLoop.thisTrialN,audioRunLoop.thisN,audioRunLoop.thisIndex,audioRunLoop.ran,conditions1_1,conditions2_1,conditions1_2,conditions2_2,dur1_1,dur2_1,dur1_2,dur2_2,endPractice.rt,endPractice.duration,confirmResponse_2.rt,confirmResponse_2.duration,runIntervalBreak.started,runIntervalBreak.stopped,endingBreakKey.keys,endingBreakKey.rt,endingBreakKey.duration,connection.started,connection.stopped,connectionEnding.keys,connectionEnding.rt,connectionEnding.duration,readyForText.started,readyForText.stopped,textPre.started,run_dup,textPre.stopped,continuousResponses_text,textRunLoop.thisRepN,textRunLoop.thisTrialN,textRunLoop.thisN,textRunLoop.thisIndex,textRunLoop.ran,text1_1,text1_2,text2_1,text2_2,runBreakText.started,runBreakText.stopped,endingBreakKey_2.keys,endingBreakKey_2.rt,endingBreakKey_2.duration,ending.started,ending.stopped,endingEnding.keys,endingEnding.rt,endingEnding.duration
social,0.0005,8.3682,y,8.0353,,5c284ae48e845b0001fc40aa,2024-02-08_09h45.22.734,group3.1-3.2-social-tom,2023.2.2,Win32,60.24096386,65c5074098b851296ff0b7ed,65c512f7cb8cbf64dc830564,,,,,,,,,,,,,,,,,,,,,,,,,,,,,,,,,,,,,,,,,,,,,,,,,,,,,,,,,,,,,,,,,,,,,,,,,,,,,,,,,,,,,,,,,,,,,,,,,,,,,,,,,,
,,,,,,5c284ae48e845b0001fc40aa,2024-02-08_09h45.22.734,group3.1-3.2-social-tom,2023.2.2,Win32,60.24096386,65c5074098b851296ff0b7ed,65c512f7cb8cbf64dc830564,8.3687,44.7697,space,36.3636,,,,,,,,,,,,,,,,,,,,,,,,,,,,,,,,,,,,,,,,,,,,,,,,,,,,,,,,,,,,,,,,,,,,,,,,,,,,,,,,,,,,,,,,,,,,,,,,,,,,,,
,,,,,,5c284ae48e845b0001fc40aa,2024-02-08_09h45.22.734,group3.1-3.2-social-tom,2023.2.2,Win32,60.24096386,65c5074098b851296ff0b7ed,65c512f7cb8cbf64dc830564,,,,,,44.7699,58.3501,space,13.2545,,,,,,,,,,,,,,,,,,,,,,,,,,,,,,,,,,,,,,,,,,,,,,,,,,,,,,,,,,,,,,,,,,,,,,,,,,,,,,,,,,,,,,,,,,,,,,,,,
,,,,,,5c284ae48e845b0001fc40aa,2024-02-08_09h45.22.734,group3.1-3.2-social-tom,2023.2.2,Win32,60.24096386,65c5074098b851296ff0b7ed,65c512f7cb8cbf64dc830564,,,,,,,,,,,58.3596,175.634,space,117.2495,,[],[],[],[],[],[],0,0,0,0,1,,,,,,,,,,,,,,,,,,,,,,,,,,,,,,,,,,,,,,,,,,,,,,,,,,,,,,,,,,,,,,,,,,,,,,,,,,,,,,,,
,,,,,,5c284ae48e845b0001fc40aa,2024-02-08_09h45.22.734,group3.1-3.2-social-tom,2023.2.2,Win32,60.24096386,65c5074098b851296ff0b7ed,65c512f7cb8cbf64dc830564,,,,,,,,,,,175.6404,195.8032,space,20.1025,,[],[],[],[],[],[],1,0,1,0,1,,,,,,,,,,,,,,,,,,,,,,,,,,,,,,,,,,,,,,,,,,,,,,,,,,,,,,,,,,,,,,,,,,,,,,,,,,,,,,,,
,,,,,,5c284ae48e845b0001fc40aa,2024-02-08_09h45.22.734,group3.1-3.2-social-tom,2023.2.2,Win32,60.24096386,65c5074098b851296ff0b7ed,65c512f7cb8cbf64dc830564,,,,,,,,,,,195.8094,275.6997,space,79.8552,,[],[],[],[],[],[],2,0,2,0,1,,,,,,,,,,,,,,,,,,,,,,,,,,,,,,,,,,,,,,,,,,,,,,,,,,,,,,,,,,,,,,,,,,,,,,,,,,,,,,,,
,,,,,,5c284ae48e845b0001fc40aa,2024-02-08_09h45.22.734,group3.1-3.2-social-tom,2023.2.2,Win32,60.24096386,65c5074098b851296ff0b7ed,65c512f7cb8cbf64dc830564,,,,,,,,,,,275.7071,339.0636,space,63.3373,,[],[],[],[],[],[],3,0,3,0,1,,,,,,,,,,,,,,,,,,,,,,,,,,,,,,,,,,,,,,,,,,,,,,,,,,,,,,,,,,,,,,,,,,,,,,,,,,,,,,,,
,,,,,,5c284ae48e845b0001fc40aa,2024-02-08_09h45.22.734,group3.1-3.2-social-tom,2023.2.2,Win32,60.24096386,65c5074098b851296ff0b7ed,65c512f7cb8cbf64dc830564,,,,,,,,,,,339.0821,393.6016,space,54.505,,[],[],[],[],[],[],4,0,4,0,1,,,,,,,,,,,,,,,,,,,,,,,,,,,,,,,,,,,,,,,,,,,,,,,,,,,,,,,,,,,,,,,,,,,,,,,,,,,,,,,,
,,,,,,5c284ae48e845b0001fc40aa,2024-02-08_09h45.22.734,group3.1-3.2-social-tom,2023.2.2,Win32,60.24096386,65c5074098b851296ff0b7ed,65c512f7cb8cbf64dc830564,,,,,,,,,,,,,,,,,,,,,,,,,,,393.6239,396.2038,396.2258,1,audio/Narrative13Situation2.wav,398.2395,,398.2399,428.0194,"[[999,2],[999,115],[999,199],[999,282],[999,365],[999,449],[999,532],[999,616],[999,699],[999,782],[999,866],[999,949],[999,1033],[999,1116],[999,1199],[999,1283],[999,1366],[999,1450],[999,1533],[999,1617],[999,1700],[999,1784],[999,1867],[999,1951],[999,2034],[999,2117],[999,2200],[999,2284],[42.1,2368],[36,2451],[30.7,2534],[28.5,2618],[28.5,2701],[28.5,2784],[28.5,2868],[28.5,2951],[28.5,3035],[28.5,3118],[28.5,3201],[28.5,3285],[28.5,3368],[28.5,3452],[28.5,3535],[28.5,3619],[28.5,3702],[28.5,3785],[28.5,3869],[28.5,3952],[28.2,4036],[28.2,4119],[28.2,4202],[28.2,4286],[28.2,4369],[28.2,4452],[29.2,4536],[29.7,4619],[31.8,4703],[39.7,4787],[44.7,4870],[52.3,4953],[59.4,5037],[59.4,5120],[59.4,5203],[59.4,5287],[59.4,5370],[59.4,5454],[59.4,5537],[59.4,5621],[59.4,5704],[59.4,5788],[59.4,5871],[60,5954],[60.5,6038],[60.8,6121],[60.8,6204],[61.3,6288],[61.4,6371],[61.7,6455],[61.7,6539],[61.7,6622],[61.7,6705],[61.7,6789],[61.7,6872],[61.7,6955],[61.7,7039],[61.5,7122],[55.4,7206],[52.3,7290],[49.6,7372],[49.6,7456],[48.4,7539],[42,7623],[40.6,7706],[37.4,7789],[32.9,7873],[31.7,7956],[30.2,8040],[29,8123],[29,8207],[29,8290],[29.1,8373],[33,8457],[54.4,8540],[68.1,8624],[76.4,8707],[84.9,8790],[87.5,8874],[87.5,8958],[87.6,9040],[87.6,9124],[87.6,9207],[87.6,9291],[87.6,9374],[87.6,9458],[87.6,9541],[87.6,9625],[87.6,9708],[87.6,9792],[87.6,9875],[87.6,9958],[87.6,10042],[87.6,10125],[87.6,10209],[87.6,10292],[87.6,10375],[87.6,10459],[87.6,10542],[87.6,10626],[87.6,10709],[87.6,10793],[87.6,10876],[87.6,10959],[87.6,11043],[87.6,11126],[87.6,11210],[87.6,11293],[87.6,11376],[87.6,11460],[87.6,11543],[87.6,11627],[87.6,11710],[87.6,11794],[87.6,11877],[87.6,11960],[87.6,12044],[87.6,12127],[87.6,12211],[87.6,12294],[87.6,12377],[87.6,12461],[87.6,12544],[87.6,12628],[87.6,12711],[87.6,12795],[87.6,12878],[87.6,12962],[87.6,13045],[89.9,13128],[90.3,13212],[90.4,13295],[90.7,13378],[90.7,13462],[90.7,13545],[90.7,13629],[90.7,13712],[90.7,13796],[90.7,13879],[90.7,13962],[90.7,14046],[90.7,14129],[90.7,14213],[90.7,14296],[90.7,14379],[90.7,14463],[90.7,14546],[90.7,14630],[90.7,14713],[90.7,14797],[90.7,14880],[90.7,14963],[90.7,15047],[90.7,15130],[90.7,15213],[90.7,15297],[90.7,15380],[90.7,15464],[90.7,15547],[90.7,15631],[90.7,15714],[90.7,15798],[90.7,15881],[90.7,15964],[90.7,16048],[90.7,16131],[90.7,16214],[90.7,16298],[90.7,16382],[90.7,16465],[90.7,16548],[90.7,16632],[90.7,16715],[90.7,16799],[90.7,16882],[90.7,16965],[90.7,17049],[90.7,17132],[90.7,17216],[90.7,17299],[89.4,17382],[72.6,17466],[37.9,17549],[27.3,17633],[27.3,17716],[27,17800],[26.5,17883],[26.5,17966],[26.1,18050],[23.6,18133],[23.6,18216],[23.6,18300],[23.6,18383],[23.6,18467],[23.6,18550],[23.6,18634],[23.6,18717],[23.6,18801],[23.6,18884],[23.6,18967],[23.6,19051],[23.6,19134],[23.6,19218],[23.6,19301],[23.6,19384],[23.6,19468],[23.6,19551],[23.6,19635],[23.6,19718],[23.6,19801],[23.6,19885],[23.6,19968],[23.6,20052],[23.6,20135],[23.6,20219],[23.6,20302],[23.6,20385],[23.6,20469],[23.6,20552],[23.6,20636],[23.6,20719],[23.6,20802],[23.6,20886],[23.6,20969],[23.6,21053],[23.6,21136],[23.6,21220],[23.6,21303],[23.6,21386],[23.6,21469],[23.6,21553],[23.6,21637],[23.6,21720],[23.6,21804],[23.6,21887],[23.9,21970],[27.4,22060],[45.2,22143],[48.8,22226],[50.1,22310],[55,22393],[59.6,22477],[60.4,22555],[60.5,22643],[65.1,22727],[65.2,22805],[65.2,22894],[65.2,22971],[65.2,23061],[66.4,23144],[67.1,23229],[69.4,23311],[76.7,23394],[87.3,23478],[89.3,23561],[89.3,23639],[89.3,23722],[89.3,23805],[89.3,23889],[89.3,23972],[89.3,24056],[89.3,24139],[89.3,24223],[89.3,24306],[89.3,24390],[89.3,24473],[89.3,24556],[88.6,24639],[83.2,24729],[71.1,24812],[70.7,24890],[70.7,24973],[72.6,25063],[82,25146],[86.8,25231],[86.8,25307],[86.8,25390],[86.8,25474],[86.8,25563],[86.8,25641],[86.8,25724],[86.8,25807],[86.8,25891],[86.8,25980],[86.8,26058],[86.8,26141],[86.8,26225],[86.8,26308],[86.8,26398],[86.8,26475],[86.8,26558],[86.8,26642],[86.8,26728],[86.8,26815],[86,26898],[69.8,26981],[68,27064],[68,27142],[68.5,27231],[69.9,27314],[69.9,27392],[69.9,27476],[69.9,27559],[69.9,27645],[69.9,27726],[69.9,27810],[69.9,27893],[69.9,27976],[69.8,28059],[69.8,28149],[69.8,28226],[69.8,28310],[69.8,28394],[69.8,28477],[69.8,28560],[69.8,28644],[69.8,28727],[69.8,28811],[69.8,28894],[69.8,28978],[69.8,29066],[69.8,29144],[69.8,29227],[69.8,29311],[69.8,29394],[69.8,29478],[69.8,29561],[69.8,29644],[69.8,29734]]",1,0,428.02,454.1292,78.85416667,4.8586,"[{""rating"":71.77083333333334,""responseTime"":3.0072000002860477},{""rating"":78.85416666666667,""responseTime"":4.858600000381443}]",space,25.5414,,454.1361,Partially,50,454.1389,,,[],,0,0,0,0,1,audio/Narrative13Situation2.wav,audio/Narrative13Situation2.wav,audio/Narrative13Situation2.wav,audio/Narrative13Situation2.wav,2,2,2,2,,,,,,,,,,,,,,,,,,,,,,,,,,,,,,,,,,,,,,,
,,,,,,5c284ae48e845b0001fc40aa,2024-02-08_09h45.22.734,group3.1-3.2-social-tom,2023.2.2,Win32,60.24096386,65c5074098b851296ff0b7ed,65c512f7cb8cbf64dc830564,,,,,,,,,,,,,,,,,,,,,,,,,,,,,454.139,1,audio/Narrative7Situation1.wav,462.8866,space,462.8867,518.7766,"[[78.8,1173],[62.3,1423],[61,1507],[58.9,1590],[52.4,1668],[52.3,1751],[60.1,1841],[67,1924],[67,2002],[67,2090],[67,2168],[67,2258],[67,2335],[67,2418],[67.3,2502],[67.3,2585],[67.3,2669],[67.3,2758],[67.3,2836],[62.9,2925],[57.8,3002],[57.8,3086],[57.6,3177],[57,3258],[56.9,3336],[56.9,3419],[56.9,3503],[56.9,3586],[56.9,3670],[56.9,3753],[56.9,3837],[56.9,3920],[56.9,4004],[56.9,4087],[56.9,4171],[56.9,4254],[56.9,4341],[56.9,4420],[56.9,4504],[56.9,4587],[56.9,4670],[56.9,4759],[56,4841],[53.9,4925],[53.9,5004],[53.9,5088],[53.9,5171],[53.9,5259],[53.9,5343],[53.9,5421],[54,5505],[54.7,5592],[54.9,5675],[55.7,5755],[56.6,5838],[56.6,5922],[56.6,6006],[56.6,6089],[56.6,6172],[56.6,6256],[56.6,6339],[56.6,6423],[56.6,6506],[56.6,6594],[56.6,6673],[56.6,6760],[56.6,6840],[56.6,6923],[56.6,7007],[56.6,7092],[56.6,7173],[56.6,7257],[56.6,7340],[56.6,7427],[59.1,7511],[60.1,7591],[60.1,7674],[61.7,7761],[61.7,7841],[61.7,7924],[62.1,8011],[62.7,8095],[62.7,8175],[62.8,8262],[62.9,8341],[62.9,8425],[62.9,8508],[62.9,8592],[62.9,8675],[62.9,8758],[62.9,8846],[62.9,8925],[62.9,9008],[62.9,9092],[62.9,9175],[62.9,9259],[62.9,9346],[62.9,9430],[62.9,9509],[62.9,9592],[62.9,9676],[62.9,9759],[62.9,9842],[62.9,9926],[62.9,10009],[62.9,10093],[62.9,10176],[62.9,10260],[62.9,10348],[62.9,10427],[62.9,10510],[62.9,10593],[62.9,10677],[62.9,10760],[62.9,10843],[62.9,10927],[62.9,11011],[62.9,11094],[62.9,11177],[62.9,11261],[62.9,11344],[62.9,11428],[62.9,11511],[62.9,11594],[62.9,11678],[62.9,11767],[62.9,11845],[62.9,11928],[62.9,12012],[62.9,12095],[62.9,12179],[62.9,12262],[62.9,12345],[62.9,12429],[62.9,12512],[62.9,12595],[67.2,12690],[70.5,12768],[77.1,12853],[84.8,12935],[91.1,13018],[96,13102],[100,13185],[100,13262],[100,13346],[100,13429],[100,13513],[100,13596],[100,13680],[100,13763],[100,13846],[100,13930],[100,14013],[100,14103],[100,14181],[100,14264],[100,14347],[100,14431],[100,14514],[100,14597],[100,14680],[100,14764],[100,14848],[100,14931],[100,15014],[100,15098],[100,15181],[100,15265],[100,15348],[100,15432],[100,15515],[100,15598],[100,15682],[100,15765],[100,15849],[100,15932],[100,16015],[100,16099],[100,16182],[100,16266],[100,16349],[100,16432],[100,16516],[100,16599],[100,16682],[100,16766],[100,16850],[100,16934],[100,17019],[100,17100],[100,17183],[100,17267],[100,17350],[100,17439],[100,17517],[100,17600],[100,17684],[100,17773],[100,17851],[100,17940],[100,18018],[100,18101],[100,18184],[100,18268],[100,18356],[100,18435],[100,18518],[100,18601],[100,18685],[100,18775],[97,18858],[95.7,18942],[95.4,19026],[94.8,19102],[91.8,19191],[90.4,19274],[90.4,19358],[90.4,19436],[83,19525],[74.8,19602],[68.2,19692],[66.5,19775],[66.5,19859],[66.5,19936],[65.8,20025],[65.3,20109],[63.4,20192],[58.4,20276],[55.3,20360],[52.5,20442],[52.5,20520],[52.5,20604],[52,20687],[51.9,20770],[51.9,20854],[51.9,20943],[51.9,21021],[51.9,21104],[51.6,21193],[51.6,21271],[50.1,21360],[43.9,21445],[43.3,21521],[32.4,21610],[31.3,21688],[31.3,21771],[31.1,21861],[30.8,21938],[30.6,22021],[30.2,22105],[30.2,22188],[30.2,22272],[30.2,22356],[30.2,22445],[30.2,22522],[30.2,22605],[30.2,22689],[30.2,22772],[30.2,22856],[30.2,22939],[30.2,23023],[31.1,23112],[35.1,23195],[38.8,23279],[43.4,23362],[43.4,23440],[44.3,23523],[45.7,23606],[45.7,23689],[45.7,23773],[45.7,23857],[45.7,23940],[45.7,24024],[45.7,24107],[45.7,24191],[45.7,24274],[45.7,24363],[45.7,24441],[45.7,24524],[45.7,24608],[45.7,24691],[45.7,24774],[45.7,24858],[45.7,24941],[45.7,25025],[45.7,25108],[45.7,25197],[45.7,25274],[45.7,25358],[45.7,25442],[45.7,25525],[45.7,25609],[45.7,25692],[45.7,25775],[45.7,25859],[45.7,25948],[45.7,26026],[45.7,26109],[45.7,26192],[45.7,26276],[45.7,26359],[45.7,26442],[45.7,26526],[45.7,26610],[45.7,26692],[45.7,26776],[45.7,26860],[45.7,26943],[45.7,27026],[45.7,27110],[45.7,27193],[45.7,27276],[47.7,27366],[52.8,27449],[52.8,27527],[52.8,27610],[52.9,27694],[52.9,27777],[52.9,27861],[52.9,27944],[52.9,28028],[52.9,28111],[52.9,28195],[52.9,28278],[52.9,28361],[52.9,28444],[52.9,28533],[52.9,28611],[52.9,28695],[52.9,28778],[52.9,28861],[52.9,28945],[52.9,29028],[52.9,29112],[51.9,29201],[49.6,29284],[49.6,29362],[49.6,29452],[49.6,29529],[50.7,29618],[56.4,29701],[57.6,29780],[59.2,29868],[61.1,29952],[62.6,30035],[64.5,30119],[64.6,30196],[64.6,30279],[64.6,30363],[64.6,30446],[64.6,30530],[64.6,30614],[64.6,30697],[64.6,30780],[64.6,30864],[64.6,30947],[64.6,31030],[64.6,31114],[64.6,31197],[64.6,31281],[64.6,31365],[64.6,31448],[64.6,31531],[64.6,31614],[64.6,31698],[64.6,31781],[64.6,31865],[64.6,31948],[64.6,32031],[64.6,32115],[64.6,32198],[64.6,32282],[64.6,32365],[64.6,32449],[64.6,32532],[64.6,32615],[64.6,32699],[65.7,32788],[65.7,32866],[65.7,32949],[66.9,33038],[67,33116],[67,33199],[67,33282],[67,33366],[67,33449],[67,33533],[67,33616],[67,33700],[67,33783],[67,33866],[67,33950],[67,34033],[67,34117],[67,34200],[67,34284],[67,34367],[67,34451],[67.1,34539],[67.1,34617],[67.1,34701],[67.1,34784],[67.3,34873],[67.8,34957],[67.8,35035],[67.8,35118],[67.8,35202],[67.8,35284],[67.8,35368],[67.9,35451],[68.2,35535],[68.2,35618],[68.2,35702],[68.2,35785],[68.2,35869],[68.2,35952],[68.2,36041],[68.2,36119],[69.8,36208],[72.1,36291],[74.4,36376],[77.4,36458],[77.4,36536],[78.8,36620],[84,36709],[85.6,36786],[90.8,36870],[93.3,36953],[95.1,37042],[97.9,37126],[97.9,37204],[98.1,37287],[99.3,37377],[99.6,37459],[99.8,37537],[100,37626],[99.5,37709],[99.5,37787],[99.5,37871],[99.5,37955],[99.5,38038],[99.5,38121],[99.5,38211],[99.5,38288],[99.5,38371],[99.5,38461],[99.7,38543],[99.8,38627],[99.8,38711],[99.8,38788],[99.9,38873],[99.9,38961],[99.9,39049],[100,39128],[100,39205],[100,39295],[100,39372],[100,39462],[100,39545],[100,39631],[100,39712],[100,39789],[100,39878],[100,39959],[100,40043],[100,40128],[100,40213],[100,40289],[100,40377],[100,40462],[100,40540],[100,40623],[100,40711],[100,40795],[100,40878],[100,40961],[100,41040],[100,41128],[100,41211],[100,41290],[100,41378],[100,41457],[100,41541],[100,41624],[100,41711],[100,41796],[100,41879],[100,41963],[100,42041],[100,42125],[100,42213],[100,42296],[100,42379],[100,42462],[100,42542],[100,42630],[100,42709],[100,42795],[100,42875],[100,42963],[100,43047],[100,43126],[100,43209],[100,43293],[100,43380],[100,43459],[100,43547],[100,43626],[100,43714],[100,43797],[100,43876],[100,43960],[100,44044],[100,44127],[100,44210],[100,44294],[100,44377],[100,44464],[100,44544],[100,44628],[100,44711],[100,44794],[100,44878],[100,44961],[100,45044],[100,45128],[100,45218],[100,45294],[100,45378],[100,45465],[100,45545],[100,45632],[100,45712],[100,45795],[100,45879],[100,45962],[100,46045],[100,46129],[100,46212],[100,46296],[100,46379],[100,46462],[100,46546],[100,46630],[100,46713],[100,46796],[100,46880],[100,46963],[100,47046],[100,47130],[100,47213],[100,47296],[100,47380],[100,47463],[100,47547],[100,47630],[100,47714],[100,47797],[100,47881],[100,47964],[100,48048],[100,48136],[100,48215],[100,48298],[100,48381],[100,48464],[100,48548],[100,48631],[100,48715],[100,48798],[100,48882],[100,48965],[100,49048],[100,49132],[99.8,49226],[99.8,49299],[99.8,49382],[99.8,49465],[99.8,49549],[99.8,49632],[99.8,49716],[99.8,49799],[99.8,49883],[99.8,49966],[99.8,50049],[99.8,50133],[99.8,50217],[99.8,50300],[99.8,50384],[99.8,50466],[99.8,50550],[99.8,50633],[99.8,50716],[99.8,50800],[99.8,50883],[99.8,50967],[99.8,51050],[99.8,51137],[99.8,51217],[99.8,51301],[99.8,51388],[99.8,51467],[99.8,51551],[99.8,51634],[99.8,51718],[99.8,51801],[99.8,51885],[99.8,51972],[99.8,52051],[99.8,52135],[99.8,52218],[99.8,52302],[99.8,52385],[99.8,52473],[99.8,52554],[99.8,52635],[99.8,52719],[99.8,52802],[99.8,52886],[99.8,52969],[99.8,53052],[99.8,53136],[99.8,53219],[99.8,53303],[99.8,53386],[99.8,53470],[99.8,53553],[99.8,53636],[99.8,53725],[99.8,53803],[99.8,53887],[99.8,53970],[99.8,54053],[99.8,54137],[99.8,54220],[99.8,54303],[99.8,54387],[99.8,54471],[99.8,54554],[99.8,54637],[99.8,54720],[99.8,54804],[99.8,54888],[99.8,54971],[99.8,55055],[99.8,55138],[99.8,55221],[99.8,55305],[99.8,55388],[99.8,55471],[99.8,55555],[99.8,55638],[99.8,55722],[99.8,55805],[99.8,55889]]",1,0,518.7776,577.768,99.47916667,2.3411,"[{""rating"":99.47916666666667,""responseTime"":2.341100000381516}]",space,58.441,,577.7681,Not at all,0,577.7767,,,[],,0,1,1,1,1,audio/Narrative7Situation1.wav,audio/Narrative8Situation1.wav,audio/Narrative5Situation1.wav,audio/Narrative6Situation1.wav,2,5,5,2,8.7271,,,,,,,,,,,,,,,,,,,,,,,,,,,,,,,,,,,,,,
,,,,,,5c284ae48e845b0001fc40aa,2024-02-08_09h45.22.734,group3.1-3.2-social-tom,2023.2.2,Win32,60.24096386,65c5074098b851296ff0b7ed,65c512f7cb8cbf64dc830564,,,,,,,,,,,,,,,,,,,,,,,,,,,,,577.7769,1,audio/Narrative7Situation2.wav,580.788,,580.7881,588.279,"[[999,0],[999,83],[999,166],[999,250],[999,338],[999,416],[999,499],[999,583],[999,667],[999,755],[999,833],[999,922],[999,1006],[999,1083],[999,1167],[999,1250],[999,1334],[999,1417],[999,1500],[999,1590],[999,1668],[999,1753],[999,1840],[999,1917],[999,2001],[999,2084],[999,2168],[999,2251],[999,2335],[999,2424],[999,2502],[63.2,2591],[78.4,2676],[85.4,2759],[85.4,2836],[85.4,2926],[85.4,3002],[86.6,3086],[92.3,3175],[92.6,3253],[93.4,3336],[97.8,3425],[98.2,3509],[98.8,3586],[98.9,3675],[98.9,3753],[98.9,3842],[98.9,3920],[98.9,4003],[98.9,4086],[98.9,4170],[98.9,4254],[98.9,4337],[98.9,4426],[98.9,4503],[98.9,4587],[98.9,4674],[98.9,4754],[98.9,4837],[98.9,4924],[98.9,5004],[98.9,5087],[98.9,5171],[98.9,5255],[98.9,5338],[98.9,5422],[98.9,5504],[98.9,5588],[98.9,5671],[98.9,5754],[98.9,5842],[98.9,5922],[98.9,6005],[98.9,6089],[98.9,6172],[98.9,6256],[98.9,6343],[98.9,6423],[98.9,6505],[98.9,6589],[98.9,6672],[98.9,6756],[98.9,6840],[98.9,6922],[98.9,7006],[98.9,7089],[98.9,7173],[98.9,7256],[98.9,7340],[98.9,7423]]",1,0,588.2794,637.9118,99.375,2.9969,"[{""rating"":99.375,""responseTime"":2.9969000000953656}]",space,49.0906,,637.9119,Not at all,0,637.9293,,,[],,0,2,2,2,1,audio/Narrative7Situation2.wav,audio/Narrative8Situation2.wav,audio/Narrative5Situation2.wav,audio/Narrative6Situation2.wav,3,3,3,3,,,,,,,,,,,,,,,,,,,,,,,,,,,,,,,,,,,,,,,
,,,,,,5c284ae48e845b0001fc40aa,2024-02-08_09h45.22.734,group3.1-3.2-social-tom,2023.2.2,Win32,60.24096386,65c5074098b851296ff0b7ed,65c512f7cb8cbf64dc830564,,,,,,,,,,,,,,,,,,,,,,,,,,,,,637.9297,1,audio/Narrative7Situation3.wav,645.9359,,645.936,655.179,"[[64.6,1507],[66.5,1590],[67.1,1674],[67.5,1757],[67.5,1840],[69,1924],[72.6,2007],[80.5,2091],[82.3,2174],[83.1,2258],[83.1,2335],[83.1,2418],[83.1,2502],[83.1,2585],[83.1,2674],[83.1,2752],[83.1,2836],[83.1,2919],[83.1,3002],[83.1,3086],[83.1,3169],[83.1,3253],[83.1,3337],[83.1,3419],[82.7,3509],[74.8,3592],[58.9,3675],[57,3761],[44.6,3842],[36,3926],[27.2,4004],[18.1,4092],[18,4170],[17.8,4254],[17.8,4343],[17.8,4421],[17.8,4504],[17.8,4587],[17.8,4671],[17.8,4754],[17.8,4838],[17.8,4921],[17.8,5004],[17.8,5088],[17.8,5171],[17.8,5258],[17.8,5342],[17.8,5422],[17.8,5509],[19.2,5592],[48,5676],[100,5759],[100,5842],[100,5922],[100,6005],[100,6089],[100,6176],[100,6256],[100,6343],[100,6427],[97,6512],[95.3,6589],[95.3,6673],[95.3,6760],[95.5,6840],[96,6923],[96,7007],[96,7090],[96,7173],[96,7257],[96,7340],[96,7423],[96,7507],[96,7591],[96,7674],[96,7757],[96,7841],[96,7927],[96,8008],[96,8091],[96,8174],[96,8258],[96,8341],[96,8425],[96,8508],[96,8591],[96,8675],[96,8759],[96,8842],[96,8926],[96,9008],[96,9092],[96,9175]]",1,0,655.1793,659.4721,88.125,2.4639,"[{""rating"":88.125,""responseTime"":2.46390000009535}]",space,3.7483,,659.4722,Not at all,0,659.4738,,,[],,0,3,3,3,1,audio/Narrative7Situation3.wav,audio/Narrative8Situation3.wav,audio/Narrative5Situation3.wav,audio/Narrative6Situation3.wav,8,4,3,5,,,,,,,,,,,,,,,,,,,,,,,,,,,,,,,,,,,,,,,
,,,,,,5c284ae48e845b0001fc40aa,2024-02-08_09h45.22.734,group3.1-3.2-social-tom,2023.2.2,Win32,60.24096386,65c5074098b851296ff0b7ed,65c512f7cb8cbf64dc830564,,,,,,,,,,,,,,,,,,,,,,,,,,,,,659.474,1,audio/Narrative7Situation4.wav,662.4862,,662.4863,674.2207,"[[77.5,2424],[70.5,2508],[70.4,2585],[69.3,2674],[58.2,2758],[46.7,2841],[46.1,2919],[46.1,3002],[46.1,3086],[47.1,3177],[52.5,3259],[57.6,3342],[57.7,3419],[57.7,3503],[57.7,3586],[57.7,3669],[57.7,3753],[55.4,3842],[51.5,3925],[51.1,4003],[51.1,4086],[50.4,4176],[48.9,4253],[48.9,4337],[48.9,4420],[49.4,4511],[49.6,4587],[49.6,4671],[49.6,4754],[49.6,4837],[49.6,4921],[45.9,5010],[39.1,5087],[29.9,5177],[29.3,5254],[28.2,5343],[23.1,5427],[22.1,5511],[20.8,5594],[20.5,5671],[20.2,5755],[17.7,5846],[17.2,5922],[15.8,6011],[15.3,6094],[15.3,6172],[14.7,6261],[7,6345],[3.5,6428]]",1,0,674.2209,679.0524,0,1.4683,"[{""rating"":0,""responseTime"":1.4683000001907658}]",space,4.2769,,679.0524,Partially,50,679.0601,,,[],,0,4,4,4,1,audio/Narrative7Situation4.wav,audio/Narrative8Situation4.wav,audio/Narrative5Situation4.wav,audio/Narrative6Situation4.wav,3,3,1,2,,,,,,,,,,,,,,,,,,,,,,,,,,,,,,,,,,,,,,,
,,,,,,5c284ae48e845b0001fc40aa,2024-02-08_09h45.22.734,group3.1-3.2-social-tom,2023.2.2,Win32,60.24096386,65c5074098b851296ff0b7ed,65c512f7cb8cbf64dc830564,,,,,,,,,,,,,,,,,,,,,,,,,,,,,679.0603,1,audio/Narrative7Situation5.wav,684.074,,684.074,692.5665,"[[999,6],[999,83],[999,173],[999,250],[999,333],[999,417],[999,500],[999,584],[999,667],[999,751],[999,834],[999,918],[999,1000],[999,1084],[999,1168],[999,1251],[999,1334],[999,1418],[999,1501],[999,1585],[999,1668],[999,1752],[999,1835],[999,1918],[999,2001],[999,2085],[999,2169],[999,2252],[999,2335],[999,2419],[999,2502],[999,2586],[999,2669],[999,2752],[999,2836],[999,2919],[999,3006],[999,3091],[999,3170],[999,3259],[999,3336],[999,3420],[999,3508],[999,3587],[999,3670],[999,3753],[999,3842],[999,3921],[999,4009],[999,4093],[999,4170],[999,4259],[999,4343],[999,4426],[14.9,4516],[15.1,4591],[15.1,4672],[15.1,4757],[15.1,4838],[14.4,4927],[11.9,5010],[8.8,5094],[8.5,5171],[8.1,5261],[8,5338],[7.9,5421],[7.8,5505],[7.8,5588],[7.8,5677],[7.8,5761],[7.8,5844],[7.8,5922],[7.8,6005],[7.8,6094],[7.8,6172],[7.8,6255],[7.8,6339],[7.8,6422],[7.5,6506],[7.4,6595],[7.4,6673],[7.1,6762],[6.9,6840],[6.8,6923],[6.5,7007],[6.4,7090],[6.4,7179],[6.4,7257],[6.4,7340],[6.4,7424],[6.4,7507],[6.4,7591],[6.4,7674],[6.4,7758],[6.4,7841],[6.4,7924],[6.4,8007],[6.4,8091],[6.4,8175],[6.4,8258],[6.4,8341],[6.4,8425]]",1,0,692.5668,718.5921,7.291666667,1.1452,"[{""rating"":7.291666666666669,""responseTime"":1.145199999809165}]",space,25.4784,,718.5924,Definitely yes,100,718.6027,,,[],,0,5,5,5,1,audio/Narrative7Situation5.wav,audio/Narrative8Situation5.wav,audio/Narrative5Situation5.wav,audio/Narrative6Situation5.wav,5,2,5,2,,,,,,,,,,,,,,,,,,,,,,,,,,,,,,,,,,,,,,,
,,,,,,5c284ae48e845b0001fc40aa,2024-02-08_09h45.22.734,group3.1-3.2-social-tom,2023.2.2,Win32,60.24096386,65c5074098b851296ff0b7ed,65c512f7cb8cbf64dc830564,,,,,,,,,,,,,,,,,,,,,,,,,,,,,718.6028,1,audio/Narrative7Situation6.wav,721.6114,,721.6115,731.5887,"[[999,0],[999,83],[999,166],[999,250],[999,333],[999,417],[999,506],[999,583],[999,667],[999,750],[999,840],[999,918],[999,1001],[999,1084],[999,1167],[999,1251],[999,1334],[999,1418],[999,1501],[999,1584],[999,1668],[999,1757],[999,1835],[999,1918],[999,2002],[999,2085],[999,2168],[999,2252],[999,2336],[999,2419],[999,2502],[999,2586],[999,2669],[999,2752],[999,2836],[999,2926],[999,3003],[999,3086],[999,3169],[999,3253],[999,3336],[999,3420],[999,3509],[62.4,3593],[64.5,3676],[65.2,3753],[66,3844],[66.4,3920],[71.6,4004],[89.1,4087],[89.1,4171],[91.4,4261],[97.7,4343],[97.7,4421],[99.6,4510],[99.9,4587],[99.9,4671],[99.9,4755],[99.9,4843],[99.9,4921],[99.9,5005],[99.9,5088],[99.9,5171],[99.9,5255],[99.9,5338],[99.9,5422],[99.9,5505],[99.9,5589],[99.9,5672],[99.9,5755],[99.9,5845],[99.9,5922],[99.9,6006],[99.9,6089],[99.9,6172],[99.9,6256],[99.9,6339],[99.9,6423],[99.9,6512],[99.7,6597],[99.7,6673],[99.7,6762],[99.7,6840],[99.7,6923],[99.7,7007],[99.7,7090],[99.7,7173],[99.7,7257],[99.7,7340],[99.7,7424],[99.7,7507],[99.7,7597],[99.7,7674],[99.7,7757],[99.7,7841],[99.7,7924],[99.7,8008],[99.7,8091],[99.7,8174],[99.7,8258],[99.7,8341],[99.7,8425],[99.7,8508],[99.7,8592],[99.7,8675],[99.7,8759],[99.7,8842],[99.7,8925],[99.7,9009],[99.7,9092],[99.7,9175],[99.7,9259],[99.7,9342],[99.7,9426],[99.7,9509],[99.7,9593],[99.7,9676],[99.7,9759],[99.7,9843],[99.7,9926]]",1,0,731.589,755.0952,99.58333333,22.5422,"[{""rating"":99.6875,""responseTime"":3.8265999999046016},{""rating"":97.1875,""responseTime"":21.482099999904676},{""rating"":99.58333333333333,""responseTime"":22.54220000028613}]",space,22.962,,755.0954,Definitely yes,100,755.0976,,,[],,0,6,6,6,1,audio/Narrative7Situation6.wav,audio/Narrative8Situation6.wav,audio/Narrative5Situation6.wav,audio/Narrative6Situation6.wav,3,2,3,2,,,,,,,,,,,,,,,,,,,,,,,,,,,,,,,,,,,,,,,
,,,,,,5c284ae48e845b0001fc40aa,2024-02-08_09h45.22.734,group3.1-3.2-social-tom,2023.2.2,Win32,60.24096386,65c5074098b851296ff0b7ed,65c512f7cb8cbf64dc830564,,,,,,,,,,,,,,,,,,,,,,,,,,,,,755.0978,1,audio/Narrative7Situation7.wav,760.0998,,760.0998,777.2846,"[[100,3503],[70.7,4260],[69.7,4343],[67.7,4421],[67,4510],[67.1,4587],[68.3,4677],[69.6,4760],[72.1,4843],[73.8,4921],[73.8,5005],[74.4,5095],[74.9,5177],[74.9,5255],[74.9,5338],[74.9,5422],[74.9,5505],[74.9,5588],[74.9,5672],[74.9,5755],[74.9,5839],[74.9,5928],[75.6,6011],[75.8,6089],[75.8,6172],[75.8,6256],[75.8,6340],[75.8,6423],[75.8,6506],[75.8,6590],[75.8,6673],[75.8,6756],[75.8,6840],[75.8,6923],[75.8,7007],[75.8,7090],[75.8,7173],[75.8,7257],[75.8,7341],[75.8,7424],[75.8,7507],[75.8,7591],[75.8,7674],[75.8,7758],[75.8,7841],[75.8,7924],[78.1,8014],[84,8097],[84.1,8175],[85.8,8264],[88.9,8342],[89.8,8431],[90.5,8514],[93.4,8597],[94,8680],[94,8759],[94.1,8842],[94.1,8925],[94.1,9009],[94.1,9092],[94.1,9182],[94.1,9259],[94.3,9348],[94.8,9432],[94.8,9509],[94.8,9593],[94.8,9676],[94.8,9759],[94.8,9843],[94.8,9926],[94.8,10010],[94.8,10093],[94.8,10182],[94.8,10260],[94.8,10343],[94.8,10427],[94.8,10510],[94.8,10594],[94.8,10677],[94.8,10760],[94.8,10844],[94.8,10927],[94.8,11011],[94.8,11094],[94.8,11177],[94.8,11261],[94.8,11344],[94.8,11428],[94.8,11511],[94.8,11595],[94.8,11678],[94.8,11762],[94.8,11845],[94.8,11928],[94.8,12012],[94.8,12095],[94.8,12178],[94.8,12262],[94.8,12345],[94.8,12429],[94.8,12512],[94.8,12596],[94.8,12679],[95.8,12768],[96.3,12846],[96.3,12929],[97.2,13018],[97.3,13103],[97.6,13185],[97.6,13263],[97.6,13346],[97.6,13430],[97.6,13514],[97.6,13597],[97.6,13680],[97.6,13763],[97.6,13847],[97.6,13930],[97.6,14014],[97.6,14097],[97.6,14180],[97.6,14264],[97.6,14347],[97.6,14431],[97.6,14514],[97.6,14598],[97.6,14681],[97.6,14764],[97.6,14848],[97.6,14931],[97.6,15014],[97.6,15098],[97.6,15182],[97.6,15265],[97.6,15349],[97.6,15432],[97.6,15515],[97.6,15599],[97.6,15688],[97.6,15765],[97.6,15849],[97.6,15933],[97.6,16016],[97.6,16099],[97.6,16183],[97.6,16266],[97.6,16349],[97.6,16433],[97.6,16516],[97.6,16600],[97.6,16683],[97.6,16766],[97.6,16850],[97.6,16933],[97.6,17017],[97.6,17100],[97.6,17184]]",1,0,777.2851,828.3516,99.6875,3.0385,"[{""rating"":99.6875,""responseTime"":3.038499999999999}]",space,50.5188,,828.3517,Definitely yes,100,828.3611,,,[],,0,7,7,7,1,audio/Narrative7Situation7.wav,audio/Narrative8Situation7.wav,audio/Narrative5Situation7.wav,audio/Narrative6Situation7.wav,5,3,4,5,,,,,,,,,,,,,,,,,,,,,,,,,,,,,,,,,,,,,,,
,,,,,,5c284ae48e845b0001fc40aa,2024-02-08_09h45.22.734,group3.1-3.2-social-tom,2023.2.2,Win32,60.24096386,65c5074098b851296ff0b7ed,65c512f7cb8cbf64dc830564,,,,,,,,,,,,,,,,,,,,,,,,,,,,,828.3613,1,audio/Narrative7Situation8.wav,830.3701,,830.3701,840.3805,"[[999,0],[999,83],[999,167],[999,250],[999,333],[999,417],[999,500],[999,584],[999,667],[999,750],[999,833],[999,917],[999,1000],[999,1084],[999,1167],[999,1250],[999,1334],[999,1418],[999,1501],[999,1584],[999,1668],[999,1751],[999,1835],[999,1918],[999,2001],[999,2085],[999,2168],[999,2252],[999,2336],[999,2418],[999,2502],[999,2586],[999,2669],[999,2752],[999,2836],[999,2919],[999,3002],[999,3086],[999,3170],[999,3253],[999,3337],[999,3419],[999,3503],[999,3587],[999,3670],[999,3753],[999,3837],[999,3920],[999,4003],[999,4087],[999,4170],[999,4254],[999,4337],[999,4421],[81.9,4505],[84.1,5088],[87.4,5171],[87.4,5255],[88.8,5339],[89.5,5422],[89.7,5505],[89.7,5589],[89.7,5672],[89.7,5755],[89.7,5839],[89.7,5922],[89.8,6006],[89.8,6089],[89.8,6172],[89.8,6256],[89.8,6339],[89.8,6422],[89.8,6506],[89.8,6589],[89.8,6673],[89.8,6757],[89.8,6840],[89.8,6923],[89.8,7007],[89.8,7090],[89.8,7173],[89.8,7257],[89.8,7340],[89.8,7424],[89.8,7507],[89.8,7591],[89.8,7674],[89.8,7757],[89.8,7841],[89.8,7924],[89.8,8007],[89.8,8091],[89.8,8174],[89.8,8258],[89.8,8341],[89.8,8425],[89.8,8508],[89.8,8591],[89.8,8675],[89.8,8758],[89.8,8842],[89.8,8925],[89.8,9008],[89.8,9092],[89.8,9175],[89.8,9259],[89.8,9343],[89.8,9426],[89.6,9509],[89.6,9593],[89.6,9677],[89.6,9759],[89.6,9843],[89.6,9926],[89.6,10010]]",1,0,840.3807,883.1564,97.5,1.3435,"[{""rating"":97.5,""responseTime"":1.3435000000000628}]",space,42.232,,883.1564,Definitely yes,100,883.166,,,[],,0,8,8,8,1,audio/Narrative7Situation8.wav,audio/Narrative8Situation8.wav,audio/Narrative5Situation8.wav,audio/Narrative6Situation8.wav,2,3,3,5,,,,,,,,,,,,,,,,,,,,,,,,,,,,,,,,,,,,,,,
,,,,,,5c284ae48e845b0001fc40aa,2024-02-08_09h45.22.734,group3.1-3.2-social-tom,2023.2.2,Win32,60.24096386,65c5074098b851296ff0b7ed,65c512f7cb8cbf64dc830564,,,,,,,,,,,,,,,,,,,,,,,,,,,,,883.1662,1,audio/Narrative7Situation9.wav,885.1749,,885.1749,893.8006,"[[999,0],[999,83],[999,166],[999,250],[999,333],[999,416],[999,500],[999,583],[999,666],[999,750],[999,834],[999,917],[999,1000],[999,1084],[999,1167],[999,1250],[999,1334],[999,1417],[999,1501],[999,1584],[999,1668],[999,1751],[999,1834],[999,1918],[999,2001],[80.6,2085],[94.7,2168],[95,2252],[95.7,2335],[100,2419],[100,2502],[100,2585],[100,2669],[100,2753],[100,2836],[100,2919],[100,3003],[100,3086],[100,3169],[100,3253],[100,3336],[100,3419],[100,3503],[100,3586],[100,3670],[100,3753],[100,3837],[100,3920],[100,4004],[100,4087],[100,4170],[100,4254],[100,4337],[100,4420],[100,4504],[100,4588],[100,4671],[100,4755],[100,4838],[100,4921],[100,5005],[100,5088],[100,5171],[100,5255],[100,5338],[100,5421],[100,5505],[100,5589],[100,5672],[100,5755],[100,5839],[100,5922],[100,6005],[100,6089],[100,6172],[100,6255],[100,6340],[100,6422],[100,6506],[100,6589],[100,6673],[100,6756],[100,6840],[100,6923],[100,7007],[100,7090],[100,7173],[100,7256],[100,7341],[100,7424],[100,7507],[100,7591],[100,7674],[100,7757],[100,7841],[100,7924],[100,8007],[100,8091],[100,8174],[100,8258],[100,8341],[100,8424],[100,8508],[100,8592]]",1,0,893.8008,942.1315,99.6875,1.3861,"[{""rating"":99.6875,""responseTime"":1.386099999904559}]",space,47.7777,,942.1315,Partially,50,942.1403,,,[],,0,9,9,9,1,audio/Narrative7Situation9.wav,audio/Narrative8Situation9.wav,audio/Narrative5Situation9.wav,audio/Narrative6Situation9.wav,2,3,3,4,,,,,,,,,,,,,,,,,,,,,,,,,,,,,,,,,,,,,,,
,,,,,,5c284ae48e845b0001fc40aa,2024-02-08_09h45.22.734,group3.1-3.2-social-tom,2023.2.2,Win32,60.24096386,65c5074098b851296ff0b7ed,65c512f7cb8cbf64dc830564,,,,,,,,,,,,,,,,,,,,,,,,,,,,,942.1404,1,audio/Narrative8Situation1.wav,947.1534,,947.1534,963.0701,"[[999,6],[999,83],[999,167],[999,249],[999,333],[999,417],[999,500],[999,584],[999,667],[999,750],[999,833],[999,917],[999,1007],[999,1084],[999,1167],[999,1251],[999,1335],[999,1417],[999,1501],[999,1584],[999,1668],[999,1751],[999,1835],[999,1918],[999,2002],[999,2085],[999,2168],[999,2252],[999,2336],[999,2419],[999,2502],[999,2585],[999,2669],[999,2759],[999,2836],[999,2919],[999,3003],[999,3086],[999,3169],[999,3253],[999,3336],[999,3420],[999,3503],[999,3586],[999,3670],[999,3753],[999,3837],[999,3920],[999,4004],[999,4087],[999,4170],[999,4254],[999,4338],[999,4421],[999,4504],[999,4588],[999,4676],[999,4754],[999,4838],[999,4921],[999,5004],[999,5088],[999,5171],[999,5254],[999,5338],[999,5428],[86.8,6011],[86.5,6096],[86.5,6172],[86.5,6256],[86.5,6339],[86.5,6422],[86.5,6506],[86.5,6590],[86.5,6673],[86.5,6756],[86.5,6840],[86.5,6923],[86.5,7007],[86.5,7090],[86.5,7173],[86.5,7257],[86.5,7340],[86.5,7424],[86.5,7508],[86.5,7590],[86.5,7674],[86.5,7757],[86.5,7841],[86.5,7924],[86.5,8012],[86.9,8094],[87,8174],[87,8258],[87,8341],[87.1,8426],[87.2,8508],[87.2,8591],[87.2,8675],[87.2,8758],[87.2,8842],[87.2,8925],[87.2,9009],[87.2,9092],[87.2,9176],[87.2,9259],[87.2,9342],[87.2,9431],[87.2,9509],[87.2,9593],[87.2,9676],[87.8,9760],[88.5,9846],[90.4,9930],[91.4,10013],[93.3,10097],[95.3,10180],[98,10266],[99.6,10347],[100,10427],[100,10510],[100,10593],[100,10677],[100,10760],[100,10844],[100,10927],[100,11010],[100,11098],[100,11178],[100,11260],[100,11344],[100,11428],[100,11512],[100,11594],[100,11678],[100,11762],[100,11845],[100,11928],[100,12012],[100,12100],[100,12184],[100,12262],[100,12345],[100,12429],[100,12512],[100,12596],[100,12679],[100,12762],[100,12846],[100,12929],[100,13013],[100,13096],[100,13179],[100,13263],[100,13346],[100,13432],[100,13518],[100,13597],[100,13680],[100,13763],[100,13847],[100,13930],[100,14014],[100,14097],[100,14180],[100,14269],[100,14347],[100,14430],[100,14514],[100,14598],[100,14680],[100,14764],[100,14848],[100,14931],[100,15015],[100,15103],[100,15181],[100,15265],[100,15348],[100,15432],[100,15515],[100,15599],[100,15682],[100,15765],[100,15849]]",1,0,963.0704,971.0438,99.47916667,1.934,"[{""rating"":99.47916666666667,""responseTime"":1.9340000000000828}]",space,7.4362,,971.0439,Definitely yes,100,971.0534,,,[],,0,10,10,10,1,audio/Narrative8Situation1.wav,audio/Narrative7Situation1.wav,audio/Narrative6Situation1.wav,audio/Narrative5Situation1.wav,5,2,2,5,,,,,,,,,,,,,,,,,,,,,,,,,,,,,,,,,,,,,,,
,,,,,,5c284ae48e845b0001fc40aa,2024-02-08_09h45.22.734,group3.1-3.2-social-tom,2023.2.2,Win32,60.24096386,65c5074098b851296ff0b7ed,65c512f7cb8cbf64dc830564,,,,,,,,,,,,,,,,,,,,,,,,,,,,,971.0535,1,audio/Narrative8Situation2.wav,974.0634,,974.0636,984.1741,"[[99.9,1418],[99.9,1501],[99.7,1584],[99.5,1668],[99.5,1751],[99.5,1835],[99.4,1919],[99.4,2001],[99.4,2085],[99.4,2168],[99.4,2251],[97.9,2335],[94,2418],[91.7,2502],[87.6,2586],[86.3,2669],[86.3,2753],[86.3,2836],[86.3,2919],[86.1,3002],[73.9,3086],[55.9,3169],[40.9,3253],[27.4,3336],[26.8,3420],[26.8,3503],[26.8,3586],[26.7,3670],[26.5,3753],[26.5,3837],[26.5,3920],[26.5,4003],[26.5,4087],[26.5,4170],[26.5,4253],[26.5,4337],[26.5,4420],[26.5,4504],[26.5,4587],[26.5,4671],[26.5,4754],[26.5,4838],[26.5,4921],[26.5,5004],[26.5,5088],[26.5,5171],[26.5,5255],[26.5,5339],[26.5,5422],[26.5,5505],[26.5,5589],[26.5,5672],[26.5,5756],[26.5,5839],[26.5,5922],[26.5,6006],[26.5,6089],[26.5,6172],[26.5,6256],[26.5,6339],[26.5,6423],[26.5,6506],[25.2,6589],[25.2,6673],[25.2,6756],[25.2,6840],[25.2,6923],[25.2,7006],[25.2,7090],[25.2,7173],[25.2,7257],[24.6,7340],[24.4,7424],[24.3,7507],[24.3,7591],[24.1,7674],[24.1,7758],[24.1,7841],[24.1,7924],[24.1,8007],[24.1,8091],[24.1,8174],[24.1,8258],[24.1,8341],[24.1,8425],[24.1,8508],[24.1,8591],[24.1,8675],[24.1,8759],[24.1,8842],[24.1,8925],[24.1,9008],[24.1,9092],[24.1,9175],[24.1,9259],[24.1,9342],[24.1,9426],[24.1,9509],[24.1,9592],[24.1,9676],[24.1,9759],[24.1,9843],[24.1,9926],[24.1,10010],[24.1,10093]]",1,0,984.1743,1049.7726,3.4375,1.7739,"[{""rating"":3.437499999999999,""responseTime"":1.7739000000952956}]",space,65.0548,,1049.7727,Not at all,0,1049.7871,,,[],,0,11,11,11,1,audio/Narrative8Situation2.wav,audio/Narrative7Situation2.wav,audio/Narrative6Situation2.wav,audio/Narrative5Situation2.wav,3,3,3,3,,,,,,,,,,,,,,,,,,,,,,,,,,,,,,,,,,,,,,,
,,,,,,5c284ae48e845b0001fc40aa,2024-02-08_09h45.22.734,group3.1-3.2-social-tom,2023.2.2,Win32,60.24096386,65c5074098b851296ff0b7ed,65c512f7cb8cbf64dc830564,,,,,,,,,,,,,,,,,,,,,,,,,,,,,1049.7872,1,audio/Narrative8Situation3.wav,1053.7935,,1053.7936,1076.1855,"[[999,24],[999,99],[999,182],[999,266],[999,349],[999,433],[999,517],[999,600],[999,683],[999,767],[999,850],[999,933],[999,1019],[999,1105],[999,1183],[999,1267],[999,1351],[999,1434],[999,1517],[999,1607],[999,1684],[999,1767],[999,1851],[999,1935],[999,2018],[999,2101],[999,2184],[999,2273],[999,2357],[999,2442],[48.5,2524],[48.5,2602],[48.3,2685],[46.5,2774],[43.1,2859],[40.6,2935],[40.6,3019],[40.6,3102],[46.8,3191],[48.4,3275],[56.3,3358],[56.5,3436],[57.6,3522],[68.8,3608],[72.6,3692],[72.6,3770],[72.7,3853],[72.7,3937],[72.7,4020],[72.7,4104],[72.7,4187],[72.7,4270],[74.6,4360],[75.1,4437],[75.1,4520],[75.1,4604],[75.1,4692],[75.1,4770],[75.1,4854],[75.9,4943],[78.3,5021],[79.7,5110],[80,5187],[80,5271],[80,5354],[80,5438],[80,5521],[80,5608],[80,5688],[80,5771],[80,5855],[80,5939],[80,6022],[80,6105],[80,6189],[80,6272],[80,6355],[80,6439],[80,6522],[80,6605],[80,6689],[80,6773],[80,6856],[80,6943],[80,7023],[80,7106],[80,7190],[80,7273],[80,7356],[80,7440],[80,7523],[80,7606],[80,7690],[80,7773],[80,7857],[80,7940],[80,8027],[80,8107],[80,8191],[80,8274],[80,8357],[80,8441],[80,8529],[80,8608],[80,8691],[80,8775],[80,8858],[80,8946],[80,9025],[80,9108],[80,9196],[80.4,9280],[84,9363],[88,9446],[90.2,9530],[95,9613],[97.1,9697],[100,9778],[100,9864],[100,9946],[100,10030],[100,10110],[100,10192],[100,10277],[100,10359],[100,10443],[100,10527],[100,10610],[100,10693],[100,10777],[100,10861],[100,10944],[100,11027],[100,11110],[100,11194],[100,11277],[100,11360],[100,11444],[100,11527],[100,11611],[100,11694],[100,11778],[100,11861],[100,11950],[100,12028],[100,12111],[100,12195],[100,12278],[100,12362],[100,12445],[100,12528],[100,12612],[100,12695],[100,12778],[100,12862],[100,12946],[100,13029],[100,13112],[100,13196],[100,13279],[100,13362],[100,13446],[100,13529],[100,13615],[100,13697],[100,13780],[100,13863],[100,13947],[100,14030],[100,14113],[100,14197],[100,14280],[100,14364],[100,14447],[100,14530],[100,14614],[100,14697],[100,14780],[100,14864],[100,14947],[100,15031],[100,15114],[100,15198],[100,15288],[100,15365],[100,15448],[100,15537],[100,15614],[100,15698],[100,15781],[100,15871],[100,15949],[100,16032],[100,16115],[100,16199],[100,16282],[100,16365],[100,16449],[100,16532],[100,16615],[100,16699],[100,16782],[100,16866],[100,16950],[100,17033],[100,17116],[100,17200],[100,17283],[100,17367],[100,17450],[100,17533],[100,17616],[100,17700],[100,17784],[100,17867],[100,17951],[100,18034],[100,18123],[100,18200],[100,18284],[100,18368],[100,18451],[100,18534],[100,18618],[100,18701],[100,18784],[100,18868],[100,18952],[100,19042],[100,19119],[100,19201],[100,19285],[100,19369],[100,19452],[100,19535],[100,19619],[100,19702],[100,19785],[100,19875],[100,19953],[100,20036],[100,20119],[100,20202],[100,20286],[100,20370],[100,20453],[100,20536],[100,20619],[100,20703],[100,20786],[100,20870],[100,20953],[100,21037],[100,21120],[100,21203],[100,21287],[100,21371],[100,21454],[100,21537],[100,21621],[100,21704],[100,21787],[100,21871],[100,21961],[100,22038],[100,22121],[100,22204],[100,22288],[100,22378]]",1,0,1076.1857,1081.3041,99.79166667,3.6868,"[{""rating"":99.79166666666667,""responseTime"":3.686800000190715}]",space,4.5784,,1081.3043,Partially,50,1081.31,,,[],,0,12,12,12,1,audio/Narrative8Situation3.wav,audio/Narrative7Situation3.wav,audio/Narrative6Situation3.wav,audio/Narrative5Situation3.wav,4,8,5,3,,,,,,,,,,,,,,,,,,,,,,,,,,,,,,,,,,,,,,,
,,,,,,5c284ae48e845b0001fc40aa,2024-02-08_09h45.22.734,group3.1-3.2-social-tom,2023.2.2,Win32,60.24096386,65c5074098b851296ff0b7ed,65c512f7cb8cbf64dc830564,,,,,,,,,,,,,,,,,,,,,,,,,,,,,1081.3105,1,audio/Narrative8Situation4.wav,1084.3235,,1084.3235,1098.4878,"[[999,5],[66,83],[65.6,167],[64.9,250],[41.7,1001],[52.8,1084],[52.8,1168],[52.7,1251],[52.7,1334],[52.4,1418],[51.8,1501],[51.7,1584],[51.5,1668],[51.5,1751],[51.5,1835],[51,1918],[51,2002],[51,2085],[51.1,2169],[51.3,2252],[51.3,2335],[51.3,2419],[51.6,2502],[51.7,2585],[51.9,2670],[51.9,2753],[52.3,2836],[52.3,2919],[52.3,3003],[52.3,3086],[52.3,3169],[53.6,3253],[60,3336],[68.8,3420],[93.9,3503],[100,3586]]",1,0,1098.488,1101.3237,99.79166667,1.7505,"[{""rating"":99.79166666666667,""responseTime"":1.7505000000001019}]",space,2.3132,,1101.3237,Definitely yes,100,1101.3255,,,[],,0,13,13,13,1,audio/Narrative8Situation4.wav,audio/Narrative7Situation4.wav,audio/Narrative6Situation4.wav,audio/Narrative5Situation4.wav,3,3,2,1,,,,,,,,,,,,,,,,,,,,,,,,,,,,,,,,,,,,,,,
,,,,,,5c284ae48e845b0001fc40aa,2024-02-08_09h45.22.734,group3.1-3.2-social-tom,2023.2.2,Win32,60.24096386,65c5074098b851296ff0b7ed,65c512f7cb8cbf64dc830564,,,,,,,,,,,,,,,,,,,,,,,,,,,,,1101.3257,1,audio/Narrative8Situation5.wav,1103.3257,,1103.3258,1111.5675,"[[99.7,3336],[99.7,3420],[99.7,3503],[99.7,3586],[99.7,3670],[99.6,3753],[99.6,3837],[99.6,3920],[99.6,4003],[99.6,4087],[99.6,4170],[99.6,4254],[99.6,4337],[99.6,4421],[99.6,4504],[99.6,4587],[99.6,4671],[99.6,4755],[99.6,4838],[99.6,4921],[99.6,5004],[99.6,5088],[99.6,5171],[99.6,5255],[99.6,5338],[98.6,5422],[98.2,5505],[98.3,5588],[99.6,5672],[96.8,5755],[86.1,5839],[78.4,5922],[75.7,6006],[75.7,6089],[75.8,6173],[79.3,6256],[86.4,6339],[92.8,6423],[97.5,6506],[99.6,6589],[100,6673],[100,6757],[100,6840],[100,6923],[100,7006],[100,7090],[100,7173],[100,7257],[100,7340],[100,7424],[100,7507],[100,7590],[100,7674],[100,7757],[100,7840],[100,7924],[100,8008],[99.9,8091],[99.5,8174]]",1,0,1111.5676,1113.9031,99.27083333,1.3902,"[{""rating"":99.27083333333333,""responseTime"":1.390200000286086}]",space,1.8023,,1113.9031,Not at all,0,1113.9051,,,[],,0,14,14,14,1,audio/Narrative8Situation5.wav,audio/Narrative7Situation5.wav,audio/Narrative6Situation5.wav,audio/Narrative5Situation5.wav,2,5,2,5,,,,,,,,,,,,,,,,,,,,,,,,,,,,,,,,,,,,,,,
,,,,,,5c284ae48e845b0001fc40aa,2024-02-08_09h45.22.734,group3.1-3.2-social-tom,2023.2.2,Win32,60.24096386,65c5074098b851296ff0b7ed,65c512f7cb8cbf64dc830564,,,,,,,,,,,,,,,,,,,,,,,,,,,,,1113.9054,1,audio/Narrative8Situation6.wav,1115.9219,,1115.9219,1122.3781,"[[100,4254],[99.5,4337],[99.1,4420],[98.4,4504],[98.4,4587],[98.4,4671],[98.4,4754],[98.4,4838],[98.4,4921],[98.4,5004],[98.4,5088],[98.4,5171],[98.4,5255],[98.4,5338],[98.4,5422],[98.4,5505],[98.4,5589],[98.4,5672],[98.4,5755],[98.4,5839],[98.4,5922],[98.4,6006],[98.4,6089],[98.4,6172],[98.4,6256],[98.4,6339],[98.4,6422]]",1,0,1122.3782,1139.062,99.47916667,6.0616,"[{""rating"":99.47916666666667,""responseTime"":6.061600000381532}]",space,16.1506,,1139.062,Partially,50,1139.0842,,,[],,0,15,15,15,1,audio/Narrative8Situation6.wav,audio/Narrative7Situation6.wav,audio/Narrative6Situation6.wav,audio/Narrative5Situation6.wav,2,3,2,3,,,,,,,,,,,,,,,,,,,,,,,,,,,,,,,,,,,,,,,
,,,,,,5c284ae48e845b0001fc40aa,2024-02-08_09h45.22.734,group3.1-3.2-social-tom,2023.2.2,Win32,60.24096386,65c5074098b851296ff0b7ed,65c512f7cb8cbf64dc830564,,,,,,,,,,,,,,,,,,,,,,,,,,,,,1139.0844,1,audio/Narrative8Situation7.wav,1142.0984,,1142.0985,1154.194,"[[90.1,755],[90.1,833],[71.7,1925],[60.1,2007],[60.1,2084],[51.7,2174],[45.5,2257],[45.5,2334],[45.5,2418],[46.9,2507],[49,2591],[49.1,2668],[49.1,2752],[49.4,2835],[49.4,2919],[49.4,3002],[50.3,3091],[63.5,3176],[70.4,3258],[79.5,3341],[84.4,3424],[85.3,3502],[90.3,3586],[90.8,3669],[92.8,3758],[94.7,3842],[95,3919],[95.1,4003],[95.1,4087],[95.1,4170],[95.1,4259],[95.1,4336],[95.1,4420],[95.1,4507],[95.1,4587],[95.1,4670],[95.1,4759],[95.1,4838],[95.1,4921],[95.1,5005],[95.1,5088],[94.8,5177],[94.8,5254],[94.8,5337],[94.8,5421],[94.8,5504],[94.8,5588],[94.8,5672],[94.8,5755],[94.8,5838],[94.8,5922],[94.8,6005],[94.8,6088],[94.8,6172],[94.8,6255],[94.8,6338],[94.8,6422],[94.8,6505],[94.8,6589],[94.8,6672],[94.8,6756],[94.8,6839],[94.8,6923],[94.8,7006],[94.8,7089],[94.8,7173],[94.8,7257],[94.8,7340],[94.8,7423],[94.8,7507],[94.8,7590],[94.8,7673],[94.8,7757],[94.8,7843],[94.8,7924],[94.8,8007],[94.8,8091],[94.8,8174],[94.8,8257],[94.8,8341],[94.8,8424],[94.8,8508],[94.8,8591],[94.8,8674],[94.8,8758],[94.8,8841],[94.8,8924],[94.8,9008],[94.8,9092],[94.8,9175],[94.8,9265],[94.8,9342],[94.8,9425],[94.8,9509],[94.8,9592],[94.8,9675],[94.8,9759],[94.8,9842],[94.8,9931],[94.8,10009],[94.8,10098],[94.8,10176],[94.8,10259],[94.8,10343],[94.8,10426],[94.8,10510],[94.8,10593],[94.8,10676],[94.8,10760],[94.8,10843],[94.8,10926],[94.8,11016],[94.8,11094],[94.8,11177],[94.8,11260],[94.8,11344],[94.8,11427],[94.8,11510],[94.8,11594],[94.8,11677],[94.8,11761],[94.8,11844],[94.8,11928],[94.8,12011],[94.8,12095]]",1,0,1154.1944,1164.6096,99.6875,8.6701,"[{""rating"":99.6875,""responseTime"":8.67009999990455}]",space,9.8707,,1164.6097,Not at all,0,1164.6119,,,[],,0,16,16,16,1,audio/Narrative8Situation7.wav,audio/Narrative7Situation7.wav,audio/Narrative6Situation7.wav,audio/Narrative5Situation7.wav,3,5,5,4,,,,,,,,,,,,,,,,,,,,,,,,,,,,,,,,,,,,,,,
,,,,,,5c284ae48e845b0001fc40aa,2024-02-08_09h45.22.734,group3.1-3.2-social-tom,2023.2.2,Win32,60.24096386,65c5074098b851296ff0b7ed,65c512f7cb8cbf64dc830564,,,,,,,,,,,,,,,,,,,,,,,,,,,,,1164.6121,1,audio/Narrative8Situation8.wav,1167.6233,,1167.6233,1180.4702,"[[999,7],[999,83],[999,167],[999,250],[999,334],[999,417],[999,500],[999,584],[999,667],[999,750],[999,834],[999,917],[999,1000],[999,1084],[999,1167],[999,1251],[999,1335],[999,1418],[999,1501],[999,1585],[999,1668],[999,1751],[999,1835],[999,1918],[999,2002],[999,2091],[999,2172],[999,2258],[999,2341],[999,2424],[999,2508],[65.8,2592],[60.3,2675],[46.6,3008],[46.3,3087],[47,3175],[47.6,3259],[49.1,3342],[49.5,3420],[49.5,3503],[49.6,3593],[49.6,3670],[49.6,3753],[49.7,3837],[49.9,3926],[49.9,4004],[49.9,4087],[49.9,4171],[49.8,4255],[48.8,4343],[48.6,4427],[48.6,4504],[48.6,4594],[47.9,4677],[47.8,4755],[48.4,4838],[54.4,4927],[64.2,5011],[65,5095],[68.4,5172],[68.4,5255],[68.4,5338],[68.4,5422],[68.4,5505],[68.4,5589],[68.4,5672],[68.4,5756],[68.8,5846],[69.4,5928],[70,6006],[72.7,6095],[74.3,6172],[80.1,6262],[87.9,6345]]",1,0,1180.4706,1191.8645,99.47916667,2.2716,"[{""rating"":99.47916666666667,""responseTime"":2.271600000381568}]",space,10.8538,,1191.8647,Partially,50,1191.8818,,,[],,0,17,17,17,1,audio/Narrative8Situation8.wav,audio/Narrative7Situation8.wav,audio/Narrative6Situation8.wav,audio/Narrative5Situation8.wav,3,2,5,3,,,,,,,,,,,,,,,,,,,,,,,,,,,,,,,,,,,,,,,
,,,,,,5c284ae48e845b0001fc40aa,2024-02-08_09h45.22.734,group3.1-3.2-social-tom,2023.2.2,Win32,60.24096386,65c5074098b851296ff0b7ed,65c512f7cb8cbf64dc830564,,,,,,,,,,,,,,,,,,,,,,,,,,,,,1191.8823,1,audio/Narrative8Situation9.wav,1194.8848,,1194.8848,1206.1954,"[[90,88],[80.4,171],[55.6,666],[54.3,755],[48.6,839],[48.6,917],[49.5,1005],[49.5,1083],[49.3,1173],[49.3,1250],[49.3,1334],[50,1423],[60.2,1507],[66.1,1589],[66.1,1667],[69.6,1756],[73.4,1834],[73.6,1918],[74.7,2006],[75.2,2090],[76.1,2173],[77.2,2257],[77.5,2341],[77.6,2418],[78.1,2507],[78.4,2585],[78.4,2668],[78.4,2752],[78.4,2835],[78.4,2919],[78.4,3002],[78.4,3085],[78.4,3168],[78.4,3252],[78.4,3336],[78.4,3419],[78.4,3502],[78.8,3586],[78.8,3675],[78.8,3752],[78.8,3836],[78.8,3919],[78.8,4003],[78.8,4086],[78.8,4170],[78.8,4253],[78.8,4337],[78.8,4420],[78.8,4503],[78.8,4587],[78.8,4670],[78.8,4754],[78.8,4837],[78.8,4921],[78.8,5010],[78.8,5090],[78.8,5171],[78.8,5260],[78.8,5337],[78.8,5421],[78.8,5504],[78.8,5593],[78.8,5671],[78.8,5755],[78.8,5838],[78.8,5922],[78.8,6005],[78.8,6088],[78.8,6171],[78.8,6255],[78.8,6338],[78.8,6422],[78.8,6505],[79.1,6588],[79.1,6672],[79.1,6756],[79.1,6839],[79.1,6923],[79.1,7006],[79.1,7095],[79.1,7172],[79.1,7256],[79.1,7339],[79.1,7423],[79.1,7506],[79.1,7589],[79.1,7673],[79.1,7757],[79.1,7840],[79.1,7924],[79.1,8007],[79.1,8090],[79.1,8173],[79.1,8257],[79.1,8341],[79.1,8424],[79.1,8507],[79.1,8591],[79.1,8681],[79.1,8758],[79.1,8841],[79.1,8924],[79.1,9008],[79.1,9091],[79.1,9174],[79.1,9258],[79.1,9342],[79.1,9425],[79.1,9508],[79.1,9592],[79.1,9675],[79.1,9759],[79.2,9842],[79.4,9925],[79.4,10009],[79.8,10097],[81.1,10183],[88.8,10265],[91.8,10348],[92.5,10426],[99.5,10515],[99.5,10599],[99.5,10676],[99.5,10760],[99.5,10843],[99.5,10927],[99.5,11010],[99.5,11093],[99.5,11177],[99.5,11260]]",1,0,1206.1956,1246.8528,99.6875,1.9583,"[{""rating"":99.6875,""responseTime"":1.9583000001905475}]",space,40.1286,,1246.8529,Not at all,0,1256.7958,0.520833333,7.3917,"[{""rating"":0.5208333333333315,""responseTime"":7.391699999809134}]",space,0,18,18,18,1,audio/Narrative8Situation9.wav,audio/Narrative7Situation9.wav,audio/Narrative6Situation9.wav,audio/Narrative5Situation9.wav,3,2,4,3,,,9.4157,,,,,,,,,,,,,,,,,,,,,,,,,,,,,,,,,,,,
,,,,,,5c284ae48e845b0001fc40aa,2024-02-08_09h45.22.734,group3.1-3.2-social-tom,2023.2.2,Win32,60.24096386,65c5074098b851296ff0b7ed,65c512f7cb8cbf64dc830564,,,,,,,,,,,,,,,,,,,,,,,,,,,1282.3628,1284.9403,1284.9506,2,audio/Narrative13Situation2.wav,1284.9507,,1284.9507,1314.7094,"[[999,0],[999,73],[999,156],[999,240],[999,323],[999,406],[999,490],[999,574],[999,657],[999,740],[999,823],[999,907],[999,990],[999,1074],[999,1157],[999,1241],[999,1324],[999,1407],[999,1491],[999,1574],[999,1658],[999,1741],[999,1825],[999,1908],[999,1991],[999,2075],[999,2158],[999,2242],[999,2325],[999,2408],[999,2492],[999,2575],[999,2659],[999,2742],[999,2826],[999,2909],[999,2992],[999,3077],[999,3165],[54.8,3242],[55.2,3332],[60.1,3416],[68.9,3499],[68.9,3576],[68.9,3660],[68.9,3743],[68.9,3826],[68.9,3910],[68.9,3993],[68.9,4077],[68.9,4161],[68.9,4244],[68.9,4327],[68.9,4410],[68.9,4499],[68.9,4577],[70,4667],[73,4744],[74.1,4828],[74.1,4911],[74.5,5000],[75.1,5084],[75.2,5161],[75.2,5245],[75.5,5328],[75.5,5411],[75.7,5495],[75.7,5578],[75.7,5662],[75.7,5745],[75.7,5835],[75.7,5912],[75.7,5995],[75.7,6078],[75.7,6164],[75.7,6245],[75.7,6335],[75.7,6412],[75.7,6496],[75.7,6579],[75.7,6663],[75.7,6746],[75.7,6830],[75.7,6913],[75.7,6996],[75.7,7080],[75.7,7163],[75.7,7247],[75.7,7330],[75.7,7413],[75.7,7497],[75.7,7580],[75.7,7664],[75.7,7748],[75.7,7831],[75.7,7914],[75.7,7998],[75.7,8081],[75.7,8164],[75.7,8254],[75.7,8331],[75.7,8421],[75.7,8505],[75.7,8581],[75.7,8665],[75.7,8748],[100,8837],[100,8921],[100,9004],[100,9082],[100,9171],[100,9249],[100,9338],[100,9422],[100,9499],[100,9588],[100,9672],[100,9749],[100,9833],[100,9916],[100,10000],[100,10083],[100,10166],[100,10250],[100,10333],[100,10423],[100,10505],[100,10583],[100,10667],[100,10751],[100,10834],[100,10917],[100,11001],[100,11084],[100,11167],[100,11251],[100,11334],[100,11418],[100,11501],[100,11584],[100,11668],[100,11751],[100,11835],[100,11918],[100,12001],[100,12085],[100,12168],[100,12251],[100,12335],[100,12418],[100,12502],[100,12586],[100,12669],[100,12758],[100,12835],[100,12919],[100,13002],[100,13086],[100,13169],[100,13252],[100,13336],[100,13419],[100,13502],[100,13587],[100,13670],[100,13753],[100,13836],[100,13920],[100,14003],[100,14087],[100,14172],[100,14253],[100,14337],[100,14420],[100,14504],[100,14587],[100,14671],[100,14754],[100,14838],[100,14921],[100,15011],[100,15088],[100,15171],[100,15255],[100,15338],[100,15422],[100,15505],[100,15588],[100,15672],[100,15755],[100,15839],[100,15922],[100,16006],[100,16089],[100,16172],[100,16256],[100,16339],[100,16422],[100,16506],[100,16589],[100,16673],[100,16762],[100,16840],[100,16923],[100,17007],[100,17090],[100,17173],[100,17257],[100,17340],[100,17423],[100,17507],[100,17590],[100,17674],[100,17757],[100,17842],[100,17924],[100,18008],[100,18091],[100,18174],[100,18258],[100,18341],[100,18424],[100,18514],[100,18591],[100,18675],[100,18758],[100,18842],[100,18925],[100,19008],[100,19092],[100,19175],[100,19259],[100,19342],[100,19425],[100,19509],[100,19593],[100,19676],[100,19759],[100,19843],[100,19926],[100,20016],[100,20094],[100,20176],[100,20260],[100,20343],[100,20427],[100,20510],[100,20593],[100,20677],[100,20760],[100,20843],[100,20933],[100,21011],[100,21094],[100,21184],[100,21266],[100,21344],[100,21433],[99.4,21511],[96.8,21600],[95.8,21678],[95.7,21761],[95.7,21845],[95.7,21934],[95.8,22012],[96.1,22100],[96.1,22178],[84.5,22267],[81.5,22345],[81.5,22429],[81.7,22512],[85.3,22598],[91.4,22684],[91.4,22762],[91.4,22845],[92.4,22935],[94.1,23018],[94.7,23096],[94.9,23185],[95.2,23262],[95.3,23346],[95.9,23436],[96.3,23513],[96.5,23603],[96.5,23680],[96.5,23763],[96.5,23846],[96.5,23930],[96.5,24013],[96.5,24097],[96.5,24180],[96.5,24264],[96.5,24347],[96.5,24430],[96.5,24514],[96.5,24597],[96.5,24681],[96.5,24764],[96.5,24848],[95.6,24931],[93.9,25021],[90.7,25104],[87.1,25181],[83,25270],[82.3,25348],[82.2,25431],[82.2,25515],[82.2,25598],[82.2,25682],[82.2,25771],[82.2,25848],[78,25938],[70.8,26015],[70.8,26099],[70.8,26182],[61.3,26266],[53.4,26355],[51.7,26438],[49.9,26524],[48.6,26600],[48.6,26688],[48.6,26766],[48.6,26850],[48.6,26939],[48.9,27022],[49,27105],[49.3,27191],[51.5,27272],[52.5,27351],[55.4,27433],[55.4,27517],[55.4,27601],[55.4,27684],[55.6,27767],[55.7,27851],[55.9,27935],[56.5,28023],[57,28101],[57,28184],[57,28267],[57,28351],[57,28434],[57,28518],[57,28601],[57,28685],[57,28768],[57,28852],[57,28935],[57,29018],[57,29102],[57,29186],[57,29269],[57,29352],[57,29436],[57.1,29519],[57.5,29603],[58.1,29691]]",1,0,1314.7096,1314.7104,,,[],,,,1314.7104,Partially,50,1314.7116,,,[],,0,0,0,0,1,audio/Narrative13Situation2.wav,audio/Narrative13Situation2.wav,audio/Narrative13Situation2.wav,audio/Narrative13Situation2.wav,2,2,2,2,,,,,1256.7967,1282.3562,space,25.0256,,,,,,,,,,,,,,,,,,,,,,,,,,,,,,,
,,,,,,5c284ae48e845b0001fc40aa,2024-02-08_09h45.22.734,group3.1-3.2-social-tom,2023.2.2,Win32,60.24096386,65c5074098b851296ff0b7ed,65c512f7cb8cbf64dc830564,,,,,,,,,,,,,,,,,,,,,,,,,,,,,1314.7117,2,audio/Narrative5Situation1.wav,1319.731,,1319.7311,1333.0059,"[[68.1,2419],[68.1,2496],[67.2,2580],[60.4,2663],[49.5,3002],[49.2,3086],[49.2,3164],[49.1,3253],[49.1,3337],[49.1,3414],[49.1,3498],[49.3,3581],[49.3,3664],[49.3,3748],[49.3,3831],[49.3,3915],[51.1,4004],[57,4087],[71.5,4170],[75,4253],[75.4,4337],[76.9,4421],[76.9,4498],[76.9,4581],[76.9,4665],[76.9,4755],[76.9,4832],[76.8,4916],[75.8,5005],[75.8,5082],[75.8,5166],[75.8,5249],[75.7,5338],[75.7,5416],[75.7,5499],[75.7,5583],[75.7,5666],[75.7,5750],[75.7,5833],[75.7,5916],[75.7,6000],[75.7,6083],[75.7,6167],[75.7,6250],[75.7,6333],[75.7,6417],[75.7,6500],[75.7,6584],[75.7,6667],[75.7,6750],[75.7,6834],[75.7,6917],[75.7,7001],[75.7,7084],[75.7,7168],[75.7,7251],[75.7,7335],[75.7,7418],[75.7,7501],[75.7,7592],[75.7,7668],[75.7,7752],[75.7,7835],[75.7,7919],[75.7,8002],[75.8,8085],[75.9,8168],[75.9,8259],[75.9,8336],[75.9,8419],[75.9,8502],[75.9,8586],[75.9,8669],[75.9,8753],[75.9,8836],[75.9,8920],[75.9,9003],[75.9,9086],[75.9,9170],[75.9,9253],[75.9,9337],[75.9,9420],[75.9,9509],[75.9,9586],[75.9,9670],[75.9,9760],[75.9,9837],[75.9,9927],[75.9,10004],[75.9,10087],[75.9,10170],[75.9,10254],[75.9,10338],[75.9,10421],[75.9,10504],[75.9,10587],[75.9,10671],[76.8,10761],[76.8,10838],[77.4,10927],[77.9,11010],[78.5,11094],[80.4,11171],[81.7,11261],[83,11344],[84,11429],[84.4,11505],[85.5,11595],[85.9,11678],[86.8,11761],[87.7,11845],[88,11922],[89.1,12011],[89.6,12096],[89.9,12178],[91.8,12262],[93.8,12339],[95.5,12429],[96.4,12506],[96.4,12595],[96.4,12673],[96.3,12763],[96.5,12845],[97.5,12929],[98.4,13007],[98.4,13090],[98.4,13174],[98.4,13263]]",1,0,1333.0062,1340.4133,98.22916667,1.4486,"[{""rating"":98.22916666666667,""responseTime"":1.4486000003814752}]",space,6.8655,,1340.4135,Partially,50,1340.4352,,,[],,0,1,1,1,1,audio/Narrative7Situation1.wav,audio/Narrative8Situation1.wav,audio/Narrative5Situation1.wav,audio/Narrative6Situation1.wav,2,5,5,2,,,,,,,,,,,,,,,,,,,,,,,,,,,,,,,,,,,,,,,
,,,,,,5c284ae48e845b0001fc40aa,2024-02-08_09h45.22.734,group3.1-3.2-social-tom,2023.2.2,Win32,60.24096386,65c5074098b851296ff0b7ed,65c512f7cb8cbf64dc830564,,,,,,,,,,,,,,,,,,,,,,,,,,,,,1340.4355,2,audio/Narrative5Situation2.wav,1343.4496,,1343.4496,1372.929,"[[62.4,2509],[59.3,2591],[58.1,2674],[57.6,2752],[57.6,2835],[61.6,2924],[80,3010],[80.3,3086],[82.1,3175],[84.3,3258],[84.5,3342],[85.2,3425],[85.2,3502],[85.2,3586],[85.2,3669],[85.8,3758],[86,3836],[86,3920],[86.5,4003],[87.2,4092],[87.2,4170],[87.2,4253],[87.2,4336],[87.2,4420],[87.2,4510],[87.2,4587],[87.2,4670],[87.2,4754],[87.2,4838],[87.2,4921],[87.2,5004],[87.2,5088],[87.2,5178],[87.2,5254],[87.2,5338],[87.2,5421],[87.2,5504],[87.2,5588],[87.2,5671],[87.2,5755],[87.2,5839],[87.2,5922],[87.2,6005],[87.2,6088],[87.2,6172],[87.2,6255],[87.2,6339],[87.2,6422],[87.2,6505],[87.2,6589],[87.2,6672],[87.2,6755],[87.2,6840],[87.2,6922],[87.2,7006],[87.2,7090],[87.2,7173],[87.2,7256],[87.2,7340],[87.2,7429],[87.2,7507],[87.2,7590],[87.2,7674],[87.2,7757],[87.2,7840],[87.2,7923],[87.2,8007],[88.3,8090],[89.1,8180],[89.7,8257],[89.7,8341],[89.7,8424],[89.7,8508],[89.7,8591],[90,8680],[90.9,8763],[91,8841],[91.9,8932],[92.8,9008],[93.1,9097],[93.1,9175],[93.1,9258],[93.1,9341],[93.1,9425],[93.1,9508],[93.1,9592],[93.1,9676],[93.1,9759],[93.1,9842],[93.1,9926],[93.1,10009],[93.1,10099],[93.1,10182],[93.1,10259],[93.1,10342],[93.1,10426],[93.1,10509],[93.1,10593],[93.1,10677],[93.1,10759],[93.1,10843],[93.1,10926],[93.5,11014],[93.5,11093],[94.3,11184],[95.4,11260],[96.3,11349],[96.3,11427],[96.3,11511],[96.4,11599],[97.2,11677],[97.3,11767],[97.3,11844],[97.4,11930],[97.4,12011],[97.4,12094],[97.4,12178],[97.4,12261],[97.4,12345],[97.4,12428],[97.4,12511],[97.4,12595],[97.4,12678],[97.4,12761],[97.4,12845],[97.4,12928],[97.4,13012],[97.4,13096],[97.4,13179],[97.4,13262],[97.4,13346],[97.4,13429],[97.4,13512],[97.4,13596],[97.4,13679],[97.4,13762],[97.4,13851],[97.4,13930],[97.4,14013],[97.4,14097],[97.4,14180],[97.4,14263],[97.4,14346],[97.4,14430],[97.4,14513],[97.4,14597],[97.4,14680],[97.4,14764],[97.4,14847],[97.4,14931],[97.4,15014],[97.4,15097],[97.4,15181],[97.4,15265],[97.4,15347],[97.4,15431],[97.4,15515],[97.4,15598],[97.4,15682],[97.4,15765],[97.4,15848],[97.4,15932],[97.4,16015],[97.4,16098],[97.4,16182],[97.4,16265],[97.4,16348],[97.4,16437],[97.4,16516],[97.4,16599],[97.4,16682],[97.4,16766],[97.4,16849],[97.4,16932],[97.4,17016],[97.4,17099],[97.4,17182],[97.4,17266],[97.4,17350],[97.4,17433],[97.4,17517],[97.4,17601],[97.4,17683],[97.4,17767],[97.4,17850],[97.4,17933],[97.4,18017],[97.4,18100],[97.4,18183],[97.4,18273],[97.4,18351],[97.4,18434],[97.4,18518],[97.4,18601],[97.4,18684],[97.4,18768],[97.4,18860],[97.4,18934],[97.4,19018],[97.4,19101],[97.4,19185],[97.4,19268],[97.4,19352],[97.4,19435],[97.4,19525],[97.4,19607],[97.4,19686],[97.4,19769],[97.4,19852],[97.4,19935],[97.4,20019],[97.4,20103],[97.4,20186],[97.4,20269],[97.4,20353],[97.4,20436],[97.4,20519],[97.4,20603],[97.4,20687],[97.4,20770],[97.4,20853],[97.4,20936],[97.4,21020],[97.4,21110],[97.4,21187],[97.4,21270],[97.4,21353],[97.4,21437],[97.4,21520],[97.4,21604],[97.4,21687],[97.4,21771],[97.4,21854],[97.4,21937],[97.4,22021],[97.4,22104],[97.4,22188],[97.4,22272],[97.4,22354],[97.4,22438],[97.4,22521],[97.4,22605],[97.4,22689],[97.4,22772],[97.4,22855],[97.4,22938],[97.4,23022],[97.4,23106],[97.4,23189],[97.4,23272],[97.4,23355],[97.4,23439],[97.4,23522],[97.4,23606],[97.4,23689],[97.4,23773],[97.4,23862],[97.4,23939],[97.4,24023],[97.4,24107],[97.4,24190],[97.4,24273],[91.5,24362],[78.3,24440],[70.5,24529],[68.9,24613],[61.1,24696],[58.1,24779],[56.8,24857],[56.8,24940],[56.6,25030],[56,25107],[55.2,25196],[54.3,25274],[54.2,25358],[52.2,25446],[51.5,25524],[51.3,25608],[50.2,25697],[50.1,25775],[50.1,25858],[47.6,25947],[40.6,26025],[39.6,26108],[39.6,26192],[39.6,26275],[39.4,26364],[39,26442],[38.9,26531],[38.6,26609],[37.9,26698],[37.1,26782],[37.1,26865],[37.1,26942],[37.1,27026],[37.1,27110],[37.1,27193],[37.1,27276],[37.1,27359],[37.1,27443],[37.1,27526],[36.7,27610],[36.5,27693],[36.5,27777],[36.4,27860],[36.3,27943],[35.5,28033],[33.9,28116],[33.1,28200],[33.1,28277],[32.6,28366],[29.5,28449],[29.5,28527],[29.5,28611],[29.5,28694],[29.5,28778],[29.5,28862],[29.5,28944],[29.5,29028],[29.5,29111],[29.5,29195],[29.5,29278],[29.5,29362],[29.5,29445]]",1,0,1372.9293,1441.13,63.54166667,3.4133,"[{""rating"":63.541666666666664,""responseTime"":3.4132999997138995}]",space,67.6523,,1441.13,Not at all,0,1447.37,0.208333333,4.8834,"[{""rating"":0.2083333333333326,""responseTime"":4.883400000095435}]",space,0,2,2,2,1,audio/Narrative7Situation2.wav,audio/Narrative8Situation2.wav,audio/Narrative5Situation2.wav,audio/Narrative6Situation2.wav,3,3,3,3,,,5.7125,,,,,,,,,,,,,,,,,,,,,,,,,,,,,,,,,,,,
,,,,,,5c284ae48e845b0001fc40aa,2024-02-08_09h45.22.734,group3.1-3.2-social-tom,2023.2.2,Win32,60.24096386,65c5074098b851296ff0b7ed,65c512f7cb8cbf64dc830564,,,,,,,,,,,,,,,,,,,,,,,,,,,,,1447.3713,2,audio/Narrative5Situation3.wav,1450.3729,,1450.373,1464.2867,"[[999,0],[999,88],[999,166],[999,249],[999,332],[999,422],[999,500],[999,588],[999,672],[999,750],[999,833],[999,923],[999,1005],[999,1083],[999,1172],[999,1256],[999,1340],[999,1417],[999,1501],[999,1591],[999,1674],[999,1756],[999,1834],[999,1918],[999,2001],[999,2084],[999,2168],[999,2251],[999,2335],[999,2418],[999,2502],[999,2585],[999,2676],[999,2757],[999,2840],[999,2918],[999,3002],[999,3091],[75.1,3174],[83.8,3252],[88.9,3341],[89.6,3419],[90.7,3503],[90.7,3585],[90.7,3669],[91.9,3758],[100,3836],[100,3923],[100,4003],[100,4086],[100,4170],[100,4254],[100,4337],[100,4423],[100,4504],[100,4587],[100,4674],[100,4754],[100,4837],[100,4920],[100,5008],[100,5087],[100,5171],[100,5254],[100,5341],[100,5421],[100,5509],[100,5588],[100,5671],[100,5755],[100,5843],[100,5922],[100,6005],[100,6088],[100,6172],[100,6255],[100,6344],[100,6426],[100,6505],[100,6589],[100,6672],[100,6756],[100,6839],[100,6923],[100,7011],[100,7089],[100,7173],[100,7256],[100,7340],[100,7423],[100,7506],[100,7590],[100,7673],[100,7757],[100,7840],[100,7924],[100,8007],[100,8091],[100,8174],[100,8257],[100,8345],[100,8424],[100,8507],[100,8590],[100,8674],[100,8758],[100,8841],[100,8924],[100,9008],[100,9091],[100,9174],[100,9258],[100,9342],[100,9425],[100,9509],[100,9592],[100,9675],[100,9759],[100,9842],[100,9926],[100,10009],[100,10092],[100,10176],[100,10259],[100,10343],[100,10426],[100,10509],[100,10593],[100,10676],[100,10760],[100,10843],[100,10927],[100,11010],[100,11093],[100,11177],[100,11266],[100,11344],[100,11427],[100,11510],[100,11594],[100,11677],[100,11761],[100,11844],[100,11927],[100,12011],[100,12094],[100,12178],[100,12261],[100,12345],[100,12428],[100,12511],[100,12595],[100,12678],[100,12762],[100,12845],[100,12929],[100,13019],[100,13096],[100,13179],[100,13263],[100,13345],[100,13429],[100,13518],[100,13596],[100,13679],[100,13763],[100,13852]]",1,0,1464.2871,1470.1311,98.75,4.4246,"[{""rating"":98.75,""responseTime"":4.424600000381588}]",space,5.2973,,1470.1311,Partially,50,1470.1328,,,[],,0,3,3,3,1,audio/Narrative7Situation3.wav,audio/Narrative8Situation3.wav,audio/Narrative5Situation3.wav,audio/Narrative6Situation3.wav,8,4,3,5,,,,,,,,,,,,,,,,,,,,,,,,,,,,,,,,,,,,,,,
,,,,,,5c284ae48e845b0001fc40aa,2024-02-08_09h45.22.734,group3.1-3.2-social-tom,2023.2.2,Win32,60.24096386,65c5074098b851296ff0b7ed,65c512f7cb8cbf64dc830564,,,,,,,,,,,,,,,,,,,,,,,,,,,,,1470.1329,2,audio/Narrative5Situation4.wav,1471.143,,1471.143,1491.5358,"[[95.1,4754],[85.9,4838],[70.9,4927],[62.5,5012],[42.2,5094],[23.8,5177],[22.4,5256],[22.4,5338],[22.4,5422],[22.4,5505],[22.4,5588],[22.4,5672],[22.4,5756],[22.4,5839],[22.4,5922],[22.4,6006],[21.1,6095],[21,6172],[21,6256],[21,6339],[21,6423],[21,6506],[21,6589],[20.9,6673],[20.9,6756],[20.9,6840],[20.8,6930],[20.7,7007],[20.6,7090],[20.6,7173],[20.4,7257],[20.4,7341],[20.4,7424],[20.4,7507],[20.4,7590],[20.4,7674],[20.4,7758],[20.4,7841],[20.4,7924],[20.4,8008],[20.4,8091],[20.4,8175],[20.4,8258],[20.4,8342],[20.4,8425],[20.4,8508],[20.4,8591],[20.4,8675],[20.4,8758],[20.7,8842],[47.8,8931],[56.6,9015],[68,9099],[70.1,9181],[70.1,9259],[78.8,9348],[100,9515],[100,9592],[100,9676],[100,9759],[100,9843],[100,9933],[100,10015],[100,10093],[100,10182],[100,10260],[100,10343],[100,10432],[100,10510],[100,10594],[100,10677],[100,10760],[100,10844],[100,10928],[100,11010],[100,11094],[100,11184],[100,11261],[100,11344],[100,11431],[100,11517],[100,11594],[100,11678],[100,11762],[100,11845],[100,11929],[100,12012],[100,12095],[100,12179],[100,12262],[100,12345],[100,12430],[100,12518],[100,12595],[100,12679],[100,12763],[100,12846],[100,12929],[100,13012],[100,13096],[100,13180],[100,13263],[100,13346],[100,13430],[100,13513],[100,13596],[100,13680],[100,13764],[100,13847],[100,13930],[100,14014],[100,14097],[100,14181],[100,14264],[100,14347],[100,14436],[100,14514],[100,14597],[100,14681],[100,14764],[100,14848],[100,14931],[100,15015],[100,15104],[100,15181],[100,15265],[100,15355],[100,15432],[100,15515],[100,15604],[100,15682],[100,15765],[100,15849],[100,15932],[100,16016],[100,16099],[100,16182],[100,16266],[100,16349],[100,16433],[100,16516],[100,16600],[100,16683],[100,16766],[100,16850],[100,16933],[100,17017],[100,17100],[100,17183],[100,17267],[100,17350],[100,17434],[100,17517],[100,17601],[100,17684],[100,17767],[100,17851],[100,17934],[100,18018],[100,18101],[100,18184],[100,18268],[100,18352],[100,18435],[100,18518],[100,18602],[100,18685],[100,18769],[100,18852],[100,18935],[100,19019],[100,19102],[100,19185],[100,19269],[100,19352],[100,19436],[100,19519],[100,19603],[100,19686],[100,19769],[100,19853],[100,19936],[100,20020],[100,20103],[100,20192],[100,20270],[100,20353]]",1,0,1491.5359,1499.4048,99.16666667,5.1551,"[{""rating"":99.16666666666667,""responseTime"":5.155099999904678}]",space,7.3247,,1499.4049,Partially,50,1499.4075,,,[],,0,4,4,4,1,audio/Narrative7Situation4.wav,audio/Narrative8Situation4.wav,audio/Narrative5Situation4.wav,audio/Narrative6Situation4.wav,3,3,1,2,,,,,,,,,,,,,,,,,,,,,,,,,,,,,,,,,,,,,,,
,,,,,,5c284ae48e845b0001fc40aa,2024-02-08_09h45.22.734,group3.1-3.2-social-tom,2023.2.2,Win32,60.24096386,65c5074098b851296ff0b7ed,65c512f7cb8cbf64dc830564,,,,,,,,,,,,,,,,,,,,,,,,,,,,,1499.4077,2,audio/Narrative5Situation5.wav,1504.4099,,1504.41,1519.8253,"[[999,6],[999,82],[999,166],[999,251],[999,339],[999,416],[999,500],[999,589],[999,667],[999,750],[999,837],[999,922],[999,1000],[62.4,1089],[62.8,1167],[62.8,1256],[76,1334],[86.8,1423],[87.7,1507],[90.3,1589],[89.8,1675],[89.2,1757],[75.3,1840],[68.5,1923],[66.6,2007],[66.4,2084],[66.4,2168],[66.4,2251],[66.4,2341],[66.8,2418],[66.9,2502],[66.9,2585],[66.9,2668],[66.9,2752],[64.1,2843],[62,2918],[53.6,3008],[51,3088],[49.1,3176],[48.6,3258],[48.6,3336],[48.6,3425],[49.1,3510],[50.2,3588],[50.2,3670],[50.2,3753],[50.2,3836],[55.3,3926],[56.3,4003],[56.3,4087],[49.7,4176],[36.5,4259],[34.8,4343],[32.6,4427],[28.6,4509],[26.3,4594],[20.9,4671],[20.7,4760],[20.6,4837],[18,4926],[17.7,5010],[17.1,5093],[15.9,5177],[15.3,5254],[15.3,5338],[15.3,5422],[15,5510],[14.4,5594],[12.1,5677],[10,5761],[8.3,5838],[6.8,5922],[6.8,6005],[6.9,6089],[9.5,6177],[9.5,6261],[9.5,6339],[9.5,6422],[9.5,6506],[9.5,6589],[9.5,6672],[8.8,6761],[7.7,6845],[7.6,6933],[7.6,7006],[7.6,7089],[7.6,7173],[7.6,7256],[7.6,7340],[7.6,7423],[7.5,7506],[7.5,7590],[7.5,7674],[7.5,7757],[7.5,7846],[7.5,7924],[7.5,8007],[6.8,8090],[6.5,8174],[6.5,8258],[6.5,8341],[6.5,8424],[6.5,8508],[6.5,8591],[6.5,8674],[6.5,8758],[6.5,8842],[6.5,8925],[6.5,9014],[6.5,9092],[6.5,9175],[6.5,9259],[6.5,9342],[6.5,9425],[6.5,9509],[6.5,9592],[6.5,9675],[6.5,9759],[6.5,9842],[6.5,9926],[6.5,10009],[6.5,10093],[6.5,10176],[6.5,10260],[6.5,10343],[6.5,10426],[6.5,10510],[6.5,10593],[6.5,10677],[6.5,10760],[6.5,10843],[6.5,10927],[6.5,11017],[6.5,11094],[6.5,11177],[6.5,11261],[6.5,11344],[6.5,11427],[6.5,11511],[6.4,11611],[6.1,11701],[6.1,11778],[6,11861],[6,11950],[6,12034],[6,12111],[6,12194],[6,12278],[6,12362],[6,12451],[6,12528],[6,12612],[6,12695],[6,12779],[6,12862],[6,12945],[6,13029],[6,13113],[6,13195],[6,13279],[6,13363],[6,13446],[6,13529],[6,13613],[6,13696],[6,13786],[6,13863],[6,13946],[6,14030],[6,14113],[6,14197],[6,14286],[6,14364],[6,14447],[6,14530],[6,14614],[6,14697],[6,14780],[6,14864],[6,14947],[6,15031],[6,15114],[6,15198],[6,15281],[6,15365]]",1,0,1519.8257,1523.3953,1.875,2.484,"[{""rating"":1.874999999999999,""responseTime"":2.4839999999999236}]",space,3.028,,1523.3955,Not at all,0,1523.3993,,,[],,0,5,5,5,1,audio/Narrative7Situation5.wav,audio/Narrative8Situation5.wav,audio/Narrative5Situation5.wav,audio/Narrative6Situation5.wav,5,2,5,2,,,,,,,,,,,,,,,,,,,,,,,,,,,,,,,,,,,,,,,
,,,,,,5c284ae48e845b0001fc40aa,2024-02-08_09h45.22.734,group3.1-3.2-social-tom,2023.2.2,Win32,60.24096386,65c5074098b851296ff0b7ed,65c512f7cb8cbf64dc830564,,,,,,,,,,,,,,,,,,,,,,,,,,,,,1523.3994,2,audio/Narrative5Situation6.wav,1526.415,,1526.415,1532.0713,"[[24.7,917],[27.7,1006],[28.4,1084],[28.4,1167],[28.4,1251],[28.4,1334],[28.4,1423],[28.4,1501],[28.4,1585],[29.8,1673],[42.1,1751],[59.4,1840],[74.1,1924],[74.8,2001],[76.7,2091],[89.6,2174],[90.7,2251],[90.7,2335],[90.7,2425],[90.7,2502],[90.6,2591],[90.6,2674],[90.7,2752],[90.7,2836],[91,2925],[91.1,3003],[91.4,3091],[91.5,3169],[91.5,3253],[91.5,3336],[91.5,3419],[91.5,3503],[91.5,3586],[91.5,3670],[91.5,3753],[91.5,3837],[91.5,3920],[91.5,4003],[91.5,4087],[91.5,4171],[91.5,4254],[91.5,4337],[91.5,4421],[91.5,4504],[91.5,4587],[91.5,4671],[91.5,4754],[91.5,4838],[91.5,4921],[91.5,5004],[91.5,5088],[91.5,5171],[91.5,5255],[91.5,5338],[91.5,5422],[91.5,5510],[91.5,5588]]",1,0,1532.0715,1587.3759,99.375,2.2139,"[{""rating"":99.375,""responseTime"":2.2139000000952365}]",space,54.7532,,1587.3759,Partially,50,1587.3844,,,[],,0,6,6,6,1,audio/Narrative7Situation6.wav,audio/Narrative8Situation6.wav,audio/Narrative5Situation6.wav,audio/Narrative6Situation6.wav,3,2,3,2,,,,,,,,,,,,,,,,,,,,,,,,,,,,,,,,,,,,,,,
,,,,,,5c284ae48e845b0001fc40aa,2024-02-08_09h45.22.734,group3.1-3.2-social-tom,2023.2.2,Win32,60.24096386,65c5074098b851296ff0b7ed,65c512f7cb8cbf64dc830564,,,,,,,,,,,,,,,,,,,,,,,,,,,,,1587.3845,2,audio/Narrative5Situation7.wav,1591.3967,,1591.3968,1612.4346,"[[999,7],[999,82],[999,166],[999,249],[999,333],[999,416],[999,505],[999,588],[999,672],[999,750],[999,839],[999,923],[999,1000],[999,1090],[54.6,1167],[65.3,1256],[72.1,1334],[72.8,1423],[77.9,1506],[84,1584],[84,1667],[84.2,1758],[84.4,1834],[85,1925],[85.7,2007],[85.7,2085],[85.7,2168],[86.6,2257],[87.5,2342],[88.4,2418],[88.5,2502],[88.5,2585],[88.5,2669],[88.5,2752],[89,2835],[89.4,2924],[89.4,3002],[89.4,3085],[89.4,3174],[89.4,3252],[89.4,3336],[89.4,3419],[89.4,3503],[89.4,3586],[89.4,3670],[89.4,3753],[89.4,3836],[89.4,3926],[89.4,4010],[89.2,4092],[89.2,4170],[89.2,4254],[89.2,4337],[89,4420],[89,4504],[89,4587],[89,4671],[89,4758],[89,4837],[88.9,4921],[88.6,5009],[88.5,5091],[88.3,5171],[88.3,5254],[88.3,5338],[88.3,5421],[88.3,5509],[88.3,5588],[88.3,5672],[88.3,5755],[88.3,5838],[88.3,5922],[88.3,6006],[88.3,6088],[88.4,6172],[88.5,6259],[89.2,6343],[89.7,6426],[90,6510],[90,6589],[90,6677],[90,6756],[90,6839],[90,6928],[90,7006],[90,7090],[90,7173],[90,7257],[90,7340],[90,7423],[90,7507],[90,7590],[90,7674],[90,7760],[90,7840],[90,7924],[90,8007],[90,8091],[90,8174],[90,8257],[90,8341],[90,8424],[90,8508],[90,8592],[90,8675],[90,8758],[90,8842],[90,8924],[90,9008],[90,9092],[90,9175],[90,9258],[90,9342],[90,9425],[90,9509],[90,9592],[90,9676],[90,9759],[90,9843],[90,9926],[90,10009],[90,10098],[90,10176],[90,10259],[90,10343],[90,10426],[90,10514],[90,10593],[90,10677],[90,10760],[90,10843],[90,10927],[90,11010],[90,11093],[90,11183],[90,11266],[90,11346],[90,11427],[90,11511],[90,11594],[90,11678],[90,11761],[90,11845],[90,11928],[90,12011],[77.1,12100],[75.8,12178],[75.8,12261],[75.7,12345],[63.5,12434],[60.5,12517],[60.4,12596],[58.6,12684],[58,12767],[55.6,12853],[53.5,12934],[52.7,13012],[52.2,13096],[51.6,13179],[51.5,13262],[51.5,13346],[51.5,13430],[51.5,13513],[51.3,13603],[51.3,13679],[51.3,13763],[51.3,13846],[51.3,13930],[51.3,14013],[51.3,14097],[51.3,14180],[51.3,14263],[51.3,14347],[51.3,14431],[51.3,14514],[51.3,14603],[51.3,14680],[51.3,14764],[51.3,14847],[51.3,14937],[51.3,15014],[51.3,15098],[51.3,15181],[51.3,15265],[51.3,15348],[51.3,15431],[51.3,15515],[51.3,15599],[51.3,15682],[51.3,15765],[51.3,15848],[51.3,15938],[51.3,16015],[51.3,16099],[51.3,16182],[51.3,16265],[51.3,16349],[51.3,16433],[51.3,16516],[51.3,16599],[51.3,16683],[51.3,16766],[51.3,16849],[51.3,16933],[51.3,17016],[51.3,17100],[51.3,17183],[51.3,17267],[51.3,17350],[51.3,17433],[50.7,17517],[50.7,17600],[50.7,17684],[50.7,17767],[50.7,17850],[50.7,17934],[50.4,18017],[49.8,18106],[48.2,18190],[46.8,18268],[40.5,18356],[39.4,18434],[38.5,18518],[38.4,18601],[38.3,18684],[38.2,18768],[36,18857],[36,18935],[36,19024],[36,19102],[36,19185],[36,19269],[36,19352],[36,19435],[36,19519],[36,19602],[36,19686],[36,19769],[36,19852],[36,19936],[36,20019],[36,20108],[36,20186],[36,20270],[36,20353],[36,20436],[36,20520],[36,20604],[36,20686],[36,20770],[36,20853],[36,20937],[36,21020]]",1,0,1612.435,1620.5762,49.79166667,1.7124,"[{""rating"":49.791666666666664,""responseTime"":1.7124000000953856}]",space,7.5927,,1620.5763,Not at all,0,1620.5996,,,[],,0,7,7,7,1,audio/Narrative7Situation7.wav,audio/Narrative8Situation7.wav,audio/Narrative5Situation7.wav,audio/Narrative6Situation7.wav,5,3,4,5,,,,,,,,,,,,,,,,,,,,,,,,,,,,,,,,,,,,,,,
,,,,,,5c284ae48e845b0001fc40aa,2024-02-08_09h45.22.734,group3.1-3.2-social-tom,2023.2.2,Win32,60.24096386,65c5074098b851296ff0b7ed,65c512f7cb8cbf64dc830564,,,,,,,,,,,,,,,,,,,,,,,,,,,,,1620.5999,2,audio/Narrative5Situation8.wav,1623.612,,1623.6121,1632.4431,"[[49,1507],[48.9,1584],[48.9,1674],[47.2,1757],[47.2,1834],[47.4,1924],[47.8,2007],[48.3,2090],[48.8,2174],[49.9,2257],[50.9,2340],[58.5,2424],[62.3,2502],[64.3,2591],[72,2675],[72,2752],[72,2836],[72,2919],[72,3008],[71.7,3086],[70.1,3169],[69.9,3260],[68.8,3342],[64.7,3425],[57.5,3509],[51.9,3586],[50.5,3676],[50,3753],[49.7,3842],[49.7,3927],[49.7,4003],[49.7,4093],[49.7,4170],[49.7,4260],[49.7,4337],[49.7,4420],[49.7,4504],[49.7,4588],[49.6,4670],[49.5,4760],[49.5,4837],[49.5,4921],[49.5,5011],[49.5,5095],[49.5,5172],[49.5,5254],[49.5,5338],[49.5,5421],[49.5,5505],[49.5,5588],[49.5,5672],[49.5,5761],[49.4,5845],[46.9,5928],[45.1,6005],[45.1,6089],[45.1,6173],[45.1,6255],[45.1,6339],[45.1,6422],[45.1,6512],[45.1,6590],[45.1,6673],[45.3,6762],[45.3,6839],[45.3,6929],[45.5,7013],[45.7,7092],[45.7,7173],[45.7,7257],[45.7,7340],[45.7,7429],[45.7,7507],[45.7,7597],[45.7,7674],[45.7,7757],[45.7,7846],[45.7,7924],[45.7,8008],[45.7,8091],[45.7,8174],[45.7,8258],[45.7,8341],[45.7,8424],[45.7,8508],[45.7,8591],[45.7,8675],[45.7,8759]]",1,0,1632.4432,1638.0763,45.10416667,0.7231,"[{""rating"":45.104166666666664,""responseTime"":0.7231000003814643}]",space,5.0986,,1638.0763,Not at all,0,1638.0877,,,[],,0,8,8,8,1,audio/Narrative7Situation8.wav,audio/Narrative8Situation8.wav,audio/Narrative5Situation8.wav,audio/Narrative6Situation8.wav,2,3,3,5,,,,,,,,,,,,,,,,,,,,,,,,,,,,,,,,,,,,,,,
,,,,,,5c284ae48e845b0001fc40aa,2024-02-08_09h45.22.734,group3.1-3.2-social-tom,2023.2.2,Win32,60.24096386,65c5074098b851296ff0b7ed,65c512f7cb8cbf64dc830564,,,,,,,,,,,,,,,,,,,,,,,,,,,,,1638.0879,2,audio/Narrative5Situation9.wav,1641.1015,,1641.1015,1680.6523,"[[999,0],[999,78],[999,161],[999,245],[999,328],[999,418],[999,495],[999,578],[999,661],[999,744],[999,828],[999,911],[999,995],[999,1078],[999,1167],[999,1245],[999,1329],[999,1412],[999,1495],[999,1579],[999,1663],[999,1746],[71,1835],[71.8,1918],[75.4,1996],[75.4,2079],[75.4,2163],[75.6,2246],[75.6,2330],[75.6,2413],[75.6,2497],[75.6,2580],[75.8,2669],[76.1,2753],[76.1,2836],[76.3,2913],[76.3,2997],[76.3,3080],[76.3,3164],[76.3,3247],[76.3,3331],[76.3,3414],[76.3,3498],[76.3,3581],[76.3,3665],[76.3,3748],[76.3,3831],[76.3,3915],[76.3,3998],[76.3,4081],[76.3,4165],[76.3,4248],[76.3,4332],[76.3,4415],[76.3,4499],[76.3,4582],[76.3,4665],[76.3,4749],[76.3,4832],[76.3,4916],[76.3,4999],[76.3,5082],[76.3,5172],[76.3,5250],[76.3,5333],[76.3,5417],[76.3,5505],[76.3,5583],[76.3,5666],[76.3,5750],[76.3,5833],[76.3,5916],[76.1,6000],[76,6089],[76,6167],[76,6250],[76,6334],[76,6417],[76,6501],[76,6584],[76,6668],[76,6751],[76.4,6842],[76.4,6918],[76.9,7007],[78.2,7090],[79.4,7174],[80,7251],[80.9,7341],[81.8,7424],[81.8,7502],[81.8,7585],[81.8,7668],[81.8,7752],[81.8,7842],[81.8,7919],[82.5,8008],[84.8,8091],[86.8,8175],[87,8252],[89.1,8341],[90,8419],[90,8503],[90,8586],[90,8669],[90.2,8753],[91.7,8844],[92,8920],[92,9003],[92,9087],[92,9170],[92,9254],[92,9344],[92.2,9420],[94.9,9510],[96.5,9593],[97.3,9670],[98.1,9761],[98.6,9844],[98.8,9928],[98.8,10010],[98.8,10087],[98.8,10171],[98.8,10254],[98.8,10338],[98.8,10421],[98.8,10504],[98.8,10588],[98.8,10671],[98.8,10755],[98.8,10838],[98.8,10922],[98.8,11008],[98.8,11089],[98.8,11172],[98.8,11255],[98.8,11339],[98.8,11423],[98.8,11505],[98.8,11589],[98.8,11672],[98.8,11756],[98.8,11840],[98.8,11923],[98.8,12006],[98.8,12090],[98.8,12173],[98.8,12256],[98.8,12340],[98.8,12424],[98.8,12506],[98.8,12590],[98.8,12673],[98.8,12757],[98.8,12840],[98.8,12924],[98.8,13013],[98.8,13091],[98.8,13180],[98.8,13257],[98.8,13341],[98.8,13424],[98.8,13508],[98.8,13591],[98.8,13674],[98.8,13758],[98.8,13842],[98.8,13925],[98.8,14008],[98.8,14091],[98.8,14175],[98.8,14258],[98.8,14342],[98.8,14425],[98.8,14512],[98.8,14592],[98.8,14675],[98.8,14765],[98.8,14842],[98.8,14926],[98.8,15009],[98.8,15093],[98.8,15182],[98.8,15259],[98.8,15343],[98.8,15426],[98.8,15510],[98.8,15593],[98.8,15676],[98.8,15760],[98.8,15844],[98.8,15926],[98.8,16010],[98.8,16094],[98.8,16177],[98.8,16260],[98.8,16344],[98.8,16427],[98.8,16510],[98.8,16594],[98.8,16677],[98.8,16761],[98.8,16844],[100,16939],[100,17011],[100,17095],[100,17178],[100,17267],[100,17345],[100,17428],[100,17512],[100,17595],[100,17679],[100,17761],[100,17845],[100,17929],[100,18012],[100,18095],[100,18179],[100,18262],[100,18346],[100,18429],[100,18513],[100,18596],[100,18680],[100,18763],[100,18846],[100,18930],[100,19013],[100,19103],[100,19181],[100,19263],[100,19347],[100,19430],[100,19514],[100,19597],[100,19680],[100,19764],[100,19847],[100,19931],[100,20014],[100,20098],[100,20181],[100,20264],[100,20348],[100,20431],[100,20514],[100,20598],[100,20682],[100,20765],[100,20848],[100,20932],[100,21015],[100,21099],[100,21182],[100,21271],[100,21349],[100,21432],[100,21522],[100,21599],[100,21683],[100,21766],[100,21850],[100,21932],[100,22016],[100,22100],[100,22183],[100,22266],[100,22349],[100,22433],[100,22517],[100,22600],[100,22684],[100,22767],[100,22850],[100,22933],[100,23017],[100,23100],[100,23184],[100,23267],[100,23350],[100,23434],[100,23518],[100,23601],[100,23685],[100,23768],[100,23851],[100,23935],[100,24018],[100,24102],[100,24185],[100,24268],[100,24352],[100,24435],[100,24519],[100,24602],[100,24686],[100,24769],[100,24852],[100,24941],[100,25019],[100,25103],[100,25186],[100,25269],[100,25353],[100,25436],[100,25520],[100,25603],[100,25687],[100,25770],[100,25853],[100,25937],[100,26020],[100,26104],[100,26187],[100,26271],[100,26354],[100,26437],[100,26521],[100,26605],[100,26688],[100,26771],[100,26854],[100,26938],[100,27021],[100,27104],[100,27188],[100,27271],[100,27355],[100,27438],[100,27522],[100,27605],[100,27689],[100,27772],[100,27855],[100,27939],[100,28022],[100,28105],[100,28189],[100,28272],[100,28356],[100,28439],[100,28528],[100,28606],[100,28690],[100,28773],[100,28856],[100,28940],[100,29023],[100,29106],[100,29190],[100,29274],[100,29357],[100,29440],[100,29524],[100,29607],[100,29691],[100,29774],[100,29857],[100,29941],[100,30024],[100,30108],[100,30190],[100,30274],[100,30358],[100,30447],[100,30525],[100,30608],[100,30698],[100,30775],[100,30858],[100,30942],[100,31025],[100,31108],[100,31197],[100,31281],[100,31360],[100,31442],[100,31531],[100,31614],[100,31698],[100,31782],[100,31859],[100,31943],[100,32026],[100,32110],[100,32194],[99.9,32282],[99.9,32360],[99.9,32443],[99.8,32526],[99.2,32610],[99.1,32693],[99.1,32777],[99.1,32860],[99.3,32943],[99.4,33027],[99.4,33111],[99.4,33194],[99.5,33283],[99.9,33366],[99.9,33444],[99.9,33528],[99.9,33611],[100,33701],[100,33783],[100,33861],[100,33945],[100,34028],[100,34112],[100,34195],[100,34278],[100,34362],[100,34450],[100,34529],[100,34612],[100,34696],[100,34779],[100,34862],[100,34946],[100,35029],[100,35112],[100,35196],[100,35279],[100,35362],[100,35446],[100,35530],[100,35613],[100,35697],[100,35780],[100,35863],[100,35947],[100,36036],[100,36113],[100,36203],[100,36280],[100,36363],[100,36447],[100,36530],[100,36614],[100,36698],[100,36781],[100,36864],[100,36948],[100,37037],[100,37114],[100,37198],[100,37281],[100,37365],[100,37448],[100,37532],[100,37615],[100,37699],[100,37782],[100,37865],[100,37949],[100,38032],[100,38115],[100,38199],[100,38282],[100,38365],[100,38449],[100,38532],[100,38616],[100,38706],[100,38783],[100,38867],[100,38950],[100,39033],[100,39116],[100,39200],[100,39283],[100,39367],[100,39450],[100,39533]]",1,0,1680.6527,1687.359,99.58333333,3.2497,"[{""rating"":99.58333333333333,""responseTime"":3.2497000002861114}]",space,6.1566,,1687.3591,Not at all,0,1687.3614,,,[],,0,9,9,9,1,audio/Narrative7Situation9.wav,audio/Narrative8Situation9.wav,audio/Narrative5Situation9.wav,audio/Narrative6Situation9.wav,2,3,3,4,,,,,,,,,,,,,,,,,,,,,,,,,,,,,,,,,,,,,,,
,,,,,,5c284ae48e845b0001fc40aa,2024-02-08_09h45.22.734,group3.1-3.2-social-tom,2023.2.2,Win32,60.24096386,65c5074098b851296ff0b7ed,65c512f7cb8cbf64dc830564,,,,,,,,,,,,,,,,,,,,,,,,,,,,,1687.3615,2,audio/Narrative6Situation1.wav,1689.3775,,1689.3776,1715.9541,"[[100,1255],[99.7,1338],[91.8,1422],[84.9,1506],[43.1,2006],[50.4,2089],[50.4,2168],[50.1,2252],[50.1,2335],[50.1,2419],[50.1,2502],[50.1,2585],[50.1,2669],[50.1,2752],[50.1,2836],[50.1,2919],[50.1,3003],[50.1,3086],[50.1,3169],[50.1,3253],[50.1,3336],[50.1,3420],[49.4,3503],[48.6,3593],[48.4,3670],[47.2,3753],[45.9,3837],[40.8,3921],[40.4,4008],[40.4,4087],[40.4,4170],[40.4,4254],[40.4,4337],[40.4,4420],[40.4,4504],[40.4,4587],[40.4,4671],[40.4,4755],[40.4,4838],[40.4,4927],[40.4,5004],[40.4,5088],[40.4,5171],[40.4,5255],[40.5,5338],[44.2,5427],[52,5511],[71.1,5594],[82.1,5678],[84.9,5762],[84.9,5839],[84.9,5922],[84.9,6006],[84.5,6089],[83.3,6178],[83.2,6256],[83.2,6339],[83.9,6423],[84.5,6512],[85.2,6589],[85.5,6673],[86.1,6762],[86.1,6840],[86.1,6929],[86.1,7012],[86.1,7090],[86.1,7173],[86.1,7257],[86.1,7340],[86.1,7423],[86.1,7507],[86.1,7590],[86.1,7674],[86.1,7757],[86.1,7840],[86.1,7924],[86.1,8008],[86.1,8091],[86.1,8174],[86.1,8258],[86.1,8347],[86.1,8425],[86.1,8508],[86.1,8591],[86.1,8680],[86.4,8758],[86.6,8848],[86.7,8925],[86.7,9008],[86.7,9092],[86.7,9175],[86.7,9259],[86.7,9342],[86.7,9432],[86.7,9509],[86.7,9593],[86.7,9676],[86.7,9759],[86.7,9842],[86.7,9926],[86.7,10009],[86.7,10093],[86.7,10176],[86.7,10260],[86.7,10344],[86.7,10426],[86.7,10510],[86.7,10600],[86.7,10677],[86.7,10760],[86.7,10844],[86.7,10927],[86.7,11010],[83.4,11100],[80,11183],[68.6,11267],[60,11352],[58.4,11433],[50.6,11517],[32.9,11600],[32,11685],[29.9,11767],[27.3,11845],[27.3,11928],[27.3,12011],[27.1,12096],[26.8,12179],[26.7,12269],[26.5,12345],[26.3,12429],[26.1,12518],[26,12602],[26,12686],[26,12763],[26,12846],[26,12929],[26,13013],[26,13096],[26,13180],[26,13263],[25.8,13346],[25.6,13430],[25.6,13513],[25.6,13596],[25.6,13680],[25.6,13763],[25.6,13847],[25.6,13930],[25.6,14014],[25.6,14097],[25.6,14181],[25.6,14270],[25.6,14347],[25.6,14431],[25.6,14514],[25.6,14598],[25.6,14681],[25.6,14765],[25.6,14848],[25.5,14931],[25.5,15014],[25.5,15098],[25.5,15187],[25.5,15265],[25.5,15355],[25.5,15438],[25.5,15515],[25.5,15598],[25.5,15682],[25.5,15771],[25.5,15849],[25.5,15938],[25.5,16021],[25.5,16099],[25,16188],[24.2,16271],[23.3,16355],[19.8,16439],[12.2,16522],[11.4,16605],[11.4,16683],[10.7,16772],[10.2,16855],[10.2,16933],[10.2,17016],[10.1,17107],[10.1,17184],[10.1,17267],[10.1,17350],[10.1,17434],[10,17522],[10,17607],[9.8,17684],[9.8,17767],[9.8,17851],[9.8,17934],[9.8,18018],[9.8,18101],[9.8,18184],[9.8,18268],[9.8,18351],[9.8,18434],[9.8,18518],[9.8,18602],[9.8,18685],[9.8,18768],[9.8,18858],[9.8,18942],[9.8,19018],[9.8,19102],[9.8,19185],[9.8,19269],[9.8,19352],[9.8,19436],[9.8,19519],[9.8,19602],[9.8,19692],[9.8,19769],[9.8,19853],[10.3,19936],[10.7,20025],[10.9,20108],[10.9,20186],[10.9,20269],[11.4,20353],[11.4,20436],[11.4,20520],[11.4,20603],[10.4,20692],[10.1,20776],[10.1,20853],[10.1,20937],[10.1,21020],[10.1,21104],[10.1,21187],[10.1,21270],[10.1,21354],[10.2,21437],[10.2,21521],[10.2,21604],[10.3,21688],[10.3,21777],[10.3,21854],[10.3,21938],[10.3,22021],[10.3,22105],[10.3,22188],[10.4,22277],[12,22361],[15.6,22438],[16.3,22522],[16.3,22605],[16.3,22689],[16.3,22779],[16.3,22861],[15.9,22945],[15.9,23022],[15.8,23113],[15.6,23190],[15.4,23273],[15.4,23356],[15.4,23440],[15.4,23523],[15.4,23606],[15.4,23690],[16.3,23779],[24.9,23863],[41.5,23946],[59.1,24029],[64.2,24113],[64.2,24190],[64.2,24274],[64.2,24357],[64.2,24440],[64.2,24524],[65.1,24613],[65.6,24696],[66.1,24780],[66.5,24857],[66.7,24941],[67,25024],[67,25108],[67,25191],[67.4,25280],[67.6,25358],[67.7,25442],[67.7,25530],[67.7,25608],[67.7,25692],[67.7,25776],[67.7,25859],[67.7,25942],[67.7,26026],[67.7,26115],[67.8,26199],[67.8,26276],[67.8,26359],[67.8,26442],[67.8,26526]]",1,0,1715.9543,1981.9696,37.60416667,4.3083,"[{""rating"":31.354166666666668,""responseTime"":2.465700000286006},{""rating"":39.58333333333333,""responseTime"":2.9764999999999873},{""rating"":37.604166666666664,""responseTime"":4.308300000190684}]",space,265.4876,,1981.9697,Partially,50,1981.979,,,[],,0,10,10,10,1,audio/Narrative8Situation1.wav,audio/Narrative7Situation1.wav,audio/Narrative6Situation1.wav,audio/Narrative5Situation1.wav,5,2,2,5,,,,,,,,,,,,,,,,,,,,,,,,,,,,,,,,,,,,,,,
,,,,,,5c284ae48e845b0001fc40aa,2024-02-08_09h45.22.734,group3.1-3.2-social-tom,2023.2.2,Win32,60.24096386,65c5074098b851296ff0b7ed,65c512f7cb8cbf64dc830564,,,,,,,,,,,,,,,,,,,,,,,,,,,,,1981.9792,2,audio/Narrative6Situation2.wav,1984.9893,,1984.9893,2013.4846,"[[999,0],[999,87],[999,166],[999,250],[999,333],[999,420],[999,501],[999,583],[999,667],[999,750],[999,838],[999,917],[999,1000],[999,1087],[999,1167],[999,1251],[999,1334],[999,1421],[999,1501],[999,1584],[999,1668],[999,1751],[999,1835],[999,1918],[999,2002],[999,2085],[999,2172],[999,2252],[999,2335],[999,2419],[999,2502],[999,2586],[999,2672],[999,2752],[999,2836],[999,2923],[47.5,3006],[46.9,3086],[47,3173],[47.4,3257],[48,3341],[48.8,3424],[49.1,3508],[49.9,3591],[49.9,3670],[49.9,3753],[49.9,3841],[49.9,3920],[49.9,4004],[49.9,4091],[49.9,4170],[50.2,4258],[54.8,4337],[63,4425],[70.1,4508],[76,4591],[78.8,4675],[85.3,4758],[95.1,4840],[98.8,4929],[99,5004],[99.4,5092],[100,5175],[100,5258],[100,5338],[99.8,5425],[99.7,5505],[99.7,5588],[99.7,5676],[99.7,5755],[99.7,5839],[99.7,5922],[99.7,6005],[99.7,6089],[99.7,6172],[99.7,6256],[99.7,6339],[99.7,6423],[99.7,6506],[99.7,6590],[99.7,6673],[99.7,6757],[99.7,6844],[99.7,6924],[99.7,7007],[99.7,7091],[99.7,7174],[99.7,7257],[99.7,7340],[99.7,7429],[99.7,7508],[99.7,7595],[99.7,7674],[99.7,7757],[99.7,7841],[99.7,7924],[99.7,8008],[99.7,8091],[99.7,8174],[99.7,8258],[99.7,8341],[99.7,8425],[99.7,8508],[99.7,8591],[99.7,8675],[99.7,8758],[99.7,8842],[99.7,8925],[99.7,9009],[99.7,9092],[99.7,9176],[99.7,9259],[99.7,9342],[99.7,9425],[99.7,9509],[99.7,9597],[99.7,9676],[99.7,9759],[99.7,9843],[99.7,9926],[99.7,10009],[99.7,10093],[99.7,10181],[99.7,10264],[99.7,10343],[99.7,10427],[99.7,10510],[99.7,10598],[99.7,10677],[99.7,10760],[99.7,10844],[99.7,10927],[99.7,11010],[99.7,11094],[99.7,11177],[99.7,11261],[99.7,11344],[99.7,11428],[99.7,11511],[99.7,11594],[99.7,11682],[99.7,11762],[99.7,11845],[99.7,11928],[99.7,12012],[99.7,12095],[99.7,12179],[99.7,12262],[99.7,12345],[99.7,12428],[99.7,12512],[99.7,12600],[99.7,12679],[99.7,12762],[99.7,12850],[99.7,12930],[99.7,13013],[99.7,13096],[99.7,13180],[99.7,13263],[99.7,13346],[99.7,13429],[99.7,13513],[99.7,13596],[99.7,13680],[99.7,13764],[99.7,13847],[99.7,13930],[99.7,14014],[99.7,14097],[99.7,14180],[99.7,14264],[99.7,14347],[99.7,14431],[99.7,14514],[99.7,14597],[99.7,14681],[99.7,14765],[99.7,14848],[99.7,14931],[99.7,15014],[99.7,15098],[99.7,15182],[99.7,15271],[99.7,15348],[99.7,15432],[99.7,15515],[99.7,15603],[99.7,15682],[99.7,15765],[100,15849],[100,16521],[100,16599],[100,16683],[100,16772],[100,16849],[100,16933],[100,17023],[100,17106],[100,17183],[100,17272],[100,17350],[100,17439],[100,17517],[100,17601],[100,17684],[100,17767],[100,17850],[100,17934],[100,18018],[100,18101],[100,18184],[100,18268],[100,18351],[100,18435],[100,18518],[100,18601],[100,18685],[100,18768],[100,18851],[100,18935],[100,19019],[100,19102],[100,19186],[100,19269],[100,19352],[100,19436],[100,19519],[100,19602],[100,19692],[100,19769],[100,19853],[100,19936],[100,20019],[100,20103],[100,20186],[100,20270],[100,20354],[100,20437],[100,20520],[100,20604],[100,20687],[100,20771],[100,20854],[100,20937],[100,21021],[100,21104],[100,21188],[100,21271],[100,21355],[100,21438],[100,21521],[100,21604],[100,21688],[100,21771],[100,21855],[100,21938],[100,22022],[100,22105],[100,22189],[100,22272],[100,22355],[100,22439],[100,22522],[100,22606],[100,22689],[100,22772],[100,22856],[100,22939],[100,23023],[100,23107],[100,23190],[100,23273],[100,23356],[100,23444],[100,23523],[100,23607],[100,23690],[100,23774],[100,23861],[100,23940],[100,24024],[100,24107],[100,24191],[100,24274],[100,24357],[100,24441],[100,24524],[100,24608],[100,24691],[100,24775],[100,24858],[100,24941],[100,25024],[100,25109],[100,25192],[100,25275],[100,25358],[100,25442],[100,25525],[100,25609],[100,25692],[100,25775],[100,25859],[100,25942],[100,26026],[100,26109],[100,26193],[100,26276],[100,26359],[100,26442],[100,26526],[100,26610],[100,26693],[100,26777],[100,26860],[100,26943],[100,27026],[100,27110],[100,27195],[100,27277],[100,27360],[100,27444],[100,27527],[100,27611],[100,27694],[100,27777],[100,27861],[100,27944],[100,28027],[100,28111],[100,28195],[100,28278],[100,28361],[100,28444]]",1,0,2013.485,2018.6623,99.375,3.5028,"[{""rating"":99.375,""responseTime"":3.5028000001907458}]",space,4.6241,,2018.6623,Not at all,0,2018.6653,,,[],,0,11,11,11,1,audio/Narrative8Situation2.wav,audio/Narrative7Situation2.wav,audio/Narrative6Situation2.wav,audio/Narrative5Situation2.wav,3,3,3,3,,,,,,,,,,,,,,,,,,,,,,,,,,,,,,,,,,,,,,,
,,,,,,5c284ae48e845b0001fc40aa,2024-02-08_09h45.22.734,group3.1-3.2-social-tom,2023.2.2,Win32,60.24096386,65c5074098b851296ff0b7ed,65c512f7cb8cbf64dc830564,,,,,,,,,,,,,,,,,,,,,,,,,,,,,2018.6655,2,audio/Narrative6Situation3.wav,2023.678,,2023.678,2036.2904,"[[97.3,3586],[95.7,3672],[94.1,3759],[80.6,3843],[65.7,3921],[49,4343],[49.5,4426],[49.8,4504],[49.8,4587],[49.8,4671],[49.8,4755],[49.8,4838],[49.8,4921],[49.8,5005],[49.8,5088],[49.8,5172],[49.8,5255],[49.8,5338],[49.8,5422],[49.8,5505],[49.8,5588],[49.8,5672],[49.8,5761],[49.8,5838],[49.8,5922],[49.8,6005],[49.8,6091],[49.8,6172],[49.8,6255],[49.8,6339],[49.8,6428],[49.8,6506],[49.8,6589],[49.8,6672],[49.8,6756],[49.8,6839],[49.8,6925],[49.8,7006],[49.8,7090],[49.8,7173],[49.8,7256],[49.8,7340],[49.8,7423],[49.8,7507],[49.8,7590],[49.8,7673],[49.8,7757],[49.8,7840],[49.8,7924],[100,8428],[100,8512],[100,8595],[100,8679],[100,8762],[100,8845],[100,8928],[100,9012],[100,9096],[99.1,9179],[99.1,9258],[99.1,9342],[99.1,9428],[99.1,9509],[99.1,9592],[99.1,9675],[99.1,9759],[99.1,9846],[99.1,9926],[99.1,10009],[99.1,10093],[99.1,10176],[99.1,10260],[99.1,10343],[99.1,10430],[99.1,10510],[99.1,10593],[99.1,10677],[99.1,10760],[99.1,10843],[99.1,10927],[99.1,11010],[99.1,11094],[99.1,11177],[99.1,11260],[99.1,11344],[99.1,11427],[99.1,11511],[99.1,11594],[99.1,11677],[99.1,11761],[99.1,11844],[99.1,11928],[99.1,12011],[99.1,12095],[99.1,12178],[99.1,12261],[99.1,12345],[99.1,12428],[99.1,12512],[99.1,12595]]",1,0,2036.2906,2038.1756,99.47916667,0.7848,"[{""rating"":99.47916666666667,""responseTime"":0.7848000001908986}]",space,1.3356,,2038.1756,Partially,50,2038.1785,,,[],,0,12,12,12,1,audio/Narrative8Situation3.wav,audio/Narrative7Situation3.wav,audio/Narrative6Situation3.wav,audio/Narrative5Situation3.wav,4,8,5,3,,,,,,,,,,,,,,,,,,,,,,,,,,,,,,,,,,,,,,,
,,,,,,5c284ae48e845b0001fc40aa,2024-02-08_09h45.22.734,group3.1-3.2-social-tom,2023.2.2,Win32,60.24096386,65c5074098b851296ff0b7ed,65c512f7cb8cbf64dc830564,,,,,,,,,,,,,,,,,,,,,,,,,,,,,2038.1787,2,audio/Narrative6Situation4.wav,2040.1942,,2040.1943,2052.8236,"[[98,2255],[98,2335],[98,2418],[98,2502],[98,2585],[98,2669],[98,2752],[97,2840],[97,2919],[97,3002],[97,3086],[97,3169],[97,3253],[97.4,3340],[96.7,3423],[95.6,3507],[94.8,3586],[95.8,3670],[96.5,3757],[98.4,3841],[98.8,3920],[99.4,4008],[100,4087],[100,4174],[100,4254],[100,4337],[100,4421],[100,4504],[100,4588],[100,4671],[100,4754],[100,4838],[100,4921],[100,5004],[100,5088],[100,5171],[100,5255],[100,5340],[100,5421],[100,5505],[100,5592],[100,5672],[100,5755],[100,5838],[100,5922],[100,6005],[100,6089],[100,6172],[100,6256],[100,6339],[100,6423],[100,6506],[100,6589],[100,6673],[100,6756],[100,6840],[100,6923],[100,7006],[100,7090],[100,7173],[100,7257],[100,7340],[100,7423],[100,7507],[100,7590],[100,7674],[100,7757],[100,7841],[100,7924],[100,8007],[100,8091],[100,8174],[100,8258],[100,8341],[100,8424],[100,8508],[100,8591],[100,8675],[100,8758],[100,8842],[100,8925],[100,9008],[100,9092],[100,9180],[100,9261],[100,9347],[100,9431],[100,9509],[100,9592],[100,9676],[100,9759],[100,9843],[100,9926],[100,10009],[100,10093],[100,10181],[100,10260],[100,10348],[100,10427],[100,10510],[100,10593],[100,10677],[100,10766],[100,10844],[100,10927],[100,11010],[100,11094],[100,11177],[100,11261],[100,11344],[100,11427],[100,11511],[100,11594],[100,11678],[100,11761],[100,11845],[100,11928],[100,12012],[100,12095],[100,12178],[100,12266],[100,12345],[100,12429],[100,12517],[100,12595]]",1,0,2052.8237,2083.488,99.79166667,29.8285,"[{""rating"":99.79166666666667,""responseTime"":29.828500000000076}]",space,30.142,,2083.4882,Definitely yes,100,2083.4927,,,[],,0,13,13,13,1,audio/Narrative8Situation4.wav,audio/Narrative7Situation4.wav,audio/Narrative6Situation4.wav,audio/Narrative5Situation4.wav,3,3,2,1,,,,,,,,,,,,,,,,,,,,,,,,,,,,,,,,,,,,,,,
,,,,,,5c284ae48e845b0001fc40aa,2024-02-08_09h45.22.734,group3.1-3.2-social-tom,2023.2.2,Win32,60.24096386,65c5074098b851296ff0b7ed,65c512f7cb8cbf64dc830564,,,,,,,,,,,,,,,,,,,,,,,,,,,,,2083.4931,2,audio/Narrative6Situation5.wav,2085.507,,2085.5071,2093.4808,"[[100,2590],[100,2674],[100,2757],[100,2841],[100,2918],[99.9,3002],[99.3,3085],[99.6,3174],[99.6,3252],[99.7,3335],[99.7,3419],[99.8,3503],[99.9,3585],[100,3675],[100,3753],[100,3836],[100,3919],[100,4003],[100,4086],[100,4170],[100,4253],[100,4336],[100,4420],[100,4504],[100,4587],[100,4670],[100,4753],[100,4837],[100,4920],[100,5004],[100,5087],[100,5171],[100,5255],[100,5344],[100,5421],[100,5504],[100,5588],[100,5671],[100,5755],[100,5838],[100,5921],[100,6005],[100,6089],[100,6172],[100,6256],[100,6339],[100,6422],[100,6505],[100,6589],[100,6672],[100,6756],[100,6839],[100,6922],[100,7011],[100,7090],[100,7173],[100,7256],[100,7344],[100,7423],[100,7506],[100,7589],[100,7673],[100,7756],[100,7840],[100,7923]]",1,0,2093.481,2105.7964,99.89583333,4.3075,"[{""rating"":99.89583333333334,""responseTime"":4.307500000000346}]",space,11.7834,,2105.7965,Not at all,0,2105.8202,,,[],,0,14,14,14,1,audio/Narrative8Situation5.wav,audio/Narrative7Situation5.wav,audio/Narrative6Situation5.wav,audio/Narrative5Situation5.wav,2,5,2,5,,,,,,,,,,,,,,,,,,,,,,,,,,,,,,,,,,,,,,,
,,,,,,5c284ae48e845b0001fc40aa,2024-02-08_09h45.22.734,group3.1-3.2-social-tom,2023.2.2,Win32,60.24096386,65c5074098b851296ff0b7ed,65c512f7cb8cbf64dc830564,,,,,,,,,,,,,,,,,,,,,,,,,,,,,2105.8204,2,audio/Narrative6Situation6.wav,2107.8287,,2107.8288,2118.8897,"[[97.8,2674],[97.6,2757],[98,2841],[98.4,2924],[98.8,3008],[99.1,3086],[99.4,3176],[99.6,3258],[99.9,3336],[100,3419],[100,3503],[100,3592],[100,3670],[100,3759],[100,3836],[100,3920],[100,4004],[100,4087],[100,4170],[100,4253],[100,4337],[100,4421],[100,4509],[100,4587],[100,4671],[100,4754],[100,4838],[100,4921],[100,5004],[100,5088],[100,5171],[100,5255],[100,5338],[100,5421],[100,5511],[100,5588],[100,5672],[100,5756],[100,5838],[100,5922],[100,6012],[100,6095],[100,6173],[100,6255],[100,6339],[100,6423],[100,6506],[100,6589],[100,6673],[100,6756],[100,6839],[100,6923],[100,7007],[100,7090],[100,7173],[100,7256],[100,7345],[100,7424],[100,7507],[100,7590],[100,7673],[100,7757],[100,7840],[100,7924],[100,8008],[100,8091],[100,8174],[100,8258],[100,8341],[100,8424],[100,8508],[100,8591],[100,8675],[100,8758],[100,8842],[100,8925],[100,9009],[100,9092],[100,9176],[100,9259],[100,9342],[100,9425],[100,9509],[100,9592],[100,9676],[100,9759],[100,9848],[100,9926],[100,10009],[100,10093],[100,10177],[100,10259],[100,10343],[100,10433],[100,10510],[100,10593],[100,10683],[100,10760],[100,10843],[100,10927],[100,11010]]",1,0,2118.8898,2120.9751,99.6875,0.8173,"[{""rating"":99.6875,""responseTime"":0.8172999997141233}]",space,1.5523,,2120.9752,Partially,50,2120.9778,,,[],,0,15,15,15,1,audio/Narrative8Situation6.wav,audio/Narrative7Situation6.wav,audio/Narrative6Situation6.wav,audio/Narrative5Situation6.wav,2,3,2,3,,,,,,,,,,,,,,,,,,,,,,,,,,,,,,,,,,,,,,,
