exp_question,consent.started,consent.stopped,consentResponse.keys,consentResponse.rt,consentResponse.duration,participantID,date,expName,psychopyVersion,OS,frameRate,STUDY_ID,SESSION_ID,opening1.started,opening1.stopped,keyEndingOpening1.keys,keyEndingOpening1.rt,keyEndingOpening1.duration,volumeAdjust.started,volumeAdjust.stopped,endingAdjust.keys,endingAdjust.rt,endingAdjust.duration,opening2.started,opening2.stopped,keyEndingOpening.keys,keyEndingOpening.rt,keyEndingOpening.duration,mouse.x,mouse.y,mouse.leftButton,mouse.midButton,mouse.rightButton,mouse.time,instructionLoop.thisRepN,instructionLoop.thisTrialN,instructionLoop.thisN,instructionLoop.thisIndex,instructionLoop.ran,readyForAudio.started,readyForAudio.stopped,fixation.started,run,audio_played,fixation.stopped,endPractice.keys,audioPre.started,audioPre.stopped,continuousResponses_audio,continuousSlider.response,continuousSlider.rt,intRating.started,intRating.stopped,intQuestionSlider.response,intQuestionSlider.rt,intQuestionSlider.history,confirmResponse.keys,confirmResponse.rt,confirmResponse.duration,catchQuestion.started,catch_label,catch_value,catchQuestion.stopped,catchQuestionSlider.response,catchQuestionSlider.rt,catchQuestionSlider.history,confirmResponse_2.keys,audioRunLoop.thisRepN,audioRunLoop.thisTrialN,audioRunLoop.thisN,audioRunLoop.thisIndex,audioRunLoop.ran,conditions1_1,conditions2_1,conditions1_2,conditions2_2,dur1_1,dur2_1,dur1_2,dur2_2,endPractice.rt,endPractice.duration,confirmResponse_2.rt,confirmResponse_2.duration,runIntervalBreak.started,runIntervalBreak.stopped,endingBreakKey.keys,endingBreakKey.rt,endingBreakKey.duration,connection.started,connection.stopped,connectionEnding.keys,connectionEnding.rt,connectionEnding.duration,readyForText.started,readyForText.stopped,textPre.started,run_dup,textPre.stopped,continuousResponses_text,textRunLoop.thisRepN,textRunLoop.thisTrialN,textRunLoop.thisN,textRunLoop.thisIndex,textRunLoop.ran,text1_1,text1_2,text2_1,text2_2,runBreakText.started,runBreakText.stopped,endingBreakKey_2.keys,endingBreakKey_2.rt,endingBreakKey_2.duration,ending.started,ending.stopped,endingEnding.keys,endingEnding.rt,endingEnding.duration
social,0.0002,57.9114,y,57.5713,,5c40e7d99d27f00001159a65,2024-02-08_15h03.45.222,group3.1-3.2-social-tom,2023.2.2,Win32,59.17159763,65c5074098b851296ff0b7ed,65c5418d2b84754d6359dc0f,,,,,,,,,,,,,,,,,,,,,,,,,,,,,,,,,,,,,,,,,,,,,,,,,,,,,,,,,,,,,,,,,,,,,,,,,,,,,,,,,,,,,,,,,,,,,,,,,,,,,,,,,,
,,,,,,5c40e7d99d27f00001159a65,2024-02-08_15h03.45.222,group3.1-3.2-social-tom,2023.2.2,Win32,59.17159763,65c5074098b851296ff0b7ed,65c5418d2b84754d6359dc0f,57.9118,62.8281,space,4.8935,,,,,,,,,,,,,,,,,,,,,,,,,,,,,,,,,,,,,,,,,,,,,,,,,,,,,,,,,,,,,,,,,,,,,,,,,,,,,,,,,,,,,,,,,,,,,,,,,,,,,,
,,,,,,5c40e7d99d27f00001159a65,2024-02-08_15h03.45.222,group3.1-3.2-social-tom,2023.2.2,Win32,59.17159763,65c5074098b851296ff0b7ed,65c5418d2b84754d6359dc0f,,,,,,62.8282,80.5622,space,17.4016,,,,,,,,,,,,,,,,,,,,,,,,,,,,,,,,,,,,,,,,,,,,,,,,,,,,,,,,,,,,,,,,,,,,,,,,,,,,,,,,,,,,,,,,,,,,,,,,,
,,,,,,5c40e7d99d27f00001159a65,2024-02-08_15h03.45.222,group3.1-3.2-social-tom,2023.2.2,Win32,59.17159763,65c5074098b851296ff0b7ed,65c5418d2b84754d6359dc0f,,,,,,,,,,,80.5706,90.4123,space,9.816,,[-0.010416666666666666],[0.23809523809523808],[1],[0],[0],[8.941899999856943],0,0,0,0,1,,,,,,,,,,,,,,,,,,,,,,,,,,,,,,,,,,,,,,,,,,,,,,,,,,,,,,,,,,,,,,,,,,,,,,,,,,,,,,,,
,,,,,,5c40e7d99d27f00001159a65,2024-02-08_15h03.45.222,group3.1-3.2-social-tom,2023.2.2,Win32,59.17159763,65c5074098b851296ff0b7ed,65c5418d2b84754d6359dc0f,,,,,,,,,,,90.4129,110.929,space,20.4259,,[],[],[],[],[],[],1,0,1,0,1,,,,,,,,,,,,,,,,,,,,,,,,,,,,,,,,,,,,,,,,,,,,,,,,,,,,,,,,,,,,,,,,,,,,,,,,,,,,,,,,
,,,,,,5c40e7d99d27f00001159a65,2024-02-08_15h03.45.222,group3.1-3.2-social-tom,2023.2.2,Win32,59.17159763,65c5074098b851296ff0b7ed,65c5418d2b84754d6359dc0f,,,,,,,,,,,110.9385,132.7131,space,21.7122,,[0.171875],[-0.10264550264550265],[1],[0],[0],[13.97170000004769],2,0,2,0,1,,,,,,,,,,,,,,,,,,,,,,,,,,,,,,,,,,,,,,,,,,,,,,,,,,,,,,,,,,,,,,,,,,,,,,,,,,,,,,,,
,,,,,,5c40e7d99d27f00001159a65,2024-02-08_15h03.45.222,group3.1-3.2-social-tom,2023.2.2,Win32,59.17159763,65c5074098b851296ff0b7ed,65c5418d2b84754d6359dc0f,,,,,,,,,,,132.7193,145.4469,space,12.7057,,[],[],[],[],[],[],3,0,3,0,1,,,,,,,,,,,,,,,,,,,,,,,,,,,,,,,,,,,,,,,,,,,,,,,,,,,,,,,,,,,,,,,,,,,,,,,,,,,,,,,,
,,,,,,5c40e7d99d27f00001159a65,2024-02-08_15h03.45.222,group3.1-3.2-social-tom,2023.2.2,Win32,59.17159763,65c5074098b851296ff0b7ed,65c5418d2b84754d6359dc0f,,,,,,,,,,,145.4526,151.9804,space,6.5107,,[],[],[],[],[],[],4,0,4,0,1,,,,,,,,,,,,,,,,,,,,,,,,,,,,,,,,,,,,,,,,,,,,,,,,,,,,,,,,,,,,,,,,,,,,,,,,,,,,,,,,
,,,,,,5c40e7d99d27f00001159a65,2024-02-08_15h03.45.222,group3.1-3.2-social-tom,2023.2.2,Win32,59.17159763,65c5074098b851296ff0b7ed,65c5418d2b84754d6359dc0f,,,,,,,,,,,,,,,,,,,,,,,,,,,151.9871,155.9543,155.9771,1,audio/Narrative13Situation2.wav,157.9807,,157.981,187.7502,"[[999,1],[999,85],[999,165],[999,251],[999,332],[999,415],[999,499],[999,583],[999,666],[999,750],[999,833],[55.1,917],[54.6,1002],[54.6,1082],[53.6,1168],[53.3,1251],[53.1,1332],[52.7,1418],[51.6,1501],[50.9,1585],[50.8,1668],[50.8,1749],[50.8,1834],[50.8,1916],[50.8,2001],[50.8,2084],[50.8,2166],[50.8,2251],[50.8,2332],[50.2,2416],[48.1,2499],[48.1,2582],[48.1,2666],[48.1,2751],[48.1,2834],[48.1,2916],[45.5,3001],[44.1,3085],[37.6,3168],[37.1,3251],[37.1,3332],[37.1,3417],[36.4,3501],[33.4,3585],[30.6,3668],[30.6,3751],[29,3835],[28.9,3917],[28.9,3999],[28.9,4082],[27.4,4168],[26.1,4251],[25.3,4335],[23.3,4418],[23.3,4501],[23.3,4582],[23.3,4667],[25.4,4751],[27.5,4835],[29.2,4918],[30.4,5001],[31.9,5082],[31.9,5166],[32.3,5251],[33.4,5335],[34.2,5418],[34.6,5499],[35.4,5585],[36.4,5668],[36.9,5751],[36.9,5835],[36.9,5916],[36.9,6001],[36.9,6084],[36.9,6166],[36.9,6249],[36.9,6332],[36.9,6418],[36.9,6499],[36.9,6582],[36.9,6667],[36.9,6749],[36.9,6832],[36.9,6918],[36.9,6999],[36.9,7084],[36.9,7167],[36.9,7249],[36.9,7334],[36.9,7416],[36.9,7501],[39.4,7584],[68.6,7918],[70.4,8001],[70.6,8083],[70.7,8168],[74,8252],[76.1,8335],[81.4,8418],[81.9,8501],[83.3,8582],[84.1,8668],[84.1,8752],[85,8835],[93.1,8918],[93.3,8999],[93.4,9082],[93.4,9166],[100,9251],[100,9332],[100,9416],[100,9499],[100,9582],[100,9668],[100,9751],[100,9833],[100,9916],[100,9999],[100,10084],[100,10166],[100,10251],[100,10333],[100,10418],[100,10499],[100,10585],[100,10666],[100,10751],[100,10832],[100,10916],[100,10999],[100,11084],[100,11168],[100,11249],[100,11332],[100,11416],[100,11499],[100,11583],[100,11668],[100,11751],[100,11834],[100,11916],[100,12001],[100,12083],[100,12168],[100,12249],[100,12333],[100,12416],[100,12499],[100,12583],[100,12668],[100,12749],[100,12833],[100,12918],[100,12999],[100,13168],[100,13249],[100,13333],[100,13416],[100,13499],[100,13583],[100,13666],[100,13749],[100,13834],[100,13916],[100,14001],[100,14083],[100,14168],[100,14251],[100,14334],[100,14416],[100,14499],[100,14584],[100,14666],[100,14749],[100,14835],[100,14916],[100,14999],[100,15083],[100,15166],[100,15249],[100,15333],[100,15416],[100,15499],[100,15583],[100,15668],[100,15749],[100,15833],[100,15916],[100,15999],[100,16085],[100,16166],[100,16251],[100,16333],[100,16418],[100,16500],[100,16584],[100,16666],[100,16750],[100,16833],[100,16916],[100,16999],[100,17083],[100,17166],[100,17250],[100,17333],[100,17416],[100,17499],[100,17583],[100,17666],[100,17749],[100,17835],[100,17916],[100,18000],[100,18083],[100,18166],[100,18250],[100,18333],[100,18416],[100,18500],[100,18585],[100,18666],[100,18750],[100,18833],[100,18918],[100,19001],[100,19085],[100,19166],[100,19250],[100,19333],[100,19418],[100,19500],[100,19583],[100,19666],[100,19750],[100,19833],[100,19916],[100,20001],[100,20083],[100,20166],[100,20250],[100,20335],[100,20416],[100,20500],[100,20583],[100,20666],[100,20750],[100,20833],[100,20916],[100,21000],[100,21083],[100,21166],[100,21250],[100,21333],[100,21418],[100,21501],[100,21583],[100,21666],[100,21750],[100,21833],[100,21916],[100,22000],[100,22085],[100,22166],[100,22250],[100,22333],[100,22418],[100,22500],[100,22585],[100,22668],[100,22750],[100,22833],[100,22918],[100,23000],[100,23085],[100,23166],[100,23250],[100,23333],[100,23416],[100,23500],[100,23583],[100,23666],[100,23750],[100,23833],[100,23916],[100,24002],[100,24085],[100,24166],[100,24250],[100,24333],[100,24416],[100,24500],[100,24583],[100,24668],[100,24750],[100,24833],[100,24918],[100,25000],[100,25083],[100,25167],[100,25250],[100,25333],[100,25418],[100,25500],[100,25585],[100,25666],[100,25750],[100,25833],[100,25916],[100,26000],[100,26083],[100,26166],[100,26250],[100,26333],[100,26416],[100,26502],[100,26585],[100,26667],[100,26750],[100,26833],[100,26917],[100,27002],[100,27083],[100,27166],[100,27250],[100,27333],[100,27417],[100,27500],[100,27583],[100,27666],[100,27750],[100,27833],[100,27916],[100,28002],[100,28085],[100,28168],[100,28250],[100,28333],[100,28417],[100,28500],[100,28583],[100,28666],[100,28750],[100,28833],[100,28917],[100,29000],[100,29083],[100,29167],[100,29250],[100,29335],[100,29417],[100,29500],[100,29585],[100,29667],[100,29750]]",1,0,187.7505,202.3006,100,12.3331,"[{""rating"":84.0625,""responseTime"":3.2682999999522906},{""rating"":100,""responseTime"":12.333099999904618}]",space,14.0068,,202.3008,Partially,50,202.3032,,,[],,0,0,0,0,1,audio/Narrative13Situation2.wav,audio/Narrative13Situation2.wav,audio/Narrative13Situation2.wav,audio/Narrative13Situation2.wav,2,2,2,2,,,,,,,,,,,,,,,,,,,,,,,,,,,,,,,,,,,,,,,
,,,,,,5c40e7d99d27f00001159a65,2024-02-08_15h03.45.222,group3.1-3.2-social-tom,2023.2.2,Win32,59.17159763,65c5074098b851296ff0b7ed,65c5418d2b84754d6359dc0f,,,,,,,,,,,,,,,,,,,,,,,,,,,,,202.3034,1,audio/Narrative8Situation1.wav,203.8154,space,203.8155,219.7344,"[[999,1],[999,84],[999,167],[999,251],[999,333],[999,416],[999,499],[999,583],[999,666],[999,749],[999,833],[999,916],[999,1000],[999,1084],[999,1167],[999,1249],[999,1332],[999,1416],[999,1500],[999,1585],[999,1668],[999,1752],[999,1835],[80.8,1918],[82.5,2001],[82.6,2084],[82.6,2166],[82.6,2251],[82.6,2334],[82.6,2418],[82.6,2499],[82.6,2583],[82.6,2666],[82.6,2751],[82.6,2833],[82.6,2918],[82.6,2999],[82.6,3084],[82.6,3168],[82.6,3249],[82.6,3334],[82.6,3416],[82.6,3499],[84.4,3585],[86.5,3668],[89.5,3752],[89.8,3833],[90.6,3918],[100,4001],[100,4083],[100,4168],[100,4250],[100,4335],[100,4416],[100,4499],[100,4584],[100,4666],[100,4749],[100,4835],[100,4917],[100,4999],[100,5083],[100,5168],[100,5251],[100,5333],[100,5416],[100,5501],[100,5583],[100,5668],[100,5750],[100,5833],[100,5918],[100,6000],[100,6083],[100,6168],[100,6249],[100,6333],[100,6416],[100,6500],[100,6583],[100,6666],[100,6750],[100,6834],[100,6916],[100,7000],[100,7085],[100,7166],[100,7250],[100,7334],[100,7416],[100,7500],[100,7585],[100,7666],[100,7751],[100,7833],[100,7916],[100,8001],[100,8085],[100,8166],[100,8251],[100,8333],[100,8416],[100,8500],[100,8583],[100,8666],[100,8750],[100,8833],[100,8918],[100,9000],[100,9085],[100,9168],[100,9250],[100,9333],[100,9416],[100,9500],[100,9584],[100,9666],[100,9751],[100,9833],[100,9916],[100,10002],[100,10083],[100,10166],[100,10250],[100,10333],[100,10418],[100,10500],[100,10583],[100,10666],[100,10750],[100,10834],[100,10916],[100,11000],[100,11083],[100,11168],[100,11250],[100,11335],[100,11418],[100,11500],[100,11585],[100,11666],[100,11751],[100,11833],[100,11916],[100,12000],[100,12083],[100,12168],[100,12250],[100,12333],[100,12418],[100,12501],[100,12585],[100,12668],[100,12750],[100,12835],[100,12918],[100,13001],[100,13083],[100,13168],[100,13252],[100,13335],[100,13416],[100,13500],[100,13583],[100,13666],[100,13752],[100,13833],[100,13916],[100,14000],[100,14083],[100,14166],[100,14250],[100,14333],[100,14416],[100,14500],[100,14583],[100,14666],[100,14750],[100,14833],[100,14918],[100,15000],[100,15085],[100,15166],[100,15252],[100,15333],[100,15418],[100,15500],[100,15583],[100,15666],[100,15750],[100,15833],[100,15918]]",1,0,219.7344,222.9494,100,2.1947,"[{""rating"":99.89583333333334,""responseTime"":1.2150000000000034},{""rating"":100,""responseTime"":2.1946999998092735}]",space,2.6741,,222.9495,Not at all,0,222.9524,,,[],,0,1,1,1,1,audio/Narrative7Situation1.wav,audio/Narrative8Situation1.wav,audio/Narrative5Situation1.wav,audio/Narrative6Situation1.wav,2,5,5,2,1.4849,,,,,,,,,,,,,,,,,,,,,,,,,,,,,,,,,,,,,,
,,,,,,5c40e7d99d27f00001159a65,2024-02-08_15h03.45.222,group3.1-3.2-social-tom,2023.2.2,Win32,59.17159763,65c5074098b851296ff0b7ed,65c5418d2b84754d6359dc0f,,,,,,,,,,,,,,,,,,,,,,,,,,,,,222.9526,1,audio/Narrative8Situation2.wav,225.9662,,225.9662,236.1167,"[[999,5],[999,83],[999,166],[999,249],[999,333],[999,416],[999,499],[999,584],[999,666],[999,751],[999,833],[999,916],[999,1002],[999,1083],[999,1166],[999,1251],[999,1335],[999,1416],[999,1500],[999,1585],[86.1,1668],[86,1749],[86,1833],[86,1917],[86,2001],[86,2083],[86,2166],[86,2249],[86,2333],[87.5,2418],[88.3,2502],[89.4,2585],[90.3,2668],[90.4,2751],[90.4,2834],[90.4,2918],[89.3,3002],[82.6,3086],[79.4,3168],[79.4,3250],[79.4,3334],[79.4,3416],[79.4,3500],[79.4,3585],[74.1,3668],[72.5,3749],[68.5,3833],[68.5,3918],[68.5,3999],[68.5,4083],[68.5,4166],[66.3,4252],[64.4,4333],[64.4,4416],[64.4,4500],[64.4,4583],[64.4,4666],[64.4,4751],[64.4,4833],[64.4,4916],[64.4,5002],[64.4,5084],[64.4,5166],[64.4,5250],[64.4,5335],[64.4,5416],[64.4,5501],[64.4,5584],[64.4,5666],[64.4,5750],[64.4,5833],[63.4,5917],[60.4,6002],[57.9,6085],[50.3,6168],[50.1,6250],[50.1,6333],[50.1,6416],[50.1,6500],[50.1,6583],[50.1,6666],[50.1,6750],[50.1,6833],[50.1,6918],[50.1,7001],[50.1,7083],[50.1,7168],[50.1,7252],[50.1,7335],[50.1,7416],[50.1,7501],[50.1,7583],[50.1,7668],[50.1,7750],[50.1,7833],[50.1,7916],[50.1,8000],[50.1,8083],[51.8,8167],[56,8252],[58.3,8335],[58.3,8416],[58.3,8500],[58.3,8583],[58.3,8666],[58.3,8750],[58.3,8835],[58.3,8918],[58.3,9000],[58.3,9083],[58.3,9168],[58.3,9250],[58.3,9333],[58.1,9418],[56.9,9502],[56.3,9583],[56.3,9666],[56.3,9751],[56.3,9833],[56.3,9916],[56.3,10000],[56.3,10083]]",1,0,236.1168,240.085,55.52083333,2.521,"[{""rating"":49.47916666666667,""responseTime"":1.5729000000953874},{""rating"":55.52083333333333,""responseTime"":2.521000000000015}]",space,3.4332,,240.0851,Definitely yes,100,240.0871,,,[],,0,2,2,2,1,audio/Narrative7Situation2.wav,audio/Narrative8Situation2.wav,audio/Narrative5Situation2.wav,audio/Narrative6Situation2.wav,3,3,3,3,,,,,,,,,,,,,,,,,,,,,,,,,,,,,,,,,,,,,,,
,,,,,,5c40e7d99d27f00001159a65,2024-02-08_15h03.45.222,group3.1-3.2-social-tom,2023.2.2,Win32,59.17159763,65c5074098b851296ff0b7ed,65c5418d2b84754d6359dc0f,,,,,,,,,,,,,,,,,,,,,,,,,,,,,240.0872,1,audio/Narrative8Situation3.wav,244.1001,,244.1001,266.4842,"[[53.2,2085],[52.6,2168],[52.5,2251],[52.9,2335],[53.2,2416],[53.2,2500],[49.9,2585],[45.7,2669],[44.2,2752],[44.2,2834],[44.2,2916],[44.2,3000],[44.2,3084],[52.7,3169],[62.8,3252],[75.4,3333],[75.4,3416],[75.4,3499],[75.4,3583],[75.5,3666],[78.9,3751],[79.2,3835],[79.2,3916],[79.2,4001],[79.2,4083],[79.2,4166],[79.2,4250],[79.2,4333],[79.2,4416],[79.2,4500],[79.2,4585],[79.2,4668],[79.2,4749],[79.2,4833],[79.2,4918],[79.2,5002],[79.2,5083],[79.2,5166],[79.2,5250],[79.2,5333],[79.2,5416],[79.2,5500],[79.2,5584],[79.2,5666],[79.2,5751],[79.2,5835],[79.2,5916],[79.2,6000],[79.2,6083],[79.2,6168],[79.2,6250],[79.2,6333],[79.2,6416],[79.2,6500],[79.2,6585],[79.2,6666],[79.2,6750],[79.2,6835],[79.2,6918],[79.2,7001],[79.2,7083],[79.2,7168],[79.2,7251],[79.2,7333],[79.2,7418],[79.2,7500],[79.2,7583],[79.2,7668],[79.2,7750],[79.2,7835],[79.2,7916],[79.2,8000],[79.2,8083],[79.2,8168],[79.2,8250],[79.2,8333],[79.2,8416],[79.2,8500],[79.2,8583],[79.2,8666],[79.2,8750],[79.2,8833],[79.2,8916],[79.2,9001],[79.2,9083],[79.2,9167],[79.2,9252],[79.2,9335],[79.2,9416],[79.2,9501],[79.2,9583],[79.2,9666],[79.2,9750],[79.2,9833],[79.2,9916],[79.2,10000],[79.2,10085],[79.2,10166],[79.2,10250],[79.2,10333],[79.2,10416],[79.2,10500],[79.2,10583],[79.2,10666],[79.2,10750],[79.2,10833],[79.2,10916],[79.2,11001],[79.2,11083],[79.2,11168],[79.2,11250],[79.2,11333],[79.2,11416],[79.2,11500],[79.2,11583],[79.2,11667],[79.2,11752],[79.2,11833],[79.2,11917],[79.2,12000],[79.2,12083],[79.2,12166],[79.2,12252],[79.2,12333],[79.2,12416],[79.2,12500],[79.2,12583],[79.2,12666],[79.2,12750],[79.2,12833],[79.2,12916],[79.2,13000],[79.2,13083],[79.2,13168],[79.2,13250],[79.2,13333],[79.2,13417],[79.2,13500],[79.2,13583],[79.2,13667],[79.2,13750],[79.2,13833],[79.2,13917],[79.2,14000],[79.2,14085],[79.2,14167],[79.2,14250],[79.2,14335],[79.2,14417],[79.2,14500],[79.2,14585],[79.2,14667],[79.2,14751],[79.2,14833],[79.2,14917],[79.2,15000],[79.2,15083],[79.2,15167],[79.2,15252],[79.2,15333],[79.2,15417],[79.2,15502],[79.2,15583],[79.2,15667],[79.2,15750],[79.2,15833],[79.2,15917],[79.2,16001],[79.2,16083],[79.2,16167],[79.2,16250],[79.2,16335],[79.2,16417],[79.2,16500],[79.2,16583],[79.2,16667],[79.2,16750],[79.2,16833],[79.2,16917],[79.2,17000],[79.2,17085],[79.2,17167],[79.2,17250],[79.2,17333],[79.2,17417],[79.2,17500],[79.2,17583],[79.2,17667],[79.2,17750],[79.2,17833],[79.2,17917],[79.2,18002],[79.2,18083],[79.2,18168],[79.2,18252],[79.2,18333],[79.2,18417],[79.2,18500],[79.2,18585],[79.2,18667],[79.2,18750],[79.2,18833],[79.2,18917],[79.2,19000],[79.2,19085],[79.2,19167],[79.2,19250],[79.2,19335],[79.2,19417],[79.2,19500],[79.2,19583],[79.2,19668],[79.2,19750],[79.2,19833],[79.2,19917],[79.2,20000],[79.2,20083],[79.2,20167],[79.2,20252],[79.2,20333],[79.2,20417],[79.2,20500],[79.2,20583],[79.2,20667],[79.2,20750],[79.2,20833],[79.2,20917],[79.2,21000],[79.2,21083],[79.2,21167],[79.2,21250],[79.2,21333],[79.2,21417],[79.2,21500],[79.2,21585],[79.2,21667],[79.2,21752],[79.2,21833],[79.2,21919],[79.2,22000],[79.2,22083],[79.2,22167],[79.2,22250],[79.2,22333]]",1,0,266.4845,272.5677,80.10416667,5.1157,"[{""rating"":80.10416666666667,""responseTime"":5.1157000000476955}]",space,5.5398,,272.5678,Partially,50,272.5701,,,[],,0,3,3,3,1,audio/Narrative7Situation3.wav,audio/Narrative8Situation3.wav,audio/Narrative5Situation3.wav,audio/Narrative6Situation3.wav,8,4,3,5,,,,,,,,,,,,,,,,,,,,,,,,,,,,,,,,,,,,,,,
,,,,,,5c40e7d99d27f00001159a65,2024-02-08_15h03.45.222,group3.1-3.2-social-tom,2023.2.2,Win32,59.17159763,65c5074098b851296ff0b7ed,65c5418d2b84754d6359dc0f,,,,,,,,,,,,,,,,,,,,,,,,,,,,,272.5703,1,audio/Narrative8Situation4.wav,275.5844,,275.5845,289.7849,"[[78.6,2085],[77.9,2168],[77.9,2250],[77.9,2333],[80.3,2418],[85.5,2499],[85.5,2583],[85.7,2666],[86.9,2752],[87.1,2833],[91,2918],[92.5,3002],[92.8,3085],[93.3,3168],[93.4,3250],[93.5,3334],[93.5,3416],[93.5,3500],[94.8,3585],[94.9,3666],[95,3749],[95,3834],[95,3916],[95,3999],[95,4085],[95,4166],[95,4250],[95,4334],[95,4418],[95,4500],[97.2,4585],[99.5,4668],[100,4750],[100,4833],[100,4916],[100,5000],[100,5083],[100,5166],[100,5250],[100,5334],[100,5416],[100,5500],[100,5583],[100,5668],[100,5751],[100,5833],[100,5916],[100,6000],[100,6085],[100,6166],[100,6251],[100,6334],[100,6418],[100,6500],[100,6583],[100,6666],[100,6750],[100,6833],[100,6918],[100,7000],[100,7083],[100,7168],[100,7250],[100,7333],[100,7418],[100,7500],[100,7583],[100,7666],[100,7750],[100,7833],[100,7916],[100,8002],[100,8083],[100,8168],[100,8250],[100,8333],[100,8416],[100,8500],[100,8583],[100,8668],[100,8750],[100,8835],[100,8916],[100,9000],[100,9084],[100,9166],[100,9250],[100,9333],[100,9416],[100,9502],[100,9583],[100,9666],[100,9751],[100,9833],[100,9916],[100,10000],[100,10083],[100,10166],[100,10252],[100,10333],[100,10418],[100,10500],[100,10584],[100,10666],[100,10750],[100,10833],[100,10918],[100,11000],[100,11084],[100,11166],[100,11250],[100,11333],[100,11416],[100,11501],[100,11583],[100,11666],[100,11750],[100,11833],[100,11918],[100,12000],[100,12083],[100,12166],[100,12250],[100,12333],[100,12416],[100,12500],[100,12583],[100,12668],[100,12751],[100,12833],[100,12916],[100,13000],[100,13083],[100,13166],[100,13250],[100,13333],[100,13418],[100,13500],[100,13583],[100,13668],[100,13750],[100,13833],[100,13918],[100,14000],[100,14085],[100,14167]]",1,0,289.785,292.835,98.75,1.8773,"[{""rating"":98.75,""responseTime"":1.8772999999522995}]",space,2.5234,,292.8351,Not at all,0,292.8369,,,[],,0,4,4,4,1,audio/Narrative7Situation4.wav,audio/Narrative8Situation4.wav,audio/Narrative5Situation4.wav,audio/Narrative6Situation4.wav,3,3,1,2,,,,,,,,,,,,,,,,,,,,,,,,,,,,,,,,,,,,,,,
,,,,,,5c40e7d99d27f00001159a65,2024-02-08_15h03.45.222,group3.1-3.2-social-tom,2023.2.2,Win32,59.17159763,65c5074098b851296ff0b7ed,65c5418d2b84754d6359dc0f,,,,,,,,,,,,,,,,,,,,,,,,,,,,,292.8371,1,audio/Narrative8Situation5.wav,294.8519,,294.8519,303.1188,"[[99.1,2499],[99.1,2583],[99.1,2666],[99.1,2751],[99.1,2833],[100,2918],[100,3000],[100,3083],[100,3166],[100,3250],[100,3335],[100,3416],[100,3499],[100,3583],[100,3666],[100,3751],[100,3833],[100,3918],[100,4000],[100,4083],[100,4166],[100,4250],[100,4333],[100,4418],[100,4500],[100,4583],[100,4666],[100,4750],[100,4833],[100,4916],[100,5000],[100,5083],[100,5166],[100,5250],[100,5333],[100,5418],[100,5500],[100,5583],[100,5668],[100,5750],[100,5833],[100,5916],[100,5999],[100,6083],[100,6167],[100,6251],[100,6333],[100,6416],[100,6499],[100,6583],[100,6666],[100,6750],[100,6833],[100,6916],[100,7000],[100,7083],[100,7166],[100,7250],[100,7333],[100,7416],[100,7500],[100,7583],[100,7666],[100,7751],[100,7833],[100,7916],[100,8000],[100,8083],[100,8166],[100,8250]]",1,0,303.119,305.2855,100,1.8258,"[{""rating"":99.58333333333333,""responseTime"":1.286400000095341},{""rating"":100,""responseTime"":1.8257999999522667}]",space,1.6231,,305.2855,Not at all,0,305.2868,,,[],,0,5,5,5,1,audio/Narrative7Situation5.wav,audio/Narrative8Situation5.wav,audio/Narrative5Situation5.wav,audio/Narrative6Situation5.wav,5,2,5,2,,,,,,,,,,,,,,,,,,,,,,,,,,,,,,,,,,,,,,,
,,,,,,5c40e7d99d27f00001159a65,2024-02-08_15h03.45.222,group3.1-3.2-social-tom,2023.2.2,Win32,59.17159763,65c5074098b851296ff0b7ed,65c5418d2b84754d6359dc0f,,,,,,,,,,,,,,,,,,,,,,,,,,,,,305.287,1,audio/Narrative8Situation6.wav,307.3022,,307.3023,313.7876,"[[100,5085],[100,5168],[98.9,5250],[98.9,5333],[98.9,5416],[98.9,5499],[98.9,5583],[99.6,5668],[99.9,5751],[100,5833],[100,5916],[100,6000],[100,6085],[100,6168],[100,6250],[100,6333],[100,6416]]",1,0,313.7877,316.2027,98.95833333,2.4144,"[{""rating"":98.95833333333333,""responseTime"":2.4143999998569257}]",space,0.206,,316.2028,Partially,50,316.2044,,,[],,0,6,6,6,1,audio/Narrative7Situation6.wav,audio/Narrative8Situation6.wav,audio/Narrative5Situation6.wav,audio/Narrative6Situation6.wav,3,2,3,2,,,,,,,,,,,,,,,,,,,,,,,,,,,,,,,,,,,,,,,
,,,,,,5c40e7d99d27f00001159a65,2024-02-08_15h03.45.222,group3.1-3.2-social-tom,2023.2.2,Win32,59.17159763,65c5074098b851296ff0b7ed,65c5418d2b84754d6359dc0f,,,,,,,,,,,,,,,,,,,,,,,,,,,,,316.2046,1,audio/Narrative8Situation7.wav,319.2192,,319.2192,331.303,"[[100,1333],[99.5,1418],[98.9,1500],[98.2,1583],[98.2,1666],[97.7,1752],[95.6,1833],[92.6,1918],[92.6,2000],[92.6,2083],[92.6,2166],[92.6,2249],[92.6,2333],[92.6,2418],[92.6,2500],[92.6,2583],[92.6,2666],[92.6,2750],[93.9,2835],[96.9,2918],[97.9,3000],[100,3085],[100,3169],[100,3250],[100,3333],[100,3416],[100,3500],[100,3583],[100,3668],[100,3750],[100,3833],[100,3916],[100,4000],[100,4083],[100,4166],[100,4250],[100,4333],[100,4416],[100,4500],[100,4583],[100,4667],[100,4750],[100,4833],[100,4916],[100,5000],[100,5083],[100,5167],[100,5250],[100,5333],[100,5416],[100,5500],[100,5583],[100,5666],[100,5750],[100,5833],[100,5916],[100,6000],[100,6083],[100,6166],[100,6250],[100,6333],[100,6416],[100,6500],[100,6583],[100,6667],[100,6750],[100,6833],[100,6916],[100,7000],[100,7083],[100,7166],[100,7251],[100,7333],[100,7416],[100,7500],[100,7583],[100,7666],[100,7750],[100,7835],[100,7916],[100,8000],[100,8083],[100,8167],[100,8250],[100,8333],[100,8416],[100,8500],[100,8583],[100,8666],[100,8750],[100,8833],[100,8916],[100,9000],[100,9085],[100,9166],[100,9250],[100,9333],[100,9416],[100,9500],[100,9583],[100,9666],[100,9750],[100,9833],[100,9916],[100,10000],[100,10083],[100,10167],[100,10250],[100,10333],[100,10417],[100,10500],[100,10583],[100,10666],[100,10750],[100,10833],[100,10917],[100,11000],[100,11083],[100,11166],[100,11250],[100,11333],[100,11416],[100,11500],[100,11583],[100,11667],[100,11750],[100,11834],[100,11917],[100,12000],[100,12083]]",1,0,331.3031,338.0199,100,5.3797,"[{""rating"":99.6875,""responseTime"":0.9242999999522681},{""rating"":99.6875,""responseTime"":1.4642999999522885},{""rating"":99.6875,""responseTime"":4.712999999999965},{""rating"":99.6875,""responseTime"":4.957100000143043},{""rating"":100,""responseTime"":5.379700000047649}]",space,6.1729,,338.02,Not at all,0,338.0221,,,[],,0,7,7,7,1,audio/Narrative7Situation7.wav,audio/Narrative8Situation7.wav,audio/Narrative5Situation7.wav,audio/Narrative6Situation7.wav,5,3,4,5,,,,,,,,,,,,,,,,,,,,,,,,,,,,,,,,,,,,,,,
,,,,,,5c40e7d99d27f00001159a65,2024-02-08_15h03.45.222,group3.1-3.2-social-tom,2023.2.2,Win32,59.17159763,65c5074098b851296ff0b7ed,65c5418d2b84754d6359dc0f,,,,,,,,,,,,,,,,,,,,,,,,,,,,,338.0223,1,audio/Narrative8Situation8.wav,341.0365,,341.0365,353.8871,"[[100,2000],[100,2085],[91.6,2168],[87.2,2250],[85.2,2335],[83.1,2418],[78.2,2502],[75,2583],[71.5,2668],[71.1,2750],[70.8,2833],[69.7,2919],[69.1,3000],[68.8,3085],[68.8,3166],[68.8,3250],[68.8,3333],[68.8,3416],[68.8,3500],[68.8,3583],[68.8,3666],[68.8,3750],[68.8,3833],[68.8,3916],[68.8,4000],[68.8,4083],[68.8,4166],[68.8,4250],[68.8,4333],[68.8,4416],[68.8,4500],[68.8,4583],[68.8,4666],[68.8,4752],[68.8,4833],[68.8,4916],[68.8,5000],[68.8,5083],[68.8,5166],[68.8,5250],[68.8,5333],[68.8,5416],[68.8,5500],[68.8,5583],[68.8,5666],[68.8,5750],[68.8,5833],[68.8,5916],[68.8,6000],[68.8,6083],[68.8,6166],[68.8,6250],[68.8,6333],[68.8,6416],[68.8,6500],[68.8,6583],[68.8,6666],[68.8,6750],[68.8,6833],[68.8,6916],[68.8,7000],[68.8,7083],[68.8,7167],[70,7257],[71.9,7335],[72.8,7419],[74.1,7500],[76.1,7585],[76.1,7666],[76.1,7750],[76.1,7833],[76.1,7916],[76.1,8000],[76.1,8083],[76.1,8166],[76.1,8250],[76.1,8333],[76.1,8416],[76.1,8500],[76.1,8583],[76.1,8666],[76.1,8750],[76.1,8833],[76.1,8916],[76.1,9000],[76.1,9083],[76.1,9167],[76.1,9250],[76.1,9335],[76.1,9416],[76.1,9500],[76.1,9583],[76.1,9667],[76.1,9750],[76.1,9835],[76.1,9917],[76.1,10000],[76.1,10084],[76.1,10167],[76.1,10250],[76.1,10333],[76.1,10416],[76.1,10500],[76.1,10583],[76.1,10667],[76.1,10750],[76.1,10833],[76.1,10917],[76.3,11000],[84.1,11085],[89,11168],[90.1,11250],[91.6,11333],[91.7,11417],[91.7,11500],[91.7,11583],[92.2,11667],[92.2,11750],[92.2,11833],[94.1,11917],[94.1,12000],[94.1,12084],[94.1,12167],[94.1,12250],[94.1,12333],[94.1,12417],[94.1,12500],[94.1,12583],[94.1,12667],[94.1,12750],[94.1,12834]]",1,0,353.8872,356.6372,94.0625,1.3521,"[{""rating"":94.0625,""responseTime"":1.352099999904624}]",space,2.2009,,356.6373,Definitely yes,100,368.2042,100,10.2278,"[{""rating"":99.79166666666667,""responseTime"":8.137},{""rating"":100,""responseTime"":8.9112000000477},{""rating"":100,""responseTime"":10.22779999995231}]",space,0,8,8,8,1,audio/Narrative7Situation8.wav,audio/Narrative8Situation8.wav,audio/Narrative5Situation8.wav,audio/Narrative6Situation8.wav,2,3,3,5,,,11.0195,,,,,,,,,,,,,,,,,,,,,,,,,,,,,,,,,,,,
,,,,,,5c40e7d99d27f00001159a65,2024-02-08_15h03.45.222,group3.1-3.2-social-tom,2023.2.2,Win32,59.17159763,65c5074098b851296ff0b7ed,65c5418d2b84754d6359dc0f,,,,,,,,,,,,,,,,,,,,,,,,,,,,,368.2046,1,audio/Narrative8Situation9.wav,371.2208,,371.2208,382.538,"[[100,4000],[100,4085],[99.3,4168],[99,4250],[99,4333],[99,4416],[99,4500],[99,4583],[99,4666],[99,4750],[99,4833],[99,4916],[99,5000],[99,5083],[99,5167],[99,5250],[99,5333],[99,5416],[99,5500],[99,5583],[99,5666],[99,5750],[99,5833],[99,5916],[99,6000],[99,6083],[99,6166],[99,6250],[99,6333],[99,6416],[99,6500],[99,6583],[99,6666],[99,6750],[99,6833],[99,6916],[99,7000],[99,7083],[99,7166],[99,7250],[99,7333],[99,7416],[99,7500],[99,7583],[99,7666],[99,7750],[99,7833],[99,7917],[99,8000],[99,8083],[99,8166],[99,8250],[99,8333],[99,8416],[99,8500],[99,8583],[99,8666],[99,8750],[99,8833],[99,8916],[99,9000],[99,9083],[99,9167],[99,9250],[99,9333],[99,9416],[99,9500],[99,9583],[99,9666],[99,9750],[99,9833],[99,9917],[99,10000],[99,10083],[99,10167],[99,10250],[99,10333],[99,10416],[99,10500],[99,10583],[99,10667],[99,10750],[99,10833],[99,10917],[99,11000],[99,11083],[99,11167],[99,11250]]",1,0,382.5381,385.5548,99.375,1.9613,"[{""rating"":96.66666666666667,""responseTime"":1.3514000000953388},{""rating"":99.375,""responseTime"":1.9612999999523026}]",space,2.4837,,385.5548,Not at all,0,385.5567,,,[],,0,9,9,9,1,audio/Narrative7Situation9.wav,audio/Narrative8Situation9.wav,audio/Narrative5Situation9.wav,audio/Narrative6Situation9.wav,2,3,3,4,,,,,,,,,,,,,,,,,,,,,,,,,,,,,,,,,,,,,,,
,,,,,,5c40e7d99d27f00001159a65,2024-02-08_15h03.45.222,group3.1-3.2-social-tom,2023.2.2,Win32,59.17159763,65c5074098b851296ff0b7ed,65c5418d2b84754d6359dc0f,,,,,,,,,,,,,,,,,,,,,,,,,,,,,385.5569,1,audio/Narrative7Situation1.wav,387.5715,,387.5715,443.44,"[[100,1668],[100,1750],[100,1833],[100,1918],[98.1,2001],[97.5,2085],[93.3,2166],[90.6,2252],[88.1,2335],[87.7,2416],[87.7,2499],[87.7,2583],[87.7,2666],[87.7,2750],[87.7,2833],[87.7,2916],[87.7,3000],[87.7,3083],[87.7,3166],[87.7,3249],[87.7,3335],[87.7,3416],[88.5,3500],[92.3,3583],[92.5,3666],[94,3752],[96.6,3835],[97.9,3918],[97.9,4000],[97.9,4083],[97.9,4166],[97.9,4250],[97.9,4333],[95.9,4416],[94.7,4502],[92.7,4585],[91.5,4668],[91.4,4750],[91.4,4833],[91.4,4916],[91.4,5000],[91.4,5083],[91.4,5166],[91.4,5250],[91.4,5333],[91.4,5416],[91.4,5500],[91.4,5583],[91.4,5666],[91.4,5750],[91.4,5833],[91.1,5916],[91,6000],[91,6083],[91,6166],[91,6250],[91,6333],[91,6416],[91,6502],[91,6583],[91,6666],[91,6750],[91,6833],[91,6916],[91,7000],[91,7085],[91,7166],[91,7250],[91,7333],[91,7416],[91,7500],[91,7583],[91,7666],[91,7750],[91,7833],[91,7916],[91.5,8000],[92.8,8085],[93.8,8168],[94.3,8252],[95,8333],[95.1,8419],[95.3,8500],[95.8,8583],[95.8,8666],[95.8,8751],[95.8,8833],[95.8,8916],[95.8,9000],[95.8,9083],[95.8,9166],[95.8,9250],[95.8,9333],[95.8,9417],[95.8,9500],[95.8,9583],[95.8,9667],[95.8,9750],[95.8,9833],[95.8,9917],[95.8,10000],[95.8,10083],[95.8,10166],[95.8,10250],[95.8,10333],[95.8,10418],[95.8,10502],[95.8,10583],[95.8,10666],[95.8,10750],[95.8,10833],[95.8,10917],[95.8,11000],[95.8,11083],[95.8,11167],[95.8,11250],[95.8,11333],[95.8,11416],[95.8,11500],[95.8,11583],[95.8,11666],[95.8,11750],[95.8,11833],[95.8,11916],[95.8,12000],[95.8,12085],[95.8,12166],[95.8,12250],[95.8,12333],[95.8,12416],[95.8,12500],[95.8,12583],[95.8,12667],[95.8,12750],[95.8,12833],[95.8,12916],[95.8,13000],[95.8,13083],[95.8,13167],[95.8,13250],[95.8,13333],[95.8,13417],[95.8,13500],[95.8,13583],[95.8,13666],[95.8,13750],[95.8,13835],[95.8,13917],[95.8,14000],[95.8,14083],[95.8,14166],[95.8,14250],[95.8,14333],[95.8,14417],[95.8,14500],[95.8,14583],[95.8,14667],[95.8,14750],[95.8,14833],[95.8,14917],[95.8,15000],[95.8,15083],[95.8,15167],[95.8,15250],[95.8,15335],[95.8,15417],[95.8,15500],[95.8,15583],[95.8,15667],[95.8,15750],[95.8,15835],[95.8,15917],[95.8,16000],[95.8,16084],[95.8,16167],[95.8,16250],[95.8,16334],[95.8,16417],[95.8,16500],[95.8,16583],[95.8,16669],[95.8,16750],[95.8,16833],[95.8,16917],[95.8,17000],[95.8,17083],[95.8,17167],[95.8,17250],[95.8,17333],[95.8,17417],[95.8,17500],[95.8,17584],[95.8,17667],[95.8,17750],[95.8,17833],[95.8,17919],[95.8,18000],[95.8,18084],[95.8,18167],[95.8,18250],[95.8,18333],[95.8,18417],[95.8,18500],[95.8,18584],[95.8,18667],[95.8,18750],[95.8,18834],[95.8,18917],[95.8,19000],[95.8,19083],[95.8,19167],[95.9,19250],[95.9,19333],[96.5,19419],[96.8,19500],[96.8,19584],[96.8,19667],[96.8,19750],[96.8,19834],[96.8,19917],[96.8,20000],[96.8,20083],[96.8,20167],[96.8,20250],[96.8,20334],[96.8,20419],[96.8,20500],[96.8,20584],[96.8,20667],[96.8,20750],[96.8,20834],[96.8,20917],[96.8,21000],[96.8,21084],[96.8,21167],[96.8,21250],[96.8,21334],[96.8,21417],[96.8,21500],[96.8,21584],[96.8,21667],[96.8,21750],[96.8,21834],[96.8,21917],[96.8,22000],[96.8,22085],[96.8,22167],[96.8,22250],[96.8,22334],[96.8,22417],[96.8,22500],[96.8,22584],[96.8,22667],[96.8,22750],[96.8,22834],[96.8,22917],[96.8,23000],[96.8,23084],[96.8,23167],[96.8,23250],[96.8,23334],[96.8,23417],[96.8,23500],[96.8,23584],[96.8,23667],[96.8,23750],[96.8,23834],[96.8,23917],[96.8,24000],[96.8,24084],[96.8,24167],[96.8,24252],[96.8,24334],[96.8,24417],[96.8,24500],[96.8,24584],[96.8,24667],[96.8,24751],[96.8,24834],[96.8,24917],[96.8,25001],[96.8,25084],[96.8,25167],[96.8,25250],[96.8,25336],[96.8,25417],[96.8,25500],[96.8,25584],[96.8,25667],[96.8,25751],[96.8,25834],[96.8,25917],[96.8,26000],[96.8,26084],[96.8,26167],[96.8,26251],[96.8,26334],[96.8,26417],[96.8,26500],[96.8,26584],[96.8,26669],[96.8,26751],[96.8,26834],[96.8,26917],[96.8,27000],[96.8,27084],[96.8,27167],[96.8,27251],[96.8,27334],[96.8,27417],[96.8,27502],[96.8,27584],[96.8,27667],[96.8,27750],[96.8,27834],[96.8,27917],[96.8,28001],[96.8,28084],[96.8,28167],[96.8,28251],[96.8,28336],[96.8,28417],[96.8,28501],[96.8,28584],[96.8,28667],[96.8,28751],[96.8,28834],[96.8,28917],[96.8,29001],[96.8,29084],[96.8,29167],[96.8,29251],[96.8,29334],[96.8,29417],[96.8,29501],[96.8,29584],[96.8,29667],[96.8,29751],[96.8,29834],[96.8,29917],[96.8,30000],[96.8,30084],[96.8,30167],[96.8,30251],[96.8,30334],[96.8,30417],[96.8,30501],[96.8,30584],[96.8,30667],[96.8,30751],[96.8,30834],[96.8,30919],[96.8,31001],[96.8,31084],[96.8,31167],[96.8,31251],[96.8,31334],[96.8,31417],[96.8,31501],[96.8,31584],[96.8,31667],[96.8,31751],[96.8,31834],[96.8,31917],[96.8,32001],[96.8,32084],[96.8,32167],[96.8,32251],[96.8,32334],[96.8,32417],[96.8,32501],[96.8,32584],[96.8,32667],[96.8,32751],[96.8,32834],[96.8,32919],[96.8,33001],[96.8,33084],[96.8,33167],[96.8,33251],[96.8,33336],[96.8,33417],[96.8,33501],[96.8,33584],[97.6,33669],[97.6,33751],[97.6,33834],[97.6,33917],[97.6,34001],[97.6,34084],[97.6,34167],[97.6,34251],[97.6,34334],[97.6,34419],[97.6,34502],[97.6,34586],[97.6,34667],[97.6,34751],[97.6,34834],[97.6,34917],[97.6,35001],[97.6,35084],[97.6,35167],[97.6,35252],[97.6,35334],[97.6,35417],[97.6,35502],[97.6,35584],[97.6,35667],[97.6,35751],[97.6,35834],[97.6,35917],[97.6,36001],[97.6,36086],[97.6,36167],[97.6,36251],[97.6,36334],[97.6,36417],[97.6,36501],[97.6,36584],[97.6,36667],[97.6,36751],[97.6,36834],[97.6,36917],[97.6,37002],[97.6,37084],[97.6,37167],[97.6,37251],[97.6,37334],[97.6,37417],[97.6,37501],[97.6,37584],[97.6,37668],[97.6,37753],[97.6,37834],[97.6,37917],[97.6,38001],[97.6,38084],[97.6,38167],[97.6,38251],[97.6,38334],[97.6,38417],[97.6,38501],[97.6,38584],[97.6,38668],[97.6,38753],[97.6,38834],[97.6,38918],[97.6,39001],[97.6,39084],[97.6,39167],[97.6,39251],[97.6,39334],[97.6,39418],[97.6,39501],[97.6,39584],[97.6,39668],[97.6,39751],[97.6,39834],[97.6,39917],[97.6,40001],[97.6,40084],[97.6,40167],[97.6,40251],[97.6,40334],[97.6,40418],[97.6,40501],[97.6,40584],[97.6,40668],[97.6,40751],[97.6,40834],[97.6,40917],[97.6,41001],[97.6,41084],[100,41169],[100,41252],[100,41336],[100,41418],[100,41501],[100,41586],[100,41668],[100,41751],[100,41834],[100,41917],[100,42001],[100,42086],[100,42168],[100,42251],[100,42334],[100,42418],[100,42503],[100,42584],[100,42667],[100,42751],[100,42834],[100,42918],[100,43001],[100,43084],[100,43168],[100,43251],[100,43334],[100,43418],[100,43501],[100,43584],[100,43668],[100,43751],[100,43834],[100,43918],[100,44001],[100,44084],[100,44168],[100,44251],[100,44335],[100,44418],[100,44501],[100,44586],[100,44668],[100,44751],[100,44834],[100,44918],[100,45001],[100,45084],[100,45168],[100,45251],[100,45334],[100,45418],[100,45501],[100,45584],[100,45668],[100,45751],[100,45834],[100,45918],[100,46001],[100,46085],[100,46168],[100,46251],[100,46335],[100,46418],[100,46501],[100,46584],[100,46668],[100,46751],[100,46834],[100,46918],[100,47001],[100,47085],[100,47168],[100,47251],[100,47335],[100,47418],[100,47501],[100,47585],[100,47668],[100,47751],[100,47835],[100,47918],[100,48001],[100,48084],[100,48168],[100,48251],[100,48334],[100,48418],[100,48501],[100,48585],[100,48668],[100,48751],[100,48835],[100,48918],[100,49001],[100,49084],[100,49170],[100,49251],[100,49335],[100,49418],[100,49501],[100,49586],[100,49668],[100,49751],[100,49834],[100,49918],[100,50003],[100,50085],[100,50168],[100,50251],[100,50335],[100,50419],[100,50501],[100,50585],[100,50668],[100,50751],[100,50835],[100,50918],[100,51001],[100,51085],[100,51168],[100,51251],[100,51334],[100,51418],[100,51501],[100,51585],[100,51668],[100,51751],[100,51835],[100,51918],[100,52001],[100,52085],[100,52168],[100,52251],[100,52335],[100,52418],[100,52501],[100,52585],[100,52668],[100,52751],[100,52835],[100,52918],[100,53001],[100,53085],[100,53168],[100,53251],[100,53335],[100,53418],[100,53501],[100,53585],[100,53668],[100,53751],[100,53835],[100,53918],[100,54001],[100,54085],[100,54168],[100,54251],[100,54335],[100,54418],[100,54502],[100,54586],[100,54668],[100,54751],[100,54835],[100,54918],[100,55001],[100,55085],[100,55168],[100,55251],[100,55335],[100,55418],[100,55501],[100,55585],[100,55668],[100,55752],[100,55837]]",1,0,443.4402,446.2068,94.375,1.1041,"[{""rating"":94.375,""responseTime"":1.1040999999046335}]",space,2.2231,,446.2069,Not at all,0,446.2081,,,[],,0,10,10,10,1,audio/Narrative8Situation1.wav,audio/Narrative7Situation1.wav,audio/Narrative6Situation1.wav,audio/Narrative5Situation1.wav,5,2,2,5,,,,,,,,,,,,,,,,,,,,,,,,,,,,,,,,,,,,,,,
,,,,,,5c40e7d99d27f00001159a65,2024-02-08_15h03.45.222,group3.1-3.2-social-tom,2023.2.2,Win32,59.17159763,65c5074098b851296ff0b7ed,65c5418d2b84754d6359dc0f,,,,,,,,,,,,,,,,,,,,,,,,,,,,,446.2082,1,audio/Narrative7Situation2.wav,449.2237,,449.2237,456.7071,"[[94.5,1416],[95,1501],[95,1583],[95,1666],[95.2,1750],[95.2,1833],[96.1,1918],[97.8,2000],[98.2,2083],[98.2,2166],[98.2,2250],[98.2,2333],[98.6,2418],[100,2500],[100,2583],[100,2666],[100,2750],[100,2833],[100,2916],[100,2999],[100,3084],[100,3166],[100,3250],[100,3333],[100,3416],[100,3500],[100,3583],[100,3666],[100,3750],[100,3833],[100,3916],[100,4000],[100,4083],[100,4166],[100,4250],[100,4333],[100,4416],[100,4500],[100,4583],[100,4666],[100,4750],[100,4833],[100,4916],[100,5000],[100,5083],[100,5167],[100,5250],[100,5333],[100,5416],[100,5500],[100,5585],[100,5666],[100,5750],[100,5833],[100,5916],[100,5999],[100,6083],[100,6166],[100,6249],[100,6333],[100,6416],[100,6500],[100,6583],[100,6666],[100,6749],[100,6833],[100,6917],[100,7000],[100,7083],[100,7166],[100,7251],[100,7333],[100,7416]]",1,0,456.7072,458.624,100,1.6493,"[{""rating"":99.375,""responseTime"":1.1392999999523},{""rating"":100,""responseTime"":1.6492999999522908}]",space,1.3748,,458.6241,Partially,50,458.6261,,,[],,0,11,11,11,1,audio/Narrative8Situation2.wav,audio/Narrative7Situation2.wav,audio/Narrative6Situation2.wav,audio/Narrative5Situation2.wav,3,3,3,3,,,,,,,,,,,,,,,,,,,,,,,,,,,,,,,,,,,,,,,
,,,,,,5c40e7d99d27f00001159a65,2024-02-08_15h03.45.222,group3.1-3.2-social-tom,2023.2.2,Win32,59.17159763,65c5074098b851296ff0b7ed,65c5418d2b84754d6359dc0f,,,,,,,,,,,,,,,,,,,,,,,,,,,,,458.6262,1,audio/Narrative7Situation3.wav,466.6408,,466.6408,475.9079,"[[100,416],[95.1,500],[93.9,585],[93.9,666],[93.9,750],[93.9,833],[93.9,916],[93.9,999],[93.9,1083],[93.9,1166],[94.5,1252],[94.6,1335],[95.9,1418],[96.9,1501],[97.2,1585],[98.3,1668],[99.7,1752],[100,1833],[100,1916],[100,2001],[100,2083],[100,2166],[100,2250],[100,2333],[100,2416],[100,2500],[100,2583],[100,2666],[100,2750],[100,2833],[100,2916],[100,3000],[100,3083],[100,3166],[100,3250],[100,3335],[100,3418],[100,3500],[100,3583],[100,3666],[100,3750],[100,3833],[100,3916],[100,4000],[100,4083],[100,4166],[100,4250],[100,4333],[100,4416],[100,4500],[100,4583],[100,4666],[100,4750],[100,4833],[100,4916],[100,5000],[100,5083],[100,5166],[100,5250],[100,5333],[100,5416],[100,5500],[100,5583],[100,5666],[100,5751],[100,5833],[100,5917],[100,6000],[100,6083],[100,6168],[100,6250],[100,6333],[100,6416],[100,6500],[100,6583],[100,6666],[100,6750],[100,6833],[100,6916],[100,7000],[100,7083],[100,7168],[100,7250],[100,7334],[100,7416],[100,7500],[100,7583],[100,7666],[100,7750],[100,7833],[100,7916],[100,8000],[100,8083],[100,8166],[100,8252],[100,8333],[100,8416],[100,8500],[100,8583],[100,8666],[100,8750],[100,8833],[100,8916],[100,9000],[100,9085],[100,9167],[100,9250]]",1,0,475.908,478.0246,98.22916667,1.7417,"[{""rating"":98.22916666666667,""responseTime"":1.7416999998092706}]",space,1.5692,,478.0247,Not at all,0,478.0263,,,[],,0,12,12,12,1,audio/Narrative8Situation3.wav,audio/Narrative7Situation3.wav,audio/Narrative6Situation3.wav,audio/Narrative5Situation3.wav,4,8,5,3,,,,,,,,,,,,,,,,,,,,,,,,,,,,,,,,,,,,,,,
,,,,,,5c40e7d99d27f00001159a65,2024-02-08_15h03.45.222,group3.1-3.2-social-tom,2023.2.2,Win32,59.17159763,65c5074098b851296ff0b7ed,65c5418d2b84754d6359dc0f,,,,,,,,,,,,,,,,,,,,,,,,,,,,,478.0266,1,audio/Narrative7Situation4.wav,481.0415,,481.0415,492.7751,"[[97.6,2249],[97.5,2332],[97.5,2416],[97.5,2500],[96.6,2585],[92.6,2668],[89.8,2751],[89.5,2833],[88.4,2918],[87.8,3001],[87.1,3085],[83.4,3168],[74.7,3252],[63.4,3335],[62.7,3418],[62.7,3499],[62.7,3583],[62.7,3666],[62.7,3749],[62.7,3833],[62.7,3916],[62.7,3999],[62.7,4083],[62.7,4166],[62.7,4249],[62.7,4333],[62.7,4416],[62.7,4500],[62.7,4583],[62.7,4666],[62.7,4750],[62.7,4833],[62.7,4916],[62.7,5000],[62.7,5083],[47.8,5166],[40.7,5252],[40.4,5333],[35.7,5416],[26.6,5502],[26,5583],[24.4,5666],[6.1,5752],[0.3,5835],[0.3,5916]]",1,0,492.7752,494.4584,3.958333333,0.9123,"[{""rating"":3.9583333333333357,""responseTime"":0.9122999999523245}]",space,1.1535,,494.4584,Not at all,0,494.4597,,,[],,0,13,13,13,1,audio/Narrative8Situation4.wav,audio/Narrative7Situation4.wav,audio/Narrative6Situation4.wav,audio/Narrative5Situation4.wav,3,3,2,1,,,,,,,,,,,,,,,,,,,,,,,,,,,,,,,,,,,,,,,
,,,,,,5c40e7d99d27f00001159a65,2024-02-08_15h03.45.222,group3.1-3.2-social-tom,2023.2.2,Win32,59.17159763,65c5074098b851296ff0b7ed,65c5418d2b84754d6359dc0f,,,,,,,,,,,,,,,,,,,,,,,,,,,,,494.4598,1,audio/Narrative7Situation5.wav,499.4755,,499.4756,507.9756,"[[29.5,2749],[52.2,2835],[52.4,2918],[52.5,2999],[52.5,3082],[52.5,3166],[50,3252],[49,3335],[49,3416],[49,3499],[49,3583],[49,3666],[49,3749],[49,3833],[49,3916],[49,3999],[49,4082],[49,4166],[49,4249],[49,4332],[49,4416],[49,4499],[49,4584],[49,4666],[49,4749],[49,4833],[49,4916],[49,4999],[49,5082],[49,5166],[49,5249],[49,5333],[49,5416],[49,5499],[49,5582],[49,5666],[49,5749],[49,5833],[49,5916],[49,6000],[49,6083],[49,6166],[49,6249],[49,6333],[49,6416],[49,6500],[49,6583],[49,6666],[49,6749],[49,6833],[49,6918],[49,6999],[49,7083],[49,7166],[49,7250],[49,7333],[49,7416],[49,7500],[49,7583],[49,7666],[49,7750],[49,7833],[49,7918],[49,7999],[49,8083],[49,8166],[49,8249],[49,8333],[49,8416],[49,8499]]",1,0,507.9756,510.5424,44.375,1.5304,"[{""rating"":44.375,""responseTime"":1.5304000000953693}]",space,2.0445,,510.5425,Not at all,0,510.5437,,,[],,0,14,14,14,1,audio/Narrative8Situation5.wav,audio/Narrative7Situation5.wav,audio/Narrative6Situation5.wav,audio/Narrative5Situation5.wav,2,5,2,5,,,,,,,,,,,,,,,,,,,,,,,,,,,,,,,,,,,,,,,
,,,,,,5c40e7d99d27f00001159a65,2024-02-08_15h03.45.222,group3.1-3.2-social-tom,2023.2.2,Win32,59.17159763,65c5074098b851296ff0b7ed,65c5418d2b84754d6359dc0f,,,,,,,,,,,,,,,,,,,,,,,,,,,,,510.5438,1,audio/Narrative7Situation6.wav,513.5594,,513.5594,523.5427,"[[51.5,1418],[56.8,1501],[57.2,1582],[57.4,1666],[60.8,1749],[66.3,1835],[68.2,1918],[70.7,2001],[77.6,2085],[77.8,2166],[82,2249],[92.9,2333],[93,2416],[95.5,2499],[100,2583],[100,2668],[100,2749],[100,2833],[100,2916],[100,2999],[100,3083],[100,3166],[100,3249],[100,3333],[100,3416],[100,3499],[100,3583],[100,3666],[100,3749],[100,3834],[100,3916],[100,3999],[100,4083],[100,4166],[100,4249],[100,4333],[100,4416],[100,4499],[100,4583],[100,4666],[100,4749],[100,4833],[100,4916],[100,4999],[100,5083],[100,5166],[100,5249],[100,5333],[100,5418],[100,5499],[100,5583],[100,5666],[100,5749],[100,5833],[100,5916],[100,5999],[100,6083],[100,6166],[100,6249],[100,6334],[100,6416],[100,6499],[100,6583],[100,6666],[100,6749],[100,7085],[100,7168],[100,7252],[100,7335],[100,7419],[100,7499],[100,7583],[100,7666],[100,7749],[100,7833],[100,7916],[100,7999],[100,8083],[100,8166],[100,8250],[100,8333],[100,8416],[100,8501],[100,8584],[100,8666],[100,8749],[100,8833],[100,8916],[100,8999],[100,9083],[100,9166],[100,9250],[100,9333],[100,9416],[100,9500],[100,9583],[100,9667],[100,9749],[100,9833],[100,9916]]",1,0,523.5428,527.1095,97.08333333,2.2303,"[{""rating"":97.08333333333333,""responseTime"":2.2303000001907094}]",space,3.0405,,527.1095,Partially,50,527.1113,,,[],,0,15,15,15,1,audio/Narrative8Situation6.wav,audio/Narrative7Situation6.wav,audio/Narrative6Situation6.wav,audio/Narrative5Situation6.wav,2,3,2,3,,,,,,,,,,,,,,,,,,,,,,,,,,,,,,,,,,,,,,,
,,,,,,5c40e7d99d27f00001159a65,2024-02-08_15h03.45.222,group3.1-3.2-social-tom,2023.2.2,Win32,59.17159763,65c5074098b851296ff0b7ed,65c5418d2b84754d6359dc0f,,,,,,,,,,,,,,,,,,,,,,,,,,,,,527.1115,1,audio/Narrative7Situation7.wav,532.1263,,532.1263,549.2938,"[[97.5,1252],[97.6,1333],[97.6,1416],[97.6,1500],[97.6,1583],[97.6,1667],[97.7,1750],[97.7,1833],[97.7,1916],[97.7,2000],[97.7,2083],[97.7,2166],[97.7,2250],[97.7,2333],[97.7,2416],[97.7,2500],[97.7,2583],[97.7,2666],[97.7,2750],[97.7,2835],[97.7,2916],[97.7,3000],[97.7,3083],[97.7,3166],[97.7,3250],[97.7,3333],[97.7,3416],[97.9,3500],[98.4,3583],[98.6,3666],[98.6,3750],[99.3,3835],[99.3,3916],[99.3,4000],[99.3,4083],[99.3,4166],[99.3,4250],[99.3,4333],[99.3,4417],[99.3,4500],[99.3,4583],[100,4668],[100,4750],[100,4833],[100,4918],[100,5000],[100,5083],[100,5166],[100,5251],[100,5333],[100,5416],[100,5500],[100,5583],[100,5667],[100,5751],[100,5833],[100,5916],[100,6000],[100,6083],[100,6168],[100,6250],[100,6333],[100,6416],[100,6500],[100,6583],[100,6666],[100,6750],[100,6833],[100,6916],[100,7000],[100,7083],[100,7166],[100,7250],[100,7333],[100,7417],[100,7500],[100,7583],[100,7667],[100,7750],[100,7833],[100,7916],[100,8000],[100,8083],[100,8166],[100,8250],[100,8333],[100,8416],[100,8500],[100,8583],[100,8667],[100,8750],[100,8833],[100,8917],[100,9000],[100,9083],[100,9167],[100,9250],[100,9333],[100,9417],[100,9500],[100,9583],[100,9667],[100,9750],[100,9833],[100,9917],[100,10000],[100,10083],[100,10167],[100,10250],[100,10333],[100,10417],[100,10500],[100,10583],[100,10666],[100,10750],[100,10833],[100,10917],[100,11000],[100,11083],[100,11166],[100,11250],[100,11333],[100,11417],[100,11500],[100,11583],[100,11666],[100,11750],[100,11833],[100,11917],[100,12001],[100,12083],[100,12167],[100,12250],[100,12333],[100,12417],[100,12500],[100,12583],[100,12667],[100,12750],[100,12835],[100,12917],[100,13000],[100,13083],[100,13167],[100,13250],[100,13333],[100,13417],[100,13500],[100,13583],[100,13669],[100,13750],[100,13833],[100,13917],[100,14000],[100,14083],[100,14167],[100,14250],[100,14333],[100,14417],[100,14500],[100,14583],[100,14667],[100,14750],[100,14833],[100,14917],[100,15000],[100,15083],[100,15167],[100,15250],[100,15333],[100,15417],[100,15500],[100,15583],[100,15667],[100,15750],[100,15833],[100,15917],[100,16000],[100,16083],[100,16168],[100,16250],[100,16334],[100,16417],[100,16500],[100,16584],[100,16667],[100,16750],[100,16833],[100,16917],[100,17000],[100,17084],[100,17167]]",1,0,549.2939,553.4271,99.0625,3.0301,"[{""rating"":99.0625,""responseTime"":3.030099999904678}]",space,3.5973,,553.4272,Not at all,0,553.429,,,[],,0,16,16,16,1,audio/Narrative8Situation7.wav,audio/Narrative7Situation7.wav,audio/Narrative6Situation7.wav,audio/Narrative5Situation7.wav,3,5,5,4,,,,,,,,,,,,,,,,,,,,,,,,,,,,,,,,,,,,,,,
,,,,,,5c40e7d99d27f00001159a65,2024-02-08_15h03.45.222,group3.1-3.2-social-tom,2023.2.2,Win32,59.17159763,65c5074098b851296ff0b7ed,65c5418d2b84754d6359dc0f,,,,,,,,,,,,,,,,,,,,,,,,,,,,,553.4293,1,audio/Narrative7Situation8.wav,555.4438,,555.4439,565.4943,"[[96.5,2335],[96.5,2416],[96.5,2499],[96.5,2585],[97.8,2668],[98.1,2751],[98.1,2833],[98.1,2916],[98.1,3001],[98.1,3083],[98.1,3166],[98.1,3249],[98.1,3333],[98.1,3416],[98.1,3499],[98.3,3583],[100,3668],[100,3751],[100,3833],[100,3916],[100,4000],[100,4083],[100,4166],[100,4251],[100,4333],[100,4416],[100,4500],[100,4583],[100,4666],[100,4749],[100,4833],[100,4916],[100,5000],[100,5083],[100,5166],[100,5250],[100,5333],[100,5416],[100,5500],[100,5583],[100,5666],[100,5750],[100,5833],[100,5916],[100,6000],[100,6083],[100,6166],[100,6250],[100,6333],[100,6416],[100,6500],[100,6583],[100,6666],[100,6750],[100,6833],[100,6916],[100,7000],[100,7083],[100,7166],[100,7250],[100,7333],[100,7418],[100,7500],[100,7583],[100,7666],[100,7750],[100,7833],[100,7916],[100,8000],[100,8083],[100,8166],[100,8250],[100,8333],[100,8417],[100,8500],[100,8583],[100,8666],[100,8750],[100,8833],[100,8916],[100,9000],[100,9083],[100,9166],[100,9250],[100,9333],[100,9417],[100,9500],[100,9583],[100,9666],[100,9751],[100,9833],[100,9917],[100,10000]]",1,0,565.4944,567.9297,99.16666667,1.5193,"[{""rating"":99.16666666666667,""responseTime"":1.5192999999522954}]",space,1.8874,,567.9297,Not at all,0,567.9308,,,[],,0,17,17,17,1,audio/Narrative8Situation8.wav,audio/Narrative7Situation8.wav,audio/Narrative6Situation8.wav,audio/Narrative5Situation8.wav,3,2,5,3,,,,,,,,,,,,,,,,,,,,,,,,,,,,,,,,,,,,,,,
,,,,,,5c40e7d99d27f00001159a65,2024-02-08_15h03.45.222,group3.1-3.2-social-tom,2023.2.2,Win32,59.17159763,65c5074098b851296ff0b7ed,65c5418d2b84754d6359dc0f,,,,,,,,,,,,,,,,,,,,,,,,,,,,,567.931,1,audio/Narrative7Situation9.wav,569.9443,,569.9444,578.578,"[[98.6,916],[98.2,999],[98.2,1083],[98.2,1166],[98.2,1250],[98.2,1334],[98.2,1416],[98.6,1502],[100,1585],[100,1668],[100,1749],[100,1835],[100,1918],[100,2000],[100,2083],[100,2166],[100,2251],[100,2333],[100,2416],[100,2500],[100,2583],[100,2668],[100,2750],[100,2833],[100,2916],[100,3000],[100,3085],[100,3166],[100,3249],[100,3333],[100,3416],[100,3500],[100,3583],[100,3666],[100,3749],[100,3833],[100,3916],[100,4000],[100,4083],[100,4166],[100,4250],[100,4335],[100,4416],[100,4500],[100,4583],[100,4666],[100,4749],[100,4833],[100,4916],[100,5001],[100,5083],[100,5166],[100,5250],[100,5333],[100,5418],[100,5499],[100,5585],[100,5666],[100,5750],[100,5833],[100,5916],[100,6000],[100,6083],[100,6166],[100,6249],[100,6333],[100,6416],[100,6500],[100,6583],[100,6666],[100,6750],[100,6833],[100,6916],[100,7000],[100,7083],[100,7166],[100,7250],[100,7333],[100,7416],[100,7500],[100,7583],[100,7666],[100,7750],[100,7833],[100,7918],[100,8000],[100,8084],[100,8166],[100,8250],[100,8335],[100,8416],[100,8500],[100,8583]]",1,0,578.5781,581.7782,100,2.1425,"[{""rating"":100,""responseTime"":2.142500000000041}]",space,2.6528,,581.7782,Not at all,0,581.7797,,,[],,0,18,18,18,1,audio/Narrative8Situation9.wav,audio/Narrative7Situation9.wav,audio/Narrative6Situation9.wav,audio/Narrative5Situation9.wav,3,2,4,3,,,,,,,,,,,,,,,,,,,,,,,,,,,,,,,,,,,,,,,
,,,,,,5c40e7d99d27f00001159a65,2024-02-08_15h03.45.222,group3.1-3.2-social-tom,2023.2.2,Win32,59.17159763,65c5074098b851296ff0b7ed,65c5418d2b84754d6359dc0f,,,,,,,,,,,,,,,,,,,,,,,,,,,627.5242,627.5244,627.5329,2,audio/Narrative13Situation2.wav,627.533,,627.533,657.2809,"[[999,0],[999,63],[999,146],[999,230],[999,314],[999,396],[999,480],[999,563],[999,646],[100,730],[100,813],[99.8,896],[99.8,980],[99.8,1063],[99.8,1146],[99.8,1231],[99.8,1313],[96.1,1398],[85.9,1482],[75.7,1563],[65.4,1646],[65.4,1730],[65.4,1813],[65.4,1896],[68.2,1981],[74.7,2065],[74.7,2146],[74.7,2230],[74.7,2313],[74.7,2396],[76.6,2482],[78.2,2563],[78.3,2646],[78.3,2730],[78.3,2813],[78.3,2896],[78.3,2979],[78.3,3063],[78.3,3146],[78.3,3229],[78.3,3313],[78.3,3396],[78.3,3479],[78.3,3563],[78.3,3646],[78.3,3730],[78.3,3813],[78.3,3896],[78.3,3980],[78.3,4063],[78.3,4146],[78.3,4230],[78.3,4313],[78.3,4396],[78.3,4480],[78.3,4563],[78.3,4646],[78.3,4730],[78.3,4813],[78.3,4896],[78.3,4980],[78.3,5063],[78.3,5146],[78.3,5230],[78.3,5313],[78.3,5396],[78.3,5480],[78.3,5563],[78.3,5646],[78.3,5730],[78.3,5813],[78.3,5896],[79.2,5982],[79.2,6063],[79.2,6146],[79.2,6230],[79.2,6313],[79.2,6396],[79.2,6480],[79.2,6563],[79.2,6647],[79.2,6730],[79.2,6813],[79.2,6896],[79.2,6980],[79.2,7063],[79.2,7148],[79.2,7230],[79.2,7313],[79.2,7396],[79.2,7480],[79.2,7563],[79.2,7646],[79.2,7730],[79.2,7813],[79.2,7896],[79.4,7980],[84.1,8065],[99.5,8148],[100,8231],[100,8315],[100,8396],[100,8480],[100,8563],[100,8647],[100,8730],[100,8813],[100,8896],[100,8980],[100,9063],[100,9146],[100,9230],[100,9313],[100,9396],[100,9480],[100,9563],[100,9646],[100,9730],[100,9813],[100,9897],[100,9980],[100,10063],[100,10147],[100,10230],[100,10313],[100,10396],[100,10480],[100,10563],[100,10646],[100,10730],[100,10813],[100,10897],[100,10980],[100,11063],[100,11146],[100,11230],[100,11313],[100,11397],[100,11480],[100,11563],[100,11646],[100,11730],[100,11813],[100,11897],[100,11980],[100,12063],[100,12146],[100,12230],[100,12313],[100,12397],[100,12480],[100,12563],[100,12646],[100,12730],[100,12813],[100,12897],[100,12982],[100,13063],[100,13147],[100,13230],[100,13313],[100,13396],[100,13480],[100,13563],[100,13646],[100,13730],[100,13813],[100,13897],[100,13980],[100,14063],[100,14146],[100,14230],[100,14313],[100,14397],[100,14480],[100,14565],[100,14647],[100,14730],[100,14813],[100,14897],[100,14980],[100,15063],[100,15147],[100,15230],[100,15313],[100,15397],[100,15480],[100,15563],[100,15647],[100,15730],[100,15813],[100,15897],[100,15980],[100,16063],[100,16147],[100,16230],[100,16313],[100,16397],[100,16480],[100,16563],[100,16647],[100,16730],[100,16813],[100,16897],[100,16980],[100,17063],[100,17147],[100,17230],[100,17313],[100,17397],[100,17480],[100,17563],[100,17647],[99.6,17730],[97.2,17815],[95.6,17899],[94.9,17980],[92.6,18066],[90.8,18149],[90.7,18230],[90.7,18313],[90.7,18397],[90.7,18480],[90.7,18563],[90.7,18647],[90.7,18730],[90.7,18813],[90.7,18897],[90.7,18980],[90.7,19063],[90.7,19147],[90.7,19230],[90.7,19313],[90.7,19397],[90.7,19480],[90.7,19563],[90.7,19647],[90.7,19730],[90.7,19813],[90.7,19897],[90.7,19980],[90.7,20063],[90.7,20147],[90.7,20230],[90.7,20313],[90.7,20397],[90.7,20480],[90.7,20563],[90.7,20647],[90.7,20730],[90.7,20813],[90.7,20897],[90.7,20980],[90.7,21063],[90.7,21147],[90.7,21230],[90.7,21313],[91.7,21399],[91.8,21480],[91.9,21563],[91.9,21647],[91.9,21730],[91.9,21814],[91.9,21897],[91.9,21980],[91.9,22063],[91.9,22147],[91.9,22230],[91.9,22313],[91.9,22397],[91.9,22480],[91.9,22563],[91.9,22647],[91.9,22730],[91.9,22813],[91.9,22897],[91.9,22980],[91.9,23063],[91.9,23149],[91.9,23230],[91.9,23313],[91.9,23397],[91.9,23480],[91.9,23563],[91.9,23647],[91.9,23730],[91.9,23814],[91.9,23897],[91.9,23980],[91.9,24063],[91.9,24147],[91.9,24230],[91.9,24313],[91.9,24397],[91.9,24480],[91.9,24563],[91.9,24647],[91.9,24730],[91.9,24814],[92.1,24897],[95.4,24980],[95.5,25064],[95.5,25147],[95.5,25230],[95.5,25314],[95.5,25397],[95.5,25480],[95.5,25564],[95.5,25647],[95.5,25730],[95.5,25814],[95.1,25899],[94.5,25982],[94.5,26064],[94.5,26147],[94.5,26230],[94.5,26314],[94.5,26397],[94.5,26480],[94.5,26563],[94.5,26647],[94.5,26730],[94.5,26814],[94.5,26897],[94.5,26980],[94.5,27063],[94.4,27147],[93.4,27231],[93.1,27314],[92.9,27397],[92.7,27481],[91.6,27564],[91.1,27647],[90.3,27732],[90,27814],[89.8,27897],[89.8,27980],[89.8,28064],[89.8,28147],[89.2,28232],[88.9,28314],[88.8,28397],[88.8,28480],[88.8,28563],[88.8,28647],[88.8,28730],[88.8,28814],[88.8,28897],[88.8,28983],[88.8,29064],[88.8,29147],[88.8,29230],[88.8,29314],[88.8,29397],[88.8,29480],[88.8,29564],[88.8,29647],[88.8,29730]]",1,0,657.2811,657.2824,,,[],,,,657.2824,Not at all,0,657.2831,,,[],,0,0,0,0,1,audio/Narrative13Situation2.wav,audio/Narrative13Situation2.wav,audio/Narrative13Situation2.wav,audio/Narrative13Situation2.wav,2,2,2,2,,,,,581.7801,627.5175,,,,,,,,,,,,,,,,,,,,,,,,,,,,,,,,,
,,,,,,5c40e7d99d27f00001159a65,2024-02-08_15h03.45.222,group3.1-3.2-social-tom,2023.2.2,Win32,59.17159763,65c5074098b851296ff0b7ed,65c5418d2b84754d6359dc0f,,,,,,,,,,,,,,,,,,,,,,,,,,,,,657.2833,2,audio/Narrative6Situation1.wav,659.2972,,659.2973,685.8835,"[[999,0],[999,83],[999,166],[999,250],[999,333],[999,416],[999,499],[999,583],[999,666],[999,750],[999,835],[999,916],[999,999],[999,1083],[999,1166],[999,1249],[999,1333],[999,1416],[999,1499],[999,1583],[999,1666],[999,1750],[999,1833],[999,1916],[999,2000],[999,2083],[999,2166],[999,2250],[999,2333],[999,2416],[999,2500],[999,2583],[999,2666],[999,2750],[999,2833],[999,2916],[999,2999],[999,3083],[999,3166],[999,3250],[999,3333],[999,3416],[999,3500],[999,3583],[999,3666],[999,3750],[999,3833],[999,3916],[999,4000],[999,4083],[999,4166],[999,4250],[999,4333],[999,4416],[999,4500],[999,4585],[999,4668],[999,4752],[999,4833],[92.3,4924],[92.9,5000],[92.9,5083],[92.9,5166],[92.9,5250],[92.9,5333],[93.8,5419],[94.3,5502],[95.1,5583],[95.8,5667],[95.9,5750],[95.9,5833],[95.9,5916],[95.9,6000],[95.9,6083],[95.9,6166],[95.9,6250],[95.9,6333],[95.9,6416],[95.9,6500],[95.9,6583],[95.9,6667],[95.9,6750],[95.9,6833],[95.9,6916],[95.9,7000],[95.9,7083],[95.9,7166],[95.9,7250],[95.9,7333],[95.9,7417],[95.9,7500],[95.9,7583],[95.9,7667],[95.9,7750],[95.9,7833],[95.9,7917],[95.9,8000],[95.9,8083],[95.9,8167],[95.9,8250],[95.9,8333],[95.9,8416],[95.9,8500],[95.9,8583],[95.9,8666],[95.9,8750],[95.9,8833],[95.9,8917],[95.9,9000],[95.9,9083],[95.9,9167],[95.9,9250],[100,9335],[100,9417],[100,9500],[100,9585],[100,9667],[100,9750],[100,9833],[100,9917],[100,10000],[100,10083],[100,10169],[100,10250],[100,10333],[100,10417],[100,10500],[100,10583],[100,10667],[100,10750],[100,10833],[100,10917],[100,11000],[100,11083],[100,11167],[100,11250],[100,11333],[100,11418],[100,11500],[100,11583],[100,11667],[100,11750],[100,11833],[100,11917],[100,12000],[100,12084],[100,12167],[100,12250],[100,12333],[100,12417],[100,12500],[100,12583],[100,12666],[100,12750],[100,12833],[100,12917],[100,13000],[100,13084],[100,13167],[100,13250],[100,13333],[100,13417],[100,13500],[100,13583],[100,13667],[100,13750],[100,13833],[100,13917],[100,14000],[100,14083],[100,14167],[100,14250],[100,14333],[100,14417],[100,14500],[100,14584],[100,14667],[100,14750],[100,14833],[100,14917],[100,15000],[100,15083],[100,15167],[100,15250],[100,15336],[100,15417],[100,15500],[100,15583],[100,15667],[100,15750],[100,15833],[100,15917],[100,16000],[100,16084],[100,16167],[100,16250],[100,16333],[100,16417],[100,16500],[100,16584],[100,16667],[100,16750],[100,16833],[100,16917],[100,17000],[100,17084],[100,17167],[100,17250],[100,17333],[100,17417],[100,17500],[100,17583],[100,17667],[100,17750],[100,17833],[100,17917],[100,18000],[100,18084],[100,18167],[100,18250],[100,18334],[100,18417],[100,18500],[100,18583],[100,18667],[100,18750],[100,18834],[100,18917],[100,19000],[100,19084],[100,19167],[100,19250],[100,19333],[100,19417],[100,19500],[100,19583],[100,19667],[100,19750],[100,19834],[100,19917],[100,20000],[100,20084],[100,20167],[100,20250],[100,20334],[100,20417],[100,20500],[100,20583],[100,20667],[100,20750],[100,20834],[100,20917],[100,21000],[100,21083],[100,21167],[100,21250],[100,21334],[100,21417],[100,21500],[100,21583],[100,21667],[100,21750],[100,21834],[100,21917],[100,22000],[100,22084],[100,22167],[100,22250],[100,22334],[100,22417],[100,22500],[100,22584],[100,22667],[100,22750],[100,22834],[100,22917],[100,23000],[100,23084],[100,23167],[100,23250],[100,23334],[100,23417],[100,23500],[100,23584],[100,23667],[100,23751],[100,23834],[100,23917],[100,24000],[100,24084],[100,24167],[100,24250],[100,24334],[100,24417],[100,24500],[100,24584],[100,24667],[100,24750],[100,24834],[100,24917],[100,25000],[100,25084],[100,25169],[100,25250],[100,25334],[100,25417],[100,25500],[100,25584],[100,25667],[100,25750],[100,25834],[100,25917],[100,26001],[100,26084],[100,26167],[100,26250],[100,26334],[100,26419],[100,26503],[100,26586]]",1,0,685.8836,688.065,97.39583333,1.016,"[{""rating"":97.39583333333333,""responseTime"":1.0159999999999627}]",space,1.6337,,688.0651,Not at all,0,688.0662,,,[],,0,1,1,1,1,audio/Narrative7Situation1.wav,audio/Narrative8Situation1.wav,audio/Narrative5Situation1.wav,audio/Narrative6Situation1.wav,2,5,5,2,,,,,,,,,,,,,,,,,,,,,,,,,,,,,,,,,,,,,,,
,,,,,,5c40e7d99d27f00001159a65,2024-02-08_15h03.45.222,group3.1-3.2-social-tom,2023.2.2,Win32,59.17159763,65c5074098b851296ff0b7ed,65c5418d2b84754d6359dc0f,,,,,,,,,,,,,,,,,,,,,,,,,,,,,688.0665,2,audio/Narrative6Situation2.wav,691.0818,,691.0819,719.5828,"[[97.5,1749],[99.1,1833],[99.1,1916],[99.1,1999],[99.1,2083],[99.1,2166],[99.1,2249],[99.1,2333],[99.1,2416],[96.1,2500],[95.8,2583],[95.8,2666],[95.8,2750],[95.8,2833],[95.8,2916],[95.8,3000],[95.8,3083],[95.8,3166],[95.8,3250],[95.8,3333],[95.8,3416],[95.8,3499],[95.8,3583],[95.8,3666],[95.8,3750],[95.8,3833],[95.8,3918],[95.8,4000],[95.8,4083],[95.8,4166],[95.8,4250],[95.8,4333],[95.8,4416],[100,4501],[100,4583],[100,4666],[98.5,4751],[86.6,4833],[86.6,4916],[86.6,5000],[86.6,5083],[88,5168],[92.1,5252],[92.5,5333],[92.5,5416],[92.5,5499],[94.8,5585],[94.9,5666],[94.9,5749],[94.9,5833],[94.9,5916],[94.9,5999],[94.9,6083],[94.9,6168],[99.1,6250],[99.1,6333],[99.1,6416],[99.1,6499],[99.1,6583],[99.1,6666],[99.1,6750],[99.1,6833],[99.1,6916],[99.1,6999],[99.1,7083],[100,7166],[100,7251],[100,7333],[100,7416],[100,7500],[100,7583],[100,7666],[100,7750],[100,7833],[100,7916],[100,8000],[100,8083],[100,8166],[100,8250],[100,8333],[100,8416],[100,8500],[100,8583],[100,8666],[100,8750],[100,8833],[100,8916],[100,9000],[100,9083],[100,9166],[100,9250],[100,9333],[100,9416],[100,9500],[100,9583],[100,9666],[100,9749],[100,9833],[100,9916],[100,10001],[100,10083],[100,10166],[100,10250],[100,10333],[100,10416],[100,10500],[100,10583],[100,10666],[100,10750],[100,10833],[100,10916],[100,11000],[100,11086],[100,11168],[100,11250],[100,11333],[100,11416],[100,11500],[100,11583],[100,11666],[100,11750],[100,11833],[100,11916],[100,12000],[100,12083],[100,12167],[100,12250],[100,12333],[100,12416],[100,12500],[100,12583],[100,12666],[100,12750],[100,12833],[100,12917],[100,13000],[100,13083],[100,13167],[100,13250],[100,13333],[100,13417],[100,13500],[100,13583],[100,13667],[100,13750],[100,13833],[100,13916],[100,14000],[100,14083],[100,14167],[100,14250],[100,14333],[100,14416],[100,14500],[100,14583],[100,14667],[100,14750],[100,14833],[100,14917],[100,15000],[100,15083],[100,15167],[100,15250],[100,15333],[100,15417],[100,15500],[100,15583],[100,15667],[100,15750],[100,15833],[100,15916],[100,16002],[100,16083],[100,16167],[100,16250],[100,16333],[100,16417],[100,16500],[100,16583],[100,16667],[100,16750],[100,16833],[100,16919],[100,17001],[100,17083],[100,17167],[100,17250],[100,17333],[100,17417],[100,17500],[100,17583],[100,17667],[100,17750],[100,17833],[100,17917],[100,18000],[100,18083],[100,18167],[100,18250],[100,18333],[100,18417],[100,18500],[100,18583],[100,18667],[100,18750],[100,18833],[100,18918],[100,19000],[100,19083],[100,19167],[100,19250],[100,19333],[100,19417],[100,19500],[100,19583],[100,19667],[100,19750],[100,19833],[100,19917],[100,20000],[100,20084],[100,20167],[100,20250],[100,20333],[100,20417],[100,20500],[100,20583],[100,20667],[100,20750],[100,20833],[100,20917],[100,21000],[100,21083],[100,21167],[100,21250],[100,21333],[100,21417],[100,21502],[100,21583],[100,21667],[100,21750],[100,21833],[100,21917],[100,22000],[100,22083],[100,22167],[100,22250],[100,22333],[100,22417],[100,22500],[100,22583],[100,22667],[100,22750],[100,22833],[100,22917],[100,23000],[100,23085],[100,23167],[100,23250],[100,23333],[100,23417],[100,23502],[100,23583],[100,23667],[100,23750],[100,23833],[100,23917],[100,24000],[100,24083],[100,24167],[100,24250],[100,24333],[100,24417],[100,24500],[100,24583],[100,24667],[100,24750],[100,24834],[100,24917],[100,25000],[100,25084],[100,25167],[100,25250],[100,25333],[100,25417],[100,25500],[100,25584],[100,25667],[100,25750],[100,25833],[100,25917],[100,26000],[100,26084],[100,26167],[100,26250],[100,26334],[100,26417],[100,26500],[100,26584],[100,26667],[100,26750],[100,26834],[100,26917],[100,27000],[100,27083],[100,27167],[100,27250],[100,27334],[100,27417],[100,27500],[100,27583],[100,27667],[100,27750],[100,27833],[100,27917],[100,28000],[100,28086],[100,28167],[100,28250],[100,28333],[100,28417],[100,28500]]",1,0,719.583,722.6163,100,2.0313,"[{""rating"":100,""responseTime"":2.0312999999523527}]",space,2.4914,,722.6163,Partially,50,722.6182,,,[],,0,2,2,2,1,audio/Narrative7Situation2.wav,audio/Narrative8Situation2.wav,audio/Narrative5Situation2.wav,audio/Narrative6Situation2.wav,3,3,3,3,,,,,,,,,,,,,,,,,,,,,,,,,,,,,,,,,,,,,,,
,,,,,,5c40e7d99d27f00001159a65,2024-02-08_15h03.45.222,group3.1-3.2-social-tom,2023.2.2,Win32,59.17159763,65c5074098b851296ff0b7ed,65c5418d2b84754d6359dc0f,,,,,,,,,,,,,,,,,,,,,,,,,,,,,722.6183,2,audio/Narrative6Situation3.wav,727.6331,,727.6331,740.2502,"[[100,2168],[98.9,2252],[98.9,2333],[98.9,2416],[98.9,2500],[98.9,2583],[98.9,2666],[98.9,2750],[100,2835],[100,2918],[100,3000],[100,3083],[100,3166],[100,3250],[100,3333],[100,3416],[100,3499],[100,3583],[100,3666],[100,3750],[100,3833],[100,3916],[100,3999],[100,4083],[100,4166],[100,4251],[100,4333],[100,4416],[100,4499],[100,4583],[100,4666],[100,4750],[100,4835],[94.7,4918],[90.1,5000],[88.4,5085],[88.4,5166],[88.4,5250],[88.4,5333],[88.4,5416],[88.4,5499],[88.4,5583],[88.4,5667],[88.4,5750],[88.4,5833],[88.4,5916],[88.4,6000],[88.4,6083],[88.4,6166],[88.4,6250],[89.3,6333],[95,6418],[98.1,6500],[100,6585],[100,6668],[100,6750],[100,6834],[100,6916],[100,7000],[100,7083],[100,7166],[100,7250],[100,7333],[100,7416],[100,7499],[100,7583],[100,7666],[100,7750],[100,7833],[100,7916],[100,7999],[100,8083],[100,8166],[100,8250],[100,8333],[100,8416],[100,8500],[100,8583],[100,8666],[100,8750],[100,8833],[100,8916],[100,9000],[100,9083],[100,9166],[100,9250],[100,9333],[100,9416],[100,9500],[100,9583],[100,9666],[100,9750],[100,9833],[100,9916],[100,10000],[100,10083],[100,10166],[100,10250],[100,10333],[100,10417],[100,10500],[100,10583],[100,10666],[100,10750],[100,10833],[100,10918],[100,11000],[100,11083],[100,11166],[100,11250],[100,11335],[100,11416],[100,11500],[100,11583],[100,11666],[100,11750],[100,11833],[100,11917],[100,12000],[100,12083],[100,12166],[100,12250],[100,12333],[100,12417],[100,12500],[100,12583]]",1,0,740.2503,743.0503,92.1875,1.3941,"[{""rating"":92.1875,""responseTime"":1.394099999904597}]",space,2.2592,,743.0503,Not at all,0,743.0519,,,[],,0,3,3,3,1,audio/Narrative7Situation3.wav,audio/Narrative8Situation3.wav,audio/Narrative5Situation3.wav,audio/Narrative6Situation3.wav,8,4,3,5,,,,,,,,,,,,,,,,,,,,,,,,,,,,,,,,,,,,,,,
,,,,,,5c40e7d99d27f00001159a65,2024-02-08_15h03.45.222,group3.1-3.2-social-tom,2023.2.2,Win32,59.17159763,65c5074098b851296ff0b7ed,65c5418d2b84754d6359dc0f,,,,,,,,,,,,,,,,,,,,,,,,,,,,,743.0521,2,audio/Narrative6Situation4.wav,745.067,,745.067,757.6839,"[[999,0],[999,83],[999,166],[999,249],[999,333],[999,416],[999,499],[999,583],[999,666],[999,749],[999,833],[999,916],[999,999],[999,1083],[999,1168],[97,1252],[97.1,1333],[97.1,1416],[97.1,1499],[97.1,1583],[97.1,1666],[96.3,1752],[94.9,1835],[94.3,1918],[93.1,2002],[93.1,2083],[93.1,2166],[93.1,2249],[93.1,2333],[91.3,2416],[86,2501],[80,2585],[65.2,2668],[64.7,2750],[59.6,2833],[55.6,2916],[55.6,3000],[56.1,3083],[56.1,3166],[56.1,3250],[57.9,3335],[63.4,3418],[66.8,3499],[73.4,3585],[73.9,3666],[73.9,3749],[75.8,3835],[75.8,3916],[75.8,3999],[76.1,4083],[77.8,4166],[79.3,4252],[79.6,4335],[79.9,4416],[80.7,4500],[80.7,4583],[80.7,4666],[81.1,4750],[81.7,4833],[81.9,4916],[82,5000],[82,5083],[82,5166],[82,5250],[85.5,5333],[95.2,5418],[96.1,5500],[96.1,5583],[96.1,5666],[96.1,5750],[96.1,5833],[96.1,5916],[97.3,6000],[100,6085],[100,6166],[100,6250],[100,6333],[100,6416],[100,6500],[100,6583],[100,6666],[100,6750],[100,6833],[100,6916],[100,7000],[100,7083],[100,7166],[100,7250],[100,7333],[100,7416],[100,7500],[100,7583],[100,7667],[100,7750],[100,7833],[100,7916],[100,8000],[100,8083],[100,8166],[100,8250],[100,8333],[100,8416],[100,8500],[100,8583],[100,8666],[100,8750],[100,8833],[100,8916],[100,9000],[100,9083],[100,9167],[100,9250],[100,9333],[100,9416],[100,9500],[100,9583],[100,9666],[100,9750],[100,9833],[100,9916],[100,10000],[100,10083],[100,10166],[100,10250],[100,10333],[100,10416],[100,10500],[100,10583],[100,10666],[100,10750],[100,10833],[100,10917],[100,11000],[100,11083],[100,11166],[100,11250],[100,11333],[100,11417],[100,11500],[100,11583],[100,11667],[100,11750],[100,11833],[100,11917],[100,12000],[100,12083],[100,12167],[100,12250],[100,12333],[100,12417],[100,12500],[100,12583]]",1,0,757.684,761.0508,95,2.4252,"[{""rating"":98.02083333333333,""responseTime"":1.7130999999046708},{""rating"":95,""responseTime"":2.4251999998092515}]",space,2.8375,,761.0508,Partially,50,761.0527,,,[],,0,4,4,4,1,audio/Narrative7Situation4.wav,audio/Narrative8Situation4.wav,audio/Narrative5Situation4.wav,audio/Narrative6Situation4.wav,3,3,1,2,,,,,,,,,,,,,,,,,,,,,,,,,,,,,,,,,,,,,,,
,,,,,,5c40e7d99d27f00001159a65,2024-02-08_15h03.45.222,group3.1-3.2-social-tom,2023.2.2,Win32,59.17159763,65c5074098b851296ff0b7ed,65c5418d2b84754d6359dc0f,,,,,,,,,,,,,,,,,,,,,,,,,,,,,761.053,2,audio/Narrative6Situation5.wav,763.0676,,763.0676,771.0344,"[[999,0],[999,83],[999,166],[999,249],[999,333],[999,416],[999,499],[999,583],[999,666],[999,749],[999,833],[999,918],[999,1002],[92.1,1084],[92.9,1166],[94.6,1249],[94.6,1333],[98.6,1418],[99.5,1499],[99.5,1583],[99.8,1668],[99.9,1749],[99.9,1833],[99.9,1916],[99.9,2000],[99.9,2083],[99.9,2168],[99.9,2250],[99.9,2333],[99.9,2416],[99.9,2500],[99.9,2583],[99.9,2666],[99.9,2749],[99.9,2833],[99.9,2916],[99.9,3000],[99.9,3083],[99.9,3166],[99.9,3249],[99.9,3333],[99.9,3416],[99.9,3499],[99.9,3583],[99.9,3666],[99.9,3750],[99.9,3833],[99.9,3916],[99.9,3999],[99.9,4083],[99.9,4166],[99.9,4250],[99.9,4333],[99.9,4416],[99.9,4500],[99.9,4583],[99.9,4666],[99.9,4749],[99.9,4833],[99.9,4917],[99.9,5000],[99.9,5083],[99.9,5166],[99.9,5249],[99.9,5333],[99.9,5416],[99.9,5499],[99.9,5583],[99.9,5666],[99.9,5750],[99.9,5833],[99.9,5916],[99.9,5999],[99.9,6083],[99.9,6166],[99.9,6250],[99.9,6333],[99.9,6416],[99.9,6500],[99.9,6583],[99.9,6666],[99.9,6750],[99.9,6833],[99.9,6916],[99.9,7000],[99.9,7083],[99.9,7168],[99.9,7250],[99.9,7333],[99.9,7416],[99.9,7500],[99.9,7583],[99.9,7666],[99.9,7749],[99.9,7835],[99.9,7916]]",1,0,771.0345,772.9178,99.89583333,0.9214,"[{""rating"":99.89583333333334,""responseTime"":0.9214000000954456}]",space,1.353,,772.9178,Not at all,0,772.9197,,,[],,0,5,5,5,1,audio/Narrative7Situation5.wav,audio/Narrative8Situation5.wav,audio/Narrative5Situation5.wav,audio/Narrative6Situation5.wav,5,2,5,2,,,,,,,,,,,,,,,,,,,,,,,,,,,,,,,,,,,,,,,
,,,,,,5c40e7d99d27f00001159a65,2024-02-08_15h03.45.222,group3.1-3.2-social-tom,2023.2.2,Win32,59.17159763,65c5074098b851296ff0b7ed,65c5418d2b84754d6359dc0f,,,,,,,,,,,,,,,,,,,,,,,,,,,,,772.9199,2,audio/Narrative6Situation6.wav,774.9345,,774.9345,786.0017,"[[99.5,1668],[99.4,1750],[99.4,1833],[99.4,1916],[99.4,2000],[99.4,2083],[99.4,2166],[100,2252],[100,2333],[100,2416],[100,2500],[100,2583],[100,2668],[100,2751],[100,2833],[100,2916],[100,2999],[100,3083],[100,3166],[100,3250],[100,3333],[100,3416],[100,3500],[100,3583],[100,3666],[100,3750],[100,3833],[100,3916],[100,4000],[100,4083],[100,4166],[100,4250],[100,4333],[100,4416],[100,4500],[100,4583],[100,4666],[100,4750],[100,4833],[100,4916],[100,5000],[100,5083],[100,5166],[100,5250],[100,5333],[100,5416],[100,5500],[100,5583],[100,5666],[100,5750],[100,5833],[100,5916],[100,6000],[100,6083],[100,6166],[100,6250],[100,6333],[100,6417],[100,6500],[100,6583],[100,6666],[100,6750],[100,6833],[100,6917],[100,7000],[100,7083],[100,7166],[100,7250],[100,7333],[100,7416],[100,7500],[100,7583],[100,7666],[100,7750],[100,7833],[100,7916],[100,8000],[100,8083],[100,8167],[100,8250],[100,8333],[100,8416],[100,8500],[100,8583],[100,8666],[100,8750],[100,8833],[100,8916],[100,9000],[100,9083],[100,9166],[100,9250],[100,9333],[100,9417],[100,9500],[100,9583],[100,9667],[100,9750],[100,9833],[100,9916],[100,10000],[100,10083],[100,10167],[100,10250],[100,10333],[100,10416],[100,10500],[100,10583],[100,10666],[100,10750],[100,10833],[100,10917],[100,11002]]",1,0,786.0018,788.4685,100,1.6849,"[{""rating"":100,""responseTime"":1.6848999998569525}]",space,1.9178,,788.4686,Not at all,0,788.4698,,,[],,0,6,6,6,1,audio/Narrative7Situation6.wav,audio/Narrative8Situation6.wav,audio/Narrative5Situation6.wav,audio/Narrative6Situation6.wav,3,2,3,2,,,,,,,,,,,,,,,,,,,,,,,,,,,,,,,,,,,,,,,
,,,,,,5c40e7d99d27f00001159a65,2024-02-08_15h03.45.222,group3.1-3.2-social-tom,2023.2.2,Win32,59.17159763,65c5074098b851296ff0b7ed,65c5418d2b84754d6359dc0f,,,,,,,,,,,,,,,,,,,,,,,,,,,,,788.47,2,audio/Narrative6Situation7.wav,793.4853,,793.4854,818.3528,"[[100,7001],[98.5,7085],[98.1,7168],[98.1,7250],[98.1,7333],[98.1,7416],[98.1,7499],[98.1,7583],[98.1,7666],[98.1,7750],[98.1,7833],[98.1,7916],[98.1,8000],[98.1,8083],[98.1,8166],[98.1,8250],[98.1,8333],[98.1,8416],[98.1,8499],[98.1,8583],[98.1,8666],[98.1,8750],[98.1,8833],[98.1,8916],[98.1,9000],[98.1,9083],[98.1,9166],[98.1,9250],[98.1,9333],[98.1,9416],[98.1,9499],[98.1,9583],[98.1,9666],[98.1,9750],[98.1,9833],[98.1,9916],[98.1,10000],[98.1,10083],[98.1,10166],[98.1,10250],[98.1,10333],[98.1,10416],[98.1,10500],[98.1,10583],[98.1,10666],[98.1,10750],[98.1,10833],[98.1,10916],[98.1,11000],[98.1,11083],[98.1,11166],[98.1,11250],[98.1,11333],[98.1,11417],[98.1,11500],[98.1,11583],[98.1,11666],[98.1,11750],[98.1,11833],[98.1,11918],[98.1,12000],[98.1,12083],[98.1,12166],[98.1,12250],[98.1,12333],[98.1,12416],[98.1,12500],[98.1,12583],[98.1,12666],[98.1,12750],[98.1,12833],[98.1,12916],[98.1,13000],[100,13085],[100,13167],[100,13252],[100,13333],[100,13417],[100,13500],[100,13583],[100,13666],[100,13750],[100,13833],[100,13917],[100,14000],[100,14083],[100,14167],[100,14250],[100,14333],[100,14416],[100,14500],[100,14583],[100,14667],[100,14750],[100,14833],[100,14917],[100,15000],[100,15083],[100,15167],[100,15250],[100,15333],[100,15416],[100,15500],[100,15583],[100,15666],[100,15750],[100,15833],[100,15917],[100,16000],[100,16085],[100,16167],[100,16250],[100,16333],[100,16417],[100,16500],[100,16583],[100,16667],[100,16750],[100,16833],[100,16917],[100,17000],[100,17083],[100,17167],[100,17250],[100,17333],[100,17417],[100,17500],[100,17583],[100,17667],[100,17750],[100,17833],[100,17917],[100,18000],[100,18083],[100,18167],[100,18250],[100,18333],[100,18416],[100,18500],[100,18583],[100,18667],[100,18750],[100,18833],[100,18917],[100,19000],[100,19083],[100,19167],[100,19250],[100,19333],[100,19417],[100,19500],[100,19583],[100,19667],[100,19750],[100,19833],[100,19917],[100,20000],[100,20083],[100,20167],[100,20250],[100,20333],[100,20417],[100,20500],[100,20583],[100,20667],[100,20750],[100,20833],[100,20917],[100,21000],[100,21083],[100,21167],[100,21250],[100,21333],[100,21417],[100,21500],[100,21583],[100,21667],[100,21750],[100,21833],[100,21917],[100,22000],[100,22083],[100,22167],[100,22250],[100,22333],[100,22417],[100,22500],[100,22583],[100,22667],[100,22750],[100,22833],[100,22917],[100,23000],[100,23083],[100,23167],[100,23250],[100,23333],[100,23417],[100,23500],[100,23583],[100,23667],[100,23750],[100,23833],[100,23917],[100,24000],[100,24083],[100,24167],[100,24250],[100,24333],[100,24417],[100,24500],[100,24583],[100,24667],[100,24750],[100,24833]]",1,0,818.3528,822.4361,97.70833333,3.2202,"[{""rating"":97.70833333333333,""responseTime"":3.220200000047612}]",space,3.5472,,822.4362,Definitely yes,100,822.4379,,,[],,0,7,7,7,1,audio/Narrative7Situation7.wav,audio/Narrative8Situation7.wav,audio/Narrative5Situation7.wav,audio/Narrative6Situation7.wav,5,3,4,5,,,,,,,,,,,,,,,,,,,,,,,,,,,,,,,,,,,,,,,
,,,,,,5c40e7d99d27f00001159a65,2024-02-08_15h03.45.222,group3.1-3.2-social-tom,2023.2.2,Win32,59.17159763,65c5074098b851296ff0b7ed,65c5418d2b84754d6359dc0f,,,,,,,,,,,,,,,,,,,,,,,,,,,,,822.4382,2,audio/Narrative6Situation8.wav,827.453,,827.4531,834.32,"[[97.3,3668],[97.2,3749],[97.1,3833],[97.1,3916],[97.1,4000],[97.1,4083],[96.5,4168],[93.8,4251],[74.6,4335],[64.3,4416],[52.4,4502],[45.7,4585],[30.7,4668],[30.7,4750],[30.2,4833],[25.5,4918],[25.2,5000],[22.4,5083],[18.6,5168],[17,5250],[12,5333],[12,5416],[12,5500],[11.3,5583],[7.1,5669],[5.3,5750],[3,5835],[3,5916],[3,6000],[3,6083],[3,6166],[3,6250],[3,6333],[3,6416],[3.6,6501],[4.3,6583],[4.3,6666],[4.3,6750],[4.3,6833]]",1,0,834.3201,836.9701,1.041666667,1.5786,"[{""rating"":1.0416666666666685,""responseTime"":1.5786000001430693}]",space,2.1175,,836.9701,Partially,50,836.9718,,,[],,0,8,8,8,1,audio/Narrative7Situation8.wav,audio/Narrative8Situation8.wav,audio/Narrative5Situation8.wav,audio/Narrative6Situation8.wav,2,3,3,5,,,,,,,,,,,,,,,,,,,,,,,,,,,,,,,,,,,,,,,
,,,,,,5c40e7d99d27f00001159a65,2024-02-08_15h03.45.222,group3.1-3.2-social-tom,2023.2.2,Win32,59.17159763,65c5074098b851296ff0b7ed,65c5418d2b84754d6359dc0f,,,,,,,,,,,,,,,,,,,,,,,,,,,,,836.972,2,audio/Narrative6Situation9.wav,840.9867,,840.9867,850.9206,"[[999,5],[24.1,85],[26.8,166],[26.8,250],[26.8,333],[26.8,416],[26.8,500],[26.8,583],[26.8,666],[26.8,750],[26.8,833],[26.8,916],[26.8,1000],[26.8,1083],[26.8,1166],[26.8,1250],[26.8,1333],[26.8,1416],[26.8,1500],[26.8,1583],[24,1667],[16.9,1750],[15.2,1835],[13.3,1918],[12.2,2002],[9.2,2085],[7.1,2166],[7.1,2250],[7.1,2333],[7.1,2416],[7.1,2500],[7.1,2583],[7.1,2666],[7.1,2750],[7.1,2833],[6.6,2918],[5.8,3002],[5.2,3083],[4.8,3168],[4.8,3250],[4.8,3333],[3.8,3418],[3.8,3500],[3.6,3583],[2.8,3666],[1.3,3750],[1.3,3833],[1.3,3916],[1.3,4000],[1.3,4083],[1.3,4166],[1.3,4250],[1.3,4333],[1.3,4416],[1.3,4500],[1,4583],[0.5,4669]]",1,0,850.9206,853.5706,0,1.774,"[{""rating"":0,""responseTime"":1.774000000000001}]",space,2.1217,,853.5706,Not at all,0,853.5724,,,[],,0,9,9,9,1,audio/Narrative7Situation9.wav,audio/Narrative8Situation9.wav,audio/Narrative5Situation9.wav,audio/Narrative6Situation9.wav,2,3,3,4,,,,,,,,,,,,,,,,,,,,,,,,,,,,,,,,,,,,,,,
,,,,,,5c40e7d99d27f00001159a65,2024-02-08_15h03.45.222,group3.1-3.2-social-tom,2023.2.2,Win32,59.17159763,65c5074098b851296ff0b7ed,65c5418d2b84754d6359dc0f,,,,,,,,,,,,,,,,,,,,,,,,,,,,,853.5725,2,audio/Narrative5Situation1.wav,858.5874,,858.5874,871.8882,"[[2.6,2083],[10.1,2168],[19.2,2252],[19.2,2333],[19.2,2416],[19.2,2499],[19.2,2583],[19.2,2666],[19.2,2750],[19.2,2833],[19.2,2916],[19.2,2999],[19.2,3083],[19.2,3166],[19.2,3250],[19.2,3333],[19.2,3416],[19.2,3500],[19.2,3583],[19.2,3666],[19.2,3750],[19.2,3833],[19.2,3916],[19.2,3999],[19.2,4083],[19.2,4166],[19.9,4252],[20.6,4335],[24.7,4418],[27.3,4502],[28.6,4589],[38.9,4668],[40,4750],[40,4833],[40,4916],[40,5000],[40,5083],[40,5166],[40,5250],[40,5333],[40,5416],[40,5502],[40,5583],[40,5666],[40,5750],[40,5833],[39,5918],[34.4,6002],[30.1,6085],[27,6168],[23.4,6250],[16.5,6333],[12.3,6416],[12.2,6500],[12.2,6583],[12.2,6666],[12.2,6750],[12.1,6833],[10.8,6919],[8.5,7002],[6.6,7085],[6.5,7166],[6.4,7250],[4.7,7335],[4.7,7417],[4.4,7500],[4.4,7583],[4.4,7666],[4.4,7750],[4.4,7833],[4.4,7916],[4.4,8000],[4.4,8083],[4.4,8166],[4.4,8250],[4.4,8333],[4.4,8416],[4.4,8500],[4.4,8583],[5.1,8668],[5.2,8750],[5.2,8833],[5.5,8916],[7.3,9002],[10.2,9085],[17.8,9168],[37.7,9252],[37.7,9333],[37.7,9417],[42.5,9502],[55.8,9585],[57.3,9668],[60.3,9752],[72.3,9834],[76.1,9917],[76.3,10000],[76.3,10083],[76.5,10166],[79.4,10252],[89.4,10335],[89.4,10417],[89.4,10500],[89.4,10583],[90.1,10667],[90.3,10750],[90.3,10833],[90.3,10917],[90.3,11000],[90.3,11083],[90.3,11167],[90.3,11250],[90.3,11333],[90.3,11417],[90.3,11500],[90.3,11583],[90.3,11667],[90.3,11750],[90.3,11833],[90.3,11917],[90.3,12000],[90.3,12083],[90.3,12167],[90.3,12250],[90.3,12333],[90.3,12417],[90.3,12500],[90.3,12583],[90.3,12667],[90.3,12750],[90.3,12833],[90.3,12917],[90.3,13000],[90.3,13083],[90.3,13167],[90.3,13250]]",1,0,871.8883,874.0213,32.60416667,1.1631,"[{""rating"":32.604166666666664,""responseTime"":1.1631000001430039}]",space,1.604,,874.0214,Partially,50,874.0231,,,[],,0,10,10,10,1,audio/Narrative8Situation1.wav,audio/Narrative7Situation1.wav,audio/Narrative6Situation1.wav,audio/Narrative5Situation1.wav,5,2,2,5,,,,,,,,,,,,,,,,,,,,,,,,,,,,,,,,,,,,,,,
,,,,,,5c40e7d99d27f00001159a65,2024-02-08_15h03.45.222,group3.1-3.2-social-tom,2023.2.2,Win32,59.17159763,65c5074098b851296ff0b7ed,65c5418d2b84754d6359dc0f,,,,,,,,,,,,,,,,,,,,,,,,,,,,,874.0233,2,audio/Narrative5Situation2.wav,877.0381,,877.0381,906.5057,"[[32.7,1166],[32.7,1249],[32.7,1333],[32.7,1416],[32.7,1499],[32.7,1583],[32.7,1666],[32.7,1749],[32.7,1833],[32.7,1916],[32.7,1999],[32.7,2083],[32.7,2166],[32.7,2250],[32.7,2333],[32.7,2416],[32.7,2499],[32.7,2583],[32.7,2666],[32.7,2749],[32.7,2833],[32.7,2916],[32.7,3000],[32.7,3083],[32.7,3166],[31.7,3252],[24.8,3335],[24.3,3416],[17.5,3501],[13.2,3585],[5.3,3668],[5.1,3749],[5.1,3833],[5.1,3916],[5.1,3999],[5.1,4083],[5.1,4166],[5.1,4250],[5.1,4333],[5.1,4416],[5.1,4500],[5.1,4583],[4.5,4666],[3.6,4752],[3.6,4833],[3.6,4916],[3.6,4999],[3.6,5083],[3.6,5166],[3.6,5250],[3.6,5333],[3.6,5416],[3.6,5499],[3.6,5583],[3.6,5666],[4.3,5751],[39.7,5833],[51.1,5918],[53.9,6001],[53.9,6083],[54,6167],[63,6252],[63.2,6333],[63.2,6416],[63.2,6499],[63.2,6583],[63.2,6666],[63.2,6750],[63.2,6833],[63.2,6916],[63.2,7000],[63.2,7083],[63.2,7166],[64.4,7252],[65.9,7335],[69.2,7418],[69.2,7500],[69.2,7583],[69.2,7666],[69.2,7750],[69.2,7833],[69.2,7916],[69.2,8000],[69.2,8083],[69.2,8166],[69.2,8250],[69.2,8333],[69.2,8416],[69.2,8500],[69.2,8583],[69.2,8666],[74.6,8751],[76.1,8835],[79.2,8916],[82,9002],[83.2,9083],[84.6,9167],[84.6,9250],[84.6,9333],[84.6,9416],[84.6,9500],[84.6,9583],[84.6,9666],[84.6,9750],[84.6,9833],[84.6,9917],[84.6,10000],[84.6,10083],[84.6,10166],[84.6,10250],[84.6,10333],[84.6,10416],[84.6,10500],[84.6,10583],[84.6,10666],[84.6,10750],[84.6,10833],[84.6,10916],[84.6,11000],[84.6,11083],[84.6,11166],[84.6,11250],[84.6,11333],[84.6,11416],[84.6,11500],[84.6,11583],[84.6,11666],[84.6,11750],[84.6,11833],[84.6,11917],[84.6,12000],[84.6,12083],[84.6,12166],[84.6,12250],[84.6,12333],[84.6,12417],[84.6,12500],[84.6,12583],[84.6,12666],[84.6,12750],[84.6,12833],[84.6,12916],[84.6,13000],[84.6,13083],[84.6,13167],[84.6,13250],[84.6,13333],[84.6,13416],[84.6,13500],[84.6,13583],[84.6,13666],[84.6,13750],[84.6,13833],[85.9,13917],[86.3,14000],[87.9,14083],[89.2,14169],[90,14252],[90.4,14333],[90.4,14417],[90.4,14500],[90.4,14583],[90.4,14667],[90.4,14750],[90.4,14833],[90.4,14917],[90.4,15000],[90.4,15083],[90.4,15167],[90.4,15250],[90.4,15333],[90.4,15417],[90.4,15500],[90.4,15583],[90.4,15667],[90.4,15750],[90.4,15833],[90.4,15916],[90.4,16000],[90.4,16083],[90.4,16167],[90.4,16250],[90.4,16333],[90.4,16416],[90.4,16500],[90.4,16583],[90.4,16667],[90.4,16750],[90.4,16833],[90.4,16917],[90.4,17000],[90.4,17083],[90.4,17166],[90.4,17250],[90.4,17333],[90.4,17416],[90.4,17500],[90.4,17583],[90.4,17666],[90.4,17750],[90.4,17833],[90.4,17917],[90.4,18000],[90.4,18083],[90.4,18167],[90.4,18250],[90.4,18333],[90.4,18417],[90.4,18500],[90.4,18583],[90.4,18667],[90.4,18750],[90.4,18833],[90.4,18917],[90.4,19000],[90.4,19083],[90.4,19167],[90.4,19250],[90.4,19333],[90.4,19417],[90.4,19500],[90.4,19583],[90.4,19667],[90.4,19750],[90.4,19833],[90.4,19917],[90.4,20000],[90.4,20084],[90.4,20167],[90.4,20250],[90.4,20333],[90.4,20417],[90.4,20500],[90.4,20583],[90.4,20667],[90.4,20750],[90.4,20833],[90.4,20917],[90.4,21000],[90.4,21083],[90.4,21167],[90.4,21250],[90.4,21333],[90.4,21417],[90.4,21500],[90.4,21583],[90.4,21667],[90.4,21750],[90.4,21833],[90.4,21917],[90.4,22000],[90.4,22083],[90.4,22167],[90.4,22250],[90.4,22333],[90.4,22417],[90.4,22500],[90.4,22583],[90.4,22667],[90.4,22750],[90.4,22833],[90.4,22917],[90.4,23000],[90.4,23083],[90.4,23167],[90.4,23250],[90.4,23334],[90.4,23417],[90.4,23500],[90.4,23583],[90.4,23667],[90.4,23750],[90.4,23834],[90.4,23917],[90.4,24000],[90.4,24083],[90.4,24167],[90.4,24250],[90.4,24333],[90.4,24417],[90.4,24500],[90.4,24584],[90.4,24667],[90.4,24750],[90.4,24833],[90.4,24917],[90.4,25000],[90.4,25084],[90.4,25167],[90.4,25250],[90.4,25334],[90.4,25417],[90.4,25500],[90.4,25584],[90.4,25667],[90.4,25750],[90.4,25834],[90.8,25917],[93,26000],[97,26084],[97,26167],[97,26250],[96.6,26334],[95.9,26417],[95.9,26500],[95.9,26584],[95.9,26667],[95.9,26750],[95.9,26835],[95.9,26917],[95.9,27000],[95.9,27083],[95.9,27167],[95.9,27250],[95.9,27334],[95.9,27417],[95.9,27500],[95.9,27583],[95.9,27667],[95.9,27750],[95.9,27834],[95.9,27917],[95.9,28000],[95.9,28083],[95.9,28167],[95.9,28250],[95.9,28334],[95.9,28417],[95.9,28500],[95.9,28584],[95.9,28667],[95.9,28750],[95.9,28834],[95.9,28917],[95.9,29000],[95.9,29084],[95.9,29167],[95.9,29250],[95.9,29334],[95.9,29417]]",1,0,906.5058,909.9058,93.33333333,2.2703,"[{""rating"":93.33333333333333,""responseTime"":2.270300000190673}]",space,2.8582,,909.9059,Definitely yes,100,909.9079,,,[],,0,11,11,11,1,audio/Narrative8Situation2.wav,audio/Narrative7Situation2.wav,audio/Narrative6Situation2.wav,audio/Narrative5Situation2.wav,3,3,3,3,,,,,,,,,,,,,,,,,,,,,,,,,,,,,,,,,,,,,,,
,,,,,,5c40e7d99d27f00001159a65,2024-02-08_15h03.45.222,group3.1-3.2-social-tom,2023.2.2,Win32,59.17159763,65c5074098b851296ff0b7ed,65c5418d2b84754d6359dc0f,,,,,,,,,,,,,,,,,,,,,,,,,,,,,909.908,2,audio/Narrative5Situation3.wav,912.9225,,912.9225,926.8232,"[[95.3,3002],[95.3,3083],[95.3,3166],[95.3,3250],[96.1,3333],[98,3419],[98.4,3502],[98.6,3583],[99.4,3667],[99.6,3750],[99.6,3833],[99.6,3916],[99.9,4002],[100,4083],[100,4166],[100,4251],[100,4333],[100,4417],[100,4500],[100,4583],[100,4666],[100,4750],[100,4833],[100,4917],[100,5000],[100,5083],[100,5166],[100,5250],[100,5333],[100,5416],[100,5500],[100,5583],[100,5666],[100,5750],[100,5833],[100,5916],[100,6000],[100,6083],[100,6166],[100,6250],[100,6333],[100,6416],[100,6500],[100,6583],[100,6666],[100,6750],[100,6833],[100,6916],[100,7000],[100,7083],[100,7166],[100,7250],[100,7333],[100,7417],[100,7500],[100,7583],[100,7666],[100,7750],[100,7833],[100,7917],[100,8000],[100,8083],[100,8166],[100,8250],[100,8333],[100,8417],[100,8500],[100,8583],[100,8666],[100,8750],[100,8833],[100,8917],[100,9000],[100,9083],[100,9166],[100,9250],[100,9333],[100,9417],[100,9500],[100,9583],[100,9666],[100,9750],[100,9833],[100,9917],[100,10000],[100,10083],[100,10167],[100,10250],[100,10333],[100,10417],[100,10500],[100,10583],[100,10667],[100,10750],[100,10833],[100,10917],[100,11000],[100,11083],[100,11167],[100,11250],[100,11333],[100,11416],[100,11500],[100,11583],[100,11667],[100,11750],[100,11833],[100,11917],[100,12000],[100,12083],[100,12167],[100,12250],[100,12333],[100,12417],[100,12500],[100,12583],[100,12667],[100,12750],[100,12833],[100,12917],[100,13000],[100,13083],[100,13167],[100,13250],[100,13333],[100,13417],[100,13500],[100,13583],[100,13667],[100,13750],[100,13834]]",1,0,926.8233,930.1586,100,2.4963,"[{""rating"":99.27083333333333,""responseTime"":2.016900000095461},{""rating"":100,""responseTime"":2.4962999999523845}]",space,2.7845,,930.1587,Definitely yes,100,930.1597,,,[],,0,12,12,12,1,audio/Narrative8Situation3.wav,audio/Narrative7Situation3.wav,audio/Narrative6Situation3.wav,audio/Narrative5Situation3.wav,4,8,5,3,,,,,,,,,,,,,,,,,,,,,,,,,,,,,,,,,,,,,,,
,,,,,,5c40e7d99d27f00001159a65,2024-02-08_15h03.45.222,group3.1-3.2-social-tom,2023.2.2,Win32,59.17159763,65c5074098b851296ff0b7ed,65c5418d2b84754d6359dc0f,,,,,,,,,,,,,,,,,,,,,,,,,,,,,930.1599,2,audio/Narrative5Situation4.wav,931.1732,,931.1733,951.5739,"[[100,1916],[99.6,2000],[99.3,2083],[99.3,2166],[99.3,2250],[98.9,2334],[97.2,2416],[96.8,2500],[96.6,2585],[95.5,2666],[94.8,2751],[94.7,2835],[94.7,2916],[94.7,3000],[94.7,3083],[94.7,3166],[94.7,3249],[94.7,3333],[94.7,3416],[94.7,3499],[94.7,3583],[94.7,3666],[94.8,3750],[96.3,3835],[97,3916],[97.5,4001],[98.1,4085],[99.7,4166],[99.8,4250],[99.8,4333],[99.8,4416],[100,4501],[100,4583],[100,4666],[100,4750],[100,4833],[100,4916],[100,5000],[100,5083],[100,5166],[100,5250],[100,5333],[100,5416],[100,5500],[100,5583],[100,5666],[100,5750],[100,5833],[100,5916],[100,6000],[100,6083],[100,6166],[100,6250],[100,6333],[100,6416],[100,6500],[100,6583],[100,6666],[100,6750],[100,6833],[100,6916],[100,7000],[100,7083],[100,7166],[100,7250],[100,7333],[100,7416],[100,7500],[100,7583],[100,7666],[100,7752],[100,7833],[100,7916],[100,8000],[100,8083],[100,8166],[100,8250],[99.6,8335],[87.3,8418],[72,8501],[66,8584],[57.4,8669],[57.1,8750],[62.9,8835],[82.2,8916],[88.1,9000],[92.4,9085],[100,9166],[100,9250],[100,9333],[100,9416],[100,9500],[100,9583],[100,9666],[100,9750],[100,9833],[100,9916],[100,10000],[100,10083],[100,10166],[100,10250],[100,10333],[100,10416],[100,10500],[100,10583],[100,10667],[100,10750],[100,10833],[100,10916],[100,11000],[100,11083],[100,11166],[100,11250],[100,11333],[100,11416],[100,11500],[100,11583],[100,11666],[100,11750],[100,11833],[100,11916],[100,12000],[100,12083],[100,12166],[100,12250],[100,12333],[100,12416],[100,12500],[100,12583],[100,12666],[100,12750],[100,12833],[100,12916],[100,13000],[100,13083],[100,13166],[100,13250],[100,13333],[100,13416],[100,13500],[100,13583],[100,13666],[100,13750],[100,13833],[100,13916],[100,14000],[100,14083],[100,14167],[100,14250],[100,14333],[100,14416],[100,14500],[100,14583],[100,14666],[100,14750],[100,14833],[100,14917],[100,15000],[100,15083],[100,15166],[100,15250],[100,15333],[100,15417],[100,15500],[100,15583],[100,15666],[100,15750],[100,15833],[100,15916],[100,16000],[100,16083],[100,16167],[100,16250],[100,16333],[100,16417],[100,16500],[100,16583],[100,16666],[100,16750],[100,16833],[100,16917],[100,17001],[100,17083],[100,17166],[100,17251],[100,17333],[100,17417],[100,17500],[100,17583],[100,17666],[100,17750],[100,17833],[100,17917],[100,18000],[100,18083],[100,18166],[100,18250],[100,18333],[100,18417],[100,18500],[100,18583],[100,18666],[100,18750],[100,18833],[100,18917],[100,19000],[100,19083],[100,19166],[100,19250],[100,19333],[100,19416],[100,19500],[100,19583],[100,19667],[100,19750],[100,19833],[100,19917],[100,20000],[100,20083],[100,20167],[100,20250],[100,20333]]",1,0,951.574,956.2741,93.54166667,2.9959,"[{""rating"":93.54166666666667,""responseTime"":2.9959000000953893}]",space,4.1586,,956.2742,Partially,50,956.2759,,,[],,0,13,13,13,1,audio/Narrative8Situation4.wav,audio/Narrative7Situation4.wav,audio/Narrative6Situation4.wav,audio/Narrative5Situation4.wav,3,3,2,1,,,,,,,,,,,,,,,,,,,,,,,,,,,,,,,,,,,,,,,
,,,,,,5c40e7d99d27f00001159a65,2024-02-08_15h03.45.222,group3.1-3.2-social-tom,2023.2.2,Win32,59.17159763,65c5074098b851296ff0b7ed,65c5418d2b84754d6359dc0f,,,,,,,,,,,,,,,,,,,,,,,,,,,,,956.2761,2,audio/Narrative5Situation5.wav,961.291,,961.291,976.7249,"[[95.6,1335],[96,1416],[96,1500],[96,1583],[94.5,1668],[90.3,1750],[88.8,1834],[87.6,1919],[81.9,2001],[73.9,2085],[73.6,2166],[73.6,2249],[73.6,2333],[73.6,2416],[73.6,2499],[73.6,2583],[73.6,2666],[73.6,2749],[73.6,2833],[73.6,2916],[73.6,2999],[73.6,3083],[73.6,3166],[73.8,3249],[75.2,3333],[78,3416],[78,3500],[79.6,3585],[83.1,3668],[85.7,3751],[86.7,3833],[87.2,3918],[88.9,4000],[89.5,4083],[89.5,4166],[89.5,4249],[89.5,4333],[89.5,4416],[89.5,4500],[89.5,4583],[89.5,4666],[89.5,4749],[89.5,4833],[89.5,4916],[89.5,5000],[89.5,5083],[89.5,5166],[89.5,5249],[89.5,5333],[89.5,5416],[89.5,5500],[89.5,5583],[89.5,5666],[89.5,5750],[89.5,5833],[89.5,5916],[89.5,6000],[89.5,6083],[89.5,6166],[89.5,6250],[89.5,6333],[89.5,6416],[89.5,6500],[89.5,6583],[89.5,6668],[89.5,6749],[89.5,6833],[89.5,6916],[89.5,7000],[92.7,7085],[93.5,7168],[93.5,7250],[95.5,7333],[96.9,7418],[96.9,7500],[96.9,7583],[96.9,7666],[96.9,7750],[96.9,7833],[96.9,7916],[96.9,7999],[96.9,8083],[96.9,8166],[96.9,8250],[96.9,8333],[96.9,8416],[96.9,8500],[96.9,8583],[96.9,8666],[96.9,8750],[96.9,8833],[96.9,8916],[96.9,9000],[96.9,9083],[96.9,9166],[96.9,9250],[96.9,9333],[96.9,9416],[96.9,9500],[96.9,9583],[96.9,9666],[96.9,9750],[96.9,9833],[96.9,9916],[96.9,10000],[96.9,10083],[96.9,10166],[96.9,10250],[96.9,10333],[96.9,10416],[96.9,10500],[96.9,10583],[96.9,10666],[96.9,10750],[96.9,10833],[96.9,10916],[96.9,11000],[96.9,11083],[96.9,11166],[96.9,11250],[96.9,11333],[96.9,11416],[96.9,11500],[96.9,11583],[96.9,11666],[96.9,11750],[96.9,11833],[96.9,11916],[96.9,12000],[96.9,12083],[96.9,12167],[96.9,12250],[96.9,12333],[96.9,12416],[96.9,12500],[96.9,12583],[96.9,12667],[96.9,12750],[96.9,12833],[96.9,12916],[96.9,13000],[96.9,13083],[96.9,13166],[96.9,13250],[96.9,13333],[96.9,13416],[96.9,13500],[96.9,13583],[96.9,13667],[96.9,13750],[96.9,13833],[96.9,13917],[96.9,14000],[96.9,14083],[96.9,14166],[96.9,14250],[96.9,14333],[96.9,14416],[96.9,14500],[96.9,14583],[96.9,14666],[96.9,14750],[96.9,14833],[96.3,14919],[95.8,15002],[95.6,15085],[95.2,15167],[94.3,15251],[94.3,15333],[94.3,15417]]",1,0,976.725,979.158,81.875,1.2517,"[{""rating"":81.875,""responseTime"":1.2516999998092615}]",space,1.8838,,979.158,Partially,50,979.1592,,,[],,0,14,14,14,1,audio/Narrative8Situation5.wav,audio/Narrative7Situation5.wav,audio/Narrative6Situation5.wav,audio/Narrative5Situation5.wav,2,5,2,5,,,,,,,,,,,,,,,,,,,,,,,,,,,,,,,,,,,,,,,
,,,,,,5c40e7d99d27f00001159a65,2024-02-08_15h03.45.222,group3.1-3.2-social-tom,2023.2.2,Win32,59.17159763,65c5074098b851296ff0b7ed,65c5418d2b84754d6359dc0f,,,,,,,,,,,,,,,,,,,,,,,,,,,,,979.1594,2,audio/Narrative5Situation6.wav,982.175,,982.1751,987.8583,"[[78.2,1666],[79.6,1749],[79.6,1833],[79.7,1918],[79.7,1999],[80.1,2085],[94.3,2166],[96.9,2249],[96.9,2333],[96.9,2416],[97.7,2501],[99.2,2584],[100,2668],[100,2749],[100,2833],[100,2916],[100,2999],[100,3084],[100,3166],[100,3251],[100,3335],[100,3416],[100,3499],[100,3583],[100,3666],[100,3749],[100,3833],[100,3916],[100,3999],[100,4083],[100,4166],[100,4250],[100,4333],[100,4416],[100,4499],[100,4583],[100,4666],[100,4750],[100,4833],[100,4916],[100,4999],[100,5083],[100,5166],[100,5250],[100,5333],[100,5416],[100,5500],[100,5583],[100,5666]]",1,0,987.8585,990.2253,98.4375,1.4641,"[{""rating"":98.4375,""responseTime"":1.4640999999046471}]",space,1.8173,,990.2253,Partially,50,990.2264,,,[],,0,15,15,15,1,audio/Narrative8Situation6.wav,audio/Narrative7Situation6.wav,audio/Narrative6Situation6.wav,audio/Narrative5Situation6.wav,2,3,2,3,,,,,,,,,,,,,,,,,,,,,,,,,,,,,,,,,,,,,,,
,,,,,,5c40e7d99d27f00001159a65,2024-02-08_15h03.45.222,group3.1-3.2-social-tom,2023.2.2,Win32,59.17159763,65c5074098b851296ff0b7ed,65c5418d2b84754d6359dc0f,,,,,,,,,,,,,,,,,,,,,,,,,,,,,990.2266,2,audio/Narrative5Situation7.wav,994.2418,,994.2418,1015.2762,"[[97.8,1502],[97.2,1583],[97.2,1666],[97.2,1750],[97.2,1833],[97.2,1916],[96.8,2002],[93.9,2085],[93,2168],[92.7,2250],[90.7,2335],[90.2,2416],[90.2,2500],[90.2,2583],[90.2,2666],[90.2,2750],[90.2,2833],[90.2,2916],[90.7,3002],[91.7,3085],[92,3166],[92,3250],[92.6,3335],[93.8,3418],[96.1,3502],[96.9,3585],[98.5,3668],[99.3,3750],[100,3833],[100,3916],[100,4000],[100,4083],[100,4166],[100,4250],[100,4333],[100,4419],[100,4500],[100,4583],[100,4666],[100,4750],[100,4833],[100,4916],[100,5000],[100,5083],[100,5166],[100,5250],[100,5333],[100,5417],[100,5500],[100,5583],[100,5666],[100,5750],[100,5833],[100,5917],[100,6000],[100,6083],[100,6167],[100,6250],[100,6333],[100,6416],[100,6500],[100,6583],[100,6667],[100,6750],[100,6833],[100,6917],[100,7000],[100,7083],[100,7167],[100,7250],[100,7333],[100,7417],[100,7500],[100,7583],[100,7667],[100,7750],[100,7833],[100,7917],[100,8000],[100,8083],[100,8167],[100,8250],[100,8333],[100,8417],[100,8500],[100,8583],[100,8667],[100,8750],[100,8833],[100,8916],[100,9000],[100,9083],[100,9167],[100,9250],[100,9333],[100,9417],[100,9500],[100,9583],[100,9667],[100,9750],[100,9833],[100,9917],[100,10000],[100,10083],[100,10167],[100,10250],[100,10333],[100,10417],[100,10500],[100,10583],[100,10667],[100,10750],[100,10833],[100,10917],[100,11000],[100,11083],[100,11167],[100,11250],[100,11333],[100,11417],[100,11500],[100,11583],[100,11667],[100,11750],[100,11833],[100,11917],[100,12000],[100,12083],[100,12167],[100,12250],[100,12333],[100,12417],[100,12500],[100,12583],[100,12667],[100,12750],[100,12833],[100,12917],[100,13000],[100,13084],[100,13167],[100,13250],[100,13333],[100,13417],[100,13500],[100,13584],[100,13667],[100,13750],[100,13834],[100,13917],[100,14000],[100,14083],[100,14167],[100,14250],[100,14334],[100,14417],[100,14500],[100,14584],[100,14667],[100,14750],[100,14833],[100,14917],[100,15000],[100,15083],[100,15167],[100,15250],[100,15333],[100,15417],[100,15500],[100,15583],[100,15667],[100,15750],[100,15833],[100,15919],[100,16000],[100,16084],[100,16167],[100,16250],[100,16333],[100,16417],[100,16500],[100,16584],[100,16667],[100,16750],[100,16833],[100,16917],[100,17000],[100,17085],[100,17167],[100,17250],[100,17334],[100,17417],[100,17500],[100,17584],[100,17667],[100,17750],[100,17833],[100,17917],[100,18000],[100,18084],[100,18167],[100,18250],[100,18336],[100,18417],[100,18500],[100,18583],[100,18667],[100,18752],[100,18834],[100,18917],[100,19000],[100,19084],[100,19167],[100,19250],[100,19334],[100,19417],[100,19500],[100,19584],[100,19667],[100,19750],[100,19834],[100,19917],[100,20000],[100,20084],[100,20167],[100,20250],[100,20334],[100,20417],[100,20500],[100,20584],[100,20667],[100,20750],[100,20834],[100,20917],[100,21001]]",1,0,1015.2764,1017.8096,93.75,1.7299,"[{""rating"":93.75,""responseTime"":1.7299000000955402}]",space,1.9875,,1017.8096,Partially,50,1017.8109,,,[],,0,16,16,16,1,audio/Narrative8Situation7.wav,audio/Narrative7Situation7.wav,audio/Narrative6Situation7.wav,audio/Narrative5Situation7.wav,3,5,5,4,,,,,,,,,,,,,,,,,,,,,,,,,,,,,,,,,,,,,,,
,,,,,,5c40e7d99d27f00001159a65,2024-02-08_15h03.45.222,group3.1-3.2-social-tom,2023.2.2,Win32,59.17159763,65c5074098b851296ff0b7ed,65c5418d2b84754d6359dc0f,,,,,,,,,,,,,,,,,,,,,,,,,,,,,1017.8111,2,audio/Narrative5Situation8.wav,1020.8262,,1020.8263,1029.6598,"[[76.1,1751],[53.2,1835],[50,1916],[43.8,2000],[40.7,2085],[40.6,2166],[36.7,2252],[31,2333],[26.6,2418],[24.5,2500],[24.5,2583],[24.5,2666],[24.5,2750],[24.5,2833],[24.5,2916],[24.5,3000],[24.5,3083],[24.5,3166],[24.5,3250],[24.5,3333],[24.5,3416],[24.5,3500],[24.5,3583],[24.5,3666],[24.5,3750],[24.5,3833],[24.5,3916],[24.5,3999],[24.5,4083],[24.5,4166],[24.5,4250],[24.5,4333],[24.5,4416],[24.5,4500],[24.5,4583],[24.5,4666],[24.5,4750],[24.5,4833],[24.5,4916],[24.5,5000],[24.5,5083],[24.5,5166],[24.5,5250],[25,5333],[27.1,5418],[31.7,5502],[33,5583],[33,5667],[33,5750],[33,5833],[33,5916],[33,6000],[32.6,6085],[32.4,6167],[32.4,6249],[32.4,6333],[32.4,6416],[32.4,6500],[32.4,6583],[32.4,6667],[32.4,6750],[32.4,6833],[32.4,6916],[32.4,7000],[32.4,7083],[32.4,7166],[32.4,7250],[32.4,7333],[32.4,7416],[32.4,7500],[32.4,7583],[32.4,7666],[32.4,7750],[32.4,7833],[32.4,7916],[32.4,8000],[32.4,8083],[32.4,8167],[32.4,8250],[32.4,8333],[32.4,8416],[32.4,8500],[32.4,8583],[32.4,8666],[32.4,8750],[32.4,8833]]",1,0,1029.6599,1031.3931,30,0.8891,"[{""rating"":30,""responseTime"":0.8891000001428893}]",space,1.2007,,1031.3931,Definitely yes,100,1031.395,,,[],,0,17,17,17,1,audio/Narrative8Situation8.wav,audio/Narrative7Situation8.wav,audio/Narrative6Situation8.wav,audio/Narrative5Situation8.wav,3,2,5,3,,,,,,,,,,,,,,,,,,,,,,,,,,,,,,,,,,,,,,,
