exp_question,consent.started,consent.stopped,consentResponse.keys,consentResponse.rt,consentResponse.duration,participantID,date,expName,psychopyVersion,OS,frameRate,STUDY_ID,SESSION_ID,opening1.started,opening1.stopped,keyEndingOpening1.keys,keyEndingOpening1.rt,keyEndingOpening1.duration,volumeAdjust.started,volumeAdjust.stopped,endingAdjust.keys,endingAdjust.rt,endingAdjust.duration,opening2.started,opening2.stopped,keyEndingOpening.keys,keyEndingOpening.rt,keyEndingOpening.duration,mouse.x,mouse.y,mouse.leftButton,mouse.midButton,mouse.rightButton,mouse.time,instructionLoop.thisRepN,instructionLoop.thisTrialN,instructionLoop.thisN,instructionLoop.thisIndex,instructionLoop.ran,readyForAudio.started,readyForAudio.stopped,fixation.started,fixation.stopped,endPractice.keys,audioPre.started,audioPre.stopped,continuousResponses_audio,continuousSlider.response,continuousSlider.rt,intRating.started,intRating.stopped,intQuestionSlider.response,intQuestionSlider.rt,intQuestionSlider.history,confirmResponse.keys,confirmResponse.rt,confirmResponse.duration,catchQuestion.started,catch_label,catch_value,catchQuestion.stopped,catchQuestionSlider.response,catchQuestionSlider.rt,catchQuestionSlider.history,confirmResponse_2.keys,audioRunLoop.thisRepN,audioRunLoop.thisTrialN,audioRunLoop.thisN,audioRunLoop.thisIndex,audioRunLoop.ran,conditions1_1,conditions2_1,conditions1_2,conditions2_2,dur1_1,dur2_1,dur1_2,dur2_2,endPractice.rt,endPractice.duration,confirmResponse_2.rt,confirmResponse_2.duration,runIntervalBreak.started,runIntervalBreak.stopped,endingBreakKey.keys,endingBreakKey.rt,endingBreakKey.duration,connection.started,connection.stopped,connectionEnding.keys,connectionEnding.rt,connectionEnding.duration,readyForText.started,readyForText.stopped,textPre.started,textPre.stopped,continuousResponses_text,textRunLoop.thisRepN,textRunLoop.thisTrialN,textRunLoop.thisN,textRunLoop.thisIndex,textRunLoop.ran,text1_1,text1_2,text2_1,text2_2,runBreakText.started,runBreakText.stopped,endingBreakKey_2.keys,endingBreakKey_2.rt,endingBreakKey_2.duration,ending.started,ending.stopped,endingEnding.keys,endingEnding.rt,endingEnding.duration
social,0.0006,4.9938,y,4.6809,,5ccc60abe787e000167f8143,2024-02-06_11h30.03.357,group3.1-3.2-social-tom,2023.2.2,Win32,144.9275362,65b1b24e3a500fd6b5dc9abd,65c25d20672b763e9664d190,,,,,,,,,,,,,,,,,,,,,,,,,,,,,,,,,,,,,,,,,,,,,,,,,,,,,,,,,,,,,,,,,,,,,,,,,,,,,,,,,,,,,,,,,,,,,,,,,,,,,,,
,,,,,,5ccc60abe787e000167f8143,2024-02-06_11h30.03.357,group3.1-3.2-social-tom,2023.2.2,Win32,144.9275362,65b1b24e3a500fd6b5dc9abd,65c25d20672b763e9664d190,4.994,18.709,space,13.7031,,,,,,,,,,,,,,,,,,,,,,,,,,,,,,,,,,,,,,,,,,,,,,,,,,,,,,,,,,,,,,,,,,,,,,,,,,,,,,,,,,,,,,,,,,,,,,,,,,,
,,,,,,5ccc60abe787e000167f8143,2024-02-06_11h30.03.357,group3.1-3.2-social-tom,2023.2.2,Win32,144.9275362,65b1b24e3a500fd6b5dc9abd,65c25d20672b763e9664d190,,,,,,18.709,62.8621,space,43.8465,,,,,,,,,,,,,,,,,,,,,,,,,,,,,,,,,,,,,,,,,,,,,,,,,,,,,,,,,,,,,,,,,,,,,,,,,,,,,,,,,,,,,,,,,,,,,,
,,,,,,5ccc60abe787e000167f8143,2024-02-06_11h30.03.357,group3.1-3.2-social-tom,2023.2.2,Win32,144.9275362,65b1b24e3a500fd6b5dc9abd,65c25d20672b763e9664d190,,,,,,,,,,,62.868,68.9526,space,6.0738,,[],[],[],[],[],[],0,0,0,0,1,,,,,,,,,,,,,,,,,,,,,,,,,,,,,,,,,,,,,,,,,,,,,,,,,,,,,,,,,,,,,,,,,,,,,,,,,,,,,
,,,,,,5ccc60abe787e000167f8143,2024-02-06_11h30.03.357,group3.1-3.2-social-tom,2023.2.2,Win32,144.9275362,65b1b24e3a500fd6b5dc9abd,65c25d20672b763e9664d190,,,,,,,,,,,68.9568,145.6057,space,76.6039,,[-0.290625],[-0.4777777777777778],[1],[0],[0],[62.368099999964215],1,0,1,0,1,,,,,,,,,,,,,,,,,,,,,,,,,,,,,,,,,,,,,,,,,,,,,,,,,,,,,,,,,,,,,,,,,,,,,,,,,,,,,
,,,,,,5ccc60abe787e000167f8143,2024-02-06_11h30.03.357,group3.1-3.2-social-tom,2023.2.2,Win32,144.9275362,65b1b24e3a500fd6b5dc9abd,65c25d20672b763e9664d190,,,,,,,,,,,145.6105,166.8281,space,21.195,,[],[],[],[],[],[],2,0,2,0,1,,,,,,,,,,,,,,,,,,,,,,,,,,,,,,,,,,,,,,,,,,,,,,,,,,,,,,,,,,,,,,,,,,,,,,,,,,,,,
,,,,,,5ccc60abe787e000167f8143,2024-02-06_11h30.03.357,group3.1-3.2-social-tom,2023.2.2,Win32,144.9275362,65b1b24e3a500fd6b5dc9abd,65c25d20672b763e9664d190,,,,,,,,,,,166.8327,188.0575,space,21.2131,,[],[],[],[],[],[],3,0,3,0,1,,,,,,,,,,,,,,,,,,,,,,,,,,,,,,,,,,,,,,,,,,,,,,,,,,,,,,,,,,,,,,,,,,,,,,,,,,,,,
,,,,,,5ccc60abe787e000167f8143,2024-02-06_11h30.03.357,group3.1-3.2-social-tom,2023.2.2,Win32,144.9275362,65b1b24e3a500fd6b5dc9abd,65c25d20672b763e9664d190,,,,,,,,,,,188.0619,202.7659,space,14.6988,,[],[],[],[],[],[],4,0,4,0,1,,,,,,,,,,,,,,,,,,,,,,,,,,,,,,,,,,,,,,,,,,,,,,,,,,,,,,,,,,,,,,,,,,,,,,,,,,,,,
,,,,,,5ccc60abe787e000167f8143,2024-02-06_11h30.03.357,group3.1-3.2-social-tom,2023.2.2,Win32,144.9275362,65b1b24e3a500fd6b5dc9abd,65c25d20672b763e9664d190,,,,,,,,,,,,,,,,,,,,,,,,,,,202.7716,205.3493,205.3589,207.3633,,207.3634,237.0999,"[[999,0],[999,90],[999,173],[999,256],[999,340],[999,423],[999,506],[999,590],[999,673],[999,756],[13,840],[22.2,1340],[23.9,1423],[27.3,1673],[8.3,1756],[0.5,2006],[0.5,2090],[0.5,2173],[0.5,2256],[0.5,2340],[0.5,2423],[0.5,2506],[0.5,2590],[2.3,2673],[3.8,2756],[6.7,2840],[12.4,2923],[16.2,3006],[8.1,3090],[12.7,4590],[16,4673],[14.3,4756],[49.4,5006],[49.5,5090],[50.2,5173],[50.2,5256],[50.2,5340],[50.2,5423],[50.2,5506],[50.2,5590],[50.2,5673],[50.2,5756],[50.1,5840],[47.9,5923],[35.3,6006],[16.4,6090],[6.7,6173],[6.4,6256],[5.5,6340],[3,6423],[1,6506],[1,6590],[1,6673],[1,6756],[1.2,6840],[1.2,6923],[1.2,7006],[1.2,7090],[1.2,7173],[1.2,7256],[1.2,7340],[1.2,7423],[1.2,7506],[1.2,7590],[1.2,7673],[3.8,7756],[47.1,7840],[58.8,7923],[60.4,8006],[61.7,8090],[62.3,8173],[64.1,8256],[80.6,8340],[87,8423],[90.8,8506],[99.8,8590],[100,8673],[100,8756],[100,8840],[100,8923],[100,9006],[100,9090],[100,9173],[100,9256],[100,9340],[100,9423],[100,9506],[100,9590],[100,9673],[100,9756],[100,9840],[100,9923],[100,10006],[100,10090],[100,10173],[100,10256],[100,10340],[100,10423],[100,10506],[100,10590],[100,10673],[100,10756],[100,10840],[100,10923],[100,11006],[100,11090],[100,11173],[100,11256],[100,11340],[100,11423],[100,11506],[100,11590],[100,11673],[100,11756],[100,11840],[100,11923],[100,12006],[100,12090],[100,12173],[100,12256],[100,12340],[100,12423],[100,12506],[100,12590],[100,12673],[99.8,12756],[99.8,12840],[99.8,12923],[99.8,13006],[99.8,13090],[99.8,13173],[99.8,13256],[99.8,13340],[99.8,13423],[99.8,13506],[99.8,13590],[99.8,13673],[99.8,13756],[99.8,13840],[99.8,13923],[99.8,14006],[99.8,14090],[99.8,14173],[99.8,14256],[99.8,14340],[99.8,14423],[97.3,14506],[96.5,14590],[96.5,14673],[96.5,14756],[90.9,14840],[73.5,14923],[70.1,15006],[70.1,15090],[67.7,15173],[60.6,15257],[56,15340],[50.6,15423],[49.8,15506],[46.6,15590],[46,15673],[34.9,15756],[25.5,15840],[22.2,15923],[17.3,16006],[15.9,16090],[12.3,16173],[2.3,16256],[2.3,16340],[2.6,16423],[2.8,16507],[3,16590],[3,16673],[3,16756],[2.9,16840],[2.7,16923],[2.7,17006],[2.9,17090],[2.9,17173],[2.9,17256],[2.9,17340],[2.9,17423],[2.9,17506],[2.9,17590],[2.9,17673],[2.9,17756],[2.4,17840],[2.3,17923],[2,18006],[2,18090],[2,18173],[2,18256],[2,18340],[2.1,18423],[2.1,18506],[2.1,18590],[2.1,18673],[2.1,18756],[2.1,18840],[2.1,18923],[2.1,19006],[2.2,19090],[2.2,19173],[2.3,19256],[2.3,19340],[2.3,19423],[2.3,19506],[2.3,19590],[2.3,19673],[2,19756],[1.9,19840],[1.9,19923],[2.6,20006],[3.8,20090],[3.8,20173],[3.8,20256],[3.8,20340],[3.8,20423],[3.8,20506],[3.8,20590],[3.2,20673],[3,20756],[3.1,20840],[5.1,20923],[19.1,21006],[36.6,21090],[43.7,21173],[46.7,21256],[37.4,21340],[16.6,21423],[9.5,21506],[1.7,21590],[1,21673],[1,21756],[1,21840],[1.3,21923],[1.6,22006],[1.6,22090],[1.6,22173],[1.6,22256],[1.7,22340],[1.7,22423],[1.7,22506],[1.7,22590],[1.7,22673],[1.7,22756],[1.7,22840],[1.7,22923],[1.7,23006],[1.7,23090],[1.7,23173],[1.6,23257],[0.9,23340],[0.4,23423],[1.2,23923],[24.6,24006],[45.2,24090],[32.2,24173],[6.6,24256]]",1,0,237.1002,244.6208,0,6.4474,"[{""rating"":49.765625,""responseTime"":2.95359999996424},{""rating"":0,""responseTime"":6.447399999976142}]",space,7.0032,,244.621,Not at all,0,244.6229,,,[],,0,0,0,0,1,audio/Narrative13Situation2.wav,audio/Narrative13Situation2.wav,audio/Narrative13Situation2.wav,audio/Narrative13Situation2.wav,2,2,2,2,,,,,,,,,,,,,,,,,,,,,,,,,,,,,,,,,,,,,,
,,,,,,5ccc60abe787e000167f8143,2024-02-06_11h30.03.357,group3.1-3.2-social-tom,2023.2.2,Win32,144.9275362,65b1b24e3a500fd6b5dc9abd,65c25d20672b763e9664d190,,,,,,,,,,,,,,,,,,,,,,,,,,,,,244.623,247.1345,space,247.1345,263.0443,"[[999,4],[999,83],[999,166],[999,249],[999,333],[999,416],[999,499],[999,583],[999,666],[999,750],[999,833],[49,916],[40.7,1000],[1.6,1083],[0.8,1249],[12,1333],[42.7,1416],[49.1,1499],[36.6,1583],[4.9,1666],[2.7,1750],[1.5,1833],[0.4,1916],[0.3,1999],[0.3,2083],[0.3,2166],[0.4,2249],[0.4,2333],[0.4,2416],[0.4,2499],[0.4,2583],[0.4,2666],[0.4,2749],[0.4,2833],[0.4,2916],[0.4,2999],[0.4,3083],[0.4,3166],[0.4,3249],[3.9,3333],[6,3416],[4.5,3499],[0.1,3583],[0.9,5499],[0.9,5583],[0.9,5666],[0.9,5749],[0.9,5833],[0.9,5916],[0.5,6000],[0.3,6083],[0.2,6166],[0.2,6249],[0.2,6333],[0.2,6416],[0.2,6500],[0.2,6583],[0.2,6666],[0.2,6750],[0.2,6833],[0.2,6916],[0.2,6999],[0.2,7083],[0.2,7166],[0.2,7249],[0.2,7333],[0.2,7416],[0.2,7499],[0.5,7583],[0.8,7666],[0.8,7749],[0.8,7833],[1.5,7916],[2.3,8000],[3,8083],[3.1,8166],[3.6,8250],[8.3,8333],[10.5,8416],[11.4,8499],[11.4,8583],[12.9,8666],[14.2,8749],[14.2,8833],[14.2,8916],[11.6,9000],[7.9,9083],[7.9,9166],[26.5,9250],[52,9333],[52.8,9416],[54.8,9500],[50.7,9583],[50.7,9666],[50.7,9750],[50.4,9833],[50.4,9916],[49.2,10000],[47.3,10083],[44.7,10166],[41.6,10250],[41.6,10333],[40.3,10416],[24.7,10500],[22,10583],[43.5,10666],[50.2,10749],[50.2,10833],[50.1,10916],[49.8,11000],[49.8,11083],[49.8,11166],[49.8,11250],[49.8,11333],[49.8,11416],[49.8,11500],[49.8,11583],[49.8,11666],[49.8,11750],[49.8,11833],[50.4,11916],[55,12000],[56.3,12083],[58.2,12166],[62.2,12250],[66.3,12333],[66.6,12416],[75.6,12500],[82.7,12583],[82.7,12666],[82.4,12750],[82.3,12833],[82.3,12916],[84.3,13000],[84.4,13083],[84.4,13166],[85.8,13250],[90.2,13333],[97.1,13416],[97.7,13499],[98.9,13583],[98.9,13666],[98.9,13750],[98.9,13833],[98.9,13916],[98.9,13999],[98.9,14083],[98,14166],[93.3,14250],[92.6,14333],[92.5,14416],[91.3,14500],[86.2,14583],[83,14666],[71.3,14750],[59.7,14833],[55.6,14916],[52.3,15000],[49.7,15083],[49.7,15166],[49.6,15250],[49.9,15333],[51.1,15416],[65.6,15500],[79.3,15583],[85.9,15666],[94.1,15750],[99.3,15833]]",1,0,263.0444,267.5374,99.921875,3.9272,"[{""rating"":99.921875,""responseTime"":3.927200000047719}]",space,3.9725,,267.5374,Definitely yes,100,267.5393,,,[],,0,1,1,1,1,audio/Narrative7Situation1.wav,audio/Narrative8Situation1.wav,audio/Narrative5Situation1.wav,audio/Narrative6Situation1.wav,2,5,5,2,2.5006,,,,,,,,,,,,,,,,,,,,,,,,,,,,,,,,,,,,,
,,,,,,5ccc60abe787e000167f8143,2024-02-06_11h30.03.357,group3.1-3.2-social-tom,2023.2.2,Win32,144.9275362,65b1b24e3a500fd6b5dc9abd,65c25d20672b763e9664d190,,,,,,,,,,,,,,,,,,,,,,,,,,,,,267.5394,270.5443,,270.5443,280.6486,"[[999,0],[999,83],[999,166],[999,250],[999,333],[999,416],[999,500],[999,583],[48.1,666],[52.2,750],[52.2,833],[52,916],[32.7,1000],[21.7,1083],[20.9,1166],[13,1250],[3,1333],[3,1416],[2.8,1500],[0.2,1583],[0.2,3000],[0.2,3083],[0.2,3166],[0.2,3250],[0.2,3333],[0.2,3416],[0.2,3500],[0.2,3583],[0.2,3666],[0.2,3750],[0.2,3833],[0.2,3916],[0.2,4000],[0.2,4083],[0.2,4166],[0.2,4250],[0.2,4333],[0.2,4416],[0.2,4500],[0.2,4583],[0.2,4666],[0.2,4750],[0.2,4833],[0.2,4916],[0.2,5000],[0.2,5083],[0.5,5166],[1.4,5250],[1.4,5333],[1.6,5416],[1.8,5500],[1.8,5583],[1.3,5666],[0.9,5750],[0.9,5833],[0.9,5916],[0.9,6000],[0.9,6083],[0.9,6166],[0.9,6250],[0.9,6333],[0.9,6416],[0.9,6500],[0.9,6583],[0.9,6666],[0.9,6750],[0.9,6833],[0.9,6916],[0.9,7000],[0.9,7083],[0.9,7166],[0.9,7250],[0.9,7333],[0.9,7416],[0.9,7500],[0.9,7583],[0.9,7666],[0.9,7750],[0.9,7833],[0.9,7916],[0.8,8000],[0.7,8083],[0.6,8166],[0.5,8250],[0.5,8333],[0.5,8416],[0.5,8500],[0.5,8583],[0.5,8666],[0.5,8750],[0.5,8833],[0.5,8916],[0.5,9000],[0.5,9083],[0.5,9166],[0.5,9250],[0.5,9333],[0.4,9416],[0.4,9500],[0.4,9583],[0.4,9666],[0.4,9750],[0.4,9833],[0.4,9916],[0.4,10000],[0.4,10083]]",1,0,280.6487,283.0653,0,2.0457,"[{""rating"":0.78125,""responseTime"":1.499599999964289},{""rating"":0,""responseTime"":2.0456999999880736}]",space,1.8961,,283.0654,Partially,50,283.0668,,,[],,0,2,2,2,1,audio/Narrative7Situation2.wav,audio/Narrative8Situation2.wav,audio/Narrative5Situation2.wav,audio/Narrative6Situation2.wav,3,3,3,3,,,,,,,,,,,,,,,,,,,,,,,,,,,,,,,,,,,,,,
,,,,,,5ccc60abe787e000167f8143,2024-02-06_11h30.03.357,group3.1-3.2-social-tom,2023.2.2,Win32,144.9275362,65b1b24e3a500fd6b5dc9abd,65c25d20672b763e9664d190,,,,,,,,,,,,,,,,,,,,,,,,,,,,,283.067,287.0723,,287.0723,309.4406,"[[999,4],[999,83],[999,166],[999,249],[999,333],[999,416],[999,499],[999,583],[999,666],[999,749],[999,833],[6.3,916],[4.8,1000],[2.7,1083],[0.9,1166],[11.9,2666],[11.9,2916],[46.4,3416],[45.7,3500],[36.5,3583],[32.6,3666],[39.1,3750],[20.5,3833],[39.8,3916],[52,4000],[52,4083],[51.7,4166],[49.1,4250],[49.1,4333],[49.1,4416],[49.1,4500],[49.3,4583],[49.5,4666],[49.5,4750],[49.5,4833],[49.5,4916],[49.5,5000],[49.7,5083],[49.7,5166],[49.7,5250],[49.7,5333],[49.7,5416],[49.7,5500],[49.7,5583],[49.8,5666],[50,5750],[50,5833],[50,5916],[50,6000],[50,6083],[50,6166],[50,6250],[50,6333],[50,6416],[50,6500],[50,6583],[50,6666],[50,6750],[50,6833],[50,6916],[50,7000],[50,7083],[50,7166],[50,7250],[50,7333],[50,7416],[50,7500],[50,7583],[50,7666],[50,7750],[50,7833],[50.1,7916],[50.1,8000],[50.1,8083],[50.1,8166],[50.1,8250],[50.1,8333],[52,8416],[71.3,8500],[84.3,8583],[100,8666],[100,8750],[99,8833],[99,8916],[99,9000],[99,9083],[99.3,9166],[100,9250],[100,9333],[100,9416],[100,9500],[100,9583],[100,9666],[100,9750],[100,9833],[100,9916],[99.9,10000],[99.9,10083],[99.9,10166],[99.9,10250],[99.9,10333],[99.9,10416],[99.9,10500],[99.9,10583],[99.9,10666],[99.9,10750],[99.9,10833],[99.9,10916],[99.9,11000],[99.9,11083],[99.9,11166],[99.9,11250],[99.9,11333],[99.9,11416],[99.9,11500],[99.9,11583],[99.9,11666],[99.9,11750],[99.8,11833],[99.8,11916],[99.8,12000],[99.8,12083],[99.8,12166],[99.8,12250],[99.8,12333],[99.8,12416],[99.8,12500],[99.8,12583],[99.8,12666],[99.8,12750],[99.8,12833],[99.8,12916],[99.8,13000],[99.8,13083],[99.9,13166],[99.9,13250],[99.9,13333],[99.9,13416],[99.9,13500],[99.8,13583],[99.6,13666],[99,13750],[98.5,13833],[98.4,13916],[98.4,14000],[98.4,14083],[98.4,14166],[98.4,14250],[98.6,14333],[98.7,14416],[98.9,14500],[99,14583],[99.1,14666],[99.1,14750],[99.1,14833],[99.2,14916],[99.2,15000],[99.2,15083],[99.4,15166],[99.4,15250],[99.4,15333],[99.4,15416],[99.4,15500],[99.4,15583],[99.4,15666],[99.4,15750],[99.4,15833],[99.4,15916],[99.4,16000],[99.4,16083],[99.4,16166],[99.4,16250],[99.4,16333],[99.4,16416],[99.4,16500],[99.4,16583],[99.3,16666],[99.3,16750],[99.2,16833],[99.1,16916],[99.1,17000],[99.1,17083],[99.1,17166],[99.1,17250],[99.1,17333],[99.1,17416],[99.1,17500],[99.1,17583],[99.1,17666],[99.1,17750],[99.1,17833],[98.7,17916],[98.5,18000],[98.5,18083],[98.5,18166],[98.5,18250],[98.5,18333],[98.5,18416],[98.5,18500],[98.7,18583],[98.8,18666],[98.8,18750],[98.8,18833],[99,18916],[99.1,19000],[99.1,19083],[99.1,19166],[99.1,19250],[99.1,19333],[99.1,19416],[99.1,19500],[99.1,19583],[99.1,19666],[99.1,19750],[99.1,19833],[99.2,19916],[99.4,20000],[99.5,20083],[99.5,20166],[99.6,20250],[99.7,20333],[99.7,20416],[99.7,20500],[99.7,20583],[99.8,20666],[99.8,20750],[99.8,20833],[100,20916],[100,21000],[100,21083],[100,21166],[99.9,21250],[99.8,21333],[99.5,21416],[99.5,21500],[99.5,21583],[99.5,21666],[99.5,21750],[99.5,21833],[99.5,21916],[99.5,22000],[99.5,22083],[99.5,22166],[99.5,22250],[99.5,22333]]",1,0,309.4408,313.9892,99.6875,3.6838,"[{""rating"":99.6875,""responseTime"":3.6838000000119564}]",space,4.0319,,313.9893,Not at all,0,313.9906,,,[],,0,3,3,3,1,audio/Narrative7Situation3.wav,audio/Narrative8Situation3.wav,audio/Narrative5Situation3.wav,audio/Narrative6Situation3.wav,8,4,3,5,,,,,,,,,,,,,,,,,,,,,,,,,,,,,,,,,,,,,,
,,,,,,5ccc60abe787e000167f8143,2024-02-06_11h30.03.357,group3.1-3.2-social-tom,2023.2.2,Win32,144.9275362,65b1b24e3a500fd6b5dc9abd,65c25d20672b763e9664d190,,,,,,,,,,,,,,,,,,,,,,,,,,,,,313.9908,316.9962,,316.9962,331.156,"[[999,4],[999,83],[999,166],[999,249],[999,333],[999,416],[999,499],[999,583],[999,666],[999,750],[999,833],[999,916],[5.4,1000],[0.1,1333],[0.2,1416],[0.5,1500],[0.6,1583],[0.6,1666],[0.6,1750],[0.6,1833],[0.7,1916],[0.9,1999],[0.9,2083],[0.9,2166],[0.9,2249],[0.9,2333],[0.9,2416],[0.9,2499],[0.9,2583],[5.5,2666],[24.5,2750],[35.8,2833],[40.6,2916],[46.9,3000],[49.1,3083],[49.1,3166],[49.1,3250],[49.7,3333],[50.4,3416],[50.5,3500],[50.4,3583],[50.2,3666],[49.8,3750],[49.5,3833],[49.9,3916],[50.6,4000],[50.6,4083],[50.6,4166],[50.6,4250],[50.6,4333],[50.6,4416],[50.8,4500],[51.3,4583],[51.3,4666],[51.7,4750],[53,4833],[53.2,4916],[53.2,5000],[52.7,5083],[51.9,5166],[51.4,5250],[51.3,5333],[51.3,5416],[51.8,5500],[53.4,5583],[57,5666],[61.5,5750],[66.6,5833],[74.1,5916],[79.5,6000],[81.2,6083],[85.5,6166],[89.1,6250],[89.3,6333],[90.9,6416],[98.1,6500],[98.7,6583],[98.7,6666],[98.7,6750],[98.7,6833],[98.7,6916],[98.7,7000],[98.7,7083],[98.7,7166],[98.7,7250],[98.7,7333],[98.2,7416],[98,7500],[98,7583],[98,7666],[98.6,7750],[98.8,7833],[98.8,7916],[98.8,8000],[98.4,8083],[97.8,8166],[97.7,8250],[94.5,8333],[93.7,8416],[94.8,8500],[96.3,8583],[98.2,8666],[98.9,8750],[98.8,8833],[98.8,8916],[98.8,9000],[98.8,9083],[98.8,9166],[99.1,9250],[99.9,9333],[100,9416],[100,9500],[100,9583],[100,9666],[100,9750],[100,9833],[100,9916],[100,10000],[100,10083],[100,10166],[100,10250],[99.7,10333],[99.7,10416],[99.7,10500],[99.7,10583],[99.7,10666],[99.7,10750],[100,10833],[100,10916],[100,11000],[100,11083],[100,11166],[100,11250],[100,11333],[100,11416],[100,11500],[100,11583],[100,11666],[100,11750],[100,11833],[100,11916],[100,12000],[100,12083],[100,12166],[100,12250],[100,12333],[100,12416],[100,12500],[99.6,12583],[99.6,12666],[99.6,12750],[99.6,12833],[99.6,12916],[99.6,13000],[99.6,13083],[99.6,13166],[99.6,13250],[99.6,13333],[99.6,13416],[99.6,13500],[99.6,13583],[99.6,13666],[99.5,13750],[99.2,13834],[99.2,13916],[99.2,14000],[99.2,14083]]",1,0,331.1562,339.927,100,3.5642,"[{""rating"":99.609375,""responseTime"":2.3113000000118973},{""rating"":100,""responseTime"":3.564199999988091}]",space,8.2507,,339.927,Partially,50,339.9324,,,[],,0,4,4,4,1,audio/Narrative7Situation4.wav,audio/Narrative8Situation4.wav,audio/Narrative5Situation4.wav,audio/Narrative6Situation4.wav,3,3,1,2,,,,,,,,,,,,,,,,,,,,,,,,,,,,,,,,,,,,,,
,,,,,,5ccc60abe787e000167f8143,2024-02-06_11h30.03.357,group3.1-3.2-social-tom,2023.2.2,Win32,144.9275362,65b1b24e3a500fd6b5dc9abd,65c25d20672b763e9664d190,,,,,,,,,,,,,,,,,,,,,,,,,,,,,339.9325,341.9339,,341.934,350.1632,"[[47.9,333],[47.9,416],[48.2,499],[48.4,583],[38,666],[20.1,1583],[63.3,1666],[56.4,1750],[46.3,1833],[44.5,1916],[26.8,2000],[16.3,2166],[43.7,2250],[47.8,2333],[48.6,2416],[55.9,2500],[57.4,2583],[68.2,2666],[92.3,2750],[93,2833],[93,2916],[90.2,3000],[95.9,3083],[97.4,3166],[97.6,3250],[98.4,3333],[100,3416],[100,3499],[100,3583],[100,3666],[100,3749],[100,3833],[100,3916],[100,3999],[100,4083],[100,4166],[100,4249],[100,4333],[100,4416],[100,4499],[100,4583],[100,4666],[100,4750],[100,4833],[100,4916],[100,5000],[100,5083],[100,5166],[100,5249],[100,5333],[100,5416],[100,5499],[100,5583],[100,5666],[100,5749],[100,5833],[100,5916],[100,5999],[100,6083],[100,6166],[100,6249],[100,6333],[100,6416],[100,6499],[100,6583],[100,6666],[100,6749],[100,6833],[100,6916],[100,7000],[100,7083],[100,7166],[100,7249],[100,7333],[100,7416],[100,7499],[100,7583],[100,7666],[100,7749],[100,7833],[100,7916],[100,7999],[100,8083],[100,8166]]",1,0,350.1633,357.0869,71.5625,5.9983,"[{""rating"":99.84375,""responseTime"":3.040300000011939},{""rating"":71.5625,""responseTime"":5.998300000011909}]",space,6.4032,,357.0869,Not at all,0,357.0882,,,[],,0,5,5,5,1,audio/Narrative7Situation5.wav,audio/Narrative8Situation5.wav,audio/Narrative5Situation5.wav,audio/Narrative6Situation5.wav,5,2,5,2,,,,,,,,,,,,,,,,,,,,,,,,,,,,,,,,,,,,,,
,,,,,,5ccc60abe787e000167f8143,2024-02-06_11h30.03.357,group3.1-3.2-social-tom,2023.2.2,Win32,144.9275362,65b1b24e3a500fd6b5dc9abd,65c25d20672b763e9664d190,,,,,,,,,,,,,,,,,,,,,,,,,,,,,357.0883,359.0938,,359.0939,365.5522,"[[999,0],[999,83],[999,166],[999,249],[999,333],[999,416],[999,499],[999,583],[999,666],[999,749],[999,833],[999,916],[36.7,999],[19.3,1083],[10.9,1166],[7.7,1249],[2.6,1333],[0.5,1416],[0.5,1499],[0.5,1583],[8.8,1666],[55.3,1749],[62,1833],[58.5,1916],[45.3,1999],[45.8,2083],[48.2,2166],[50.5,2249],[50.5,2333],[50.5,2416],[50.5,2499],[50.5,2583],[50.5,2666],[50.5,2750],[50.5,2833],[56.9,2916],[68.8,2999],[72.2,3083],[74.7,3166],[88,3250],[86.8,3333],[79.1,3416],[78.4,3499],[79.7,3583],[80.2,3666],[80.2,3749],[80.2,3833],[80.4,3916],[80.4,3999],[80.7,4083],[81.6,4166],[82.8,4249],[84.1,4333],[85.8,4416],[89.2,4500],[94.4,4583],[96.9,4666],[98.4,4750],[99.3,4833],[100,4916],[100,4999],[100,5083],[100,5166],[100,5249],[100,5333],[100,5416],[100,5500],[100,5583],[100,5666],[100,5749],[100,5833],[100,5916],[100,6000],[100,6083],[100,6166],[100,6249],[100,6333],[100,6416]]",1,0,365.5523,371.5662,50.234375,5.9182,"[{""rating"":99.0625,""responseTime"":1.0241999999881273},{""rating"":100,""responseTime"":1.7650999999642636},{""rating"":50.234375,""responseTime"":5.918199999988133}]",space,5.5019,,371.5662,Definitely yes,100,371.5676,,,[],,0,6,6,6,1,audio/Narrative7Situation6.wav,audio/Narrative8Situation6.wav,audio/Narrative5Situation6.wav,audio/Narrative6Situation6.wav,3,2,3,2,,,,,,,,,,,,,,,,,,,,,,,,,,,,,,,,,,,,,,
,,,,,,5ccc60abe787e000167f8143,2024-02-06_11h30.03.357,group3.1-3.2-social-tom,2023.2.2,Win32,144.9275362,65b1b24e3a500fd6b5dc9abd,65c25d20672b763e9664d190,,,,,,,,,,,,,,,,,,,,,,,,,,,,,371.5676,374.5731,,374.5732,386.6427,"[[43,83],[43,166],[42.4,249],[42.3,333],[42.3,416],[42.3,499],[42.3,583],[26.5,666],[14.2,750],[12.3,833],[4.2,916],[1.2,1000],[17,2249],[32.2,2333],[31.1,2416],[19.6,2499],[15.7,3083],[53.3,3416],[48.5,3500],[48.5,3583],[48.5,3666],[15.7,3750],[19.9,4083],[48.1,4166],[48.4,4250],[48,4333],[50,4416],[50.5,4499],[50.5,4583],[50.5,4666],[50.5,4750],[49.6,4833],[49.5,4916],[49.5,4999],[49.5,5083],[49.5,5166],[49.5,5250],[49.5,5333],[49.6,5416],[49.7,5500],[49.9,5583],[49.9,5666],[49.9,5749],[49.9,5833],[49.9,5916],[49.9,5999],[49.9,6083],[49.9,6166],[49.9,6250],[49.9,6333],[49.9,6416],[49.9,6499],[49.9,6583],[49.9,6666],[49.9,6750],[50.5,6833],[50.5,6916],[50.5,6999],[50.5,7083],[50.5,7166],[50.5,7249],[50.5,7333],[50.5,7416],[50.5,7500],[50.5,7583],[50.5,7666],[50.5,7749],[50.5,7833],[50.5,7916],[50.5,7999],[50.5,8083],[50.5,8166],[50.5,8250],[50.5,8333],[50.5,8416],[50.5,8499],[50.5,8583],[50.5,8666],[50.5,8750],[50.5,8833],[50.5,8916],[50.5,9000],[50.5,9083],[50.5,9166],[50.5,9249],[50.5,9333],[50.5,9416],[50.5,9500],[50.5,9583],[50.5,9666],[50.5,9749],[50.5,9833],[50.5,9916],[50.5,10000],[50.5,10083],[50.5,10166],[50.5,10249],[50.5,10333],[50.5,10416],[50.5,10500],[50.5,10583],[50.5,10666],[50.5,10750],[50.5,10833],[50.4,10916],[50.4,11000],[50.4,11083],[50.4,11166],[46.7,11250],[31.1,11333],[31,11416],[31,11500],[31.4,11583],[38,11666],[38.2,11750],[23.1,11833],[4.8,11916],[4.3,12000]]",1,0,386.6428,389.3789,0,1.5631,"[{""rating"":0,""responseTime"":1.5630999999642654}]",space,2.2164,,389.3789,Definitely yes,100,389.3798,,,[],,0,7,7,7,1,audio/Narrative7Situation7.wav,audio/Narrative8Situation7.wav,audio/Narrative5Situation7.wav,audio/Narrative6Situation7.wav,5,3,4,5,,,,,,,,,,,,,,,,,,,,,,,,,,,,,,,,,,,,,,
,,,,,,5ccc60abe787e000167f8143,2024-02-06_11h30.03.357,group3.1-3.2-social-tom,2023.2.2,Win32,144.9275362,65b1b24e3a500fd6b5dc9abd,65c25d20672b763e9664d190,,,,,,,,,,,,,,,,,,,,,,,,,,,,,389.3799,392.3857,,392.3858,405.2263,"[[999,0],[999,83],[999,166],[999,250],[999,333],[999,416],[999,500],[999,583],[999,666],[999,750],[1.1,833],[0.8,12000],[0.8,12083],[1,12166],[15.2,12250],[13.8,12333],[9.1,12750],[10.1,12833]]",1,0,405.2263,413.0736,10.703125,6.9492,"[{""rating"":0.4687500000000011,""responseTime"":4.820199999988176},{""rating"":10.703125000000002,""responseTime"":6.949199999988082}]",space,7.3389,,413.0736,Definitely yes,100,413.0744,,,[],,0,8,8,8,1,audio/Narrative7Situation8.wav,audio/Narrative8Situation8.wav,audio/Narrative5Situation8.wav,audio/Narrative6Situation8.wav,2,3,3,5,,,,,,,,,,,,,,,,,,,,,,,,,,,,,,,,,,,,,,
,,,,,,5ccc60abe787e000167f8143,2024-02-06_11h30.03.357,group3.1-3.2-social-tom,2023.2.2,Win32,144.9275362,65b1b24e3a500fd6b5dc9abd,65c25d20672b763e9664d190,,,,,,,,,,,,,,,,,,,,,,,,,,,,,413.0745,416.0804,,416.0805,427.3863,"[[2.6,750],[3.3,833],[10.1,916],[20.9,999],[22.1,1083],[22.1,1166],[10.9,1250],[7.4,1333],[7,1416],[4.3,1500],[2.4,1583],[1.4,1666],[1.3,1749],[1.6,1833],[21.8,1916],[54,2000],[54.7,2083],[54.5,2166],[41,2250],[21.7,2333],[17.1,2416],[9.8,2500],[9.8,2583],[9.1,2666],[7.8,2750],[5.2,2833],[2,2916],[1.3,2999],[7.4,3083],[58.6,3500],[51.5,3583],[51.1,3666],[50.3,3749],[48.7,3833],[46,3916],[28.6,4000],[15.5,4166],[59.4,4416],[59.4,4499],[57.7,4583],[53.8,4666],[51.6,4750],[50.6,4833],[50.5,4916],[50.6,5000],[51.3,5083],[51.6,5166],[53.8,5250],[58.2,5333],[64,5416],[65.6,5500],[65.7,5583],[66.9,5666],[70,5750],[72.5,5833],[72.5,5916],[72.5,6000],[72.5,6083],[72.5,6166],[72.5,6250],[72.5,6333],[72.5,6416],[72.5,6500],[72.4,6583],[72.4,6666],[72.4,6750],[74.9,6833],[77.1,6916],[77.1,7000],[77.1,7083],[76.8,7166],[74.3,7250],[73,7333],[72.5,7416],[72.5,7500],[72.5,7583],[72.5,7666],[72.5,7750],[72.7,7833],[73.5,7916],[74.4,8000],[74.9,8083],[75,8166],[75.7,8250],[75.9,8333],[75.9,8416],[75.9,8500],[75.9,8583],[75.9,8666],[75.9,8750],[75.9,8833],[75.9,8916],[75.9,9000],[75.9,9083],[75.9,9166],[75.9,9250],[75.9,9333],[75.9,9416],[76.7,9500],[77.6,9583],[77.7,9666],[77.8,9750],[77.8,9833],[77.8,9916],[77.9,10000],[78.9,10083],[79,10166],[79,10250],[79,10333],[79,10416],[79.6,10500],[79.7,10583],[79.7,10666],[79.7,10750],[79.7,10833],[78.3,10916],[74.1,11000],[69.4,11083],[65.5,11166],[54.7,11250]]",1,0,427.3864,432.4904,50.3125,4.191,"[{""rating"":50.31250000000001,""responseTime"":4.191000000000031}]",space,4.5888,,432.4904,Partially,50,432.4917,,,[],,0,9,9,9,1,audio/Narrative7Situation9.wav,audio/Narrative8Situation9.wav,audio/Narrative5Situation9.wav,audio/Narrative6Situation9.wav,2,3,3,4,,,,,,,,,,,,,,,,,,,,,,,,,,,,,,,,,,,,,,
,,,,,,5ccc60abe787e000167f8143,2024-02-06_11h30.03.357,group3.1-3.2-social-tom,2023.2.2,Win32,144.9275362,65b1b24e3a500fd6b5dc9abd,65c25d20672b763e9664d190,,,,,,,,,,,,,,,,,,,,,,,,,,,,,432.4919,434.4974,,434.4974,490.3729,"[[999,0],[999,83],[999,166],[999,249],[999,333],[999,416],[999,499],[999,583],[999,666],[999,749],[999,833],[999,916],[999,999],[999,1083],[999,1166],[999,1249],[999,1333],[999,1416],[999,1499],[999,1583],[999,1666],[999,1749],[999,1833],[999,1916],[999,2000],[999,2083],[8.8,2166],[5.8,2249],[3.8,2333],[0.7,2416],[0.7,2499],[0.6,2583],[0.1,2666],[0.1,2750],[0.3,2833],[1.8,2916],[2.2,3000],[2,3083],[1.1,3166],[0.8,3250],[0.8,3333],[0.8,3416],[0.8,3500],[0.8,3583],[0.8,3666],[0.8,3749],[0.8,3833],[0.8,3916],[0.9,4000],[0.9,4083],[0.9,4166],[1,4250],[1,4333],[1.1,4416],[1.2,4500],[1.3,4583],[1.3,4666],[1.3,4750],[1.3,4833],[1.3,4916],[1.3,5000],[1.3,5083],[1.3,5166],[1.3,5249],[1.3,5333],[1.4,5416],[1.5,5500],[1.6,5583],[1.6,5666],[1.6,5749],[1.6,5833],[1.6,5916],[1.6,6000],[1.6,6083],[1.6,6166],[1.6,6250],[1.6,6333],[1.7,6416],[1.7,6500],[1.7,6583],[1.8,6666],[1.9,6750],[2,6833],[2.2,6916],[2.4,7000],[4.4,7083],[4.4,7166],[4.4,7250],[6.2,7333],[7.7,7416],[7.7,7500],[5.4,7583],[4.6,7666],[2.8,7750],[2,7833],[2,7916],[2,8000],[2.1,8083],[7.6,8166],[46.6,8583],[37.9,8666],[37.9,8749],[43.7,8833],[21.2,8916],[12,9000],[12.2,9083],[21.6,9166],[38.4,9250],[42.5,9333],[49,9416],[52.3,9500],[52.4,9583],[52.4,9666],[51.1,9750],[50.2,9833],[50.2,9916],[50.2,10000],[50.2,10083],[50.2,10166],[50.2,10250],[50.2,10333],[50.2,10416],[50.2,10500],[50.2,10583],[50.1,10666],[49.8,10750],[49.8,10833],[49.8,10916],[49.8,11000],[49.8,11083],[49.8,11166],[49.8,11250],[49.9,11333],[50.1,11416],[50.5,11500],[50.6,11583],[50.6,11666],[50.6,11750],[50.6,11833],[50.6,11916],[50.6,12000],[50.6,12083],[50.6,12166],[50.6,12250],[50.6,12333],[50.6,12416],[50.5,12500],[50.4,12583],[50.4,12666],[50.4,12750],[50.1,12833],[50.1,12916],[50.1,13000],[50.1,13083],[50.1,13166],[50.1,13250],[53.3,13333],[54.1,13416],[54.1,13500],[53.8,13583],[53.8,13666],[53.8,13750],[54.8,13833],[62.8,13916],[64.8,14000],[67.7,14083],[70.1,14166],[72.8,14250],[73.8,14333],[73.8,14416],[73.8,14500],[73.8,14583],[73.8,14666],[73.8,14750],[73.8,14833],[73.6,14916],[73.4,15000],[73.3,15083],[73,15166],[73,15250],[73,15333],[72.2,15416],[72.1,15500],[72.1,15583],[72.1,15666],[72.1,15750],[72.1,15833],[72.7,15916],[73,16000],[73,16083],[73.3,16166],[73.3,16250],[73.3,16333],[73.3,16416],[73.3,16500],[73.3,16583],[73.3,16666],[73.3,16750],[73.3,16833],[73.3,16916],[73.3,17000],[73.3,17083],[73.3,17166],[73.3,17250],[73.3,17333],[73.3,17416],[73.3,17500],[73.3,17583],[73.3,17666],[73.3,17750],[73.3,17833],[73.3,17916],[73.3,18000],[72.6,18083],[67,18166],[62.8,18250],[58.6,18333],[54.8,18416],[50.6,18500],[50.5,18583],[50.5,18666],[50.5,18750],[50,18833],[49.9,18916],[49.9,19000],[49.9,19083],[49.9,19166],[49.9,19250],[49.9,19333],[49.9,19416],[49.9,19500],[49.9,19583],[49.9,19666],[50,19750],[50,19833],[50,19916],[50,20000],[50.1,20083],[50.1,20166],[50.1,20250],[50.1,20333],[50.2,20416],[50.2,20500],[50.5,20583],[50.5,20666],[50.5,20750],[50.3,20833],[49.9,20916],[49.6,21000],[49.1,21083],[49.1,21166],[49.3,21250],[48.4,21333],[36.6,21416],[21.5,21500],[21.5,21583],[19,21666],[16.3,21750],[15.8,21833],[7.7,21916],[6.6,22000],[3.3,22083],[0.9,22166],[0.7,22250],[0.7,22333],[0.7,22416],[0.7,22500],[0.7,22583],[0.7,22666],[0.7,22750],[0.7,22833],[0.7,22916],[0.7,23000],[0.7,23083],[0.7,23166],[0.7,23250],[0.7,23333],[0.9,23416],[0.9,23500],[1,23583],[1.1,23666],[1.1,23750],[1.1,23833],[1.1,23916],[1.1,24000],[1.1,24083],[1.1,24166],[1.1,24250],[1,24333],[0.9,24416],[0.9,24500],[0.9,24583],[0.9,24666],[0.9,24750],[0.9,24833],[0.9,24916],[0.9,25000],[0.9,25083],[0.9,25166],[0.9,25250],[0.9,25333],[0.9,25416],[0.9,25500],[0.9,25583],[0.9,25666],[0.9,25750],[0.9,25833],[0.9,25916],[0.9,26000],[0.9,26083],[0.9,26166],[1,26250],[2.1,26333],[2.2,26416],[2.2,26500],[2.2,26583],[2.2,26666],[1.4,26750],[1.3,26833],[1.3,26916],[1.3,27000],[1.3,27083],[1.3,27166],[1.3,27250],[1.3,27333],[1.3,27416],[1.3,27500],[1.3,27583],[1.3,27666],[1.3,27750],[1.3,27833],[1.3,27916],[1.3,28000],[1.3,28083],[1.4,28166],[1.4,28250],[1.4,28333],[1.4,28416],[1.4,28500],[1.4,28583],[1.4,28666],[1.4,28750],[1.4,28833],[1.4,28916],[1.4,29000],[1.4,29083],[1.4,29166],[1.4,29250],[1.4,29333],[1.4,29416],[1.4,29500],[1.4,29583],[1.4,29666],[1.6,29750],[1.6,29833],[1.6,29916],[1.6,30000],[1.6,30083],[1.6,30166],[1.6,30250],[1.6,30333],[1.6,30416],[1.6,30500],[1.6,30583],[1.6,30666],[1.6,30750],[1.6,30833],[1.6,30916],[1.6,31000],[1.6,31083],[1.6,31166],[1.6,31250],[1.6,31333],[1.6,31416],[1.8,31500],[1.8,31583],[1.8,31666],[2.3,31750],[2.3,31833],[2.3,31916],[2.3,32000],[2.1,32083],[1.5,32166],[1.2,32250],[1,32333],[1,32416],[1.6,32500],[1.7,32583],[1.7,32666],[1.6,32750],[1.3,32833],[1.3,32916],[1.1,33000],[1.1,33083],[1.2,33166],[1.3,33250],[1.3,33333],[1.3,33416],[1.3,33500],[1.3,33583],[1.3,33666],[1.3,33750],[1.3,33833],[1.3,33916],[1.3,34000],[1.3,34083],[1.3,34166],[1.3,34250],[1.3,34333],[1.3,34416],[1.3,34500],[1.3,34583],[2.7,34667],[3.5,34750],[3.5,34833],[10.3,34917],[49.8,35417],[49.8,35500],[49.8,35583],[49.8,35666],[49.8,35750],[49.8,35833],[49.8,35916],[49.8,36000],[49.8,36083],[49.8,36166],[50.5,36250],[50.9,36333],[50.9,36416],[50.9,36500],[50.5,36583],[49.8,36666],[49.8,36750],[50.2,36833],[50.7,36916],[50.9,37000],[50.9,37083],[50.9,37166],[51,37250],[51,37333],[51,37416],[51,37500],[51,37583],[51,37666],[51.1,37750],[51.1,37833],[51.2,37917],[51.3,38000],[51.3,38083],[51.3,38166],[51.3,38250],[51.3,38333],[51.3,38417],[51.3,38500],[50.9,38583],[50.9,38667],[50.9,38750],[50.9,38833],[50.9,38916],[50.9,39000],[50.9,39083],[50.9,39166],[51.2,39250],[51.4,39333],[52,39417],[52.7,39500],[53.4,39583],[53.4,39666],[53.4,39750],[53.2,39833],[51.7,39916],[50.2,40000],[50,40083],[50.4,40166],[50.9,40250],[51.6,40333],[52.1,40417],[53,40500],[53.1,40583],[53.1,40666],[53.1,40750],[53.1,40833],[53.1,40916],[53.1,41000],[53.4,41083],[53.4,41167],[52.8,41250],[51.8,41333],[50.9,41417],[50.5,41500],[50.2,41583],[50.2,41666],[50.2,41750],[50.2,41833],[50.2,41917],[50.4,42000],[50.5,42083],[50.5,42167],[50.5,42250],[50.5,42333],[50.5,42416],[50.5,42500],[50.5,42583],[50.5,42667],[50.8,42750],[50.8,42833],[50.8,42916],[50.8,43000],[50.8,43083],[50.8,43166],[50.8,43250],[50.8,43333],[50.8,43417],[50.8,43500],[50.8,43583],[50.8,43666],[50.8,43750],[50.8,43833],[50.8,43917],[50.8,44000],[50.8,44083],[50.8,44166],[50.8,44250],[50.8,44333],[50.8,44417],[50.8,44500],[50.8,44583],[50.9,44667],[51,44750],[51.3,44833],[51.3,44917],[51.3,45000],[51.3,45083],[51.4,45167],[51.4,45250],[51.4,45333],[51.3,45417],[50.6,45500],[50.6,45583],[50.6,45667],[50.6,45750],[50.6,45833],[50.6,45917],[50.6,46000],[50.7,46083],[50.7,46166],[50.7,46250],[50.7,46333],[50.7,46417],[50.9,46500],[50.9,46583],[50.9,46667],[50.9,46750],[50.9,46833],[51.7,46917],[52,47000],[55.2,47083],[56.8,47167],[60.9,47250],[68.1,47333],[71.2,47417],[72,47500],[72,47583],[72,47667],[73.5,47750],[74.8,47833],[74.9,47917],[74.9,48000],[74.9,48083],[74.9,48167],[74.9,48250],[75.9,48333],[76,48417],[76,48500],[76,48583],[76,48667],[76,48750],[76,48833],[75.5,48917],[75.5,49000],[75.5,49083],[75.5,49167],[75.5,49250],[75.5,49333],[75.5,49417],[75.5,49500],[75.5,49583],[75.5,49667],[75.5,49750],[75.5,49833],[75.5,49917],[75.5,50000],[75.5,50083],[75.5,50167],[75.5,50250],[75.5,50333],[75.5,50417],[75.5,50500],[75.5,50583],[75.5,50667],[75.5,50750],[75.5,50833],[75.7,50917],[76.5,51000],[77.5,51083],[78.4,51167],[78.4,51250],[79.6,51333],[80.2,51417],[80.2,51500],[80.2,51583],[80.2,51667],[80.2,51750],[80.2,51833],[80.2,51917],[80.2,52000],[80.2,52083],[80.2,52167],[80.9,52250],[83,52333],[86.6,52417],[89.2,52500],[91.1,52583],[91.1,52667],[91.1,52750],[91.1,52833],[91.1,52917],[91.1,53000],[90.3,53083],[87.3,53167],[84.1,53250],[82.9,53333],[82.9,53417],[82.6,53500],[78,53583],[72.7,53667],[62.9,53750],[61.5,53833],[73,53917],[78.7,54000],[79.8,54083],[79.8,54167],[80.1,54250],[98.7,54333],[100,54417],[100,54500],[100,54583],[100,54667],[100,54750],[100,54833],[100,54917],[100,55000],[100,55083],[100,55167],[100,55250],[100,55333],[100,55417],[100,55500],[100,55583],[100,55667],[100,55750],[100,55833]]",1,0,490.3731,494.3868,78.59375,2.6484,"[{""rating"":78.59375,""responseTime"":2.6483999999761636}]",space,3.4983,,494.3868,Partially,50,494.3876,,,[],,0,10,10,10,1,audio/Narrative8Situation1.wav,audio/Narrative7Situation1.wav,audio/Narrative6Situation1.wav,audio/Narrative5Situation1.wav,5,2,2,5,,,,,,,,,,,,,,,,,,,,,,,,,,,,,,,,,,,,,,
,,,,,,5ccc60abe787e000167f8143,2024-02-06_11h30.03.357,group3.1-3.2-social-tom,2023.2.2,Win32,144.9275362,65b1b24e3a500fd6b5dc9abd,65c25d20672b763e9664d190,,,,,,,,,,,,,,,,,,,,,,,,,,,,,494.3878,497.3938,,497.3938,504.8591,"[[999,0],[999,83],[999,166],[999,249],[999,333],[999,416],[999,499],[999,583],[999,666],[999,750],[999,833],[22.9,916],[13.2,999],[6,1083],[4.9,1166],[2.3,1250],[1.3,1333],[1.3,1416],[1,1500],[0.5,1583],[0.1,1666],[0.5,2083],[1.8,2166],[15.3,2249],[53.4,2583],[52.6,2666],[51.2,2750],[49.8,2833],[49.7,2916],[49.7,2999],[49.8,3083],[52.3,3166],[54.5,3249],[55.9,3333],[55.9,3416],[55.9,3500],[57.5,3583],[59.8,3666],[64,3750],[66.9,3833],[69.5,3916],[70,4000],[70,4083],[70,4166],[70,4249],[69.7,4333],[69.3,4416],[69.1,4499],[68.9,4583],[75.5,4666],[78,4749],[78,4833],[78,4916],[78,4999],[80.5,5083],[100,5166],[100,5250],[100,5333],[100,5416],[100,5500],[100,5583],[100,5666],[100,5749],[100,5833],[100,5916],[100,6000],[100,6083],[100,6166],[100,6250],[100,6333],[100,6416],[100,6500],[100,6583],[100,6666],[100,6749],[100,6833],[100,6916],[100,7000],[95.2,7083],[100,7166],[100,7250],[100,7333],[100,7416]]",1,0,504.8592,515.6371,99.6875,1.3434,"[{""rating"":99.6875,""responseTime"":1.3434000000357855}]",space,10.2623,,515.6371,Not at all,0,515.6426,,,[],,0,11,11,11,1,audio/Narrative8Situation2.wav,audio/Narrative7Situation2.wav,audio/Narrative6Situation2.wav,audio/Narrative5Situation2.wav,3,3,3,3,,,,,,,,,,,,,,,,,,,,,,,,,,,,,,,,,,,,,,
,,,,,,5ccc60abe787e000167f8143,2024-02-06_11h30.03.357,group3.1-3.2-social-tom,2023.2.2,Win32,144.9275362,65b1b24e3a500fd6b5dc9abd,65c25d20672b763e9664d190,,,,,,,,,,,,,,,,,,,,,,,,,,,,,515.6427,523.644,,523.644,532.8872,"[[999,4],[999,83],[999,166],[999,249],[999,333],[999,416],[999,499],[999,583],[999,666],[33.5,749],[0.9,1333],[6.3,1416],[29.8,1500],[39.3,1583],[22.3,1666],[22.7,1750],[28.8,1833],[28.9,1916],[37.6,2000],[45.9,2083],[46.2,2166],[46.2,2250],[46.2,2333],[46.8,2416],[48.9,2499],[40.8,2583],[13.4,2666],[7.3,2750],[0.9,2833],[0.5,5000],[0.5,5083],[0.5,5166],[0.4,5250]]",1,0,532.8872,535.4566,0,1.3172,"[{""rating"":0,""responseTime"":1.31719999998802}]",space,2.0529,,535.4567,Definitely yes,100,535.4581,,,[],,0,12,12,12,1,audio/Narrative8Situation3.wav,audio/Narrative7Situation3.wav,audio/Narrative6Situation3.wav,audio/Narrative5Situation3.wav,4,8,5,3,,,,,,,,,,,,,,,,,,,,,,,,,,,,,,,,,,,,,,
,,,,,,5ccc60abe787e000167f8143,2024-02-06_11h30.03.357,group3.1-3.2-social-tom,2023.2.2,Win32,144.9275362,65b1b24e3a500fd6b5dc9abd,65c25d20672b763e9664d190,,,,,,,,,,,,,,,,,,,,,,,,,,,,,535.4582,538.4635,,538.4637,550.179,"[[999,4],[999,83],[999,166],[56.7,249],[54.9,333],[54.5,416],[54.5,499],[53.2,583],[7.4,1000],[7,1083],[0.2,2166],[0.2,2249],[0.2,2333],[0.2,2416],[1.4,6500],[11.7,6583],[30.8,6666],[42.1,6750],[42.5,6833],[42.3,6916],[43.8,6999],[44.9,7083],[49.1,7166],[49.1,7249],[49.1,7333],[49.1,7416],[49.1,7499],[49.1,7583],[49.1,7666],[49,7750],[48.6,7833],[48.6,7916],[49.1,8000],[49.2,8083],[49.1,8166],[48,8250],[46.3,8333],[43.8,8416],[39.2,8500],[33.1,8583],[25.9,8666],[24.1,8750],[23.8,8833],[23.8,8916],[23.2,9000],[23,9083],[23,9166],[22.9,9249],[22.5,9333],[19.8,9416],[12.3,9500],[9.1,9583],[5.1,9666],[4,9750],[3.6,9833],[2.7,9916],[1.3,10000],[0.5,10083],[0.1,10500],[0.2,10583],[0.3,10666],[0.9,10749],[1.1,10833],[1.3,10916],[2.4,11000],[3.7,11083],[6.5,11166],[10.7,11250],[20.2,11416],[20.3,11499],[21.7,11583],[24.7,11666]]",1,0,550.1791,553.5957,23.90625,2.3464,"[{""rating"":23.90625,""responseTime"":2.3463999999761427}]",space,2.8978,,553.5957,Not at all,0,553.597,,,[],,0,13,13,13,1,audio/Narrative8Situation4.wav,audio/Narrative7Situation4.wav,audio/Narrative6Situation4.wav,audio/Narrative5Situation4.wav,3,3,2,1,,,,,,,,,,,,,,,,,,,,,,,,,,,,,,,,,,,,,,
,,,,,,5ccc60abe787e000167f8143,2024-02-06_11h30.03.357,group3.1-3.2-social-tom,2023.2.2,Win32,144.9275362,65b1b24e3a500fd6b5dc9abd,65c25d20672b763e9664d190,,,,,,,,,,,,,,,,,,,,,,,,,,,,,553.5972,558.6026,,558.6026,567.075,"[[16.3,333],[16.4,416],[17,500],[17,583],[22,666],[28,750],[28.8,833],[28,916],[20.2,1000],[8.8,1083],[4.5,1166],[0.1,3166],[0.1,3250],[0.1,3333],[0.7,3416],[0.7,3500],[0.7,3583],[0.7,3666]]",1,0,567.075,569.2001,0.078125,1.3997,"[{""rating"":0.07812500000000111,""responseTime"":1.3997000000476874}]",space,1.6106,,569.2001,Not at all,0,585.2557,0.390625,9.0254,"[{""rating"":0.390625,""responseTime"":9.02539999997623}]",space,0,14,14,14,1,audio/Narrative8Situation5.wav,audio/Narrative7Situation5.wav,audio/Narrative6Situation5.wav,audio/Narrative5Situation5.wav,2,5,2,5,,,15.5352,,,,,,,,,,,,,,,,,,,,,,,,,,,,,,,,,,,
,,,,,,5ccc60abe787e000167f8143,2024-02-06_11h30.03.357,group3.1-3.2-social-tom,2023.2.2,Win32,144.9275362,65b1b24e3a500fd6b5dc9abd,65c25d20672b763e9664d190,,,,,,,,,,,,,,,,,,,,,,,,,,,,,585.2599,588.2627,,588.2628,598.2212,"[[999,4],[999,83],[999,166],[999,249],[999,333],[999,416],[999,499],[28.8,583],[4.9,666],[3.7,750],[3.2,833],[5.2,1166],[7.3,1249],[1.4,1333],[0.5,2083],[0.9,2166],[17.7,2250],[55.9,2333],[59,2416],[54.3,2499],[50,2583],[50,2666],[56,2749],[79.3,2833],[94.1,2916],[98.6,2999],[100,3083],[100,3166],[100,3249],[100,3333],[100,3416],[100,3499],[99.7,3583],[99.6,3666],[99.6,3749],[99.6,3833],[99.6,3916],[99.6,3999],[99.6,4083],[99.6,4166],[99.6,4249],[99.6,4333],[99.6,4416],[99.6,4499],[99.6,4583],[99.6,4666],[99.6,4749],[99.6,4833],[99.6,4916],[99.6,4999],[99.6,5083],[99.6,5166],[99.6,5249],[99.6,5333],[99.6,5416],[99.6,5499],[99.6,5583],[99.6,5666],[99.6,5750],[99.6,5833],[99.6,5916],[99.6,5999],[99.6,6083],[99.6,6166],[99.6,6249],[99.6,6333],[99.6,6416],[99.6,6499],[99.6,6583],[99.6,6666],[99.6,6749],[99.6,6833],[99.6,6916],[99.6,6999],[99.6,7083],[99.6,7166],[99.6,7249],[99.6,7333],[99.6,7416],[99.6,7499],[99.6,7583],[99.6,7666],[99.6,7749],[99.6,7833],[99.6,7916],[99.6,7999],[99.6,8083],[99.6,8166],[99.6,8249],[99.6,8333],[99.6,8416],[99.6,8499],[99.6,8583],[99.6,8666],[99.6,8749],[99.6,8833],[99.6,8916],[99.6,8999],[99.6,9083],[99.6,9166],[99.6,9249],[99.6,9333],[99.6,9416],[99.6,9499],[99.6,9583],[99.6,9666],[99.6,9749],[99.6,9833],[99.6,9916]]",1,0,598.2212,601.3184,99.609375,0.5733,"[{""rating"":99.609375,""responseTime"":0.5733000000119546}]",space,2.578,,601.3184,Not at all,0,601.3192,,,[],,0,15,15,15,1,audio/Narrative8Situation6.wav,audio/Narrative7Situation6.wav,audio/Narrative6Situation6.wav,audio/Narrative5Situation6.wav,2,3,2,3,,,,,,,,,,,,,,,,,,,,,,,,,,,,,,,,,,,,,,
,,,,,,5ccc60abe787e000167f8143,2024-02-06_11h30.03.357,group3.1-3.2-social-tom,2023.2.2,Win32,144.9275362,65b1b24e3a500fd6b5dc9abd,65c25d20672b763e9664d190,,,,,,,,,,,,,,,,,,,,,,,,,,,,,601.3194,606.3253,,606.3253,623.4853,"[[999,4],[999,83],[999,166],[999,250],[999,333],[51.5,416],[50.1,500],[49.6,583],[49.2,666],[49.1,750],[49,833],[48.9,916],[48.9,1000],[49.1,1083],[51.4,1166],[58.1,1250],[59.4,1333],[59.2,1416],[53.4,1500],[48.3,1583],[48.3,1666],[49.3,1750],[48.6,1833],[23,1916],[11.3,2000],[12.4,2083],[11.2,2166],[10.6,2666],[73.1,3000],[72.9,3083],[73.2,3166],[82.2,3250],[85.3,3333],[85.4,3416],[85.4,3500],[85.2,3583],[85.2,3666],[86.1,3750],[86.8,3833],[90.4,3916],[90.9,4000],[90.9,4083],[86,4166],[82.3,4250],[84.1,4333],[89.3,4416],[89.6,4500],[89.6,4583],[89.6,4666],[89.6,4750],[89.7,4833],[89.9,4916],[90,5000],[93.2,5083],[93.4,5166],[93.4,5250],[93.3,5333],[93.1,5416],[93.1,5500],[93.2,5583],[93,5666],[89,5750],[84,5833],[74.4,5916],[71.8,6000],[68.1,6083],[63.4,6166],[59.1,6250],[54.2,6333],[53.4,6416],[52.7,6500],[50.6,6583],[49.7,6666],[49.7,6750],[49.8,6833],[49.8,6916],[49.9,7000],[49.7,7083],[49.7,7166],[48,7250],[32.6,7333],[31.3,7416],[27.6,7500],[23.2,7583],[22.8,7666],[22.8,7750],[22.8,7833],[22,7916],[22,8000],[22,8083],[18.1,8166],[2.4,8250],[2.1,8333],[2.7,8416],[6.3,8500],[9.2,8583],[15,8666],[24.9,8750],[27.3,8833],[29.5,8916],[38.5,9000],[49.6,9083],[49.8,9166],[50.2,9250],[50.2,9333],[50,9416],[49.8,9500],[49.8,9583],[49.8,9666],[49.8,9750],[49.4,9833],[48.9,9916],[48.7,10000],[48.7,10083],[49.8,10166],[50.3,10250],[50.3,10333],[50.3,10416],[50.3,10500],[57,10583],[63.6,10666],[64.7,10750],[72.1,10833],[75.4,10916],[76.3,11000],[77.7,11083],[77.7,11166],[77.7,11250],[77.7,11333],[77.7,11416],[77.7,11500],[77.7,11583],[77.6,11666],[77.6,11750],[77.6,11833],[77.6,11916],[77.6,12000],[77.6,12083],[77.6,12166],[77.6,12250],[77.6,12333],[76.6,12416],[74.1,12500],[74.1,12583],[74.1,12666],[74.1,12750],[74.1,12833],[74.1,12916],[74.1,13000],[74.1,13083],[74.1,13166],[74.2,13250],[74.3,13333],[74.3,13416],[74.3,13500],[74.3,13583],[74.3,13666],[74.3,13750],[72.3,13833],[63,13916],[56.7,14000],[52.5,14083],[52,14166],[51.5,14250],[51.6,14333],[51.5,14416],[49,14500],[50.5,14583],[75.9,14666],[80.9,14750],[81.3,14833],[84.4,14916],[86.7,15000],[93.7,15083],[96.2,15166],[96.2,15250],[97,15333],[98.4,15416],[99.5,15500],[99.5,15583],[99.5,15666],[99.5,15750],[99.4,15833],[99.3,15916],[99.3,16000],[99.3,16083],[99.3,16166],[99.3,16250],[99.3,16333],[99.3,16416],[99.3,16500],[99.3,16583],[99.3,16666],[99.3,16750],[99.3,16833],[99.2,16916],[98,17000],[97.9,17083]]",1,0,623.4854,628.6103,100,4.3101,"[{""rating"":99.6875,""responseTime"":3.6721000000238746},{""rating"":100,""responseTime"":4.310100000023795}]",space,4.6043,,628.6104,Definitely yes,100,628.6117,,,[],,0,16,16,16,1,audio/Narrative8Situation7.wav,audio/Narrative7Situation7.wav,audio/Narrative6Situation7.wav,audio/Narrative5Situation7.wav,3,5,5,4,,,,,,,,,,,,,,,,,,,,,,,,,,,,,,,,,,,,,,
,,,,,,5ccc60abe787e000167f8143,2024-02-06_11h30.03.357,group3.1-3.2-social-tom,2023.2.2,Win32,144.9275362,65b1b24e3a500fd6b5dc9abd,65c25d20672b763e9664d190,,,,,,,,,,,,,,,,,,,,,,,,,,,,,628.6118,630.6172,,630.6173,640.6243,"[[999,0],[999,83],[999,166],[11.6,750],[19.9,833],[31.8,916],[38,1000],[49.1,1083],[50.5,1166],[50.2,1249],[50.2,1333],[50.2,1416],[50.2,1499],[50.2,1583],[41.6,1666],[35.2,1750],[24.4,1833],[13.5,1916],[13.3,1999],[9.1,2083],[0.1,2166],[1.6,2249],[64.7,2500],[48.6,2583],[48.2,2666],[48.4,2750],[50,2833],[50,2916],[50,2999],[50,3083],[50,3166],[49.2,3249],[49.2,3333],[49.2,3416],[49.2,3500],[49.4,3583],[49.8,3666],[49.9,3749],[49.4,3833],[45.5,3916],[39.2,4000],[30.5,4083],[22.3,4166],[13.9,4250],[13,4333],[11.8,4416],[33.5,4500],[55.4,4583],[55.3,4666],[54.5,4750],[48.6,4833],[48.6,4916],[48.8,5000],[48.8,5083],[49.1,5166],[49.4,5250],[49.4,5333],[49.4,5416],[49.5,5500],[49.5,5583],[49.5,5666],[49.5,5750],[52.3,5833],[80.7,5916],[84.6,6000],[90.8,6083],[94.1,6166],[96.8,6250],[98.1,6333],[99.6,6416],[99.7,6500],[99.7,6583],[99.7,6666],[99.7,6749],[99.7,6833],[99.7,6916],[99.7,7000],[99.7,7083],[99.7,7166],[99.7,7249],[99.7,7333],[99.5,7416],[99.5,7500],[99.5,7583],[99.5,7666],[99.5,7750],[99.5,7833],[99.6,7916],[99.6,8000],[99.6,8083],[99.6,8166],[99.6,8250],[99.6,8333],[99.5,8416],[99.5,8500],[99.5,8583],[99.5,8666],[99.5,8749],[99.5,8833],[99.5,8916],[99.5,9000],[99.5,9083],[99.4,9166],[99.4,9250],[99.4,9333],[99.1,9416],[99.1,9500],[99.1,9583],[99.3,9666],[99.8,9750],[99.8,9833],[99.8,9916],[99.8,10000]]",1,0,640.6244,644.8048,99.609375,2.353,"[{""rating"":99.609375,""responseTime"":2.352999999999952}]",space,3.6726,,644.8049,Partially,50,644.8063,,,[],,0,17,17,17,1,audio/Narrative8Situation8.wav,audio/Narrative7Situation8.wav,audio/Narrative6Situation8.wav,audio/Narrative5Situation8.wav,3,2,5,3,,,,,,,,,,,,,,,,,,,,,,,,,,,,,,,,,,,,,,
,,,,,,5ccc60abe787e000167f8143,2024-02-06_11h30.03.357,group3.1-3.2-social-tom,2023.2.2,Win32,144.9275362,65b1b24e3a500fd6b5dc9abd,65c25d20672b763e9664d190,,,,,,,,,,,,,,,,,,,,,,,,,,,,,644.8063,646.8118,,646.8119,655.43,"[[999,0],[999,83],[999,166],[999,249],[999,333],[999,416],[999,499],[999,583],[50.2,666],[50.8,749],[50.8,833],[50.6,916],[50.6,999],[50.2,1083],[50.2,1166],[50.2,1249],[50.2,1333],[50.2,1416],[50.4,1499],[50.4,1583],[46.3,1666],[40.5,1750],[41.8,1833],[47.3,1916],[48.7,2000],[50.1,2083],[50.2,2166],[54.8,2249],[74.8,2333],[86.5,2416],[93.4,2500],[99.5,2583],[100,2666],[100,2750],[100,2833],[100,2916],[100,3000],[100,3083],[100,3166],[100,3249],[100,3333],[100,3416],[100,3500],[100,3583],[100,3666],[100,3749],[100,3833],[100,3916],[100,3999],[100,4083],[100,4166],[100,4249],[100,4333],[100,4416],[100,4499],[100,4583],[100,4666],[100,4749],[100,4833],[100,4916],[100,5000],[100,5083],[100,5166],[100,5249],[100,5333],[100,5416],[100,5499],[100,5583],[100,5666],[100,5749],[100,5833],[100,5916],[100,6000],[100,6083],[100,6166],[100,6249],[100,6333],[100,6416],[100,6499],[100,6583],[100,6666],[100,6750],[100,6833],[100,6916],[100,6999],[100,7083],[100,7166],[100,7250],[100,7333],[100,7416],[100,7499],[100,7583],[100,7666],[100,7750],[100,7833],[100,7916],[100,8000],[100,8083],[100,8166],[100,8250],[100,8333],[100,8416],[100,8500],[100,8583]]",1,0,655.4301,658.2078,100,1.8174,"[{""rating"":99.375,""responseTime"":1.3044000000356846},{""rating"":100,""responseTime"":1.8174000000357182}]",space,2.2598,,658.2079,Definitely yes,100,658.2093,,,[],,0,18,18,18,1,audio/Narrative8Situation9.wav,audio/Narrative7Situation9.wav,audio/Narrative6Situation9.wav,audio/Narrative5Situation9.wav,3,2,4,3,,,,,,,,,,,,,,,,,,,,,,,,,,,,,,,,,,,,,,
,,,,,,5ccc60abe787e000167f8143,2024-02-06_11h30.03.357,group3.1-3.2-social-tom,2023.2.2,Win32,144.9275362,65b1b24e3a500fd6b5dc9abd,65c25d20672b763e9664d190,,,,,,,,,,,,,,,,,,,,,,,,,,,661.0207,663.5967,663.6023,663.6023,,663.6023,693.3402,"[[999,0],[999,77],[999,161],[999,244],[999,327],[999,410],[999,494],[999,577],[999,660],[999,744],[999,827],[999,910],[66.8,994],[22.2,7161],[31.1,7244],[31.6,7327],[32.8,7411],[45.1,7494],[47.3,7577],[49.1,7661],[49.7,7744],[49.7,7827],[78.8,7911],[89.5,7994],[89.5,8077],[98.7,8161],[100,8327],[100,8411],[100,8577],[100,8661],[100,8744],[100,8827],[100,8911],[100,8994],[100,9077],[100,9161],[100,9244],[100,9327],[100,9411],[100,9494],[100,9577],[100,9661],[100,9744],[100,9827],[99.1,9911],[99.1,9994],[99.1,10077],[99.9,10161],[99.9,10244],[100,10327],[100,10411],[100,10494],[99.5,10577],[99.5,10661],[99.5,10744],[99.5,10827],[99.5,10911],[99.5,10994],[99.5,11077],[99.5,11161],[99.5,11244],[99.5,11327],[99.5,11411],[99.5,11494],[99.5,11577],[99.5,11661],[99.5,11744],[99.5,11827],[99.5,11911],[99.5,11994],[99.5,12077],[99.5,12161],[99.5,12244],[99.5,12327],[99.5,12411],[99.5,12494],[99.5,12577],[94,12661],[89.3,12744],[77.7,12827],[60.2,12911],[47.3,12994],[45.5,13077],[58.5,13161],[94.5,13244],[95.9,13327],[100,13411],[100,13494],[100,13577],[100,13661],[100,13744],[100,13827],[100,13911],[100,13994],[100,14077],[99.9,14161],[99.9,14244],[99.9,14327],[99.8,14411],[99.8,14494],[99.8,14577],[99.8,14661],[99.8,14744],[99.6,14827],[99.6,14911],[99.4,14994],[99.2,15077],[99.2,15161],[99.1,15244],[99.1,15327],[99.1,15411],[99.1,15494],[99.1,15577],[90.2,15661],[56.1,15827],[39.3,15911],[38.1,15994],[28.2,16077],[5.5,16161],[3.8,16244],[8.7,16494],[8.4,16577],[0.9,16661],[1.2,16911],[1.6,16994],[1.6,17077],[1.3,17161],[0.3,17244],[0.2,17327],[0.2,17411],[0.2,17494],[0.2,17577],[0.2,17661],[0.5,17744],[0.6,17827],[0.6,17911],[0.9,17994],[0.9,18077],[0.9,18161],[0.9,18244],[0.6,18327],[0.5,18411],[0.5,18494],[0.5,18577],[0.6,18661],[0.6,18744],[0.6,18827],[0.6,18911],[0.6,18994],[0.6,19077],[0.7,19161],[0.7,19244],[0.7,19327],[0.7,19411],[0.7,19494],[0.7,19577],[0.7,19661],[0.7,19744],[0.7,19827],[0.7,19911],[0.7,19994],[0.7,20077],[0.7,20161],[0.7,20244],[0.7,20327],[0.7,20411],[0.7,20494],[0.8,20577],[0.8,20661],[0.8,20744],[0.8,20827],[0.8,20911],[0.8,20994],[0.8,21077],[0.8,21161],[0.8,21244],[0.8,21327],[0.8,21411],[0.8,21494],[0.8,21577],[0.8,21661],[0.8,21744],[0.8,21827],[0.8,21911],[0.8,21994],[0.8,22077],[0.8,22161],[0.8,22244],[0.8,22327],[0.8,22411],[0.8,22494],[0.8,22577],[0.8,22661],[0.8,22744],[0.8,22827],[0.8,22911],[0.8,22994],[1,23077],[1.1,23161],[1.1,23244],[1.1,23327],[1.1,23411],[1,23494],[1,23577],[1,23661],[0.9,23744],[0.9,23827],[0.7,23911],[0.7,23994],[0.6,24078],[0.5,24161],[0.5,24244],[0.5,24327],[0.5,24411],[0.5,24494],[0.5,24577],[0.5,24661],[0.5,24744],[0.6,24827],[0.6,24911],[0.6,24994],[0.6,25077],[0.6,25161],[0.6,25244],[0.6,25327],[0.6,25411],[0.6,25494],[0.6,25577],[0.6,25661],[0.6,25744],[0.6,25827],[0.6,25911],[0.6,25994],[0.6,26077],[0.6,26161],[0.6,26244],[0.6,26327],[0.6,26411],[0.6,26494],[0.6,26577],[0.6,26661],[0.5,26744],[0.5,26827],[0.5,26911],[0.4,26994],[0.4,27077],[0.4,27161],[0.4,27244],[0.4,27327],[0.4,27411],[0.4,27494],[0.4,27577],[0.4,27661],[0.4,27744],[0.4,27827],[0.4,27911],[0.4,27994],[0.4,28077],[0.4,28161],[0.4,28244],[0.4,28327],[0.4,28411],[0.4,28494],[0.4,28577],[0.4,28661],[0.4,28744],[0.4,28827],[0.4,28911],[0.4,28994],[0.4,29078],[0.4,29161],[0.4,29244],[0.2,29327],[0.2,29411],[0.2,29494],[0.2,29577],[0.2,29661]]",1,0,693.3403,693.3413,,,[],,,,693.3413,Not at all,0,693.3422,,,[],,0,0,0,0,1,audio/Narrative13Situation2.wav,audio/Narrative13Situation2.wav,audio/Narrative13Situation2.wav,audio/Narrative13Situation2.wav,2,2,2,2,,,,,658.2097,661.0205,space,2.3009,,,,,,,,,,,,,,,,,,,,,,,,,,,,,,
,,,,,,5ccc60abe787e000167f8143,2024-02-06_11h30.03.357,group3.1-3.2-social-tom,2023.2.2,Win32,144.9275362,65b1b24e3a500fd6b5dc9abd,65c25d20672b763e9664d190,,,,,,,,,,,,,,,,,,,,,,,,,,,,,693.3423,695.347,,695.347,721.9169,"[[8.9,249],[8.9,333],[8.9,416],[8.9,500],[8.9,583],[8.7,666],[4,750],[3.4,833],[3.4,916],[2.8,1000],[2,1083],[2,1166],[2,1250],[1.9,1333],[1.2,1416],[1.1,1500],[1.5,1583],[14.8,1666],[26.3,1750],[25.6,1833],[22.9,1916],[17,2000],[2.3,2083],[1,2166],[2.6,2250],[52,2666],[45.5,2750],[36.6,2833],[37.4,2916],[36.1,3000],[17.8,3083],[8.9,3166],[7.7,3250],[5,3333],[2.3,3416],[2.1,3500],[0.7,3583],[0.1,3666],[0.5,3750],[1,3833],[1,3916],[0.9,4000],[0.8,4083],[0.7,4166],[1.3,4250],[1.3,4333],[1.1,4416],[0.7,4500],[0.6,4583],[0.5,4666],[0.5,4750],[3.1,4833],[34,4916],[55.2,5166],[64.6,5250],[84.3,5333],[98.2,5416],[98.2,5500],[98.2,5583],[98.2,5666],[98.2,5750],[100,5833],[100,5916],[100,6000],[99.8,6083],[99.3,6166],[99.4,6250],[100,6333],[100,6416],[100,6500],[100,6583],[100,6666],[100,6750],[100,6833],[100,6916],[100,7000],[100,7083],[100,7166],[100,7250],[100,7333],[100,7416],[100,7500],[100,7583],[100,7666],[100,7750],[100,7833],[100,7916],[100,8000],[100,8083],[96,8166],[58.5,8250],[50.9,8333],[49.7,8416],[46.2,8500],[53,8583],[72.1,8666],[90.4,8750],[92,8833],[97.3,8916],[97.4,9000],[97.4,9083],[100,9166],[100,9250],[100,9333],[100,9416],[100,9500],[100,9583],[100,9666],[100,9750],[100,9833],[100,9916],[100,10000],[100,10083],[100,10166],[99.9,10250],[99.9,10333],[99.9,10416],[99.9,10500],[98.3,10583],[63.7,10666],[32.5,10750],[34.7,10833],[36,10916],[35.5,11000],[23,11083],[10.8,11416],[12.7,11500],[15.2,11583],[15.2,11666],[12.9,11750],[3.7,11833],[2.6,11916],[2.6,12000],[2.7,12083],[2.7,12166],[3,12250],[0.1,12667],[0.2,12750],[0.2,12833],[0.2,12916],[0.2,13000],[0.2,13083],[0.2,13166],[0.2,13250],[0.2,13333],[0.2,13416],[0.2,13500],[0.2,13583],[3.9,13666],[64.5,13916],[51.3,14000],[48.6,14083],[48.6,14166],[48.7,14250],[48.8,14333],[50.5,14416],[50.5,14500],[50.2,14583],[43.8,14666],[6,14750],[3.2,14833],[2.1,14916],[0.1,15750],[0.2,15833],[0.2,15916],[0.2,16000],[0.2,16083],[0.2,16166],[0.2,16250],[0.2,16333],[0.2,16416],[0.2,16500],[0.2,16583],[0.2,16666],[0.2,16750],[0.3,16833],[0.4,16916],[0.4,17000],[0.4,17083],[0.4,17166],[0.2,17250],[0.2,17333],[0.2,17416],[0.2,17500],[0.2,17583],[0.2,17666],[0.2,17750],[0.2,17833],[0.2,17916],[0.3,18000],[0.3,18083],[0.4,18166],[0.4,18250],[0.5,18333],[0.8,18416],[1.1,18500],[1.2,18583],[1.3,18666],[1.3,18750],[1.1,18833],[0.8,18916],[0.7,19000],[0.6,19083],[0.5,19166],[0.5,19250],[0.5,19333],[0.5,19416],[0.5,19500],[0.5,19583],[0.5,19666],[0.6,19750],[0.6,19833],[0.6,19916],[0.6,20000],[0.6,20083],[0.6,20166],[0.6,20250],[0.6,20333],[0.6,20416],[0.6,20500],[0.6,20583],[0.6,20666],[0.6,20750],[10.4,20833],[19.1,20916],[17,21000],[7.2,21083],[1.5,21500],[1.9,21583],[12,21666],[34.1,21750],[46.3,21833],[47.9,21916],[48.4,22000],[48.4,22083],[48.4,22166],[49.1,22250],[49.1,22333],[49.1,22416],[49.1,22500],[45.4,22583],[32.7,22666],[26.7,22750],[24.1,22833],[24.1,22916],[33.9,23000],[52.7,23083],[54.1,23166],[54.1,23250],[53,23333],[51.4,23416],[51.3,23500],[51.3,23583],[50.8,23666],[50.4,23750],[50.4,23833],[50.2,23916],[48.6,24000],[40.5,24083],[39.8,24166],[49.3,24250],[49.8,24333],[49.8,24416],[49.8,24500],[49.8,24583],[50.3,24666],[50.5,24750],[50.1,24833],[35.9,24916],[28.6,25000],[28,25083],[14.1,25166],[12.7,25250],[12.6,25333],[11.8,25416],[7,25500],[12.3,25583],[13.6,25666],[13.3,25750],[13.1,25833],[9.2,25916],[4.5,26000],[4.3,26083],[4.1,26166],[4.1,26250],[4.1,26333],[4,26416],[3.9,26500]]",1,0,721.917,725.8959,0,3.0446,"[{""rating"":0,""responseTime"":3.04460000002382}]",space,3.464,,725.896,Not at all,0,725.8968,,,[],,0,1,1,1,1,audio/Narrative7Situation1.wav,audio/Narrative8Situation1.wav,audio/Narrative5Situation1.wav,audio/Narrative6Situation1.wav,2,5,5,2,,,,,,,,,,,,,,,,,,,,,,,,,,,,,,,,,,,,,,
,,,,,,5ccc60abe787e000167f8143,2024-02-06_11h30.03.357,group3.1-3.2-social-tom,2023.2.2,Win32,144.9275362,65b1b24e3a500fd6b5dc9abd,65c25d20672b763e9664d190,,,,,,,,,,,,,,,,,,,,,,,,,,,,,725.8969,728.9029,,728.903,757.3893,"[[999,0],[999,83],[999,166],[999,249],[999,333],[999,416],[51.2,499],[51.3,583],[51.1,666],[30.8,749],[6.3,833],[60.4,1333],[54.7,1416],[45.4,1499],[22,1583],[4.7,1666],[1,1749],[0.9,1833],[0.9,1916],[0.9,1999],[0.9,2083],[0.9,2166],[0.9,2249],[0.9,2333],[0.9,2416],[0.9,2499],[0.9,2583],[0.9,2666],[0.9,2749],[0.9,2833],[0.9,2916],[0.9,2999],[0.9,3083],[0.9,3166],[0.9,3249],[0.9,3333],[0.9,3416],[0.9,3499],[0.9,3583],[0.9,3666],[0.9,3749],[0.9,3833],[0.9,3916],[0.9,3999],[0.9,4083],[0.8,4166],[0.8,4250],[0.8,4333],[0.8,4416],[0.9,4499],[0.9,4583],[0.9,4666],[0.9,4749],[0.9,4833],[0.9,4916],[0.9,4999],[0.9,5083],[0.9,5166],[0.9,5249],[0.9,5333],[0.9,5416],[0.9,5500],[0.9,5583],[0.9,5666],[0.9,5749],[0.9,5833],[0.9,5916],[0.9,5999],[0.9,6083],[0.9,6166],[0.9,6250],[0.9,6333],[0.9,6416],[0.9,6499],[0.9,6583],[0.9,6666],[0.9,6749],[0.9,6833],[0.9,6916],[0.9,6999],[0.9,7083],[0.9,7166],[0.9,7250],[0.9,7333],[0.9,7416],[0.9,7499],[0.9,7583],[1,7666],[1.6,7749],[1.6,7833],[1.7,7916],[1.7,8000],[1.8,8083],[1.8,8166],[1.8,8250],[1.8,8333],[1.9,8416],[1.9,8500],[1.9,8583],[1.9,8666],[1.9,8749],[2,8833],[4.6,8916],[5,8999],[5,9083],[5,9166],[4.5,9250],[3.3,9333],[1.8,9416],[1.6,9499],[1.6,9583],[1.5,9666],[1.6,9750],[1.8,9833],[1.8,9916],[2.1,9999],[2.1,10083],[2.1,10166],[2.1,10250],[2.1,10333],[2.2,10416],[2.2,10499],[2.2,10583],[2.2,10666],[2.2,10750],[2.2,10833],[2.2,10916],[2.2,11000],[2.1,11083],[2.1,11166],[2.1,11249],[2.1,11333],[2.1,11416],[3.7,11500],[17.9,11583],[14.8,11666],[3.2,11750],[2.6,11833],[1.7,11916],[1.6,12000],[1.6,12083],[1.8,12166],[2.5,12249],[2.5,12333],[2.2,12416],[2.1,12500],[2,12583],[2,12666],[2,12749],[2,12833],[2.1,12916],[2.2,12999],[3.2,13083],[10.2,13166],[17.8,13250],[29.7,13333],[36.6,13416],[38.9,13500],[45.2,13583],[48.4,13666],[48.8,13750],[49.3,13833],[49.3,13916],[49.3,14000],[49.3,14083],[51.2,14166],[51.9,14250],[51.9,14333],[51.7,14416],[51.5,14500],[51,14583],[50.9,14666],[50.9,14750],[50.8,14833],[50.8,14916],[50.5,15000],[48.8,15083],[48.4,15166],[48.4,15250],[48.6,15333],[48.6,15416],[48.6,15500],[48.9,15583],[49.4,15666],[49.4,15750],[49.5,15833],[49.6,15916],[49.8,16000],[49.9,16083],[49.9,16166],[49.9,16250],[49.9,16333],[49.9,16416],[50.2,16500],[50.3,16583],[50.3,16666],[50.3,16750],[50.3,16833],[50.3,16916],[50.3,17000],[50.3,17083],[50.4,17166],[50.4,17250],[50.4,17333],[50.5,17416],[50.8,17500],[63.1,17583],[94.6,17666],[95.1,17750],[97.3,17833],[100,17916],[100,18000],[100,18083],[100,18166],[100,18250],[100,18333],[100,18416],[100,18500],[100,18583],[100,18666],[100,18750],[100,18833],[100,18916],[100,19000],[100,19083],[100,19166],[100,19250],[100,19333],[100,19416],[100,19500],[100,19583],[100,19666],[100,19750],[100,19833],[100,19916],[100,20000],[100,20083],[100,20166],[100,20250],[100,20333],[100,20416],[100,20500],[100,20583],[100,20666],[100,20750],[100,20833],[100,20916],[100,21000],[100,21083],[100,21166],[100,21250],[100,21333],[100,21416],[100,21500],[100,21583],[100,21666],[100,21750],[100,21833],[100,21916],[100,22000],[100,22083],[100,22166],[100,22250],[100,22333],[100,22416],[100,22500],[100,22583],[100,22666],[100,22750],[100,22833],[100,22916],[100,23000],[100,23083],[100,23166],[100,23250],[100,23333],[100,23416],[100,23500],[100,23583],[100,23666],[100,23750],[100,23833],[100,23916],[100,24000],[100,24083],[100,24166],[100,24250],[100,24333],[100,24416],[100,24500],[100,24583],[100,24666],[100,24750],[100,24833],[100,24916],[100,25000],[100,25083],[100,25166],[100,25250],[100,25333],[100,25416],[100,25500],[100,25583],[100,25666],[100,25750],[100,25833],[100,25916],[100,26000],[100,26083],[100,26166],[100,26250],[100,26333],[100,26416],[100,26500],[100,26583],[100,26666],[100,26750],[100,26833],[100,26916],[100,27000],[100,27083],[100,27166],[100,27250],[100,27333],[100,27416],[100,27500],[100,27583],[100,27666],[100,27750],[100,27833],[100,27916],[100,28000],[100,28083],[100,28166],[100,28250],[100,28333],[100,28416]]",1,0,757.3894,760.7713,100,2.6638,"[{""rating"":99.921875,""responseTime"":1.3830000000000382},{""rating"":100,""responseTime"":2.663800000011861}]",space,2.8668,,760.7713,Definitely yes,100,760.7726,,,[],,0,2,2,2,1,audio/Narrative7Situation2.wav,audio/Narrative8Situation2.wav,audio/Narrative5Situation2.wav,audio/Narrative6Situation2.wav,3,3,3,3,,,,,,,,,,,,,,,,,,,,,,,,,,,,,,,,,,,,,,
,,,,,,5ccc60abe787e000167f8143,2024-02-06_11h30.03.357,group3.1-3.2-social-tom,2023.2.2,Win32,144.9275362,65b1b24e3a500fd6b5dc9abd,65c25d20672b763e9664d190,,,,,,,,,,,,,,,,,,,,,,,,,,,,,760.7728,765.7783,,765.7783,778.3756,"[[999,4],[999,83],[999,166],[999,249],[999,333],[999,416],[999,499],[999,583],[999,666],[23,750],[2.3,1083],[3.9,1166],[2.3,1250],[1.3,1333],[1,1416],[0.9,1500],[0.6,1583],[0.6,1666],[0.4,1750],[0.2,1833],[0.2,1916],[0.2,1999],[0.2,2083],[0.2,2166],[0.2,2250],[0.7,2333],[0.7,2416],[0.7,2499],[0.7,2583],[0.3,2666],[0.1,2749],[0.1,2833],[9.8,6583],[48.7,6666],[62.3,6750],[70.5,6833],[74.5,6916],[98.8,7000],[99.9,7083],[99.9,7166],[99.9,7250],[99.9,7333],[99.9,7416],[99.9,7500],[99.9,7583],[100,7666],[100,7750],[100,7833],[100,7916],[100,8000],[100,8083],[100,8166],[100,8250],[100,8333],[100,8416],[100,8500],[100,8583],[100,8666],[100,8749],[100,8833],[100,8916],[100,9000],[100,9083],[100,9166],[100,9250],[100,9333],[100,9416],[100,9500],[100,9583],[100,9666],[100,9750],[100,9833],[100,9916],[100,10000],[100,10083],[100,10166],[100,10250],[100,10333],[100,10416],[100,10500],[100,10583],[100,10666],[100,10750],[100,10833],[100,10916],[100,11000],[100,11083],[100,11166],[100,11250],[100,11333],[100,11416],[100,11500],[100,11583],[100,11666],[100,11750],[100,11833],[100,11916],[100,12000],[100,12083],[100,12166],[100,12250],[100,12333],[100,12416],[100,12500],[100,12583]]",1,0,778.3757,781.5632,99.84375,1.1255,"[{""rating"":99.84375,""responseTime"":1.1254999999998745}]",space,2.6689,,781.5633,Definitely yes,100,781.564,,,[],,0,3,3,3,1,audio/Narrative7Situation3.wav,audio/Narrative8Situation3.wav,audio/Narrative5Situation3.wav,audio/Narrative6Situation3.wav,8,4,3,5,,,,,,,,,,,,,,,,,,,,,,,,,,,,,,,,,,,,,,
,,,,,,5ccc60abe787e000167f8143,2024-02-06_11h30.03.357,group3.1-3.2-social-tom,2023.2.2,Win32,144.9275362,65b1b24e3a500fd6b5dc9abd,65c25d20672b763e9664d190,,,,,,,,,,,,,,,,,,,,,,,,,,,,,781.5641,783.5702,,783.5702,796.1675,"[[999,0],[999,83],[999,166],[999,249],[999,333],[999,416],[999,499],[999,583],[1.4,833],[1.4,916],[1.3,1000],[0.9,1083],[0.6,1166],[0.6,1249],[0.6,1333],[0.5,1416],[0.5,1499],[0.5,1583],[0.5,1666],[0.5,1749],[0.5,1833],[0.5,1916],[0.5,1999],[0.5,2083],[0.5,2166],[0.5,2249],[0.5,2333],[0.5,2416],[0.5,2499],[0.5,2583],[0.5,2666],[0.5,2749],[0.5,2833],[0.5,2916],[0.5,2999],[0.5,3083],[0.5,3166],[0.6,3250],[6.6,3333],[7.2,3416],[5,3500],[4.9,3583],[39.5,3666],[53.4,3749],[38.4,3833],[0.1,4333],[1.4,4416],[1.4,4499],[1.1,4583],[0.7,4666],[0.5,4750],[0.5,4833],[0.5,4916],[0.5,4999],[0.3,5083],[0.3,10499],[97.6,10750],[100,10833],[100,10916],[100,11000],[100,11083],[100,11166],[100,11250],[94.5,11333],[60.6,11416],[54.2,11500],[51.3,11583],[50.9,11666],[50.9,11750],[50.7,11833],[50.7,11916],[50.7,12000],[50.7,12083],[50.7,12166],[50.7,12249],[50.9,12333],[52,12416],[52.1,12500],[52.1,12583]]",1,0,796.1676,798.73,49.921875,1.1239,"[{""rating"":49.921875,""responseTime"":1.1239000000357464}]",space,2.0436,,798.7301,Definitely yes,100,798.7309,,,[],,0,4,4,4,1,audio/Narrative7Situation4.wav,audio/Narrative8Situation4.wav,audio/Narrative5Situation4.wav,audio/Narrative6Situation4.wav,3,3,1,2,,,,,,,,,,,,,,,,,,,,,,,,,,,,,,,,,,,,,,
,,,,,,5ccc60abe787e000167f8143,2024-02-06_11h30.03.357,group3.1-3.2-social-tom,2023.2.2,Win32,144.9275362,65b1b24e3a500fd6b5dc9abd,65c25d20672b763e9664d190,,,,,,,,,,,,,,,,,,,,,,,,,,,,,798.7309,800.737,,800.737,808.6815,"[[49.4,2500],[50.8,2583],[48.8,2666],[48.8,2749],[43,2833],[34.1,2916],[39.4,3000],[42.7,3083],[45,3166],[47,3250],[51.4,3333],[51.5,3416],[50.9,3499],[49.8,3583],[48,3666],[48,3749],[48,3833],[48.4,3916],[49.1,3999],[49.1,4083],[46.7,4166],[40.5,4250],[38.9,4333],[34.2,4416],[39.5,4500],[50.5,4833],[49.8,4916],[49.6,4999],[49.6,5083],[49.6,5166],[49.6,5249],[49.6,5333],[49.6,5416],[49.6,5499],[49.6,5583],[49.6,5666],[49.6,5749],[49.6,5833],[49.6,5916],[49.6,5999],[49.6,6083],[49.6,6166],[49.6,6249],[49.6,6333],[49.6,6416],[49.6,6500],[49.6,6583],[49.6,6666],[49.6,6750],[49.6,6833],[49.6,6916],[49.6,7000],[49.6,7083],[49.6,7166],[49.6,7249],[49.6,7333],[49,7416],[39.8,7500],[31.1,7583],[22.8,7666],[22.7,7750],[22.7,7833],[22.7,7916]]",1,0,808.6816,811.4801,0,2.1469,"[{""rating"":0.3124999999999989,""responseTime"":1.5889999999999418},{""rating"":0,""responseTime"":2.1468999999760854}]",space,2.2837,,811.4801,Definitely yes,100,811.4809,,,[],,0,5,5,5,1,audio/Narrative7Situation5.wav,audio/Narrative8Situation5.wav,audio/Narrative5Situation5.wav,audio/Narrative6Situation5.wav,5,2,5,2,,,,,,,,,,,,,,,,,,,,,,,,,,,,,,,,,,,,,,
,,,,,,5ccc60abe787e000167f8143,2024-02-06_11h30.03.357,group3.1-3.2-social-tom,2023.2.2,Win32,144.9275362,65b1b24e3a500fd6b5dc9abd,65c25d20672b763e9664d190,,,,,,,,,,,,,,,,,,,,,,,,,,,,,811.4811,813.4871,,813.4871,824.5498,"[[1.5,416],[3.8,500],[0.8,583],[0.5,666],[0.5,749],[0.5,833],[8,916],[38.4,1000],[50.2,1083],[50.5,1166],[50.5,1249],[50.5,1333],[50.5,1416],[50.5,1500],[50.5,1583],[50.5,1666],[50.5,1750],[50.5,1833],[50.5,1916],[50.4,2000],[50.3,2083],[49.9,2166],[49.4,2249],[49.4,2333],[49.4,2416],[49.4,2499],[49.4,2583],[48.7,2666],[34.9,2750],[27,2833],[17.8,2916],[6.7,3000],[7.3,3083],[7.3,3166],[3.3,3250],[1.1,3333],[0.5,3416],[7.2,3500],[31.6,3583],[35.8,3666],[36.3,3750],[37.7,3833],[47.4,3916],[51.3,4000],[51.5,4083],[52,4166],[51.6,4250],[50.2,4333],[49.8,4416],[49.7,4499],[49.7,4583],[49.8,4666],[49.9,4750],[49.9,4833],[50,4916],[50.2,5000],[50.2,5083],[50.2,5166],[50.2,5249],[50.2,5333],[50.2,5416],[50.2,5500],[50.2,5583],[50.2,5666],[49.9,5750],[49.9,5833],[49.9,5916],[49.9,6000],[49.9,6083],[49.9,6166],[49.9,6250],[49.9,6333],[49.9,6416],[49.9,6499],[49.9,6583],[49.9,6666],[49.9,6749],[49.9,6833],[49.9,6916],[49.9,6999],[49.9,7083],[49.9,7166],[49.9,7249],[49.9,7333],[49.9,7416],[49.9,7500],[49.9,7583],[49.9,7666],[49.9,7750],[49.9,7833],[49.9,7916],[49.9,8000],[49.9,8083],[49.9,8166],[50.5,8250],[50.5,8333],[50.5,8416],[50.5,8500],[50.3,8583],[50.3,8666],[50.3,8750],[50.3,8833],[50.3,8916],[50.3,9000],[50.3,9083],[50.3,9166],[50.3,9250],[50.3,9333],[50.3,9416],[50.3,9500],[50.3,9583],[50.3,9666],[50.3,9750],[50.3,9833],[50.9,9916],[51,10000],[51.1,10083],[51.2,10166],[51.2,10250],[68.4,10333],[100,10416],[100,10500],[100,10583],[100,10666],[84.1,10750],[77.8,10833],[72,10916],[56.2,11000]]",1,0,824.5498,827.8552,49.609375,1.5169,"[{""rating"":49.609375,""responseTime"":1.5168999999762036}]",space,2.7874,,827.8552,Definitely yes,100,837.7234,100,3.8093,"[{""rating"":99.0625,""responseTime"":3.3371999999881155},{""rating"":100,""responseTime"":3.8093000000119446}]",space,0,6,6,6,1,audio/Narrative7Situation6.wav,audio/Narrative8Situation6.wav,audio/Narrative5Situation6.wav,audio/Narrative6Situation6.wav,3,2,3,2,,,9.3572,,,,,,,,,,,,,,,,,,,,,,,,,,,,,,,,,,,
,,,,,,5ccc60abe787e000167f8143,2024-02-06_11h30.03.357,group3.1-3.2-social-tom,2023.2.2,Win32,144.9275362,65b1b24e3a500fd6b5dc9abd,65c25d20672b763e9664d190,,,,,,,,,,,,,,,,,,,,,,,,,,,,,837.7277,842.7303,,842.7304,867.5709,"[[999,4],[999,83],[999,166],[999,249],[999,333],[999,416],[999,500],[999,583],[999,666],[999,750],[50.1,833],[50.4,916],[50.2,1000],[49.1,1083],[45.7,1166],[38.8,1250],[36.5,1333],[35,1416],[21.6,1500],[9,1583],[8.8,1666],[4.9,1750],[2.4,1833],[2.4,1916],[1.5,2000],[1.4,2083],[4.1,2166],[13.8,2250],[29.1,2333],[39.9,2416],[51.7,2500],[52.5,2583],[52.5,2666],[49.3,2750],[1.7,2833],[0.5,6000],[0.6,6083],[4.1,6166],[4.3,6250],[4.3,6333],[4.3,6416],[4.3,6500],[2.5,6583],[1.3,6666],[0.3,6750],[0.3,6833],[1.3,6916],[4.2,7000],[5.3,7083],[7.6,7166],[8.4,7250],[13.2,7333],[33.9,7416],[57,7500],[74.8,7583],[100,7666],[100,7750],[100,7833],[100,7916],[100,8000],[100,8083],[100,8166],[100,8250],[100,8333],[100,8416],[100,8500],[100,8583],[100,8666],[100,8750],[100,8833],[99.7,8916],[99.7,9000],[99.2,9083],[98.7,9166],[98.4,9250],[97.3,9333],[97.3,9416],[96.8,9500],[96.6,9583],[96.5,9666],[96.5,9750],[96.5,9833],[96.5,9916],[96.6,10000],[96.8,10083],[96.9,10166],[97.6,10250],[98.3,10333],[98.8,10416],[98.8,10500],[98.8,10583],[99.8,10666],[99.8,10750],[99.8,10833],[99.8,10916],[99.8,11000],[99.8,11083],[99.8,11166],[99.8,11250],[99.6,11333],[99.3,11416],[99.3,11500],[99.1,11583],[99,11666],[99,11750],[99,11833],[99,11916],[99,12000],[99,12083],[99,12166],[99,12250],[98.6,12333],[98.6,12416],[97.7,12500],[97.4,12583],[97.4,12666],[97,12750],[97,12833],[97,12916],[96.2,13000],[96.2,13083],[96.2,13166],[95.8,13250],[95.8,13333],[95.8,13416],[95.8,13500],[95.8,13583],[95.8,13666],[95.7,13750],[96.3,13833],[98.6,13916],[100,14000],[100,14083],[100,14166],[100,14250],[100,14333],[100,14416],[100,14500],[100,14583],[100,14666],[100,14750],[100,14833],[100,14916],[100,15000],[100,15083],[100,15166],[100,15250],[100,15333],[100,15416],[100,15500],[100,15583],[100,15666],[100,15750],[100,15833],[100,15916],[100,16000],[100,16083],[100,16166],[100,16250],[100,16333],[100,16416],[100,16500],[100,16583],[100,16666],[100,16750],[100,16833],[100,16916],[100,17000],[100,17083],[100,17166],[81.6,17250],[47.4,17333],[44.3,17416],[42.3,17500],[39.5,17583],[23,17666],[1.5,17916],[1.6,18000],[0.9,18083],[16.5,18333],[100,18750],[100,18833],[100,18916],[100,19000],[99.9,19083],[99.9,19166],[99.8,19250],[99.1,19333],[99.1,19416],[99.1,19500],[99.1,19583],[99.1,19666],[99.4,19750],[99.5,19833],[99.5,19916],[99.5,20000],[99.5,20083],[99.6,20166],[99.8,20250],[99.8,20333],[99.9,20416],[99.9,20500],[99.9,20583],[100,20666],[100,20750],[100,20833],[95.2,20916],[75.7,21000],[90.4,21083],[100,21500],[99.9,21583],[99.9,21666],[99.9,21750],[99.5,21833],[99.5,21916],[99.5,22000],[99.5,22083],[99.5,22166],[99.5,22250],[99.5,22333],[100,22416],[100,22500],[100,22583],[100,22666],[100,22750],[99.9,22833],[99.9,22916],[99.9,23000],[99.9,23083],[99.9,23166],[99.9,23250],[99.9,23333],[99.9,23416],[99.9,23500],[99.9,23583],[99.9,23666],[99.9,23750],[99.9,23833],[99.9,23916],[99.9,24000],[99.9,24083],[99.9,24166],[99.9,24250],[99.9,24333],[99.6,24416],[99.5,24500],[98,24583],[97.9,24666],[100,24750],[100,24833]]",1,0,867.571,871.2307,100,2.3296,"[{""rating"":97.890625,""responseTime"":1.4845000000000255},{""rating"":100,""responseTime"":2.3295999999641026}]",space,3.1437,,871.2307,Definitely yes,100,871.2314,,,[],,0,7,7,7,1,audio/Narrative7Situation7.wav,audio/Narrative8Situation7.wav,audio/Narrative5Situation7.wav,audio/Narrative6Situation7.wav,5,3,4,5,,,,,,,,,,,,,,,,,,,,,,,,,,,,,,,,,,,,,,
,,,,,,5ccc60abe787e000167f8143,2024-02-06_11h30.03.357,group3.1-3.2-social-tom,2023.2.2,Win32,144.9275362,65b1b24e3a500fd6b5dc9abd,65c25d20672b763e9664d190,,,,,,,,,,,,,,,,,,,,,,,,,,,,,871.2316,876.2376,,876.2377,883.0781,"[[999,4],[999,83],[999,166],[999,250],[999,333],[999,416],[999,500],[0.3,2499],[0.3,2583],[0.3,2666],[0.3,2750],[0.3,2833],[0.4,2916],[0.5,3000],[0.5,3083],[0.5,3166],[0.5,3249],[0.5,3333],[1.6,3416],[17.6,3500],[27.2,3583],[26.8,3666],[12.3,3750],[1.6,3833],[0.5,3916]]",1,0,883.0781,884.8211,0,1.0955,"[{""rating"":0.8593750000000011,""responseTime"":0.6483999999761636},{""rating"":0,""responseTime"":1.0954999999999018}]",space,1.2326,,884.8212,Definitely yes,100,884.8221,,,[],,0,8,8,8,1,audio/Narrative7Situation8.wav,audio/Narrative8Situation8.wav,audio/Narrative5Situation8.wav,audio/Narrative6Situation8.wav,2,3,3,5,,,,,,,,,,,,,,,,,,,,,,,,,,,,,,,,,,,,,,
,,,,,,5ccc60abe787e000167f8143,2024-02-06_11h30.03.357,group3.1-3.2-social-tom,2023.2.2,Win32,144.9275362,65b1b24e3a500fd6b5dc9abd,65c25d20672b763e9664d190,,,,,,,,,,,,,,,,,,,,,,,,,,,,,884.8222,888.8281,,888.8281,898.7657,"[[999,4],[999,83],[999,166],[999,249],[999,333],[999,416],[5.4,500]]",1,0,898.7657,900.2518,0,0.9269,"[{""rating"":0.07812500000000111,""responseTime"":0.5494999999998527},{""rating"":0,""responseTime"":0.9268999999760581}]",space,0.9724,,900.2519,Partially,50,900.253,,,[],,0,9,9,9,1,audio/Narrative7Situation9.wav,audio/Narrative8Situation9.wav,audio/Narrative5Situation9.wav,audio/Narrative6Situation9.wav,2,3,3,4,,,,,,,,,,,,,,,,,,,,,,,,,,,,,,,,,,,,,,
,,,,,,5ccc60abe787e000167f8143,2024-02-06_11h30.03.357,group3.1-3.2-social-tom,2023.2.2,Win32,144.9275362,65b1b24e3a500fd6b5dc9abd,65c25d20672b763e9664d190,,,,,,,,,,,,,,,,,,,,,,,,,,,,,900.2533,905.2588,,905.2588,918.5297,"[[999,4],[999,83],[999,166],[999,249],[999,333],[999,416],[999,499],[4.8,666],[4.8,749],[4.2,833],[10.2,8750],[50.6,9250],[50.6,9333],[50.6,9416],[50.6,9500],[50.6,9583],[50.7,9666],[50.8,9750],[55.5,9833],[57.9,9916],[57.9,10000],[57.9,10083],[57.6,10166],[49.6,10333],[52.7,10416],[53,10500],[53.8,10583],[62.7,10666],[76.2,10833],[76.2,10916],[76.2,11000],[76.2,11083],[77.5,11166],[72.5,11250],[64.9,11333],[51.2,11666],[50.9,11750],[51.2,11833],[51.3,11916],[51.3,12000],[51,12083],[50.9,12166],[50.9,12250],[50.8,12333],[50.5,12416],[50.5,12500],[50.5,12583],[50.5,12666],[50.5,12750],[50.5,12833],[50.5,12916],[50.5,13000],[50.5,13083],[50.5,13166],[50.5,13250]]",1,0,918.5298,919.8422,49.921875,1.0397,"[{""rating"":49.921875,""responseTime"":1.03970000004756}]",space,0.7961,,919.8422,Definitely yes,100,919.8436,,,[],,0,10,10,10,1,audio/Narrative8Situation1.wav,audio/Narrative7Situation1.wav,audio/Narrative6Situation1.wav,audio/Narrative5Situation1.wav,5,2,2,5,,,,,,,,,,,,,,,,,,,,,,,,,,,,,,,,,,,,,,
,,,,,,5ccc60abe787e000167f8143,2024-02-06_11h30.03.357,group3.1-3.2-social-tom,2023.2.2,Win32,144.9275362,65b1b24e3a500fd6b5dc9abd,65c25d20672b763e9664d190,,,,,,,,,,,,,,,,,,,,,,,,,,,,,919.8436,922.8492,,922.8493,952.294,"[[45.1,583],[11.9,666],[3.1,916],[3.3,999],[2.9,1083],[1.7,1166],[0.3,1250],[3.7,5583],[49.8,5916],[52.3,5999],[52.4,6083],[51.6,6166],[50.5,6250],[50.3,6333],[50.3,6416],[50,6500],[44.6,6583],[40.9,6666],[16.3,6750],[12,6833],[9.7,6916],[0.6,7000],[0.2,7499],[4.4,7583],[23.8,7666],[30.2,7750],[30.2,7833],[10.2,7916],[9.1,8333],[16,8416],[9.8,8500],[0.3,9166],[10.2,9250],[34.1,9333],[38.2,9416],[38.3,9500],[23.3,9583],[6.3,9666],[4,9750],[2.8,9833],[0.6,9916],[0.2,12083],[0.2,12166],[0.2,12250],[0.2,12333],[6.6,12416],[58.2,12583],[58.3,12666],[54.5,12750],[52,12833],[50.8,12916],[50.6,13000],[50.2,13083],[49.8,13166],[49.8,13250],[49.8,13333],[49.8,13416],[49.8,13500],[49.8,13583],[49.9,13666],[49.9,13750],[48.8,13833],[40.2,13916],[37,14000],[44.8,14250],[41.3,14333],[42.2,14416],[47.7,14500],[48.5,14583],[49,14666],[49.1,14750],[49.1,14833],[35,14916],[17,15000],[9,15083],[4.8,15166],[2.7,15250],[2.6,15333],[2.4,15416],[2.1,15500],[1.4,15583],[0.5,15666],[0.3,15750],[9.1,15833],[35,15916],[42.7,16000],[47.1,16083],[47.3,16166],[38.4,16250],[14.7,16333],[8.9,16416],[6.6,16500],[2.8,16583],[1.6,16666],[1.3,16750],[1,16833],[0.8,16916],[0.8,17000],[0.8,17083],[0.7,17166],[0.7,17250],[0.6,17333],[0.6,17416],[0.6,17500],[0.6,17583],[0.6,17666],[0.6,17750],[0.6,17833],[0.6,17916],[0.6,18000],[0.6,18083],[0.6,18166],[0.6,18250],[0.6,18333],[0.6,18416],[0.6,18500],[0.6,18583],[0.6,18666],[0.6,18750],[0.6,18833],[0.6,18916],[0.6,19000],[0.6,19083],[0.6,19166],[0.6,19250],[0.6,19333],[0.6,19416],[0.6,19500],[0.6,19583],[0.6,19666],[0.6,19750],[0.6,19833],[0.6,19916],[0.7,20000],[0.7,20083],[0.7,20166],[0.7,20250],[0.7,20333],[0.7,20416],[0.7,20500],[0.7,20583],[0.7,20666],[0.7,20750],[0.7,20833],[0.7,20916],[0.7,21000],[0.7,21083],[0.7,21166],[0.7,21250],[0.7,21333],[0.8,21416],[0.8,21500],[0.8,21583],[0.8,21666],[0.8,21750],[0.8,21833],[0.8,21916],[0.8,22000],[0.8,22083],[0.8,22166],[0.8,22250],[0.8,22333],[0.8,22416],[0.9,22500],[1.6,22583],[18.1,22666],[55.5,22916],[56.6,23000],[55.9,23083],[54.1,23166],[52.3,23250],[51.3,23333],[50.5,23416],[49.5,23500],[49.5,23583],[49.5,23666],[49.8,23750],[49.8,23833],[49.8,23916],[49.8,24000],[49.8,24083],[49.8,24166],[49.8,24250],[49.8,24333],[49.8,24416],[49.8,24500],[49.8,24583],[49.8,24666],[49.8,24750],[49.8,24833],[49.6,24916],[49.6,25000],[49.6,25083],[49.6,25166],[49.6,25250],[49.6,25333],[49.6,25416],[49.6,25500],[49.6,25583],[49.6,25666],[49.6,25750],[49.6,25833],[49.6,25916],[49.3,26000],[49.3,26083],[49.3,26166],[50.1,26250],[50.1,26333],[49.8,26416],[49.3,26500],[49.3,26583],[49.3,26666],[49.3,26750],[49.3,26833],[49.3,26916],[49.3,27000],[49.4,27083],[49.5,27166],[49.5,27250],[49.5,27333],[49.5,27416],[49.5,27500],[49.5,27583],[49.5,27666],[49.5,27750],[49.5,27833],[49.5,27916],[49.5,28000],[49.5,28083],[49.5,28166],[49.5,28250],[49.5,28333],[49.5,28416],[49.5,28500],[49.5,28583],[49.5,28666],[49.5,28750],[49.5,28833],[49.5,28916],[49.5,29000],[49.5,29083],[49.5,29166],[49.5,29250],[49.6,29333],[49.7,29416]]",1,0,952.294,957.8704,27.65625,3.7356,"[{""rating"":27.65625,""responseTime"":3.735599999964279}]",space,5.0585,,957.8704,Not at all,0,957.8716,,,[],,0,11,11,11,1,audio/Narrative8Situation2.wav,audio/Narrative7Situation2.wav,audio/Narrative6Situation2.wav,audio/Narrative5Situation2.wav,3,3,3,3,,,,,,,,,,,,,,,,,,,,,,,,,,,,,,,,,,,,,,
,,,,,,5ccc60abe787e000167f8143,2024-02-06_11h30.03.357,group3.1-3.2-social-tom,2023.2.2,Win32,144.9275362,65b1b24e3a500fd6b5dc9abd,65c25d20672b763e9664d190,,,,,,,,,,,,,,,,,,,,,,,,,,,,,957.8718,960.8774,,960.8774,974.7733,"[[20.2,333],[17,416],[11,500],[29.8,3083],[50.8,3166],[50.9,3249],[50.9,3333],[50.5,3416],[50.2,3499],[50.2,3583],[50.2,3666],[50.2,3749],[50.2,3833],[50.2,3916],[50.2,4000],[50.2,4083],[50.2,4166],[47.6,4250],[19.1,4333],[2.7,4416],[2.7,4499],[1.3,4583],[0.2,5000],[0.2,5083],[15.9,5166],[57,5500],[87.3,5583],[100,5666],[100,5750],[100,5833],[100,5916],[100,6000],[100,6083],[100,6166],[100,6250],[100,6333],[100,6416],[100,6499],[100,6583],[100,6666],[100,6749],[100,6833],[100,6916],[100,6999],[100,7083],[100,7166],[100,7250],[100,7333],[100,7416],[100,7500],[100,7583],[100,7666],[100,7750],[100,7833],[100,7916],[100,8000],[100,8083],[100,8166],[91.3,8250],[51.3,8333],[48.7,8416],[48.8,8500],[43.6,8583],[8.7,8666],[6.4,8750],[4.4,8833],[3.4,8916],[1.3,9000],[0.6,9083],[0.6,9166],[0.5,9250],[0.3,9333],[0.4,9833],[7.7,9916],[29.4,10000],[79.8,10083],[84.6,10166],[36.1,10250],[0.1,10750],[0.1,10833],[0.1,10916],[0.1,11000],[0.1,11083],[0.1,11166],[0.1,11250],[0.5,11333],[90.8,11583],[43.6,11666],[12.3,11750]]",1,0,974.7734,980.815,49.921875,5.9412,"[{""rating"":0,""responseTime"":1.4801999999881446},{""rating"":49.921875,""responseTime"":5.941199999988157}]",space,5.523,,980.815,Partially,50,980.8165,,,[],,0,12,12,12,1,audio/Narrative8Situation3.wav,audio/Narrative7Situation3.wav,audio/Narrative6Situation3.wav,audio/Narrative5Situation3.wav,4,8,5,3,,,,,,,,,,,,,,,,,,,,,,,,,,,,,,,,,,,,,,
,,,,,,5ccc60abe787e000167f8143,2024-02-06_11h30.03.357,group3.1-3.2-social-tom,2023.2.2,Win32,144.9275362,65b1b24e3a500fd6b5dc9abd,65c25d20672b763e9664d190,,,,,,,,,,,,,,,,,,,,,,,,,,,,,980.8167,981.8221,,981.8221,1002.1972,"[[40.9,83],[40.9,166],[40.9,249],[40.9,333],[40.8,416],[39.8,500],[24,583],[1.4,666],[0.8,749],[0.9,833],[2,916],[2.7,999],[2.7,1083],[2.6,1166],[1.5,1249],[1.1,1333],[1.1,1416],[1.1,1499],[1.1,1583],[1.1,1666],[1.1,1749],[1.1,1833],[1.1,1916],[1.1,1999],[1.1,2083],[1.1,2166],[1.1,2249],[1.1,2333],[1.1,2416],[1.1,2499],[1.1,2583],[1.1,2666],[1.1,2749],[1.1,2833],[1.1,2916],[1.1,2999],[1.1,3083],[1.1,3166],[1.1,3250],[1.1,3333],[1.1,3416],[1.1,3499],[1.1,3583],[1.1,3666],[1.1,3749],[1.1,3833],[1.1,3916],[1.1,4000],[1.1,4083],[1.1,4166],[1.1,4249],[1.8,4333],[1.9,4416],[1.9,4499],[1.9,4583],[1.9,4666],[1.9,4750],[1.9,4833],[1.9,4916],[1.9,4999],[1.9,5083],[1.9,5166],[1.9,5249],[0.9,5333],[0.5,5416],[0.5,5500],[0.5,5583],[0.5,5666],[0.5,5749],[0.5,5833],[0.5,5916],[0.5,6000],[0.5,6083],[0.7,6166],[1.1,6250],[1.1,6333],[1.1,6416],[1.1,6500],[0.9,6583],[0.6,6666],[0.5,6750],[0.5,6833],[0.5,6916],[0.5,7000],[0.5,7083],[0.5,7166],[0.5,7250],[0.5,7333],[0.5,7416],[0.5,7500],[0.5,7583],[0.5,7666],[0.5,7750],[0.5,7833],[0.5,7916],[0.5,8000],[0.5,8083],[0.5,8166],[0.5,8250],[0.5,8333],[0.5,8416],[0.5,8500],[0.5,8583],[0.5,8666],[0.5,8750],[0.5,8833],[0.5,8916],[0.5,9000],[0.5,9083],[0.5,9166],[0.5,9250],[0.5,9333],[0.5,9416],[0.5,9500],[0.5,9583],[0.5,9666],[0.5,9750],[5.2,9833],[52.2,10166],[52.2,10250],[52.2,10333],[49.5,10416],[49.1,10500],[49.1,10583],[49.1,10666],[49.4,10750],[49.5,10833],[49.5,10916],[49.5,11000],[49.5,11083],[49.5,11166],[49.5,11250],[48.9,11333],[48.8,11416],[48.8,11500],[48,11583],[47.9,11666],[48.1,11750],[48.4,11833],[48.4,11916],[48.4,11999],[48.5,12083],[48.9,12166],[49,12249],[49.2,12333],[49.3,12416],[33.4,12500],[3.6,12583],[0.2,14416],[1.4,14500],[1.3,14583],[1.1,14666],[2.1,14750],[38.2,14833],[56.3,15000],[53.4,15083],[52.1,15166],[52.1,15250],[51.7,15333],[51.1,15416],[50.9,15500],[50.9,15583],[51.5,15666],[74.3,15750],[87.9,15833],[93.5,15916],[99,16000],[100,16083],[100,16166],[100,16250],[100,16333],[100,16416],[100,16500],[100,16583],[100,16666],[100,16750],[100,16833],[100,16916],[100,17000],[100,17083],[100,17166],[100,17250],[100,17333],[100,17416],[99.8,17500],[99.8,17583],[99.8,17666],[99.8,17750],[99.8,17833],[99.8,17916],[99.8,18000],[99.8,18083],[100,18166],[100,18250],[100,18333],[100,18416],[100,18500],[100,18583],[100,18666],[100,18750],[100,18833],[100,18916],[100,19000],[100,19083],[100,19166],[100,19250],[99.9,19333],[99.9,19416],[99.9,19500],[99.9,19583],[99.9,19666],[99.9,19750],[99.9,19833],[99.9,19916],[99.9,20000],[99.9,20083],[99.9,20166],[99.8,20250],[99.8,20333]]",1,0,1002.1973,1004.9125,100,2.2071,"[{""rating"":99.765625,""responseTime"":1.7463000000118427},{""rating"":100,""responseTime"":2.207100000023729}]",space,2.1975,,1004.9125,Partially,50,1004.9132,,,[],,0,13,13,13,1,audio/Narrative8Situation4.wav,audio/Narrative7Situation4.wav,audio/Narrative6Situation4.wav,audio/Narrative5Situation4.wav,3,3,2,1,,,,,,,,,,,,,,,,,,,,,,,,,,,,,,,,,,,,,,
,,,,,,5ccc60abe787e000167f8143,2024-02-06_11h30.03.357,group3.1-3.2-social-tom,2023.2.2,Win32,144.9275362,65b1b24e3a500fd6b5dc9abd,65c25d20672b763e9664d190,,,,,,,,,,,,,,,,,,,,,,,,,,,,,1004.9134,1009.9195,,1009.9196,1025.3294,"[[87.3,666],[57.3,749],[26.8,833],[10.5,916],[3.1,999],[0.9,1083],[0.1,1333],[0.1,1416],[0.4,1499],[0.4,1583],[0.4,1666],[0.4,1749],[0.4,1833],[0.4,1916],[0.4,2000],[0.4,2083],[0.4,2166],[0.4,2249],[0.4,2333],[0.5,2416],[0.5,2499],[0.5,2583],[0.5,2666],[0.5,2749],[0.5,2833],[0.5,2916],[0.5,2999],[0.5,3083],[0.5,3166],[0.5,3249],[0.5,3333],[0.5,3416],[0.5,3499],[0.5,3583],[0.5,3666],[0.5,3749],[0.5,3833],[0.5,3916],[0.5,3999],[0.5,4083],[0.5,4166],[0.5,4249],[0.5,4333],[17.8,4416],[35.5,4500],[46.2,4583],[33.5,4666],[0.1,4833]]",1,0,1025.3295,1028.6558,0,1.8448,"[{""rating"":0,""responseTime"":1.8448000000121283}]",space,2.8065,,1028.6559,Partially,50,1028.6567,,,[],,0,14,14,14,1,audio/Narrative8Situation5.wav,audio/Narrative7Situation5.wav,audio/Narrative6Situation5.wav,audio/Narrative5Situation5.wav,2,5,2,5,,,,,,,,,,,,,,,,,,,,,,,,,,,,,,,,,,,,,,
,,,,,,5ccc60abe787e000167f8143,2024-02-06_11h30.03.357,group3.1-3.2-social-tom,2023.2.2,Win32,144.9275362,65b1b24e3a500fd6b5dc9abd,65c25d20672b763e9664d190,,,,,,,,,,,,,,,,,,,,,,,,,,,,,1028.6569,1031.6627,,1031.6627,1037.3295,"[[1.6,750],[1.8,833],[1.6,916],[0.2,1000],[0.9,3833],[47.5,4250],[48.9,4333],[49.4,4416],[49.4,4500],[49.5,4583],[49.5,4666],[49.5,4750],[48.4,4833],[48,4916],[48,5000],[48,5083],[48,5166],[48,5250],[48,5333],[48,5416],[48,5500],[48,5583],[49.7,5666]]",1,0,1037.3296,1040.5934,49.921875,2.9641,"[{""rating"":49.921875,""responseTime"":2.964099999964219}]",space,2.7457,,1040.5934,Not at all,0,1040.5946,,,[],,0,15,15,15,1,audio/Narrative8Situation6.wav,audio/Narrative7Situation6.wav,audio/Narrative6Situation6.wav,audio/Narrative5Situation6.wav,2,3,2,3,,,,,,,,,,,,,,,,,,,,,,,,,,,,,,,,,,,,,,
,,,,,,5ccc60abe787e000167f8143,2024-02-06_11h30.03.357,group3.1-3.2-social-tom,2023.2.2,Win32,144.9275362,65b1b24e3a500fd6b5dc9abd,65c25d20672b763e9664d190,,,,,,,,,,,,,,,,,,,,,,,,,,,,,1040.5947,1044.6003,,1044.6004,1065.6215,"[[5.3,333],[2,416],[2,499],[1.9,583],[0.2,999],[0.2,1083],[0.2,1166],[0.2,1249],[0.2,1333],[0.2,1416],[0.2,1499],[1.8,1583],[20.9,1666],[41.4,1750],[40.2,1833],[40.8,1916],[36.9,2000],[5.2,2083],[2.6,2166],[1.8,2250],[0.7,2333],[0.1,3333],[0.3,3416],[0.3,3500],[0.2,3583],[0.2,3666],[0.2,3749],[0.2,3833],[0.2,3916],[0.2,4000],[0.3,4083],[0.3,4166],[0.4,4250],[0.4,4333],[0.4,4416],[0.4,4500],[0.4,4583],[0.4,4666],[0.4,4749],[0.4,4833],[0.4,4916],[0.4,5000],[1.3,5083],[26.3,5166],[55.6,5250],[55.5,5333],[53.8,5416],[50.4,5500],[49.5,5583],[49.3,5666],[49.2,5749],[49.2,5833],[49.2,5916],[49.2,6000],[49.2,6083],[48.6,6166],[48,6250],[48,6333],[48,6416],[48,6500],[48,6583],[48,6666],[48,6750],[48,6833],[48,6916],[48,7000],[48,7083],[48,7166],[48,7250],[48,7333],[48,7416],[48,7500],[48,7583],[48,7666],[48,7750],[48,7833],[48,7916],[48,8000],[48,8083],[48,8166],[48,8250],[48,8333],[56.6,8416],[57,8583],[41.6,8666],[41.7,8750],[42.9,8833],[38.9,8916],[5.5,9000],[2.7,9083],[2.7,9166],[0.9,9250],[0.1,11000],[0.2,11083],[0.2,11166],[0.2,11250],[0.2,11333],[0.2,11416],[0.2,11500],[0.2,11583],[0.2,11666],[0.2,11750],[0.2,11833],[0.2,11916],[0.2,12000],[0.2,12083],[0.2,12166],[0.2,12250],[0.2,12333],[0.2,12416],[0.2,12500],[0.2,12583],[0.2,12666],[5.2,13000],[7.9,13250]]",1,0,1065.6215,1067.3437,0.15625,1.3645,"[{""rating"":0.15625000000000222,""responseTime"":1.3644999999999072}]",space,1.2055,,1067.3437,Not at all,0,1067.3445,,,[],,0,16,16,16,1,audio/Narrative8Situation7.wav,audio/Narrative7Situation7.wav,audio/Narrative6Situation7.wav,audio/Narrative5Situation7.wav,3,5,5,4,,,,,,,,,,,,,,,,,,,,,,,,,,,,,,,,,,,,,,
,,,,,,5ccc60abe787e000167f8143,2024-02-06_11h30.03.357,group3.1-3.2-social-tom,2023.2.2,Win32,144.9275362,65b1b24e3a500fd6b5dc9abd,65c25d20672b763e9664d190,,,,,,,,,,,,,,,,,,,,,,,,,,,,,1067.3446,1070.3506,,1070.3506,1079.1564,"[[1.1,2166],[1.6,2250],[1.6,2333],[1.6,2416],[1.6,2500],[1.5,2583],[1.5,2666],[1.5,2750],[0.2,2833],[0.4,5916],[7.9,6000],[46.9,6416],[48,6500],[49.1,6583],[49.1,6666],[49.1,6750],[49.1,6833],[48.6,6916],[48.6,7000],[48.6,7083],[48.6,7166],[48.6,7250],[48.6,7333],[48.7,7416],[49.2,7500],[49.2,7583],[49.2,7666],[49.2,7750],[49.1,7833],[49,7916],[49,8000],[48.5,8083],[48.5,8166],[48.5,8250],[48,8333],[48,8416],[48,8500],[47.7,8583],[47.7,8666],[47.7,8750]]",1,0,1079.1565,1084.1216,0,3.2473,"[{""rating"":0,""responseTime"":3.2473000000120464}]",space,4.4485,,1084.1216,Not at all,0,1084.1224,,,[],,0,17,17,17,1,audio/Narrative8Situation8.wav,audio/Narrative7Situation8.wav,audio/Narrative6Situation8.wav,audio/Narrative5Situation8.wav,3,2,5,3,,,,,,,,,,,,,,,,,,,,,,,,,,,,,,,,,,,,,,
,,,,,,5ccc60abe787e000167f8143,2024-02-06_11h30.03.357,group3.1-3.2-social-tom,2023.2.2,Win32,144.9275362,65b1b24e3a500fd6b5dc9abd,65c25d20672b763e9664d190,,,,,,,,,,,,,,,,,,,,,,,,,,,,,1084.1225,1087.1286,,1087.1286,1126.6567,"[[0.3,83],[0.3,166],[0.3,249],[0.3,333],[4.6,666],[15.3,750],[22.3,833],[41.1,916],[46.9,1000],[47.2,1083],[47.3,1166],[48.6,1250],[48.6,1333],[48.9,1416],[49.8,1499],[47.4,1583],[27,1666],[15.5,1749],[13.4,1833],[9.8,1916],[1.7,2000],[0.9,2333],[2.3,2416],[2.3,2499],[2.3,2583],[2.3,2666],[2.3,2750],[2.3,2833],[2.3,2916],[2.3,2999],[2.8,3083],[4.5,3166],[4.5,3250],[2,3333],[0.9,3416],[0.7,3499],[1,3583],[25.2,3666],[43,3750],[45.1,3833],[44.5,3916],[47.1,4000],[49.1,4083],[49.5,4166],[49.5,4250],[49.5,4333],[49.5,4416],[49.5,4500],[49.5,4583],[55.5,4666],[100,5083],[100,5166],[100,5250],[100,5333],[87,5416],[51.1,5500],[49.9,5583],[49.3,5666],[44.3,5750],[44,5833],[46.3,5916],[50.1,6000],[50.6,6083],[50.5,6166],[49.5,6250],[32.3,6333],[6.7,6416],[1.2,6500],[1.2,6583],[0.2,6666],[0.2,6750],[0.3,6833],[1.3,6916],[1.3,7000],[1.4,7083],[0.9,7166],[1.4,7416],[22.3,7500],[51.3,7583],[51.9,7666],[51.9,7750],[51.2,7833],[50.2,7916],[50.2,8000],[50.3,8083],[50.4,8166],[50.4,8250],[49.8,8333],[49.3,8416],[49.3,8500],[49.3,8583],[50,8666],[50.1,8750],[50.1,8833],[50.1,8916],[50.1,9000],[50.1,9083],[50.1,9166],[50.1,9250],[50.1,9333],[50.1,9416],[50.1,9500],[50.1,9583],[49.6,9666],[47.5,9750],[46,9833],[50.8,10000],[50.8,10083],[50.8,10166],[50.8,10250],[50.8,10333],[50.8,10416],[50.8,10500],[50.8,10583],[50.8,10666],[50.7,10750],[31.4,10833],[9,10916],[8,11000],[7.6,11083],[6.6,16333],[69.5,16416],[85.6,16500],[78.4,16583],[45.4,16666],[25.2,16750],[24.9,16833],[24.3,16916],[13.6,17000],[3.5,17083],[18.7,17333],[100,17500],[100,17583],[99.4,17666],[64.8,17750],[51.3,17833],[51.3,17916],[49.2,18000],[24.8,18083],[16.4,18166],[5.5,18250],[4.5,18333],[4.5,18416],[5.4,18500],[4,18583],[0.1,18666],[0.3,19167],[0.3,19250],[0.3,19333],[0.3,19416],[0.1,19500],[0.5,23750],[0.5,23833],[0.5,23916],[0.4,24000],[1.6,27333],[19.5,27416],[44.4,27500],[45.4,27583],[48.8,27666],[49.4,27750],[49.8,27833],[49.8,27916],[49.8,28000],[49.8,28083],[49.9,28166],[49.9,28250],[49.9,28333],[49.9,28416],[50.2,28500],[50.5,28583],[50.6,28666],[50.6,28750],[50.6,28833],[50.6,28916],[50.6,29000],[50.6,29083],[50.6,29166],[50.6,29250],[50.6,29333],[50.6,29416],[50.6,29500],[50.6,29583],[50.6,29666],[50.6,29750],[50.6,29833],[50.6,29916],[50.6,30000],[50.6,30083],[50.6,30166],[50.6,30250],[50.6,30333],[50.6,30416],[50.6,30500],[52.2,30583],[100,30666],[100,30750],[100,30833],[100,30917],[100,31000],[100,31083],[100,31166],[100,31250],[100,31333],[100,31416],[100,31500],[100,31583],[100,31666],[100,31750],[100,31833],[100,31916],[100,32000],[100,32083],[100,32166],[100,32250],[100,32333],[100,32416],[100,32500],[100,32583],[100,32666],[100,32750],[100,32833],[100,32916],[100,33000],[100,33083],[100,33166],[100,33250],[100,33333],[46,33417],[38.4,33500],[49.5,33583],[79,33666],[98.5,33750],[98.5,33833],[98.5,33916],[98.5,34000],[93.8,34083],[59.4,34167],[55.2,34250],[49.8,34333],[1.6,34500],[0.8,34833],[1.5,34916],[1.6,35000],[0.9,35083],[0.2,35167],[0.7,35583],[0.7,35666],[0.9,35750],[1,35833],[14.7,36083],[58.9,36167],[34.1,36250]]",1,0,1126.6568,1130.7679,0,3.9648,"[{""rating"":0,""responseTime"":3.964800000011792}]",space,3.5905,,1130.7679,Definitely yes,100,1130.7691,,,[],,0,18,18,18,1,audio/Narrative8Situation9.wav,audio/Narrative7Situation9.wav,audio/Narrative6Situation9.wav,audio/Narrative5Situation9.wav,3,2,4,3,,,,,,,,,,,,,,,,,,,,,,,,,,,,,,,,,,,,,,
,,,,,,5ccc60abe787e000167f8143,2024-02-06_11h30.03.357,group3.1-3.2-social-tom,2023.2.2,Win32,144.9275362,65b1b24e3a500fd6b5dc9abd,65c25d20672b763e9664d190,,,,,,,,,,,,,,,,,,,,,,,,,,,,,,,,,,,,,,,,,,,,,,,,,,,,,,,,,,,,,,,,,,,,,,1130.7692,1132.6985,space,1.4218,,1132.6986,1140.8864,space,7.8766,,,,,,,,,,,,,,,,,,,,,,,,,
,,,,,,5ccc60abe787e000167f8143,2024-02-06_11h30.03.357,group3.1-3.2-social-tom,2023.2.2,Win32,144.9275362,65b1b24e3a500fd6b5dc9abd,65c25d20672b763e9664d190,,,,,,,,,,,,,,,,,,,,,,,,,,,,,1143.4799,1145.4833,,,,,,,1177.3255,1180.1364,100,2.639,"[{""rating"":99.84375,""responseTime"":2.0831000000237054},{""rating"":100,""responseTime"":2.6389999999998963}]",space,2.2932,,1177.3243,Partially,50,1177.3255,,,[],,,,,,,,,,,2,2,2,2,,,,,,,,,,,,,,,1140.8913,1143.4696,1145.4836,1177.3243,"[[0.9,3833],[0.6,3916],[0.6,3999],[0.6,4083],[0.6,4166],[1,4249],[1.2,4333],[1.2,4416],[1.2,4499],[1.2,4583],[1.2,4666],[1.2,4749],[1.2,4833],[1.2,4916],[1.2,4999],[0.9,5083],[0.9,5166],[0.9,5249],[0.9,5333],[0.9,5416],[0.9,5499],[0.9,5583],[0.9,5666],[0.9,5749],[0.9,5833],[0.9,5916],[0.9,5999],[0.9,6083],[0.9,6166],[0.9,6249],[0.9,6333],[0.9,6416],[0.9,6499],[0.9,6583],[0.9,6666],[0.9,6749],[0.9,6833],[0.9,6916],[1,6999],[1,7083],[1,7166],[1,7249],[1,7333],[1,7416],[1,7499],[1,7583],[1,7666],[1,7749],[1,7833],[1,7916],[1,7999],[1,8083],[1,8166],[1,8249],[1,8333],[0.4,8416],[2.2,23749],[17.5,23833],[34.1,23916],[45.2,23999],[49.1,24083],[49.3,24166],[49.7,24249],[49.8,24333],[49.8,24416],[49.8,24499],[50.3,24583],[51.3,24666],[51.3,24749],[51,24833],[50.8,24916],[50.8,24999],[50.8,25083],[50.8,25166],[50.5,25250],[50.3,25333],[50.3,25416],[49.9,25499],[50.5,25583],[50.9,25666],[50,25749],[27.5,25833],[26.6,25916],[26.1,25999],[37.2,26083],[10.9,26249],[4.8,26333],[3.8,26416],[1.6,26499],[0.9,26583],[1.6,26666],[7.3,26749],[7.3,26833],[7.3,26916],[4.5,26999],[7,27666],[21.3,27750],[44.1,27833],[82.6,27916],[100,28083],[100,28166],[100,28249],[100,28333],[100,28416],[100,28499],[100,28583],[100,28666],[100,28749],[100,28833],[100,28916],[100,28999],[100,29083],[100,29166],[100,29249],[100,29333],[100,29416],[100,29499],[100,29583],[100,29666],[100,29749],[100,29833],[99.7,29916],[99.6,29999],[99.6,30083],[99.6,30166],[99.6,30249],[99.5,30333],[85.6,30416],[69.1,30500],[58.7,30583],[59.7,30666],[88,30750],[95.5,30916],[95.5,30999],[97.2,31083],[99.5,31166],[99.8,31249],[99.8,31333],[99.8,31416],[99.6,31500],[99.6,31583],[99.6,31666],[99.6,31749],[99.6,31833]]",0,0,0,0,1,"Larry had recently lost his family, job and home, and was now living on his own in the park. He had most of his belongings, including some clothes, a blanket, and his mother’s special necklace. His family had been very important to him and he felt as though he did not have much going for him. One of his first days in the park he came across a family that did not have much food and looked very cold. He decided to give them some of his food and his blanket.","Larry had recently lost his family, job and home, and was now living on his own in the park. He had most of his belongings, including some clothes, a blanket, and his mother’s special necklace. His family had been very important to him and he felt as though he did not have much going for him. One of his first days in the park he came across a family that did not have much food and looked very cold. He decided to give them some of his food and his blanket.","Larry had recently lost his family, job and home, and was now living on his own in the park. He had most of his belongings, including some clothes, a blanket, and his mother’s special necklace. His family had been very important to him and he felt as though he did not have much going for him. One of his first days in the park he came across a family that did not have much food and looked very cold. He decided to give them some of his food and his blanket.","Larry had recently lost his family, job and home, and was now living on his own in the park. He had most of his belongings, including some clothes, a blanket, and his mother’s special necklace. His family had been very important to him and he felt as though he did not have much going for him. One of his first days in the park he came across a family that did not have much food and looked very cold. He decided to give them some of his food and his blanket.",,,,,,,,,,
,,,,,,5ccc60abe787e000167f8143,2024-02-06_11h30.03.357,group3.1-3.2-social-tom,2023.2.2,Win32,144.9275362,65b1b24e3a500fd6b5dc9abd,65c25d20672b763e9664d190,,,,,,,,,,,,,,,,,,,,,,,,,,,,,1180.1367,1182.3656,space,,,,,,1206.2117,1208.6298,0.078125,1.582,"[{""rating"":0.07812500000000111,""responseTime"":1.58199999999988}]",space,1.9029,,1206.2062,Not at all,0,1206.2117,,,[],,,,,,,,,,,6,2,3,9,2.223,,,,,,,,,,,,,,,,1182.3657,1206.2061,"[[92,500]]",0,1,1,1,1,"It was just another Sunday afternoon for Lucy, she was on her way to the farmer's market to pick up some produce. When she arrived at the old train depot that housed the market, she noticed two men fighting on the steps. Before she could call for help, one of the men crumpled to his knees. The other man dropped an object that appeared to be a knife and ran off. When Lucy approached the crime scene she realized that the man who had been murdered was the Mayor and that he had a gunshot wound.","One day at work, Margaret walked up to her partner, Al, to ask him to talk to the chief of staff at the local hospital where she worked as a nurse.","Luke always thought of himself as an honest man. That's why during his evening jog around the swamp, he pondered his recent affair with the receptionist at work. Luke looked up at the sky and asked God why he was so weak and unfaithful. He thought of the impact this would have on his family and told God of his conflicted feelings toward telling his wife Marta.","Linda and Amy had been best friends since kindergarten, they even found homes on the same street in the forest on the edge of town. Their biggest fight had been over who gets the bigger slice of cake, until Amy married Dan. Linda loathed Dan, she thought he was manipulative and had a violent temper. She only put up with him because Amy loved him. ",,,,,,,,,,
