exp_question,consent.started,consent.stopped,consentResponse.keys,consentResponse.rt,consentResponse.duration,participantID,date,expName,psychopyVersion,OS,frameRate,STUDY_ID,SESSION_ID,opening1.started,opening1.stopped,keyEndingOpening1.keys,keyEndingOpening1.rt,keyEndingOpening1.duration,volumeAdjust.started,volumeAdjust.stopped,endingAdjust.keys,endingAdjust.rt,endingAdjust.duration,opening2.started,opening2.stopped,keyEndingOpening.keys,keyEndingOpening.rt,keyEndingOpening.duration,mouse.x,mouse.y,mouse.leftButton,mouse.midButton,mouse.rightButton,mouse.time,instructionLoop.thisRepN,instructionLoop.thisTrialN,instructionLoop.thisN,instructionLoop.thisIndex,instructionLoop.ran,readyForAudio.started,readyForAudio.stopped,fixation.started,run,audio_played,fixation.stopped,endPractice.keys,audioPre.started,audioPre.stopped,continuousResponses_audio,continuousSlider.response,continuousSlider.rt,intRating.started,intRating.stopped,intQuestionSlider.response,intQuestionSlider.rt,intQuestionSlider.history,confirmResponse.keys,confirmResponse.rt,confirmResponse.duration,catchQuestion.started,catch_label,catch_value,catchQuestion.stopped,catchQuestionSlider.response,catchQuestionSlider.rt,catchQuestionSlider.history,confirmResponse_2.keys,audioRunLoop.thisRepN,audioRunLoop.thisTrialN,audioRunLoop.thisN,audioRunLoop.thisIndex,audioRunLoop.ran,conditions1_1,conditions2_1,conditions1_2,conditions2_2,dur1_1,dur2_1,dur1_2,dur2_2,endPractice.rt,endPractice.duration,confirmResponse_2.rt,confirmResponse_2.duration,runIntervalBreak.started,runIntervalBreak.stopped,endingBreakKey.keys,endingBreakKey.rt,endingBreakKey.duration,connection.started,connection.stopped,connectionEnding.keys,connectionEnding.rt,connectionEnding.duration,readyForText.started,readyForText.stopped,textPre.started,run_dup,textPre.stopped,continuousResponses_text,textRunLoop.thisRepN,textRunLoop.thisTrialN,textRunLoop.thisN,textRunLoop.thisIndex,textRunLoop.ran,text1_1,text1_2,text2_1,text2_2,runBreakText.started,runBreakText.stopped,endingBreakKey_2.keys,endingBreakKey_2.rt,endingBreakKey_2.duration,ending.started,ending.stopped,endingEnding.keys,endingEnding.rt,endingEnding.duration
tom,0.001,18.077,y,17.749,,5d134be5269dd500012b15fd,2024-02-08_13h05.52.079,group3.1-3.2-social-tom,2023.2.2,Win32,59.95203837,65c5074098b851296ff0b7ed,65c513b8cc649ae8122ee4b5,,,,,,,,,,,,,,,,,,,,,,,,,,,,,,,,,,,,,,,,,,,,,,,,,,,,,,,,,,,,,,,,,,,,,,,,,,,,,,,,,,,,,,,,,,,,,,,,,,,,,,,,,,
,,,,,,5d134be5269dd500012b15fd,2024-02-08_13h05.52.079,group3.1-3.2-social-tom,2023.2.2,Win32,59.95203837,65c5074098b851296ff0b7ed,65c513b8cc649ae8122ee4b5,18.077,27.309,space,9.18,,,,,,,,,,,,,,,,,,,,,,,,,,,,,,,,,,,,,,,,,,,,,,,,,,,,,,,,,,,,,,,,,,,,,,,,,,,,,,,,,,,,,,,,,,,,,,,,,,,,,,
,,,,,,5d134be5269dd500012b15fd,2024-02-08_13h05.52.079,group3.1-3.2-social-tom,2023.2.2,Win32,59.95203837,65c5074098b851296ff0b7ed,65c513b8cc649ae8122ee4b5,,,,,,27.309,33.993,space,6.356,,,,,,,,,,,,,,,,,,,,,,,,,,,,,,,,,,,,,,,,,,,,,,,,,,,,,,,,,,,,,,,,,,,,,,,,,,,,,,,,,,,,,,,,,,,,,,,,,
,,,,,,5d134be5269dd500012b15fd,2024-02-08_13h05.52.079,group3.1-3.2-social-tom,2023.2.2,Win32,59.95203837,65c5074098b851296ff0b7ed,65c513b8cc649ae8122ee4b5,,,,,,,,,,,34,42.644,space,8.588,,[],[],[],[],[],[],0,0,0,0,1,,,,,,,,,,,,,,,,,,,,,,,,,,,,,,,,,,,,,,,,,,,,,,,,,,,,,,,,,,,,,,,,,,,,,,,,,,,,,,,,
,,,,,,5d134be5269dd500012b15fd,2024-02-08_13h05.52.079,group3.1-3.2-social-tom,2023.2.2,Win32,59.95203837,65c5074098b851296ff0b7ed,65c513b8cc649ae8122ee4b5,,,,,,,,,,,42.645,51.894,space,9.113,,[0.153125],[-0.3161764705882353],[1],[0],[0],[1.689],1,0,1,0,1,,,,,,,,,,,,,,,,,,,,,,,,,,,,,,,,,,,,,,,,,,,,,,,,,,,,,,,,,,,,,,,,,,,,,,,,,,,,,,,,
,,,,,,5d134be5269dd500012b15fd,2024-02-08_13h05.52.079,group3.1-3.2-social-tom,2023.2.2,Win32,59.95203837,65c5074098b851296ff0b7ed,65c513b8cc649ae8122ee4b5,,,,,,,,,,,51.895,55.86,space,3.885,,[0.153125],[-0.3161764705882353],[1],[0],[0],[1.1099999999999994],2,0,2,0,1,,,,,,,,,,,,,,,,,,,,,,,,,,,,,,,,,,,,,,,,,,,,,,,,,,,,,,,,,,,,,,,,,,,,,,,,,,,,,,,,
,,,,,,5d134be5269dd500012b15fd,2024-02-08_13h05.52.079,group3.1-3.2-social-tom,2023.2.2,Win32,59.95203837,65c5074098b851296ff0b7ed,65c513b8cc649ae8122ee4b5,,,,,,,,,,,55.86,88.742,space,32.82,,[0.153125],[-0.3161764705882353],[1],[0],[0],[0.8430000000000035],3,0,3,0,1,,,,,,,,,,,,,,,,,,,,,,,,,,,,,,,,,,,,,,,,,,,,,,,,,,,,,,,,,,,,,,,,,,,,,,,,,,,,,,,,
,,,,,,5d134be5269dd500012b15fd,2024-02-08_13h05.52.079,group3.1-3.2-social-tom,2023.2.2,Win32,59.95203837,65c5074098b851296ff0b7ed,65c513b8cc649ae8122ee4b5,,,,,,,,,,,88.745,101.325,space,12.522,,[0.153125],[-0.3161764705882353],[1],[0],[0],[8.757000000000005],4,0,4,0,1,,,,,,,,,,,,,,,,,,,,,,,,,,,,,,,,,,,,,,,,,,,,,,,,,,,,,,,,,,,,,,,,,,,,,,,,,,,,,,,,
,,,,,,5d134be5269dd500012b15fd,2024-02-08_13h05.52.079,group3.1-3.2-social-tom,2023.2.2,Win32,59.95203837,65c5074098b851296ff0b7ed,65c513b8cc649ae8122ee4b5,,,,,,,,,,,,,,,,,,,,,,,,,,,101.328,103.908,103.926,1,audio/Narrative13Situation2.wav,105.926,,105.926,135.675,"[[50.2,849],[50.2,932],[50.2,1015],[50.2,1098],[50.3,1182],[50.2,2015],[49.1,2098],[49.1,2182],[49.1,2265],[49.1,2348],[49.1,2432],[49.1,2515],[49.1,2599],[49.1,2682],[49.1,2765],[49.1,2849],[49.3,2932],[49.4,3015],[49.4,3098],[49.4,3182],[49.6,3265],[50.6,5932],[51.9,6015],[52.1,6098],[52.1,6182],[52.1,6265],[52.1,6348],[52.1,6432],[52.1,6515],[52.1,6598],[52.1,6682],[52.1,6765],[52.1,6848],[52.1,6932],[52.1,7015],[52.1,7099],[51.9,7182],[51.3,7265],[51.3,7348],[51.3,7432],[51.3,7515],[51.3,7599],[51.3,7682],[51.3,7765],[51.3,7848],[51.3,7932],[51.3,8015],[51.3,8098],[51.3,8182],[51.3,8265],[51.8,8348],[51.8,8432],[51.8,8515],[51.8,8598],[51.8,8682],[51.8,8765],[51.8,8848],[51.8,8932],[51.8,9015],[51.8,9098],[51.8,9182],[51.8,9265],[51.8,9348],[51.8,9432],[51.8,9515],[51.8,9598],[51.8,9682],[51.8,9765],[52.5,9848],[54.1,9932],[54.1,10015],[54.1,10098],[54.1,10182],[54.1,10265],[54.1,10348],[54.1,10432],[54.1,10515],[54.1,10598],[54.1,10682],[54.1,10765],[54.1,10848],[54.1,10932],[55.3,11015],[55.6,11098],[55.6,11182],[55.6,11265],[55.6,11348],[55.6,11432],[55.6,11515],[55.6,11598],[54.3,11682],[54.3,11765],[54.3,11848],[54.3,11932],[54.3,12015],[54.3,12097],[54.3,12182],[54.3,12265],[54.3,12348],[54.3,12432],[54.3,12515],[54.3,12598],[54.3,12681],[54.3,12765],[54.3,12848],[54.3,12932],[54.3,13015],[54.3,13099],[54.3,13182],[53.9,13265],[53.3,13348],[53.1,13431],[53.1,13515],[53.1,13598],[52.7,13681],[49.9,13765],[48.4,13847],[48.4,13931],[48.4,14015],[48.4,14098],[48.4,14181],[48.4,14265],[48.4,14348],[48.4,14431],[48.4,14515],[48.1,14599],[48,14681],[48,14765],[48,14848],[48,14932],[48,15014],[47.4,15098],[46.4,15182],[46.4,15264],[46.4,15348],[46.4,15431],[46.4,15514],[46.4,15599],[46.4,15682],[46.4,15764],[46.4,15848],[46.4,15931],[46.4,16014],[46.4,16098],[46.4,16181],[46.4,16264],[46.4,16348],[46.4,16431],[46.4,16515],[46.4,16599],[46.4,16681],[46.4,16764],[46.4,16848],[46.4,16931],[46.4,17015],[46.4,17098],[46.4,17182],[46.4,17264],[46.4,17348],[46.4,17431],[46.4,17515],[46.4,17598],[46.4,17681],[46.4,17765],[46.4,17848],[46.4,17932],[46.4,18015],[45.9,18099],[45.6,18181],[45.6,18264],[45.6,18348],[45.6,18431],[45.6,18514],[45.6,18598],[45.6,18682],[45.6,18765],[45.6,18848],[45.6,18931],[45.6,19015],[45.6,19098],[45.6,19181],[45.6,19264],[45.6,19348],[45.6,19432],[45.6,19515],[45.6,19598],[45.6,19682],[45.6,19764],[45.2,19848],[45.2,19931],[45.2,20015],[45.2,20098],[45.2,20182],[45.2,20265],[45.2,20348],[45.2,20432],[45.2,20515],[45.2,20598],[45.2,20681],[45.2,20765],[45.2,20848],[45.2,20931],[45.2,21015],[45.2,21098],[45.2,21181],[45.2,21265],[45.2,21348],[45.2,21431],[45.2,21514],[45.2,21598],[45.2,21682],[45.2,21765],[45.2,21848],[45.2,21931],[45.2,22014],[45.2,22097],[45.5,22181],[48.9,22265],[59.7,22349],[65.9,22431],[65.9,22515],[65.9,22598],[65.9,22681],[65.9,22765],[65.9,22848],[65.9,22931],[65.9,23015],[65.9,23098],[65.9,23181],[65.9,23264],[67.1,23348],[67.1,23431],[67.1,23515],[67.1,23598],[67.1,23681],[67.1,23765],[67.1,23848],[67.1,23931],[67.1,24015],[67.1,24098],[67.1,24181],[67.1,24264],[67.1,24348],[67.1,24432],[67.1,24514],[67.1,24598],[67.1,24682],[67.1,24764],[67.1,24848],[67.1,24931],[67.1,25015],[67.1,25098],[67.1,25181],[67.1,25264],[67.1,25348],[67.1,25432],[67.1,25515],[67.1,25598],[67.1,25682],[67.1,25765],[67.1,25848],[67.1,25931],[67.1,26015],[67.1,26098],[67.1,26181],[67.1,26265],[68.6,26349],[72.2,26432],[73.1,26514],[73.1,26598],[73.1,26681],[73.6,26764],[77.1,26849],[77.4,26931],[77.4,27014],[77.4,27098],[77.4,27181],[77.4,27265],[79.3,27349],[79.6,27431],[79.6,27515],[79.6,27598],[79.6,27681],[79.6,27764],[79.6,27847],[79.6,27931],[80.5,28015],[82.8,28098],[83,28181],[83,28265],[83,28348],[83,28431],[83,28514],[83,28598],[83,28681],[83,28764],[83,28847],[83,28931],[83.9,29015],[90.5,29098],[92.1,29182],[92.1,29264],[92.1,29348],[92.1,29431],[92.1,29515],[92.1,29598],[92.1,29681]]",1,0,135.676,151.158,95.1875,13.356,"[{""rating"":95.1875,""responseTime"":13.355999999999995}]",space,14.94,,151.158,All the time,100,151.165,,,[],,0,0,0,0,1,audio/Narrative13Situation2.wav,audio/Narrative13Situation2.wav,audio/Narrative13Situation2.wav,audio/Narrative13Situation2.wav,2,2,2,2,,,,,,,,,,,,,,,,,,,,,,,,,,,,,,,,,,,,,,,
,,,,,,5d134be5269dd500012b15fd,2024-02-08_13h05.52.079,group3.1-3.2-social-tom,2023.2.2,Win32,59.95203837,65c5074098b851296ff0b7ed,65c513b8cc649ae8122ee4b5,,,,,,,,,,,,,,,,,,,,,,,,,,,,,151.166,1,audio/Narrative8Situation1.wav,154.641,space,154.641,170.558,"[[999,1],[999,84],[999,167],[999,251],[999,334],[999,417],[999,501],[999,582],[999,667],[999,750],[999,834],[999,917],[999,1000],[999,1084],[999,1167],[999,1251],[999,1334],[999,1417],[999,1501],[999,1584],[999,1667],[999,1751],[999,1834],[999,1917],[999,2001],[50.5,2084],[50.5,2167],[50.5,2251],[50.5,2334],[50.5,2417],[50.5,2500],[50.3,2584],[50.3,2665],[50.3,2750],[50.3,2834],[50.3,2917],[50.3,3000],[50.3,3084],[50.3,3167],[50.3,3251],[50.3,3334],[50.3,3417],[50.3,3500],[50.3,3584],[50.3,3667],[50.3,3750],[50.3,3832],[50.3,3917],[50.3,4000],[50.3,4082],[50.3,4165],[50.3,4251],[50.3,4334],[50.3,4417],[50.3,4500],[50.3,4584],[50.3,4667],[50.3,4750],[50.3,4834],[50.3,4917],[50.3,5000],[50.3,5084],[50.3,5165],[50.3,5251],[50.3,5334],[50.3,5417],[50.3,5500],[50.3,5582],[50.3,5667],[50.3,5750],[51.1,5834],[51.8,5915],[51.8,6000],[51.8,6084],[51.8,6165],[51.8,6251],[51.8,6334],[51.8,6417],[50,6501],[48.9,6584],[48.9,6667],[48.9,6750],[48.9,6832],[48.9,6915],[48.9,7000],[48.9,7082],[48.9,7167],[48.9,7251],[49.3,7334],[49.9,7417],[49.9,7500],[49.9,7584],[49.9,7667],[48.8,7751],[48.8,7832],[48.8,7917],[48.8,8000],[48.8,8082],[49.4,8167],[49.4,8251],[49.4,8334],[49.4,8417],[49.4,8500],[49.4,8584],[49.4,8665],[49.4,8750],[49.4,8834],[49.4,8917],[49.4,9000],[49.4,9084],[49.4,9167],[49.4,9251],[49.4,9332],[49.4,9417],[49.4,9500],[49.4,9584],[49.4,9667],[49.4,9750],[49.4,9834],[49.4,9917],[49.4,10000],[49.4,10082],[49.4,10167],[49.4,10251],[49.4,10334],[49.4,10417],[49.4,10500],[49.4,10584],[49.4,10667],[49.4,10750],[49.4,10832],[49.4,10917],[49.4,11000],[49.4,11084],[49.4,11167],[49.4,11251],[49.9,11334],[51.4,11417],[51.4,11500],[51.4,11582],[51.4,11667],[51.4,11750],[51.4,11832],[51.4,11915],[51.4,12001],[51.4,12084],[51.4,12167],[52.5,12251],[53.6,12334],[53.6,12417],[53.6,12500],[53.6,12584],[53.6,12668],[53.6,12750],[53.6,12832],[53.6,12917],[53.6,13000],[53.6,13082],[53.6,13167],[53.6,13251],[54.1,13334],[54.4,13417],[54.4,13500],[54.4,13584],[54.9,13667],[57.2,13750],[57.2,13834],[57.2,13917],[57.2,14000],[57.2,14082],[57.2,14167],[61.3,14251],[65.9,14334],[65.9,14417],[65.9,14500],[65.9,14582],[65.9,14667],[65.9,14750],[65.9,14832],[65.9,14917],[65.9,15000],[65.9,15084],[65.9,15165],[65.9,15251],[65.9,15334],[65.9,15417],[65.9,15500],[65.9,15584],[65.9,15665],[65.9,15750],[65.9,15834],[65.9,15917]]",1,0,170.558,178.025,65.9375,2.994,"[{""rating"":65.9375,""responseTime"":2.9939999999999998}]",space,6.934,,178.025,All the time,100,178.033,,,[],,0,1,1,1,1,audio/Narrative7Situation1.wav,audio/Narrative8Situation1.wav,audio/Narrative5Situation1.wav,audio/Narrative6Situation1.wav,2,5,5,2,3.451,,,,,,,,,,,,,,,,,,,,,,,,,,,,,,,,,,,,,,
,,,,,,5d134be5269dd500012b15fd,2024-02-08_13h05.52.079,group3.1-3.2-social-tom,2023.2.2,Win32,59.95203837,65c5074098b851296ff0b7ed,65c513b8cc649ae8122ee4b5,,,,,,,,,,,,,,,,,,,,,,,,,,,,,178.034,1,audio/Narrative8Situation2.wav,181.041,,181.041,191.174,"[[999,1],[999,82],[999,165],[999,250],[999,332],[999,416],[999,500],[999,583],[999,666],[999,750],[999,832],[50.3,916],[48.8,1000],[48.8,1082],[48.8,1166],[48.8,1250],[48.8,1333],[48.8,1416],[49.6,1500],[50,1582],[50,1666],[50,1750],[50,1832],[50,1916],[50,2000],[50,2083],[50,2166],[50,2250],[50,2333],[50,2416],[50,2500],[50,2583],[50,2666],[50,2750],[50,2833],[50,2915],[50,3000],[50,3083],[50,3166],[50,3250],[50,3332],[50,3416],[50,3500],[50,3583],[50,3666],[50,3750],[50,3833],[50,3916],[50,4000],[50,4082],[50,4165],[50,4250],[50,4332],[50,4416],[50,4500],[50,4582],[50,4665],[50,4750],[50,4832],[50,4915],[50,5000],[50,5083],[50,5165],[50,5250],[50,5332],[50,5416],[50,5500],[50,5582],[50,5665],[50,5750],[50,5832],[50,5916],[50,6000],[50,6082],[50,6166],[51.8,6250],[55,6333],[56.9,6417],[56.9,6500],[56.9,6583],[56.9,6666],[56.9,6750],[56.1,6833],[51.6,6916],[51.6,7000],[51.6,7083],[51.6,7166],[51.6,7250],[51.6,7332],[51.6,7416],[51.6,7500],[51.6,7583],[51.6,7666],[51.6,7750],[51.6,7832],[51.6,7915],[51.6,8000],[51.6,8082],[51.6,8166],[51.6,8248],[51.6,8332],[51.6,8416],[51.6,8500],[51.6,8583],[51.6,8665],[51.6,8750],[51.6,8833],[51.6,8916],[51.6,9000],[51.6,9083],[51.6,9166],[51.6,9250],[51.6,9332],[51.6,9416],[51.6,9500],[51.6,9582],[51.6,9665],[55.2,9750],[62.1,9833],[64.1,9915],[64.1,10000],[64.1,10082]]",1,0,191.174,215.058,72.1875,23.12,"[{""rating"":75.8125,""responseTime"":12.658999999999992},{""rating"":85,""responseTime"":17.744},{""rating"":72.1875,""responseTime"":23.120000000000005}]",space,23.363,,215.058,Half the time,50,215.065,,,[],,0,2,2,2,1,audio/Narrative7Situation2.wav,audio/Narrative8Situation2.wav,audio/Narrative5Situation2.wav,audio/Narrative6Situation2.wav,3,3,3,3,,,,,,,,,,,,,,,,,,,,,,,,,,,,,,,,,,,,,,,
,,,,,,5d134be5269dd500012b15fd,2024-02-08_13h05.52.079,group3.1-3.2-social-tom,2023.2.2,Win32,59.95203837,65c5074098b851296ff0b7ed,65c513b8cc649ae8122ee4b5,,,,,,,,,,,,,,,,,,,,,,,,,,,,,215.066,1,audio/Narrative8Situation3.wav,219.074,,219.074,241.441,"[[999,1],[999,84],[999,165],[999,250],[999,334],[999,417],[999,500],[999,584],[999,667],[68.1,750],[58.1,834],[54.6,915],[54.6,1000],[54.6,1082],[54.6,1165],[50.8,1250],[50.8,1334],[50.8,1417],[50.8,1500],[50.8,1584],[50.8,1667],[50.8,1750],[50.8,1832],[50.8,1915],[50.8,2000],[50.8,2082],[50.8,2167],[50.8,2250],[50.8,2334],[50.8,2417],[50.8,2500],[50.8,2582],[50.8,2667],[50.8,2748],[50.8,2832],[50.8,2915],[50.8,3000],[50.8,3084],[50.8,3167],[50.8,3250],[50.8,3334],[50.8,3417],[50.8,3500],[50.8,3582],[50.8,3665],[50.8,3748],[50.8,3832],[50.8,3915],[50.8,4000],[50.8,4084],[50.8,4165],[50.8,4248],[50.8,4334],[50.8,4417],[50.8,4498],[50.8,4582],[50.8,4665],[50.8,4750],[50.8,4832],[50.8,4915],[50.8,5000],[50.8,5084],[50.8,5167],[50.8,5250],[50.8,5332],[50.8,5417],[50.8,5500],[50.8,5582],[50.8,5665],[50.8,5750],[50.8,5832],[50.8,5915],[50.8,5998],[50.8,6084],[50.8,6165],[50.8,6250],[50.8,6332],[52.2,6415],[54.3,6501],[56.8,6584],[58.8,6667],[59.3,6750],[59.3,6832],[59.3,6917],[59.3,7000],[59.3,7082],[59.3,7165],[59.3,7250],[59.3,7334],[59.3,7417],[59.3,7500],[59.3,7582],[59.3,7665],[59.3,7750],[59.3,7832],[59.3,7917],[59.3,7998],[59.3,8084],[59.3,8167],[59.3,8250],[59.3,8334],[59.3,8415],[59.3,8498],[59.3,8582],[59.3,8665],[59.3,8750],[59.3,8832],[59.3,8917],[59.3,9000],[59.3,9082],[59.3,9165],[59.3,9250],[60.5,9334],[63,9417],[65.8,9500],[68.8,9584],[68.9,9667],[68.9,9750],[68.9,9832],[68.9,9915],[68.9,9998],[68.9,10082],[68.9,10165],[68.9,10250],[68.9,10332],[68.9,10417],[68.9,10500],[68.9,10582],[68.9,10667],[68.9,10750],[68.9,10832],[68.9,10915],[69.9,11000],[71.6,11084],[71.6,11167],[71.6,11250],[71.6,11335],[71.6,11417],[71.6,11500],[71.6,11582],[71.6,11665],[71.6,11750],[71.6,11832],[71.6,11915],[71.6,12000],[71.6,12082],[71.6,12165],[71.6,12250],[71.6,12332],[73,12417],[74.7,12500],[74.7,12582],[74.7,12665],[74.7,12750],[74.7,12832],[74.7,12915],[74.7,13000],[74.6,13084],[73.3,13167],[73,13248],[73,13332],[73,13415],[73,13500],[73,13582],[74.3,13667],[74.3,13750],[74.3,13834],[74.3,13915],[74.3,14000],[74.3,14084],[75.5,14167],[75.5,14250],[75.5,14332],[75.5,14417],[75.5,14500],[75.5,14582],[75.5,14667],[75.5,14750],[75.5,14832],[75.5,14915],[75.5,14998],[75.5,15082],[75.5,15165],[74.7,15250],[74.7,15332],[74.7,15417],[74.7,15500],[74.7,15582],[74.7,15665],[74.7,15750],[74.7,15832],[74.7,15915],[74.7,16000],[74.7,16082],[74.6,16167],[74.6,16250],[74.6,16332],[74.6,16415],[74.6,16500],[74.6,16583],[74.6,16665],[74.6,16750],[74.6,16833],[74.6,16915],[74.6,17000],[74.6,17083],[74.6,17167],[74.6,17250],[74.6,17333],[74.6,17415],[74.6,17500],[74.6,17583],[74.6,17665],[74.6,17750],[74.6,17833],[74.7,17915],[75.3,18000],[75.3,18084],[75.3,18167],[75.3,18250],[75.3,18333],[75.3,18417],[75.3,18500],[75.3,18583],[75.3,18665],[75.3,18750],[75.3,18833],[75.3,18915],[75.3,18998],[75.3,19084],[75.3,19167],[75.3,19250],[75.3,19333],[75.3,19417],[75.3,19500],[75.3,19583],[75.3,19665],[75.3,19750],[75.3,19833],[75.3,19917],[75.3,19998],[75.3,20083],[75.3,20167],[75.3,20248],[75.3,20333],[75.3,20417],[75.3,20500],[75.3,20584],[75.3,20665],[75.3,20750],[75.3,20834],[75.6,20917],[77.2,21000],[77.2,21083],[77.2,21167],[77.2,21250],[77.2,21333],[77.2,21417],[77.2,21500],[77.2,21583],[77.2,21665],[77.2,21750],[77.2,21833],[77.2,21915],[77.2,21998],[77.2,22083],[77.2,22167],[77.2,22250],[77.2,22334]]",1,0,241.441,245.574,75.625,4.127,"[{""rating"":75.625,""responseTime"":4.1270000000000095}]",space,1.308,,245.574,Not at all,0,245.58,,,[],,0,3,3,3,1,audio/Narrative7Situation3.wav,audio/Narrative8Situation3.wav,audio/Narrative5Situation3.wav,audio/Narrative6Situation3.wav,8,4,3,5,,,,,,,,,,,,,,,,,,,,,,,,,,,,,,,,,,,,,,,
,,,,,,5d134be5269dd500012b15fd,2024-02-08_13h05.52.079,group3.1-3.2-social-tom,2023.2.2,Win32,59.95203837,65c5074098b851296ff0b7ed,65c513b8cc649ae8122ee4b5,,,,,,,,,,,,,,,,,,,,,,,,,,,,,245.581,1,audio/Narrative8Situation4.wav,248.591,,248.591,262.774,"[[75.3,13665],[75.3,13748],[75.3,13832],[74.9,13916],[73.8,13998],[73.8,14081],[73.8,14165]]",1,0,262.774,269.741,65.8125,2.339,"[{""rating"":65.8125,""responseTime"":2.3389999999999986}]",space,6.429,,269.741,Half the time,50,269.744,,,[],,0,4,4,4,1,audio/Narrative7Situation4.wav,audio/Narrative8Situation4.wav,audio/Narrative5Situation4.wav,audio/Narrative6Situation4.wav,3,3,1,2,,,,,,,,,,,,,,,,,,,,,,,,,,,,,,,,,,,,,,,
,,,,,,5d134be5269dd500012b15fd,2024-02-08_13h05.52.079,group3.1-3.2-social-tom,2023.2.2,Win32,59.95203837,65c5074098b851296ff0b7ed,65c513b8cc649ae8122ee4b5,,,,,,,,,,,,,,,,,,,,,,,,,,,,,269.745,1,audio/Narrative8Situation5.wav,271.757,,271.757,280.008,"[[50,500],[48.9,582],[48.9,665],[48.9,750],[48.9,832],[49.1,915],[49.3,1000],[49.3,1082],[49.3,1165],[49.3,1250],[49.3,1332],[50.6,1415],[50.6,1500],[50.6,1582],[50.6,1666],[50.6,1748],[50.6,1832],[50.6,1915],[50.6,2000],[50.6,2084],[50.6,2165],[50.6,2250],[50.6,2332],[50.6,2415],[50.6,2498],[50.6,2582],[50.6,2666],[52.5,2750],[56.3,2834],[56.8,2915],[56.8,3000],[56.8,3082],[56.8,3165],[56.8,3250],[56.8,3334],[56.8,3416],[56.8,3500],[56.6,3584],[52.5,3666],[50.5,3748],[50.5,3832],[50.5,3915],[50.5,4000],[50.5,4084],[50.5,4166],[50.5,4250],[50.5,4332],[50.5,4415],[50.3,4500],[50.2,4582],[50.2,4666],[50.2,4748],[50.2,4832],[50.2,4916],[50.2,4998],[50.2,5082],[50.2,5165],[50.2,5250],[50.2,5332],[54.9,5415],[56.3,5500],[56.3,5584],[56.3,5666],[56.3,5750],[56.3,5832],[56.3,5916],[56.3,5998],[56.3,6082],[56.3,6165],[56.3,6250],[56.3,6332],[56.3,6416],[56.3,6500],[56.3,6582],[56.3,6665],[56.3,6748],[56.3,6832],[56.3,6915],[56.3,6998],[56.3,7082],[56.3,7165],[56.3,7248],[56.3,7332],[56.3,7415],[56.3,7500],[56.3,7582],[57.7,7666],[61.3,7750],[62.1,7831],[62.1,7915],[62.1,8000],[62.1,8082],[60.9,8166],[60.6,8250]]",1,0,280.008,283.374,58.75,1.272,"[{""rating"":58.75,""responseTime"":1.2720000000000482}]",space,2.82,,283.374,All the time,100,283.378,,,[],,0,5,5,5,1,audio/Narrative7Situation5.wav,audio/Narrative8Situation5.wav,audio/Narrative5Situation5.wav,audio/Narrative6Situation5.wav,5,2,5,2,,,,,,,,,,,,,,,,,,,,,,,,,,,,,,,,,,,,,,,
,,,,,,5d134be5269dd500012b15fd,2024-02-08_13h05.52.079,group3.1-3.2-social-tom,2023.2.2,Win32,59.95203837,65c5074098b851296ff0b7ed,65c513b8cc649ae8122ee4b5,,,,,,,,,,,,,,,,,,,,,,,,,,,,,283.379,1,audio/Narrative8Situation6.wav,285.39,,285.39,291.874,"[[999,0],[999,82],[999,166],[999,249],[999,332],[999,416],[999,500],[999,584],[999,665],[58,750],[54.7,834],[51.1,916],[51.1,1000],[51.1,1084],[51.1,1165],[51.1,1250],[51.1,1332],[51.1,1415],[51.1,1500],[51.1,1584],[51.1,1666],[50.5,1750],[50.5,1832],[50.5,1916],[50.5,2000],[50.5,2082],[50.5,2166],[50.5,2249],[50.5,2332],[50.5,2416],[50.5,2500],[50.5,2582],[50.5,2665],[50.5,2750],[50.5,2832],[50.5,2915],[50.5,3000],[50.5,3084],[50.5,3165],[50.5,3250],[50.5,3332],[50.5,3415],[50.5,3500],[50.5,3582],[50.5,3666],[50.5,3750],[50.5,3832],[50.5,3915],[50.5,3999],[50.5,4084],[50.5,4166],[50.5,4250],[50.5,4332],[50.5,4416],[50.5,4500],[50.5,4582],[50.5,4666],[50.5,4750],[50.5,4832],[50.5,4916],[50.5,5000],[50.5,5082],[50.5,5165],[50.5,5250],[50.5,5332],[50.5,5415],[50.5,5500],[50.5,5582],[51.8,5666],[52.2,5750],[52.2,5832],[52.2,5916],[52.2,5999],[52.2,6082],[52.2,6166],[52.2,6249],[51.9,6334],[51.3,6416]]",1,0,291.874,297.59,52.5,4.906,"[{""rating"":50.5,""responseTime"":2.1030000000000086},{""rating"":52.0625,""responseTime"":3.752999999999986},{""rating"":52.5,""responseTime"":4.906000000000006}]",space,5.175,,297.59,Half the time,50,297.594,,,[],,0,6,6,6,1,audio/Narrative7Situation6.wav,audio/Narrative8Situation6.wav,audio/Narrative5Situation6.wav,audio/Narrative6Situation6.wav,3,2,3,2,,,,,,,,,,,,,,,,,,,,,,,,,,,,,,,,,,,,,,,
,,,,,,5d134be5269dd500012b15fd,2024-02-08_13h05.52.079,group3.1-3.2-social-tom,2023.2.2,Win32,59.95203837,65c5074098b851296ff0b7ed,65c513b8cc649ae8122ee4b5,,,,,,,,,,,,,,,,,,,,,,,,,,,,,297.594,1,audio/Narrative8Situation7.wav,300.607,,300.607,312.691,"[[999,0],[999,83],[999,165],[999,249],[999,333],[999,415],[999,499],[999,583],[999,665],[45.9,750],[46.3,834],[47.1,915],[47.5,999],[47.5,1083],[47.5,1165],[47.5,1249],[47.5,1333],[47.5,1415],[47.5,1499],[47.5,1583],[47.5,1665],[47.8,1750],[48.4,1833],[48.4,1915],[48.4,1999],[48.4,2083],[48.4,2165],[48.9,2250],[49.7,2750],[49.6,2833],[49.6,2915],[49.6,3000],[49.6,3083],[49.6,3167],[49.6,3249],[49.6,3333],[49.6,3415],[49.1,3500],[48.4,3583],[48.4,3665],[48.4,3750],[48.4,3831],[48.4,3915],[48.4,3999],[48.4,4081],[48.4,4165],[48.4,4250],[48.4,4333],[48.4,4415],[48.4,4499],[48.4,4583],[48.4,4665],[48.4,4750],[48.4,4833],[48.4,4915],[48.4,4999],[48.4,5083],[48.4,5165],[48.4,5249],[48.4,5333],[48.4,5415],[48.4,5499],[48.4,5583],[48.4,5665],[48.4,5749],[48.4,5831],[48.4,5915],[48.4,5999],[48.4,6083],[48.4,6165],[48.4,6250],[48.4,6333],[50.3,6417],[50.3,6499],[50.3,6581],[50.3,6665],[50.3,6749],[50.3,6833],[50.3,6915],[50.8,7000],[55.2,7083],[55.2,7165],[55.2,7249],[55.2,7333],[55.2,7415],[55.2,7500],[55.2,7581],[55.2,7665],[55.2,7749],[55.2,7831],[55.2,7915],[55.2,7999],[55.2,8083],[55,8167],[52.7,8250],[52.4,8333],[52.4,8417],[52.4,8500],[52.4,8581],[52.4,8665],[52.4,8750],[52.4,8833],[52.4,8915],[52.4,9000],[52.4,9083],[53.3,9165],[55.2,9249],[55.2,9331],[55.2,9415],[55.2,9499],[55.2,9583],[55.2,9665],[55.2,9750],[55.2,9833],[56.4,9917],[58.1,10000],[58.1,10081],[58.1,10165],[58.1,10249],[58.1,10331],[58.1,10415],[58.1,10499],[59.1,10583],[61.3,10667],[61.4,10749],[61.4,10833],[61.4,10915],[61.4,10999],[61.4,11083],[61.4,11165],[61.4,11250],[61.4,11333],[61.4,11415],[61.4,11499],[61.4,11581],[61.4,11665],[61.4,11749],[61.4,11831],[61.4,11915],[61.4,12000],[61.4,12083]]",1,0,312.691,321.84,62.375,7.442,"[{""rating"":60.62499999999999,""responseTime"":1.5360000000000014},{""rating"":62.375,""responseTime"":7.442000000000007}]",space,8.605,,321.84,Half the time,50,321.844,,,[],,0,7,7,7,1,audio/Narrative7Situation7.wav,audio/Narrative8Situation7.wav,audio/Narrative5Situation7.wav,audio/Narrative6Situation7.wav,5,3,4,5,,,,,,,,,,,,,,,,,,,,,,,,,,,,,,,,,,,,,,,
,,,,,,5d134be5269dd500012b15fd,2024-02-08_13h05.52.079,group3.1-3.2-social-tom,2023.2.2,Win32,59.95203837,65c5074098b851296ff0b7ed,65c513b8cc649ae8122ee4b5,,,,,,,,,,,,,,,,,,,,,,,,,,,,,321.844,1,audio/Narrative8Situation8.wav,324.857,,324.857,337.723,"[[999,0],[999,81],[999,165],[999,250],[999,333],[999,415],[999,499],[999,581],[999,665],[999,749],[55.2,831],[55.2,915],[55.2,999],[52.1,1083],[51.3,1165],[51.3,1249],[51.3,1333],[51.3,1415],[51.1,1499],[50.8,1581],[50.8,1665],[50.8,1750],[50.8,1831],[50.8,1915],[50.8,1999],[50.8,2081],[50.8,2165],[50.8,2250],[50.8,2333],[50.8,2415],[50.8,2499],[50.8,2583],[50.8,2665],[50.8,2749],[50.8,2831],[50.8,2915],[50.8,2999],[50.8,3081],[50.8,3165],[50.8,3249],[50.8,3331],[50.8,3415],[50.8,3499],[50.8,3581],[50.8,3665],[50.8,3749],[52.7,3833],[53.9,3915],[53.9,3999],[53.9,4083],[53.9,4165],[53.9,4250],[53.9,4331],[53.9,4415],[53.9,4499],[53.9,4583],[53.9,4665],[53.9,4749],[53.9,4833],[53.9,4915],[53.9,4999],[54.9,5083],[57.5,5165],[60,5249],[61.9,5333],[62.2,5415],[62.2,5499],[62.2,5583],[62.2,5665],[62.2,5749],[62.2,5831],[65.6,5915],[72.2,6000],[72.8,6083],[72.8,6165],[72.8,6249],[72.8,6333],[72.8,6415],[72.8,6499],[72.8,6581],[72.8,6665],[72.8,6749],[72.8,6831],[72.8,6915],[72.8,6997],[72.8,7083],[72.8,7165],[72.8,7249],[72.8,7333],[72.8,7415],[72.8,7499],[72.8,7581],[72.8,7665],[72.8,7749],[72.8,7833],[72.8,7915],[72.8,7999],[70.6,8081],[67.1,8165],[67.1,8249],[67.1,8331],[67.1,8415],[67.7,8499],[70.6,8583],[70.6,8665],[70.6,8749],[70.6,8831],[70.6,8915],[70.6,8999],[70.6,9081],[70.6,9165],[70.6,9249],[70.6,9333],[70.6,9415],[70.6,9499],[70.6,9583],[70.6,9665],[71.3,9750],[73.9,9831],[74.1,9915],[74.1,9999],[74.1,10083],[74.1,10165],[74.1,10250],[74.1,10331],[72.7,10415],[72.2,10499],[72.2,10581],[72.2,10665],[72.2,10749],[72.2,10831],[72.2,10915],[72.5,10999],[73.6,11083],[73.6,11165],[73.6,11249],[78.6,11333],[83.3,11415],[83.3,11499],[83.3,11581],[81.6,11665],[74.1,11749],[74.1,11831],[74.1,11915],[74.1,11999],[74.1,12083],[74.1,12165],[74.7,12249],[74.7,12333],[74.7,12415],[74.7,12499],[74.7,12581],[74.7,12665],[74.7,12749],[74.7,12831]]",1,0,337.723,340.04,74.0625,1.904,"[{""rating"":74.0625,""responseTime"":1.9040000000000532}]",space,1.778,,340.04,Half the time,50,340.042,,,[],,0,8,8,8,1,audio/Narrative7Situation8.wav,audio/Narrative8Situation8.wav,audio/Narrative5Situation8.wav,audio/Narrative6Situation8.wav,2,3,3,5,,,,,,,,,,,,,,,,,,,,,,,,,,,,,,,,,,,,,,,
,,,,,,5d134be5269dd500012b15fd,2024-02-08_13h05.52.079,group3.1-3.2-social-tom,2023.2.2,Win32,59.95203837,65c5074098b851296ff0b7ed,65c513b8cc649ae8122ee4b5,,,,,,,,,,,,,,,,,,,,,,,,,,,,,340.042,1,audio/Narrative8Situation9.wav,343.056,,343.056,354.373,"[[73.8,3415],[52.8,4083],[52.8,4166],[52.8,4250],[52.8,4333],[52.8,4415],[52.8,4500],[52.8,4583],[52.5,4666],[52.1,4750],[52.1,4834],[52.1,4916],[52.1,5000],[52.1,5083],[51.6,5166],[51.6,5250],[51.6,5333],[51.6,5416],[51.6,5499],[50.6,5584],[49.1,5666],[49.1,5750],[49.1,5834],[49.1,5916],[49.1,6000],[49.1,6083],[49.1,6166],[49.1,6250],[50.2,6334],[50.5,6416],[50.5,6500],[50.5,6583],[54.1,6666],[72.8,6750],[83.9,6834],[84.4,6916],[84.4,7000],[84.4,7083],[82.5,7166],[82.2,7250],[82.2,7333],[82.2,7416],[82.2,7500],[82.2,7583],[82.2,7665],[82.2,7750],[82.2,7834],[82.2,7916],[82.2,8000],[82.2,8083],[82.2,8166],[82.2,8250],[82.2,8333],[82.2,8415],[82.2,8499],[82.2,8583],[82.2,8666],[82.8,8750],[88.3,8834],[90.5,8916],[90.5,9000],[90.5,9083],[90.5,9166],[90.5,9250],[90.5,9333],[90.5,9416],[91.1,9500],[92.2,9583],[92.2,9666],[92.2,9750],[92.2,9834],[92.2,9916],[92.2,10000],[92.2,10083],[92.2,10166],[92.2,10250],[92.2,10333],[92.2,10415],[92.2,10500],[92.2,10583],[92.2,10666],[92.2,10749],[92.2,10834],[92.2,10916],[92.2,10999],[91.8,11083],[90.9,11165],[90.9,11249]]",1,0,354.373,359.506,84.5625,3.377,"[{""rating"":83.125,""responseTime"":1.882000000000005},{""rating"":84.5625,""responseTime"":3.3770000000000095}]",space,4.611,,359.506,All the time,100,359.511,,,[],,0,9,9,9,1,audio/Narrative7Situation9.wav,audio/Narrative8Situation9.wav,audio/Narrative5Situation9.wav,audio/Narrative6Situation9.wav,2,3,3,4,,,,,,,,,,,,,,,,,,,,,,,,,,,,,,,,,,,,,,,
,,,,,,5d134be5269dd500012b15fd,2024-02-08_13h05.52.079,group3.1-3.2-social-tom,2023.2.2,Win32,59.95203837,65c5074098b851296ff0b7ed,65c513b8cc649ae8122ee4b5,,,,,,,,,,,,,,,,,,,,,,,,,,,,,359.512,1,audio/Narrative7Situation1.wav,361.522,,361.522,417.405,"[[999,0],[999,84],[999,166],[999,250],[999,334],[999,416],[999,500],[999,582],[999,666],[999,750],[42.8,832],[50.9,1416],[50.5,1500],[50.5,1582],[50.5,1668],[50.5,1750],[50.5,1834],[50.5,1916],[50.5,2000],[50.5,2084],[50.5,2166],[50.5,2250],[50.5,2334],[50.5,2418],[50.5,2500],[50.5,2582],[50.5,2666],[50.5,2750],[50.5,2834],[50.5,2916],[50.5,3000],[50.5,3084],[50.5,3166],[50.5,3250],[50.5,3334],[50.5,3416],[50.5,3500],[50.5,3582],[50.5,3666],[50.5,3750],[50.5,3832],[50.5,3916],[50.5,4000],[50.5,4084],[50.5,4166],[50.5,4250],[50.5,4334],[50.5,4416],[50.5,4500],[50.5,4582],[50.5,4666],[50.5,4750],[50.5,4834],[50.5,4916],[50.5,5000],[50.5,5084],[50.5,5166],[50.5,5250],[53.8,5334],[67.1,5416],[75.5,5500],[76.3,5582],[76.3,5666],[74.3,5750],[63,5834],[57.4,5916],[57.4,6000],[57.4,6084],[57.4,6166],[57.4,6250],[55.3,6332],[55.3,6416],[55.3,6500],[55.3,6584],[55.3,6666],[55.3,6750],[55.3,6834],[55.3,6916],[55.3,7000],[55.3,7084],[55.3,7166],[55.3,7250],[55.3,7334],[55.3,7416],[55.3,7500],[55.3,7584],[55.3,7666],[55.3,7750],[55.3,7832],[55.3,7916],[55.3,8000],[55.3,8082],[55.3,8166],[55.3,8250],[55.3,8334],[55.3,8416],[55.3,8500],[55.3,8582],[56.9,8668],[57.4,8750],[57.4,8834],[57.4,8916],[57.4,9000],[57.4,9084],[57.4,9166],[57.4,9250],[57.4,9332],[57.4,9416],[57.4,9500],[57.4,9582],[57.4,9666],[57.4,9750],[57.4,9834],[57.4,9916],[57.4,10000],[57.4,10082],[57.4,10165],[57.4,10250],[57.4,10332],[57.4,10418],[57.4,10500],[57.4,10584],[57.4,10666],[57.4,10750],[57.4,10832],[57.4,10916],[57.4,11000],[57.4,11084],[57.4,11165],[57.4,11250],[57.4,11334],[57.4,11416],[57.4,11500],[57.4,11584],[57.4,11666],[57.4,11750],[57.4,11832],[57.4,11916],[57.4,12000],[57.4,12084],[57.4,12166],[57.4,12250],[57.4,12334],[58.1,12416],[58.6,12500],[58.6,12582],[58.6,12666],[58.6,12750],[58.6,12834],[58.6,12916],[58.6,13000],[58.6,13084],[58.6,13166],[58.6,13250],[58.6,13332],[58.6,13416],[58.6,13500],[58.6,13582],[58.6,13666],[58.6,13750],[58.6,13834],[58.6,13916],[58.6,14000],[58.6,14084],[58.6,14166],[58.6,14250],[58.6,14332],[58.6,14416],[58.6,14500],[58.6,14584],[58.6,14666],[58.6,14750],[58.6,14834],[58.6,14915],[58.6,15000],[58.6,15084],[58.6,15166],[58.6,15250],[58.6,15334],[58.6,15416],[58.6,15500],[58.6,15582],[58.6,15666],[58.6,15750],[58.6,15834],[58.6,15916],[58.6,16000],[58.6,16082],[58.6,16166],[58.6,16250],[58.6,16332],[58.6,16416],[58.6,16500],[58.6,16582],[58.6,16666],[58.6,16750],[58.6,16834],[58.6,16915],[58.6,17000],[58.6,17082],[58.6,17168],[58.6,17250],[58.6,17332],[58.6,17416],[58.6,17500],[58.6,17582],[58.6,17665],[58.6,17750],[58.6,17834],[58.6,17916],[58.6,18000],[58.6,18084],[58.6,18166],[58.6,18250],[58.6,18332],[58.6,18416],[58.6,18500],[58.6,18582],[58.6,18666],[59.6,18750],[60.5,18834],[60.5,18916],[60.5,19000],[60.5,19084],[60.5,19166],[60.5,19250],[60.5,19332],[60.5,19416],[60.5,19500],[60.5,19582],[60.5,19665],[60.5,19750],[60.9,19834],[61.8,19916],[61.8,20000],[61.8,20084],[61.8,20166],[61.8,20250],[61.8,20332],[61.8,20416],[61.8,20500],[61.8,20582],[63.1,20666],[63.1,20750],[63.1,20834],[63.1,20916],[63.1,21000],[63.1,21082],[63.1,21166],[63.1,21250],[63.1,21332],[63.1,21416],[63.1,21500],[63.1,21582],[63.1,21665],[63.1,21750],[63.1,21834],[63.1,21916],[63.1,22000],[63.1,22084],[63.1,22166],[63.1,22250],[63.1,22332],[63.1,22416],[63.1,22500],[63.1,22582],[63.1,22666],[63.1,22750],[63.1,22832],[63.1,22916],[63.1,23000],[63.1,23082],[63.1,23166],[61.9,23250],[60.5,23334],[60.5,23416],[60.5,23500],[60.5,23584],[60.5,23666],[60.5,23750],[60.5,23834],[60.5,23916],[60.5,24000],[60.5,24082],[60.5,24166],[60.5,24250],[60.5,24334],[60.5,24416],[60.5,24500],[60.5,24584],[60.5,24665],[60.5,24750],[60.5,24832],[60.5,24916],[60.5,25000],[60.5,25082],[60.5,25166],[60.5,25250],[60.5,25334],[60.5,25416],[60.5,25500],[60.5,25584],[60.5,25665],[60.5,25750],[60.5,25832],[60.5,25918],[60.5,26000],[60.5,26082],[60.5,26166],[60.5,26250],[60.5,26332],[60.5,26416],[60.5,26500],[60.5,26584],[60.5,26666],[60.5,26750],[60.5,26832],[60.5,26916],[60.5,27000],[60.5,27082],[60.5,27166],[60.5,27250],[60.5,27332],[60.5,27415],[60.5,27500],[60.5,27582],[60.5,27666],[60.5,27750],[60.5,27834],[60.5,27916],[60.5,28000],[60.5,28084],[60.5,28166],[60.5,28250],[60.5,28334],[60.5,28416],[60.5,28500],[60.5,28584],[60.5,28665],[60.5,28750],[60.5,28832],[60.5,28915],[60.5,29000],[62.1,29084],[62.1,29165],[62.1,29250],[62.1,29334],[62.1,29416],[62.1,29500],[62.1,29584],[62.1,29665],[62.1,29750],[62.1,29834],[62.1,29916],[62.1,30000],[62.1,30082],[62.1,30166],[62.1,30250],[62.1,30332],[62.1,30418],[62.1,30500],[62.1,30582],[62.1,30666],[62.1,30750],[62.1,30832],[62.1,30916],[62.1,31000],[62.1,31082],[62.1,31165],[62.1,31250],[62.1,31332],[62.1,31416],[62.1,31500],[62.1,31584],[62.1,31666],[62.1,31750],[62.1,31832],[62.1,31916],[62.1,32000],[62.1,32082],[62.1,32166],[62.1,32250],[62.1,32332],[62.1,32416],[62.1,32500],[62.1,32582],[62.1,32665],[62.1,32750],[62.1,32834],[62.1,32916],[62.1,33000],[62.1,33082],[62.1,33166],[62.1,33250],[62.1,33332],[62.1,33416],[62.1,33500],[62.1,33582],[62.1,33666],[62.1,33750],[62.1,33832],[62.1,33916],[62.1,34000],[62.1,34082],[62.1,34166],[62.1,34248],[62.1,34334],[62.1,34416],[62.1,34500],[62.1,34584],[62.1,34666],[62.1,34750],[62.1,34834],[62.1,34916],[62.1,35000],[62.1,35084],[62.1,35166],[62.1,35250],[62.1,35332],[62.1,35416],[62.1,35500],[62.1,35582],[62.1,35666],[62.1,35750],[62.1,35832],[62.1,35916],[62.1,36000],[62.1,36082],[62.1,36166],[62.1,36250],[62.1,36332],[62.1,36416],[62.1,36500],[62.1,36582],[62.1,36666],[62.1,36750],[62.1,36834],[62.1,36916],[62.1,37000],[62.1,37082],[62.1,37166],[62.1,37250],[62.1,37332],[62.1,37416],[62.1,37500],[62.1,37584],[62.1,37666],[62.1,37750],[62.1,37832],[62.1,37916],[62.1,38000],[62.1,38082],[62.1,38166],[62.1,38250],[62.1,38332],[62.1,38416],[62.1,38500],[62.1,38584],[62.1,38666],[62.1,38750],[62.1,38832],[62.1,38916],[62.1,39000],[62.1,39082],[62.1,39166],[62.1,39250],[62.1,39332],[62.1,39416],[62.1,39500],[62.1,39582],[62.1,39666],[62.1,39750],[62.1,39834],[62.1,39916],[62.1,40000],[62.1,40084],[62.1,40166],[62.1,40250],[62.1,40332],[62.1,40416],[62.1,40500],[62.1,40582],[62.1,40666],[62.1,40750],[62.1,40832],[62.1,40916],[62.1,41000],[62.1,41082],[62.1,41166],[62.1,41250],[62.1,41332],[62.1,41416],[62.2,41498],[62.4,41584],[62.5,41666],[62.5,41750],[62.5,41832],[62.5,41916],[62.5,42000],[62.5,42082],[62.5,42166],[62.5,42250],[62.5,42334],[62.5,42416],[62.5,42498],[62.5,42582],[62.5,42666],[63.3,42750],[64.1,42832],[64.1,42916],[64.1,43000],[64.1,43082],[64.1,43166],[64.1,43250],[64.1,43332],[64.1,43416],[64.3,43500],[66.8,43584],[66.8,43666],[66.8,43748],[66.8,43832],[66.8,43916],[66.8,44000],[66.8,44082],[66.8,44166],[66.8,44250],[66.8,44332],[66.8,44416],[66.8,44498],[67.4,44584],[68.1,44666],[68.1,44748],[68.1,44832],[68.1,44916],[68.1,45000],[68.1,45082],[68.1,45166],[68.1,45250],[68.1,45332],[68.1,45416],[68.1,45498],[68.1,45582],[68.1,45666],[68.1,45748],[68.1,45832],[68.1,45916],[68.1,46000],[68.1,46082],[68.1,46166],[68.1,46250],[68.1,46332],[68.1,46416],[68.1,46500],[68.1,46582],[68.1,46666],[68.1,46750],[68.1,46832],[68.1,46916],[68.1,47000],[68.1,47082],[68.1,47166],[68.1,47250],[68.1,47332],[68.1,47416],[68.1,47500],[68.1,47582],[68.1,47666],[68.1,47750],[68.1,47832],[68.1,47916],[68.1,47998],[68.1,48082],[68.1,48166],[68.1,48250],[68.1,48332],[68.1,48416],[68.1,48500],[68.1,48582],[68.1,48666],[68.1,48750],[68.6,48832],[70.2,48916],[71.3,49000],[71.3,49082],[71.3,49166],[71.3,49250],[71.3,49332],[71.3,49416],[71.3,49500],[71.3,49582],[71.3,49666],[71.3,49748],[71.3,49832],[71.3,49916],[71.3,50000],[71.3,50084],[71.3,50166],[71.3,50250],[71.3,50332],[71.3,50416],[70.2,50500],[68.8,50584],[68.8,50666],[68.8,50750],[68.8,50832],[68.8,50916],[68.8,51000],[68.8,51082],[68.8,51166],[68.8,51250],[68.8,51334],[68.8,51416],[68.8,51500],[68.8,51584],[68.8,51666],[68.8,51748],[68.8,51832],[69.3,51916],[70.5,52000],[70.8,52082],[70.8,52166],[70.8,52250],[70.8,52334],[70.8,52416],[70.8,52500],[70.8,52582],[70.8,52666],[70.8,52748],[70.8,52832],[70.8,52916],[70.8,52998],[70.8,53084],[70.8,53166],[70.8,53250],[70.8,53334],[70.8,53416],[70.8,53500],[70.8,53582],[70.8,53666],[70.8,53748],[70.8,53832],[70.8,53916],[70.8,54000],[70.8,54082],[70.8,54166],[70.8,54250],[70.8,54332],[70.8,54416],[70.8,54500],[70.8,54584],[70.8,54666],[70.8,54748],[70.8,54832],[70.8,54916],[70.8,55000],[70.8,55082],[70.8,55166],[70.8,55250],[70.8,55332],[70.8,55416],[70.8,55500],[70.8,55582],[70.8,55666],[70.8,55750],[70.8,55832]]",1,0,417.406,433.639,79.6875,9.319,"[{""rating"":77.1875,""responseTime"":5.478999999999985},{""rating"":79.6875,""responseTime"":9.319000000000017}]",space,15.7,,433.639,Half the time,50,433.645,,,[],,0,10,10,10,1,audio/Narrative8Situation1.wav,audio/Narrative7Situation1.wav,audio/Narrative6Situation1.wav,audio/Narrative5Situation1.wav,5,2,2,5,,,,,,,,,,,,,,,,,,,,,,,,,,,,,,,,,,,,,,,
,,,,,,5d134be5269dd500012b15fd,2024-02-08_13h05.52.079,group3.1-3.2-social-tom,2023.2.2,Win32,59.95203837,65c5074098b851296ff0b7ed,65c513b8cc649ae8122ee4b5,,,,,,,,,,,,,,,,,,,,,,,,,,,,,433.645,1,audio/Narrative7Situation2.wav,436.655,,436.655,444.121,"[[52.4,584],[51.6,667],[51.6,750],[51.6,833],[51.6,915],[50.8,1000],[50.8,1083],[50.8,1167],[50.8,1250],[50,1334],[50,1417],[50,1500],[50,1583],[50,1665],[50,1750],[50,1833],[50,1915],[50,2000],[50,2083],[50,2165],[50,2250],[50,2334],[50,2417],[50,2500],[50,2583],[50,2665],[50,2750],[50,2833],[50,2917],[50,3000],[50,3083],[50,3167],[50,3250],[50,3334],[50,3417],[50,3500],[50,3583],[50,3667],[50,3750],[50,3833],[50,3915],[50,4000],[50,4084],[50,4165],[50,4250],[50,4333],[50,4415],[50,4500],[50,4583],[50,4667],[50,4750],[50,4833],[50,4917],[50,5000],[50,5083],[50,5167],[50,5250],[50,5333],[50,5417],[50,5500],[50,5583],[50,5668],[50,5750],[50,5834],[50,5917],[50,6000],[50,6084],[50,6165],[50,6250],[50,6334],[50,6417],[50,6499],[50,6583],[50,6665],[50,6750],[50,6833],[50,6915],[50,7000],[50,7083],[50,7165],[50,7249],[50,7333],[50,7417]]",1,0,444.123,460.905,70.1875,15.014,"[{""rating"":72.5,""responseTime"":13.163999999999987},{""rating"":70.1875,""responseTime"":15.01400000000001}]",space,16.239,,460.905,Half the time,50,460.909,,,[],,0,11,11,11,1,audio/Narrative8Situation2.wav,audio/Narrative7Situation2.wav,audio/Narrative6Situation2.wav,audio/Narrative5Situation2.wav,3,3,3,3,,,,,,,,,,,,,,,,,,,,,,,,,,,,,,,,,,,,,,,
,,,,,,5d134be5269dd500012b15fd,2024-02-08_13h05.52.079,group3.1-3.2-social-tom,2023.2.2,Win32,59.95203837,65c5074098b851296ff0b7ed,65c513b8cc649ae8122ee4b5,,,,,,,,,,,,,,,,,,,,,,,,,,,,,460.909,1,audio/Narrative7Situation3.wav,468.921,,468.921,478.171,"[[999,0],[999,84],[999,165],[999,250],[999,334],[999,416],[999,500],[999,582],[999,666],[999,750],[999,834],[999,916],[999,1000],[999,1082],[999,1166],[49.7,1250],[49.7,1332],[49.7,1416],[49.7,1500],[49.7,1582],[49.7,1666],[49.7,1750],[49.7,1834],[49.7,1916],[49.7,2000],[49.6,2084],[49.6,2166],[49.6,2250],[49.6,2332],[49.6,2416],[49.6,2500],[49.6,2582],[49.6,2666],[49.6,2750],[49.6,2834],[49.6,2916],[49.6,3000],[49.6,3082],[49.6,3166],[49.6,3250],[49.6,3334],[49.6,3416],[49.6,3500],[49.6,3582],[49.6,3666],[49.6,3750],[49.6,3832],[49.6,3916],[49.6,4000],[49.6,4082],[49.6,4165],[49.6,4250],[49.6,4334],[49.6,4416],[49.6,4500],[50.6,4584],[53.6,4666],[53.9,4750],[53.9,4832],[53.9,4916],[53.9,5000],[53.9,5084],[53.9,5166],[53.9,5250],[53.9,5334],[53.9,5416],[53.9,5500],[55.2,5584],[57.5,5668],[58.4,5750],[58.4,5832],[58.4,5915],[58.4,6000],[58.4,6082],[58.4,6165],[58.4,6250],[58.4,6332],[58.4,6416],[58.4,6500],[58.4,6584],[58.4,6666],[58.4,6750],[58.4,6834],[58.4,6916],[58.4,7000],[58.4,7082],[58.4,7166],[58.4,7250],[58.4,7332],[58.4,7416],[58.4,7500],[58.4,7582],[58.4,7666],[58.4,7750],[58.4,7832],[58.4,7916],[58.4,8000],[58.4,8084],[58.4,8166],[58.4,8250],[58.4,8334],[58.4,8416],[60.2,8500],[62.4,8582],[62.4,8666],[62.4,8750],[62.4,8834],[62.4,8916],[57.7,9000],[55.3,9082],[55.3,9166],[55.3,9250]]",1,0,478.172,486.588,58.625,5.373,"[{""rating"":58.62499999999999,""responseTime"":5.3729999999999905}]",space,7.879,,486.589,Half the time,50,486.591,,,[],,0,12,12,12,1,audio/Narrative8Situation3.wav,audio/Narrative7Situation3.wav,audio/Narrative6Situation3.wav,audio/Narrative5Situation3.wav,4,8,5,3,,,,,,,,,,,,,,,,,,,,,,,,,,,,,,,,,,,,,,,
,,,,,,5d134be5269dd500012b15fd,2024-02-08_13h05.52.079,group3.1-3.2-social-tom,2023.2.2,Win32,59.95203837,65c5074098b851296ff0b7ed,65c513b8cc649ae8122ee4b5,,,,,,,,,,,,,,,,,,,,,,,,,,,,,486.592,1,audio/Narrative7Situation4.wav,489.605,,489.605,501.338,"[[999,1],[999,83],[999,165],[999,250],[999,332],[999,415],[999,500],[999,583],[999,665],[999,750],[999,833],[50.3,915],[50.2,999],[50.2,1082],[50.2,1165],[50.2,1250],[50.2,1332],[50.2,1415],[50.2,1499],[50.2,1582],[50.2,1665],[50.2,1749],[50.2,1832],[50.2,1915],[50.2,2000],[50.2,2082],[50.2,2165],[50.2,2249],[50.2,2332],[50.2,2415],[50.2,2500],[50.2,2582],[50.2,2665],[50.2,2749],[50.2,2833],[50.2,2915],[50.2,2999],[50.2,3082],[50.2,3165],[50.2,3249],[50.2,3332],[50.2,3415],[50.2,3500],[50.2,3583],[50.2,3665],[50.2,3750],[50.2,3832],[50.2,3915],[50.2,3999],[50.2,4082],[50.2,4165],[50.2,4250],[50.2,4332],[50.2,4415],[50.2,4500],[50.2,4582],[50.2,4665],[50.2,4750],[50.2,4833],[50.2,4915],[50.2,4999],[50.5,5084],[52.2,5165],[52.4,5249],[52.4,5332],[52.4,5415],[52.4,5499],[52.4,5582],[52.4,5665],[52.4,5750],[52.4,5832],[52.4,5915],[52.4,5999],[52.4,6083],[52.4,6165],[52.4,6250],[55.3,6333],[55.6,6415],[55.6,6499],[55.6,6582],[55.6,6665],[55.6,6749],[55.6,6832],[55.6,6915],[55.6,6999],[55.6,7083],[55.6,7165],[55.6,7249],[55.6,7333],[55.9,7415],[58.9,7499],[60.2,7583],[60.2,7665],[60.2,7749],[60.2,7833],[60.2,7915],[60.2,7999],[60.2,8083],[60.2,8165],[60.2,8249],[60.2,8333],[60.2,8415],[60.2,8499],[60.2,8583],[60.2,8665],[60.2,8749],[60.2,8833],[60.2,8915],[60.2,8999],[60.2,9082],[60.2,9165],[60.2,9249],[60.2,9332],[60.8,9415],[60.8,9500],[60.8,9583],[60.8,9665],[60.8,9749],[60.8,9832],[60.8,9915],[60.8,9999],[60.8,10082],[60.8,10165],[60.8,10249],[60.8,10332],[60.8,10415],[60.8,10499],[60.8,10583],[60.8,10665],[60.8,10749],[60.8,10832],[60.8,10915],[60.8,10999],[60.8,11083],[60.8,11165],[60.8,11250],[60.8,11333],[60.8,11415],[60.8,11499],[60.8,11582],[60.8,11665]]",1,0,501.338,507.137,61.4375,3.003,"[{""rating"":61.4375,""responseTime"":3.0030000000000427}]",space,5.259,,507.137,All the time,100,507.142,,,[],,0,13,13,13,1,audio/Narrative8Situation4.wav,audio/Narrative7Situation4.wav,audio/Narrative6Situation4.wav,audio/Narrative5Situation4.wav,3,3,2,1,,,,,,,,,,,,,,,,,,,,,,,,,,,,,,,,,,,,,,,
,,,,,,5d134be5269dd500012b15fd,2024-02-08_13h05.52.079,group3.1-3.2-social-tom,2023.2.2,Win32,59.95203837,65c5074098b851296ff0b7ed,65c513b8cc649ae8122ee4b5,,,,,,,,,,,,,,,,,,,,,,,,,,,,,507.142,1,audio/Narrative7Situation5.wav,512.155,,512.155,520.655,"[[49.9,1331],[49.9,1416],[49.9,1499],[49.9,1581],[49.9,1666],[49.9,1749],[49.9,1832],[51.1,1916],[52.2,1999],[52.2,2081],[52.2,2164],[52.2,2249],[52.2,2331],[52.7,2414],[53.8,2499],[53.8,2582],[53.8,2664],[53.8,2749],[53.8,2832],[53.8,2916],[53.9,3000],[56.3,3081],[56.8,3166],[56.8,3249],[56.8,3331],[56.8,3414],[56.9,3499],[56.9,3582],[56.9,3666],[56.9,3749],[57.2,3831],[58.4,3916],[58.4,3999],[58.4,4081],[58.4,4166],[59.4,4250],[59.4,4331],[59.4,4416],[59.4,4499],[59.4,4581],[59.4,4666],[59.4,4748],[59.4,4831],[59.4,4916],[59.4,4999],[59.4,5081],[59.4,5164],[59.4,5249],[59.4,5331],[59.4,5414],[59.4,5499],[59.4,5581],[59.4,5666],[59.4,5748],[59.4,5831],[59.4,5916],[59.4,5999],[59.4,6081],[59.4,6164],[60.3,6249],[64.3,6331],[64.7,6416],[64.7,6499],[64.7,6582],[64.7,6666],[64.7,6750],[64.7,6831],[64.7,6916],[64.7,6999],[64.7,7081],[64.7,7164],[64.7,7249],[64.7,7332],[64.7,7416],[64.7,7499],[64.7,7581],[64.7,7666],[64.7,7750],[64.7,7831],[64.7,7916],[64.7,7999],[64.7,8081],[64.7,8164],[64.7,8249],[64.7,8331],[64.7,8416],[64.7,8499]]",1,0,520.655,528.821,68.9375,4.888,"[{""rating"":64.6875,""responseTime"":1.2029999999999745},{""rating"":67.375,""responseTime"":2.108000000000061},{""rating"":69.25,""responseTime"":3.7939999999999827},{""rating"":68.9375,""responseTime"":4.888000000000034}]",space,7.625,,528.821,Not at all,0,528.826,,,[],,0,14,14,14,1,audio/Narrative8Situation5.wav,audio/Narrative7Situation5.wav,audio/Narrative6Situation5.wav,audio/Narrative5Situation5.wav,2,5,2,5,,,,,,,,,,,,,,,,,,,,,,,,,,,,,,,,,,,,,,,
,,,,,,5d134be5269dd500012b15fd,2024-02-08_13h05.52.079,group3.1-3.2-social-tom,2023.2.2,Win32,59.95203837,65c5074098b851296ff0b7ed,65c513b8cc649ae8122ee4b5,,,,,,,,,,,,,,,,,,,,,,,,,,,,,528.826,1,audio/Narrative7Situation6.wav,531.837,,531.837,541.821,"[[47.8,167],[48.8,250],[48.8,333],[48.8,417],[48.8,500],[48.8,583],[49.6,667],[51.4,750],[51.6,833],[51.6,917],[51.6,1000],[51.6,1083],[51.3,1167],[50.3,1250],[50.3,1333],[50.3,1415],[50.3,1500],[50.3,1582],[50.3,1665],[50.5,1750],[52.7,1833],[52.7,1917],[52.7,2000],[52.7,2082],[53.6,2167],[53.6,2250],[53.6,2333],[53.6,2415],[53.6,2500],[53.9,2582],[55.8,2667],[55.8,2750],[55.8,2832],[61.4,2917],[62.4,3000],[62.4,3082],[62.4,3167],[62.4,3250],[62.4,3332],[62.4,3417],[62.4,3500],[62.4,3582],[62.8,3667],[62.8,3750],[62.8,3832],[62.8,3917],[62.8,4000],[62.8,4083],[62.8,4167],[62.8,4250],[64.1,4333],[64.1,4417],[64.1,4500],[64.1,4583],[65.5,4667],[65.9,4750],[65.9,4832],[65.9,4915],[65.9,5000],[65.9,5082],[65.9,5167],[65.9,5250],[65.9,5332],[65.9,5415],[65.9,5500],[65.9,5583],[65.9,5665],[65.9,5750],[66.1,5833],[68.9,5918],[71.8,6000],[71.8,6082],[71.8,6167],[71.8,6250],[71.8,6333],[71.8,6417],[71.8,6500],[71.8,6583],[71.8,6665],[71.8,6750],[71.8,6832],[71.8,6915],[71.8,6999],[71.8,7083],[71.8,7167],[71.8,7250],[71.8,7333],[71.8,7417],[71.8,7500],[71.8,7582],[71.8,7665],[71.8,7750],[71.8,7832],[71.8,7917],[71.8,8000],[71.8,8082],[71.8,8167],[71.8,8250],[71.8,8332],[71.8,8417],[71.8,8499],[71.8,8582],[71.8,8665],[71.8,8750],[71.8,8832],[71.8,8917],[71.8,9000],[71.8,9082],[71.8,9167],[71.8,9250],[71.8,9332],[71.8,9415],[71.8,9499],[71.8,9583],[71.8,9665],[71.8,9749],[71.8,9832],[71.8,9917]]",1,0,541.821,548.555,71.75,2.542,"[{""rating"":71.75,""responseTime"":1.0979999999999563},{""rating"":71.75,""responseTime"":2.54200000000003}]",space,6.207,,548.555,All the time,100,548.561,,,[],,0,15,15,15,1,audio/Narrative8Situation6.wav,audio/Narrative7Situation6.wav,audio/Narrative6Situation6.wav,audio/Narrative5Situation6.wav,2,3,2,3,,,,,,,,,,,,,,,,,,,,,,,,,,,,,,,,,,,,,,,
,,,,,,5d134be5269dd500012b15fd,2024-02-08_13h05.52.079,group3.1-3.2-social-tom,2023.2.2,Win32,59.95203837,65c5074098b851296ff0b7ed,65c513b8cc649ae8122ee4b5,,,,,,,,,,,,,,,,,,,,,,,,,,,,,548.561,1,audio/Narrative7Situation7.wav,553.57,,553.571,570.754,"[[50,1165],[50,1248],[50,1331],[50,1415],[50,1498],[50,1581],[50,1665],[50,1748],[50,1832],[50,1915],[50,1998],[50,2082],[50,2164],[50,2248],[50,2331],[50,2414],[50,2498],[50,2582],[50,2665],[50,2748],[50,2831],[50,2915],[50,2998],[50,3081],[50,3165],[50,3248],[50,3331],[50,3414],[50,3500],[50,3582],[50,3665],[50,3748],[50,3831],[50.3,3915],[52.8,3998],[56.8,4081],[59.4,4165],[64.1,4248],[67.2,4331],[67.5,4415],[67.5,4498],[67.5,4581],[67.5,4665],[70,4748],[74.6,4832],[75.5,4914],[75.5,4998],[75.5,5082],[75.5,5165],[75.5,5248],[75.5,5331],[75.5,5415],[75.5,5498],[75.5,5581],[75.5,5665],[75.5,5750],[75.5,5831],[75.5,5915],[75.5,5998],[75.5,6081],[75.5,6164],[75.5,6248],[75.5,6332],[75.5,6415],[75.5,6498],[75.5,6581],[75.5,6665],[75.5,6748],[75.5,6832],[75.5,6914],[75.5,6998],[75.5,7082],[75.5,7164],[75.5,7248],[75.5,7331],[75.5,7415],[75.5,7498],[75.5,7581],[75.5,7665],[75.5,7748],[75.5,7831],[75.5,7914],[75.5,7998],[75.5,8081],[75.5,8164],[75.5,8248],[75.5,8333],[75.5,8414],[75.5,8498],[75.5,8581],[75.5,8665],[75.5,8748],[75.5,8832],[75.5,8915],[75.5,8998],[75.5,9081],[75.5,9165],[75.5,9248],[75.5,9332],[75.5,9415],[75.5,9498],[75.5,9581],[75.5,9665],[75.5,9748],[75.5,9832],[75.5,9915],[75.5,9998],[75.5,10082],[75.5,10165],[75.5,10248],[75.5,10332],[75.5,10415],[75.5,10498],[75.5,10582],[75.5,10664],[75.5,10748],[75.5,10832],[75.5,10915],[75.5,10998],[75.5,11081],[75.5,11164],[75.5,11248],[75.5,11331],[75.5,11414],[75.5,11498],[75.5,11581],[75.5,11665],[75.5,11750],[75.5,11832],[75.5,11915],[75.5,11998],[75.5,12081],[75.5,12165],[75.5,12248],[75.5,12331],[75.5,12415],[75.5,12498],[75.5,12582],[75.5,12665],[75.5,12748],[76.1,12832],[76.6,12914],[76.6,12998],[76.6,13081],[76.6,13165],[76.6,13248],[76.6,13332],[76.6,13415],[76.6,13498],[76.6,13582],[76.6,13664],[76.6,13748],[76.6,13831],[76.6,13915],[76.6,14000],[76.6,14081],[76.6,14165],[76.6,14248],[76.6,14331],[76.6,14414],[76.6,14498],[76.6,14582],[76.6,14665],[76.6,14748],[76.6,14831],[76.6,14915],[76.6,14998],[76.6,15081],[76.6,15164],[76.6,15248],[76.6,15332],[76.6,15415],[76.6,15498],[76.6,15581],[76.6,15665],[76.6,15750],[76.6,15831],[76.6,15915],[76.6,15998],[76.6,16081],[76.6,16164],[76.6,16248],[76.6,16331],[76.6,16415],[76.6,16498],[76.6,16582],[76.6,16665],[76.6,16748],[76.6,16831],[76.6,16915],[76.6,16998],[76.6,17081],[76.6,17165]]",1,0,570.754,573.937,76.5625,0.996,"[{""rating"":76.5625,""responseTime"":0.9959999999999809}]",space,2.639,,573.937,Not at all,0,573.941,,,[],,0,16,16,16,1,audio/Narrative8Situation7.wav,audio/Narrative7Situation7.wav,audio/Narrative6Situation7.wav,audio/Narrative5Situation7.wav,3,5,5,4,,,,,,,,,,,,,,,,,,,,,,,,,,,,,,,,,,,,,,,
,,,,,,5d134be5269dd500012b15fd,2024-02-08_13h05.52.079,group3.1-3.2-social-tom,2023.2.2,Win32,59.95203837,65c5074098b851296ff0b7ed,65c513b8cc649ae8122ee4b5,,,,,,,,,,,,,,,,,,,,,,,,,,,,,573.942,1,audio/Narrative7Situation8.wav,575.954,,575.954,585.987,"[[53.6,500],[49.6,583],[49.6,666],[49.6,749],[49.6,833],[49.6,916],[49.6,999],[49.6,1083],[49.6,1166],[49.6,1250],[50.5,1333],[53,1416],[53,1500],[53,1583],[53,1665],[53.3,1749],[53.9,1833],[53.9,1916],[53.9,1999],[53.9,2083],[53.9,2166],[53.9,2249],[53.9,2333],[53.9,2416],[54.1,2500],[58,2583],[59.1,2666],[59.1,2750],[59.1,2833],[59.1,2916],[59.1,2999],[60.2,3083],[64.9,3166],[65.3,3249],[65.3,3331],[65.3,3416],[65.3,3500],[65.3,3583],[65.3,3666],[65.3,3749],[65.3,3831],[65.3,3916],[65.3,3999],[65.3,4081],[65.3,4167],[65.3,4249],[65.3,4333],[65.3,4416],[65.3,4499],[65.3,4581],[65.3,4665],[65.3,4750],[65.3,4831],[65.3,4916],[65.3,4999],[65.3,5081],[65.8,5166],[66.1,5250],[66.1,5331],[66.1,5416],[66.1,5500],[66.1,5583],[66.1,5666],[66.1,5749],[66.3,5833],[66.3,5916],[66.4,5999],[66.4,6081],[66.6,6166],[66.8,6249],[66.9,6333],[67.2,6416],[67.4,6499],[73.8,7833],[73.8,7916],[73.8,8000],[73.8,8083],[73.8,8166],[73.8,8249],[73.8,8333],[73.8,8415],[73.8,8499],[73.8,8581],[73.8,8666],[73.8,8749],[73.8,8833],[73.8,8916],[73.8,8999],[73.8,9083],[73.8,9166],[73.8,9249],[73.8,9331],[73.8,9415],[74.9,9500],[83.4,9581],[85.3,9666],[85.3,9749],[85.3,9831],[85.3,9916],[85.3,9999]]",1,0,585.987,591.737,81.75,3.469,"[{""rating"":81.75,""responseTime"":3.469000000000051}]",space,5.217,,591.737,All the time,100,591.741,,,[],,0,17,17,17,1,audio/Narrative8Situation8.wav,audio/Narrative7Situation8.wav,audio/Narrative6Situation8.wav,audio/Narrative5Situation8.wav,3,2,5,3,,,,,,,,,,,,,,,,,,,,,,,,,,,,,,,,,,,,,,,
,,,,,,5d134be5269dd500012b15fd,2024-02-08_13h05.52.079,group3.1-3.2-social-tom,2023.2.2,Win32,59.95203837,65c5074098b851296ff0b7ed,65c513b8cc649ae8122ee4b5,,,,,,,,,,,,,,,,,,,,,,,,,,,,,591.742,1,audio/Narrative7Situation9.wav,593.753,,593.753,602.37,"[[50.6,583],[50.6,667],[50.6,750],[50.6,833],[50.6,917],[50.6,1000],[50.6,1083],[50.6,1167],[50.6,1249],[50.6,1333],[50.6,1417],[50.6,1500],[50.6,1584],[50.6,1666],[50.6,1750],[50.6,1834],[50.6,1917],[50.6,2000],[50.6,2084],[50.6,2167],[50.6,2250],[50.6,2333],[50.6,2417],[50.6,2500],[50.6,2583],[50.6,2667],[50.6,2750],[50.6,2834],[50.6,2917],[50.6,3000],[50.6,3083],[50.6,3167],[50.6,3250],[50.6,3333],[50.6,3417],[50.6,3500],[50.6,3584],[50.6,3667],[50.6,3750],[50.6,3834],[50.6,3916],[50.6,4000],[50.9,4083],[54.7,4166],[57.2,4251],[57.2,4334],[57.2,4417],[57.2,4500],[57.2,4583],[57.2,4666],[57.2,4750],[57.2,4834],[57.2,4917],[57.7,5000],[59.9,5084],[60.5,5167],[60.5,5250],[60.5,5334],[60.5,5416],[60.5,5500],[60.9,5584],[63.3,5667],[66.3,5750],[66.6,5833],[66.6,5916],[66.6,6000],[66.6,6083],[66.6,6167],[66.6,6250],[66.6,6334],[66.6,6417],[66.6,6500],[66.6,6584],[66.6,6667],[66.6,6750],[66.6,6834],[66.6,6917],[67.1,7000],[68.3,7083],[69.1,7167],[69.1,7250],[69.1,7334],[69.1,7417],[69.1,7501],[69.1,7584],[69.1,7667],[69.1,7750],[69.1,7833],[69.1,7916],[70.6,8000],[71.6,8084],[71.6,8166],[71.6,8250],[71.6,8334],[71.9,8417],[74.7,8501],[76.9,8583]]",1,0,602.37,611.036,81.5625,6.72,"[{""rating"":85.1875,""responseTime"":2.4460000000000264},{""rating"":81.5625,""responseTime"":6.720000000000027}]",space,8.135,,611.038,Half the time,50,621.637,49.875,6.54,"[{""rating"":49.875,""responseTime"":6.540000000000077}]",space,0,18,18,18,1,audio/Narrative8Situation9.wav,audio/Narrative7Situation9.wav,audio/Narrative6Situation9.wav,audio/Narrative5Situation9.wav,3,2,4,3,,,10.05,,,,,,,,,,,,,,,,,,,,,,,,,,,,,,,,,,,,
,,,,,,5d134be5269dd500012b15fd,2024-02-08_13h05.52.079,group3.1-3.2-social-tom,2023.2.2,Win32,59.95203837,65c5074098b851296ff0b7ed,65c513b8cc649ae8122ee4b5,,,,,,,,,,,,,,,,,,,,,,,,,,,626.77,629.352,629.367,2,audio/Narrative13Situation2.wav,629.368,,629.368,659.102,"[[55.5,735],[50.8,818],[50.8,902],[50.8,984],[50.6,1069],[49.9,1151],[49.9,1234],[49.9,1318],[49.9,1402],[50.5,1485],[50.6,1568],[50.6,1652],[50.6,1735],[50.6,1818],[50.6,1901],[50.6,1984],[50.6,2068],[50.6,2151],[50.6,2234],[50.6,2318],[50.6,2402],[50.6,2484],[50.6,2568],[50.6,2651],[50.6,2735],[50.6,2818],[50.6,2901],[50.6,2984],[50.6,3068],[50.6,3151],[50.6,3235],[50.6,3319],[50.6,3402],[50.6,3485],[50.6,3568],[50.6,3651],[50.6,3734],[50.6,3818],[50.6,3902],[50.6,3985],[50.6,4068],[50.6,4152],[50.6,4235],[50.6,4318],[50.6,4401],[50.6,4484],[50.6,4568],[50.6,4651],[50.6,4734],[50.6,4818],[50.6,4901],[50.6,4985],[50.6,5068],[50.6,5151],[50.6,5235],[50.6,5318],[50.6,5402],[50.6,5484],[50.6,5568],[50.6,5651],[50.6,5735],[50.6,5818],[50.6,5901],[50.6,5984],[50.6,6068],[50.6,6151],[50.6,6234],[50.6,6318],[50.6,6402],[50.6,6485],[50.6,6568],[50.6,6651],[50.6,6734],[50.6,6818],[50.6,6901],[52.1,6984],[55.2,7069],[55.2,7152],[55.2,7235],[55.2,7318],[55.2,7402],[55.2,7485],[55.2,7568],[55.2,7651],[55.2,7734],[55.2,7818],[55.2,7901],[54.3,7985],[51.6,8068],[51.6,8151],[51.6,8235],[51.6,8318],[51.6,8402],[51.6,8484],[51.6,8567],[51.6,8651],[51.6,8734],[51.6,8817],[51.6,8902],[51.6,8985],[51.6,9068],[51.6,9151],[51.6,9235],[51.6,9317],[52.4,9402],[53.1,9485],[53.1,9568],[53.1,9651],[53.1,9735],[53.1,9818],[53.1,9901],[53.1,9985],[53.1,10068],[53.1,10151],[53.1,10234],[53.1,10318],[53.1,10402],[53.1,10484],[53.1,10568],[53.1,10652],[53.1,10735],[53.1,10818],[53.1,10901],[53.1,10985],[53.1,11068],[53.1,11151],[53.1,11235],[53.1,11319],[53.1,11401],[53.1,11485],[53.1,11568],[53.1,11651],[53.1,11735],[53.1,11818],[53.1,11901],[53.1,11985],[53.1,12069],[53.1,12152],[53.1,12235],[53.1,12318],[53.1,12401],[53.9,12485],[56.6,12568],[57.2,12651],[57.2,12735],[57.2,12817],[57.2,12901],[57.2,12984],[57.2,13068],[57.2,13151],[57.2,13234],[54.4,13322],[54.3,13402],[54.3,13485],[54.3,13568],[54.3,13651],[54.3,13735],[54.3,13818],[54.3,13901],[54.3,13985],[54.3,14068],[54.3,14152],[54.3,14234],[54.3,14318],[54.3,14402],[54.3,14484],[54.3,14567],[54.3,14651],[54.3,14734],[54.3,14817],[54.3,14901],[54.3,14985],[54.3,15068],[54.3,15151],[54.3,15234],[54.3,15318],[54.3,15401],[54.3,15484],[53.4,15569],[53.3,15652],[53.3,15734],[53.3,15818],[53.3,15901],[53.3,15984],[53.3,16068],[52.4,16151],[51.9,16234],[51.9,16318],[51.9,16402],[51.9,16484],[51.9,16568],[51.9,16651],[51.9,16734],[51.9,16818],[51.9,16901],[51.9,16985],[51.1,17068],[50.2,17151],[50.2,17235],[50.2,17318],[50.2,17401],[50.2,17484],[50.2,17568],[50.2,17651],[50.2,17735],[50.2,17818],[50.2,17901],[50.2,17984],[50.2,18068],[50.2,18151],[50.2,18234],[50.2,18318],[50.2,18401],[50.2,18484],[50.2,18568],[45.9,20068],[45.9,20152],[45.9,20235],[45.9,20318],[45.9,20402],[45.9,20484],[45.9,20568],[45.9,20651],[45.9,20734],[45.9,20817],[45.9,20901],[45.9,20984],[45.9,21068],[45.6,21152],[43.4,21234],[43.4,21318],[43.4,21401],[43.4,21484],[43.4,21568],[43.4,21651],[43.4,21735],[43.4,21818],[43.6,21901],[51.9,21985],[60.6,22068],[60.6,22151],[60.6,22234],[60.6,22317],[60.6,22402],[60.6,22484],[60.6,22568],[60.6,22651],[60.6,22734],[60.6,22818],[60.6,22901],[60.6,22984],[60.6,23068],[60.6,23151],[60.6,23234],[60.6,23318],[60.6,23401],[60.6,23484],[60.6,23568],[60.6,23651],[61.1,23735],[63.8,23818],[64.1,23901],[64.1,23985],[64.1,24067],[67.5,24152],[72.2,24235],[72.2,24317],[72.2,24401],[72.2,24485],[72.2,24568],[72.2,24651],[72.2,24734],[72.2,24818],[72.2,24901],[72.2,24985],[72.2,25068],[72.2,25151],[72.2,25235],[72.2,25317],[72.2,25401],[72.2,25484],[72.2,25567],[72.2,25651],[72.2,25734],[72.2,25818],[72.2,25901],[72.2,25984],[71.3,26068],[67.4,26152],[66.6,26234],[66.6,26317],[66.6,26401],[66.6,26485],[66.6,26567],[66.6,26651],[66.6,26734],[66.6,26818],[66.6,26900],[66.6,26984],[66.6,27068],[66.6,27151],[66.6,27235],[66.6,27318],[66.6,27401],[66.6,27484],[66.6,27568],[66.6,27651],[66.6,27734],[66.6,27817],[66.6,27901],[66.6,27984],[66.6,28067],[66.6,28151],[66.6,28235],[66.6,28318],[66.6,28401],[66.6,28485],[66.6,28567],[66.6,28651],[66.6,28734],[66.6,28818],[66.6,28901],[66.6,28985],[66.6,29068],[66.6,29151],[66.6,29235],[66.6,29317],[66.6,29401],[66.6,29485],[66.6,29568],[66.6,29651],[66.6,29734]]",1,0,659.103,659.108,,,[],,,,659.109,All the time,100,659.114,,,[],,0,0,0,0,1,audio/Narrative13Situation2.wav,audio/Narrative13Situation2.wav,audio/Narrative13Situation2.wav,audio/Narrative13Situation2.wav,2,2,2,2,,,,,621.637,626.77,space,4.601,,,,,,,,,,,,,,,,,,,,,,,,,,,,,,,
,,,,,,5d134be5269dd500012b15fd,2024-02-08_13h05.52.079,group3.1-3.2-social-tom,2023.2.2,Win32,59.95203837,65c5074098b851296ff0b7ed,65c513b8cc649ae8122ee4b5,,,,,,,,,,,,,,,,,,,,,,,,,,,,,659.114,2,audio/Narrative6Situation1.wav,661.12,,661.12,687.703,"[[66.3,831],[57.7,915],[54.4,999],[54.4,1081],[54.4,1165],[54.4,1249],[54.4,1331],[54.4,1414],[52.4,1499],[51.9,1581],[51.9,1665],[51.9,1749],[50.5,1832],[50.5,1915],[50.5,1999],[50.5,2081],[50.5,2165],[50.2,2249],[50.2,3082],[50.6,3165],[50.6,3249],[50.6,3331],[50.6,3415],[50.6,3499],[50.6,3581],[50.6,3664],[50.9,3749],[58.1,3832],[60.5,3915],[60.5,3999],[60.5,4081],[60.5,4165],[60.5,4249],[60.5,4331],[60.5,4414],[60.5,4497],[60.5,4582],[60.5,4665],[60.5,4749],[60.5,4831],[60.5,4915],[60.5,4999],[60.5,5081],[60.5,5165],[60.5,5249],[60.5,5331],[60.5,5414],[60.5,5499],[60.5,5581],[60.5,5665],[60.5,5749],[60.5,5831],[60.5,5914],[60.5,5999],[60.5,6081],[60.5,6164],[60.5,6247],[60.5,6331],[60.5,6415],[60.5,6499],[60.5,6581],[60.5,6665],[60.5,6749],[60.5,6832],[60.5,6915],[60.5,7000],[60.5,7082],[60.5,7165],[60.5,7249],[60.5,7331],[60.5,7414],[60.5,7499],[60.8,7581],[60.9,7664],[60.9,7749],[60.9,7831],[60.9,7915],[60.9,7999],[60.9,8081],[60.9,8164],[60.9,8249],[60.9,8331],[60.9,8415],[60.9,8497],[60.9,8582],[60.9,8665],[60.9,8749],[60.9,8832],[60.9,8915],[60.9,8999],[62.1,9082],[65.2,9165],[65.2,9249],[65.2,9331],[65.2,9415],[65.2,9499],[65.2,9581],[65.2,9665],[65.2,9749],[65.2,9831],[65.2,9914],[65.2,9999],[65.2,10082],[65.2,10164],[65.2,10249],[65.2,10331],[65.2,10415],[65.2,10499],[65.2,10581],[65.2,10665],[65.2,10749],[65.2,10831],[65.2,10914],[65.2,10999],[65.2,11081],[65.2,11164],[65.2,11249],[65.2,11331],[65.2,11414],[65.2,11497],[65.2,11581],[65.2,11665],[65.2,11750],[65.2,11832],[65.2,11914],[65.2,11999],[65.2,12081],[65.2,12164],[65.2,12249],[65.2,12331],[65.2,12415],[65.2,12497],[65.2,12581],[65.2,12665],[65.2,12749],[65.2,12831],[65.2,12915],[65.2,12999],[65.2,13081],[65.2,13164],[65.2,13249],[65.2,13331],[65.2,13414],[65.2,13499],[65.2,13581],[65.2,13665],[65.2,13749],[65.2,13831],[65.2,13914],[65.2,13999],[65.2,14081],[65.2,14164],[65.2,14249],[66.3,14331],[68.3,14415],[68.4,14499],[68.4,14581],[68.4,14665],[68.4,14749],[68.4,14831],[68.4,14914],[68.4,14999],[68.4,15082],[68.4,15164],[68.4,15249],[68.4,15331],[68.4,15414],[68.4,15499],[68.4,15582],[68.4,15665],[70.2,15749],[73.1,15832],[73.3,15914],[73.3,15999],[73.3,16081],[73.3,16164],[73.3,16249],[73.3,16331],[73.3,16415],[73.3,16499],[73.3,16581],[73.3,16665],[73.3,16749],[73.3,16831],[73.3,16914],[73.3,16997],[73.3,17081],[73.3,17165],[73.3,17249],[73.3,17331],[73.3,17415],[73.3,17497],[73.3,17581],[73.3,17664],[73.3,17749],[73.3,17831],[73.3,17915],[73.3,17997],[73.3,18081],[73.3,18165],[73.3,18249],[73.3,18331],[73.3,18415],[73.3,18499],[73.3,18581],[73.3,18665],[73.3,18749],[73.3,18831],[73.3,18914],[73.3,18997],[73.3,19082],[73.3,19164],[73.3,19249],[73.3,19331],[73.3,19415],[73.3,19497],[73.3,19581],[73.3,19665],[74.1,19747],[77.2,19831],[77.5,19915],[77.5,19999],[77.5,20082],[77.5,20164],[77.5,20249],[77.5,20331],[77.5,20414],[77.5,20497],[77.5,20581],[77.5,20664],[77.5,20749],[77.5,20831],[77.5,20915],[77.5,20999],[77.5,21081],[77.5,21164],[77.5,21249],[77.5,21331],[77.5,21415],[77.5,21499],[77.5,21581],[77.7,21664],[78.1,21749],[78.4,21832],[78.8,21915],[79.1,21997],[79.6,22081],[79.7,22164],[79.7,22247],[79.7,22331],[79.7,22415],[79.7,22499],[81.6,22581],[85.5,22665],[89.1,22749],[90.8,22831],[90.8,22914],[90.8,22999],[90.8,23081],[90.8,23165],[90.8,23247],[90.8,23331],[90.8,23415],[90.8,23499],[90.8,23581],[90.8,23664],[90.8,23747],[90.8,23831],[90.8,23915],[90.8,23999],[90.8,24081],[90.8,24164],[90.8,24247],[90.8,24331],[90.8,24415],[90.8,24499],[90.8,24581],[90.8,24665],[90.8,24749],[90.8,24831],[90.8,24915],[90.8,24999],[90.8,25081],[90.8,25164],[90.8,25247],[90.8,25331],[92.5,25414],[96.4,25499],[98.8,25581],[98.8,25664],[98.8,25749],[98.8,25831],[98.8,25915],[98.8,25999],[97.8,26081],[97.8,26164],[97.8,26247],[97.8,26331],[97.8,26414],[97.8,26499],[97.1,26582]]",1,0,687.704,702.019,95.625,10.855,"[{""rating"":95.625,""responseTime"":10.855000000000018}]",space,13.775,,702.019,Not at all,0,702.024,,,[],,0,1,1,1,1,audio/Narrative7Situation1.wav,audio/Narrative8Situation1.wav,audio/Narrative5Situation1.wav,audio/Narrative6Situation1.wav,2,5,5,2,,,,,,,,,,,,,,,,,,,,,,,,,,,,,,,,,,,,,,,
,,,,,,5d134be5269dd500012b15fd,2024-02-08_13h05.52.079,group3.1-3.2-social-tom,2023.2.2,Win32,59.95203837,65c5074098b851296ff0b7ed,65c513b8cc649ae8122ee4b5,,,,,,,,,,,,,,,,,,,,,,,,,,,,,702.025,2,audio/Narrative6Situation2.wav,705.035,,705.035,733.536,"[[999,0],[999,82],[999,166],[999,250],[999,332],[999,418],[999,500],[50.8,584],[50.8,666],[50.8,750],[50.8,834],[50.8,917],[50.8,1000],[50.8,1084],[50.8,1167],[50.8,1250],[50.8,1332],[50.8,1417],[50.8,1500],[50.8,1584],[50.8,1667],[50.8,1750],[50.8,1834],[50.8,1917],[50.8,2000],[50.8,2084],[50.8,2167],[50.8,2250],[50.8,2332],[50.8,2417],[50.8,2500],[50.8,2584],[50.8,2667],[50.8,2750],[50.8,2834],[50.8,2917],[50.8,3000],[50.8,3082],[50.8,3166],[50.8,3250],[50.8,3334],[50.8,3418],[50.8,3500],[50.8,3584],[50.8,3666],[50.8,3750],[50.8,3834],[50.8,3916],[50.8,4000],[50.8,4084],[50.8,4166],[50.8,4250],[50.8,4334],[50.8,4417],[50.8,4500],[50.8,4584],[50.8,4667],[50.8,4750],[50.8,4834],[50.8,4917],[50.8,5000],[50.8,5082],[50.8,5167],[50.8,5250],[50.8,5332],[50.8,5416],[50.8,5500],[50.8,5584],[50.8,5667],[50.8,5750],[50.8,5834],[50.8,5916],[50.8,6000],[50.8,6082],[50.8,6166],[50.9,6252],[52.1,6334],[53,6417],[53,6500],[53,6582],[53,6667],[54.1,6750],[56.8,6832],[56.8,6916],[56.8,7000],[56.8,7084],[61.9,7167],[69.9,7250],[70.5,7332],[70.5,7417],[70.5,7500],[70.5,7582],[72.7,7667],[77.7,7750],[78,7834],[78,7917],[78,8000],[80.8,8084],[83.6,8167],[83.6,8250],[83.6,8332],[83.6,8416],[83.6,8500],[83.6,8582],[83.6,8667],[83.6,8750],[83.6,8832],[83.6,8917],[83.6,9000],[83.6,9082],[83.6,9167],[83.6,9250],[83.6,9332],[83.6,9417],[83.6,9500],[83.6,9582],[83.6,9666],[83.6,9750],[83.6,9832],[83.6,9917],[83.6,10000],[83.6,10084],[83.6,10167],[83.6,10250],[83.6,10332],[83.6,10417],[83.6,10500],[83.6,10582],[83.6,10667],[83.6,10750],[83.6,10834],[83.6,10917],[83.6,11000],[83.6,11084],[83.6,11167],[83.6,11250],[83.6,11332],[83.6,11416],[83.6,11500],[83.6,11582],[83.6,11666],[83.6,11750],[83.6,11832],[83.6,11917],[83.6,12000],[83.6,12084],[83.6,12167],[83.6,12250],[83.6,12334],[83.6,12416],[83.6,12500],[83.6,12584],[83.6,12667],[83.6,12750],[83.6,12832],[83.6,12917],[83.6,13000],[83.6,13082],[83.6,13167],[83.6,13250],[83.6,13334],[83.6,13417],[83.6,13500],[83.6,13584],[83.6,13667],[83.6,13750],[83.6,13832],[83.6,13917],[83.6,14000],[83.6,14082],[83.6,14166],[83.6,14250],[83.6,14332],[83.6,14416],[83.6,14500],[83.6,14584],[83.6,14667],[83.6,14750],[83.6,14832],[83.6,14917],[84.9,15000],[87.4,15082],[87.4,15166],[87.4,15250],[87.4,15332],[87.4,15416],[87.4,15500],[87.4,15582],[87.4,15667],[87.4,15750],[87.4,15834],[87.4,15917],[87.4,16000],[87.4,16082],[87.4,16166],[87.4,16250],[87.4,16334],[87.4,16416],[87.4,16500],[87.4,16584],[87.4,16667],[87.4,16750],[87.4,16832],[87.4,16917],[87.4,17000],[87.4,17082],[87.4,17167],[87.4,17250],[87.4,17334],[87.4,17416],[87.4,17500],[87.4,17582],[87.4,17666],[87.4,17750],[87.4,17834],[87.4,17917],[87.4,18000],[87.4,18082],[87.4,18167],[87.4,18250],[87.4,18332],[87.4,18416],[87.4,18500],[87.4,18584],[87.4,18667],[87.4,18750],[87.4,18832],[87.4,18917],[87.4,19000],[87.4,19082],[87.4,19167],[87.4,19249],[87.4,19332],[87.4,19417],[87.4,19499],[87.4,19582],[87.4,19667],[87.4,19750],[87.4,19832],[87.4,19916],[87.4,20000],[87.4,20084],[87.4,20166],[87.4,20250],[87.4,20334],[87.4,20417],[87.4,20500],[87.4,20582],[87.4,20666],[87.4,20750],[87.4,20832],[87.4,20916],[87.4,21000],[87.4,21082],[87.4,21166],[87.4,21250],[87.4,21334],[87.4,21416],[87.4,21500],[87.4,21582],[87.4,21666],[87.4,21750],[87.4,21832],[87.4,21916],[87.4,22000],[87.4,22084],[87.4,22166],[87.4,22250],[87.4,22332],[87.4,22416],[87.4,22500],[90.5,22582],[94.6,22667],[94.9,22750],[94.9,22834],[94.9,22916],[94.9,23000],[94.9,23082],[94.9,23166],[94.9,23250],[94.9,23334],[94.9,23417],[94.9,23500],[94.9,23582],[94.9,23666],[94.9,23750],[94.9,23834],[94.9,23917],[94.9,24000],[94.9,24084],[94.9,24167],[94.9,24250],[94.9,24332],[94.9,24416],[94.9,24499],[94.9,24582],[94.9,24667],[94.9,24750],[94.9,24832],[94.9,24916],[94.9,25000],[94.9,25082],[94.9,25166],[94.9,25249],[94.9,25332],[94.9,25417],[94.9,25500],[94.9,25584],[94.9,25667],[94.9,25750],[94.9,25832],[94.9,25916],[94.9,26000],[94.9,26082],[94.9,26166],[94.9,26250],[94.9,26332],[94.9,26416],[94.9,26500],[94.9,26582],[94.9,26667],[94.9,26750],[94.9,26832],[94.9,26917],[94.9,27000],[94.9,27082],[94.9,27166],[94.9,27249],[94.9,27332],[94.9,27416],[94.9,27500],[94.9,27582],[94.9,27667],[94.9,27750],[94.9,27834],[94.9,27917],[94.9,28000],[94.9,28084],[94.9,28166],[94.9,28250],[94.9,28332],[94.9,28417],[94.9,28499]]",1,0,733.536,741.501,94.5625,5.363,"[{""rating"":94.5625,""responseTime"":5.362999999999943}]",space,7.428,,741.501,Half the time,50,741.507,,,[],,0,2,2,2,1,audio/Narrative7Situation2.wav,audio/Narrative8Situation2.wav,audio/Narrative5Situation2.wav,audio/Narrative6Situation2.wav,3,3,3,3,,,,,,,,,,,,,,,,,,,,,,,,,,,,,,,,,,,,,,,
,,,,,,5d134be5269dd500012b15fd,2024-02-08_13h05.52.079,group3.1-3.2-social-tom,2023.2.2,Win32,59.95203837,65c5074098b851296ff0b7ed,65c513b8cc649ae8122ee4b5,,,,,,,,,,,,,,,,,,,,,,,,,,,,,741.508,2,audio/Narrative6Situation3.wav,746.519,,746.519,759.134,"[[999,1],[999,81],[999,164],[999,249],[999,332],[999,415],[999,500],[999,581],[999,665],[999,749],[999,831],[999,914],[999,1000],[999,1082],[999,1164],[999,1249],[999,1331],[999,1415],[999,1500],[999,1581],[999,1665],[999,1749],[999,1831],[999,1915],[999,1999],[49.4,2081],[49.4,2164],[49.4,2249],[49.4,2331],[49.4,2415],[49.4,2499],[49.4,2581],[49.4,2665],[52.2,2750],[55.8,2832],[55.8,2915],[55.8,2997],[55.8,3081],[59.6,3165],[71.1,3249],[75.6,3332],[75.6,3415],[75.6,3499],[75.6,3582],[75.6,3665],[75.6,3749],[75.6,3831],[75.6,3914],[75.6,3999],[75.6,4082],[75.6,4164],[75.6,4249],[75.6,4331],[75.6,4415],[75.6,4499],[75.6,4581],[75.6,4665],[75.6,4749],[75.6,4831],[75.6,4914],[75.6,4999],[75.6,5081],[75.6,5165],[75.6,5249],[75.6,5331],[75.6,5414],[75.6,5499],[75.6,5582],[75.9,5665],[79.1,5750],[79.7,5832],[79.7,5914],[79.7,5999],[79.7,6081],[79.7,6164],[79.7,6247],[79.7,6331],[79.7,6415],[79.7,6499],[79.7,6581],[79.7,6665],[79.7,6749],[79.7,6831],[79.7,6914],[79.7,6999],[79.7,7081],[79.7,7165],[79.7,7249],[79.7,7332],[79.7,7415],[79.7,7499],[79.7,7581],[79.7,7665],[79.7,7749],[79.7,7832],[79.7,7914],[79.7,7997],[79.7,8081],[79.7,8164],[81.4,8249],[85.9,8332],[86.8,8415],[86.8,8499],[86.8,8581],[86.8,8664],[86.8,8749],[86.8,8831],[86.8,8914],[86.8,8999],[86.8,9081],[86.1,9165],[86.1,9249],[86.1,9331],[86.1,9414],[86.1,9499],[86.1,9581],[86.1,9665],[86.1,9749],[86.1,9831],[86.1,9914],[86.1,9999],[86.1,10081],[86.1,10164],[86.1,10247],[86.1,10332],[86.1,10415],[86.1,10499],[86.1,10581],[86.1,10664],[86.1,10749],[86.1,10831],[86.1,10914],[86.1,10999],[86.1,11081],[86.1,11165],[86.1,11247],[86.1,11331],[86.1,11415],[86.1,11499],[86.1,11581],[86.1,11664],[86.1,11749],[86.1,11831],[86.1,11915],[86.1,11997],[86.1,12081],[86.1,12164],[86.1,12249],[86.1,12332],[86.1,12414],[86.1,12499],[86.1,12581]]",1,0,759.135,765.968,91.25,2.554,"[{""rating"":91.25,""responseTime"":2.5539999999999736}]",space,6.285,,765.968,Half the time,50,765.971,,,[],,0,3,3,3,1,audio/Narrative7Situation3.wav,audio/Narrative8Situation3.wav,audio/Narrative5Situation3.wav,audio/Narrative6Situation3.wav,8,4,3,5,,,,,,,,,,,,,,,,,,,,,,,,,,,,,,,,,,,,,,,
,,,,,,5d134be5269dd500012b15fd,2024-02-08_13h05.52.079,group3.1-3.2-social-tom,2023.2.2,Win32,59.95203837,65c5074098b851296ff0b7ed,65c513b8cc649ae8122ee4b5,,,,,,,,,,,,,,,,,,,,,,,,,,,,,765.971,2,audio/Narrative6Situation4.wav,767.985,,767.985,780.601,"[[49.1,250],[49.3,332],[49.3,415],[49.3,499],[49.3,582],[49.3,665],[49.3,750],[49.3,832],[49.3,915],[49.3,1000],[49.4,1082],[49.4,1165],[49.4,1249],[49.4,1332],[49.4,1415],[49.4,1499],[49.4,1582],[50,1665],[50.9,1749],[53.3,1832],[55.2,1916],[57.1,2000],[58.9,2082],[63.6,2165],[73.3,2250],[76.4,2332],[76.4,2415],[76.4,2499],[77.7,2582],[84.7,2665],[84.7,2750],[84.7,2832],[84.7,2915],[84.7,3000],[84.7,3081],[84.7,3165],[85.8,3250],[85.8,3332],[85.8,3415],[85.8,3499],[85.8,3581],[85.8,3665],[85.8,3749],[85.8,3832],[86.8,3916],[87.5,4000],[87.5,4082],[87.5,4165],[87.5,4249],[87.5,4332],[87.5,4415],[87.5,4499],[87.5,4582],[87.5,4665],[87.5,4749],[87.5,4831],[87.5,4915],[87.5,4999],[87.5,5081],[87.5,5166],[87.5,5249],[87.5,5332],[87.5,5415],[87.5,5499],[87.5,5582],[87.5,5665],[87.5,5749],[87.5,5832],[87.5,5916],[87.5,6000],[87.5,6082],[87.5,6166],[87.5,6249],[87.5,6332],[87.5,6415],[87.5,6499],[87.5,6582],[87.5,6665],[87.5,6749],[87.5,6831],[87.5,6915],[87.5,7000],[87.5,7081],[87.5,7165],[87.5,7249],[87.5,7332],[87.5,7415],[87.5,7499],[87.5,7582],[87.5,7665],[87.5,7750],[87.5,7832],[87.5,7915],[87.5,8000],[87.5,8081],[87.5,8165],[87.5,8249],[87.5,8331],[87.5,8415],[87.5,8499],[87.5,8581],[87.5,8665],[87.5,8750],[87.5,8832],[87.5,8915],[87.5,8999],[87.5,9081],[87.5,9166],[87.5,9250],[87.5,9331],[87.5,9415],[87.5,9500],[87.5,9581],[87.5,9665],[87.5,9749],[87.5,9831],[87.5,9915],[87.5,9999],[87.5,10081],[87.5,10165],[87.5,10249],[87.5,10332],[87.5,10415],[87.5,10499],[87.5,10581],[87.5,10665],[87.5,10749],[87.5,10832],[87.5,10915],[87.5,10999],[89.7,11082],[94.1,11166],[94.3,11250],[94.3,11331],[94.3,11415],[94.3,11500],[94.3,11582],[94.3,11665],[94.3,11749],[94.3,11832],[93.9,11915],[93.9,11999],[93.9,12082],[93.9,12166],[93.9,12249],[93.9,12332],[93.9,12415],[93.9,12499],[93.9,12582]]",1,0,780.601,786.268,93.9375,1.82,"[{""rating"":93.9375,""responseTime"":1.82000000000005}]",space,5.141,,786.268,All the time,100,786.273,,,[],,0,4,4,4,1,audio/Narrative7Situation4.wav,audio/Narrative8Situation4.wav,audio/Narrative5Situation4.wav,audio/Narrative6Situation4.wav,3,3,1,2,,,,,,,,,,,,,,,,,,,,,,,,,,,,,,,,,,,,,,,
,,,,,,5d134be5269dd500012b15fd,2024-02-08_13h05.52.079,group3.1-3.2-social-tom,2023.2.2,Win32,59.95203837,65c5074098b851296ff0b7ed,65c513b8cc649ae8122ee4b5,,,,,,,,,,,,,,,,,,,,,,,,,,,,,786.273,2,audio/Narrative6Situation5.wav,788.285,,788.285,796.235,"[[999,0],[999,82],[999,166],[999,249],[999,332],[999,416],[999,499],[999,581],[999,666],[999,749],[999,831],[999,916],[999,999],[66.3,1082],[51.3,1167],[41.4,1249],[41.1,1331],[41.1,1416],[41.1,1500],[42.4,1582],[49.4,1666],[50.2,1750],[50.2,1831],[55.9,1916],[59.6,1999],[59.6,2081],[59.6,2166],[59.6,2249],[59.6,2332],[59.6,2416],[59.6,2499],[59.6,2581],[59.6,2666],[60.3,2749],[61.3,2831],[61.3,2916],[61.3,3000],[61.3,3082],[61.3,3166],[61.3,3249],[61.3,3332],[61.3,3416],[61.3,3499],[64.9,3582],[69.6,3666],[69.6,3749],[69.6,3831],[71.9,3916],[83.4,4000],[89.7,4082],[89.7,4166],[89.7,4249],[89.7,4332],[89.7,4416],[89.7,4499],[89.7,4581],[89.7,4666],[89.7,4749],[89.7,4832],[89.7,4916],[89.7,4999],[89.7,5081],[89.7,5166],[89.7,5249],[89.7,5332],[89.7,5416],[89.7,5499],[89.7,5582],[89.7,5666],[89.7,5749],[89.7,5832],[89.7,5916],[89.7,5999],[89.7,6081],[89.7,6164],[89.7,6249],[89.7,6332],[89.7,6416],[89.7,6499],[89.7,6581],[89.7,6666],[89.7,6749],[89.7,6831],[89.7,6916],[89.7,6999],[89.7,7082],[89.7,7166],[89.7,7249],[89.7,7332],[89.7,7417],[89.7,7499],[89.7,7581],[89.7,7664],[89.7,7749],[89.7,7832],[89.7,7914]]",1,0,796.235,801.217,96.25,1.804,"[{""rating"":96.25,""responseTime"":1.8039999999999736}]",space,4.442,,801.217,Not at all,0,801.222,,,[],,0,5,5,5,1,audio/Narrative7Situation5.wav,audio/Narrative8Situation5.wav,audio/Narrative5Situation5.wav,audio/Narrative6Situation5.wav,5,2,5,2,,,,,,,,,,,,,,,,,,,,,,,,,,,,,,,,,,,,,,,
,,,,,,5d134be5269dd500012b15fd,2024-02-08_13h05.52.079,group3.1-3.2-social-tom,2023.2.2,Win32,59.95203837,65c5074098b851296ff0b7ed,65c513b8cc649ae8122ee4b5,,,,,,,,,,,,,,,,,,,,,,,,,,,,,801.223,2,audio/Narrative6Situation6.wav,803.235,,803.235,814.317,"[[999,0],[999,81],[999,165],[999,250],[999,331],[999,415],[49.1,500],[49.1,581],[49.1,665],[49.1,749],[49.1,831],[49.1,915],[49.1,999],[49.1,1082],[52.1,1165],[53.1,1249],[53.1,1332],[53.1,1415],[53.1,1499],[53.1,1581],[52.2,1665],[50.3,1749],[50.3,1831],[50.3,1914],[50.3,1999],[50.3,2082],[50.3,2165],[50.3,2249],[50.3,2332],[50.3,2414],[50.3,2499],[50.3,2581],[50.3,2664],[50.3,2749],[50.3,2831],[50.3,2915],[50.3,2999],[50.3,3081],[50.3,3164],[50.3,3249],[50.3,3332],[50.3,3415],[50.3,3499],[50.3,3581],[50.3,3665],[50.3,3749],[50.3,3831],[50.3,3915],[52.1,4000],[56.8,4081],[65.3,4164],[70.6,4249],[70.6,4332],[70.6,4415],[70.6,4499],[70.6,4582],[72.5,4665],[78.1,4749],[78.3,4832],[78.3,4915],[78.3,4997],[78.3,5082],[81.9,5165],[86.9,5249],[89.4,5331],[89.4,5415],[89.4,5499],[89.4,5582],[89.4,5664],[89.4,5749],[89.4,5832],[89.4,5914],[89.4,5999],[89.4,6082],[89.4,6165],[89.4,6249],[89.4,6331],[89.4,6415],[89.4,6499],[89.4,6581],[89.4,6664],[89.4,6750],[89.4,6832],[91.4,6916],[93.8,6999],[93.8,7082],[93.8,7164],[93.8,7247],[93.8,7332],[93.8,7415],[93.8,7499],[93.8,7582],[93.8,7664],[93.8,7749],[93.8,7831],[93.8,7914],[93.8,7999],[93.8,8081],[93.9,8165],[94.6,8249],[94.6,8331],[94.6,8415],[94.6,8499],[94.6,8581],[94.6,8664],[94.6,8750],[94.6,8831],[94.6,8914],[94.6,8999],[94.6,9081],[94.6,9164],[94.6,9249],[94.6,9331],[94.6,9414],[94.6,9499],[94.6,9581],[94.6,9665],[94.6,9749],[94.6,9831],[94.6,9915],[94.6,9999],[94.6,10081],[95,10164],[95,10249],[95,10331],[95,10415],[95,10499],[95,10581],[95,10665],[95,10749],[95,10831],[95,10915],[95,10999],[95,11081]]",1,0,814.317,824.317,93.4375,8.038,"[{""rating"":98.125,""responseTime"":1.7250000000000227},{""rating"":93.4375,""responseTime"":8.038000000000011}]",space,9.472,,824.317,Not at all,0,824.321,,,[],,0,6,6,6,1,audio/Narrative7Situation6.wav,audio/Narrative8Situation6.wav,audio/Narrative5Situation6.wav,audio/Narrative6Situation6.wav,3,2,3,2,,,,,,,,,,,,,,,,,,,,,,,,,,,,,,,,,,,,,,,
,,,,,,5d134be5269dd500012b15fd,2024-02-08_13h05.52.079,group3.1-3.2-social-tom,2023.2.2,Win32,59.95203837,65c5074098b851296ff0b7ed,65c513b8cc649ae8122ee4b5,,,,,,,,,,,,,,,,,,,,,,,,,,,,,824.322,2,audio/Narrative6Situation7.wav,829.334,,829.334,854.201,"[[50,1084],[48.9,1167],[48.9,1250],[48.9,1333],[48.9,1416],[48.9,1499],[48.9,1583],[48.9,1666],[49.1,1750],[49.1,1833],[49.1,1916],[49.1,2000],[49.1,2081],[49.1,2166],[49.9,2250],[50.2,2334],[50.2,2417],[50.2,2500],[50.2,2583],[50.2,2666],[50.2,2750],[50.2,2833],[50.2,2916],[50.2,3000],[50.2,3083],[50.2,3166],[50.2,3250],[50.2,3333],[50.2,3416],[50.2,3500],[50.2,3583],[50.2,3667],[50.2,3749],[50.2,3833],[50.2,3917],[50.2,4000],[50.2,4083],[50.5,4167],[51.4,4249],[52.2,4333],[52.7,4416],[52.7,4500],[52.7,4583],[52.7,4666],[54.9,4750],[60.3,4834],[64.4,4917],[65,5000],[65,5083],[65,5167],[70.2,5250],[76.3,5333],[76.3,5416],[76.3,5499],[76.3,5583],[76.3,5666],[76.3,5750],[76.3,5833],[76.3,5916],[76.3,6000],[76.3,6083],[76.3,6166],[76.3,6249],[76.3,6333],[76.3,6416],[76.3,6500],[76.3,6583],[76.3,6666],[76.3,6749],[76.3,6831],[76.3,6916],[76.3,6999],[76.3,7083],[76.3,7166],[76.3,7250],[76.3,7333],[76.3,7416],[76.3,7500],[76.3,7583],[76.3,7666],[76.3,7750],[76.3,7833],[76.3,7916],[76.3,8000],[76.3,8083],[76.3,8166],[76.3,8249],[76.3,8334],[76.3,8417],[77.2,8500],[77.8,8583],[77.8,8666],[77.8,8749],[77.8,8833],[78.1,8917],[80,9000],[80.2,9083],[80.2,9166],[80.2,9249],[80.2,9333],[80.2,9416],[82.4,9500],[84.4,9583],[84.4,9667],[84.4,9750],[84.4,9834],[84.4,9917],[84.4,10000],[84.4,10083],[84.4,10167],[84.4,10249],[86.6,10333],[86.8,10416],[86.8,10500],[86.8,10583],[86.8,10667],[86.8,10749],[86.8,10833],[88.6,10917],[89.4,10999],[89.4,11083],[89.4,11166],[89.4,11250],[89.4,11333],[89.4,11416],[89.4,11499],[89.4,11581],[89.4,11666],[89.4,11750],[89.4,11833],[89.4,11917],[89.4,12000],[89.4,12083],[89.4,12166],[89.4,12249],[89.4,12333],[89.4,12416],[89.4,12500],[89.4,12583],[89.4,12667],[89.4,12750],[89.4,12833],[89.4,12916],[89.4,13000],[89.4,13083],[89.4,13166],[89.4,13249],[89.4,13334],[89.7,13416],[90.5,13500],[91.8,14250],[92.1,14333],[92.1,14416],[92.1,14500],[92.1,14583],[92.1,14666],[92.1,14749],[92.1,14831],[92.1,14917],[92.1,15000],[92.1,15083],[92.1,15166],[92.1,15250],[92.1,15333],[92.1,15416],[92.1,15499],[92.1,15583],[92.1,15667],[92.1,15749],[92.1,15833],[92.1,15916],[92.1,15999],[92.1,16083],[92.1,16166],[92.1,16249],[92.1,16333],[92.1,16416],[92.1,16500],[92.1,16583],[92.1,16667],[92.1,16749],[92.1,16833],[92.1,16917],[92.1,16999],[92.1,17083],[92.1,17166],[92.1,17250],[92.1,17333],[92.1,17416],[92.1,17500],[92.1,17583],[92.1,17666],[92.1,17749],[92.1,17831],[92.1,17917],[92.1,18000],[92.1,18083],[92.1,18166],[92.1,18250],[92.1,18333],[92.1,18416],[92.1,18499],[92.1,18581],[92.1,18666],[92.1,18750],[92.1,18833],[92.1,18916],[92.1,18999],[92.1,19083],[92.1,19166],[92.1,19250],[92.1,19333],[92.1,19417],[92.1,19500],[92.1,19583],[92.1,19666],[92.1,19749],[92.1,19831],[92.1,19916],[92.1,20000],[92.1,20083],[92.1,20166],[92.1,20250],[92.1,20333],[92.1,20416],[92.1,20500],[92.1,20583],[92.1,20666],[92.1,20749],[92.1,20831],[92.1,20916],[92.1,20999],[92.1,21083],[92.1,21167],[92.1,21250],[92.1,21333],[92.1,21416],[92.1,21499],[92.1,21583],[92.1,21666],[92.1,21749],[92.1,21833],[92.1,21916],[92.1,22000],[92.1,22083],[92.1,22166],[92.1,22249],[92.1,22331],[92.1,22416],[92.1,22499],[92.1,22583],[92.2,22666],[92.2,22750],[92.2,22833],[92.2,22916],[92.2,23000],[92.2,23081],[92.4,23166],[92.5,23249],[92.5,23333],[92.5,23417],[92.7,23500],[92.8,23583],[92.8,23666],[92.8,23749],[92.8,23831],[92.8,23916],[92.8,24000],[92.8,24083],[92.8,24166],[92.8,24250],[92.8,24331],[92.8,24416],[92.8,24499],[92.8,24581],[92.8,24666],[92.8,24750],[92.8,24833]]",1,0,854.201,862.733,85.9375,5.797,"[{""rating"":85.9375,""responseTime"":5.7970000000000255}]",space,7.993,,862.733,Not at all,0,862.737,,,[],,0,7,7,7,1,audio/Narrative7Situation7.wav,audio/Narrative8Situation7.wav,audio/Narrative5Situation7.wav,audio/Narrative6Situation7.wav,5,3,4,5,,,,,,,,,,,,,,,,,,,,,,,,,,,,,,,,,,,,,,,
,,,,,,5d134be5269dd500012b15fd,2024-02-08_13h05.52.079,group3.1-3.2-social-tom,2023.2.2,Win32,59.95203837,65c5074098b851296ff0b7ed,65c513b8cc649ae8122ee4b5,,,,,,,,,,,,,,,,,,,,,,,,,,,,,862.737,2,audio/Narrative6Situation8.wav,867.75,,867.75,874.616,"[[999,0],[999,82],[999,165],[999,250],[999,333],[999,417],[999,500],[50.3,1000],[50.6,1082],[50.6,1165],[50.6,1250],[50.6,1332],[50.6,1415],[50.6,1500],[50.6,1582],[50.6,1667],[50.6,1750],[50.6,1832],[50.6,1917],[50.6,2000],[50.6,2083],[50.6,2165],[50.6,2250],[50.6,2333],[50.6,2417],[50.6,2499],[50.6,2582],[50.6,2667],[50.6,2750],[50.6,2832],[50.6,2915],[50.6,3000],[50.6,3082],[50.6,3165],[50.6,3250],[50.6,3333],[50.6,3417],[50.6,3499],[50.6,3583],[50.6,3667],[50.6,3750],[50.6,3832],[50.9,3917],[53.9,4000],[58.1,4083],[60.3,4167],[60.3,4250],[60.3,4332],[60.3,4417],[66.8,4500],[71.6,4582],[71.6,4665],[71.6,4750],[71.6,4832],[71.6,4915],[71.6,4999],[71.6,5083],[71.6,5167],[71.6,5250],[71.6,5332],[71.6,5417],[72.2,5500]]",1,0,874.616,885.083,96.4375,5.309,"[{""rating"":95.5,""responseTime"":3.1700000000000728},{""rating"":97.375,""responseTime"":4.291000000000054},{""rating"":96.4375,""responseTime"":5.308999999999969}]",space,9.937,,885.083,Not at all,0,885.089,,,[],,0,8,8,8,1,audio/Narrative7Situation8.wav,audio/Narrative8Situation8.wav,audio/Narrative5Situation8.wav,audio/Narrative6Situation8.wav,2,3,3,5,,,,,,,,,,,,,,,,,,,,,,,,,,,,,,,,,,,,,,,
,,,,,,5d134be5269dd500012b15fd,2024-02-08_13h05.52.079,group3.1-3.2-social-tom,2023.2.2,Win32,59.95203837,65c5074098b851296ff0b7ed,65c513b8cc649ae8122ee4b5,,,,,,,,,,,,,,,,,,,,,,,,,,,,,885.09,2,audio/Narrative6Situation9.wav,889.101,,889.101,899.05,"[[999,0],[999,81],[999,164],[999,247],[999,331],[999,414],[999,497],[999,581],[999,665],[999,749],[999,831],[999,915],[999,997],[999,1081],[999,1164],[999,1249],[49.9,1332],[49.4,1750],[49.4,1831],[49.4,1915],[49.4,1999],[49.4,2081],[49.6,2165],[55,2247],[55.9,2331],[55.9,2415],[55.9,2497],[55.9,2581],[55.9,2665],[55.9,2749],[55.9,2831],[55.9,2915],[55.9,2999],[55.9,3081],[57.4,3165],[74.1,6414],[74.1,6499],[74.1,6582],[74.1,6665],[74.1,6749],[75.8,6831],[80.9,6915],[81.8,6997],[81.8,7081],[81.8,7164],[86.1,7247],[90.5,7331],[90.6,7414],[90.6,7499],[90.6,7581],[90.6,7665],[90.6,7749],[90.6,7831],[90.6,7915],[90.6,7999],[90.6,8081],[91.1,8165],[92.1,8249],[92.1,8331],[92.1,8414],[92.1,8497],[92.1,8581],[92.1,8664],[92.1,8747],[92.1,8831],[94.6,8915],[95.6,8999],[95.6,9081],[95.6,9165],[95.6,9247],[95.6,9331],[96.1,9415],[96.1,9499],[96.1,9581],[96.1,9665],[96.1,9749],[96.1,9831],[96.1,9915]]",1,0,899.05,914.233,94.875,11.732,"[{""rating"":97.0625,""responseTime"":2.4039999999999964},{""rating"":97.8125,""responseTime"":3.57000000000005},{""rating"":96.5625,""responseTime"":4.369000000000028},{""rating"":94.875,""responseTime"":11.732000000000085}]",space,14.634,,914.233,All the time,100,914.242,,,[],,0,9,9,9,1,audio/Narrative7Situation9.wav,audio/Narrative8Situation9.wav,audio/Narrative5Situation9.wav,audio/Narrative6Situation9.wav,2,3,3,4,,,,,,,,,,,,,,,,,,,,,,,,,,,,,,,,,,,,,,,
,,,,,,5d134be5269dd500012b15fd,2024-02-08_13h05.52.079,group3.1-3.2-social-tom,2023.2.2,Win32,59.95203837,65c5074098b851296ff0b7ed,65c513b8cc649ae8122ee4b5,,,,,,,,,,,,,,,,,,,,,,,,,,,,,914.243,2,audio/Narrative5Situation1.wav,919.25,,919.25,932.55,"[[50.8,831],[50.8,915],[50.8,999],[50.8,1083],[50.6,1165],[50.6,1249],[50.6,1332],[50.6,1415],[50.6,1499],[50.6,1582],[50.6,1665],[50.6,1750],[50.6,1831],[50.6,1915],[50.6,2000],[50.6,2082],[50.6,2165],[50.6,2249],[50.6,2332],[50.6,2415],[50.6,2499],[50.6,2582],[50.6,2665],[50.6,2749],[50.6,2832],[50.6,2915],[50.6,2999],[50.6,3082],[50.6,3165],[50.6,3249],[50.6,3332],[50.6,3415],[50.6,3499],[50.6,3582],[50.6,3665],[50.6,3750],[50.6,3832],[50.6,3915],[50.6,3999],[50.2,4082],[49.9,4165],[49.9,4249],[49.9,4332],[49.9,4417],[49.6,4500],[55.2,5500],[54.4,5582],[54.4,5664],[54.4,5750],[54.4,5832],[54.4,5915],[54.4,6000],[54.4,6082],[54.4,6165],[54.4,6249],[54.4,6331],[54.4,6415],[54.4,6500],[54.4,6581],[54.4,6665],[54.4,6750],[54.4,6832],[56.8,6915],[59.1,7000],[59.1,7082],[59.1,7165],[59.1,7249],[59.1,7332],[59.1,7415],[59.1,7499],[59.1,7582],[59.1,7665],[59.1,7749],[59.1,7831],[59.1,7915],[59.1,7999],[59.1,8081],[59.1,8167],[59.1,8250],[59.1,8332],[59.1,8415],[59.1,8500],[59.1,8582],[59.1,8665],[59.1,8749],[59.1,8832],[59.1,8915],[59.1,8999],[59.1,9082],[59.1,9165],[59.1,9249],[59.1,9331],[59.1,9415],[59.1,9500],[59.1,9582],[59.1,9667],[59.1,9750],[59.1,9832],[59.1,9915],[59.1,9999],[59.1,10082],[59.1,10165],[59.1,10249],[59.1,10332],[59.1,10415],[59.1,10500],[59.1,10582],[59.1,10665],[59.1,10749],[59.1,10832],[59.1,10915],[59.1,11000],[59.1,11081],[59.1,11165],[59.1,11249],[59.1,11331],[59.1,11415],[59.1,11500],[59.1,11582],[59.1,11665],[59.1,11749],[59.1,11831],[59.1,11915],[59.1,12000],[59.1,12081],[59.1,12165],[59.1,12249],[59.1,12332],[59.1,12415],[59.1,12499],[59.1,12582],[59.1,12664],[59.1,12749],[59.1,12831],[59.1,12915],[59.1,12999],[59.1,13081],[59.1,13165],[59.1,13249]]",1,0,932.55,941.616,51.875,6.886,"[{""rating"":51.87500000000001,""responseTime"":6.886000000000081}]",space,8.543,,941.617,Half the time,50,941.62,,,[],,0,10,10,10,1,audio/Narrative8Situation1.wav,audio/Narrative7Situation1.wav,audio/Narrative6Situation1.wav,audio/Narrative5Situation1.wav,5,2,2,5,,,,,,,,,,,,,,,,,,,,,,,,,,,,,,,,,,,,,,,
,,,,,,5d134be5269dd500012b15fd,2024-02-08_13h05.52.079,group3.1-3.2-social-tom,2023.2.2,Win32,59.95203837,65c5074098b851296ff0b7ed,65c513b8cc649ae8122ee4b5,,,,,,,,,,,,,,,,,,,,,,,,,,,,,941.62,2,audio/Narrative5Situation2.wav,944.633,,944.633,974.099,"[[52.1,665],[51.6,748],[51.6,832],[51.6,915],[51.6,1000],[51.6,1081],[51.6,1165],[50.6,1250],[50.6,1332],[50.6,1415],[50.6,1498],[50.6,1582],[50.6,1666],[50.6,1748],[50.6,1832],[50.6,1915],[50.6,2000],[50.6,2082],[50.6,2165],[50.6,2250],[50.6,2331],[50.6,2414],[50.6,2498],[50.6,2582],[50.6,2666],[50.6,2748],[50.6,2832],[50.6,2915],[50.6,2998],[50.6,3082],[50.6,3165],[50.6,3250],[50.6,3332],[50.6,3415],[50.6,3500],[50.6,3582],[50.6,3665],[50.6,3748],[50.6,3832],[50.6,3914],[50.6,3998],[50.6,4082],[50.6,4165],[50.6,4250],[50.6,4332],[50.6,4415],[50.6,4498],[50.6,4582],[50.6,4665],[50.6,4748],[50.6,4832],[50.6,4915],[50.6,4998],[50.6,5082],[50.6,5165],[50.6,5250],[50.6,5331],[50.6,5415],[50.6,5498],[50.6,5582],[50.6,5665],[50.6,5748],[50.6,5832],[50.6,5915],[50.6,5998],[50.6,6082],[50.6,6165],[50.6,6250],[50.6,6332],[50.6,6415],[50.6,6500],[50.6,6582],[50.6,6665],[50.6,6750],[50.6,6832],[50.6,6915],[50.6,7000],[50.6,7081],[50.8,7165],[51.6,7250],[51.6,7332],[51.6,7415],[51.6,7498],[51.6,7582],[51.6,7665],[51.6,7748],[51.6,7831],[51.6,7915],[51.6,8000],[51.6,8082],[51.6,8165],[51.6,8250],[51.6,8332],[51.6,8415],[51.6,8498],[52.2,8582],[55.3,8666],[57.7,8748],[57.7,8832],[57.7,8915],[57.7,8998],[57.7,9082],[57.7,9164],[57.5,9250],[57.5,9332],[57.5,9415],[57.5,9500],[57.5,9582],[57.1,9665],[57.1,9748],[57.1,9832],[57.1,9915],[57.1,9998],[57.1,10082],[57.1,10164],[57.1,10250],[57.1,10332],[57.1,10415],[57.1,10498],[57.1,10582],[57.1,10665],[57.1,10748],[57.1,10831],[57.1,10915],[57.1,11000],[57.1,11081],[57.1,11165],[57.1,11250],[57.1,11332],[57.1,11415],[57.1,11498],[57.1,11582],[57.1,11665],[57.1,11748],[57.1,11831],[57.1,11915],[57.1,12000],[57.1,12082],[57.1,12165],[57.1,12250],[57.1,12332],[57.1,12416],[57.1,12498],[57.1,12581],[57.1,12665],[57.1,12748],[57.1,12831],[57.1,12915],[57.1,12998],[57.1,13081],[57.1,13165],[57.1,13248],[57.1,13332],[57.1,13415],[57.1,13500],[57.1,13581],[57.1,13665],[57.1,13748],[57.1,13831],[57.1,13914],[57.1,13998],[57.1,14082],[57.1,14165],[57.1,14248],[57.1,14332],[57.1,14414],[57.1,14498],[57.1,14582],[57.1,14664],[57.1,14748],[57.1,14831],[57.1,14914],[57.1,14998],[57.1,15081],[57.1,15165],[57.1,15248],[57.1,15332],[57.1,15415],[57.1,15498],[57.1,15581],[57.1,15665],[57.1,15748],[57.1,15831],[57.1,15915],[57.5,16000],[57.8,16082],[57.8,16165],[57.8,16248],[57.8,16332],[57.8,16415],[57.8,16498],[57.8,16581],[57.8,16665],[57.8,16750],[57.8,16832],[57.8,16915],[57.8,16998],[57.8,17081],[57.8,17165],[57.8,17248],[57.8,17332],[57.8,17415],[57.8,17500],[57.8,17581],[57.8,17665],[57.8,17748],[57.8,17831],[57.8,17914],[57.8,17998],[57.8,18082],[57.8,18165],[57.8,18248],[57.8,18331],[57.8,18415],[57.8,18498],[57.8,18581],[58,18666],[62.1,20998],[62.1,21082],[62.1,21164],[62.1,21248],[62.1,21332],[62.1,21415],[62.1,21500],[60.8,21582],[60.8,21665],[60.8,21748],[60.8,21832],[60.8,21915],[60.8,21998],[60.8,22082],[60.8,22164],[60.8,22250],[60.8,22332],[60.8,22415],[60.8,22498],[60.8,22582],[60.8,22664],[60.8,22748],[60.8,22831],[60.8,22915],[60.8,22998],[60.8,23082],[60.8,23165],[60.8,23250],[60.8,23332],[60.8,23415],[60.8,23498],[60.8,23581],[60.8,23665],[60.8,23748],[60.8,23831],[60.8,23914],[60.8,23998],[60.8,24082],[60.8,24165],[60.8,24250],[60.8,24332],[60.8,24415],[60.8,24498],[60.8,24582],[60.8,24665],[60.8,24748],[60.8,24832],[60.8,24915],[60.8,25000],[60.8,25082],[60.8,25165],[60.8,25250],[60.8,25331],[60.8,25415],[60.8,25498],[60.8,25582],[60.8,25665],[60.8,25748],[60.8,25831],[60.8,25914],[60.8,25998],[60.8,26081],[60.8,26165],[60.8,26250],[60.8,26331],[60.8,26415],[60.8,26498],[60.8,26582],[60.8,26665],[60.8,26748],[60.8,26831],[60.8,26914],[60.8,26998],[60.8,27082],[60.8,27164],[60.8,27250],[60.8,27332],[60.8,27415],[60.8,27498],[60.8,27581],[60.8,27665],[60.8,27748],[60.8,27831],[60.8,27915],[60.8,27998],[60.8,28082],[60.8,28165],[60.8,28250],[60.8,28331],[60.8,28415],[60.8,28498],[60.8,28581],[60.8,28664],[60.9,28748],[62.8,28832],[63.8,28915],[63.8,28998],[63.8,29081],[63.8,29165],[63.8,29248],[63.8,29331],[63.8,29415]]",1,0,974.099,987.482,54.375,11.836,"[{""rating"":58.4375,""responseTime"":2.3379999999999654},{""rating"":55.1875,""responseTime"":5.968999999999937},{""rating"":53.625,""responseTime"":7.375},{""rating"":53.625,""responseTime"":10.78699999999992},{""rating"":54.37499999999999,""responseTime"":11.836000000000013}]",space,12.854,,987.482,Not at all,0,987.489,,,[],,0,11,11,11,1,audio/Narrative8Situation2.wav,audio/Narrative7Situation2.wav,audio/Narrative6Situation2.wav,audio/Narrative5Situation2.wav,3,3,3,3,,,,,,,,,,,,,,,,,,,,,,,,,,,,,,,,,,,,,,,
,,,,,,5d134be5269dd500012b15fd,2024-02-08_13h05.52.079,group3.1-3.2-social-tom,2023.2.2,Win32,59.95203837,65c5074098b851296ff0b7ed,65c513b8cc649ae8122ee4b5,,,,,,,,,,,,,,,,,,,,,,,,,,,,,987.49,2,audio/Narrative5Situation3.wav,990.499,,990.499,1004.416,"[[999,0],[49.3,82],[49.3,165],[49.3,248],[49.3,332],[49.3,416],[49.3,500],[49.3,582],[49.3,665],[49.3,750],[49.3,832],[49.3,915],[49.3,998],[49.3,1082],[49.3,1165],[49.3,1248],[49.3,1332],[49.3,1415],[49.3,1498],[49.3,1582],[49.3,1666],[49.3,1750],[49.3,1832],[49.3,1915],[49.3,2000],[49.3,2082],[49.3,2165],[49.3,2248],[49.3,2332],[49.3,2415],[49.3,2500],[49.3,2581],[49.3,2665],[49.3,2750],[49.3,2832],[49.3,2916],[49.3,3000],[49.3,3082],[49.3,3165],[49.3,3248],[49.3,3332],[49.3,3415],[49.3,3498],[49.3,3581],[50.5,3665],[53.1,3750],[53.1,3832],[53.1,3915],[53.1,3998],[53.1,4082],[53.1,4166],[53.1,4248],[53.1,4332],[53.1,4415],[55.8,4500],[57.4,4581],[57.4,4665],[57.4,4750],[57.4,4832],[57.4,4915],[57.4,5000],[57.4,5082],[57.4,5165],[57.4,5248],[57.4,5332],[57.4,5415],[57.4,5498],[57.4,5581],[57.4,5665],[57.4,5750],[57.4,5832],[57.4,5916],[57.4,5998],[57.4,6082],[57.4,6165],[57.4,6248],[57.4,6332],[57.4,6416],[57.4,6498],[57.4,6582],[57.4,6665],[57.4,6748],[57.4,6832],[57.4,6915],[57.4,6998],[57.4,7082],[57.4,7166],[57.4,7250],[57.4,7332],[57.4,7415],[57.4,7498],[57.4,7582],[57.4,7665],[57.4,7748],[57.4,7832],[57.4,7915],[57.4,7998],[57.4,8082],[57.4,8165],[57.4,8248],[57.4,8332],[57.4,8415],[57.4,8500],[57.4,8582],[57.4,8665],[57.4,8748],[57.4,8832],[57.4,8915],[57.4,8998],[57.4,9082],[57.4,9166],[57.4,9248],[57.4,9332],[57.4,9415],[57.4,9500],[57.4,9582],[57.4,9665],[57.4,9748],[57.4,9832],[57.4,9916],[57.4,10000],[57.4,10082],[57.4,10166],[57.4,10250],[57.4,10332],[57.4,10415],[57.4,10498],[57.4,10581],[57.4,10665],[57.4,10750],[57.4,10832],[57.4,10915],[57.4,11000],[57.4,11082],[57.4,11165],[57.4,11250],[57.4,11332],[57.4,11415],[57.4,11498],[57.4,11582],[57.4,11665],[57.4,11748],[57.4,11832],[57.4,11915],[57.4,11998],[57.4,12082],[57.4,12165],[57.4,12248],[57.4,12331],[57.4,12415],[57.4,12498],[57.4,12583],[57.4,12665],[57.4,12750],[57.4,12832],[57.4,12915],[57.8,13000],[59.9,13082],[59.9,13166],[59.9,13250],[59.9,13332],[59.9,13416],[59.6,13500],[59.6,13582],[59.6,13665],[59.6,13750],[59.6,13832],[58.1,13916]]",1,0,1004.417,1014.816,56.75,8.503,"[{""rating"":57.6875,""responseTime"":2.4840000000000373},{""rating"":59.25,""responseTime"":5.04200000000003},{""rating"":56.75,""responseTime"":8.503000000000043}]",space,9.861,,1014.816,Not at all,0,1025.899,0.1875,6.837,"[{""rating"":0.18750000000000155,""responseTime"":6.836999999999989}]",space,0,12,12,12,1,audio/Narrative8Situation3.wav,audio/Narrative7Situation3.wav,audio/Narrative6Situation3.wav,audio/Narrative5Situation3.wav,4,8,5,3,,,10.54,,,,,,,,,,,,,,,,,,,,,,,,,,,,,,,,,,,,
,,,,,,5d134be5269dd500012b15fd,2024-02-08_13h05.52.079,group3.1-3.2-social-tom,2023.2.2,Win32,59.95203837,65c5074098b851296ff0b7ed,65c513b8cc649ae8122ee4b5,,,,,,,,,,,,,,,,,,,,,,,,,,,,,1025.9,2,audio/Narrative5Situation4.wav,1026.915,,1026.915,1047.315,"[[999,0],[999,83],[41.1,165],[43.4,250],[43.4,333],[48.6,416],[59.9,500],[59.9,583],[59.9,665],[57.8,750],[51.1,833],[51.1,916],[51.1,1000],[51.1,1083],[51.1,1166],[50.6,1250],[50.5,1333],[50.5,1416],[50.5,1500],[50.5,1583],[50.5,1665],[50.5,1750],[50.5,1833],[50.5,1916],[50.5,2000],[50.5,2084],[50.5,2165],[50.5,2250],[50.5,2333],[50.5,2416],[50.5,2500],[50.5,2583],[50.5,2665],[50.5,2750],[50.5,2833],[50.5,2916],[50.5,3000],[50.5,3083],[50.5,3166],[50.5,3250],[50.5,3333],[50.5,3416],[50.5,3500],[50.5,3583],[50.5,3666],[50.5,3750],[50.5,3834],[50.5,3916],[50.5,4000],[50.5,4083],[50.5,4165],[50.5,4250],[50.5,4333],[50.5,4416],[50.5,4500],[50.5,4584],[50.5,4666],[50.5,4750],[50.5,4833],[50.5,4915],[51.4,5000],[52.7,5083],[52.7,5165],[52.7,5250],[52.7,5333],[52.7,5416],[52.7,5500],[52.7,5583],[52.7,5665],[52.7,5749],[52.7,5833],[52.7,5916],[52.7,6000],[52.7,6083],[52.7,6166],[52.7,6250],[52.7,6333],[52.7,6416],[52.7,6499],[52.7,6583],[52.7,6666],[52.7,6750],[52.7,6833],[52.7,6916],[54.1,7000],[54.9,7083],[54.9,7165],[54.9,7250],[54.9,7333],[55.2,7416],[55.3,7500],[55.3,7583],[55.3,7665],[55.5,7750],[57.8,7833],[58.3,7916],[58.3,8000],[58.3,8083],[58.3,8165],[58.3,8249],[58.3,8333],[57.5,8416],[56.6,8500],[56.6,8584],[56.6,8665],[56.6,8750],[56.6,8833],[56.6,8915],[56.6,9000],[56.6,9083],[56.6,9166],[56.6,9249],[56.6,9333],[56.6,9415],[56.6,9499],[56.6,9586],[56.6,9665],[56.6,9749],[56.6,9833],[56.6,9916],[56.6,9999],[56.6,10083],[56.6,10165],[56.6,10250],[56.9,10333],[57.5,10416],[57.5,10500],[57.5,10583],[57.5,10666],[57.5,10750],[57.5,10833],[57.5,10915],[57.5,10999],[57.5,11083],[57.5,11165],[57.5,11250],[57.5,11333],[57.5,11416],[57.5,11500],[57.5,11583],[57.5,11665],[57.5,11749],[57.5,11833],[57.5,11915],[57.5,11999],[57.5,12083],[57.5,12165],[57.5,12250],[57.5,12333],[57.5,12415],[57.5,12500],[57.5,12583],[57.5,12665],[57.5,12749],[57.5,12833],[57.5,12916],[57.5,12999],[57.5,13083],[57.5,13166],[57.5,13250],[57.5,13333],[57.5,13415],[57.5,13500],[57.5,13583],[57.5,13665],[57.5,13749],[57.5,13833],[57.5,13916],[57.5,13999],[57.5,14083],[57.5,14165],[57.5,14249],[57.5,14333],[57.5,14415],[57.5,14500],[57.5,14584],[57.5,14665],[57.5,14750],[57.5,14833],[57.8,14916],[59.1,15000],[59.6,15083],[59.6,15166],[59.6,15250],[59.6,15333],[59.6,15415],[59.6,15500],[59.6,15583],[59.6,15665],[59.6,15750],[59.6,15833],[59.6,15915],[59.6,15999],[59.6,16083],[59.6,16166],[59.6,16250],[59.6,16333],[59.6,16416],[59.6,16499],[59.6,16583],[59.6,16665],[59.6,16749],[59.6,16834],[59.6,16915],[59.6,17000],[59.6,17083],[59.6,17166],[59.6,17250],[59.6,17334],[59.6,17415],[59.6,17499],[59.6,17583],[59.6,17665],[59.6,17750],[59.6,17833],[59.6,17916],[59.6,18000],[59.6,18083],[59.6,18165],[59.6,18250],[59.6,18333],[59.6,18415],[59.6,18500],[59.6,18583],[59.6,18665],[59.6,18750],[59.6,18833],[59.6,18915],[59.6,18999],[59.6,19082],[59.6,19165],[59.6,19250],[59.6,19334],[59.6,19415],[59.6,19500],[59.6,19583],[59.6,19666],[59.6,19749],[59.6,19833],[59.6,19916],[59.6,20000],[59.6,20083],[59.6,20165],[59.6,20249],[59.6,20333]]",1,0,1047.316,1055.865,57.6875,5.844,"[{""rating"":57.6875,""responseTime"":5.844000000000051}]",space,8.011,,1055.865,Not at all,0,1055.868,,,[],,0,13,13,13,1,audio/Narrative8Situation4.wav,audio/Narrative7Situation4.wav,audio/Narrative6Situation4.wav,audio/Narrative5Situation4.wav,3,3,2,1,,,,,,,,,,,,,,,,,,,,,,,,,,,,,,,,,,,,,,,
