exp_question,consent.started,consent.stopped,consentResponse.keys,consentResponse.rt,consentResponse.duration,participantID,date,expName,psychopyVersion,OS,frameRate,STUDY_ID,SESSION_ID,opening1.started,opening1.stopped,keyEndingOpening1.keys,keyEndingOpening1.rt,keyEndingOpening1.duration,volumeAdjust.started,volumeAdjust.stopped,endingAdjust.keys,endingAdjust.rt,endingAdjust.duration,opening2.started,opening2.stopped,keyEndingOpening.keys,keyEndingOpening.rt,keyEndingOpening.duration,mouse.x,mouse.y,mouse.leftButton,mouse.midButton,mouse.rightButton,mouse.time,instructionLoop.thisRepN,instructionLoop.thisTrialN,instructionLoop.thisN,instructionLoop.thisIndex,instructionLoop.ran,readyForAudio.started,readyForAudio.stopped,fixation.started,run,audio_played,fixation.stopped,endPractice.keys,audioPre.started,audioPre.stopped,continuousResponses_audio,continuousSlider.response,continuousSlider.rt,intRating.started,intRating.stopped,intQuestionSlider.response,intQuestionSlider.rt,intQuestionSlider.history,confirmResponse.keys,confirmResponse.rt,confirmResponse.duration,catchQuestion.started,catch_label,catch_value,catchQuestion.stopped,catchQuestionSlider.response,catchQuestionSlider.rt,catchQuestionSlider.history,confirmResponse_2.keys,audioRunLoop.thisRepN,audioRunLoop.thisTrialN,audioRunLoop.thisN,audioRunLoop.thisIndex,audioRunLoop.ran,conditions1_1,conditions2_1,conditions1_2,conditions2_2,dur1_1,dur2_1,dur1_2,dur2_2,endPractice.rt,endPractice.duration,confirmResponse_2.rt,confirmResponse_2.duration,runIntervalBreak.started,runIntervalBreak.stopped,endingBreakKey.keys,endingBreakKey.rt,endingBreakKey.duration,connection.started,connection.stopped,connectionEnding.keys,connectionEnding.rt,connectionEnding.duration,readyForText.started,readyForText.stopped,textPre.started,run_dup,textPre.stopped,continuousResponses_text,textRunLoop.thisRepN,textRunLoop.thisTrialN,textRunLoop.thisN,textRunLoop.thisIndex,textRunLoop.ran,text1_1,text1_2,text2_1,text2_2,runBreakText.started,runBreakText.stopped,endingBreakKey_2.keys,endingBreakKey_2.rt,endingBreakKey_2.duration,ending.started,ending.stopped,endingEnding.keys,endingEnding.rt,endingEnding.duration
social,0.0004,44.5907,y,44.2677,,5d23460ad4c57900192b129c,2024-02-08_16h02.46.049,group3.1-3.2-social-tom,2023.2.2,Win32,60.24096386,65c5074098b851296ff0b7ed,65c5416080ce2dd1a455223d,,,,,,,,,,,,,,,,,,,,,,,,,,,,,,,,,,,,,,,,,,,,,,,,,,,,,,,,,,,,,,,,,,,,,,,,,,,,,,,,,,,,,,,,,,,,,,,,,,,,,,,,,,
,,,,,,5d23460ad4c57900192b129c,2024-02-08_16h02.46.049,group3.1-3.2-social-tom,2023.2.2,Win32,60.24096386,65c5074098b851296ff0b7ed,65c5416080ce2dd1a455223d,44.5912,65.6014,space,20.935,,,,,,,,,,,,,,,,,,,,,,,,,,,,,,,,,,,,,,,,,,,,,,,,,,,,,,,,,,,,,,,,,,,,,,,,,,,,,,,,,,,,,,,,,,,,,,,,,,,,,,
,,,,,,5d23460ad4c57900192b129c,2024-02-08_16h02.46.049,group3.1-3.2-social-tom,2023.2.2,Win32,60.24096386,65c5074098b851296ff0b7ed,65c5416080ce2dd1a455223d,,,,,,65.6016,97.3075,space,31.3713,,,,,,,,,,,,,,,,,,,,,,,,,,,,,,,,,,,,,,,,,,,,,,,,,,,,,,,,,,,,,,,,,,,,,,,,,,,,,,,,,,,,,,,,,,,,,,,,,
,,,,,,5d23460ad4c57900192b129c,2024-02-08_16h02.46.049,group3.1-3.2-social-tom,2023.2.2,Win32,60.24096386,65c5074098b851296ff0b7ed,65c5416080ce2dd1a455223d,,,,,,,,,,,97.3356,111.4821,space,14.1103,,[],[],[],[],[],[],0,0,0,0,1,,,,,,,,,,,,,,,,,,,,,,,,,,,,,,,,,,,,,,,,,,,,,,,,,,,,,,,,,,,,,,,,,,,,,,,,,,,,,,,,
,,,,,,5d23460ad4c57900192b129c,2024-02-08_16h02.46.049,group3.1-3.2-social-tom,2023.2.2,Win32,60.24096386,65c5074098b851296ff0b7ed,65c5416080ce2dd1a455223d,,,,,,,,,,,111.5022,130.3615,space,18.7382,,[],[],[],[],[],[],1,0,1,0,1,,,,,,,,,,,,,,,,,,,,,,,,,,,,,,,,,,,,,,,,,,,,,,,,,,,,,,,,,,,,,,,,,,,,,,,,,,,,,,,,
,,,,,,5d23460ad4c57900192b129c,2024-02-08_16h02.46.049,group3.1-3.2-social-tom,2023.2.2,Win32,60.24096386,65c5074098b851296ff0b7ed,65c5416080ce2dd1a455223d,,,,,,,,,,,130.3827,150.3341,space,19.8986,,[],[],[],[],[],[],2,0,2,0,1,,,,,,,,,,,,,,,,,,,,,,,,,,,,,,,,,,,,,,,,,,,,,,,,,,,,,,,,,,,,,,,,,,,,,,,,,,,,,,,,
,,,,,,5d23460ad4c57900192b129c,2024-02-08_16h02.46.049,group3.1-3.2-social-tom,2023.2.2,Win32,60.24096386,65c5074098b851296ff0b7ed,65c5416080ce2dd1a455223d,,,,,,,,,,,150.3534,179.5377,space,29.1399,,[],[],[],[],[],[],3,0,3,0,1,,,,,,,,,,,,,,,,,,,,,,,,,,,,,,,,,,,,,,,,,,,,,,,,,,,,,,,,,,,,,,,,,,,,,,,,,,,,,,,,
,,,,,,5d23460ad4c57900192b129c,2024-02-08_16h02.46.049,group3.1-3.2-social-tom,2023.2.2,Win32,60.24096386,65c5074098b851296ff0b7ed,65c5416080ce2dd1a455223d,,,,,,,,,,,179.5579,202.017,space,22.4293,,[],[],[],[],[],[],4,0,4,0,1,,,,,,,,,,,,,,,,,,,,,,,,,,,,,,,,,,,,,,,,,,,,,,,,,,,,,,,,,,,,,,,,,,,,,,,,,,,,,,,,
,,,,,,5d23460ad4c57900192b129c,2024-02-08_16h02.46.049,group3.1-3.2-social-tom,2023.2.2,Win32,60.24096386,65c5074098b851296ff0b7ed,65c5416080ce2dd1a455223d,,,,,,,,,,,,,,,,,,,,,,,,,,,202.0412,204.6141,204.6509,1,audio/Narrative13Situation2.wav,206.6527,,206.6533,236.4228,"[[999,3],[999,127],[999,212],[999,294],[999,377],[999,461],[999,544],[999,627],[999,710],[999,794],[999,877],[999,960],[999,1043],[999,1127],[999,1210],[999,1294],[999,1377],[999,1460],[999,1544],[999,1623],[999,1711],[999,1794],[999,1872],[999,1960],[999,2040],[999,2127],[999,2210],[999,2293],[999,2376],[999,2457],[999,2539],[999,2626],[999,2711],[999,2794],[999,2877],[999,2960],[999,3043],[98.9,3127],[98.9,3211],[98.6,3293],[98.4,3376],[98.4,3460],[98.4,3543],[98.4,3626],[98.4,3710],[98.6,3793],[99.4,3877],[99.7,3960],[100,4043],[100,4126],[100,4210],[100,4293],[100,4376],[100,4459],[100,4543],[100,4626],[100,4709],[100,4793],[100,4876],[100,4959],[100,5042],[100,5126],[100,5209],[100,5292],[100,5376],[100,5459],[100,5542],[100,5625],[100,5709],[100,5792],[100,5876],[100,5959],[100,6042],[100,6125],[100,6209],[100,6292],[100,6376],[100,6458],[100,6542],[100,6625],[100,6708],[100,6792],[100,6876],[100,6958],[100,7042],[100,7121],[100,7208],[100,7292],[100,7375],[100,7458],[100,7543],[100,7624],[100,7708],[100,7791],[100,7874],[100,7959],[100,8041],[100,8125],[100,8208],[100,8291],[100,8375],[100,8458],[100,8541],[100,8624],[100,8707],[100,8791],[100,8871],[100,8957],[100,9041],[100,9125],[100,9207],[100,9292],[100,9374],[100,9458],[100,9541],[100,9624],[100,9707],[100,9791],[100,9874],[100,9957],[100,10041],[100,10124],[100,10207],[100,10291],[100,10387],[100,10473],[100,10557],[100,10641],[100,10724],[100,10808],[100,10886],[100,10974],[100,11057],[100,11140],[100,11223],[100,11307],[100,11390],[100,11473],[100,11557],[100,11640],[100,11724],[100,11807],[100,11890],[100,11972],[100,12052],[100,12140],[100,12223],[100,12306],[100,12390],[100,12473],[100,12556],[100,12636],[100,12723],[100,12806],[100,12886],[100,12973],[100,13056],[100,13140],[100,13219],[100,13306],[100,13390],[100,13468],[100,13556],[100,13640],[100,13723],[100,13803],[100,13889],[100,13972],[100,14056],[100,14139],[100,14223],[100,14302],[100,14389],[100,14473],[100,14552],[100,14639],[100,14723],[100,14806],[100,14905],[100,14990],[100,15067],[100,15155],[100,15239],[100,15322],[100,15406],[100,15489],[100,15573],[100,15656],[98.1,15742],[96.9,15823],[96.6,15906],[93.9,15991],[93.9,16068],[93.9,16155],[94.4,16239],[96.1,16323],[96.4,16406],[96.4,16488],[96.6,16572],[96.6,16655],[96.6,16738],[96.6,16821],[96.6,16901],[97.2,16989],[98.1,17072],[98.3,17150],[98.6,17239],[98.8,17322],[98.8,17405],[98.8,17488],[98.8,17572],[98.8,17651],[98.8,17738],[98.8,17822],[98.8,17905],[98.8,17988],[98.8,18072],[98.8,18154],[98.8,18238],[96.6,18323],[91.1,18406],[81.4,18488],[78,18573],[75.8,18655],[73.4,18738],[73.4,18821],[71.3,18906],[68,18985],[66.7,19072],[66.6,19154],[66.6,19239],[66.6,19321],[64.2,19405],[62.7,19488],[62.7,19571],[62.7,19654],[62.7,19732],[62.7,19822],[62.7,19901],[62.7,19987],[62.7,20071],[62.7,20154],[62.7,20237],[62.7,20321],[62,20405],[56.9,20488],[54.1,20570],[53.3,20654],[45.5,20738],[39.2,20822],[30.9,20905],[28.6,20989],[26.7,21071],[26.7,21153],[26.7,21237],[26.6,21322],[26.4,21404],[26.4,21487],[26.4,21570],[26.4,21649],[26.4,21736],[26.3,21817],[26.3,21903],[26.3,21987],[26.3,22066],[26.3,22154],[26.3,22236],[26.3,22320],[26.3,22403],[26.9,22487],[35,22571],[45.2,22655],[48.8,22737],[50,22820],[52.7,22901],[52.7,22986],[52.7,23069],[52.7,23153],[52.7,23236],[52.7,23320],[52.7,23403],[52.7,23486],[52.7,23570],[52.7,23652],[52.7,23736],[52.7,23816],[52.7,23903],[52.7,23986],[52.5,24066],[52.5,24152],[52.5,24236],[52.5,24320],[52.5,24402],[52.2,24486],[52,24570],[52,24652],[52,24736],[52,24819],[49.8,24903],[36.4,24987],[36.4,25069],[36.4,25153],[35.3,25237],[34.5,25319],[34.5,25403],[34.1,25487],[30.5,25570],[29.5,25654],[26.6,25736],[26.6,25819],[26.6,25902],[26.6,25981],[26.6,26068],[26.6,26153],[26.6,26235],[26.6,26315],[26.6,26398],[26.6,26485],[26.6,26569],[26.6,26652],[26.4,26732],[26.3,26818],[26.3,26901],[26.3,26985],[26.3,27068],[26.3,27151],[26.3,27235],[26.3,27318],[26.3,27401],[26.1,27486],[25.6,27569],[24.7,27651],[24.2,27731],[22,27819],[21.9,27898],[20.3,27986],[19.5,28069],[18.3,28152],[18.1,28231],[18.1,28318],[18.1,28402],[18.1,28480],[18.1,28567],[18.1,28651],[18.1,28730],[18.1,28818],[18.1,28901],[18.1,28984],[18.1,29068],[18.1,29151],[18.1,29234],[18.1,29318],[18.1,29401],[18.1,29484],[18.1,29568],[18.1,29651],[18.1,29734]]",1,0,236.4235,244.4367,78.74999616,6.8281,"[{""rating"":75.1562462700532,""responseTime"":4.146100000143036},{""rating"":78.7499961629511,""responseTime"":6.828100000143053}]",space,7.4793,,244.4372,Partially,50,244.4453,,,[],,0,0,0,0,1,audio/Narrative13Situation2.wav,audio/Narrative13Situation2.wav,audio/Narrative13Situation2.wav,audio/Narrative13Situation2.wav,2,2,2,2,,,,,,,,,,,,,,,,,,,,,,,,,,,,,,,,,,,,,,,
,,,,,,5d23460ad4c57900192b129c,2024-02-08_16h02.46.049,group3.1-3.2-social-tom,2023.2.2,Win32,60.24096386,65c5074098b851296ff0b7ed,65c5416080ce2dd1a455223d,,,,,,,,,,,,,,,,,,,,,,,,,,,,,244.4458,1,audio/Narrative8Situation1.wav,246.819,space,246.8192,262.7337,"[[75.9,853],[75.9,935],[75.9,1018],[75.9,1101],[75.9,1185],[76.6,2103],[76.3,2186],[76.1,2268],[76.1,2351],[76.1,2435],[76.1,2518],[76.7,2602],[83.6,2686],[83.6,2768],[83.6,2852],[83.6,2935],[83.6,3018],[83.6,3101],[83.6,3185],[83.6,3267],[83.6,3351],[83.6,3435],[83.6,3517],[83.4,3602],[73.4,3685],[73.4,3768],[71.7,3852],[60.8,3934],[60.2,4018],[55.9,4102],[53.1,4183],[50.6,4268],[49.5,4350],[42.2,4434],[39.8,4516],[38,4601],[35.9,4685],[30.9,4768],[30.6,4851],[30,4935],[27,5017],[22.8,5101],[22.7,5185],[18.6,5268],[11.4,5350],[11.4,5434],[11.4,5517],[11.1,5601],[10.9,5684],[10.9,5767],[9.7,5850],[8.4,5934],[8.1,6017],[8.1,6100],[8.1,6184],[5.5,6267],[5.5,6350],[5.2,6434],[2,6517],[1.9,6600],[1.9,6683],[1.9,6766],[1.9,6850],[1.7,6933],[1.7,7016],[1.7,7100],[1.1,7184],[1.1,7268],[1.1,7350],[0.9,7433],[0.9,7516],[0.8,7601],[0.6,7684],[0.6,7766],[5.2,9350],[17.2,9433],[25.3,9516],[40,9600],[42.2,9682],[46.7,9767],[54.4,9850],[56.6,9933],[58.4,10015],[58.4,10098],[58.4,10182],[62.3,10266],[64.8,10349],[67.2,10432],[69.1,10516],[69.1,10599],[69.1,10681],[69.1,10765],[69.1,10848],[69.1,10931],[69.2,11016],[69.2,11098],[69.5,11183],[69.8,11265],[70.2,11349],[70.3,11432],[70.3,11515],[70.3,11598],[70.3,11681],[70.3,11765],[70.5,11848],[70.5,11932],[70.6,12015],[74.5,12098],[75.6,12182],[75.6,12265],[75.6,12348],[75.6,12432],[75.6,12515],[75.6,12598],[75.6,12682],[75.6,12765],[75.6,12848],[75.6,12931],[75.6,13014],[75.6,13098],[75.6,13182],[75.6,13264],[75.6,13348],[75.8,13431],[75.9,13514],[76.9,13598],[79.2,13681],[79.2,13764],[79.2,13847],[79.2,13931],[79.2,14015],[79.2,14098],[79.2,14181],[79.2,14264],[79.2,14348],[79.2,14431],[79.2,14515],[79.2,14597],[79.2,14680],[79.2,14764],[79.2,14847],[79.2,14931],[79.2,15013],[79.2,15097],[79.2,15180],[79.2,15264],[79.2,15346],[79.2,15431],[79.2,15513],[79.2,15597],[79.2,15680],[79.7,15764],[80,15847]]",1,0,262.7341,267.6825,70.62499641,3.6449,"[{""rating"":70.62499640509499,""responseTime"":3.6449000000953333}]",space,4.4001,,267.6826,Partially,50,267.6863,,,[],,0,1,1,1,1,audio/Narrative7Situation1.wav,audio/Narrative8Situation1.wav,audio/Narrative5Situation1.wav,audio/Narrative6Situation1.wav,2,5,5,2,2.3367,,,,,,,,,,,,,,,,,,,,,,,,,,,,,,,,,,,,,,
,,,,,,5d23460ad4c57900192b129c,2024-02-08_16h02.46.049,group3.1-3.2-social-tom,2023.2.2,Win32,60.24096386,65c5074098b851296ff0b7ed,65c5416080ce2dd1a455223d,,,,,,,,,,,,,,,,,,,,,,,,,,,,,267.6868,1,audio/Narrative8Situation2.wav,270.6975,,270.6975,280.8234,"[[999,19],[999,111],[999,194],[999,277],[999,362],[999,440],[999,527],[999,611],[999,693],[999,777],[999,861],[999,940],[999,1028],[999,1110],[999,1190],[999,1278],[999,1361],[999,1444],[999,1528],[999,1606],[999,1694],[999,1778],[999,1860],[999,1944],[999,2028],[999,2106],[999,2194],[999,2278],[999,2361],[999,2444],[999,2522],[999,2606],[999,2694],[999,2772],[999,2856],[999,2945],[999,3027],[999,3110],[999,3194],[999,3277],[999,3360],[999,3444],[999,3528],[999,3611],[999,3694],[999,3776],[999,3856],[999,3943],[999,4027],[17.7,4130],[18.6,4211],[18.8,4293],[37.5,4378],[38.1,4459],[38.1,4543],[38.1,4626],[38.1,4709],[38.1,4793],[38.1,4877],[38.4,4959],[38.4,5043],[38.4,5127],[38.4,5209],[38.4,5293],[38.4,5377],[38.4,5459],[38.4,5543],[38.4,5625],[34.8,5710],[20.8,5794],[16.6,5877],[16.6,5959],[14.8,6044],[14.8,6125],[14.8,6209],[14.8,6293],[14.8,6376],[14.8,6459],[14.8,6537],[14.8,6625],[14.8,6709],[14.8,6792],[14.8,6875],[14.8,6953],[14.8,7038],[14.5,7127],[14.4,7209],[14.4,7292],[14.4,7375],[14.4,7459],[14.4,7542],[14.4,7625],[14.4,7708],[14.4,7792],[14.2,7875],[14.2,7958],[14.2,8042],[14.2,8126],[14.2,8208],[14.1,8292],[12.8,8376],[11.3,8459],[9.5,8542],[9.5,8624],[9.4,8709],[8.9,8793],[8.1,8876],[8.1,8958],[8.1,9038],[8,9125],[8,9208],[8,9292],[8,9370],[8,9458],[8,9536],[8,9620],[8,9708],[8,9791],[8,9874],[8,9958],[8,10041],[8,10125]]",1,0,280.8236,286.4589,12.03124815,4.6306,"[{""rating"":12.031248151324746,""responseTime"":4.630600000143033}]",space,5.0845,,286.4591,Not at all,0,286.466,,,[],,0,2,2,2,1,audio/Narrative7Situation2.wav,audio/Narrative8Situation2.wav,audio/Narrative5Situation2.wav,audio/Narrative6Situation2.wav,3,3,3,3,,,,,,,,,,,,,,,,,,,,,,,,,,,,,,,,,,,,,,,
,,,,,,5d23460ad4c57900192b129c,2024-02-08_16h02.46.049,group3.1-3.2-social-tom,2023.2.2,Win32,60.24096386,65c5074098b851296ff0b7ed,65c5416080ce2dd1a455223d,,,,,,,,,,,,,,,,,,,,,,,,,,,,,286.4665,1,audio/Narrative8Situation3.wav,290.4744,,290.4744,312.879,"[[999,19],[999,120],[999,211],[999,295],[999,373],[999,461],[999,544],[999,626],[999,711],[999,793],[999,877],[999,960],[999,1040],[999,1123],[999,1210],[999,1295],[999,1377],[999,1461],[999,1544],[999,1627],[13.4,1712],[9.7,1794],[9.2,1877],[8.8,1962],[8.8,2043],[8.6,2127],[8.6,2206],[8.8,2294],[8.8,2377],[5.8,2462],[5.8,2543],[5.2,2628],[5.2,2710],[5.2,2793],[5.2,2877],[5.2,2960],[5.2,3043],[5.2,3127],[5.2,3206],[6.7,3294],[7.8,3378],[13.6,3460],[26.9,3544],[31.1,3627],[34.1,3712],[39.2,3794],[45.3,3877],[46.7,3960],[50.2,4044],[53.1,4122],[53.1,4210],[53.1,4292],[53.3,4376],[53.3,4460],[53.3,4543],[53.3,4626],[53.3,4710],[53.3,4792],[53.3,4876],[52.5,4961],[51.3,5043],[51.3,5126],[51.3,5209],[51.3,5292],[51.3,5376],[51.3,5459],[51.3,5542],[51.3,5626],[51.3,5704],[51.3,5792],[51.3,5876],[51.3,5959],[51.3,6043],[51.3,6126],[51.3,6204],[51.4,6292],[51.4,6375],[51.6,6460],[52.5,6543],[54.5,6626],[54.7,6708],[54.7,6792],[54.7,6875],[54.7,6959],[54.7,7042],[54.7,7121],[54.7,7208],[54.7,7292],[54.7,7376],[54.7,7459],[54.7,7542],[54.7,7625],[54.7,7708],[54.7,7791],[54.7,7875],[54.7,7959],[54.7,8037],[54.7,8125],[55,8208],[55,8290],[55.5,8376],[57.3,8460],[57.3,8542],[57.7,8625],[60.6,8709],[61.4,8791],[61.4,8874],[61.7,8954],[62.5,9042],[62.5,9121],[63.4,9209],[65.5,9293],[65.8,9370],[65.8,9458],[65.8,9542],[65.8,9624],[66.3,9708],[66.3,9791],[67,9875],[69.8,9959],[70.3,10042],[72,10125],[73.4,10208],[73.6,10291],[73.6,10374],[73.8,10458],[73.8,10540],[73.8,10624],[73.8,10708],[73.8,10790],[73.8,10874],[73.8,10958],[73.8,11040],[73.8,11124],[73.8,11203],[73.8,11290],[73.8,11374],[74.1,11457],[74.1,11540],[74.1,11624],[74.2,11707],[75.9,11792],[76.3,11874],[76.3,11957],[76.3,12041],[76.3,12123],[76.3,12207],[76.3,12290],[80.2,12374],[80.2,12457],[80.5,12542],[83.9,12624],[86.6,12707],[87,12790],[87,12873],[87.8,12958],[90.2,13039],[90.2,13123],[90.2,13203],[95.8,13290],[98.3,13374],[98.4,13457],[100,13540],[100,13623],[100,13707],[100,13790],[100,13873],[100,13957],[100,14039],[100,14123],[100,14206],[100,14289],[100,14372],[100,14456],[100,14539],[100,14623],[100,14706],[100,14789],[100,14873],[100,14956],[100,15039],[100,15122],[100,15206],[100,15290],[100,15368],[100,15456],[100,15538],[100,15622],[100,15705],[100,15790],[100,15872],[100,15955],[100,16039],[100,16122],[100,16205],[100,16289],[100,16372],[100,16451],[100,16534],[100,16622],[100,16706],[100,16784],[100,16872],[100,16956],[100,17034],[100,17122],[100,17206],[100,17288],[100,17372],[100,17455],[100,17538],[100,17622],[100,17705],[100,17788],[100,17871],[100,17950],[100,18038],[100,18122],[100,18205],[100,18288],[100,18372],[100,18454],[100,18538],[100,18621],[100,18705],[100,18788],[100,18870],[100,18954],[100,19038],[100,19121],[100,19205],[100,19288],[100,19370],[100,19455],[100,19538],[100,19620],[100,19704],[100,19787],[100,19871],[100,19955],[100,20037],[100,20121],[100,20204],[100,20286],[100,20371],[100,20454],[100,20537],[100,20617],[100,20704],[100,20787],[100,20871],[100,20954],[100,21037],[100,21121],[100,21204],[100,21287],[100,21371],[100,21454],[100,21533],[100,21619],[100,21704],[100,21783],[100,21866],[100,21953],[100,22036],[100,22116],[100,22204],[100,22288],[100,22370]]",1,0,312.8792,316.3653,81.87499607,1.8651,"[{""rating"":81.87499606981885,""responseTime"":1.865100000143002}]",space,2.9499,,316.3655,Definitely yes,100,316.3724,,,[],,0,3,3,3,1,audio/Narrative7Situation3.wav,audio/Narrative8Situation3.wav,audio/Narrative5Situation3.wav,audio/Narrative6Situation3.wav,8,4,3,5,,,,,,,,,,,,,,,,,,,,,,,,,,,,,,,,,,,,,,,
,,,,,,5d23460ad4c57900192b129c,2024-02-08_16h02.46.049,group3.1-3.2-social-tom,2023.2.2,Win32,60.24096386,65c5074098b851296ff0b7ed,65c5416080ce2dd1a455223d,,,,,,,,,,,,,,,,,,,,,,,,,,,,,316.3728,1,audio/Narrative8Situation4.wav,319.3764,,319.3765,333.5549,"[[999,19],[999,104],[999,188],[999,270],[999,355],[999,437],[999,520],[999,605],[999,687],[999,771],[999,854],[999,937],[999,1021],[999,1105],[999,1187],[999,1271],[999,1354],[999,1437],[999,1520],[999,1603],[999,1686],[999,1770],[999,1853],[999,1936],[999,2020],[999,2103],[999,2187],[999,2270],[999,2353],[999,2437],[999,2521],[999,2603],[999,2686],[999,2770],[82.5,2853],[82.5,2937],[82.5,3019],[82.5,3103],[82.5,3186],[82.5,3269],[82.5,3353],[82.5,3437],[82.5,3520],[82.5,3603],[82.5,3686],[82.5,3770],[82.5,3853],[82.5,3936],[82.5,4019],[82.5,4102],[82.5,4185],[82.5,4269],[82.5,4352],[82.5,4437],[82.5,4519],[82.5,4603],[82.5,4686],[82.5,4769],[82.5,4852],[82.5,4935],[82.5,5019],[82.5,5102],[82.5,5185],[82.5,5268],[82.5,5352],[82.5,5435],[82.5,5519],[82.5,5602],[82.5,5685],[82.5,5769],[82.5,5852],[82.5,5935],[82.5,6019],[82.5,6102],[82.5,6185],[82.5,6268],[82.5,6352],[82.5,6435],[82.5,6518],[82.5,6602],[82.5,6686],[82.5,6769],[82.5,6852],[82.5,6935],[82.5,7018],[82.5,7101],[82.5,7185],[82.5,7268],[82.5,7351],[82.5,7435],[82.5,7518],[82.5,7601],[82.5,7685],[82.5,7768],[82.5,7851],[82.5,7934],[82.5,8018],[82.5,8101],[82.5,8185],[82.5,8268],[82.5,8351],[83,8452],[83.4,8529],[83.4,8613],[83.9,8698],[84.2,8775],[84.7,8863],[85,8947],[85.2,9030],[85.6,9113],[86.6,9197],[87.2,9280],[87.2,9363],[87.2,9441],[87.5,9529],[87.7,9613],[88,9696],[88.6,9781],[89.4,9863],[89.5,9946],[89.7,10029],[90.8,10112],[91.4,10197],[91.6,10280],[93.1,10363],[93.1,10445],[93.1,10529],[93.1,10612],[93.1,10696],[93.1,10779],[93.1,10862],[93.1,10946],[93.1,11024],[93.1,11112],[93.1,11190],[93.1,11278],[93.1,11362],[93.1,11444],[93.1,11528],[93.1,11612],[93.1,11690],[93.1,11778],[93.1,11862],[93.1,11940],[93.1,12029],[93.1,12106],[93.1,12195],[93.1,12279],[93.1,12357],[93.1,12445],[93.1,12524],[93.1,12611],[93.1,12695],[93.1,12778],[93.1,12861],[93.1,12947],[93.1,13027],[93.1,13111],[93.1,13195],[93.1,13274],[93.1,13361],[93.1,13445],[93.1,13528],[93.1,13611],[93.1,13695],[93.1,13778],[93.1,13861],[93.1,13939],[93.1,14027],[93.1,14111]]",1,0,333.5551,336.2709,89.21874585,1.3222,"[{""rating"":89.21874585095804,""responseTime"":1.322200000047701}]",space,2.1836,,336.271,Definitely yes,100,336.2725,,,[],,0,4,4,4,1,audio/Narrative7Situation4.wav,audio/Narrative8Situation4.wav,audio/Narrative5Situation4.wav,audio/Narrative6Situation4.wav,3,3,1,2,,,,,,,,,,,,,,,,,,,,,,,,,,,,,,,,,,,,,,,
,,,,,,5d23460ad4c57900192b129c,2024-02-08_16h02.46.049,group3.1-3.2-social-tom,2023.2.2,Win32,60.24096386,65c5074098b851296ff0b7ed,65c5416080ce2dd1a455223d,,,,,,,,,,,,,,,,,,,,,,,,,,,,,336.2728,1,audio/Narrative8Situation5.wav,338.2862,,338.2863,346.522,"[[70,76],[67,822],[67.3,905],[67.5,988],[67.7,1071],[67.7,1154],[68,1238],[68.1,1321],[68.1,1404],[68.4,1487],[68.4,1570],[68.6,1653],[71.3,1737],[74.2,1820],[77.5,1904],[86.1,1988],[87.5,2070],[90.3,2154],[90.3,2237],[90.3,2320],[90.3,2403],[90.3,2487],[90.3,2571],[90.3,2654],[90.3,2737],[90.3,2820],[90.3,2904],[90.3,2987],[91.1,3071],[92.5,3155],[95.3,3238],[98.8,3320],[100,3404],[100,3487],[100,3570],[100,3653],[100,3737],[100,3820],[100,3904],[100,3986],[100,4070],[100,4153],[100,4236],[100,4321],[100,4403],[100,4486],[100,4569],[100,4653],[100,4736],[100,4819],[100,4903],[100,4986],[100,5069],[100,5153],[100,5236],[100,5319],[100,5402],[100,5486],[100,5569],[100,5653],[100,5736],[100,5819],[100,5902],[100,5986],[100,6069],[100,6152],[100,6236],[100,6320],[100,6402],[100,6485],[100,6569],[100,6652],[100,6735],[100,6819],[100,6902],[100,6985],[100,7070],[100,7153],[100,7235],[100,7319],[100,7402],[100,7485],[100,7568],[100,7652],[100,7735],[100,7818],[100,7902],[100,7985],[100,8068],[100,8151],[100,8235]]",1,0,346.5222,348.8161,99.21874555,1.1413,"[{""rating"":99.21874555293485,""responseTime"":1.1412999999523095}]",space,1.7545,,348.8163,Definitely yes,100,348.8196,,,[],,0,5,5,5,1,audio/Narrative7Situation5.wav,audio/Narrative8Situation5.wav,audio/Narrative5Situation5.wav,audio/Narrative6Situation5.wav,5,2,5,2,,,,,,,,,,,,,,,,,,,,,,,,,,,,,,,,,,,,,,,
,,,,,,5d23460ad4c57900192b129c,2024-02-08_16h02.46.049,group3.1-3.2-social-tom,2023.2.2,Win32,60.24096386,65c5074098b851296ff0b7ed,65c5416080ce2dd1a455223d,,,,,,,,,,,,,,,,,,,,,,,,,,,,,348.8201,1,audio/Narrative8Situation6.wav,350.8259,,350.826,357.2967,"[[999,0],[999,93],[999,188],[999,264],[999,355],[80,770],[80,855],[80,933],[81.4,1022],[89.4,1105],[89.4,1188],[89.4,1266],[89.4,1354],[89.4,1438],[89.4,1519],[89.4,1600],[89.4,1686],[89.1,1771],[89.1,1855],[89.2,1936],[89.2,2021],[89.2,2105],[89.2,2187],[89.2,2271],[89.2,2354],[89.2,2437],[89.2,2519],[89.7,2605],[97,2688],[97.8,2771],[97.8,2853],[97.8,2937],[97.8,3021],[98.1,3104],[99.4,3188],[100,3271],[100,3354],[100,3438],[100,3520],[100,3604],[100,3687],[100,3770],[100,3853],[100,3937],[100,4015],[100,4103],[100,4186],[100,4268],[100,4353],[100,4437],[100,4520],[100,4596],[100,4687],[100,4770],[100,4853],[100,4936],[100,5020],[100,5103],[100,5186],[100,5268],[100,5353],[100,5436],[100,5518],[100,5603],[100,5686],[100,5764],[100,5853],[100,5937],[100,6020],[100,6103],[100,6187],[100,6269],[100,6353],[100,6430]]",1,0,357.2969,360.3506,100,2.8636,"[{""rating"":98.74999556690469,""responseTime"":1.7518000001907126},{""rating"":100,""responseTime"":2.8636000001430375}]",space,2.5206,,360.3508,Not at all,0,360.3559,,,[],,0,6,6,6,1,audio/Narrative7Situation6.wav,audio/Narrative8Situation6.wav,audio/Narrative5Situation6.wav,audio/Narrative6Situation6.wav,3,2,3,2,,,,,,,,,,,,,,,,,,,,,,,,,,,,,,,,,,,,,,,
,,,,,,5d23460ad4c57900192b129c,2024-02-08_16h02.46.049,group3.1-3.2-social-tom,2023.2.2,Win32,60.24096386,65c5074098b851296ff0b7ed,65c5416080ce2dd1a455223d,,,,,,,,,,,,,,,,,,,,,,,,,,,,,360.3563,1,audio/Narrative8Situation7.wav,363.3661,,363.3662,375.4786,"[[999,19],[999,100],[999,182],[999,266],[999,349],[999,432],[999,516],[999,599],[999,683],[999,767],[999,850],[999,933],[999,1016],[999,1100],[999,1182],[999,1265],[999,1349],[999,1433],[999,1516],[999,1600],[999,1683],[999,1766],[999,1849],[51.7,1932],[50,2015],[45.3,2433],[46.1,2516],[46.3,2599],[47,2682],[47,2765],[58.1,2849],[69.4,2932],[69.7,3015],[69.7,3098],[69.7,3182],[69.7,3265],[69.2,3349],[67.8,3432],[60.6,3516],[60.6,3598],[60.6,3681],[60.2,3766],[57.8,3849],[57.7,3932],[57.7,4014],[57.7,4098],[57.7,4182],[61.6,4266],[61.7,4348],[61.7,4431],[61.7,4515],[61.7,4598],[61.7,4681],[61.7,4765],[61.7,4848],[61.7,4931],[61.7,5015],[61.7,5097],[61.7,5181],[61.7,5264],[61.7,5347],[61.7,5432],[61.7,5514],[61.7,5598],[61.7,5681],[61.7,5764],[61.7,5848],[61.7,5931],[61.7,6014],[61.7,6098],[61.7,6180],[61.7,6263],[61.7,6347],[61.7,6430],[61.7,6514],[62.5,6598],[65.5,6680],[65.9,6764],[68.3,6848],[68.3,6931],[68.9,7014],[68.9,7097],[68.9,7180],[68.9,7264],[68.9,7347],[68.9,7430],[68.9,7513],[68.9,7597],[68.9,7680],[68.9,7763],[68.9,7846],[68.9,7930],[68.9,8013],[68.9,8097],[68.9,8180],[68.9,8264],[68.9,8347],[68.9,8430],[68.9,8513],[68.9,8597],[68,8681],[67,8763],[66.7,8847],[66.3,8930],[65.9,9013],[65.8,9096],[65.8,9180],[65.8,9262],[65.8,9346],[65.8,9429],[65.3,9513],[64.2,9596],[64.2,9679],[64.1,9763],[64.1,9846],[64.1,9930],[64.1,10012],[64.1,10096],[64.1,10180],[64.1,10262],[64.1,10346],[64.1,10429],[64.1,10512],[63.6,10596],[62,10680],[62,10762],[60.9,10847],[60.6,10930],[60.6,11013],[60.6,11095],[60.6,11179],[60.6,11263],[60.6,11345],[60.6,11429],[60.6,11512],[60.6,11595],[60.6,11679],[60.6,11762],[60.6,11846],[60.6,11929],[60.6,12012],[60.6,12095]]",1,0,375.4787,377.8112,56.71874682,1.3965,"[{""rating"":56.71874681953351,""responseTime"":1.3965000000000032}]",space,1.7998,,377.8113,Definitely yes,100,377.8145,,,[],,0,7,7,7,1,audio/Narrative7Situation7.wav,audio/Narrative8Situation7.wav,audio/Narrative5Situation7.wav,audio/Narrative6Situation7.wav,5,3,4,5,,,,,,,,,,,,,,,,,,,,,,,,,,,,,,,,,,,,,,,
,,,,,,5d23460ad4c57900192b129c,2024-02-08_16h02.46.049,group3.1-3.2-social-tom,2023.2.2,Win32,60.24096386,65c5074098b851296ff0b7ed,65c5416080ce2dd1a455223d,,,,,,,,,,,,,,,,,,,,,,,,,,,,,377.8149,1,audio/Narrative8Situation8.wav,380.8283,,380.8284,393.7063,"[[999,0],[999,81],[999,165],[999,248],[999,331],[999,415],[999,498],[999,581],[999,665],[999,749],[999,832],[999,915],[999,998],[999,1081],[999,1164],[999,1248],[999,1331],[999,1414],[999,1498],[999,1581],[999,1665],[999,1747],[999,1831],[999,1914],[999,1997],[999,2081],[999,2164],[999,2248],[999,2330],[999,2414],[999,2497],[999,2581],[999,2664],[999,2748],[999,2831],[999,2915],[999,2997],[999,3080],[999,3166],[65.5,3255],[65,3330],[64.8,3413],[64.8,3497],[64.8,3580],[64.8,3664],[64.8,3747],[64.8,3830],[64.5,3914],[55.6,3997],[49.5,4082],[41.9,4163],[41.4,4247],[36.9,4330],[34.7,4413],[34.7,4497],[34.7,4580],[34.7,4663],[34.7,4747],[34.7,4830],[34.7,4913],[34.7,4997],[34.7,5080],[34.7,5163],[34.7,5246],[34.7,5330],[34.7,5413],[34.7,5497],[34.7,5580],[34.7,5663],[34.7,5746],[34.7,5829],[34.7,5913],[34.7,5997],[34.7,6079],[34.7,6162],[34.7,6246],[34.7,6329],[34.7,6413],[34.7,6496],[34.7,6579],[34.7,6662],[62.2,6757],[76.4,6830],[87.5,6912],[87.5,6996],[87.5,7079],[87.5,7162],[87.5,7246],[87.8,7330],[83.1,7412],[83.1,7496],[83.1,7579],[83.1,7662],[83.1,7746],[83.1,7829],[83.1,7912],[83.1,7995],[83.1,8079],[83.1,8162],[83.1,8245],[83.1,8329],[83.1,8412],[82.7,8496],[81.7,8580],[81.6,8663],[81.1,8745],[81.1,8829],[81.1,8912],[81.1,8995],[81.1,9078],[81.1,9162],[81.1,9245],[81.1,9328],[81.1,9412],[81.1,9495],[81.1,9578],[81.1,9662],[81.1,9745],[81.1,9828],[81.1,9912],[80.9,9995],[80.9,10078],[80.9,10161],[80.9,10245],[80.9,10328],[80.9,10411],[80.9,10495],[80.9,10578],[80.6,10662],[78.4,10745],[78.1,10829],[75.3,10912],[74.8,10995],[74.8,11078],[74.8,11161],[74.8,11245],[74.8,11328],[74.8,11411],[74.8,11494],[74.8,11577],[74.8,11661],[74.8,11745],[74.8,11827],[74.8,11911],[74.8,11994],[74.8,12077],[74.8,12161],[74.8,12244],[74.8,12327],[74.8,12411],[74.8,12494],[74.8,12577],[74.8,12661],[74.8,12745],[74.8,12827]]",1,0,393.7065,395.8511,69.21874645,1.0767,"[{""rating"":69.21874644700448,""responseTime"":1.0767000000477083}]",space,1.6007,,395.8512,Definitely yes,100,395.8551,,,[],,0,8,8,8,1,audio/Narrative7Situation8.wav,audio/Narrative8Situation8.wav,audio/Narrative5Situation8.wav,audio/Narrative6Situation8.wav,2,3,3,5,,,,,,,,,,,,,,,,,,,,,,,,,,,,,,,,,,,,,,,
,,,,,,5d23460ad4c57900192b129c,2024-02-08_16h02.46.049,group3.1-3.2-social-tom,2023.2.2,Win32,60.24096386,65c5074098b851296ff0b7ed,65c5416080ce2dd1a455223d,,,,,,,,,,,,,,,,,,,,,,,,,,,,,395.8556,1,audio/Narrative8Situation9.wav,398.8597,,398.8599,410.1783,"[[999,1],[999,105],[999,188],[999,272],[999,355],[999,438],[999,520],[999,599],[999,688],[999,766],[999,855],[999,938],[999,1019],[999,1105],[999,1188],[999,1271],[999,1355],[999,1433],[999,1515],[999,1604],[999,1688],[999,1771],[999,1855],[999,1938],[999,2016],[999,2105],[999,2188],[999,2272],[65.3,2355],[64.4,2438],[60.8,2522],[60.6,2604],[60.6,2687],[60.6,2770],[60.6,2855],[60.6,2937],[60.6,3020],[60.6,3104],[60.6,3187],[60.6,3269],[60.6,3354],[60.6,3437],[60.6,3521],[60.6,3599],[62.2,3688],[63.9,3772],[65,3850],[65,3937],[66.9,4022],[69.5,4104],[72.5,4188],[73.6,4271],[74.7,4354],[74.7,4437],[74.7,4515],[74.7,4604],[74.7,4685],[74.7,4770],[74.7,4849],[74.7,4931],[74.7,5020],[74.7,5104],[74.7,5186],[74.7,5269],[74.7,5353],[74.7,5436],[74.7,5519],[74.7,5603],[74.7,5686],[75.3,5770],[85,5854],[85,5936],[85,6016],[85,6103],[85,6186],[85,6270],[85,6351],[85,6436],[85,6520],[85,6601],[85,6686],[85,6770],[85,6852],[84.5,6937],[82.5,7020],[82.5,7102],[82.3,7184],[82.3,7269],[82.3,7352],[82.3,7436],[82.3,7519],[82.3,7602],[82.3,7686],[82.2,7769],[82.2,7852],[82.2,7930],[81.7,8020],[81.6,8104],[80.6,8186],[80.6,8269],[80.6,8353],[80.6,8435],[80.6,8519],[80.6,8603],[80.6,8680],[80.6,8769],[80.6,8851],[80.6,8930],[80.6,9018],[80.6,9102],[79.8,9186],[77.8,9268],[77.3,9352],[76.4,9435],[76.4,9519],[76.4,9596],[76.4,9685],[76.4,9769],[76.4,9851],[76.4,9935],[76.7,10019],[76.7,10101],[76.9,10184],[76.9,10268],[76.9,10346],[76.9,10435],[76.9,10511],[76.9,10601],[76.9,10682],[76.9,10768],[76.9,10851],[76.9,10935],[76.9,11013],[76.9,11101],[76.9,11185],[76.9,11268]]",1,0,410.1786,411.9836,77.4999962,0.8857,"[{""rating"":77.49999620020401,""responseTime"":0.8857000000476773}]",space,1.2684,,411.9836,Partially,50,411.9887,,,[],,0,9,9,9,1,audio/Narrative7Situation9.wav,audio/Narrative8Situation9.wav,audio/Narrative5Situation9.wav,audio/Narrative6Situation9.wav,2,3,3,4,,,,,,,,,,,,,,,,,,,,,,,,,,,,,,,,,,,,,,,
,,,,,,5d23460ad4c57900192b129c,2024-02-08_16h02.46.049,group3.1-3.2-social-tom,2023.2.2,Win32,60.24096386,65c5074098b851296ff0b7ed,65c5416080ce2dd1a455223d,,,,,,,,,,,,,,,,,,,,,,,,,,,,,411.989,1,audio/Narrative7Situation1.wav,414.01,,414.01,469.909,"[[75.6,2255],[68.4,2338],[67.5,2422],[67.3,2504],[67.3,2588],[67.3,2671],[67.3,2754],[67.3,2838],[67.3,2921],[68.8,3004],[68.9,3088],[69.5,3171],[69.5,3254],[69.5,3337],[69.5,3421],[69.5,3504],[69.5,3588],[69.5,3670],[69.5,3754],[69.5,3837],[69.5,3920],[69.5,4003],[69.5,4087],[69.5,4170],[69.5,4254],[69.5,4337],[69.5,4421],[67.5,4504],[65.8,4587],[65.8,4670],[65.5,4754],[65.5,4837],[65.5,4920],[65.5,5004],[65.5,5087],[65.5,5170],[65.5,5254],[65.5,5337],[65.5,5420],[65.5,5504],[65.5,5587],[65.5,5670],[65.6,5754],[65.8,5837],[66.4,5920],[66.4,6004],[67,6088],[68.8,6170],[69.2,6253],[69.2,6336],[69.2,6420],[69.2,6503],[69.1,6587],[68.3,6669],[67.5,6753],[67.3,6836],[67.2,6919],[67.2,7003],[67.2,7086],[67.2,7170],[67.2,7253],[67.2,7336],[67.2,7420],[67.2,7503],[67.2,7586],[67.2,7669],[67.2,7753],[67.2,7836],[67,7920],[67,8002],[67,8086],[67,8169],[67,8253],[66.6,8335],[66.4,8419],[66.4,8503],[66.3,8585],[66.3,8668],[66.3,8752],[66.3,8836],[66.3,8919],[66.3,9002],[66.3,9086],[66.3,9169],[66.7,9253],[69.2,9335],[69.7,9419],[71.3,9503],[71.4,9585],[71.4,9668],[71.4,9752],[72.3,9836],[75.5,9920],[75.6,10002],[75.6,10085],[75.9,10169],[75.9,10252],[75.9,10335],[75.9,10419],[75.9,10502],[75.9,10585],[75.9,10668],[75.9,10752],[75.9,10836],[75.9,10918],[75.9,11002],[75.9,11085],[75.9,11168],[75.9,11252],[75.9,11335],[75.9,11418],[75.9,11501],[75.9,11585],[75.9,11668],[75.9,11751],[75.9,11835],[75.9,11919],[75.9,12001],[75.9,12085],[75.9,12168],[75.9,12251],[75.9,12335],[75.9,12417],[75.9,12501],[75.9,12584],[75.9,12669],[75.9,12751],[75.9,12834],[75.9,12918],[75.9,13001],[75.9,13085],[75.9,13167],[75.9,13251],[75.9,13334],[75.9,13418],[75.9,13501],[75.9,13584],[75.9,13667],[75.9,13751],[76.7,13850],[77.8,13929],[78.1,14007],[78.8,14096],[79.7,14178],[81.7,14262],[82.2,14346],[82.3,14424],[83.4,14511],[83.4,14590],[83.4,14678],[83.4,14761],[83.4,14840],[83.4,14923],[83.4,15012],[83.4,15090],[83.4,15178],[83.4,15262],[83.4,15339],[83.4,15428],[83.4,15512],[83.4,15590],[83.4,15678],[83.4,15761],[83.4,15844],[83.4,15928],[83.4,16009],[83.4,16094],[83.4,16178],[83.4,16259],[83.4,16344],[83.4,16428],[83.4,16511],[83.4,16594],[83.4,16676],[83.4,16759],[83.4,16845],[83.4,16922],[83.4,17011],[83.4,17094],[83.4,17177],[83.4,17261],[83.4,17344],[83.4,17427],[83.4,17511],[83.4,17594],[83.4,17672],[83.4,17762],[83.4,17839],[83.4,17927],[83.4,18010],[83.4,18093],[83.4,18177],[83.4,18260],[83.4,18344],[83.4,18420],[83.4,18510],[83.4,18593],[83.4,18677],[83.4,18760],[83.4,18844],[83.4,18927],[83.9,19024],[84.1,19110],[84.1,19187],[84.1,19277],[84.1,19360],[84.1,19444],[84.1,19526],[84.1,19610],[84.1,19693],[84.1,19776],[84.1,19859],[84.1,19943],[84.1,20026],[84.1,20110],[84.1,20188],[84.1,20276],[84.1,20360],[84.1,20441],[84.1,20526],[84.1,20609],[84.1,20693],[84.1,20777],[84.1,20854],[84.1,20943],[84.1,21025],[84.1,21109],[84.1,21192],[84.1,21276],[84.1,21359],[84.1,21443],[84.1,21521],[84.1,21609],[84.1,21693],[84.1,21771],[84.1,21859],[84.1,21943],[84.1,22021],[84.1,22109],[84.1,22193],[84.1,22270],[84.1,22359],[84.1,22443],[84.1,22525],[84.1,22609],[84.1,22691],[84.1,22775],[84.1,22859],[84.1,22942],[84.1,23026],[84.1,23108],[84.1,23192],[84.1,23276],[84.1,23358],[84.1,23442],[84.1,23524],[84.1,23608],[84.1,23692],[84.1,23776],[84.1,23858],[84.1,23936],[84.1,24025],[84.1,24108],[84.1,24192],[84.1,24270],[84.1,24358],[84.1,24437],[84.1,24520],[84.1,24608],[83.3,24709],[83.3,24792],[83.3,24875],[83,24959],[82.8,25042],[82.7,25125],[82.7,25207],[82.7,25287],[82.2,25375],[81.7,25460],[81.6,25542],[81.6,25625],[81.6,25703],[81.6,25791],[80.9,25876],[80,25952],[80,26041],[79.7,26121],[79.7,26203],[78,26293],[76.7,26374],[76.7,26457],[76.7,26536],[76.7,26624],[76.6,26707],[76.6,26791],[76.6,26872],[76.6,26958],[76.6,27041],[76.6,27124],[76.6,27208],[76.6,27286],[76.6,27374],[76.6,27458],[76.6,27535],[76.6,27625],[76.6,27706],[76.6,27785],[76.6,27874],[76.6,27957],[76.6,28040],[76.6,28124],[76.6,28207],[76.6,28290],[76.6,28374],[76.6,28452],[77,28541],[78.9,28625],[78.9,28702],[78.9,28790],[78.9,28868],[78.9,28957],[78.9,29040],[78.9,29124],[78.9,29206],[79.5,29290],[86.4,29374],[86.7,29456],[86.7,29540],[87.2,29624],[87.2,29706],[87.2,29790],[87.2,29873],[87.2,29957],[87.2,30040],[87.8,30124],[91.1,30207],[94.5,30290],[94.7,30373],[94.7,30451],[94.7,30539],[94.7,30622],[94.7,30701],[94.7,30789],[94.7,30873],[94.7,30955],[94.7,31038],[94.7,31123],[94.7,31206],[94.7,31287],[94.7,31373],[94.7,31451],[94.7,31539],[94.7,31623],[94.7,31706],[94.1,31790],[93.6,31873],[92.5,31956],[91.7,32039],[91.4,32124],[87.8,32206],[87.8,32290],[87.8,32370],[87.8,32455],[87.8,32539],[87.8,32622],[87.8,32705],[87.8,32789],[87.8,32867],[87.8,32955],[87.8,33039],[87.8,33122],[87.8,33205],[88.6,33290],[89.1,33367],[89.1,33451],[89.1,33537],[89.1,33622],[89.1,33701],[89.1,33786],[89.1,33872],[89.1,33951],[89.1,34038],[89.1,34122],[89.1,34205],[89.1,34284],[89.1,34371],[89.1,34449],[89.1,34538],[89.1,34621],[89.1,34705],[89.1,34784],[89.1,34866],[89.1,34954],[89.1,35038],[89.1,35120],[89.1,35205],[89.1,35283],[89.1,35371],[89.1,35453],[89.1,35538],[89.1,35621],[89.1,35703],[89.1,35788],[89.1,35871],[89.1,35954],[89.1,36038],[89.4,36137],[89.4,36221],[89.4,36304],[89.4,36387],[89.4,36465],[89.4,36554],[89.4,36637],[89.4,36716],[89.4,36804],[89.7,36889],[92.3,36972],[93.6,37054],[93.6,37136],[93.9,37221],[95,37305],[95.3,37382],[95.8,37465],[96.4,37555],[96.9,37633],[96.9,37720],[96.9,37804],[96.9,37887],[96.9,37970],[98.6,38055],[100,38133],[100,38220],[100,38304],[100,38387],[100,38470],[100,38552],[100,38637],[100,38716],[100,38803],[100,38887],[100,38971],[100,39053],[100,39136],[100,39215],[100,39303],[100,39387],[100,39470],[100,39553],[100,39637],[100,39720],[100,39803],[100,39887],[100,39970],[100,40053],[100,40137],[100,40218],[100,40303],[100,40381],[100,40469],[100,40553],[100,40631],[100,40714],[100,40803],[100,40884],[100,40970],[100,41053],[100,41131],[100,41219],[100,41303],[100,41386],[100,41469],[100,41553],[100,41636],[100,41719],[100,41803],[100,41886],[100,41969],[100,42047],[100,42136],[100,42220],[100,42302],[100,42385],[100,42463],[100,42547],[100,42635],[100,42718],[100,42802],[100,42885],[100,42967],[100,43052],[100,43129],[100,43219],[100,43303],[100,43386],[100,43463],[100,43552],[100,43635],[100,43713],[100,43802],[100,43880],[100,43966],[100,44052],[100,44135],[100,44213],[100,44302],[100,44383],[100,44468],[100,44545],[100,44634],[100,44718],[100,44802],[100,44879],[100,44968],[100,45046],[100,45134],[100,45218],[100,45296],[100,45384],[100,45468],[100,45551],[100,45635],[100,45718],[100,45801],[100,45884],[100,45968],[100,46046],[100,46135],[100,46212],[100,46301],[100,46384],[100,46466],[100,46551],[100,46634],[100,46712],[100,46800],[100,46884],[100,46967],[100,47050],[100,47134],[100,47217],[100,47300],[100,47379],[100,47467],[100,47551],[100,47628],[100,47716],[100,47800],[100,47884],[100,47967],[100,48050],[100,48133],[100,48217],[100,48295],[100,48384],[100,48464],[100,48550],[100,48633],[100,48717],[100,48794],[100,48884],[100,48962],[100,49050],[100,49134],[100,49212],[100,49300],[100,49384],[100,49466],[100,49550],[100,49634],[100,49716],[100,49800],[100,49883],[100,49966],[100,50050],[100,50133],[100,50216],[100,50300],[100,50377],[100,50466],[100,50550],[100,50627],[100,50716],[100,50805],[100,50876],[100,50962],[100,51049],[100,51133],[100,51217],[100,51299],[100,51382],[100,51466],[100,51549],[100,51632],[100,51711],[100,51799],[100,51882],[100,51966],[100,52049],[100,52131],[100,52215],[100,52299],[100,52376],[100,52465],[100,52549],[100,52631],[100,52714],[100,52799],[100,52882],[100,52965],[100,53049],[100,53127],[100,53215],[100,53299],[100,53377],[100,53465],[100,53547],[100,53626],[100,53715],[100,53797],[100,53882],[100,53960],[100,54043],[100,54131],[100,54215],[100,54298],[100,54381],[100,54466],[100,54548],[93.6,54648],[93.1,54733],[88.8,54816],[85.8,54899],[85.5,54982],[85.5,55065],[85.5,55148],[85.5,55232],[85.5,55309],[85.5,55398],[85.5,55480],[85.5,55564],[85.5,55648],[85.5,55732],[85.5,55814],[85.5,55898]]",1,0,469.9095,472.9961,89.99999583,2.4028,"[{""rating"":89.99999582767498,""responseTime"":2.4027999999523217}]",space,2.5505,,472.9962,Definitely yes,100,473.0016,,,[],,0,10,10,10,1,audio/Narrative8Situation1.wav,audio/Narrative7Situation1.wav,audio/Narrative6Situation1.wav,audio/Narrative5Situation1.wav,5,2,2,5,,,,,,,,,,,,,,,,,,,,,,,,,,,,,,,,,,,,,,,
,,,,,,5d23460ad4c57900192b129c,2024-02-08_16h02.46.049,group3.1-3.2-social-tom,2023.2.2,Win32,60.24096386,65c5074098b851296ff0b7ed,65c5416080ce2dd1a455223d,,,,,,,,,,,,,,,,,,,,,,,,,,,,,473.0021,1,audio/Narrative7Situation2.wav,476.0228,,476.023,483.4933,"[[999,0],[999,88],[999,171],[999,254],[999,337],[999,421],[999,505],[999,587],[999,671],[999,755],[999,838],[999,922],[999,1004],[999,1088],[999,1170],[999,1255],[999,1338],[84.8,1422],[83,1505],[83,1587],[83,1670],[83,1754],[83,1837],[83,1920],[67.2,2005],[66.9,2087],[66.9,2171],[66.9,2253],[66.9,2338],[65.5,2421],[62.5,2503],[62.3,2588],[59.8,2671],[59.8,2753],[59.8,2837],[59.8,2920],[59.8,3004],[59.8,3086],[59.8,3170],[66.3,3254],[71.7,3337],[71.7,3420],[71.9,3504],[71.9,3586],[71.9,3670],[71.9,3754],[72.2,3837],[72.2,3920],[72.2,4003],[73,4087],[80.5,4170],[80.5,4253],[80.5,4336],[80.5,4420],[80.5,4503],[80.5,4586],[80.5,4669],[80.5,4753],[88.8,4837],[100,4920],[100,5003],[100,5087],[100,5170],[100,5253],[100,5336],[100,5419],[100,5503],[100,5586],[100,5670],[100,5752],[100,5836],[100,5921],[100,6003],[100,6086],[100,6169],[100,6252],[100,6336],[100,6419],[100,6502],[100,6585],[100,6669],[100,6752],[100,6835],[100,6918],[100,7002],[100,7085],[100,7169],[100,7252],[100,7336],[100,7418]]",1,0,483.4935,485.1875,99.99999553,0.8597,"[{""rating"":99.99999552965178,""responseTime"":0.8597000000476669}]",space,1.1477,,485.1877,Partially,50,498.2159,49.37499704,8.2947,"[{""rating"":49.3749970383943,""responseTime"":8.29470000004767}]",space,0,11,11,11,1,audio/Narrative8Situation2.wav,audio/Narrative7Situation2.wav,audio/Narrative6Situation2.wav,audio/Narrative5Situation2.wav,3,3,3,3,,,12.479,,,,,,,,,,,,,,,,,,,,,,,,,,,,,,,,,,,,
,,,,,,5d23460ad4c57900192b129c,2024-02-08_16h02.46.049,group3.1-3.2-social-tom,2023.2.2,Win32,60.24096386,65c5074098b851296ff0b7ed,65c5416080ce2dd1a455223d,,,,,,,,,,,,,,,,,,,,,,,,,,,,,498.2347,1,audio/Narrative7Situation3.wav,506.2464,,506.2464,515.4981,"[[999,20],[999,121],[999,205],[999,288],[999,371],[999,454],[999,539],[999,621],[999,704],[999,789],[999,872],[999,955],[999,1038],[999,1121],[999,1204],[999,1287],[999,1371],[999,1454],[999,1538],[999,1622],[999,1705],[72,1788],[72,1871],[71.7,1955],[71.7,2037],[71.7,2121],[71.6,2204],[71.6,2287],[71.4,2370],[71.4,2454],[64.8,2538],[60.2,2620],[60.2,2704],[59.1,2787],[42,2870],[39.8,2953],[39.8,3038],[39.8,3120],[39.8,3203],[39.8,3287],[39.8,3370],[39.8,3453],[39.8,3537],[39.8,3621],[39.8,3703],[39.8,3787],[39.8,3869],[39.8,3953],[39.8,4036],[39.7,4120],[39.7,4202],[39.7,4286],[39.7,4370],[39.7,4453],[39.2,4537],[36.9,4620],[36.1,4703],[35.9,4786],[35.9,4870],[35.9,4954],[35.9,5036],[35.9,5119],[35.9,5203],[35.9,5286],[35.9,5370],[36.3,5453],[36.6,5537],[47.2,5620],[50.5,5703],[53.6,5787],[57.7,5870],[65.3,5954],[70.8,6037],[73,6119],[74.5,6203],[74.5,6286],[74.7,6370],[74.7,6452],[74.7,6536],[74.7,6619],[74.7,6702],[74.7,6787],[74.7,6869],[74.7,6952],[73.3,7036],[70.8,7119],[70.6,7202],[69.2,7286],[66.9,7369],[65.6,7453],[62.2,7536],[62.2,7619],[62.2,7702],[62.2,7786],[62.2,7869],[62.2,7951],[62.2,8035],[62.2,8118],[62,8203],[62,8285],[62,8369],[62,8452],[62,8535],[62,8618],[62,8702],[62,8785],[62,8868],[62,8951],[62,9035],[62,9118],[62,9201]]",1,0,515.4984,518.2273,60.6249967,0.7948,"[{""rating"":60.624996703118185,""responseTime"":0.7947999999523745}]",space,2.1832,,518.2273,Definitely yes,100,518.2327,,,[],,0,12,12,12,1,audio/Narrative8Situation3.wav,audio/Narrative7Situation3.wav,audio/Narrative6Situation3.wav,audio/Narrative5Situation3.wav,4,8,5,3,,,,,,,,,,,,,,,,,,,,,,,,,,,,,,,,,,,,,,,
,,,,,,5d23460ad4c57900192b129c,2024-02-08_16h02.46.049,group3.1-3.2-social-tom,2023.2.2,Win32,60.24096386,65c5074098b851296ff0b7ed,65c5416080ce2dd1a455223d,,,,,,,,,,,,,,,,,,,,,,,,,,,,,518.2332,1,audio/Narrative7Situation4.wav,521.2367,,521.2368,532.9589,"[[999,19],[999,109],[999,192],[999,276],[999,359],[999,442],[999,526],[999,608],[999,692],[999,776],[999,859],[999,942],[999,1027],[999,1108],[999,1192],[999,1275],[999,1359],[999,1442],[999,1526],[999,1609],[59.5,1692],[59.5,1775],[59.5,1859],[59.5,2193],[58.3,2276],[57.2,2360],[50,2442],[49.7,2525],[48.9,2609],[41.3,2692],[40.3,2776],[33.6,2859],[32.7,2942],[32.5,3026],[30.3,3108],[30.2,3191],[25.9,3276],[23.4,3359],[23.3,3441],[23,3525],[20.8,3608],[14.5,3691],[14.5,3775],[14.5,3858],[14.5,3941],[14.5,4025],[14.5,4108],[13.8,4192],[13.1,4275],[10,4358],[10,4440],[10,4524],[9.8,4607],[9.8,4690],[9.8,4774],[9.8,4857],[9.8,4940],[9.8,5025],[9.8,5108],[9.8,5190],[9.8,5273],[9.8,5357],[9.7,5441],[9.7,5524],[9.4,5607],[9.4,5691],[0.6,5773],[0.6,5857],[0.6,5940],[0.6,6024],[0.6,6107],[0.6,6190],[0.6,6274],[0.6,6357],[0.6,6440]]",1,0,532.9593,535.6211,0,1.8252,"[{""rating"":0,""responseTime"":1.8252000000477437}]",space,2.117,,535.6213,Not at all,0,535.6266,,,[],,0,13,13,13,1,audio/Narrative8Situation4.wav,audio/Narrative7Situation4.wav,audio/Narrative6Situation4.wav,audio/Narrative5Situation4.wav,3,3,2,1,,,,,,,,,,,,,,,,,,,,,,,,,,,,,,,,,,,,,,,
,,,,,,5d23460ad4c57900192b129c,2024-02-08_16h02.46.049,group3.1-3.2-social-tom,2023.2.2,Win32,60.24096386,65c5074098b851296ff0b7ed,65c5416080ce2dd1a455223d,,,,,,,,,,,,,,,,,,,,,,,,,,,,,535.6271,1,audio/Narrative7Situation5.wav,540.6353,,540.6353,549.1206,"[[0.5,188],[0.5,271],[0.8,355],[0.8,437],[0.8,521],[0.8,604],[0.8,687],[0.8,770],[0.8,854],[0.8,937],[2.3,1021],[10.2,1105],[27.2,1188],[44.8,1271],[50.5,1354],[50.3,1437],[50,1520],[50,1604],[50.5,1688],[50.9,1769],[50.9,1853],[50.9,1938],[50.9,2020],[50.9,2104],[50.9,2187],[50.9,2269],[50.9,2353],[51.1,2436],[51.1,2520],[51.1,2603],[49.8,2687],[36.7,2772],[30.8,2853],[28.8,2937],[20.9,3020],[20.6,3103],[20.6,3186],[20.6,3270],[20.6,3353],[20.6,3437],[20.3,3521],[20.3,3603],[14.7,3687],[14.7,3770],[14.4,3852],[14.2,3937],[13.3,4020],[13.3,4103],[13.3,4186],[13.3,4269],[13.3,4352],[13.3,4436],[13.3,4520],[13.3,4602],[13.3,4685],[13.3,4769],[13.3,4852],[13.3,4936],[13.3,5019],[13.3,5103],[13.3,5186],[13.3,5269],[13.3,5352],[13.3,5436],[13.3,5519],[13.3,5602],[13.3,5686],[13.3,5769],[13.3,5852],[13.3,5935],[13.3,6019],[13.3,6102],[13.3,6186],[13.3,6269],[13.3,6352],[13.3,6434],[13.3,6519],[13.3,6602],[13.3,6686],[13.3,6768],[13.3,6852],[13.3,6935],[13.3,7018],[13.3,7102],[13.3,7185],[13.3,7268],[13.3,7351],[13.3,7435],[13.3,7518],[13.3,7602],[13.3,7685],[13.3,7768],[13.3,7851],[13.3,7935],[13.3,8017],[13.3,8101],[13.3,8185],[13.3,8268],[13.3,8351],[13.3,8435]]",1,0,549.1209,550.9989,14.21874809,1.2085,"[{""rating"":14.218748086132166,""responseTime"":1.2085000000000719}]",space,1.3332,,550.9989,Not at all,0,551.0006,,,[],,0,14,14,14,1,audio/Narrative8Situation5.wav,audio/Narrative7Situation5.wav,audio/Narrative6Situation5.wav,audio/Narrative5Situation5.wav,2,5,2,5,,,,,,,,,,,,,,,,,,,,,,,,,,,,,,,,,,,,,,,
,,,,,,5d23460ad4c57900192b129c,2024-02-08_16h02.46.049,group3.1-3.2-social-tom,2023.2.2,Win32,60.24096386,65c5074098b851296ff0b7ed,65c5416080ce2dd1a455223d,,,,,,,,,,,,,,,,,,,,,,,,,,,,,551.001,1,audio/Narrative7Situation6.wav,554.009,,554.0091,563.9821,"[[14.8,1509],[30.5,1592],[38.1,1676],[41.1,1760],[48.9,1843],[51.7,1925],[51.3,2009],[50.9,2092],[50.8,2175],[50.8,2258],[50.8,2342],[50.8,2425],[51.3,2509],[51.6,2591],[51.6,2675],[51.6,2759],[51.6,2841],[51.6,2925],[51.6,3008],[52.8,3093],[58.4,3176],[61.7,3258],[66.9,3343],[81.1,3425],[81.7,3508],[81.7,3590],[100,3675],[100,4841],[100,4924],[100,5007],[100,5091],[100,5175],[100,5258],[100,5342],[100,5424],[100,5508],[100,5591],[100,5674],[100,5757],[100,5840],[100,5924],[100,6007],[100,6090],[100,6175],[100,6257],[100,6340],[100,6423],[100,6507],[100,6590],[100,6675],[100,6757],[100,6841],[100,6924],[100,7007],[100,7090],[100,7173],[100,7256],[100,7340],[100,7424],[100,7506],[100,7590],[100,7673],[100,7757],[100,7840],[100,7923],[100,8006],[100,8090],[100,8173],[100,8256],[100,8339],[100,8424],[100,8506],[100,8590],[100,8673],[100,8756],[100,8839],[100,8923],[100,9006],[100,9089],[100,9172],[100,9255],[100,9339],[100,9422],[100,9506],[100,9589],[100,9672],[100,9756],[100,9839],[100,9923]]",1,0,563.9824,565.6606,100,0.9929,"[{""rating"":100,""responseTime"":0.9929000000953465}]",space,1.1341,,565.6608,Definitely yes,100,565.6659,,,[],,0,15,15,15,1,audio/Narrative8Situation6.wav,audio/Narrative7Situation6.wav,audio/Narrative6Situation6.wav,audio/Narrative5Situation6.wav,2,3,2,3,,,,,,,,,,,,,,,,,,,,,,,,,,,,,,,,,,,,,,,
,,,,,,5d23460ad4c57900192b129c,2024-02-08_16h02.46.049,group3.1-3.2-social-tom,2023.2.2,Win32,60.24096386,65c5074098b851296ff0b7ed,65c5416080ce2dd1a455223d,,,,,,,,,,,,,,,,,,,,,,,,,,,,,565.6664,1,audio/Narrative7Situation7.wav,570.6751,,570.6753,587.8702,"[[97.7,1104],[96.4,1188],[96.4,1270],[96.4,1354],[96.4,1437],[96.4,1519],[96.4,1604],[96.4,1687],[96.4,1770],[96.4,1853],[96.3,1937],[92.8,2020],[92.8,2103],[92.8,2187],[92.8,2270],[92.8,2353],[92.8,2437],[92.8,2520],[92.8,2603],[92.8,2686],[92.7,2770],[92.7,2853],[94.4,2937],[97.3,3019],[97.5,3103],[97.5,3187],[97.7,3269],[97.7,3353],[97.7,3436],[97.7,3519],[97.7,3602],[97.7,3686],[97.7,3769],[97.7,3852],[97.7,3936],[97.7,4019],[97.7,4102],[97.8,4185],[97.8,4269],[97.8,4353],[97.8,4436],[97.8,4519],[97.8,4602],[97.8,4686],[97.8,4769],[98.1,4853],[99.1,4936],[99.1,5019],[99.1,5102],[99.1,5186],[99.1,5269],[99.1,5352],[99.1,5435],[99.1,5519],[99.1,5602],[99.1,5685],[99.1,5769],[99.1,5851],[99.1,5935],[99.1,6019],[99.4,6102],[100,6186],[100,6269],[100,6351],[100,6435],[100,6518],[100,6602],[100,6685],[100,6768],[100,6851],[100,6935],[100,7019],[100,7102],[100,7185],[100,7269],[100,7352],[100,7434],[100,7518],[100,7602],[100,7684],[100,7768],[100,7851],[100,7935],[100,8017],[100,8101],[100,8184],[100,8268],[100,8351],[100,8435],[100,8518],[100,8601],[100,8685],[100,8768],[100,8851],[100,8934],[100,9018],[100,9101],[100,9184],[100,9267],[100,9351],[100,9434],[100,9518],[100,9601],[100,9684],[100,9769],[100,9851],[100,9934],[100,10017],[100,10101],[100,10184],[100,10267],[100,10350],[100,10434],[100,10517],[100,10601],[100,10684],[100,10767],[100,10850],[100,10934],[100,11017],[100,11100],[100,11183],[100,11267],[100,11350],[100,11433],[100,11517],[100,11600],[100,11684],[100,11767],[100,11850],[100,11933],[100,12016],[100,12099],[100,12183],[100,12266],[100,12350],[100,12434],[99.1,12531],[98.9,12613],[98.3,12695],[98.1,12778],[98.1,12862],[98.1,12944],[97.5,13030],[97.2,13107],[96.7,13196],[94.5,13279],[94.4,13358],[93.1,13446],[90.8,13528],[90.8,13611],[89.8,13695],[84.2,13783],[84.2,13861],[84.2,13945],[84.2,14022],[84.2,14111],[85.8,14196],[90.2,14278],[92.7,14362],[95.2,14445],[99.8,14528],[100,14612],[100,14689],[100,14777],[100,14861],[100,14944],[100,15027],[100,15111],[100,15194],[100,15278],[100,15361],[100,15444],[100,15528],[100,15610],[100,15694],[100,15777],[100,15856],[100,15944],[100,16027],[100,16110],[100,16194],[100,16277],[100,16361],[100,16444],[100,16523],[100,16610],[100,16694],[100,16777],[100,16860],[100,16944],[100,17026],[100,17110],[100,17194]]",1,0,587.8705,590.3695,94.2187457,1.8983,"[{""rating"":94.21874570194643,""responseTime"":1.8982999999523145}]",space,1.9464,,590.3697,Partially,50,590.3752,,,[],,0,16,16,16,1,audio/Narrative8Situation7.wav,audio/Narrative7Situation7.wav,audio/Narrative6Situation7.wav,audio/Narrative5Situation7.wav,3,5,5,4,,,,,,,,,,,,,,,,,,,,,,,,,,,,,,,,,,,,,,,
,,,,,,5d23460ad4c57900192b129c,2024-02-08_16h02.46.049,group3.1-3.2-social-tom,2023.2.2,Win32,60.24096386,65c5074098b851296ff0b7ed,65c5416080ce2dd1a455223d,,,,,,,,,,,,,,,,,,,,,,,,,,,,,590.3758,1,audio/Narrative7Situation8.wav,592.3849,,592.3851,602.4149,"[[92.8,266],[92.5,349],[92.3,432],[92.3,511],[92.3,599],[92.3,682],[92.3,766],[92.3,844],[92.3,932],[92.5,1015],[88.8,1100],[86.1,1182],[84.7,1264],[84.5,1348],[84.5,1425],[84.5,1513],[84.5,1599],[84.5,1677],[84.5,1765],[84.5,1849],[84.5,1927],[84.2,2015],[84.1,2099],[83.9,2182],[81.3,2265],[80.9,2349],[76.1,2432],[76.1,2514],[76.1,2598],[75.2,2682],[70.2,2765],[70.2,2848],[70.2,2931],[70.2,3014],[70.2,3098],[70.2,3176],[70.2,3265],[70.2,3343],[70.2,3431],[70.2,3515],[70.2,3593],[70.2,3681],[70.2,3764],[70.2,3843],[69.8,3931],[69.8,4014],[69.8,4093],[69.8,4177],[69.8,4264],[69.8,4347],[69.8,4431],[69.8,4514],[69.8,4598],[69.8,4681],[69.8,4759],[69.8,4847],[69.8,4931],[69.8,5009],[69.8,5097],[69.8,5181],[69.8,5259],[69.8,5347],[69.8,5431],[69.8,5514],[69.8,5597],[69.8,5680],[69.7,5764],[65.2,5848],[65.2,5925],[65.2,6013],[65.2,6097],[73.8,6182],[90,6264],[92.3,6348],[96.6,6431],[100,6514],[100,6592],[100,6680],[100,6763],[100,6846],[100,6930],[100,7009],[100,7096],[100,7180],[100,7263],[100,7345],[100,7429],[100,7513],[100,7596],[100,7680],[100,7758],[100,7846],[100,7926],[100,8013],[100,8096],[100,8175],[100,8263],[100,8346],[100,8424],[100,8512],[100,8596],[100,8679],[100,8762],[100,8846],[100,8929],[100,9013],[100,9095],[100,9179],[100,9258],[100,9345],[100,9429],[100,9508],[100,9595],[100,9679],[100,9763],[100,9846],[100,9929],[100,10007]]",1,0,602.4151,604.3354,91.87499577,1.5336,"[{""rating"":91.87499577179562,""responseTime"":1.5336000001431103}]",space,1.3839,,604.3355,Definitely yes,100,604.3404,,,[],,0,17,17,17,1,audio/Narrative8Situation8.wav,audio/Narrative7Situation8.wav,audio/Narrative6Situation8.wav,audio/Narrative5Situation8.wav,3,2,5,3,,,,,,,,,,,,,,,,,,,,,,,,,,,,,,,,,,,,,,,
,,,,,,5d23460ad4c57900192b129c,2024-02-08_16h02.46.049,group3.1-3.2-social-tom,2023.2.2,Win32,60.24096386,65c5074098b851296ff0b7ed,65c5416080ce2dd1a455223d,,,,,,,,,,,,,,,,,,,,,,,,,,,,,604.3408,1,audio/Narrative7Situation9.wav,606.3514,,606.3515,614.9653,"[[91.6,1082],[91.6,1165],[91.6,1249],[91.6,1332],[91.6,1416],[95.8,1500],[100,1582],[100,1666],[100,1749],[100,1832],[100,1915],[100,1998],[100,2083],[100,2165],[100,2249],[100,2332],[100,2415],[100,2498],[100,2582],[100,2665],[100,2748],[100,2832],[100,2915],[100,2999],[100,3083],[100,3165],[100,3248],[100,3332],[100,3415],[100,3498],[100,3581],[100,3665],[100,3748],[100,3832],[100,3915],[100,3997],[100,4081],[100,4165],[100,4248],[100,4331],[100,4414],[100,4498],[100,4581],[100,4664],[100,4747],[100,4831],[100,4915],[100,4997],[100,5081],[100,5164],[100,5248],[100,5331],[100,5414],[100,5497],[100,5581],[100,5664],[100,5747],[100,5831],[100,5914],[100,5997],[100,6081],[100,6164],[100,6247],[100,6331],[100,6415],[100,6497],[100,6581],[100,6664],[100,6747],[100,6830],[100,6914],[100,6997],[100,7080],[100,7164],[100,7247],[100,7331],[100,7414],[100,7496],[100,7580],[100,7663],[100,7747],[100,7830],[100,7913],[100,7997],[100,8080],[100,8163],[100,8246],[100,8330],[100,8413],[100,8497],[100,8579]]",1,0,614.9655,617.1094,100,1.4082,"[{""rating"":100,""responseTime"":1.4082000000477137}]",space,1.6003,,617.1094,Partially,50,617.1147,,,[],,0,18,18,18,1,audio/Narrative8Situation9.wav,audio/Narrative7Situation9.wav,audio/Narrative6Situation9.wav,audio/Narrative5Situation9.wav,3,2,4,3,,,,,,,,,,,,,,,,,,,,,,,,,,,,,,,,,,,,,,,
,,,,,,5d23460ad4c57900192b129c,2024-02-08_16h02.46.049,group3.1-3.2-social-tom,2023.2.2,Win32,60.24096386,65c5074098b851296ff0b7ed,65c5416080ce2dd1a455223d,,,,,,,,,,,,,,,,,,,,,,,,,,,630.9433,633.5205,633.5469,2,audio/Narrative13Situation2.wav,633.5471,,633.5471,663.299,"[[100,2178],[96.7,2261],[78,2344],[78,2427],[78,2510],[78,2593],[78,2676],[77.5,2761],[69.5,2844],[68.3,2927],[67.3,3010],[34.5,3094],[27,3177],[27,3260],[26.9,3344],[26.9,3427],[26.9,3509],[26.9,3593],[43.4,3677],[47.8,3761],[48.8,3844],[50.3,3926],[50.5,4010],[50.5,4094],[47,4177],[45.6,4259],[45.6,4343],[45.6,4426],[45.6,4510],[47.2,4593],[47.8,4676],[48.1,4760],[49.8,4844],[51.6,4926],[51.6,5009],[51.6,5092],[51.6,5176],[51.6,5259],[51.6,5342],[51.6,5425],[51.4,5510],[50.6,5593],[50.6,5676],[50.6,5759],[50.6,5842],[50.6,5926],[50.6,6009],[50.6,6092],[50.6,6175],[50.6,6259],[50.6,6342],[50.6,6426],[50.6,6509],[50.6,6592],[50.6,6675],[50.6,6758],[50.6,6842],[50.6,6925],[50.6,7009],[50.6,7092],[50.6,7176],[50.6,7259],[50.6,7342],[50.6,7425],[50.6,7509],[50.6,7592],[50.6,7675],[50.6,7759],[50.6,7842],[54.8,7926],[64.1,8009],[65.5,8092],[72,8176],[74.1,8258],[74.1,8341],[74.1,8424],[82.5,8508],[85.8,8591],[86.6,8675],[89.2,8758],[89.5,8842],[93.9,8925],[96.1,9009],[100,9092],[100,9174],[100,9258],[100,9341],[100,9424],[100,9508],[100,9591],[100,9675],[100,9758],[100,9841],[100,9924],[100,10007],[100,10091],[100,10174],[100,10258],[100,10341],[100,10424],[100,10507],[100,10591],[100,10675],[100,10757],[100,10841],[100,10923],[100,11008],[100,11091],[100,11174],[100,11257],[100,11340],[100,11424],[100,11507],[100,11591],[100,11674],[100,11757],[100,11840],[100,11924],[100,12007],[100,12090],[100,12174],[100,12257],[100,12340],[100,12424],[100,12507],[100,12590],[100,12674],[100,12756],[100,12840],[100,12923],[100,13006],[100,13089],[100,13173],[100,13257],[100,13339],[100,13424],[100,13506],[100,13589],[100,13673],[100,13756],[100,13840],[100,13923],[100,14006],[100,14090],[100,14173],[100,14256],[100,14340],[100,14423],[100,14507],[100,14590],[100,14673],[100,14756],[100,14839],[100,14923],[100,15005],[100,15089],[100,15173],[100,15256],[100,15339],[100,15422],[100,15506],[100,15590],[90.6,15673],[75.9,15756],[51.6,15839],[45.6,15923],[45.6,16005],[38.4,16089],[34.7,16172],[34.2,16256],[28,16339],[22.3,16422],[21.9,16506],[20.9,16589],[16.1,16672],[16.1,16756],[16.1,16838],[15,16923],[12.7,17005],[12,17089],[11.7,17173],[7,17256],[6.7,17339],[6.3,17422],[1.7,17506],[1.7,17588],[1.1,17672],[7.3,21505],[12.2,21588],[25,21670],[29.2,21755],[33.6,21838],[38.6,21921],[45.9,22005],[47.3,22088],[50.5,22172],[51.4,22254],[51.4,22337],[51.4,22420],[51.4,22504],[51.4,22587],[51.4,22670],[51.3,22753],[51.1,22836],[51.1,22920],[51.1,23004],[51.1,23087],[51.1,23170],[51.1,23254],[51.1,23336],[51.1,23420],[51.1,23503],[51.1,23586],[51.1,23669],[51.1,23753],[51.1,23837],[51.1,23919],[51.1,24004],[51.1,24086],[51.1,24169],[51.1,24254],[51.1,24336],[49.4,24420],[42.7,24502],[42.7,24586],[29.7,24670],[27.8,24753],[26.9,24836],[17.5,24920],[13,25002],[13,25086],[12.3,25171],[5.5,25253],[5.5,25336],[5.2,25419],[5.2,25502],[5.2,25586],[5.2,25669],[5.2,25752],[5.2,25836],[5.2,25919],[5.2,26002],[4.8,26086],[0.3,26169],[0.3,26252],[0.3,26336],[0.3,26418],[0.3,26502],[0.3,26585],[0.3,26669],[0.3,26752]]",1,0,663.2994,663.3213,,,[],,,,663.3214,Definitely yes,100,663.3249,,,[],,0,0,0,0,1,audio/Narrative13Situation2.wav,audio/Narrative13Situation2.wav,audio/Narrative13Situation2.wav,audio/Narrative13Situation2.wav,2,2,2,2,,,,,617.1163,630.9235,space,13.2797,,,,,,,,,,,,,,,,,,,,,,,,,,,,,,,
,,,,,,5d23460ad4c57900192b129c,2024-02-08_16h02.46.049,group3.1-3.2-social-tom,2023.2.2,Win32,60.24096386,65c5074098b851296ff0b7ed,65c5416080ce2dd1a455223d,,,,,,,,,,,,,,,,,,,,,,,,,,,,,663.3253,2,audio/Narrative6Situation1.wav,665.3273,,665.3273,691.9171,"[[999,0],[999,88],[999,171],[999,254],[999,337],[999,420],[999,504],[999,587],[999,671],[49.2,754],[49.4,837],[49.4,920],[49.4,1003],[49.4,1086],[49.7,1170],[55.6,1587],[55.9,1670],[55.9,1752],[55.9,1836],[57.3,1920],[57.5,2003],[57.5,2086],[57.5,2169],[57.5,2253],[58.1,2337],[59.7,2419],[59.7,2503],[50.6,2587],[49.7,2669],[48.9,2753],[47,2836],[37.5,2920],[37.2,3003],[34.5,3087],[29.4,3169],[28.1,3252],[26.9,3336],[26.1,3419],[24.4,3503],[24.4,3586],[24.4,3669],[23.6,3753],[23.6,3836],[23,3920],[18.8,4003],[18.1,4086],[15.2,4169],[15,4252],[12.3,4336],[11.4,4419],[10.5,4502],[9.1,4586],[7.5,4669],[7.5,4752],[7.5,4835],[11.9,4920],[63.4,5003],[96.6,5086],[100,6169],[100,6252],[95,6335],[95,6418],[95,6501],[96.1,6585],[96.7,6669],[99.8,6751],[99.8,6835],[99.8,6918],[99.8,7001],[99.8,7084],[99.8,7168],[99.8,7251],[99.8,7334],[99.8,7418],[99.8,7501],[99.8,7584],[99.8,7668],[99.8,7751],[99.8,7834],[99.8,7918],[99.8,8000],[99.8,8084],[99.8,8167],[99.8,8251],[99.8,8334],[99.8,8418],[99.8,8501],[99.8,8584],[99.8,8668],[99.8,8750],[99.8,8834],[99.8,8916],[99.8,9001],[99.8,9084],[99.8,9167],[99.8,9250],[99.8,9334],[99.8,9417],[99.8,9501],[99.8,9584],[99.8,9667],[99.8,9750],[99.8,9833],[99.8,9917],[99.8,10000],[99.8,10083],[99.8,10167],[99.8,10250],[99.8,10334],[99.8,10417],[99.8,10500],[99.8,10584],[99.8,10667],[99.8,10751],[99.8,10833],[99.8,10916],[99.8,11000],[99.8,11083],[99.8,11167],[90.9,11267],[88.4,11350],[82.8,11432],[82.8,11516],[82.8,11601],[77.3,11684],[74.5,11767],[73.3,11850],[69.8,11933],[69.8,12016],[69.2,12100],[65.6,12183],[58.8,12267],[51.3,12350],[35.5,12433],[23.8,12516],[22,12600],[18.8,12683],[13,12766],[8.8,12850],[6.7,12933],[3.8,13016],[2.3,13099],[1.4,13183],[0.5,13266],[0.5,13349],[0.5,13432],[0.5,13516],[0.5,13599],[0.5,13682],[0.5,13765],[0.5,13849],[0.5,13932],[0.8,14016],[0.8,14099],[0.8,14181],[0.8,14265],[0.6,14349],[4.8,14849],[7.5,14932],[10.8,15016],[13.8,15099],[14.5,15183],[15.5,15266],[21.4,15349],[24.2,15432],[24.5,15515],[24.7,15599],[24.7,15682],[24.7,15765],[24.7,15848],[24.7,15932],[24.7,16015],[24.7,16098],[24.7,16182],[24.7,16265],[24.7,16348],[24.7,16431],[24.7,16514],[24.7,16598],[24.7,16681],[24.7,16764],[24.7,16848],[24.7,16931],[24.7,17014],[24.7,17098],[24.7,17181],[24.7,17264],[24.7,17348],[24.7,17431],[24.7,17514],[24.7,17598],[24.7,17680],[24.7,17764],[24.7,17848],[24.7,17931],[24.7,18014],[24.7,18098],[24.7,18181],[24.7,18264],[24.7,18347],[24.7,18432],[24.7,18514],[24.7,18597],[24.7,18681],[23.9,18781],[23.6,18860],[22.7,18943],[19.7,19027],[18.3,19110],[15.8,19192],[10.8,19277],[10.8,19360],[7,19443],[3.3,19526],[3.1,19604],[0.3,19693],[0.6,20859],[6.1,20943],[17,21026],[25.3,21109],[36.3,21192],[48.1,21275],[51.3,21360],[59.8,21442],[70.3,21526],[70.9,21604],[71.3,21692],[71.3,21775],[71.3,21854],[60.9,21942],[60.3,22026],[56.6,22109],[56.4,22191],[56.4,22270],[56.4,22354],[56.4,22441],[56.4,22524],[56.4,22608],[56.4,22687],[56.6,22775],[56.6,22858],[56.6,22941],[56.6,23024],[56.6,23107],[53.3,23192],[52.2,23275],[44.7,23358],[44.1,23442],[33.6,23526],[32.2,23607],[29.1,23692],[28,23774],[28,23854],[28,23940],[28,24024],[27.7,24105],[23.4,24192],[23.3,24274],[23.1,24358],[21.4,24437],[21.4,24524],[21.4,24607],[21.4,24690],[21.4,24774],[21.4,24852],[21.4,24940],[21.4,25024],[20.9,25108],[20.8,25190],[20.8,25270],[20.5,25357],[20.3,25441],[20.3,25524],[20.3,25605],[20.2,25692],[20,25768],[20,25857],[20,25940],[19.8,26019],[19.8,26106],[19.8,26190],[19.8,26272],[20.2,26357],[89.7,26441],[99.2,26524]]",1,0,691.9174,696.3841,76.40624623,3.8655,"[{""rating"":76.4062462328003,""responseTime"":3.8654999999999973}]",space,3.9162,,696.3842,Definitely yes,100,696.387,,,[],,0,1,1,1,1,audio/Narrative7Situation1.wav,audio/Narrative8Situation1.wav,audio/Narrative5Situation1.wav,audio/Narrative6Situation1.wav,2,5,5,2,,,,,,,,,,,,,,,,,,,,,,,,,,,,,,,,,,,,,,,
,,,,,,5d23460ad4c57900192b129c,2024-02-08_16h02.46.049,group3.1-3.2-social-tom,2023.2.2,Win32,60.24096386,65c5074098b851296ff0b7ed,65c5416080ce2dd1a455223d,,,,,,,,,,,,,,,,,,,,,,,,,,,,,696.3874,2,audio/Narrative6Situation2.wav,699.404,,699.4041,727.9103,"[[73.6,83],[73.6,165],[73.6,249],[73.6,332],[73.6,415],[73.6,499],[73.6,582],[71.7,668],[58.9,749],[58.4,833],[58.4,915],[58.4,998],[58.4,1082],[58.4,1165],[58.4,1248],[58.3,1332],[52.2,1415],[49.7,1498],[48.8,1582],[47.8,1665],[42.5,1749],[40.6,1832],[33.4,1916],[31.6,1998],[31.6,2081],[31.6,2165],[30.5,2249],[28.9,2331],[28.9,2414],[28.9,2497],[28.9,2581],[28.9,2664],[28.9,2748],[28.9,2831],[28.9,2915],[28.9,2998],[28.9,3081],[28.9,3166],[28.9,3248],[28.9,3331],[28.9,3415],[28.9,3498],[28.9,3581],[28.9,3664],[28.9,3748],[28.9,3831],[28.9,3915],[29.2,3999],[32.8,4081],[39.5,4165],[44.2,4248],[45.2,4332],[46.9,4415],[48.4,4498],[48.8,4581],[51.3,4664],[54.8,4748],[57.5,4831],[59.7,4915],[65.9,4998],[68.1,5083],[71.7,5164],[74.8,5248],[75.9,5331],[78.1,5413],[78.3,5498],[83.6,5581],[84.8,5664],[88.4,5749],[92,5831],[95.5,5914],[100,5997],[100,6080],[100,6163],[100,6247],[100,6331],[100,6413],[100,6497],[100,6580],[100,6663],[100,6746],[100,6830],[100,6913],[100,6996],[100,7080],[100,7163],[100,7246],[100,7330],[100,7413],[100,7496],[100,7580],[100,7663],[100,7746],[100,7829],[100,7913],[100,7996],[100,8080],[100,8163],[100,8246],[100,8329],[100,8413],[100,8496],[100,8579],[100,8663],[100,8746],[100,8829],[100,8913],[100,8996],[100,9079],[100,9162],[100,9246],[100,9329],[100,9412],[100,9495],[100,9579],[100,9662],[100,9745],[100,9829],[100,9913],[100,9995],[100,10079],[100,10162],[100,10245],[100,10329],[100,10412],[100,10495],[100,10578],[100,10662],[100,10745],[100,10828],[100,10912],[100,10995],[100,11078],[100,11162],[100,11245],[100,11330],[100,11412],[100,11495],[100,11578],[100,11662],[100,11745],[100,11829],[100,11911],[100,11995],[100,12078],[100,12161],[100,12245],[100,12329],[100,12411],[100,12495],[100,12578],[100,12661],[100,12744],[100,12828],[100,12911],[100,12995],[100,13078],[100,13161],[100,13244],[100,13328],[100,13411],[100,13494],[100,13578],[100,13661],[100,13744],[100,13827],[100,13911],[100,13994],[100,14077],[100,14161],[100,14244],[100,14327],[100,14411],[100,14493],[100,14577],[100,14660],[100,14744],[100,14827],[100,14911],[100,14994],[100,15077],[100,15160],[100,15244],[100,15327],[100,15410],[100,15494],[100,15577],[100,15660],[100,15743],[100,15827],[100,15910],[100,15993],[100,16076],[100,16160],[100,16243],[100,16327],[100,16410],[100,16494],[100,16577],[100,16660],[100,16743],[100,16827],[100,16910],[100,16993],[100,17076],[100,17160],[100,17243],[100,17326],[100,17410],[100,17493],[100,17577],[100,17660],[100,17743],[100,17826],[100,17909],[100,17993],[100,18076],[100,18159],[100,18242],[100,18326],[100,18409],[100,18492],[100,18576],[100,18659],[100,18742],[100,18826],[100,18909],[100,18992],[100,19076],[100,19159],[100,19242],[100,19326],[100,19409],[100,19492],[100,19575],[100,19659],[100,19742],[100,19826],[100,19909],[100,19992],[100,20075],[100,20159],[100,20242],[100,20325],[100,20409],[100,20492],[100,20575],[100,20658],[100,20742],[100,20825],[100,20908],[100,20992],[100,21075],[100,21158],[100,21241],[100,21325],[100,21408],[100,21491],[100,21575],[100,21658],[100,21741],[100,21825],[100,21908],[100,21992],[100,22075],[100,22158],[100,22241],[100,22325],[100,22408],[100,22491],[100,22575],[100,22657],[100,22741],[100,22825],[100,22908],[100,22991],[100,23074],[100,23158],[100,23241],[100,23324],[100,23408],[100,23491],[100,23574],[100,23658],[100,23740],[100,23824],[100,23907],[100,23991],[100,24074],[100,24157],[100,24241],[100,24324],[100,24407],[100,24490],[100,24573],[100,24657],[100,24740],[100,24824],[100,24907],[100,24991],[100,25075],[100,25157],[100,25240],[100,25323],[100,25407],[100,25490],[100,25573],[100,25657],[100,25740],[100,25823],[100,25907],[100,25990],[100,26073],[100,26156],[100,26240],[100,26323],[100,26407],[100,26490],[100,26574],[100,26657],[100,26740],[100,26823],[100,26907],[100,26990],[100,27073],[100,27156],[100,27240],[100,27323],[100,27406],[100,27490],[100,27573],[100,27656],[100,27740],[100,27823],[100,27907],[100,27989],[100,28073],[100,28156],[100,28239],[100,28323],[100,28406],[100,28489]]",1,0,727.9106,729.7227,100,1.1009,"[{""rating"":100,""responseTime"":1.1008999998570062}]",space,1.267,,729.7227,Partially,50,729.7278,,,[],,0,2,2,2,1,audio/Narrative7Situation2.wav,audio/Narrative8Situation2.wav,audio/Narrative5Situation2.wav,audio/Narrative6Situation2.wav,3,3,3,3,,,,,,,,,,,,,,,,,,,,,,,,,,,,,,,,,,,,,,,
,,,,,,5d23460ad4c57900192b129c,2024-02-08_16h02.46.049,group3.1-3.2-social-tom,2023.2.2,Win32,60.24096386,65c5074098b851296ff0b7ed,65c5416080ce2dd1a455223d,,,,,,,,,,,,,,,,,,,,,,,,,,,,,729.7282,2,audio/Narrative6Situation3.wav,734.7294,,734.7296,747.3496,"[[100,357],[100,439],[100,523],[100,607],[100,685],[100,773],[100,856],[100,939],[100,1023],[100,1106],[99.7,1189],[99.5,1273],[94.4,1357],[90.6,1439],[86.4,1524],[86.3,1606],[86.1,1692],[86.1,1773],[85.8,1856],[85.5,1940],[78.9,2022],[77.2,2106],[68,2190],[65.5,2272],[50.2,2356],[46.6,2439],[41.4,2522],[39.5,2606],[37.3,2690],[33.8,2773],[33,2856],[30.8,2941],[22.5,3023],[22.3,3106],[22,3190],[22,3272],[21.9,3356],[18.3,3439],[18,3522],[18,3602],[17.8,3685],[17.2,3772],[16.4,3856],[15.9,3939],[14.8,4022],[14.7,4105],[13.1,4189],[12.5,4272],[11.6,4356],[11.6,4434],[10.2,4523],[5.9,4601],[5.9,4689],[5.8,4768],[5.5,4851],[2.8,4939],[19.4,6605],[63.3,6688],[77.8,6772],[81.9,6855],[100,6938],[100,7022],[100,7104],[100,7185],[100,7270],[100,7354],[100,7435],[100,7521],[100,7604],[100,7687],[100,7771],[100,7849],[100,7938],[100,8020],[100,8103],[100,8184],[100,8271],[100,8354],[100,8437],[100,8520],[100,8603],[100,8687],[97,8771],[97,8853],[97.2,8937],[97.2,9020],[97.3,9104],[98.3,9187],[99.1,9271],[99.5,9354],[99.5,9432],[99.5,9520],[99.5,9601],[99.5,9686],[99.5,9771],[99.5,9849],[99.5,9936],[99.5,10020],[99.5,10103],[99.5,10186],[99.5,10269],[99.5,10353],[99.5,10432],[99.5,10515],[99.5,10603],[99.5,10682],[99.5,10769],[99.5,10853],[99.5,10936],[99.5,11018],[99.5,11103],[99.5,11186],[99.5,11269],[99.5,11353],[99.5,11431],[99.5,11519],[99.5,11602],[99.5,11686],[99.5,11764],[99.5,11851],[99.5,11936],[99.5,12019],[99.5,12102],[99.5,12186],[99.5,12269],[99.5,12352],[99.5,12435],[99.5,12515],[99.5,12598]]",1,0,747.3497,749.4495,89.68749584,1.5972,"[{""rating"":89.6874958369882,""responseTime"":1.5972000000476783}]",space,1.5469,,749.4497,Partially,50,749.4524,,,[],,0,3,3,3,1,audio/Narrative7Situation3.wav,audio/Narrative8Situation3.wav,audio/Narrative5Situation3.wav,audio/Narrative6Situation3.wav,8,4,3,5,,,,,,,,,,,,,,,,,,,,,,,,,,,,,,,,,,,,,,,
,,,,,,5d23460ad4c57900192b129c,2024-02-08_16h02.46.049,group3.1-3.2-social-tom,2023.2.2,Win32,60.24096386,65c5074098b851296ff0b7ed,65c5416080ce2dd1a455223d,,,,,,,,,,,,,,,,,,,,,,,,,,,,,749.4529,2,audio/Narrative6Situation4.wav,751.4591,,751.4593,764.0769,"[[88.8,103],[88.8,188],[88.8,271],[88.8,354],[88.8,438],[88.8,517],[88.8,604],[88.8,688],[88.8,771],[88.8,854],[88.8,936],[88.1,1021],[87.7,1105],[84.8,1188],[84.5,1271],[82.7,1354],[81.1,1438],[77.5,1521],[68.6,1605],[66.9,1687],[66.9,1770],[66.6,1849],[66.6,1937],[63.3,2022],[61.9,2099],[55.6,2188],[46.3,2272],[38,2355],[25.3,2438],[13.9,2522],[13.9,2602],[13.9,2687],[13.9,2769],[13.8,2852],[13.8,2937],[13.3,3021],[13.3,3103],[33,3187],[35.5,3272],[35.5,3353],[38.6,3437],[42.3,3520],[42.7,3604],[46.1,3687],[46.3,3769],[49.1,3853],[49.7,3934],[49.7,4019],[49.7,4103],[49.7,4182],[49.7,4268],[49.7,4354],[49.7,4437],[49.7,4520],[49.7,4603],[49.7,4686],[49.7,4769],[49.7,4853],[49.7,4932],[49.7,5019],[49.7,5101],[49.7,5186],[49.7,5270],[49.7,5348],[49.7,5436],[51.6,5520],[51.6,5603],[51.6,5686],[51.6,5766],[51.6,5852],[51.6,5936],[51.6,6014],[51.6,6102],[51.6,6186],[51.6,6268],[51.6,6352],[51.6,6432],[51.6,6519],[51.6,6602],[51.6,6685],[51.6,6768],[51.6,6852],[51.6,6931],[50.2,7020],[44.8,7102],[42.3,7187],[32.5,7269],[32.2,7353],[32.2,7431],[32.2,7519],[32.2,7602],[32.2,7681],[32.2,7768],[30.3,7853],[29.7,7935],[29.5,8018],[29.5,8102],[29.4,8185],[29.4,8269],[29.1,8352],[27.5,8437],[27,8519],[25.6,8602],[25.6,8685],[25.6,8769],[25.6,8847],[25.6,8935],[25.6,9019],[25.6,9097],[25.6,9181],[25.6,9268],[25.6,9351],[25.8,9435],[25.8,9518],[25.8,9601],[26.4,9686],[30.2,9768],[30.8,9851],[30.8,9931],[30.8,10018],[30.8,10101],[30.8,10180],[30.8,10268],[30.8,10352],[30.8,10434],[30.8,10518],[30.8,10602],[30.8,10684],[30.8,10767],[30.8,10850],[30.8,10930],[30.8,11017],[30.8,11101],[30.8,11184],[30.8,11268],[30.6,11351],[30.3,11434],[30.3,11517],[28,11602],[26.9,11685],[26.9,11768],[26.9,11846],[26.9,11934],[26.9,12017],[26.9,12100],[26.9,12184],[26.9,12267],[26.9,12350],[26.9,12429],[26.9,12517],[26.9,12601]]",1,0,764.0772,766.2269,27.65624769,1.3489,"[{""rating"":27.65624768566347,""responseTime"":1.348900000095341}]",space,1.6148,,766.227,Not at all,0,766.2323,,,[],,0,4,4,4,1,audio/Narrative7Situation4.wav,audio/Narrative8Situation4.wav,audio/Narrative5Situation4.wav,audio/Narrative6Situation4.wav,3,3,1,2,,,,,,,,,,,,,,,,,,,,,,,,,,,,,,,,,,,,,,,
,,,,,,5d23460ad4c57900192b129c,2024-02-08_16h02.46.049,group3.1-3.2-social-tom,2023.2.2,Win32,60.24096386,65c5074098b851296ff0b7ed,65c5416080ce2dd1a455223d,,,,,,,,,,,,,,,,,,,,,,,,,,,,,766.2327,2,audio/Narrative6Situation5.wav,768.2422,,768.2422,776.2061,"[[29.5,267],[32.5,349],[32.5,432],[32.5,516],[32.5,599],[32.5,682],[20,766],[17.5,849],[15.3,934],[15.3,1016],[15.3,1094],[18.3,1183],[19.4,1266],[19.4,1349],[19.4,1432],[19.4,1516],[19.5,1599],[28.4,1683],[35.8,1766],[44.8,1849],[45.5,1932],[48.3,2016],[58.6,2100],[58.6,2182],[60.6,2266],[65,2349],[65.3,2432],[65.8,2516],[67,2599],[69.1,2683],[69.7,2765],[70.5,2849],[72.8,2932],[74.4,3015],[74.4,3099],[74.4,3177],[75.9,3265],[76.1,3345],[76.3,3427],[76.4,3516],[78.6,3599],[81.1,3682],[81.4,3765],[81.7,3849],[83.3,3932],[83.8,4015],[84.2,4099],[85.9,4182],[88.9,4266],[91.4,4349],[91.6,4431],[91.7,4515],[93.4,4599],[93.6,4681],[93.8,4760],[93.8,4847],[93.8,4931],[93.8,5014],[93.8,5097],[93.3,5182],[93.3,5263],[93.3,5347],[93.3,5431],[93.3,5514],[93.3,5597],[93.3,5680],[93.3,5764],[93.3,5848],[93.3,5931],[92.5,6014],[92.5,6098],[93.6,6181],[96.7,6265],[97.8,6348],[97.8,6430],[97.8,6514],[97.8,6597],[97.8,6680],[97.8,6763],[94.4,6848],[91.3,6931],[88.1,7010],[88.1,7096],[88.1,7181],[88.1,7264],[88.1,7347],[88.1,7431],[88.1,7509],[88.1,7598],[88.1,7680],[88.1,7763],[88.1,7847],[88.1,7929]]",1,0,776.2063,779.3394,78.74999616,2.5157,"[{""rating"":84.53124599065643,""responseTime"":1.8157999999523327},{""rating"":78.7499961629511,""responseTime"":2.515700000047673}]",space,2.596,,779.3395,Not at all,0,779.3427,,,[],,0,5,5,5,1,audio/Narrative7Situation5.wav,audio/Narrative8Situation5.wav,audio/Narrative5Situation5.wav,audio/Narrative6Situation5.wav,5,2,5,2,,,,,,,,,,,,,,,,,,,,,,,,,,,,,,,,,,,,,,,
,,,,,,5d23460ad4c57900192b129c,2024-02-08_16h02.46.049,group3.1-3.2-social-tom,2023.2.2,Win32,60.24096386,65c5074098b851296ff0b7ed,65c5416080ce2dd1a455223d,,,,,,,,,,,,,,,,,,,,,,,,,,,,,779.3432,2,audio/Narrative6Situation6.wav,781.3491,,781.3493,792.4338,"[[76.9,1355],[64.5,1939],[64.4,2021],[62.7,2105],[62.7,2187],[62.7,2266],[63.6,2354],[64.5,2438],[65.8,2521],[71.7,2604],[82.2,2689],[85.8,2770],[87.3,2855],[100,2938],[100,3020],[100,3100],[100,3186],[100,3270],[100,3350],[100,3436],[100,3521],[100,3604],[100,3687],[100,3770],[100,3854],[100,3936],[100,4020],[100,4103],[100,4187],[100,4264],[100,4353],[100,4436],[100,4515],[100,4603],[100,4687],[100,4765],[100,4853],[100,4936],[100,5015],[100,5103],[100,5186],[100,5269],[100,5352],[100,5436],[100,5519],[100,5602],[100,5684],[100,5769],[100,5852],[100,5930],[100,6019],[100,6097],[100,6185],[100,6269],[100,6352],[100,6435],[100,6514],[100,6601],[100,6686],[100,6764],[100,6852],[100,6936],[100,7019],[100,7102],[100,7186],[100,7269],[100,7352],[100,7431],[100,7518],[100,7602],[100,7684],[100,7768],[100,7847],[100,7935],[100,8018],[100,8097],[100,8185],[100,8269],[100,8347],[100,8435],[100,8519],[100,8602],[100,8686],[100,8764],[100,8852],[99.7,8951],[98,9035],[94.5,9114],[94.5,9201],[94.5,9281],[94.5,9368],[93.6,9452],[90.6,9531],[90.6,9618],[90.6,9701],[90.6,9785],[90.6,9868],[90.6,9951],[90.6,10031],[90.3,10118],[90.3,10201],[88.9,10285],[88.3,10368],[88.3,10447],[88.3,10530],[88.3,10619],[88.3,10701],[88.3,10784],[88.3,10868],[88.3,10946],[88.3,11034]]",1,0,792.434,794.1516,88.28124588,0.8994,"[{""rating"":88.28124587889772,""responseTime"":0.8993999998569961}]",space,1.1714,,794.1517,Not at all,0,794.1546,,,[],,0,6,6,6,1,audio/Narrative7Situation6.wav,audio/Narrative8Situation6.wav,audio/Narrative5Situation6.wav,audio/Narrative6Situation6.wav,3,2,3,2,,,,,,,,,,,,,,,,,,,,,,,,,,,,,,,,,,,,,,,
,,,,,,5d23460ad4c57900192b129c,2024-02-08_16h02.46.049,group3.1-3.2-social-tom,2023.2.2,Win32,60.24096386,65c5074098b851296ff0b7ed,65c5416080ce2dd1a455223d,,,,,,,,,,,,,,,,,,,,,,,,,,,,,794.155,2,audio/Narrative6Situation7.wav,799.1599,,799.1601,824.0237,"[[89.8,1439],[89.8,1521],[89.8,1605],[89.8,1682],[89.8,1771],[89.8,1850],[89.8,1937],[89.8,2020],[89.8,2100],[88,2187],[88,2270],[87.3,2355],[85.5,2438],[85.3,2520],[85.2,2604],[85,2687],[85,2770],[84.8,2849],[84.7,2937],[84.4,3021],[84.2,3104],[84.1,3187],[83.1,3265],[83.1,3353],[82.7,3437],[82.3,3519],[82.3,3603],[82.2,3687],[74.7,3771],[55.8,3854],[50.2,3937],[36.9,4021],[24.8,4103],[21.3,4187],[11.3,4271],[6.3,4353],[6.1,4436],[6.1,4519],[6.1,4599],[6.1,4682],[6.1,4769],[6.1,4853],[6.1,4931],[6.1,5019],[6.1,5098],[5.9,5186],[5.9,5269],[2.7,5353],[28.9,7103],[43,7186],[62.2,7270],[83,7352],[88.8,7436],[100,7520],[100,7598],[100,7681],[100,7768],[100,7852],[100,7931],[100,8019],[100,8102],[100,8181],[100,8268],[100,8347],[100,8435],[100,8518],[100,8597],[100,8685],[100,8769],[100,8847],[100,8935],[100,9014],[100,9101],[100,9184],[100,9268],[100,9351],[100,9434],[100,9518],[100,9601],[100,9685],[100,9768],[100,9851],[100,9931],[100,10013],[100,10101],[100,10185],[100,10267],[100,10351],[100,10430],[100,10517],[100,10601],[100,10684],[100,10767],[100,10847],[100,10934],[100,11017],[100,11097],[100,11184],[100,11267],[100,11345],[100,11434],[100,11517],[100,11599],[100,11679],[100,11768],[100,11849],[100,11933],[100,12017],[100,12099],[100,12183],[100,12266],[100,12350],[100,12433],[100,12513],[100,12600],[100,12683],[100,12767],[100,12845],[100,12929],[100,13016],[100,13100],[100,13180],[100,13266],[100,13350],[100,13433],[100,13516],[100,13600],[100,13683],[100,13766],[100,13850],[100,13932],[100,14016],[100,14101],[100,14183],[100,14266],[100,14349],[100,14433],[100,14516],[100,14595],[100,14682],[100,14766],[100,14848],[100,14933],[100,15015],[100,15099],[100,15182],[100,15266],[100,15349],[100,15428],[100,15516],[100,15599],[100,15683],[100,15766],[100,15849],[100,15932],[100,16011],[100,16099],[100,16183],[100,16266],[100,16350],[100,16432],[100,16516],[100,16595],[100,16677],[100,16766],[100,16845],[100,16932],[100,17015],[100,17094],[100,17182],[100,17266],[100,17348],[100,17432],[100,17511],[100,17598],[100,17682],[100,17764],[100,17848],[100,17932],[100,18015],[100,18098],[100,18182],[100,18265],[100,18348],[100,18431],[100,18515],[100,18594],[100,18681],[100,18765],[100,18848],[100,18931],[100,19014],[100,19093],[100,19181],[100,19264],[100,19348],[100,19431],[100,19515],[100,19593],[100,19681],[100,19765],[100,19848],[100,19932],[100,20015],[100,20098],[100,20181],[100,20259],[100,20347],[100,20431],[100,20508],[100,20597],[100,20681],[100,20759],[100,20847],[100,20931],[100,21009],[100,21097],[100,21181],[100,21264],[100,21347],[100,21431],[100,21514],[100,21597],[100,21679],[100,21764],[100,21843],[100,21926],[100,22013],[100,22093],[100,22183],[100,22263],[100,22343],[100,22431],[100,22514],[100,22597],[100,22680],[100,22764],[100,22846],[100,22930],[100,23014],[100,23096],[100,23180],[100,23263],[100,23346],[100,23430],[100,23509],[100,23596],[100,23680],[100,23762],[100,23842],[100,23925],[100,24013],[100,24091],[100,24175],[100,24263],[100,24347],[100,24429],[100,24513],[100,24597],[100,24679],[100,24763],[100,24841]]",1,0,824.0239,826.7737,88.43749587,1.8537,"[{""rating"":88.43749587424111,""responseTime"":1.853700000047752}]",space,2.2002,,826.7737,Partially,50,826.7785,,,[],,0,7,7,7,1,audio/Narrative7Situation7.wav,audio/Narrative8Situation7.wav,audio/Narrative5Situation7.wav,audio/Narrative6Situation7.wav,5,3,4,5,,,,,,,,,,,,,,,,,,,,,,,,,,,,,,,,,,,,,,,
,,,,,,5d23460ad4c57900192b129c,2024-02-08_16h02.46.049,group3.1-3.2-social-tom,2023.2.2,Win32,60.24096386,65c5074098b851296ff0b7ed,65c5416080ce2dd1a455223d,,,,,,,,,,,,,,,,,,,,,,,,,,,,,826.779,2,audio/Narrative6Situation8.wav,831.7869,,831.787,838.6401,"[[73.9,1671],[70.3,1754],[70,1837],[68.3,1921],[60.5,2005],[58.3,2088],[48.1,2172],[41.6,2254],[30.6,2339],[23.8,2421],[16.4,2505],[12.2,2588],[10.3,2671],[10.3,2754],[10,2837],[9.8,2921],[9.4,3004],[8.6,3088],[8.1,3171],[7.5,3254],[7.5,3337],[7.3,3420],[7.3,3504],[5.2,3588],[5.2,3670],[5.2,3754],[4.8,3837],[4.8,3920],[3.6,4005],[2.2,4086],[1.6,4170],[1.1,4254],[1.1,4337],[0.9,4420],[0.9,4503],[0.6,4587],[0.3,4670]]",1,0,838.6403,841.8222,0,1.813,"[{""rating"":0,""responseTime"":1.8130000000001019}]",space,2.6331,,841.8223,Partially,50,841.8252,,,[],,0,8,8,8,1,audio/Narrative7Situation8.wav,audio/Narrative8Situation8.wav,audio/Narrative5Situation8.wav,audio/Narrative6Situation8.wav,2,3,3,5,,,,,,,,,,,,,,,,,,,,,,,,,,,,,,,,,,,,,,,
,,,,,,5d23460ad4c57900192b129c,2024-02-08_16h02.46.049,group3.1-3.2-social-tom,2023.2.2,Win32,60.24096386,65c5074098b851296ff0b7ed,65c5416080ce2dd1a455223d,,,,,,,,,,,,,,,,,,,,,,,,,,,,,841.8257,2,audio/Narrative6Situation9.wav,845.8375,,845.8376,855.7842,"[[2.2,1183],[2.2,1265],[2.2,1349],[2.2,1433],[2.2,1517],[2.2,1599],[2.2,1682],[2.2,1766],[2.2,1849],[2.2,1932],[2.2,2016],[2,2098],[1.9,2182],[1.7,2265],[1.6,2349],[1.6,2432],[1.4,2515],[1.3,2598],[1.3,2682],[1.3,2765],[1.3,2849],[1.3,2932],[1.3,3015],[1.3,3098],[1.3,3182],[1.3,3265],[1.3,3348],[1.3,3431],[1.3,3514],[1.3,3598],[1.3,3681],[1.3,3765],[1.3,3848],[1.3,3932],[1.3,4015],[1.3,4097],[1.3,4181],[1.3,4264],[1.3,4348],[1.1,4431],[1.1,4514],[1.1,4599],[1.1,4682],[1.1,4765],[1.1,4848],[1.1,4931],[1.1,5014],[1.1,5097],[1.1,5181],[1.1,5264],[1.1,5347],[1.1,5431],[1.1,5514],[1.1,5597],[1.1,5680],[1.1,5764],[1.1,5847],[1.1,5932],[1.1,6014],[1.1,6097],[1.1,6181],[1.1,6263],[1.1,6347],[1.1,6431],[1.1,6514],[1.1,6597],[1.1,6680],[1.1,6764],[1.1,6847],[1.1,6930],[1.1,7014],[1.1,7097],[1.1,7180],[1.1,7264],[1.1,7347],[1.1,7430],[1.1,7514],[1.1,7597],[1.1,7680],[1.1,7763],[1.1,7847],[1.1,7930],[1.1,8013],[1.1,8096],[1.1,8179],[1.1,8263],[1.1,8348],[1.1,8429],[1.1,8514],[1.1,8596],[1.1,8679],[1.1,8763],[1.1,8846],[1.1,8929],[1.1,9013],[1.1,9096],[1.1,9180],[1.1,9263],[1.1,9345],[1.1,9429],[1.1,9513],[1.1,9596],[1.1,9679],[1.1,9763],[1.1,9846],[1.1,9929]]",1,0,855.7846,859.346,0,2.6423,"[{""rating"":0,""responseTime"":2.642300000190744}]",space,3.0165,,859.3461,Definitely yes,100,859.3509,,,[],,0,9,9,9,1,audio/Narrative7Situation9.wav,audio/Narrative8Situation9.wav,audio/Narrative5Situation9.wav,audio/Narrative6Situation9.wav,2,3,3,4,,,,,,,,,,,,,,,,,,,,,,,,,,,,,,,,,,,,,,,
,,,,,,5d23460ad4c57900192b129c,2024-02-08_16h02.46.049,group3.1-3.2-social-tom,2023.2.2,Win32,60.24096386,65c5074098b851296ff0b7ed,65c5416080ce2dd1a455223d,,,,,,,,,,,,,,,,,,,,,,,,,,,,,859.3513,2,audio/Narrative5Situation1.wav,864.3647,,864.3647,877.6605,"[[0.9,683],[1.9,767],[7.5,1516],[6.3,1600],[5.8,1682],[5.5,1766],[5.5,1849],[5.5,1931],[10.9,2016],[12,2099],[17.7,2182],[27.5,2266],[32.8,2349],[37,2432],[39.5,2515],[43.3,2599],[47.7,2683],[50.8,2766],[50.8,2849],[50.8,2932],[50.8,3015],[50,3099],[48.1,3182],[45.8,3265],[43.6,3348],[40.9,3432],[35,3515],[34.2,3599],[32.8,3682],[32.8,3765],[31.3,3848],[29.5,3931],[29.5,4015],[29.5,4099],[29.5,4182],[29.5,4264],[29.5,4349],[29.5,4431],[29.5,4514],[29.5,4598],[29.5,4681],[29.5,4765],[29.5,4848],[29.5,4931],[29.5,5015],[29.5,5098],[29.5,5181],[29.5,5264],[28.8,5348],[28,5431],[27.7,5514],[27.3,5598],[19.5,5681],[19.1,5764],[19.1,5847],[19.1,5930],[19.1,6014],[19.1,6097],[18.8,6181],[12.5,6264],[12.2,6347],[11.7,6430],[11.7,6514],[11.7,6597],[11.7,6681],[10.8,6764],[7.7,6847],[6.4,6931],[5.9,7014],[4.4,7097],[4.2,7180],[4.2,7264],[4.2,7347],[4.2,7430],[4.2,7514],[4.2,7597],[4.2,7679],[4.2,7763],[3.8,7847],[3.1,7931],[2.7,8014],[2.7,8097],[2.7,8180],[2.7,8263],[2.7,8346],[2.7,8430],[2.7,8513],[2.7,8596],[2.7,8680],[2.5,8764],[2.5,8846],[2.3,8929],[2.3,9014],[1.7,9097],[1.1,9180],[1.1,9263],[1.1,9346],[1.1,9429],[1.6,9513],[4.8,9596],[6.3,9681],[13,9763],[27.8,9847],[41.4,9930],[42.8,10013],[44.5,10097],[51.9,10179],[51.9,10262],[51.9,10346],[51.9,10429],[51.9,10512],[51.9,10596],[51.9,10680],[51.9,10762],[51.9,10846],[51.9,10929],[51.9,11012],[52.2,11095],[52.2,11179],[52.2,11262],[52.2,11346],[52.7,11429],[52.7,11512],[52.7,11596],[52.8,11679],[53,11762],[53,11846],[53,11928],[53,12011],[53,12096],[53,12178],[53,12262],[53,12345],[53,12428],[53,12512],[53,12595],[53,12679],[53,12762],[53,12845],[53,12928],[53,13012],[53,13094],[53,13178],[53,13261]]",1,0,877.6608,880.4216,24.06249779,1.9939,"[{""rating"":24.06249779276557,""responseTime"":1.9939000000954366}]",space,2.2167,,880.4217,Partially,50,880.4268,,,[],,0,10,10,10,1,audio/Narrative8Situation1.wav,audio/Narrative7Situation1.wav,audio/Narrative6Situation1.wav,audio/Narrative5Situation1.wav,5,2,2,5,,,,,,,,,,,,,,,,,,,,,,,,,,,,,,,,,,,,,,,
,,,,,,5d23460ad4c57900192b129c,2024-02-08_16h02.46.049,group3.1-3.2-social-tom,2023.2.2,Win32,60.24096386,65c5074098b851296ff0b7ed,65c5416080ce2dd1a455223d,,,,,,,,,,,,,,,,,,,,,,,,,,,,,880.4272,2,audio/Narrative5Situation2.wav,883.4418,,883.4419,912.9103,"[[27.3,928],[35.9,1011],[35.9,1095],[35.9,1177],[35.9,1260],[35.9,1344],[29.1,1428],[28,1510],[28,1594],[23.3,1678],[17,1760],[16.3,1844],[16.3,1927],[16.3,2010],[16.3,2089],[16.3,2177],[18,2261],[21.9,2343],[24.8,2428],[46.6,2511],[47.8,2589],[50,2678],[52.3,2760],[52.3,2839],[52.3,2922],[52,3009],[51.7,3094],[51.7,3176],[50.8,3261],[49.1,3344],[49.1,3422],[49.1,3509],[49.1,3593],[49.1,3672],[52.7,3760],[52.7,3843],[54.2,3927],[56.7,4005],[57.7,4093],[59.5,4177],[61.6,4260],[62.8,4339],[62.8,4426],[65,4510],[73.3,4594],[73.6,4675],[73.6,4759],[73.6,4842],[73.6,4926],[73.6,5009],[73.6,5092],[73.6,5176],[73.6,5259],[73.6,5338],[73.6,5426],[73.6,5508],[73.6,5587],[77,5676],[77.3,5759],[77.5,5842],[78,5922],[79.1,6009],[82.3,6093],[83,6172],[83,6259],[84.4,6343],[86.6,6422],[86.7,6508],[87,6593],[87.3,6677],[87.3,6759],[87.3,6843],[87.3,6924],[87.3,7008],[87.3,7087],[87.3,7174],[87.3,7258],[87.3,7342],[87.3,7421],[87.3,7509],[87.3,7592],[87.3,7675],[87.3,7759],[86.9,7843],[86.9,7925],[86.9,8009],[86.9,8091],[86.9,8175],[86.9,8258],[86.9,8341],[86.9,8425],[86.9,8504],[86.9,8591],[86.9,8675],[86.9,8753],[86.9,8842],[86.9,8925],[86.9,9004],[86.9,9091],[86.9,9175],[86.9,9258],[86.9,9341],[86.9,9425],[86.9,9508],[86.9,9587],[86.9,9674],[86.9,9757],[86.9,9837],[86.9,9924],[86.9,10007],[86.9,10087],[86.9,10174],[86.9,10257],[86.9,10336],[86.9,10424],[86.9,10507],[86.9,10586],[86.9,10674],[86.9,10753],[86.9,10840],[86.9,10924],[86.9,11003],[86.9,11090],[86.9,11174],[86.9,11256],[86.9,11340],[86.9,11424],[86.9,11507],[86.9,11590],[86.4,11689],[86.4,11769],[86.4,11852],[85.6,11941],[85.3,12019],[85.3,12107],[85.3,12190],[86.9,12274],[87.8,12353],[88.3,12439],[88.6,12523],[89.7,12608],[93.1,12690],[93.4,12775],[93.4,12857],[93.4,12935],[93.4,13023],[93.4,13107],[94.5,13190],[95.9,13274],[96.4,13357],[96.4,13440],[96.4,13523],[95.8,13606],[95.8,13689],[95.6,13769],[93.9,13857],[90.2,13940],[88.8,14023],[88.8,14106],[88.8,14190],[82.5,14773],[88.8,14856],[88.6,14936],[80,15023],[78.8,15107],[74.5,15186],[69.1,15273],[66.9,15356],[64.5,15440],[63.6,15522],[63.6,15606],[62,15690],[60.8,15773],[60.6,15856],[55,15940],[53.9,16023],[46.9,16106],[44.5,16189],[34.2,16272],[29.4,16356],[24.8,16434],[22.5,16522],[19.2,16605],[15.2,16689],[11.3,16773],[6.1,16855],[3.9,16939],[0.3,17023],[1.3,22370],[2.2,22454],[21.7,22538],[63.9,22621],[72.7,22703],[73.1,22788],[78.6,22871],[82,22954],[87.5,23037],[90.6,23121],[90.6,23198],[90.6,23287],[90.6,23370],[90.6,23453],[90.6,23533],[90.6,23620],[90.6,23703],[90.6,23787],[90.6,23865],[90.6,23953],[90.6,24032],[85.6,24120],[84.8,24203],[84.8,24287],[82.8,24370],[82.8,24453],[82.8,24536],[82.8,24619],[82.8,24702],[82.8,24786],[82.8,24869],[82.8,24949],[82.8,25035],[82.8,25119],[82.8,25199],[82.8,25286],[82.8,25369],[82.8,25448],[82.8,25531],[82.8,25619],[82.8,25697],[82.8,25785],[82.8,25869],[82.8,25951],[82.8,26032],[82.8,26119],[82.8,26202],[82.8,26281],[82.8,26369],[82.8,26452],[82.8,26532],[82.8,26618],[82.8,26702],[82.8,26781],[82.8,26869],[82.8,26952],[82.8,27034],[82.8,27118],[82.8,27202],[82.8,27285],[82.8,27364],[82.8,27447],[82.8,27535],[82.8,27619],[82.8,27702],[82.8,27785],[82.8,27869],[82.8,27951],[82.8,28035],[82.8,28114],[82.8,28201],[82.8,28281],[82.8,28368],[82.8,28451],[82.8,28531],[82.8,28618],[82.8,28701],[82.8,28785],[82.8,28867],[82.8,28951],[82.8,29035],[82.8,29113],[82.8,29201],[82.8,29285],[82.8,29368],[82.8,29452]]",1,0,912.9107,915.4471,56.40624683,2.1321,"[{""rating"":56.406246828846726,""responseTime"":2.1320999999046535}]",space,2.0001,,915.4473,Partially,50,915.4499,,,[],,0,11,11,11,1,audio/Narrative8Situation2.wav,audio/Narrative7Situation2.wav,audio/Narrative6Situation2.wav,audio/Narrative5Situation2.wav,3,3,3,3,,,,,,,,,,,,,,,,,,,,,,,,,,,,,,,,,,,,,,,
,,,,,,5d23460ad4c57900192b129c,2024-02-08_16h02.46.049,group3.1-3.2-social-tom,2023.2.2,Win32,60.24096386,65c5074098b851296ff0b7ed,65c5416080ce2dd1a455223d,,,,,,,,,,,,,,,,,,,,,,,,,,,,,915.4503,2,audio/Narrative5Situation3.wav,918.463,,918.463,932.3877,"[[999,0],[999,95],[999,172],[999,257],[999,345],[999,428],[999,507],[999,595],[999,678],[999,761],[999,845],[999,928],[999,1011],[999,1095],[999,1178],[999,1262],[999,1345],[999,1423],[999,1512],[50.5,1595],[43.3,1678],[27.7,1761],[26.6,1845],[24.8,1928],[23.9,2011],[23.9,2095],[24.1,2178],[24.1,2260],[24.1,2345],[21.9,2427],[21.9,2511],[21.3,2593],[16.1,2678],[15,2757],[15,2844],[15,2927],[26.7,3012],[39.2,3094],[40.2,3178],[43.8,3261],[44.8,3344],[50,3427],[51.3,3510],[51.3,3593],[51.3,3677],[51.3,3760],[51.3,3843],[51.3,3923],[51.3,4010],[51.3,4094],[51.3,4172],[51.3,4259],[51.3,4344],[51.3,4426],[51.3,4510],[51.3,4594],[51.3,4676],[51.3,4760],[51.3,4843],[51.3,4922],[51.3,5010],[51.3,5093],[51.3,5172],[54.1,5260],[62.5,5344],[87.7,5426],[100,5510],[100,5593],[100,5677],[100,5756],[100,5843],[100,5926],[100,6010],[100,6093],[100,6176],[100,6260],[100,6342],[100,6422],[100,6509],[100,6592],[100,6676],[100,6759],[100,6842],[100,6920],[100,7009],[100,7092],[100,7176],[100,7254],[100,7342],[100,7421],[100,7509],[100,7588],[100,7675],[100,7759],[100,7842],[100,7925],[100,8009],[100,8092],[100,8175],[100,8259],[100,8342],[100,8425],[100,8510],[100,8592],[100,8675],[100,8759],[100,8837],[100,8925],[100,9008],[100,9091],[100,9170],[100,9254],[100,9341],[100,9420],[100,9508],[100,9591],[100,9675],[100,9754],[100,9842],[100,9920],[100,10008],[100,10092],[100,10174],[100,10258],[100,10341],[100,10424],[100,10508],[100,10591],[100,10674],[100,10758],[100,10840],[100,10925],[100,11003],[100,11091],[100,11174],[100,11257],[100,11341],[100,11424],[100,11507],[100,11591],[100,11675],[100,11756],[100,11841],[100,11920],[100,12003],[100,12091],[100,12169],[100,12257],[100,12340],[100,12419],[100,12507],[100,12591],[100,12674],[100,12757],[100,12841],[100,12924],[100,13007],[100,13091],[100,13173],[100,13258],[100,13336],[100,13422],[100,13507],[100,13590],[100,13673],[100,13757],[100,13840],[100,13924]]",1,0,932.3879,935.0743,94.2187457,1.8136,"[{""rating"":94.21874570194643,""responseTime"":1.813600000143083}]",space,2.1542,,935.0744,Definitely yes,100,935.0792,,,[],,0,12,12,12,1,audio/Narrative8Situation3.wav,audio/Narrative7Situation3.wav,audio/Narrative6Situation3.wav,audio/Narrative5Situation3.wav,4,8,5,3,,,,,,,,,,,,,,,,,,,,,,,,,,,,,,,,,,,,,,,
,,,,,,5d23460ad4c57900192b129c,2024-02-08_16h02.46.049,group3.1-3.2-social-tom,2023.2.2,Win32,60.24096386,65c5074098b851296ff0b7ed,65c5416080ce2dd1a455223d,,,,,,,,,,,,,,,,,,,,,,,,,,,,,935.0796,2,audio/Narrative5Situation4.wav,936.0911,,936.0911,956.4952,"[[93.4,1582],[92,1666],[90.9,1748],[88.9,1831],[77.7,1914],[76.3,1999],[67.8,2082],[62.5,2165],[58,2249],[54.1,2331],[50.2,2415],[38.1,2498],[36.6,2582],[32.3,2665],[30.2,2748],[30,2831],[30,2915],[30,2998],[30,3081],[30,3165],[30,3248],[28.4,3332],[28.1,3414],[28.1,3498],[28.1,3581],[28,3664],[26.7,3748],[25.6,3831],[20.8,3915],[19.7,3998],[17.3,4081],[13.6,4165],[11.4,4248],[10,4331],[9.5,4414],[9.4,4497],[9.4,4580],[7.8,4664],[5.5,4748],[4.8,4830],[3.9,4915],[1.7,4997],[0.2,5331],[0.2,5414],[0.2,5497],[0.2,5580],[0.2,5663],[0.2,5747],[2.7,9012],[2.7,9095],[2.8,9180],[4.4,9263],[6.3,9347],[7.5,9430],[11.9,9513],[15.8,9596],[15.8,9679],[15.8,9762],[15.8,9845],[15.8,9929],[15.8,10012],[15.8,10095],[15.8,10178],[15.8,10262],[15.2,10346],[11.3,10428],[11.3,10512],[9.2,10596],[7.2,10679],[1.4,10763],[1.1,10845],[1.1,10928],[1.1,11011],[1.1,11095],[1.1,11178],[1.1,11262],[1.1,11345],[1.1,11428],[1.1,11511],[1.1,11595],[1.1,11678],[1.1,11762],[1.1,11845],[1.1,11928],[1.1,12011],[1.1,12095],[1.1,12178],[1.1,12261],[1.1,12344],[1.1,12428],[1.1,12511],[1.1,12595],[1.1,12678],[1.1,12760],[1.1,12844],[1.1,12928],[1.1,13011],[1.1,13094],[1.1,13178],[1.1,13261],[1.1,13344],[1.1,13427],[1.1,13510],[1.1,13594],[1.1,13678],[1.1,13761],[1.1,13845],[1.1,13928],[1.1,14011],[1.1,14094],[1.1,14177],[1.1,14260],[1.1,14344],[1.1,14427],[1.1,14510],[1.1,14593],[1.1,14677],[1.1,14760],[1.1,14844],[1.1,14927],[2.5,15019],[8.1,15106],[18.4,15189],[30.2,15273],[39.2,15356],[47.5,15439],[57.3,15523],[75.9,15605],[80.5,15689],[85.9,15772],[97.7,15855],[100,15940],[100,16021],[100,16105],[100,16188],[100,16271],[100,16355],[100,16433],[100,16521],[100,16605],[100,16686],[100,16772],[100,16855],[100,16938],[100,17021],[100,17104],[100,17187],[100,17271],[100,17354],[100,17437],[100,17516],[100,17602],[100,17687],[100,17772],[100,17854],[100,17937],[100,18021],[100,18104],[100,18187],[100,18271],[100,18354],[100,18438],[100,18520],[100,18603],[100,18687],[100,18765],[100,18853],[100,18938],[100,19020],[100,19103],[100,19187],[100,19270],[100,19350],[100,19432],[100,19520],[100,19604],[100,19686],[97.8,19789],[97.8,19870],[97.8,19953],[97.5,20037],[97.5,20120],[97.5,20203],[97.5,20286],[98.9,20371]]",1,0,956.4954,958.6996,73.12499633,1.5843,"[{""rating"":73.12499633058917,""responseTime"":1.58429999995235}]",space,1.6629,,958.6998,Partially,50,958.7048,,,[],,0,13,13,13,1,audio/Narrative8Situation4.wav,audio/Narrative7Situation4.wav,audio/Narrative6Situation4.wav,audio/Narrative5Situation4.wav,3,3,2,1,,,,,,,,,,,,,,,,,,,,,,,,,,,,,,,,,,,,,,,
,,,,,,5d23460ad4c57900192b129c,2024-02-08_16h02.46.049,group3.1-3.2-social-tom,2023.2.2,Win32,60.24096386,65c5074098b851296ff0b7ed,65c5416080ce2dd1a455223d,,,,,,,,,,,,,,,,,,,,,,,,,,,,,958.7053,2,audio/Narrative5Situation5.wav,963.7148,,963.7148,979.1424,"[[73.4,766],[73.4,849],[73.4,932],[73.6,1016],[73.6,1099],[73.6,1181],[73.6,1265],[73.6,1348],[73.6,1432],[73.6,1515],[73,1599],[59.7,1683],[58.6,1766],[44.2,1849],[40.8,1932],[33.6,2016],[29.7,2099],[27.3,2182],[10.2,2266],[9.2,2348],[9.1,2432],[6.4,2515],[5.8,2598],[3.3,2682],[1.9,2765],[1.9,2848],[1.6,2932],[1.6,3015],[1.6,3098],[1.6,3182],[1.6,3265],[6.1,3349],[7.2,3432],[14.5,3515],[26.9,3599],[34.5,3682],[37.3,3765],[39.7,3849],[41.7,3931],[45,4015],[45,4097],[45,4180],[36.7,4266],[31.1,4348],[17,4431],[15,4516],[11.6,4599],[5.8,4682],[2,4765],[35.3,5931],[45.2,6015],[53.8,6097],[54.2,6180],[54.2,6263],[53.8,6348],[52.3,6430],[51.9,6515],[50,6597],[49.8,6680],[49.8,6763],[49.8,6846],[49.8,6930],[49.8,7014],[49.8,7097],[49.8,7180],[49.8,7263],[49.8,7346],[49.8,7430],[49.8,7513],[49.8,7597],[49.8,7679],[49.8,7763],[49.8,7846],[49.8,7930],[49.8,8013],[49.8,8097],[49.8,8180],[49.8,8263],[49.8,8347],[49.8,8429],[49.8,8513],[49.8,8596],[49.8,8680],[49.8,8763],[49.8,8846],[49.8,8930],[49.8,9013],[49.8,9096],[49.8,9179],[49.8,9263],[49.8,9346],[49.8,9430],[49.8,9512],[49.8,9595],[49.8,9679],[49.8,9763],[49.8,9846],[49.8,9929],[49.8,10012],[49.8,10096],[49.8,10179],[49.8,10262],[49.8,10345],[49.8,10429],[49.8,10513],[49.8,10595],[49.8,10679],[49.8,10762],[49.8,10846],[49.8,10929],[49.8,11012],[49.8,11095],[49.8,11179],[49.8,11262],[49.8,11345],[49.8,11428],[49.8,11511],[49.8,11595],[49.8,11679],[49.8,11763],[49.8,11845],[49.8,11928],[49.8,12012],[49.8,12095],[49.8,12178],[49.8,12262],[49.8,12345],[49.8,12429],[49.8,12512],[50.8,12602],[52.5,12679],[53.4,12761],[53.6,12844],[54.7,12929],[56.4,13012],[57.3,13095],[58.3,13179],[59.1,13262],[59.1,13345],[59.1,13428],[59.1,13512],[59.1,13595],[59.1,13678],[59.1,13761],[59.1,13844],[59.1,13928],[59.1,14012],[59.1,14094],[59.1,14178],[59.1,14261],[59.1,14344],[59.1,14427],[59.1,14511],[59.1,14594],[59.1,14677],[59.1,14761],[59.1,14844],[59.1,14927],[59.1,15011],[59.1,15094],[59.1,15177],[59.1,15261],[59.1,15344],[59.1,15427]]",1,0,979.1428,980.7419,56.56249682,0.8628,"[{""rating"":56.56249682419011,""responseTime"":0.8627999999522444}]",space,1.0637,,980.7421,Not at all,0,980.7474,,,[],,0,14,14,14,1,audio/Narrative8Situation5.wav,audio/Narrative7Situation5.wav,audio/Narrative6Situation5.wav,audio/Narrative5Situation5.wav,2,5,2,5,,,,,,,,,,,,,,,,,,,,,,,,,,,,,,,,,,,,,,,
,,,,,,5d23460ad4c57900192b129c,2024-02-08_16h02.46.049,group3.1-3.2-social-tom,2023.2.2,Win32,60.24096386,65c5074098b851296ff0b7ed,65c5416080ce2dd1a455223d,,,,,,,,,,,,,,,,,,,,,,,,,,,,,980.7478,2,audio/Narrative5Situation6.wav,983.758,,983.7581,989.4335,"[[55,1344],[55,1427],[55,1504],[55,1593],[55,1672],[55,1760],[55,1843],[55,1927],[55,2009],[54.5,2094],[51.7,2177],[49.5,2260],[43.8,2343],[39.4,2427],[31.1,2510],[30.2,2593],[28.3,2677],[20,2760],[17.2,2844],[16.6,2926],[16.3,3009],[16.3,3087],[23.4,3177],[32,3260],[59.4,3343],[59.8,3426],[59.8,3507],[59.8,3592],[57.5,3677],[53.1,3760],[48.4,3843],[48.4,3924],[48.4,4009],[48.4,4092],[49.7,4177],[50.6,4254],[50.6,4342],[50.6,4426],[50.6,4507],[50.6,4592],[50.6,4676],[50.6,4753],[50.6,4842],[50.6,4924],[50.6,5009],[50.6,5092],[50.6,5170],[50.6,5259],[50.6,5342],[50.6,5425],[50.6,5509],[50.6,5590],[50.6,5675]]",1,0,989.4338,991.6219,44.37499719,1.6515,"[{""rating"":44.37499718740591,""responseTime"":1.6515000000000555}]",space,1.6511,,991.6221,Not at all,0,991.6255,,,[],,0,15,15,15,1,audio/Narrative8Situation6.wav,audio/Narrative7Situation6.wav,audio/Narrative6Situation6.wav,audio/Narrative5Situation6.wav,2,3,2,3,,,,,,,,,,,,,,,,,,,,,,,,,,,,,,,,,,,,,,,
,,,,,,5d23460ad4c57900192b129c,2024-02-08_16h02.46.049,group3.1-3.2-social-tom,2023.2.2,Win32,60.24096386,65c5074098b851296ff0b7ed,65c5416080ce2dd1a455223d,,,,,,,,,,,,,,,,,,,,,,,,,,,,,991.6261,2,audio/Narrative5Situation7.wav,995.6365,,995.6366,1016.68,"[[39.8,1695],[36.4,1777],[35.8,1862],[35.8,1944],[35.8,2028],[34.4,2112],[30.5,2195],[29.7,2279],[22.5,2361],[22.5,2444],[22.5,2528],[21.9,2612],[12.7,2695],[10,2779],[3.6,2862],[3,2941],[3.8,6381],[10.3,6461],[23,6545],[23,6626],[23,6710],[23.1,6794],[15,6877],[12.5,6960],[9.7,7043],[9.7,7126],[9.7,7210],[9.7,7292],[12.7,7377],[12.7,7459],[12.7,7543],[12.7,7626],[12.7,7710],[12.7,7792],[12.7,7876],[12.7,7960],[13.9,8043],[18,8127],[18,8209],[18,8291],[18,8376],[18,8455],[18,8542],[18,8626],[17.8,8709]]",1,0,1016.6803,1018.9425,9.06249824,1.4747,"[{""rating"":9.062498239800382,""responseTime"":1.4747000000477328}]",space,1.7168,,1018.9426,Definitely yes,100,1018.9474,,,[],,0,16,16,16,1,audio/Narrative8Situation7.wav,audio/Narrative7Situation7.wav,audio/Narrative6Situation7.wav,audio/Narrative5Situation7.wav,3,5,5,4,,,,,,,,,,,,,,,,,,,,,,,,,,,,,,,,,,,,,,,
,,,,,,5d23460ad4c57900192b129c,2024-02-08_16h02.46.049,group3.1-3.2-social-tom,2023.2.2,Win32,60.24096386,65c5074098b851296ff0b7ed,65c5416080ce2dd1a455223d,,,,,,,,,,,,,,,,,,,,,,,,,,,,,1018.9478,2,audio/Narrative5Situation8.wav,1021.9618,,1021.962,1030.8009,"[[8.8,1099],[8.1,1182],[7.8,1265],[7.8,1349],[7.8,1432],[7.8,1515],[7.7,1599],[7.5,1683],[7.5,1765],[7.5,1848],[6.9,1932],[3.3,2014],[3.3,2098],[3.3,2182],[3.3,2265],[3.3,2349],[3.3,2432],[2.8,2515],[2.8,2599],[2.5,2683],[1.9,2765],[1.7,2848],[1.7,2932],[1.6,3015],[1.6,3098],[1.3,3182],[0.8,3265],[0.6,3347],[0.6,3431],[0.6,3514],[0.6,3598],[0.6,3681],[0.6,3766],[0.6,3848],[0.6,3932],[0.6,4016],[0.6,4098],[0.6,4180],[0.6,4264],[0.6,4348],[0.6,4431],[0.6,4515],[0.6,4598],[0.6,4680],[0.6,4764],[0.6,4848],[0.6,4931],[0.6,5014],[0.6,5097],[0.6,5181],[0.6,5263],[0.6,5347],[0.6,5431],[0.6,5514],[0.6,5597],[0.6,5681],[0.6,5764],[0.6,5847],[0.6,5930],[0.6,6014],[0.6,6097],[0.6,6180],[0.6,6263],[0.6,6347],[0.6,6430],[0.6,6514],[0.6,6596],[0.6,6680],[0.6,6764],[0.6,6846],[0.6,6929],[0.6,7013],[0.6,7097],[0.6,7180],[0.6,7263],[0.6,7347],[0.6,7430],[0.6,7513],[0.6,7596],[0.6,7680],[0.6,7763],[0.6,7846],[0.6,7930],[0.6,8013],[0.6,8096],[0.6,8180],[0.6,8263],[0.6,8346],[0.6,8429],[0.6,8513],[0.6,8596],[0.6,8679],[0.6,8763]]",1,0,1030.8011,1032.3381,0,0.9024,"[{""rating"":0,""responseTime"":0.9023999998569252}]",space,1.0007,,1032.3382,Not at all,0,1032.3429,,,[],,0,17,17,17,1,audio/Narrative8Situation8.wav,audio/Narrative7Situation8.wav,audio/Narrative6Situation8.wav,audio/Narrative5Situation8.wav,3,2,5,3,,,,,,,,,,,,,,,,,,,,,,,,,,,,,,,,,,,,,,,
