exp_question,consent.started,consent.stopped,consentResponse.keys,consentResponse.rt,consentResponse.duration,participantID,date,expName,psychopyVersion,OS,frameRate,STUDY_ID,SESSION_ID,opening1.started,opening1.stopped,keyEndingOpening1.keys,keyEndingOpening1.rt,keyEndingOpening1.duration,volumeAdjust.started,volumeAdjust.stopped,endingAdjust.keys,endingAdjust.rt,endingAdjust.duration,opening2.started,opening2.stopped,keyEndingOpening.keys,keyEndingOpening.rt,keyEndingOpening.duration,mouse.x,mouse.y,mouse.leftButton,mouse.midButton,mouse.rightButton,mouse.time,instructionLoop.thisRepN,instructionLoop.thisTrialN,instructionLoop.thisN,instructionLoop.thisIndex,instructionLoop.ran,readyForAudio.started,readyForAudio.stopped,fixation.started,run,audio_played,fixation.stopped,endPractice.keys,audioPre.started,audioPre.stopped,continuousResponses_audio,continuousSlider.response,continuousSlider.rt,intRating.started,intRating.stopped,intQuestionSlider.response,intQuestionSlider.rt,intQuestionSlider.history,confirmResponse.keys,confirmResponse.rt,confirmResponse.duration,catchQuestion.started,catch_label,catch_value,catchQuestion.stopped,catchQuestionSlider.response,catchQuestionSlider.rt,catchQuestionSlider.history,confirmResponse_2.keys,audioRunLoop.thisRepN,audioRunLoop.thisTrialN,audioRunLoop.thisN,audioRunLoop.thisIndex,audioRunLoop.ran,conditions1_1,conditions2_1,conditions1_2,conditions2_2,dur1_1,dur2_1,dur1_2,dur2_2,endPractice.rt,endPractice.duration,confirmResponse_2.rt,confirmResponse_2.duration,runIntervalBreak.started,runIntervalBreak.stopped,endingBreakKey.keys,endingBreakKey.rt,endingBreakKey.duration,connection.started,connection.stopped,connectionEnding.keys,connectionEnding.rt,connectionEnding.duration,readyForText.started,readyForText.stopped,textPre.started,run_dup,textPre.stopped,continuousResponses_text,textRunLoop.thisRepN,textRunLoop.thisTrialN,textRunLoop.thisN,textRunLoop.thisIndex,textRunLoop.ran,text1_1,text1_2,text2_1,text2_2,runBreakText.started,runBreakText.stopped,endingBreakKey_2.keys,endingBreakKey_2.rt,endingBreakKey_2.duration,ending.started,ending.stopped,endingEnding.keys,endingEnding.rt,endingEnding.duration
tom,0.0002,12.9253,y,12.6011,,5d3221b8eb6cfa0001950113,2024-05-13_08h37.46.809,group3.1-3.2-social-tom,2023.2.2,Win32,59.88023952,65c5074098b851296ff0b7ed,664231bc7dbfb31964f5004b,,,,,,,,,,,,,,,,,,,,,,,,,,,,,,,,,,,,,,,,,,,,,,,,,,,,,,,,,,,,,,,,,,,,,,,,,,,,,,,,,,,,,,,,,,,,,,,,,,,,,,,,,,
,,,,,,5d3221b8eb6cfa0001950113,2024-05-13_08h37.46.809,group3.1-3.2-social-tom,2023.2.2,Win32,59.88023952,65c5074098b851296ff0b7ed,664231bc7dbfb31964f5004b,12.9255,17.1506,space,4.1988,,,,,,,,,,,,,,,,,,,,,,,,,,,,,,,,,,,,,,,,,,,,,,,,,,,,,,,,,,,,,,,,,,,,,,,,,,,,,,,,,,,,,,,,,,,,,,,,,,,,,,
,,,,,,5d3221b8eb6cfa0001950113,2024-05-13_08h37.46.809,group3.1-3.2-social-tom,2023.2.2,Win32,59.88023952,65c5074098b851296ff0b7ed,664231bc7dbfb31964f5004b,,,,,,17.1508,31.9684,space,14.4851,,,,,,,,,,,,,,,,,,,,,,,,,,,,,,,,,,,,,,,,,,,,,,,,,,,,,,,,,,,,,,,,,,,,,,,,,,,,,,,,,,,,,,,,,,,,,,,,,
,,,,,,5d3221b8eb6cfa0001950113,2024-05-13_08h37.46.809,group3.1-3.2-social-tom,2023.2.2,Win32,59.88023952,65c5074098b851296ff0b7ed,664231bc7dbfb31964f5004b,,,,,,,,,,,31.9917,42.0006,space,9.9906,,[],[],[],[],[],[],0,0,0,0,1,,,,,,,,,,,,,,,,,,,,,,,,,,,,,,,,,,,,,,,,,,,,,,,,,,,,,,,,,,,,,,,,,,,,,,,,,,,,,,,,
,,,,,,5d3221b8eb6cfa0001950113,2024-05-13_08h37.46.809,group3.1-3.2-social-tom,2023.2.2,Win32,59.88023952,65c5074098b851296ff0b7ed,664231bc7dbfb31964f5004b,,,,,,,,,,,42.0099,58.2977,space,16.2018,,[],[],[],[],[],[],1,0,1,0,1,,,,,,,,,,,,,,,,,,,,,,,,,,,,,,,,,,,,,,,,,,,,,,,,,,,,,,,,,,,,,,,,,,,,,,,,,,,,,,,,
,,,,,,5d3221b8eb6cfa0001950113,2024-05-13_08h37.46.809,group3.1-3.2-social-tom,2023.2.2,Win32,59.88023952,65c5074098b851296ff0b7ed,664231bc7dbfb31964f5004b,,,,,,,,,,,58.3076,60.4475,space,2.0997,,[],[],[],[],[],[],2,0,2,0,1,,,,,,,,,,,,,,,,,,,,,,,,,,,,,,,,,,,,,,,,,,,,,,,,,,,,,,,,,,,,,,,,,,,,,,,,,,,,,,,,
,,,,,,5d3221b8eb6cfa0001950113,2024-05-13_08h37.46.809,group3.1-3.2-social-tom,2023.2.2,Win32,59.88023952,65c5074098b851296ff0b7ed,664231bc7dbfb31964f5004b,,,,,,,,,,,60.4479,78.8301,space,18.356,,[],[],[],[],[],[],3,0,3,0,1,,,,,,,,,,,,,,,,,,,,,,,,,,,,,,,,,,,,,,,,,,,,,,,,,,,,,,,,,,,,,,,,,,,,,,,,,,,,,,,,
,,,,,,5d3221b8eb6cfa0001950113,2024-05-13_08h37.46.809,group3.1-3.2-social-tom,2023.2.2,Win32,59.88023952,65c5074098b851296ff0b7ed,664231bc7dbfb31964f5004b,,,,,,,,,,,78.8404,86.1794,space,7.316,,[],[],[],[],[],[],4,0,4,0,1,,,,,,,,,,,,,,,,,,,,,,,,,,,,,,,,,,,,,,,,,,,,,,,,,,,,,,,,,,,,,,,,,,,,,,,,,,,,,,,,
,,,,,,5d3221b8eb6cfa0001950113,2024-05-13_08h37.46.809,group3.1-3.2-social-tom,2023.2.2,Win32,59.88023952,65c5074098b851296ff0b7ed,664231bc7dbfb31964f5004b,,,,,,,,,,,,,,,,,,,,,,,,,,,86.19,88.7634,88.7824,1,audio/Narrative13Situation2.wav,90.7963,,90.797,120.5513,"[[999,1],[999,86],[999,170],[999,249],[999,332],[999,420],[999,499],[999,587],[26,672],[23.5,754],[23.3,833],[34.2,921],[43.2,1004],[44.2,1087],[47,1171],[51.6,1254],[53.3,1337],[54,1415],[54,1499],[51.8,1588],[50.9,1670],[50.3,1754],[50.3,1831],[50.3,1920],[50.3,2004],[50.3,2081],[50.3,2165],[50.3,2254],[50.3,2332],[50.3,2420],[50.3,2498],[50.3,2586],[50.3,2665],[50.3,2748],[50.3,2831],[50.3,2915],[50.3,2998],[50.3,3081],[50.3,3165],[50.3,3254],[50.3,3331],[50.3,3420],[50.3,3498],[50.3,3581],[50.3,3665],[50.3,3748],[50.7,3832],[51.8,3915],[53.5,4004],[55.2,4081],[57.7,4171],[59.4,4248],[61,4332],[61.8,4420],[62.2,4498],[62.4,4581],[62.5,4665],[62.5,4748],[62.5,4831],[62.5,4920],[62.5,4998],[62.5,5086],[62.5,5165],[62.3,5249],[61.5,5338],[61.4,5414],[61.4,5503],[61.4,5581],[61.4,5670],[61.1,5754],[61.1,5831],[59.9,5920],[56.5,6004],[54.9,6087],[53,6171],[50.9,6248],[46.4,6332],[44.1,6420],[42.5,6504],[40.8,6582],[40.2,6670],[39.8,6748],[39.2,6837],[38.3,6920],[37.9,7003],[37.4,7087],[36.8,7165],[36.1,7254],[36,7336],[36,7418],[36,7503],[36,7586],[36,7665],[36,7748],[35.9,7837],[38.9,9253],[36.9,9337],[36.6,9414],[36.6,9498],[36.9,9587],[37,9664],[38.4,9748],[40.1,9838],[40.4,9920],[40.8,10004],[41,10081],[41.1,10164],[42.2,10253],[42.5,10331],[42.5,10420],[43.8,10504],[45.6,10587],[45.8,10670],[47,10754],[47.4,10831],[47.9,10920],[49,10998],[49.5,11086],[50,11164],[51,11248],[51.3,11331],[51.3,11414],[51.3,11498],[51.3,11586],[51.3,11664],[51.3,11747],[50.6,11831],[50.6,11914],[50.6,11997],[50.6,12081],[50.6,12164],[50.6,12253],[50.6,12331],[50.6,12419],[50.6,12497],[50.4,12581],[50.4,12664],[50.4,12747],[50.4,12831],[50.4,12914],[50.7,12997],[51.4,13087],[51.4,13164],[51.4,13251],[51.4,13336],[51.6,13414],[52.9,13504],[53.6,13587],[53.6,13664],[53.9,13747],[53.1,13837],[47.7,13920],[43.8,14003],[42.4,14087],[40.9,14164],[40.2,14247],[39.7,14331],[39.7,14414],[39,14498],[37.7,14585],[35.5,14671],[34.2,14747],[34,14831],[34,14914],[34,14997],[34,15081],[34,15164],[33.4,15253],[32.9,15331],[32.9,15414],[32.9,15497],[32.9,15581],[32.9,15664],[33.8,15753],[37.6,15837],[38.5,15920],[38.8,15997],[38.8,16081],[39,16170],[39.1,16247],[39.3,16336],[40,16420],[40.1,16497],[40.1,16586],[40.6,16670],[41.4,16753],[41.4,16834],[41.4,16914],[42.3,17003],[43,17081],[43,17164],[43,17252],[43.2,17331],[43.6,17419],[43.6,17497],[43.8,17581],[43.8,17664],[43.8,17747],[44,17832],[46.1,17920],[46.4,17997],[46.4,18080],[46.4,18164],[46.4,18247],[46.4,18330],[46.4,18414],[46.4,18497],[46.4,18580],[46.4,18664],[46.4,18747],[46.4,18830],[46.6,18914],[47.3,19003],[48.6,19086],[49.2,19164],[49.5,19247],[50,19331],[50.5,19419],[50.7,19497],[50.7,19580],[51.3,19670],[51.4,19747],[51.5,19830],[51.6,19920],[52.3,20003],[52.5,20086],[52.5,20164],[53.4,20247],[53.9,20335],[54.8,20414],[55,20502],[55.1,20580],[55.2,20669],[55.4,20747],[55.4,20830],[55.4,20914],[55.8,21003],[55.9,21080],[55.9,21163],[55.9,21247],[56.8,21336],[56.8,21414],[56.8,21497],[56.8,21586],[57.3,21669],[57.5,21747],[58.1,21836],[58.6,21913],[59.2,21997],[59.3,22080],[59.4,22163],[59.8,22252],[60.1,22331],[60.2,22419],[60.3,22502],[60.4,22580],[60.7,22669],[61.4,22753],[61.5,22830],[61.5,22913],[62,23002],[66.8,23080],[68.8,23170],[69.1,23252],[69.7,23330],[71.6,23420],[71.9,23502],[72.5,23586],[73.4,23664],[73.8,23747],[73.8,23830],[75.4,23920],[77.5,24002],[78.3,24080],[78.6,24163],[80,24252],[81.1,24336],[81.8,24414],[82,24502],[82,24580],[82,24669],[82,24747],[82,24830],[84,24920],[90.1,25004],[92.5,25086],[93,25169],[93.8,25253],[95,25330],[95.3,25413],[95.3,25502],[95.3,25580],[95.8,25669],[96.3,25752],[96.4,25830],[96.6,25918],[96.6,26002],[96.6,26080],[96.6,26163],[96.7,26247],[96.8,26330],[97.6,26414],[99.3,26502],[100,26586],[100,26669],[100,26752],[100,26835],[100,26913],[100,27002],[100,27080],[100,27169],[100,27247],[100,27330],[100,27418],[100,27497],[100,27580],[100,27663],[100,27747],[100,27830],[100,27913],[100,27996],[100,28080],[100,28163],[100,28252],[100,28330],[100,28413],[100,28502],[100,28586],[100,28669],[100,28752],[100,28831],[100,28913],[100,28997],[100,29085],[99.1,29163],[98,29252],[97.7,29330],[97.2,29414],[96.7,29497],[96,29586],[95.9,29669],[95.5,29753]]",1,0,120.5519,127.4166,49.79166985,3.8368,"[{""rating"":49.791669845581055,""responseTime"":3.8367999999970266}]",space,6.3271,,127.4168,Half the time,50,127.4196,,,[],,0,0,0,0,1,audio/Narrative13Situation2.wav,audio/Narrative13Situation2.wav,audio/Narrative13Situation2.wav,audio/Narrative13Situation2.wav,2,2,2,2,,,,,,,,,,,,,,,,,,,,,,,,,,,,,,,,,,,,,,,
,,,,,,5d3221b8eb6cfa0001950113,2024-05-13_08h37.46.809,group3.1-3.2-social-tom,2023.2.2,Win32,59.88023952,65c5074098b851296ff0b7ed,664231bc7dbfb31964f5004b,,,,,,,,,,,,,,,,,,,,,,,,,,,,,127.4198,1,audio/Narrative8Situation1.wav,130.8437,space,130.8439,146.7762,"[[999,2],[999,83],[999,166],[999,249],[999,332],[999,419],[999,499],[999,588],[999,666],[999,749],[999,832],[999,915],[999,1004],[999,1088],[49.7,1172],[49.8,1255],[57,1588],[62.3,1673],[63.9,1756],[64,1832],[64,1921],[64,1999],[64,2087],[64,2171],[64,2255],[64,2332],[64,2415],[65.8,2504],[68,2588],[68.1,2670],[68.1,2749],[69.7,2838],[70,2921],[70,2999],[70.2,3087],[71.3,3172],[71.9,3254],[71.9,3332],[71.9,3415],[72.6,3505],[73.8,3589],[74.2,3666],[74.4,3750],[75.7,3838],[76.3,3921],[76.3,3999],[77,4089],[78,4172],[78.5,4249],[79.4,4332],[79.9,4421],[80,4499],[80.4,4583],[80.9,4671],[81,4749],[81,4832],[82.1,4916],[83.6,5004],[83.6,5087],[83.6,5165],[84.6,5249],[84.7,5332],[84.7,5416],[84.7,5504],[84.8,5583],[84.8,5665],[84.8,5749],[84.8,5832],[84.8,5915],[84.8,5999],[84.8,6088],[84.8,6165],[84.8,6254],[84.7,6333],[84,6421],[83.2,6499],[83,6587],[82.9,6666],[82.5,6749],[82.2,6838],[81.9,6921],[81.4,7004],[80.8,7082],[80.4,7170],[80.1,7249],[79.8,7332],[79.5,7421],[79.5,7499],[79.5,7582],[79.3,7665],[79.3,7755],[79.3,7832],[79.3,7915],[79.3,8004],[79.6,8082],[79.7,8165],[80.2,8254],[80.9,8331],[81,8415],[81.3,8504],[81.5,8587],[81.5,8670],[81.8,8755],[82.1,8838],[82.3,8920],[82.7,9004],[83,9087],[83.1,9170],[83.1,9249],[83.2,9337],[83.3,9415],[83.3,9499],[83.5,9587],[83.5,9665],[83.5,9749],[83.5,9831],[83.5,9915],[83.5,9999],[83.5,10082],[83.5,10165],[83.5,10252],[83.4,10340],[83.2,10421],[82.9,10504],[82.9,10582],[82.6,10670],[82.5,10754],[82.4,10832],[82.1,10915],[81.7,10999],[80.9,11087],[80.4,11165],[79.9,11249],[79.4,11337],[79.4,11420],[79.4,11498],[79,11587],[78.9,11665],[78.9,11749],[78.9,11832],[78.9,11915],[79.2,12004],[81.3,12087],[82.3,12171],[82.3,12249],[82.8,12333],[83.8,12415],[83.9,12498],[84.1,12582],[84.4,12665],[84.4,12753],[84.4,12831],[84.7,12915],[84.8,13004],[84.9,13081],[85.2,13170],[85.6,13249],[85.9,13332],[86.9,13420],[87.6,13504],[87.8,13581],[88.2,13670],[88.7,13753],[89.1,13837],[89.5,13915],[90.1,14004],[90.4,14085],[90.4,14165],[90.5,14248],[90.6,14338],[90.6,14418],[90.8,14498],[91,14581],[91.4,14670],[91.9,14754],[92.6,14837],[92.7,14915],[92.7,14998],[93.2,15081],[93.2,15165],[94,15254],[94.5,15332],[94.6,15415],[95,15499],[96,15588],[96.4,15670],[96.4,15749],[96.4,15831],[96.8,15920]]",1,0,146.7767,151.3085,76.5625,2.7035,"[{""rating"":76.5625,""responseTime"":2.7035000000000196}]",space,4.003,,151.3085,All the time,100,151.3127,,,[],,0,1,1,1,1,audio/Narrative7Situation1.wav,audio/Narrative8Situation1.wav,audio/Narrative5Situation1.wav,audio/Narrative6Situation1.wav,2,5,5,2,3.4006,,,,,,,,,,,,,,,,,,,,,,,,,,,,,,,,,,,,,,
,,,,,,5d3221b8eb6cfa0001950113,2024-05-13_08h37.46.809,group3.1-3.2-social-tom,2023.2.2,Win32,59.88023952,65c5074098b851296ff0b7ed,664231bc7dbfb31964f5004b,,,,,,,,,,,,,,,,,,,,,,,,,,,,,151.313,1,audio/Narrative8Situation2.wav,154.3252,,154.3253,164.4303,"[[999,1],[999,83],[999,166],[999,249],[999,333],[999,416],[999,500],[999,583],[999,666],[999,750],[999,838],[999,916],[999,1005],[999,1089],[999,1172],[52.8,1255],[56.8,1333],[61,1422],[62.7,1504],[62.7,1583],[63.5,1667],[64.1,1755],[64.1,1833],[66.5,1922],[66.7,1999],[67.4,2088],[69,2171],[69,2249],[69,2332],[69.1,2417],[69.1,2499],[69.1,2583],[69.1,2666],[69.1,2749],[69.1,2833],[69.1,2919],[69.1,2999],[69.1,3083],[69.1,3172],[69.1,3249],[69.1,3332],[69.1,3416],[69.1,3499],[69.1,3583],[69.1,3666],[69.1,3749],[69.1,3833],[69.3,3917],[69.8,4005],[70.3,4082],[70.7,4166],[71,4250],[71.9,4333],[71.9,4416],[72.1,4499],[72.7,4588],[72.8,4666],[73.2,4755],[73.4,4838],[73.6,4915],[73.9,4999],[74.9,5089],[75.3,5166],[75.7,5255],[76.4,5338],[77.1,5416],[77.3,5499],[77.9,5582],[77.9,5671],[77.9,5749],[78.4,5839],[79,5916],[79.5,5999],[80,6088],[80.6,6171],[81.3,6255],[81.6,6333],[82,6416],[82.3,6505],[82.3,6582],[82.6,6666],[83,6750],[83.3,6838],[83.5,6916],[84.1,7005],[84.4,7083],[84.8,7165],[85.1,7254],[85.1,7338],[85.2,7416],[85.7,7504],[85.9,7588],[86.1,7667],[86.1,7749],[86.1,7832],[86.4,7916],[86.5,7999],[86.9,8087],[87.3,8171],[87.5,8249],[87.5,8332],[87.5,8416],[87.8,8505],[87.9,8582],[87.9,8666],[87.9,8749],[87.9,8837],[89.4,8917],[90.8,9004],[91.9,9083],[92.7,9171],[93.4,9255],[94.7,9338],[94.8,9415],[95.8,9504],[97,9582],[98.6,9666],[99.9,9755],[100,9838],[100,9921],[100,10004],[100,10088]]",1,0,164.4304,477.9782,77.91666985,311.4494,"[{""rating"":77.91666984558105,""responseTime"":311.449400000006}]",space,313.0142,,477.9783,Not at all,0,477.9834,,,[],,0,2,2,2,1,audio/Narrative7Situation2.wav,audio/Narrative8Situation2.wav,audio/Narrative5Situation2.wav,audio/Narrative6Situation2.wav,3,3,3,3,,,,,,,,,,,,,,,,,,,,,,,,,,,,,,,,,,,,,,,
,,,,,,5d3221b8eb6cfa0001950113,2024-05-13_08h37.46.809,group3.1-3.2-social-tom,2023.2.2,Win32,59.88023952,65c5074098b851296ff0b7ed,664231bc7dbfb31964f5004b,,,,,,,,,,,,,,,,,,,,,,,,,,,,,477.9836,1,audio/Narrative8Situation3.wav,481.9894,,481.9895,504.3942,"[[52.5,2916],[57.8,3005],[60,3088],[60.8,3166],[61.8,3255],[63.3,3338],[64.2,3416],[64.2,3499],[64.5,3583],[65.4,3666],[65.4,3749],[65.4,3832],[65.4,3915],[65.4,3999],[66.6,4082],[67.7,4171],[68.2,4249],[68.8,4337],[69.5,4416],[69.7,4499],[70.1,4587],[70.8,4671],[71.3,4749],[71.4,4837],[72.1,4915],[72.6,4999],[73.1,5088],[73.9,5172],[74.8,5249],[75,5332],[75,5415],[75,5499],[75,5582],[75,5665],[75,5749],[75,5832],[75,5915],[75,5999],[77.7,6088],[79.7,6171],[81.6,6249],[83.2,6332],[84.2,6421],[84.9,6498],[85.9,6587],[86.8,6665],[86.8,6749],[86.9,6832],[87.5,6916],[87.8,6999],[89.4,7087],[89.9,7166],[90,7248],[90.6,7338],[92,7416],[92.1,7499],[93.2,7582],[94.6,7666],[94.8,7752],[95,7837],[95.3,7921],[95.8,7999],[96.4,8082],[96.6,8165],[96.9,8255],[97.7,8337],[97.9,8415],[98.1,8499],[98.4,8587],[98.8,8665],[99,8750],[99.5,8832],[99.8,8921],[99.9,8998],[100,9087],[100,9165],[100,9254],[100,9337],[100,9421],[100,9498],[100,9581],[100,9665],[100,9754],[100,9832],[99.8,9915],[99.1,10005],[98.5,10081],[97.5,10171],[96.6,10249],[95.7,10337],[95,10416],[93.6,10504],[93.3,10582],[93.3,10665],[92.9,10748],[92.6,10832],[92.5,10915],[92.5,10998],[92.5,11082],[92.5,11165],[92.5,11248],[92.5,11331],[92.6,11416],[93,11504],[93.4,11582],[93.6,11665],[94.3,11749],[94.7,11837],[95.3,11920],[97.2,11999],[98.8,12082],[99.7,12170],[100,12254],[100,12332],[100,12420],[100,12499],[100,12582],[100,12671],[100,12754],[100,12831],[100,12921],[100,12998],[100,13082],[100,13165],[100,13248],[100,13331],[100,13415],[100,13498],[100,13581],[100,13665],[100,13754],[100,13832],[100,13920],[99.8,14004],[98.2,14087],[96.8,14170],[95.9,14249],[95.4,14338],[94.1,14421],[91.9,14504],[90.9,14587],[90.3,14665],[90.2,14748],[90.2,14837],[90.2,14915],[90.2,14998],[90.2,15081],[90.2,15165],[90.3,15248],[90.3,15332],[90.4,15415],[90.6,15498],[90.8,15586],[90.8,15665],[91.1,15754],[91.4,15832],[91.7,15914],[92.1,16004],[93.1,16087],[93.2,16165],[93.8,16254],[94.3,16337],[94.8,16415],[95.4,16504],[96,16587],[96,16665],[96.7,16748],[97.2,16837],[97.6,16918],[98.2,16998],[99.3,17087],[99.5,17164],[99.5,17248],[99.5,17337],[99.5,17420],[99.5,17498],[99.5,17587],[98.5,17670],[94.9,17754],[93.5,17832],[92,17915],[91.9,17998],[91.3,18082],[90.1,18170],[89.6,18248],[89.2,18337],[87.6,18420],[86.4,18498],[85.3,18587],[84.8,18670],[83.5,18748],[83,18831],[83,18914],[83,18998],[83,19081],[83,19164],[83,19248],[83,19331],[84.6,19420],[85.3,19504],[85.9,19581],[86.6,19664],[87,19748],[87.5,19831],[88.7,19920],[89.4,20004],[90.9,20087],[91.1,20172],[91.6,20254],[92.2,20332],[92.7,20420],[93.2,20504],[94.3,20581],[95,20670],[95.4,20748],[96.1,20836],[97.4,20915],[97.6,20998],[98.2,21087],[98.8,21171],[99.3,21253],[100,21337],[100,21414],[100,21498],[100,21581],[100,21664],[100,21753],[100,21831],[100,21914],[100,21998],[100,22081],[99.1,22170],[98.5,22247],[97.5,22337]]",1,0,504.3943,507.5043,96.66666985,1.3034,"[{""rating"":96.66666984558105,""responseTime"":1.3033999999985326}]",space,2.5602,,507.5045,Not at all,0,507.508,,,[],,0,3,3,3,1,audio/Narrative7Situation3.wav,audio/Narrative8Situation3.wav,audio/Narrative5Situation3.wav,audio/Narrative6Situation3.wav,8,4,3,5,,,,,,,,,,,,,,,,,,,,,,,,,,,,,,,,,,,,,,,
,,,,,,5d3221b8eb6cfa0001950113,2024-05-13_08h37.46.809,group3.1-3.2-social-tom,2023.2.2,Win32,59.88023952,65c5074098b851296ff0b7ed,664231bc7dbfb31964f5004b,,,,,,,,,,,,,,,,,,,,,,,,,,,,,507.5083,1,audio/Narrative8Situation4.wav,510.5211,,510.5212,524.7036,"[[999,1],[999,88],[999,166],[999,249],[999,332],[999,421],[999,506],[999,588],[999,672],[71.4,749],[72.9,838],[76.9,922],[77.4,1005],[79.8,1088],[81.6,1171],[82.4,1249],[82.8,1338],[84.8,1422],[85.7,1499],[85.9,1582],[86.4,1671],[87.4,1749],[88,1838],[88.3,1922],[88.5,1999],[88.5,2082],[88.5,2165],[88.5,2249],[88.5,2332],[88.5,2416],[88.5,2499],[88.5,2587],[88.5,2665],[88.5,2749],[88.5,2832],[88.5,2915],[88.5,2999],[88.4,3083],[87.9,3171],[87.3,3249],[86.3,3337],[85.6,3416],[85.3,3499],[85,3587],[84.3,3665],[83.6,3749],[83.2,3832],[83.1,3916],[82.9,3999],[82.9,4087],[82.9,4171],[82.9,4249],[83.6,4332],[85.8,4416],[86.8,4504],[86.9,4582],[87.6,4671],[87.8,4749],[87.8,4832],[88.4,4915],[89.6,5005],[90,5088],[90.6,5166],[91,5249],[91.7,5337],[91.7,5415],[91.7,5498],[91.7,5582],[91.7,5665],[91.7,5748],[91.7,5837],[91.7,5915],[91.7,5999],[91.7,6082],[91.7,6165],[91.7,6249],[92.1,6337],[93.4,6421],[95.1,6504],[96.3,6582],[97.2,6665],[98,6753],[99.2,6838],[100,6915],[100,7004],[100,7087],[100,7165],[100,7254],[100,7332],[100,7415],[100,7498],[100,7582],[100,7665],[100,7748],[100,7837],[100,7921],[99.6,7999],[99.6,8081],[99.5,8165],[99.2,8255],[97.7,8338],[97.6,8415],[97.6,8504],[97.6,8582],[97.6,8665],[97.6,8748],[97.7,8832],[97.9,8915],[98.2,8999],[98.2,9082],[98.4,9170],[98.4,9248],[98.4,9331],[98.4,9420],[98.4,9498],[98.4,9582],[98.4,9665],[98.4,9753],[98.4,9837],[98.4,9915],[98.4,10004],[98.4,10082],[98.6,10165],[99.3,10249],[100,10331],[100,10415],[100,10498],[100,10581],[100,10665],[100,10748],[100,10837],[99.6,10915],[98.5,11004],[98.1,11087],[97.5,11171],[97,11254],[96.8,11332],[96.8,11415],[96.8,11498],[96.8,11587],[96.8,11670],[97.1,11749],[97.9,11837],[98.2,11921],[98.4,12004],[98.6,12087],[98.9,12166],[99,12248],[99.5,12331],[99.8,12415],[100,12504],[100,12586],[100,12665],[100,12748],[100,12831],[100,12915],[100,12998],[100,13086],[100,13165],[100,13248],[99.7,13332],[98.8,13415],[97.7,13504],[97.2,13587],[97,13671],[96.8,13749],[96.5,13831],[96.5,13915],[96.5,13998],[96.5,14081],[96.5,14165]]",1,0,524.704,528.5199,95.83333333,2.0572,"[{""rating"":95.83333333333333,""responseTime"":2.057200000002922}]",space,3.2699,,528.5201,Half the time,50,528.5235,,,[],,0,4,4,4,1,audio/Narrative7Situation4.wav,audio/Narrative8Situation4.wav,audio/Narrative5Situation4.wav,audio/Narrative6Situation4.wav,3,3,1,2,,,,,,,,,,,,,,,,,,,,,,,,,,,,,,,,,,,,,,,
,,,,,,5d3221b8eb6cfa0001950113,2024-05-13_08h37.46.809,group3.1-3.2-social-tom,2023.2.2,Win32,59.88023952,65c5074098b851296ff0b7ed,664231bc7dbfb31964f5004b,,,,,,,,,,,,,,,,,,,,,,,,,,,,,528.5237,1,audio/Narrative8Situation5.wav,530.5362,,530.5364,538.7862,"[[64.4,583],[70.8,671],[74,750],[78.9,838],[88.4,916],[89.5,1005],[89.5,1082],[89.6,1166],[89.6,1249],[89.6,1332],[89.3,1422],[89.2,1505],[89.2,1583],[88.9,1672],[88.7,1749],[88.7,1832],[88.7,1916],[88.7,1999],[88.7,2082],[88.7,2166],[88.7,2249],[88.7,2332],[88.7,2416],[88.7,2499],[89,2587],[89.3,2666],[89.6,2749],[90.3,2832],[90.8,2921],[90.8,2999],[91.1,3088],[91.7,3171],[91.9,3249],[91.9,3332],[91.9,3421],[92.2,3499],[92.2,3582],[92.2,3671],[92.8,3754],[93.8,3838],[94.1,3922],[94.7,4004],[96.7,4088],[97.7,4172],[97.9,4249],[98.6,4338],[99,4420],[99.3,4505],[99.9,4588],[100,4665],[100,4749],[100,4832],[100,4916],[100,4999],[99.9,5082],[99.7,5171],[99.6,5249],[99.1,5338],[98,5421],[97,5505],[96,5582],[95.4,5671],[94.9,5755],[94.7,5834],[94.2,5916],[93.5,6004],[93.4,6082],[92.8,6171],[92.8,6249],[92.6,6332],[92.6,6417],[92.6,6499],[92.6,6582],[92.6,6667],[92.6,6754],[92.5,6838],[92.5,6916],[92.7,7004],[92.7,7082],[93.1,7165],[93.8,7254],[94.2,7332],[94.3,7416],[94.5,7499],[95.2,7587],[95.5,7665],[95.7,7755],[95.8,7832],[96.3,7915],[96.9,7999],[97.3,8083],[97.3,8166],[97.3,8249]]",1,0,538.7866,581.2166,99.16666349,40.453,"[{""rating"":99.16666348775227,""responseTime"":40.452999999999975}]",space,41.8817,,581.2169,Not at all,0,581.2222,,,[],,0,5,5,5,1,audio/Narrative7Situation5.wav,audio/Narrative8Situation5.wav,audio/Narrative5Situation5.wav,audio/Narrative6Situation5.wav,5,2,5,2,,,,,,,,,,,,,,,,,,,,,,,,,,,,,,,,,,,,,,,
,,,,,,5d3221b8eb6cfa0001950113,2024-05-13_08h37.46.809,group3.1-3.2-social-tom,2023.2.2,Win32,59.88023952,65c5074098b851296ff0b7ed,664231bc7dbfb31964f5004b,,,,,,,,,,,,,,,,,,,,,,,,,,,,,581.2224,1,audio/Narrative8Situation6.wav,583.2331,,583.2331,589.7159,"[[999,0],[999,82],[999,166],[999,249],[999,333],[999,416],[999,499],[999,583],[999,666],[999,749],[999,832],[999,916],[999,1000],[999,1082],[999,1166],[999,1250],[999,1333],[66.5,1418],[67.7,1501],[70.8,1584],[75.7,1666],[75.8,1749],[75.8,1832],[75.8,1916],[75.8,1999],[75.8,2082],[76.5,2166],[79.2,2249],[80.1,2332],[80.6,2416],[82.5,2500],[83.2,2582],[83.4,2666],[84.5,2750],[86.4,2833],[86.5,2916],[86.5,2999],[86.5,3082],[86.5,3166],[86.5,3249],[86.6,3332],[86.6,3416],[86.6,3499],[86.6,3582],[86.6,3666],[86.6,3749],[86.6,3832],[86.6,3916],[86.7,4000],[86.9,4085],[87,4166],[87,4249],[87,4332],[87,4416],[87,4499],[87,4582],[87,4666],[87.2,4749],[87.2,4832],[87.2,4916],[87.2,4999],[87.4,5082],[87.5,5166],[87.5,5249],[87.9,5333],[88.3,5415],[88.3,5499],[88.3,5582],[88.3,5666],[88.3,5749],[88.3,5832],[88.4,5916],[88.4,5999],[88.4,6082],[88.9,6166],[88.9,6249],[88.9,6332],[88.9,6416]]",1,0,589.7161,594.949,89.79166349,1.5915,"[{""rating"":89.79166348775227,""responseTime"":1.5914999999999964}]",space,4.6871,,594.949,Half the time,50,594.9602,,,[],,0,6,6,6,1,audio/Narrative7Situation6.wav,audio/Narrative8Situation6.wav,audio/Narrative5Situation6.wav,audio/Narrative6Situation6.wav,3,2,3,2,,,,,,,,,,,,,,,,,,,,,,,,,,,,,,,,,,,,,,,
,,,,,,5d3221b8eb6cfa0001950113,2024-05-13_08h37.46.809,group3.1-3.2-social-tom,2023.2.2,Win32,59.88023952,65c5074098b851296ff0b7ed,664231bc7dbfb31964f5004b,,,,,,,,,,,,,,,,,,,,,,,,,,,,,594.9604,1,audio/Narrative8Situation7.wav,597.9655,,597.9655,610.0482,"[[999,8],[999,82],[999,166],[999,249],[999,333],[999,416],[999,499],[999,583],[63.9,667],[71.5,750],[72.7,833],[72.7,916],[72.7,999],[72.7,1083],[72.7,1166],[72.7,1249],[72.7,1333],[72.8,1416],[72.8,1499],[73.3,1583],[73.6,1666],[73.6,1749],[73.6,1833],[73.9,1916],[74,1999],[74.7,2083],[74.8,2166],[74.8,2249],[75.5,2333],[76.6,2416],[77.3,2499],[78,2583],[78.5,2666],[78.5,2749],[78.5,2832],[79.1,2916],[79.4,2999],[79.9,3083],[80.2,3166],[80.6,3249],[80.6,3332],[81,3416],[81.8,3499],[82.3,3582],[83,3666],[83.3,3749],[83.8,3833],[84.2,3916],[84.8,3999],[85.4,4083],[85.6,4166],[85.6,4249],[85.6,4332],[85.6,4416],[86.3,4499],[86.8,4583],[87.3,4666],[87.7,4749],[88,4832],[88.2,4916],[88.7,4999],[89.4,5082],[89.4,5166],[89.4,5249],[89.4,5332],[89.4,5416],[89.4,5499],[89.4,5582],[89.4,5666],[89.4,5749],[89.4,5832],[89.4,5916],[89.4,5999],[89.3,6082],[89,6166],[88.4,6249],[88.1,6332],[87.3,6416],[87.1,6499],[87.1,6582],[87.1,6666],[87.1,6749],[87.1,6832],[87.6,6916],[88.5,6999],[89.8,7082],[90.6,7166],[91.1,7249],[91.1,7332],[91.1,7416],[91.1,7499],[91.1,7582],[92.1,7665],[92.2,7749],[92.2,7832],[92.2,7915],[92.2,7999],[92.2,8082],[92,8165],[91.5,8249],[90.7,8332],[90.2,8416],[90,8499],[89.4,8582],[88.6,8666],[87.9,8749],[87.4,8832],[86.6,8916],[85.7,8999],[85.6,9082],[85.6,9165],[85.5,9249],[85.5,9332],[85.5,9416],[85.5,9499],[85.5,9582],[85,9666],[84.5,9749],[84.3,9832],[83.3,9916],[82.7,9999],[82.7,10082],[82.7,10165],[82.7,10249],[82.7,10332],[83,10416],[87.1,10499],[88,10582],[88.3,10665],[88.7,10748],[89.8,10832],[90,10915],[90.5,10999],[90.8,11082],[90.9,11165],[90.9,11249],[90.9,11332],[90.9,11415],[90.2,11499],[89.8,11582],[89.8,11665],[89.2,11749],[89.2,11832],[89,11915],[88.7,11999],[88.4,12082]]",1,0,610.0483,613.8811,85.62499682,2.455,"[{""rating"":85.62499682108562,""responseTime"":2.4549999999999272}]",space,3.2843,,613.8811,Half the time,50,613.8847,,,[],,0,7,7,7,1,audio/Narrative7Situation7.wav,audio/Narrative8Situation7.wav,audio/Narrative5Situation7.wav,audio/Narrative6Situation7.wav,5,3,4,5,,,,,,,,,,,,,,,,,,,,,,,,,,,,,,,,,,,,,,,
,,,,,,5d3221b8eb6cfa0001950113,2024-05-13_08h37.46.809,group3.1-3.2-social-tom,2023.2.2,Win32,59.88023952,65c5074098b851296ff0b7ed,664231bc7dbfb31964f5004b,,,,,,,,,,,,,,,,,,,,,,,,,,,,,613.885,1,audio/Narrative8Situation8.wav,616.8975,,616.8976,629.7635,"[[999,0],[999,83],[999,166],[999,249],[999,333],[999,416],[999,499],[999,583],[999,667],[999,753],[999,834],[999,917],[74.9,1000],[75.4,1083],[76.5,1166],[76.8,1249],[76.8,1332],[76.8,1416],[76.9,1500],[78.3,1583],[79.2,1666],[79.2,1749],[79.9,1833],[80.5,1916],[80.7,1999],[80.7,2083],[81,2166],[81,2249],[81,2333],[81,2416],[81,2499],[81,2583],[81,2666],[81.5,2749],[81.7,2833],[81.9,2916],[82.3,2999],[82.3,3083],[82.3,3166],[82.7,3249],[83.5,3333],[83.6,3416],[83.9,3499],[84.4,3583],[84.6,3666],[84.7,3749],[84.8,3833],[85.1,3916],[85.1,3999],[85.4,4083],[85.9,4166],[85.9,4249],[86.7,4333],[87.3,4416],[88,4499],[88,4582],[88,4666],[88.4,4749],[88.9,4833],[89,4916],[89.3,4999],[89.8,5083],[90.3,5166],[90.8,5249],[92,5333],[92.2,5416],[92.2,5499],[92.2,5582],[92.6,5666],[92.6,5749],[92.6,5833],[93,5916],[93,5999],[93,6083],[93.2,6166],[93.2,6249],[93.2,6332],[93.2,6416],[93.2,6499],[93.2,6582],[93.2,6666],[92.9,6749],[92.6,6833],[92,6916],[91.4,6999],[90.8,7082],[90.7,7166],[90.2,7249],[89.8,7332],[89.3,7416],[88.6,7499],[88.3,7582],[87.4,7666],[86.4,7749],[85.5,7832],[84.7,7916],[84.5,7999],[84,8082],[83.2,8166],[82.9,8249],[82.9,8332],[82.9,8415],[82.9,8499],[82.9,8582],[83.3,8666],[83.8,8749],[84.2,8833],[84.2,8915],[84.4,8999],[84.4,9082],[85,9165],[85.2,9249],[85.4,9332],[86.3,9415],[86.4,9499],[86.5,9582],[87.1,9666],[87.5,9749],[87.7,9832],[87.9,9915],[88.2,9999],[88.4,10082],[88.7,10166],[89,10249],[89.3,10332],[89.6,10415],[89.6,10499],[89.8,10582],[90,10666],[90.4,10749],[90.5,10832],[90.5,10916],[90.5,10999],[90.5,11082],[90.5,11165],[90.5,11249],[90.5,11332],[90.5,11415],[90.4,11499],[90.3,11582],[90,11665],[89.8,11749],[89.8,11832],[89.7,11915],[89.2,11999],[88.6,12082],[88.2,12165],[87.9,12249],[87.8,12332],[87.7,12416],[87.7,12499],[87.7,12582],[87.7,12665],[87.7,12749],[87.7,12832]]",1,0,629.7637,632.8299,84.58333015,1.2458,"[{""rating"":84.58333015441895,""responseTime"":1.2457999999970752}]",space,2.5215,,632.83,Not at all,0,632.8342,,,[],,0,8,8,8,1,audio/Narrative7Situation8.wav,audio/Narrative8Situation8.wav,audio/Narrative5Situation8.wav,audio/Narrative6Situation8.wav,2,3,3,5,,,,,,,,,,,,,,,,,,,,,,,,,,,,,,,,,,,,,,,
,,,,,,5d3221b8eb6cfa0001950113,2024-05-13_08h37.46.809,group3.1-3.2-social-tom,2023.2.2,Win32,59.88023952,65c5074098b851296ff0b7ed,664231bc7dbfb31964f5004b,,,,,,,,,,,,,,,,,,,,,,,,,,,,,632.8346,1,audio/Narrative8Situation9.wav,635.8465,,635.8465,647.1626,"[[78,583],[79.4,669],[80.4,750],[80.7,833],[80.7,916],[80.7,999],[81.1,1083],[82.3,1166],[82.3,1250],[82.3,1333],[83,1416],[84.4,1500],[84.8,1583],[85,1666],[85.9,1750],[86.9,1833],[87,1916],[87.5,1999],[88.4,2083],[89.3,2166],[89.9,2250],[90.5,2333],[90.8,2416],[90.8,2499],[90.8,2582],[90.8,2666],[90.8,2749],[90.8,2833],[90.7,2916],[90.4,2999],[90.2,3083],[89,3166],[88.4,3249],[87.9,3333],[87.9,3416],[87.6,3499],[86.8,3583],[86.3,3666],[85.6,3750],[85.2,3833],[85,3916],[85,3999],[85,4083],[85,4166],[85,4249],[85,4332],[85,4416],[85.8,4499],[86.5,4583],[86.7,4666],[86.9,4749],[87,4833],[87,4916],[87.5,4999],[87.9,5083],[87.9,5166],[87.9,5249],[87.9,5332],[87.9,5416],[87.9,5499],[87.9,5582],[88.1,5666],[88.1,5749],[88.1,5832],[88.1,5916],[88.1,5999],[88.1,6082],[87.6,6166],[86.8,6249],[86,6333],[85.6,6416],[85,6499],[84.6,6583],[84.6,6666],[84.5,6749],[84.5,6832],[84.5,6916],[84.5,6999],[84.3,7083],[84.2,7166],[83.8,7249],[83.6,7332],[83.6,7416],[83.6,7499],[83.6,7582],[83.6,7665],[83.6,7749],[84.3,7832],[84.7,7916],[84.8,7999],[85.2,8082],[85.9,8166],[86.1,8249],[86.1,8332],[86.5,8416],[86.9,8499],[86.9,8582],[87.4,8666],[87.8,8749],[87.9,8832],[88,8916],[88,8999],[88.2,9082],[88.2,9166],[88.2,9249],[88.2,9333],[88.2,9415],[88.2,9499],[88.2,9582],[87.8,9666],[87.4,9749],[86.5,9832],[85.6,9916],[85.1,9999],[85,10082],[85,10166],[85,10249],[85,10332],[85,10416],[85,10499],[85,10582],[85,10665],[85,10749],[85,10832],[84.8,10916],[84.8,10999],[84.8,11082],[84.8,11166],[84.8,11249]]",1,0,647.1629,675.9274,84.58333015,1.0645,"[{""rating"":84.58333015441895,""responseTime"":1.0644999999999527}]",space,28.2244,,675.9274,All the time,100,690.8268,100,13.4747,"[{""rating"":73.22916984558105,""responseTime"":2.6515000000000555},{""rating"":78.02083492279053,""responseTime"":6.029200000003016},{""rating"":100,""responseTime"":13.474700000003054}]",space,0,9,9,9,1,audio/Narrative7Situation9.wav,audio/Narrative8Situation9.wav,audio/Narrative5Situation9.wav,audio/Narrative6Situation9.wav,2,3,3,4,,,14.3692,,,,,,,,,,,,,,,,,,,,,,,,,,,,,,,,,,,,
,,,,,,5d3221b8eb6cfa0001950113,2024-05-13_08h37.46.809,group3.1-3.2-social-tom,2023.2.2,Win32,59.88023952,65c5074098b851296ff0b7ed,664231bc7dbfb31964f5004b,,,,,,,,,,,,,,,,,,,,,,,,,,,,,690.8272,1,audio/Narrative7Situation1.wav,692.8432,,692.8433,748.7395,"[[999,0],[999,83],[999,166],[999,249],[999,333],[999,416],[999,499],[999,582],[999,666],[999,750],[74.6,833],[74.8,916],[75,999],[75.1,1082],[75.1,1166],[75.1,1249],[75.2,1333],[75.6,1416],[75.8,1499],[75.9,1583],[75.9,1666],[75.9,1749],[75.9,1832],[75.9,1916],[73.8,1999],[69.7,2083],[65.5,2166],[61,2249],[61,2332],[61,2416],[60.6,2499],[59,2583],[58.8,2665],[58.4,2749],[58.2,2832],[57.4,2916],[57.4,2999],[57.4,3082],[57.4,3166],[57.4,3249],[57.4,3332],[57.4,3416],[57.4,3499],[57.4,3582],[57.4,3666],[57.4,3749],[57.4,3832],[57.4,3916],[57.4,3999],[57.4,4082],[57.4,4166],[57.4,4249],[57.6,4332],[58.2,4416],[58.6,4499],[59.1,4583],[60.2,4665],[60.3,4749],[60.6,4832],[60.9,4916],[61.1,4999],[61.3,5082],[61.5,5166],[61.9,5249],[62.3,5332],[62.8,5415],[63.2,5499],[63.2,5582],[63.2,5665],[63.2,5749],[63.2,5832],[63.2,5916],[63.2,5999],[63.2,6082],[63.2,6166],[63.1,6249],[63.1,6332],[62.9,6415],[62.1,6499],[61.6,6582],[61.3,6665],[60.5,6749],[59.6,6832],[59.3,6915],[58.8,6999],[58,7082],[57.6,7166],[57.4,7249],[57.2,7332],[56.9,7416],[56.9,7499],[56.9,7582],[56.9,7666],[56.9,7750],[56.9,7832],[56.9,7915],[56.9,7999],[56.8,8082],[57.2,8165],[57.3,8249],[57.5,8332],[57.6,8416],[58.2,8499],[59.2,8582],[59.6,8665],[59.8,8749],[59.8,8832],[60.1,8915],[60.4,8999],[60.6,9082],[60.8,9165],[61.1,9249],[62,9332],[62.3,9415],[62.5,9499],[62.7,9582],[62.7,9665],[62.8,9749],[63.3,9832],[63.8,9915],[63.9,9999],[63.9,10082],[64.4,10165],[64.6,10249],[64.6,10332],[65.1,10415],[65.6,10499],[65.6,10582],[65.6,10668],[65.9,10749],[66.5,10832],[66.5,10915],[66.5,10999],[66.7,11082],[66.7,11165],[66.7,11249],[66.7,11332],[66.7,11415],[66.6,11499],[66,11582],[65.2,11666],[64.7,11749],[64.3,11832],[64.2,11915],[63.8,11999],[63.1,12082],[62.6,12165],[61.9,12249],[61.1,12332],[60.7,12415],[60.6,12499],[60.5,12582],[60.1,12665],[59.8,12749],[59.8,12832],[59.8,12915],[59.8,12999],[59.8,13082],[60.1,13165],[60.9,13248],[61.4,13332],[62,13415],[62.2,13499],[62.5,13582],[62.9,13665],[63.5,13748],[64.1,13832],[64.4,13915],[65.1,13999],[66,14082],[66.1,14165],[66.4,14249],[66.6,14332],[66.7,14415],[66.7,14498],[67,14582],[67.2,14665],[67.5,14748],[67.7,14832],[68,14915],[68.4,14999],[68.8,15082],[68.8,15165],[68.8,15249],[69.1,15332],[69.3,15415],[69.6,15499],[70,15582],[70.3,15665],[70.8,15748],[71,15832],[71.4,15915],[71.4,15998],[71.4,16082],[71.8,16165],[72.4,16249],[73.3,16332],[73.4,16415],[73.4,16498],[73.5,16582],[73.6,16665],[73.6,16748],[74.1,16832],[74.5,16915],[74.9,16998],[75.2,17081],[75.5,17165],[75.5,17248],[75.5,17331],[76,17415],[76.3,17498],[76.5,17581],[77.6,17665],[78,17748],[78,17832],[78.3,17915],[78.5,17998],[78.6,18081],[78.6,18165],[78.9,18248],[79,18332],[79.5,18415],[79.7,18498],[79.9,18582],[80.1,18665],[80.2,18748],[80.2,18831],[80.2,18915],[80.2,18998],[81.3,19081],[81.3,19165],[81.3,19248],[81.3,19332],[81.3,19415],[81.3,19498],[80.5,19582],[79.8,19665],[79.6,19748],[79.3,19831],[79.3,19915],[79.3,19998],[78.5,20081],[78.2,20165],[78.2,20248],[78.2,20331],[78.2,20415],[78.2,20498],[78.3,20582],[78.9,20664],[79.2,20748],[79.2,20831],[79.5,20915],[79.7,20998],[79.7,21081],[80,21165],[80.1,21248],[80.1,21331],[80.2,21415],[80.2,21498],[80.1,21581],[79.5,21665],[79.3,21748],[79,21832],[78.3,21917],[77.9,21998],[77.8,22081],[77.4,22165],[76.3,22248],[75.6,22331],[74.9,22415],[74.6,22498],[74.4,22581],[74.3,22664],[74.1,22748],[74.1,22831],[73.5,22914],[73.3,22998],[73.2,23081],[73.2,23164],[73,23248],[73,23331],[72.8,23415],[72.3,23498],[72.2,23581],[72.2,23664],[72.2,23748],[72.2,23831],[72.4,23914],[72.9,23998],[73.1,24081],[73.4,24165],[73.6,24248],[73.8,24331],[74.2,24414],[74.7,24498],[75,24581],[75.3,24664],[75.5,24748],[75.8,24831],[76,24914],[76.3,24998],[76.6,25081],[76.9,25164],[77.4,25248],[77.6,25331],[77.9,25414],[78.1,25498],[78.1,25581],[78.4,25665],[78.5,25748],[78.6,25831],[79.2,25915],[79.7,25998],[79.7,26081],[79.9,26165],[80.2,26248],[80.2,26331],[80.4,26415],[80.7,26497],[80.9,26581],[80.9,26664],[80.9,26748],[80.9,26831],[80.1,26914],[79.3,26998],[78.5,27081],[78.2,27164],[77.8,27248],[77.4,27331],[77,27414],[76.3,27498],[75.6,27581],[74.7,27665],[74.1,27748],[73.5,27831],[73.1,27915],[72.7,27998],[72.5,28081],[72.4,28164],[72.4,28248],[72.4,28331],[72.3,28414],[72.3,28498],[72.7,28581],[73.9,28664],[74.4,28747],[74.9,28831],[75.4,28914],[75.4,28998],[75.5,29081],[75.9,29164],[76,29248],[76.5,29331],[77.1,29414],[77.6,29498],[78,29581],[78.5,29664],[79.2,29748],[79.5,29831],[79.5,29914],[79.6,29998],[79.9,30081],[79.9,30164],[79.9,30248],[80,30331],[80,30414],[80.1,30498],[80.1,30581],[80.1,30664],[80.4,30748],[80.6,30831],[80.7,30914],[80.9,30997],[81,31080],[81,31164],[81.1,31247],[81.5,31331],[81.5,31414],[81.5,31497],[81.5,31581],[81.5,31664],[81.5,31748],[81.5,31831],[81.1,31915],[80.9,31997],[80.6,32081],[79.8,32164],[79,32247],[78.1,32331],[77.3,32414],[77,32498],[76.7,32581],[76.4,32664],[76.3,32748],[75.6,32831],[75.4,32914],[75.3,32997],[75.2,33081],[75.1,33164],[75.1,33247],[75.1,33331],[75.1,33414],[75.1,33497],[75.1,33581],[75.1,33664],[75.1,33748],[75.2,33831],[76,33914],[76.5,33997],[76.5,34081],[76.6,34164],[76.9,34247],[77.1,34331],[77.1,34414],[77.1,34497],[77.1,34581],[77.1,34664],[77.5,34748],[77.9,34830],[77.9,34914],[77.9,34998],[78.1,35081],[78.1,35164],[78.4,35247],[78.6,35330],[78.9,35414],[78.9,35497],[78.9,35580],[78.9,35664],[78.2,35748],[77.7,35831],[77.4,35914],[77.2,35997],[77,36081],[76.9,36164],[76.7,36247],[76.4,36330],[76.4,36414],[76.4,36497],[76.1,36580],[75.8,36664],[75.4,36747],[75.3,36830],[75.2,36914],[75.2,36997],[75.2,37080],[75.2,37164],[74.9,37247],[74.9,37330],[74.9,37414],[74.9,37497],[74.7,37580],[74.3,37664],[74.2,37747],[74.1,37830],[74.1,37914],[74.1,37997],[73.6,38080],[73.5,38164],[73.5,38247],[73.5,38330],[73.5,38414],[73.5,38497],[74,38580],[74.8,38664],[75.2,38747],[75.3,38830],[75.5,38914],[76,38997],[76.6,39080],[77.1,39164],[77.6,39247],[78.4,39330],[78.9,39414],[79.2,39497],[79.7,39580],[80.1,39664],[80.2,39747],[80.2,39830],[80.2,39913],[80.2,39997],[80.2,40080],[78.2,40164],[77.2,40247],[77,40330],[76.9,40414],[76.7,40497],[76.4,40580],[75.7,40664],[75.2,40747],[74.6,40830],[73.9,40914],[73.5,40997],[73,41080],[73,41163],[72.8,41247],[72.7,41330],[72.6,41413],[72.6,41497],[72.6,41580],[72.6,41663],[72.7,41747],[74,41830],[75,41913],[75.7,41997],[76,42080],[76.6,42163],[76.6,42247],[76.6,42330],[76.6,42413],[77,42497],[77.1,42580],[77.3,42663],[77.6,42747],[78,42830],[78.1,42913],[78.3,42997],[78.4,43080],[78.5,43163],[78.6,43247],[79,43330],[79,43413],[79,43497],[79,43580],[78.9,43663],[78,43747],[77.7,43830],[77.2,43913],[76.7,43997],[76.1,44080],[75.6,44164],[74.7,44247],[74,44330],[74,44413],[73.6,44497],[73.6,44580],[73.6,44663],[73.2,44747],[72.6,44830],[72.2,44913],[72.2,44997],[72.2,45080],[72.2,45163],[72.2,45247],[72.2,45330],[72.3,45413],[73.2,45497],[73.6,45580],[73.9,45663],[74.2,45747],[74.3,45830],[74.9,45913],[75.2,45997],[75.4,46080],[75.7,46163],[76.6,46247],[76.6,46330],[77,46413],[77.5,46497],[77.9,46580],[78.4,46663],[78.6,46746],[78.9,46830],[79,46913],[79.1,46996],[79.2,47080],[79.4,47163],[79.6,47246],[79.6,47330],[79.9,47413],[80.2,47496],[80.6,47580],[80.7,47663],[81,47746],[81.8,47830],[82.5,47913],[82.8,47996],[83.1,48080],[83.1,48163],[83.2,48246],[83.3,48330],[83.5,48413],[83.6,48496],[83.8,48580],[83.9,48663],[83.9,48746],[83.9,48830],[84.2,48913],[84.4,48996],[84.6,49080],[84.7,49163],[84.7,49247],[84.7,49329],[84.9,49413],[85.4,49496],[85.7,49580],[85.8,49663],[85.8,49746],[85.8,49830],[86.1,49913],[86.5,49996],[86.8,50080],[87,50163],[87,50246],[87,50330],[87,50413],[86.9,50496],[86.4,50580],[85.4,50663],[85.2,50746],[85.2,50830],[85.2,50913],[85.2,50996],[85.2,51080],[85.3,51163],[86.5,51246],[87.4,51330],[87.5,51413],[87.7,51496],[88,51580],[88,51663],[88.2,51746],[88.3,51830],[88.4,51913],[88.5,51996],[88.7,52080],[89.1,52163],[89.9,52246],[90.1,52330],[90.1,52413],[90.3,52496],[90.3,52580],[90.5,52663],[90.5,52746],[90.5,52830],[90.5,52913],[90.5,52996],[91.1,53080],[91.6,53163],[91.6,53246],[91.7,53330],[91.7,53412],[92,53496],[92.2,53579],[92.4,53663],[92.7,53747],[92.7,53829],[92.7,53912],[92.7,53996],[92.7,54079],[92.7,54162],[92.7,54246],[92.9,54329],[93.1,54413],[93.1,54496],[93.2,54580],[93.4,54662],[93.4,54746],[93.4,54829],[93.4,54913],[93.3,54996],[93,55079],[92.9,55163],[92.9,55246],[92.9,55329],[92.6,55413],[92.5,55496],[92.4,55579],[92.3,55663],[92.3,55746],[92.3,55829]]",1,0,748.7399,785.1041,81.56250318,2.3081,"[{""rating"":81.56250317891438,""responseTime"":2.308100000001332}]",space,35.8235,,785.1042,Half the time,50,785.1149,,,[],,0,10,10,10,1,audio/Narrative8Situation1.wav,audio/Narrative7Situation1.wav,audio/Narrative6Situation1.wav,audio/Narrative5Situation1.wav,5,2,2,5,,,,,,,,,,,,,,,,,,,,,,,,,,,,,,,,,,,,,,,
,,,,,,5d3221b8eb6cfa0001950113,2024-05-13_08h37.46.809,group3.1-3.2-social-tom,2023.2.2,Win32,59.88023952,65c5074098b851296ff0b7ed,664231bc7dbfb31964f5004b,,,,,,,,,,,,,,,,,,,,,,,,,,,,,785.1152,1,audio/Narrative7Situation2.wav,788.1208,,788.1208,795.6037,"[[999,0],[999,83],[999,166],[999,249],[999,333],[999,416],[999,499],[999,583],[999,666],[999,750],[999,833],[64.7,916],[65.1,1000],[65.3,1083],[65.3,1166],[65.3,1249],[65.3,1333],[65.3,1416],[65.3,1499],[65.3,1583],[65.4,1666],[65.5,1749],[66.2,1833],[67.9,1916],[68.6,1999],[69.5,2083],[70.2,2166],[70.9,2249],[71.4,2333],[72.3,2416],[73.2,2499],[74.3,2583],[75.6,2666],[76.5,2749],[77.3,2832],[78.1,2916],[78.9,2999],[79.2,3082],[79.2,3166],[79.2,3249],[80.5,3333],[82.3,3416],[82.5,3499],[82.5,3582],[83.3,3666],[84.2,3749],[85,3833],[85.9,3916],[85.9,3999],[85.9,4083],[85.9,4166],[85.9,4249],[85.9,4332],[85.5,4416],[85,4499],[84.4,4583],[82.4,4666],[81.6,4749],[81.4,4833],[81.4,4916],[81.4,4999],[81.4,5082],[81.4,5166],[81.4,5249],[81.4,5332],[81.7,5416],[83.1,5499],[83.3,5582],[83.3,5666],[83.5,5749],[84.3,5833],[84.4,5916],[84.4,5999],[84.4,6082],[84.4,6166],[84.1,6249],[84,6332],[83.4,6415],[82.6,6499],[82,6582],[80.9,6666],[80,6749],[79.8,6832],[79.5,6916],[78.6,6999],[78.4,7082],[78.4,7166],[78.4,7249],[78.4,7332],[78.4,7416]]",1,0,795.6039,801.1033,80.20833333,3.1414,"[{""rating"":80.20833333333333,""responseTime"":3.1413999999983844}]",space,4.9579,,801.1033,All the time,100,801.1078,,,[],,0,11,11,11,1,audio/Narrative8Situation2.wav,audio/Narrative7Situation2.wav,audio/Narrative6Situation2.wav,audio/Narrative5Situation2.wav,3,3,3,3,,,,,,,,,,,,,,,,,,,,,,,,,,,,,,,,,,,,,,,
,,,,,,5d3221b8eb6cfa0001950113,2024-05-13_08h37.46.809,group3.1-3.2-social-tom,2023.2.2,Win32,59.88023952,65c5074098b851296ff0b7ed,664231bc7dbfb31964f5004b,,,,,,,,,,,,,,,,,,,,,,,,,,,,,801.108,1,audio/Narrative7Situation3.wav,809.1195,,809.1195,818.3856,"[[999,10],[999,83],[999,166],[999,249],[999,333],[999,416],[999,499],[999,583],[76.8,666],[76.8,749],[76.8,833],[76.8,916],[76.8,999],[76.8,1083],[76.8,1166],[76.8,1249],[76.8,1332],[76.8,1416],[77.7,1499],[79,1583],[79.1,1666],[79.7,1749],[80.2,1833],[80.7,1916],[82,1999],[83.3,2083],[84.7,2166],[85.9,2250],[87,2333],[87.4,2416],[88.4,2499],[88.5,2582],[88.9,2666],[88.9,2749],[88.9,2832],[88.9,2916],[88.9,2999],[88.9,3082],[88.9,3166],[88.9,3249],[88.9,3332],[88.9,3416],[88.9,3499],[88.6,3583],[88.1,3666],[86.9,3749],[85.6,3833],[85.1,3916],[84.6,3999],[84,4083],[83.4,4166],[83.2,4249],[83,4332],[82.9,4415],[82.9,4499],[82.9,4582],[82.9,4666],[82.9,4749],[82.9,4832],[82.9,4916],[83,4999],[83.1,5082],[83.5,5166],[84.2,5249],[84.7,5333],[85.1,5416],[85.4,5499],[85.7,5582],[85.9,5666],[86.3,5749],[86.8,5832],[87,5916],[87,5999],[87.4,6082],[88.2,6166],[88.7,6249],[89.1,6332],[89.5,6416],[89.6,6499],[90.1,6583],[91,6666],[92.4,6749],[93.2,6832],[93.8,6915],[94.3,6999],[94.7,7082],[94.8,7165],[95.3,7249],[95.5,7332],[95.6,7415],[95.8,7499],[95.8,7582],[95.8,7665],[95.8,7749],[95.8,7832],[95.8,7915],[95.8,7999],[95.8,8082],[95.8,8166],[95.8,8249],[95.8,8332],[95.8,8415],[95.8,8499],[95.8,8582],[95.8,8665],[95.8,8749],[96.1,8832],[98.6,8915],[99.7,8999],[99.7,9082],[99.7,9165],[99.7,9249]]",1,0,818.3858,821.5518,89.4791762,1.4972,"[{""rating"":89.47917620340984,""responseTime"":1.4971999999954733}]",space,2.6227,,821.5518,All the time,100,821.5535,,,[],,0,12,12,12,1,audio/Narrative8Situation3.wav,audio/Narrative7Situation3.wav,audio/Narrative6Situation3.wav,audio/Narrative5Situation3.wav,4,8,5,3,,,,,,,,,,,,,,,,,,,,,,,,,,,,,,,,,,,,,,,
,,,,,,5d3221b8eb6cfa0001950113,2024-05-13_08h37.46.809,group3.1-3.2-social-tom,2023.2.2,Win32,59.88023952,65c5074098b851296ff0b7ed,664231bc7dbfb31964f5004b,,,,,,,,,,,,,,,,,,,,,,,,,,,,,821.5539,1,audio/Narrative7Situation4.wav,824.5686,,824.5686,836.3012,"[[81.6,666],[81.8,749],[81.8,833],[82.3,916],[82.3,999],[82.3,1083],[82.3,1166],[82.8,1249],[83,1333],[83.8,1416],[84.6,1499],[84.6,1583],[84.6,1666],[84.9,1749],[85.6,1833],[85.8,1916],[86.1,1999],[86.1,2083],[86.4,2166],[87,2250],[87.2,2332],[87.3,2416],[87.5,2499],[87.7,2583],[87.9,2666],[88,2749],[88,2833],[88,2916],[88,2999],[88,3083],[88,3166],[88,3249],[87.8,3333],[87.6,3416],[87.3,3499],[87.1,3582],[86.4,3666],[86.3,3749],[86.3,3832],[86.3,3916],[86.3,3999],[86.3,4083],[86.3,4166],[86.4,4249],[86.5,4332],[86.7,4416],[87.2,4499],[87.5,4582],[88.2,4666],[88.5,4749],[89.1,4833],[89.8,4916],[90.3,4999],[91.1,5082],[92.2,5166],[92.2,5249],[92.6,5332],[92.7,5416],[92.7,5499],[92.7,5582],[93.4,5666],[93.8,5749],[93.8,5832],[93.8,5916],[94.3,5999],[94.7,6082],[94.8,6166],[94.8,6249],[95.3,6332],[95.5,6416],[95.6,6499],[95.7,6582],[95.7,6666],[95.7,6749],[95.7,6832],[95.7,6916],[95.1,6999],[94.6,7082],[94,7166],[93.4,7249],[93.3,7332],[93.1,7416],[93.1,7499],[92.4,7582],[91,7666],[90.3,7749],[89.8,7832],[89.2,7916],[89,7999],[89,8082],[89.6,8166],[93,8249],[95.2,8332],[95.7,8416],[95.8,8499],[96.3,8582],[96.9,8666],[97.7,8749],[99.2,8832],[100,8916],[100,8999],[100,9082],[100,9165],[100,9249],[100,9332],[100,9415],[100,9499],[100,9582],[100,9665],[99.3,9749],[98.5,9832],[97.8,9915],[96.6,9999],[95.5,10082],[95.1,10166],[94.4,10249],[93.9,10332],[93.3,10415],[93.3,10499],[93.1,10582],[93.1,10665],[93.1,10749],[93.1,10832],[93.1,10915],[93.1,10999],[93.1,11082],[93.1,11168],[93.1,11249],[93.1,11332],[93.1,11416],[93.1,11499],[93,11582],[92.9,11665]]",1,0,836.3014,839.0007,94.37500636,1.4709,"[{""rating"":94.37500635782878,""responseTime"":1.4709000000059405}]",space,2.1522,,839.0009,All the time,100,839.0053,,,[],,0,13,13,13,1,audio/Narrative8Situation4.wav,audio/Narrative7Situation4.wav,audio/Narrative6Situation4.wav,audio/Narrative5Situation4.wav,3,3,2,1,,,,,,,,,,,,,,,,,,,,,,,,,,,,,,,,,,,,,,,
,,,,,,5d3221b8eb6cfa0001950113,2024-05-13_08h37.46.809,group3.1-3.2-social-tom,2023.2.2,Win32,59.88023952,65c5074098b851296ff0b7ed,664231bc7dbfb31964f5004b,,,,,,,,,,,,,,,,,,,,,,,,,,,,,839.0055,1,audio/Narrative7Situation5.wav,844.017,,844.017,852.5002,"[[999,8],[999,83],[999,166],[999,250],[999,333],[999,416],[999,500],[999,583],[999,666],[999,750],[999,833],[999,917],[999,1000],[999,1083],[85.1,1166],[85.8,1250],[85.9,1333],[85.9,1416],[85.9,1500],[85.9,1583],[85.9,1666],[86.1,1750],[86.8,1833],[87,1916],[87.8,2000],[88.3,2083],[88.7,2166],[88.9,2250],[89,2333],[89.8,2416],[90.4,2500],[90.6,2583],[91.1,2666],[91.7,2749],[92,2833],[92.2,2916],[93.2,3000],[94,3083],[94.5,3166],[95.3,3250],[96,3333],[96.4,3416],[96.8,3499],[96.9,3583],[96.9,3666],[96.9,3750],[96.9,3833],[97.1,3916],[98.1,4000],[98.3,4083],[98.3,4166],[98.3,4250],[98.3,4333],[98.3,4416],[98.3,4500],[98.2,4583],[97.8,4666],[97.7,4749],[97.7,4833],[97.7,4916],[97.7,5000],[97.7,5083],[97.7,5166],[97.7,5249],[98.4,5333],[99,5416],[99.4,5500],[100,5583],[100,5666],[100,5750],[100,5833],[100,5916],[100,5999],[100,6083],[100,6166],[100,6249],[100,6333],[100,6416],[100,6500],[98.6,6583],[97.7,6666],[97.5,6749],[97,6832],[96.5,6916],[96.3,6999],[95.6,7083],[95.4,7166],[95.1,7250],[94.9,7333],[94.5,7416],[94.2,7499],[94.2,7583],[94,7666],[93.9,7749],[93.9,7832],[93.9,7916],[93.9,7999],[93.9,8083],[93.9,8166],[93.9,8249],[93.9,8333],[93.9,8416]]",1,0,852.5003,855.1999,95.20834287,1.4945,"[{""rating"":95.20834287007649,""responseTime"":1.4945000000000164}]",space,2.1507,,855.2,Not at all,0,855.2046,,,[],,0,14,14,14,1,audio/Narrative8Situation5.wav,audio/Narrative7Situation5.wav,audio/Narrative6Situation5.wav,audio/Narrative5Situation5.wav,2,5,2,5,,,,,,,,,,,,,,,,,,,,,,,,,,,,,,,,,,,,,,,
,,,,,,5d3221b8eb6cfa0001950113,2024-05-13_08h37.46.809,group3.1-3.2-social-tom,2023.2.2,Win32,59.88023952,65c5074098b851296ff0b7ed,664231bc7dbfb31964f5004b,,,,,,,,,,,,,,,,,,,,,,,,,,,,,855.2049,1,audio/Narrative7Situation6.wav,858.2167,,858.2167,868.1992,"[[999,0],[999,83],[999,166],[999,249],[999,332],[999,416],[999,499],[87.8,583],[88,666],[88.3,749],[88.3,832],[88.3,916],[89,999],[89.5,1082],[89.6,1166],[89.8,1250],[90.6,1332],[91.1,1416],[91.7,1499],[92.3,1582],[92.7,1666],[92.8,1749],[93.6,1833],[94.1,1915],[94.3,1999],[95,2083],[95.8,2166],[96.3,2249],[96.4,2332],[96.9,2416],[96.9,2499],[97.1,2582],[97.1,2666],[97.3,2749],[97.6,2832],[97.9,2915],[97.9,2999],[97.9,3082],[97.9,3166],[97.9,3249],[97.9,3332],[96.7,3416],[95.5,3499],[94.9,3582],[94,3666],[93.9,3749],[93.9,3832],[93.9,3916],[93.3,3999],[93.1,4082],[93.1,4166],[92.8,4249],[92.6,4332],[92.5,4416],[92.5,4499],[92.4,4582],[91.8,4666],[90.9,4749],[90.8,4832],[90.8,4916],[90.8,4999],[90.8,5082],[90.8,5166],[90.8,5249],[91,5332],[91.1,5416],[91.4,5499],[91.9,5582],[92.5,5666],[93.2,5749],[93.5,5832],[94.1,5916],[94.3,5999],[95,6082],[95.6,6166],[96.1,6249],[96.4,6332],[96.6,6415],[96.7,6499],[96.8,6582],[97.1,6665],[97.6,6749],[98.9,6832],[99.3,6916],[99.5,6999],[99.5,7082],[100,7165],[100,7249],[100,7332],[100,7416],[100,7499],[100,7582],[100,7665],[100,7749],[100,7832],[99.2,7916],[98.1,7999],[97.6,8082],[97,8165],[96,8249],[95,8332],[94.7,8415],[94,8498],[93.5,8582],[93.4,8665],[93.3,8749],[92.5,8832],[92.3,8915],[92,8999],[91.8,9082],[91.5,9165],[91.1,9249],[91,9332],[90.9,9415],[90.9,9499],[90.9,9582],[90.9,9665],[90.9,9749],[90.9,9832],[90.9,9915]]",1,0,868.1993,870.4656,96.25000954,1.1212,"[{""rating"":96.25000953674316,""responseTime"":1.121199999995497}]",space,1.7207,,870.4657,All the time,100,870.4717,,,[],,0,15,15,15,1,audio/Narrative8Situation6.wav,audio/Narrative7Situation6.wav,audio/Narrative6Situation6.wav,audio/Narrative5Situation6.wav,2,3,2,3,,,,,,,,,,,,,,,,,,,,,,,,,,,,,,,,,,,,,,,
,,,,,,5d3221b8eb6cfa0001950113,2024-05-13_08h37.46.809,group3.1-3.2-social-tom,2023.2.2,Win32,59.88023952,65c5074098b851296ff0b7ed,664231bc7dbfb31964f5004b,,,,,,,,,,,,,,,,,,,,,,,,,,,,,870.4719,1,audio/Narrative7Situation7.wav,875.4822,,875.4823,892.648,"[[85.3,666],[85.4,749],[85.5,833],[85.5,916],[85.5,999],[85.8,1083],[87.1,1166],[87.4,1249],[87.5,1332],[87.5,1416],[87.5,1499],[87.8,1582],[88,1666],[88.2,1749],[88.2,1833],[88.2,1916],[88.2,1999],[88.2,2082],[88.2,2166],[88.2,2249],[88.2,2333],[88.1,2416],[87.8,2499],[87.7,2583],[87.4,2666],[86.7,2749],[86,2832],[85.7,2916],[85.3,2999],[85.2,3082],[85.1,3166],[85.1,3249],[85.1,3333],[85.1,3416],[85.1,3499],[85.1,3583],[85.1,3666],[85.1,3749],[85.1,3832],[85.1,3916],[85.1,3999],[85.1,4082],[85.1,4166],[85.1,4249],[85.1,4332],[85.1,4415],[85.2,4499],[85.6,4582],[85.9,4666],[86.4,4749],[86.5,4832],[86.7,4916],[86.9,4999],[86.9,5082],[87.3,5166],[87.9,5249],[88,5332],[88,5416],[88,5499],[88.2,5582],[88.2,5666],[88.2,5749],[88.2,5832],[88.2,5916],[88.2,5999],[88.2,6082],[88.1,6166],[87.9,6249],[87.6,6332],[87.1,6416],[86.4,6499],[85.6,6582],[85.3,6666],[85,6749],[84.5,6832],[84,6915],[83.5,6999],[83.1,7082],[82.7,7166],[82.7,7249],[82.7,7332],[82.7,7415],[82.7,7499],[82.7,7582],[82.8,7666],[83.3,7749],[83.9,7832],[84.6,7916],[85.4,7999],[85.9,8082],[85.9,8165],[86.4,8249],[87.9,8332],[88.5,8415],[88.5,8499],[89.1,8582],[89.9,8666],[90.1,8749],[91.3,8832],[92,8916],[92.4,8999],[92.7,9082],[93.4,9166],[93.8,9249],[93.8,9332],[93.8,9415],[93.8,9499],[93.8,9582],[93.8,9665],[93.8,9749],[93.8,9832],[93.8,9915],[93.4,9999],[92.5,10082],[92.3,10165],[92.3,10248],[92.1,10332],[92.1,10415],[92.2,10499],[93.5,10582],[94.7,10665],[94.8,10749],[94.8,10832],[95.2,10915],[95.7,10999],[96,11082],[96.4,11165],[97.2,11248],[97.9,11332],[98.1,11415],[98.2,11499],[98.3,11582],[98.6,11665],[98.8,11748],[99,11832],[99.3,11915],[99.5,11998],[99.8,12082],[100,12165],[100,12249],[100,12332],[100,12415],[100,12499],[100,12582],[100,12665],[100,12748],[100,12832],[100,12915],[100,12998],[99.3,13082],[97.5,13165],[97.2,13248],[97.1,13332],[97.1,13416],[97.1,13498],[97.1,13582],[97,13665],[96.7,13748],[96.7,13832],[96.5,13915],[96.5,13998],[96.5,14082],[96.5,14165],[96.5,14248],[96.5,14332],[96.5,14415],[96.5,14498],[96.5,14582],[96.5,14665],[96.5,14748],[96.9,14832],[97.1,14915],[97.4,14998],[97.8,15082],[98.4,15165],[98.8,15248],[98.8,15332],[98.8,15415],[98.9,15498],[99,15582],[99,15665],[99,15748],[99.5,15832],[99.8,15915],[99.8,15998],[99.8,16082],[99.8,16165],[99.8,16248],[99.8,16332],[99.8,16415],[99.8,16498],[99.3,16581],[98.8,16665],[97.5,16748],[97,16832],[96.7,16915],[96.6,16998],[96.6,17082],[96.6,17165]]",1,0,892.6482,895.9977,98.02083969,2.0072,"[{""rating"":98.02083969116211,""responseTime"":2.007199999995464}]",space,2.804,,895.9977,Not at all,0,896.0021,,,[],,0,16,16,16,1,audio/Narrative8Situation7.wav,audio/Narrative7Situation7.wav,audio/Narrative6Situation7.wav,audio/Narrative5Situation7.wav,3,5,5,4,,,,,,,,,,,,,,,,,,,,,,,,,,,,,,,,,,,,,,,
,,,,,,5d3221b8eb6cfa0001950113,2024-05-13_08h37.46.809,group3.1-3.2-social-tom,2023.2.2,Win32,59.88023952,65c5074098b851296ff0b7ed,664231bc7dbfb31964f5004b,,,,,,,,,,,,,,,,,,,,,,,,,,,,,896.0023,1,audio/Narrative7Situation8.wav,898.014,,898.0141,908.0302,"[[86.6,250],[86.9,583],[88,666],[89.9,749],[90,833],[90,916],[90,1000],[90,1083],[90,1166],[89.7,1250],[89.7,1333],[89.2,1416],[87.8,1499],[87.1,1583],[86.9,1666],[86.7,1749],[86.1,1833],[86.1,1916],[86.1,2000],[86.1,2083],[86.1,2166],[86.1,2249],[86.1,2333],[86.1,2416],[86.1,2499],[86.4,2583],[86.9,2666],[87,2749],[87,2833],[87,2916],[87.2,2999],[87.4,3083],[87.4,3166],[87.4,3249],[87.4,3333],[87.4,3416],[87.4,3499],[87.5,3583],[87.7,3666],[87.8,3749],[87.8,3833],[88.2,3916],[88.5,3999],[89.1,4083],[89.3,4166],[89.8,4249],[90.6,4332],[91,4416],[91.1,4499],[91.7,4582],[92.1,4665],[92.2,4749],[92.2,4832],[92.4,4916],[92.4,4999],[92.9,5083],[93.2,5166],[93.4,5249],[93.6,5333],[94.1,5416],[94.3,5499],[94.6,5582],[94.8,5666],[95.1,5749],[95.1,5833],[95.2,5916],[95.5,5999],[95.6,6082],[96,6166],[96.4,6249],[96.4,6332],[96.4,6416],[96.6,6499],[96.8,6583],[96.9,6666],[96.9,6749],[96.9,6832],[97.3,6916],[97.4,6999],[97.7,7083],[97.9,7166],[97.9,7249],[97.9,7332],[97.9,7416],[97.9,7499],[97.9,7582],[97.9,7666],[97.9,7749],[97.9,7832],[97.9,7915],[97.9,7999],[97.9,8082],[97.9,8166],[97.9,8249],[97.5,8332],[96.3,8416],[95.6,8499],[95.6,8582],[95.6,8665],[95.6,8749],[95.6,8832],[95.6,8915],[95.6,8999],[95.6,9083],[95.6,9165],[95.6,9249],[95.6,9332],[95.6,9416],[95.6,9499],[95.6,9582],[95.6,9666],[95.6,9749],[95.6,9832],[95.6,9916],[95.6,9999]]",1,0,908.0304,910.397,95.10416985,1.1752,"[{""rating"":95.10416984558105,""responseTime"":1.1751999999955842}]",space,1.8208,,910.3971,All the time,100,910.403,,,[],,0,17,17,17,1,audio/Narrative8Situation8.wav,audio/Narrative7Situation8.wav,audio/Narrative6Situation8.wav,audio/Narrative5Situation8.wav,3,2,5,3,,,,,,,,,,,,,,,,,,,,,,,,,,,,,,,,,,,,,,,
,,,,,,5d3221b8eb6cfa0001950113,2024-05-13_08h37.46.809,group3.1-3.2-social-tom,2023.2.2,Win32,59.88023952,65c5074098b851296ff0b7ed,664231bc7dbfb31964f5004b,,,,,,,,,,,,,,,,,,,,,,,,,,,,,910.4033,1,audio/Narrative7Situation9.wav,912.4133,,912.4134,921.0463,"[[80.7,499],[82.2,583],[85.5,666],[86.5,750],[86.5,833],[86.5,916],[86.8,999],[86.9,1083],[87.2,1166],[88.1,1249],[88.1,1333],[88.4,1416],[89.1,1499],[89.6,1583],[90.1,1666],[90.6,1749],[90.9,1833],[91.3,1916],[91.7,1999],[91.7,2083],[91.7,2165],[92,2249],[92.2,2333],[92.2,2416],[92.2,2499],[92.7,2583],[92.9,2665],[93,2749],[93.3,2833],[93.5,2916],[93.5,2999],[93.9,3083],[93.9,3166],[94.1,3249],[94.2,3332],[94.6,3416],[94.7,3499],[94.8,3583],[95,3666],[95,3749],[95,3832],[95.1,3915],[95.7,3999],[96.1,4082],[96.3,4165],[96.4,4249],[96.6,4333],[96.7,4416],[96.8,4499],[96.8,4582],[96.8,4666],[96.9,4749],[97.3,4832],[97.7,4916],[97.8,4999],[98.1,5083],[98.1,5165],[98.3,5249],[98.4,5332],[98.6,5415],[98.8,5499],[98.8,5582],[98.8,5665],[98.8,5749],[98.8,5832],[98.8,5915],[98.8,5999],[98.8,6082],[98.8,6165],[98.6,6249],[97.8,6332],[97.2,6416],[97,6499],[97,6582],[96.8,6666],[96.5,6749],[96.1,6832],[95.9,6916],[95.2,6999],[95.1,7082],[95.1,7165],[95.1,7249],[95.1,7332],[95.1,7415],[95.1,7499],[95.5,7582],[96,7665],[96,7749],[96.1,7832],[96.4,7915],[96.6,7999],[96.7,8082],[96.8,8166],[97.3,8249],[97.6,8332],[97.6,8415],[97.6,8499],[97.7,8582]]",1,0,921.0464,924.046,97.08333015,1.4607,"[{""rating"":97.08333015441895,""responseTime"":1.460700000003044}]",space,2.457,,924.0461,All the time,100,924.0505,,,[],,0,18,18,18,1,audio/Narrative8Situation9.wav,audio/Narrative7Situation9.wav,audio/Narrative6Situation9.wav,audio/Narrative5Situation9.wav,3,2,4,3,,,,,,,,,,,,,,,,,,,,,,,,,,,,,,,,,,,,,,,
,,,,,,5d3221b8eb6cfa0001950113,2024-05-13_08h37.46.809,group3.1-3.2-social-tom,2023.2.2,Win32,59.88023952,65c5074098b851296ff0b7ed,664231bc7dbfb31964f5004b,,,,,,,,,,,,,,,,,,,,,,,,,,,973.8435,973.8436,973.8594,2,audio/Narrative13Situation2.wav,973.8595,,973.8595,1003.6133,"[[999,0],[999,72],[999,155],[999,239],[999,322],[999,405],[999,489],[999,572],[999,658],[999,741],[999,822],[999,905],[999,989],[54.5,1073],[54.5,1154],[54.5,1238],[54.5,1322],[54.5,1405],[54.5,1488],[54.5,1572],[54.5,1655],[54.5,1740],[54.5,1822],[55,2489],[58.1,2573],[60.1,2656],[61,2739],[62.5,2822],[64.8,2905],[66.7,2988],[67.4,3072],[68.4,3156],[69.6,3238],[71.1,3322],[72.4,3405],[73.8,3488],[74.9,3572],[76.3,3655],[76.6,3738],[76.6,3821],[76.6,3905],[76.6,3988],[76.6,4071],[76.6,4154],[76.6,4238],[75.8,4322],[75.4,4405],[75.4,4489],[75.3,4571],[75.3,4654],[75.3,4739],[75.3,4821],[76,4905],[77,4989],[78.3,5072],[78.6,5156],[78.9,5238],[79,5321],[79.2,5405],[80.1,5488],[80.4,5572],[81.6,5655],[82.9,5740],[83.5,5822],[83.9,5905],[84.9,5988],[85.6,6072],[86.7,6155],[87.8,6238],[88.5,6322],[89.3,6405],[89.5,6488],[90.5,6572],[90.6,6654],[90.6,6738],[91.6,6822],[91.9,6904],[91.9,6988],[91.9,7071],[91.9,7154],[91.9,7238],[91.7,7322],[88.9,7405],[88.1,7489],[88.1,7571],[88.1,7654],[87.1,7738],[86.8,7821],[86.8,7905],[86.8,7987],[86.7,8071],[85.7,8155],[85,8239],[85,8321],[85,8404],[84.5,8489],[83.3,8571],[82.6,8655],[82.1,8739],[81.5,8822],[80.4,8905],[80.4,8987],[80.4,9071],[80.4,9155],[80.4,9237],[80.6,9322],[81.1,9405],[81.3,9487],[81.6,9571],[81.8,9654],[82.5,9741],[82.8,9821],[83,9904],[83.6,9989],[84.2,10071],[84.4,10154],[84.4,10238],[84.6,10321],[84.8,10405],[84.9,10488],[85.1,10572],[85.4,10654],[85.4,10739],[85.6,10821],[85.6,10904],[85.6,10987],[85.6,11071],[85.1,11154],[84,11238],[83.6,11321],[83.1,11405],[82.6,11488],[82.4,11571],[81.6,11655],[81.5,11738],[81.5,11821],[81.5,11904],[81.5,11987],[81.5,12071],[81.5,12154],[81.5,12237],[81.5,12321],[81.5,12404],[82,12489],[82.2,12571],[82.2,12654],[82.2,12739],[82.2,12820],[82.2,12904],[82.7,12988],[82.8,13071],[82.8,13154],[83.1,13238],[83.1,13321],[83.1,13404],[83.2,13488],[83.5,13571],[83.5,13654],[83.8,13739],[83.9,13821],[84.1,13904],[84.3,13988],[84.8,14071],[85.1,14154],[85.1,14237],[85.1,14322],[85.1,14404],[85.1,14487],[85.1,14571],[85.1,14654],[85.1,14739],[85.1,14820],[85.1,14904],[85.1,14987],[85.1,15070],[84.4,15154],[83.8,15238],[83.4,15320],[83,15404],[82.9,15488],[82.7,15571],[82.2,15655],[81.9,15739],[81.1,15821],[80.8,15904],[80.3,15987],[79.9,16072],[79.8,16154],[79.8,16237],[79.8,16321],[79.8,16404],[80.5,16488],[81.8,16571],[82,16653],[82.1,16740],[82.5,16821],[83,16904],[83.1,16988],[83.3,17070],[83.9,17154],[83.9,17237],[84.1,17320],[84.2,17404],[84.4,17488],[84.4,17570],[84.6,17654],[84.6,17737],[84.7,17821],[84.9,17905],[85.4,17987],[85.4,18070],[85.7,18154],[85.9,18237],[86.5,18321],[86.5,18404],[86.9,18487],[87,18571],[87.2,18653],[87.3,18739],[87.4,18821],[87.4,18904],[87.5,18987],[87.8,19071],[88,19153],[88.2,19237],[88.2,19320],[88.5,19404],[89,19488],[89,19570],[89,19654],[89.1,19738],[89.1,19820],[89.1,19904],[88.6,19988],[88.2,20070],[87.6,20154],[87.1,20238],[86.3,20321],[86,20403],[85.6,20487],[85.1,20570],[84.6,20654],[83.6,20739],[83.2,20820],[82.6,20904],[82.2,20987],[81.9,21071],[81.9,21153],[81.9,21237],[81.9,21321],[81.9,21403],[82.3,21487],[83.9,21572],[84.3,21654],[84.4,21737],[84.8,21820],[85.1,21903],[85.4,21988],[85.8,22070],[85.9,22154],[86.3,22238],[86.8,22320],[87,22404],[87.2,22487],[87.3,22570],[87.3,22653],[87.4,22737],[87.8,22820],[88,22904],[88,22987],[88,23070],[88.2,23154],[88.4,23237],[88.5,23320],[88.5,23404],[88.5,23487],[87.3,23571],[84.2,23654],[84,23738],[84,23820],[82.7,23904],[82.1,23987],[81.1,24070],[80.2,24154],[78.9,24237],[78.2,24320],[78,24404],[78,24487],[77.9,24570],[77.7,24653],[77.7,24736],[77.7,24821],[77.6,24903],[77.6,24986],[77.5,25071],[77.4,25153],[77.2,25237],[77.2,25320],[77,25404],[76.9,25487],[76.9,25570],[76.9,25653],[76.9,25737],[77.8,25820],[78.5,25904],[78.5,25987],[78.5,26070],[79,26153],[79.2,26236],[79.5,26320],[80,26404],[80.5,26487],[81,26570],[81.5,26653],[81.7,26737],[82.1,26820],[82.2,26903],[82.6,26987],[82.7,27070],[82.7,27153],[83,27237],[83.2,27320],[83.3,27403],[83.5,27487],[83.6,27570],[83.9,27653],[83.9,27738],[83.9,27820],[83.9,27903],[83.9,27987],[83,28070],[82.4,28154],[81.9,28237],[81.7,28320],[81.1,28404],[80.8,28487],[80.3,28570],[79.3,28654],[77.9,28737],[77.9,28820],[77.9,28903],[77.9,28986],[77.9,29070],[77.9,29153],[77.9,29236],[78.1,29321],[78.5,29403],[79.2,29487],[79.7,29570],[79.7,29653],[80.2,29738]]",1,0,1003.6136,1003.6155,,,[],,,,1003.6155,All the time,100,1003.6167,,,[],,0,0,0,0,1,audio/Narrative13Situation2.wav,audio/Narrative13Situation2.wav,audio/Narrative13Situation2.wav,audio/Narrative13Situation2.wav,2,2,2,2,,,,,924.0515,973.8301,,,,,,,,,,,,,,,,,,,,,,,,,,,,,,,,,
,,,,,,5d3221b8eb6cfa0001950113,2024-05-13_08h37.46.809,group3.1-3.2-social-tom,2023.2.2,Win32,59.88023952,65c5074098b851296ff0b7ed,664231bc7dbfb31964f5004b,,,,,,,,,,,,,,,,,,,,,,,,,,,,,1003.617,2,audio/Narrative6Situation1.wav,1005.6298,,1005.6298,1032.2115,"[[79.5,85],[76.4,168],[77.3,750],[78,834],[78.4,918],[79,1000],[79,1082],[79,1166],[79,1249],[79,1333],[79,1416],[78.6,1500],[78.5,1583],[78.4,1666],[78.4,1749],[78.2,1833],[78.2,1916],[78.2,1999],[78.2,2083],[78.2,2166],[78.2,2249],[78.2,2333],[78.2,2416],[78.4,2500],[78.9,2583],[79.5,2666],[80,2750],[80.2,2832],[80.2,2916],[80.7,3001],[81,3083],[81.3,3166],[81.8,3250],[82,3332],[82.3,3416],[82.3,3499],[82.5,3583],[82.6,3666],[82.8,3750],[83.1,3833],[83.1,3916],[83.3,3999],[83.3,4082],[83.9,4167],[84.2,4250],[84.2,4333],[84.3,4416],[84.4,4499],[84.6,4583],[84.6,4666],[84.6,4749],[84.6,4833],[84.6,4916],[84.7,4999],[84.7,5082],[84.7,5166],[84.7,5249],[84.5,5333],[84.1,5416],[84,5499],[83.8,5582],[83.8,5666],[83,5749],[82.6,5833],[82.4,5916],[82.4,5999],[82.4,6082],[82.1,6166],[81.9,6250],[81.9,6332],[81.9,6416],[81.7,6499],[81.7,6583],[81.7,6666],[81.6,6749],[81.1,6833],[81.1,6916],[81.1,6999],[80.8,7082],[80.8,7165],[80.8,7249],[80.8,7332],[81.3,7416],[81.6,7499],[81.8,7583],[82.1,7666],[82.2,7749],[82.3,7832],[82.8,7916],[83,7999],[83.3,8083],[83.4,8167],[83.6,8249],[83.9,8332],[84.2,8416],[84.4,8499],[84.7,8583],[84.9,8665],[85.1,8749],[85.1,8833],[85.1,8915],[85.1,8999],[85.1,9083],[85,9165],[84.8,9249],[84.8,9332],[84.8,9415],[84.3,9499],[84.1,9582],[84.1,9665],[84.1,9749],[84,9832],[83.8,9915],[83.6,9999],[83.6,10082],[83.6,10165],[83.6,10249],[83.6,10332],[83.6,10415],[83.6,10499],[83.6,10582],[83.9,10666],[84.1,10749],[84.2,10833],[84.2,10915],[84.2,10998],[84.2,11083],[84.3,11165],[84.4,11249],[84.4,11332],[84.4,11415],[84.4,11499],[84.4,11582],[84.4,11665],[84.4,11749],[84.4,11832],[84.4,11915],[84.4,11998],[84.4,12082],[84.6,12166],[84.7,12249],[84.8,12332],[84.8,12415],[84.8,12498],[84.8,12582],[84.8,12665],[84.8,12748],[84.8,12832],[84.9,12915],[84.9,12998],[84.9,13082],[84.9,13165],[84.9,13248],[84.9,13332],[85.1,13415],[85.1,13498],[85.2,13582],[85.2,13665],[85.2,13749],[85.2,13832],[85.2,13915],[85.2,13999],[85.2,14082],[85.2,14165],[85.2,14249],[85.2,14332],[85.1,14416],[85,14498],[84.8,14582],[84.6,14666],[84.5,14749],[84.3,14832],[84.3,14915],[84.2,14998],[84.1,15082],[84.1,15165],[83.8,15249],[83.6,15332],[83.5,15415],[83.2,15499],[83,15582],[83,15665],[83,15749],[83,15832],[82.9,15915],[82.7,15999],[82.7,16082],[82.7,16165],[82.7,16248],[82.7,16332],[82.7,16415],[83.2,16499],[83.4,16582],[83.5,16665],[83.5,16748],[83.8,16832],[83.8,16915],[83.9,16999],[83.9,17082],[84.2,17165],[84.2,17248],[84.2,17332],[84.3,17415],[84.6,17498],[84.7,17583],[84.7,17665],[84.8,17748],[84.9,17832],[84.9,17915],[85.1,17998],[85.1,18082],[85.3,18165],[85.5,18249],[85.6,18332],[85.6,18415],[85.7,18498],[85.7,18581],[86.1,18665],[86.1,18748],[86.1,18832],[86.1,18915],[86.1,18999],[85.8,19082],[85.7,19165],[85,19249],[84.8,19332],[84.8,19415],[84.7,19498],[84.7,19582],[84.6,19665],[84.5,19749],[84.1,19832],[84.1,19915],[83.9,19999],[83.9,20082],[83.9,20165],[83.6,20249],[83.4,20331],[83.4,20415],[83.4,20498],[83.4,20582],[83.4,20665],[83.4,20748],[83.4,20831],[83.4,20915],[83.4,20998],[83.8,21081],[83.9,21165],[83.9,21248],[83.9,21332],[83.9,21415],[83.9,21498],[84.1,21581],[84.2,21665],[84.2,21748],[84.2,21832],[84.4,21914],[84.4,21998],[84.4,22082],[84.8,22165],[84.8,22248],[84.8,22332],[84.9,22415],[84.9,22498],[84.9,22581],[85.2,22665],[85.3,22749],[85.3,22831],[85.4,22915],[85.7,22998],[85.8,23081],[85.9,23165],[85.9,23248],[86.3,23332],[86.4,23415],[86.4,23498],[86.4,23582],[86.4,23665],[85.7,23748],[85.4,23833],[85.2,23915],[85,23998],[84.7,24082],[84.5,24165],[84,24248],[84,24333],[83.4,24415],[83.1,24499],[82.9,24582],[82.5,24665],[82.4,24748],[82.4,24831],[82.2,24914],[82.1,24998],[82.1,25081],[82.1,25165],[82.1,25248],[82.1,25331],[82.1,25415],[82.5,25498],[82.8,25582],[82.8,25665],[82.8,25748],[83,25831],[83.2,25914],[83.3,25998],[83.5,26082],[83.5,26164],[83.6,26248],[83.8,26331],[83.8,26414],[83.9,26498],[83.9,26581]]",1,0,1032.2117,1034.9952,83.33333333,1.4998,"[{""rating"":83.33333333333333,""responseTime"":1.4997999999970943}]",space,2.2342,,1034.9952,All the time,100,1034.9964,,,[],,0,1,1,1,1,audio/Narrative7Situation1.wav,audio/Narrative8Situation1.wav,audio/Narrative5Situation1.wav,audio/Narrative6Situation1.wav,2,5,5,2,,,,,,,,,,,,,,,,,,,,,,,,,,,,,,,,,,,,,,,
,,,,,,5d3221b8eb6cfa0001950113,2024-05-13_08h37.46.809,group3.1-3.2-social-tom,2023.2.2,Win32,59.88023952,65c5074098b851296ff0b7ed,664231bc7dbfb31964f5004b,,,,,,,,,,,,,,,,,,,,,,,,,,,,,1034.9966,2,audio/Narrative6Situation2.wav,1038.0108,,1038.0108,1066.5105,"[[999,0],[999,83],[999,166],[999,250],[999,334],[999,416],[999,500],[999,583],[82.2,667],[82.2,751],[82.2,834],[82.1,917],[82.1,999],[82.1,1083],[82.1,1166],[82.1,1250],[82.2,1333],[82.3,1416],[82.3,1500],[82.7,1583],[84.1,1667],[84.1,1750],[84.1,1833],[84.4,1917],[84.4,2000],[84.4,2083],[84.4,2166],[84.4,2249],[84.4,2334],[84.3,2416],[83.8,2500],[83.6,2583],[83.6,2666],[83.6,2749],[83.2,2833],[82.9,2916],[82.5,3000],[82.4,3084],[82.4,3166],[82.4,3250],[82.4,3333],[82.4,3416],[82.4,3500],[82.4,3583],[82.4,3666],[82.7,3750],[82.8,3833],[83.5,3917],[83.9,4000],[84.3,4083],[84.6,4167],[84.8,4250],[85.1,4333],[85.2,4416],[85.3,4499],[85.4,4582],[85.6,4666],[85.6,4749],[85.9,4833],[86.1,4917],[86.1,4999],[86.1,5083],[86.1,5166],[86.1,5249],[86.1,5333],[86,5416],[85.8,5500],[85.7,5584],[85.7,5666],[85.7,5749],[85.7,5833],[85.6,5916],[85.2,6000],[85,6083],[84.8,6166],[84.7,6249],[84.7,6333],[84.6,6416],[84.5,6499],[84.1,6583],[83.6,6666],[83.4,6750],[83.4,6833],[83.4,6915],[83.4,7000],[83.2,7083],[83.2,7165],[83.2,7250],[83.2,7333],[83.9,7416],[84.1,7500],[84.1,7583],[84.1,7666],[84.1,7749],[84.1,7833],[84.1,7916],[84.4,8000],[84.6,8083],[84.8,8167],[85.4,8249],[85.8,8333],[85.9,8416],[86.3,8499],[86.4,8584],[86.4,8666],[86.8,8749],[87.2,8833],[87.3,8916],[87.4,9000],[87.4,9083],[87.2,9166],[86.5,9250],[86.3,9334],[86.1,9416],[85.7,9500],[85.1,9584],[84.6,9666],[84.2,9750],[84.1,9833],[83.5,9916],[83.5,9999],[83.4,10083],[83.4,10165],[83.4,10249],[83.4,10333],[83.4,10415],[83.4,10499],[84.1,10583],[84.3,10665],[84.4,10749],[84.6,10832],[84.8,10916],[84.9,11000],[84.9,11082],[85.1,11166],[85.2,11250],[85.3,11332],[85.4,11416],[85.7,11499],[85.9,11583],[86.4,11666],[86.4,11749],[86.5,11832],[86.7,11916],[86.7,11999],[86.7,12082],[86.7,12166],[86.7,12249],[86.7,12332],[86.4,12416],[85.8,12499],[85.6,12583],[85.5,12666],[85.1,12749],[84.5,12833],[84.5,12915],[84.3,12999],[84.1,13083],[84,13165],[83.8,13249],[83.6,13332],[83.5,13415],[83.2,13499],[82.9,13582],[82.7,13666],[82.5,13749],[82,13832],[81.9,13916],[81.9,13999],[81.9,14082],[81.9,14166],[81.9,14249],[81.9,14332],[81.9,14416],[81.9,14499],[82.3,14582],[82.6,14666],[82.8,14749],[83.1,14832],[83.2,14916],[83.3,14999],[83.9,15082],[84.3,15166],[84.4,15249],[84.4,15332],[84.7,15416],[84.9,15499],[84.9,15583],[84.9,15665],[84.9,15749],[84.9,15832],[84.9,15916],[84.9,15999],[85.1,16082],[85.1,16165],[85.1,16249],[85.1,16332],[85.1,16415],[85.2,16499],[85.3,16582],[85.4,16665],[85.7,16749],[85.9,16832],[85.9,16915],[85.9,16999],[85.9,17082],[85.9,17165],[85.9,17249],[85.9,17332],[85.7,17415],[85.5,17499],[85.2,17582],[84.8,17666],[84.5,17749],[84.5,17832],[84.5,17915],[84.3,17999],[84.3,18082],[84.3,18166],[84.3,18249],[84.3,18332],[84.1,18416],[83.8,18499],[83.8,18582],[83.8,18665],[83.8,18748],[83.8,18832],[83.8,18915],[83.8,18999],[84.2,19083],[85.2,19166],[85.8,19249],[86.3,19333],[86.8,19415],[87.2,19499],[87.5,19583],[87.8,19665],[88.1,19749],[88.3,19832],[88.5,19915],[88.9,19999],[88.9,20082],[89.1,20165],[89.6,20249],[89.6,20332],[89.6,20415],[89.6,20499],[89.6,20582],[89.6,20665],[89.6,20749],[89.6,20832],[89.5,20915],[89.2,20998],[88.9,21082],[88.3,21166],[87.9,21249],[87.7,21332],[87.7,21415],[87.7,21498],[87.7,21582],[87.7,21666],[88.3,21749],[89.1,21832],[89.5,21916],[89.5,21998],[89.5,22082],[89.6,22165],[89.6,22248],[90,22332],[90.3,22415],[90.5,22499],[91,22583],[91,22665],[91.1,22749],[91.1,22832],[91.1,22915],[91.1,22999],[91.1,23082],[91,23165],[90.6,23249],[90.3,23332],[89.8,23416],[89.3,23498],[88.9,23582],[88.1,23666],[87.6,23749],[87.4,23831],[87.3,23916],[87.1,23998],[87.1,24082],[86.8,24165],[86.7,24248],[86.7,24331],[86.7,24415],[86.7,24498],[86.7,24583],[86.9,24665],[87.7,24749],[88.2,24833],[88.5,24915],[89,24998],[89.2,25082],[89.6,25166],[89.6,25248],[90.3,25332],[90.5,25415],[90.6,25498],[91,25582],[91.1,25665],[91.1,25748],[91.1,25832],[91.1,25915],[91.4,25999],[92.1,26082],[92.1,26165],[92.1,26249],[92.2,26335],[92.2,26415],[92.4,26499],[92.4,26582],[92.4,26665],[92.4,26749],[92.4,26831],[92.4,26915],[92.3,26998],[91.7,27082],[91.5,27165],[91.4,27248],[91,27332],[90.5,27415],[90.2,27499],[89.7,27582],[89.2,27666],[88.9,27748],[88.6,27831],[88.6,27915],[88.6,27998],[88.6,28081],[88.6,28164],[88.6,28249],[88.5,28332],[89.1,28415],[89.5,28499]]",1,0,1066.5109,1068.576,89.0625,0.8149,"[{""rating"":89.0625,""responseTime"":0.8149000000059914}]",space,1.5171,,1068.5761,Not at all,0,1068.5789,,,[],,0,2,2,2,1,audio/Narrative7Situation2.wav,audio/Narrative8Situation2.wav,audio/Narrative5Situation2.wav,audio/Narrative6Situation2.wav,3,3,3,3,,,,,,,,,,,,,,,,,,,,,,,,,,,,,,,,,,,,,,,
,,,,,,5d3221b8eb6cfa0001950113,2024-05-13_08h37.46.809,group3.1-3.2-social-tom,2023.2.2,Win32,59.88023952,65c5074098b851296ff0b7ed,664231bc7dbfb31964f5004b,,,,,,,,,,,,,,,,,,,,,,,,,,,,,1068.5791,2,audio/Narrative6Situation3.wav,1073.5932,,1073.5932,1086.208,"[[999,8],[999,93],[999,176],[999,260],[999,343],[999,427],[999,510],[999,594],[999,676],[85.2,765],[85.1,844],[85.1,926],[85.1,1010],[85.1,1099],[85.1,1177],[85.1,1259],[85.1,1343],[85.1,1426],[85.1,1510],[85.1,1593],[85.2,1677],[85.9,1766],[87.3,1844],[88,1926],[88.3,2014],[88.5,2094],[89,2183],[89.1,2260],[89.1,2343],[89.1,2426],[89.1,2509],[89.1,2593],[89.1,2676],[89.1,2760],[89.1,2843],[89.1,2926],[89.1,3009],[89.1,3093],[89.1,3176],[89.1,3260],[89.1,3343],[89.1,3426],[89.1,3509],[89.6,3593],[90.1,3682],[90.1,3760],[90.1,3843],[90.1,3927],[90.1,4010],[89.9,4093],[89.4,4182],[89.3,4264],[89.2,4343],[89,4427],[88.9,4509],[88.7,4593],[88.3,4682],[87.7,4760],[87.1,4843],[87.1,4926],[87.1,5009],[87.1,5093],[87.1,5176],[87.1,5260],[87.7,5349],[88,5432],[88.2,5509],[88.2,5593],[88.9,5680],[89,5759],[89.1,5843],[89.6,5926],[89.9,6009],[89.9,6093],[89.9,6176],[90.1,6260],[90.3,6343],[90.6,6426],[90.8,6509],[90.9,6593],[90.9,6676],[90.9,6764],[89.9,6843],[88.6,6932],[88.1,7015],[87.8,7099],[87.5,7181],[87.1,7259],[86.9,7343],[86.6,7432],[86.4,7509],[86.3,7593],[86.3,7676],[86.3,7759],[86.3,7843],[86.3,7926],[86.5,8010],[87,8093],[87.2,8179],[87.5,8265],[87.8,8348],[88,8426],[88,8509],[88.2,8599],[89,8676],[89.3,8765],[89.6,8843],[89.6,8926],[90.1,9010],[90.5,9093],[90.8,9182],[90.8,9259],[91.1,9349],[91.5,9426],[91.7,9515],[91.7,9593],[92,9681],[92.1,9759],[92.1,9842],[92.1,9926],[92.1,10009],[92.1,10093],[92.1,10181],[92.1,10259],[92.1,10343],[92.1,10426],[92,10509],[92,10593],[92,10681],[92,10765],[92,10848],[91.7,10927],[90.9,11009],[90.7,11092],[90.3,11176],[89.7,11265],[89.1,11342],[89.1,11426],[89.1,11514],[89.1,11592],[89.1,11676],[89,11765],[89,11842],[89,11926],[89,12009],[89,12093],[89,12176],[89,12259],[89,12342],[89,12426],[89,12509],[89,12598]]",1,0,1086.2082,1089.8913,92.29167302,1.6531,"[{""rating"":92.29167302449544,""responseTime"":1.6531000000015865}]",space,3.1362,,1089.8914,All the time,100,1100.0916,99.89584287,7.868,"[{""rating"":99.89584287007649,""responseTime"":7.867999999999938}]",space,0,3,3,3,1,audio/Narrative7Situation3.wav,audio/Narrative8Situation3.wav,audio/Narrative5Situation3.wav,audio/Narrative6Situation3.wav,8,4,3,5,,,9.6535,,,,,,,,,,,,,,,,,,,,,,,,,,,,,,,,,,,,
,,,,,,5d3221b8eb6cfa0001950113,2024-05-13_08h37.46.809,group3.1-3.2-social-tom,2023.2.2,Win32,59.88023952,65c5074098b851296ff0b7ed,664231bc7dbfb31964f5004b,,,,,,,,,,,,,,,,,,,,,,,,,,,,,1100.0923,2,audio/Narrative6Situation4.wav,1102.1018,,1102.102,1114.7347,"[[999,1],[999,83],[999,166],[999,249],[999,333],[999,416],[999,500],[999,583],[999,666],[999,750],[999,833],[999,916],[999,1000],[999,1083],[999,1172],[999,1249],[999,1338],[74.5,1422],[74.9,1505],[75.4,1582],[75.5,1666],[76,1753],[77.2,1838],[78.4,1916],[78.6,2000],[80.7,2088],[81.8,2166],[83,2255],[84.1,2333],[86.4,2416],[86.7,2499],[87.3,2583],[87.5,2666],[87.5,2749],[87.5,2832],[87.5,2916],[87.5,2999],[87.3,3083],[86.6,3171],[86.4,3249],[86,3338],[86,3416],[85.1,3505],[84.5,3588],[84.5,3671],[84.5,3749],[84.5,3832],[84.5,3916],[84.5,3999],[84.5,4082],[84.9,4166],[85.4,4250],[85.6,4332],[85.8,4416],[85.9,4500],[86.5,4588],[86.8,4667],[87.5,4754],[88.2,4833],[88.7,4916],[89,5004],[89,5082],[89.1,5166],[89.1,5249],[89.1,5333],[89.1,5416],[88.4,5499],[88.2,5588],[88.2,5666],[88.2,5749],[88.2,5832],[88.1,5921],[88.1,5999],[88.1,6082],[87.9,6171],[87.6,6255],[87.4,6332],[87.3,6421],[87.3,6499],[87.3,6582],[87.3,6672],[87.3,6749],[87.5,6832],[88.5,6916],[89.1,6999],[90.3,7088],[90.5,7165],[90.8,7249],[91.5,7338],[91.7,7415],[92.2,7500],[92.4,7582],[93.2,7671],[93.6,7749],[93.6,7832],[93.6,7921],[93.6,7999],[93.6,8082],[93.6,8165],[93.5,8249],[92.8,8338],[92.3,8419],[91.8,8505],[91.3,8582],[91,8666],[90.8,8749],[90.5,8832],[90.5,8915],[90.5,8999],[90.5,9082],[91.4,9171],[92.2,9254],[92.2,9332],[92.6,9415],[92.9,9500],[93.5,9588],[94,9665],[94,9749],[94.2,9832],[94.6,9921],[94.7,9999],[94.7,10082],[95.2,10171],[95.2,10249],[95.2,10332],[95.2,10415],[95.2,10499],[95.1,10582],[93.6,10671],[92.9,10749],[92.9,10832],[92.9,10915],[92.6,11004],[92.3,11082],[91.9,11171],[91.5,11249],[90.9,11338],[90.2,11421],[89.7,11505],[88.9,11582],[88.6,11665],[88.4,11748],[88.4,11832],[88.4,11915],[88.4,11999],[88.4,12082],[88.4,12171],[88.5,12254],[88.9,12332],[89.1,12416],[90,12500],[90.1,12582]]",1,0,1114.735,1118.2013,92.29167302,1.541,"[{""rating"":90.10416666666667,""responseTime"":0.9887000000030639},{""rating"":92.29167302449544,""responseTime"":1.5410000000001673}]",space,2.9164,,1118.2015,Half the time,50,1118.2051,,,[],,0,4,4,4,1,audio/Narrative7Situation4.wav,audio/Narrative8Situation4.wav,audio/Narrative5Situation4.wav,audio/Narrative6Situation4.wav,3,3,1,2,,,,,,,,,,,,,,,,,,,,,,,,,,,,,,,,,,,,,,,
,,,,,,5d3221b8eb6cfa0001950113,2024-05-13_08h37.46.809,group3.1-3.2-social-tom,2023.2.2,Win32,59.88023952,65c5074098b851296ff0b7ed,664231bc7dbfb31964f5004b,,,,,,,,,,,,,,,,,,,,,,,,,,,,,1118.2053,2,audio/Narrative6Situation5.wav,1120.2176,,1120.2177,1128.1672,"[[82.4,83],[83.6,171],[84,255],[84,333],[84.1,421],[85.8,500],[86.5,583],[86.6,666],[87.3,750],[87.4,833],[87.4,916],[87.7,1005],[89.4,1088],[89.6,1166],[89.6,1249],[89.9,1338],[90.3,1416],[90.8,1505],[91.1,1582],[91.6,1666],[91.6,1749],[91.7,1832],[91.9,1921],[91.9,1999],[91.9,2083],[91.9,2166],[91.9,2249],[91.9,2333],[91.5,2421],[91.3,2499],[90.5,2583],[90.2,2671],[89.8,2756],[89.4,2833],[88.6,2921],[88.6,2999],[88.6,3083],[88.4,3166],[88.4,3249],[88.4,3333],[88.4,3416],[89.1,3505],[90.1,3588],[90.1,3666],[90.1,3749],[90.1,3833],[90.1,3916],[90.6,4004],[90.6,4083],[90.8,4166],[91.1,4250],[91.4,4332],[91.5,4416],[91.6,4499],[91.7,4583],[91.7,4666],[91.7,4749],[92,4839],[92,4916],[92.1,5004],[92.1,5082],[92.1,5166],[92.1,5249],[92.1,5332],[91.3,5421],[91,5499],[90.8,5587],[90.8,5666],[90.7,5754],[90.7,5832],[90.7,5915],[90.7,5999],[90.7,6082],[90.3,6171],[90.2,6254],[89.7,6339],[89.7,6415],[89.7,6499],[89.7,6582],[89.7,6666],[89.7,6754],[89.7,6832],[89.7,6919],[89.7,6999],[89.8,7083],[90,7171],[90.5,7254],[90.6,7332],[90.6,7415],[90.9,7504],[91,7582],[91,7665],[91,7749],[91,7832],[91,7915]]",1,0,1128.1675,1130.3393,90.93750318,1.2234,"[{""rating"":90.93750317891438,""responseTime"":1.2233999999984917}]",space,1.6453,,1130.3394,All the time,100,1130.3423,,,[],,0,5,5,5,1,audio/Narrative7Situation5.wav,audio/Narrative8Situation5.wav,audio/Narrative5Situation5.wav,audio/Narrative6Situation5.wav,5,2,5,2,,,,,,,,,,,,,,,,,,,,,,,,,,,,,,,,,,,,,,,
,,,,,,5d3221b8eb6cfa0001950113,2024-05-13_08h37.46.809,group3.1-3.2-social-tom,2023.2.2,Win32,59.88023952,65c5074098b851296ff0b7ed,664231bc7dbfb31964f5004b,,,,,,,,,,,,,,,,,,,,,,,,,,,,,1130.3426,2,audio/Narrative6Situation6.wav,1132.3502,,1132.3503,1143.4329,"[[91.8,1249],[91.6,1333],[91.4,1416],[91.3,1504],[90.9,1582],[90.9,1666],[90.2,1750],[89.7,1832],[89.7,1916],[89.7,1999],[88.6,2088],[86.9,2172],[86.3,2255],[86,2332],[86,2415],[86,2499],[86,2582],[86,2666],[87,2749],[87.3,2838],[87.4,2916],[87.5,2999],[87.5,3083],[87.5,3166],[88.2,3255],[88.2,3332],[88.2,3416],[88.5,3499],[89.2,3588],[89.3,3666],[89.6,3749],[89.9,3832],[90.3,3916],[90.6,3999],[91.1,4088],[91.1,4166],[91.1,4249],[91.1,4332],[91.1,4416],[91.1,4499],[91.1,4582],[90.3,4671],[89.5,4749],[89.3,4832],[88.6,4921],[88.2,4999],[88.1,5083],[88.1,5166],[88.1,5249],[88.1,5332],[87.9,5416],[87.9,5499],[87.9,5582],[87.9,5666],[89,5754],[89.3,5838],[89.6,5916],[90,6004],[90.6,6088],[91.1,6172],[91.8,6249],[92.2,6332],[92.6,6421],[93,6505],[93.6,6582],[94.1,6665],[94.3,6749],[94.6,6833],[94.7,6915],[94.8,6999],[94.8,7082],[95,7165],[95.2,7254],[95.3,7332],[95.3,7415],[95.3,7499],[95.3,7582],[95.3,7665],[95.3,7748],[95.3,7832],[95.3,7915],[95.3,7999],[95.3,8082],[95.3,8165],[95.2,8250],[94.7,8337],[93.9,8421],[93.3,8499],[93.2,8582],[93,8665],[92.9,8748],[92.9,8832],[92.5,8921],[91.9,8999],[91.3,9088],[91,9172],[90.9,9255],[90.7,9332],[90.7,9415],[90.7,9499],[90.7,9582],[90.7,9665],[90.7,9749],[90.7,9832],[90.7,9915],[90.7,9999],[90.7,10082],[90.7,10165],[90.7,10249],[90.7,10332],[90.7,10415],[90.7,10498],[90.7,10582],[90.7,10665],[90.7,10748],[90.7,10832],[90.7,10915],[90.7,10999],[90.7,11082]]",1,0,1143.4333,1199.9636,95.7291762,54.6194,"[{""rating"":77.70833174387614,""responseTime"":52.178600000001325},{""rating"":89.27083015441895,""responseTime"":52.96879999999692},{""rating"":95.72917620340984,""responseTime"":54.61939999999845}]",space,55.9891,,1199.964,All the time,100,1199.9706,,,[],,0,6,6,6,1,audio/Narrative7Situation6.wav,audio/Narrative8Situation6.wav,audio/Narrative5Situation6.wav,audio/Narrative6Situation6.wav,3,2,3,2,,,,,,,,,,,,,,,,,,,,,,,,,,,,,,,,,,,,,,,
,,,,,,5d3221b8eb6cfa0001950113,2024-05-13_08h37.46.809,group3.1-3.2-social-tom,2023.2.2,Win32,59.88023952,65c5074098b851296ff0b7ed,664231bc7dbfb31964f5004b,,,,,,,,,,,,,,,,,,,,,,,,,,,,,1199.9709,2,audio/Narrative6Situation7.wav,1204.9806,,1204.9808,1229.8446,"[[999,11],[999,107],[999,189],[999,289],[999,378],[999,452],[999,537],[999,615],[999,724],[999,815],[999,898],[999,981],[999,1065],[999,1147],[999,1231],[999,1314],[999,1398],[999,1482],[999,1567],[81.3,1649],[81.8,1733],[82.2,1815],[82.2,1897],[82.2,1981],[82.2,2064],[82.2,2149],[84.6,2237],[85.7,2319],[85.8,2397],[85.8,2481],[88.6,2572],[89.1,2655],[89.5,2733],[91.8,2821],[92.5,2898],[92.7,2984],[93,3070],[94.1,3154],[94.5,3231],[94.5,3319],[94.6,3397],[94.7,3487],[94.7,3564],[94.7,3647],[94.7,3731],[94.7,3814],[94.7,3897],[94.7,3980],[94.4,4064],[93.3,4155],[93.3,4231],[93.3,4314],[93.3,4398],[93.3,4481],[93,4572],[92.5,4650],[92.3,4731],[92.3,4821],[92.1,4898],[92.1,4982],[92.1,5064],[92.1,5147],[92.1,5231],[92.7,5320],[93.1,5405],[93.2,5484],[93.2,5564],[93.4,5653],[93.5,5731],[94.3,5815],[95.1,5903],[95.2,5981],[95.3,6064],[95.5,6147],[95.6,6231],[95.6,6314],[95.6,6404],[95.6,6488],[95.6,6565],[95.2,6653],[94.9,6738],[94.4,6816],[93.9,6905],[93.4,6981],[93,7071],[93,7147],[92.5,7238],[91.7,7321],[91.5,7397],[91.3,7481],[91,7564],[91,7653],[91,7731],[91,7814],[91,7897],[91,7980],[91,8064],[91.7,8147],[91.9,8231],[92.2,8315],[92.7,8406],[93.3,8484],[93.5,8567],[93.8,8650],[93.8,8730],[93.8,8814],[93.8,8897],[93.8,8980],[94,9064],[94.3,9154],[94.3,9230],[94.3,9314],[94.3,9397],[94.3,9480],[94.3,9564],[94.3,9647],[94.3,9730],[94.3,9814],[94.3,9897],[94.1,9980],[94,10066],[94,10147],[93.9,10231],[93.5,10314],[93.4,10403],[93.3,10480],[93.3,10564],[93.3,10647],[93.3,10739],[93.3,10822],[93.3,10897],[93.3,10980],[93.8,11070],[94.1,11156],[94.3,11231],[94.8,11314],[95,11403],[95.1,11483],[95.5,11564],[95.7,11647],[96,11737],[96.3,11821],[96.6,11897],[96.8,11980],[97.2,12064],[97.8,12149],[98.1,12238],[98.3,12321],[98.6,12398],[98.6,12480],[98.6,12564],[98.6,12647],[98.6,12737],[98.6,12814],[98.6,12898],[98.6,12980],[98.6,13063],[98.1,13147],[97.3,13236],[97,13320],[97,13403],[97,13487],[97,13564],[97,13647],[96.8,13731],[96.3,13814],[96.1,13902],[96.1,13987],[96.1,14070],[96.1,14148],[95.7,14237],[95.4,14319],[95,14398],[95,14480],[95,14571],[95,14653],[95,14730],[95,14814],[95,14902],[95,14983],[95,15063],[95.3,15154],[95.5,15236],[95.7,15314],[95.8,15397],[96.3,15487],[96.4,15568],[96.9,15649],[97.4,15738],[97.4,15818],[97.7,15896],[97.9,15980],[98.1,16064],[98.1,16147],[98.2,16230],[98.2,16314],[98.4,16397],[98.6,16486],[98.6,16563],[98.9,16648],[99,16736],[99,16818],[99,16903],[99,16980],[99,17063],[99,17152],[99,17230],[99,17318],[98.9,17397],[98.9,17483],[98.8,17571],[98.3,17646],[98,17730],[98,17813],[97.6,17897],[97.2,17986],[96.8,18068],[96.6,18147],[96.3,18230],[96.1,18314],[96.1,18397],[96.1,18481],[96,18567],[95.7,18652],[95.6,18735],[95.5,18813],[95.4,18897],[95,18988],[94.9,19069],[94.6,19149],[94.6,19230],[94.6,19319],[94.6,19397],[94.6,19486],[94.6,19563],[94.6,19650],[94.6,19730],[94.6,19814],[94.6,19897],[94.7,19986],[94.7,20064],[94.7,20146],[95.1,20235],[95.2,20319],[95.6,20397],[95.8,20481],[96.4,20568],[96.6,20652],[96.9,20737],[97.2,20814],[97.4,20902],[97.9,20988],[98.3,21069],[98.6,21146],[98.9,21238],[99,21313],[99,21397],[99,21480],[99,21568],[99,21646],[99,21730],[98.1,21819],[98,21897],[98,21979],[97.5,22069],[97.5,22146],[97,22230],[96.8,22319],[96.5,22403],[96.3,22480],[95.9,22563],[95.4,22647],[95.4,22735],[95.4,22819],[95.2,22897],[95.1,22980],[95.1,23063],[95.1,23146],[95,23236],[94.9,23313],[94.9,23396],[94.9,23479],[94.9,23563],[94.9,23652],[94.9,23735],[95,23813],[95.5,23897],[95.8,23986],[96,24065],[96.1,24152],[96.4,24230],[96.4,24313],[96.7,24396],[96.9,24480],[96.9,24563],[96.9,24652],[97.1,24730],[97.1,24813]]",1,0,1229.8451,1262.5985,98.8541762,1.1268,"[{""rating"":98.85417620340984,""responseTime"":1.1268000000045504}]",space,32.2138,,1262.5986,Not at all,0,1262.6126,,,[],,0,7,7,7,1,audio/Narrative7Situation7.wav,audio/Narrative8Situation7.wav,audio/Narrative5Situation7.wav,audio/Narrative6Situation7.wav,5,3,4,5,,,,,,,,,,,,,,,,,,,,,,,,,,,,,,,,,,,,,,,
,,,,,,5d3221b8eb6cfa0001950113,2024-05-13_08h37.46.809,group3.1-3.2-social-tom,2023.2.2,Win32,59.88023952,65c5074098b851296ff0b7ed,664231bc7dbfb31964f5004b,,,,,,,,,,,,,,,,,,,,,,,,,,,,,1262.6128,2,audio/Narrative6Situation8.wav,1267.6254,,1267.6254,1274.4804,"[[999,10],[999,83],[999,166],[999,250],[999,333],[999,421],[999,500],[999,590],[999,672],[999,755],[999,838],[83.9,922],[83.8,999],[83.8,1089],[83.8,1166],[83.8,1249],[83.8,1332],[83.8,1421],[83.8,1499],[83.8,1583],[84.4,1672],[89.1,1755],[90.3,1833],[90.3,1916],[90.3,1999],[90.3,2082],[90.3,2166],[90.3,2249],[90.3,2333],[90.3,2416],[90.3,2499],[90.3,2582],[90.3,2666],[90.3,2755],[90.3,2833],[90.3,2921],[90.3,2999],[90.3,3083],[90.3,3166],[90.3,3249],[90.3,3332],[90.3,3416],[90.3,3499],[90.3,3588],[90.3,3666],[90.3,3754],[90.3,3832],[90.3,3916],[90.3,3999],[90.3,4083],[90.3,4166],[90.3,4249],[90.3,4338],[90.3,4416],[90.3,4499],[90.3,4588],[90.3,4666],[90.3,4749],[90.3,4832],[90.3,4916],[90.3,5005],[90.3,5083],[90.3,5166],[90.3,5249],[90.3,5332],[90.3,5416],[90.3,5499],[90.3,5588],[90.3,5666],[90.3,5749],[90.5,5847],[90.8,5921],[91.1,6005],[91.6,6083],[91.7,6166],[91.7,6249],[90.9,6333],[87.8,6421],[86.8,6504],[85.7,6582],[83.8,6673],[82.6,6755],[82.6,6838]]",1,0,1274.4805,1277.6916,88.95834287,1.6011,"[{""rating"":85.31250953674316,""responseTime"":1.0103999999982989},{""rating"":88.95834287007649,""responseTime"":1.601100000001452}]",space,2.6711,,1277.6917,All the time,100,1277.6954,,,[],,0,8,8,8,1,audio/Narrative7Situation8.wav,audio/Narrative8Situation8.wav,audio/Narrative5Situation8.wav,audio/Narrative6Situation8.wav,2,3,3,5,,,,,,,,,,,,,,,,,,,,,,,,,,,,,,,,,,,,,,,
,,,,,,5d3221b8eb6cfa0001950113,2024-05-13_08h37.46.809,group3.1-3.2-social-tom,2023.2.2,Win32,59.88023952,65c5074098b851296ff0b7ed,664231bc7dbfb31964f5004b,,,,,,,,,,,,,,,,,,,,,,,,,,,,,1277.6957,2,audio/Narrative6Situation9.wav,1281.7082,,1281.7084,1291.6571,"[[75.2,755],[78.6,833],[78.9,915],[79.2,1004],[79.7,1082],[80.4,1166],[80.7,1249],[80.8,1338],[80.9,1416],[83.3,1504],[83.3,1582],[83.3,1665],[83.3,1754],[83.3,1832],[83.3,1915],[83.3,1999],[83.3,2082],[83.3,2165],[83.3,2249],[83.3,2332],[83.3,2415],[83.3,2499],[83.3,2582],[83.3,2665],[83.3,2754],[83.3,2832],[83.3,2920],[83.3,2999],[83.3,3083],[83,3166],[82.9,3249],[82.7,3332],[82.4,3421],[82.3,3499],[82.3,3582],[82.2,3666],[81.7,3755],[81.5,3838],[81.5,3915],[81.4,3999],[80.9,4087],[80.6,4166],[80.6,4249],[80.3,4332],[80.3,4415],[80.3,4498],[80.3,4582],[80.3,4671],[80.4,4749],[81.1,4837],[81.3,4915],[81.4,4999],[81.8,5082],[82.5,5170],[83,5254],[83.2,5332],[83.5,5415],[83.9,5498],[84.7,5588],[85.1,5666],[86.3,5755],[86.9,5832],[87.1,5920],[87.5,5999],[87.8,6087],[87.8,6165],[87.8,6249],[87.8,6332],[87.8,6420],[87.8,6504],[87.7,6582],[87.5,6672],[87.2,6755],[87.1,6832],[86.9,6915],[86.7,6999],[86.6,7087],[86.4,7165],[86,7248],[85.6,7332],[85.6,7415],[85.4,7499],[85.2,7582],[85.2,7665],[85.2,7748],[85.1,7837],[85,7915],[85,7999],[85,8082],[85,8165],[85,8249],[85,8331],[85,8420],[85.4,8505],[85.7,8587],[85.8,8671],[85.9,8748],[85.9,8831],[86.1,8915],[86.1,8999],[86.1,9081],[86.1,9165],[86.1,9248],[86.1,9332],[86.1,9415],[86.1,9498],[86.1,9581],[86.1,9665],[86.1,9748],[86.1,9832],[86.1,9915]]",1,0,1291.6575,1295.7402,83.22916826,2.7778,"[{""rating"":86.66666348775227,""responseTime"":1.060100000001512},{""rating"":83.22916825612386,""responseTime"":2.7778000000043903}]",space,3.5345,,1295.7402,Not at all,0,1295.7444,,,[],,0,9,9,9,1,audio/Narrative7Situation9.wav,audio/Narrative8Situation9.wav,audio/Narrative5Situation9.wav,audio/Narrative6Situation9.wav,2,3,3,4,,,,,,,,,,,,,,,,,,,,,,,,,,,,,,,,,,,,,,,
,,,,,,5d3221b8eb6cfa0001950113,2024-05-13_08h37.46.809,group3.1-3.2-social-tom,2023.2.2,Win32,59.88023952,65c5074098b851296ff0b7ed,664231bc7dbfb31964f5004b,,,,,,,,,,,,,,,,,,,,,,,,,,,,,1295.7445,2,audio/Narrative5Situation1.wav,1300.7571,,1300.7572,1314.0448,"[[73.4,1338],[73.4,1421],[73.4,1504],[73.4,1582],[73.4,1665],[73.4,1749],[73.4,1832],[73.4,1916],[73.4,2004],[73.4,2083],[73.4,2166],[73.4,2249],[73.4,2332],[73.4,2415],[73.4,2499],[73,2588],[72.3,2666],[71,2749],[70.5,2837],[70,2916],[69.5,2998],[69.2,3087],[69.2,3165],[69.2,3249],[69.1,3333],[68.9,3421],[68.3,3504],[67.8,3582],[67.8,3666],[67.6,3749],[67.4,3832],[67.3,3921],[67,3999],[66.9,4087],[66.9,4171],[66.8,4249],[66.8,4332],[66.8,4415],[66.8,4499],[66.8,4582],[67.1,4665],[67.5,4755],[67.6,4832],[67.7,4915],[68.2,5005],[68.5,5082],[68.8,5166],[69.1,5254],[69.2,5333],[69.7,5416],[69.8,5499],[70.1,5588],[70.1,5665],[70.1,5749],[70.3,5832],[70.3,5915],[70.3,5999],[70.3,6082],[70.3,6165],[70.3,6248],[70.3,6332],[69.9,6421],[69,6500],[67.4,6588],[66.9,6671],[66.4,6755],[66.2,6832],[65.8,6915],[65.2,7005],[64.6,7082],[63.9,7171],[63.6,7254],[63.6,7332],[63.6,7421],[63.6,7498],[63.6,7582],[63.6,7665],[63.8,7749],[64,7837],[64.3,7916],[64.4,7999],[64.8,8087],[65.1,8165],[65.1,8248],[65.4,8332],[66.1,8416],[66.7,8504],[67.2,8582],[67.4,8665],[67.7,8754],[68.2,8838],[68.4,8920],[68.6,8999],[68.6,9082],[68.6,9165],[68.6,9248],[68.6,9332],[68.4,9421],[68.3,9498],[68,9582],[67.8,9671],[67.8,9749],[67.5,9838],[67.3,9915],[66.9,10004],[66.8,10082],[66.8,10165],[66.8,10253],[66.8,10332],[66.8,10415],[66.2,10498],[65.8,10582],[65.7,10665],[65.7,10748],[65.7,10832],[66.1,10921],[67.2,11004],[67.4,11082],[67.5,11165],[67.7,11248],[67.7,11332],[68.1,11421],[68.5,11498],[68.8,11582],[69.3,11671],[70.6,11754],[70.8,11832],[70.8,11915],[71.8,12005],[72.6,12082],[72.9,12171],[72.9,12248],[72.9,12332],[72.9,12415],[72.9,12498],[72.9,12582],[72,12672],[71,12754],[70.7,12838],[70.1,12915],[69.5,13004],[69,13087],[68.4,13171],[68,13254]]",1,0,1314.045,1316.3393,68.54166985,1.209,"[{""rating"":68.54166984558105,""responseTime"":1.20900000000006}]",space,1.7592,,1316.3394,Half the time,50,1316.3431,,,[],,0,10,10,10,1,audio/Narrative8Situation1.wav,audio/Narrative7Situation1.wav,audio/Narrative6Situation1.wav,audio/Narrative5Situation1.wav,5,2,2,5,,,,,,,,,,,,,,,,,,,,,,,,,,,,,,,,,,,,,,,
,,,,,,5d3221b8eb6cfa0001950113,2024-05-13_08h37.46.809,group3.1-3.2-social-tom,2023.2.2,Win32,59.88023952,65c5074098b851296ff0b7ed,664231bc7dbfb31964f5004b,,,,,,,,,,,,,,,,,,,,,,,,,,,,,1316.3433,2,audio/Narrative5Situation2.wav,1319.3553,,1319.3555,1348.8209,"[[999,8],[999,83],[999,166],[999,249],[999,333],[999,416],[68.2,500],[68.6,588],[69.3,673],[69.5,750],[69.6,834],[69.6,916],[69.7,1005],[69.7,1083],[69.8,1167],[70.8,1255],[71.4,1333],[71.8,1421],[71.9,1505],[72.1,1588],[72.1,1666],[72.3,1749],[72.4,1833],[72.6,1916],[72.6,1999],[72.8,2082],[72.9,2166],[72.9,2250],[73,2338],[73.9,2422],[74,2499],[74,2583],[74,2666],[74,2749],[74,2832],[74,2916],[74,3000],[74,3083],[74,3166],[74,3249],[74,3333],[74,3416],[74,3499],[74,3582],[74,3666],[74,3749],[74,3833],[74,3916],[74,3999],[74,4083],[74,4166],[74,4255],[74,4333],[74,4416],[74,4499],[74,4583],[74,4666],[74,4749],[74,4837],[74,4916],[74,4999],[74,5082],[74,5171],[74,5249],[74,5332],[74,5416],[74,5499],[74,5582],[74,5666],[74,5749],[74,5838],[74,5916],[74,5999],[74,6082],[74,6166],[74,6249],[74,6333],[74,6415],[74,6500],[74,6582],[74,6666],[74,6749],[74,6832],[74,6916],[74.2,6999],[74.9,7083],[75.8,7172],[76.6,7255],[77.1,7338],[77.1,7416],[77.1,7504],[77.8,7583],[78,7666],[78,7749],[78.1,7833],[79.2,7921],[79.2,7999],[79.2,8087],[79.2,8166],[79.2,8249],[79.2,8332],[79.2,8416],[79.2,8499],[78,8589],[77.3,8671],[77.2,8749],[77.2,8832],[77.2,8916],[77.2,8999],[77.2,9082],[77.2,9165],[77.2,9249],[77.4,9332],[77.6,9421],[77.9,9504],[78.1,9582],[78.6,9666],[79,9755],[79,9832],[79.6,9922],[80,9999],[80.4,10087],[80.4,10165],[80.6,10249],[81,10338],[81,10415],[81.1,10500],[81.5,10583],[81.6,10671],[81.6,10749],[81.6,10837],[81.6,10916],[81.6,10999],[81.6,11082],[81.6,11171],[80.8,11249],[80,11338],[79.6,11417],[78.7,11499],[77.8,11589],[77.1,11666],[76.5,11755],[76.3,11838],[75.8,11916],[75.7,11999],[75.7,12082],[75.7,12166],[75.7,12249],[75.7,12332],[75.7,12415],[75.7,12499],[75.7,12587],[76.1,12670],[76.9,12755],[77.4,12836],[77.8,12916],[77.9,12999],[78.4,13082],[78.6,13165],[78.6,13249],[78.9,13332],[79,13422],[79.2,13499],[79.2,13582],[79.4,13669],[80.1,13750],[80.7,13838],[81.1,13915],[81.1,13998],[81.6,14082],[81.7,14171],[81.7,14254],[81.7,14332],[81.7,14415],[81.7,14499],[81.6,14582],[80.9,14671],[80.8,14749],[80.4,14838],[80.4,14921],[80.4,14999],[80.3,15082],[80.3,15165],[79.9,15254],[79.9,15332],[79.9,15415],[79.8,15498],[79.6,15587],[79.1,15670],[78.5,15754],[78.3,15831],[77.9,15916],[77.7,16005],[77.7,16082],[77.7,16165],[77.7,16249],[77.7,16332],[78.6,16421],[79.2,16498],[79.6,16582],[79.9,16671],[80,16749],[80.1,16832],[80.2,16916],[81,16999],[82,17081],[82.2,17165],[82.2,17248],[82.7,17338],[82.8,17415],[82.8,17498],[83.2,17588],[83.9,17670],[84.1,17748],[84.1,17832],[84.1,17915],[84.1,17998],[82.5,18087],[81.5,18166],[80.8,18249],[80.3,18337],[79.8,18421],[78.4,18498],[76.7,18587],[76.4,18665],[76.3,18749],[76.3,18831],[76.3,18915],[76.3,18998],[76.3,19082],[76.3,19165],[76.3,19248],[76.3,19332],[75.8,19420],[75.1,19504],[74.9,19581],[74.8,19665],[74.8,19748],[74.8,19831],[75.5,19921],[76.9,19999],[78.1,20087],[78.9,20171],[79.6,20254],[80,20338],[80.6,20420],[81.5,20504],[82.3,20582],[82.9,20671],[83.1,20754],[83.3,20831],[83.3,20915],[83.3,20998],[83.3,21082],[83.3,21170],[83.3,21248],[83.3,21332],[83.3,21421],[83.3,21504],[83.6,21581],[83.9,21665],[83.9,21748],[83.9,21831],[83.6,21915],[81.7,21998],[80.5,22082],[80.4,22165],[80.4,22248],[80.4,22332],[80.4,22415],[80.4,22498],[80.6,22582],[81.7,22670],[82.3,22755],[82.8,22832],[83.2,22915],[84.1,23004],[84.2,23081],[84.4,23170],[84.9,23253],[84.9,23331],[85.1,23415],[85.3,23499],[85.4,23582],[85.6,23665],[85.6,23753],[85.6,23831],[85.6,23915],[85.6,23998],[85.6,24081],[85.6,24165],[85.6,24253],[85.6,24331],[85.5,24420],[85,24498],[84.2,24587],[83.4,24670],[82.7,24748],[82.2,24833],[81.6,24918],[81.1,24999],[80.9,25086],[80.9,25164],[80.9,25248],[80.9,25331],[80.9,25414],[80.9,25498],[80.9,25581],[80.9,25671],[80.9,25748],[80.9,25837],[80.9,25914],[80.9,25998],[80.9,26081],[80.9,26164],[80.9,26248],[80.9,26331],[80.9,26414],[81.3,26504],[81.8,26587],[82.2,26665],[82.3,26748],[82.5,26831],[83.2,26920],[83.3,26998],[83.3,27081],[84.3,27170],[84.7,27254],[84.9,27331],[85.5,27420],[85.9,27497],[86.3,27586],[86.4,27669],[86.4,27748],[86.4,27831],[86.4,27917],[86.4,27998],[86.4,28081],[86.4,28164],[86.4,28248],[86.4,28332],[86.4,28414],[86.4,28498],[86.4,28581],[86.4,28665],[86.4,28747],[86.4,28832],[86.4,28914],[86.4,28998],[86.4,29081],[86.4,29169],[86.4,29248],[86.4,29332],[86.4,29414]]",1,0,1348.8213,1379.0527,82.8125,2.0581,"[{""rating"":86.35417620340984,""responseTime"":0.3550000000000182},{""rating"":82.8125,""responseTime"":2.058100000001332}]",space,29.6831,,1379.0528,Not at all,0,1379.0653,,,[],,0,11,11,11,1,audio/Narrative8Situation2.wav,audio/Narrative7Situation2.wav,audio/Narrative6Situation2.wav,audio/Narrative5Situation2.wav,3,3,3,3,,,,,,,,,,,,,,,,,,,,,,,,,,,,,,,,,,,,,,,
,,,,,,5d3221b8eb6cfa0001950113,2024-05-13_08h37.46.809,group3.1-3.2-social-tom,2023.2.2,Win32,59.88023952,65c5074098b851296ff0b7ed,664231bc7dbfb31964f5004b,,,,,,,,,,,,,,,,,,,,,,,,,,,,,1379.0655,2,audio/Narrative5Situation3.wav,1382.0684,,1382.0684,1395.968,"[[999,1],[999,83],[999,166],[999,250],[999,333],[999,416],[999,500],[999,590],[999,666],[999,749],[999,833],[999,922],[79.1,1004],[79.1,1083],[79.3,1171],[79.3,1249],[79.3,1333],[79.4,1416],[79.9,1506],[80.2,1588],[80.2,1666],[80.7,1755],[82,1833],[82.2,1916],[82.2,1999],[82.2,2088],[82.2,2166],[81.6,2255],[80.8,2338],[79.6,2422],[78.9,2505],[78.9,2583],[78.7,2666],[78.5,2749],[78.5,2833],[78.5,2916],[78.6,3000],[79.9,3083],[80.6,3166],[80.6,3255],[80.6,3333],[80.6,3416],[81.1,3500],[81.3,3588],[82.1,3672],[83.1,3756],[83.3,3832],[83.6,3916],[83.9,3999],[84.2,4083],[84.2,4166],[84.2,4250],[84.2,4333],[84.2,4416],[83.8,4505],[83.4,4588],[83.1,4671],[82.4,4755],[82.4,4832],[82.4,4916],[82.4,4999],[82.4,5083],[82.4,5166],[82.4,5249],[82.4,5336],[82.4,5421],[82.4,5499],[82.4,5582],[82.4,5666],[82.4,5749],[82.4,5832],[82.4,5916],[82.4,5999],[82.4,6082],[82.4,6171],[82.4,6249],[82.4,6332],[82.4,6416],[82.4,6499],[82.4,6583],[82.4,6665],[82.4,6749],[82.4,6832],[82.4,6916],[82.4,6999],[82.4,7088],[82.8,7173],[83.3,7249],[83.8,7333],[83.9,7416],[83.9,7499],[83.9,7582],[83.9,7666],[83.9,7749],[83.9,7833],[84.3,7916],[84.3,7999],[84.3,8082],[84.3,8166],[84.3,8249],[84.3,8332],[84.3,8415],[84.3,8499],[84.3,8582],[84.3,8666],[84.3,8749],[84.3,8832],[84.3,8915],[84.3,8999],[84.3,9082],[84.3,9166],[84.3,9249],[84.3,9332],[84.3,9415],[84.3,9499],[84.3,9582],[84.3,9666],[84.3,9749],[84.3,9832],[84.3,9915],[84.3,9999],[84.3,10082],[84.3,10165],[84.3,10249],[84.3,10332],[84.3,10415],[84.3,10499],[84.3,10582],[84.3,10665],[84.3,10749],[84.3,10832],[84.3,10918],[84.3,10999],[84.3,11082],[84.3,11166],[84.3,11249],[84.3,11332],[84.3,11415],[84.3,11499],[84.3,11582],[84.3,11665],[84.3,11749],[84.3,11832],[84.3,11915],[84.3,11999],[84.3,12082],[84.3,12165],[84.3,12249],[84.3,12332],[84.3,12415],[84.3,12499],[84.3,12582],[84.3,12665],[84.3,12749],[84.3,12832],[84.3,12915],[84.3,12999],[84.3,13082],[84.3,13165],[84.3,13249],[84.3,13332],[84.3,13415],[84.3,13499],[84.3,13582],[84.3,13665],[84.3,13749],[84.3,13832]]",1,0,1395.9681,1399.5843,81.14583492,1.6541,"[{""rating"":84.27084287007649,""responseTime"":0.7641000000014628},{""rating"":81.14583492279053,""responseTime"":1.6541000000015629}]",space,3.0689,,1399.5843,Not at all,0,1399.589,,,[],,0,12,12,12,1,audio/Narrative8Situation3.wav,audio/Narrative7Situation3.wav,audio/Narrative6Situation3.wav,audio/Narrative5Situation3.wav,4,8,5,3,,,,,,,,,,,,,,,,,,,,,,,,,,,,,,,,,,,,,,,
