exp_question,consent.started,consent.stopped,consentResponse.keys,consentResponse.rt,consentResponse.duration,participantID,date,expName,psychopyVersion,OS,frameRate,STUDY_ID,SESSION_ID,opening1.started,opening1.stopped,keyEndingOpening1.keys,keyEndingOpening1.rt,keyEndingOpening1.duration,volumeAdjust.started,volumeAdjust.stopped,endingAdjust.keys,endingAdjust.rt,endingAdjust.duration,opening2.started,opening2.stopped,keyEndingOpening.keys,keyEndingOpening.rt,keyEndingOpening.duration,mouse.x,mouse.y,mouse.leftButton,mouse.midButton,mouse.rightButton,mouse.time,instructionLoop.thisRepN,instructionLoop.thisTrialN,instructionLoop.thisN,instructionLoop.thisIndex,instructionLoop.ran,readyForAudio.started,readyForAudio.stopped,fixation.started,run,audio_played,fixation.stopped,endPractice.keys,audioPre.started,audioPre.stopped,continuousResponses_audio,continuousSlider.response,continuousSlider.rt,intRating.started,intRating.stopped,intQuestionSlider.response,intQuestionSlider.rt,intQuestionSlider.history,confirmResponse.keys,confirmResponse.rt,confirmResponse.duration,catchQuestion.started,catch_label,catch_value,catchQuestion.stopped,catchQuestionSlider.response,catchQuestionSlider.rt,catchQuestionSlider.history,confirmResponse_2.keys,audioRunLoop.thisRepN,audioRunLoop.thisTrialN,audioRunLoop.thisN,audioRunLoop.thisIndex,audioRunLoop.ran,conditions1_1,conditions2_1,conditions1_2,conditions2_2,dur1_1,dur2_1,dur1_2,dur2_2,endPractice.rt,endPractice.duration,confirmResponse_2.rt,confirmResponse_2.duration,runIntervalBreak.started,runIntervalBreak.stopped,endingBreakKey.keys,endingBreakKey.rt,endingBreakKey.duration,connection.started,connection.stopped,connectionEnding.keys,connectionEnding.rt,connectionEnding.duration,readyForText.started,readyForText.stopped,textPre.started,run_dup,textPre.stopped,continuousResponses_text,textRunLoop.thisRepN,textRunLoop.thisTrialN,textRunLoop.thisN,textRunLoop.thisIndex,textRunLoop.ran,text1_1,text1_2,text2_1,text2_2,runBreakText.started,runBreakText.stopped,endingBreakKey_2.keys,endingBreakKey_2.rt,endingBreakKey_2.duration,ending.started,ending.stopped,endingEnding.keys,endingEnding.rt,endingEnding.duration
social,0.0002,77.4287,y,77.1111,,5d4ce9a10d550e0015bfb0a2,2024-02-08_12h36.46.363,group3.1-3.2-social-tom,2023.2.2,MacIntel,57.80346821,65c5074098b851296ff0b7ed,65c5110c34fc0bf8535d8cd6,,,,,,,,,,,,,,,,,,,,,,,,,,,,,,,,,,,,,,,,,,,,,,,,,,,,,,,,,,,,,,,,,,,,,,,,,,,,,,,,,,,,,,,,,,,,,,,,,,,,,,,,,,
,,,,,,5d4ce9a10d550e0015bfb0a2,2024-02-08_12h36.46.363,group3.1-3.2-social-tom,2023.2.2,MacIntel,57.80346821,65c5074098b851296ff0b7ed,65c5110c34fc0bf8535d8cd6,77.4288,97.1543,space,19.7062,,,,,,,,,,,,,,,,,,,,,,,,,,,,,,,,,,,,,,,,,,,,,,,,,,,,,,,,,,,,,,,,,,,,,,,,,,,,,,,,,,,,,,,,,,,,,,,,,,,,,,
,,,,,,5d4ce9a10d550e0015bfb0a2,2024-02-08_12h36.46.363,group3.1-3.2-social-tom,2023.2.2,MacIntel,57.80346821,65c5074098b851296ff0b7ed,65c5110c34fc0bf8535d8cd6,,,,,,97.1545,102.8168,space,5.3336,,,,,,,,,,,,,,,,,,,,,,,,,,,,,,,,,,,,,,,,,,,,,,,,,,,,,,,,,,,,,,,,,,,,,,,,,,,,,,,,,,,,,,,,,,,,,,,,,
,,,,,,5d4ce9a10d550e0015bfb0a2,2024-02-08_12h36.46.363,group3.1-3.2-social-tom,2023.2.2,MacIntel,57.80346821,65c5074098b851296ff0b7ed,65c5110c34fc0bf8535d8cd6,,,,,,,,,,,102.8303,114.9662,space,12.1148,,[],[],[],[],[],[],0,0,0,0,1,,,,,,,,,,,,,,,,,,,,,,,,,,,,,,,,,,,,,,,,,,,,,,,,,,,,,,,,,,,,,,,,,,,,,,,,,,,,,,,,
,,,,,,5d4ce9a10d550e0015bfb0a2,2024-02-08_12h36.46.363,group3.1-3.2-social-tom,2023.2.2,MacIntel,57.80346821,65c5074098b851296ff0b7ed,65c5110c34fc0bf8535d8cd6,,,,,,,,,,,114.9759,127.3668,space,12.3438,,[],[],[],[],[],[],1,0,1,0,1,,,,,,,,,,,,,,,,,,,,,,,,,,,,,,,,,,,,,,,,,,,,,,,,,,,,,,,,,,,,,,,,,,,,,,,,,,,,,,,,
,,,,,,5d4ce9a10d550e0015bfb0a2,2024-02-08_12h36.46.363,group3.1-3.2-social-tom,2023.2.2,MacIntel,57.80346821,65c5074098b851296ff0b7ed,65c5110c34fc0bf8535d8cd6,,,,,,,,,,,127.3779,147.2669,space,19.8601,,[],[],[],[],[],[],2,0,2,0,1,,,,,,,,,,,,,,,,,,,,,,,,,,,,,,,,,,,,,,,,,,,,,,,,,,,,,,,,,,,,,,,,,,,,,,,,,,,,,,,,
,,,,,,5d4ce9a10d550e0015bfb0a2,2024-02-08_12h36.46.363,group3.1-3.2-social-tom,2023.2.2,MacIntel,57.80346821,65c5074098b851296ff0b7ed,65c5110c34fc0bf8535d8cd6,,,,,,,,,,,147.2805,165.5007,space,18.2054,,[],[],[],[],[],[],3,0,3,0,1,,,,,,,,,,,,,,,,,,,,,,,,,,,,,,,,,,,,,,,,,,,,,,,,,,,,,,,,,,,,,,,,,,,,,,,,,,,,,,,,
,,,,,,5d4ce9a10d550e0015bfb0a2,2024-02-08_12h36.46.363,group3.1-3.2-social-tom,2023.2.2,MacIntel,57.80346821,65c5074098b851296ff0b7ed,65c5110c34fc0bf8535d8cd6,,,,,,,,,,,165.5139,175.8514,space,10.3241,,[],[],[],[],[],[],4,0,4,0,1,,,,,,,,,,,,,,,,,,,,,,,,,,,,,,,,,,,,,,,,,,,,,,,,,,,,,,,,,,,,,,,,,,,,,,,,,,,,,,,,
,,,,,,5d4ce9a10d550e0015bfb0a2,2024-02-08_12h36.46.363,group3.1-3.2-social-tom,2023.2.2,MacIntel,57.80346821,65c5074098b851296ff0b7ed,65c5110c34fc0bf8535d8cd6,,,,,,,,,,,,,,,,,,,,,,,,,,,175.8671,178.4509,178.4752,1,audio/Narrative13Situation2.wav,180.4845,,180.4848,210.2351,"[[999,2],[999,99],[999,182],[999,265],[999,355],[999,432],[999,515],[999,599],[999,681],[999,766],[999,849],[999,932],[999,1016],[999,1099],[999,1182],[999,1266],[999,1349],[999,1432],[999,1515],[999,1599],[999,1682],[999,1765],[999,1849],[45.5,1932],[46.9,2016],[47,2099],[47,2182],[47,2265],[48.7,2349],[49.4,2432],[49.4,2516],[49.4,2599],[49.4,2682],[49.4,2766],[49.4,2849],[49.4,2932],[49.4,3016],[49.4,3099],[49.4,3181],[49.4,3265],[49.4,3349],[49.4,3432],[49.4,3515],[49.4,3599],[49.4,3682],[49.4,3766],[49.4,3849],[49.4,3932],[49.4,4015],[49.4,4099],[49.4,4182],[49.4,4266],[49.4,4349],[49.4,4432],[49.4,4516],[49.4,4599],[49.4,4682],[49.4,4766],[49.4,4849],[49.4,4932],[50.3,5016],[57.2,5100],[62.9,5183],[66.7,5266],[68.9,5349],[72.5,5433],[72.7,5516],[72.7,5599],[72.7,5682],[72.7,5766],[73.5,5849],[74.5,5932],[74.5,6016],[74.5,6099],[74.5,6182],[74.5,6266],[74.5,6349],[74.8,6432],[74.8,6516],[74.8,6599],[74.8,6682],[74.8,6766],[74.8,6848],[74.8,6932],[74.8,7016],[74.9,7100],[74.9,7182],[74.9,7266],[75,7349],[75,7431],[75,7515],[75,7599],[75,7682],[75,7766],[75,7849],[75,7933],[75,8016],[75,8099],[75,8182],[75,8266],[75,8349],[75,8432],[75,8516],[75,8599],[75,8683],[75,8766],[75,8849],[75,8932],[75,9015],[75,9099],[75,9182],[75,9266],[75,9349],[75,9432],[75,9516],[75,9599],[75,9683],[73.9,9766],[69,11265],[70.3,11350],[70.5,11433],[70.5,11516],[70.5,11599],[70.5,11682],[70.5,11766],[70.5,11849],[70.5,11932],[70.5,12016],[70.5,12099],[70.5,12182],[71.3,12266],[74.8,12349],[79.3,12433],[89.8,12516],[100,12599],[100,12683],[100,12766],[100,12849],[100,12932],[100,13016],[100,13099],[100,13182],[100,13266],[100,13349],[100,13433],[100,13516],[100,13599],[100,13682],[100,13766],[100,13849],[100,13932],[100,14015],[100,14099],[100,14182],[100,14266],[100,14349],[100,14433],[100,14516],[100,14599],[100,14682],[100,14766],[100,14849],[100,14933],[100,15016],[100,15100],[100,15183],[100,15266],[100,15348],[100,15431],[100,15516],[100,15599],[100,15683],[100,15766],[100,15849],[100,15933],[100,16015],[100,16099],[100,16183],[100,16265],[100,16349],[100,16432],[100,16516],[100,16599],[100,16682],[100,16766],[100,16849],[100,16932],[100,17016],[100,17099],[100,17183],[100,17266],[100,17349],[100,17433],[100,17516],[100,17599],[100,17682],[100,17766],[100,17849],[100,17933],[100,18016],[100,18099],[100,18182],[68.9,18849],[51.4,18932],[42.2,19016],[36,19100],[10.1,20016],[10.1,20099],[10.1,20183],[10.1,20266],[10.1,20349],[6.8,20433],[1.1,20516],[0.5,22849],[2.6,22932],[2.3,23015],[2.1,23099],[2,23182],[2,23266],[2,23350],[2,23432],[2,23515],[1.7,23599],[0.7,23682],[0.4,23766],[0.4,23849],[0.4,23933],[0.4,24016]]",1,0,210.2352,219.4031,65.99392361,5.4304,"[{""rating"":65.99392361111111,""responseTime"":5.430399999976146}]",space,8.6179,,219.4142,Not at all,0,219.4161,,,[],,0,0,0,0,1,audio/Narrative13Situation2.wav,audio/Narrative13Situation2.wav,audio/Narrative13Situation2.wav,audio/Narrative13Situation2.wav,2,2,2,2,,,,,,,,,,,,,,,,,,,,,,,,,,,,,,,,,,,,,,,
,,,,,,5d4ce9a10d550e0015bfb0a2,2024-02-08_12h36.46.363,group3.1-3.2-social-tom,2023.2.2,MacIntel,57.80346821,65c5074098b851296ff0b7ed,65c5110c34fc0bf8535d8cd6,,,,,,,,,,,,,,,,,,,,,,,,,,,,,219.4164,1,audio/Narrative7Situation1.wav,222.8688,space,222.8689,278.769,"[[999,11],[999,82],[999,166],[999,249],[999,332],[999,416],[999,499],[999,583],[999,666],[999,749],[999,832],[999,916],[999,999],[999,1082],[999,1165],[999,1248],[999,1332],[999,1416],[999,1499],[999,1582],[999,1666],[999,1749],[999,1832],[999,1916],[999,1998],[999,2082],[999,2166],[999,2249],[999,2331],[999,2415],[999,2498],[999,2582],[999,2665],[999,2749],[999,2832],[999,2915],[999,2999],[999,3083],[999,3166],[999,3249],[999,3333],[999,3416],[999,3499],[999,3582],[999,3666],[1.9,3749],[0.3,4500],[0.3,4583],[0.2,4665],[0.2,4749],[0.2,4832],[0.2,4916],[0.2,4999],[1.7,8498],[8.8,8583],[15.6,8667],[20.3,8748],[26.2,8833],[28.2,8915],[28.4,8999],[28.4,9082],[28.7,9166],[28.7,9249],[25.4,9331],[8.3,9416],[2.6,9500],[1,9582],[4.1,9832],[15.3,9916],[17.5,10000],[17.6,10082],[18.9,10166],[20,10250],[20.2,10333],[20.2,10416],[20.2,10500],[20.2,10583],[20.2,10666],[20.2,10748],[20.2,10832],[20.2,10916],[20.2,10999],[20.2,11082],[20.2,11166],[20.2,11249],[20.3,11332],[22,11416],[22.1,11498],[22.1,11583],[22.1,11666],[22.8,11750],[23.6,11833],[25.1,11916],[26.5,12000],[29.7,12083],[30.9,12166],[31.1,12249],[31.1,12333],[31.1,12416],[31.1,12498],[31.1,12581],[31.1,12666],[31.1,12749],[31.1,12833],[31.2,12916],[34.8,13000],[47.7,13083],[51.5,13166],[51.5,13250],[51.5,13332],[51.6,13416],[51.6,13499],[50.9,13583],[50.4,13666],[50.2,13749],[50.2,13833],[50.2,13915],[50.2,13998],[50.2,14082],[50.2,14166],[50.2,14248],[50.2,14332],[50.2,14416],[50.2,14499],[50.3,14583],[50.3,14665],[50.3,14749],[50.3,14833],[50.3,14915],[50.3,15000],[50.3,15083],[50.7,15166],[100,15833],[100,16666],[100,16749],[100,16832],[100,16915],[100,16998],[100,17082],[100,17166],[100,17250],[100,17333],[100,17415],[100,17499],[100,17583],[100,17665],[100,17749],[100,17833],[100,17916],[100,17999],[100,18082],[100,18166],[100,18249],[100,18332],[100,18416],[100,18499],[100,18583],[98.9,18667],[98.1,18750],[98,18833],[97.9,18917],[97.6,18999],[97.6,19083],[97.6,19166],[97.6,19249],[97.4,19333],[6.6,20083],[5.2,20167],[3.4,20249],[2.1,20333],[2,20416],[2,20499],[2,20583],[2,20666],[2,20748],[2,20833],[2,20916],[1.9,20999],[1.9,21082],[1.9,21166],[1.9,21249],[1.9,21333],[1.8,21416],[1.7,21499],[1.7,21583],[1.7,21666],[1.7,21750],[1.7,21832],[1.7,21915],[1.7,22000],[1.7,22083],[1.9,22166],[1.9,22249],[1.9,22332],[1.9,22416],[1.8,22500],[1.5,22582],[1.5,22666],[1.3,22750],[1.3,22833],[1.3,22916],[1.3,22999],[1.2,23083],[0,23166],[1,30750],[1.1,30833],[1.1,30917],[1.1,31000],[1.1,31083],[5,31166],[35.2,31250],[60.6,31332],[68,31416],[82.1,31500],[100,31917],[100,32000],[100,32083],[100,32167],[100,32249],[100,32333],[100,32417],[100,32500],[100,32583],[100,32667],[100,32750],[100,32833],[100,32917],[100,33000],[100,33083],[100,33166],[100,33249],[100,33333],[100,33416],[100,33499],[100,33583],[100,33667],[100,33749],[100,33833],[100,33917],[100,33999],[100,34083],[100,34167],[100,34249],[100,34333],[100,34417],[100,34499],[100,34583],[100,34667],[100,34750],[100,34833],[100,34916],[100,35000],[100,35083],[100,35167],[100,35250],[100,35332],[100,35417],[100,35500],[100,35583],[100,35667],[100,35750],[100,35833],[100,35917],[100,36000],[100,36083],[100,36166],[100,36250],[100,36332],[100,36416],[100,36500],[100,36582],[100,36667],[100,36750],[100,36833],[100,36916],[100,37000],[100,37084],[88.3,37166],[7.7,37250],[85.3,41499],[100,42500],[100,51251],[100,51334],[100,51417],[100,51500],[100,51583],[100,51667],[100,51750],[100,51833],[96.6,51917],[94.9,51999],[94.9,52084],[94.3,52167],[88.9,52251],[83.5,52333],[73.6,52417],[65.1,52501],[64.1,52584],[64,52666],[65,52750],[77.1,52834],[89,52916],[92.4,53000],[97.2,53084],[100,53166],[100,53251],[100,53334],[100,53417],[100,53499],[100,53584],[100,53667],[100,53749],[100,53834],[100,53916],[100,54000],[100,54083],[100,54167],[100,54251],[100,54334],[100,54417],[100,54501],[100,54584],[100,54666],[100,54750],[100,54834],[100,54917],[100,55000],[100,55084],[100,55167],[100,55249],[100,55334],[100,55416],[100,55500],[100,55583],[100,55666],[100,55750],[100,55833]]",1,0,278.7693,282.9201,11.09592014,2.9646,"[{""rating"":11.095920138888888,""responseTime"":2.964599999964207}]",space,3.6021,,282.9202,Definitely yes,100,282.9246,,,[],,0,1,1,1,1,audio/Narrative7Situation1.wav,audio/Narrative8Situation1.wav,audio/Narrative5Situation1.wav,audio/Narrative6Situation1.wav,2,5,5,2,3.432,,,,,,,,,,,,,,,,,,,,,,,,,,,,,,,,,,,,,,
,,,,,,5d4ce9a10d550e0015bfb0a2,2024-02-08_12h36.46.363,group3.1-3.2-social-tom,2023.2.2,MacIntel,57.80346821,65c5074098b851296ff0b7ed,65c5110c34fc0bf8535d8cd6,,,,,,,,,,,,,,,,,,,,,,,,,,,,,282.9249,1,audio/Narrative7Situation2.wav,285.9355,,285.9355,293.4194,"[[999,0],[999,83],[999,167],[999,251],[999,334],[999,416],[999,501],[999,584],[999,667],[999,750],[999,834],[999,916],[999,1001],[999,1084],[999,1166],[999,1251],[999,1334],[999,1416],[999,1501],[999,1584],[999,1668],[50.4,1750],[50.3,1834],[50.6,1918],[50.6,2001],[50.5,2083],[50.5,2167],[50.3,2250],[50.1,2333],[49.6,2418],[49.6,2500],[49.6,2584],[49.6,2667],[49.6,2750],[49.6,2833],[49.6,2918],[49.2,3001],[49,3084],[48.9,3168],[48.4,3250],[48.4,3334],[48.4,3417],[48.4,3501],[49.8,3583],[55.3,3666],[61.3,3751],[63.2,3834],[68.5,3917],[73.1,4001],[73.6,4083],[73.7,4167],[83.6,4251],[100,4751],[100,4833],[100,4917],[100,5001],[100,5083],[100,5168],[100,5250],[100,5334],[100,5416],[100,5500],[100,5585],[100,5667],[100,5751],[100,5834],[100,5918],[100,6001],[100,6084],[100,6166],[100,6251],[100,6334],[100,6418],[100,6501],[100,6583],[100,6668],[100,6751],[100,6834],[100,6917],[100,7001],[100,7083],[100,7167],[100,7251],[100,7334],[100,7416]]",1,0,293.4197,299.8206,100,5.523,"[{""rating"":99.23394097222223,""responseTime"":4.470600000023865},{""rating"":100,""responseTime"":5.523000000000025}]",space,5.8691,,299.8208,Partially,50,299.8247,,,[],,0,2,2,2,1,audio/Narrative7Situation2.wav,audio/Narrative8Situation2.wav,audio/Narrative5Situation2.wav,audio/Narrative6Situation2.wav,3,3,3,3,,,,,,,,,,,,,,,,,,,,,,,,,,,,,,,,,,,,,,,
,,,,,,5d4ce9a10d550e0015bfb0a2,2024-02-08_12h36.46.363,group3.1-3.2-social-tom,2023.2.2,MacIntel,57.80346821,65c5074098b851296ff0b7ed,65c5110c34fc0bf8535d8cd6,,,,,,,,,,,,,,,,,,,,,,,,,,,,,299.8249,1,audio/Narrative7Situation3.wav,307.8365,,307.8365,317.1044,"[[100,1417],[100,1501],[100,1582],[100,1667],[100,1750],[100,1834],[100,1916],[100,2000],[100,2084],[100,2167],[100,2251],[100,2334],[100,2417],[100,2501],[95.2,2584],[83.1,2667],[73.6,2751],[67.2,2834],[63.3,2916],[57.1,3000],[54.8,3084],[52.5,3167],[50.9,3251],[50.1,3333],[49.8,3417],[49.5,3500],[49.5,3583],[49.5,3667],[49.6,3750],[49.6,3834],[50,3917],[50.1,4000],[50.2,4084],[50.5,4167],[50.5,4250],[50.5,4334],[50.5,4417],[50.5,4500],[50.5,4584],[50.5,4667],[50.5,4750],[50.5,4834],[50.5,4917],[50.5,5000],[50.5,5084],[50.5,5167],[50.5,5250],[50.5,5333],[50.5,5416],[50.5,5500],[50.5,5583],[50.5,5667],[50.5,5750],[50.5,5834],[50.5,5917],[50.5,6000],[50.5,6084],[50.5,6167],[50.5,6250],[50.5,6333],[50.5,6416],[50.5,6500],[50.5,6583],[50.5,6667],[50.5,6750],[50.5,6834],[50.5,6917],[50.5,6999],[50.5,7084],[50.5,7167],[50.5,7251],[50.5,7334],[50.5,7417],[50.5,7500],[50.5,7584],[50.5,7666],[50.5,7750],[50.5,7834],[50.5,7916],[50.5,8000],[50.5,8083],[50.5,8167],[50.5,8249],[50.5,8334],[50.5,8417],[50.5,8500],[50.5,8584],[50.5,8666],[50.5,8750],[50.5,8834],[50.5,8917],[50.5,9001],[50.5,9084],[50.5,9167],[50.5,9250]]",1,0,317.1047,323.0213,50.37163628,4.7371,"[{""rating"":50.37163628472222,""responseTime"":4.737100000023872}]",space,5.3782,,323.0214,Definitely yes,100,323.0252,,,[],,0,3,3,3,1,audio/Narrative7Situation3.wav,audio/Narrative8Situation3.wav,audio/Narrative5Situation3.wav,audio/Narrative6Situation3.wav,8,4,3,5,,,,,,,,,,,,,,,,,,,,,,,,,,,,,,,,,,,,,,,
,,,,,,5d4ce9a10d550e0015bfb0a2,2024-02-08_12h36.46.363,group3.1-3.2-social-tom,2023.2.2,MacIntel,57.80346821,65c5074098b851296ff0b7ed,65c5110c34fc0bf8535d8cd6,,,,,,,,,,,,,,,,,,,,,,,,,,,,,323.0254,1,audio/Narrative7Situation4.wav,326.0378,,326.0379,337.7717,"[[999,0],[999,83],[999,166],[999,249],[999,332],[999,416],[999,498],[999,583],[999,666],[999,749],[999,833],[49.6,1000],[49.5,1082],[49.4,1166],[49.5,1249],[49.6,1332],[49.6,1416],[49.8,1499],[49.8,1583],[49.8,1666],[49.8,1749],[49.8,1833],[49.8,1916],[49.8,1999],[49.8,2083],[48.9,2165],[36.3,2250],[25.5,2333],[21.8,2416],[18.9,2500],[15.9,2583],[13.9,2666],[12,2749],[8.7,2833],[6.5,2916],[5.3,3000],[4.5,3083],[4,3166],[3.2,3249],[2.2,3333],[1.6,3415],[1.4,3498],[0.9,3583],[0.8,3666],[0.8,3749],[0.8,3833],[0.8,3915],[0.8,4000],[0.2,4083],[0.2,4166],[0.1,4250],[22.7,6416],[58.4,6500],[64.9,6582],[65.5,6666],[66.9,6750],[66.9,6833],[66.9,6916],[67,6999],[67.1,7083],[67.1,7166],[67.1,7249],[67.1,7333],[67.1,7416],[67.1,7500],[72.1,7583],[88,7667],[99.7,7749],[100,7833],[100,7916],[100,8000],[100,8083],[100,8166],[100,8250],[100,8333],[100,8416],[100,8500],[100,8583],[100,8666],[100,8750],[100,8833],[100,8915],[100,8999],[100,9083],[100,9166],[100,9250],[100,9333],[100,9416],[100,9500],[100,9583],[100,9666],[100,9750],[100,9833],[100,9916],[100,10000],[100,10083],[100,10166],[100,10249],[100,10333],[100,10416],[100,10500],[100,10583],[100,10666],[100,10750],[100,10833],[100,10916],[100,11000],[100,11083],[100,11166],[100,11250],[100,11333],[100,11416],[100,11500],[100,11583],[100,11666]]",1,0,337.7721,343.2717,98.98057726,2.1704,"[{""rating"":98.98057725694444,""responseTime"":2.170399999976155}]",space,4.9619,,343.2718,Definitely yes,100,343.2815,,,[],,0,4,4,4,1,audio/Narrative7Situation4.wav,audio/Narrative8Situation4.wav,audio/Narrative5Situation4.wav,audio/Narrative6Situation4.wav,3,3,1,2,,,,,,,,,,,,,,,,,,,,,,,,,,,,,,,,,,,,,,,
,,,,,,5d4ce9a10d550e0015bfb0a2,2024-02-08_12h36.46.363,group3.1-3.2-social-tom,2023.2.2,MacIntel,57.80346821,65c5074098b851296ff0b7ed,65c5110c34fc0bf8535d8cd6,,,,,,,,,,,,,,,,,,,,,,,,,,,,,343.2817,1,audio/Narrative7Situation5.wav,348.2882,,348.2883,356.7722,"[[44.7,83],[44.6,167],[44.3,249],[43.8,333],[43.6,417],[43.6,500],[43.5,583],[43.5,666],[43.5,750],[43.4,834],[43.4,917],[43.4,1000],[43.4,1082],[43.4,1166],[43.4,1250],[43.4,1333],[43.4,1415],[43.4,1499],[43.4,1583],[43.5,1666],[43.5,1750],[43.5,1833],[43.5,1916],[43.5,2000],[43.5,2083],[43.5,2166],[43.5,2250],[43.5,2332],[43.5,2416],[43.5,2500],[43.5,2583],[43.5,2666],[43.5,2750],[43.5,2833],[43.5,2916],[43.5,3000],[43.5,3083],[43.5,3166],[43.5,3252],[43.5,3333],[43.5,3416],[43.5,3500],[43.5,3583],[43.5,3666],[43.5,3750],[43.5,3833],[43.5,3916],[43.5,4000],[43.5,4082],[43.5,4166],[43.5,4250],[43.5,4333],[46.9,4750],[49.5,4834],[50.7,5000],[49.9,5083],[49.9,5166],[49.9,5250],[49.9,5333],[49.9,5416],[49.9,5500],[49.9,5583],[49.9,5666],[49.9,5750],[49.9,5832],[49.9,5917],[49.9,5999],[49.9,6082],[49.9,6166],[49.9,6250],[49.9,6332],[49.9,6416],[49.9,6500],[49.9,6583],[49.2,6667],[45.9,6750],[45.7,6832],[43,6916],[35.3,7000],[27.8,7083],[26.1,7167],[26,7250],[25.6,7333],[25.5,7416],[25.4,7500],[25.3,7583],[25.4,7666],[25.4,7750],[25.4,7833],[25.4,7916],[25.4,8000],[25.4,8083],[25.4,8166],[25.4,8250],[25.4,8333],[25.4,8416]]",1,0,356.7726,359.2721,0,1.9634,"[{""rating"":0,""responseTime"":1.9633999999761613}]",space,1.9608,,359.2722,Partially,50,359.276,,,[],,0,5,5,5,1,audio/Narrative7Situation5.wav,audio/Narrative8Situation5.wav,audio/Narrative5Situation5.wav,audio/Narrative6Situation5.wav,5,2,5,2,,,,,,,,,,,,,,,,,,,,,,,,,,,,,,,,,,,,,,,
,,,,,,5d4ce9a10d550e0015bfb0a2,2024-02-08_12h36.46.363,group3.1-3.2-social-tom,2023.2.2,MacIntel,57.80346821,65c5074098b851296ff0b7ed,65c5110c34fc0bf8535d8cd6,,,,,,,,,,,,,,,,,,,,,,,,,,,,,359.2763,1,audio/Narrative7Situation6.wav,362.2887,,362.2889,372.2715,"[[8.2,2250],[39.7,2333],[61.6,2416],[79.6,2499],[82.6,2583],[82.6,2666],[82.6,2749],[88.4,2833],[93.2,2916],[96.1,2999],[100,3083],[100,3166],[100,3250],[100,3332],[100,3416],[100,3499],[100,3583],[100,3666],[100,3749],[100,3833],[100,3916],[100,3999],[100,4083],[100,4165],[100,4249],[100,4333],[100,4416],[100,4499],[100,4583],[100,4666],[100,4749],[100,4833],[100,4915],[100,4999],[100,5082],[100,5166],[100,5249],[100,5333],[100,5416],[100,5499],[100,5583],[100,5666],[100,5749],[100,5833],[100,5916],[100,5999],[100,6083],[100,6166],[100,6249],[100,6333],[100,6416],[100,6500],[100,6582],[100,6666],[100,6750],[100,6833],[100,6916],[100,7000],[100,7083],[100,7166],[100,7249],[100,7333],[100,7416],[100,7499],[100,7583],[100,7666],[100,7749],[100,7833],[100,7916],[100,7999],[100,8083],[100,8166],[100,8250],[100,8332],[100,8416],[100,8500],[100,8583],[100,8666],[100,8750],[100,8833],[100,8916],[100,9000],[100,9083],[100,9166],[100,9250],[100,9333],[100,9416],[100,9500],[100,9582],[100,9666],[100,9749],[100,9833],[100,9916]]",1,0,372.2717,376.0725,100,3.3052,"[{""rating"":98.97894965277779,""responseTime"":2.3026999999880786},{""rating"":100,""responseTime"":3.3051999999880763}]",space,3.268,,376.0727,Definitely yes,100,376.0764,,,[],,0,6,6,6,1,audio/Narrative7Situation6.wav,audio/Narrative8Situation6.wav,audio/Narrative5Situation6.wav,audio/Narrative6Situation6.wav,3,2,3,2,,,,,,,,,,,,,,,,,,,,,,,,,,,,,,,,,,,,,,,
,,,,,,5d4ce9a10d550e0015bfb0a2,2024-02-08_12h36.46.363,group3.1-3.2-social-tom,2023.2.2,MacIntel,57.80346821,65c5074098b851296ff0b7ed,65c5110c34fc0bf8535d8cd6,,,,,,,,,,,,,,,,,,,,,,,,,,,,,376.0766,1,audio/Narrative7Situation7.wav,381.0885,,381.0885,398.2558,"[[100,1334],[100,1417],[100,1500],[100,1584],[100,1667],[100,1750],[100,1833],[100,1917],[100,2000],[100,2084],[100,2167],[100,2251],[100,2334],[100,2417],[100,2501],[100,2584],[100,2666],[100,2750],[100,2834],[100,2917],[100,2999],[100,3084],[100,3167],[100,3250],[100,3334],[100,3417],[100,3500],[100,3584],[100,3666],[100,3750],[100,3834],[100,3917],[100,4000],[100,4083],[100,4167],[100,4250],[100,4334],[100,4417],[100,4501],[100,4583],[100,4667],[100,4750],[100,4834],[100,4917],[100,4999],[100,5084],[100,5167],[100,5250],[100,5333],[100,5417],[100,5499],[100,5584],[100,5667],[100,5750],[100,5833],[100,5917],[100,6000],[100,6084],[100,6167],[100,6250],[100,6333],[100,6417],[100,6500],[100,6584],[100,6667],[100,6750],[100,6834],[100,6917],[100,7000],[100,7083],[100,7167],[100,7250],[100,7334],[100,7417],[100,7501],[100,7584],[100,7667],[100,7750],[100,7834],[100,7917],[100,8000],[100,8084],[100,8167],[100,8250],[100,8334],[100,8417],[100,8500],[100,8584],[100,8667],[100,8750],[100,8834],[100,8917],[100,9000],[100,9084],[100,9167],[100,9251],[100,9334],[100,9417],[100,9500],[100,9584],[100,9667],[100,9750],[100,9834],[100,9917],[100,10000],[100,10084],[100,10167],[100,10250],[100,10334],[100,10417],[100,10500],[100,10584],[100,10667],[100,10751],[100,10833],[100,10917],[100,11000],[100,11084],[100,11167],[100,11251],[100,11334],[100,11417],[100,11501],[100,11583],[100,11667],[100,11750],[100,11833],[100,11917],[100,12000],[100,12084],[100,12167],[100,12251],[100,12333],[100,12417],[100,12500],[100,12584],[100,12667],[100,12750],[100,12834],[100,12917],[100,13000],[100,13084],[100,13167],[100,13250],[100,13334],[100,13417],[100,13500],[100,13584],[100,13666],[100,13750],[100,13834],[100,13917],[100,14000],[100,14084],[100,14167],[100,14251],[100,14334],[100,14416],[100,14501],[100,14584],[100,14667],[100,14750],[100,14834],[100,14917],[100,15001],[100,15084],[100,15167],[100,15251],[100,15334],[100,15417],[100,15501],[100,15584],[100,15667],[100,15750],[100,15834],[100,15917],[100,16000],[100,16084],[100,16167],[100,16251],[100,16334],[100,16417],[100,16501],[100,16584],[100,16667],[100,16751],[100,16834],[100,16917],[100,17001],[100,17084],[100,17166]]",1,0,398.2562,401.123,99.55837674,1.0219,"[{""rating"":99.55837673611111,""responseTime"":1.021899999976199}]",space,2.3367,,401.1232,Definitely yes,100,401.1258,,,[],,0,7,7,7,1,audio/Narrative7Situation7.wav,audio/Narrative8Situation7.wav,audio/Narrative5Situation7.wav,audio/Narrative6Situation7.wav,5,3,4,5,,,,,,,,,,,,,,,,,,,,,,,,,,,,,,,,,,,,,,,
,,,,,,5d4ce9a10d550e0015bfb0a2,2024-02-08_12h36.46.363,group3.1-3.2-social-tom,2023.2.2,MacIntel,57.80346821,65c5074098b851296ff0b7ed,65c5110c34fc0bf8535d8cd6,,,,,,,,,,,,,,,,,,,,,,,,,,,,,401.1261,1,audio/Narrative7Situation8.wav,403.14,,403.1401,413.1736,"[[999,0],[999,83],[999,166],[999,248],[999,332],[999,416],[999,499],[999,582],[999,666],[57.1,750],[54.8,833],[52.1,916],[51.1,999],[51,1082],[50.9,1165],[50,1249],[49.4,1332],[49.4,1415],[49.4,1499],[49.3,1583],[49.3,1666],[49.3,1748],[49.3,1832],[49.3,1915],[49.3,2000],[49.3,2083],[49.3,2166],[49.3,2249],[49.3,2332],[49.3,2416],[49.3,2499],[49.3,2583],[49.3,2666],[49.3,2749],[49.3,2833],[49.3,2916],[49.3,2999],[49.3,3083],[49.3,3165],[49.3,3248],[49.3,3333],[49.3,3415],[49.3,3499],[49.3,3583],[49.3,3665],[49.3,3749],[49.3,3833],[49.3,3916],[49.3,3998],[49.3,4082],[49.3,4166],[49.3,4249],[49.3,4333],[49.3,4416],[49.3,4499],[49.3,4583],[49.3,4666],[49.2,4749],[47.9,4833],[46.9,4916],[42.8,4999],[37.6,5082],[36.9,5166],[52.5,5249],[86,5333],[100,6083],[100,6166],[100,6248],[100,6332],[100,6416],[100,6499],[100,6583],[100,6666],[100,6749],[100,6833],[100,6915],[100,7000],[100,7083],[100,7166],[100,7250],[100,7333],[100,7416],[100,7499],[100,7583],[100,7666],[100,7749],[100,7833],[100,7916],[100,7999],[100,8083],[100,8166],[100,8249],[100,8333],[100,8416],[100,8499],[100,8582],[100,8666],[100,8749],[100,8833],[100,8916],[100,8999],[100,9083],[100,9166],[100,9249],[100,9333],[100,9416],[100,9499],[100,9583],[100,9666],[100,9749],[100,9833],[100,9916],[100,9999]]",1,0,413.1737,415.8234,100,2.1193,"[{""rating"":99.7509765625,""responseTime"":1.302500000000009},{""rating"":100,""responseTime"":2.119300000011947}]",space,2.123,,415.8235,Not at all,0,415.8263,,,[],,0,8,8,8,1,audio/Narrative7Situation8.wav,audio/Narrative8Situation8.wav,audio/Narrative5Situation8.wav,audio/Narrative6Situation8.wav,2,3,3,5,,,,,,,,,,,,,,,,,,,,,,,,,,,,,,,,,,,,,,,
,,,,,,5d4ce9a10d550e0015bfb0a2,2024-02-08_12h36.46.363,group3.1-3.2-social-tom,2023.2.2,MacIntel,57.80346821,65c5074098b851296ff0b7ed,65c5110c34fc0bf8535d8cd6,,,,,,,,,,,,,,,,,,,,,,,,,,,,,415.8265,1,audio/Narrative7Situation9.wav,417.8394,,417.8395,426.4738,"[[999,0],[999,83],[999,167],[999,250],[999,333],[999,417],[999,500],[999,583],[999,667],[999,750],[999,832],[999,917],[999,1000],[999,1084],[999,1167],[999,1250],[999,1334],[999,1417],[999,1500],[999,1584],[999,1667],[999,1749],[999,1834],[999,1917],[999,2000],[999,2083],[999,2167],[999,2250],[999,2334],[999,2417],[74.1,2500],[89.8,2584],[92,2667],[93.6,2750],[100,2833],[100,2917],[100,3001],[100,3084],[100,3166],[100,3250],[100,3333],[100,3417],[100,3500],[100,3584],[100,3667],[100,3750],[100,3834],[100,3917],[100,4000],[100,4082],[100,4167],[100,4249],[100,4333],[100,4416],[100,4500],[100,4583],[100,4667],[100,4750],[100,4834],[100,4917],[100,5000],[100,5084],[100,5167],[100,5250],[100,5334],[100,5417],[100,5500],[100,5582],[100,5667],[100,5750],[100,5833],[100,5916],[100,6000],[100,6083],[100,6167],[100,6250],[100,6334],[100,6416],[100,6500],[100,6583],[100,6667],[100,6750],[100,6834],[100,6917],[100,7001],[100,7084],[100,7168],[100,7250],[100,7334],[100,7417],[100,7501],[100,7584],[100,7667],[100,7750],[100,7833],[100,7917],[100,8000],[100,8084],[100,8167],[100,8250],[100,8334],[100,8417],[100,8500],[100,8584]]",1,0,426.4739,429.4066,100,2.4551,"[{""rating"":100,""responseTime"":2.45510000002389}]",space,2.4004,,429.4066,Partially,50,429.4079,,,[],,0,9,9,9,1,audio/Narrative7Situation9.wav,audio/Narrative8Situation9.wav,audio/Narrative5Situation9.wav,audio/Narrative6Situation9.wav,2,3,3,4,,,,,,,,,,,,,,,,,,,,,,,,,,,,,,,,,,,,,,,
,,,,,,5d4ce9a10d550e0015bfb0a2,2024-02-08_12h36.46.363,group3.1-3.2-social-tom,2023.2.2,MacIntel,57.80346821,65c5074098b851296ff0b7ed,65c5110c34fc0bf8535d8cd6,,,,,,,,,,,,,,,,,,,,,,,,,,,,,429.4081,1,audio/Narrative8Situation1.wav,434.4239,,434.424,450.358,"[[100,6333],[100,6416],[100,6499],[100,6583],[100,6666],[100,6750],[100,6833],[100,6917],[100,7000],[98.7,7083],[95.1,7166],[95.1,7250],[95.1,7333],[95.1,7416],[95.1,7499],[95.1,7583],[96.4,7666],[96.8,7749],[97.1,7833],[97,7917],[96.8,8000],[96.8,8083],[96.8,8166],[97.8,8249],[95.2,8333],[14.1,9250],[26.9,9333],[48,9416],[76.3,9499],[92,9583]]",1,0,450.3582,454.8745,100,3.1039,"[{""rating"":100,""responseTime"":3.103899999976136}]",space,3.9682,,454.8745,Definitely yes,100,454.8777,,,[],,0,10,10,10,1,audio/Narrative8Situation1.wav,audio/Narrative7Situation1.wav,audio/Narrative6Situation1.wav,audio/Narrative5Situation1.wav,5,2,2,5,,,,,,,,,,,,,,,,,,,,,,,,,,,,,,,,,,,,,,,
,,,,,,5d4ce9a10d550e0015bfb0a2,2024-02-08_12h36.46.363,group3.1-3.2-social-tom,2023.2.2,MacIntel,57.80346821,65c5074098b851296ff0b7ed,65c5110c34fc0bf8535d8cd6,,,,,,,,,,,,,,,,,,,,,,,,,,,,,454.8779,1,audio/Narrative8Situation2.wav,457.8912,,457.8913,468.0242,"[[100,2999],[63.4,3500],[61.5,3583],[60.4,3667],[56.4,3749],[53.1,3833],[51.2,3917],[50.1,4000],[49.7,4083],[49.5,4165],[49.5,4249],[49.5,4333],[49.5,4416],[49.5,4500],[49.5,4583],[49.5,4666],[33.9,4749]]",1,0,468.0244,469.7417,0,1.3541,"[{""rating"":0,""responseTime"":1.3541000000238341}]",space,1.1846,,469.7417,Partially,50,475.6418,50.31792535,5.1801,"[{""rating"":49.72710503472222,""responseTime"":3.829899999976192},{""rating"":50.31792534722223,""responseTime"":5.180099999964284}]",space,0,11,11,11,1,audio/Narrative8Situation2.wav,audio/Narrative7Situation2.wav,audio/Narrative6Situation2.wav,audio/Narrative5Situation2.wav,3,3,3,3,,,5.3502,,,,,,,,,,,,,,,,,,,,,,,,,,,,,,,,,,,,
,,,,,,5d4ce9a10d550e0015bfb0a2,2024-02-08_12h36.46.363,group3.1-3.2-social-tom,2023.2.2,MacIntel,57.80346821,65c5074098b851296ff0b7ed,65c5110c34fc0bf8535d8cd6,,,,,,,,,,,,,,,,,,,,,,,,,,,,,475.6425,1,audio/Narrative8Situation3.wav,479.6574,,479.6576,502.0423,"[[49.6,2750],[48.4,2834],[48.5,2917],[49.2,3001],[49.3,3084],[49.4,3167],[50,3250],[50.2,3334],[50.2,3416],[50.2,3500],[50.2,3583],[50.2,3666],[50.2,3750],[50.2,3833],[50.2,3916],[50.1,4000],[49.9,4084],[49.9,4167],[49.8,4250],[49.8,4334],[49.8,4417],[49.8,4500],[49.8,4584],[49.8,4667],[49.8,4750],[49.8,4834],[49.8,4917],[49.8,5000],[49.8,5084],[49.8,5166],[49.8,5250],[49.8,5334],[49.8,5417],[49.8,5500],[49.8,5584],[49.8,5666],[49.8,5751],[49.8,5833],[49.8,5917],[49.8,6000],[49.8,6084],[49.8,6167],[49.8,6250],[49.8,6333],[49.8,6417],[49.8,6499],[49.8,6583],[49.8,6666],[49.8,6751],[49.8,6833],[49.8,6917],[49.8,7001],[49.8,7083],[49.8,7167],[49.8,7250],[49.8,7333],[49.8,7417],[49.8,7501],[49.8,7583],[49.8,7667],[49.8,7751],[49.8,7833],[49.8,7917],[49.8,8001],[49.8,8084],[49.8,8167],[49.8,8251],[49.8,8333],[49.8,8417],[49.8,8501],[49.8,8584],[49.8,8667],[49.8,8750],[49.8,8833],[49.8,8917],[49.8,9001],[49.8,9084],[49.8,9167],[49.8,9250],[49.8,9334],[49.8,9417],[49.8,9500],[49.8,9584],[49.8,9667],[49.8,9751],[29.4,9833],[0.9,10334],[1.7,10418],[1.7,10500],[1.7,10583],[1.5,10668],[0.8,10751],[0.2,10833],[21.8,16500],[100,17001],[100,17085],[100,17168],[100,17251],[100,17334],[100,17417],[100,17501],[100,17584],[100,17667],[100,17751],[100,17833],[100,17918],[100,18001],[100,18084],[100,18167],[100,18251],[100,18334],[100,18417],[100,18501],[100,18584],[100,18667],[100,18750],[100,18834],[100,18916],[100,19001],[100,19084],[100,19168],[100,19250],[100,19334],[100,19417],[93.5,19500],[70.5,19583],[60.9,19667],[57.3,19751],[52.5,19834],[51,19917],[51.4,20000],[51.5,20084],[51.1,20168],[50.6,20251],[50.4,20334],[50.3,20418],[50.2,20500],[50.1,20583],[50,20666],[50,20750],[50,20834],[50,20916],[50,21001],[50,21084],[50,21167],[50,21251],[50,21334],[50,21417],[50,21500],[50,21583],[50,21667],[50,21751],[50,21833],[50,21918],[50,22001],[50,22084],[50,22167],[50,22251],[50,22334]]",1,0,502.0425,504.9916,49.63107639,1.1964,"[{""rating"":49.63107638888889,""responseTime"":1.1963999999761654}]",space,2.4131,,504.9916,Definitely yes,100,504.9956,,,[],,0,12,12,12,1,audio/Narrative8Situation3.wav,audio/Narrative7Situation3.wav,audio/Narrative6Situation3.wav,audio/Narrative5Situation3.wav,4,8,5,3,,,,,,,,,,,,,,,,,,,,,,,,,,,,,,,,,,,,,,,
,,,,,,5d4ce9a10d550e0015bfb0a2,2024-02-08_12h36.46.363,group3.1-3.2-social-tom,2023.2.2,MacIntel,57.80346821,65c5074098b851296ff0b7ed,65c5110c34fc0bf8535d8cd6,,,,,,,,,,,,,,,,,,,,,,,,,,,,,504.9959,1,audio/Narrative8Situation4.wav,508.0087,,508.0087,522.1767,"[[50.7,3166],[50.5,3250],[50.3,3333],[50.2,3417],[50.2,3500],[50.1,3582],[50,3667],[50,3750],[50,3832],[50,3917],[50.1,4000],[50.3,4082],[50.3,4167],[50.4,4250],[50.4,4334],[50.4,4417],[50.4,4500],[50.4,4582],[50.4,4666],[50.4,4749],[50.4,4833],[50.4,4917],[50.4,4999],[50.4,5083],[50.4,5166],[50.4,5250],[50.4,5332],[50.4,5417],[50.4,5500],[50.4,5583],[50.4,5667],[50.4,5750],[50.4,5833],[50.4,5917],[50.4,6000],[50.4,6083],[50.4,6166],[50.4,6250],[66.8,6333],[78.1,6416],[79.6,6500],[94,6584],[98.9,6667],[99.1,6750],[99.1,6834],[99.5,6917],[100,7000],[100,7083],[100,7166],[100,7250],[100,7332],[100,7417],[100,7500],[100,7584],[100,7666],[100,7749],[100,7832],[100,7917],[100,8000],[100,8083],[100,8167],[100,8249],[100,8334],[100,8417],[100,8500],[100,8583],[100,8667],[100,8749],[100,8832],[100,8917],[100,9000],[100,9082],[100,9166],[100,9250],[100,9333],[100,9417],[100,9500],[100,9582],[100,9667],[100,9750],[100,9833],[100,9917],[100,10000],[100,10083],[100,10167],[100,10249],[100,10334],[100,10416],[100,10499],[100,10584],[100,10667],[100,10749],[100,10834],[100,10917],[100,11000],[100,11083],[100,11166],[100,11249],[100,11334],[100,11417],[100,11500],[100,11583],[100,11667],[100,11749],[100,11832],[100,11916],[100,12000],[100,12084],[100,12167],[100,12250],[100,12333],[100,12417],[100,12499],[100,12584],[100,12666],[100,12750],[100,12833],[100,12917],[100,13000],[100,13084],[100,13167],[100,13250],[100,13333],[100,13416],[100,13499],[100,13583],[100,13667],[100,13749],[100,13834],[100,13917],[100,14000],[100,14084],[100,14167]]",1,0,522.1769,524.1431,100,1.5195,"[{""rating"":100,""responseTime"":1.5194999999999936}]",space,1.4184,,524.1431,Not at all,0,524.1471,,,[],,0,13,13,13,1,audio/Narrative8Situation4.wav,audio/Narrative7Situation4.wav,audio/Narrative6Situation4.wav,audio/Narrative5Situation4.wav,3,3,2,1,,,,,,,,,,,,,,,,,,,,,,,,,,,,,,,,,,,,,,,
,,,,,,5d4ce9a10d550e0015bfb0a2,2024-02-08_12h36.46.363,group3.1-3.2-social-tom,2023.2.2,MacIntel,57.80346821,65c5074098b851296ff0b7ed,65c5110c34fc0bf8535d8cd6,,,,,,,,,,,,,,,,,,,,,,,,,,,,,524.1474,1,audio/Narrative8Situation5.wav,526.1597,,526.1598,534.4262,"[[52.8,667],[52.1,749],[52.1,832],[52.1,916],[51.6,999],[50.5,1083],[49.9,1165],[49.5,1249],[49.2,1332],[49.2,1416],[49.2,1499],[49.2,1583],[49.2,1665],[49.4,1749],[49.5,1833],[50.3,1915],[53.4,1999],[53.4,2083],[53.3,2166],[57.2,2249],[83.3,2333],[100,2416],[100,2499],[100,2583],[100,2666],[100,2749],[100,2833],[100,2915],[100,2999],[100,3083],[100,3166],[100,3249],[100,3333],[100,3416],[100,3499],[100,3583],[100,3666],[100,3748],[100,3833],[100,3916],[100,3999],[100,4082],[100,4166],[100,4249],[100,4333],[100,4415],[100,4499],[100,4583],[100,4666],[100,4750],[100,4832],[100,4915],[100,4999],[100,5082],[100,5166],[100,5250],[100,5332],[100,5416],[100,5498],[100,5583],[100,5666],[100,5749],[100,5833],[100,5916],[100,5999],[100,6083],[100,6167],[100,6249],[100,6333],[100,6416],[100,6499],[100,6583],[100,6666],[100,6749],[100,6833],[100,6916],[100,6999],[100,7083],[100,7166],[100,7250],[100,7332],[100,7416],[100,7500],[100,7582],[100,7666],[100,7749],[100,7832],[100,7916],[100,8000],[100,8083],[100,8166],[100,8248]]",1,0,534.4263,537.4431,100,2.476,"[{""rating"":100,""responseTime"":2.4760000000001128}]",space,2.4949,,537.4431,Not at all,0,537.4458,,,[],,0,14,14,14,1,audio/Narrative8Situation5.wav,audio/Narrative7Situation5.wav,audio/Narrative6Situation5.wav,audio/Narrative5Situation5.wav,2,5,2,5,,,,,,,,,,,,,,,,,,,,,,,,,,,,,,,,,,,,,,,
,,,,,,5d4ce9a10d550e0015bfb0a2,2024-02-08_12h36.46.363,group3.1-3.2-social-tom,2023.2.2,MacIntel,57.80346821,65c5074098b851296ff0b7ed,65c5110c34fc0bf8535d8cd6,,,,,,,,,,,,,,,,,,,,,,,,,,,,,537.446,1,audio/Narrative8Situation6.wav,539.46,,539.4601,545.9271,"[[100,915],[100,999],[100,1083],[100,1166],[100,1249],[100,1332],[94.1,1417],[57.4,1500],[47.8,1583],[47.6,1666],[47.6,1749],[47.6,1833],[66.8,1916],[100,1999],[100,2082],[100,2166],[100,2249],[100,2332],[100,2416],[100,2499],[100,2582],[100,2666],[100,2749],[100,2833],[100,2916],[100,2999],[100,3083],[100,3166],[100,3248],[100,3332],[100,3415],[100,3498],[100,3583],[100,3666],[100,3749],[100,3833],[100,3916],[100,4000],[100,4083],[100,4166],[100,4249],[100,4333],[100,4416],[100,4499],[100,4583],[100,4666],[100,4749],[100,4833],[100,4916],[100,5000],[100,5083],[100,5166],[100,5249],[100,5333],[100,5415],[100,5500],[100,5583],[100,5666],[100,5750],[100,5833],[100,5916],[100,5999],[100,6083],[100,6166],[100,6250],[100,6333],[100,6415]]",1,0,545.9273,547.8598,100,1.6046,"[{""rating"":100,""responseTime"":1.6046000000237655}]",space,1.3833,,547.8598,Partially,50,547.8607,,,[],,0,15,15,15,1,audio/Narrative8Situation6.wav,audio/Narrative7Situation6.wav,audio/Narrative6Situation6.wav,audio/Narrative5Situation6.wav,2,3,2,3,,,,,,,,,,,,,,,,,,,,,,,,,,,,,,,,,,,,,,,
,,,,,,5d4ce9a10d550e0015bfb0a2,2024-02-08_12h36.46.363,group3.1-3.2-social-tom,2023.2.2,MacIntel,57.80346821,65c5074098b851296ff0b7ed,65c5110c34fc0bf8535d8cd6,,,,,,,,,,,,,,,,,,,,,,,,,,,,,547.8608,1,audio/Narrative8Situation7.wav,550.876,,550.8761,562.9777,"[[100,750],[100,834],[99.3,916],[97.3,1001],[97.2,1084],[98.2,1168],[99.3,1251],[100,1334],[100,1417],[100,1500],[100,1584],[100,1667],[100,1750],[92.7,1833],[70.7,1917],[44.7,2000],[22.9,2083],[7.4,2167]]",1,0,562.978,565.3774,0,1.9176,"[{""rating"":0,""responseTime"":1.9176000000238673}]",space,1.8527,,565.3775,Not at all,0,565.3808,,,[],,0,16,16,16,1,audio/Narrative8Situation7.wav,audio/Narrative7Situation7.wav,audio/Narrative6Situation7.wav,audio/Narrative5Situation7.wav,3,5,5,4,,,,,,,,,,,,,,,,,,,,,,,,,,,,,,,,,,,,,,,
,,,,,,5d4ce9a10d550e0015bfb0a2,2024-02-08_12h36.46.363,group3.1-3.2-social-tom,2023.2.2,MacIntel,57.80346821,65c5074098b851296ff0b7ed,65c5110c34fc0bf8535d8cd6,,,,,,,,,,,,,,,,,,,,,,,,,,,,,565.381,1,audio/Narrative8Situation8.wav,568.3935,,568.3936,581.2448,"[[38.1,667],[39.5,750],[39.5,834],[39.5,917],[39.5,999],[30,1083],[13.1,1166],[8.9,1250],[6.3,1333],[3.3,1417],[1.7,1499],[0.9,1583],[0,1666],[3.6,9667],[100,10167],[100,10250],[100,10334],[100,10417],[100,10499],[100,10584],[100,10667],[100,10750],[100,10834],[100,10916],[100,11000],[100,11083],[100,11166],[100,11250],[100,11334],[100,11417],[100,11500],[100,11584],[100,11667],[100,11750],[100,11834],[100,11916],[100,11999],[100,12084],[100,12167],[100,12250],[100,12334],[100,12417],[100,12500],[100,12584],[100,12667],[100,12750],[100,12834]]",1,0,581.2451,584.5275,50.14431424,2.8517,"[{""rating"":49.42979600694444,""responseTime"":1.303300000011859},{""rating"":50.14431423611111,""responseTime"":2.8516999999881136}]",space,2.7428,,584.5275,Partially,50,584.529,,,[],,0,17,17,17,1,audio/Narrative8Situation8.wav,audio/Narrative7Situation8.wav,audio/Narrative6Situation8.wav,audio/Narrative5Situation8.wav,3,2,5,3,,,,,,,,,,,,,,,,,,,,,,,,,,,,,,,,,,,,,,,
,,,,,,5d4ce9a10d550e0015bfb0a2,2024-02-08_12h36.46.363,group3.1-3.2-social-tom,2023.2.2,MacIntel,57.80346821,65c5074098b851296ff0b7ed,65c5110c34fc0bf8535d8cd6,,,,,,,,,,,,,,,,,,,,,,,,,,,,,584.5291,1,audio/Narrative8Situation9.wav,587.5437,,587.5437,598.8619,"[[49.4,834],[49.4,917],[49.4,1000],[49.9,1084],[42,1167],[0.5,4167],[0.8,4250],[0.8,4334],[3.5,4417],[49.5,4501],[100,4918],[100,5001],[100,5084],[100,5167],[100,5250],[100,5334],[100,5417],[100,5500],[100,5584],[100,5668],[100,5751],[100,5834],[100,5917],[100,6001],[100,6084],[100,6167],[100,6251],[100,6334],[100,6417],[100,6501],[100,6584],[100,6667],[100,6750],[100,6834],[100,6917],[100,7000],[100,7084],[100,7167],[100,7250],[100,7334],[100,7417],[100,7501],[100,7584],[100,7667],[100,7750],[100,7834],[100,7917],[100,8001],[100,8084],[100,8167],[100,8251],[100,8334],[100,8417],[100,8501],[100,8584],[100,8667],[100,8751],[100,8834],[100,8917],[100,9001],[96.4,9084],[77.1,9168],[46.2,9250],[20.6,9334],[14.8,9418],[7.7,9501],[2.3,9584],[1.3,9668],[0.4,9751],[0,9834]]",1,0,598.8622,601.4784,50.07269965,1.8795,"[{""rating"":50.07269965277777,""responseTime"":1.8795000000000073}]",space,2.0701,,601.4785,Partially,50,601.4809,,,[],,0,18,18,18,1,audio/Narrative8Situation9.wav,audio/Narrative7Situation9.wav,audio/Narrative6Situation9.wav,audio/Narrative5Situation9.wav,3,2,4,3,,,,,,,,,,,,,,,,,,,,,,,,,,,,,,,,,,,,,,,
,,,,,,5d4ce9a10d550e0015bfb0a2,2024-02-08_12h36.46.363,group3.1-3.2-social-tom,2023.2.2,MacIntel,57.80346821,65c5074098b851296ff0b7ed,65c5110c34fc0bf8535d8cd6,,,,,,,,,,,,,,,,,,,,,,,,,,,604.1961,606.7784,606.7909,2,audio/Narrative13Situation2.wav,606.791,,606.791,636.5296,"[[50.1,1653],[49.9,1737],[50,1820],[50,1903],[50,1987],[50,2070],[50,2153],[50,2237],[50,2320],[50,2404],[50,2487],[50,2570],[50,2653],[50,2737],[50,2820],[50,2903],[50,2987],[50,3070],[50,3154],[50,3237],[50,3320],[50,3403],[50,3487],[50,3571],[50,3654],[50,3737],[50,3820],[50,3904],[50,3987],[50,4070],[50,4154],[50,4237],[50,4320],[50,4404],[50,4487],[50,4570],[50,4654],[50,4737],[50,4820],[50,4904],[50,4987],[50,5070],[50,5154],[50,5237],[50,5320],[50,5404],[50,5487],[50,5570],[50,5654],[50,5737],[50,5820],[50,5904],[50,5987],[50,6070],[50,6154],[50,6236],[50,6320],[50,6404],[50,6487],[50,6570],[50,6654],[50,6737],[50,6820],[50,6904],[50,6987],[50,7070],[50,7153],[50,7237],[50,7320],[50,7404],[50,7487],[50,7570],[50,7654],[50,7737],[49.8,7820],[100,8320],[100,8403],[100,8487],[100,8570],[100,8654],[100,8738],[100,8821],[100,8904],[100,8988],[100,9069],[100,9154],[100,9237],[100,9320],[100,9404],[100,9487],[100,9570],[100,9654],[100,9737],[100,9821],[100,9904],[100,9987],[100,10071],[100,10154],[100,10237],[100,10321],[100,10404],[100,10487],[100,10571],[100,10653],[100,10737],[100,10820],[100,10904],[100,10987],[100,11071],[100,11154],[100,11237],[100,11321],[100,11403],[100,11487],[100,11571],[100,11653],[100,11737],[100,11821],[100,11904],[100,11987],[100,12071],[100,12154],[100,12237],[100,12321],[100,12404],[100,12487],[100,12570],[100,12653],[100,12737],[100,12821],[100,12904],[100,12987],[100,13071],[100,13154],[100,13237],[100,13321],[100,13404],[100,13487],[100,13571],[100,13654],[100,13737],[100,13821],[100,13904],[100,13987],[100,14071],[100,14154],[100,14237],[100,14320],[100,14404],[100,14487],[100,14570],[100,14654],[100,14737],[100,14821],[100,14904],[100,14987],[100,15071],[100,15154],[100,15237],[100,15320],[100,15404],[100,15488],[100,15571],[100,15654],[100,15737],[100,15821],[100,15904],[100,15987],[100,16071],[100,16154],[100,16238],[100,16321],[100,16403],[100,16488],[100,16571],[100,16654],[100,16737],[100,16820],[100,16904],[100,16987],[100,17071],[100,17153],[100,17237],[100,17321],[100,17404],[100,17487],[100,17570],[100,17654],[100,17737],[100,17821],[100,17904],[100,17987],[100,18071],[100,18154],[100,18238],[100,18321],[100,18404],[100,18487],[100,18571],[100,18654],[100,18737],[100,18821],[100,18904],[100,18988],[100,19071],[100,19153],[100,19237],[100,19321],[100,19404],[100,19488],[100,19571],[100,19654],[100,19738],[100,19821],[100,19904],[100,19988],[100,20071],[100,20154],[100,20238],[100,20321],[100,20404],[100,20487],[100,20571],[100,20654],[100,20737],[100,20821],[100,20904],[100,20987],[100,21071],[100,21154],[100,21238],[100,21321],[100,21404],[100,21487],[100,21570],[100,21654],[100,21738],[100,21821],[100,21904],[100,21988],[100,22071],[100,22154],[100,22237],[100,22321],[100,22404],[100,22488],[100,22571],[100,22654],[100,22738],[100,22821],[100,22904],[100,22988],[100,23071],[100,23154],[100,23238],[100,23321],[100,23404],[100,23487],[100,23571],[100,23654],[100,23737],[100,23821],[100,23904],[100,23987],[99.4,24072],[67.6,24154],[54.9,24238],[51.4,24321],[51.1,24404],[50.4,24488],[50.1,24571],[50.5,24655],[50.6,24738],[50.6,24821],[50.6,24904],[50.4,24987],[50.4,25071],[50.4,25154],[49.3,25238],[14.4,25321]]",1,0,636.53,636.5409,,,[],,,,636.5409,Partially,50,636.5414,,,[],,0,0,0,0,1,audio/Narrative13Situation2.wav,audio/Narrative13Situation2.wav,audio/Narrative13Situation2.wav,audio/Narrative13Situation2.wav,2,2,2,2,,,,,601.482,604.1955,space,2.1929,,,,,,,,,,,,,,,,,,,,,,,,,,,,,,,
,,,,,,5d4ce9a10d550e0015bfb0a2,2024-02-08_12h36.46.363,group3.1-3.2-social-tom,2023.2.2,MacIntel,57.80346821,65c5074098b851296ff0b7ed,65c5110c34fc0bf8535d8cd6,,,,,,,,,,,,,,,,,,,,,,,,,,,,,636.5416,2,audio/Narrative5Situation1.wav,641.546,,641.5462,654.8455,"[[3.2,999],[3.3,1082],[2.8,1166],[2.2,1249],[1.2,1333],[0.6,1416],[35,11350],[100,11516],[100,11600],[100,11683],[100,11765],[100,11850],[100,11933],[100,12016],[100,12100],[100,12183],[100,12266],[100,12350],[100,12433],[100,12516],[100,12600],[100,12683],[100,12766],[100,12850],[100,12933],[100,13016],[100,13100],[100,13183],[100,13266]]",1,0,654.8458,656.38,24.63324653,1.2148,"[{""rating"":24.63324652777778,""responseTime"":1.2148000000119055}]",space,1.0028,,656.3802,Definitely yes,100,656.3839,,,[],,0,1,1,1,1,audio/Narrative7Situation1.wav,audio/Narrative8Situation1.wav,audio/Narrative5Situation1.wav,audio/Narrative6Situation1.wav,2,5,5,2,,,,,,,,,,,,,,,,,,,,,,,,,,,,,,,,,,,,,,,
,,,,,,5d4ce9a10d550e0015bfb0a2,2024-02-08_12h36.46.363,group3.1-3.2-social-tom,2023.2.2,MacIntel,57.80346821,65c5074098b851296ff0b7ed,65c5110c34fc0bf8535d8cd6,,,,,,,,,,,,,,,,,,,,,,,,,,,,,656.3841,2,audio/Narrative5Situation2.wav,659.3965,,659.3967,688.8642,"[[24.1,1082],[21.1,1166],[20.9,1249],[21.9,1332],[23.1,1416],[23.1,1499],[23.1,1582],[23.1,1666],[23.1,1749],[23.1,1833],[23.1,1916],[19.9,2000],[8.3,2083],[5.4,2166],[3.6,2249],[0.3,2333],[1.9,12667],[46.1,12749],[84.2,12833],[86.8,12916],[87.4,13000],[94.3,13083],[100,13167],[100,13249],[100,13333],[100,13416],[100,13499],[100,13583],[100,13666],[100,13750],[100,13833],[100,13916],[100,14000],[100,14082],[100,14166],[100,14250],[100,14333],[100,14415],[100,14500],[100,14582],[100,14666],[100,14749],[100,14833],[100,14916],[100,15000],[100,15083],[100,15166],[100,15250],[100,15333],[100,15416],[100,15500],[100,15582],[100,15666],[100,15749],[100,15833],[100,15915],[100,15999],[100,16083],[100,16166],[100,16250],[100,16333],[88.6,16415],[52.2,16500],[4.3,16917],[2.7,17000],[1.2,17083],[1,17165],[1,17249],[0.8,17333],[42.8,22500],[100,22916],[100,23000],[100,23083],[100,23167],[100,23250],[100,23334],[100,23417],[100,23500],[100,23583],[100,23667],[100,23750],[100,23833],[100,23917],[100,24000],[100,24083],[100,24166],[100,24250],[100,24333],[100,24416],[100,24499],[100,24583],[100,24667],[100,24750],[100,24833],[100,24917],[100,24999],[100,25083],[100,25166],[100,25250],[100,25333],[100,25416],[100,25500],[100,25583],[100,25667],[100,25750],[100,25833],[100,25917],[100,26000],[100,26083],[100,26167],[100,26250],[100,26333],[100,26416],[100,26500],[100,26583],[100,26666],[100,26750],[100,26833],[70.8,26916],[5.5,27000],[0.6,27083],[0.6,27166],[0.6,27250],[0.7,27333]]",1,0,688.8644,690.4308,11.08995226,1.0956,"[{""rating"":11.089952256944446,""responseTime"":1.0955999999642927}]",space,1.0189,,690.431,Definitely yes,100,690.4338,,,[],,0,2,2,2,1,audio/Narrative7Situation2.wav,audio/Narrative8Situation2.wav,audio/Narrative5Situation2.wav,audio/Narrative6Situation2.wav,3,3,3,3,,,,,,,,,,,,,,,,,,,,,,,,,,,,,,,,,,,,,,,
,,,,,,5d4ce9a10d550e0015bfb0a2,2024-02-08_12h36.46.363,group3.1-3.2-social-tom,2023.2.2,MacIntel,57.80346821,65c5074098b851296ff0b7ed,65c5110c34fc0bf8535d8cd6,,,,,,,,,,,,,,,,,,,,,,,,,,,,,690.4342,2,audio/Narrative5Situation3.wav,693.4474,,693.4474,707.3472,"[[10.9,833],[9.5,916],[9.4,999],[9.4,1083],[9.4,1166],[8.7,1249],[4.2,1333],[0.8,6000],[39.1,6083],[82.7,6166],[87.7,6250],[93.2,6333],[100,6415],[100,6502],[100,6583],[100,6666],[100,6749],[100,6833],[100,6916],[100,6999],[100,7083],[100,7166],[100,7250],[100,7333],[100,7415],[100,7500],[100,7583],[100,7666],[100,7750],[100,7833],[100,7916],[100,8000],[100,8083],[100,8166],[100,8250],[100,8333],[100,8416],[100,8499],[100,8583],[100,8666],[100,8749],[100,8833],[100,8916],[100,9000],[100,9083],[100,9166],[100,9249],[100,9333],[100,9416],[100,9500],[100,9583],[100,9666],[100,9750],[100,9833],[100,9916],[100,10000],[100,10083],[100,10166],[100,10250],[100,10333],[100,10416],[100,10500],[100,10582],[100,10667],[100,10750],[100,10833],[100,10916],[100,11000],[100,11083],[100,11165],[100,11250],[100,11333],[100,11416],[100,11500],[100,11583],[100,11666],[100,11750],[100,11833],[100,11916],[100,12000],[100,12083],[100,12166],[100,12249],[100,12333],[100,12416],[100,12500],[100,12583],[100,12666],[100,12750],[100,12833],[100,12916],[100,13000],[100,13083],[100,13166],[100,13250],[100,13333],[100,13416],[100,13500],[100,13583],[100,13665],[100,13750],[100,13833]]",1,0,707.3473,709.0644,100,1.4889,"[{""rating"":100,""responseTime"":1.48889999997607}]",space,1.1861,,709.0645,Definitely yes,100,709.0673,,,[],,0,3,3,3,1,audio/Narrative7Situation3.wav,audio/Narrative8Situation3.wav,audio/Narrative5Situation3.wav,audio/Narrative6Situation3.wav,8,4,3,5,,,,,,,,,,,,,,,,,,,,,,,,,,,,,,,,,,,,,,,
,,,,,,5d4ce9a10d550e0015bfb0a2,2024-02-08_12h36.46.363,group3.1-3.2-social-tom,2023.2.2,MacIntel,57.80346821,65c5074098b851296ff0b7ed,65c5110c34fc0bf8535d8cd6,,,,,,,,,,,,,,,,,,,,,,,,,,,,,709.0676,2,audio/Narrative5Situation4.wav,710.0811,,710.0811,730.4809,"[[100,7249],[100,7334],[100,7416],[100,7500],[100,7583],[100,7666],[100,7749],[100,7833],[100,7916],[100,8000],[100,8083],[100,8166],[100,8250],[100,8333],[100,8416],[100,8499],[100,8582],[100,8666],[100,8750],[100,8833],[100,8917],[77.2,8999],[56,9083],[55.8,9167],[55.8,9250],[55.8,9333],[48.8,9417],[45.3,9500],[45.3,9583],[45.3,9666],[45.1,9750],[45.1,9833],[45.1,9916],[45.1,10000],[45.1,10083],[45.1,10167],[45.1,10249],[45.2,10333],[45.2,10416],[35.7,10500],[28.8,16833],[63.5,16917],[80.2,17000],[87.5,17083],[88.7,17166],[96.5,17250],[100,17334],[100,17417],[100,17500],[100,17583],[100,17667],[100,17750],[100,17833],[100,17917],[100,18000],[100,18083],[100,18167],[100,18250],[100,18333],[100,18417],[100,18499],[100,18583],[100,18667],[100,18750],[100,18833],[100,18917],[100,19000],[100,19083],[100,19166],[100,19250],[100,19333],[100,19416],[100,19500],[100,19583],[100,19667],[100,19750],[100,19833],[100,19917],[100,20000],[100,20083],[100,20166],[100,20250],[100,20333]]",1,0,730.4811,739.3316,100,8.489,"[{""rating"":100,""responseTime"":8.489000000000033}]",space,8.3191,,739.3317,Definitely yes,100,739.3326,,,[],,0,4,4,4,1,audio/Narrative7Situation4.wav,audio/Narrative8Situation4.wav,audio/Narrative5Situation4.wav,audio/Narrative6Situation4.wav,3,3,1,2,,,,,,,,,,,,,,,,,,,,,,,,,,,,,,,,,,,,,,,
,,,,,,5d4ce9a10d550e0015bfb0a2,2024-02-08_12h36.46.363,group3.1-3.2-social-tom,2023.2.2,MacIntel,57.80346821,65c5074098b851296ff0b7ed,65c5110c34fc0bf8535d8cd6,,,,,,,,,,,,,,,,,,,,,,,,,,,,,739.3327,2,audio/Narrative5Situation5.wav,744.3487,,744.3488,759.7827,"[[100,833],[96.8,916],[92.4,999],[88.9,1083],[88.7,1166],[89.5,1249],[89.5,1333],[89.5,1416],[89.5,1499],[89.5,1583],[59.9,1667],[32.5,1749],[31.3,1833],[31.3,1916],[30.8,2000],[15.4,2083],[6.7,2166],[3.7,2249],[0.6,2333],[0.3,2416],[0.3,2499],[0,2583],[14.4,6333],[99.8,7000],[100,7082],[100,7166],[100,7250],[100,7332],[100,7416],[100,7499],[100,7583],[100,7666],[100,7750],[100,7833],[100,7916],[100,7999],[100,8083],[100,8166],[100,8249],[100,8332],[100,8416],[100,8499],[100,8583],[100,8666],[100,8750],[100,8833],[100,8916],[100,9000],[100,9082],[100,9166],[100,9250],[100,9332],[100,9416],[100,9500],[100,9583],[100,9666],[100,9749],[100,9833],[100,9916],[100,9999],[100,10082],[100,10166],[100,10249],[100,10333],[100,10421],[100,10500],[100,10583],[100,10666],[100,10750],[100,10833],[100,10916],[100,10999],[100,11082],[100,11166],[100,11250],[100,11333],[100,11416],[100,11500],[100,11583],[100,11666],[100,11749],[100,11833],[100,11916],[100,12000],[100,12082],[100,12166],[100,12250],[100,12333],[100,12416],[100,12500],[100,12583],[100,12667],[100,12750],[100,12833],[100,12917],[100,13000],[100,13082],[100,13166],[100,13249],[100,13333],[100,13416],[100,13499],[100,13583],[100,13666],[100,13749],[100,13833],[100,13916],[100,13999],[100,14082],[100,14166],[100,14249],[100,14333],[100,14416],[100,14499],[100,14583],[100,14666],[100,14750],[100,14833],[100,14916],[100,14999],[100,15083],[100,15165],[100,15250],[100,15333],[100,15417]]",1,0,759.783,761.4491,100,1.455,"[{""rating"":100,""responseTime"":1.455000000000041}]",space,1.1179,,761.4491,Definitely yes,100,761.4514,,,[],,0,5,5,5,1,audio/Narrative7Situation5.wav,audio/Narrative8Situation5.wav,audio/Narrative5Situation5.wav,audio/Narrative6Situation5.wav,5,2,5,2,,,,,,,,,,,,,,,,,,,,,,,,,,,,,,,,,,,,,,,
,,,,,,5d4ce9a10d550e0015bfb0a2,2024-02-08_12h36.46.363,group3.1-3.2-social-tom,2023.2.2,MacIntel,57.80346821,65c5074098b851296ff0b7ed,65c5110c34fc0bf8535d8cd6,,,,,,,,,,,,,,,,,,,,,,,,,,,,,761.4517,2,audio/Narrative5Situation6.wav,764.4653,,764.4653,770.1328,"[[100,333],[86.6,416],[62.6,500],[60.1,584],[58.4,667],[49.6,750],[47.9,833],[48,917],[48.1,1000],[48.6,1084],[49.1,1167],[49.1,1250],[49.1,1333],[49.1,1417],[49.1,1500],[49.1,1583],[49.1,1667],[45.4,1750],[24.7,1834],[24.5,3250],[76.1,3333],[100,3417],[100,3500],[100,3584],[100,3667],[100,3749],[100,3833],[100,3917],[100,4000],[100,4083],[100,4167],[100,4250],[100,4333],[100,4417],[100,4500],[100,4583],[100,4667],[100,4750],[100,4833],[100,4917],[100,5000],[100,5082],[100,5167],[100,5250],[100,5333],[100,5417],[100,5500],[100,5583],[100,5667]]",1,0,770.133,771.9323,100,1.496,"[{""rating"":100,""responseTime"":1.495999999999981}]",space,1.251,,771.9324,Not at all,0,771.9358,,,[],,0,6,6,6,1,audio/Narrative7Situation6.wav,audio/Narrative8Situation6.wav,audio/Narrative5Situation6.wav,audio/Narrative6Situation6.wav,3,2,3,2,,,,,,,,,,,,,,,,,,,,,,,,,,,,,,,,,,,,,,,
,,,,,,5d4ce9a10d550e0015bfb0a2,2024-02-08_12h36.46.363,group3.1-3.2-social-tom,2023.2.2,MacIntel,57.80346821,65c5074098b851296ff0b7ed,65c5110c34fc0bf8535d8cd6,,,,,,,,,,,,,,,,,,,,,,,,,,,,,771.9361,2,audio/Narrative5Situation7.wav,775.9495,,775.9495,797.0002,"[[100,666],[76,749],[63.4,833],[61.7,916],[53.8,999],[50.9,1083],[50.9,1166],[51.6,1249],[52.1,1333],[51.9,1416],[51.4,1500],[51.1,1583],[50.3,1666],[50.1,1749],[50.1,1833],[50,1916],[49.9,1999],[49.9,2083],[49.9,2166],[36,2250],[9.6,14833],[32.4,14917],[37.6,15000],[37.6,15083],[37.6,15166],[37.6,15249],[27.1,15334],[6.2,15416],[2.1,15499],[1.1,15584]]",1,0,797.0003,798.7828,0,1.4889,"[{""rating"":0,""responseTime"":1.4889000000357555}]",space,1.2374,,798.7829,Definitely yes,100,798.7868,,,[],,0,7,7,7,1,audio/Narrative7Situation7.wav,audio/Narrative8Situation7.wav,audio/Narrative5Situation7.wav,audio/Narrative6Situation7.wav,5,3,4,5,,,,,,,,,,,,,,,,,,,,,,,,,,,,,,,,,,,,,,,
,,,,,,5d4ce9a10d550e0015bfb0a2,2024-02-08_12h36.46.363,group3.1-3.2-social-tom,2023.2.2,MacIntel,57.80346821,65c5074098b851296ff0b7ed,65c5110c34fc0bf8535d8cd6,,,,,,,,,,,,,,,,,,,,,,,,,,,,,798.7872,2,audio/Narrative5Situation8.wav,801.8006,,801.8006,810.6337,"[[17.1,499],[14.5,582],[14.4,666],[14.2,749],[14.1,832],[14.1,915],[14.1,999],[13.8,1081],[13.7,1165],[13.7,1249],[13.7,1332],[12.1,1416],[4.9,1499],[0.5,1582]]",1,0,810.6338,812.1671,0,1.2876,"[{""rating"":0,""responseTime"":1.2875999999641863}]",space,0.9914,,812.1671,Definitely yes,100,812.1694,,,[],,0,8,8,8,1,audio/Narrative7Situation8.wav,audio/Narrative8Situation8.wav,audio/Narrative5Situation8.wav,audio/Narrative6Situation8.wav,2,3,3,5,,,,,,,,,,,,,,,,,,,,,,,,,,,,,,,,,,,,,,,
,,,,,,5d4ce9a10d550e0015bfb0a2,2024-02-08_12h36.46.363,group3.1-3.2-social-tom,2023.2.2,MacIntel,57.80346821,65c5074098b851296ff0b7ed,65c5110c34fc0bf8535d8cd6,,,,,,,,,,,,,,,,,,,,,,,,,,,,,812.1697,2,audio/Narrative5Situation9.wav,815.1837,,815.1838,854.7347,"[[3.4,833],[3.2,917],[2.8,1000],[2.6,1083],[2,1166],[0.2,1250],[5.6,16166],[100,16667],[100,16749],[100,16833],[100,16917],[100,17000],[100,17083],[100,17167],[100,17250],[100,17332],[100,17417],[100,17500],[100,17583],[100,17666],[100,17750],[100,17832],[100,17917],[100,18000],[100,18083],[100,18166],[100,18250],[100,18333],[100,18416],[100,18500],[100,18583],[100,18666],[100,18750],[100,18833],[100,18916],[100,19000],[100,19083],[100,19166],[100,19250],[100,19333],[100,19416],[100,19499],[100,19583],[100,19667],[100,19750],[100,19833],[100,19917],[100,20000],[100,20083],[100,20166],[100,20250],[100,20333],[100,20417],[100,20500],[100,20583],[100,20667],[100,20750],[100,20833],[100,20917],[100,21000],[100,21083],[100,21166],[100,21250],[100,21333],[100,21416],[100,21500],[100,21583],[100,21666],[100,21750],[100,21833],[100,21916],[100,22000],[100,22083],[100,22166],[100,22250],[100,22333],[100,22417],[100,22500],[100,22583],[100,22666],[100,22750],[100,22833],[100,22916],[100,23000],[100,23083],[100,23167],[100,23250],[100,23333],[100,23417],[100,23500],[100,23583],[100,23666],[100,23750],[100,23832],[100,23917],[100,23999],[100,24084],[100,24167],[100,24250],[92.7,24333],[11.2,27584],[40.5,27666],[49.4,27750],[58.9,27833],[74.3,27917],[77,28000],[77,28083],[77,28167],[77,28250],[77,28333],[77,28417],[77,28500],[77.1,28584],[80.9,28666],[85.7,28750],[85.8,28834],[85.8,28916],[85.8,29000],[86.1,29083],[86.1,29166],[86.7,29251],[87,29333],[88.1,29417],[95,29500],[99,29584],[100,29667],[100,29749],[100,29833],[100,29916],[100,30000],[100,30083],[100,30166],[100,30250],[100,30334],[100,30417],[100,30500],[100,30584],[100,30667],[100,30750],[100,30834],[100,30917],[100,31000],[100,31082],[100,31167],[100,31250],[100,31334],[100,31416],[100,31500],[100,31584],[100,31667],[100,31750],[100,31833],[100,31917],[100,32000],[100,32084],[100,32166],[100,32250],[100,32334],[100,32417],[100,32500],[100,32583],[100,32667],[100,32750],[100,32833],[100,32917],[100,33000],[100,33084],[100,33167],[100,33250],[100,33334],[100,33417],[100,33500],[100,33583],[100,33667],[100,33750],[100,33834],[100,33916],[100,34000],[100,34084],[100,34167],[100,34250],[100,34333],[100,34417],[100,34500],[100,34584],[100,34667],[100,34750],[100,34834],[100,34917],[100,35000],[100,35084],[100,35167],[100,35250],[100,35334],[100,35416],[100,35500],[100,35584],[100,35667],[100,35750],[100,35834],[100,35917],[100,36000],[100,36084],[100,36167],[100,36250],[100,36334],[95.6,36417],[74,36501],[71.8,36584],[67.7,36667],[58.9,36750],[51,36834],[19,36917],[6.6,37001],[6.4,37083],[3.8,37167],[0.7,37251]]",1,0,854.7349,856.568,50.10253906,1.4636,"[{""rating"":50.10253906249999,""responseTime"":1.4636000000239164}]",space,1.2935,,856.568,Not at all,0,856.5712,,,[],,0,9,9,9,1,audio/Narrative7Situation9.wav,audio/Narrative8Situation9.wav,audio/Narrative5Situation9.wav,audio/Narrative6Situation9.wav,2,3,3,4,,,,,,,,,,,,,,,,,,,,,,,,,,,,,,,,,,,,,,,
,,,,,,5d4ce9a10d550e0015bfb0a2,2024-02-08_12h36.46.363,group3.1-3.2-social-tom,2023.2.2,MacIntel,57.80346821,65c5074098b851296ff0b7ed,65c5110c34fc0bf8535d8cd6,,,,,,,,,,,,,,,,,,,,,,,,,,,,,856.5714,2,audio/Narrative6Situation1.wav,858.5846,,858.5846,885.1523,"[[50.2,1250],[50.2,1333],[50.2,1415],[50.1,1500],[50.1,1583],[50.1,1666],[50.1,1750],[50.1,1833],[50.1,1916],[50.1,2000],[50.1,2083],[50.1,2166],[50.1,2250],[50.1,2333],[50.1,2416],[50.1,2499],[50.1,2583],[50.1,2666],[50.1,2750],[50.1,2833],[50.1,2916],[50.1,2999],[50.1,3083],[50.1,3166],[50.1,3250],[50.1,3333],[50.1,3416],[50.1,3500],[50.1,3582],[50.1,3666],[50.1,3750],[50.1,3833],[50.1,3916],[50.1,4000],[50.1,4083],[50.1,4166],[50.1,4250],[50.1,4333],[50.1,4416],[50.1,4499],[50,4583],[49.8,4667],[49.7,4750],[49.7,4833],[49.7,4916],[49.7,5000],[49.7,5083],[49.7,5167],[49.7,5250],[49.7,5333],[49.7,5416],[49.7,5500],[49.7,5583],[49.7,5666],[49.7,5750],[49.7,5833],[49.7,5916],[49.7,6000],[49.7,6083],[49.5,6166],[47.7,6250],[18.4,6333],[13.2,6417],[13.5,6500],[28,6584],[59.1,6666],[82.6,6750],[94.9,6833],[98.8,6916],[99,7000],[99.8,7083],[100,7167],[100,7250],[100,7333],[100,7416],[100,7500],[100,7583],[100,7666],[100,7750],[100,7833],[100,7917],[100,8000],[100,8083],[100,8166],[100,8250],[100,8333],[100,8417],[100,8500],[100,8583],[100,8667],[100,8750],[100,8833],[100,8917],[100,9000],[100,9083],[100,9167],[100,9250],[100,9333],[100,9416],[100,9500],[100,9583],[100,9666],[100,9750],[100,9833],[100,9917],[100,10000],[100,10083],[100,10166],[100,10250],[100,10333],[100,10417],[100,10500],[100,10583],[100,10666],[100,10750],[100,10832],[100,10916],[100,10999],[100,11083],[100,11167],[100,11250],[100,11333],[100,11417],[100,11500],[100,11583],[100,11667],[100,11750],[100,11833],[100,11916],[100,12000],[100,12083],[99.6,12166],[60.2,12250],[18.7,12333],[15.4,12416],[13.4,12500],[8.3,12584],[2.5,12667],[0.1,12750],[1.5,14000],[85.9,14167],[92.9,14250],[98,14334],[100,14416],[100,14500],[100,14583],[100,14666],[100,14750],[100,14833],[100,14917],[100,15000],[100,15083],[100,15167],[100,15250],[100,15333],[100,15416],[100,15500],[100,15583],[100,15666],[100,15750],[100,15832],[100,15917],[100,16000],[100,16083],[100,16167],[100,16249],[100,16333],[100,16417],[100,16500],[100,16583],[100,16667],[100,16750],[100,16833],[100,16917],[100,17000],[100,17083],[100,17167],[100,17250],[100,17333],[100,17417],[100,17500],[100,17583],[100,17667],[100,17750],[100,17832],[100,17917],[100,18000],[100,18083],[100,18167],[100,18250],[100,18333],[100,18417],[100,18500],[100,18583],[100,18667],[100,18750],[59.5,18834],[1.5,22000],[59.4,22084],[99.4,22250],[100,22334],[100,22417],[100,22500],[100,22584],[100,22667],[100,22750],[100,22834],[100,22917],[100,23000],[100,23083],[100,23167],[100,23250],[100,23334],[100,23416],[100,23500],[100,23583],[100,23667],[100,23750],[100,23833],[100,23917],[100,24000],[100,24083],[100,24167],[100,24250],[100,24334],[100,24417],[100,24500],[100,24583],[100,24667],[100,24750],[100,24834],[100,24917],[100,25000],[100,25083],[100,25167],[100,25250],[100,25334],[100,25417],[100,25500],[100,25583],[100,25667],[100,25750],[100,25833],[100,25916],[100,26000],[100,26083],[100,26167],[100,26250],[100,26333],[100,26417],[100,26500]]",1,0,885.1525,887.2857,77.5906033,1.5218,"[{""rating"":77.59060329861111,""responseTime"":1.5218000000119218}]",space,1.5886,,887.2858,Not at all,0,887.2881,,,[],,0,10,10,10,1,audio/Narrative8Situation1.wav,audio/Narrative7Situation1.wav,audio/Narrative6Situation1.wav,audio/Narrative5Situation1.wav,5,2,2,5,,,,,,,,,,,,,,,,,,,,,,,,,,,,,,,,,,,,,,,
,,,,,,5d4ce9a10d550e0015bfb0a2,2024-02-08_12h36.46.363,group3.1-3.2-social-tom,2023.2.2,MacIntel,57.80346821,65c5074098b851296ff0b7ed,65c5110c34fc0bf8535d8cd6,,,,,,,,,,,,,,,,,,,,,,,,,,,,,887.2885,2,audio/Narrative6Situation2.wav,890.3022,,890.3023,918.8192,"[[55.1,583],[52.1,666],[51.7,749],[51.5,832],[51.1,915],[50.7,1000],[50.3,1083],[50,1166],[49.9,1249],[49.9,1332],[49.9,1416],[49.9,1500],[49.9,1583],[49.9,1666],[49.9,1749],[49.9,1833],[49.9,1916],[49.9,1999],[49.9,2083],[49.9,2166],[49.9,2249],[49.9,2333],[49.9,2416],[49.9,2499],[49.9,2583],[49.9,2666],[49.9,2749],[49.9,2833],[49.9,2916],[49.9,2999],[49.9,3083],[49.9,3166],[49.9,3249],[49.9,3332],[49.9,3416],[49.9,3499],[49.9,3583],[49.9,3666],[49.9,3749],[49.9,3833],[49.9,3916],[49.9,3999],[49.9,4083],[49.9,4166],[49.9,4250],[49.9,4333],[49.9,4416],[49.9,4498],[49.9,4583],[49.9,4666],[49.9,4749],[49.9,4833],[49.9,4916],[49.9,5000],[49.9,5083],[49.9,5166],[50,5249],[50,5333],[50,5416],[50,5499],[50,5583],[50,5666],[50,5749],[50,5833],[50,5916],[55.1,6000],[100,6417],[100,6500],[100,6583],[100,6666],[100,6750],[100,6833],[100,6916],[100,6999],[100,7083],[100,7166],[100,7250],[100,7333],[100,7415],[100,7499],[100,7583],[100,7666],[100,7749],[100,7833],[100,7916],[100,7999],[100,8083],[100,8166],[100,8250],[100,8333],[100,8416],[100,8500],[100,8583],[100,8666],[100,8750],[100,8833],[100,8916],[100,9000],[100,9083],[100,9166],[100,9249],[100,9333],[100,9416],[100,9499],[100,9583],[100,9666],[100,9750],[100,9833],[100,9916],[100,9999],[100,10083],[100,10166],[100,10250],[100,10333],[100,10416],[100,10500],[100,10583],[100,10666],[100,10749],[100,10833],[100,10916],[100,10999],[100,11083],[100,11166],[100,11250],[100,11333],[100,11416],[100,11499],[100,11583],[100,11666],[100,11749],[100,11833],[100,11916],[100,11999],[100,12083],[100,12166],[100,12250],[100,12333],[100,12416],[100,12500],[100,12582],[100,12666],[100,12750],[100,12833],[100,12916],[100,13000],[100,13083],[100,13166],[100,13250],[100,13333],[100,13416],[100,13499],[100,13583],[100,13666],[100,13749],[100,13833],[100,13915],[100,14000],[100,14083],[100,14166],[100,14250],[100,14333],[100,14416],[100,14500],[100,14583],[100,14666],[100,14750],[100,14833],[100,14917],[100,15000],[100,15083],[100,15165],[100,15249],[100,15333],[100,15416],[100,15500],[100,15582],[100,15666],[100,15750],[100,15833],[100,15915],[100,16000],[100,16083],[100,16167],[100,16250],[100,16333],[100,16416],[100,16500],[100,16583],[100,16667],[100,16749],[100,16833],[100,16916],[100,17000],[100,17083],[100,17166],[100,17249],[100,17333],[100,17416],[100,17499],[100,17583],[100,17666],[100,17750],[100,17833],[100,17917],[100,18000],[100,18083],[100,18167],[100,18249],[100,18333],[100,18415],[100,18500],[100,18583],[100,18667],[100,18749],[100,18833],[100,18916],[100,19000],[100,19082],[100,19167],[100,19250],[100,19333],[100,19416],[100,19499],[100,19583],[100,19665],[100,19750],[100,19833],[100,19916],[100,20000],[100,20083],[100,20167],[100,20249],[100,20333],[100,20416],[100,20500],[100,20583],[100,20667],[100,20750],[100,20833],[100,20915],[100,21000],[100,21083],[100,21167],[100,21249],[100,21332],[100,21417],[100,21499],[100,21582],[100,21667],[100,21749],[100,21832],[100,21917],[100,22000],[100,22083],[100,22166],[100,22249],[100,22333],[100,22417],[100,22499],[100,22583],[100,22667],[100,22750],[100,22833],[100,22917],[100,23000],[100,23083],[100,23167],[100,23250],[100,23332],[100,23416],[100,23500],[100,23583],[100,23666],[100,23749],[100,23833],[100,23916],[100,23999],[100,24082],[100,24166],[100,24249],[100,24333],[100,24416],[100,24500],[100,24583],[100,24666],[100,24750],[100,24833],[100,24917],[100,24999],[100,25083],[100,25167],[100,25250],[100,25333],[100,25417],[100,25500],[100,25582],[100,25667],[100,25750],[100,25833],[100,25917],[100,26000],[100,26083],[100,26167],[100,26249],[100,26332],[100,26417],[100,26500],[100,26583],[100,26667],[100,26750],[100,26833],[100,26917],[100,27000],[100,27083],[100,27166],[100,27249],[100,27333],[100,27417],[100,27500],[100,27582],[100,27667],[100,27749],[100,27833],[100,27917],[100,28000],[100,28084],[100,28166],[100,28249],[100,28333],[100,28417],[99.9,28500]]",1,0,918.8194,920.6031,100,1.4803,"[{""rating"":99.86653645833333,""responseTime"":0.5813000000118791},{""rating"":100,""responseTime"":1.48030000001188}]",space,1.2363,,920.6033,Partially,50,920.6072,,,[],,0,11,11,11,1,audio/Narrative8Situation2.wav,audio/Narrative7Situation2.wav,audio/Narrative6Situation2.wav,audio/Narrative5Situation2.wav,3,3,3,3,,,,,,,,,,,,,,,,,,,,,,,,,,,,,,,,,,,,,,,
,,,,,,5d4ce9a10d550e0015bfb0a2,2024-02-08_12h36.46.363,group3.1-3.2-social-tom,2023.2.2,MacIntel,57.80346821,65c5074098b851296ff0b7ed,65c5110c34fc0bf8535d8cd6,,,,,,,,,,,,,,,,,,,,,,,,,,,,,920.6075,2,audio/Narrative6Situation3.wav,925.6192,,925.6194,938.237,"[[98.1,1001],[71.2,1083],[68.2,1166],[68.2,1249],[64.9,1334],[50.5,1417],[47.8,1499],[48.9,1583],[49.3,1666],[49.4,1750],[49.9,1832],[49.9,1917],[49.9,2000],[49.7,2084],[49.5,2166],[49.4,2250],[48.7,2334],[48.6,2417],[48.6,2500],[48.6,2585],[48.6,2667],[48.7,2750],[49,2834],[49.1,2918],[49.2,3000],[49.2,3083],[49.2,3165],[49.2,3250],[49.2,3333],[49.3,3417],[49.4,3500],[49.4,3583],[49.5,3667],[49.5,3750],[49.5,3832],[49.5,3916],[49.5,3999],[49.5,4083],[49.5,4167],[49.5,4250],[49.5,4333],[49.5,4417],[49.5,4500],[49.5,4582],[49.5,4666],[49.5,4750],[49.5,4832],[49.5,4916],[49.5,5000],[49.5,5082],[49.5,5167],[49.5,5249],[49.5,5334],[49.5,5416],[49.5,5499],[49.5,5582],[49.5,5667],[49.5,5750],[49.5,5833],[49.5,5917],[49.5,6000],[49.5,6082],[47.9,6167],[22.8,6249],[13.2,6333],[13.2,6416],[13.2,6500],[13.2,6583],[63.2,6667],[100,6750],[100,6834],[100,6917],[100,7000],[100,7083],[100,7166],[100,7250],[100,7333],[100,7416],[100,7500],[100,7582],[100,7667],[100,7750],[100,7833],[100,7916],[100,8000],[100,8084],[100,8167],[100,8250],[100,8334],[100,8417],[100,8499],[100,8582],[100,8666],[100,8749],[100,8833],[100,8916],[100,8999],[100,9083],[100,9167],[100,9250],[100,9332],[100,9416],[100,9501],[100,9583],[100,9667],[100,9749],[100,9834],[100,9917],[100,10000],[100,10082],[100,10167],[100,10250],[100,10332],[100,10417],[100,10499],[100,10583],[100,10667],[100,10750],[100,10833],[100,10917],[100,11000],[100,11082],[100,11167],[100,11249],[100,11332],[100,11416],[100,11500],[100,11583],[100,11667],[100,11750],[100,11833],[100,11917],[100,11999],[100,12083],[100,12167],[100,12250],[100,12333],[100,12417],[100,12499],[100,12582]]",1,0,938.2372,940.0536,100,1.57,"[{""rating"":100,""responseTime"":1.5699999999999363}]",space,1.2831,,940.0536,Not at all,0,940.0574,,,[],,0,12,12,12,1,audio/Narrative8Situation3.wav,audio/Narrative7Situation3.wav,audio/Narrative6Situation3.wav,audio/Narrative5Situation3.wav,4,8,5,3,,,,,,,,,,,,,,,,,,,,,,,,,,,,,,,,,,,,,,,
,,,,,,5d4ce9a10d550e0015bfb0a2,2024-02-08_12h36.46.363,group3.1-3.2-social-tom,2023.2.2,MacIntel,57.80346821,65c5074098b851296ff0b7ed,65c5110c34fc0bf8535d8cd6,,,,,,,,,,,,,,,,,,,,,,,,,,,,,940.0576,2,audio/Narrative6Situation4.wav,942.0701,,942.0702,954.6866,"[[100,749],[94.8,832],[92.6,916],[92.6,999],[92.6,1082],[92.6,1166],[92.6,1249],[86.3,1333],[60.3,1416],[52.2,1500],[52.2,1582],[52.2,1666],[52.2,1750],[50.5,1832],[48.4,1916],[47.8,1999],[47.1,2082],[47.2,2166],[47.4,2249],[47.4,2332],[47.4,2416],[47.5,2500],[49,2582],[49.7,2666],[49.7,2749],[49.7,2832],[34.4,2917],[17.3,3000],[13.5,3082],[8.8,3166],[4.4,3250],[2.7,3333],[1.7,3416],[0.7,3499],[0.7,3582],[0.7,3665],[0.7,3750],[0.7,3832],[0.7,3916],[0.7,3999],[0.7,4082],[0.7,4166],[0.7,4249],[0.7,4333],[0,12166],[0.2,12250],[0.2,12333],[0.2,12417],[2.3,12499]]",1,0,954.6867,957.8695,12.41644965,2.7467,"[{""rating"":12.416449652777779,""responseTime"":2.7466999999880954}]",space,2.6516,,957.8696,Partially,50,961.4373,50.4155816,3.0632,"[{""rating"":50.41558159722223,""responseTime"":3.0632000000476864}]",space,0,13,13,13,1,audio/Narrative8Situation4.wav,audio/Narrative7Situation4.wav,audio/Narrative6Situation4.wav,audio/Narrative5Situation4.wav,3,3,2,1,,,3.0346,,,,,,,,,,,,,,,,,,,,,,,,,,,,,,,,,,,,
,,,,,,5d4ce9a10d550e0015bfb0a2,2024-02-08_12h36.46.363,group3.1-3.2-social-tom,2023.2.2,MacIntel,57.80346821,65c5074098b851296ff0b7ed,65c5110c34fc0bf8535d8cd6,,,,,,,,,,,,,,,,,,,,,,,,,,,,,961.4378,2,audio/Narrative6Situation5.wav,963.4539,,963.454,971.4211,"[[51.5,4250],[45.3,4333],[31.3,4666],[25.5,4749],[18.7,4832],[16.9,4916],[14.2,5000],[13.1,5083],[13.1,5165],[13.1,5250],[12.9,5333],[7.6,5415],[4.5,5500],[4.4,5582],[4.4,5666],[3.2,5749],[2.6,5832],[2.7,5916],[27,5999],[42.5,6083],[50.9,6583],[50.7,6666],[50.5,6749],[50.5,6833],[50.2,6916],[49.8,6998],[49.7,7083],[49.7,7166],[49.7,7250],[49.7,7333],[49.7,7416],[49.7,7500],[49.7,7583],[49.7,7665],[49.7,7749],[49.7,7832],[49.7,7915]]",1,0,971.4212,1007.0542,49.38856337,35.1814,"[{""rating"":49.38856336805556,""responseTime"":35.18140000003575}]",space,35.0955,,1007.0543,Partially,50,1007.0567,,,[],,0,14,14,14,1,audio/Narrative8Situation5.wav,audio/Narrative7Situation5.wav,audio/Narrative6Situation5.wav,audio/Narrative5Situation5.wav,2,5,2,5,,,,,,,,,,,,,,,,,,,,,,,,,,,,,,,,,,,,,,,
,,,,,,5d4ce9a10d550e0015bfb0a2,2024-02-08_12h36.46.363,group3.1-3.2-social-tom,2023.2.2,MacIntel,57.80346821,65c5074098b851296ff0b7ed,65c5110c34fc0bf8535d8cd6,,,,,,,,,,,,,,,,,,,,,,,,,,,,,1007.0571,2,audio/Narrative6Situation6.wav,1009.0718,,1009.0718,1020.1555,[],1,0,1020.1556,1024.5054,0,4.1195,"[{""rating"":0,""responseTime"":4.119500000000016}]",space,3.8275,,1024.5055,Definitely yes,100,1024.5088,,,[],,0,15,15,15,1,audio/Narrative8Situation6.wav,audio/Narrative7Situation6.wav,audio/Narrative6Situation6.wav,audio/Narrative5Situation6.wav,2,3,2,3,,,,,,,,,,,,,,,,,,,,,,,,,,,,,,,,,,,,,,,
,,,,,,5d4ce9a10d550e0015bfb0a2,2024-02-08_12h36.46.363,group3.1-3.2-social-tom,2023.2.2,MacIntel,57.80346821,65c5074098b851296ff0b7ed,65c5110c34fc0bf8535d8cd6,,,,,,,,,,,,,,,,,,,,,,,,,,,,,1024.5091,2,audio/Narrative6Situation7.wav,1029.5225,,1029.5226,1054.3901,"[[12.1,1832],[3.5,1915],[22.3,6582],[82.1,6666],[100,6749],[100,6832],[100,6915],[100,6999],[100,7082],[100,7166],[100,7249],[100,7332],[100,7416],[100,7499],[100,7583],[100,7665],[100,7749],[100,7832],[100,7916],[100,7999],[100,8083],[100,8166],[100,8249],[100,8332],[100,8415],[100,8499],[100,8583],[100,8666],[100,8749],[100,8832],[100,8916],[100,8999],[100,9083],[100,9166],[100,9250],[100,9333],[100,9416],[100,9499],[100,9583],[100,9666],[100,9749],[100,9832],[100,9915],[100,9999],[100,10083],[100,10166],[100,10249],[100,10333],[100,10416],[100,10499],[100,10582],[100,10666],[100,10749],[100,10833],[100,10916],[100,10999],[100,11083],[100,11166],[100,11249],[100,11333],[100,11416],[100,11499],[100,11583],[100,11666],[100,11749],[100,11833],[100,11916],[100,11999],[100,12083],[100,12166],[100,12250],[100,12333],[100,12416],[100,12499],[100,12583],[100,12665],[100,12749],[100,12833],[100,12916],[100,12999],[100,13083],[100,13166],[100,13249],[100,13333],[100,13416],[100,13499],[100,13583],[100,13666],[100,13749],[100,13832],[100,13916],[100,13999],[100,14082],[100,14166],[100,14249],[100,14332],[100,14416],[100,14500],[100,14583],[100,14666],[100,14749],[100,14833],[100,14916],[100,15000],[100,15083],[100,15166],[100,15250],[100,15333],[100,15416],[100,15499],[100,15583],[100,15666],[100,15750],[100,15833],[100,15916],[100,15999],[100,16083],[100,16166],[100,16249],[100,16333],[100,16416],[100,16499],[100,16583],[100,16666],[100,16750],[100,16833],[100,16916],[100,17000],[100,17083],[100,17166],[100,17250],[100,17333],[100,17415],[100,17500],[100,17582],[100,17666],[100,17750],[100,17833],[100,17915],[100,17999],[100,18083],[100,18166],[100,18250],[100,18333],[100,18416],[100,18500],[100,18583],[100,18665],[100,18750],[100,18833],[100,18916],[100,19000],[100,19083],[100,19166],[100,19250],[100,19333],[100,19416],[100,19499],[100,19583],[100,19666],[100,19750],[100,19833],[100,19915],[100,19999],[100,20083],[100,20165],[100,20250],[100,20332],[100,20416],[100,20499],[100,20583],[100,20666],[100,20749],[100,20833],[100,20916],[100,21000],[100,21083],[100,21166],[100,21250],[100,21333],[100,21416],[100,21500],[100,21583],[100,21666],[100,21750],[100,21833],[100,21916],[100,22000],[100,22082],[100,22166],[100,22250],[100,22333],[100,22416],[100,22500],[100,22583],[100,22666],[100,22750],[100,22834],[100,22916],[100,23000],[100,23083],[100,23166],[100,23250],[100,23333],[100,23416],[100,23500],[100,23583],[100,23666],[100,23749],[100,23833],[100,23916],[100,24000],[100,24083],[100,24166],[100,24250],[100,24333],[100,24416],[100,24499],[100,24583],[100,24666],[100,24750],[100,24833]]",1,0,1054.3903,1056.3397,87.5016276,1.0379,"[{""rating"":87.50162760416667,""responseTime"":1.037900000035961}]",space,1.4255,,1056.3397,Not at all,0,1056.3445,,,[],,0,16,16,16,1,audio/Narrative8Situation7.wav,audio/Narrative7Situation7.wav,audio/Narrative6Situation7.wav,audio/Narrative5Situation7.wav,3,5,5,4,,,,,,,,,,,,,,,,,,,,,,,,,,,,,,,,,,,,,,,
,,,,,,5d4ce9a10d550e0015bfb0a2,2024-02-08_12h36.46.363,group3.1-3.2-social-tom,2023.2.2,MacIntel,57.80346821,65c5074098b851296ff0b7ed,65c5110c34fc0bf8535d8cd6,,,,,,,,,,,,,,,,,,,,,,,,,,,,,1056.3448,2,audio/Narrative6Situation8.wav,1061.3564,,1061.3565,1068.2234,"[[79.3,2250],[55.1,2333],[53.9,2416],[53.9,2499],[53.9,2583],[52.7,2666],[52.3,2749],[52.2,2833],[52,2916],[51.6,3000],[51,3083],[50.9,3166],[50,3249],[49.8,3332],[49.8,3416],[49.8,3499],[49.9,3583],[50.1,3666],[50.1,3749],[50.1,3832],[50.1,3916],[50.1,3999],[50.1,4083],[50.1,4166],[50.1,4249],[50.1,4333],[50.1,4416],[50.1,4499],[50.1,4582],[50.1,4666],[50.1,4749],[50.1,4833],[50.1,4916],[50.1,4999],[50.1,5083],[50.1,5166],[50.1,5249],[50.1,5333],[50.1,5416],[50.1,5499],[50.1,5583],[50.1,5666],[50.1,5749],[50.1,5833],[50.1,5916],[50.1,5999],[50.1,6083],[50.1,6166],[50.1,6249],[50.1,6333],[50.1,6415],[50.1,6499],[50.1,6583],[50.1,6666],[50.1,6749],[50.1,6833]]",1,0,1068.2237,1161.0921,24.01855469,6.9302,"[{""rating"":24.0185546875,""responseTime"":6.930200000047535}]",space,92.3242,,1161.0922,Not at all,0,1161.1056,,,[],,0,17,17,17,1,audio/Narrative8Situation8.wav,audio/Narrative7Situation8.wav,audio/Narrative6Situation8.wav,audio/Narrative5Situation8.wav,3,2,5,3,,,,,,,,,,,,,,,,,,,,,,,,,,,,,,,,,,,,,,,
,,,,,,5d4ce9a10d550e0015bfb0a2,2024-02-08_12h36.46.363,group3.1-3.2-social-tom,2023.2.2,MacIntel,57.80346821,65c5074098b851296ff0b7ed,65c5110c34fc0bf8535d8cd6,,,,,,,,,,,,,,,,,,,,,,,,,,,,,1161.1058,2,audio/Narrative6Situation9.wav,1165.1079,,1165.108,1175.0418,"[[999,11],[999,82],[999,167],[999,250],[999,333],[999,417],[999,500],[999,583],[999,667],[999,750],[999,834],[31.8,917],[31.9,1000],[32,1083],[32,1166],[32,1250],[32,1333],[32,1417],[32,1500],[32,1583],[32,1666],[32,1749],[32,1834],[32,1916],[32,2000],[32,2084],[32,2166],[32,2249],[32,2334],[32,2417],[32,2499],[32,2583],[27,2667],[16.4,2750]]",1,0,1175.0419,1177.1758,0,1.671,"[{""rating"":0,""responseTime"":1.6710000000000491}]",space,1.6018,,1177.1759,Not at all,0,1177.178,,,[],,0,18,18,18,1,audio/Narrative8Situation9.wav,audio/Narrative7Situation9.wav,audio/Narrative6Situation9.wav,audio/Narrative5Situation9.wav,3,2,4,3,,,,,,,,,,,,,,,,,,,,,,,,,,,,,,,,,,,,,,,
,,,,,,5d4ce9a10d550e0015bfb0a2,2024-02-08_12h36.46.363,group3.1-3.2-social-tom,2023.2.2,MacIntel,57.80346821,65c5074098b851296ff0b7ed,65c5110c34fc0bf8535d8cd6,,,,,,,,,,,,,,,,,,,,,,,,,,,,,,,,,,,,,,,,,,,,,,,,,,,,,,,,,,,,,,,,,,,,,,,,1177.1784,1182.3594,space,4.6502,,1182.3601,1192.9938,space,10.3109,,,,,,,,,,,,,,,,,,,,,,,,,,
,,,,,,5d4ce9a10d550e0015bfb0a2,2024-02-08_12h36.46.363,group3.1-3.2-social-tom,2023.2.2,MacIntel,57.80346821,65c5074098b851296ff0b7ed,65c5110c34fc0bf8535d8cd6,,,,,,,,,,,,,,,,,,,,,,,,,,,,,1195.5892,1,audio/Narrative8Situation9.wav,1197.593,,,,,,,1229.4575,1237.5603,15.06944444,7.5509,"[{""rating"":15.069444444444446,""responseTime"":7.550899999976309}]",space,7.5695,,1229.4441,Partially,50,1229.4575,,,[],,,,,,,,,,,2,2,2,2,,,,,,,,,,,,,,,1193.0035,1195.5765,1197.5936,3,1229.444,"[[3.9,4665],[20.4,4749],[22.9,4832],[22.9,4916],[22.9,4999],[27.3,5082],[15.4,5166],[2,5249],[1.4,5332],[1,5416],[1,5498],[1.1,5583],[1.1,5665],[0.9,5749],[0,5832],[0.1,25333],[4.4,25416],[13.4,25499],[14.8,25583],[16.5,25666],[18.1,25749],[20.6,25832],[21.4,25915],[21.4,26000],[22,26083],[22.9,26167],[22.9,26249],[22.9,26333],[23.2,26417],[23.7,26499],[23.7,26583],[23.7,26665],[23.7,26749],[23.7,26832],[23.7,26916],[23.7,26999],[23.7,27083],[23.7,27166],[23.7,27249],[23.7,27333],[23.7,27416],[23.7,27499],[23.7,27583],[23.7,27666],[23.7,27749],[23.7,27833],[23.7,27916],[23.7,27999],[23.7,28083],[23.7,28166],[23.7,28249],[23.7,28333],[23.7,28416],[23.7,28500],[23.7,28582],[23.7,28666],[23.7,28749],[23.7,28833],[23.7,28916],[23.7,28999],[23.7,29083],[23.7,29166],[23.7,29249],[23.7,29333],[23.7,29416],[23.7,29499],[23.7,29583],[23.7,29665],[23.7,29749],[23.7,29833],[23.7,29916],[23.7,29999],[23.7,30083],[23.7,30166],[23.7,30249],[23.7,30333],[23.7,30416],[23.7,30499],[23.7,30583],[23.7,30666],[23.7,30749],[23.7,30833],[23.7,30916],[23.7,30999],[23.7,31083],[23.7,31166],[23.7,31250],[23.7,31332],[23.7,31416],[23.7,31499],[23.7,31583],[23.7,31666],[23.7,31749],[23.7,31833]]",0,0,0,0,1,"Larry had recently lost his family, job and home, and was now living on his own in the park. He had most of his belongings, including some clothes, a blanket, and his mother’s special necklace. His family had been very important to him and he felt as though he did not have much going for him. One of his first days in the park he came across a family that did not have much food and looked very cold. He decided to give them some of his food and his blanket.","Larry had recently lost his family, job and home, and was now living on his own in the park. He had most of his belongings, including some clothes, a blanket, and his mother’s special necklace. His family had been very important to him and he felt as though he did not have much going for him. One of his first days in the park he came across a family that did not have much food and looked very cold. He decided to give them some of his food and his blanket.","Larry had recently lost his family, job and home, and was now living on his own in the park. He had most of his belongings, including some clothes, a blanket, and his mother’s special necklace. His family had been very important to him and he felt as though he did not have much going for him. One of his first days in the park he came across a family that did not have much food and looked very cold. He decided to give them some of his food and his blanket.","Larry had recently lost his family, job and home, and was now living on his own in the park. He had most of his belongings, including some clothes, a blanket, and his mother’s special necklace. His family had been very important to him and he felt as though he did not have much going for him. One of his first days in the park he came across a family that did not have much food and looked very cold. He decided to give them some of his food and his blanket.",,,,,,,,,,
,,,,,,5d4ce9a10d550e0015bfb0a2,2024-02-08_12h36.46.363,group3.1-3.2-social-tom,2023.2.2,MacIntel,57.80346821,65c5074098b851296ff0b7ed,65c5110c34fc0bf8535d8cd6,,,,,,,,,,,,,,,,,,,,,,,,,,,,,1237.5616,1,audio/Narrative8Situation9.wav,1240.2106,space,,,,,,1273.7418,1276.2281,8.821614583,1.817,"[{""rating"":8.821614583333332,""responseTime"":1.8170000000000073}]",space,1.9518,,1273.7284,Partially,50,1273.7418,,,[],,,,,,,,,,,6,2,3,9,2.6264,,,,,,,,,,,,,,,,1240.2106,3,1273.7283,"[[16.3,4583],[15.3,4666],[14.8,4750],[14.6,4833],[14.6,4916],[14.6,4999],[14.6,5083],[13.6,5166],[4.9,5250],[2.9,5333],[2.5,5416],[2,5500],[1.5,5583],[0.9,5666],[0.7,5749],[0.7,5833],[0.6,5916],[0.3,6000],[0.2,6083],[0,6167],[31.9,13166],[99.9,13665],[95.9,13750],[96.5,13833],[97.4,13916],[98.2,14000],[98.6,14083],[99.8,14167],[100,14250],[100,14333],[100,14416],[100,14500],[100,14583],[100,14666],[100,14750],[100,14833],[100,14916],[100,14999],[100,15083],[100,15166],[100,15250],[100,15332],[100,15416],[100,15500],[100,15583],[100,15666],[100,15750],[100,15833],[100,15916],[100,16000],[100,16082],[100,16166],[100,16250],[100,16332],[100,16417],[100,16500],[100,16583],[100,16666],[100,16750],[100,16833],[100,16916],[100,17000],[100,17083],[100,17166],[100,17250],[100,17333],[100,17415],[100,17500],[100,17583],[100,17666],[100,17750],[100,17832],[100,17916],[100,18000],[100,18083],[100,18166],[100,18250],[100,18333],[100,18416],[100,18500],[100,18583],[100,18666],[100,18750],[100,18833],[100,18916],[100,19000],[100,19082],[100,19166],[100,19250],[100,19333],[100,19416],[100,19500],[100,19583],[100,19667],[100,19750],[100,19833],[100,19916],[100,20000],[100,20083],[100,20166],[100,20250],[100,20333],[100,20416],[100,20500],[100,20583],[100,20666],[100,20750],[100,20833],[100,20916],[100,21000],[100,21083],[100,21166],[100,21250],[100,21332],[100,21416],[100,21500],[100,21583],[100,21666],[100,21750],[100,21832],[100,21916],[100,22000],[100,22083],[100,22166],[100,22250],[100,22333],[100,22416],[100,22500],[100,22583],[100,22666],[100,22750],[100,22832],[100,22916],[100,23000],[100,23083],[100,23165],[100,23249],[100,23333],[100,23416],[100,23500],[100,23583],[100,23666],[100,23749],[100,23833],[86.2,23916],[55.8,24000],[42.1,24084],[32,24166],[15.7,24250],[5.4,24333],[0.1,24416]]",0,1,1,1,1,"It was just another Sunday afternoon for Lucy, she was on her way to the farmer's market to pick up some produce. When she arrived at the old train depot that housed the market, she noticed two men fighting on the steps. Before she could call for help, one of the men crumpled to his knees. The other man dropped an object that appeared to be a knife and ran off. When Lucy approached the crime scene she realized that the man who had been murdered was the Mayor and that he had a gunshot wound.","One day at work, Margaret walked up to her partner, Al, to ask him to talk to the chief of staff at the local hospital where she worked as a nurse.","Luke always thought of himself as an honest man. That's why during his evening jog around the swamp, he pondered his recent affair with the receptionist at work. Luke looked up at the sky and asked God why he was so weak and unfaithful. He thought of the impact this would have on his family and told God of his conflicted feelings toward telling his wife Marta.","Linda and Amy had been best friends since kindergarten, they even found homes on the same street in the forest on the edge of town. Their biggest fight had been over who gets the bigger slice of cake, until Amy married Dan. Linda loathed Dan, she thought he was manipulative and had a violent temper. She only put up with him because Amy loved him. ",,,,,,,,,,
,,,,,,5d4ce9a10d550e0015bfb0a2,2024-02-08_12h36.46.363,group3.1-3.2-social-tom,2023.2.2,MacIntel,57.80346821,65c5074098b851296ff0b7ed,65c5110c34fc0bf8535d8cd6,,,,,,,,,,,,,,,,,,,,,,,,,,,,,1276.2288,1,audio/Narrative8Situation9.wav,1280.2443,,,,,,,1298.765,1301.7953,0,2.5112,"[{""rating"":25.38845486111111,""responseTime"":0.9945000000000164},{""rating"":0,""responseTime"":2.5111999999880936}]",space,2.4859,,1298.762,Definitely yes,100,1298.7649,,,[],,,,,,,,,,,4,5,2,2,,,,,,,,,,,,,,,,,1280.2443,3,1298.7618,"[[41.6,1000],[22.8,1083],[19.9,1166],[19.9,1250],[19.9,1333],[19.9,1416],[20.8,1500],[20.8,1583],[20.5,1667],[20.5,1750],[20.5,1833],[20.4,1917],[19.7,2000],[19.5,2082],[19.5,2166],[20.6,2250],[20.7,2333],[20.7,2416],[18.4,2499],[11,2583],[8.7,2666],[7.7,2750],[5.6,2833],[2.1,2917],[1,3000],[0.2,3083],[22.1,14750],[38.4,14834],[38.9,14917],[38.9,15000],[38.9,15083],[41.4,15167],[41.6,15250],[41.6,15333],[41.6,15417],[42.9,15501],[44.3,15584],[44.6,15667],[44.6,15750],[44.6,15833],[49,15917],[78.2,16000],[89.6,16084],[89,16167],[89.7,16250],[92.1,16334],[92.3,16417],[92.3,16500],[92.3,16584],[92.3,16667],[92.3,16750],[92.3,16833],[92.3,16917],[93.1,17000],[84.8,17083],[49.7,17167],[48,17250],[48.9,17334],[50.2,17417],[50.4,17500],[50.4,17584],[50.4,17667],[50.4,17750],[50.4,17834],[50.4,17917],[50.4,18000],[50.4,18084],[50.4,18167],[50.4,18250],[50.4,18333],[50.4,18417],[50.4,18500]]",0,2,2,2,1,On the ground beside him was a pen that she had mistaken for a knife. Lucy looked for the gunman and saw a suspicious man in black with distinct pointy features darting into an alley across the street. Cops who were nearby chased the man who had fled and arrested him.,"While waiting outside the chief of staff's office, Al heard nondescript shouting and yelling, there was a loud clatter in the room and then an eerie silence. An unfamiliar employee ran hastily out of the office with a terrified look on their face.","Suddenly, Luke heard a woman call out his name and when he turned around he saw Carly, his receptionist, across the road with a gun in her hand. Carly ran to him and explained how she had followed him here to confess her love. She exclaimed if Luke didn't love her back that she would kill him and his family. Carly explained that the only way they could be together is to kill Marta.","This feeling of hate between Amy and Dan was mutual, Dan didn't like how much time his wife spent with her and thought Amy was creating distance between their marriage. That's why Dan decided to try and tarnish Linda's reputation with his wife, in hopes it would get rid of her. He came home one afternoon and exclaimed that Linda had tried to kiss him. Amy was taken aback and immediately called Linda to confront her about these accusations. When Linda arrived she denied having made a move on Dan, but discovered Dan had enlisted the help of his friend Will who said he witnessed it all happen.",,,,,,,,,,
,,,,,,5d4ce9a10d550e0015bfb0a2,2024-02-08_12h36.46.363,group3.1-3.2-social-tom,2023.2.2,MacIntel,57.80346821,65c5074098b851296ff0b7ed,65c5110c34fc0bf8535d8cd6,,,,,,,,,,,,,,,,,,,,,,,,,,,,,1301.7958,1,audio/Narrative8Situation9.wav,1303.8119,,,,,,,1315.6757,1317.229,0,1.1011,"[{""rating"":0,""responseTime"":1.1011000000237345}]",space,1.0183,,1315.6626,Definitely yes,100,1315.6757,,,[],,,,,,,,,,,2,2,1,4,,,,,,,,,,,,,,,,,1303.8119,3,1315.6625,"[[41.7,833],[31.5,916],[30.4,999],[30.4,1083],[30.4,1166],[30.4,1250],[22.8,1333],[11.8,1416],[7.4,1499],[4.8,1583],[3,1666],[2.1,1750],[1.2,1833],[0.9,1915],[0.8,2000],[0.7,2083],[0.7,2165],[0.7,2249],[0.7,2333],[0.7,2416],[0.7,2500],[0.7,2583],[0.7,2666],[0.7,2750],[0.7,2833],[0.7,2916],[0.7,3000],[0.7,3083],[0.7,3166],[0.7,3250],[0.7,3333],[0.7,3416],[0.5,3500],[0.4,3582],[0.4,3665],[0.4,3750],[0.4,3833],[0.4,3916],[0.4,4000],[0.4,4083],[0.4,4166],[0.4,4249],[0.4,4333],[0.4,4416],[0.4,4500],[0.4,4583],[0.4,4665],[0.4,4750],[0.4,4833],[0.4,4916],[0.4,5000],[0.4,5083],[0.4,5166],[0.4,5250],[0.4,5333],[0.4,5416],[0.4,5500],[0.4,5583],[0.4,5666],[0.4,5750],[0.4,5833],[0.4,5916],[0.4,6000],[0.4,6083],[0.4,6165],[0.4,6250],[0.4,6333],[0.4,6416],[0.4,6500],[0.4,6583],[0.4,6666],[0.4,6750],[0.4,6833],[0.4,6916],[0.4,7000],[0.4,7083],[0.4,7165],[0.4,7250],[0.4,7332],[0.4,7416],[0.4,7500],[0.4,7583],[0.4,7666],[0.4,7750],[0.4,7833],[0.4,7916],[0.4,8000],[0.4,8083],[0.4,8166],[0.4,8250],[0.4,8333],[0.4,8416],[0.4,8500],[0.4,8583],[0.4,8666],[0.4,8750],[0.4,8833],[0.4,8916],[0.4,9000],[0.4,9083],[0.4,9166],[0.4,9250],[0.4,9333],[0.4,9416],[0.4,9500],[0.4,9583],[0.4,9666],[0.4,9750],[0.4,9833],[0.4,9916],[0.4,9999],[0.4,10083],[0.4,10166],[0.4,10250],[0.4,10333],[0.4,10416],[0.4,10500],[0.4,10583],[0.4,10666],[0.4,10751],[0.4,10833],[0.4,10916],[0.4,11000],[0.4,11083],[0.4,11166],[0.4,11250],[0.4,11333],[0.4,11416],[0.4,11500],[0.4,11583],[0.4,11666],[0.4,11750],[0.4,11833]]",0,3,3,3,1,"But Lucy knew the charged man was innocent, which meant the killer was free. Lucy vowed to find out who the real murderer was and to stop him at all costs.","Al explained to the chief of staff that Margaret wanted to be excused from her absences last week. The chief of staff, Susan, revealed that she wanted to fire Margaret and never see her again. Susan and Al had been having an affair and she wanted Margaret ""out of the picture"". Al was conflicted, but agreed it would be for the best.","Luke thought of his child and felt like this was his only option. He agreed to the plan and called his wife to meet him at the swamp to watch the sunset with him. When she arrived, Marta called out for her husband, but found Carly waiting for her. She immediately drew her gun and shot her in the chest, knocking her unconscious.","Since it was their word against her own, she decided to go home and admit defeat. She knew how much it would hurt Amy to know the truth.",,,,,,,,,,
,,,,,,5d4ce9a10d550e0015bfb0a2,2024-02-08_12h36.46.363,group3.1-3.2-social-tom,2023.2.2,MacIntel,57.80346821,65c5074098b851296ff0b7ed,65c5110c34fc0bf8535d8cd6,,,,,,,,,,,,,,,,,,,,,,,,,,,,,1317.2296,1,audio/Narrative8Situation9.wav,1318.2456,,,,,,,1347.778,1349.6459,0,1.5646,"[{""rating"":0,""responseTime"":1.5646000000238018}]",space,1.3454,,1347.7635,Definitely yes,100,1347.7779,,,[],,,,,,,,,,,1,1,3,3,,,,,,,,,,,,,,,,,1318.2457,3,1347.7634,"[[0.3,333],[0.4,416],[0.3,500]]",0,4,4,4,1,"The next day the mayors successor, Mr. Smith, a man who was very unpopular due to his strong ties to the oil companies, took office. After a long day of brainstorming about the mysterious killer, Lucy decided to attend his welcome ceremony in the city. During the mayor's speech, she noticed one of the security guards looked strangely familiar. It dawned on her that this new mayor had motive to kill and that the man in black could've been the guard working for him.","Weeks passed and nobody had seen Margaret. Coworkers and friends searched the nearby city looking for her. One day on patrol in a nearby town, a police officer heard someone crying for help in the basement of a house and went in to investigate. Margaret yelled that she was being held captive and needed help.","Luke ran to Marta, and filled with regret over his decision to go along with Carly's plan, picked her up and rushed her to the hospital. The doctors tried to help Marta by taking her into emergency surgery but failed to save her life. Once the doctor called the time of death, Luke fell to his knees and sobbed over his rash decision.","Months later Dan had taken up a mistress, he was growing bored with his marriage ever since he got rid of Linda and was only still with Amy for her family's money. In a hotel room in a nearby town, Dan and his mistress, Nicole, conspired to secretly kill Amy while still obtaining her fortune.",,,,,,,,,,
,,,,,,5d4ce9a10d550e0015bfb0a2,2024-02-08_12h36.46.363,group3.1-3.2-social-tom,2023.2.2,MacIntel,57.80346821,65c5074098b851296ff0b7ed,65c5110c34fc0bf8535d8cd6,,,,,,,,,,,,,,,,,,,,,,,,,,,,,1349.6464,1,audio/Narrative8Situation9.wav,1352.663,,,,,,,1369.1941,1372.4301,100,2.8164,"[{""rating"":100,""responseTime"":2.8163999999762837}]",space,2.7134,,1369.1804,Definitely yes,100,1369.1941,,,[],,,,,,,,,,,3,1,3,3,,,,,,,,,,,,,,,,,1352.6632,3,1369.1803,"[[2.2,1083],[2.5,1166],[2.5,1249],[1.3,1333],[13.7,4583],[92.2,5250],[93.5,5333],[96.2,5416],[96.8,5500],[96.8,5583],[98.6,5667],[99.2,5750],[99.2,5832],[99.8,5916],[100,6000],[100,6083],[100,6166],[100,6250],[100,6333],[100,6417],[100,6500],[100,6583],[100,6666],[100,6749],[100,6833],[100,6916],[100,6999],[100,7082],[100,7166],[100,7249],[100,7333],[100,7416],[100,7499],[100,7583],[100,7666],[100,7749],[100,7833],[100,7916],[100,7999],[100,8083],[100,8166],[100,8249],[100,8333],[100,8416],[100,8500],[100,8583],[100,8666],[100,8748],[100,8833],[100,8916],[100,9000],[100,9083],[100,9166],[100,9250],[100,9333],[100,9416],[100,9499],[100,9583],[100,9666],[100,9750],[100,9833],[100,9916],[100,10000],[100,10083],[100,10166],[100,10249],[100,10333],[100,10416],[100,10500],[100,10583],[100,10666],[100,10750],[100,10833],[100,10916],[100,11000],[100,11083],[100,11166],[100,11249],[100,11333],[100,11416],[100,11500],[100,11582],[100,11666],[100,11749],[100,11833],[100,11916],[100,12000],[100,12083],[100,12166],[100,12250],[100,12333],[100,12416],[100,12500],[100,12583],[100,12666],[100,12750],[100,12833],[100,12916],[100,13000],[100,13083],[100,13166],[100,13250],[100,13333],[100,13416],[100,13500],[100,13583],[100,13666],[100,13750],[100,13833],[100,13915],[100,14000],[100,14083],[100,14166],[100,14250],[100,14333],[100,14416],[100,14500],[100,14583],[100,14666],[100,14749],[100,14833],[100,14916],[100,15000],[100,15083],[100,15166],[100,15250],[100,15333],[100,15416],[100,15500],[100,15583],[100,15666],[100,15750],[100,15832],[100,15916],[100,16000],[100,16083],[100,16166],[100,16250],[100,16333],[100,16416],[100,16500]]",0,5,5,5,1,"Lucy decided to confront the mayor after his ceremony. But when she tried to accuse him, the security guards threatened to hurt her if she went to the police with her theory. Before she could say another word a man pulled her from the crowd.","In a rush, the police officer broke down the door and was attacked by a man in the house. Without hesitation, the officer shot the man and the man fell to the floor.","He then saw Marta's brother Zach enter the hospital. Zach ran over to Luke and punched him. Zach screamed at Luke that it's his fault his sister is dead and that he knew about the affair. Luke quickly tried to explain that he felt horrible about Marta's death and that Carly had manipulated him into going along with her plan. Zach, still angry at his brother-in-law, realized his mistake in judgement and shifted his anger toward Carly.","They decided to have Dan invite her to the hotel room under the guise of a romantic date. Once she arrived, Nicole was there to tie her up. Once she was secured to a chair, Nicole demanded Amy's bank passwords. Amy obliged and gave her access to her bank accounts.",,,,,,,,,,
,,,,,,5d4ce9a10d550e0015bfb0a2,2024-02-08_12h36.46.363,group3.1-3.2-social-tom,2023.2.2,MacIntel,57.80346821,65c5074098b851296ff0b7ed,65c5110c34fc0bf8535d8cd6,,,,,,,,,,,,,,,,,,,,,,,,,,,,,1372.4307,1,audio/Narrative8Situation9.wav,1375.4469,,,,,,,1394.8977,1402.2636,73.33007813,6.9478,"[{""rating"":73.330078125,""responseTime"":6.947800000071538}]",space,6.825,,1391.9644,Definitely yes,100,1394.8976,100,2.5003,"[{""rating"":100,""responseTime"":2.5003000000715474}]",space,,,,,,,,,,3,1,1,2,,,2.3831,,,,,,,,,,,,,,1375.447,3,1391.9642,"[[95.4,1166],[70.7,1250],[67.4,1333],[67.7,1416],[67.7,1499],[67.9,1583],[63,1666],[41,1750],[38.2,1833],[38.2,1916],[36.5,1999],[15.6,2083],[8.7,2165],[8.6,2249],[8.6,2333],[6.8,2416],[4.1,2500],[1.5,2583],[1.3,2666],[1,2750],[0.6,2833],[0.6,2916],[0.5,3000],[0.5,3083],[0.5,3166],[0.5,3249],[0.5,3333],[0.5,3416],[0.5,3499],[0.5,3583],[0.5,3666],[0.5,3749],[0.5,3833],[0.5,3916],[0.5,3999],[0.5,4083],[0.5,4166],[0.5,4249],[0.5,4333],[0.5,4416],[0.5,4499],[0.5,4583],[0.5,4666],[0.5,4749],[0.5,4833],[0.5,4916],[0.5,5000],[0.5,5083],[0.5,5166],[0.5,5249],[0.5,5333],[0.5,5416],[0.5,5499],[0.5,5583],[0.5,5666],[0.5,5750],[0.5,5833],[0.5,5916],[0.5,5999],[0.5,6083],[0.5,6166],[0.5,6249],[0.5,6333],[0.5,6416],[0.5,6499],[0.5,6583],[0.5,6666],[0.5,6749],[0.5,6833],[0.5,6916],[0.5,7000],[0.5,7083],[4.9,7166],[53.9,7250],[75.7,7499],[100,7583],[100,7666],[100,7750],[100,7833],[100,7916],[100,7999],[100,8084],[100,8166],[100,8250],[100,8333],[100,8416],[100,8499],[100,8583],[100,8666],[100,8750],[100,8833],[100,8916],[100,8999],[100,9083],[100,9166],[100,9249],[100,9333],[100,9416],[100,9499],[100,9583],[100,9666],[100,9749],[100,9833],[100,9916],[100,9999],[100,10083],[100,10166],[100,10250],[100,10333],[100,10416],[100,10499],[100,10583],[100,10666],[100,10749],[100,10833],[100,10916],[100,11000],[100,11083],[100,11166],[100,11249],[100,11333],[100,11416],[100,11499],[100,11583],[100,11666],[100,11749],[100,11833],[100,11916],[100,11999],[100,12083],[100,12166],[100,12249],[100,12333],[100,12416],[100,12500],[100,12583],[100,12666],[100,12749],[100,12833],[100,12916],[100,12999],[100,13083],[100,13166],[100,13249],[100,13332],[100,13416],[100,13499],[100,13583],[100,13666],[100,13749],[100,13833],[100,13916],[100,13999],[100,14083],[100,14166],[100,14250],[100,14333],[100,14416],[100,14500],[100,14583],[100,14666],[100,14750],[100,14833],[100,14916],[100,15000],[100,15083],[100,15166],[100,15250],[100,15333],[100,15416],[100,15499],[100,15583],[100,15666],[100,15750],[100,15833],[100,15916],[100,16000],[100,16083],[100,16166],[100,16250],[100,16333],[100,16416],[100,16500]]",0,6,6,6,1,"The man in question was another security guard of Mayor Smith's, who took Lucy into a hidden alleyway. His name was Max and he quickly explained that he was a part of the initial plot to kill the former Mayor but he regretted his involvement.","The officer rushed to the basement, untied Margaret, and took her to safety.After being notified of the situation, Al rushed to meet Margaret as to not raise any suspicion. When he arrived, he saw Margaret pointing and yelling at Susan who had been handcuffed and was talking to the police. Shortly after, the police took Susan away in a police car. Al was devastated to see her being taken away, as Margaret sneered with disdain.","After the tension with Zach cooled down, Luke thought of when he should call his son and inform him of his mother's passing. He would be out of school any minute and should hear the news from him. Luke reflected on his decision and realized it was necessary to sacrifice his wife to ensure their child's safety, and that Marta had told him to above all else to protect him.",Nicole transferred all of Amy's money into Dan's bank account despite Amy's pleading for her to stop.,,,,,,,,,,
