exp_question,consent.started,consent.stopped,consentResponse.keys,consentResponse.rt,consentResponse.duration,participantID,date,expName,psychopyVersion,OS,frameRate,STUDY_ID,SESSION_ID,opening1.started,opening1.stopped,keyEndingOpening1.keys,keyEndingOpening1.rt,keyEndingOpening1.duration,volumeAdjust.started,volumeAdjust.stopped,endingAdjust.keys,endingAdjust.rt,endingAdjust.duration,opening2.started,opening2.stopped,keyEndingOpening.keys,keyEndingOpening.rt,keyEndingOpening.duration,mouse.x,mouse.y,mouse.leftButton,mouse.midButton,mouse.rightButton,mouse.time,instructionLoop.thisRepN,instructionLoop.thisTrialN,instructionLoop.thisN,instructionLoop.thisIndex,instructionLoop.ran,readyForAudio.started,readyForAudio.stopped,fixation.started,run,audio_played,fixation.stopped,endPractice.keys,audioPre.started,audioPre.stopped,continuousResponses_audio,continuousSlider.response,continuousSlider.rt,intRating.started,intRating.stopped,intQuestionSlider.response,intQuestionSlider.rt,intQuestionSlider.history,confirmResponse.keys,confirmResponse.rt,confirmResponse.duration,catchQuestion.started,catch_label,catch_value,catchQuestion.stopped,catchQuestionSlider.response,catchQuestionSlider.rt,catchQuestionSlider.history,confirmResponse_2.keys,audioRunLoop.thisRepN,audioRunLoop.thisTrialN,audioRunLoop.thisN,audioRunLoop.thisIndex,audioRunLoop.ran,conditions1_1,conditions2_1,conditions1_2,conditions2_2,dur1_1,dur2_1,dur1_2,dur2_2,endPractice.rt,endPractice.duration,confirmResponse_2.rt,confirmResponse_2.duration,runIntervalBreak.started,runIntervalBreak.stopped,endingBreakKey.keys,endingBreakKey.rt,endingBreakKey.duration,connection.started,connection.stopped,connectionEnding.keys,connectionEnding.rt,connectionEnding.duration,readyForText.started,readyForText.stopped,textPre.started,run_dup,textPre.stopped,continuousResponses_text,textRunLoop.thisRepN,textRunLoop.thisTrialN,textRunLoop.thisN,textRunLoop.thisIndex,textRunLoop.ran,text1_1,text1_2,text2_1,text2_2,runBreakText.started,runBreakText.stopped,endingBreakKey_2.keys,endingBreakKey_2.rt,endingBreakKey_2.duration,ending.started,ending.stopped,endingEnding.keys,endingEnding.rt,endingEnding.duration
tom,0,5.949,y,5.618,,5d75c56a52c89d0017df611c,2024-02-08_16h03.48.147,group3.1-3.2-social-tom,2023.2.2,Win32,60.0240096,65c5074098b851296ff0b7ed,65c5418c7304e12e1ac54dfa,,,,,,,,,,,,,,,,,,,,,,,,,,,,,,,,,,,,,,,,,,,,,,,,,,,,,,,,,,,,,,,,,,,,,,,,,,,,,,,,,,,,,,,,,,,,,,,,,,,,,,,,,,
,,,,,,5d75c56a52c89d0017df611c,2024-02-08_16h03.48.147,group3.1-3.2-social-tom,2023.2.2,Win32,60.0240096,65c5074098b851296ff0b7ed,65c5418c7304e12e1ac54dfa,5.949,17.148,space,11.17,,,,,,,,,,,,,,,,,,,,,,,,,,,,,,,,,,,,,,,,,,,,,,,,,,,,,,,,,,,,,,,,,,,,,,,,,,,,,,,,,,,,,,,,,,,,,,,,,,,,,,
,,,,,,5d75c56a52c89d0017df611c,2024-02-08_16h03.48.147,group3.1-3.2-social-tom,2023.2.2,Win32,60.0240096,65c5074098b851296ff0b7ed,65c5418c7304e12e1ac54dfa,,,,,,17.148,39.15,space,21.683,,,,,,,,,,,,,,,,,,,,,,,,,,,,,,,,,,,,,,,,,,,,,,,,,,,,,,,,,,,,,,,,,,,,,,,,,,,,,,,,,,,,,,,,,,,,,,,,,
,,,,,,5d75c56a52c89d0017df611c,2024-02-08_16h03.48.147,group3.1-3.2-social-tom,2023.2.2,Win32,60.0240096,65c5074098b851296ff0b7ed,65c5418c7304e12e1ac54dfa,,,,,,,,,,,39.159,55.246,space,16.063,,[],[],[],[],[],[],0,0,0,0,1,,,,,,,,,,,,,,,,,,,,,,,,,,,,,,,,,,,,,,,,,,,,,,,,,,,,,,,,,,,,,,,,,,,,,,,,,,,,,,,,
,,,,,,5d75c56a52c89d0017df611c,2024-02-08_16h03.48.147,group3.1-3.2-social-tom,2023.2.2,Win32,60.0240096,65c5074098b851296ff0b7ed,65c5418c7304e12e1ac54dfa,,,,,,,,,,,55.25,181.261,space,125.882,,[],[],[],[],[],[],1,0,1,0,1,,,,,,,,,,,,,,,,,,,,,,,,,,,,,,,,,,,,,,,,,,,,,,,,,,,,,,,,,,,,,,,,,,,,,,,,,,,,,,,,
,,,,,,5d75c56a52c89d0017df611c,2024-02-08_16h03.48.147,group3.1-3.2-social-tom,2023.2.2,Win32,60.0240096,65c5074098b851296ff0b7ed,65c5418c7304e12e1ac54dfa,,,,,,,,,,,181.264,218.473,space,37.135,,[],[],[],[],[],[],2,0,2,0,1,,,,,,,,,,,,,,,,,,,,,,,,,,,,,,,,,,,,,,,,,,,,,,,,,,,,,,,,,,,,,,,,,,,,,,,,,,,,,,,,
,,,,,,5d75c56a52c89d0017df611c,2024-02-08_16h03.48.147,group3.1-3.2-social-tom,2023.2.2,Win32,60.0240096,65c5074098b851296ff0b7ed,65c5418c7304e12e1ac54dfa,,,,,,,,,,,218.477,273.453,space,54.846,,[],[],[],[],[],[],3,0,3,0,1,,,,,,,,,,,,,,,,,,,,,,,,,,,,,,,,,,,,,,,,,,,,,,,,,,,,,,,,,,,,,,,,,,,,,,,,,,,,,,,,
,,,,,,5d75c56a52c89d0017df611c,2024-02-08_16h03.48.147,group3.1-3.2-social-tom,2023.2.2,Win32,60.0240096,65c5074098b851296ff0b7ed,65c5418c7304e12e1ac54dfa,,,,,,,,,,,273.458,305.569,space,32.084,,[],[],[],[],[],[],4,0,4,0,1,,,,,,,,,,,,,,,,,,,,,,,,,,,,,,,,,,,,,,,,,,,,,,,,,,,,,,,,,,,,,,,,,,,,,,,,,,,,,,,,
,,,,,,5d75c56a52c89d0017df611c,2024-02-08_16h03.48.147,group3.1-3.2-social-tom,2023.2.2,Win32,60.0240096,65c5074098b851296ff0b7ed,65c5418c7304e12e1ac54dfa,,,,,,,,,,,,,,,,,,,,,,,,,,,305.575,308.151,308.175,1,audio/Narrative13Situation2.wav,310.185,,310.185,339.951,"[[84,1534],[33.6,4700],[32.9,4781],[34.3,4865],[41.5,4948],[45.8,5031],[49.6,5115],[50,5197],[50.1,5282],[50.3,5365],[50.3,5447],[50.3,5531],[50.3,5613],[50.3,5697],[50.3,5781],[50.3,5863],[50.3,5947],[50.3,6031],[50.3,6115],[50.3,6197],[50.3,6281],[50.3,6363],[50.3,6448],[50.3,6531],[50.3,6613],[50.3,6698],[50.3,6781],[50.3,6865],[50.3,6947],[50.3,7031],[50.3,7115],[50.3,7198],[50.3,7281],[50.3,7365],[50.3,7448],[50.3,7532],[50.3,7615],[50.3,7697],[50.3,7781],[50.3,7865],[50.3,7947],[50.3,8031],[50.3,8115],[50.3,8197],[50.3,8281],[50.3,8365],[50.3,8447],[50.3,8531],[50.3,8613],[50.3,8697],[50.3,8781],[50.3,8865],[50.3,8947],[50.3,9031],[50.3,9113],[50.3,9197],[50.3,9281],[50.3,9365],[50.3,9447],[50.3,9531],[50.3,9615],[50.3,9697],[50.3,9781],[50.3,9865],[50.3,9947],[50.3,10033],[50.3,10113],[50.3,10197],[50.3,10281],[50.3,10365],[50.3,10447],[50.3,10531],[50.3,10615],[50.3,10697],[50.3,10781],[50.3,10865],[50.3,10947],[50.3,11031],[50.3,11115],[50.3,11197],[50.3,11281],[50.3,11365],[50.3,11447],[50.3,11531],[50.3,11613],[50.3,11697],[50.3,11781],[50.3,11865],[50.3,11947],[50.3,12031],[50.3,12113],[50.3,12197],[50.3,12281],[50.3,12363],[50.3,12447],[50.3,12531],[50.3,12615],[50.3,12697],[50.3,12781],[50.3,12863],[50.3,12947],[50.3,13031],[50.3,13115],[50.3,13197],[50.3,13281],[50.3,13365],[50.3,13447],[50.3,13531],[50.3,13615],[50.3,13697],[50.3,13781],[50.3,13865],[50.3,13947],[50.3,14031],[50.3,14115],[50.3,14197],[50.3,14286],[50.3,14363],[50.3,14447],[50.3,14531],[50.3,14615],[50.3,14697],[50.3,14782],[50.3,14863],[50.3,14947],[50.3,15031],[50.3,15113],[50.3,15197],[50.3,15281],[50.3,15365],[50.3,15447],[50.3,15532],[50.3,15613],[50.3,15697],[50.3,15781],[50.3,15863],[50.3,15947],[50.3,16031],[50.3,16113],[50.3,16197],[50.3,16281],[50.3,16365],[50.3,16447],[50.3,16531],[50.3,16613],[50.3,16697],[50.3,16781],[50.3,16863],[50.3,16947],[50.3,17031],[50.3,17113],[50.3,17197],[50.3,17281],[50.3,17363],[50.3,17447],[50.3,17531],[50.3,17613],[50.3,17697],[50.3,17781],[50.3,17863],[50.3,17947],[50.3,18031],[50.3,18113],[50.3,18197],[50.3,18281],[50.3,18365],[50.3,18447],[50.3,18532],[50.3,18615],[50.3,18697],[50.3,18781],[50.4,18863],[50.4,18947],[50.4,19031],[50.4,19115],[50.4,19197],[50.4,19281],[50.4,19363],[50.4,19447],[50.4,19531],[50.4,19615],[50.4,19697],[50.4,19781],[50.4,19863],[50.4,19947],[50.4,20031],[50.4,20113],[50.4,20197],[50.4,20281],[50.4,20365],[50.4,20447],[50.4,20531],[50.4,20613],[50.4,20697],[50.4,20781],[50.4,20863],[50.4,20947],[50.4,21031],[50.4,21113],[50.4,21197],[50.4,21282],[50.4,21363],[50.4,21447],[50.4,21531],[50.4,21613],[50.4,21697],[50.4,21781],[50.4,21863],[50.4,21947],[50.4,22031],[50.4,22113],[50.4,22197],[50.4,22281],[50.4,22363],[50.4,22447],[50.4,22531],[50.4,22613],[50.4,22697],[50.4,22781],[50.4,22863],[50.4,22947],[50.4,23031],[50.4,23113],[50.4,23197],[50.4,23279],[50.4,23363],[50.4,23447],[50.4,23531],[50.4,23613],[50.4,23697],[50.4,23779],[50.4,23863],[50.4,23947],[50.4,24031],[50.4,24113],[50.4,24197],[50.4,24281],[50.4,24363],[50.4,24447],[50.4,24531],[50.4,24613],[50.4,24697],[50.4,24781],[50.4,24863],[50.4,24947],[50.4,25032],[50.4,25113],[50.4,25197],[50.4,25281],[50.4,25363],[50.6,25447],[50.6,25531],[50.6,25613],[50.6,25697],[50.6,25781],[50.6,25863],[50.6,25947],[50.6,26029],[50.6,26113],[50.6,26197],[50.6,26281],[50.6,26363],[50.6,26447],[50.6,26531],[50.6,26613],[50.6,26697],[50.6,26779],[51.6,26863],[52.5,26947],[53.1,27032],[54.1,27113],[55.4,27197],[56,27281],[56.6,27363],[57.6,27447],[58.2,27531],[58.6,27613],[58.9,27697],[59.7,27782],[60.4,27865],[62.4,27947],[63.8,28033],[64.2,28113],[64.6,28198],[65.1,28279],[65.1,28363],[65.7,28447],[66,28529],[66,28613],[66,28697],[66,28781],[66,28863],[66,28947],[66,29031],[66,29113],[66,29197],[66,29287],[66,29363],[66,29447],[66,29531],[66,29613],[66,29697]]",1,0,339.953,351.998,49.70717423,8.293,"[{""rating"":49.70717423133236,""responseTime"":8.293000000000006}]",space,11.499,,351.999,Half the time,50,352.011,,,[],,0,0,0,0,1,audio/Narrative13Situation2.wav,audio/Narrative13Situation2.wav,audio/Narrative13Situation2.wav,audio/Narrative13Situation2.wav,2,2,2,2,,,,,,,,,,,,,,,,,,,,,,,,,,,,,,,,,,,,,,,
,,,,,,5d75c56a52c89d0017df611c,2024-02-08_16h03.48.147,group3.1-3.2-social-tom,2023.2.2,Win32,60.0240096,65c5074098b851296ff0b7ed,65c5418c7304e12e1ac54dfa,,,,,,,,,,,,,,,,,,,,,,,,,,,,,352.012,1,audio/Narrative8Situation1.wav,385.347,space,385.348,401.279,"[[999,7],[999,82],[999,165],[999,249],[999,331],[999,415],[999,498],[999,582],[999,665],[999,749],[999,832],[999,949],[999,1032],[999,1115],[999,1199],[999,1282],[999,1365],[999,1448],[999,1532],[999,1616],[999,1698],[999,1781],[999,1865],[999,1949],[999,2032],[999,2115],[999,2202],[999,2282],[999,2366],[999,2448],[999,2531],[999,2615],[999,2699],[999,2781],[999,2865],[999,2952],[999,3033],[999,3116],[51,3199],[50.6,3282],[50.3,3366],[50,3449],[50,3531],[50,3615],[50,3699],[50,3782],[50,3865],[50,3949],[50,4031],[50,4115],[50.6,4199],[52,4282],[53.4,4366],[54.4,4453],[55.4,4532],[57.5,4616],[58.9,4699],[59.7,4781],[60.2,4871],[60.7,4949],[61.1,5032],[61.3,5115],[61.7,5199],[62.2,5282],[62.7,5365],[62.9,5449],[63.3,5532],[63.3,5615],[63.3,5699],[63.3,5782],[63.3,5865],[63.5,5949],[63.6,6032],[63.9,6115],[64.1,6199],[64.3,6282],[64.6,6365],[65.5,6449],[66.1,6532],[66.1,6615],[66.3,6699],[66.7,6782],[66.7,6865],[66.7,6949],[66.7,7031],[66.7,7115],[66.7,7198],[66.7,7281],[66.7,7364],[66.7,7449],[66.7,7531],[67.1,7616],[67.9,7700],[69,7782],[70.2,7865],[70.6,7948],[70.6,8032],[70.6,8115],[70.6,8199],[70.6,8281],[70.6,8365],[70.6,8449],[70.6,8532],[70.6,8615],[70.6,8699],[70.6,8782],[70.6,8865],[70.6,8949],[70.6,9032],[70.6,9115],[70.6,9199],[70.6,9281],[70.6,9364],[70.6,9449],[70.6,9532],[70.6,9615],[70.6,9698],[70.6,9781],[70.6,9865],[70.6,9948],[70.6,10031],[70.6,10114],[70.6,10199],[70.6,10281],[70.6,10365],[70.6,10449],[70.6,10531],[70.6,10614],[70.6,10699],[70.6,10781],[70.6,10865],[70.6,10948],[70.6,11031],[70.6,11115],[70.6,11198],[70.6,11281],[70.6,11364],[70.6,11448],[70.6,11531],[70.6,11615],[70.6,11699],[70.6,11782],[70.6,11865],[70.6,11948],[70.6,12031],[70.6,12115],[70.6,12198],[70.6,12281],[70.6,12365],[70.6,12448],[70.6,12531],[70.6,12615],[70.6,12699],[70.6,12781],[70.6,12865],[70.6,12948],[70.6,13031],[70.6,13114],[70.6,13199],[70.6,13281],[70.6,13365],[70.6,13448],[70.6,13531],[70.6,13614],[70.6,13698],[70.6,13781],[70.6,13865],[70.6,13948],[70.6,14031],[70.6,14115],[70.6,14198],[70.6,14282],[70.6,14365],[70.6,14449],[70.6,14531],[70.6,14615],[70.6,14699],[70.6,14781],[70.6,14865],[70.6,14949],[70.6,15031],[70.6,15114],[70.6,15199],[70.6,15281],[70.6,15365],[70.6,15448],[70.6,15531],[70.6,15614],[70.6,15699],[70.6,15781],[70.6,15865]]",1,0,401.281,410.098,68.88726208,4.309,"[{""rating"":68.88726207906296,""responseTime"":4.309000000000026}]",space,8.273,,410.099,Not at all,0,410.108,,,[],,0,1,1,1,1,audio/Narrative7Situation1.wav,audio/Narrative8Situation1.wav,audio/Narrative5Situation1.wav,audio/Narrative6Situation1.wav,2,5,5,2,33.313,,,,,,,,,,,,,,,,,,,,,,,,,,,,,,,,,,,,,,
,,,,,,5d75c56a52c89d0017df611c,2024-02-08_16h03.48.147,group3.1-3.2-social-tom,2023.2.2,Win32,60.0240096,65c5074098b851296ff0b7ed,65c5418c7304e12e1ac54dfa,,,,,,,,,,,,,,,,,,,,,,,,,,,,,410.109,1,audio/Narrative8Situation2.wav,413.112,,413.112,423.245,"[[62.9,1250],[57.5,1338],[55.7,1417],[54,1501],[51.8,1584],[50.6,1667],[50.1,1750],[49.9,1833],[49.9,1915],[49.9,1999],[49.9,2084],[49.9,2165],[49.9,2250],[49.9,2333],[49.9,2417],[49.9,2500],[49.9,2583],[49.9,2665],[49.9,2749],[49.9,2833],[49.9,2915],[49.9,3000],[49.9,3083],[49.9,3165],[49.9,3250],[49.9,3333],[49.9,3417],[49.9,3499],[49.9,3583],[49.9,3665],[49.9,3750],[49.9,3833],[49.9,3915],[49.9,4000],[49.9,4083],[49.9,4165],[49.9,4250],[49.9,4333],[49.9,4415],[49.9,4499],[49.9,4583],[49.9,4667],[49.9,4749],[49.9,4833],[49.9,4915],[49.9,5000],[49.9,5083],[49.9,5167],[49.9,5250],[49.9,5333],[49.9,5415],[49.9,5499],[49.9,5583],[49.9,5665],[49.9,5749],[49.9,5833],[49.9,5915],[49.9,5999],[49.9,6083],[49.9,6165],[49.9,6249],[49.9,6333],[49.9,6415],[49.9,6500],[49.9,6583],[49.9,6665],[49.9,6749],[49.9,6833],[49.9,6915],[49.9,7000],[49.9,7083],[49.9,7165],[49.9,7249],[49.9,7333],[49.9,7415],[49.9,7499],[49.9,7583],[49.9,7665],[49.9,7749],[49.9,7843],[49.9,7917],[49.9,7999],[49.9,8083],[49.9,8165],[49.9,8250],[49.9,8333],[49.9,8415],[49.9,8499],[49.9,8583],[49.9,8665],[49.9,8749],[49.9,8833],[49.9,8915],[49.9,8999],[49.9,9081],[49.9,9165],[49.9,9249],[49.9,9331],[49.9,9415],[49.9,9499],[49.9,9583],[49.9,9665],[49.9,9749],[49.9,9833],[49.9,9915],[49.9,10000],[49.9,10083]]",1,0,423.246,428.411,50,3.891,"[{""rating"":50,""responseTime"":3.8910000000000196}]",space,4.618,,428.411,Half the time,50,428.421,,,[],,0,2,2,2,1,audio/Narrative7Situation2.wav,audio/Narrative8Situation2.wav,audio/Narrative5Situation2.wav,audio/Narrative6Situation2.wav,3,3,3,3,,,,,,,,,,,,,,,,,,,,,,,,,,,,,,,,,,,,,,,
,,,,,,5d75c56a52c89d0017df611c,2024-02-08_16h03.48.147,group3.1-3.2-social-tom,2023.2.2,Win32,60.0240096,65c5074098b851296ff0b7ed,65c5418c7304e12e1ac54dfa,,,,,,,,,,,,,,,,,,,,,,,,,,,,,428.421,1,audio/Narrative8Situation3.wav,432.428,,432.428,454.794,"[[999,2],[999,82],[999,165],[999,250],[999,332],[999,415],[999,500],[999,582],[999,665],[999,748],[999,832],[999,915],[999,1000],[999,1082],[999,1165],[999,1248],[999,1332],[999,1415],[999,1498],[999,1582],[999,1665],[999,1748],[999,1832],[999,1916],[999,2000],[999,2082],[999,2165],[999,2248],[999,2331],[999,2415],[51.6,2498],[51,2586],[50.7,2668],[50.3,2748],[49.9,2832],[49.9,2915],[50,3000],[50.3,3082],[50.4,3165],[50.7,3248],[51.8,3332],[53.1,3418],[53.7,3498],[54.2,3582],[55.9,3666],[56.6,3750],[56.7,3831],[57.3,3915],[57.3,4000],[57.6,4082],[57.6,4165],[57.8,4248],[57.8,4331],[59.1,4415],[59.4,4500],[59.7,4584],[60.2,4665],[60.2,4748],[60.2,4834],[60.2,4915],[60.2,4998],[60.2,5082],[60.2,5165],[60.2,5248],[60.2,5331],[60.2,5415],[60.2,5498],[60.2,5582],[60.2,5665],[60.2,5750],[60.2,5832],[60.2,5915],[60.2,5998],[60.2,6081],[60.2,6165],[60.2,6248],[60.4,6331],[60.4,6415],[60.4,6500],[60.4,6582],[60.4,6665],[60.4,6748],[60.4,6832],[60.4,6915],[60.4,6998],[60.4,7081],[60.8,7164],[60.8,7248],[60.8,7331],[60.8,7415],[60.8,7498],[60.8,7582],[60.8,7665],[60.8,7748],[60.8,7831],[60.8,7915],[60.8,7998],[60.8,8082],[60.8,8165],[60.8,8248],[60.8,8332],[60.8,8415],[60.8,8498],[60.8,8581],[60.8,8664],[60.8,8750],[60.8,8831],[60.8,8915],[60.8,8998],[60.8,9081],[60.8,9164],[60.8,9248],[60.8,9332],[60.8,9415],[60.8,9498],[60.8,9582],[60.8,9665],[60.8,9748],[60.8,9832],[60.8,9915],[60.8,9998],[60.8,10082],[60.8,10164],[60.8,10248],[60.8,10332],[60.8,10415],[60.8,10498],[60.8,10581],[60.8,10665],[60.8,10748],[60.8,10831],[60.8,10915],[60.8,10998],[60.8,11082],[60.8,11165],[60.8,11248],[60.8,11331],[60.8,11415],[60.8,11498],[60.8,11581],[60.8,11665],[60.8,11748],[60.8,11831],[60.8,11914],[60.8,12000],[60.8,12081],[60.8,12164],[60.8,12248],[60.8,12332],[60.8,12414],[60.8,12498],[60.8,12581],[60.8,12664],[60.8,12748],[60.8,12831],[60.8,12914],[60.8,12998],[60.8,13082],[60.8,13164],[60.8,13248],[60.8,13331],[60.8,13415],[60.8,13498],[60.8,13581],[60.8,13664],[60.8,13747],[60.8,13831],[60.8,13915],[60.8,13998],[60.8,14081],[60.8,14164],[60.8,14248],[60.8,14331],[60.8,14414],[60.8,14498],[60.8,14581],[60.8,14665],[60.8,14748],[60.8,14831],[60.8,14914],[60.8,14998],[60.8,15081],[60.8,15164],[60.8,15247],[60.8,15332],[60.8,15415],[60.8,15498],[60.8,15581],[60.2,15665],[58.5,15748],[57.6,15832],[56.7,15918],[52.9,15998],[51.2,16082],[50.3,16165],[49.6,16248],[47.7,16332],[45.2,16415],[43.6,16498],[42.1,16582],[40.2,16668],[38.4,16748],[38,16831],[37.8,16915],[37.4,17000],[36.8,17081],[36.7,17165],[36.7,17248],[36.7,17331],[36.7,17414],[36.7,17498],[36.7,17581],[36.7,17664],[36.7,17748],[36.7,17831],[36.7,17914],[36.7,17997],[36.7,18081],[36.7,18164],[36.7,18248],[36.7,18331],[36.7,18415],[36.1,18498],[35.2,18582],[34.9,18664],[34.3,18748],[33.5,18831],[32.4,18915],[31.8,18998],[31.8,19081],[31.8,19165],[31.8,19247],[31.8,19331],[31.8,19414],[31.8,19497],[31.8,19580],[31.8,19665],[31.7,19748],[31,19831],[31,19915],[31,19998],[31,20081],[31,20164],[31,20247],[31,20331],[31,20414],[31,20498],[31,20581],[31,20664],[31,20747],[31,20831],[31,20914],[31,20998],[31,21081],[31,21164],[31,21247],[31,21331],[31,21415],[31,21497],[31,21581],[31,21664],[31,21748],[31,21831],[31,21914],[31,21998],[31,22081],[31,22164],[31,22248],[31,22331]]",1,0,454.795,460.829,43.4114202,4.907,"[{""rating"":39.019033674963396,""responseTime"":2.7539999999999623},{""rating"":43.411420204978036,""responseTime"":4.906999999999982}]",space,5.484,,460.83,All the time,100,460.84,,,[],,0,3,3,3,1,audio/Narrative7Situation3.wav,audio/Narrative8Situation3.wav,audio/Narrative5Situation3.wav,audio/Narrative6Situation3.wav,8,4,3,5,,,,,,,,,,,,,,,,,,,,,,,,,,,,,,,,,,,,,,,
,,,,,,5d75c56a52c89d0017df611c,2024-02-08_16h03.48.147,group3.1-3.2-social-tom,2023.2.2,Win32,60.0240096,65c5074098b851296ff0b7ed,65c5418c7304e12e1ac54dfa,,,,,,,,,,,,,,,,,,,,,,,,,,,,,460.84,1,audio/Narrative8Situation4.wav,463.843,,463.843,478.009,"[[999,1],[999,84],[999,167],[999,249],[999,333],[999,417],[999,500],[999,583],[999,667],[999,750],[999,833],[999,915],[999,1002],[999,1083],[999,1165],[999,1250],[999,1333],[999,1415],[999,1499],[999,1584],[999,1665],[999,1756],[999,1837],[999,1918],[999,2000],[999,2083],[999,2167],[999,2250],[999,2334],[999,2415],[999,2499],[999,2585],[999,2667],[999,2750],[999,2834],[50.3,2917],[50.3,2999],[50.3,3084],[50.3,3165],[50.3,3250],[50.3,3333],[50.3,3417],[50.1,3500],[50.1,3585],[50.1,3665],[50.1,3750],[50.1,3833],[50.1,3915],[50.1,4000],[50.1,4086],[50.1,4165],[50.1,4249],[50.1,4334],[50.1,4415],[50.1,4500],[50.1,4583],[50.1,4665],[50.1,4749],[50.1,4833],[50.1,4915],[50.1,4999],[50.1,5083],[50.1,5167],[50.1,5250],[50.1,5334],[50.1,5415],[50.1,5499],[50.1,5584],[50.1,5665],[50.1,5750],[50.1,5834],[50,5915],[49.7,6000],[49.7,6083],[49.7,6165],[49.7,6250],[49.7,6333],[49.7,6415],[49.7,6500],[49.7,6583],[49.7,6665],[49.7,6750],[49.7,6834],[49.7,6915],[49.6,6999],[48.2,7086],[46.5,7169],[45.6,7250],[44.4,7336],[43.1,7415],[42.1,7500],[40.9,7583],[38.3,7665],[36.2,7750],[34.9,7837],[33.3,7915],[31.8,8000],[31.7,8084],[31.3,8165],[31.1,8249],[31.1,8334],[31.1,8415],[31.1,8500],[31.1,8584],[31.1,8665],[31.1,8749],[31.1,8834],[31.1,8915],[31.1,8999],[31.1,9083],[31.1,9165],[31.1,9249],[31.1,9333],[31.1,9415],[31.1,9499],[31.1,9583],[31.1,9665],[31.1,9750],[31.1,9833],[31.1,9915],[31.1,9999],[31.1,10084],[31.1,10165],[31.1,10249],[31.1,10334],[31.1,10415],[31.1,10500],[31.1,10583],[31.1,10665],[31.1,10749],[31.1,10834],[31.1,10915],[31.1,10999],[31.1,11083],[31.1,11165],[31.1,11249],[31.1,11333],[31.1,11415],[31.1,11499],[31.1,11583],[31.1,11665],[31.1,11749],[31.1,11833],[31,11915],[29.9,11999],[28.8,12084],[28.3,12165],[27.5,12250],[26,12333],[25.1,12417],[24.4,12500],[22.6,12586],[21,12665],[20.3,12749],[19.8,12835],[18.8,12915],[18.4,12999],[18.1,13085],[18.1,13165],[18.1,13249],[18.1,13334],[18.1,13415],[18.1,13499],[18.1,13586],[18.1,13665],[18.1,13749],[18.1,13833],[18.1,13915],[18.1,13999],[18.1,14083],[18.1,14165]]",1,0,478.009,484.742,18.66764275,2.789,"[{""rating"":18.667642752562223,""responseTime"":2.7889999999999304}]",space,6.202,,484.742,Half the time,50,496.142,49.85358712,7.842,"[{""rating"":49.85358711566617,""responseTime"":7.8419999999999845}]",space,0,4,4,4,1,audio/Narrative7Situation4.wav,audio/Narrative8Situation4.wav,audio/Narrative5Situation4.wav,audio/Narrative6Situation4.wav,3,3,1,2,,,10.874,,,,,,,,,,,,,,,,,,,,,,,,,,,,,,,,,,,,
,,,,,,5d75c56a52c89d0017df611c,2024-02-08_16h03.48.147,group3.1-3.2-social-tom,2023.2.2,Win32,60.0240096,65c5074098b851296ff0b7ed,65c5418c7304e12e1ac54dfa,,,,,,,,,,,,,,,,,,,,,,,,,,,,,496.144,1,audio/Narrative8Situation5.wav,498.159,,498.159,506.408,"[[999,4],[999,81],[999,166],[999,248],[999,331],[999,415],[999,499],[999,581],[999,665],[999,749],[999,831],[999,915],[999,999],[999,1081],[999,1165],[999,1249],[999,1331],[999,1416],[999,1499],[999,1581],[999,1665],[999,1749],[999,1831],[999,1915],[999,1999],[47.7,2083],[47.7,2166],[47.7,2248],[47.4,2331],[46,2416],[45.6,2498],[45.5,2581],[44.3,2666],[43.3,2752],[42.5,2831],[42.5,2916],[42.5,2999],[42.5,3081],[40,3166],[37.7,3250],[34.9,3333],[32.6,3416],[29.8,3499],[27.3,3581],[26.9,3665],[26.9,3749],[26.9,3831],[26.9,3915],[26.9,3998],[26.9,4081],[26.9,4166],[26.7,4249],[26.7,4331],[26.7,4415],[26.7,4499],[26.7,4581],[26.7,4665],[26.7,4749],[26.7,4831],[26.7,4915],[26.7,4998],[26.7,5081],[26.7,5165],[26.7,5248],[26.7,5331],[26.7,5416],[26.7,5498],[26.7,5581],[26.7,5665],[26.7,5749],[26.7,5831],[26.4,5915],[26.1,5999],[25.7,6081],[25.5,6165],[25.5,6249],[25.5,6331],[25.5,6415],[25.5,6498],[25.5,6581],[25.5,6665],[25.5,6749],[25.5,6831],[25.5,6915],[25.5,6998],[25.5,7081],[25.5,7166],[25.5,7249],[25.5,7331],[25.5,7415],[25.5,7499],[25.5,7581],[25.5,7665],[25.5,7749],[25.5,7831],[25.5,7915],[25.5,7998],[25.5,8081],[25.5,8165],[25.5,8249]]",1,0,506.408,511.691,24.37774524,3.24,"[{""rating"":24.377745241581263,""responseTime"":3.240000000000009}]",space,4.738,,511.691,All the time,100,511.7,,,[],,0,5,5,5,1,audio/Narrative7Situation5.wav,audio/Narrative8Situation5.wav,audio/Narrative5Situation5.wav,audio/Narrative6Situation5.wav,5,2,5,2,,,,,,,,,,,,,,,,,,,,,,,,,,,,,,,,,,,,,,,
,,,,,,5d75c56a52c89d0017df611c,2024-02-08_16h03.48.147,group3.1-3.2-social-tom,2023.2.2,Win32,60.0240096,65c5074098b851296ff0b7ed,65c5418c7304e12e1ac54dfa,,,,,,,,,,,,,,,,,,,,,,,,,,,,,511.7,1,audio/Narrative8Situation6.wav,513.707,,513.708,520.191,"[[24.8,2914],[25.8,2998],[30.4,3081],[34.9,3169],[37.8,3248],[42.1,3331],[47.4,3415],[50.3,3498],[50.7,3581],[50.7,3664],[50.7,3748],[50.7,3831],[50.7,3915],[50.4,3998],[50.3,4081],[50.3,4164],[50.3,4247],[50.3,4331],[50.3,4415],[50.3,4498],[50.3,4581],[50.3,4665],[50.3,4748],[50.3,4831],[50.3,4914],[50.3,4998],[50.3,5081],[50.3,5165],[50.3,5247],[50.3,5331],[50.3,5415],[50.3,5498],[50.3,5581],[50.3,5664],[50.3,5748],[50.3,5831],[50.3,5914],[50.3,5998],[50.3,6081],[50.3,6164],[50.3,6248],[50.3,6331],[50.3,6414]]",1,0,520.191,525.323,50,3.975,"[{""rating"":50,""responseTime"":3.9750000000000227}]",space,4.583,,525.323,All the time,100,525.33,,,[],,0,6,6,6,1,audio/Narrative7Situation6.wav,audio/Narrative8Situation6.wav,audio/Narrative5Situation6.wav,audio/Narrative6Situation6.wav,3,2,3,2,,,,,,,,,,,,,,,,,,,,,,,,,,,,,,,,,,,,,,,
,,,,,,5d75c56a52c89d0017df611c,2024-02-08_16h03.48.147,group3.1-3.2-social-tom,2023.2.2,Win32,60.0240096,65c5074098b851296ff0b7ed,65c5418c7304e12e1ac54dfa,,,,,,,,,,,,,,,,,,,,,,,,,,,,,525.331,1,audio/Narrative8Situation7.wav,528.34,,528.34,540.439,"[[49.9,2501],[49.7,2581],[49.7,2666],[49.7,2750],[49.7,2832],[49.7,2916],[49.7,2999],[49.7,3082],[49.7,3167],[49.7,3250],[49.7,3332],[49.7,3417],[49.7,3500],[49.7,3582],[49.7,3666],[49.7,3749],[49.7,3832],[49.7,3916],[49.7,4000],[49.7,4081],[49.7,4166],[49.1,4250],[47.4,4332],[45,4417],[43,4499],[40.9,4582],[39.5,4667],[38.6,4750],[35.1,4831],[33.9,4917],[33.9,4999],[33.9,5082],[33.9,5166],[33.9,5249],[33.6,5334],[32.6,5416],[32.1,5500],[32,5582],[32,5668],[32,5750],[30.8,5832],[29.8,5917],[29.8,5999],[29.6,6081],[28.6,6167],[28,6250],[27.6,6332],[27.6,6417],[27.5,6499],[27.5,6582],[27.5,6666],[27.5,6749],[27.5,6831],[27.5,6917],[27.5,7000],[27.5,7082],[27.5,7167],[26.4,7250],[25.3,7332],[25.1,7416],[24.8,7499],[23.9,7584],[21.9,7667],[21.3,7749],[21.3,7832],[21.3,7916],[21.3,7999],[21.3,8081],[21.3,8164],[21.3,8249],[21.3,8332],[21,8418],[21,8499],[21,8582],[20.6,8669],[19.8,8749],[19.5,8832],[19.5,8916],[19.5,8999],[19.5,9082],[19.5,9166],[19,9250],[18.2,9331],[17.3,9421],[16,9500],[15,9581],[14.4,9669],[13.8,9749],[13.8,9831],[13.8,9917],[13.8,9999],[13.8,10082],[13.8,10168],[13.8,10249],[13.8,10331],[13.8,10416],[13.8,10499],[13.8,10581],[13.8,10666],[13.8,10749],[13.8,10832],[13.8,10914],[13.8,10999],[13.8,11081],[13.8,11166],[13.8,11249],[13.8,11331],[13.8,11417],[13.8,11499],[13.8,11582],[13.8,11664],[13.8,11749],[13.8,11832],[13.8,11916],[13.8,11999],[13.8,12081]]",1,0,540.44,545.556,15.73938507,4.452,"[{""rating"":17.349926793557835,""responseTime"":2.7409999999999854},{""rating"":15.739385065885797,""responseTime"":4.451999999999998}]",space,4.568,,545.558,Half the time,50,545.566,,,[],,0,7,7,7,1,audio/Narrative7Situation7.wav,audio/Narrative8Situation7.wav,audio/Narrative5Situation7.wav,audio/Narrative6Situation7.wav,5,3,4,5,,,,,,,,,,,,,,,,,,,,,,,,,,,,,,,,,,,,,,,
,,,,,,5d75c56a52c89d0017df611c,2024-02-08_16h03.48.147,group3.1-3.2-social-tom,2023.2.2,Win32,60.0240096,65c5074098b851296ff0b7ed,65c5418c7304e12e1ac54dfa,,,,,,,,,,,,,,,,,,,,,,,,,,,,,545.567,1,audio/Narrative8Situation8.wav,548.572,,548.572,561.422,"[[17.9,334],[21.3,1752],[20.3,1835],[20.1,1916],[20.1,1999],[20.1,2083],[20.1,2166],[20.1,2250],[19.8,2335],[19.4,2417],[19.3,2500],[19.1,2584],[18.8,2667],[18.7,2749],[18.7,2833],[18.7,2916],[18.7,3000],[18.7,3083],[18.7,3167],[18.7,3250],[18.5,3336],[17.2,3416],[16.6,3500],[16,3586],[16,3666],[15.4,3750],[14.3,3834],[13.7,3917],[13.3,4001],[12.8,4084],[12.5,4166],[12.4,4250],[12.2,4338],[12.1,4417],[11.9,4499],[11.9,4583],[11.9,4666],[11.9,4750],[11.9,4836],[11.5,4916],[11.3,5000],[10.9,5084],[10.2,5167],[10,5250],[10,5333],[10,5416],[10,5499],[9.6,5586],[8.1,5666],[7.2,5750],[6.4,5833],[5.2,5917],[5.1,6000],[5.1,6083],[5.1,6166],[5.1,6250],[5.1,6334],[5.1,6416],[5.1,6499],[5.1,6583],[5.1,6666],[5.1,6750],[5.1,6833],[5.1,6916],[5.1,6999],[5.1,7083],[5.1,7166],[5.1,7249],[5.1,7333],[5.1,7416],[5.1,7500],[5.1,7583],[5.1,7666],[5.1,7749],[5.1,7833],[5.1,7916],[5.1,8000],[5.1,8083],[5.1,8166],[5.1,8249],[5.1,8331],[5.1,8417],[5.1,8499],[5.1,8583],[5.1,8666],[5.1,8750],[5.1,8833],[5.1,8916],[5.1,9000],[5.1,9083],[5.1,9166],[5.1,9250],[5.1,9333],[5.1,9416],[5.1,9499],[5.1,9583],[5.1,9666],[5.1,9749],[5.1,9831],[5.1,9916],[5.1,10000],[5.1,10081],[5.1,10166],[5.1,10249],[5.1,10331],[4.8,10421],[3.7,10500],[2.9,10584],[2.6,10666],[2.6,10749],[2.6,10833],[2.6,10916],[2.6,10999],[2.6,11081],[2.6,11166],[2.6,11250],[2.6,11333],[2.6,11416],[2.6,11500],[2.6,11583],[2.6,11666],[2.6,11750],[2.6,11833],[2.6,11916],[2.6,12000],[2.6,12083],[2.6,12166],[2.6,12250],[2.6,12331],[2.6,12416],[2.6,12499],[2.6,12583],[2.6,12666],[2.6,12749],[2.6,12831]]",1,0,561.424,566.605,3.587115666,3.587,"[{""rating"":0.9516837481698404,""responseTime"":2.2250000000000227},{""rating"":3.587115666178625,""responseTime"":3.586999999999989}]",space,4.633,,566.608,Half the time,50,566.613,,,[],,0,8,8,8,1,audio/Narrative7Situation8.wav,audio/Narrative8Situation8.wav,audio/Narrative5Situation8.wav,audio/Narrative6Situation8.wav,2,3,3,5,,,,,,,,,,,,,,,,,,,,,,,,,,,,,,,,,,,,,,,
,,,,,,5d75c56a52c89d0017df611c,2024-02-08_16h03.48.147,group3.1-3.2-social-tom,2023.2.2,Win32,60.0240096,65c5074098b851296ff0b7ed,65c5418c7304e12e1ac54dfa,,,,,,,,,,,,,,,,,,,,,,,,,,,,,566.614,1,audio/Narrative8Situation9.wav,569.621,,569.621,580.954,"[[999,0],[999,82],[999,165],[999,250],[999,332],[999,416],[999,500],[999,582],[999,666],[999,750],[999,832],[999,915],[999,1000],[999,1083],[999,1166],[999,1250],[999,1332],[999,1415],[999,1500],[999,1582],[999,1666],[999,1750],[999,1832],[999,1916],[999,2000],[999,2082],[999,2166],[999,2250],[999,2332],[999,2418],[999,2500],[999,2583],[999,2666],[999,2750],[999,2832],[9.7,2916],[8.3,3000],[8.3,3082],[8.7,3165],[9.2,3250],[9.2,3332],[9.2,3415],[9.2,3500],[9.2,3582],[9.2,3665],[9.2,3750],[9.2,3832],[9.2,3915],[9.2,3998],[9.2,4082],[9.2,4166],[9.2,4248],[9.2,4332],[9.2,4415],[9.2,4500],[9.2,4582],[9.2,4666],[9.2,4750],[9.2,4832],[9.2,4915],[9.2,5000],[9.2,5082],[9.2,5165],[8.6,5250],[8,5332],[7.5,5415],[7.2,5500],[7.2,5582],[7.2,5666],[7.2,5750],[7.2,5831],[7.2,5915],[7.2,6000],[7.2,6082],[7.2,6165],[7.2,6250],[7.2,6331],[7.2,6415],[7.2,6500],[7.2,6582],[7.2,6665],[7.2,6750],[7,6831],[7,6915],[7,7000],[7,7082],[7,7165],[7,7248],[7,7332],[7,7415],[7,7498],[7,7582],[7,7665],[7,7750],[7,7832],[7,7915],[7,7998],[7,8082],[7,8165],[7,8248],[7,8331],[7,8416],[7,8498],[7,8582],[7,8665],[7,8750],[7,8832],[7,8915],[7,9000],[7,9082],[7,9166],[6.7,9248],[5.9,9332],[5.5,9415],[5.2,9500],[4.8,9582],[4.2,9665],[4.2,9748],[4.2,9831],[4.2,9915],[4.2,9998],[4.2,10081],[4.2,10165],[4.2,10248],[4.2,10331],[4.2,10415],[4.2,10500],[4.2,10582],[4.2,10665],[4.2,10748],[4.2,10832],[4.2,10915],[4.2,11000],[4.2,11082],[4.2,11165],[4.2,11248],[4.2,11332]]",1,0,580.955,585.721,4.172767204,1.814,"[{""rating"":4.172767203513911,""responseTime"":1.8139999999999645}]",space,4.222,,585.721,Not at all,0,585.729,,,[],,0,9,9,9,1,audio/Narrative7Situation9.wav,audio/Narrative8Situation9.wav,audio/Narrative5Situation9.wav,audio/Narrative6Situation9.wav,2,3,3,4,,,,,,,,,,,,,,,,,,,,,,,,,,,,,,,,,,,,,,,
,,,,,,5d75c56a52c89d0017df611c,2024-02-08_16h03.48.147,group3.1-3.2-social-tom,2023.2.2,Win32,60.0240096,65c5074098b851296ff0b7ed,65c5418c7304e12e1ac54dfa,,,,,,,,,,,,,,,,,,,,,,,,,,,,,585.729,1,audio/Narrative7Situation1.wav,587.736,,587.736,643.619,"[[4.8,3334],[5.2,3418],[5.6,3501],[5.9,3584],[5.9,3667],[6.1,3751],[6.2,3834],[6.4,3917],[6.8,4001],[6.8,4084],[6.8,4167],[6.8,4250],[6.7,4334],[5.9,4417],[5.8,4501],[5.6,4584],[5.6,4668],[5.6,4751],[5.6,4833],[5.6,4917],[5.6,5001],[5.6,5084],[5.6,5167],[5.6,5250],[5.6,5334],[5.6,5417],[5.6,5501],[5.6,5584],[5.6,5667],[5.6,5750],[5.6,5834],[5.6,5917],[5.6,6001],[5.6,6083],[5.6,6168],[5.6,6251],[5.6,6334],[5.6,6417],[5.6,6500],[5.6,6584],[5.6,6667],[5.6,6750],[5.6,6833],[5.6,6917],[5.6,7000],[5.6,7084],[5.6,7167],[5.6,7251],[5.6,7334],[5.6,7417],[5.6,7501],[5.6,7584],[5.6,7667],[5.6,7751],[5.6,7834],[5.6,7917],[5.6,8000],[5.6,8084],[5.6,8167],[5.6,8250],[5.6,8333],[5.6,8417],[5.6,8500],[5.6,8583],[5.6,8667],[5.6,8750],[5.6,8833],[5.6,8917],[5.6,9000],[5.6,9083],[5.6,9167],[5.6,9251],[5.6,9334],[5.6,9417],[5.6,9500],[5.6,9583],[5.6,9667],[5.6,9750],[5.6,9834],[5.6,9917],[5.6,10000],[5.6,10083],[5.6,10166],[5.6,10250],[5.6,10333],[5.6,10417],[5.6,10500],[5.6,10583],[5.6,10666],[5.6,10750],[5.6,10834],[5.5,10917],[5.2,11001],[4.8,11084],[4.6,11167],[4.6,11251],[4.6,11333],[4.3,11417],[4.3,11500],[4.3,11584],[4.3,11666],[4.3,11751],[4.3,11833],[4.3,11917],[4.3,12001],[4.3,12084],[4.3,12167],[4.3,12250],[4.3,12334],[4.3,12416],[4.3,12500],[4.3,12584],[4.3,12667],[4.3,12750],[4.3,12833],[4.3,12916],[4.3,13000],[4.3,13083],[4.3,13166],[4.3,13252],[4.2,13334],[3.9,13416],[3.9,13500],[3.1,13587],[2.1,13667],[2.1,13750],[2.1,13833],[2.1,13917],[2.1,14000],[2.1,14083],[2.1,14166],[2.1,14250],[2.1,14333],[2.1,14416],[2.1,14500],[2.1,14583],[2.1,14667],[2.1,14750],[2.1,14833],[2.1,14917],[2.1,15000],[2.1,15084],[2.1,15167],[2.1,15250],[2.1,15333],[2.1,15417],[2.1,15500],[2.1,15584],[2.1,15667],[2.1,15750],[2.1,15833],[2.1,15916],[2.1,16001],[2.1,16083],[2.1,16167],[2.1,16250],[2.1,16333],[2.1,16416],[2.1,16500],[2.1,16583],[2.1,16667],[2.1,16750],[2.1,16833],[2.1,16916],[2.1,17000],[2.1,17083],[2.1,17167],[2.1,17250],[2.1,17333],[2.1,17416],[2.1,17500],[2.1,17583],[2.1,17667],[2.1,17750],[2.1,17833],[2.1,17916],[2.1,18000],[2.1,18083],[2.1,18166],[2.1,18250],[2.1,18333],[2.1,18417],[2.1,18500],[2.1,18583],[2.1,18666],[2.1,18750],[2.1,18833],[2.1,18916],[2.1,19000],[2.1,19083],[2.1,19166],[2.1,19251],[2.1,19333],[2.1,19416],[2.1,19501],[2.1,19583],[2.1,19667],[2.1,19750],[2.1,19833],[2.1,19917],[2.1,20000],[2.1,20083],[2.1,20166],[2.1,20250],[2.1,20333],[2.1,20417],[2.1,20501],[2.1,20583],[2.1,20667],[2.1,20750],[2.1,20833],[2.1,20917],[2.1,21000],[2.1,21083],[2.1,21166],[2.1,21250],[2.1,21333],[2.1,21417],[2.1,21501],[2.1,21583],[2.1,21666],[2.1,21750],[2.1,21833],[2.1,21916],[2.1,21999],[2.1,22083],[2.1,22166],[2.1,22250],[2.1,22333],[2.1,22416],[2.1,22500],[2.1,22583],[2.1,22666],[2.1,22751],[2.1,22833],[2.1,22916],[2.1,23001],[2.1,23081],[2.1,23166],[2.1,23249],[2.1,23334],[2.1,23417],[2.1,23500],[2.1,23581],[2.1,23666],[2.1,23751],[2.1,23831],[2.1,23916],[2.1,24000],[2.1,24081],[2.1,24167],[2.1,24250],[2.1,24333],[2.1,24416],[2.1,24500],[2.1,24583],[2.1,24666],[2.1,24749],[2.1,24831],[2.1,24916],[2.1,25000],[2.1,25083],[2.1,25166],[2.1,25249],[2.1,25333],[2.1,25415],[2.1,25500],[2.1,25581],[2.1,25667],[2.1,25750],[2.1,25833],[2.1,25916],[2.1,26000],[2.1,26081],[2.1,26165],[2.1,26251],[2.1,26333],[2.1,26416],[2.1,26499],[2.1,26583],[2.1,26665],[2.1,26750],[2.1,26833],[2.1,26916],[2.1,27000],[2.1,27083],[2.1,27167],[2.1,27250],[2.1,27331],[2.1,27416],[2.1,27500],[2.1,27583],[2.1,27666],[2.1,27749],[2.1,27833],[2.1,27916],[2.1,28001],[2.1,28083],[2.1,28166],[2.1,28249],[2.1,28331],[2.1,28416],[2.1,28500],[2.1,28583],[2.1,28666],[2.1,28750],[2.1,28831],[2.1,28916],[2.1,29000],[2.1,29083],[2.1,29166],[2.1,29250],[2.1,29331],[2.1,29416],[2.1,29500],[2.1,29581],[2.1,29666],[2.1,29749],[2.1,29831],[2.1,29915],[2.1,29999],[2.1,30081],[2.1,30166],[2.1,30250],[2.1,30333],[2.1,30416],[2.1,30499],[2.1,30581],[2.1,30665],[2.1,30749],[2.1,30833],[2.1,30916],[2.1,31000],[2.1,31081],[2.1,31165],[2.1,31250],[2.1,31331],[2.1,31416],[2.1,31500],[2.1,31583],[2.1,31666],[2.1,31750],[2.1,31831],[2.1,31915],[2.1,31999],[2.1,32083],[2.1,32166],[2.1,32249],[2.1,32333],[2.1,32416],[2.1,32499],[2.1,32583],[2.1,32667],[2.1,32750],[2.1,32833],[2.1,32915],[2.1,33000],[2.1,33083],[2.1,33165],[2.1,33249],[2.1,33333],[2.1,33416],[2.1,33500],[2.1,33581],[2.1,33666],[2.1,33749],[2.1,33833],[2.1,33916],[2.1,34000],[2.1,34081],[2.1,34165],[2.1,34250],[2.1,34331],[2.1,34415],[2.1,34500],[2.1,34583],[2.1,34666],[2.1,34749],[2.1,34831],[2.1,34915],[2.1,35000],[2.1,35083],[2.1,35166],[2.1,35249],[2.1,35331],[2.1,35416],[2.1,35499],[2.1,35581],[2.1,35665],[2.1,35749],[2.1,35831],[2.1,35915],[2.1,35999],[2.1,36081],[2.1,36166],[2.1,36249],[2.1,36331],[2.1,36416],[2.1,36499],[2.1,36583],[2.1,36666],[2.1,36749],[2.1,36831],[2.1,36915],[2.1,36999],[2.1,37081],[2.1,37165],[2.1,37249],[2.1,37333],[2.1,37416],[2.1,37498],[2.1,37581],[2.1,37666],[2.1,37748],[2.1,37831],[2.1,37916],[2.1,37999],[2.1,38083],[2.1,38166],[2.1,38249],[2.1,38331],[2.1,38415],[2.1,38498],[2.1,38581],[2.1,38666],[2.1,38749],[2.1,38831],[2.1,38915],[2.1,38998],[2.1,39081],[2.1,39165],[2.1,39249],[2.1,39331],[2.1,39416],[2.1,39499],[2.1,39581],[2.1,39666],[2.1,39750],[2.1,39831],[2.1,39915],[2.1,39999],[2.1,40083],[2.1,40165],[2.1,40248],[2.1,40331],[2.1,40415],[2.1,40498],[2.1,40581],[2.1,40665],[2.1,40748],[2.1,40831],[2.1,40915],[2.1,40999],[2.1,41081],[2.1,41166],[2.1,41249],[2.1,41331],[2.1,41415],[2.1,41498],[2.1,41581],[2.1,41665],[2.1,41748],[2.1,41831],[2.1,41916],[2.1,41999],[2.1,42081],[2.1,42165],[2.1,42249],[2.1,42331],[2.1,42416],[2.1,42499],[2.1,42581],[2.1,42665],[2.1,42750],[2.1,42831],[2.1,42915],[2.1,42998],[2.1,43081],[2.1,43165],[2.1,43249],[2.1,43331],[2.1,43415],[2.1,43498],[2.1,43581],[2.1,43665],[2.1,43748],[2.1,43831],[2.1,43916],[2.1,43999],[2.1,44081],[2.1,44165],[2.1,44249],[2.1,44331],[2.1,44415],[2.1,44499],[2.1,44581],[2.1,44665],[2.1,44748],[2.1,44831],[2.1,44915],[2.1,44999],[2.1,45081],[2.1,45166],[2.1,45249],[2.1,45331],[2.1,45415],[2.1,45499],[2.1,45581],[2.1,45665],[2.1,45748],[2.1,45831],[2.1,45915],[2.1,45999],[2.1,46081],[2.1,46165],[2.1,46248],[2.1,46331],[2.1,46415],[2.1,46498],[2.1,46581],[2.1,46665],[2.1,46748],[2.1,46831],[2.1,46915],[2.1,46999],[2.1,47081],[2.1,47165],[2.1,47248],[2.1,47331],[2.1,47415],[2.1,47499],[2.1,47581],[2.1,47665],[2.1,47748],[2.1,47831],[2.1,47915],[2.1,47999],[2.1,48081],[2.1,48165],[2.1,48249],[2.1,48331],[2.1,48415],[2.1,48498],[2.1,48581],[2.1,48665],[2.1,48748],[2.1,48831],[2.1,48915],[2.1,48999],[2.1,49081],[2.1,49165],[2.1,49248],[2.1,49331],[2.1,49414],[2.1,49498],[2.1,49581],[2.1,49665],[2.1,49748],[2.1,49831],[2.1,49915],[2.1,49998],[2.1,50081],[2.1,50165],[2.1,50248],[2.1,50331],[2.1,50415],[2.1,50498],[2.1,50581],[2.1,50665],[2.1,50749],[2.1,50831],[2.1,50915],[2.1,50998],[2.1,51081],[2.1,51164],[2.1,51248],[2.1,51331],[2.1,51415],[2.1,51499],[2.1,51581],[2.1,51665],[2.1,51748],[2.1,51831],[2.1,51915],[2.1,51998],[2.1,52081],[2.1,52165],[2.1,52248],[2.1,52331],[2.1,52415],[2.1,52498],[2.1,52581],[2.1,52665],[2.1,52748],[2.1,52831],[2.1,52914],[2.1,52998],[2.1,53081],[2.1,53164],[2.1,53248],[2.1,53331],[2.1,53415],[2.1,53498],[2.1,53581],[2.1,53665],[2.1,53748],[2.1,53831],[2.1,53915],[2.1,53998],[2.1,54081],[2.1,54164],[2.1,54248],[2.1,54331],[2.1,54415],[2.1,54498],[2.1,54581],[2.1,54665],[2.1,54748],[2.1,54831],[2.1,54914],[2.1,54998],[2.1,55081],[2.1,55165],[2.1,55248],[2.1,55331],[2.1,55415],[2.1,55498],[2.1,55581],[2.1,55664],[2.1,55748],[2.1,55831]]",1,0,643.621,657.551,2.415812592,2.027,"[{""rating"":2.415812591508054,""responseTime"":2.0270000000000437}]",space,13.385,,657.554,All the time,100,657.566,,,[],,0,10,10,10,1,audio/Narrative8Situation1.wav,audio/Narrative7Situation1.wav,audio/Narrative6Situation1.wav,audio/Narrative5Situation1.wav,5,2,2,5,,,,,,,,,,,,,,,,,,,,,,,,,,,,,,,,,,,,,,,
,,,,,,5d75c56a52c89d0017df611c,2024-02-08_16h03.48.147,group3.1-3.2-social-tom,2023.2.2,Win32,60.0240096,65c5074098b851296ff0b7ed,65c5418c7304e12e1ac54dfa,,,,,,,,,,,,,,,,,,,,,,,,,,,,,657.567,1,audio/Narrative7Situation2.wav,660.567,,660.567,668.049,"[[1.7,1833],[1,1916],[1,2000],[1,2083],[1,2166],[2.1,2250],[2.9,2333],[3.3,2417],[3.3,2499],[3.3,2583],[3.3,2666],[3.3,2750],[3.3,2833],[3.3,2916],[3.3,2999],[3.3,3083],[3.3,3166],[3.3,3249],[3.3,3331],[3.3,3416],[3.3,3499],[3.3,3583],[3.3,3666],[3.3,3749],[3.3,3833],[3.3,3916],[3.3,4000],[3.3,4081],[3.3,4166],[3.3,4249],[3.3,4331],[3.3,4416],[3.3,4500],[4,4581],[4.3,4667],[4.5,4749],[5.1,4833],[6.2,4917],[8.6,5003],[9.9,5083],[10.9,5166],[12.2,5250],[13.4,5331],[14.3,5416],[14.6,5499],[14.6,5583],[14.6,5666],[16.5,5752],[19.1,5833],[20.1,5916],[20.3,5999],[20.6,6081],[22,6168],[22.9,6249],[23.6,6331],[24.1,6416],[24.1,6499],[24.2,6583],[24.2,6666],[24.2,6749],[24.2,6831],[24.2,6916],[24.2,6999],[24.2,7083],[24.2,7165],[24.2,7249],[24.2,7331],[24.2,7415]]",1,0,668.05,676.032,24.08491947,2.243,"[{""rating"":24.08491947291362,""responseTime"":2.242999999999938}]",space,7.452,,676.033,All the time,100,676.04,,,[],,0,11,11,11,1,audio/Narrative8Situation2.wav,audio/Narrative7Situation2.wav,audio/Narrative6Situation2.wav,audio/Narrative5Situation2.wav,3,3,3,3,,,,,,,,,,,,,,,,,,,,,,,,,,,,,,,,,,,,,,,
,,,,,,5d75c56a52c89d0017df611c,2024-02-08_16h03.48.147,group3.1-3.2-social-tom,2023.2.2,Win32,60.0240096,65c5074098b851296ff0b7ed,65c5418c7304e12e1ac54dfa,,,,,,,,,,,,,,,,,,,,,,,,,,,,,676.04,1,audio/Narrative7Situation3.wav,684.049,,684.049,693.318,"[[23.6,2083],[22.8,2168],[21.9,2250],[20.6,2332],[20.1,2417],[20,2500],[19.8,2582],[19.8,2666],[19.8,2748],[19.8,2832],[18.1,2917],[16.6,3000],[16.3,3082],[16.3,3167],[16.3,3248],[16.3,3332],[16,3416],[15.7,3498],[14.9,3585],[14,3667],[13.5,3750],[13.1,3832],[13,3916],[13,4000],[13,4082],[13,4166],[13,4248],[13,4332],[13,4415],[13,4500],[10.6,4582],[8.3,4668],[6.2,4750],[4.8,4832],[4,4918],[4,4998],[4,5082],[4,5166],[3.9,5248],[3.9,5332],[3.9,5415],[3.9,5500],[3.9,5582],[3.9,5665],[3.9,5750],[3.9,5832],[3.9,5915],[3.9,5998],[3.9,6081],[3.9,6165],[3.9,6248],[3.9,6331],[3.9,6416],[3.9,6498],[3.9,6582],[3.9,6667],[3.9,6748],[3.3,6832],[3,6915],[2.7,7000],[2.6,7082],[2.6,7165],[2.6,7248],[2.6,7331],[2.6,7415],[2.6,7498],[2.6,7582],[2.6,7666],[2.6,7748],[2.6,7832],[2.6,7915],[2.6,7998],[2.6,8082],[2.6,8166],[2.6,8248],[2.6,8332],[2.6,8415],[2.6,8498],[2.6,8581],[2.6,8665],[2.6,8748],[2.6,8832],[2.6,8915],[2.6,9000],[2.6,9082],[2.6,9166],[2.6,9248]]",1,0,693.319,722.949,4.172767204,2.187,"[{""rating"":4.172767203513911,""responseTime"":2.187000000000012}]",space,29.082,,722.95,All the time,100,722.96,,,[],,0,12,12,12,1,audio/Narrative8Situation3.wav,audio/Narrative7Situation3.wav,audio/Narrative6Situation3.wav,audio/Narrative5Situation3.wav,4,8,5,3,,,,,,,,,,,,,,,,,,,,,,,,,,,,,,,,,,,,,,,
,,,,,,5d75c56a52c89d0017df611c,2024-02-08_16h03.48.147,group3.1-3.2-social-tom,2023.2.2,Win32,60.0240096,65c5074098b851296ff0b7ed,65c5418c7304e12e1ac54dfa,,,,,,,,,,,,,,,,,,,,,,,,,,,,,722.961,1,audio/Narrative7Situation4.wav,725.964,,725.964,737.696,"[[3.4,2004],[2.3,2082],[1.5,2165],[1.5,2249],[1.5,2332],[1.5,2415],[1.5,2499],[2,2582],[2,2665],[2.4,2750],[2.6,2831],[2.9,2915],[3,2999],[3,3081],[3,3165],[3,3249],[3,3331],[3,3414],[3,3499],[3,3581],[3,3665],[3,3749],[3,3832],[3,3915],[3,3999],[3,4081],[3,4165],[3,4249],[3,4331],[3,4415],[3,4499],[3,4582],[3,4664],[3,4749],[3,4832],[3,4915],[3,4999],[3,5082],[3,5165],[3,5249],[3,5331],[3,5414],[3,5499],[3,5581],[3,5664],[3,5749],[3,5831],[3,5914],[3,5999],[3,6081],[3,6165],[3,6249],[3,6331],[3,6414],[3,6499],[3,6582],[3,6664],[3,6749],[3,6831],[3,6914],[3,6999],[3,7081],[3.1,7164],[4.6,7250],[6.2,7331],[7.7,7415],[10.2,7499],[13.8,7582],[17.9,7665],[23.2,7749],[25.8,7836],[26,7914],[26.3,7997],[26.3,8081],[26.3,8165],[27,8249],[30.7,8332],[34.5,8415],[38.1,8499],[40.9,8582],[45.2,8664],[47.5,8749],[48.7,8831],[49.1,8915],[49.3,8999],[49.3,9081],[49.3,9164],[49.3,9249],[49.3,9331],[50.3,9415],[51.2,9497],[52.5,9581],[53.5,9665],[54.1,9749],[54.1,9831],[54.1,9915],[54.1,9997],[54.4,10081],[54.4,10164],[54.4,10247],[54.4,10331],[54.4,10414],[54.4,10499],[54.4,10581],[55,10665],[55.3,10749],[55.3,10832],[55.6,10915],[55.7,10997],[55.7,11081],[55.7,11165],[55.7,11249],[55.7,11331],[55.7,11414],[55.7,11499],[55.7,11581],[55.7,11664]]",1,0,737.697,742.497,57.61346999,2.175,"[{""rating"":57.61346998535871,""responseTime"":2.1749999999999545}]",space,4.267,,742.497,Half the time,50,742.505,,,[],,0,13,13,13,1,audio/Narrative8Situation4.wav,audio/Narrative7Situation4.wav,audio/Narrative6Situation4.wav,audio/Narrative5Situation4.wav,3,3,2,1,,,,,,,,,,,,,,,,,,,,,,,,,,,,,,,,,,,,,,,
,,,,,,5d75c56a52c89d0017df611c,2024-02-08_16h03.48.147,group3.1-3.2-social-tom,2023.2.2,Win32,60.0240096,65c5074098b851296ff0b7ed,65c5418c7304e12e1ac54dfa,,,,,,,,,,,,,,,,,,,,,,,,,,,,,742.506,1,audio/Narrative7Situation5.wav,747.512,,747.512,756.012,"[[56.9,1583],[56.7,1667],[56.7,1750],[56.4,1838],[55,1917],[51.9,2000],[15.3,2585],[12.4,2667],[11.3,2751],[11.6,2835],[13,2917],[13.5,3000],[13.5,3083],[13.5,3167],[12.5,3250],[11.9,3333],[11.8,3417],[11.8,3500],[11.8,3583],[11.8,3667],[11.8,3750],[11.8,3832],[11.8,3917],[11.8,4000],[11.8,4083],[11.8,4165],[11.8,4250],[11.8,4333],[11.8,4417],[10.5,4500],[8.7,4583],[6.8,4667],[5.6,4750],[5.3,4833],[5.1,4917],[4.5,5000],[4.3,5086],[4.3,5167],[4.3,5250],[4.3,5333],[4.3,5417],[4.2,5500],[3.9,5586],[3.6,5667],[3.6,5750],[3.6,5833],[3.6,5917],[3.6,6000],[3.6,6082],[3.6,6167],[3.6,6250],[3.6,6332],[3.6,6415],[3.6,6500],[3.6,6583],[3.6,6665],[3.6,6750],[3.6,6833],[3.6,6915],[3.6,7000],[3.6,7083],[3.6,7165],[3.6,7250],[3.6,7332],[3.6,7417],[3.6,7500],[3.6,7583],[3.6,7665],[3.6,7750],[3.6,7832],[3.6,7917],[3.6,8000],[3.6,8083],[3.6,8167],[3.6,8250],[3.6,8333],[3.6,8415],[3.6,8500]]",1,0,756.012,758.012,3.001464129,1.455,"[{""rating"":3.00146412884334,""responseTime"":1.455000000000041}]",space,1.469,,758.012,Half the time,50,758.021,,,[],,0,14,14,14,1,audio/Narrative8Situation5.wav,audio/Narrative7Situation5.wav,audio/Narrative6Situation5.wav,audio/Narrative5Situation5.wav,2,5,2,5,,,,,,,,,,,,,,,,,,,,,,,,,,,,,,,,,,,,,,,
,,,,,,5d75c56a52c89d0017df611c,2024-02-08_16h03.48.147,group3.1-3.2-social-tom,2023.2.2,Win32,60.0240096,65c5074098b851296ff0b7ed,65c5418c7304e12e1ac54dfa,,,,,,,,,,,,,,,,,,,,,,,,,,,,,758.022,1,audio/Narrative7Situation6.wav,761.029,,761.029,771.011,"[[2.3,1999],[1.8,2083],[1.8,2166],[2,2250],[2,2331],[2.6,2418],[3.1,2500],[3.1,2581],[3.1,2667],[3.1,2749],[3.1,2831],[3.1,2917],[3.1,2999],[3.1,3081],[3.3,3168],[4,3250],[5.1,3333],[5.5,3419],[5.5,3499],[5.9,3581],[7.2,3666],[8.6,3749],[8.9,3833],[9.6,3918],[10.6,3999],[11.9,4081],[12.5,4166],[12.5,4249],[12.5,4331],[12.5,4416],[13,4499],[16.2,4583],[19.8,4671],[20.6,4749],[22.3,4833],[23.2,4917],[23.2,4998],[23.2,5081],[23.5,5167],[27.6,5250],[31.6,5333],[32,5416],[32,5499],[32,5581],[32.4,5667],[32.7,5749],[32.7,5831],[32.7,5916],[32.7,5999],[32.7,6081],[32.7,6167],[32.7,6248],[32.7,6331],[32.7,6416],[32.7,6499],[33.2,6583],[33.7,6666],[33.7,6749],[33.7,6831],[34,6917],[34,6998],[34,7083],[34.2,7166],[34.2,7248],[34.2,7331],[34.2,7416],[34.2,7499],[34.2,7581],[34.2,7665],[34.2,7748],[34.2,7831],[34.2,7915],[34.2,7999],[34.2,8081],[34.2,8166],[34.2,8249],[34.2,8331],[34.2,8416],[34.2,8498],[34.2,8581],[34.2,8665],[34.2,8749],[34.2,8831],[34.2,8916],[34.2,8999],[34.2,9081],[34.2,9166],[34.2,9248],[34.2,9331],[34.2,9415],[34.2,9498],[34.2,9581],[34.2,9665],[34.2,9748],[34.2,9831],[34.2,9915]]",1,0,771.012,774.746,28.33089312,2.875,"[{""rating"":34.18740849194729,""responseTime"":0.95799999999997},{""rating"":28.330893118594435,""responseTime"":2.875}]",space,3.187,,774.746,Half the time,50,774.752,,,[],,0,15,15,15,1,audio/Narrative8Situation6.wav,audio/Narrative7Situation6.wav,audio/Narrative6Situation6.wav,audio/Narrative5Situation6.wav,2,3,2,3,,,,,,,,,,,,,,,,,,,,,,,,,,,,,,,,,,,,,,,
,,,,,,5d75c56a52c89d0017df611c,2024-02-08_16h03.48.147,group3.1-3.2-social-tom,2023.2.2,Win32,60.0240096,65c5074098b851296ff0b7ed,65c5418c7304e12e1ac54dfa,,,,,,,,,,,,,,,,,,,,,,,,,,,,,774.752,1,audio/Narrative7Situation7.wav,779.762,,779.763,796.944,"[[26,1998],[21.2,2081],[16.3,2163],[11.9,2248],[9.3,2336],[6.4,2413],[5.2,2496],[5.2,2580],[5.2,2663],[5.2,2748],[4.6,2831],[4.5,2913],[4.2,2998],[3.9,3081],[3.6,3163],[3.6,3246],[3.6,3331],[3.6,3413],[3.6,3498],[3.6,3581],[3.6,3663],[3.6,3748],[3.6,3831],[3.6,3913],[3.6,3996],[3.6,4081],[3.6,4163],[3.6,4246],[3.6,4331],[3.6,4413],[3.6,4496],[3.6,4580],[3.6,4663],[3.6,4746],[3.6,4831],[3.6,4913],[3.6,4996],[3.6,5080],[3.6,5163],[3.6,5248],[3.6,5331],[3.6,5413],[3.6,5496],[3.6,5580],[3.6,5663],[3.6,5746],[3.6,5831],[3.6,5913],[3.6,5998],[3.6,6081],[3.6,6163],[3.6,6246],[3.6,6330],[3.6,6413],[3.6,6496],[3.6,6580],[3.6,6663],[3.6,6746],[3.6,6831],[3.6,6913],[3.6,6996],[3.6,7081],[3.6,7163],[3.6,7248],[3.6,7331],[3.6,7413],[3.6,7496],[3.6,7580],[3.6,7663],[3.6,7746],[3.6,7831],[3.6,7913],[3.6,7996],[3.6,8080],[3.6,8163],[3.6,8246],[3.6,8331],[3.6,8413],[3.6,8498],[3.6,8580],[3.6,8663],[3.6,8746],[3.6,8831],[3.6,8913],[3.6,8996],[3.6,9080],[3.6,9163],[3.6,9246],[3.6,9331],[3.6,9413],[3.6,9498],[3.6,9580],[3.6,9663],[3.6,9746],[3.6,9831],[3.6,9913],[3.6,9996],[3.6,10080],[3.6,10163],[3.6,10248],[3.6,10330],[3.6,10413],[3.6,10496],[3.6,10580],[3.6,10663],[3.6,10746],[3.6,10831],[3.4,10913],[3.3,10998],[3.3,11080],[3.1,11163],[3.1,11246],[3.1,11330],[3.1,11413],[3.1,11498],[3.1,11580],[3.1,11663],[3.1,11746],[3.1,11831],[3.1,11913],[3.1,11996],[3.1,12080],[3.1,12163],[3.1,12246],[3.1,12330],[3.1,12413],[3.1,12496],[3.1,12580],[3.1,12663],[3.1,12746],[3.1,12830],[3.1,12913],[3.1,12996],[3.1,13080],[3.1,13163],[3.1,13246],[3.1,13330],[3.1,13413],[3.1,13496],[3.1,13580],[3.1,13663],[3.1,13746],[3.1,13830],[3.1,13913],[3.1,13996],[3.1,14080],[3.1,14163],[3.1,14246],[3.1,14330],[3.1,14413],[3.1,14496],[3.1,14580],[3.1,14663],[3.1,14746],[3.1,14830],[3.1,14913],[3.1,14996],[3.1,15080],[3.1,15163],[3.1,15246],[3.1,15330],[3.1,15413],[3.1,15496],[3.1,15580],[3.1,15663],[3.1,15746],[3.1,15830],[3.1,15913],[3.1,15996],[3.1,16080],[3.1,16163],[3.1,16246],[3.1,16330],[3.1,16413],[3.1,16495],[3.1,16580],[3.1,16663],[3.1,16745],[3.1,16830],[3.1,16913],[3.1,16996],[3.1,17080],[3.1,17163]]",1,0,796.946,841.743,2.855051245,2.74,"[{""rating"":2.8550512445095153,""responseTime"":2.740000000000009}]",space,44.253,,841.745,Not at all,0,841.759,,,[],,0,16,16,16,1,audio/Narrative8Situation7.wav,audio/Narrative7Situation7.wav,audio/Narrative6Situation7.wav,audio/Narrative5Situation7.wav,3,5,5,4,,,,,,,,,,,,,,,,,,,,,,,,,,,,,,,,,,,,,,,
,,,,,,5d75c56a52c89d0017df611c,2024-02-08_16h03.48.147,group3.1-3.2-social-tom,2023.2.2,Win32,60.0240096,65c5074098b851296ff0b7ed,65c5418c7304e12e1ac54dfa,,,,,,,,,,,,,,,,,,,,,,,,,,,,,841.76,1,audio/Narrative7Situation8.wav,843.775,,843.775,853.807,"[[2.6,1503],[2.1,1582],[2.1,1664],[2.1,1748],[2.1,1833],[2.1,1915],[2.4,2002],[2.7,2082],[2.7,2164],[2.7,2248],[3,2331],[3,2415],[3,2498],[3,2581],[3,2665],[3,2748],[3,2831],[3,2914],[3,2998],[3,3081],[3,3165],[3,3248],[3,3332],[3,3415],[3,3498],[3.3,3582],[3.4,3665],[3.9,3748],[4.3,3835],[5.1,3915],[5.5,3998],[5.6,4081],[6.7,4165],[10.8,4253],[12.1,4332],[12.2,4414],[13.1,4500],[14.4,4584],[14.9,4665],[15,4748],[15.2,4832],[15.2,4915],[15.2,4998],[15.2,5081],[15.2,5164],[15.2,5248],[15.2,5331],[15.2,5415],[15.2,5498],[15.2,5581],[15.2,5664],[15.2,5747],[15.2,5832],[15.2,5915],[15.2,5998],[15.2,6082],[15.2,6165],[15.2,6248],[15.2,6332],[15.2,6414],[15.2,6498],[15.2,6581],[15.2,6665],[15.2,6748],[15.2,6831],[15.2,6915],[15.2,6998],[15.2,7081],[15.2,7164],[15.2,7248],[15.2,7331],[15.2,7415],[15.2,7498],[15.2,7581],[15.2,7664],[15.2,7748],[15.2,7831],[15.2,7914],[15.2,7998],[15.2,8081],[15.2,8165],[15.2,8248],[15.2,8331],[15.2,8414],[15.2,8498],[15.2,8581],[15.2,8665],[15.2,8748],[15.2,8831],[15.2,8915],[15.2,8997],[15.2,9081],[15.2,9165],[15.2,9247],[15.2,9331],[15.2,9415],[15.2,9498],[15.2,9581],[15.2,9664],[15.2,9748],[15.2,9831],[15.2,9914],[15.2,9998]]",1,0,853.808,857.424,14.27525622,1.573,"[{""rating"":14.275256222547583,""responseTime"":1.572999999999979}]",space,3.068,,857.424,All the time,100,857.431,,,[],,0,17,17,17,1,audio/Narrative8Situation8.wav,audio/Narrative7Situation8.wav,audio/Narrative6Situation8.wav,audio/Narrative5Situation8.wav,3,2,5,3,,,,,,,,,,,,,,,,,,,,,,,,,,,,,,,,,,,,,,,
,,,,,,5d75c56a52c89d0017df611c,2024-02-08_16h03.48.147,group3.1-3.2-social-tom,2023.2.2,Win32,60.0240096,65c5074098b851296ff0b7ed,65c5418c7304e12e1ac54dfa,,,,,,,,,,,,,,,,,,,,,,,,,,,,,857.432,1,audio/Narrative7Situation9.wav,859.44,,859.44,868.073,"[[10.9,2167],[8.1,2255],[5.5,2332],[3.7,2417],[3,2500],[2.9,2583],[2.9,2667],[2.9,2750],[2.9,2832],[2.9,2917],[2.9,3000],[2.9,3082],[2.9,3165],[2.9,3250],[2.9,3332],[2.9,3417],[2.9,3500],[2.9,3582],[2.9,3665],[2.9,3750],[2.9,3833],[2.9,3915],[2.9,4000],[2.9,4082],[2.9,4167],[2.9,4250],[2.9,4332],[2.9,4417],[2.9,4500],[2.9,4583],[2.9,4665],[2.9,4750],[2.9,4832],[2.9,4915],[2.9,5000],[2.9,5083],[2.9,5165],[2.9,5249],[3.6,5336],[4.5,5415],[4.8,5500],[4.8,5582],[5.1,5665],[5.6,5752],[7.5,5833],[8.7,5915],[10.3,6000],[13.7,6082],[14.4,6168],[14.4,6250],[14.4,6332],[14.4,6415],[14.4,6500],[14.4,6582],[15.3,6667],[15.7,6749],[15.7,6832],[15.9,6915],[16,6999],[16,7082],[16,7165],[16,7250],[16,7332],[16,7415],[16,7499],[16,7582],[16,7667],[16,7749],[16,7833],[16,7915],[16,7999],[16,8082],[16,8165],[16,8249],[16,8332],[16,8415],[16,8500],[16,8582]]",1,0,868.073,870.44,15.59297218,1.576,"[{""rating"":15.592972181551978,""responseTime"":1.5760000000000218}]",space,1.834,,870.44,Not at all,0,870.448,,,[],,0,18,18,18,1,audio/Narrative8Situation9.wav,audio/Narrative7Situation9.wav,audio/Narrative6Situation9.wav,audio/Narrative5Situation9.wav,3,2,4,3,,,,,,,,,,,,,,,,,,,,,,,,,,,,,,,,,,,,,,,
,,,,,,5d75c56a52c89d0017df611c,2024-02-08_16h03.48.147,group3.1-3.2-social-tom,2023.2.2,Win32,60.0240096,65c5074098b851296ff0b7ed,65c5418c7304e12e1ac54dfa,,,,,,,,,,,,,,,,,,,,,,,,,,,900.461,903.039,903.061,2,audio/Narrative13Situation2.wav,903.062,,903.062,932.82,"[[1.7,2076],[2.9,2158],[3.3,2245],[3.6,2326],[3.6,2408],[3.6,2493],[3.6,2575],[3.6,2658],[3.4,2744],[3.4,2826],[3.3,2908],[3.3,2993],[3.3,3076],[3.3,3158],[3.3,3243],[3.3,3326],[3.7,3408],[5.3,3497],[7.5,3576],[8.7,3658],[9.2,3743],[9.3,3826],[9.6,3908],[10.2,3995],[11.1,4076],[12.8,4158],[14.3,4245],[15.9,4327],[18.1,4410],[19.5,4494],[19.7,4576],[19.7,4658],[19.7,4744],[19.8,4826],[21.4,4908],[22.2,4992],[23.2,5077],[24.1,5158],[25.1,5244],[25.8,5326],[26.3,5408],[26.6,5494],[26.6,5576],[26.6,5658],[26.6,5743],[26.6,5826],[26.6,5908],[26.6,5993],[26.6,6076],[26.6,6158],[26.6,6242],[26.6,6326],[26.6,6408],[26.6,6493],[26.6,6575],[26.6,6658],[26.6,6742],[26.6,6825],[26.6,6908],[26.6,6992],[26.6,7076],[26.6,7158],[26.6,7243],[26.6,7325],[26.6,7408],[26.6,7493],[26.6,7575],[26.6,7658],[26.6,7742],[26.6,7826],[26.6,7908],[26.6,7992],[26.6,8076],[26.6,8158],[26.6,8242],[26.6,8326],[26.6,8408],[26.6,8493],[26.6,8575],[26.6,8658],[26.6,8743],[26.6,8825],[26.6,8908],[26.6,8992],[26.6,9075],[26.6,9158],[26.6,9242],[26.6,9325],[26.6,9408],[26.6,9492],[26.6,9576],[26.6,9658],[26.6,9742],[26.6,9826],[26.6,9908],[26.6,9992],[26.6,10076],[26.6,10158],[26.7,10242],[26.7,10325],[26.7,10408],[26.7,10492],[26.7,10575],[26.7,10658],[26.7,10742],[26.7,10826],[26.7,10908],[26.7,10994],[26.9,11075],[27,11158],[27,11242],[27,11325],[27,11408],[27,11493],[27,11576],[27,11658],[27,11745],[27,11825],[27,11908],[27,11992],[27,12076],[27,12158],[27,12242],[26.3,12326],[25.7,12408],[25.7,12492],[25.7,12575],[25.7,12658],[25.3,12742],[21.3,12825],[19.4,12911],[18.5,12993],[17.8,13076],[17.3,13158],[17.1,13243],[16.9,13325],[16.8,13408],[16.2,13493],[15.6,13576],[15.4,13658],[15.4,13742],[15.4,13825],[15.4,13908],[15,13993],[13.5,14076],[12.1,14158],[10.9,14243],[9.9,14325],[9.4,14408],[9.3,14492],[9.3,14575],[9.3,14658],[9.3,14742],[9.3,14825],[9.3,14908],[9.3,14992],[9.3,15075],[9.3,15158],[9.3,15242],[9.3,15326],[9.3,15408],[9.3,15492],[9.3,15575],[9.3,15658],[9.3,15742],[9.3,15825],[9.3,15908],[9.3,15990],[9.3,16075],[9.3,16158],[9.3,16242],[9.3,16325],[9.3,16408],[9.3,16495],[9.3,16575],[9.3,16658],[9.3,16740],[9.3,16825],[9.3,16908],[9.3,16990],[9.3,17075],[9.3,17158],[9.3,17242],[9.3,17325],[9.3,17408],[9.3,17490],[9.3,17575],[9.3,17658],[9.2,17745],[8.3,17825],[7.4,17908],[7,17992],[6.4,18075],[5.5,18158],[4.6,18242],[3.7,18325],[3.4,18408],[3.4,18492],[3.4,18575],[3.4,18658],[3.4,18742],[3.4,18825],[3.4,18908],[3.4,18992],[3.4,19075],[3.4,19158],[3.4,19240],[3.4,19325],[3.4,19408],[3.4,19490],[3.4,19575],[3.4,19658],[3.4,19742],[3.4,19825],[3.4,19908],[3.4,19990],[3.4,20075],[3.4,20158],[3.4,20242],[3.4,20325],[3.4,20408],[3.4,20492],[3.4,20575],[3.4,20658],[3.4,20742],[3.4,20825],[3.4,20908],[3.4,20992],[3.4,21075],[3.4,21158],[3.4,21240],[3.4,21325],[3.4,21408],[3.4,21490],[3.4,21575],[3.4,21658],[3.4,21742],[3.4,21825],[3.4,21908],[3.4,21992],[3,22075],[2.4,22158],[1.8,22242],[1.8,22324],[1.8,22408],[1.8,22494],[1.8,22575],[1.8,22658],[1.8,22745],[1.8,22824],[1.8,22908],[1.8,22990],[1.8,23075],[1.8,23158],[1.8,23242],[1.8,23325],[1.8,23408],[1.8,23490],[1.8,23575],[1.8,23658],[1.8,23742],[1.8,23825],[1.8,23908],[1.8,23990],[1.8,24075],[1.8,24158],[1.8,24242],[1.8,24324],[1.8,24408],[1.8,24492],[1.8,24575],[1.8,24658],[1.8,24740],[1.8,24825],[1.8,24908],[1.8,24990],[1.8,25074],[1.8,25158],[1.8,25240],[1.8,25325],[1.8,25408],[1.8,25492],[1.8,25575],[1.8,25658],[1.8,25740],[1.8,25824],[1.8,25908],[1.8,25990],[1.8,26075],[1.8,26158],[1.8,26240],[1.8,26325],[1.8,26408],[1.8,26492],[1.8,26575],[1.8,26658],[1.8,26740],[1.8,26825],[1.8,26908],[1.8,26990],[1.8,27074],[1.8,27158],[1.8,27240],[1.8,27325],[1.8,27408],[1.8,27490],[1.8,27575],[1.8,27658],[1.8,27740],[1.8,27825],[1.8,27908],[1.8,27990],[1.8,28074],[1.8,28158],[1.8,28242],[1.8,28324],[1.8,28408],[1.8,28490],[1.8,28574],[1.8,28658],[1.8,28740],[1.8,28825],[1.8,28908],[1.8,28992],[1.8,29075],[1.8,29158],[1.8,29240],[1.8,29325],[1.8,29408],[1.8,29490],[1.8,29575],[1.8,29658],[1.8,29740]]",1,0,932.821,932.829,,,[],,,,932.829,Not at all,0,932.832,,,[],,0,0,0,0,1,audio/Narrative13Situation2.wav,audio/Narrative13Situation2.wav,audio/Narrative13Situation2.wav,audio/Narrative13Situation2.wav,2,2,2,2,,,,,870.448,900.459,space,29.485,,,,,,,,,,,,,,,,,,,,,,,,,,,,,,,
,,,,,,5d75c56a52c89d0017df611c,2024-02-08_16h03.48.147,group3.1-3.2-social-tom,2023.2.2,Win32,60.0240096,65c5074098b851296ff0b7ed,65c5418c7304e12e1ac54dfa,,,,,,,,,,,,,,,,,,,,,,,,,,,,,932.832,2,audio/Narrative6Situation1.wav,934.837,,934.837,961.402,"[[1.7,6416],[1.7,6499],[2,6583],[2.6,6666],[2.7,6749],[2.9,6833],[3.3,6916],[3.3,6999],[3.3,7082],[3.3,7166],[3.3,7249],[3.3,7333],[3.3,7416],[3.3,7499],[3.3,7582],[3.3,7666],[3.3,7749],[3.1,7832],[3.1,7916],[3.4,7999],[3.6,8082],[3.6,8165],[3.6,8249],[3.6,8333],[3.7,8416],[3.7,8499],[3.7,8582],[3.7,8665],[3.7,8749],[3.7,8832],[3.7,8915],[3.7,8999],[3.7,9082],[3.7,9166],[3.7,9249],[3.7,9332],[3.7,9415],[3.7,9499],[3.7,9583],[3.7,9666],[3.7,9749],[3.7,9832],[3.7,9916],[3.7,9999],[3.7,10082],[3.7,10165],[3.7,10249],[3.7,10333],[3.7,10416],[3.7,10499],[3.7,10582],[3.6,10666],[3.6,10749],[3.6,10832],[3.6,10915],[3.6,10999],[3.6,11083],[3.6,11166],[3.6,11249],[3.6,11332],[3.4,11416],[3.4,11499],[3.4,11582],[3.4,11665],[3.4,11749],[3.4,11832],[3.4,11915],[3.4,11998],[3.4,12082],[3.4,12165],[3.4,12249],[3.4,12332],[3.4,12415],[3.4,12498],[3.4,12582],[3.4,12666],[3.4,12749],[3.4,12832],[3.4,12916],[3.4,13000],[4.9,13083],[7.1,13166],[8.6,13249],[9,13332],[9.2,13417],[9.9,13499],[11.8,13582],[13.3,13666],[13.5,13749],[13.5,13832],[13.5,13915],[15.9,13999],[18.4,14083],[19.1,14170],[21.2,14249],[26,14332],[26.4,14415],[26.4,14498],[26.4,14582],[26.4,14665],[26.4,14748],[26.4,14832],[26.4,14915],[26.4,14999],[26.4,15082],[26.4,15165],[26.4,15249],[26.4,15332],[26.4,15416],[26.4,15498],[26.4,15582],[26.4,15665],[26.4,15749],[26.4,15832],[26.4,15915],[26.4,15999],[26.4,16082],[26.4,16165],[26.4,16249],[26.4,16332],[26.4,16416],[26.4,16498],[26.4,16582],[26.4,16665],[26.4,16748],[26.4,16832],[26.4,16917],[27.9,16999],[28.6,17082],[30.1,17166],[30.8,17253],[31.4,17332],[31.8,17415],[32,17499],[32,17581],[32,17666],[32.4,17748],[32.7,17833],[33,17915],[33.2,17998],[33.2,18082],[33.3,18165],[33.3,18248],[33.3,18332],[33.3,18416],[33.3,18499],[33.3,18582],[33.3,18665],[33.3,18749],[33.3,18832],[33.3,18916],[33.3,18998],[33.3,19082],[33.3,19165],[33.3,19249],[33.3,19332],[33.3,19416],[33.3,19498],[33.3,19582],[33.3,19665],[33.3,19748],[33.3,19831],[33.3,19915],[33.3,19999],[33.3,20082],[33.3,20166],[33.3,20248],[33.3,20332],[33.3,20415],[33.3,20498],[33.3,20582],[33.3,20665],[33.3,20748],[33.3,20832],[33.3,20915],[33.3,20998],[33.3,21082],[33.3,21165],[33.3,21248],[33.3,21331],[33.3,21415],[33,21499],[31.1,21584],[29.9,21666],[29.5,21749],[29.2,21831],[27.7,21916],[26.3,21999],[25.5,22082],[24.8,22165],[23.1,22249],[21.9,22333],[21.2,22415],[20.6,22499],[19.7,22582],[19.3,22665],[18.8,22749],[18.7,22832],[18.7,22915],[18.7,22999],[18.7,23082],[18.7,23165],[18.7,23248],[18.7,23332],[18.7,23415],[18.7,23498],[18.7,23581],[18.7,23665],[18.7,23748],[18.7,23831],[18.7,23915],[18.7,23998],[18.7,24082],[18.7,24165],[18.7,24248],[18.7,24332],[18.7,24414],[18.7,24499],[18.7,24581],[18.7,24665],[18.7,24748],[18.7,24832],[18.7,24914],[18.7,24998],[18.7,25082],[18.7,25165],[18.7,25248],[18.7,25331],[18.7,25415],[18.7,25498],[18.7,25581],[18.7,25665],[18.7,25748],[18.7,25831],[18.7,25914],[18.7,25998],[18.7,26082],[18.7,26165],[18.7,26248],[18.7,26332],[18.7,26415],[18.7,26499]]",1,0,961.404,966.254,8.857979502,3.855,"[{""rating"":8.857979502196194,""responseTime"":3.855000000000018}]",space,4.302,,966.258,Not at all,0,966.273,,,[],,0,1,1,1,1,audio/Narrative7Situation1.wav,audio/Narrative8Situation1.wav,audio/Narrative5Situation1.wav,audio/Narrative6Situation1.wav,2,5,5,2,,,,,,,,,,,,,,,,,,,,,,,,,,,,,,,,,,,,,,,
,,,,,,5d75c56a52c89d0017df611c,2024-02-08_16h03.48.147,group3.1-3.2-social-tom,2023.2.2,Win32,60.0240096,65c5074098b851296ff0b7ed,65c5418c7304e12e1ac54dfa,,,,,,,,,,,,,,,,,,,,,,,,,,,,,966.274,2,audio/Narrative6Situation2.wav,969.286,,969.288,997.802,"[[7.2,5749],[6.8,5830],[5.8,5913],[4.2,5999],[3.9,6080],[3.9,6163],[3.9,6247],[3.7,6330],[3.7,6417],[2.9,6498],[2.6,6580],[2.6,6663],[2.6,6747],[2.6,6830],[2.6,6913],[2.6,6995],[2.6,7080],[2.6,7163],[2.6,7245],[2.6,7329],[2.6,7413],[2.6,7497],[2.6,7580],[2.6,7663],[2.6,7747],[2.6,7829],[2.6,7913],[2.6,7997],[2.6,8080],[2.6,8163],[2.6,8248],[2.6,8330],[2.6,8413],[2.6,8497],[2.6,8580],[2.6,8663],[2.6,8748],[2.6,8830],[2.6,8913],[2.6,8997],[2.6,9080],[2.6,9163],[2.6,9245],[2.6,9330],[2.6,9413],[2.6,9497],[2.6,9579],[2.6,9663],[2.6,9747],[2.6,9830],[2.6,9913],[2.6,9995],[2.6,10079],[2.6,10162],[2.6,10247],[2.6,10330],[2.6,10413],[2.6,10495],[2.6,10579],[2.6,10663],[2.6,10745],[2.6,10829],[2.6,10913],[2.6,10997],[2.6,11080],[2.6,11163],[2.6,11245],[2.6,11330],[2.6,11413],[2.6,11495],[2.6,11579],[2.6,11663],[2.6,11747],[2.6,11830],[2.6,11912],[2.6,11997],[2.6,12080],[2.6,12163],[2.6,12245],[2.6,12329],[2.6,12413],[2.6,12495],[2.6,12580],[2.6,12663],[2.6,12747],[2.6,12829],[2.6,12913],[2.6,12995],[2.6,13080],[2.6,13163],[2.6,13245],[2.6,13330],[2.6,13413],[2.6,13495],[2.6,13579],[2.6,13662],[2.6,13747],[2.6,13830],[2.6,13913],[2.6,13995],[2.6,14079],[2.6,14163],[2.6,14245],[2.6,14329],[2.6,14412],[2.6,14497],[2.6,14580],[2.6,14663],[2.6,14745],[2.6,14829],[2.6,14913],[2.6,14995],[2.6,15079],[2.6,15162],[2.6,15245],[2.6,15329],[2.6,15413],[2.6,15495],[2.6,15580],[2.6,15663],[2.6,15745],[2.6,15829],[2.6,15912],[2.6,15995],[2.6,16079],[2.6,16162],[3.4,16250],[4.6,16330],[5.2,16412],[5.2,16495],[5.2,16579],[5.5,16663],[6.2,16748],[7,16830],[7.2,16913],[7.2,16995],[7.2,17079],[7.5,17162],[8.1,17245],[8.4,17329],[8.7,17412],[9.2,17498],[11.1,17580],[13.7,17666],[14.6,17748],[14.9,17829],[14.9,17913],[14.9,17998],[14.9,18079],[15.4,18163],[16.3,18248],[16.6,18330],[16.6,18413],[16.6,18495],[16.6,18579],[16.6,18662],[16.6,18745],[16.6,18829],[16.6,18912],[16.6,18995],[16.6,19079],[16.6,19163],[16.6,19245],[16.6,19329],[16.6,19412],[16.6,19495],[16.6,19580],[16.6,19663],[16.6,19745],[16.6,19829],[16.6,19913],[16.6,19995],[16.6,20079],[16.6,20162],[16.6,20245],[16.6,20329],[16.6,20413],[16.6,20495],[16.6,20579],[16.6,20663],[16.6,20745],[16.6,20829],[16.6,20912],[16.6,20995],[16.6,21079],[16.6,21162],[16.5,21248],[14,21331],[10.6,21413],[10,21495],[9.2,21579],[8.1,21662],[8,21745],[8,21829],[8,21912],[8,21995],[8,22079],[8,22162],[8,22245],[8,22329],[8,22412],[8,22495],[8,22579],[8,22663],[8,22745],[8,22829],[8,22912],[8,22995],[8,23079],[8,23163],[8,23245],[8,23328],[8,23412],[8,23496],[8,23578],[8,23662],[8,23746],[8,23828],[8,23913],[8,23995],[8,24078],[8,24162],[8,24245],[8,24328],[8,24412],[8,24496],[8,24578],[8,24663],[8,24746],[8,24828],[8,24912],[8,24996],[8,25078],[8,25162],[8,25246],[8,25328],[8,25413],[8,25496],[8,25578],[8,25662],[8,25746],[8,25829],[8,25912],[8,25995],[8,26079],[8,26163],[8,26246],[8,26329],[8,26412],[8,26495],[8,26578],[8,26662],[8,26746],[8,26829],[8,26912],[8,26996],[8,27080],[8,27162],[8,27246],[8,27329],[8,27412],[8,27496],[8,27579],[8,27662],[8,27745],[8,27829],[8,27912],[8,27995],[8,28079],[8,28162],[8,28245],[8,28328],[8,28412],[8,28496]]",1,0,997.804,999.951,8.418740849,1.753,"[{""rating"":8.418740849194728,""responseTime"":1.752999999999929}]",space,1.601,,999.951,All the time,100,999.961,,,[],,0,2,2,2,1,audio/Narrative7Situation2.wav,audio/Narrative8Situation2.wav,audio/Narrative5Situation2.wav,audio/Narrative6Situation2.wav,3,3,3,3,,,,,,,,,,,,,,,,,,,,,,,,,,,,,,,,,,,,,,,
,,,,,,5d75c56a52c89d0017df611c,2024-02-08_16h03.48.147,group3.1-3.2-social-tom,2023.2.2,Win32,60.0240096,65c5074098b851296ff0b7ed,65c5418c7304e12e1ac54dfa,,,,,,,,,,,,,,,,,,,,,,,,,,,,,999.962,2,audio/Narrative6Situation3.wav,1004.967,,1004.967,1017.583,"[[7.7,3671],[6.7,3750],[5.9,3832],[5.3,3915],[5.1,3999],[4.8,4082],[4.6,4165],[4.6,4249],[4.6,4332],[11.6,4419],[19.5,4499],[36.5,4582],[45.8,4665],[46.3,4749],[46.3,4831],[46.3,4915],[48.4,4999],[52.3,5082],[54.1,5165],[55.7,5250],[57.5,5332],[59.4,5415],[60.1,5499],[61.1,5582],[61.9,5665],[63,5750],[63.9,5831],[64.3,5915],[64.6,5999],[64.6,6082],[64.6,6164],[64.6,6249],[64.6,6332],[64.6,6414],[64.6,6499],[64.6,6581],[64.6,6665],[64.6,6749],[64.6,6831],[64.6,6915],[64.6,7000],[64.6,7081],[64.6,7165],[64.6,7249],[64.6,7332],[64.6,7415],[64.6,7499],[64.6,7581],[64.6,7665],[64.6,7749],[64.6,7832],[64.6,7915],[64.6,7999],[64.5,8081],[63.6,8165],[62.2,8249],[59.2,8335],[57.3,8415],[55.9,8500],[55.1,8582],[54.5,8665],[53.8,8749],[52.9,8832],[52,8914],[51.3,8999],[50.9,9082],[50.4,9165],[50.1,9250],[50.1,9331],[50.1,9415],[50.1,9499],[50.1,9581],[50.1,9664],[50.1,9748],[50.1,9831],[50.1,9915],[50.1,9999],[50.1,10082],[50.1,10164],[50.1,10248],[50.1,10331],[50.1,10415],[50.1,10499],[50.1,10581],[50.1,10665],[50.1,10749],[50.1,10831],[50.1,10915],[50.1,10999],[50.1,11081],[50.1,11164],[50.1,11248],[50.1,11331],[50.1,11414],[50.1,11498],[50.1,11581],[50.1,11665],[50.1,11749],[50.1,11831],[50.1,11914],[50.1,11998],[50.1,12081],[50.1,12164],[50.1,12249],[50.1,12331],[50.1,12414],[50.1,12499],[50.1,12581]]",1,0,1017.583,1019.049,50.14641288,0.859,"[{""rating"":50.14641288433383,""responseTime"":0.8589999999999236}]",space,0.941,,1019.05,All the time,100,1019.058,,,[],,0,3,3,3,1,audio/Narrative7Situation3.wav,audio/Narrative8Situation3.wav,audio/Narrative5Situation3.wav,audio/Narrative6Situation3.wav,8,4,3,5,,,,,,,,,,,,,,,,,,,,,,,,,,,,,,,,,,,,,,,
,,,,,,5d75c56a52c89d0017df611c,2024-02-08_16h03.48.147,group3.1-3.2-social-tom,2023.2.2,Win32,60.0240096,65c5074098b851296ff0b7ed,65c5418c7304e12e1ac54dfa,,,,,,,,,,,,,,,,,,,,,,,,,,,,,1019.058,2,audio/Narrative6Situation4.wav,1021.066,,1021.066,1033.684,"[[49.7,1166],[44.7,1250],[42.8,1333],[39.5,1415],[37.6,1500],[36.5,1583],[36.5,1665],[36.5,1750],[36.5,1833],[36.2,1916],[29.5,2000],[22,2083],[19.1,2166],[18.1,2251],[17.3,2334],[16.3,2416],[15.4,2500],[15,2584],[15,2665],[15,2749],[14.3,2833],[9.9,2915],[8.1,3000],[7.8,3082],[7.8,3165],[7.5,3250],[7.5,3333],[7.5,3416],[6.7,3500],[6.4,3582],[6.4,3665],[6.4,3749],[6.4,3833],[6.4,3915],[6.4,3999],[6.4,4083],[6.4,4165],[6.4,4250],[6.4,4333],[6.4,4415],[6.4,4499],[6.4,4582],[6.4,4665],[6.4,4749],[6.4,4833],[6.4,4915],[6.4,4999],[6.4,5082],[6.4,5165],[6.4,5249],[6.4,5333],[6.4,5415],[5.8,5499],[5.6,5582],[5.3,5665],[5.2,5749],[5.2,5832],[5.1,5914],[4.8,6000],[4.8,6082],[4.8,6165],[4.8,6249],[4.8,6332],[4.8,6414],[4.8,6499],[4.8,6582],[4.8,6665],[4.8,6750],[4.8,6832],[4.8,6915],[4.8,7000],[4.8,7083],[4.8,7165],[4.8,7250],[4.8,7332],[4.8,7415],[4.8,7499],[4.8,7583],[4.8,7665],[4.8,7749],[4.8,7832],[4.8,7915],[4.8,7999],[4.8,8082],[4.8,8165],[4.8,8249],[4.8,8332],[4.8,8415],[4.8,8499],[4.8,8582],[4.8,8664],[4.8,8749],[4.8,8832],[4,8915],[3.6,8999],[3.6,9083],[3.6,9165],[3.6,9249],[3.6,9332],[3.6,9415],[3.6,9499],[3.6,9583],[3.6,9664],[3.6,9750],[3.6,9833],[3.6,9915],[3.6,9999],[3.6,10083],[3.6,10164],[3.6,10249],[3.6,10333],[3.6,10415],[3.6,10499],[3.6,10583],[3.6,10665],[3.6,10749],[3.6,10832],[3.6,10914],[3.6,10999],[3.6,11082],[3.6,11164],[3.6,11249],[3.6,11332],[3.6,11415],[3.6,11499],[3.6,11583],[3.6,11665],[3.6,11749],[3.6,11832],[3.6,11914],[3.6,12000],[3.6,12083],[3.6,12164],[3.6,12249],[3.6,12332],[3.6,12414],[3.6,12500],[3.6,12582]]",1,0,1033.685,1038.698,1.244509517,1.369,"[{""rating"":1.2445095168374831,""responseTime"":1.3689999999999145}]",space,4.469,,1038.699,Half the time,50,1038.71,,,[],,0,4,4,4,1,audio/Narrative7Situation4.wav,audio/Narrative8Situation4.wav,audio/Narrative5Situation4.wav,audio/Narrative6Situation4.wav,3,3,1,2,,,,,,,,,,,,,,,,,,,,,,,,,,,,,,,,,,,,,,,
,,,,,,5d75c56a52c89d0017df611c,2024-02-08_16h03.48.147,group3.1-3.2-social-tom,2023.2.2,Win32,60.0240096,65c5074098b851296ff0b7ed,65c5418c7304e12e1ac54dfa,,,,,,,,,,,,,,,,,,,,,,,,,,,,,1038.711,2,audio/Narrative6Situation5.wav,1040.716,,1040.717,1048.681,"[[1.7,3166],[2.3,3249],[2.4,3331],[2.4,3414],[2.4,3499],[2.4,3581],[2.4,3664],[2.6,3749],[2.7,3830],[2.7,3914],[2.7,4000],[3,4082],[3.4,4164],[3.4,4249],[3.4,4331],[3.4,4414],[3.3,4499],[3.1,4580],[3.1,4664],[3.1,4749],[3.1,4831],[3.1,4914],[3.1,4999],[3.1,5080],[3.1,5164],[3.1,5249],[3.1,5331],[3.1,5414],[3.1,5499],[3.1,5581],[3.1,5664],[3.1,5749],[3.1,5831],[3.1,5913],[3.1,5999],[3.1,6081],[3.1,6164],[3.1,6249],[3.1,6331],[3.1,6414],[3.1,6499],[3.1,6581],[3.1,6664],[3.1,6749],[3.1,6830],[3.1,6914],[3.1,6997],[3.1,7080],[3.1,7164],[3.1,7247],[3.1,7331],[3.1,7414],[3.1,7499],[3.1,7581],[3.1,7664],[3.1,7749],[3.1,7831],[3.1,7914]]",1,0,1048.682,1053.666,5.929721816,4.359,"[{""rating"":5.929721815519767,""responseTime"":4.359000000000151}]",space,4.433,,1053.667,Half the time,50,1070.597,50,12.021,"[{""rating"":49.70717423133236,""responseTime"":4.105000000000018},{""rating"":50,""responseTime"":12.020999999999958}]",space,0,5,5,5,1,audio/Narrative7Situation5.wav,audio/Narrative8Situation5.wav,audio/Narrative5Situation5.wav,audio/Narrative6Situation5.wav,5,2,5,2,,,16.391,,,,,,,,,,,,,,,,,,,,,,,,,,,,,,,,,,,,
,,,,,,5d75c56a52c89d0017df611c,2024-02-08_16h03.48.147,group3.1-3.2-social-tom,2023.2.2,Win32,60.0240096,65c5074098b851296ff0b7ed,65c5418c7304e12e1ac54dfa,,,,,,,,,,,,,,,,,,,,,,,,,,,,,1070.6,2,audio/Narrative6Situation6.wav,1072.614,,1072.614,1083.697,"[[47.1,3082],[47.1,3164],[47.1,3248],[42.4,3333],[37.8,3419],[35.1,3499],[34.8,3582],[34.8,3664],[34.8,3749],[34.6,3832],[31.1,3914],[29.8,3999],[29.1,4083],[29.1,4165],[28.3,4249],[25.7,4332],[23.8,4415],[23.4,4499],[23.4,4582],[23.4,4664],[23.4,4748],[23.4,4833],[23.4,4915],[23.4,4999],[23.4,5082],[23.4,5164],[23.4,5249],[23.4,5332],[23.4,5415],[23.4,5499],[23.4,5582],[23.4,5664],[23.4,5749],[23.4,5832],[23.4,5914],[23.4,5999],[23.4,6082],[23.4,6165],[22.8,6249],[22.6,6332],[22.6,6415],[22.6,6499],[22.6,6582],[22.5,6665],[21,6749],[19.4,6832],[18.7,6915],[17.8,6999],[14,7082],[11.3,7164],[10.2,7249],[9.3,7332],[9.2,7414],[9.2,7499],[9.2,7582],[9,7668],[7.2,7749],[6.7,7832],[5.8,7915],[5.1,7999],[4.8,8083],[4.3,8164],[3.9,8249],[3.9,8332],[3.9,8414],[3.9,8499],[3.7,8582],[3.4,8664],[3.1,8748],[3.1,8832],[3.1,8914],[2.6,9000],[2.6,9082],[2.6,9165],[2.1,9249],[2,9332],[2,9414],[2,9499],[2,9582],[2,9664],[2,9748],[2,9830],[2,9915],[2,9999],[2,10082],[2,10164],[2,10248],[2,10332],[2,10414],[2,10498],[2,10580],[2,10665],[2,10749],[2,10832],[2,10914],[2,10998],[2,11082]]",1,0,1083.697,1086.829,2.415812592,1.547,"[{""rating"":2.415812591508054,""responseTime"":1.5470000000000255}]",space,2.585,,1086.829,All the time,100,1086.839,,,[],,0,6,6,6,1,audio/Narrative7Situation6.wav,audio/Narrative8Situation6.wav,audio/Narrative5Situation6.wav,audio/Narrative6Situation6.wav,3,2,3,2,,,,,,,,,,,,,,,,,,,,,,,,,,,,,,,,,,,,,,,
,,,,,,5d75c56a52c89d0017df611c,2024-02-08_16h03.48.147,group3.1-3.2-social-tom,2023.2.2,Win32,60.0240096,65c5074098b851296ff0b7ed,65c5418c7304e12e1ac54dfa,,,,,,,,,,,,,,,,,,,,,,,,,,,,,1086.84,2,audio/Narrative6Situation7.wav,1091.846,,1091.848,1116.711,"[[2.1,2081],[1.8,2163],[1.7,2247],[1.7,2331],[1.7,2413],[1.7,2497],[2.3,2581],[2.7,2663],[3,2747],[3.1,2831],[3.1,2913],[3.1,2997],[3.1,3081],[3.1,3163],[3.1,3248],[3.1,3331],[3.1,3413],[3.1,3498],[3.1,3581],[3.1,3663],[3.4,3747],[3.4,3830],[3.4,3913],[3.4,3997],[3.4,4081],[3.6,4163],[3.6,4247],[3.6,4330],[3.6,4413],[3.6,4498],[3.6,4581],[3.6,4663],[3.6,4747],[3.6,4831],[3.6,4913],[3.6,4997],[3.6,5080],[3.6,5163],[3.6,5247],[3.7,5331],[3.7,5413],[3.7,5497],[3.7,5580],[3.7,5663],[3.7,5747],[3.7,5830],[3.7,5913],[3.7,5997],[3.7,6080],[3.7,6163],[3.7,6247],[3.7,6330],[3.7,6413],[3.7,6497],[3.7,6581],[3.1,6663],[2.9,6748],[2.9,6830],[2.6,6913],[2.6,6998],[2.6,7080],[2.6,7163],[2.6,7247],[2.6,7331],[2.6,7413],[2.6,7497],[2.6,7580],[2.6,7663],[2.6,7747],[2.6,7830],[2.6,7913],[2.6,7997],[2.6,8080],[2.6,8163],[2.6,8247],[2.6,8330],[2.6,8413],[2.6,8497],[2.6,8580],[2.6,8663],[2.6,8747],[2.6,8830],[2.6,8913],[2.6,8997],[2.6,9081],[2.6,9163],[2.6,9247],[2.6,9331],[2.6,9413],[2.6,9497],[2.6,9580],[2.6,9663],[2.6,9747],[2.6,9830],[2.6,9913],[2.6,9997],[2.6,10080],[2.6,10163],[2.6,10247],[2.6,10330],[2.6,10413],[2.6,10497],[2.6,10580],[2.6,10663],[2.6,10747],[2.6,10830],[2.6,10913],[2.6,10997],[2.6,11080],[2.6,11163],[2.6,11247],[2.6,11330],[2.6,11413],[2.6,11497],[2.6,11580],[2.6,11663],[2.6,11747],[2.6,11830],[2.6,11913],[2.6,11997],[2.6,12080],[2.6,12163],[2.6,12247],[2.6,12330],[2.6,12413],[2.6,12498],[2.6,12580],[2.6,12663],[2.6,12746],[2.6,12830],[2.6,12913],[2.6,12998],[2.6,13080],[2.6,13163],[2.6,13247],[2.6,13330],[2.6,13413],[2.6,13497],[2.6,13580],[2.6,13663],[2.6,13747],[2.6,13830],[2.6,13913],[2.6,13997],[2.6,14080],[2.6,14163],[2.6,14247],[2.6,14330],[2.6,14413],[2.6,14497],[2.6,14581],[2.6,14663],[2.6,14746],[2.6,14830],[2.6,14913],[2.6,14997],[2.6,15080],[2.6,15163],[2.6,15247],[2.6,15330],[2.6,15413],[2.6,15498],[2.6,15580],[2.6,15663],[2.6,15747],[2.6,15830],[2.9,15913],[4,15998],[17.9,16080],[30.4,16163],[31.6,16247],[31.6,16330],[31.6,16413],[35.9,16497],[53.5,16663],[60.8,16750],[64.5,16830],[64.6,16913],[64.6,16997],[64.6,17080],[64.6,17163],[65.7,17248],[67.6,17330],[69.9,17413],[71.8,17499],[75.6,17581],[78.6,17663],[79.6,17747],[79.6,17830],[79.6,17913],[79.6,17997],[79.6,18080],[79.6,18163],[79.7,18247],[79.7,18330],[79.7,18413],[79.7,18497],[79.7,18580],[79.7,18663],[79.7,18747],[79.7,18830],[79.7,18913],[79.7,18997],[79.7,19080],[79.7,19163],[79.7,19246],[79.7,19330],[79.7,19413],[79.7,19497],[79.7,19580],[79.7,19663],[79.7,19747],[79.7,19830],[79.7,19913],[79.7,19997],[79.7,20079],[79.7,20163],[79.7,20246],[79.7,20330],[79.7,20413],[79.7,20498],[79.7,20579],[79.7,20663],[79.7,20747],[79.7,20830],[79.7,20913],[79.7,20996],[79.7,21080],[79.7,21163],[79.7,21247],[79.7,21330],[79.7,21413],[79.7,21497],[79.7,21580],[79.7,21663],[79.7,21746],[79.7,21830],[79.7,21913],[79.7,21996],[79.7,22080],[79.7,22163],[79.7,22246],[79.7,22329],[79.7,22413],[79.7,22497],[79.7,22580],[79.7,22663],[79.7,22746],[79.7,22829],[79.7,22913],[79.7,22997],[79.7,23079],[79.7,23163],[79.7,23246],[79.7,23329],[79.7,23413],[79.7,23497],[79.7,23579],[79.7,23663],[79.7,23746],[79.7,23830],[79.7,23913],[79.7,23997],[79.7,24079],[79.7,24162],[79.7,24247],[79.7,24329],[79.7,24413],[79.7,24497],[79.7,24579],[79.7,24663],[79.7,24747],[79.7,24829]]",1,0,1116.712,1120.211,77.52562225,2.232,"[{""rating"":77.52562225475842,""responseTime"":2.231999999999971}]",space,2.954,,1120.211,Half the time,50,1120.22,,,[],,0,7,7,7,1,audio/Narrative7Situation7.wav,audio/Narrative8Situation7.wav,audio/Narrative5Situation7.wav,audio/Narrative6Situation7.wav,5,3,4,5,,,,,,,,,,,,,,,,,,,,,,,,,,,,,,,,,,,,,,,
,,,,,,5d75c56a52c89d0017df611c,2024-02-08_16h03.48.147,group3.1-3.2-social-tom,2023.2.2,Win32,60.0240096,65c5074098b851296ff0b7ed,65c5418c7304e12e1ac54dfa,,,,,,,,,,,,,,,,,,,,,,,,,,,,,1120.22,2,audio/Narrative6Situation8.wav,1125.228,,1125.23,1132.094,"[[40.9,2166],[28.2,2581],[26.4,2664],[26,2747],[25.8,2829],[25.8,2914],[25.8,2997],[25.8,3079],[25.8,3163],[25.8,3247],[29.2,3331],[33.2,3419],[33.6,3497],[33.6,3579],[33.7,3663],[33.7,3747],[33.9,3831],[41.7,3918],[69.2,3998],[71.1,4079],[71.1,4163],[71.1,4246],[71.1,4331],[69.3,4414],[68.2,4497],[67.1,4579],[66.7,4663],[66.4,4747],[66.3,4829],[66.3,4913],[66.3,4997],[66.3,5079],[66.3,5163],[66.3,5247],[66.3,5331],[66.4,5419],[67.3,5497],[67.7,5581],[67.7,5663],[67.7,5747],[67.7,5829],[67.9,5913],[67.9,5997],[67.9,6081],[67.9,6163],[67.9,6247],[67.9,6329],[67.9,6413],[67.9,6497],[67.9,6579],[67.9,6663],[67.9,6747],[67.9,6829]]",1,0,1132.096,1137.294,66.25183016,1.722,"[{""rating"":66.25183016105417,""responseTime"":1.72199999999998}]",space,4.649,,1137.295,All the time,100,1137.304,,,[],,0,8,8,8,1,audio/Narrative7Situation8.wav,audio/Narrative8Situation8.wav,audio/Narrative5Situation8.wav,audio/Narrative6Situation8.wav,2,3,3,5,,,,,,,,,,,,,,,,,,,,,,,,,,,,,,,,,,,,,,,
,,,,,,5d75c56a52c89d0017df611c,2024-02-08_16h03.48.147,group3.1-3.2-social-tom,2023.2.2,Win32,60.0240096,65c5074098b851296ff0b7ed,65c5418c7304e12e1ac54dfa,,,,,,,,,,,,,,,,,,,,,,,,,,,,,1137.305,2,audio/Narrative6Situation9.wav,1141.31,,1141.31,1151.259,"[[68.6,2000],[69,2083],[69,2166],[69,2250],[69,2333],[69,2416],[69,2500],[69,2583],[69,2666],[69,2749],[69,2832],[67.6,2917],[65.7,3000],[65.2,3083],[65.2,3166],[65.2,3249],[65.2,3333],[65.2,3416],[65.2,3499],[65.2,3583],[65.2,3666],[65.2,3750],[65.2,3833],[65.2,3916],[65.2,3999],[65.2,4083],[65.2,4166],[65.2,4250],[65.2,4333],[65.2,4417],[65.2,4499],[65.2,4583],[65.4,4666],[65.4,4750],[65.4,4833],[65.4,4916],[65.4,5000],[65.4,5083],[65.4,5166],[65.4,5250],[65.7,5333],[68,5416],[69.3,5499],[69.9,5583],[70.5,5666],[71.4,5750],[72.7,5833],[74.5,5917],[75.9,6000],[77.1,6083],[77.5,6166],[77.5,6249],[77.5,6333],[77.5,6416],[78.1,6500],[79.9,6583],[80.9,6666],[81.8,6750],[82.2,6833],[83.2,6916],[84.1,7000],[84.4,7083],[84.6,7166],[84.7,7250],[84.7,7333],[84.7,7416],[84.7,7499],[84.7,7583],[84.7,7666],[84.7,7749],[84.7,7833],[84.7,7916],[84.7,7999],[84.7,8083],[84.7,8166],[84.7,8249],[84.7,8333],[84.7,8416],[84.7,8499],[84.7,8582],[84.7,8666],[84.7,8749],[84.7,8832],[84.7,8916],[84.7,8999],[84.7,9082],[84.7,9166],[84.7,9250],[84.7,9332],[84.7,9416],[84.7,9499],[84.7,9582],[84.7,9666],[84.7,9749],[84.7,9833],[84.7,9916]]",1,0,1151.259,1154.209,76.64714495,1.591,"[{""rating"":76.64714494875548,""responseTime"":1.5910000000001219}]",space,2.42,,1154.211,Not at all,0,1154.22,,,[],,0,9,9,9,1,audio/Narrative7Situation9.wav,audio/Narrative8Situation9.wav,audio/Narrative5Situation9.wav,audio/Narrative6Situation9.wav,2,3,3,4,,,,,,,,,,,,,,,,,,,,,,,,,,,,,,,,,,,,,,,
,,,,,,5d75c56a52c89d0017df611c,2024-02-08_16h03.48.147,group3.1-3.2-social-tom,2023.2.2,Win32,60.0240096,65c5074098b851296ff0b7ed,65c5418c7304e12e1ac54dfa,,,,,,,,,,,,,,,,,,,,,,,,,,,,,1154.222,2,audio/Narrative5Situation1.wav,1159.225,,1159.225,1172.525,"[[64.9,2666],[49.3,2750],[47.4,2833],[46.8,2921],[45.6,3000],[45.8,3083],[49,3166],[49.7,3250],[50.1,3333],[50.1,3416],[50.1,3500],[50.1,3582],[50.1,3666],[50.1,3750],[50.1,3833],[50.1,3916],[50.1,4000],[50.1,4083],[50.1,4166],[50.1,4250],[50.1,4332],[50.1,4416],[50.1,4500],[50.1,4582],[50.1,4666],[50.1,4750],[50.1,4832],[50.1,4915],[50.1,5000],[50.1,5082],[50.1,5166],[50.1,5250],[50.1,5333],[50.1,5416],[50.1,5500],[50.1,5583],[50.1,5667],[50.1,5750],[50.1,5833],[50.1,5915],[50.1,6000],[50.1,6083],[50.1,6165],[50.1,6250],[50.1,6333],[50.1,6416],[50.1,6500],[50.1,6582],[50.1,6665],[50.1,6750],[50.1,6833],[50.1,6916],[50.1,7000],[50.1,7083],[48.4,7170],[41.1,7250],[36.8,7333],[34.3,7416],[29.5,7500],[23.1,7584],[21.2,7665],[21,7750],[21,7832],[21,7916],[21,8000],[21,8082],[21,8166],[21,8250],[21,8332],[21,8416],[21,8500],[21,8582],[21,8666],[21,8750],[21,8832],[21,8916],[21,9000],[21,9083],[21,9165],[21,9250],[21,9332],[21,9416],[21,9500],[21,9583],[21,9666],[21,9750],[21,9833],[21,9916],[21,10000],[21,10082],[21,10165],[21,10250],[21,10332],[21,10415],[21,10500],[21.2,10582],[21.2,10665],[21.2,10750],[21.4,10833],[22.2,10916],[23.2,11000],[23.6,11083],[23.6,11166],[23.8,11250],[24.1,11332],[24.5,11416],[25.3,11500],[26.3,11583],[28.2,11666],[29.9,11750],[30.7,11832],[31.3,11916],[31.4,12000],[31.4,12083],[31.4,12166],[31.4,12250],[31.4,12332],[31.4,12415],[31.4,12500],[31.4,12583],[31.4,12666],[31.4,12750],[31.4,12832],[31.4,12915],[31.4,13000],[31.4,13082],[31.4,13165],[31.4,13248]]",1,0,1172.526,1180.626,34.33382138,1.724,"[{""rating"":34.333821376281115,""responseTime"":1.7239999999999327}]",space,7.551,,1180.626,Half the time,50,1180.634,,,[],,0,10,10,10,1,audio/Narrative8Situation1.wav,audio/Narrative7Situation1.wav,audio/Narrative6Situation1.wav,audio/Narrative5Situation1.wav,5,2,2,5,,,,,,,,,,,,,,,,,,,,,,,,,,,,,,,,,,,,,,,
,,,,,,5d75c56a52c89d0017df611c,2024-02-08_16h03.48.147,group3.1-3.2-social-tom,2023.2.2,Win32,60.0240096,65c5074098b851296ff0b7ed,65c5418c7304e12e1ac54dfa,,,,,,,,,,,,,,,,,,,,,,,,,,,,,1180.634,2,audio/Narrative5Situation2.wav,1183.642,,1183.643,1213.108,"[[34.5,1664],[32.1,1748],[30.2,1835],[28.9,1918],[28,1998],[27.6,2082],[27.2,2163],[26.7,2248],[25.8,2335],[24.5,2413],[24.4,2498],[24.4,2582],[24.4,2664],[24.4,2748],[24.4,2832],[24.1,2913],[23.1,2999],[22.2,3083],[22.2,3164],[22.2,3247],[22.3,3333],[23.1,3414],[23.5,3498],[23.5,3580],[23.5,3663],[23.5,3747],[23.5,3830],[23.5,3914],[23.5,3998],[23.5,4082],[23.5,4164],[23.5,4248],[23.5,4330],[23.5,4413],[23.5,4497],[24.5,4584],[28.2,4664],[30.8,4748],[31.8,4833],[32.4,4913],[34.8,5000],[37.4,5083],[37.6,5163],[37.6,5247],[37.6,5332],[37.6,5413],[37.6,5498],[37.6,5582],[37.6,5663],[37.6,5748],[37.6,5830],[37.6,5913],[37.6,5997],[37.6,6082],[37.6,6163],[37.6,6247],[37.6,6330],[37.6,6413],[37.6,6497],[37.6,6582],[37.6,6664],[37.6,6748],[37.6,6830],[37.6,6913],[37.6,6998],[37.6,7080],[37.6,7163],[37.6,7248],[37.6,7332],[37.6,7414],[37.6,7498],[37.6,7580],[37.6,7664],[37.6,7748],[37.6,7835],[37.3,7914],[35.7,7998],[34.2,8084],[33,8163],[32.6,8247],[32.6,8330],[32.6,8413],[32.6,8498],[32.6,8580],[32.6,8663],[32.6,8747],[32.6,8832],[32.6,8913],[32.6,8997],[32.6,9080],[32.6,9163],[32.6,9248],[32.4,9332],[30.5,9414],[29.5,9497],[28.8,9585],[26.3,9664],[24.7,9748],[23.8,9832],[23.1,9914],[22.8,9998],[22.8,10080],[22.8,10163],[22.8,10247],[22.8,10332],[22.8,10413],[22.8,10498],[22.8,10580],[22.8,10663],[22.8,10747],[22.8,10830],[22.8,10913],[22.8,10997],[22.8,11080],[22.8,11163],[22.8,11247],[22.8,11330],[22.8,11413],[22.8,11497],[22.8,11580],[22.8,11663],[22.8,11747],[22.8,11830],[22.8,11913],[22.8,11997],[22.8,12080],[22.8,12163],[22.8,12247],[22.8,12332],[22.8,12413],[22.8,12498],[22.8,12579],[22.8,12663],[22.8,12748],[22.8,12830],[22.8,12913],[22.8,12997],[22.8,13080],[22.8,13163],[22.8,13248],[22.8,13330],[22.8,13413],[22.8,13497],[22.8,13579],[22.8,13663],[22.8,13747],[22.8,13830],[22.8,13913],[22.8,13997],[22.8,14080],[22.8,14163],[22.8,14247],[22.8,14330],[22.8,14413],[22.8,14498],[22.8,14580],[22.8,14663],[22.8,14747],[22.8,14829],[22.8,14913],[19.1,14998],[16.3,15082],[14.6,15163],[13.4,15247],[12.7,15329],[11.8,15414],[10.8,15498],[9.9,15580],[9.9,15663],[9.9,15747],[9.9,15832],[9.9,15913],[9.9,15997],[9.9,16079],[9.9,16163],[9.9,16247],[9.9,16330],[9.9,16413],[9.9,16497],[9.9,16580],[9.9,16663],[9.9,16747],[9.9,16829],[16.3,16915],[31.4,17163],[35.8,17247],[40.3,17332],[41.2,17413],[41.4,17497],[41.4,17579],[41.4,17663],[44,17747],[46,17834],[47.1,17913],[48.5,17998],[49.6,18083],[50.3,18163],[50.6,18247],[50.6,18329],[50.6,18413],[50.6,18497],[50.6,18580],[50.6,18663],[50.6,18747],[50.6,18832],[50.6,18913],[50.6,18997],[50.6,19080],[50.6,19163],[50.6,19247],[50.6,19329],[50.6,19413],[50.6,19497],[50.6,19579],[50.6,19663],[50.6,19747],[50.6,19830],[50.6,19913],[50.6,19997],[50.6,20080],[50.6,20163],[50.6,20247],[50.6,20330],[50.6,20413],[50.6,20497],[50.6,20579],[50.6,20663],[50.6,20747],[50.6,20829],[50.6,20913],[50.6,20997],[50.6,21079],[50.6,21163],[50.6,21247],[50.6,21329],[50.6,21413],[50.6,21497],[50.6,21580],[50.6,21663],[50.6,21747],[50.6,21829],[50.6,21913],[50.6,21997],[50.6,22079],[50.6,22163],[50.6,22247],[50.6,22330],[50.6,22413],[50.6,22497],[50.6,22579],[50.6,22663],[50.6,22747],[50.6,22829],[50.6,22913],[50.6,22996],[50.6,23079],[50.6,23163],[50.6,23247],[50.6,23329],[50.6,23413],[50.6,23497],[50.6,23580],[50.6,23663],[50.6,23747],[50.6,23829],[50.6,23913],[50.6,23997],[50.6,24079],[50.6,24163],[50.6,24247],[50.6,24329],[50.6,24413],[50.6,24497],[50.6,24579],[50.6,24663],[50.6,24747],[50.6,24829],[50.6,24913],[50.6,24997],[50.6,25079],[50.6,25163],[50.6,25247],[50.6,25329],[50.6,25413],[50.6,25497],[50.6,25579],[50.6,25663],[50.6,25747],[50.6,25829],[50.6,25913],[50.6,25997],[50.6,26079],[50.6,26163],[50.6,26247],[50.6,26329],[50.6,26413],[50.6,26497],[50.6,26579],[50.6,26663],[50.6,26747],[50.6,26829],[50.6,26913],[50.6,26997],[50.6,27079],[50.6,27163],[50.6,27247],[50.6,27329],[50.6,27413],[50.6,27496],[50.6,27579],[50.6,27663],[50.6,27746],[50.6,27829],[50.6,27913],[50.6,27996],[50.6,28079],[50.6,28163],[50.6,28247],[50.6,28329],[50.6,28413],[50.6,28496],[50.6,28578],[50.6,28663],[50.6,28746],[50.6,28829],[50.6,28913],[50.6,28997],[50.6,29079],[50.6,29163],[50.6,29247],[50.6,29329],[50.6,29413]]",1,0,1213.11,1218.673,49.41434846,2.905,"[{""rating"":49.41434846266471,""responseTime"":2.9049999999999727}]",space,5.017,,1218.673,All the time,100,1218.684,,,[],,0,11,11,11,1,audio/Narrative8Situation2.wav,audio/Narrative7Situation2.wav,audio/Narrative6Situation2.wav,audio/Narrative5Situation2.wav,3,3,3,3,,,,,,,,,,,,,,,,,,,,,,,,,,,,,,,,,,,,,,,
,,,,,,5d75c56a52c89d0017df611c,2024-02-08_16h03.48.147,group3.1-3.2-social-tom,2023.2.2,Win32,60.0240096,65c5074098b851296ff0b7ed,65c5418c7304e12e1ac54dfa,,,,,,,,,,,,,,,,,,,,,,,,,,,,,1218.684,2,audio/Narrative5Situation3.wav,1221.689,,1221.689,1235.606,"[[46.5,3000],[45.8,3082],[44.4,3167],[37.8,3250],[34.9,3334],[34.9,3415],[34.9,3500],[34.9,3582],[23.5,3666],[17.1,3750],[14.9,3834],[12.8,3926],[10.9,4000],[8.6,4084],[8,4166],[8,4250],[7.8,4334],[7.5,4415],[7.2,4500],[7.2,4584],[7.2,4666],[7.2,4750],[7.2,4832],[6.8,4916],[6.2,5000],[5.6,5084],[5.3,5165],[5.2,5250],[5.1,5332],[5.1,5415],[5.1,5500],[5.1,5582],[5.1,5665],[5.1,5750],[5.1,5834],[5.1,5916],[5.1,6000],[5.1,6082],[5.1,6165],[5.1,6249],[5.1,6332],[5.1,6415],[5.1,6500],[5.1,6582],[5.1,6665],[5.1,6749],[5.1,6832],[5.1,6916],[5.1,7000],[5.1,7082],[5.1,7165],[5.1,7249],[5.1,7334],[5.1,7416],[5.1,7500],[5.1,7582],[5.1,7665],[5.1,7750],[5.1,7832],[5.1,7915],[5.1,8000],[5.1,8082],[5.1,8166],[5.1,8250],[5.1,8332],[5.1,8415],[5.1,8499],[5.1,8582],[5.1,8665],[5.1,8749],[5.1,8832],[5.1,8916],[5.1,9000],[5.1,9082],[5.1,9165],[5.1,9249],[5.1,9332],[5.1,9415],[5.1,9499],[5.1,9582],[5.1,9665],[5.1,9750],[5.1,9832],[5.1,9915],[5.1,10000],[5.1,10082],[5.1,10165],[5.1,10250],[5.1,10332],[5.1,10416],[5.1,10500],[5.1,10582],[5.1,10666],[5.1,10750],[4.9,10832],[4.6,10915],[4.6,11000],[4.6,11082],[4.6,11165],[4.6,11250],[4.6,11332],[4.6,11415],[4.6,11499],[4.6,11582],[4.6,11665],[4.6,11750],[4.6,11831],[4.6,11915],[4.6,12000],[4.6,12082],[4.6,12165],[4.6,12250],[4.6,12331],[4.6,12415],[4.6,12499],[4.6,12581],[4.6,12666],[4.6,12750],[4.6,12832],[4.6,12915],[4.6,12999],[4.6,13082],[4.6,13165],[4.6,13250],[4.6,13332],[4.6,13415],[4.6,13499],[4.6,13582],[4.6,13665],[4.6,13749],[4.6,13832],[4.6,13916]]",1,0,1235.606,1239.421,3.294289898,2.843,"[{""rating"":3.2942898975109824,""responseTime"":2.8430000000000746}]",space,3.266,,1239.422,Not at all,0,1239.431,,,[],,0,12,12,12,1,audio/Narrative8Situation3.wav,audio/Narrative7Situation3.wav,audio/Narrative6Situation3.wav,audio/Narrative5Situation3.wav,4,8,5,3,,,,,,,,,,,,,,,,,,,,,,,,,,,,,,,,,,,,,,,
,,,,,,5d75c56a52c89d0017df611c,2024-02-08_16h03.48.147,group3.1-3.2-social-tom,2023.2.2,Win32,60.0240096,65c5074098b851296ff0b7ed,65c5418c7304e12e1ac54dfa,,,,,,,,,,,,,,,,,,,,,,,,,,,,,1239.431,2,audio/Narrative5Situation4.wav,1240.438,,1240.438,1260.838,"[[3.1,3916],[3,4000],[2.9,4082],[2.9,4165],[2.9,4250],[2.9,4332],[2.9,4416],[2.9,4500],[2.9,4583],[2.9,4666],[2.9,4750],[2.9,4832],[2.9,4915],[2.9,5000],[3,5083],[3.1,5168],[3.3,5250],[3.4,5333],[3.6,5416],[3.7,5499],[3.7,5582],[3.9,5665],[5.1,5750],[7,5833],[8.9,5917],[12.2,6000],[15.3,6083],[16.2,6166],[16.2,6250],[16.2,6332],[16.3,6415],[23.8,6500],[32,6583],[36.7,6666],[39.9,6750],[44.1,6832],[46.9,6916],[47.5,7000],[47.5,7082],[47.5,7166],[48,7250],[51.2,7333],[54.2,7416],[56.3,7501],[58.2,7583],[59.2,7666],[59.5,7750],[59.5,7833],[60,7917],[60,8000],[60,8082],[60.2,8166],[60.7,8250],[61,8332],[61,8416],[61,8500],[61,8582],[61,8666],[61,8750],[61,8832],[61,8916],[61,9000],[61,9082],[61,9166],[61,9250],[61,9332],[61,9415],[61.4,9500],[61.7,9582],[62,9665],[62,9750],[62.2,9832],[62.2,9915],[62.4,10000],[62.7,10082],[63.2,10168],[63.3,10250],[63.3,10332],[63.3,10416],[63.3,10500],[63.3,10582],[61.9,10666],[60.1,10749],[59.7,10831],[59.7,10916],[59.7,11000],[59.7,11082],[59.7,11166],[56.6,11250],[55.7,11333],[55.7,11415],[55,11500],[54,11582],[53.1,11668],[52.3,11750],[50,11833],[48.8,11915],[48.5,11999],[48.5,12082],[48.5,12165],[48.2,12250],[44.9,12332],[42.7,12419],[41.9,12499],[41.4,12582],[41.1,12667],[40.8,12750],[39.8,12833],[39.3,12916],[38.9,13000],[38.7,13082],[38.7,13167],[38.7,13250],[38.7,13332],[38.7,13415],[38.7,13500],[38.7,13582],[38.7,13666],[38.7,13750],[38.7,13832],[38.7,13915],[38.7,13999],[38.7,14082],[38.7,14166],[38.7,14249],[38.7,14332],[38.7,14416],[38.7,14499],[38.7,14582],[38.7,14665],[38.7,14750],[38.7,14832],[38.7,14916],[38.7,14999],[38.7,15082],[38.7,15165],[38.7,15249],[38.7,15332],[38.7,15415],[38.7,15499],[38.7,15582],[38.7,15665],[38.7,15749],[38.7,15832],[38.7,15915],[38.7,16000],[38.7,16081],[38.7,16167],[38.7,16250],[38.7,16332],[38.7,16416],[38.7,16499],[38.7,16581],[38.7,16665],[38.7,16750],[38.7,16832],[38.7,16916],[38.7,17000],[38.7,17082],[38.7,17166],[38.7,17249],[38.7,17331],[38.7,17416],[38.7,17499],[38.7,17581],[38.7,17666],[38.7,17750],[38.7,17832],[38.7,17916],[38.7,17999],[38.7,18082],[38.7,18166],[38.7,18249],[38.7,18331],[38.4,18415],[38,18499],[38,18581],[38,18665],[38,18749],[38,18832],[38,18915],[38,19000],[38,19082],[38,19167],[38,19250],[38,19332],[38,19415],[38,19499],[38,19581],[38,19666],[38,19750],[38,19832],[38,19915],[38,19999],[38,20081],[38,20166],[38,20249],[38,20332]]",1,0,1260.839,1264.705,38.87262079,1.487,"[{""rating"":38.872620790629576,""responseTime"":1.4869999999998527}]",space,3.319,,1264.707,Not at all,0,1264.714,,,[],,0,13,13,13,1,audio/Narrative8Situation4.wav,audio/Narrative7Situation4.wav,audio/Narrative6Situation4.wav,audio/Narrative5Situation4.wav,3,3,2,1,,,,,,,,,,,,,,,,,,,,,,,,,,,,,,,,,,,,,,,
,,,,,,5d75c56a52c89d0017df611c,2024-02-08_16h03.48.147,group3.1-3.2-social-tom,2023.2.2,Win32,60.0240096,65c5074098b851296ff0b7ed,65c5418c7304e12e1ac54dfa,,,,,,,,,,,,,,,,,,,,,,,,,,,,,1264.715,2,audio/Narrative5Situation5.wav,1269.721,,1269.721,1285.155,"[[36.7,1915],[30.4,1999],[28.6,2082],[28,2165],[27.6,2249],[27.6,2332],[27.6,2415],[27.6,2499],[27.6,2582],[27.6,2665],[26.4,2749],[25,2837],[23.8,2918],[22.2,3000],[20.6,3085],[19.1,3164],[18.1,3250],[17.8,3332],[17.8,3415],[17.8,3499],[17.8,3583],[17.8,3665],[17.8,3748],[17.8,3832],[17.8,3915],[17.6,3999],[17.2,4083],[17.2,4165],[17.2,4249],[17.2,4333],[17.2,4414],[16.5,4500],[13,4583],[12.4,4665],[12.4,4749],[12.4,4832],[12.4,4915],[12.4,4999],[12.4,5082],[11.8,5165],[11.5,5249],[11.5,5333],[11.5,5414],[11.5,5498],[10,5586],[9.3,5665],[8.9,5748],[8.9,5832],[8.9,5914],[8.4,6000],[8.1,6086],[8.1,6164],[8.1,6248],[8.1,6333],[8.1,6415],[8.1,6499],[8.1,6583],[8.1,6665],[8.1,6748],[8.1,6832],[8.1,6915],[8.1,6999],[8.1,7082],[8.1,7164],[8.1,7249],[8.1,7332],[8.1,7414],[8.1,7499],[8.1,7582],[8.1,7664],[8.1,7749],[8.1,7832],[8.1,7915],[8.1,7999],[8.1,8082],[8.1,8165],[8.1,8249],[8.1,8332],[8.1,8415],[8.1,8499],[8.1,8582],[8.1,8665],[8.1,8749],[8.1,8832],[8.1,8915],[8.1,8999],[8.1,9082],[8.1,9164],[8.1,9248],[8.1,9332],[8.1,9414],[8.1,9498],[8.1,9582],[8.1,9664],[8.1,9748],[8.1,9832],[8.1,9914],[8.1,9999],[8.1,10082],[8.1,10164],[8.1,10248],[8.1,10332],[8.1,10414],[8.1,10499],[8.1,10582],[8.1,10664],[8.1,10748],[8.1,10832],[8.1,10914],[8.1,10998],[8.1,11086],[8.1,11164],[7.1,11249],[6.7,11335],[6.5,11414],[6.5,11498],[6.5,11583],[6.5,11664],[6.5,11749],[6.5,11832],[6.5,11914],[6.5,11999],[6.8,12082],[7.1,12165],[7.8,12249],[8,12331],[8,12414],[8,12498],[8,12582],[8,12664],[8,12748],[8.4,12832],[16.5,12915],[23.5,12999],[27.7,13082],[32.4,13171],[34.9,13250],[35.1,13332],[35.1,13414],[35.1,13499],[35.1,13582],[38.6,13665],[44.9,13749],[49.3,13832],[53.5,13914],[57.5,14000],[59.4,14082],[60,14165],[60,14249],[60,14332],[60,14414],[60,14499],[60,14581],[60,14664],[60,14749],[60,14832],[60,14914],[60,14998],[60,15082],[60,15164],[60,15248],[60,15332],[60,15414]]",1,0,1285.157,1288.92,30.81991215,2.953,"[{""rating"":30.819912152269403,""responseTime"":2.9529999999999745}]",space,3.22,,1288.92,All the time,100,1288.932,,,[],,0,14,14,14,1,audio/Narrative8Situation5.wav,audio/Narrative7Situation5.wav,audio/Narrative6Situation5.wav,audio/Narrative5Situation5.wav,2,5,2,5,,,,,,,,,,,,,,,,,,,,,,,,,,,,,,,,,,,,,,,
,,,,,,5d75c56a52c89d0017df611c,2024-02-08_16h03.48.147,group3.1-3.2-social-tom,2023.2.2,Win32,60.0240096,65c5074098b851296ff0b7ed,65c5418c7304e12e1ac54dfa,,,,,,,,,,,,,,,,,,,,,,,,,,,,,1288.934,2,audio/Narrative5Situation6.wav,1291.936,,1291.936,1297.619,"[[28.2,1583],[17.5,1666],[13.8,1750],[11.6,1832],[10.5,1916],[9.9,2000],[9.4,2082],[9.3,2166],[9.3,2250],[9.3,2332],[9.3,2415],[9.3,2500],[9.3,2582],[9.3,2668],[9.3,2748],[9.3,2832],[9.3,2915],[9.3,2998],[9.3,3082],[9.3,3165],[9.3,3248],[9.3,3332],[8.7,3420],[6.8,3500],[5.6,3582],[5.5,3665],[5.5,3748],[5.5,3831],[5.5,3915],[5.5,4000],[5.5,4082],[5.1,4166],[4.9,4248],[4.9,4331],[4.9,4415],[5.6,4498],[6.1,4583],[6.8,4665],[8,4750],[9,4832],[9.4,4915],[9.6,4998],[9.7,5082],[9.7,5165],[10,5250],[10.8,5332],[10.9,5415],[10.9,5498],[10.9,5582],[10.9,5665]]",1,0,1297.62,1299.885,8.125915081,1.693,"[{""rating"":8.125915080527085,""responseTime"":1.6929999999999836}]",space,1.717,,1299.886,Half the time,50,1299.894,,,[],,0,15,15,15,1,audio/Narrative8Situation6.wav,audio/Narrative7Situation6.wav,audio/Narrative6Situation6.wav,audio/Narrative5Situation6.wav,2,3,2,3,,,,,,,,,,,,,,,,,,,,,,,,,,,,,,,,,,,,,,,
,,,,,,5d75c56a52c89d0017df611c,2024-02-08_16h03.48.147,group3.1-3.2-social-tom,2023.2.2,Win32,60.0240096,65c5074098b851296ff0b7ed,65c5418c7304e12e1ac54dfa,,,,,,,,,,,,,,,,,,,,,,,,,,,,,1299.895,2,audio/Narrative5Situation7.wav,1303.902,,1303.902,1324.951,"[[8,1833],[7,1916],[6.2,2000],[5.8,2083],[5.2,2165],[4.9,2249],[4.5,2333],[4,2415],[4,2500],[4,2583],[4,2665],[4,2750],[4,2833],[4,2915],[4,2999],[4,3083],[4,3165],[4,3250],[4,3333],[4,3416],[4,3499],[4,3583],[4,3665],[4,3750],[4,3833],[4,3915],[4,4000],[4,4083],[4,4165],[4,4249],[4,4333],[4,4415],[4,4500],[4,4583],[4,4665],[4,4750],[4,4833],[4,4915],[4,4999],[4,5083],[4,5165],[4,5250],[4,5333],[4,5415],[4,5500],[4,5583],[4,5665],[4,5749],[4,5833],[4,5915],[4,5999],[4,6082],[4,6165],[4,6250],[4,6332],[4,6415],[4,6500],[4,6582],[4,6666],[4,6749],[4,6832],[4,6915],[4,7000],[4,7083],[4,7165],[4,7249],[4,7333],[4,7415],[4,7499],[4,7583],[4,7665],[4,7750],[4,7833],[4,7915],[4,7999],[4,8082],[4,8165],[4,8250],[4,8333],[4,8415],[4,8499],[4,8582],[4,8665],[4,8750],[4,8833],[4,8915],[4.3,9005],[7,9084],[8,9165],[8.4,9250],[8.7,9333],[9.4,9415],[11.3,9499],[14,9586],[16.6,9665],[17.9,9750],[19.1,9833],[20,9916],[20.7,9999],[20.9,10083],[20.9,10165],[20.9,10249],[20.9,10332],[20.9,10415],[20.9,10499],[20.9,10583],[20.9,10665],[20.9,10749],[20.9,10833],[20.9,10915],[20.9,10999],[20.9,11082],[20.9,11165],[20.9,11249],[20.9,11333],[20.9,11415],[20.9,11499],[20.9,11582],[20.9,11665],[20.9,11749],[20.9,11833],[20.9,11915],[20.9,11999],[20.9,12083],[20.9,12165],[20.9,12249],[20.9,12333],[22.3,12415],[22.6,12499],[22.8,12583],[22.8,12664],[22.8,12749],[22.8,12833],[22.8,12914],[22.8,12999],[22.8,13083],[22.8,13165],[22.8,13249],[22.8,13332],[22.8,13414],[22.8,13499],[22.8,13582],[22.8,13664],[22.8,13749],[22.8,13832],[22.8,13915],[22.8,13999],[22.8,14082],[22.8,14164],[22.8,14249],[22.8,14332],[22.8,14414],[22.8,14499],[22.8,14583],[22.8,14665],[22.8,14749],[22.8,14832],[22.8,14914],[22.8,14999],[22.8,15083],[22.8,15165],[22.8,15249],[22.8,15333],[22.8,15415],[22.8,15499],[22.8,15582],[22.8,15665],[22.8,15749],[22.8,15833],[22.8,15915],[22.8,15999],[22.8,16082],[22.8,16164],[22.8,16249],[22.8,16333],[22.8,16415],[22.8,16499],[22.8,16583],[22.8,16665],[22.8,16749],[22.8,16832],[22.8,16915],[22.8,16999],[22.8,17083],[22.8,17165],[22.8,17249],[22.8,17333],[22.8,17414],[22.8,17499],[22.8,17583],[22.8,17665],[22.8,17749],[22.8,17833],[22.8,17915],[22.8,17999],[22.8,18082],[22.8,18165],[22.8,18249],[22.8,18333],[22.8,18414],[22.8,18499],[22.8,18583],[22.8,18664],[22.8,18749],[22.8,18832],[22.8,18914],[22.8,18999],[22.8,19083],[22.8,19164],[22.8,19249],[22.8,19333],[22.8,19414],[22.8,19499],[22.8,19582],[22.8,19664],[22.8,19749],[22.8,19832],[22.8,19914],[22.8,19999],[22.8,20082],[22.8,20164],[22.8,20249],[22.8,20333],[22.8,20415],[22.8,20498],[22.8,20582],[22.8,20665],[22.8,20749],[22.8,20833],[22.8,20914],[22.8,20999]]",1,0,1324.953,1327.468,21.30307467,1.491,"[{""rating"":21.30307467057101,""responseTime"":1.4909999999999854}]",space,1.975,,1327.468,Not at all,0,1327.478,,,[],,0,16,16,16,1,audio/Narrative8Situation7.wav,audio/Narrative7Situation7.wav,audio/Narrative6Situation7.wav,audio/Narrative5Situation7.wav,3,5,5,4,,,,,,,,,,,,,,,,,,,,,,,,,,,,,,,,,,,,,,,
,,,,,,5d75c56a52c89d0017df611c,2024-02-08_16h03.48.147,group3.1-3.2-social-tom,2023.2.2,Win32,60.0240096,65c5074098b851296ff0b7ed,65c5418c7304e12e1ac54dfa,,,,,,,,,,,,,,,,,,,,,,,,,,,,,1327.478,2,audio/Narrative5Situation8.wav,1330.484,,1330.485,1339.319,"[[20.4,1253],[19.3,1332],[19,1414],[18.8,1500],[18.8,1581],[18.8,1665],[18.8,1750],[18.8,1831],[18.8,1914],[18.8,2002],[18.8,2082],[18.7,2165],[18.5,2249],[18.5,2331],[18.5,2414],[18.5,2499],[18.5,2581],[18.5,2664],[17.6,2750],[14.9,2832],[13.4,2915],[12.7,3000],[12.4,3082],[11.9,3165],[11.8,3249],[11.2,3331],[10.6,3414],[10,3497],[10,3581],[10,3664],[10,3749],[10,3831],[10,3914],[10,4001],[10,4081],[9.7,4164],[9.2,4249],[9,4331],[9,4414],[9,4499],[9,4581],[9,4664],[9,4750],[9,4831],[9.2,4914],[9.3,5000],[9.3,5081],[9.4,5164],[9.6,5249],[9.6,5331],[9.7,5414],[9.7,5499],[9.7,5581],[9.7,5664],[9.7,5750],[9.7,5831],[9.7,5915],[9.9,5999],[9.9,6100],[9.9,6182],[9.9,6264],[9.9,6349],[9.9,6432],[9.9,6514],[9.9,6598],[9.9,6682],[9.9,6764],[9.9,6847],[9.9,6930],[9.9,7014],[9.9,7098],[9.9,7182],[9.9,7264],[9.9,7349],[9.9,7432],[9.9,7514],[9.9,7598],[9.9,7682],[9.9,7765],[9.9,7848],[9.9,7932],[9.9,8014],[9.9,8098],[9.9,8182],[9.9,8264],[9.9,8348],[9.9,8430],[9.9,8514],[9.9,8597],[9.9,8682],[9.9,8764]]",1,0,1339.32,1342.184,7.247437775,1.453,"[{""rating"":7.2474377745241565,""responseTime"":1.4529999999999745}]",space,2.319,,1342.186,Not at all,0,1342.192,,,[],,0,17,17,17,1,audio/Narrative8Situation8.wav,audio/Narrative7Situation8.wav,audio/Narrative6Situation8.wav,audio/Narrative5Situation8.wav,3,2,5,3,,,,,,,,,,,,,,,,,,,,,,,,,,,,,,,,,,,,,,,
