exp_question,consent.started,consent.stopped,consentResponse.keys,consentResponse.rt,consentResponse.duration,participantID,date,expName,psychopyVersion,OS,frameRate,STUDY_ID,SESSION_ID,opening1.started,opening1.stopped,keyEndingOpening1.keys,keyEndingOpening1.rt,keyEndingOpening1.duration,volumeAdjust.started,volumeAdjust.stopped,endingAdjust.keys,endingAdjust.rt,endingAdjust.duration,opening2.started,opening2.stopped,keyEndingOpening.keys,keyEndingOpening.rt,keyEndingOpening.duration,mouse.x,mouse.y,mouse.leftButton,mouse.midButton,mouse.rightButton,mouse.time,instructionLoop.thisRepN,instructionLoop.thisTrialN,instructionLoop.thisN,instructionLoop.thisIndex,instructionLoop.ran,readyForAudio.started,readyForAudio.stopped,fixation.started,run,audio_played,fixation.stopped,endPractice.keys,audioPre.started,audioPre.stopped,continuousResponses_audio,continuousSlider.response,continuousSlider.rt,intRating.started,intRating.stopped,intQuestionSlider.response,intQuestionSlider.rt,intQuestionSlider.history,confirmResponse.keys,confirmResponse.rt,confirmResponse.duration,catchQuestion.started,catch_label,catch_value,catchQuestion.stopped,catchQuestionSlider.response,catchQuestionSlider.rt,catchQuestionSlider.history,confirmResponse_2.keys,audioRunLoop.thisRepN,audioRunLoop.thisTrialN,audioRunLoop.thisN,audioRunLoop.thisIndex,audioRunLoop.ran,conditions1_1,conditions2_1,conditions1_2,conditions2_2,dur1_1,dur2_1,dur1_2,dur2_2,endPractice.rt,endPractice.duration,confirmResponse_2.rt,confirmResponse_2.duration,runIntervalBreak.started,runIntervalBreak.stopped,endingBreakKey.keys,endingBreakKey.rt,endingBreakKey.duration,connection.started,connection.stopped,connectionEnding.keys,connectionEnding.rt,connectionEnding.duration,readyForText.started,readyForText.stopped,textPre.started,run_dup,textPre.stopped,continuousResponses_text,textRunLoop.thisRepN,textRunLoop.thisTrialN,textRunLoop.thisN,textRunLoop.thisIndex,textRunLoop.ran,text1_1,text1_2,text2_1,text2_2,runBreakText.started,runBreakText.stopped,endingBreakKey_2.keys,endingBreakKey_2.rt,endingBreakKey_2.duration,ending.started,ending.stopped,endingEnding.keys,endingEnding.rt,endingEnding.duration
social,0,12.618,y,12.274,,5daca5b06aa37b00126c8d41,2024-02-08_11h52.39.855,group3.1-3.2-social-tom,2023.2.2,Win32,60.0240096,65c5074098b851296ff0b7ed,65c514c0025bb618405c2167,,,,,,,,,,,,,,,,,,,,,,,,,,,,,,,,,,,,,,,,,,,,,,,,,,,,,,,,,,,,,,,,,,,,,,,,,,,,,,,,,,,,,,,,,,,,,,,,,,,,,,,,,,
,,,,,,5daca5b06aa37b00126c8d41,2024-02-08_11h52.39.855,group3.1-3.2-social-tom,2023.2.2,Win32,60.0240096,65c5074098b851296ff0b7ed,65c514c0025bb618405c2167,12.618,32.993,space,20.307,,,,,,,,,,,,,,,,,,,,,,,,,,,,,,,,,,,,,,,,,,,,,,,,,,,,,,,,,,,,,,,,,,,,,,,,,,,,,,,,,,,,,,,,,,,,,,,,,,,,,,
,,,,,,5daca5b06aa37b00126c8d41,2024-02-08_11h52.39.855,group3.1-3.2-social-tom,2023.2.2,Win32,60.0240096,65c5074098b851296ff0b7ed,65c514c0025bb618405c2167,,,,,,32.993,72.417,space,39.091,,,,,,,,,,,,,,,,,,,,,,,,,,,,,,,,,,,,,,,,,,,,,,,,,,,,,,,,,,,,,,,,,,,,,,,,,,,,,,,,,,,,,,,,,,,,,,,,,
,,,,,,5daca5b06aa37b00126c8d41,2024-02-08_11h52.39.855,group3.1-3.2-social-tom,2023.2.2,Win32,60.0240096,65c5074098b851296ff0b7ed,65c514c0025bb618405c2167,,,,,,,,,,,72.437,85.594,space,13.123,,[],[],[],[],[],[],0,0,0,0,1,,,,,,,,,,,,,,,,,,,,,,,,,,,,,,,,,,,,,,,,,,,,,,,,,,,,,,,,,,,,,,,,,,,,,,,,,,,,,,,,
,,,,,,5daca5b06aa37b00126c8d41,2024-02-08_11h52.39.855,group3.1-3.2-social-tom,2023.2.2,Win32,60.0240096,65c5074098b851296ff0b7ed,65c514c0025bb618405c2167,,,,,,,,,,,85.598,121.939,space,36.205,,[],[],[],[],[],[],1,0,1,0,1,,,,,,,,,,,,,,,,,,,,,,,,,,,,,,,,,,,,,,,,,,,,,,,,,,,,,,,,,,,,,,,,,,,,,,,,,,,,,,,,
,,,,,,5daca5b06aa37b00126c8d41,2024-02-08_11h52.39.855,group3.1-3.2-social-tom,2023.2.2,Win32,60.0240096,65c5074098b851296ff0b7ed,65c514c0025bb618405c2167,,,,,,,,,,,121.946,150.483,space,28.465,,[-0.18625],[0.64],[1],[0],[0],[26.23999999999998],2,0,2,0,1,,,,,,,,,,,,,,,,,,,,,,,,,,,,,,,,,,,,,,,,,,,,,,,,,,,,,,,,,,,,,,,,,,,,,,,,,,,,,,,,
,,,,,,5daca5b06aa37b00126c8d41,2024-02-08_11h52.39.855,group3.1-3.2-social-tom,2023.2.2,Win32,60.0240096,65c5074098b851296ff0b7ed,65c514c0025bb618405c2167,,,,,,,,,,,150.487,177.24,space,26.705,,[],[],[],[],[],[],3,0,3,0,1,,,,,,,,,,,,,,,,,,,,,,,,,,,,,,,,,,,,,,,,,,,,,,,,,,,,,,,,,,,,,,,,,,,,,,,,,,,,,,,,
,,,,,,5daca5b06aa37b00126c8d41,2024-02-08_11h52.39.855,group3.1-3.2-social-tom,2023.2.2,Win32,60.0240096,65c5074098b851296ff0b7ed,65c514c0025bb618405c2167,,,,,,,,,,,177.243,193.033,space,15.756,,[],[],[],[],[],[],4,0,4,0,1,,,,,,,,,,,,,,,,,,,,,,,,,,,,,,,,,,,,,,,,,,,,,,,,,,,,,,,,,,,,,,,,,,,,,,,,,,,,,,,,
,,,,,,5daca5b06aa37b00126c8d41,2024-02-08_11h52.39.855,group3.1-3.2-social-tom,2023.2.2,Win32,60.0240096,65c5074098b851296ff0b7ed,65c514c0025bb618405c2167,,,,,,,,,,,,,,,,,,,,,,,,,,,193.036,195.613,195.657,1,audio/Narrative13Situation2.wav,197.662,,197.663,227.444,"[[999,7],[999,158],[999,233],[999,316],[999,400],[999,484],[999,566],[999,649],[999,733],[999,816],[999,899],[999,983],[999,1069],[999,1149],[999,1233],[999,1316],[999,1401],[999,1492],[999,1566],[999,1650],[999,1739],[999,1816],[999,1899],[999,1983],[999,2066],[999,2149],[999,2233],[999,2316],[999,2400],[999,2481],[999,2564],[999,2649],[999,2733],[999,2816],[999,2900],[999,2983],[999,3066],[999,3153],[999,3233],[999,3316],[999,3400],[999,3483],[999,3566],[999,3649],[999,3731],[999,3816],[999,3900],[999,3983],[999,4066],[999,4147],[999,4231],[999,4316],[999,4397],[999,4481],[999,4566],[999,4650],[999,4731],[999,4814],[999,4899],[999,4981],[999,5064],[999,5149],[999,5233],[999,5314],[999,5397],[999,5481],[999,5564],[999,5649],[999,5731],[999,5814],[999,5897],[999,5980],[999,6064],[999,6151],[999,6231],[999,6314],[999,6399],[999,6480],[999,6569],[999,6647],[999,6730],[999,6814],[999,6897],[999,6980],[999,7064],[999,7147],[999,7230],[999,7316],[999,7399],[999,7481],[999,7568],[999,7647],[999,7730],[999,7813],[999,7897],[999,7980],[999,8063],[999,8152],[999,8232],[999,8314],[999,8400],[999,8482],[999,8564],[92.6,8647],[94.4,8730],[97.8,8813],[98,8897],[99,8983],[99.5,9063],[99.5,9147],[99.5,9229],[99.5,9313],[99.5,9400],[99.5,9479],[99.5,9563],[99.5,9647],[99.5,9730],[99.5,9813],[99.5,9896],[99.5,9980],[99.5,10063],[99.5,10146],[99.5,10230],[99.5,10313],[99.5,10396],[99.5,10479],[99.5,10562],[99.5,10647],[99.5,10729],[99.5,10812],[99.5,10896],[99.5,10979],[99.5,11063],[99.5,11146],[99.5,11229],[99.5,11312],[99.5,11396],[99.5,11479],[99.5,11562],[99.5,11646],[99.5,11729],[99.5,11813],[99.5,11896],[99.5,11979],[99.5,12062],[99.5,12146],[99.5,12229],[99.5,12312],[99.5,12395],[99.5,12479],[99.5,12562],[99.5,12646],[99.5,12729],[99.5,12813],[99.5,12896],[99.5,12978],[99.5,13062],[99.5,13146],[99.5,13228],[99.5,13312],[99.5,13396],[99.5,13479],[99.5,13562],[99.5,13645],[99.5,13729],[99.5,13812],[99.5,13895],[99.5,13978],[99.5,14061],[99.5,14145],[100,14233],[100,14312],[100,14395],[100,14478],[100,14562],[100,14645],[100,14728],[100,14814],[100,14895],[100,14979],[100,15061],[100,15145],[100,15228],[100,15311],[100,15395],[100,15478],[100,15562],[100,15645],[100,15728],[100,15812],[100,15895],[100,15978],[100,16061],[100,16144],[100,16228],[100,16311],[100,16394],[100,16478],[100,16561],[100,16645],[100,16728],[100,16811],[100,16894],[100,16978],[100,17061],[100,17144],[100,17227],[100,17312],[100,17395],[100,17478],[100,17561],[100,17645],[100,17728],[100,17810],[100,17895],[100,17977],[100,18061],[100,18144],[100,18228],[100,18311],[100,18394],[100,18478],[100,18561],[100,18644],[100,18727],[100,18811],[100,18897],[100,18978],[100,19060],[100,19150],[100,19228],[100,19310],[100,19394],[100,19477],[100,19560],[100,19644],[100,19728],[100,19810],[100,19894],[100,19990],[100,20062],[100,20144],[100,20227],[100,20311],[100,20394],[100,20477],[100,20560],[100,20644],[100,20727],[100,20822],[100,20894],[100,20980],[100,21060],[100,21144],[100,21229],[100,21310],[100,21394],[100,21477],[100,21560],[100,21644],[100,21727],[100,21810],[100,21894],[100,21977],[100,22060],[100,22144],[100,22227],[100,22310],[100,22394],[100,22477],[100,22560],[100,22644],[100,22728],[100,22811],[100,22894],[100,22977],[100,23060],[100,23144],[100,23227],[100,23310],[100,23394],[100,23477],[100,23560],[100,23644],[100,23727],[100,23810],[100,23894],[100,23977],[100,24060],[100,24143],[100,24227],[100,24310],[100,24393],[100,24476],[100,24560],[100,24643],[100,24727],[100,24810],[100,24894],[100,24976],[100,25060],[100,25143],[100,25239],[100,25327],[100,25408],[100,25492],[100,25575],[100,25659],[100,25742],[100,25827],[100,25929],[100,26009],[100,26092],[100,26176],[100,26258],[100,26347],[100,26425],[100,26509],[100,26592],[100,26675],[100,26759],[100,26842],[100,26926],[100,27009],[100,27092],[100,27175],[100,27258],[100,27341],[100,27425],[100,27508],[100,27591],[100,27675],[100,27758],[100,27842],[100,27925],[100,28008],[100,28092],[100,28175],[100,28258],[100,28342],[100,28425],[100,28508],[100,28592],[100,28675],[100,28758],[100,28841],[100,28924],[100,29008],[100,29091],[100,29174],[100,29258],[100,29341],[100,29425],[100,29508],[100,29592],[100,29675],[100,29757]]",1,0,227.444,239.018,4.625,9.422,"[{""rating"":4.625000000000002,""responseTime"":9.421999999999997}]",space,11.029,,239.02,Partially,50,239.032,,,[],,0,0,0,0,1,audio/Narrative13Situation2.wav,audio/Narrative13Situation2.wav,audio/Narrative13Situation2.wav,audio/Narrative13Situation2.wav,2,2,2,2,,,,,,,,,,,,,,,,,,,,,,,,,,,,,,,,,,,,,,,
,,,,,,5daca5b06aa37b00126c8d41,2024-02-08_11h52.39.855,group3.1-3.2-social-tom,2023.2.2,Win32,60.0240096,65c5074098b851296ff0b7ed,65c514c0025bb618405c2167,,,,,,,,,,,,,,,,,,,,,,,,,,,,,239.033,1,audio/Narrative8Situation1.wav,242.542,space,242.543,258.486,"[[999,2],[999,93],[999,174],[999,257],[999,341],[999,424],[999,507],[999,591],[999,673],[999,757],[999,841],[999,923],[999,1007],[999,1091],[999,1173],[999,1260],[999,1340],[999,1424],[999,1508],[999,1590],[999,1672],[999,1756],[999,1840],[999,1924],[999,2008],[999,2090],[999,2174],[999,2256],[999,2340],[999,2424],[999,2506],[999,2590],[999,2672],[999,2758],[999,2840],[999,2922],[999,3006],[999,3090],[999,3172],[999,3258],[999,3340],[999,3422],[999,3506],[999,3590],[999,3674],[999,3758],[999,3840],[999,3922],[999,4006],[999,4088],[999,4174],[999,4258],[999,4342],[999,4422],[999,4506],[999,4590],[999,4672],[999,4756],[999,4838],[999,4921],[999,5006],[999,5090],[999,5174],[999,5256],[999,5344],[999,5422],[999,5504],[999,5588],[999,5671],[999,5754],[999,5838],[999,5924],[999,6006],[999,6088],[999,6172],[999,6256],[999,6338],[999,6421],[999,6506],[999,6588],[999,6671],[999,6756],[999,6838],[999,6921],[999,7004],[999,7087],[999,7171],[999,7256],[999,7338],[999,7421],[999,7506],[999,7588],[999,7671],[999,7756],[999,7838],[999,7921],[999,8004],[999,8088],[999,8171],[999,8256],[999,8340],[999,8421],[999,8504],[999,8587],[999,8670],[999,8754],[999,8837],[999,8921],[999,9004],[999,9088],[999,9171],[999,9254],[999,9338],[999,9422],[999,9506],[999,9593],[999,9671],[999,9758],[999,9837],[89.4,9922],[91,10006],[93.3,10088],[96.5,10174],[98,10254],[99.6,10337],[100,10421],[100,10503],[100,10587],[100,10671],[100,10754],[100,10837],[100,10920],[100,11004],[100,11087],[100,11170],[100,11254],[100,11337],[100,11420],[100,11503],[100,11587],[100,11676],[100,11753],[100,11837],[100,11920],[100,12003],[100,12087],[100,12170],[100,12253],[100,12337],[100,12420],[100,12503],[100,12587],[100,12670],[100,12753],[100,12837],[100,12919],[100,13010],[100,13092],[100,13169],[100,13253],[100,13337],[100,13419],[100,13503],[100,13588],[100,13670],[100,13753],[100,13840],[100,13920],[100,14003],[100,14087],[100,14170],[100,14253],[100,14337],[100,14419],[100,14503],[100,14587],[100,14669],[100,14753],[100,14837],[100,14919],[100,15003],[100,15087],[100,15169],[100,15253],[100,15337],[100,15419],[100,15503],[100,15585],[100,15669],[100,15753],[100,15837],[100,15920]]",1,0,258.487,267.311,100,7.148,"[{""rating"":99.25,""responseTime"":6.402999999999963},{""rating"":100,""responseTime"":7.147999999999968}]",space,8.281,,267.315,Not at all,0,267.323,,,[],,0,1,1,1,1,audio/Narrative7Situation1.wav,audio/Narrative8Situation1.wav,audio/Narrative5Situation1.wav,audio/Narrative6Situation1.wav,2,5,5,2,3.49,,,,,,,,,,,,,,,,,,,,,,,,,,,,,,,,,,,,,,
,,,,,,5daca5b06aa37b00126c8d41,2024-02-08_11h52.39.855,group3.1-3.2-social-tom,2023.2.2,Win32,60.0240096,65c5074098b851296ff0b7ed,65c514c0025bb618405c2167,,,,,,,,,,,,,,,,,,,,,,,,,,,,,267.324,1,audio/Narrative8Situation2.wav,270.327,,270.327,280.474,"[[999,5],[999,98],[999,182],[999,265],[999,348],[999,432],[999,515],[999,599],[999,683],[999,765],[999,848],[999,932],[999,1015],[999,1098],[999,1182],[999,1264],[999,1348],[999,1431],[999,1514],[999,1598],[999,1681],[999,1764],[999,1848],[999,1934],[999,2014],[999,2098],[999,2181],[999,2271],[999,2348],[999,2432],[999,2514],[999,2598],[999,2681],[999,2764],[999,2853],[999,2931],[999,3014],[999,3098],[999,3181],[999,3264],[999,3348],[999,3440],[999,3514],[999,3597],[999,3681],[999,3763],[999,3847],[999,3931],[999,4014],[999,4098],[999,4181],[999,4264],[999,4347],[999,4430],[999,4514],[999,4597],[999,4680],[999,4764],[999,4847],[999,4931],[999,5013],[999,5098],[999,5183],[999,5264],[999,5347],[999,5432],[999,5514],[999,5596],[999,5680],[999,5764],[999,5848],[999,5930],[999,6013],[999,6097],[999,6180],[999,6263],[999,6346],[999,6430],[999,6513],[999,6597],[999,6680],[999,6764],[999,6847],[999,6930],[999,7013],[999,7097],[999,7179],[999,7263],[999,7346],[999,7430],[999,7513],[999,7596],[999,7680],[999,7763],[999,7847],[999,7930],[999,8013],[999,8097],[999,8180],[999,8263],[999,8346],[999,8430],[999,8513],[999,8596],[999,8680],[999,8768],[999,8847],[999,8930],[999,9014],[0.3,9103]]",1,0,280.475,286.707,0.125,4.939,"[{""rating"":0.12499999999999734,""responseTime"":4.9389999999999645}]",space,5.69,,286.707,Not at all,0,286.719,,,[],,0,2,2,2,1,audio/Narrative7Situation2.wav,audio/Narrative8Situation2.wav,audio/Narrative5Situation2.wav,audio/Narrative6Situation2.wav,3,3,3,3,,,,,,,,,,,,,,,,,,,,,,,,,,,,,,,,,,,,,,,
,,,,,,5daca5b06aa37b00126c8d41,2024-02-08_11h52.39.855,group3.1-3.2-social-tom,2023.2.2,Win32,60.0240096,65c5074098b851296ff0b7ed,65c514c0025bb618405c2167,,,,,,,,,,,,,,,,,,,,,,,,,,,,,286.72,1,audio/Narrative8Situation3.wav,290.721,,290.721,313.1,"[[999,8],[999,100],[999,183],[999,266],[999,350],[999,433],[999,516],[999,600],[999,683],[999,766],[999,850],[999,933],[999,1016],[999,1100],[49,1184],[49,1270],[49,1350],[49,1433],[49.1,2350],[49,2433],[48.8,2516],[48.8,2600],[48.8,2683],[48.8,2766],[48.8,2849],[48.8,2932],[48.8,3016],[48.8,3100],[48.8,3183],[48.8,3266],[48.8,3350],[48.8,3433],[48.8,3516],[48.8,3599],[48.8,3682],[48.8,3766],[48.8,3849],[48.8,3932],[49.3,4016],[49.5,4099],[49.5,4183],[49.5,4266],[49.5,4349],[49.5,4433],[49.5,4516],[49.5,4599],[49.5,4682],[39,4765],[35.8,4849],[35.8,4932],[35.3,5016],[34.9,5099],[34.6,5183],[32.9,5269],[30.9,5349],[30.6,5433],[30.6,5515],[29.3,5600],[27.8,5688],[22,5766],[21.9,5849],[21.9,5932],[22.2,6016],[22.5,6099],[22.5,6181],[22.5,6265],[22.5,6349],[22.5,6432],[22.5,6515],[22.5,6599],[22.5,6681],[22.5,6765],[22.2,6849],[22.2,6931],[22.2,7015],[21.9,7100],[21.9,7181],[21.1,7271],[15.4,7349],[3.6,7434],[1.5,7514],[1.5,7598],[0.1,7687],[2.8,18513],[2.8,18596],[1.8,18681],[0.4,18762],[0.4,18845],[0.4,18929],[0.3,19012]]",1,0,313.102,319.485,0,4.692,"[{""rating"":0.12499999999999734,""responseTime"":4.20599999999996},{""rating"":0,""responseTime"":4.692000000000007}]",space,5.836,,319.486,Definitely yes,100,319.512,,,[],,0,3,3,3,1,audio/Narrative7Situation3.wav,audio/Narrative8Situation3.wav,audio/Narrative5Situation3.wav,audio/Narrative6Situation3.wav,8,4,3,5,,,,,,,,,,,,,,,,,,,,,,,,,,,,,,,,,,,,,,,
,,,,,,5daca5b06aa37b00126c8d41,2024-02-08_11h52.39.855,group3.1-3.2-social-tom,2023.2.2,Win32,60.0240096,65c5074098b851296ff0b7ed,65c514c0025bb618405c2167,,,,,,,,,,,,,,,,,,,,,,,,,,,,,319.512,1,audio/Narrative8Situation4.wav,322.514,,322.514,336.694,"[[999,8],[999,98],[999,182],[999,266],[999,348],[999,432],[999,516],[999,598],[999,682],[999,769],[999,848],[999,932],[999,1018],[999,1102],[999,1182],[999,1266],[999,1348],[999,1432],[999,1523],[999,1598],[999,1684],[999,1765],[999,1848],[999,1932],[999,2015],[999,2100],[999,2182],[50.8,2268],[50.6,2348],[50.5,2438],[50.4,2515],[50.4,2598],[50.4,2682],[50.1,2769],[49.9,2848],[49.9,2932],[49.9,3015],[49.9,3098],[49.9,3182],[49.9,3265],[49.9,3348],[49.9,3432],[49.9,3515],[49.9,3598],[49.9,3681],[49.9,3764],[49.9,3848],[49.9,3932],[49.9,4014],[49.9,4098],[49.9,4181],[49.9,4265],[49.9,4348],[49.9,4431],[49.9,4515],[49.9,4597],[49.9,4681],[49.9,4765],[49.9,4847],[49.9,4931],[49.9,5015],[49.9,5098],[49.9,5181],[49.9,5265],[49.9,5348],[49.9,5431],[49.9,5514],[49.9,5597],[49.9,5680],[49.9,5764],[49.9,5847],[49.9,5931],[49.9,6014],[49.9,6097],[49.9,6181],[49.9,6265],[49.9,6348],[49.9,6430],[49.9,6514],[49.9,6597],[49.9,6680],[49.9,6764],[49.9,6847],[49.9,6931],[49.9,7013],[49.9,7097],[49.9,7181],[49.9,7264],[49.9,7347],[49.9,7438],[49.9,7514],[49.9,7597],[49.9,7680],[49.9,7766],[50.4,7848],[51.3,7930],[51.9,8013],[52.1,8100],[52.5,8180],[52.6,8263],[52.6,8354],[52.6,8430],[52.6,8514],[52.6,8596],[52.6,8680],[52.6,8764],[52.6,8847],[52.6,8929],[52.6,9014],[52.6,9097],[52.6,9180],[52.6,9263],[52.6,9346],[52.6,9430],[52.6,9513],[52.6,9596],[52.6,9679],[52.6,9763],[52.6,9846],[52.6,9934],[52.6,10013],[52.6,10096],[52.6,10180],[52.6,10263],[52.6,10346],[52.6,10430],[52.6,10514],[52.6,10596],[52.9,10680],[53.3,10763],[53.4,10846],[53.4,10930],[53.4,11016],[53.4,11096],[53.8,11180],[54,11263],[54.1,11346],[54.1,11430],[54.3,11514],[54.4,11596],[54.4,11679],[54.4,11762],[54.4,11846],[54.4,11929],[54.8,12013],[57,12098],[59.6,12180],[60.3,12263],[60.3,12347],[60.3,12429],[60.9,12519],[62.9,12596],[63.5,12679],[63.5,12762],[63.5,12846],[63.5,12929],[63.5,13013],[63.5,13096],[72.4,13181],[88,13270],[89,13348],[98.6,13429],[100,13512],[100,13596],[100,13679],[96.6,13762],[94.9,13846],[95.5,13934],[96.3,14012],[96.3,14096],[96.3,14179]]",1,0,336.696,344.975,85.125,7.927,"[{""rating"":79.25,""responseTime"":4.4879999999999995},{""rating"":74.75,""responseTime"":6.055000000000007},{""rating"":85.125,""responseTime"":7.926999999999964}]",space,7.734,,344.975,Definitely yes,100,344.986,,,[],,0,4,4,4,1,audio/Narrative7Situation4.wav,audio/Narrative8Situation4.wav,audio/Narrative5Situation4.wav,audio/Narrative6Situation4.wav,3,3,1,2,,,,,,,,,,,,,,,,,,,,,,,,,,,,,,,,,,,,,,,
,,,,,,5daca5b06aa37b00126c8d41,2024-02-08_11h52.39.855,group3.1-3.2-social-tom,2023.2.2,Win32,60.0240096,65c5074098b851296ff0b7ed,65c514c0025bb618405c2167,,,,,,,,,,,,,,,,,,,,,,,,,,,,,344.987,1,audio/Narrative8Situation5.wav,346.991,,346.991,355.224,"[[999,5],[999,103],[999,182],[999,265],[999,349],[999,432],[999,521],[999,597],[999,682],[999,764],[999,848],[999,931],[999,1014],[999,1103],[999,1181],[999,1264],[999,1348],[999,1431],[999,1515],[999,1598],[999,1681],[999,1765],[999,1848],[999,1931],[999,2014],[999,2097],[999,2181],[999,2264],[999,2347],[999,2431],[999,2514],[999,2621],[999,2704],[999,2781],[999,2865],[999,2949],[95.9,3040],[96.3,3115],[98.3,3200],[98.5,3281],[99,3365],[99.4,3454],[99.4,3531],[99.4,3615],[100,3697],[100,3781],[100,3867],[100,3947],[100,4031],[100,4113],[100,4201],[100,4282],[100,4363],[100,4454],[100,4531],[100,4615],[100,4700],[100,4781],[100,4866],[100,4947],[100,5031],[100,5113],[100,5197],[100,5281],[100,5365],[100,5447],[100,5531],[100,5613],[100,5697],[100,5781],[100,5863],[100,5947],[100,6031],[100,6113],[100,6197],[100,6279],[100,6363],[100,6447],[100,6531],[100,6613],[100,6697],[100,6781],[100,6863],[100,6947],[100,7031],[100,7113],[100,7197],[100,7281],[100,7363],[100,7447],[100,7529],[100,7613],[100,7697],[100,7779],[100,7863],[100,7947],[100,8029],[100,8113],[100,8197]]",1,0,355.227,365.304,94.125,9.652,"[{""rating"":49.5,""responseTime"":5.901999999999987},{""rating"":63.74999999999999,""responseTime"":7.665999999999997},{""rating"":94.12499999999999,""responseTime"":9.651999999999987}]",space,9.533,,365.305,Not at all,0,365.327,,,[],,0,5,5,5,1,audio/Narrative7Situation5.wav,audio/Narrative8Situation5.wav,audio/Narrative5Situation5.wav,audio/Narrative6Situation5.wav,5,2,5,2,,,,,,,,,,,,,,,,,,,,,,,,,,,,,,,,,,,,,,,
,,,,,,5daca5b06aa37b00126c8d41,2024-02-08_11h52.39.855,group3.1-3.2-social-tom,2023.2.2,Win32,60.0240096,65c5074098b851296ff0b7ed,65c514c0025bb618405c2167,,,,,,,,,,,,,,,,,,,,,,,,,,,,,365.328,1,audio/Narrative8Situation6.wav,367.335,,367.336,373.834,"[[999,2],[999,98],[999,182],[999,266],[999,348],[999,432],[999,514],[999,598],[999,682],[999,764],[999,848],[999,932],[999,1016],[999,1098],[999,1182],[999,1264],[999,1348],[999,1431],[999,1520],[999,1598],[999,1681],[999,1766],[999,1848],[999,1932],[999,2016],[999,2102],[999,2182],[999,2271],[999,2350],[999,2432],[999,2514],[999,2598],[999,2682],[999,2764],[999,2848],[999,2932],[999,3014],[999,3098],[999,3182],[999,3264],[999,3348],[999,3431],[999,3514],[999,3598],[999,3681],[999,3764],[999,3848],[999,3931],[999,4014],[999,4097],[999,4181],[999,4264],[999,4347],[999,4431],[999,4514],[999,4598],[999,4680],[999,4764],[999,4848],[999,4931],[999,5014],[999,5098],[999,5181],[999,5264],[999,5348],[999,5430],[999,5514],[999,5597],[999,5681],[999,5766],[999,5847],[999,5937],[55.9,6014],[78.3,6104],[85.5,6181],[86.1,6264],[86.3,6350],[85.9,6431]]",1,0,373.835,379.849,49.875,4.896,"[{""rating"":50.24999999999999,""responseTime"":3.44399999999996},{""rating"":49.875,""responseTime"":4.895999999999958}]",space,5.47,,379.851,Partially,50,379.865,,,[],,0,6,6,6,1,audio/Narrative7Situation6.wav,audio/Narrative8Situation6.wav,audio/Narrative5Situation6.wav,audio/Narrative6Situation6.wav,3,2,3,2,,,,,,,,,,,,,,,,,,,,,,,,,,,,,,,,,,,,,,,
,,,,,,5daca5b06aa37b00126c8d41,2024-02-08_11h52.39.855,group3.1-3.2-social-tom,2023.2.2,Win32,60.0240096,65c5074098b851296ff0b7ed,65c514c0025bb618405c2167,,,,,,,,,,,,,,,,,,,,,,,,,,,,,379.866,1,audio/Narrative8Situation7.wav,382.885,,382.886,394.979,"[[999,7],[999,110],[999,194],[999,278],[999,362],[999,444],[999,528],[999,615],[999,694],[999,778],[999,865],[999,946],[999,1028],[999,1112],[999,1194],[999,1276],[999,1362],[999,1444],[999,1528],[999,1612],[999,1694],[999,1778],[999,1862],[999,1944],[999,2028],[999,2112],[999,2194],[51,2281],[50.3,2362],[50.1,2444],[50,2526],[50,2610],[50,2694],[50,2776],[50,2860],[50,2944],[50,3028],[50,3110],[50,3194],[50,3278],[50,3360],[49.9,3444],[49.9,3526],[49.9,3610],[49.9,3694],[49.9,3776],[49.9,3860],[49.9,3944],[49.9,4026],[49.9,4115],[49.9,4194],[49.9,4276],[49.9,4360],[49.9,4442],[49.9,4526],[49.9,4610],[49.9,4694],[49.9,4776],[49.9,4860],[49.9,4952],[49.9,5026],[49.9,5110],[49.9,5194],[49.9,5276],[49.9,5360],[49.9,5442],[49.9,5526],[49.9,5610],[49.9,5694],[49.9,5776],[49.9,5858],[49.9,5942],[49.9,6026],[49.9,6110],[49.9,6192],[49.9,6276],[49.9,6360],[49.9,6444],[49.9,6526],[49.9,6610],[49.9,6694],[49.9,6776],[49.9,6860],[49.9,6942],[49.9,7026],[49.8,7110],[49.1,7194],[49.1,7276],[49.1,7360],[49.1,7444],[49.1,7526],[49.1,7610],[49.1,7692],[49.1,7776],[49.1,7858],[49.1,7942],[49.1,8026],[49.1,8110],[49.1,8192],[49.1,8276],[49.1,8360],[49.1,8442],[49.1,8526],[49.1,8608],[49.1,8692],[49.1,8776],[49.1,8858],[49.1,8942],[49.1,9024],[49.1,9108],[49.1,9192],[49,9278],[48.4,9358],[47.9,9444],[46.6,9526],[45.9,9608],[45,9694],[44.4,9774],[43.9,9858],[43.4,9944],[42.8,10026],[41.6,10110],[40.5,10192],[39.4,10276],[37.4,10362],[35.1,10449],[32.9,10528],[32.3,10615],[31.8,10692],[31.8,10776],[31.8,10858],[31.1,10942],[29.9,11026],[26.5,11110],[21.6,11192],[17.6,11278],[5.6,11360]]",1,0,394.983,399.444,0,3.305,"[{""rating"":0.37499999999999756,""responseTime"":2.870999999999981},{""rating"":0,""responseTime"":3.305000000000007}]",space,3.92,,399.444,Not at all,0,399.457,,,[],,0,7,7,7,1,audio/Narrative7Situation7.wav,audio/Narrative8Situation7.wav,audio/Narrative5Situation7.wav,audio/Narrative6Situation7.wav,5,3,4,5,,,,,,,,,,,,,,,,,,,,,,,,,,,,,,,,,,,,,,,
,,,,,,5daca5b06aa37b00126c8d41,2024-02-08_11h52.39.855,group3.1-3.2-social-tom,2023.2.2,Win32,60.0240096,65c5074098b851296ff0b7ed,65c514c0025bb618405c2167,,,,,,,,,,,,,,,,,,,,,,,,,,,,,399.457,1,audio/Narrative8Situation8.wav,402.46,,402.46,415.312,"[[999,4],[999,100],[999,182],[51.6,265],[51.6,348],[51.6,432],[51.4,516],[51.3,599],[50.5,682],[49.4,765],[49.4,848],[49.4,932],[49.4,1015],[49.6,1098],[49.6,1182],[49.6,1265],[49.6,1348],[49.6,1432],[49.6,1514],[49.6,1599],[49.6,1682],[49.6,1764],[49.6,1848],[49.6,1932],[49.6,2015],[49.6,2098],[49.6,2182],[49.6,2264],[49.6,2348],[49.6,2430],[49.6,2515],[49.6,2598],[49.6,2680],[49.6,2764],[49.6,2856],[49.6,2930],[49.6,3014],[49.6,3098],[49.6,3182],[49.6,3264],[49.6,3348],[49.6,3432],[49.6,3514],[49.6,3598],[49.6,3687],[49.6,3764],[49.6,3848],[49.6,3930],[49.6,4014],[49.6,4098],[49.6,4182],[49.6,4264],[49.6,4348],[49.6,4430],[49.6,4514],[49.6,4598],[49.6,4680],[49.6,4764],[49.6,4848],[49.6,4932],[49.6,5014],[49.6,5096],[49.6,5180],[49.6,5264],[49.6,5348],[49.6,5430],[49.6,5514],[49.6,5598],[49.6,5680],[49.6,5764],[49.6,5846],[49.6,5930],[49.6,6014],[49.6,6098],[49.6,6180],[49.6,6264],[49.6,6346],[49.6,6430],[49.6,6514],[49.6,6598],[49.6,6680],[49.6,6764],[43,6850],[23.5,6932],[17.1,7017],[15.4,7096],[14.4,7180],[12.6,7264],[12.3,7346],[12.3,7430],[12.3,7514],[12.3,7598],[12.3,7680],[12.3,7764],[12.3,7848],[8.5,7930],[7.4,8016],[7,8098],[6.5,8180],[5.9,8267],[3.8,8346],[2.6,8430],[1.5,8512],[0.4,8596]]",1,0,415.314,419.522,0,2.267,"[{""rating"":0,""responseTime"":2.266999999999996}]",space,3.669,,419.523,Not at all,0,419.537,,,[],,0,8,8,8,1,audio/Narrative7Situation8.wav,audio/Narrative8Situation8.wav,audio/Narrative5Situation8.wav,audio/Narrative6Situation8.wav,2,3,3,5,,,,,,,,,,,,,,,,,,,,,,,,,,,,,,,,,,,,,,,
,,,,,,5daca5b06aa37b00126c8d41,2024-02-08_11h52.39.855,group3.1-3.2-social-tom,2023.2.2,Win32,60.0240096,65c5074098b851296ff0b7ed,65c514c0025bb618405c2167,,,,,,,,,,,,,,,,,,,,,,,,,,,,,419.539,1,audio/Narrative8Situation9.wav,422.555,,422.555,433.885,"[[999,3],[999,83],[999,165],[999,249],[999,331],[999,415],[999,499],[999,581],[999,665],[999,749],[999,833],[999,915],[999,1003],[51.1,1083],[50.4,1167],[49.9,1251],[49.3,1333],[49,1415],[49,1499],[49,1581],[49.1,1665],[49.3,1748],[50.9,1831],[50.9,1915],[50.8,1999],[50.5,2081],[50.4,2165],[50.4,2248],[50.4,2333],[50.4,2415],[50.4,2498],[50.4,2581],[50.4,2665],[50.4,2748],[50.4,2831],[50.4,2915],[50.4,2998],[50.4,3081],[50.4,3165],[50.4,3248],[50.4,3331],[50.4,3415],[50.4,3499],[50.4,3581],[50.4,3665],[50.4,3748],[50.4,3831],[50.4,3915],[50.4,3998],[50.4,4081],[50.1,4165],[50.1,4248],[50.1,4331],[50.1,4414],[50.1,4498],[50.1,4581],[50.1,4667],[48.3,4749],[41.1,4831],[40.5,4915],[40.4,4998],[40.4,5081],[40.4,5164],[40.5,5248],[40.5,5331],[40.5,5414],[40.5,5497],[40.5,5581],[40.5,5664],[40.5,5747],[40.5,5831],[40.5,5914],[40.5,5997],[40.5,6080],[40.5,6164],[40.4,6248],[40.3,6331],[40,6414],[40,6497],[40,6581],[40,6664],[40,6748],[40,6830],[40,6920],[40,6997],[40,7081],[40,7163],[40,7247],[40,7331],[40,7417],[39.6,7499],[34,7580],[29.3,7667],[24.9,7747],[24.5,7830],[24.5,7913],[24.5,7996],[24.5,8081],[24.4,8163],[24.4,8246],[24.4,8331],[24.4,8414],[24.4,8497],[24.4,8580],[23.5,8667],[22.5,8748],[22.4,8830],[22.4,8913],[22.4,8996],[22.4,9079],[22.4,9163],[22.4,9247],[22.4,9329],[22.4,9414],[22.4,9497],[22.4,9580],[20.9,9668],[9.3,9754],[5.1,9830],[4.5,9913],[4.5,9996],[4.5,10080],[4.5,10163],[4.5,10246]]",1,0,433.887,440.467,0,3.989,"[{""rating"":1.6249999999999987,""responseTime"":2.4250000000000114},{""rating"":0,""responseTime"":3.9890000000000327}]",space,6.034,,440.468,Definitely yes,100,440.484,,,[],,0,9,9,9,1,audio/Narrative7Situation9.wav,audio/Narrative8Situation9.wav,audio/Narrative5Situation9.wav,audio/Narrative6Situation9.wav,2,3,3,4,,,,,,,,,,,,,,,,,,,,,,,,,,,,,,,,,,,,,,,
,,,,,,5daca5b06aa37b00126c8d41,2024-02-08_11h52.39.855,group3.1-3.2-social-tom,2023.2.2,Win32,60.0240096,65c5074098b851296ff0b7ed,65c514c0025bb618405c2167,,,,,,,,,,,,,,,,,,,,,,,,,,,,,440.487,1,audio/Narrative7Situation1.wav,442.501,,442.501,498.386,"[[999,4],[999,96],[999,180],[999,264],[999,346],[999,430],[999,514],[999,598],[999,680],[999,764],[999,848],[999,930],[999,1014],[999,1098],[999,1180],[999,1264],[999,1348],[999,1430],[51.5,1514],[51,1599],[50.3,1680],[50,1764],[50,1848],[50,1930],[50,2014],[50,2096],[50,2180],[50,2264],[50,2375],[50,2451],[50,2529],[50,2613],[50,2697],[50,2786],[50,2863],[50,2947],[50,3029],[50,3113],[50,3197],[50,3279],[50,3362],[50,3447],[50,3529],[50,3613],[50,3697],[50,3779],[50,3873],[50,3962],[50,4045],[50,4132],[50,4212],[50,4296],[50,4379],[50,4462],[50,4545],[50,4629],[50,4713],[50,4796],[50,4879],[50,4963],[50,5046],[50,5129],[50,5212],[50,5295],[50,5379],[50,5462],[50,5546],[50,5629],[50,5712],[50,5795],[50,5879],[50,5962],[50,6045],[50,6129],[50,6212],[50,6295],[50,6379],[50,6462],[50,6545],[50,6629],[50,6712],[50,6795],[50,6879],[50,6962],[50,7045],[50,7129],[50,7211],[50,7295],[50,7379],[50,7462],[50,7545],[50,7629],[50,7711],[50,7795],[50,7879],[50,7961],[50,8045],[50,8129],[50,8212],[50,8295],[50,8379],[50,8461],[50,8545],[50,8627],[50,8711],[50,8795],[50,8879],[50,8961],[50,9045],[50,9129],[50,9211],[50,9295],[50,9379],[50,9468],[50,9545],[50,9629],[50,9711],[49.8,9802],[48.6,9879],[48.6,9961],[48.6,10045],[48.6,10127],[48.6,10211],[48.8,10295],[48.9,10379],[48.9,10461],[48.9,10545],[49,10635],[49,10711],[49,10795],[49.1,10879],[49.1,10961],[49.1,11045],[49.1,11127],[49.1,11211],[49.1,11293],[49.1,11377],[49.1,11461],[49.1,11545],[49.1,11627],[49.1,11711],[49.1,11795],[49.1,11877],[49.1,11961],[49.1,12045],[49.1,12127],[49.1,12211],[49.1,12295],[49.1,12379],[49.1,12461],[49.3,12543],[49.3,12627],[49.3,12711],[49.3,12795],[49.3,12877],[49.3,12961],[49.3,13043],[49.3,13127],[49.3,13211],[49.3,13295],[49.3,13377],[49.3,13459],[49.3,13543],[49.3,13627],[49.3,13711],[49.3,13793],[49.3,13877],[49.3,13961],[49.3,14043],[49.3,14127],[49.3,14211],[49.3,14293],[49.3,14377],[49.3,14461],[49.3,14543],[49.3,14627],[49.3,14709],[49.3,14793],[49.3,14877],[49.3,14959],[49.3,15043],[49.3,15127],[48.3,15209],[43.5,15295],[32.6,15377],[30.3,15461],[29.3,15543],[29.3,15627],[29.3,15709],[29.3,15793],[29.3,15877],[29.3,15959],[29.3,16043],[29.3,16127],[29.3,16209],[29.3,16293],[29.3,16377],[29.3,16459],[29.3,16543],[26.6,16627],[24.9,16711],[24.9,16793],[24.9,16877],[24.4,16964],[24.1,17043],[24.1,17127],[23.9,17209],[23.5,17293],[23.5,17375],[23.5,17459],[23.5,17543],[23.5,17625],[23.5,17709],[23.1,17793],[23.1,17875],[23.1,17959],[23,18043],[22.7,18125],[22.7,18209],[22.7,18293],[22.7,18377],[22.7,18459],[22.6,18543],[22.2,18625],[22.2,18709],[22.2,18793],[22.2,18875],[22.2,18959],[22.2,19043],[22.2,19125],[21.9,19209],[21.6,19296],[21.6,19377],[21.3,19459],[20.9,19543],[20.1,19625],[19.9,19709],[19.8,19793],[19.8,19875],[19.8,19959],[19.8,20043],[19.6,20125],[19.6,20209],[19.5,20293],[19.4,20375],[19.4,20459],[19.4,20541],[19.4,20625],[19.4,20709],[19.4,20793],[19.4,20875],[19.4,20959],[19.4,21041],[19.4,21125],[19.6,21209],[19.8,21291],[20.1,21379],[20.5,21459],[20.5,21543],[20.5,21625],[20.5,21709],[20.5,21791],[20.5,21875],[20.5,21964],[20.5,22041],[20.5,22125],[20.5,22209],[20.5,22291],[20.5,22375],[20.5,22459],[20.5,22545],[20.5,22625],[20.5,22707],[20.5,22791],[20.5,22875],[20.5,22959],[18.3,23041],[15.4,23127],[13.9,23207],[10.5,23291],[1,23707],[1,23791],[1,23875],[1.4,23957],[1.4,24041],[1.4,24125],[1.4,24207],[1.6,24293],[1.6,24375],[1.6,24457],[1.6,24540],[1.6,24625],[1.6,24707],[1.6,24790],[1.3,24873],[1.3,24962],[0.8,25041],[0.3,25125],[1.4,43329],[4.9,43406],[22,43492],[43.9,43577],[51,43656],[57,43735],[58.9,43819],[59,43903],[59,43985],[59,44069],[59,44154],[59,44235],[59,44319],[59,44403],[59,44486],[59.3,44569],[60.9,44656],[63.5,44736],[64.3,44822],[65.1,44903],[65.4,44985],[65.6,45069],[65.6,45153],[65.6,45235],[65.6,45319],[67.1,45404],[67.8,45485],[67.8,45569],[67.8,45653],[67.8,45735],[67.8,45819],[67.8,45901],[67.8,45985],[67.5,46069],[66.8,46153],[65.9,46236],[64.8,46319],[64.1,46401],[63.8,46486],[63.6,46569],[63.6,46653],[64.3,46736],[67.9,46822],[71.5,46901],[71.9,46985],[71.9,47069],[71.9,47151],[72.5,47235],[73,47319],[73.4,47401],[74,47485],[74.8,47569],[75.1,47653],[75.3,47735],[75.3,47819],[75.3,47901],[75.3,47985],[75.3,48069],[75.3,48151],[75.3,48235],[75.3,48326],[75.3,48401],[75.3,48485],[74.1,48569],[72.9,48651],[71.9,48738],[71.8,48819],[71.1,48901],[69.6,48985],[69.1,49069],[69.1,49151],[69.1,49235],[69.1,49319],[69.1,49401],[69.1,49485],[69.1,49567],[69.1,49651],[69.1,49735],[69.1,49819],[69.1,49901],[69.1,49985],[69.1,50067],[69.1,50151],[69.1,50235],[69.1,50319],[69.1,50401],[69.1,50483],[69.1,50569],[69.1,50651],[69.1,50735],[69.1,50820],[69.1,50901],[69.1,50983],[69.1,51069],[69.1,51151],[69.1,51235],[69.1,51317],[69.1,51401],[69.1,51485],[69.1,51567],[69.1,51651],[70.6,51735],[72.1,51819],[72.8,51901],[73.1,51983],[75,52074],[75.4,52151],[75.4,52233],[75.5,52317],[75.5,52401],[75.5,52483],[75.8,52567],[75.8,52651],[75.8,52733],[75.8,52817],[75.8,52899],[75.8,52983],[75.8,53067],[75.8,53151],[75.8,53235],[75.8,53317],[75.8,53401],[75.8,53483],[75.8,53567],[75.8,53651],[75.8,53733],[75.8,53817],[75.8,53901],[75.8,53983],[75.8,54067],[75.8,54149],[75.8,54233],[75.8,54317],[75.8,54399],[75.8,54483],[75.8,54572],[75.8,54651],[75.8,54733],[75.8,54817],[75.8,54899],[75.8,54984],[75.8,55067],[75.8,55149],[75.8,55232],[75.8,55317],[75.8,55399],[75.8,55484],[75.8,55566],[75.8,55649],[75.8,55732],[75.8,55817]]",1,0,498.389,505.767,44.5,5.449,"[{""rating"":37.75,""responseTime"":3.137000000000114},{""rating"":45,""responseTime"":3.6660000000001105},{""rating"":44.5,""responseTime"":5.449000000000012}]",space,6.833,,505.767,Not at all,0,505.792,,,[],,0,10,10,10,1,audio/Narrative8Situation1.wav,audio/Narrative7Situation1.wav,audio/Narrative6Situation1.wav,audio/Narrative5Situation1.wav,5,2,2,5,,,,,,,,,,,,,,,,,,,,,,,,,,,,,,,,,,,,,,,
,,,,,,5daca5b06aa37b00126c8d41,2024-02-08_11h52.39.855,group3.1-3.2-social-tom,2023.2.2,Win32,60.0240096,65c5074098b851296ff0b7ed,65c514c0025bb618405c2167,,,,,,,,,,,,,,,,,,,,,,,,,,,,,505.793,1,audio/Narrative7Situation2.wav,508.804,,508.804,516.298,"[[999,6],[999,128],[999,211],[999,294],[999,378],[999,461],[999,543],[999,628],[999,711],[999,793],[999,876],[999,961],[999,1043],[999,1138],[999,1217],[999,1293],[999,1376],[999,1461],[999,1543],[999,1626],[999,1710],[999,1793],[999,1876],[999,1961],[999,2043],[999,2126],[999,2211],[999,2293],[999,2376],[999,2460],[999,2543],[999,2626],[999,2710],[999,2793],[999,2876],[999,2960],[999,3043],[999,3126],[999,3210],[999,3293],[999,3375],[999,3466],[999,3543],[999,3625],[999,3710],[999,3793],[999,3876],[999,3960],[999,4043],[999,4125],[999,4210],[999,4293],[999,4376],[999,4460],[999,4548],[999,4625],[999,4710],[999,4793],[999,4876],[999,4960],[999,5043],[67.6,5130],[67.6,5208],[67.6,5293],[67.6,5375],[48.1,5716],[45.6,5794],[43.9,5879],[43.9,5961],[45,6043],[45.8,6133],[45.9,6210],[46.8,6293],[48.1,6375],[48.8,6466],[49.1,6548],[49.6,6625],[49.6,6710],[49.6,6792],[49.8,6880],[49.9,6958],[50.9,7043],[52.3,7129],[53,7210],[53,7293],[51.8,7378],[50.6,7458]]",1,0,516.304,527.895,12.625,10.234,"[{""rating"":23.75,""responseTime"":5.711000000000013},{""rating"":12.624999999999996,""responseTime"":10.234000000000037}]",space,11.05,,527.895,Partially,50,527.915,,,[],,0,11,11,11,1,audio/Narrative8Situation2.wav,audio/Narrative7Situation2.wav,audio/Narrative6Situation2.wav,audio/Narrative5Situation2.wav,3,3,3,3,,,,,,,,,,,,,,,,,,,,,,,,,,,,,,,,,,,,,,,
,,,,,,5daca5b06aa37b00126c8d41,2024-02-08_11h52.39.855,group3.1-3.2-social-tom,2023.2.2,Win32,60.0240096,65c5074098b851296ff0b7ed,65c514c0025bb618405c2167,,,,,,,,,,,,,,,,,,,,,,,,,,,,,527.916,1,audio/Narrative7Situation3.wav,535.925,,535.926,545.195,"[[999,4],[999,99],[999,182],[999,266],[999,353],[999,432],[999,514],[999,599],[999,682],[999,766],[999,848],[999,932],[999,1014],[999,1098],[999,1182],[999,1264],[999,1348],[999,1431],[999,1514],[999,1598],[999,1681],[999,1764],[999,1849],[999,1932],[999,2014],[999,2098],[999,2184],[999,2264],[999,2348],[999,2431],[999,2514],[56.9,2598],[56.9,2681],[56.9,2764],[56.1,2848],[52.5,2937],[48.6,3014],[47.4,3099],[45.6,3182],[45.6,3264],[46,3348],[46.3,3431],[38.4,3514],[3.4,3605],[0.3,3682],[0.1,3764]]",1,0,545.195,549.44,0,3.033,"[{""rating"":0,""responseTime"":3.0329999999999018}]",space,3.705,,549.442,Not at all,0,549.463,,,[],,0,12,12,12,1,audio/Narrative8Situation3.wav,audio/Narrative7Situation3.wav,audio/Narrative6Situation3.wav,audio/Narrative5Situation3.wav,4,8,5,3,,,,,,,,,,,,,,,,,,,,,,,,,,,,,,,,,,,,,,,
,,,,,,5daca5b06aa37b00126c8d41,2024-02-08_11h52.39.855,group3.1-3.2-social-tom,2023.2.2,Win32,60.0240096,65c5074098b851296ff0b7ed,65c514c0025bb618405c2167,,,,,,,,,,,,,,,,,,,,,,,,,,,,,549.463,1,audio/Narrative7Situation4.wav,552.471,,552.471,564.185,"[[999,4],[999,86],[999,165],[999,250],[999,333],[999,415],[999,505],[999,583],[999,665],[999,748],[999,832],[999,921],[999,998],[999,1081],[999,1165],[999,1250],[999,1331],[999,1416],[999,1498],[999,1581],[999,1665],[999,1748],[999,1838],[999,1914],[999,1998],[999,2081],[999,2164],[999,2248],[999,2331],[999,2415],[999,2498],[999,2581],[999,2665],[999,2748],[999,2831],[49,2923],[14.9,2997],[0.5,8750],[1.1,8831],[1.9,8914],[2.3,8997],[2.9,9081],[3.4,9164],[4,9251],[4.4,9331],[4.9,9413],[5.6,9514],[6.4,9598],[6.8,9680],[6.8,9762],[7.1,9846],[7.1,9929],[7.1,10014],[7.1,10096],[7.1,10179],[7.1,10262],[7.1,10347],[7.5,10430],[7.6,10512],[7.6,10596],[7.6,10679],[7.6,10762],[7.6,10846],[7.6,10929],[3.4,11014],[0.9,11096],[0.6,11179],[0.6,11262],[0.1,11351]]",1,0,564.187,575.567,24.125,10.203,"[{""rating"":7.874999999999998,""responseTime"":4.6030000000000655},{""rating"":6.5,""responseTime"":5.989000000000033},{""rating"":24.125000000000004,""responseTime"":10.203000000000088}]",space,10.835,,575.57,Partially,50,575.593,,,[],,0,13,13,13,1,audio/Narrative8Situation4.wav,audio/Narrative7Situation4.wav,audio/Narrative6Situation4.wav,audio/Narrative5Situation4.wav,3,3,2,1,,,,,,,,,,,,,,,,,,,,,,,,,,,,,,,,,,,,,,,
,,,,,,5daca5b06aa37b00126c8d41,2024-02-08_11h52.39.855,group3.1-3.2-social-tom,2023.2.2,Win32,60.0240096,65c5074098b851296ff0b7ed,65c514c0025bb618405c2167,,,,,,,,,,,,,,,,,,,,,,,,,,,,,575.594,1,audio/Narrative7Situation5.wav,580.597,,580.597,589.096,"[[999,6],[999,100],[999,184],[999,265],[999,355],[999,432],[999,515],[999,599],[999,683],[999,765],[999,849],[999,937],[999,1015],[999,1100],[999,1193],[49.1,1265],[49.1,1350],[49.1,1432],[49.1,1770],[49.1,1850],[49.1,1932],[49.1,2014],[49.1,2099],[49.1,2182],[49.1,2264],[49.1,2349],[49.1,2432],[49.1,2514],[49.1,2599],[49.1,2682],[49.1,2765],[49.1,2849],[49.1,2937],[49.1,3015],[49.1,3099],[49.1,3182],[49.1,3264],[49.1,3349],[49.1,3432],[49.1,3514],[49.1,3597],[49.1,3682],[49.1,3764],[49.1,3849],[49.1,3932],[49.1,4014],[49.1,4097],[49.1,4182],[49.1,4265],[49.1,4349],[49.1,4432],[49.1,4514],[49.1,4597],[49.1,4681],[49.1,4764],[49.1,4849],[49.1,4932],[49.1,5014],[49.1,5097],[49.1,5182],[49.1,5264],[49.1,5347],[49.1,5432],[49.1,5514],[49.1,5597],[49.1,5682],[49.1,5764],[49.1,5847],[49.1,5931],[49.1,6014],[49.1,6097],[49.1,6181],[49.1,6264],[49.1,6355],[49.1,6431],[49.1,6514],[49.1,6597],[49.1,6681],[49.1,6764],[49.1,6847],[49.1,6931],[49.1,7014],[49.1,7096],[49.1,7191],[49.1,7264],[49.1,7346],[49.1,7431],[49.1,7514],[47.5,7604],[46.3,7681],[40,7766],[27.3,7847],[10.9,7937],[8.9,8014],[5.1,8096]]",1,0,589.1,593.401,0,3.34,"[{""rating"":0,""responseTime"":2.5710000000000264},{""rating"":0,""responseTime"":3.339999999999918}]",space,3.753,,593.401,Definitely yes,100,593.415,,,[],,0,14,14,14,1,audio/Narrative8Situation5.wav,audio/Narrative7Situation5.wav,audio/Narrative6Situation5.wav,audio/Narrative5Situation5.wav,2,5,2,5,,,,,,,,,,,,,,,,,,,,,,,,,,,,,,,,,,,,,,,
,,,,,,5daca5b06aa37b00126c8d41,2024-02-08_11h52.39.855,group3.1-3.2-social-tom,2023.2.2,Win32,60.0240096,65c5074098b851296ff0b7ed,65c514c0025bb618405c2167,,,,,,,,,,,,,,,,,,,,,,,,,,,,,593.416,1,audio/Narrative7Situation6.wav,596.426,,596.426,606.391,"[[999,8],[999,100],[999,182],[999,267],[999,350],[999,432],[999,516],[999,600],[999,684],[999,766],[999,850],[999,937],[999,1016],[999,1099],[999,1182],[999,1267],[999,1349],[999,1435],[999,1516],[999,1599],[999,1682],[999,1766],[999,1850],[999,1932],[999,2014],[999,2100],[999,2182],[999,2266],[999,2350],[999,2435],[999,2514],[999,2600],[999,2682],[999,2766],[999,2849],[999,2934],[999,3019],[999,3100],[999,3182],[99.8,3269],[100,3349],[100,3439],[100,3516],[100,3600],[100,3682],[100,3764],[100,3849],[100,3932],[100,4014],[100,4099],[100,4182],[100,4264],[100,4348],[100,4432],[100,4514],[100,4598],[100,4682],[100,4764],[100,4849],[100,4932],[100,5016],[100,5099],[100,5187],[100,5264],[100,5349],[100,5432],[100,5514],[100,5599],[100,5682],[100,5764],[100,5848],[100,5932],[100,6025],[100,6098],[100,6182],[100,6264],[100,6348],[100,6431],[100,6514],[100,6598],[100,6682],[100,6764],[100,6848],[100,6931],[100,7014],[100,7098],[100,7182],[100,7264],[100,7348],[100,7432],[100,7514],[100,7598],[100,7682],[100,7764],[100,7848],[100,7931],[100,8014],[100,8098],[100,8181],[100,8264],[100,8348],[100,8431],[100,8514],[100,8598],[100,8681],[100,8764],[100,8847],[100,8931],[100,9014],[100,9097],[100,9181],[100,9264],[100,9347],[100,9431],[100,9514],[100,9597],[100,9680],[100,9764],[100,9847],[100,9930]]",1,0,606.392,610.926,100,3.792,"[{""rating"":99.62500000000001,""responseTime"":3.3579999999999472},{""rating"":100,""responseTime"":3.7919999999999163}]",space,3.995,,610.927,Definitely yes,100,610.942,,,[],,0,15,15,15,1,audio/Narrative8Situation6.wav,audio/Narrative7Situation6.wav,audio/Narrative6Situation6.wav,audio/Narrative5Situation6.wav,2,3,2,3,,,,,,,,,,,,,,,,,,,,,,,,,,,,,,,,,,,,,,,
,,,,,,5daca5b06aa37b00126c8d41,2024-02-08_11h52.39.855,group3.1-3.2-social-tom,2023.2.2,Win32,60.0240096,65c5074098b851296ff0b7ed,65c514c0025bb618405c2167,,,,,,,,,,,,,,,,,,,,,,,,,,,,,610.945,1,audio/Narrative7Situation7.wav,615.955,,615.955,633.134,"[[51.8,6598],[50.1,6685],[49.9,6764],[49.9,6847],[49.9,6931],[49.9,7014],[49.9,7097],[49.9,7181],[49.9,7264],[49.9,7347],[49.9,7431],[49.9,7514],[49.9,7597],[49.9,7681],[49.9,7764],[49.9,7848],[49.9,7931],[49.9,8014],[49.9,8098],[49.9,8180],[49.9,8263],[49.9,8347],[49.9,8430],[49.9,8514],[49.9,8597],[49.9,8681],[49.9,8768],[49.9,8847],[49.9,8931],[49.9,9014],[49.9,9097],[49.9,9180],[49.9,9264],[49.9,9347],[49.9,9430],[49.9,9514],[49.9,9596],[49.9,9680],[49.9,9764],[49.9,9847],[49.9,9930],[49.9,10013],[49.9,10096],[49.9,10180],[49.9,10268],[49.9,10346],[49.9,10430],[49.9,10513],[49.9,10597],[49.9,10679],[49.9,10763],[49.9,10846],[49.9,10929],[49.9,11013],[49.9,11105],[49.9,11180],[49.9,11263],[49.9,11346],[49.9,11429],[49.9,11513],[49.9,11596],[49.9,11679],[49.9,11763],[49.9,11846],[49.9,11929],[49.9,12013],[49.9,12096],[49.9,12180],[49.9,12263],[49.9,12345],[49.9,12429],[49.9,12512],[49.9,12596],[49.9,12679],[49.9,12762],[49.9,12846],[49.9,12929],[49.9,13013],[49.9,13096],[49.9,13179],[49.9,13263],[49.9,13346],[49.9,13429],[49.9,13512],[49.9,13596],[49.9,13679],[49.9,13763],[49.9,13846],[49.9,13929],[49.9,14012],[49.9,14096],[49.9,14179],[49.9,14262],[49.9,14346],[49.9,14427],[49.9,14513],[49.9,14595],[49.9,14679],[55.5,14767],[61.5,14846],[68.1,14929],[78.4,15013],[86.5,15102],[94.9,15177],[98.4,15263],[99.9,15347],[100,15429],[100,15512],[100,15595],[100,15677],[100,15761],[100,15845],[100,15929],[100,16012],[100,16095],[100,16177],[100,16262],[100,16345],[100,16427],[100,16511],[100,16595],[100,16679],[100,16761],[100,16845],[100,16927],[100,17019],[100,17095],[100,17177]]",1,0,633.136,638.2,100,3.739,"[{""rating"":99.5,""responseTime"":3.13900000000001},{""rating"":100,""responseTime"":3.7390000000000327}]",space,4.518,,638.201,Partially,50,638.221,,,[],,0,16,16,16,1,audio/Narrative8Situation7.wav,audio/Narrative7Situation7.wav,audio/Narrative6Situation7.wav,audio/Narrative5Situation7.wav,3,5,5,4,,,,,,,,,,,,,,,,,,,,,,,,,,,,,,,,,,,,,,,
,,,,,,5daca5b06aa37b00126c8d41,2024-02-08_11h52.39.855,group3.1-3.2-social-tom,2023.2.2,Win32,60.0240096,65c5074098b851296ff0b7ed,65c514c0025bb618405c2167,,,,,,,,,,,,,,,,,,,,,,,,,,,,,638.222,1,audio/Narrative7Situation8.wav,640.235,,640.236,650.267,"[[999,7],[999,95],[999,178],[999,261],[999,345],[999,428],[999,510],[999,595],[999,694],[999,778],[999,860],[999,947],[999,1028],[999,1111],[999,1194],[999,1283],[999,1361],[999,1444],[999,1528],[999,1610],[999,1694],[999,1778],[999,1861],[999,1947],[999,2028],[999,2112],[999,2194],[999,2283],[51.6,2361],[51.6,2443],[51.3,2529],[50.9,2610],[50.5,2696],[50.3,2778],[50.1,2860],[50.1,2943],[50.1,3028],[50.1,3110],[50.1,3193],[50.1,3276],[50.1,3360],[50.1,3443],[50.1,3526],[50.1,3610],[50.1,3694],[50.1,3778],[50.1,3860],[50.1,3943],[50.1,4028],[50.1,4110],[50.1,4194],[50.1,4276],[50.1,4360],[50.1,4443],[50.1,4528],[50.1,4610],[50.1,4693],[50.1,4776],[50.1,4860],[50.1,4942],[50.1,5026],[50.1,5110],[50.1,5194],[50.1,5276],[50.1,5360],[50.1,5444],[50.1,5526],[50.1,5610],[50.1,5693],[50.1,5776],[50.1,5860],[50.1,5943],[50.1,6026],[50.1,6110],[50.1,6193],[50.1,6276],[50.1,6360],[50.1,6442],[50.1,6526],[50.1,6610],[50.1,6692],[50.1,6776],[50.1,6860],[50.1,6942],[50.1,7025],[50.1,7110],[50.1,7210],[50.1,7293],[50.1,7376],[50.1,7460],[50.1,7543],[50.1,7626],[50.1,7710],[50.1,7793],[50.1,7875],[50.1,7960],[50.1,8043],[50.1,8125],[50.1,8208],[50.1,8295],[50.1,8375],[50.1,8460],[50.1,8543],[50.1,8626],[50.1,8710],[56,8797],[63.4,8876],[69.4,8965],[73.1,9043],[73.4,9126],[73.4,9210],[73.4,9293],[73.4,9375],[74.4,9461],[82.3,9548],[89.8,9626],[90.4,9708],[90.4,9794],[90.4,9875],[90.4,9958]]",1,0,650.269,659.16,80.375,8.283,"[{""rating"":71.375,""responseTime"":5.7000000000000455},{""rating"":75.5,""responseTime"":6.41700000000003},{""rating"":80.375,""responseTime"":8.283000000000015}]",space,8.348,,659.162,Not at all,0,659.185,,,[],,0,17,17,17,1,audio/Narrative8Situation8.wav,audio/Narrative7Situation8.wav,audio/Narrative6Situation8.wav,audio/Narrative5Situation8.wav,3,2,5,3,,,,,,,,,,,,,,,,,,,,,,,,,,,,,,,,,,,,,,,
,,,,,,5daca5b06aa37b00126c8d41,2024-02-08_11h52.39.855,group3.1-3.2-social-tom,2023.2.2,Win32,60.0240096,65c5074098b851296ff0b7ed,65c514c0025bb618405c2167,,,,,,,,,,,,,,,,,,,,,,,,,,,,,659.186,1,audio/Narrative7Situation9.wav,661.193,,661.193,669.824,"[[999,3],[999,82],[999,167],[999,249],[999,332],[999,415],[999,499],[999,582],[999,665],[999,749],[999,832],[999,915],[999,999],[999,1081],[999,1165],[999,1249],[999,1332],[999,1418],[999,1500],[999,1582],[999,1664],[999,1749],[999,1831],[999,1914],[999,1999],[87.6,2082],[93.4,2165],[95.9,2256],[99.3,2331],[100,2419],[100,2500],[100,2581],[100,2665],[100,2749],[100,2831],[100,2914],[100,2999],[100,3081],[100,3165],[100,3247],[100,3331],[100,3415],[100,3499],[100,3581],[100,3665],[100,3749],[100,3831],[100,3914],[100,3997],[100,4081],[100,4164],[100,4247],[100,4331],[100,4415],[100,4499],[100,4581],[100,4664],[100,4749],[100,4831],[100,4914],[100,5005],[100,5081],[100,5164],[100,5247],[100,5331],[100,5414],[100,5497],[100,5583],[100,5664],[100,5747],[100,5831],[100,5914],[100,5997],[100,6081],[100,6163],[100,6247],[100,6331],[100,6413],[100,6497],[100,6581],[100,6663],[100,6747],[100,6831],[100,6913],[100,6997],[100,7081],[100,7163],[100,7247],[100,7331],[100,7413],[100,7497],[100,7581],[100,7663],[100,7746],[100,7830],[100,7913],[100,7996],[100,8081],[100,8163],[100,8246],[100,8330],[100,8413],[100,8496],[100,8580]]",1,0,669.826,674.857,100,2.842,"[{""rating"":99.75,""responseTime"":2.3719999999999573},{""rating"":100,""responseTime"":2.8419999999999845}]",space,4.488,,674.86,Partially,50,682.555,49.75,5.118,"[{""rating"":49.75,""responseTime"":5.117999999999938}]",space,0,18,18,18,1,audio/Narrative8Situation9.wav,audio/Narrative7Situation9.wav,audio/Narrative6Situation9.wav,audio/Narrative5Situation9.wav,3,2,4,3,,,7.154,,,,,,,,,,,,,,,,,,,,,,,,,,,,,,,,,,,,
,,,,,,5daca5b06aa37b00126c8d41,2024-02-08_11h52.39.855,group3.1-3.2-social-tom,2023.2.2,Win32,60.0240096,65c5074098b851296ff0b7ed,65c514c0025bb618405c2167,,,,,,,,,,,,,,,,,,,,,,,,,,,690.56,693.135,693.177,2,audio/Narrative13Situation2.wav,693.177,,693.177,722.932,"[[999,0],[999,73],[999,156],[999,239],[999,325],[999,406],[999,489],[999,573],[999,656],[999,740],[999,823],[999,906],[999,990],[999,1072],[999,1156],[999,1239],[999,1323],[999,1406],[999,1493],[999,1573],[999,1660],[999,1740],[999,1822],[999,1905],[999,1989],[999,2075],[999,2156],[999,2239],[999,2323],[999,2406],[999,2493],[999,2573],[999,2661],[999,2739],[999,2822],[999,2906],[999,2989],[999,3072],[999,3155],[999,3238],[999,3322],[999,3405],[999,3493],[999,3572],[999,3656],[999,3738],[999,3822],[999,3905],[999,3989],[999,4072],[999,4155],[999,4238],[999,4322],[999,4405],[999,4488],[999,4574],[999,4655],[999,4738],[999,4822],[999,4905],[999,4988],[999,5072],[999,5155],[999,5239],[999,5327],[999,5405],[999,5495],[51,5573],[51,5656],[51,5738],[50.9,5823],[50.5,5905],[50.1,5989],[50,6072],[49.9,6155],[49.9,6238],[49.9,6324],[49.9,6405],[49.9,6495],[50.1,6572],[50.3,6654],[50.3,6738],[50.3,6822],[50.3,6904],[50.3,6988],[50.1,7073],[50,7154],[50,7238],[50,7330],[50,7404],[50,7487],[50,7572],[50,7659],[50,7738],[50,7822],[50,7904],[50,7988],[54.9,8076],[81.1,8155],[91,8238],[95.8,8325],[99.3,8405],[100,8495],[100,8570],[100,8654],[100,8737],[100,8820],[100,8904],[100,8987],[100,9072],[100,9153],[100,9237],[100,9328],[100,9403],[100,9487],[100,9572],[100,9654],[100,9737],[100,9820],[100,9903],[100,9987],[100,10070],[100,10153],[100,10236],[100,10320],[100,10404],[100,10487],[100,10570],[100,10653],[100,10737],[100,10820],[100,10904],[100,10988],[100,11070],[100,11153],[100,11236],[100,11320],[100,11403],[100,11486],[100,11570],[100,11653],[100,11737],[100,11819],[100,11903],[100,11987],[100,12072],[100,12153],[100,12237],[100,12320],[100,12403],[100,12486],[100,12569],[100,12653],[100,12737],[100,12820],[100,12903],[100,12986],[100,13069],[100,13153],[100,13236],[100,13319],[100,13403],[100,13486],[100,13569],[100,13653],[100,13743],[100,13820],[100,13902],[100,13986],[100,14069],[100,14153],[100,14236],[100,14319],[100,14402],[100,14486],[100,14569],[100,14652],[100,14736],[100,14819],[100,14902],[100,14986],[100,15069],[100,15152],[100,15245],[100,15336],[100,15426],[100,15509],[100,20851],[100,20934]]",1,0,722.934,722.957,,,[],,,,722.957,Definitely yes,100,722.968,,,[],,0,0,0,0,1,audio/Narrative13Situation2.wav,audio/Narrative13Situation2.wav,audio/Narrative13Situation2.wav,audio/Narrative13Situation2.wav,2,2,2,2,,,,,682.561,690.557,space,7.471,,,,,,,,,,,,,,,,,,,,,,,,,,,,,,,
,,,,,,5daca5b06aa37b00126c8d41,2024-02-08_11h52.39.855,group3.1-3.2-social-tom,2023.2.2,Win32,60.0240096,65c5074098b851296ff0b7ed,65c514c0025bb618405c2167,,,,,,,,,,,,,,,,,,,,,,,,,,,,,722.969,2,audio/Narrative6Situation1.wav,724.976,,724.976,751.574,"[[999,6],[999,100],[999,183],[999,266],[999,350],[999,433],[999,515],[999,600],[999,683],[999,765],[999,855],[100,934],[100,1015],[100,1100],[100,1182],[100,1266],[100,1350],[100,1432],[100,1516],[100,1600],[100,1687],[100,1766],[100,1848],[100,1932],[100,2015],[100,2098],[100,2182],[100,2269],[88.9,2350],[66.9,2432],[61.3,2516],[51.6,2600],[47.4,2684],[47.4,2765],[47.3,2848],[47.3,2932],[48.3,3015],[49.4,3100],[49.9,3183],[50,3273],[50,3348],[50,3432],[50,3515],[50,3598],[50,3682],[50,3765],[50,3848],[50,3932],[50,4015],[50,4098],[50,4182],[50,4265],[50,4348],[50,4432],[50,4514],[50,4598],[50,4682],[50,4764],[50,4848],[50,4932],[50,5017],[51.9,5098],[57.3,5182],[85.6,5269],[100,5348],[100,5432],[100,5515],[100,5597],[100,5682],[100,5764],[100,5847],[100,5932],[100,6014],[100,6098],[100,6182],[100,6264],[100,6348],[100,6432],[100,6514],[100,6597],[100,6680],[100,6764],[100,6847],[100,6932],[100,7015],[100,7097],[100,7182],[100,7264],[100,7347],[100,7432],[100,7514],[100,7597],[100,7682],[100,7764],[100,7847],[100,7932],[100,8014],[100,8097],[100,8180],[100,8264],[100,8347],[100,8430],[100,8514],[100,8597],[100,8680],[100,8764],[100,8847],[100,8930],[100,9014],[100,9097],[100,9180],[100,9264],[100,9347],[100,9430],[100,9514],[100,9603],[100,9680],[100,9764],[100,9846],[100,9930],[100,10014],[100,10097],[100,10180],[100,10264],[100,10346],[100,10437],[100,10512],[100,10596],[100,10679],[100,10764],[100,10847],[100,10929],[100,11017],[100,11096],[100,11179],[100,11262],[100,11346],[100,11429],[100,11512],[100,11596],[100,11680],[100,11764],[100,11846],[100,11930],[100,12014],[100,12096],[100,12179],[100,12262],[100,12346],[100,12429],[100,12514],[100,12596],[100,12679],[100,12764],[100,12846],[100,12929],[100,13012],[100,13096],[100,13179],[100,13264],[100,13346],[100,13429],[100,13514],[100,13596],[100,13679],[100,13762],[100,13846],[100,13928],[100,14012],[100,14096],[100,14179],[100,14262],[100,14346],[100,14429],[100,14512],[100,14596],[100,14679],[100,14764],[100,14846],[100,14930],[100,15012],[100,15096],[100,15179],[100,15266],[100,15346],[100,15428],[100,15512],[100,15596],[100,15679],[100,15762],[100,15846],[100,15928],[100,16012],[100,16096],[100,16178],[100,16262],[100,16346],[100,16456],[100,16528],[100,16615],[100,16694],[100,16778],[100,16861],[100,16946],[100,17028],[100,17111],[100,17198],[100,17278],[100,17361],[100,17446],[100,17528],[100,17611],[100,17696],[100,17778],[100,17865],[100,17944],[100,18028],[100,18111],[100,18196],[100,18278],[100,18361],[100,18444],[100,18528],[100,18612],[100,18694],[100,18778],[100,18861],[100,18944],[100,19028],[100,19111],[100,19194],[100,19278],[100,19361],[100,19444],[100,19528],[100,19610],[100,19693],[100,19778],[100,19861],[100,19944],[100,20028],[100,20111],[100,20194],[100,20278],[100,20361],[100,20444],[100,20528],[100,20611],[100,20694],[100,20778],[100,20860],[100,20944],[100,21028],[100,21110],[100,21193],[100,21278],[100,21361],[100,21443],[100,21528],[100,21610],[100,21693],[100,21778],[100,21860],[100,21943],[100,22028],[100,22110],[100,22194],[100,22278],[100,22360],[100,22443],[100,22526],[100,22610],[100,22693],[100,22784],[100,22860],[100,22944],[100,23026],[100,23110],[100,23193],[100,23276],[100,23360],[100,23443],[100,23526],[100,23610],[100,23693],[100,23776],[100,23860],[100,23943],[100,24026],[100,24118],[100,24192],[100,24276],[100,24360],[100,24442],[100,24526],[100,24610],[100,24693],[100,24776],[100,24860],[100,24943],[100,25026],[100,25110],[100,25192],[100,25276],[100,25360],[100,25442],[100,25526],[100,25610],[100,25692],[100,25776],[100,25860],[100,25943],[100,26026],[100,26110],[100,26193],[100,26276],[100,26360],[100,26444],[100,26526]]",1,0,751.576,759.052,100,5.936,"[{""rating"":100,""responseTime"":5.9360000000000355}]",space,6.935,,759.053,Not at all,0,759.075,,,[],,0,1,1,1,1,audio/Narrative7Situation1.wav,audio/Narrative8Situation1.wav,audio/Narrative5Situation1.wav,audio/Narrative6Situation1.wav,2,5,5,2,,,,,,,,,,,,,,,,,,,,,,,,,,,,,,,,,,,,,,,
,,,,,,5daca5b06aa37b00126c8d41,2024-02-08_11h52.39.855,group3.1-3.2-social-tom,2023.2.2,Win32,60.0240096,65c5074098b851296ff0b7ed,65c514c0025bb618405c2167,,,,,,,,,,,,,,,,,,,,,,,,,,,,,759.075,2,audio/Narrative6Situation2.wav,762.084,,762.084,790.593,"[[999,4],[999,100],[999,182],[999,267],[999,349],[999,432],[999,516],[999,599],[999,685],[999,766],[999,848],[999,932],[999,1014],[999,1099],[999,1182],[999,1266],[999,1349],[999,1432],[999,1516],[999,1598],[999,1682],[999,1767],[999,1850],[999,1932],[999,2016],[999,2100],[999,2182],[999,2266],[999,2350],[999,2432],[999,2516],[999,2599],[999,2681],[999,2764],[999,2848],[999,2932],[999,3016],[999,3099],[999,3182],[999,3266],[999,3348],[999,3432],[999,3514],[999,3598],[999,3681],[999,3764],[999,3848],[999,3931],[999,4016],[999,4098],[999,4187],[999,4266],[50.8,4349],[50.9,4432],[51.1,4514],[51.3,4604],[51.4,4681],[51.4,4767],[51.4,4848],[51.4,4931],[51.5,5014],[51.5,5098],[57.4,5181],[74.4,5266],[85.3,5349],[90.9,5435],[95.8,5514],[99.4,5598],[99.4,5681],[99.4,5764],[98.4,5848],[97.8,5931],[96.5,6014],[94.1,6098],[93.6,6181],[93.6,6264],[93.6,6346],[93.6,6431],[93.6,6514],[93.6,6598],[88.1,6691],[73.5,6764],[62.1,6848],[60.3,6931],[60.3,7014],[60.1,7098],[60.1,7180],[60.1,7264],[60.1,7346],[60.1,7430],[57.4,7514],[51.4,7598],[48.1,7680],[48.1,7764],[48.1,7846],[48.1,7931],[48.3,8014],[48.9,8096],[49.1,8180],[49.4,8266],[49.4,8346],[49.4,8430],[49.4,8514],[49.4,8596],[49.4,8680],[49.4,8763],[49.4,8846],[49.4,8931],[49.4,9014],[49.4,9096],[49.4,9181],[49.4,9264],[49.4,9346],[49.4,9430],[49.4,9513],[49.4,9596],[49.4,9680],[49.4,9764],[49.4,9846],[49.4,9928],[49.4,10014],[49.4,10096],[49.4,10180],[49.4,10263],[49.4,10346],[49.4,10430],[49.4,10524],[49.4,10596],[49.4,10680],[49.4,10763],[49.4,10846],[49.4,10930],[49.4,11012],[49.4,11096],[49.4,11178],[49.4,11263],[49.4,11346],[49.4,11428],[49.4,11513],[49.4,11596],[49.4,11680],[49.4,11763],[49.4,11846],[49.4,11930],[49.4,12012],[49.4,12096],[49.4,12180],[33.5,12263],[17.8,12346],[14.3,12432],[12.8,12513],[12.8,12596],[12.6,12678],[12.6,12762],[12.6,12846],[12.6,12928],[12.6,13012],[12.6,13095],[12.5,13178],[12.5,13262],[12.5,13346],[12.5,13428],[12.5,13512],[12.5,13596],[12.5,13678],[12.5,13762],[12.5,13846],[12.5,13928],[12.5,14012],[12.5,14096],[12.5,14178],[12.5,14262],[12.3,14346],[11.5,14430],[11.1,14512],[10.9,14596],[10.9,14678],[10.9,14762],[10.5,14846],[10.5,14928],[10.4,15013],[10.4,15096],[10.4,15178],[9.9,15262],[9.9,15369],[9.9,15445],[9.9,15528],[9.9,15612],[9.9,15695],[9.9,15787],[9.9,15862],[9.9,15945],[9.9,16036],[8.9,16134],[8.9,16211],[8.9,16307],[8.6,16378],[8.5,16461],[8.1,16545],[8,16628],[8,16711],[8,16795],[6.9,16882],[5.6,16961],[5.3,17045],[5.3,17128],[5,17211],[5,17298],[5,17378],[5,17461],[13.9,17548],[64.1,17628],[92.8,17711],[100,17796],[100,17882],[100,17961],[100,18046],[100,18128],[100,18211],[100,18301],[99.1,18378],[98.4,18461],[98.4,18545],[99.4,18628],[100,18711],[100,18795],[100,18878],[100,18961],[100,19043],[100,19127],[100,19211],[100,19293],[100,19377],[100,19461],[100,19543],[100,19628],[100,19711],[100,19795],[100,19877],[100,19960],[100,20043],[100,20127],[100,20211],[100,20296],[100,20377],[100,20461],[100,20543],[100,20627],[100,20711],[100,20793],[100,20877],[100,20960],[100,21043],[100,21127],[100,21210],[100,21293],[100,21377],[100,21460],[100,21543],[100,21627],[100,21711],[100,21793],[100,21877],[100,21966],[100,22043],[100,22127],[100,22210],[100,22293],[100,22375],[100,22460],[100,22543],[100,22627],[100,22710],[100,22793],[100,22877],[100,22960],[100,23043],[100,23125],[100,23210],[100,23293],[100,23377],[100,23460],[100,23543],[100,23627],[100,23710],[100,23793],[100,23875],[100,23959],[100,24043],[100,24125],[100,24209],[100,24293],[100,24375],[100,24459],[100,24543],[100,24625],[100,24710],[100,24793],[100,24875],[100,24960],[100,25043],[100,25125],[100,25210],[100,25293],[100,25375],[100,25459],[100,25543],[100,25625],[100,25709],[100,25792],[100,25875],[100,25960],[100,26043],[100,26125],[100,26209],[100,26292],[100,26375],[100,26459],[100,26543],[100,26625],[100,26709],[100,26793],[100,26875],[100,26959],[100,27043],[100,27125],[100,27209],[100,27292],[100,27375],[100,27457],[100,27542],[100,27625],[100,27707],[100,27792],[100,27875],[100,27957],[100,28041],[100,28127],[100,28209],[100,28292],[100,28375],[100,28459]]",1,0,790.595,793.717,100,2.065,"[{""rating"":100,""responseTime"":2.064999999999941}]",space,2.574,,793.717,Not at all,0,799.408,0,3.79,"[{""rating"":0,""responseTime"":3.7900000000000773}]",space,0,2,2,2,1,audio/Narrative7Situation2.wav,audio/Narrative8Situation2.wav,audio/Narrative5Situation2.wav,audio/Narrative6Situation2.wav,3,3,3,3,,,5.153,,,,,,,,,,,,,,,,,,,,,,,,,,,,,,,,,,,,
,,,,,,5daca5b06aa37b00126c8d41,2024-02-08_11h52.39.855,group3.1-3.2-social-tom,2023.2.2,Win32,60.0240096,65c5074098b851296ff0b7ed,65c514c0025bb618405c2167,,,,,,,,,,,,,,,,,,,,,,,,,,,,,799.413,2,audio/Narrative6Situation3.wav,804.423,,804.423,817.039,"[[999,4],[999,98],[999,189],[999,269],[999,350],[999,432],[999,515],[999,598],[999,682],[999,765],[999,848],[999,932],[999,1015],[999,1098],[999,1182],[999,1267],[999,1348],[999,1432],[999,1515],[999,1598],[999,1683],[999,1766],[999,1848],[999,1932],[999,2014],[999,2098],[999,2182],[999,2266],[999,2348],[999,2432],[999,2515],[999,2597],[999,2682],[999,2764],[999,2848],[999,2932],[999,3020],[999,3097],[999,3182],[999,3264],[999,3347],[999,3432],[999,3514],[999,3597],[999,3682],[999,3764],[999,3847],[999,3932],[999,4014],[999,4097],[999,4182],[999,4267],[999,4347],[999,4432],[999,4514],[999,4597],[999,4680],[999,4764],[999,4847],[999,4930],[999,5014],[999,5097],[999,5180],[999,5270],[999,5348],[999,5430],[999,5514],[999,5596],[999,5680],[999,5764],[999,5847],[999,5932],[999,6014],[999,6097],[999,6180],[999,6264],[999,6372],[999,6447],[999,6538],[999,6617],[100,6697],[100,6783],[100,6865],[100,6952],[100,7044],[100,7113],[100,7197],[100,7285],[100,7363],[100,7447],[100,7530],[100,7613],[100,7697],[100,7779],[100,7863],[100,7947],[100,8029],[100,8113],[100,8197],[100,8280],[100,8363],[100,8447],[100,8529],[100,8615],[100,8697],[100,8779],[100,8863],[100,8947],[100,9030],[100,9113],[100,9197],[100,9279],[100,9362],[100,9447],[100,9529],[100,9612],[100,9695],[100,9779],[100,9863],[100,9945],[100,10029],[100,10113],[100,10197],[100,10279],[100,10362],[100,10447],[100,10529],[100,10612],[100,10697],[100,10779],[100,10862],[100,10947],[100,11031],[100,11112],[100,11195],[100,11278],[100,11362],[100,11447],[100,11529],[100,11612],[100,11697],[100,11778],[100,11862],[100,11947],[100,12029],[100,12112],[100,12198],[100,12278],[100,12362],[100,12447],[100,12528],[100,12612]]",1,0,817.042,825.418,100,5.868,"[{""rating"":99.75,""responseTime"":5.368000000000052},{""rating"":100,""responseTime"":5.868000000000052}]",space,7.837,,825.42,Definitely yes,100,825.438,,,[],,0,3,3,3,1,audio/Narrative7Situation3.wav,audio/Narrative8Situation3.wav,audio/Narrative5Situation3.wav,audio/Narrative6Situation3.wav,8,4,3,5,,,,,,,,,,,,,,,,,,,,,,,,,,,,,,,,,,,,,,,
,,,,,,5daca5b06aa37b00126c8d41,2024-02-08_11h52.39.855,group3.1-3.2-social-tom,2023.2.2,Win32,60.0240096,65c5074098b851296ff0b7ed,65c514c0025bb618405c2167,,,,,,,,,,,,,,,,,,,,,,,,,,,,,825.44,2,audio/Narrative6Situation4.wav,827.45,,827.45,840.064,"[[999,4],[999,83],[999,166],[999,250],[999,331],[999,416],[999,501],[999,583],[999,666],[999,750],[999,841],[999,917],[999,1006],[999,1084],[999,1165],[999,1249],[999,1333],[999,1416],[999,1500],[999,1584],[999,1666],[999,1749],[999,1831],[999,1916],[999,1999],[999,2086],[999,2166],[999,2252],[999,2331],[999,2416],[999,2499],[999,2581],[999,2667],[999,2749],[999,2831],[999,2915],[999,3000],[999,3081],[999,3166],[999,3249],[999,3331],[999,3415],[999,3498],[999,3581],[999,3665],[999,3752],[999,3833],[999,3916],[999,3999],[999,4081],[999,4165],[999,4249],[999,4331],[999,4415],[999,4498],[999,4581],[999,4665],[999,4748],[999,4831],[999,4915],[999,5003],[999,5081],[999,5165],[999,5248],[999,5331],[999,5415],[999,5499],[999,5581],[999,5663],[999,5748],[999,5831],[999,5913],[999,5998],[999,6081],[999,6165],[999,6248],[999,6331],[999,6415],[999,6498],[999,6581],[999,6665],[999,6748],[999,6831],[999,6913],[999,6998],[999,7081],[999,7165],[999,7253],[999,7331],[999,7415],[999,7499],[999,7581],[999,7668]]",1,0,840.066,845.217,0,1.957,"[{""rating"":0,""responseTime"":1.9569999999999936}]",space,4.604,,845.217,Definitely yes,100,845.235,,,[],,0,4,4,4,1,audio/Narrative7Situation4.wav,audio/Narrative8Situation4.wav,audio/Narrative5Situation4.wav,audio/Narrative6Situation4.wav,3,3,1,2,,,,,,,,,,,,,,,,,,,,,,,,,,,,,,,,,,,,,,,
,,,,,,5daca5b06aa37b00126c8d41,2024-02-08_11h52.39.855,group3.1-3.2-social-tom,2023.2.2,Win32,60.0240096,65c5074098b851296ff0b7ed,65c514c0025bb618405c2167,,,,,,,,,,,,,,,,,,,,,,,,,,,,,845.235,2,audio/Narrative6Situation5.wav,847.246,,847.246,855.216,"[[999,9],[999,98],[999,182],[999,264],[999,347],[999,432],[999,514],[999,597],[999,681],[999,765],[999,848],[999,931],[999,1014],[999,1098],[999,1181],[999,1264],[999,1348],[999,1434],[999,1514],[999,1598],[999,1682],[999,1764],[999,1847],[999,1931],[999,2014],[999,2097],[999,2182],[999,2264],[999,2347],[999,2437],[999,2514],[999,2597],[999,2682],[999,2764],[999,2846],[999,2931],[999,3014],[999,3097],[999,3181],[999,3269],[999,3347],[999,3431],[999,3514],[999,3597],[999,3679],[999,3765],[999,3847],[999,3932],[999,4014],[999,4097],[999,4181],[999,4264],[999,4348],[999,4429],[999,4514],[999,4597],[999,4681],[999,4764],[999,4846],[999,4929],[999,5014],[999,5096],[999,5179],[999,5264],[999,5346],[49.1,5431],[48.9,5513],[48.9,5596],[48.9,5679],[48.9,5763],[48.1,5847],[47.8,5931],[47.8,6014],[47.8,6096],[48.4,6182],[48.9,6264],[49,6346],[49,6429],[49.3,6514],[49.5,6596],[49.8,6679],[49.9,6764],[49.9,6846],[49.9,6929],[49.9,7014],[49.9,7096],[49.9,7179],[27.5,7264],[1.3,7347]]",1,0,855.216,859.41,0,2.617,"[{""rating"":0,""responseTime"":2.6170000000000755}]",space,3.649,,859.411,Definitely yes,100,859.426,,,[],,0,5,5,5,1,audio/Narrative7Situation5.wav,audio/Narrative8Situation5.wav,audio/Narrative5Situation5.wav,audio/Narrative6Situation5.wav,5,2,5,2,,,,,,,,,,,,,,,,,,,,,,,,,,,,,,,,,,,,,,,
,,,,,,5daca5b06aa37b00126c8d41,2024-02-08_11h52.39.855,group3.1-3.2-social-tom,2023.2.2,Win32,60.0240096,65c5074098b851296ff0b7ed,65c514c0025bb618405c2167,,,,,,,,,,,,,,,,,,,,,,,,,,,,,859.431,2,audio/Narrative6Situation6.wav,861.444,,861.446,872.522,"[[999,2],[999,78],[999,162],[999,244],[999,327],[999,410],[999,494],[999,577],[999,661],[999,743],[999,827],[999,911],[999,994],[999,1077],[999,1160],[999,1244],[999,1327],[999,1415],[999,1494],[999,1577],[999,1660],[999,1744],[999,1827],[999,1919],[999,1993],[999,2077],[999,2160],[999,2243],[999,2327],[999,2410],[999,2493],[999,2577],[999,2660],[999,2744],[999,2826],[999,2909],[999,2993],[999,3076],[999,3160],[999,3243],[999,3327],[999,3410],[999,3494],[26.6,3577],[23.8,3664],[23,3743],[22.7,3826],[22.6,3909],[22.6,3992],[23,4078],[23,4160],[23,4243],[23,4326],[23,4410],[23,4493],[23,4576],[22.5,4665],[21.3,4743],[4.8,4832]]",1,0,872.524,877.205,0,3.09,"[{""rating"":2.124999999999999,""responseTime"":2.508000000000038},{""rating"":0,""responseTime"":3.090000000000032}]",space,4.134,,877.207,Partially,50,877.234,,,[],,0,6,6,6,1,audio/Narrative7Situation6.wav,audio/Narrative8Situation6.wav,audio/Narrative5Situation6.wav,audio/Narrative6Situation6.wav,3,2,3,2,,,,,,,,,,,,,,,,,,,,,,,,,,,,,,,,,,,,,,,
,,,,,,5daca5b06aa37b00126c8d41,2024-02-08_11h52.39.855,group3.1-3.2-social-tom,2023.2.2,Win32,60.0240096,65c5074098b851296ff0b7ed,65c514c0025bb618405c2167,,,,,,,,,,,,,,,,,,,,,,,,,,,,,877.235,2,audio/Narrative6Situation7.wav,882.237,,882.238,907.117,"[[999,4],[999,98],[999,182],[999,264],[999,348],[999,431],[999,514],[999,598],[999,682],[999,764],[999,846],[999,931],[999,1014],[999,1096],[999,1181],[999,1264],[999,1348],[999,1431],[999,1514],[999,1596],[999,1685],[999,1763],[999,1846],[999,1935],[999,2013],[999,2096],[999,2180],[999,2264],[999,2346],[999,2430],[999,2513],[999,2596],[999,2680],[999,2763],[999,2846],[999,2930],[999,3013],[999,3096],[999,3180],[999,3263],[999,3346],[999,3430],[999,3513],[999,3596],[999,3680],[999,3763],[999,3846],[999,3930],[999,4013],[999,4096],[999,4180],[999,4263],[999,4346],[999,4430],[999,4513],[999,4596],[999,4680],[999,4763],[999,4846],[999,4930],[999,5012],[999,5096],[999,5180],[999,5263],[999,5346],[999,5431],[999,5513],[999,5596],[999,5678],[999,5763],[999,5846],[999,5930],[999,6014],[999,6096],[999,6180],[999,6263],[999,6346],[999,6428],[999,6513],[999,6596],[999,6678],[999,6762],[999,6848],[999,6928],[94,7022],[99.5,7096],[100,7186],[100,7262],[100,7345],[100,7430],[100,7512],[100,7600],[100,7678],[100,7763],[100,7845],[100,7928],[100,8012],[100,8096],[100,8178],[100,8262],[100,8348],[100,8427],[100,8513],[100,8596],[100,8680],[100,8762],[100,8846],[100,8927],[100,9012],[100,9096],[100,9178],[100,9262],[100,9345],[100,9427],[100,9512],[100,9596],[100,9677],[100,9762],[100,9845],[100,9928],[100,10011],[100,10095],[100,10177],[100,10262],[100,10345],[100,10427],[100,10511],[100,10595],[100,10677],[100,10762],[100,10845],[100,10927],[100,11012],[100,11095],[100,11177],[100,11262],[100,11345],[100,11427],[100,11511],[100,11594],[100,11677],[100,11761],[100,11845],[100,11927],[100,12012],[100,12094],[100,12177],[100,12261],[100,12344],[100,12427],[100,12517],[100,12595],[100,12677],[100,12761],[100,12844],[100,12927],[100,13011],[100,13094],[100,13177],[100,13261],[100,13344],[100,13427],[100,13512],[100,13594],[100,13677],[100,13761],[100,13844],[100,13927],[100,14014],[100,14093],[100,14177],[100,14261],[100,14344],[100,14427],[100,14511],[100,14594],[100,14677],[100,14759],[100,14844],[100,14927],[100,15009],[100,15094],[100,15177],[100,15259],[100,15344],[100,15427],[100,15509],[100,15594],[100,15676],[100,15759],[100,15844],[100,15927],[100,16009],[100,16094],[100,16177],[100,16259],[100,16344],[100,16426],[100,16514],[100,16594],[100,16677],[100,16759],[100,16843],[100,16927],[100,17009],[100,17093],[100,17177],[100,17259],[100,17343],[100,17427],[100,17509],[100,17593],[100,17677],[100,17759],[100,17843],[100,17927],[100,18009],[100,18093],[100,18176],[100,18259],[100,18343],[100,18426],[100,18509],[100,18591],[100,18676],[100,18759],[100,18841],[100,18927],[100,19009],[100,19091],[100,19176],[100,19259],[100,19343],[100,19426],[100,19509],[100,19593],[100,19676],[100,19759],[100,19843],[100,19926],[100,20009],[100,20091],[100,20175],[100,20259],[100,20343],[100,20425],[100,20509],[100,20591],[100,20676],[100,20759],[100,20841],[100,20925],[100,21008],[100,21091],[100,21175],[100,21259],[100,21341],[100,21425],[100,21508],[100,21591],[100,21675],[100,21759],[100,21841],[100,21925],[100,22008],[100,22091],[100,22176],[100,22259],[100,22341],[100,22425],[100,22509],[100,22591],[100,22675],[100,22759],[100,22841],[100,22925],[100,23008],[100,23091],[100,23175],[100,23258],[100,23341],[100,23425],[100,23508],[100,23591],[100,23675],[100,23758],[100,23841],[100,23925],[100,24009],[100,24091],[100,24175],[100,24258],[100,24341],[100,24425],[100,24508],[100,24591],[100,24673],[100,24768],[100,24843]]",1,0,907.119,911.695,100,2.693,"[{""rating"":100,""responseTime"":2.6929999999999836}]",space,4.036,,911.695,Not at all,0,911.71,,,[],,0,7,7,7,1,audio/Narrative7Situation7.wav,audio/Narrative8Situation7.wav,audio/Narrative5Situation7.wav,audio/Narrative6Situation7.wav,5,3,4,5,,,,,,,,,,,,,,,,,,,,,,,,,,,,,,,,,,,,,,,
,,,,,,5daca5b06aa37b00126c8d41,2024-02-08_11h52.39.855,group3.1-3.2-social-tom,2023.2.2,Win32,60.0240096,65c5074098b851296ff0b7ed,65c514c0025bb618405c2167,,,,,,,,,,,,,,,,,,,,,,,,,,,,,911.71,2,audio/Narrative6Situation8.wav,916.71,,916.71,923.56,"[[96.1,1523],[63.1,2182],[57.4,2267],[51.5,2349],[51.1,2432],[51.5,2517],[51.8,2599],[51.9,2682],[51,2766],[50.8,2849],[50.5,2932],[50.5,3015],[50.5,3099],[50.5,3182],[50.4,3266],[50.3,3350],[50.3,3432],[50.3,3516],[50.3,3600],[50.3,3682],[50.3,3766],[50.3,3850],[50.3,3932],[50.3,4015],[50.3,4105],[50.3,4182],[50.3,4266],[50.3,4349],[50.3,4432],[50.3,4515],[50.3,4599],[50.3,4689],[50.3,4765],[50.3,4849],[50.3,4949],[50.3,5032],[50.3,5115],[50.3,5199],[50.3,5282],[50.3,5365],[50.3,5449],[50.3,5532],[50.3,5615],[50.3,5699],[50.3,5781],[50.3,5865],[50.3,5949],[50.3,6032],[50.3,6115],[48.1,6201],[16.1,6282],[5.9,6370]]",1,0,923.562,926.641,0,1.359,"[{""rating"":0,""responseTime"":1.3590000000000373}]",space,2.534,,926.641,Partially,50,926.65,,,[],,0,8,8,8,1,audio/Narrative7Situation8.wav,audio/Narrative8Situation8.wav,audio/Narrative5Situation8.wav,audio/Narrative6Situation8.wav,2,3,3,5,,,,,,,,,,,,,,,,,,,,,,,,,,,,,,,,,,,,,,,
,,,,,,5daca5b06aa37b00126c8d41,2024-02-08_11h52.39.855,group3.1-3.2-social-tom,2023.2.2,Win32,60.0240096,65c5074098b851296ff0b7ed,65c514c0025bb618405c2167,,,,,,,,,,,,,,,,,,,,,,,,,,,,,926.65,2,audio/Narrative6Situation9.wav,930.657,,930.657,940.622,"[[999,4],[999,100],[999,182],[999,266],[999,350],[999,432],[999,515],[999,600],[999,682],[999,765],[999,849],[999,932],[999,1024],[999,1100],[999,1184],[999,1267],[50.9,1349],[50.9,1437],[50.9,1517],[50.8,1600],[50.8,1682],[50.8,1766],[50.8,1849],[50.8,1932],[50.8,2016],[50.8,2099],[50.8,2182],[50.8,2265],[50.8,2349],[50.8,2432],[50.8,2515],[50.8,2599],[50.8,2682],[50.8,2765],[50.8,2848],[50.8,2932],[50.6,3016],[50.6,3099],[50.6,3182],[50.6,3265],[50.6,3348],[50.6,3432],[50.5,3515],[50.5,3598],[50.5,3682],[50.5,3765],[50.5,3848],[23.6,3932]]",1,0,940.624,944.721,0,2.306,"[{""rating"":0.7500000000000007,""responseTime"":1.774000000000001},{""rating"":0,""responseTime"":2.30600000000004}]",space,3.551,,944.721,Not at all,0,944.743,,,[],,0,9,9,9,1,audio/Narrative7Situation9.wav,audio/Narrative8Situation9.wav,audio/Narrative5Situation9.wav,audio/Narrative6Situation9.wav,2,3,3,4,,,,,,,,,,,,,,,,,,,,,,,,,,,,,,,,,,,,,,,
,,,,,,5daca5b06aa37b00126c8d41,2024-02-08_11h52.39.855,group3.1-3.2-social-tom,2023.2.2,Win32,60.0240096,65c5074098b851296ff0b7ed,65c514c0025bb618405c2167,,,,,,,,,,,,,,,,,,,,,,,,,,,,,944.745,2,audio/Narrative5Situation1.wav,949.752,,949.752,963.049,"[[999,5],[999,82],[999,166],[999,250],[999,332],[999,417],[999,500],[999,582],[999,666],[999,749],[999,832],[999,916],[999,1002],[999,1081],[999,1166],[999,1249],[999,1332],[999,1414],[999,1500],[999,1581],[999,1664],[999,1749],[999,1831],[999,1916],[999,1999],[999,2082],[999,2166],[999,2249],[999,2331],[999,2414],[999,2499],[999,2581],[999,2664],[999,2748],[999,2832],[999,2914],[999,2998],[999,3081],[999,3166],[999,3249],[999,3331],[999,3414],[999,3499],[999,3581],[999,3664],[999,3748],[999,3831],[999,3914],[999,3998],[999,4081],[999,4164],[999,4248],[999,4331],[999,4414],[999,4498],[999,4581],[999,4664],[999,4748],[999,4831],[999,4923],[999,4998],[999,5081],[999,5164],[999,5248],[999,5331],[999,5414],[999,5498],[999,5581],[999,5664],[999,5748],[999,5831],[999,5914],[999,5997],[999,6081],[999,6164],[999,6247],[999,6331],[999,6414],[999,6497],[999,6581],[999,6663],[999,6748],[999,6831],[999,6914],[999,6998],[999,7081],[999,7163],[999,7248],[999,7331],[999,7413],[999,7497],[999,7580],[999,7663],[999,7748],[999,7830],[999,7914],[999,7997],[999,8081],[999,8163],[999,8248],[999,8330],[999,8413],[999,8497],[999,8581],[999,8663],[999,8748],[999,8831],[999,8913],[999,8997],[999,9080],[999,9163],[999,9250],[999,9331],[999,9413],[999,9498],[999,9581],[999,9663],[999,9747],[7.6,10089],[7.1,10164],[9,10250],[9.8,10331],[9.9,10413],[9.9,10498],[10.4,10581],[10.9,10663],[10.9,10747],[10.9,10830],[10.9,10913],[10.9,10997],[12.3,11081],[25.8,11166],[26.8,11245],[26.8,11330],[26.8,11413],[25.9,11504],[25,11581],[25,11663],[24.9,11745],[24.6,11831],[24.5,11913],[24.5,11997],[24.4,12082],[24.3,12163],[24.3,12253],[24.3,12330],[24.3,12413],[24.3,12500],[24.3,12580],[24.3,12663],[24.1,12750]]",1,0,963.051,969.913,50,5.839,"[{""rating"":50.625,""responseTime"":4.456000000000017},{""rating"":50,""responseTime"":5.838999999999942}]",space,6.318,,969.914,Definitely yes,100,969.929,,,[],,0,10,10,10,1,audio/Narrative8Situation1.wav,audio/Narrative7Situation1.wav,audio/Narrative6Situation1.wav,audio/Narrative5Situation1.wav,5,2,2,5,,,,,,,,,,,,,,,,,,,,,,,,,,,,,,,,,,,,,,,
,,,,,,5daca5b06aa37b00126c8d41,2024-02-08_11h52.39.855,group3.1-3.2-social-tom,2023.2.2,Win32,60.0240096,65c5074098b851296ff0b7ed,65c514c0025bb618405c2167,,,,,,,,,,,,,,,,,,,,,,,,,,,,,969.93,2,audio/Narrative5Situation2.wav,972.931,,972.931,1002.392,"[[999,4],[999,81],[999,165],[999,248],[999,331],[999,422],[999,499],[52,581],[52.1,663],[52,749],[51.6,835],[50.8,915],[50.8,998],[50.6,1081],[50.6,1163],[50.6,1248],[50.6,1331],[50.5,1413],[50.5,1500],[50.5,1581],[50.5,1663],[50.5,1747],[50.5,1831],[50.5,1915],[50.5,1998],[50.5,2080],[50.5,2163],[50.5,2248],[50.5,2331],[50.5,2413],[50.5,2507],[50.5,2580],[50.5,2663],[50.5,2747],[50.5,2838],[50.5,2913],[50.5,3002],[50.5,3081],[50.5,3163],[50.5,3251],[50.5,3330],[50.5,3413],[50.5,3497],[50.5,3580],[50.5,3665],[50.5,3747],[50.5,3830],[50.5,3913],[50.5,3997],[50.5,4081],[50.5,4163],[50.5,4247],[50.5,4331],[50.5,4419],[50.5,4497],[50.5,4580],[50.5,4663],[50.5,4747],[50.5,4830],[50.5,4913],[50.5,4997],[50.5,5079],[50.5,5163],[50.5,5246],[50.5,5329],[50.5,5413],[50.5,5496],[50.5,5580],[50.5,5663],[50.5,5746],[50.5,5830],[50.5,5913],[50.5,5997],[50.5,6080],[50.5,6163],[50.5,6246],[50.5,6330],[50.5,6413],[50.5,6496],[50.5,6580],[50.5,6663],[50.5,6746],[42.1,6836],[26,6913],[22.1,6998],[20.5,7080],[18.6,7163],[16.3,7247],[12,7331],[8.3,7419],[5.1,7496],[2.5,7579],[2.5,7663],[2.5,7746],[2.5,7830],[1.3,7912],[7.4,25824],[7.4,25908],[7.4,25991],[7.4,26074],[7.4,26158],[7.4,26241],[7.4,26324],[4.9,26413],[0.6,26491]]",1,0,1002.393,1006.37,0,2.019,"[{""rating"":0,""responseTime"":2.0189999999998918}]",space,3.434,,1006.371,Not at all,0,1006.393,,,[],,0,11,11,11,1,audio/Narrative8Situation2.wav,audio/Narrative7Situation2.wav,audio/Narrative6Situation2.wav,audio/Narrative5Situation2.wav,3,3,3,3,,,,,,,,,,,,,,,,,,,,,,,,,,,,,,,,,,,,,,,
,,,,,,5daca5b06aa37b00126c8d41,2024-02-08_11h52.39.855,group3.1-3.2-social-tom,2023.2.2,Win32,60.0240096,65c5074098b851296ff0b7ed,65c514c0025bb618405c2167,,,,,,,,,,,,,,,,,,,,,,,,,,,,,1006.394,2,audio/Narrative5Situation3.wav,1009.41,,1009.411,1023.317,"[[999,3],[999,92],[999,174],[999,258],[999,341],[999,429],[999,509],[999,592],[999,674],[999,759],[999,841],[999,924],[999,1009],[999,1092],[999,1179],[999,1258],[999,1343],[999,1424],[999,1508],[999,1595],[999,1674],[999,1759],[999,1842],[999,1924],[45.6,2009],[46,2096],[48,2179],[48.4,2258],[49,2341],[49,2425],[49,2508],[49,2591],[49,2673],[49,2758],[49,2841],[49,2924],[49,3008],[49.1,3093],[49.1,3174],[49.1,3258],[49.1,3341],[49.4,3425],[57.9,3508],[57.9,3589],[57.9,3673],[57.9,3758],[57.9,3841],[57.9,3923],[57.9,4008],[57.9,4091],[57.9,4173],[57.9,4258],[57.9,4339],[57.9,4423],[57.9,4507],[57.9,4591],[57.9,4673],[57.9,4758],[57.9,4841],[57.9,4923],[56,5008],[55.3,5092],[52.4,5174],[50.6,5257],[69.6,5341],[100,5423],[100,5507],[100,5589],[100,5673],[100,5757],[100,5841],[100,5923],[100,6007],[100,6091],[100,6173],[100,6257],[100,6339],[100,6423],[100,6507],[100,6589],[100,6673],[100,6756],[100,6839],[100,6923],[100,7006],[100,7089],[100,7173],[100,7256],[100,7339],[100,7423],[100,7507],[100,7589],[100,7673],[100,7757],[100,7839],[100,7923],[100,8007],[100,8088],[100,8173],[100,8257],[100,8339],[100,8423],[100,8506],[100,8588],[100,8673],[100,8756],[100,8838],[100,8923],[100,9006],[100,9088],[100,9172],[100,9256],[100,9339],[100,9423],[100,9506],[100,9588],[100,9672],[100,9756],[100,9838],[100,9922],[100,10006],[100,10088],[100,10173],[100,10256],[100,10346],[100,10422],[100,10506],[100,10588],[100,10673],[100,10756],[100,10838],[100,10923],[100,11005],[100,11088],[100,11172],[100,11255],[100,11338],[100,11422],[100,11505],[100,11588],[100,11673],[100,11756],[100,11837],[100,11922],[100,12005],[100,12088],[100,12172],[100,12255],[100,12337],[100,12422],[100,12505],[100,12587],[100,12671],[100,12755],[100,12838],[100,12922],[100,13005],[100,13087],[100,13172],[100,13255],[100,13338],[100,13422],[100,13505],[100,13587],[100,13671],[100,13755],[100,13838]]",1,0,1023.319,1029.115,100,3.191,"[{""rating"":100,""responseTime"":3.191000000000031}]",space,5.251,,1029.115,Not at all,0,1029.124,,,[],,0,12,12,12,1,audio/Narrative8Situation3.wav,audio/Narrative7Situation3.wav,audio/Narrative6Situation3.wav,audio/Narrative5Situation3.wav,4,8,5,3,,,,,,,,,,,,,,,,,,,,,,,,,,,,,,,,,,,,,,,
,,,,,,5daca5b06aa37b00126c8d41,2024-02-08_11h52.39.855,group3.1-3.2-social-tom,2023.2.2,Win32,60.0240096,65c5074098b851296ff0b7ed,65c514c0025bb618405c2167,,,,,,,,,,,,,,,,,,,,,,,,,,,,,1029.125,2,audio/Narrative5Situation4.wav,1030.131,,1030.131,1050.527,"[[47.9,1516],[52.8,1598],[52.8,1682],[51.5,1768],[51,1848],[49.6,1932],[49.6,2016],[49.6,2098],[49.6,2182],[49.6,2265],[49.6,2348],[49.6,2432],[49.6,2515],[49.6,2598],[49.6,2682],[49.5,2767],[49.6,2848],[49.6,2932],[49.6,3016],[49.6,3098],[49.6,3182],[49.6,3265],[50,3348],[50.3,3432],[50.4,3516],[50.4,3597],[50.6,3682],[51.4,3766],[52.1,3847],[52.1,3932],[51.9,4019],[51.1,4098],[50.5,4183],[49.8,4266],[49.8,4347],[49.8,4432],[49.8,4516],[49.8,4605],[49.8,4682],[49.8,4765],[49.8,4847],[49.8,4931],[49.8,5015],[49.8,5097],[49.8,5182],[49.8,5265],[49.8,5347],[49.8,5441],[49.8,5515],[49.8,5598],[49.8,5682],[49.8,5765],[49.8,5847],[49.8,5932],[49.8,6015],[49.8,6097],[49.8,6181],[49.8,6265],[49.8,6347],[49.8,6431],[49.8,6515],[49.8,6598],[49.8,6681],[49.8,6765],[49.8,6847],[49.5,6931],[49,7015],[40.9,7097],[7.5,7181],[8.3,15019],[35.1,15102],[51.3,15182],[62.1,15266],[66.9,15349],[66.9,15429],[66.9,15511],[71.1,15596],[78.5,15682],[84.8,15762],[92.9,15846],[100,15929],[100,16020],[100,16095],[100,16179],[100,16262],[100,16345],[100,16430],[100,16511],[100,16596],[100,16679],[100,16761],[100,16846],[100,16929],[100,17011],[100,17095],[100,17179],[100,17261],[100,17346],[100,17431],[100,17511],[100,17596],[100,17678],[100,17761],[100,17845],[100,17928],[100,18011],[100,18095],[100,18178],[100,18262],[100,18345],[100,18428],[100,18511],[100,18595],[100,18679],[100,18761],[100,18845],[100,18928],[100,19010],[100,19095],[100,19179],[100,19261],[100,19345],[100,19429],[100,19510],[100,19595],[100,19679],[100,19760],[100,19845],[100,19928],[100,20011],[100,20094],[100,20179],[100,20260],[100,20345]]",1,0,1050.531,1054.475,100,2.005,"[{""rating"":100,""responseTime"":2.005000000000109}]",space,3.404,,1054.476,Not at all,0,1054.489,,,[],,0,13,13,13,1,audio/Narrative8Situation4.wav,audio/Narrative7Situation4.wav,audio/Narrative6Situation4.wav,audio/Narrative5Situation4.wav,3,3,2,1,,,,,,,,,,,,,,,,,,,,,,,,,,,,,,,,,,,,,,,
,,,,,,5daca5b06aa37b00126c8d41,2024-02-08_11h52.39.855,group3.1-3.2-social-tom,2023.2.2,Win32,60.0240096,65c5074098b851296ff0b7ed,65c514c0025bb618405c2167,,,,,,,,,,,,,,,,,,,,,,,,,,,,,1054.491,2,audio/Narrative5Situation5.wav,1059.507,,1059.507,1074.938,"[[999,5],[999,83],[999,165],[999,249],[999,334],[999,416],[999,499],[999,583],[999,664],[999,749],[999,832],[999,915],[999,999],[999,1083],[999,1165],[999,1249],[999,1333],[999,1415],[999,1500],[999,1584],[999,1666],[999,1756],[999,1834],[999,1916],[999,2002],[49,2083],[48.9,2164],[49,2249],[49.8,2335],[50,2421],[50,2499],[49.3,2586],[49.3,2665],[49.3,2749],[49.6,2832],[49.6,2915],[49.8,2999],[49.8,3082],[49.8,3164],[49.8,3249],[49.8,3333],[49.8,3414],[49.8,3499],[49.8,3583],[49.8,3664],[49.8,3749],[49.8,3832],[49.8,3914],[49.8,3999],[49.8,4082],[49.8,4164],[49.8,4249],[49.8,4332],[49.8,4414],[49.8,4499],[49.8,4586],[49.8,4664],[49.8,4748],[49.8,4833],[49.8,4914],[49.8,4999],[49.8,5082],[49.8,5163],[49.8,5248],[49.8,5331],[49.8,5413],[49.8,5498],[49.8,5583],[49.8,5664],[49.8,5749],[49.8,5836],[49.8,5914],[49.8,5998],[49.8,6085],[49.8,6163],[49.8,6248],[49.8,6331],[49.8,6414],[49.8,6498],[49.8,6581],[49.8,6663],[49.8,6748],[49.8,6834],[49.8,6914],[49.8,6998],[49.8,7081],[49.8,7164],[49.8,7247],[49.8,7329],[49.8,7414],[49.8,7497],[49.8,7581],[49.8,7663],[49.8,7748],[49.8,7831],[49.8,7913],[49.8,7997],[49.8,8081],[49.8,8163],[54,8248],[55.5,8331],[55.9,8414],[60.9,8500],[63.3,8581],[64.9,8664],[66.6,8747],[67.1,8829],[67.6,8913],[69,9000],[69.8,9081],[69.8,9163],[69.8,9247],[69.8,9329],[69.8,9413],[69.8,9497],[69.8,9582],[69.8,9663],[69.8,9747],[70.3,9831],[70.5,9913],[70.6,9997],[70.6,10081],[70.6,10163],[70.6,10247],[70.6,10329],[70.6,10413],[70.5,10497],[70.3,10579],[70.3,10663],[70.1,10747],[70.1,10829],[69.9,10913],[69,10998],[68.4,11079],[62.5,11163],[54.8,11250],[53.4,11329],[53.4,11413],[52.3,11498],[51.3,11579],[50.8,11663],[50.4,11747],[50,11831],[50,11913],[50,11996],[50,12079],[50,12170],[50,12248],[50,12329],[50,12413],[50,12497],[50,12578],[50,12663],[50,12754],[50.1,12836],[50.1,12913],[50.1,12996],[50.1,13079],[50.1,13179],[50.1,13264],[50.1,13346],[50.1,13429],[50.1,13512],[50.1,13596],[50.1,13679],[50.1,13762],[50.1,13846],[50.1,13930],[50.1,14012],[50.1,14096],[50.1,14179],[50.1,14262],[50.1,14346],[50.1,14429],[50.1,14511],[50.1,14596],[50.1,14679],[50.1,14761],[50.1,14846],[50.1,14929],[50.1,15012],[50.1,15096],[50.1,15179],[50.3,15265],[50.3,15346],[50.3,15428]]",1,0,1074.941,1077.92,50.375,1.369,"[{""rating"":50.375,""responseTime"":1.3689999999999145}]",space,2.437,,1077.923,Not at all,0,1077.93,,,[],,0,14,14,14,1,audio/Narrative8Situation5.wav,audio/Narrative7Situation5.wav,audio/Narrative6Situation5.wav,audio/Narrative5Situation5.wav,2,5,2,5,,,,,,,,,,,,,,,,,,,,,,,,,,,,,,,,,,,,,,,
,,,,,,5daca5b06aa37b00126c8d41,2024-02-08_11h52.39.855,group3.1-3.2-social-tom,2023.2.2,Win32,60.0240096,65c5074098b851296ff0b7ed,65c514c0025bb618405c2167,,,,,,,,,,,,,,,,,,,,,,,,,,,,,1077.931,2,audio/Narrative5Situation6.wav,1080.935,,1080.935,1086.634,"[[999,6],[999,87],[999,165],[999,249],[999,332],[999,417],[999,499],[999,582],[999,665],[999,749],[999,832],[999,915],[999,999],[999,1081],[999,1165],[999,1249],[999,1332],[999,1415],[999,1499],[999,1582],[999,1665],[999,1749],[999,1832],[999,1915],[999,1999],[999,2081],[999,2165],[999,2249],[999,2331],[999,2414],[999,2499],[999,2581],[999,2664],[999,2749],[999,2831],[999,2914],[999,2997],[999,3081],[999,3164],[999,3250],[999,3331],[999,3426],[999,3499],[999,3581],[999,3664],[999,3749],[999,3831],[999,3914],[999,4005],[999,4081],[999,4164],[999,4247],[999,4331],[999,4414],[999,4499],[999,4581],[999,4665],[999,4749],[999,4831],[999,4915],[999,4997],[999,5081],[87.8,5168],[85.9,5249],[83.5,5336],[80.3,5415],[79.1,5505],[78.9,5581],[78.9,5663]]",1,0,1086.634,1092.232,80.875,4.641,"[{""rating"":80.87500000000001,""responseTime"":4.640999999999849}]",space,5.052,,1092.232,Not at all,0,1092.24,,,[],,0,15,15,15,1,audio/Narrative8Situation6.wav,audio/Narrative7Situation6.wav,audio/Narrative6Situation6.wav,audio/Narrative5Situation6.wav,2,3,2,3,,,,,,,,,,,,,,,,,,,,,,,,,,,,,,,,,,,,,,,
,,,,,,5daca5b06aa37b00126c8d41,2024-02-08_11h52.39.855,group3.1-3.2-social-tom,2023.2.2,Win32,60.0240096,65c5074098b851296ff0b7ed,65c514c0025bb618405c2167,,,,,,,,,,,,,,,,,,,,,,,,,,,,,1092.242,2,audio/Narrative5Situation7.wav,1096.248,,1096.248,1117.293,"[[999,5],[999,82],[999,165],[999,249],[999,332],[999,415],[999,499],[999,583],[999,665],[999,749],[999,832],[999,915],[999,999],[999,1082],[999,1165],[999,1255],[999,1333],[999,1415],[999,1499],[999,1583],[999,1673],[999,1749],[999,1833],[999,1915],[999,1999],[50,2086],[50.4,2165],[50.6,2249],[50.5,2332],[50.4,2414],[50.3,2499],[50.3,2582],[50.3,2664],[50.3,2748],[50,2832],[50,2914],[50,2999],[50,3082],[50,3164],[50,3249],[50,3333],[50,3414],[50,3498],[50,3582],[50,3664],[50,3748],[49.9,3832],[49.6,3913],[49.6,3998],[49.6,4082],[49.6,4164],[49.6,4248],[49.6,4331],[49.6,4414],[49.6,4498],[49.6,4582],[49.6,4664],[49.6,4748],[49.6,4832],[49.6,4914],[49.6,4998],[49.6,5081],[49.6,5164],[49.6,5248],[49.6,5332],[49.6,5413],[49.6,5498],[49.6,5581],[49.6,5664],[49.6,5747],[50.3,5831],[50.5,5913],[50.6,5997],[50.6,6081],[50.8,6163],[50.8,6248],[50.8,6331],[50.8,6414],[50.8,6498],[50.8,6581],[50.8,6663],[50.8,6747],[50.8,6831],[50.8,6922],[50.8,6998],[50.8,7081],[58.3,7164],[62.5,7248],[73.4,7331],[77,7413],[77.1,7497],[77.1,7587],[76.6,7670],[75.9,7748],[75.5,7829],[75.5,7913],[75.5,7997],[75.5,8081],[75.5,8163],[75.5,8247],[75.5,8329],[75.5,8413],[75.5,8497],[75.4,8581],[75.4,8663],[75.4,8746],[75.4,8831],[75.4,8913],[75.4,8996],[75.4,9079],[75.4,9163],[75.4,9247],[75.4,9329],[75.4,9413],[75.4,9497],[75.4,9579],[75.6,9663],[75.8,9747],[75.9,9828],[75.9,9913],[75.9,9996],[75.9,10079],[75.9,10163],[75.9,10246],[75.9,10328],[75.5,10413],[75.3,10497],[75,10579],[74.9,10663],[74.9,10746],[74.9,10829],[74.6,10919],[74.3,10997],[74.1,11078],[74.1,11163],[74.1,11246],[74.1,11329],[74.1,11413],[74.1,11496],[74.1,11579],[73.4,11663],[72.4,11747],[72.4,11829],[72.4,11912],[72.4,11996],[72.4,12078],[72.4,12163],[72.4,12246],[73,12335],[73.5,12413],[73.5,12496],[74,12578],[74.3,12672],[74.6,12749],[75,12828],[75,12912],[75,12996],[75.3,13078],[75.3,13162],[75.3,13246],[75.3,13328],[75.3,13412],[75.3,13496],[75.3,13577],[75.3,13662],[75.3,13745],[75.3,13828],[75.3,13912],[75.3,13996],[75.3,14078],[75.3,14162],[75.3,14245],[75.3,14328],[75.3,14413],[75.3,14495],[75.3,14578],[75.3,14662],[75.3,14745],[75.3,14828],[75.3,14912],[75.3,14995],[75.3,15078],[75.3,15162],[75.3,15245],[75.3,15328],[75.3,15412],[75.3,15495],[75.3,15577],[75.3,15662],[75.3,15744],[75.3,15827],[75.3,15912],[75.3,15995],[75.3,16078],[75.3,16162],[75.3,16245],[75.3,16328],[75.3,16412],[75.3,16495],[75.3,16577],[75.3,16661],[75.3,16745],[75.3,16828],[75.3,16912],[75.3,16997],[75.3,17078],[75.3,17162],[75.3,17245],[75.3,17327],[75.3,17411],[75.3,17494],[75.3,17577],[75.3,17664],[75.3,17745],[75.3,17827],[75.3,17911],[75.3,17994],[75.3,18086],[75.3,18162],[75.3,18244],[75.3,18327],[75.3,18419],[75.3,18495],[75.3,18577],[75.3,18663],[75.3,18745],[75.3,18827],[75.3,18912],[75.1,18994],[75.1,19077],[75.1,19161],[75,19245],[74.5,19328],[74.5,19411],[74.5,19494],[74.5,19577],[74.5,19663],[74.5,19744],[74.5,19827],[74.5,19910],[74.5,19994],[74.6,20077],[74.9,20164],[74.9,20244],[74.9,20327],[74.9,20411],[74.9,20494],[74.9,20577],[74.9,20663],[74.9,20744],[74.9,20827],[74.9,20910],[74.9,20994]]",1,0,1117.296,1122.974,49.75,3.436,"[{""rating"":49.75,""responseTime"":3.435999999999922}]",space,5.131,,1122.976,Partially,50,1122.996,,,[],,0,16,16,16,1,audio/Narrative8Situation7.wav,audio/Narrative7Situation7.wav,audio/Narrative6Situation7.wav,audio/Narrative5Situation7.wav,3,5,5,4,,,,,,,,,,,,,,,,,,,,,,,,,,,,,,,,,,,,,,,
,,,,,,5daca5b06aa37b00126c8d41,2024-02-08_11h52.39.855,group3.1-3.2-social-tom,2023.2.2,Win32,60.0240096,65c5074098b851296ff0b7ed,65c514c0025bb618405c2167,,,,,,,,,,,,,,,,,,,,,,,,,,,,,1122.997,2,audio/Narrative5Situation8.wav,1126.006,,1126.007,1134.875,"[[999,5],[999,98],[999,182],[999,266],[999,348],[999,432],[999,516],[999,598],[999,682],[999,765],[999,848],[999,932],[999,1015],[999,1105],[999,1183],[999,1266],[999,1348],[999,1432],[999,1516],[999,1608],[999,1682],[999,1766],[999,1848],[999,1932],[999,2015],[999,2097],[999,2182],[999,2265],[999,2354],[999,2431],[999,2515],[999,2597],[999,2682],[999,2765],[999,2847],[999,2933],[999,3015],[999,3105],[999,3182],[999,3265],[999,3348],[51.4,3435],[51.1,3515],[51.1,3597],[50.9,3685],[50.5,3767],[50.4,3847],[50.4,3931],[50.4,4015],[50.4,4097],[50.4,4181],[50.4,4265],[50.4,4347],[50.4,4432],[50.4,4514],[50.4,4597],[50.3,4681],[50.3,4767],[50.3,4847],[50.3,4932],[50.3,5024],[50.3,5097],[50.3,5182],[50.3,5264],[50.3,5346],[50.3,5431],[50.3,5515],[50.3,5596],[50.3,5681],[50.3,5765],[50.3,5846],[50.3,5935],[50.3,6014],[50.3,6097],[50.3,6180],[50.3,6264],[50.3,6347],[50.3,6431],[50.3,6514],[50.3,6596],[50.3,6681],[50.3,6764],[50.3,6846],[50.3,6930],[50.3,7014],[50.3,7096],[50.3,7180],[50.3,7262],[50.3,7346],[50.3,7431],[50.3,7512],[50.3,7596],[50.3,7680],[50.3,7764],[50.3,7855],[50.3,7947],[50.3,8030],[50.3,8114],[50.3,8197],[50.3,8279],[29.8,8376]]",1,0,1134.877,1138.959,0,1.983,"[{""rating"":0,""responseTime"":1.9829999999999472}]",space,3.543,,1138.961,Not at all,0,1138.97,,,[],,0,17,17,17,1,audio/Narrative8Situation8.wav,audio/Narrative7Situation8.wav,audio/Narrative6Situation8.wav,audio/Narrative5Situation8.wav,3,2,5,3,,,,,,,,,,,,,,,,,,,,,,,,,,,,,,,,,,,,,,,
,,,,,,5daca5b06aa37b00126c8d41,2024-02-08_11h52.39.855,group3.1-3.2-social-tom,2023.2.2,Win32,60.0240096,65c5074098b851296ff0b7ed,65c514c0025bb618405c2167,,,,,,,,,,,,,,,,,,,,,,,,,,,,,1138.974,2,audio/Narrative5Situation9.wav,1141.985,,1141.986,1181.544,"[[999,4],[999,98],[999,182],[999,266],[999,348],[999,433],[999,516],[999,603],[999,684],[50.5,767],[50.5,848],[50.4,935],[50.3,1019],[50.3,1099],[50.3,1186],[50.1,1266],[50.1,1348],[50.1,1432],[50.1,1516],[50.1,1598],[50.1,1686],[50.1,1766],[50.1,1848],[50.1,1932],[50.1,2016],[50.1,2098],[50.1,2182],[50.1,2264],[50.1,2347],[50.1,2432],[50.1,2516],[50.1,2598],[50.1,2682],[50.1,2766],[50.1,2848],[50.1,2932],[50.1,3014],[50.1,3097],[50.1,3182],[50.1,3264],[50.1,3347],[50.1,3432],[50.1,3514],[50.1,3597],[50.1,3684],[50.1,3764],[50.1,3848],[50.1,3932],[50.1,4014],[50.1,4098],[50.1,4182],[50.1,4264],[50.1,4347],[50.1,4432],[50.1,4514],[50.1,4597],[50.1,4681],[50.1,4764],[50.1,4847],[50.1,4931],[50.1,5017],[50.1,5097],[50.1,5187],[50.1,5263],[50.1,5347],[50.1,5431],[50.1,5514],[50.1,5597],[50.1,5681],[50.1,5764],[46.5,5847],[41.1,5931],[30.5,6018],[16.6,6097],[9.4,6181],[6.6,6263],[4.6,6347],[2.9,6431],[2.4,6513],[2,6597],[1.8,6681],[0.8,6764],[41.8,31275],[96.3,31692],[87.1,31779],[86.5,31857],[88.4,31941],[94.3,32028],[99.1,32107],[100,32198],[100,32273],[100,32356],[100,32441],[100,32525],[100,32607],[100,32691],[100,32775],[100,32857],[100,32941],[100,33023],[100,33107],[100,33191],[100,33273],[100,33357],[100,33440],[100,33523],[100,33606],[100,33691],[100,33773],[100,33856],[100,33940],[100,34022],[100,34107],[100,34190],[100,34273],[100,34356],[100,34441],[100,34523],[100,34606],[100,34691],[100,34773],[100,34856],[100,34940],[100,35023],[100,35106],[100,35190],[100,35273],[100,35356],[100,35440],[100,35523],[100,35606],[100,35691],[100,35773],[100,35856],[100,35940],[100,36022],[100,36105],[100,36190],[100,36273],[100,36356],[100,36446],[100,36522],[100,36606],[100,36690],[100,36773],[100,36855],[100,36940],[100,37022],[100,37105],[100,37190],[100,37273],[100,37355],[100,37440],[100,37523],[100,37605],[100,37690],[100,37772],[96,37858],[85.3,37940],[79,38025],[79,38105],[79,38190],[79,38272],[79,38355],[79,38440],[79.3,38523],[80.5,38605],[81.8,38691],[82,38771],[82,38855],[82,38939],[82,39022],[88.5,39105],[89.1,39189],[89.1,39272],[89.1,39355],[89.1,39439],[89.1,39521]]",1,0,1181.545,1186.074,89.375,2.769,"[{""rating"":87,""responseTime"":1.7000000000000455},{""rating"":89.375,""responseTime"":2.7690000000000055}]",space,3.985,,1186.076,Not at all,0,1186.09,,,[],,0,18,18,18,1,audio/Narrative8Situation9.wav,audio/Narrative7Situation9.wav,audio/Narrative6Situation9.wav,audio/Narrative5Situation9.wav,3,2,4,3,,,,,,,,,,,,,,,,,,,,,,,,,,,,,,,,,,,,,,,
,,,,,,5daca5b06aa37b00126c8d41,2024-02-08_11h52.39.855,group3.1-3.2-social-tom,2023.2.2,Win32,60.0240096,65c5074098b851296ff0b7ed,65c514c0025bb618405c2167,,,,,,,,,,,,,,,,,,,,,,,,,,,,,,,,,,,,,,,,,,,,,,,,,,,,,,,,,,,,,,,,,,,,,,,,1186.091,1246.097,,,,1246.097,1269.992,space,23.565,,,,,,,,,,,,,,,,,,,,,,,,,,
,,,,,,5daca5b06aa37b00126c8d41,2024-02-08_11h52.39.855,group3.1-3.2-social-tom,2023.2.2,Win32,60.0240096,65c5074098b851296ff0b7ed,65c514c0025bb618405c2167,,,,,,,,,,,,,,,,,,,,,,,,,,,,,1272.621,1,audio/Narrative7Situation9.wav,1274.635,,,,,,,1306.609,1311.76,0,3.878,"[{""rating"":0,""responseTime"":3.877999999999929}]",space,4.619,,1306.594,Partially,50,1306.609,,,[],,,,,,,,,,,2,2,2,2,,,,,,,,,,,,,,,1270,1272.57,1274.635,3,1306.593,"[[999,7],[999,118],[999,199],[999,282],[999,365],[999,450],[999,532],[999,615],[999,699],[999,783],[999,865],[999,949],[999,1032],[999,1115],[999,1199],[999,1282],[999,1365],[999,1449],[999,1532],[999,1615],[999,1699],[999,1783],[999,1865],[999,1949],[999,2032],[999,2115],[999,2199],[999,2282],[999,2365],[999,2449],[999,2532],[999,2615],[999,2699],[999,2782],[999,2865],[999,2949],[999,3032],[999,3115],[999,3199],[999,3282],[999,3368],[999,3449],[999,3532],[999,3615],[999,3699],[999,3782],[999,3865],[999,3956],[999,4032],[999,4115],[999,4198],[999,4281],[999,4365],[999,4448],[999,4532],[999,4615],[999,4699],[999,4782],[999,4865],[999,4948],[999,5031],[999,5114],[999,5198],[999,5281],[999,5364],[999,5448],[999,5532],[999,5615],[999,5698],[999,5782],[999,5865],[999,5948],[999,6031],[999,6115],[999,6198],[999,6281],[999,6365],[999,6448],[999,6532],[999,6614],[999,6698],[999,6781],[999,6864],[999,6947],[999,7031],[999,7114],[999,7198],[999,7281],[999,7364],[999,7448],[999,7531],[999,7614],[999,7698],[999,7781],[999,7864],[999,7947],[999,8030],[999,8115],[999,8198],[999,8280],[999,8364],[999,8447],[999,8531],[999,8614],[999,8697],[999,8781],[999,8864],[999,8948],[999,9030],[999,9114],[999,9197],[999,9281],[999,9364],[999,9448],[999,9530],[999,9615],[999,9696],[999,9780],[999,9864],[999,9947],[999,10030],[999,10114],[999,10197],[999,10280],[999,10364],[999,10447],[999,10530],[999,10613],[999,10697],[999,10780],[999,10863],[999,10947],[999,11030],[999,11114],[999,11197],[999,11280],[999,11364],[999,11447],[999,11530],[999,11614],[999,11696],[999,11782],[999,11863],[999,11947],[999,12030],[999,12120],[999,12196],[999,12278],[999,12365],[999,12446],[999,12530],[999,12614],[999,12697],[999,12780],[999,12867],[999,12947],[999,13037],[54.3,13120],[54,13196],[51.6,13288],[50.3,13363],[50.3,13449],[50.3,13528],[50.3,13613],[50.3,13696],[50.3,13780],[50.3,13864],[50.3,13945],[50.3,14028],[50.3,14112],[50.3,14196],[50.3,14280],[50.3,14362],[50.3,14446],[50.4,14530],[45.8,14618]]",0,0,0,0,1,"Larry had recently lost his family, job and home, and was now living on his own in the park. He had most of his belongings, including some clothes, a blanket, and his mother’s special necklace. His family had been very important to him and he felt as though he did not have much going for him. One of his first days in the park he came across a family that did not have much food and looked very cold. He decided to give them some of his food and his blanket.","Larry had recently lost his family, job and home, and was now living on his own in the park. He had most of his belongings, including some clothes, a blanket, and his mother’s special necklace. His family had been very important to him and he felt as though he did not have much going for him. One of his first days in the park he came across a family that did not have much food and looked very cold. He decided to give them some of his food and his blanket.","Larry had recently lost his family, job and home, and was now living on his own in the park. He had most of his belongings, including some clothes, a blanket, and his mother’s special necklace. His family had been very important to him and he felt as though he did not have much going for him. One of his first days in the park he came across a family that did not have much food and looked very cold. He decided to give them some of his food and his blanket.","Larry had recently lost his family, job and home, and was now living on his own in the park. He had most of his belongings, including some clothes, a blanket, and his mother’s special necklace. His family had been very important to him and he felt as though he did not have much going for him. One of his first days in the park he came across a family that did not have much food and looked very cold. He decided to give them some of his food and his blanket.",,,,,,,,,,
