exp_question,consent.started,consent.stopped,consentResponse.keys,consentResponse.rt,consentResponse.duration,participantID,date,expName,psychopyVersion,OS,frameRate,STUDY_ID,SESSION_ID,opening1.started,opening1.stopped,keyEndingOpening1.keys,keyEndingOpening1.rt,keyEndingOpening1.duration,volumeAdjust.started,volumeAdjust.stopped,endingAdjust.keys,endingAdjust.rt,endingAdjust.duration,opening2.started,opening2.stopped,keyEndingOpening.keys,keyEndingOpening.rt,keyEndingOpening.duration,mouse.x,mouse.y,mouse.leftButton,mouse.midButton,mouse.rightButton,mouse.time,instructionLoop.thisRepN,instructionLoop.thisTrialN,instructionLoop.thisN,instructionLoop.thisIndex,instructionLoop.ran,readyForAudio.started,readyForAudio.stopped,fixation.started,run,audio_played,fixation.stopped,endPractice.keys,audioPre.started,audioPre.stopped,continuousResponses_audio,continuousSlider.response,continuousSlider.rt,intRating.started,intRating.stopped,intQuestionSlider.response,intQuestionSlider.rt,intQuestionSlider.history,confirmResponse.keys,confirmResponse.rt,confirmResponse.duration,catchQuestion.started,catch_label,catch_value,catchQuestion.stopped,catchQuestionSlider.response,catchQuestionSlider.rt,catchQuestionSlider.history,confirmResponse_2.keys,audioRunLoop.thisRepN,audioRunLoop.thisTrialN,audioRunLoop.thisN,audioRunLoop.thisIndex,audioRunLoop.ran,conditions1_1,conditions2_1,conditions1_2,conditions2_2,dur1_1,dur2_1,dur1_2,dur2_2,endPractice.rt,endPractice.duration,confirmResponse_2.rt,confirmResponse_2.duration,runIntervalBreak.started,runIntervalBreak.stopped,endingBreakKey.keys,endingBreakKey.rt,endingBreakKey.duration,connection.started,connection.stopped,connectionEnding.keys,connectionEnding.rt,connectionEnding.duration,readyForText.started,readyForText.stopped,textPre.started,run_dup,textPre.stopped,continuousResponses_text,textRunLoop.thisRepN,textRunLoop.thisTrialN,textRunLoop.thisN,textRunLoop.thisIndex,textRunLoop.ran,text1_1,text1_2,text2_1,text2_2,runBreakText.started,runBreakText.stopped,endingBreakKey_2.keys,endingBreakKey_2.rt,endingBreakKey_2.duration,ending.started,ending.stopped,endingEnding.keys,endingEnding.rt,endingEnding.duration
social,0.0004,2.0977,y,1.7713,,5dd2f94a238a913096c52317,2024-05-13_10h35.14.189,group3.1-3.2-social-tom,2023.2.2,Win32,59.88023952,65c5074098b851296ff0b7ed,664231b98372433f56664f2b,,,,,,,,,,,,,,,,,,,,,,,,,,,,,,,,,,,,,,,,,,,,,,,,,,,,,,,,,,,,,,,,,,,,,,,,,,,,,,,,,,,,,,,,,,,,,,,,,,,,,,,,,,
,,,,,,5dd2f94a238a913096c52317,2024-05-13_10h35.14.189,group3.1-3.2-social-tom,2023.2.2,Win32,59.88023952,65c5074098b851296ff0b7ed,664231b98372433f56664f2b,2.0981,8.394,space,6.2314,,,,,,,,,,,,,,,,,,,,,,,,,,,,,,,,,,,,,,,,,,,,,,,,,,,,,,,,,,,,,,,,,,,,,,,,,,,,,,,,,,,,,,,,,,,,,,,,,,,,,,
,,,,,,5dd2f94a238a913096c52317,2024-05-13_10h35.14.189,group3.1-3.2-social-tom,2023.2.2,Win32,59.88023952,65c5074098b851296ff0b7ed,664231b98372433f56664f2b,,,,,,8.3942,19.99,space,11.265,,,,,,,,,,,,,,,,,,,,,,,,,,,,,,,,,,,,,,,,,,,,,,,,,,,,,,,,,,,,,,,,,,,,,,,,,,,,,,,,,,,,,,,,,,,,,,,,,
,,,,,,5dd2f94a238a913096c52317,2024-05-13_10h35.14.189,group3.1-3.2-social-tom,2023.2.2,Win32,59.88023952,65c5074098b851296ff0b7ed,664231b98372433f56664f2b,,,,,,,,,,,19.9984,30.7319,space,10.7013,,[],[],[],[],[],[],0,0,0,0,1,,,,,,,,,,,,,,,,,,,,,,,,,,,,,,,,,,,,,,,,,,,,,,,,,,,,,,,,,,,,,,,,,,,,,,,,,,,,,,,,
,,,,,,5dd2f94a238a913096c52317,2024-05-13_10h35.14.189,group3.1-3.2-social-tom,2023.2.2,Win32,59.88023952,65c5074098b851296ff0b7ed,664231b98372433f56664f2b,,,,,,,,,,,30.7327,50.972,space,20.0179,,[],[],[],[],[],[],1,0,1,0,1,,,,,,,,,,,,,,,,,,,,,,,,,,,,,,,,,,,,,,,,,,,,,,,,,,,,,,,,,,,,,,,,,,,,,,,,,,,,,,,,
,,,,,,5dd2f94a238a913096c52317,2024-05-13_10h35.14.189,group3.1-3.2-social-tom,2023.2.2,Win32,59.88023952,65c5074098b851296ff0b7ed,664231b98372433f56664f2b,,,,,,,,,,,51.0042,72.0502,space,20.9667,,[],[],[],[],[],[],2,0,2,0,1,,,,,,,,,,,,,,,,,,,,,,,,,,,,,,,,,,,,,,,,,,,,,,,,,,,,,,,,,,,,,,,,,,,,,,,,,,,,,,,,
,,,,,,5dd2f94a238a913096c52317,2024-05-13_10h35.14.189,group3.1-3.2-social-tom,2023.2.2,Win32,59.88023952,65c5074098b851296ff0b7ed,664231b98372433f56664f2b,,,,,,,,,,,72.0649,103.581,space,31.4815,,[],[],[],[],[],[],3,0,3,0,1,,,,,,,,,,,,,,,,,,,,,,,,,,,,,,,,,,,,,,,,,,,,,,,,,,,,,,,,,,,,,,,,,,,,,,,,,,,,,,,,
,,,,,,5dd2f94a238a913096c52317,2024-05-13_10h35.14.189,group3.1-3.2-social-tom,2023.2.2,Win32,59.88023952,65c5074098b851296ff0b7ed,664231b98372433f56664f2b,,,,,,,,,,,103.5952,122.0923,space,18.471,,[],[],[],[],[],[],4,0,4,0,1,,,,,,,,,,,,,,,,,,,,,,,,,,,,,,,,,,,,,,,,,,,,,,,,,,,,,,,,,,,,,,,,,,,,,,,,,,,,,,,,
,,,,,,5dd2f94a238a913096c52317,2024-05-13_10h35.14.189,group3.1-3.2-social-tom,2023.2.2,Win32,59.88023952,65c5074098b851296ff0b7ed,664231b98372433f56664f2b,,,,,,,,,,,,,,,,,,,,,,,,,,,122.1085,124.6915,124.7245,1,audio/Narrative13Situation2.wav,126.7422,,126.7428,156.4926,"[[999,3],[999,172],[999,251],[999,335],[999,418],[999,501],[999,585],[999,668],[999,751],[999,835],[999,918],[999,1002],[999,1085],[999,1168],[999,1251],[999,1335],[999,1418],[999,1501],[999,1585],[999,1668],[999,1751],[999,1835],[999,1918],[999,2001],[999,2085],[999,2168],[999,2252],[999,2349],[999,2431],[999,2512],[999,2597],[999,2680],[74.9,2765],[65,2849],[58.6,2931],[37.1,3932],[37.8,4017],[38.3,4098],[41.7,4182],[44.3,4267],[45.3,4349],[45.6,4433],[45.7,4515],[43.1,4598],[34.3,4682],[32.6,4765],[32.1,4848],[32.1,4931],[32.1,5013],[32.1,5098],[32.7,5183],[41.9,5265],[47.1,5349],[49.7,5432],[53.5,5503],[55.3,5587],[58.4,5669],[59.9,5751],[61.5,5835],[63.8,5918],[65,6002],[66.1,6085],[66.8,6168],[66.9,6251],[67.9,6335],[69.1,6419],[69.4,6501],[69.4,6585],[69.4,6668],[69.4,6751],[69.4,6835],[69.4,6918],[69.4,7001],[69.4,7085],[69.4,7168],[69.4,7251],[69.4,7335],[69.4,7418],[69.4,7501],[69.4,7584],[69.4,7668],[69.4,7752],[69.4,7834],[70,7919],[70.6,8001],[70.6,8084],[70.6,8168],[70.6,8252],[70.6,8334],[70.6,8418],[70.6,8501],[70.6,8584],[70.6,8668],[70.6,8751],[70.6,8834],[70.6,8918],[70.6,9001],[70.6,9084],[70.6,9168],[70.6,9251],[70.6,9334],[70.6,9418],[70.6,9501],[70.6,9584],[70.6,9668],[70.6,9751],[70.6,9834],[70.6,9918],[70.6,10001],[70.6,10084],[70.6,10168],[70.6,10251],[70.6,10334],[72.2,10418],[74.2,10501],[76.9,10589],[79.2,10670],[80.6,10753],[81.5,10834],[81.5,10918],[81.5,11001],[81.5,11084],[81.5,11168],[81.5,11251],[81.5,11334],[81.5,11418],[81.5,11501],[81.5,11584],[81.5,11668],[81.5,11751],[81.5,11834],[81.5,11918],[81.5,12001],[81.5,12084],[81.5,12167],[81.5,12251],[81.5,12334],[81.5,12417],[81.5,12500],[81.5,12584],[81.5,12668],[81.5,12750],[81.5,12834],[81.5,12917],[81.5,13000],[81.5,13084],[81.5,13167],[81.5,13250],[81.5,13334],[81.5,13420],[81.5,13502],[81.5,13587],[81.5,13667],[81.5,13750],[81.5,13834],[81.5,13917],[81.5,14000],[81.5,14084],[81.5,14167],[81.5,14250],[81.5,14334],[81.5,14418],[84.4,14517],[86.9,14604],[89,14700],[89,14782],[89,14866],[89,14949],[89,15033],[89,15116],[89,15199],[89,15283],[89.9,15367],[90.6,15464],[90.6,15546],[90.6,15629],[90.7,15714],[90.7,15797],[90.7,15879],[90.7,15957],[90.7,16068],[90.7,16167],[90.7,16255],[90.7,16347],[90.7,16429],[90.7,16512],[90.7,16597],[90.7,16679],[90.7,16763],[90.7,16846],[90.7,16929],[90.7,17013],[90.7,17096],[90.7,17179],[90.7,17263],[90.7,17347],[90.7,17429],[90.7,17512],[90.7,17596],[90.7,17678],[90.7,17760],[90.7,17847],[90.7,17930],[90.7,18012],[90.7,18096],[90.7,18179],[90.7,18261],[90.7,18347],[90.7,18428],[89.2,18514],[85.9,18599],[81.1,18682],[77.5,18764],[72.7,18847],[67.6,18933],[63.5,19021],[61.7,19115],[60.7,19204],[59.4,19299],[56,19385],[50.9,19471],[45.6,19566],[40.4,19659],[37.7,19755],[36.1,19850],[34.8,19937],[33.5,20030],[33.2,20113],[33.2,20195],[33.2,20279],[33.2,20362],[33.2,20445],[33.2,20529],[33.2,20612],[33.2,20695],[33.2,20779],[33.2,20862],[33.2,20946],[33.2,21028],[33.2,21112],[33.2,21196],[33,21279],[29.3,21363],[27.3,21447],[26.1,21518],[24,21601],[22.9,21683],[21.6,21768],[20.1,21851],[19.5,21934],[19.5,22017],[18.6,22100],[18,22184],[18,22266],[18,22349],[18,22432],[18,22516],[18,22599],[18,22683],[18,22766],[18,22849],[18,22932],[18.2,23016],[19.3,23102],[20.6,23185],[23,23267],[26.4,23351],[31.1,23433],[34.9,23519],[37.9,23602],[39.5,23683],[41.4,23768],[43.3,23852],[44.7,23935],[46.6,24019],[48,24100],[49.1,24183],[50,24268],[50.2,24349],[50.2,24432],[50.2,24516],[50.2,24599],[50.2,24682],[50.2,24765],[50.2,24849],[50.2,24933],[50.2,25015],[50.2,25099],[50.2,25182],[50.2,25265],[50.2,25349],[50.2,25432],[50.2,25515],[50.2,25599],[50.2,25682],[50.2,25765],[50.2,25849],[50.2,25932],[50.2,26015],[50.2,26099],[50.2,26182],[50.2,26265],[50.2,26349],[50.2,26432],[50.2,26515],[50.2,26599],[50.1,26684],[50.1,26765],[50.1,26848],[50.1,26932],[50.1,27015],[50.1,27098],[50.1,27182],[50.1,27265],[50.1,27348],[50.1,27432],[50.1,27515],[50.9,27599],[52.7,27682],[54.4,27765],[55.7,27850],[58.3,27933],[62.4,28015],[65.8,28099],[67.7,28183],[69.2,28267],[70,28349],[70.2,28431],[70.2,28515],[70.2,28600],[70.2,28682],[70.2,28765],[70.2,28848],[70.2,28932],[70.2,29015],[70.2,29098],[70.2,29181],[70.2,29265],[70.2,29348],[70.2,29432],[70.2,29514],[70.2,29598],[70.2,29682]]",1,0,156.493,167.7651,64.6875,9.2631,"[{""rating"":64.6875,""responseTime"":9.263099999904654}]",space,10.7246,,167.7655,Not at all,0,167.7752,,,[],,0,0,0,0,1,audio/Narrative13Situation2.wav,audio/Narrative13Situation2.wav,audio/Narrative13Situation2.wav,audio/Narrative13Situation2.wav,2,2,2,2,,,,,,,,,,,,,,,,,,,,,,,,,,,,,,,,,,,,,,,
,,,,,,5dd2f94a238a913096c52317,2024-05-13_10h35.14.189,group3.1-3.2-social-tom,2023.2.2,Win32,59.88023952,65c5074098b851296ff0b7ed,664231b98372433f56664f2b,,,,,,,,,,,,,,,,,,,,,,,,,,,,,167.7758,1,audio/Narrative8Situation1.wav,171.473,space,171.4732,187.4039,"[[999,13],[999,98],[999,182],[999,265],[999,348],[999,432],[999,515],[999,598],[999,682],[999,765],[999,849],[999,932],[999,1029],[999,1114],[999,1197],[999,1281],[999,1361],[999,1445],[999,1529],[999,1611],[999,1697],[999,1778],[999,1862],[999,1945],[999,2028],[999,2111],[999,2196],[999,2277],[999,2362],[999,2446],[999,2528],[999,2612],[999,2696],[999,2779],[999,2862],[999,2944],[999,3028],[999,3111],[999,3195],[999,3278],[999,3361],[999,3445],[999,3529],[999,3613],[999,3697],[999,3779],[999,3861],[999,3948],[999,4036],[999,4120],[999,4203],[999,4286],[999,4368],[999,4451],[999,4531],[999,4615],[999,4698],[999,4781],[999,4878],[999,4966],[999,5068],[27.3,5185],[24.7,5273],[23,5368],[22.3,5464],[22,5546],[21,5631],[20.4,5715],[20.4,5798],[20.4,5881],[20.4,5966],[20.4,6048],[20.4,6131],[20.4,6216],[20.4,6297],[18.9,6382],[17.2,6482],[16.1,6556],[15.7,6633],[14,6716],[13.3,6798],[12.5,6883],[12.5,6966],[12.5,7048],[12.5,7132],[12.5,7215],[12.5,7298],[12.5,7381],[12.5,7465],[12.5,7549],[12.5,7632],[12.5,7715],[12.5,7798],[12.5,7881],[12.5,7965],[12.5,8048],[12.5,8132],[12.5,8215],[12.5,8298],[12.5,8381],[12.5,8465],[12.5,8548],[12.5,8631],[12.5,8715],[12.5,8798],[12.5,8881],[12.5,8965],[12.5,9048],[12.5,9131],[12.5,9214],[12.5,9298],[12.5,9381],[12.5,9465],[12.5,9548],[12.5,9631],[12.5,9715],[12.5,9798],[24.6,9896],[36.4,9984],[46.9,10069],[51.9,10159],[59.1,10255],[73.2,10350],[75.1,10444],[75.1,10528],[75.1,10610],[75.1,10693],[75.1,10777],[76.1,10861],[80.5,10947],[82.4,11029],[84.3,11115],[85.6,11199],[87.2,11287],[89.9,11382],[90,11464],[90,11547],[90,11630],[90,11714],[90,11797],[90,11880],[90,11963],[90,12047],[90,12130],[90,12214],[90,12297],[90,12380],[90,12464],[90,12547],[90,12630],[90,12714],[90,12797],[90,12880],[90,12963],[90,13047],[90,13130],[90,13213],[90,13297],[90,13380],[90,13463],[90,13547],[90,13630],[90,13713],[90,13797],[90,13880],[90,13963],[90,14047],[90,14130],[90,14213],[90,14296],[90,14380],[90,14463],[90,14546],[90,14630],[90,14713],[90,14796],[90,14880],[90,14963],[90,15047],[90,15130],[90,15213],[90,15296],[90,15380],[90,15463],[90,15547],[90,15630],[90,15713],[90,15796],[90,15880]]",1,0,187.4041,192.7027,50.20833969,3.2843,"[{""rating"":50.20833969116211,""responseTime"":3.28430000019074}]",space,4.769,,192.7028,Not at all,0,192.7061,,,[],,0,1,1,1,1,audio/Narrative7Situation1.wav,audio/Narrative8Situation1.wav,audio/Narrative5Situation1.wav,audio/Narrative6Situation1.wav,2,5,5,2,3.6547,,,,,,,,,,,,,,,,,,,,,,,,,,,,,,,,,,,,,,
,,,,,,5dd2f94a238a913096c52317,2024-05-13_10h35.14.189,group3.1-3.2-social-tom,2023.2.2,Win32,59.88023952,65c5074098b851296ff0b7ed,664231b98372433f56664f2b,,,,,,,,,,,,,,,,,,,,,,,,,,,,,192.7065,1,audio/Narrative8Situation2.wav,195.7197,,195.7198,205.8476,"[[999,0],[999,82],[999,165],[999,249],[999,332],[999,415],[999,499],[999,582],[999,665],[999,750],[999,833],[999,917],[999,1013],[999,1097],[999,1179],[999,1262],[999,1345],[999,1429],[999,1513],[999,1596],[999,1680],[999,1762],[999,1845],[999,1928],[999,2012],[999,2087],[999,2178],[999,2262],[999,2345],[999,2429],[999,2514],[999,2612],[999,2694],[999,2780],[999,2863],[999,2938],[999,3029],[50,3112],[49.9,3211],[49.9,3295],[49.9,3380],[50.1,3463],[52.1,3548],[56.3,3636],[57.7,3719],[58.1,3799],[58.1,3881],[58.1,3965],[58.1,4048],[58.1,4131],[58.1,4215],[58.1,4298],[58.1,4381],[58.1,4465],[50.3,4548],[34.7,4633],[29.4,4717],[26.8,4803],[25.4,4888],[22.4,4982],[20.9,5065],[19.9,5148],[19.8,5231],[19.8,5315],[19.8,5398],[19.8,5481],[19.8,5565],[19.8,5648],[19.8,5731],[19.8,5815],[19.8,5898],[19.8,5981],[18.8,6065],[14.7,6148],[13.3,6233],[12,6320],[10.7,6413],[10.5,6495],[10.5,6578],[10.5,6661],[10.5,6745],[10.5,6827],[10.5,6912],[10.5,6995],[10.5,7078],[10.5,7161],[10.5,7245],[10.5,7328],[10.5,7411],[10.5,7494],[10.5,7577],[10.5,7661],[10.5,7744],[10.5,7827],[10.5,7911],[10.5,7994],[10.5,8078],[10.5,8161],[10.5,8244],[10.5,8327],[10.5,8410],[10.5,8494],[10.5,8578],[10.5,8660],[10.5,8744],[10.5,8829],[10.5,8910],[10.5,8994],[10.5,9078],[10.5,9161],[10.5,9244],[10.5,9328],[10.5,9411],[10.5,9495],[10.5,9577],[10.5,9661],[10.5,9744],[10.5,9827],[10.5,9911],[10.5,9995],[10.5,10077]]",1,0,205.8479,211.0012,5,3.2205,"[{""rating"":4.999999999999999,""responseTime"":3.220499999999987}]",space,4.6166,,211.0013,Definitely yes,100,211.0069,,,[],,0,2,2,2,1,audio/Narrative7Situation2.wav,audio/Narrative8Situation2.wav,audio/Narrative5Situation2.wav,audio/Narrative6Situation2.wav,3,3,3,3,,,,,,,,,,,,,,,,,,,,,,,,,,,,,,,,,,,,,,,
,,,,,,5dd2f94a238a913096c52317,2024-05-13_10h35.14.189,group3.1-3.2-social-tom,2023.2.2,Win32,59.88023952,65c5074098b851296ff0b7ed,664231b98372433f56664f2b,,,,,,,,,,,,,,,,,,,,,,,,,,,,,211.0073,1,audio/Narrative8Situation3.wav,215.0182,,215.0182,237.4114,"[[999,16],[999,101],[999,182],[999,264],[999,348],[999,431],[999,514],[999,598],[999,682],[999,765],[999,848],[999,932],[999,1015],[999,1098],[999,1182],[999,1265],[999,1347],[999,1431],[999,1514],[999,1598],[999,1681],[999,1764],[999,1848],[999,1931],[999,2014],[999,2098],[999,2181],[999,2264],[999,2347],[999,2431],[999,2514],[999,2597],[999,2681],[999,2765],[13.8,2848],[12.6,2932],[11.7,3016],[10.8,3098],[10.8,3181],[10.8,3279],[13.9,3363],[18.9,3446],[21.5,3528],[23.4,3611],[25.7,3699],[31.3,3783],[37.4,3868],[40.1,3952],[42.6,4040],[45.2,4129],[49.5,4214],[50.6,4301],[50.6,4381],[50.6,4464],[50.6,4547],[50.6,4631],[50.6,4714],[50.6,4797],[50.6,4881],[50.6,4963],[50.6,5047],[50.6,5130],[50.6,5214],[50.6,5297],[50.6,5380],[51.5,5464],[53.4,5548],[56.3,5631],[59.8,5717],[63.9,5801],[66.1,5885],[66.9,5979],[67.7,6055],[67.7,6131],[67.7,6214],[67.7,6298],[67.7,6381],[67.7,6464],[67.7,6548],[67.7,6631],[67.7,6714],[67.7,6798],[67.7,6881],[67.7,6964],[67.7,7047],[67.7,7131],[67.7,7214],[67.7,7297],[67.7,7381],[67.7,7464],[67.7,7547],[67.7,7631],[67.7,7714],[67.7,7797],[67.7,7881],[67.7,7964],[67.7,8047],[67.7,8131],[67.7,8214],[67.7,8297],[67.7,8381],[67.7,8464],[67.7,8547],[67.7,8631],[67.7,8714],[67.7,8797],[67.7,8881],[67.7,8964],[67.7,9047],[67.7,9131],[67.7,9214],[67.7,9297],[67.7,9381],[67.7,9464],[67.7,9548],[67.7,9630],[67.8,9714],[69.3,9798],[70.8,9881],[73,9965],[75.6,10049],[78.4,10132],[80.3,10214],[82.2,10298],[83.8,10383],[85.2,10469],[86.3,10555],[86.6,10664],[86.6,10766],[86.6,10865],[86.6,10947],[86.6,11030],[86.6,11113],[86.6,11196],[86.6,11280],[86.6,11363],[86.6,11446],[86.6,11530],[86.6,11613],[86.6,11696],[86.6,11780],[86.6,11863],[86.6,11946],[86.6,12029],[86.6,12113],[86.6,12196],[86.6,12280],[86.6,12363],[86.6,12446],[86.6,12529],[87.2,12614],[88.1,12698],[89.1,12780],[90.5,12867],[91.5,12951],[91.8,13046],[91.8,13125],[91.8,13209],[91.8,13292],[91.8,13376],[91.8,13459],[91.8,13543],[91.8,13626],[91.8,13709],[91.8,13792],[91.8,13876],[91.8,13959],[91.8,14042],[91.8,14127],[91.8,14209],[91.8,14292],[91.8,14376],[91.8,14458],[91.8,14542],[91.8,14626],[91.8,14709],[91.8,14791],[91.8,14876],[91.8,14959],[91.8,15043],[91.8,15124],[91.8,15208],[91.8,15293],[91.8,15374],[91.8,15459],[91.8,15543],[92.2,15627],[92.8,15711],[93.4,15792],[94.1,15877],[94.4,15960],[94.4,16042],[94.4,16125],[94.4,16210],[94.4,16292],[94.4,16375],[94.4,16459],[94.4,16542],[94.4,16619],[94.3,16709],[94.2,16793],[93.9,16877],[93.5,16958],[93.3,17042],[92.9,17126],[92.3,17213],[92.3,17293],[92.3,17376],[92.3,17459],[92.3,17542],[92.3,17625],[92.3,17708],[92.3,17792],[92.3,17875],[92.3,17959],[92.3,18042],[92.3,18125],[92.3,18209],[92.3,18292],[92.3,18374],[92.3,18458],[92.3,18542],[92.3,18625],[92.3,18708],[92.3,18792],[92.3,18875],[92.3,18959],[92.3,19042],[92.3,19125],[92.3,19209],[92.3,19284],[92.3,19375],[92.3,19459],[92.3,19542],[92.3,19625],[92.3,19709],[92.3,19793],[92.3,19875],[92.3,19958],[92.3,20042],[92.3,20126],[92.3,20208],[92.3,20292],[92.3,20374],[92.3,20457],[92.3,20541],[92.3,20625],[92.3,20708],[92.3,20792],[92.3,20875],[92.3,20958],[92.3,21041],[92.3,21125],[92.3,21208],[92.3,21292],[92.3,21375],[92.3,21458],[92.3,21541],[92.3,21625],[92.3,21708],[92.3,21792],[92.3,21875],[92.3,21958],[92.3,22042],[92.3,22125],[92.3,22208],[92.3,22293],[92.3,22375]]",1,0,237.4117,241.711,91.25,2.7511,"[{""rating"":85.83333969116211,""responseTime"":1.6346999998092429},{""rating"":91.25,""responseTime"":2.751099999904625}]",space,3.7502,,241.7111,Definitely yes,100,241.7143,,,[],,0,3,3,3,1,audio/Narrative7Situation3.wav,audio/Narrative8Situation3.wav,audio/Narrative5Situation3.wav,audio/Narrative6Situation3.wav,8,4,3,5,,,,,,,,,,,,,,,,,,,,,,,,,,,,,,,,,,,,,,,
,,,,,,5dd2f94a238a913096c52317,2024-05-13_10h35.14.189,group3.1-3.2-social-tom,2023.2.2,Win32,59.88023952,65c5074098b851296ff0b7ed,664231b98372433f56664f2b,,,,,,,,,,,,,,,,,,,,,,,,,,,,,241.7148,1,audio/Narrative8Situation4.wav,244.7252,,244.7253,258.8913,"[[999,0],[999,84],[999,167],[999,250],[999,334],[999,417],[999,500],[999,583],[999,667],[999,741],[999,833],[999,917],[999,992],[999,1084],[999,1165],[999,1250],[999,1334],[999,1419],[999,1499],[999,1584],[999,1667],[999,1751],[999,1835],[999,1918],[999,1999],[999,2083],[999,2167],[999,2250],[999,2333],[999,2415],[999,2501],[999,2584],[999,2666],[999,2750],[999,2832],[999,2917],[999,3000],[999,3083],[999,3167],[999,3248],[999,3333],[999,3417],[999,3499],[999,3583],[999,3667],[999,3749],[999,3833],[999,3917],[999,3991],[999,4083],[999,4167],[999,4249],[999,4332],[999,4416],[999,4499],[999,4582],[999,4666],[999,4751],[999,4833],[999,4918],[999,4995],[48.9,5105],[54.4,5201],[66.1,5301],[70.5,5385],[75,5467],[82.1,5550],[85.6,5635],[86.5,5716],[86.5,5800],[86.5,5883],[86.5,5966],[86.5,6050],[86.5,6133],[86.5,6217],[86.5,6299],[87.2,6384],[88.9,6467],[89.4,6549],[89.6,6632],[89.6,6717],[89.6,6799],[89.6,6883],[89.6,6966],[89.6,7049],[89.6,7132],[89.6,7216],[89.6,7299],[89.6,7383],[89.6,7466],[89.6,7549],[89.6,7634],[89.6,7716],[89.6,7799],[89.6,7883],[90.9,7969],[92.3,8050],[93.1,8133],[93.3,8216],[93.3,8299],[93.3,8382],[93.3,8466],[93.3,8550],[93.3,8631],[93.3,8716],[93.3,8800],[93.3,8882],[93.3,8966],[93.3,9049],[93.3,9132],[93.3,9216],[93.3,9299],[93.3,9382],[93.3,9466],[93.3,9549],[93.3,9632],[93.3,9716],[93.3,9799],[93.3,9882],[93.3,9966],[93.3,10049],[93.3,10132],[93.3,10216],[93.3,10298],[93.3,10382],[93.3,10466],[93.3,10549],[93.3,10632],[93.3,10716],[93.3,10797],[93.3,10882],[93.3,10966],[93.3,11049],[93.3,11132],[93.3,11215],[93.3,11299],[93.3,11382],[93.3,11466],[93.8,11563],[94.4,11650],[94.7,11733],[94.7,11815],[94.7,11899],[94.7,11982],[94.7,12064],[94.7,12148],[94.7,12231],[94.7,12315],[94.7,12399],[94.7,12482],[94.7,12565],[94.7,12649],[94.7,12732],[94.7,12815],[94.7,12899],[94.7,12982],[94.7,13065],[94.7,13146],[94.7,13232],[94.7,13315],[94.7,13398],[94.7,13482],[94.7,13564],[94.7,13648],[94.7,13732],[94.7,13815],[94.7,13898],[94.7,13981],[94.7,14065],[94.7,14147]]",1,0,258.8914,261.0411,95.9375,1.3324,"[{""rating"":95.9375,""responseTime"":1.3324000000953902}]",space,1.6152,,261.0412,Definitely yes,100,261.0444,,,[],,0,4,4,4,1,audio/Narrative7Situation4.wav,audio/Narrative8Situation4.wav,audio/Narrative5Situation4.wav,audio/Narrative6Situation4.wav,3,3,1,2,,,,,,,,,,,,,,,,,,,,,,,,,,,,,,,,,,,,,,,
,,,,,,5dd2f94a238a913096c52317,2024-05-13_10h35.14.189,group3.1-3.2-social-tom,2023.2.2,Win32,59.88023952,65c5074098b851296ff0b7ed,664231b98372433f56664f2b,,,,,,,,,,,,,,,,,,,,,,,,,,,,,261.0448,1,audio/Narrative8Situation5.wav,263.0557,,263.0558,271.2935,"[[999,1],[999,71],[999,155],[999,238],[999,321],[999,405],[999,488],[999,571],[999,655],[999,738],[999,822],[999,906],[999,988],[999,1072],[999,1160],[999,1242],[999,1325],[999,1409],[84.1,1494],[83.9,1575],[84.4,1657],[85.3,1740],[86.3,1822],[87.2,1906],[88.4,1989],[90.5,2076],[90.5,2155],[90.5,2238],[90.5,2321],[90.5,2405],[90.5,2488],[90.5,2571],[90.5,2655],[90.5,2738],[90.5,2821],[90.5,2905],[90.5,2987],[90.5,3071],[90.5,3155],[90.5,3238],[90.5,3321],[90.5,3405],[90.5,3488],[90.5,3571],[90.5,3655],[91.5,3738],[92.4,3822],[93.1,3906],[93.6,3987],[93.6,4071],[93.6,4155],[93.6,4238],[93.6,4321],[93.6,4404],[93.6,4488],[93.6,4571],[93.6,4654],[93.6,4737],[93.6,4821],[93.6,4904],[93.6,4987],[93.6,5071],[93.6,5154],[93.6,5238],[93.6,5321],[93.6,5404],[93.6,5487],[93.6,5571],[93.6,5654],[93.6,5737],[93.6,5820],[93.6,5904],[93.6,5987],[93.6,6071],[93.6,6154],[93.6,6237],[93.6,6321],[93.6,6404],[93.6,6487],[93.6,6571],[93.6,6654],[93.6,6737],[93.6,6821],[93.6,6904],[93.6,6987],[93.6,7070],[93.6,7154],[93.6,7237],[93.6,7321],[93.6,7404],[93.6,7487],[93.6,7570],[93.6,7654],[93.6,7737],[93.6,7820],[93.6,7904],[93.6,7987],[93.6,8070],[93.6,8154],[93.6,8237]]",1,0,271.2936,273.9052,93.75,2.3662,"[{""rating"":93.75,""responseTime"":2.366200000286085}]",space,2.0656,,273.9053,Definitely yes,100,273.9089,,,[],,0,5,5,5,1,audio/Narrative7Situation5.wav,audio/Narrative8Situation5.wav,audio/Narrative5Situation5.wav,audio/Narrative6Situation5.wav,5,2,5,2,,,,,,,,,,,,,,,,,,,,,,,,,,,,,,,,,,,,,,,
,,,,,,5dd2f94a238a913096c52317,2024-05-13_10h35.14.189,group3.1-3.2-social-tom,2023.2.2,Win32,59.88023952,65c5074098b851296ff0b7ed,664231b98372433f56664f2b,,,,,,,,,,,,,,,,,,,,,,,,,,,,,273.9096,1,audio/Narrative8Situation6.wav,275.9222,,275.9223,282.4051,"[[93.4,2753],[89.7,2836],[88.6,2920],[88.2,3002],[88.2,3085],[88.2,3169],[88.2,3252],[88.2,3335],[88.2,3419],[88.3,3502],[89.1,3585],[89.1,3669],[89.1,3752],[89.1,3835],[89.1,3918],[89.1,4002],[89.1,4087],[89.7,4169],[90.6,4253],[91.6,4340],[91.9,4432],[91.9,4516],[91.9,4598],[91.9,4681],[91.9,4766],[91.9,4848],[91.9,4932],[91.9,5015],[91.9,5098],[91.9,5182],[91.9,5265],[91.9,5348],[91.9,5432],[91.9,5515],[91.9,5598],[91.9,5682],[91.9,5766],[92.5,5850],[93.1,5932],[93.4,6013],[93.4,6098],[93.4,6182],[93.4,6265],[93.4,6348],[93.4,6432]]",1,0,282.4053,284.5716,94.27083969,1.7786,"[{""rating"":94.27083969116211,""responseTime"":1.7785999999046567}]",space,1.6317,,284.5717,Not at all,0,284.5768,,,[],,0,6,6,6,1,audio/Narrative7Situation6.wav,audio/Narrative8Situation6.wav,audio/Narrative5Situation6.wav,audio/Narrative6Situation6.wav,3,2,3,2,,,,,,,,,,,,,,,,,,,,,,,,,,,,,,,,,,,,,,,
,,,,,,5dd2f94a238a913096c52317,2024-05-13_10h35.14.189,group3.1-3.2-social-tom,2023.2.2,Win32,59.88023952,65c5074098b851296ff0b7ed,664231b98372433f56664f2b,,,,,,,,,,,,,,,,,,,,,,,,,,,,,284.5772,1,audio/Narrative8Situation7.wav,287.5905,,287.5906,299.6876,"[[999,12],[999,95],[999,176],[999,263],[999,345],[999,430],[999,512],[999,596],[999,679],[999,761],[999,846],[999,929],[999,1012],[999,1098],[999,1180],[999,1262],[999,1346],[999,1430],[999,1515],[999,1601],[999,1686],[999,1776],[999,1868],[999,1949],[999,2032],[999,2116],[999,2199],[999,2282],[999,2365],[999,2449],[999,2532],[999,2616],[999,2708],[999,2795],[999,2879],[999,2962],[999,3046],[999,3120],[999,3212],[999,3297],[999,3379],[999,3462],[999,3546],[999,3631],[999,3699],[999,3783],[999,3867],[999,3950],[999,4033],[999,4116],[999,4200],[999,4283],[999,4367],[999,4450],[999,4533],[999,4618],[999,4699],[999,4783],[999,4868],[999,4951],[999,5033],[999,5116],[999,5201],[999,5284],[50.2,5387],[49.3,5482],[48.9,5572],[48.9,5664],[48.9,5744],[48.9,5829],[48.9,5913],[48.9,5995],[48.9,6079],[48.9,6162],[48.9,6245],[42.8,6332],[34.5,6414],[28.6,6497],[24.8,6584],[22.6,6674],[21,6768],[19.5,6857],[18.2,6950],[17.3,7036],[16.4,7121],[15.7,7203],[15.7,7282],[15.4,7365],[15.1,7449],[14.9,7532],[14.9,7615],[14.9,7699],[14.9,7782],[14.9,7865],[14.9,7949],[14.9,8032],[14.9,8115],[14.9,8199],[14.9,8281],[14.9,8365],[14.9,8448],[14.9,8531],[14.9,8615],[14.9,8699],[14.9,8782],[14.9,8865],[18.4,8949],[25.3,9033],[34.4,9133],[41.3,9222],[50.5,9319],[56.4,9415],[63,9504],[65.7,9600],[68.8,9690],[71.6,9784],[71.6,9864],[71.6,9948],[71.6,10031],[71.6,10115],[71.6,10199],[71.6,10281],[72.1,10365],[73.9,10449],[75.7,10534],[79.8,10620],[81.8,10704],[83.1,10796],[84.9,10883],[86.3,10966],[86.9,11049],[87.5,11145],[87.7,11227],[87.7,11309],[87.7,11394],[87.7,11477],[87.7,11561],[87.7,11645],[87.7,11728],[87.7,11810],[87.7,11894],[85.9,11980],[83.1,12062]]",1,0,299.6883,302.6527,50.3125,1.6134,"[{""rating"":50.31250000000001,""responseTime"":1.6134000000953392}]",space,2.4214,,302.6528,Not at all,0,302.6559,,,[],,0,7,7,7,1,audio/Narrative7Situation7.wav,audio/Narrative8Situation7.wav,audio/Narrative5Situation7.wav,audio/Narrative6Situation7.wav,5,3,4,5,,,,,,,,,,,,,,,,,,,,,,,,,,,,,,,,,,,,,,,
,,,,,,5dd2f94a238a913096c52317,2024-05-13_10h35.14.189,group3.1-3.2-social-tom,2023.2.2,Win32,59.88023952,65c5074098b851296ff0b7ed,664231b98372433f56664f2b,,,,,,,,,,,,,,,,,,,,,,,,,,,,,302.6563,1,audio/Narrative8Situation8.wav,305.6679,,305.668,318.5287,"[[999,14],[999,99],[999,183],[999,266],[999,349],[999,433],[999,508],[999,600],[999,682],[999,766],[999,850],[999,932],[999,1016],[999,1098],[999,1183],[999,1266],[999,1349],[999,1433],[999,1516],[999,1599],[999,1682],[999,1758],[999,1849],[999,1933],[999,2015],[999,2099],[999,2183],[999,2266],[999,2349],[999,2432],[999,2516],[999,2601],[999,2682],[999,2765],[999,2849],[999,2933],[999,3016],[999,3099],[999,3183],[999,3264],[999,3349],[999,3433],[999,3514],[999,3599],[999,3682],[999,3766],[999,3849],[999,3933],[999,4016],[999,4099],[999,4183],[999,4265],[999,4349],[999,4432],[999,4515],[999,4599],[999,4682],[999,4765],[999,4847],[999,4932],[999,5016],[999,5100],[999,5184],[999,5266],[999,5351],[999,5433],[999,5516],[999,5602],[999,5687],[999,5770],[999,5852],[999,5936],[999,6019],[999,6102],[999,6186],[49.6,6305],[59.5,6393],[60.8,6483],[60.8,6566],[60.8,6648],[60.8,6732],[60.8,6815],[60.7,6899],[58.6,6985],[57.6,7065],[57.3,7149],[57.3,7224],[57.3,7315],[57.3,7399],[57.2,7483],[57.2,7565],[57.2,7649],[57.2,7732],[57.2,7815],[57,7900],[56.7,7982],[56.7,8065],[56.7,8149],[56.7,8232],[56.7,8315],[56.7,8398],[56.7,8482],[56.7,8565],[56.7,8649],[56.7,8732],[56.7,8816],[56.7,8898],[56.7,8982],[56.7,9066],[56.7,9149],[56.7,9231],[56.7,9315],[56.7,9398],[56.7,9481],[56.7,9564],[56.6,9648],[56.6,9733],[56.6,9815],[56.6,9898],[56.6,9982],[56.6,10065],[56.8,10148],[57.2,10233],[57.8,10317],[59.3,10406],[61.4,10493],[63.8,10586],[68.5,10673],[71.3,10761],[73.1,10852],[74.1,10937],[74.3,11018],[74.3,11101],[74.3,11185],[74.3,11268],[74.3,11351],[74.3,11435],[74.3,11518],[74.3,11602],[74.3,11685],[74.3,11768],[74.3,11851],[74.3,11935],[74.3,12018],[74.3,12101],[74.3,12185],[74.3,12268],[74.3,12351],[74.3,12435],[61.1,12518],[55.8,12603],[53.3,12688],[52.1,12774],[50.8,12860]]",1,0,318.5294,324.8834,42.8125,3.6908,"[{""rating"":32.604169845581055,""responseTime"":1.5195999999046421},{""rating"":40.104169845581055,""responseTime"":2.8194000000953565},{""rating"":42.8125,""responseTime"":3.690800000190734}]",space,5.8161,,324.8835,Partially,50,324.8884,,,[],,0,8,8,8,1,audio/Narrative7Situation8.wav,audio/Narrative8Situation8.wav,audio/Narrative5Situation8.wav,audio/Narrative6Situation8.wav,2,3,3,5,,,,,,,,,,,,,,,,,,,,,,,,,,,,,,,,,,,,,,,
,,,,,,5dd2f94a238a913096c52317,2024-05-13_10h35.14.189,group3.1-3.2-social-tom,2023.2.2,Win32,59.88023952,65c5074098b851296ff0b7ed,664231b98372433f56664f2b,,,,,,,,,,,,,,,,,,,,,,,,,,,,,324.8891,1,audio/Narrative8Situation9.wav,327.8983,,327.8985,339.2007,"[[999,14],[999,99],[999,183],[999,266],[999,349],[999,432],[999,516],[999,599],[999,682],[999,766],[999,849],[999,933],[999,1016],[999,1099],[999,1183],[999,1266],[999,1349],[999,1433],[999,1516],[999,1599],[999,1681],[999,1764],[999,1849],[999,1933],[999,2015],[999,2099],[999,2183],[999,2265],[999,2349],[999,2432],[999,2515],[999,2599],[999,2682],[999,2765],[999,2850],[999,2932],[999,3016],[999,3099],[999,3182],[999,3266],[999,3349],[999,3432],[999,3516],[999,3599],[999,3682],[999,3766],[999,3849],[999,3933],[999,4016],[999,4101],[999,4184],[999,4266],[999,4348],[999,4433],[999,4515],[999,4599],[999,4682],[999,4767],[999,4849],[999,4933],[999,5023],[999,5122],[999,5207],[999,5291],[999,5375],[999,5455],[999,5536],[999,5619],[999,5702],[999,5785],[51.9,5869],[52.2,5966],[52.6,6050],[53.2,6134],[53.4,6215],[53.4,6299],[53.4,6382],[53.4,6465],[53.4,6548],[53.4,6632],[53.4,6715],[53.4,6798],[53.4,6881],[53.4,6965],[53.4,7048],[53.4,7132],[53.4,7215],[53.4,7298],[53.4,7382],[53.4,7465],[53.4,7548],[53.4,7632],[53.4,7715],[53.4,7798],[53.4,7883],[53.4,7965],[54.4,8050],[54.4,8131],[54.7,8215],[54.7,8299],[54.7,8380],[54.7,8466],[54.7,8549],[54.7,8632],[54.7,8715],[54.7,8798],[54.7,8882],[54.7,8966],[54.7,9040],[54.7,9132],[54.7,9215],[54.7,9298],[54.7,9381],[54.7,9465],[55.7,9548],[58.5,9620],[60.6,9703],[62.2,9787],[62.8,9869],[62.8,9952],[62.8,10036],[62.8,10119],[62.8,10202],[62.8,10286],[62.8,10369],[62.8,10452],[58.2,10537],[54.2,10621],[52.3,10703],[51.1,10790],[50.7,10868],[50.7,10952],[50.7,11039],[50.7,11134],[50.7,11236]]",1,0,339.201,342.2899,49.89583969,2.329,"[{""rating"":53.33333969116211,""responseTime"":1.3787000002861305},{""rating"":49.89583969116211,""responseTime"":2.3290000000000077}]",space,2.551,,342.29,Not at all,0,342.2945,,,[],,0,9,9,9,1,audio/Narrative7Situation9.wav,audio/Narrative8Situation9.wav,audio/Narrative5Situation9.wav,audio/Narrative6Situation9.wav,2,3,3,4,,,,,,,,,,,,,,,,,,,,,,,,,,,,,,,,,,,,,,,
,,,,,,5dd2f94a238a913096c52317,2024-05-13_10h35.14.189,group3.1-3.2-social-tom,2023.2.2,Win32,59.88023952,65c5074098b851296ff0b7ed,664231b98372433f56664f2b,,,,,,,,,,,,,,,,,,,,,,,,,,,,,342.295,1,audio/Narrative7Situation1.wav,344.2971,,344.2972,400.1933,"[[47,5033],[43,5115],[33,5199],[25.4,5284],[21.5,5369],[19,5455],[17.6,5538],[15.9,5622],[15.1,5704],[14.8,5785],[14.2,5868],[13.3,5954],[13.2,6035],[13.2,6118],[13.2,6201],[13.2,6284],[13.2,6368],[13.2,6451],[13.2,6534],[13.2,6617],[13.2,6701],[13.2,6784],[13.2,6867],[13.2,6951],[13.2,7034],[13.2,7118],[13.2,7201],[13.2,7284],[13.2,7368],[13.2,7451],[13.2,7534],[13.2,7618],[13.2,7701],[13.2,7784],[13.2,7868],[13.3,7952],[29.7,8034],[45.7,8119],[54.3,8203],[61.8,8294],[64,8387],[64.6,8472],[66.8,8557],[69.3,8652],[71.6,8740],[71.6,8821],[71.6,8901],[71.6,9002],[71.9,9135],[76.9,9257],[79,9360],[80.2,9463],[81.8,9569],[82.8,9660],[82.8,9748],[82.8,9830],[82.8,9913],[82.8,9998],[82.8,10079],[82.8,10164],[82.8,10247],[82.8,10331],[82.8,10414],[82.8,10497],[82.8,10580],[82.8,10664],[82.8,10747],[82.8,10831],[82.8,10914],[82.8,10997],[82.8,11080],[82.8,11164],[82.8,11247],[82.8,11331],[82.8,11414],[82.8,11497],[82.8,11581],[82.8,11664],[82.8,11747],[82.8,11831],[82.8,11914],[82.8,11997],[82.8,12081],[82.6,12164],[82.6,12250],[82.8,12331],[83.4,12403],[84.7,12485],[85,12568],[85,12651],[85,12734],[85,12817],[85,12901],[85,12984],[85,13068],[85,13151],[85,13234],[85,13317],[85,13401],[85,13484],[85,13567],[85,13651],[85,13734],[85,13817],[85,13901],[85,13984],[85,14067],[85,14151],[85,14234],[85,14317],[85,14401],[85,14484],[85,14567],[85,14651],[85,14734],[85,14817],[85,14901],[85,14984],[85,15067],[85,15151],[85,15234],[85,15317],[85,15401],[85,15484],[85,15567],[85,15651],[85,15734],[85,15817],[85,15901],[85,15984],[85,16067],[85,16151],[85,16234],[85,16317],[85,16401],[85,16484],[85,16567],[85,16650],[85,16734],[85,16817],[85,16901],[85,16984],[85,17067],[85,17150],[85,17234],[85,17317],[85,17401],[85,17484],[85,17567],[85,17650],[85,17734],[85,17817],[85,17900],[85,17983],[85,18067],[85,18150],[85,18233],[85,18317],[85,18400],[85,18483],[85,18567],[85,18650],[85,18733],[85,18817],[85,18900],[85,18983],[85,19067],[85,19150],[85,19233],[85,19317],[85,19400],[85,19483],[85,19567],[85,19650],[85,19733],[85,19817],[85,19900],[85,19983],[85,20067],[85,20150],[85,20233],[85,20317],[85,20400],[85,20483],[85,20567],[85,20650],[85,20733],[85,20817],[81.6,20903],[79.8,20985],[78.5,21067],[77.9,21150],[77,21234],[76.5,21318],[76.4,21400],[76.4,21483],[76.4,21567],[76.4,21650],[76.4,21733],[76.4,21817],[76.4,21900],[76.4,21983],[76.4,22067],[76.4,22150],[76.4,22233],[76.4,22316],[76.4,22399],[76.4,22483],[76.4,22566],[76.4,22650],[76.4,22733],[76.4,22816],[78.6,22901],[80.6,22983],[80.6,23066],[80.6,23150],[80.6,23233],[80.6,23316],[80.6,23400],[80.6,23483],[80.6,23566],[80.6,23650],[80.6,23733],[80.6,23816],[80.6,23899],[80.6,23983],[80.6,24066],[80.6,24149],[80.6,24233],[80.6,24316],[80.6,24399],[80.6,24483],[80.6,24566],[80.6,24649],[80.6,24733],[80.6,24816],[80.6,24899],[80.6,24983],[80.6,25066],[80.6,25149],[80.6,25233],[77,25316],[74.6,25400],[73.5,25484],[72.7,25567],[72,25649],[70.7,25733],[69.8,25817],[69.6,25899],[69.6,25983],[69.6,26066],[69.6,26149],[69.6,26233],[69.6,26316],[69.6,26399],[69.6,26483],[68.8,26566],[61.5,26649],[58.2,26734],[57.3,26818],[57.1,26899],[57.1,26982],[57.1,27066],[57.1,27149],[57.1,27233],[57.1,27315],[57.1,27399],[57.1,27483],[57.1,27566],[57.1,27649],[57.1,27733],[57.1,27815],[57.1,27899],[57.1,27983],[57.1,28067],[57.1,28149],[57.1,28233],[57.1,28315],[57.1,28399],[57.1,28482],[48.9,28566],[38.3,28650],[34.7,28734],[33,28816],[32.1,28899],[32,28983],[32.1,29067],[32.8,29149],[34,29233],[35.2,29316],[35.4,29399],[35.4,29483],[35.4,29565],[35.4,29649],[35.4,29733],[35.4,29815],[35.4,29899],[36.1,29983],[36.1,30065],[36.3,30149],[36.3,30232],[36.3,30315],[36.3,30399],[36.3,30483],[36.3,30565],[36.3,30649],[36.3,30732],[36.3,30815],[36.3,30899],[36.3,30983],[36.3,31065],[36.3,31149],[36.3,31232],[36.3,31315],[36.3,31398],[36.3,31482],[36.3,31565],[36.3,31649],[36.3,31732],[36.3,31815],[36.3,31899],[36.3,31982],[36.3,32065],[36.3,32149],[36.3,32232],[36.3,32315],[36.3,32398],[36.3,32482],[36.3,32565],[36.3,32648],[36.3,32732],[36.3,32815],[36.3,32898],[36.3,32982],[36.3,33065],[36.3,33148],[36.3,33232],[36.3,33315],[36.3,33398],[36.3,33482],[36.3,33565],[36.3,33648],[36.3,33732],[36.3,33815],[36.3,33898],[36.3,33982],[36.3,34065],[36.3,34148],[36.3,34232],[36.3,34315],[36.3,34398],[36.3,34482],[36.3,34565],[36.3,34648],[36.3,34732],[36.3,34815],[36.3,34898],[36.3,34982],[36.3,35065],[36.3,35148],[36.3,35232],[36.3,35315],[36.3,35398],[36.3,35481],[36.3,35565],[36.3,35648],[36.3,35732],[36.3,35814],[36.3,35898],[36.3,35982],[36.3,36065],[36.3,36148],[36.3,36231],[36.3,36315],[36.3,36398],[36.3,36481],[36.3,36565],[36.3,36648],[36.3,36732],[36.3,36815],[36.3,36898],[36.3,36981],[36.3,37064],[36.3,37148],[36.3,37231],[36.3,37314],[36.3,37398],[36.3,37481],[36.3,37564],[36.3,37648],[36.3,37731],[36.3,37814],[36.3,37898],[36.3,37981],[36.3,38064],[36.3,38148],[36.3,38231],[36.3,38314],[36.3,38398],[36.3,38481],[36.3,38564],[36.3,38648],[36.3,38731],[36.3,38815],[36.3,38898],[36.3,38981],[36.3,39064],[36.3,39148],[36.3,39231],[36.3,39314],[36.3,39397],[36.3,39481],[36.3,39564],[36.3,39647],[36.3,39731],[36.3,39814],[36.3,39898],[36.3,39981],[36.3,40064],[36.3,40147],[36.3,40232],[36.3,40314],[36.3,40397],[36.3,40481],[36.3,40564],[36.3,40647],[36.3,40731],[36.3,40814],[36.3,40897],[36.3,40981],[36.3,41064],[36.3,41147],[36.3,41231],[36.3,41314],[36.3,41397],[36.3,41481],[36.3,41564],[36.3,41647],[36.3,41731],[36.3,41814],[36.3,41897],[36.3,41980],[35.2,42066],[34.3,42149],[34.2,42231],[41,42315],[49.8,42397],[52.8,42481],[53,42564],[53,42647],[53,42730],[53,42813],[55.2,42897],[60.6,42981],[62.7,43064],[63.4,43147],[63.4,43230],[63.4,43314],[63.4,43397],[63.4,43480],[63.4,43564],[63.4,43647],[63.4,43730],[63.4,43814],[63.4,43897],[63.4,43980],[63.4,44063],[63.4,44147],[63.4,44230],[63.4,44313],[63.4,44397],[63.4,44480],[63.4,44563],[63.4,44647],[63.4,44732],[63.4,44813],[63.4,44897],[63.4,44980],[63.4,45063],[63.4,45147],[63.4,45230],[63.4,45313],[63.4,45397],[63.4,45480],[63.4,45563],[63.4,45647],[63.4,45730],[63.4,45813],[63.4,45897],[63.4,45980],[63.4,46063],[63.4,46147],[63.4,46230],[63.4,46313],[63.4,46397],[63.4,46480],[63.4,46563],[63.4,46647],[63.4,46730],[63.4,46813],[63.4,46896],[63.4,46981],[63.4,47062],[63.4,47146],[63.4,47230],[63.4,47313],[63.4,47396],[63.4,47480],[63.4,47563],[63.4,47646],[63.4,47730],[63.4,47813],[63.4,47896],[63.4,47980],[63.4,48063],[63.4,48146],[63.4,48230],[63.4,48313],[63.4,48396],[63.4,48480],[63.4,48563],[63.4,48646],[63.4,48730],[63.4,48813],[63.4,48896],[63.4,48980],[63.4,49063],[63.4,49146],[63.4,49230],[63.4,49313],[63.4,49396],[63.4,49480],[63.4,49563],[63.4,49646],[63.4,49729],[63.4,49813],[63.4,49896],[63.4,49980],[63.4,50063],[63.4,50146],[63.4,50230],[64.5,50314],[67.5,50413],[69.6,50501],[74.1,50597],[74.7,50693],[74.7,50776],[74.7,50858],[74.7,50943],[74.7,51017],[74.7,51108],[76.9,51193],[78.3,51273],[79,51375],[79,51458],[79,51542],[79,51617],[79,51709],[79,51793],[79,51875],[79,51958],[79,52042],[79,52125],[79,52208],[79,52292],[79,52375],[79,52459],[79,52542],[79,52625],[79,52709],[79,52784],[79,52875],[79,52959],[79,53042],[79,53125],[79,53208],[79,53292],[79,53375],[79,53458],[79,53542],[79,53624],[79,53699],[79,53792],[79,53875],[79,53957],[79,54042],[79,54125],[79,54208],[79,54291],[79,54374],[79,54458],[79,54542],[79,54625],[79,54708],[79,54792],[79,54875],[79,54957],[79,55042],[79,55123],[79,55207],[79,55293],[79,55382],[79,55480],[79,55576],[79,55645],[79,55729],[79,55812],[79,55895]]",1,0,400.1937,405.3919,78.95833969,4.2382,"[{""rating"":71.875,""responseTime"":3.4984999999999786},{""rating"":78.95833969116211,""responseTime"":4.23819999980924}]",space,4.6505,,405.392,Not at all,0,405.3953,,,[],,0,10,10,10,1,audio/Narrative8Situation1.wav,audio/Narrative7Situation1.wav,audio/Narrative6Situation1.wav,audio/Narrative5Situation1.wav,5,2,2,5,,,,,,,,,,,,,,,,,,,,,,,,,,,,,,,,,,,,,,,
,,,,,,5dd2f94a238a913096c52317,2024-05-13_10h35.14.189,group3.1-3.2-social-tom,2023.2.2,Win32,59.88023952,65c5074098b851296ff0b7ed,664231b98372433f56664f2b,,,,,,,,,,,,,,,,,,,,,,,,,,,,,405.3957,1,audio/Narrative7Situation2.wav,408.4049,,408.4049,415.8746,"[[81.4,3433],[81.4,3531],[81,3617],[79.8,3699],[78.9,3785],[78.5,3868],[78.5,3936],[78.5,4019],[78.5,4103],[78.5,4186],[78.5,4269],[78.5,4353],[78.5,4436],[78.5,4519],[78.5,4602],[78.5,4686],[78.5,4769],[78.5,4853],[79.1,4936],[82.3,5020],[84.3,5105],[86,5187],[87.5,5271],[89.1,5356],[91.4,5436],[93.1,5519],[93.1,5603],[93.1,5686],[93.1,5769],[93.1,5852],[93.1,5936],[93.1,6019],[93.1,6102],[93.1,6186],[93.1,6269],[93.1,6352],[93.1,6436],[93.1,6519],[93.1,6602],[93.1,6686],[93.1,6768],[93.1,6852],[93.1,6936],[93.1,7019],[93.1,7102],[93.1,7185],[93.1,7269],[93.1,7352],[93.1,7436]]",1,0,415.8747,428.723,92.60416985,12.3614,"[{""rating"":92.60416984558105,""responseTime"":12.36140000009533}]",space,12.3033,,428.723,Definitely yes,100,428.7278,,,[],,0,11,11,11,1,audio/Narrative8Situation2.wav,audio/Narrative7Situation2.wav,audio/Narrative6Situation2.wav,audio/Narrative5Situation2.wav,3,3,3,3,,,,,,,,,,,,,,,,,,,,,,,,,,,,,,,,,,,,,,,
,,,,,,5dd2f94a238a913096c52317,2024-05-13_10h35.14.189,group3.1-3.2-social-tom,2023.2.2,Win32,59.88023952,65c5074098b851296ff0b7ed,664231b98372433f56664f2b,,,,,,,,,,,,,,,,,,,,,,,,,,,,,428.7282,1,audio/Narrative7Situation3.wav,436.7384,,436.7385,445.9907,"[[999,24],[999,111],[999,196],[999,278],[999,362],[999,446],[999,527],[999,612],[999,696],[63.8,782],[66.4,870],[68,954],[69.7,1048],[73.6,1146],[76.6,1232],[80.6,1321],[84.6,1405],[86.8,1496],[86.8,1578],[86.8,1661],[86.8,1745],[86.8,1829],[86.8,1912],[86.8,1995],[87.2,2080],[88.3,2162],[89.1,2247],[89.4,2333],[90,2429],[90.9,2512],[90.9,2595],[90.9,2678],[90.9,2761],[90.9,2845],[90.9,2928],[90.9,3011],[90.9,3095],[90.9,3178],[90.9,3262],[90.9,3345],[90.9,3428],[90.9,3511],[90.9,3594],[90.9,3678],[90.9,3762],[90.9,3844],[90.9,3928],[90.9,4011],[90.9,4095],[90.9,4178],[90.9,4261],[90.9,4345],[90.9,4429],[90.9,4512],[71.5,4607],[68.6,4703],[67.9,4801],[67.9,4881],[67.9,4980],[68.3,5064],[69,5148],[69.9,5235],[72.8,5321],[72.8,5398],[72.8,5481],[72.8,5564],[72.8,5648],[72.8,5731],[72.8,5814],[72.8,5898],[72.8,5981],[72.8,6064],[72.8,6148],[72.8,6233],[71.3,6316],[66.4,6399],[62.6,6485],[60.2,6572],[59.4,6661],[59.4,6744],[59.4,6828],[59.4,6911],[59.4,6994],[59.4,7077],[59.4,7161],[59.4,7244],[59.4,7327],[59.4,7411],[59.4,7495],[59.4,7578],[59.4,7661],[59.2,7745],[57.6,7829],[56,7914],[54.8,8001],[54.5,8081],[54.5,8164],[54.5,8247],[54.5,8331],[54.5,8414],[54.5,8497],[54.5,8581],[54.5,8664],[54.5,8747],[54.5,8831],[54.5,8914],[54.5,8998],[47.2,9081],[40,9164],[34.4,9252]]",1,0,445.9911,450.5527,33.75,2.6929,"[{""rating"":33.75,""responseTime"":2.6928999996185325}]",space,4.0194,,450.5528,Not at all,0,450.5582,,,[],,0,12,12,12,1,audio/Narrative8Situation3.wav,audio/Narrative7Situation3.wav,audio/Narrative6Situation3.wav,audio/Narrative5Situation3.wav,4,8,5,3,,,,,,,,,,,,,,,,,,,,,,,,,,,,,,,,,,,,,,,
,,,,,,5dd2f94a238a913096c52317,2024-05-13_10h35.14.189,group3.1-3.2-social-tom,2023.2.2,Win32,59.88023952,65c5074098b851296ff0b7ed,664231b98372433f56664f2b,,,,,,,,,,,,,,,,,,,,,,,,,,,,,450.559,1,audio/Narrative7Situation4.wav,453.5689,,453.569,465.3016,"[[999,0],[999,82],[999,166],[999,250],[999,332],[999,416],[999,500],[999,583],[100,680],[10.6,1680],[20,1768],[27.4,1855],[28.6,1934],[28.8,2029],[28.8,2113],[27.8,2197],[24.1,2281],[23.3,2362],[23.3,2445],[23.3,2529],[23.3,2612],[23.3,2696],[23.3,2778],[23.3,2862],[20.9,2947],[17.7,3032],[16,3118],[15.2,3200],[14.2,3286],[12.7,3371],[11.7,3464],[11.1,3541],[11,3616],[11,3700],[11,3783],[11,3866],[11,3950],[11,4033],[11,4116],[11,4200],[11,4283],[11,4366],[11,4450],[11,4533],[11,4616],[11,4700],[11,4783],[11,4866],[11,4950],[11,5033],[11,5116],[9.9,5200],[8.5,5283],[7.3,5368],[6.1,5452],[5.4,5534],[5.4,5616],[4.9,5700],[4.3,5783],[4.3,5866],[4.3,5950],[4.3,6032],[4.3,6116],[4.3,6199],[4.3,6282],[4.3,6366],[4.3,6449],[4.3,6532],[4.3,6615],[4.3,6700],[4.3,6783],[4.3,6866],[4.3,6949],[4.3,7032],[4.6,7116],[5.3,7200],[6.1,7284],[6.9,7366],[8.3,7450],[9.7,7533],[11.3,7617],[13.1,7700],[15.5,7783],[17.5,7866],[19.3,7951],[20.3,8033],[21.5,8118],[21.6,8199],[21.6,8282],[21.6,8366],[21.6,8449],[21.6,8532],[21.6,8616],[21.6,8700],[21.6,8782],[21.6,8865],[21.6,8949],[21.6,9032],[21.6,9116],[21.6,9199],[21.6,9282],[21.6,9365],[21.6,9449],[21.6,9532],[21.6,9615],[21.6,9699],[21.6,9782],[21.6,9865],[21.6,9949],[21.6,10032],[21.6,10115],[21.6,10199],[21.6,10282],[21.6,10366],[21.6,10449],[21.1,10532],[20.1,10615],[18.6,10699],[17.3,10783],[15.2,10866],[12.7,10949],[12.1,11032],[12.1,11115],[12.1,11199],[12.1,11282],[12.1,11365],[12.1,11448],[12.1,11532],[12.1,11615],[12.1,11698]]",1,0,465.3018,467.3834,12.08333492,1.713,"[{""rating"":12.08333492279053,""responseTime"":1.7130000000000223}]",space,1.5332,,467.3835,Definitely yes,100,467.3881,,,[],,0,13,13,13,1,audio/Narrative8Situation4.wav,audio/Narrative7Situation4.wav,audio/Narrative6Situation4.wav,audio/Narrative5Situation4.wav,3,3,2,1,,,,,,,,,,,,,,,,,,,,,,,,,,,,,,,,,,,,,,,
,,,,,,5dd2f94a238a913096c52317,2024-05-13_10h35.14.189,group3.1-3.2-social-tom,2023.2.2,Win32,59.88023952,65c5074098b851296ff0b7ed,664231b98372433f56664f2b,,,,,,,,,,,,,,,,,,,,,,,,,,,,,467.3886,1,audio/Narrative7Situation5.wav,472.3999,,472.3999,480.8857,"[[11.5,5174],[10.7,5251],[9.8,5335],[9.6,5416],[9.5,5500],[9.5,5583],[9.5,5666],[10,5751],[10.5,5833],[10.6,5916],[10.6,6000],[10.6,6082],[10.6,6166],[10.6,6249],[10.6,6332],[10.6,6416],[10.6,6499],[10.6,6582],[10.6,6666],[10.6,6750],[10.6,6832],[11.1,6916],[11.8,7000],[12.2,7083],[12.7,7166],[13.6,7251],[14.6,7333],[15.5,7418],[15.6,7500],[15.6,7582],[15.6,7666],[15.6,7749],[15.6,7832],[15.6,7915],[15.6,7999],[15.6,8082],[15.6,8166],[15.6,8249],[15.2,8333],[9.5,8417]]",1,0,480.8859,485.3294,1.979169846,3.2941,"[{""rating"":9.999999999999998,""responseTime"":1.6251999998092401},{""rating"":5.520834922790529,""responseTime"":2.4485999999046157},{""rating"":1.9791698455810525,""responseTime"":3.294099999904631}]",space,3.8987,,485.3294,Partially,50,485.3342,,,[],,0,14,14,14,1,audio/Narrative8Situation5.wav,audio/Narrative7Situation5.wav,audio/Narrative6Situation5.wav,audio/Narrative5Situation5.wav,2,5,2,5,,,,,,,,,,,,,,,,,,,,,,,,,,,,,,,,,,,,,,,
,,,,,,5dd2f94a238a913096c52317,2024-05-13_10h35.14.189,group3.1-3.2-social-tom,2023.2.2,Win32,59.88023952,65c5074098b851296ff0b7ed,664231b98372433f56664f2b,,,,,,,,,,,,,,,,,,,,,,,,,,,,,485.335,1,audio/Narrative7Situation6.wav,488.3443,,488.3444,498.31,"[[999,0],[999,86],[999,169],[999,253],[999,336],[999,420],[999,503],[999,586],[999,671],[999,767],[999,851],[999,927],[999,1008],[999,1094],[999,1171],[10.3,1255],[9.3,1337],[8.6,1420],[8.4,1505],[8.3,1587],[8.4,1670],[9.7,1755],[10.8,1838],[11.8,1924],[12.8,2006],[14,2088],[14.7,2170],[14.7,2253],[14.7,2336],[14.7,2420],[14.7,2503],[15.4,2587],[24.8,2671],[30.5,2753],[37.5,2837],[44.4,2922],[48.2,3005],[53,3088],[56.9,3170],[58.1,3256],[59.4,3339],[61.7,3422],[65.2,3505],[67.1,3588],[67.8,3671],[67.8,3782],[67.8,3870],[67.8,3952],[67.8,4035],[67.8,4119],[69.4,4205],[72.2,4290],[73.8,4375],[75.7,4469],[77.4,4554],[78.4,4638],[78.6,4720],[78.6,4802],[78.6,4885],[78.6,4969],[78.6,5052],[78.6,5135],[78.6,5219],[78.6,5302],[78.6,5385],[78.6,5469],[78.6,5552],[78.6,5635],[78.6,5719],[78.6,5802],[78.6,5885],[78.6,5969],[78.6,6052],[78.6,6135],[78.6,6219],[78.6,6302],[78.6,6385],[80.2,6469],[82.8,6552],[84.6,6636],[86.7,6721],[88,6807],[89.6,6894],[90.3,6983],[90.3,7065],[90.3,7149],[90.3,7231],[90.3,7315],[90.3,7399],[90.3,7481],[90.3,7565],[90.3,7649],[90.3,7732],[90.3,7815],[90.3,7898],[90.3,7982],[90.3,8065],[90.3,8147],[90.3,8231],[90.3,8315],[90.3,8396],[90.3,8481],[90.3,8565],[90.3,8649],[90.3,8732],[90.3,8815],[90.3,8898],[91.3,8984],[91.5,9065],[91.5,9148],[91.5,9231],[91.5,9315],[91.5,9398],[91.5,9481],[91.5,9565],[91.5,9648],[91.5,9731],[91.5,9807],[91.5,9897]]",1,0,498.3103,499.9436,88.85416985,0.715,"[{""rating"":88.85416984558105,""responseTime"":0.7150000000000318}]",space,1.0825,,499.9436,Not at all,0,499.9495,,,[],,0,15,15,15,1,audio/Narrative8Situation6.wav,audio/Narrative7Situation6.wav,audio/Narrative6Situation6.wav,audio/Narrative5Situation6.wav,2,3,2,3,,,,,,,,,,,,,,,,,,,,,,,,,,,,,,,,,,,,,,,
,,,,,,5dd2f94a238a913096c52317,2024-05-13_10h35.14.189,group3.1-3.2-social-tom,2023.2.2,Win32,59.88023952,65c5074098b851296ff0b7ed,664231b98372433f56664f2b,,,,,,,,,,,,,,,,,,,,,,,,,,,,,499.9499,1,audio/Narrative7Situation7.wav,504.9622,,504.9622,522.1435,"[[999,17],[999,99],[999,183],[999,266],[999,349],[999,432],[999,516],[999,600],[999,684],[999,770],[999,852],[999,935],[999,1018],[999,1101],[82.2,1187],[82.8,1282],[83.8,1369],[84.4,1451],[85.9,1538],[87.1,1632],[87.5,1713],[88.1,1798],[88.4,1879],[88.4,1964],[88.4,2046],[88.4,2129],[88.4,2211],[88.4,2296],[88.4,2379],[88.4,2462],[88.4,2545],[88.4,2629],[88.4,2704],[88.4,2796],[88.4,2880],[88.4,2962],[88.4,3046],[88.4,3129],[88.4,3212],[88.4,3296],[88.6,3379],[89.1,3463],[90,3547],[90.8,3630],[91.1,3713],[91.1,3796],[91.1,3879],[91.1,3962],[91.1,4045],[91.1,4129],[91.1,4212],[91.1,4296],[91.1,4379],[91.1,4463],[91.1,4536],[91.1,4629],[91.1,4713],[91.1,4795],[91.1,4879],[90.3,4964],[87.2,5047],[84.6,5135],[83.3,5217],[83,5299],[83,5382],[83,5465],[83,5549],[83,5632],[83,5715],[83,5799],[83,5882],[83,5965],[83,6048],[83.4,6133],[84.4,6215],[85,6300],[85.3,6382],[85.4,6466],[85.4,6548],[85.4,6632],[85.4,6715],[85.4,6798],[85.4,6882],[85.4,6965],[85.4,7048],[85.4,7134],[85.4,7215],[85.4,7298],[85.4,7382],[85.4,7465],[85.4,7548],[85.4,7632],[85.4,7715],[86.1,7799],[88,7882],[89.7,7968],[89.9,8048],[89.9,8132],[89.9,8215],[89.9,8298],[89.9,8382],[89.9,8466],[89.9,8548],[89.9,8632],[89.9,8715],[89.9,8798],[89.9,8882],[89.9,8965],[89.9,9048],[89.9,9132],[89.9,9215],[89.9,9298],[89.9,9382],[89.9,9465],[89.9,9548],[89.9,9631],[89.9,9715],[89.9,9798],[89.9,9881],[89.9,9965],[89.9,10048],[89.9,10132],[89.9,10215],[89.9,10298],[89.9,10381],[89.9,10465],[89.9,10548],[89.9,10631],[89.9,10715],[89.9,10798],[89.9,10881],[89.9,10965],[89.9,11048],[89.9,11131],[89.9,11215],[89.9,11298],[89.9,11381],[89.9,11465],[89.9,11548],[89.9,11631],[89.9,11715],[89.9,11798],[89.9,11881],[89.9,11964],[89.9,12048],[89.9,12131],[89.9,12215],[89.9,12298],[89.9,12381],[89.9,12464],[89.9,12548],[89.9,12631],[89.9,12715],[89.9,12798],[89.9,12881],[89.9,12964],[89.9,13048],[89.9,13131],[89.9,13214],[89.9,13298],[89.9,13381],[89.9,13464],[89.9,13548],[89.9,13631],[89.9,13714],[89.9,13798],[89.9,13881],[89.9,13964],[89.9,14047],[89.9,14132],[89.9,14215],[89.9,14297],[89.9,14381],[89.9,14464],[89.9,14547],[89.9,14631],[89.9,14714],[89.9,14798],[89.9,14881],[89.9,14964],[89.9,15048],[89.9,15130],[89.9,15214],[89.9,15297],[89.9,15383],[89.9,15464],[89.9,15547],[89.9,15631],[89.9,15714],[89.9,15797],[89.9,15881],[89.9,15964],[89.9,16047],[89.9,16130],[89.9,16214],[89.9,16297],[89.9,16381],[89.9,16464],[89.9,16547],[89.9,16630],[89.9,16714],[89.9,16797],[89.9,16881],[89.9,16964],[89.9,17047],[89.9,17130]]",1,0,522.1438,523.7779,91.97916985,1.1502,"[{""rating"":91.97916984558105,""responseTime"":1.1501999998092742}]",space,1.1012,,523.778,Definitely yes,100,523.7826,,,[],,0,16,16,16,1,audio/Narrative8Situation7.wav,audio/Narrative7Situation7.wav,audio/Narrative6Situation7.wav,audio/Narrative5Situation7.wav,3,5,5,4,,,,,,,,,,,,,,,,,,,,,,,,,,,,,,,,,,,,,,,
,,,,,,5dd2f94a238a913096c52317,2024-05-13_10h35.14.189,group3.1-3.2-social-tom,2023.2.2,Win32,59.88023952,65c5074098b851296ff0b7ed,664231b98372433f56664f2b,,,,,,,,,,,,,,,,,,,,,,,,,,,,,523.783,1,audio/Narrative7Situation8.wav,525.7833,,525.7835,535.805,"[[91.3,1609],[91.1,1692],[91.1,1776],[91.3,1859],[91.7,1943],[91.7,2025],[91.8,2108],[91.8,2192],[91.8,2275],[91.8,2358],[91.8,2442],[91.8,2525],[91.8,2608],[91.8,2692],[91.8,2775],[91.8,2858],[91.8,2942],[91.8,3025],[91.8,3108],[91.8,3192],[91.8,3275],[91.8,3358],[91.8,3442],[91.8,3525],[91.8,3608],[91.8,3692],[91.8,3775],[91.8,3858],[91.8,3941],[91.8,4025],[91.8,4108],[91.8,4191],[91.8,4275],[91.8,4358],[91.8,4442],[91.8,4525],[91.8,4608],[91.8,4692],[91.8,4775],[91.8,4858],[91.8,4941],[91.8,5025],[91.8,5108],[91.8,5191],[91.8,5279],[91.8,5364],[91.8,5455],[91.8,5538],[91.8,5613],[91.8,5704],[91.8,5788],[91.8,5863],[91.8,5955],[91.8,6038],[91.8,6121],[91.8,6204],[91.8,6288],[91.8,6371],[91.8,6455],[91.8,6538],[91.8,6620],[91.8,6704],[91.8,6787],[91.8,6871],[91.8,6955],[91.8,7038],[91.8,7121],[91.8,7205],[91.8,7287],[91.8,7367],[91.8,7455],[91.8,7537],[91.8,7621],[91.8,7704],[91.8,7787],[91.8,7870],[91.8,7954],[91.8,8037],[91.8,8121],[91.8,8203],[91.8,8287],[91.8,8370],[91.8,8454],[91.8,8538],[91.8,8621],[91.8,8705],[91.8,8788],[91.8,8871],[91.8,8955],[91.8,9036],[91.8,9121],[91.8,9204],[91.8,9288],[91.8,9369],[91.8,9454],[91.8,9538],[91.8,9620],[91.8,9704],[91.8,9788],[91.8,9862],[91.8,9954]]",1,0,535.8051,538.0753,92.1875,1.6034,"[{""rating"":92.1875,""responseTime"":1.6034000000953483}]",space,1.7218,,538.0753,Not at all,0,538.0799,,,[],,0,17,17,17,1,audio/Narrative8Situation8.wav,audio/Narrative7Situation8.wav,audio/Narrative6Situation8.wav,audio/Narrative5Situation8.wav,3,2,5,3,,,,,,,,,,,,,,,,,,,,,,,,,,,,,,,,,,,,,,,
,,,,,,5dd2f94a238a913096c52317,2024-05-13_10h35.14.189,group3.1-3.2-social-tom,2023.2.2,Win32,59.88023952,65c5074098b851296ff0b7ed,664231b98372433f56664f2b,,,,,,,,,,,,,,,,,,,,,,,,,,,,,538.0803,1,audio/Narrative7Situation9.wav,540.0918,,540.092,548.7237,"[[93,1333],[94.4,1416],[94.7,1499],[95,1582],[95,1666],[95.2,1750],[95.4,1833],[95.4,1915],[95.4,1999],[95.4,2082],[95.4,2165],[95.4,2249],[95.4,2332],[95.4,2415],[95.4,2499],[93.8,2583],[92.7,2667],[92.3,2749],[92.1,2832],[92.1,2915],[92.1,2999],[92.1,3082],[92.1,3167],[92.1,3248],[92.1,3332],[92.1,3415],[92.1,3499],[92.1,3582],[92.1,3665],[92.1,3749],[92.1,3832],[92.1,3915],[92.1,3999],[92.1,4082],[92.7,4166],[93.4,4249],[94.4,4332],[95,4415],[95.2,4498],[95.2,4582],[95.2,4665],[95.2,4748],[95.2,4832],[95.2,4915],[95.2,4998],[95.2,5082],[95.2,5165],[95.2,5248],[95.2,5332],[95.2,5415],[95.2,5498],[95.2,5582],[95.2,5665],[95.2,5748],[95.2,5831],[95.2,5915],[95.2,5998],[95.2,6082],[95.2,6165],[95.2,6248],[95.2,6331],[95.2,6415],[95.2,6498],[95.2,6581],[95.2,6665],[95.2,6748],[95.2,6831],[95.2,6915],[95.2,6998],[95.2,7081],[95.2,7165],[95.2,7248],[95.2,7331],[95.2,7415],[95.2,7498],[95.2,7581],[95.2,7665],[95.2,7748],[95.2,7831],[95.2,7915],[95.2,7998],[95.2,8081],[95.2,8165],[95.2,8248],[95.2,8331],[95.2,8415],[95.2,8498],[95.2,8581]]",1,0,548.724,550.0569,95.20833969,0.6544,"[{""rating"":95.20833969116211,""responseTime"":0.6544000000952792}]",space,0.7845,,550.057,Not at all,0,566.705,0,15.0444,"[{""rating"":0.5208349227905251,""responseTime"":7.177700000286109},{""rating"":0,""responseTime"":8.512300000190749},{""rating"":0,""responseTime"":15.04440000009538}]",space,0,18,18,18,1,audio/Narrative8Situation9.wav,audio/Narrative7Situation9.wav,audio/Narrative6Situation9.wav,audio/Narrative5Situation9.wav,3,2,4,3,,,16.0997,,,,,,,,,,,,,,,,,,,,,,,,,,,,,,,,,,,,
,,,,,,5dd2f94a238a913096c52317,2024-05-13_10h35.14.189,group3.1-3.2-social-tom,2023.2.2,Win32,59.88023952,65c5074098b851296ff0b7ed,664231b98372433f56664f2b,,,,,,,,,,,,,,,,,,,,,,,,,,,570.1508,572.7204,572.7405,2,audio/Narrative13Situation2.wav,572.7407,,572.7407,602.5069,"[[49.6,2944],[50,3033],[50.2,3122],[50.3,3211],[50.3,3295],[50.3,3378],[50.3,3461],[50.3,3545],[50.3,3628],[50.3,3711],[50.1,3795],[47.5,3880],[41,3964],[35.2,4052],[30.9,4138],[30.1,4229],[30.2,4312],[34.2,4401],[37.8,4480],[42.4,4586],[43.4,4681],[43.8,4767],[39.2,4852],[34.3,4947],[33.2,5032],[32.6,5116],[32.4,5194],[32.4,5278],[32.3,5361],[32.3,5445],[32.3,5528],[32.3,5611],[32.3,5695],[32.3,5779],[32.3,5861],[32.3,5944],[32.3,6028],[32.3,6124],[32.3,6208],[32.3,6292],[32.3,6374],[32.3,6458],[32.3,6542],[32.3,6624],[32.3,6708],[32.3,6792],[32.3,6874],[32.3,6958],[32.3,7041],[32.3,7124],[32.3,7209],[32.3,7291],[32.3,7374],[32.3,7458],[32.3,7541],[32.3,7624],[32.3,7708],[32.3,7791],[32.3,7874],[32.3,7958],[32.3,8041],[54.6,8128],[81.1,8476],[85.3,8563],[86,8651],[86.3,8741],[86.3,8828],[86.3,8911],[86.7,8997],[86.9,9081],[88,9166],[88.3,9248],[88.3,9328],[88.3,9411],[88.3,9494],[88.3,9578],[88.3,9661],[88.3,9744],[87.9,9828],[87.3,9911],[87.3,9994],[87.4,10077],[87.4,10161],[87.4,10244],[87.4,10328],[87.8,10411],[88.4,10494],[89.7,10579],[89.9,10661],[89.9,10744],[89.9,10827],[89.9,10911],[89.9,10994],[89.9,11077],[89.9,11161],[89.9,11244],[89.9,11327],[90.6,11411],[92.2,11494],[92.5,11577],[92.5,11660],[93.1,11744],[93.8,11828],[94.1,11910],[94.1,11994],[94.1,12077],[94.1,12160],[94.1,12244],[94.1,12327],[94.1,12410],[94.1,12495],[94.1,12577],[94.1,12660],[94.8,12747],[95.9,12845],[97.1,12951],[97.2,13052],[97.2,13148],[97.3,13245],[97,13328],[96.8,13411],[96.8,13494],[96.8,13577],[96.8,13660],[96.8,13744],[96.8,13827],[96.8,13910],[96.8,13994],[96.8,14077],[96.8,14160],[96.8,14243],[96.8,14327],[96.8,14410],[96.8,14493],[96.8,14577],[96.8,14660],[96.8,14744],[96.8,14827],[96.8,14910],[96.8,14993],[96.8,15077],[96.8,15160],[96.8,15243],[96.8,15327],[96.8,15410],[96.8,15493],[96.8,15577],[96.8,15660],[96.8,15743],[96.8,15827],[96.8,15910],[96.8,15993],[96.8,16077],[96.8,16160],[96.8,16243],[96.8,16326],[96.8,16410],[96.8,16493],[96.8,16577],[96.8,16660],[96.8,16743],[96.8,16826],[96.8,16910],[96.8,16993],[96.8,17077],[96.8,17160],[96.8,17243],[96.8,17326],[96.8,17410],[96.8,17493],[96.8,17576],[96.8,17660],[96.8,17743],[96.8,17826],[96.8,17909],[96.8,17993],[96.8,18076],[96.8,18160],[96.8,18243],[96.8,18326],[96.8,18410],[96.8,18493],[96.8,18576],[96.8,18659],[96.8,18743],[96.8,18826],[96.8,18909],[96.8,18993],[90.9,19091],[81.3,19177],[75.6,19260],[70.1,19344],[61.6,19429],[58.4,19515],[56.4,19610],[55.4,19707],[54.8,19794],[54.6,19879],[54.2,19963],[54,20044],[54,20126],[53.6,20210],[52.9,20294],[52.4,20376],[52.3,20459],[52.3,20543],[52.3,20626],[52.3,20711],[52.3,20812],[52.3,20909],[52.3,20993],[52.3,21078],[52.3,21173],[52.3,21255],[52.3,21339],[52.3,21422],[52.3,21506],[52.3,21589],[52.3,21673],[52.3,21756],[52.3,21839],[52.3,21923],[52.3,22007],[52.3,22089],[52.3,22172],[52.3,22255],[52.3,22339],[52.3,22423],[52.3,22504],[52.3,22589],[52.3,22673],[52.3,22754],[52.3,22839],[52.3,22927],[52.3,23009],[52.3,23092],[52.3,23176],[52.3,23259],[52.3,23342],[52.3,23425],[52.3,23509],[52.3,23592],[52.3,23675],[52.3,23759],[52.3,23842],[52.3,23926],[52.3,24009],[52.3,24092],[52.3,24175],[52.3,24259],[52.3,24342],[52.3,24426],[52.3,24509],[52.3,24592],[52.3,24675],[52.3,24759],[52.3,24842],[52.3,24926],[52.3,25009],[52.3,25092],[52.3,25175],[52.3,25259],[52.3,25342],[52.3,25425],[52.3,25509],[52.3,25592],[52.3,25675],[53.5,25774],[54.7,25861],[55.8,25949],[56.9,26040],[58.4,26128],[64.4,26226],[68,26312],[69.6,26400],[70.3,26490],[70.3,26572],[68.2,26660],[58.2,26758],[54,26850],[52,26945],[51,27040],[49.9,27129],[49,27213],[48.9,27295],[48.9,27375],[48.6,27458],[48.5,27543],[48.3,27625],[47.7,27709],[47,27794],[44.7,27880],[42.6,27988],[42.3,28091],[42.3,28176],[42.3,28272],[42.3,28355],[42.3,28439],[42.3,28522],[42.3,28605],[42.3,28687],[42.3,28771],[42.3,28856],[42.3,28938],[42.3,29021],[42.3,29106],[42.3,29188],[42.3,29271],[42.3,29355],[43,29439],[45.1,29524],[47.6,29616],[49.4,29712]]",1,0,602.5074,602.5119,,,[],,,,602.512,Definitely yes,100,602.5179,,,[],,0,0,0,0,1,audio/Narrative13Situation2.wav,audio/Narrative13Situation2.wav,audio/Narrative13Situation2.wav,audio/Narrative13Situation2.wav,2,2,2,2,,,,,566.7062,570.1376,space,2.9003,,,,,,,,,,,,,,,,,,,,,,,,,,,,,,,
,,,,,,5dd2f94a238a913096c52317,2024-05-13_10h35.14.189,group3.1-3.2-social-tom,2023.2.2,Win32,59.88023952,65c5074098b851296ff0b7ed,664231b98372433f56664f2b,,,,,,,,,,,,,,,,,,,,,,,,,,,,,602.5184,2,audio/Narrative6Situation1.wav,604.5324,,604.5325,631.1124,"[[52.6,5266],[54.4,5350],[56.1,5439],[57.8,5521],[58.4,5603],[59.4,5689],[60.3,5772],[61.3,5863],[62.3,5949],[62.5,6032],[62.5,6115],[62.5,6199],[63.4,6283],[68.2,6373],[72.8,6468],[77.4,6557],[80.6,6650],[83.2,6734],[84.7,6837],[85.6,6920],[86.1,7012],[86.6,7097],[86.6,7178],[86.6,7261],[86.6,7345],[86.6,7428],[86.6,7510],[86.6,7595],[86.6,7678],[86.6,7754],[86.6,7845],[86.6,7928],[86.6,8012],[86.6,8095],[86.6,8178],[86.6,8262],[86.6,8345],[86.6,8428],[86.6,8512],[86.6,8595],[86.6,8678],[86.6,8760],[86.6,8844],[86.6,8929],[86.6,9009],[86.6,9095],[86.6,9179],[86.9,9262],[89.1,9346],[90.3,9430],[90.8,9512],[90.8,9595],[90.8,9679],[90.8,9761],[90.8,9845],[90.8,9929],[90.8,10011],[90.8,10095],[90.8,10178],[90.8,10261],[90.8,10345],[90.8,10428],[90.8,10512],[90.8,10595],[90.8,10678],[90.8,10761],[90.8,10846],[90.8,10928],[90.7,11011],[90.7,11093],[90.7,11178],[90.7,11262],[90.7,11344],[90.7,11428],[90.7,11512],[90.7,11594],[90.7,11678],[90.7,11762],[90.7,11845],[90.7,11929],[90.4,12011],[90.4,12094],[90.2,12178],[90.1,12262],[89.9,12344],[89.8,12428],[89.8,12511],[89.6,12594],[89.3,12678],[89.2,12761],[88.3,12850],[86.6,12933],[73.1,13019],[63,13116],[52.3,13370],[52.1,13462],[52,13544],[52,13628],[52,13710],[52.1,13795],[53.2,13881],[57.2,13963],[60.4,14051],[64.3,14137],[68.4,14231],[71.3,14316],[74.1,14416],[75.8,14504],[77.8,14591],[80.6,14681],[81.6,14766],[82.2,14850],[82.2,14931],[82.2,15014],[82.2,15097],[82.2,15181],[82.2,15264],[82.2,15347],[82.2,15431],[82.2,15514],[82.2,15598],[82.2,15681],[82.2,15764],[82.2,15847],[82.2,15931],[83.4,16032],[85.4,16119],[87.1,16206],[87.5,16294],[87.5,16378],[87.5,16460],[87.4,16544],[87,16629],[85.2,16714],[83.8,16799],[81.7,16899],[77.4,16989],[75.7,17084],[74.5,17179],[73.5,17265],[73.2,17349],[73.2,17431],[73.2,17514],[73.2,17597],[73.2,17680],[73.1,17764],[73.1,17847],[73.1,17932],[73.1,18014],[73.1,18097],[73.1,18180],[73.1,18264],[73.1,18347],[73.1,18430],[73.1,18514],[71.3,18598],[69.2,18695],[67.4,18783],[65.5,18866],[64.3,18962],[63.5,19045],[62.3,19132],[59.5,19216],[58.3,19300],[57,19388],[55.8,19481],[54.9,19564],[53.9,19649],[53,19734],[52.6,19813],[52.3,19897],[51.5,19980],[50.4,20066],[49.5,20150],[48.2,20235],[47.6,20318],[47.6,20397],[47.1,20481],[46.1,20565],[43.6,20651],[42.1,20738],[41.4,20834],[41.1,20927],[41.1,21010],[41.3,21094],[43.5,21180],[48,21267],[53.4,21352],[62.5,21439],[67.6,21532],[69.7,21617],[72.3,21704],[74.3,21798],[75.6,21884],[77.3,21969],[78.8,22065],[79.9,22153],[81.5,22249],[83.1,22334],[84.3,22421],[84.7,22501],[84.7,22580],[85,22663],[85.3,22746],[85.3,22830],[85.3,22913],[85.3,22996],[85.3,23080],[85.3,23163],[85.3,23246],[85.3,23330],[85.3,23413],[85.3,23496],[85.2,23580],[85.1,23663],[85.1,23747],[85.2,23830],[87.2,23918],[89.4,24015],[90.5,24104],[90.6,24194],[90.6,24276],[90.8,24360],[92.3,24444],[92.7,24526],[92.7,24610],[92.7,24692],[92.7,24776],[92.7,24860],[92.7,24942],[92.7,25026],[92.7,25110],[92.7,25192],[92.7,25275],[92.7,25359],[92.7,25442],[92.7,25527],[92.7,25609],[92.7,25692],[92.7,25777],[92.7,25860],[92.7,25943],[92.7,26027],[92.7,26109],[91.7,26196],[89.8,26278],[88.6,26363],[88.5,26447],[88.5,26529]]",1,0,631.1126,638.2459,72.70833969,6.767,"[{""rating"":69.6875,""responseTime"":5.878799999713806},{""rating"":72.70833969116211,""responseTime"":6.766999999999939}]",space,6.5857,,638.246,Partially,50,644.3286,49.58333969,4.3082,"[{""rating"":49.58333969116211,""responseTime"":4.308200000286092}]",space,0,1,1,1,1,audio/Narrative7Situation1.wav,audio/Narrative8Situation1.wav,audio/Narrative5Situation1.wav,audio/Narrative6Situation1.wav,2,5,5,2,,,5.5344,,,,,,,,,,,,,,,,,,,,,,,,,,,,,,,,,,,,
,,,,,,5dd2f94a238a913096c52317,2024-05-13_10h35.14.189,group3.1-3.2-social-tom,2023.2.2,Win32,59.88023952,65c5074098b851296ff0b7ed,664231b98372433f56664f2b,,,,,,,,,,,,,,,,,,,,,,,,,,,,,644.329,2,audio/Narrative6Situation2.wav,647.3438,,647.3439,675.8574,"[[50,1849],[50.3,1929],[50.6,2012],[50.6,2096],[50.6,2179],[50.6,2262],[50.6,2346],[50.6,2429],[50.6,2512],[50.6,2595],[50.6,2678],[50.6,2763],[50.4,2846],[50.2,2930],[50.2,3014],[50.2,3095],[50.2,3178],[50.2,3262],[50.2,3345],[50.2,3429],[50.2,3512],[50.2,3595],[50.2,3679],[50.2,3761],[50.2,3845],[50.2,3929],[50.2,4012],[50.2,4099],[50.2,4193],[50.2,4283],[50.2,4382],[50.2,4484],[50.2,4585],[50.2,4687],[50.2,4796],[50.2,4879],[50.2,4962],[50.2,5045],[50.2,5128],[50.2,5212],[50.2,5295],[50.2,5378],[50.2,5462],[50.2,5545],[50.6,5629],[51.9,5714],[55.2,5798],[60.1,5885],[63.3,5973],[65.2,6068],[67.5,6155],[69.8,6248],[73.2,6338],[75,6432],[75.3,6515],[75.3,6598],[75.3,6681],[75.3,6765],[75.3,6848],[75.3,6931],[75.3,7015],[75.3,7098],[75.3,7181],[75.3,7265],[75.3,7348],[75.3,7431],[75.3,7515],[75.3,7598],[75.3,7681],[75.3,7765],[75.3,7848],[75.3,7931],[75.3,8015],[75.3,8098],[75.3,8181],[75.3,8264],[75.3,8348],[75.3,8431],[75.3,8515],[75.3,8598],[75.3,8681],[75.3,8764],[75.3,8848],[75.3,8931],[75.3,9014],[75.3,9098],[75.3,9181],[75.3,9265],[75.3,9348],[75.3,9431],[75.3,9515],[75.3,9598],[75.3,9681],[75.3,9766],[75.3,9851],[74.8,9957],[64.2,10092],[51.1,10202],[40.9,10312],[36.1,10425],[33.3,10550],[30.5,10667],[29.3,10786],[28.2,10900],[27,11018],[26.4,11122],[26.1,11227],[26.1,11349],[26.1,11453],[26.1,11562],[26.1,11669],[26.1,11769],[26.1,11883],[26.1,11968],[26.1,12047],[26.1,12131],[26.1,12215],[26.1,12298],[26.1,12381],[27.2,12465],[42.1,12550],[51.4,12635],[59.2,12731],[64.7,12818],[66.5,12906],[67.9,12996],[68.4,13078],[68.4,13160],[68.4,13244],[68.4,13327],[68.4,13410],[68.8,13496],[70.3,13578],[71.3,13664],[72.2,13749],[73.1,13833],[74.2,13922],[75.5,14009],[78.5,14117],[82.5,14217],[82.8,14299],[82.8,14380],[82.8,14464],[82.8,14547],[82.8,14630],[82.8,14714],[82.8,14797],[82.8,14880],[82.8,14964],[82.8,15047],[82.8,15131],[82.8,15214],[82.8,15297],[82.8,15380],[82.8,15464],[82.8,15547],[82.8,15630],[82.8,15714],[82.8,15797],[82.8,15880],[82.8,15964],[82.8,16047],[82.8,16130],[82.8,16214],[82.8,16297],[82.8,16380],[82.8,16463],[82.8,16547],[82.8,16630],[82.8,16714],[82.8,16797],[82.8,16880],[82.8,16963],[82.8,17047],[82.8,17130],[82.8,17214],[82.8,17297],[82.8,17380],[82.8,17464],[82.8,17547],[82.8,17630],[82.8,17714],[82.8,17797],[82.8,17880],[82.8,17963],[84.4,18062],[85.9,18145],[87.7,18230],[89.8,18315],[91.3,18399],[94.9,18486],[96.3,18571],[96.5,18652],[96.5,18744],[96.5,18827],[96.5,18909],[96.5,18993],[96.5,19076],[96.5,19160],[96.5,19245],[96.5,19327],[96.5,19410],[96.5,19493],[96.5,19577],[96.5,19659],[96.5,19743],[96.5,19827],[96.5,19910],[96.5,19991],[96.5,20076],[96.5,20160],[96.5,20243],[96.5,20326],[96.5,20410],[96.5,20493],[96.5,20576],[96.5,20660],[96.5,20743],[96.5,20826],[96.5,20910],[96.5,20993],[96.5,21076],[96.5,21152],[96.5,21243],[96.5,21327],[96.5,21410],[96.5,21493],[96.5,21577],[96.5,21660],[96.5,21742],[96.5,21827],[96.5,21909],[96.5,21992],[96.5,22077],[96.5,22159],[96.5,22242],[96.5,22327],[96.5,22410],[96.5,22493],[96.5,22576],[96.5,22659],[96.5,22743],[96.5,22826],[96.5,22909],[96.5,22994],[96.5,23076],[96.5,23159],[96.4,23245],[94.8,23345],[93.9,23428],[92.3,23511],[91.4,23593],[91,23677],[91,23747],[91,23831],[91,23913],[91,23997],[91,24080],[91,24163],[91,24247],[91,24330],[91,24413],[91,24496],[91,24580],[91,24663],[91,24746],[91,24830],[91,24913],[91,24996],[91,25080],[91,25163],[91,25246],[91,25330],[91,25413],[91,25496],[91,25580],[91,25663],[91,25746],[91,25830],[91,25913],[91,25996],[91,26080],[91,26163],[91,26246],[91,26330],[91,26413],[91,26496],[91,26580],[91,26663],[91,26746],[91,26829],[91,26913],[91,26996],[91,27079],[91,27163],[91,27246],[91,27331],[91.3,27420],[91.3,27496],[91.6,27580],[91.9,27663],[91.9,27746],[91.9,27830],[92.2,27913],[92.8,27996],[93.4,28080],[94,28163],[94.1,28246],[94.1,28329],[94.1,28413],[94.1,28496]]",1,0,675.8577,678.6071,93.75,1.5798,"[{""rating"":93.75,""responseTime"":1.5797999997138277}]",space,2.2004,,678.6071,Definitely yes,100,678.6119,,,[],,0,2,2,2,1,audio/Narrative7Situation2.wav,audio/Narrative8Situation2.wav,audio/Narrative5Situation2.wav,audio/Narrative6Situation2.wav,3,3,3,3,,,,,,,,,,,,,,,,,,,,,,,,,,,,,,,,,,,,,,,
,,,,,,5dd2f94a238a913096c52317,2024-05-13_10h35.14.189,group3.1-3.2-social-tom,2023.2.2,Win32,59.88023952,65c5074098b851296ff0b7ed,664231b98372433f56664f2b,,,,,,,,,,,,,,,,,,,,,,,,,,,,,678.6124,2,audio/Narrative6Situation3.wav,683.6228,,683.6228,696.2512,"[[999,14],[999,99],[999,182],[999,266],[999,349],[999,432],[999,516],[999,599],[999,682],[999,766],[999,849],[999,932],[999,1016],[999,1099],[999,1182],[999,1267],[999,1350],[999,1433],[999,1516],[81.4,1599],[81.8,1683],[82.3,1768],[83.2,1852],[83.4,1932],[83.6,2016],[83.6,2099],[83.8,2182],[84.1,2265],[84.7,2350],[84.7,2432],[84.7,2515],[84.7,2599],[84.7,2682],[84.7,2765],[84.7,2848],[84.7,2932],[84.7,3015],[84.7,3098],[84.7,3182],[84.7,3265],[84.7,3348],[84.7,3432],[84.7,3515],[84.7,3598],[84.7,3682],[84.7,3765],[84.7,3848],[84.7,3932],[84.7,4015],[84.7,4098],[84.7,4182],[84.7,4265],[84.7,4348],[84.7,4432],[84.7,4515],[84.7,4598],[84.7,4681],[79.2,4766],[70.3,4850],[65.5,4936],[61.3,5021],[59.8,5106],[57.4,5203],[55.7,5299],[54.1,5399],[52.6,5486],[51,5579],[49.8,5665],[49.5,5748],[49.5,5831],[49.5,5915],[49.5,5999],[49.5,6081],[49.5,6165],[49.5,6248],[49.5,6331],[49.5,6415],[49.5,6498],[49.5,6581],[49.5,6665],[49.5,6748],[55.8,6832],[68.1,6915],[72.7,7000],[74.5,7082],[79.4,7186],[83.2,7286],[87.6,7381],[90,7470],[90.3,7567],[90.3,7663],[90.3,7744],[90.3,7827],[90.3,7911],[90.3,7995],[90.3,8078],[90.3,8161],[90.3,8243],[90.3,8327],[90.3,8411],[90.3,8494],[90.3,8577],[90.3,8661],[90.3,8744],[90.3,8828],[90.3,8911],[90.3,8994],[90.3,9078],[90.3,9161],[90.3,9244],[90.3,9328],[90.3,9403],[90.3,9494],[90.3,9578],[90.3,9661],[90.3,9744],[90.3,9827],[90.3,9910],[90.3,9987],[90.3,10077],[90.3,10161],[90.3,10244],[90.3,10327],[90.3,10410],[90.3,10494],[90.3,10576],[90.3,10661],[90.3,10745],[90.3,10827],[90.3,10911],[90.3,10994],[90.3,11078],[90.3,11161],[90.3,11244],[90.3,11327],[90.3,11411],[90.3,11494],[90.3,11578],[90.3,11661],[90.3,11742],[90.3,11827],[90.3,11911],[90.3,11994],[90.3,12077],[90.3,12161],[90.3,12244],[90.3,12327],[90.3,12409],[90.3,12493],[90.3,12578]]",1,0,696.2514,698.2673,90.9375,1.6183,"[{""rating"":90.9375,""responseTime"":1.618300000190743}]",space,1.467,,698.2674,Definitely yes,100,698.2709,,,[],,0,3,3,3,1,audio/Narrative7Situation3.wav,audio/Narrative8Situation3.wav,audio/Narrative5Situation3.wav,audio/Narrative6Situation3.wav,8,4,3,5,,,,,,,,,,,,,,,,,,,,,,,,,,,,,,,,,,,,,,,
,,,,,,5dd2f94a238a913096c52317,2024-05-13_10h35.14.189,group3.1-3.2-social-tom,2023.2.2,Win32,59.88023952,65c5074098b851296ff0b7ed,664231b98372433f56664f2b,,,,,,,,,,,,,,,,,,,,,,,,,,,,,698.2712,2,audio/Narrative6Situation4.wav,700.2834,,700.2836,712.8995,"[[89.9,2302],[78.6,2386],[72.4,2469],[68.1,2568],[64,2653],[59.5,2739],[54.7,2826],[47.4,2918],[44,3003],[43.5,3085],[43.5,3169],[43.5,3252],[43.5,3335],[43.5,3419],[43.5,3502],[43.5,3585],[43.5,3669],[43.5,3752],[43.5,3835],[43.5,3918],[43.5,4007],[43.5,4110],[43.5,4220],[43.5,4322],[43.5,4424],[43.5,4527],[43.5,4637],[43.5,4750],[43.5,4838],[43.5,4919],[43.5,5002],[43.5,5085],[43.5,5168],[43.5,5253],[43.5,5353],[43.5,5455],[43.5,5553],[43.5,5637],[43.5,5718],[43.5,5802],[43.5,5887],[43.5,5968],[43.5,6052],[43.5,6135],[43.5,6218],[43.5,6302],[43.5,6385],[43.5,6468],[43.5,6552],[43.5,6635],[43.5,6718],[43.5,6802],[42.7,6899],[42.7,6982],[42.7,7065],[42.7,7149],[42.4,7232],[35.7,7316],[32.3,7399],[28.9,7487],[27.1,7573],[25.7,7657],[25.1,7740],[24.8,7818],[24.6,7901],[23.9,7986],[22.9,8071],[22,8169],[22,8255],[22,8335],[22,8418],[22,8501],[22,8585],[22,8668],[22,8751],[22,8835],[22,8918],[22,9001],[22,9085],[22,9168],[22,9251],[22,9335],[22,9418],[23.4,9502],[24.8,9590],[25,9671],[25.6,9752],[26.3,9838],[26.3,9918],[26.3,10001],[26.3,10085],[26.3,10168],[26.3,10251],[26.3,10335],[26.3,10418],[26.3,10501],[26.3,10585],[26.3,10668],[26.3,10751],[26.3,10834],[26.3,10918],[26.3,11001],[26.3,11085],[26.3,11168],[26.3,11251],[26.3,11335],[26.3,11418],[26.3,11501],[26.3,11584],[26.3,11668],[26.3,11751],[26.3,11835],[26.3,11918],[26.3,12001],[26.3,12098],[26.3,12181],[26.3,12265],[25.8,12348],[25.7,12430],[25.7,12515],[25.7,12597]]",1,0,712.8997,716.0984,38.02083969,2.4984,"[{""rating"":38.02083969116211,""responseTime"":2.498400000095444}]",space,2.6658,,716.0984,Definitely yes,100,716.1014,,,[],,0,4,4,4,1,audio/Narrative7Situation4.wav,audio/Narrative8Situation4.wav,audio/Narrative5Situation4.wav,audio/Narrative6Situation4.wav,3,3,1,2,,,,,,,,,,,,,,,,,,,,,,,,,,,,,,,,,,,,,,,
,,,,,,5dd2f94a238a913096c52317,2024-05-13_10h35.14.189,group3.1-3.2-social-tom,2023.2.2,Win32,59.88023952,65c5074098b851296ff0b7ed,664231b98372433f56664f2b,,,,,,,,,,,,,,,,,,,,,,,,,,,,,716.1018,2,audio/Narrative6Situation5.wav,718.1141,,718.1142,726.073,"[[999,0],[999,86],[999,169],[999,253],[999,336],[999,419],[999,503],[999,586],[999,670],[999,754],[999,838],[31,920],[34.2,1006],[36.8,1095],[40.1,1195],[45,1293],[47.7,1389],[48.4,1484],[48.4,1566],[48.4,1649],[48.4,1733],[48.4,1816],[48.4,1900],[49.9,1984],[51.1,2066],[51.9,2152],[52.1,2237],[52.2,2322],[52.2,2409],[52.2,2486],[52.2,2569],[52.2,2653],[52.2,2736],[52.2,2819],[52.2,2903],[52.2,2986],[52.2,3069],[52.2,3153],[54,3236],[57.3,3322],[61.4,3407],[64.8,3494],[67.2,3588],[68.1,3673],[68.8,3755],[69.1,3836],[70.2,3934],[70.8,4017],[71.5,4102],[72.2,4190],[73,4277],[73.1,4367],[73.4,4450],[74.1,4535],[74.4,4616],[74.4,4699],[74.4,4781],[74.4,4867],[74.4,4949],[74.4,5032],[74.4,5115],[74.4,5199],[74.4,5282],[74.4,5365],[74.4,5449],[74.4,5532],[74.4,5616],[74.4,5699],[74.4,5782],[74.4,5866],[74.4,5949],[74.4,6032],[74.4,6116],[74.4,6199],[74.4,6282],[74.4,6365],[74.4,6449],[74.4,6533],[74.7,6614],[75.9,6700],[76.9,6784],[78.1,6866],[79.1,6952],[79.7,7037],[80.2,7119],[80.3,7202],[80.3,7285],[80.5,7369],[80.9,7455],[80.9,7535],[80.9,7619],[80.9,7702],[75.5,7786],[57.7,7872],[55.7,7958]]",1,0,726.0732,730.251,17.60416985,3.1559,"[{""rating"":17.60416984558105,""responseTime"":3.1559000000953574}]",space,3.6359,,730.251,Not at all,0,730.2579,,,[],,0,5,5,5,1,audio/Narrative7Situation5.wav,audio/Narrative8Situation5.wav,audio/Narrative5Situation5.wav,audio/Narrative6Situation5.wav,5,2,5,2,,,,,,,,,,,,,,,,,,,,,,,,,,,,,,,,,,,,,,,
,,,,,,5dd2f94a238a913096c52317,2024-05-13_10h35.14.189,group3.1-3.2-social-tom,2023.2.2,Win32,59.88023952,65c5074098b851296ff0b7ed,664231b98372433f56664f2b,,,,,,,,,,,,,,,,,,,,,,,,,,,,,730.2596,2,audio/Narrative6Situation6.wav,732.2665,,732.2666,743.3556,"[[999,0],[999,83],[999,166],[999,249],[999,333],[999,416],[999,499],[999,582],[999,666],[999,750],[999,833],[999,917],[999,1000],[999,1083],[999,1166],[999,1249],[32.6,1335],[30.1,1417],[29.9,1499],[29.9,1583],[29.9,1666],[29.9,1749],[29.9,1833],[29.1,1917],[22.7,2000],[16.6,2083],[12.9,2167],[11.7,2250],[11.4,2333],[11.4,2416],[11.6,2499],[16.8,2583],[21.9,2667],[24,2749],[25.6,2834],[31.7,2916],[32.8,2999],[32.8,3083],[32.8,3166],[32.8,3249],[32.8,3333],[32.8,3416],[34.9,3499],[40.3,3583],[43,3669],[45.9,3779],[47.7,3868],[50.3,3966],[51.6,4056],[52.2,4150],[52.2,4232],[52.2,4315],[52.2,4398],[52.2,4482],[52.2,4565],[52.2,4648],[52.2,4732],[52.2,4815],[52.2,4898],[52.2,4981],[52.2,5065],[52.2,5148],[52.2,5232],[52.2,5315],[52.2,5398],[52.2,5481],[52.2,5565],[52.2,5648],[52.2,5731],[52.2,5815],[52.2,5898],[52.2,5981],[52.2,6065],[52.2,6148],[52.2,6231],[52.2,6314],[52.2,6398],[52.2,6481],[52.2,6564],[51.7,6648],[50.8,6731],[49.9,6815],[49.3,6898],[49.2,6981],[49.2,7064],[49.2,7148],[49.2,7231],[49.2,7314],[49.2,7398],[49.2,7481],[49.2,7564],[49.2,7648],[49.2,7731],[49.2,7814],[49.2,7898],[49.2,7981],[49.2,8064],[49.2,8148],[49.2,8232],[49.2,8314],[49.2,8398],[49.2,8481],[50.4,8565],[52.8,8649],[53.4,8734],[53.4,8814],[53.4,8898],[53.4,8981],[53.4,9064],[53.4,9147],[53.4,9231],[53.4,9314],[53.4,9398],[53.4,9481],[53.4,9564],[54.7,9648],[57.3,9733],[60,9816],[61.4,9902],[61.4,9980],[61.4,10082],[61.4,10167],[61.4,10261],[61.4,10344],[61.4,10428],[54.7,10513],[51,10595],[49.9,10682],[49.5,10778],[48.2,10862],[43.5,10946],[40.5,11034]]",1,0,743.356,745.329,41.04166985,1.4727,"[{""rating"":41.041669845581055,""responseTime"":1.4726999998092651}]",space,1.4329,,745.3291,Definitely yes,100,745.3344,,,[],,0,6,6,6,1,audio/Narrative7Situation6.wav,audio/Narrative8Situation6.wav,audio/Narrative5Situation6.wav,audio/Narrative6Situation6.wav,3,2,3,2,,,,,,,,,,,,,,,,,,,,,,,,,,,,,,,,,,,,,,,
,,,,,,5dd2f94a238a913096c52317,2024-05-13_10h35.14.189,group3.1-3.2-social-tom,2023.2.2,Win32,59.88023952,65c5074098b851296ff0b7ed,664231b98372433f56664f2b,,,,,,,,,,,,,,,,,,,,,,,,,,,,,745.3347,2,audio/Narrative6Situation7.wav,750.3353,,750.3354,775.1944,"[[37.5,2263],[28.1,2344],[24.5,2429],[23.3,2513],[22.3,2597],[21.1,2680],[19.8,2767],[18.6,2851],[18.5,2940],[18.5,3024],[18.5,3107],[18.5,3190],[18.5,3274],[18.5,3357],[18.5,3440],[18.5,3524],[18.5,3606],[18.5,3690],[18.5,3774],[18.5,3857],[18.5,3941],[18.5,4023],[18.5,4107],[18.5,4180],[18.5,4273],[18.5,4357],[18.5,4441],[18.5,4522],[18.5,4607],[18.5,4690],[18.5,4773],[18.5,4857],[18.5,4938],[18.5,5023],[18.5,5107],[18.5,5190],[18.5,5273],[18.5,5357],[18.5,5440],[18.5,5524],[18.5,5607],[18.5,5690],[18.5,5774],[18.5,5857],[18.5,5940],[18.5,6024],[18.5,6107],[18.5,6190],[18.5,6273],[18.5,6357],[18.5,6439],[18.5,6524],[18.5,6604],[18.5,6690],[18.5,6773],[18.5,6857],[18.5,6940],[18.5,7023],[18.5,7106],[18.5,7189],[18.5,7274],[18.5,7356],[18.5,7440],[18.5,7521],[18.5,7606],[18.5,7690],[18.5,7773],[18.5,7856],[18.5,7940],[18.5,8015],[18.5,8106],[18.5,8191],[18.5,8273],[18.5,8356],[18.5,8440],[18.5,8523],[18.5,8606],[18.5,8689],[18.5,8773],[18.5,8857],[18.5,8939],[18.5,9023],[18.5,9106],[18.5,9189],[18.5,9273],[18.5,9357],[18.5,9439],[18.5,9523],[18.5,9607],[18.5,9689],[18.5,9773],[18.5,9854],[18.5,9939],[18.5,10023],[18.5,10106],[18.5,10189],[18.5,10273],[18.5,10356],[18.5,10439],[18.5,10523],[18.5,10606],[18.5,10689],[18.5,10773],[18.5,10856],[18.5,10938],[18.5,11023],[18.5,11106],[18.5,11189],[18.5,11273],[18.5,11356],[18.5,11440],[18.5,11523],[18.5,11605],[18.5,11689],[18.5,11773],[18.5,11856],[18.5,11939],[18.5,12023],[18.5,12106],[18.5,12189],[18.5,12273],[18.5,12356],[18.5,12437],[18.5,12523],[18.5,12606],[18.5,12689],[18.5,12772],[18.5,12856],[18.5,12939],[18.5,13022],[18.5,13105],[18.5,13188],[32,13290],[50.2,13373],[61.7,13457],[73.8,13541],[78.1,13628],[78.1,13709],[78.1,13793],[78.1,13876],[78.1,13959],[81.7,14043],[83.1,14129],[85.9,14212],[86.6,14298],[86.6,14376],[86.6,14459],[86.6,14543],[86.6,14625],[88.4,14710],[91.3,14793],[92.2,14879],[92.2,14959],[92.2,15043],[92.2,15125],[92.2,15209],[92.2,15301],[92.2,15403],[92.2,15507],[92.2,15593],[92.2,15675],[92.2,15759],[92.2,15842],[92.2,15925],[92.2,16009],[92.2,16092],[92.2,16175],[92.2,16259],[92.2,16342],[92.2,16425],[92.2,16509],[92.2,16592],[92.2,16675],[92.2,16758],[92.2,16842],[92.2,16925],[92.2,17009],[92.2,17092],[92.2,17175],[92.2,17258],[92.2,17342],[92.2,17425],[92.2,17508],[92.2,17592],[92.2,17675],[92.2,17758],[92.2,17843],[92.2,17925],[92.2,18009],[92.2,18092],[92.2,18175],[92.8,18272],[93.8,18356],[94.4,18439],[94.6,18522],[94.6,18605],[94.6,18688],[94.6,18772],[94.6,18855],[94.6,18938],[94.6,19023],[94.6,19105],[94.6,19188],[94.6,19270],[94.6,19355],[94.6,19439],[94.6,19521],[94.6,19605],[94.6,19688],[94.6,19771],[94.6,19855],[94.6,19938],[94.6,20021],[94.6,20105],[94.6,20188],[94.6,20271],[94.6,20355],[94.6,20438],[94.6,20521],[94.6,20605],[94.6,20688],[94.6,20771],[94.6,20854],[94.6,20938],[94.6,21021],[94.6,21105],[94.6,21188],[94.6,21272],[94.6,21354],[94.6,21427],[94.6,21513],[94.6,21596],[94.6,21675],[94.6,21759],[94.6,21842],[94.6,21925],[94.6,22009],[94.6,22092],[94.6,22175],[94.6,22259],[94.6,22342],[94.6,22426],[94.6,22509],[94.6,22592],[94.6,22675],[94.6,22759],[94.6,22842],[94.6,22925],[94.6,23009],[94.6,23092],[94.6,23175],[94.6,23258],[94.6,23342],[94.6,23425],[94.6,23509],[94.6,23592],[94.6,23675],[94.6,23758],[94.6,23842],[94.6,23925],[94.6,24008],[94.6,24092],[94.6,24175],[94.6,24258],[94.6,24342],[94.6,24425],[94.6,24508],[94.6,24592],[94.6,24675],[94.6,24758],[94.6,24842]]",1,0,775.1946,778.1098,91.5625,2.4045,"[{""rating"":86.97916984558105,""responseTime"":1.6327000002861496},{""rating"":91.5625,""responseTime"":2.4044999999999845}]",space,2.3682,,778.11,Definitely yes,100,778.113,,,[],,0,7,7,7,1,audio/Narrative7Situation7.wav,audio/Narrative8Situation7.wav,audio/Narrative5Situation7.wav,audio/Narrative6Situation7.wav,5,3,4,5,,,,,,,,,,,,,,,,,,,,,,,,,,,,,,,,,,,,,,,
,,,,,,5dd2f94a238a913096c52317,2024-05-13_10h35.14.189,group3.1-3.2-social-tom,2023.2.2,Win32,59.88023952,65c5074098b851296ff0b7ed,664231b98372433f56664f2b,,,,,,,,,,,,,,,,,,,,,,,,,,,,,778.1134,2,audio/Narrative6Situation8.wav,783.1221,,783.1222,789.9948,"[[91,1100],[88.3,1183],[84,1269],[80.5,1354],[77.6,1454],[76.1,1540],[74.5,1626],[71.5,1719],[68.8,1805],[65,1905],[62.1,1994],[58.5,2102],[56.8,2192],[56.8,2283],[56.8,2364],[56.8,2449],[56.8,2525],[56.8,2617],[54.7,2700],[52.3,2786],[51.4,2869],[50.5,2958],[50.4,3037],[50.2,3119],[50.2,3203],[50.2,3286],[50.2,3369],[50.2,3452],[50.2,3536],[50.2,3619],[50.2,3703],[50.2,3786],[50.2,3869],[50.2,3953],[50.2,4037],[50.2,4119],[50.2,4202],[50.2,4286],[50.2,4369],[50.2,4452],[50.2,4536],[50.2,4619],[50.2,4703],[50.2,4785],[50.2,4869],[50.2,4952],[50.2,5036],[47.9,5120],[37.2,5203],[33.5,5288],[30.5,5374],[25.2,5469],[21.9,5556],[19,5640],[15.8,5734],[13.9,5820],[12.7,5916],[12.6,6000],[12.3,6083],[12,6167],[12,6252],[12,6337],[12,6419],[12,6502],[12,6586],[12,6669],[12,6752],[10.7,6837]]",1,0,789.9949,792.3554,3.75,2.076,"[{""rating"":3.749999999999998,""responseTime"":2.076000000000022}]",space,1.8173,,792.3556,Definitely yes,100,792.3591,,,[],,0,8,8,8,1,audio/Narrative7Situation8.wav,audio/Narrative8Situation8.wav,audio/Narrative5Situation8.wav,audio/Narrative6Situation8.wav,2,3,3,5,,,,,,,,,,,,,,,,,,,,,,,,,,,,,,,,,,,,,,,
,,,,,,5dd2f94a238a913096c52317,2024-05-13_10h35.14.189,group3.1-3.2-social-tom,2023.2.2,Win32,59.88023952,65c5074098b851296ff0b7ed,664231b98372433f56664f2b,,,,,,,,,,,,,,,,,,,,,,,,,,,,,792.3595,2,audio/Narrative6Situation9.wav,796.3706,,796.3706,806.3236,"[[0.2,1838],[2.1,1930],[4.4,2038],[5.8,2139],[6.3,2228],[6.5,2317],[6.5,2400],[6.5,2483],[6.5,2566],[6.5,2649],[6.5,2733],[6.5,2816],[6.5,2899],[6.5,2983],[6.5,3066],[6.5,3149],[6.5,3232],[6.5,3317],[6.5,3400],[6.5,3482],[6.5,3566],[6.5,3649],[6.5,3733],[6.5,3816],[6.5,3899],[6.5,3982],[6.5,4066],[6.5,4149],[6.5,4232],[6.5,4317],[6.5,4399],[6.5,4482],[6.5,4566],[6.5,4649],[6.5,4732],[6.5,4816],[6.5,4899],[6.5,4982],[6.5,5066],[6.5,5149],[6.5,5232],[6.5,5316],[6.1,5399],[5.2,5483],[4.3,5566],[3.5,5652],[3.3,5736],[3.3,5819],[3.3,5902],[3.3,5986],[3.3,6069],[3.3,6152],[3.3,6235],[3.3,6319],[3.3,6402],[3.3,6485],[3.3,6569],[3.3,6652],[3.3,6736],[3.3,6819],[3.3,6902],[3.3,6985],[3.3,7069],[3.3,7152],[3.3,7235],[3.3,7319],[3.3,7402],[3.3,7485],[3.3,7569],[3.3,7652],[3.3,7736],[3.3,7819],[3.3,7902],[2.6,7987],[1.5,8069],[1.1,8152],[1,8236],[1,8318],[1,8402],[1,8485],[1,8568],[1,8652],[1,8735],[1,8818],[1,8901],[1,8985],[1,9068],[1,9152],[1,9235],[1,9318],[1,9402],[1,9485],[1,9569],[1,9652],[0.7,9735],[0.1,9818]]",1,0,806.3238,808.8859,0.520834923,1.8446,"[{""rating"":0.5208349227905251,""responseTime"":1.8445999999046307}]",space,2.0176,,808.8859,Partially,50,808.8915,,,[],,0,9,9,9,1,audio/Narrative7Situation9.wav,audio/Narrative8Situation9.wav,audio/Narrative5Situation9.wav,audio/Narrative6Situation9.wav,2,3,3,4,,,,,,,,,,,,,,,,,,,,,,,,,,,,,,,,,,,,,,,
,,,,,,5dd2f94a238a913096c52317,2024-05-13_10h35.14.189,group3.1-3.2-social-tom,2023.2.2,Win32,59.88023952,65c5074098b851296ff0b7ed,664231b98372433f56664f2b,,,,,,,,,,,,,,,,,,,,,,,,,,,,,808.8919,2,audio/Narrative5Situation1.wav,813.9052,,813.9053,827.1908,"[[0.6,2083],[1.3,2166],[2.9,2250],[5,2335],[9.1,2418],[14.8,2501],[30.3,2585],[39.4,2667],[41.6,2751],[41.6,2833],[41.6,2917],[41.6,3000],[41.6,3083],[41.6,3167],[43.3,3251],[44.7,3334],[45.6,3417],[46.6,3500],[46.9,3583],[46.9,3667],[47.2,3749],[47.4,3834],[47.8,3917],[48.3,4000],[48.4,4083],[48.4,4166],[48.4,4250],[48.4,4333],[48.4,4416],[48.4,4500],[48.4,4583],[48.4,4666],[48.4,4749],[48.4,4833],[48.4,4916],[48.4,4999],[48.4,5083],[48.4,5166],[48.4,5249],[48.4,5332],[48.4,5416],[48.4,5499],[48.4,5583],[48.4,5666],[48.4,5749],[48.4,5833],[48.4,5916],[48.4,5999],[48.4,6083],[48.4,6166],[48.4,6249],[48.4,6333],[48.4,6416],[48.4,6499],[47.8,6583],[42.7,6669],[40.1,6751],[38,6835],[36,6918],[33.5,7001],[30.9,7084],[28.1,7166],[25.1,7253],[22.8,7336],[20.8,7423],[19.8,7505],[18.5,7587],[17.3,7669],[16,7752],[15.5,7834],[15.5,7915],[15.5,7999],[15.5,8083],[15.5,8165],[15.5,8249],[15.5,8333],[15.5,8416],[15.5,8499],[15.5,8583],[15.5,8666],[15.5,8749],[15.5,8833],[15.5,8916],[13.1,8999],[11.6,9084],[10.7,9167],[10.4,9249],[10.2,9333],[10.2,9415],[10,9500],[8.9,9584],[7.6,9666],[7,9749],[6.7,9832],[6.7,9915],[6.7,9999],[6.7,10082],[6.7,10165],[6.7,10249],[6.7,10332],[6.7,10415],[6.7,10499],[6.7,10582],[10.4,10667],[14.5,10750],[17.9,10832],[21.9,10916],[23.5,11000],[25.3,11084],[26.9,11167],[27.5,11249],[27.8,11332],[27.8,11415],[27.8,11499],[27.8,11582],[27.8,11668],[27.8,11765],[27.8,11882],[27.8,11981],[31.7,12081],[34.4,12171],[35.6,12266],[36.8,12364],[37.8,12453],[38.1,12535],[38.1,12614],[38.1,12697],[38,12781],[37.9,12864],[37.6,12948],[37.2,13031],[36.4,13115],[35.1,13202],[32,13285]]",1,0,827.191,828.9872,21.77083492,1.1929,"[{""rating"":21.770834922790527,""responseTime"":1.1928999996184757}]",space,1.2485,,828.9872,Not at all,0,828.9928,,,[],,0,10,10,10,1,audio/Narrative8Situation1.wav,audio/Narrative7Situation1.wav,audio/Narrative6Situation1.wav,audio/Narrative5Situation1.wav,5,2,2,5,,,,,,,,,,,,,,,,,,,,,,,,,,,,,,,,,,,,,,,
,,,,,,5dd2f94a238a913096c52317,2024-05-13_10h35.14.189,group3.1-3.2-social-tom,2023.2.2,Win32,59.88023952,65c5074098b851296ff0b7ed,664231b98372433f56664f2b,,,,,,,,,,,,,,,,,,,,,,,,,,,,,828.9939,2,audio/Narrative5Situation2.wav,832.0026,,832.0027,861.4789,"[[16.8,1334],[14.2,1418],[13,1503],[12,1597],[11.1,1683],[9.9,1767],[8.5,1863],[7.1,1956],[5.8,2053],[5.1,2148],[4.6,2236],[4.6,2316],[4.6,2399],[4.6,2482],[4.6,2566],[4.6,2649],[4.6,2733],[4.6,2816],[4.6,2899],[4.6,2990],[4.6,3067],[4.6,3149],[4.6,3232],[4.6,3315],[4.6,3399],[4.6,3482],[4.6,3566],[4.3,3650],[3.3,3732],[2.7,3816],[2.6,3899],[2.6,3982],[2.6,4065],[2.6,4149],[2.6,4232],[2.6,4316],[2.6,4399],[2.6,4482],[2.6,4565],[2.6,4649],[2.6,4732],[2.6,4816],[2.6,4899],[2.6,4982],[2.6,5065],[2.6,5149],[2.6,5232],[2.6,5315],[2.6,5399],[2.6,5482],[2.6,5566],[2.6,5649],[2.6,5732],[2.6,5815],[2.6,5899],[2.6,5982],[2.6,6066],[2.6,6149],[2.6,6232],[2.6,6315],[2.6,6399],[2.6,6482],[2.6,6565],[2.6,6649],[2.6,6732],[2.6,6815],[2.6,6898],[2.6,6982],[2.6,7066],[2.6,7149],[2.6,7231],[2.6,7315],[2.6,7399],[2.6,7482],[2.6,7565],[2.6,7648],[2.6,7732],[2.6,7815],[2.6,7898],[2.6,7982],[2.6,8066],[2.6,8148],[2.8,8248],[3.1,8330],[3.8,8415],[4.1,8503],[4.7,8606],[5,8699],[5.1,8782],[4.8,8880],[4.5,8962],[4.2,9045],[4.2,9128],[4.2,9211],[4.2,9294],[4.2,9378],[4.2,9461],[4.2,9546],[4.2,9628],[4.2,9711],[4.2,9795],[4.2,9878],[4.2,9961],[4.2,10046],[4.2,10128],[4.2,10211],[4.2,10295],[4.2,10378],[4.2,10461],[4.2,10543],[4.2,10628],[4.2,10712],[4.2,10795],[4.2,10879],[4.2,10961],[4.2,11045],[4.2,11128],[4.2,11211],[4.2,11295],[4.2,11378],[4.2,11461],[4.2,11544],[4.2,11628],[4.2,11710],[4.2,11794],[4.2,11878],[4.2,11961],[4.2,12044],[4.2,12134],[4.2,12232],[4.2,12332],[4.2,12432],[4.2,12531],[4.2,12612],[4.2,12696],[4.2,12783],[5.2,12878],[6.6,12962],[7.2,13048],[7.5,13140],[7.5,13248],[7.5,13348],[17.3,13449],[42.6,13550],[44.6,13638],[44.6,13729],[44.6,13811],[44.2,13898],[39.1,13986],[27.4,14082],[17.7,14174],[15.2,14267],[14.2,14366],[14.2,14467],[14.2,14552],[14.2,14631],[14.7,14728],[16.9,14816],[18.9,14899],[20.6,14985],[21.6,15070],[22.3,15156],[22.4,15233],[22.4,15315],[22.4,15398],[22.4,15481],[22.4,15564],[22.4,15648],[22.4,15731],[22.4,15814],[22.4,15897],[22.4,15980],[22.4,16064],[19.7,16148],[16.9,16232],[15.1,16322],[13.9,16417],[13.3,16501],[13.2,16582],[13.2,16664],[13.2,16747],[13.2,16831],[13.2,16914],[13.2,16997],[13.2,17081],[13.2,17164],[13.2,17247],[13.2,17331],[13.2,17416],[13.2,17500],[13.2,17581],[13.2,17664],[13.2,17747],[13.2,17831],[13.3,17914],[14,17997],[14.4,18081],[14.6,18164],[15,18248],[15,18331],[15,18414],[15,18497],[15,18581],[15,18664],[15,18747],[15,18830],[15,18914],[15,18997],[15,19081],[15,19165],[14.9,19247],[14.8,19330],[14.8,19414],[14.8,19497],[14.8,19581],[14.8,19664],[14.6,19747],[14.6,19830],[14.6,19914],[14.6,19997],[14.6,20080],[14.6,20164],[14.6,20247],[14.6,20330],[14.6,20414],[14.6,20497],[14.6,20580],[14.6,20664],[14.6,20747],[14.6,20830],[14.6,20914],[14.6,20997],[14.6,21080],[14.6,21164],[14.6,21247],[14.6,21330],[14.6,21413],[14.6,21497],[14.6,21580],[14.6,21663],[14.6,21747],[14.6,21830],[14.6,21926],[14.6,22010],[14.6,22093],[14.6,22179],[14.6,22259],[14.6,22343],[14.6,22426],[14.6,22511],[14.6,22594],[14.6,22676],[14.6,22759],[14.6,22844],[14.6,22927],[14.6,23009],[14.6,23093],[14.6,23177],[14.6,23260],[14.6,23343],[14.6,23426],[14.6,23510],[14.6,23593],[14.6,23676],[14.6,23760],[14.6,23842],[14.6,23926],[14.5,24023],[14,24111],[13.9,24193],[12.9,24277],[12.4,24361],[12,24443],[12,24526],[11.9,24610],[11.9,24693],[11.8,24776],[11.8,24859],[11.7,24943],[11.7,25027],[11.7,25109],[11.7,25194],[11.7,25277],[11.7,25359],[11.7,25444],[11.7,25525],[11.7,25610],[11.7,25693],[11.7,25776],[11.7,25860],[11.7,25935],[11.8,26026],[11.8,26107],[11.9,26194],[11.9,26276],[11.9,26360],[11.9,26442],[11.9,26526],[11.9,26609],[11.9,26693],[11.9,26777],[11.9,26859],[11.9,26942],[11.9,27025],[11.9,27109],[11.9,27193],[11.9,27276],[11.9,27351],[11.9,27442],[11.9,27526],[11.9,27609],[11.9,27692],[11.9,27776],[11.9,27860],[11.9,27944],[11.9,28026],[11.9,28109],[11.9,28193],[11.9,28276],[11.9,28358],[11.9,28442],[11.7,28541],[11.5,28626],[11,28711],[10.4,28793],[10.1,28877],[9.5,28960],[9.5,29041],[9.5,29126],[9.5,29208],[9.4,29292],[9.4,29376],[9.4,29460]]",1,0,861.4793,863.1323,9.375,0.7871,"[{""rating"":9.375,""responseTime"":0.7870999999046262}]",space,1.1173,,863.1323,Partially,50,863.1371,,,[],,0,11,11,11,1,audio/Narrative8Situation2.wav,audio/Narrative7Situation2.wav,audio/Narrative6Situation2.wav,audio/Narrative5Situation2.wav,3,3,3,3,,,,,,,,,,,,,,,,,,,,,,,,,,,,,,,,,,,,,,,
,,,,,,5dd2f94a238a913096c52317,2024-05-13_10h35.14.189,group3.1-3.2-social-tom,2023.2.2,Win32,59.88023952,65c5074098b851296ff0b7ed,664231b98372433f56664f2b,,,,,,,,,,,,,,,,,,,,,,,,,,,,,863.1375,2,audio/Narrative5Situation3.wav,866.1486,,866.1487,880.0638,"[[8.9,1666],[8.6,1749],[8.5,1832],[8.3,1916],[8.3,1999],[8.3,2082],[8.3,2166],[8.3,2249],[8.3,2332],[8.3,2415],[8.3,2499],[8.3,2582],[8.3,2665],[8.3,2749],[8.3,2832],[8.3,2915],[8.3,2999],[8.3,3082],[8.3,3166],[8.3,3249],[8.3,3332],[8.3,3415],[8.3,3499],[8.3,3582],[8.3,3665],[8.3,3749],[8.3,3832],[8.3,3915],[8.3,3999],[8.3,4082],[8.3,4165],[8.3,4249],[8.3,4332],[8.3,4415],[8.3,4498],[8.3,4582],[8.3,4665],[8.3,4749],[8.3,4832],[8.3,4915],[8.3,4998],[8.3,5082],[9.1,5182],[10.3,5263],[11.6,5346],[16.1,5430],[38.9,5517],[49.8,5602],[54.3,5689],[54.6,5779],[54.6,5861],[54.6,5936],[56.5,6030],[65.3,6113],[69.1,6201],[70.8,6286],[72.5,6373],[74.9,6468],[79.7,6557],[81,6653],[82.6,6737],[83.4,6831],[84,6914],[84,6982],[84,7066],[84,7149],[84,7232],[84,7316],[84,7399],[84,7482],[84,7565],[84,7649],[84,7732],[84,7815],[84,7899],[84,7982],[84,8066],[84,8149],[84,8232],[84,8315],[84,8399],[84,8482],[84,8565],[84,8649],[84,8732],[84,8815],[84,8899],[84,8982],[84,9065],[84,9149],[84,9232],[84,9315],[84,9399],[84,9482],[84,9565],[84,9649],[84,9732],[84,9815],[84,9899],[84.7,9982],[85.6,10066],[86.8,10150],[88,10234],[88.5,10317],[88.5,10399],[88.5,10482],[88.5,10565],[88.5,10649],[88.5,10731],[88.5,10815],[88.5,10898],[88.5,10982],[88.5,11065],[88.5,11149],[88.5,11232],[88.5,11315],[88.5,11399],[88.5,11482],[88.5,11565],[88.5,11649],[88.5,11732],[88.5,11815],[88.5,11899],[88.5,11982],[88.5,12065],[88.5,12148],[88.5,12231],[88.5,12315],[88.5,12398],[88.5,12481],[88.5,12565],[88.5,12648],[88.5,12731],[88.5,12815],[88.5,12898],[88.5,12981],[88.5,13065],[88.5,13148],[88.5,13231],[88.5,13315],[88.5,13398],[88.5,13481],[88.5,13565],[88.5,13648],[88.5,13731],[88.5,13814],[88.5,13898]]",1,0,880.064,883.5434,79.375,3.0618,"[{""rating"":79.375,""responseTime"":3.0617999997139123}]",space,2.9335,,883.5434,Partially,50,883.5465,,,[],,0,12,12,12,1,audio/Narrative8Situation3.wav,audio/Narrative7Situation3.wav,audio/Narrative6Situation3.wav,audio/Narrative5Situation3.wav,4,8,5,3,,,,,,,,,,,,,,,,,,,,,,,,,,,,,,,,,,,,,,,
,,,,,,5dd2f94a238a913096c52317,2024-05-13_10h35.14.189,group3.1-3.2-social-tom,2023.2.2,Win32,59.88023952,65c5074098b851296ff0b7ed,664231b98372433f56664f2b,,,,,,,,,,,,,,,,,,,,,,,,,,,,,883.5469,2,audio/Narrative5Situation4.wav,884.5598,,884.5599,904.9411,"[[80.4,2370],[82,2453],[82.7,2537],[83.6,2621],[84.3,2703],[84.4,2786],[84.4,2869],[84.4,2952],[84.4,3036],[84.4,3119],[84.4,3202],[84.4,3286],[84.4,3369],[84.4,3452],[84.4,3536],[84.4,3619],[84.4,3702],[84.4,3786],[83.5,3872],[78,3956],[72.7,4040],[69.7,4120],[67.9,4203],[66.6,4286],[65.2,4370],[63.9,4454],[62.9,4536],[62.9,4619],[62.9,4702],[62.9,4786],[62.9,4869],[62.9,4952],[62.9,5036],[57.1,5157],[52.6,5260],[51.4,5343],[49.1,5436],[46.1,5535],[42.8,5625],[40,5721],[37.5,5816],[37.3,5899],[37.3,5985],[37.3,6069],[37.3,6151],[35.2,6236],[27.5,6320],[24,6406],[21,6492],[19.8,6585],[18.9,6671],[18.2,6755],[17.4,6839],[17,6919],[16.8,7003],[16.8,7085],[16.7,7169],[15.7,7252],[14.9,7336],[14.6,7419],[14.6,7501],[14.6,7584],[14.6,7668],[14.6,7754],[14.6,7850],[14.6,7933],[14.6,8004],[14.6,8085],[14.6,8169],[14.6,8252],[14.6,8335],[14.6,8419],[14.6,8502],[14.6,8585],[14.6,8669],[14.6,8752],[14.6,8835],[14.6,8919],[14.6,9002],[14.6,9085],[14.6,9169],[14.6,9252],[15,9335],[16.1,9420],[17.5,9504],[19.3,9589],[23,9677],[30.4,9796],[43.3,10072],[47.7,10170],[52,10270],[53.3,10358],[53.6,10449],[53.6,10531],[53.8,10613],[54.2,10699],[54.7,10782],[54.7,10863],[54.7,10947],[54.7,11031],[54.7,11114],[54.7,11198],[54.7,11281],[55.6,11364],[57.3,11451],[59.3,11540],[60.9,11634],[60.9,11717],[60.9,11800],[60.9,11884],[60.9,11967],[60.9,12051],[60.9,12134],[60.9,12217],[60.9,12301],[60.9,12384],[60.9,12467],[60.9,12550],[60.9,12634],[60.9,12717],[60.9,12801],[60.9,12884],[60.9,12967],[60.9,13050],[60.9,13134],[60.9,13218],[60.9,13300],[60.9,13384],[60.9,13467],[60.9,13550],[60.9,13634],[60.9,13718],[60.9,13802],[60.9,13884],[60.9,13967],[60.9,14050],[60.9,14134],[60.9,14217],[60.9,14300],[60.9,14383],[60.9,14467],[60.9,14550],[60.9,14633],[60.9,14716],[60.9,14800],[60.9,14883],[60.9,14967],[60.9,15050],[60.9,15133],[60.9,15217],[60.9,15300],[62.3,15398],[63.6,15482],[65,15565],[66.1,15648],[66.6,15731],[67.4,15818],[68.9,15902],[70.9,15988],[70.9,16066],[70.9,16150],[70.9,16233],[70.9,16317],[70.9,16400],[70.9,16483],[70.9,16567],[70.9,16650],[70.9,16733],[70.9,16816],[70.9,16900],[70.9,16983],[70.9,17067],[70.9,17150],[70.9,17233],[70.9,17317],[70.9,17400],[70.9,17483],[71.8,17567],[74.6,17650],[77.6,17735],[79.9,17822],[81.3,17905],[82.2,17990],[83,18080],[83,18163],[83,18246],[83,18329],[83,18413],[83,18496],[83,18579],[83,18663],[83,18746],[83,18830],[83,18913],[83,18996],[83,19079],[83,19163],[83,19246],[83,19329],[83,19413],[83,19496],[83,19579],[83,19663],[83,19746],[83,19830],[83,19913],[83,19996],[83,20080],[83,20163],[83,20246],[83,20330]]",1,0,904.9413,906.5064,86.5625,1.2315,"[{""rating"":86.5625,""responseTime"":1.2314999999999827}]",space,1.0322,,906.5065,Definitely yes,100,906.5121,,,[],,0,13,13,13,1,audio/Narrative8Situation4.wav,audio/Narrative7Situation4.wav,audio/Narrative6Situation4.wav,audio/Narrative5Situation4.wav,3,3,2,1,,,,,,,,,,,,,,,,,,,,,,,,,,,,,,,,,,,,,,,
,,,,,,5dd2f94a238a913096c52317,2024-05-13_10h35.14.189,group3.1-3.2-social-tom,2023.2.2,Win32,59.88023952,65c5074098b851296ff0b7ed,664231b98372433f56664f2b,,,,,,,,,,,,,,,,,,,,,,,,,,,,,906.5126,2,audio/Narrative5Situation5.wav,911.5219,,911.522,926.9381,"[[999,15],[999,100],[999,183],[999,267],[999,350],[999,434],[999,517],[999,600],[999,684],[999,767],[999,851],[999,935],[999,1020],[76.7,1112],[76.1,1210],[75.9,1301],[75.9,1383],[75.9,1468],[75.7,1550],[74.8,1634],[61.9,1720],[50.5,1805],[48.9,1892],[48.3,1976],[48.2,2066],[48.2,2149],[47.6,2234],[46.5,2318],[45.8,2403],[45.8,2486],[45.8,2569],[45.8,2653],[45.8,2736],[41.8,2820],[36,2904],[32.5,2992],[29.6,3078],[28.2,3170],[26.7,3257],[25.2,3344],[23.6,3435],[22.7,3521],[22.7,3603],[22.7,3686],[22.7,3769],[22.7,3853],[22.7,3936],[22.7,4019],[22.7,4103],[22.7,4186],[22.7,4269],[22.7,4352],[22.7,4436],[22.7,4519],[22.7,4603],[22.7,4686],[22.7,4769],[22.7,4853],[22.7,4936],[22.7,5019],[21.7,5103],[20.1,5189],[18.5,5273],[17.3,5358],[15.7,5444],[14.5,5538],[11.7,5623],[9.6,5709],[8,5801],[6.8,5894],[6.7,5992],[6.7,6096],[6.7,6188],[6.7,6284],[5.9,6373],[3.2,6469],[2.4,6569],[2.3,6654],[1.8,6750],[1.7,6834],[1.7,6913],[1.7,7016],[1.7,7099],[1.7,7182],[1.7,7266],[1.7,7349],[1.7,7432],[1.7,7516],[1.7,7599],[1.7,7682],[1.7,7766],[1.7,7849],[1.7,7932],[1.7,8016],[1.7,8098],[1.7,8182],[1.7,8266],[1.7,8349],[1.7,8432],[1.7,8506],[1.7,8599],[1.7,8681],[1.7,8764],[1.7,8849],[1.7,8932],[1.7,9015],[1.7,9098],[1.7,9183],[1.7,9265],[1.7,9348],[1.7,9434],[1.7,9515],[1.7,9599],[1.7,9681],[1.7,9766],[1.7,9849],[1.7,9931],[1.7,10015],[1.7,10099],[1.7,10182],[1.7,10265],[1.7,10349],[1.7,10432],[1.7,10516],[1.7,10599],[1.7,10680],[1.7,10765],[1.7,10846],[1.7,10931],[1.7,11015],[1.7,11098],[1.7,11182],[1.7,11265],[1.7,11348],[1.7,11432],[1.7,11508],[1.7,11598],[1.7,11682],[1.7,11765],[1.7,11848],[1.7,11931],[1.7,12013],[1.7,12098],[1.7,12182],[1.7,12264],[1.7,12348],[1.7,12432],[1.7,12514],[1.7,12598],[1.7,12682],[1.7,12765],[1.7,12848],[1.7,12932],[1.7,13015],[1.7,13098],[1.7,13181],[1.7,13265],[1.7,13349],[1.7,13423],[1.7,13515],[1.7,13599],[1.7,13680],[1.7,13765],[1.7,13848],[1.7,13931],[1.7,14014],[1.7,14098],[1.7,14181],[1.7,14264],[1.7,14348],[1.7,14430],[1.7,14514],[1.7,14598],[1.7,14681],[1.7,14765],[1.7,14848],[1.7,14931],[1.7,15016],[1.7,15098],[1.1,15198],[1,15281],[1,15365]]",1,0,926.9384,928.408,1.770834923,1.0834,"[{""rating"":1.7708349227905262,""responseTime"":1.083399999618564}]",space,0.9343,,928.4081,Not at all,0,928.4129,,,[],,0,14,14,14,1,audio/Narrative8Situation5.wav,audio/Narrative7Situation5.wav,audio/Narrative6Situation5.wav,audio/Narrative5Situation5.wav,2,5,2,5,,,,,,,,,,,,,,,,,,,,,,,,,,,,,,,,,,,,,,,
,,,,,,5dd2f94a238a913096c52317,2024-05-13_10h35.14.189,group3.1-3.2-social-tom,2023.2.2,Win32,59.88023952,65c5074098b851296ff0b7ed,664231b98372433f56664f2b,,,,,,,,,,,,,,,,,,,,,,,,,,,,,928.4133,2,audio/Narrative5Situation6.wav,931.423,,931.4231,937.1097,"[[2.8,1489],[4.1,1587],[5,1683],[5.6,1767],[5.6,1849],[5.6,1933],[5.6,2016],[5.6,2099],[5.6,2183],[5.6,2266],[5.6,2349],[5.6,2433],[14.9,2516],[32.5,2603],[39.4,2687],[39.7,2770],[39.7,2849],[39.7,2933],[39.7,3021],[68.4,3585],[68.8,3669],[69.2,3754],[69.6,3837],[72.3,3923],[75.8,4017],[77.8,4103],[77.8,4182],[77.8,4266],[77.8,4349],[77.8,4432],[80,4530],[82.1,4614],[83.4,4696],[84.4,4783],[84.9,4867],[85,4949],[85,5032],[85,5116],[85,5199],[85,5282],[85,5365],[85,5449],[85.5,5533],[86.9,5616]]",1,0,937.11,938.969,87.60416985,1.4084,"[{""rating"":87.60416984558105,""responseTime"":1.4083999996184957}]",space,1.3173,,938.969,Not at all,0,938.9726,,,[],,0,15,15,15,1,audio/Narrative8Situation6.wav,audio/Narrative7Situation6.wav,audio/Narrative6Situation6.wav,audio/Narrative5Situation6.wav,2,3,2,3,,,,,,,,,,,,,,,,,,,,,,,,,,,,,,,,,,,,,,,
