exp_question,consent.started,consent.stopped,consentResponse.keys,consentResponse.rt,consentResponse.duration,participantID,date,expName,psychopyVersion,OS,frameRate,STUDY_ID,SESSION_ID,opening1.started,opening1.stopped,keyEndingOpening1.keys,keyEndingOpening1.rt,keyEndingOpening1.duration,volumeAdjust.started,volumeAdjust.stopped,endingAdjust.keys,endingAdjust.rt,endingAdjust.duration,opening2.started,opening2.stopped,keyEndingOpening.keys,keyEndingOpening.rt,keyEndingOpening.duration,mouse.x,mouse.y,mouse.leftButton,mouse.midButton,mouse.rightButton,mouse.time,instructionLoop.thisRepN,instructionLoop.thisTrialN,instructionLoop.thisN,instructionLoop.thisIndex,instructionLoop.ran,readyForAudio.started,readyForAudio.stopped,fixation.started,run,audio_played,fixation.stopped,endPractice.keys,audioPre.started,audioPre.stopped,continuousResponses_audio,continuousSlider.response,continuousSlider.rt,intRating.started,intRating.stopped,intQuestionSlider.response,intQuestionSlider.rt,intQuestionSlider.history,confirmResponse.keys,confirmResponse.rt,confirmResponse.duration,catchQuestion.started,catch_label,catch_value,catchQuestion.stopped,catchQuestionSlider.response,catchQuestionSlider.rt,catchQuestionSlider.history,confirmResponse_2.keys,audioRunLoop.thisRepN,audioRunLoop.thisTrialN,audioRunLoop.thisN,audioRunLoop.thisIndex,audioRunLoop.ran,conditions1_1,conditions2_1,conditions1_2,conditions2_2,dur1_1,dur2_1,dur1_2,dur2_2,endPractice.rt,endPractice.duration,confirmResponse_2.rt,confirmResponse_2.duration,runIntervalBreak.started,runIntervalBreak.stopped,endingBreakKey.keys,endingBreakKey.rt,endingBreakKey.duration,connection.started,connection.stopped,connectionEnding.keys,connectionEnding.rt,connectionEnding.duration,readyForText.started,readyForText.stopped,textPre.started,run_dup,textPre.stopped,continuousResponses_text,textRunLoop.thisRepN,textRunLoop.thisTrialN,textRunLoop.thisN,textRunLoop.thisIndex,textRunLoop.ran,text1_1,text1_2,text2_1,text2_2,runBreakText.started,runBreakText.stopped,endingBreakKey_2.keys,endingBreakKey_2.rt,endingBreakKey_2.duration,ending.started,ending.stopped,endingEnding.keys,endingEnding.rt,endingEnding.duration
social,0,4.112,y,3.785,,5dd6dadf9c84d86703aa8615,2024-05-13_11h53.48.780,group3.1-3.2-social-tom,2023.2.2,Win32,60.0240096,65c5074098b851296ff0b7ed,6642377634db0800e43dc24d,,,,,,,,,,,,,,,,,,,,,,,,,,,,,,,,,,,,,,,,,,,,,,,,,,,,,,,,,,,,,,,,,,,,,,,,,,,,,,,,,,,,,,,,,,,,,,,,,,,,,,,,,,
,,,,,,5dd6dadf9c84d86703aa8615,2024-05-13_11h53.48.780,group3.1-3.2-social-tom,2023.2.2,Win32,60.0240096,65c5074098b851296ff0b7ed,6642377634db0800e43dc24d,4.112,30.261,space,26.125,,,,,,,,,,,,,,,,,,,,,,,,,,,,,,,,,,,,,,,,,,,,,,,,,,,,,,,,,,,,,,,,,,,,,,,,,,,,,,,,,,,,,,,,,,,,,,,,,,,,,,
,,,,,,5dd6dadf9c84d86703aa8615,2024-05-13_11h53.48.780,group3.1-3.2-social-tom,2023.2.2,Win32,60.0240096,65c5074098b851296ff0b7ed,6642377634db0800e43dc24d,,,,,,30.261,38.026,space,7.442,,,,,,,,,,,,,,,,,,,,,,,,,,,,,,,,,,,,,,,,,,,,,,,,,,,,,,,,,,,,,,,,,,,,,,,,,,,,,,,,,,,,,,,,,,,,,,,,,
,,,,,,5dd6dadf9c84d86703aa8615,2024-05-13_11h53.48.780,group3.1-3.2-social-tom,2023.2.2,Win32,60.0240096,65c5074098b851296ff0b7ed,6642377634db0800e43dc24d,,,,,,,,,,,38.031,42.61,space,4.554,,[],[],[],[],[],[],0,0,0,0,1,,,,,,,,,,,,,,,,,,,,,,,,,,,,,,,,,,,,,,,,,,,,,,,,,,,,,,,,,,,,,,,,,,,,,,,,,,,,,,,,
,,,,,,5dd6dadf9c84d86703aa8615,2024-05-13_11h53.48.780,group3.1-3.2-social-tom,2023.2.2,Win32,60.0240096,65c5074098b851296ff0b7ed,6642377634db0800e43dc24d,,,,,,,,,,,42.611,52.943,space,10.277,,[],[],[],[],[],[],1,0,1,0,1,,,,,,,,,,,,,,,,,,,,,,,,,,,,,,,,,,,,,,,,,,,,,,,,,,,,,,,,,,,,,,,,,,,,,,,,,,,,,,,,
,,,,,,5dd6dadf9c84d86703aa8615,2024-05-13_11h53.48.780,group3.1-3.2-social-tom,2023.2.2,Win32,60.0240096,65c5074098b851296ff0b7ed,6642377634db0800e43dc24d,,,,,,,,,,,52.944,68.293,space,15.311,,[],[],[],[],[],[],2,0,2,0,1,,,,,,,,,,,,,,,,,,,,,,,,,,,,,,,,,,,,,,,,,,,,,,,,,,,,,,,,,,,,,,,,,,,,,,,,,,,,,,,,
,,,,,,5dd6dadf9c84d86703aa8615,2024-05-13_11h53.48.780,group3.1-3.2-social-tom,2023.2.2,Win32,60.0240096,65c5074098b851296ff0b7ed,6642377634db0800e43dc24d,,,,,,,,,,,68.295,89.358,space,21.042,,[],[],[],[],[],[],3,0,3,0,1,,,,,,,,,,,,,,,,,,,,,,,,,,,,,,,,,,,,,,,,,,,,,,,,,,,,,,,,,,,,,,,,,,,,,,,,,,,,,,,,
,,,,,,5dd6dadf9c84d86703aa8615,2024-05-13_11h53.48.780,group3.1-3.2-social-tom,2023.2.2,Win32,60.0240096,65c5074098b851296ff0b7ed,6642377634db0800e43dc24d,,,,,,,,,,,89.359,96.29,space,6.915,,[],[],[],[],[],[],4,0,4,0,1,,,,,,,,,,,,,,,,,,,,,,,,,,,,,,,,,,,,,,,,,,,,,,,,,,,,,,,,,,,,,,,,,,,,,,,,,,,,,,,,
,,,,,,5dd6dadf9c84d86703aa8615,2024-05-13_11h53.48.780,group3.1-3.2-social-tom,2023.2.2,Win32,60.0240096,65c5074098b851296ff0b7ed,6642377634db0800e43dc24d,,,,,,,,,,,,,,,,,,,,,,,,,,,96.293,98.874,98.883,1,audio/Narrative13Situation2.wav,100.891,,100.891,130.656,"[[999,0],[999,84],[999,165],[999,250],[999,332],[999,415],[999,499],[999,582],[52.3,665],[34.9,999],[34.8,1082],[37.2,1165],[39.5,1249],[40.5,1332],[42.7,1415],[45.4,1499],[47.4,1582],[49.4,1665],[50.3,1750],[51.1,1832],[51.5,1915],[51.5,1999],[51.5,2082],[51.5,2165],[51.5,2249],[51.1,2332],[51.1,2415],[50.3,2500],[49.7,2582],[49.6,2665],[48.8,2749],[43.9,2832],[43.5,2915],[43.2,2999],[41.1,3082],[40.3,3165],[34.4,3249],[30.9,3332],[29.5,3415],[25.8,3499],[25.8,3582],[25.8,3665],[25.8,3749],[25.6,3832],[21.7,3915],[18.1,3999],[15.3,4082],[15.3,4165],[15.3,4249],[15.3,4332],[15.3,4415],[15.3,4499],[15.3,4582],[15.3,4665],[15.3,4749],[15.3,4832],[15.3,4915],[15.3,4999],[15.3,5082],[15.3,5165],[15.3,5249],[15.3,5332],[15.3,5415],[15.3,5499],[15.3,5582],[15.3,5665],[15.3,5749],[15.3,5832],[15.3,5915],[15.3,5999],[15.3,6082],[15.3,6165],[15.3,6249],[15.3,6332],[15.3,6415],[15.3,6499],[15.3,6582],[15.3,6665],[15.3,6749],[15.3,6832],[15.3,6915],[15.3,6999],[15.3,7082],[15.3,7165],[15.3,7249],[15.3,7332],[15.3,7415],[15.3,7499],[15.3,7582],[15.3,7665],[15.3,7749],[15.3,7832],[15.3,7915],[15.3,7999],[15.3,8082],[15.3,8165],[15.3,8249],[15.3,8332],[15.3,8415],[15.3,8499],[15.3,8582],[15.3,8665],[15.3,8749],[15.3,8832],[15.3,8915],[15.3,8999],[15.2,9082],[15.2,9165],[15.2,9249],[15.8,9332],[26.5,9415],[36.6,9499],[43,9582],[52.4,9665],[65.1,9749],[82.1,9832],[89.8,9915],[92.4,9998],[93.1,10082],[94.1,10165],[96.4,10249],[97.5,10332],[98,10415],[98,10498],[98,10582],[98,10665],[98,10749],[98,10832],[98,10915],[98,10999],[98,11082],[98,11165],[98,11249],[98,11332],[98,11415],[98,11498],[98,11582],[98,11665],[98,11748],[98,11832],[98,11915],[98,11998],[98,12082],[98,12165],[98,12249],[98,12331],[98,12414],[98,12498],[98,12581],[98,12664],[98,12747],[98,12831],[98,12914],[98,12998],[98,13081],[98,13164],[98,13248],[98,13330],[98,13414],[98,13497],[98,13581],[98,13664],[98,13748],[98,13831],[98,13915],[98,13998],[98,14081],[98,14165],[98,14248],[98,14330],[98,14414],[98,14499],[98,14582],[98,14665],[98,14749],[98,14832],[98,14915],[98,14998],[98,15082],[98,15166],[98,15248],[98,15331],[98,15415],[98,15498],[98,15582],[98,15666],[98,15749],[98,15832],[98,15915],[98,15998],[98,16082],[98,16165],[98,16249],[98,16332],[98,16415],[98,16498],[96.8,16582],[92.7,16665],[86.3,16748],[75.1,16832],[66.4,16915],[63.6,16999],[61,17082],[57.1,17165],[54.2,17249],[52.4,17331],[50.8,17415],[50.2,17498],[49.8,17582],[49.8,17665],[49.8,17748],[49.8,17832],[49.8,17915],[49.8,17998],[49.8,18082],[49.8,18165],[49.8,18248],[49.8,18331],[49.8,18415],[49.8,18498],[49.8,18582],[49.8,18664],[49.8,18748],[49.8,18832],[49.8,18915],[49.8,18998],[49.8,19082],[49.8,19165],[49.8,19248],[49.8,19331],[49.8,19415],[49.8,19498],[49.8,19581],[49.8,19664],[49.8,19748],[49.8,19832],[49.8,19915],[49.8,19998],[49.8,20081],[49.8,20165],[48.1,20248],[44.6,20332],[41.9,20414],[39.2,20498],[35.6,20582],[32,20665],[29.7,20748],[26.6,20832],[24.1,20915],[22,20998],[20,21081],[17.8,21164],[15.5,21248],[14.6,21331],[14.4,21414],[14.3,21498],[14,21581],[13,21665],[12.4,21748],[12.4,21832],[11.9,21915],[10.4,21998],[9.7,22082],[9.3,22165],[8.4,22248],[8,22331],[7.2,22415],[6.1,22498],[5.3,22581],[4.4,22665],[4.2,22748],[4.2,22831],[4.2,22915],[4.2,22998],[4.2,23082],[4.2,23165],[4.2,23248],[4.2,23331],[4.2,23415],[4.2,23498],[4.2,23582],[4.2,23664],[4.2,23748],[4.2,23832],[4.2,23915],[4.2,23998],[4.2,24082],[4.2,24165],[4.2,24247],[4.2,24332],[4.2,24414],[4.2,24498],[4.2,24581],[4.5,24664],[4.5,24748],[4.5,24831],[4.5,24915],[4.5,24998],[4.5,25081],[4.5,25165],[4.5,25248],[4.5,25331],[4.5,25415],[4.5,25498],[4.5,25582],[4.5,25664],[4.5,25748],[4.5,25832],[4.5,25915],[4.5,25998],[4.5,26082],[4.5,26164],[4.5,26248],[4.5,26331],[4.5,26414],[4.5,26498],[4.5,26581],[4.5,26664],[4.5,26747],[4.5,26831],[4.5,26914],[4.5,26998],[4.5,27081],[4.5,27164],[4.5,27248],[4.5,27331],[4.5,27414],[4.5,27498],[4.5,27581],[4.5,27665],[4.5,27748],[4.5,27832],[4.5,27914],[4.5,27998],[4.5,28081],[4.5,28164],[4.5,28248],[4.5,28331],[4.5,28414],[4.5,28498],[4.5,28581],[4.5,28664],[4.5,28748],[4.5,28831],[4.5,28914],[4.5,28998],[4.5,29081],[4.5,29164],[4.5,29248],[4.5,29331],[4.5,29414],[4.5,29498],[4.5,29581],[4.5,29665],[4.5,29747]]",1,0,130.657,145.405,50.83333333,11.821,"[{""rating"":50.83333333333333,""responseTime"":11.820999999999998}]",space,14.201,,145.405,Definitely yes,100,145.409,,,[],,0,0,0,0,1,audio/Narrative13Situation2.wav,audio/Narrative13Situation2.wav,audio/Narrative13Situation2.wav,audio/Narrative13Situation2.wav,2,2,2,2,,,,,,,,,,,,,,,,,,,,,,,,,,,,,,,,,,,,,,,
,,,,,,5dd6dadf9c84d86703aa8615,2024-05-13_11h53.48.780,group3.1-3.2-social-tom,2023.2.2,Win32,60.0240096,65c5074098b851296ff0b7ed,6642377634db0800e43dc24d,,,,,,,,,,,,,,,,,,,,,,,,,,,,,145.41,1,audio/Narrative8Situation1.wav,148.438,space,148.438,164.371,"[[999,1],[999,82],[999,165],[999,250],[999,332],[999,417],[999,498],[999,582],[999,665],[999,750],[999,832],[999,917],[999,1000],[999,1082],[999,1165],[999,1248],[999,1332],[999,1415],[49.8,1500],[49.7,1584],[46.5,1665],[41.6,1750],[41.6,1832],[39.1,1915],[31.5,2000],[19.7,2082],[10.8,2165],[7.1,2250],[4.5,2332],[4.2,2415],[4.1,2498],[4.1,2582],[4.1,2665],[4.1,2750],[4.1,2832],[4.1,2915],[4.1,3000],[4.1,3082],[4.1,3165],[4.1,3248],[4.1,3332],[4.1,3417],[4.1,3500],[4.1,3582],[4.1,3667],[4.1,3748],[4.1,3832],[4.1,3915],[4.1,3998],[4.1,4082],[4.1,4165],[4.1,4250],[4.1,4332],[4.1,4415],[4.1,4498],[4.1,4582],[3.3,4667],[1.8,4748],[0.5,4832],[0.4,4917],[0.4,5000],[0.4,5082],[0.4,5165],[0.4,5250],[0.4,5332],[0.4,5415],[0.4,5500],[0.4,5582],[0.4,5665],[0.4,5750],[0.4,5831],[0.4,5917],[0.4,6000],[0.4,6082],[0.4,6167],[0.4,6248],[0.4,6332],[0.4,6415],[0.4,6500],[0.4,6582],[0.4,6667],[0.4,6748],[0.4,6832],[0.4,6917],[0.4,7000],[0.4,7082],[0.4,7165],[0.4,7248],[0.4,7332],[0.4,7415],[0.4,7498],[0.4,7582],[0.4,7665],[0.4,7750],[0.4,7831],[0.4,7915],[0.4,7998],[0.4,8082],[0.4,8165],[0.4,8248],[0.4,8332],[0.4,8415],[0.4,8498],[0.4,8581],[0.4,8665],[0.4,8748],[0.4,8832],[0.4,8915],[0.4,8998],[0.4,9082],[0.4,9165],[0.4,9248],[0.4,9331],[0.4,9417],[0.4,9498],[0.4,9581],[0.4,9665],[0.4,9748],[0.4,9832],[1.1,9917],[1.1,9998],[1.1,10081],[10.1,10165],[24.9,10248],[40.2,10331],[51.9,10415],[65.1,10498],[75.1,10581],[83,10665],[90.6,10748],[94.5,10832],[96.9,10915],[99,11000],[99.1,11081],[99.3,11165],[99.8,11248],[99.8,11331],[99.8,11415],[99.8,11498],[99.7,11582],[97.7,11665],[94.3,11748],[93.3,11832],[93.2,11917],[93.2,11998],[93.2,12082],[93.2,12165],[93.2,12248],[93.2,12332],[93.2,12415],[93.2,12498],[93.2,12582],[93.2,12665],[92.9,12748],[90.9,12832],[87.5,12915],[82.5,13000],[77.8,13082],[74.7,13165],[72.4,13250],[69.4,13331],[65.6,13415],[62.5,13500],[60.3,13581],[59.4,13665],[59.1,13748],[59,13831],[59,13914],[59,13998],[59,14081],[59.5,14165],[59.8,14248],[59.8,14332],[59.8,14415],[59.8,14498],[59.8,14582],[59.8,14665],[59.8,14748],[59.8,14831],[59.8,14915],[59.7,15000],[57.4,15082],[56.6,15165],[56.6,15248],[56.6,15331],[56.6,15415],[56.6,15498],[56.6,15581],[56.6,15665],[56.6,15748],[56.6,15831],[56.6,15914]]",1,0,164.371,169.653,81.04166667,3.439,"[{""rating"":81.04166666666667,""responseTime"":3.4390000000000214}]",space,4.735,,169.653,Partially,50,169.66,,,[],,0,1,1,1,1,audio/Narrative7Situation1.wav,audio/Narrative8Situation1.wav,audio/Narrative5Situation1.wav,audio/Narrative6Situation1.wav,2,5,5,2,3.009,,,,,,,,,,,,,,,,,,,,,,,,,,,,,,,,,,,,,,
,,,,,,5dd6dadf9c84d86703aa8615,2024-05-13_11h53.48.780,group3.1-3.2-social-tom,2023.2.2,Win32,60.0240096,65c5074098b851296ff0b7ed,6642377634db0800e43dc24d,,,,,,,,,,,,,,,,,,,,,,,,,,,,,169.661,1,audio/Narrative8Situation2.wav,172.67,,172.67,182.803,"[[999,1],[999,82],[999,165],[999,250],[999,332],[999,417],[999,500],[999,584],[999,665],[999,748],[999,832],[999,917],[999,1000],[999,1082],[999,1165],[999,1250],[38.5,1332]]",1,0,182.803,186.569,1.145833333,2.79,"[{""rating"":1.1458333333333348,""responseTime"":2.789999999999992}]",space,3.232,,186.569,Definitely yes,100,186.573,,,[],,0,2,2,2,1,audio/Narrative7Situation2.wav,audio/Narrative8Situation2.wav,audio/Narrative5Situation2.wav,audio/Narrative6Situation2.wav,3,3,3,3,,,,,,,,,,,,,,,,,,,,,,,,,,,,,,,,,,,,,,,
,,,,,,5dd6dadf9c84d86703aa8615,2024-05-13_11h53.48.780,group3.1-3.2-social-tom,2023.2.2,Win32,60.0240096,65c5074098b851296ff0b7ed,6642377634db0800e43dc24d,,,,,,,,,,,,,,,,,,,,,,,,,,,,,186.573,1,audio/Narrative8Situation3.wav,190.585,,190.585,212.951,"[[17,1917],[18.3,2000],[19.7,2084],[20.6,2167],[20.6,2250],[19.4,2334],[13.9,2417],[9.1,2500],[6.7,2584],[5.4,2667],[3.3,2751],[2.6,2834],[1.4,2917],[1,3000],[1,3083],[1,3167],[1,3250],[1,3333],[1,3417],[1,3500],[1,3584],[1,3667],[1,3750],[1,3834],[1,3917],[1,4000],[1,4084],[1,4167],[1,4250],[1,4333],[1,4417],[1,4500],[1,4584],[1,4667],[1,4750],[1,4834],[1,4917],[1,5000],[1,5083],[1,5167],[1,5250],[1,5334],[1,5417],[1,5500],[1,5583],[1,5667],[1,5750],[1,5834],[1,5917],[1,6000],[1,6083],[1,6167],[1,6250],[1,6333],[1,6417],[1,6500],[1,6584],[1,6666],[1,6750],[1,6834],[1,6917],[1,7000],[1,7083],[1,7166],[0.9,7250],[0.9,7333],[0.9,7417],[0.9,7500],[0.9,7583],[0.9,7667],[0.9,7750],[0.9,7834],[0.9,7917],[0.9,8000],[0.9,8083],[0.9,8167],[0.9,8250],[0.9,8334],[0.9,8417],[0.9,8500],[0.9,8583],[0.9,8667],[0.9,8750],[0.9,8834],[0.9,8917],[0.9,9000],[0.9,9084],[0.9,9167],[0.9,9249],[0.9,9333],[0.9,9417],[0.9,9499],[0.9,9584],[0.9,9666],[0.9,9750],[0.9,9834],[0.9,9917],[0.9,10000],[0.9,10083],[0.9,10167],[0.9,10250],[0.9,10334],[0.9,10417],[0.9,10499],[0.9,10584],[0.9,10666],[0.9,10750],[0.9,10833],[0.9,10916],[0.9,11000],[0.9,11083],[0.9,11166],[0.9,11250],[0.9,11333],[0.9,11416],[0.9,11499],[0.9,11583],[0.9,11666],[0.9,11750],[0.9,11833],[0.9,11916],[0.9,12000],[0.9,12084],[0.9,12167],[0.9,12250],[0.9,12333],[0.9,12416],[0.9,12500],[0.9,12583],[0.9,12667],[0.9,12750],[0.9,12833],[0.9,12917],[0.9,12999],[0.9,13083],[0.9,13166],[0.9,13249],[0.9,13333],[0.9,13417],[0.9,13500],[0.9,13583],[0.9,13666],[0.9,13750],[0.9,13833],[0.9,13916],[0.9,13999],[0.9,14083],[4.2,14167],[14,14250],[24.4,14333],[37.3,14417],[42.6,14500],[44.3,14583],[46.5,14667],[47.8,14749],[49,14834],[49,14917],[49.4,15000],[49.6,15083],[49.6,15166],[49.6,15250],[49.6,15333],[49.6,15417],[49.6,15499],[49.6,15583],[49.6,15666],[49.6,15750],[49.6,15833],[49.6,15916],[49.6,16000],[49.6,16083],[49.6,16167],[49.6,16250],[49.6,16333],[49.6,16417],[49.6,16500],[49.6,16583],[49.6,16667],[49.6,16750],[49.6,16832],[49.6,16916],[49.6,17000],[49.6,17083],[49.6,17166],[49.6,17250],[49.6,17333],[49.6,17417],[49.6,17500],[49.6,17583],[49.6,17666],[49.6,17749],[49.6,17833],[49.6,17916],[49.6,17999],[49.6,18083],[49.6,18167],[49.6,18250],[49.6,18333],[49.6,18416],[49.6,18500],[49.6,18583],[49.6,18666],[49.6,18750],[49.6,18833],[49.6,18916],[49.6,18999],[49.6,19083],[49.6,19166],[49.6,19249],[49.6,19333],[49.6,19416],[49.6,19499],[49.6,19583],[49.6,19666],[49.6,19749],[49.6,19833],[49.6,19916],[49.6,19999],[49.6,20083],[49.6,20167],[49.6,20250],[49.6,20333],[49.6,20416],[49.6,20499],[49.6,20583],[49.6,20666],[49.6,20750],[49.6,20833],[49.6,20916],[49.6,20999],[49.6,21083],[49.6,21166],[49.6,21249],[49.6,21333],[49.6,21416],[49.6,21500],[49.6,21582],[49.6,21666],[49.6,21750],[49.6,21832],[49.6,21916],[49.6,21999],[49.6,22083],[49.6,22166],[49.6,22249],[49.6,22332]]",1,0,212.952,217.335,49.89583333,1.689,"[{""rating"":49.895833333333336,""responseTime"":1.688999999999993}]",space,3.834,,217.335,Definitely yes,100,217.339,,,[],,0,3,3,3,1,audio/Narrative7Situation3.wav,audio/Narrative8Situation3.wav,audio/Narrative5Situation3.wav,audio/Narrative6Situation3.wav,8,4,3,5,,,,,,,,,,,,,,,,,,,,,,,,,,,,,,,,,,,,,,,
,,,,,,5dd6dadf9c84d86703aa8615,2024-05-13_11h53.48.780,group3.1-3.2-social-tom,2023.2.2,Win32,60.0240096,65c5074098b851296ff0b7ed,6642377634db0800e43dc24d,,,,,,,,,,,,,,,,,,,,,,,,,,,,,217.34,1,audio/Narrative8Situation4.wav,220.351,,220.351,234.534,"[[38,250],[38,332],[38,417],[38,498],[38,581],[37.4,665],[34.2,748],[23.1,834],[9.3,915],[5.4,1000],[2.7,1082],[0.5,7582],[3.9,7665],[10.8,7750],[23.4,7832],[37.8,7915],[44.2,8000],[48.5,8081],[52.7,8165],[53.2,8250],[53.2,8332],[53.2,8415],[52.7,8498],[52,8581],[51.3,8664],[50.3,8748],[50.2,8832],[50.1,8915],[49.8,9000],[49.8,9081],[49.7,9165],[49.7,9248],[49.7,9332],[49.7,9415],[49.7,9498],[49.7,9582],[49.7,9664],[49.7,9748],[49.7,9832],[49.7,9915],[49.7,9998],[49.7,10081],[49.7,10165],[49.7,10248],[49.7,10332],[50.1,10415],[50.6,10498],[50.6,10581],[50.6,10665],[50.6,10748],[50.6,10831],[50.6,10915],[50.6,10998],[50.6,11081],[50.6,11165],[50.5,11248],[50.4,11332],[50.4,11415],[50.4,11498],[50.4,11582],[50.4,11664],[50.4,11750],[50.4,11832],[50.4,11915],[50.4,11998],[50.4,12081],[50.4,12165],[50.4,12248],[50.4,12331],[50.4,12415],[50.4,12498],[50.4,12581],[50.4,12664],[50.4,12748],[50.4,12832],[50.4,12915],[50.4,12998],[50.4,13082],[50.4,13165],[50.4,13247],[50.4,13331],[50.4,13415],[50.4,13498],[50.4,13581],[50.4,13665],[50.4,13748],[50.4,13832],[50.4,13914],[50.4,13998],[50.4,14081],[50.4,14164]]",1,0,234.535,236.2,50.41666667,0.914,"[{""rating"":50.416666666666664,""responseTime"":0.9139999999999873}]",space,1.119,,236.2,Partially,50,236.206,,,[],,0,4,4,4,1,audio/Narrative7Situation4.wav,audio/Narrative8Situation4.wav,audio/Narrative5Situation4.wav,audio/Narrative6Situation4.wav,3,3,1,2,,,,,,,,,,,,,,,,,,,,,,,,,,,,,,,,,,,,,,,
,,,,,,5dd6dadf9c84d86703aa8615,2024-05-13_11h53.48.780,group3.1-3.2-social-tom,2023.2.2,Win32,60.0240096,65c5074098b851296ff0b7ed,6642377634db0800e43dc24d,,,,,,,,,,,,,,,,,,,,,,,,,,,,,236.206,1,audio/Narrative8Situation5.wav,238.217,,238.217,246.466,"[[43.2,498],[28.3,582],[18.1,665],[12,750],[7.1,832],[1.4,915],[10.5,2832],[35.1,2915],[55.4,2999],[60.6,3081],[68.1,3165],[70.9,3249],[70.9,3333],[70.9,3415],[70.9,3499],[69.7,3583],[60.7,3665],[59.9,3749],[59.9,3831],[59.9,3917],[59.9,3999],[59.9,4083],[59.9,4165],[59.9,4249],[59.9,4333],[59.9,4415],[59.9,4499],[59.9,4581],[59.9,4665],[59.9,4749],[59.9,4833],[59.9,4915],[59.9,4999],[59.9,5081],[59.9,5165],[59.9,5249],[59.9,5333],[59.9,5415],[59.9,5499],[59.9,5583],[59.9,5665],[59.9,5749],[59.9,5831],[59.9,5915],[59.9,5999],[59.9,6081],[59.9,6165],[59.9,6249],[59.9,6333],[59.9,6415],[59.9,6499],[59.9,6581],[59.9,6665],[59.9,6749],[59.9,6833],[59.9,6915],[59.9,6999],[59.9,7083],[59.9,7165],[60.9,7249],[63.2,7333],[65.6,7415],[69.1,7499],[70,7581],[70,7665],[70,7749],[70,7833],[70.1,7915],[70.1,7999],[70.1,8083],[70.1,8165],[70.1,8249]]",1,0,246.467,247.732,70.10416667,1.007,"[{""rating"":70.10416666666667,""responseTime"":1.007000000000005}]",space,0.717,,247.732,Not at all,0,247.737,,,[],,0,5,5,5,1,audio/Narrative7Situation5.wav,audio/Narrative8Situation5.wav,audio/Narrative5Situation5.wav,audio/Narrative6Situation5.wav,5,2,5,2,,,,,,,,,,,,,,,,,,,,,,,,,,,,,,,,,,,,,,,
,,,,,,5dd6dadf9c84d86703aa8615,2024-05-13_11h53.48.780,group3.1-3.2-social-tom,2023.2.2,Win32,60.0240096,65c5074098b851296ff0b7ed,6642377634db0800e43dc24d,,,,,,,,,,,,,,,,,,,,,,,,,,,,,247.738,1,audio/Narrative8Situation6.wav,249.75,,249.75,256.232,"[[70,165],[69.9,248],[62.6,332],[27.3,415],[13.2,498],[11.9,582],[7.3,665],[2,748],[0.9,831],[4.2,2498],[20.7,2581],[37.8,2665],[47.7,2748],[55,2831],[64,2915],[71,2998],[76,3081],[76.8,3165],[77,3248],[77,3331],[77,3415],[77,3498],[77,3581],[77,3665],[77,3748],[77,3831],[77,3915],[77.5,3998],[81.3,4082],[82.3,4165],[82.3,4248],[82.4,4331],[82.4,4415],[82.4,4498],[82.4,4581],[82.4,4665],[82.4,4748],[96.7,4831],[100,4915],[100,4998],[100,5081],[100,5165],[100,5248],[100,5332],[100,5415],[100,5498],[100,5581],[100,5665],[100,5748],[100,5831],[100,5915],[100,5998],[100,6081],[100,6165],[100,6248],[100,6331],[100,6415]]",1,0,256.232,258.632,99.375,1.507,"[{""rating"":99.375,""responseTime"":1.507000000000005}]",space,1.867,,258.632,Partially,50,258.636,,,[],,0,6,6,6,1,audio/Narrative7Situation6.wav,audio/Narrative8Situation6.wav,audio/Narrative5Situation6.wav,audio/Narrative6Situation6.wav,3,2,3,2,,,,,,,,,,,,,,,,,,,,,,,,,,,,,,,,,,,,,,,
,,,,,,5dd6dadf9c84d86703aa8615,2024-05-13_11h53.48.780,group3.1-3.2-social-tom,2023.2.2,Win32,60.0240096,65c5074098b851296ff0b7ed,6642377634db0800e43dc24d,,,,,,,,,,,,,,,,,,,,,,,,,,,,,258.637,1,audio/Narrative8Situation7.wav,261.649,,261.649,273.732,"[[34.3,415],[12.6,498],[11,581],[10.7,665],[8.2,748],[0.2,1665],[0.2,1750],[0.2,1831],[0.2,1915],[0.2,2000],[0.2,2082],[1.7,8748],[13.2,8832],[31.3,8915],[39.4,8998],[43.4,9081],[45.8,9165],[48.2,9248],[49.2,9332],[50.9,9415],[51.7,9498],[51.7,9581],[51.7,9665],[51.1,9748],[50.5,9831],[49.9,9915],[49.9,9998],[49.9,10081],[49.9,10165],[49.9,10247],[49.9,10331],[49.9,10415],[49.9,10498],[49.9,10581],[50,10665],[50,10748],[50,10831],[50,10915],[50,10998],[50,11081],[50,11165],[50,11248],[50,11331],[50,11415],[50,11498],[50,11581],[50,11665],[50,11748],[50,11832],[50,11915],[50,11998],[50,12081]]",1,0,273.732,275.265,50,0.876,"[{""rating"":50,""responseTime"":0.8759999999999764}]",space,0.992,,275.265,Definitely yes,100,275.27,,,[],,0,7,7,7,1,audio/Narrative7Situation7.wav,audio/Narrative8Situation7.wav,audio/Narrative5Situation7.wav,audio/Narrative6Situation7.wav,5,3,4,5,,,,,,,,,,,,,,,,,,,,,,,,,,,,,,,,,,,,,,,
,,,,,,5dd6dadf9c84d86703aa8615,2024-05-13_11h53.48.780,group3.1-3.2-social-tom,2023.2.2,Win32,60.0240096,65c5074098b851296ff0b7ed,6642377634db0800e43dc24d,,,,,,,,,,,,,,,,,,,,,,,,,,,,,275.27,1,audio/Narrative8Situation8.wav,278.281,,278.281,291.147,"[[14.7,334],[7,415],[4,500],[1.9,582],[1,666],[0.7,750],[0.6,834],[0.6,916],[0.6,1000],[0.4,9165],[0.6,9250],[1.6,9332],[3.8,9416],[10,9498],[18.9,9582],[30.2,9665],[40.4,9748],[47.9,9832],[50.7,9915],[53,9998],[53.3,10082],[53.3,10165],[53.1,10250],[52.2,10332],[51.3,10415],[50.3,10500],[50,10582],[49.8,10665],[49.8,10750],[49.8,10832],[49.8,10915],[49.8,10998],[49.8,11081],[49.8,11165],[49.8,11248],[49.8,11332],[49.8,11415],[49.8,11500],[49.8,11582],[49.8,11665],[49.8,11748],[49.8,11832],[49.9,11915],[49.9,11998],[49.9,12082],[49.9,12164],[49.9,12248],[49.9,12331],[49.9,12415],[49.9,12498],[49.9,12582],[49.9,12665],[49.9,12750],[49.9,12832]]",1,0,291.147,292.864,28.64583333,1.375,"[{""rating"":28.645833333333336,""responseTime"":1.375}]",space,1.182,,292.864,Definitely yes,100,292.866,,,[],,0,8,8,8,1,audio/Narrative7Situation8.wav,audio/Narrative8Situation8.wav,audio/Narrative5Situation8.wav,audio/Narrative6Situation8.wav,2,3,3,5,,,,,,,,,,,,,,,,,,,,,,,,,,,,,,,,,,,,,,,
,,,,,,5dd6dadf9c84d86703aa8615,2024-05-13_11h53.48.780,group3.1-3.2-social-tom,2023.2.2,Win32,60.0240096,65c5074098b851296ff0b7ed,6642377634db0800e43dc24d,,,,,,,,,,,,,,,,,,,,,,,,,,,,,292.867,1,audio/Narrative8Situation9.wav,295.881,,295.881,307.213,"[[27.5,831],[17.8,915],[9.3,999],[2,1081],[0.5,1165],[0.4,4998],[3.6,5081],[7.2,5165],[14,5248],[23.8,5331],[29.7,5415],[33.1,5499],[35.3,5581],[37.1,5665],[38.1,5749],[39.4,5831],[44.4,5915],[47.1,5999],[47.1,6081],[47.5,6165],[48.3,6248],[49.1,6333],[49.7,6415],[50,6499],[50,6581],[50,6665],[50,6749],[50,6831],[50,6915],[50,6999],[50,7083],[50,7165],[50,7249],[50,7331],[50,7415],[50,7499],[50,7581],[50,7665],[50,7748],[50,7831],[50,7915],[50,7999],[50,8083],[50,8165],[50,8248],[50,8331],[50,8415],[50,8499],[50,8581],[50,8665],[50,8748],[50,8831],[50,8915],[50,8998],[50,9081],[50,9165],[50,9249],[50,9331],[50,9415],[50,9499],[50,9581],[50,9665],[50,9749],[50,9831],[50,9915],[50,9998],[50,10081],[50,10165],[50,10248],[50,10331],[50,10415],[50,10498],[50,10581],[50,10665],[50,10749],[50,10831],[50,10915],[50,10998],[50,11081],[50,11165],[50,11248],[50,11331]]",1,0,307.214,308.346,50,0.612,"[{""rating"":50,""responseTime"":0.6120000000000232}]",space,0.583,,308.346,Definitely yes,100,314.729,99.58333333,5.216,"[{""rating"":99.58333333333333,""responseTime"":5.216000000000008}]",space,0,9,9,9,1,audio/Narrative7Situation9.wav,audio/Narrative8Situation9.wav,audio/Narrative5Situation9.wav,audio/Narrative6Situation9.wav,2,3,3,4,,,5.856,,,,,,,,,,,,,,,,,,,,,,,,,,,,,,,,,,,,
,,,,,,5dd6dadf9c84d86703aa8615,2024-05-13_11h53.48.780,group3.1-3.2-social-tom,2023.2.2,Win32,60.0240096,65c5074098b851296ff0b7ed,6642377634db0800e43dc24d,,,,,,,,,,,,,,,,,,,,,,,,,,,,,314.73,1,audio/Narrative7Situation1.wav,316.73,,316.73,372.626,"[[100,82],[100,165],[100,248],[100,331],[100,415],[100,498],[100,581],[100,665],[100,748],[100,831],[100,915],[100,998],[100,1082],[100,1165],[100,1248],[100,1331],[100,1415],[100,1498],[100,1582],[100,1665],[100,1748],[100,1831],[100,1915],[100,1998],[100,2081],[100,2165],[100,2248],[100,2331],[100,2414],[100,2497],[100,2581],[100,2664],[100,2747],[100,2831],[100,2914],[100,2998],[100,3082],[100,3164],[100,3248],[100,3331],[100,3414],[100,3498],[100,3581],[100,3664],[100,3748],[100,3831],[100,3914],[100,3998],[100,4081],[100,4165],[100,4248],[100,4331],[100,4415],[100,4497],[100,4581],[100,4664],[100,4748],[100,4831],[100,4914],[100,4998],[100,5081],[100,5164],[100,5248],[100,5331],[100,5414],[100,5498],[100,5581],[100,5665],[100,5748],[100,5831],[100,5914],[50.9,6582],[48.2,6664],[46.8,6748],[46.8,6831],[46.8,6914],[46.8,6998],[48.3,7080],[48.4,7164],[48.6,7248],[49.2,7331],[49.5,7414],[49.8,7498],[49.8,7581],[49.8,7664],[49.9,7748],[49.9,7831],[49.9,7914],[49.9,7997],[49.9,8081],[49.9,8164],[49.9,8247],[49.9,8331],[49.9,8415],[49.9,8498],[49.9,8581],[49.9,8664],[49.5,8748],[49.5,8830],[49.5,8914],[49.5,8997],[49.5,9080],[49.5,9164],[49.5,9247],[49.5,9331],[49.5,9414],[49.5,9498],[49.4,9581],[49.4,9664],[49.4,9747],[49.4,9831],[49.4,9914],[49.4,9997],[49.4,10081],[49.4,10164],[49.4,10248],[49.4,10331],[49.4,10414],[49.4,10497],[49.4,10581],[49.4,10664],[49.4,10748],[49.4,10831],[49.4,10914],[50.2,10997],[50.3,11081],[50.3,11164],[50.3,11247],[49.6,11331],[48,11414],[48,11498],[48,11580],[48,11664],[49,11748],[49.4,11831],[49.4,11914],[49.4,11997],[49.4,12081],[49.4,12164],[49.4,12247],[49.6,12330],[49.7,12414],[49.7,12497],[49.7,12580],[49.7,12664],[49.7,12747],[49.7,12831],[49.7,12913],[49.7,12997],[49.7,13081],[49.7,13164],[49.7,13247],[49.7,13331],[49.7,13414],[49.7,13497],[49.7,13580],[49.7,13664],[49.7,13747],[49.7,13831],[49.7,13913],[49.7,13997],[49.7,14080],[49.7,14164],[49.7,14248],[49.7,14331],[49.7,14414],[49.7,14497],[49.7,14581],[49.7,14664],[49.7,14747],[49.7,14830],[49.7,14913],[49.7,14997],[49.7,15080],[49.7,15164],[49.7,15248],[49.7,15330],[49.7,15414],[49.7,15498],[49.7,15580],[49.7,15664],[49.7,15747],[49.7,15830],[49.7,15913],[49.7,15997],[49.7,16081],[49.7,16164],[49.7,16247],[49.7,16331],[49.7,16414],[49.7,16497],[49.7,16580],[49.7,16664],[49.7,16747],[49.7,16830],[49.7,16914],[49.7,16997],[49.7,17081],[49.7,17164],[49.7,17247],[49.7,17330],[49.7,17413],[49.7,17497],[49.7,17581],[49.7,17664],[49.7,17747],[49.7,17830],[49.7,17913],[49.7,17997],[49.7,18080],[49.7,18163],[49.7,18247],[49.7,18330],[49.7,18413],[49.7,18497],[49.7,18581],[49.7,18664],[49.7,18747],[49.7,18830],[49.7,18914],[49.7,18997],[49.7,19080],[49.7,19164],[49.7,19247],[49.7,19330],[49.7,19414],[49.7,19497],[49.7,19580],[49.7,19663],[49.7,19747],[49.7,19830],[49.7,19914],[49.7,19997],[49.7,20080],[49.7,20164],[49.7,20247],[49.7,20330],[49.7,20414],[49.7,20497],[49.7,20581],[49.7,20663],[49.7,20747],[49.7,20830],[49.7,20914],[49.7,20996],[49.7,21080],[49.7,21163],[49.7,21247],[49.7,21330],[49.7,21414],[49.7,21497],[49.7,21580],[49.7,21664],[49.7,21747],[49.7,21830],[49.7,21913],[49.7,21997],[49.7,22080],[49.7,22164],[49.7,22247],[49.7,22330],[49.7,22414],[49.7,22496],[49.7,22580],[49.7,22663],[49.7,22746],[49.7,22829],[49.7,22914],[49.7,22996],[49.7,23080],[49.7,23164],[49.7,23247],[49.7,23331],[49.7,23413],[49.7,23497],[49.7,23580],[49.7,23664],[49.7,23746],[49.7,23830],[49.7,23914],[49.7,23997],[49.7,24080],[49.7,24163],[49.7,24247],[49.7,24330],[49.7,24414],[49.7,24497],[49.7,24580],[49.7,24664],[49.7,24747],[49.7,24830],[49.7,24913],[49.7,24996],[49.7,25080],[49.7,25163],[49.7,25247],[49.7,25329],[49.7,25413],[49.7,25497],[49.7,25580],[49.7,25664],[49.7,25746],[49.7,25830],[49.7,25914],[49.7,25997],[49.7,26080],[49.7,26164],[49.7,26246],[49.7,26330],[49.7,26413],[49.7,26496],[49.7,26580],[49.7,26664],[49.7,26747],[49.7,26830],[49.7,26913],[49.7,26997],[49.7,27080],[49.7,27164],[49.7,27246],[49.7,27330],[49.7,27413],[49.7,27497],[47.7,27579],[44.8,27663],[42,27746],[39.1,27831],[35.7,27913],[32.5,27996],[29.5,28080],[28.6,28164],[28.6,28246],[28.6,28329],[28.6,28414],[28.5,28496],[28.5,28580],[28.5,28663],[28.5,28747],[28.5,28830],[28.5,28913],[28.5,28997],[28.5,29080],[28.5,29163],[28.5,29247],[28.5,29330],[28.5,29414],[28.5,29497],[28.5,29579],[28.5,29663],[28.5,29746],[28.5,29830],[28.5,29914],[28.5,29996],[28.5,30079],[28.5,30163],[28.5,30246],[28.5,30330],[28.5,30413],[28.5,30496],[28.5,30580],[28.5,30663],[28.5,30746],[28.5,30830],[28.5,30914],[28.5,30996],[28.5,31080],[28.5,31163],[28.5,31246],[28.5,31330],[28.5,31414],[28.5,31496],[28.5,31579],[28.5,31663],[28.5,31746],[28.5,31830],[28.5,31913],[28.5,31996],[28.5,32080],[28.5,32163],[28.5,32246],[28.5,32330],[28.5,32413],[28.5,32496],[28.5,32579],[28.5,32663],[28.5,32746],[28.5,32829],[28.5,32912],[28.5,32997],[28.5,33080],[28.5,33163],[28.5,33246],[28.5,33330],[30.1,33414],[40.5,33496],[49.7,33579],[58.1,33663],[61,33746],[65.5,33830],[70.8,33913],[75.4,33996],[76.5,34080],[76.8,34163],[78.3,34246],[78.5,34329],[78.5,34413],[78.5,34496],[78.5,34579],[78.5,34663],[78.5,34746],[78.5,34829],[78.5,34913],[78.5,34996],[78.5,35079],[78.5,35163],[78.5,35246],[78.5,35329],[78.5,35413],[78.5,35496],[78.5,35579],[78.5,35663],[78.5,35746],[78.5,35830],[78.5,35913],[78.5,35997],[78.5,36080],[78.5,36162],[78.5,36246],[78.5,36329],[78.5,36413],[78.5,36496],[78.5,36580],[78.5,36662],[78.5,36746],[78.5,36829],[78.5,36913],[78.5,36996],[78.5,37079],[79.3,37163],[79.3,37246],[79.3,37329],[79.3,37413],[79.3,37496],[79.3,37580],[79.3,37663],[79.3,37746],[79.5,37829],[79.5,37912],[79,37996],[77.1,38079],[74.9,38162],[74.4,38245],[74.3,38329],[74.3,38413],[74.3,38496],[74.3,38579],[74.3,38663],[74.3,38746],[74.3,38829],[74.3,38913],[74.3,38996],[74.3,39079],[74.3,39163],[74.3,39245],[74.3,39329],[74.3,39412],[74.3,39496],[74.3,39579],[74.3,39662],[74.3,39746],[74.3,39829],[74.3,39913],[74.3,39996],[74.3,40079],[74.3,40162],[74.3,40246],[74.3,40329],[74.3,40412],[74.3,40496],[74.3,40579],[74.3,40664],[74.3,40746],[74.3,40829],[74.3,40913],[74.3,40995],[74.3,41079],[74.3,41163],[74.3,41246],[74.3,41329],[74.3,41412],[74.3,41496],[74.3,41579],[74.3,41662],[74.3,41746],[74.3,41829],[74.3,41912],[74.3,41996],[74.3,42079],[74.3,42163],[74.3,42245],[74.3,42329],[74.3,42413],[74.3,42496],[74.3,42579],[74.3,42663],[74.3,42746],[74.3,42829],[74.3,42913],[74.3,42995],[74.3,43079],[74.3,43162],[74.3,43245],[74.3,43329],[74.3,43413],[74.3,43496],[74.3,43579],[74.7,43663],[78,43745],[87.1,43829],[98.4,43913],[100,43996],[100,44079],[100,44162],[100,44245],[100,44329],[100,44412],[100,44496],[100,44579],[100,44663],[100,44746],[100,44829],[100,44912],[100,44995],[100,45079],[100,45163],[100,45245],[100,45329],[100,45412],[100,45496],[100,45579],[100,45663],[100,45745],[100,45829],[100,45912],[100,45995],[100,46079],[100,46162],[100,46245],[100,46329],[100,46412],[100,46495],[100,46579],[100,46662],[100,46746],[100,46829],[100,46913],[100,46995],[100,47079],[100,47162],[100,47246],[100,47329],[100,47412],[100,47496],[100,47579],[100,47662],[100,47746],[100,47830],[100,47912],[100,47995],[100,48079],[100,48162],[100,48246],[100,48328],[100,48412],[100,48495],[100,48578],[100,48662],[100,48745],[100,48828],[100,48912],[100,48995],[100,49079],[100,49162],[100,49245],[100,49329],[100,49412],[100,49495],[100,49578],[100,49662],[100,49745],[100,49828],[100,49912],[100,49995],[100,50078],[100,50162],[100,50245],[100,50328],[100,50412],[100,50495],[100,50579],[100,50662],[100,50745],[100,50828],[100,50912],[100,50995],[100,51078],[100,51162],[100,51245],[100,51328],[100,51412],[100,51495],[100,51579],[100,51663],[100,51745],[100,51829],[100,51912],[100,51995],[100,52079],[100,52162],[100,52245],[100,52328],[100,52412],[100,52495],[100,52579],[100,52662],[99.5,52746],[98.4,52829],[96.7,52912],[93.8,52995],[90.1,53078],[87.5,53162],[84.5,53246],[82.9,53328],[82.9,53412],[82.9,53495],[82.7,53578],[81.7,53663],[81.3,53745],[80.6,53829],[80.1,53912],[79.2,53995],[78.5,54079],[77.9,54162],[77.3,55496],[77.8,55579],[77.9,55662],[77.9,55745],[78,55829]]",1,0,372.627,375.226,89.89583333,1.941,"[{""rating"":89.89583333333333,""responseTime"":1.941000000000031}]",space,2.057,,375.226,Definitely yes,100,375.23,,,[],,0,10,10,10,1,audio/Narrative8Situation1.wav,audio/Narrative7Situation1.wav,audio/Narrative6Situation1.wav,audio/Narrative5Situation1.wav,5,2,2,5,,,,,,,,,,,,,,,,,,,,,,,,,,,,,,,,,,,,,,,
,,,,,,5dd6dadf9c84d86703aa8615,2024-05-13_11h53.48.780,group3.1-3.2-social-tom,2023.2.2,Win32,60.0240096,65c5074098b851296ff0b7ed,6642377634db0800e43dc24d,,,,,,,,,,,,,,,,,,,,,,,,,,,,,375.23,1,audio/Narrative7Situation2.wav,378.242,,378.242,385.725,"[[89.7,1000],[82.1,1082],[66.7,1167],[44.2,1250],[31.4,1334],[21.6,1416],[12.7,1500],[4.6,1584],[0.9,1666],[0.4,3750],[1.6,3832],[2.7,3916],[5.8,4000],[9.7,4084],[11.8,4166],[11.8,4250],[12.5,4332],[13,4416],[19.7,4500],[43,4582],[58.1,4666],[65,4750],[73.9,4834],[78.2,4916],[80.4,5000],[81.4,5084],[82,5166],[89.4,5250],[93.8,5332],[94.6,5416],[94.6,5500],[95.4,5584],[96,5666],[97,5750],[98.5,5834],[99.3,5916],[99.9,6000],[99.9,6082],[99.9,6166],[99.9,6250],[99.9,6332],[99.9,6415],[99.9,6500],[99.9,6582],[99.9,6666],[99.9,6750],[99.9,6832],[99.9,6916],[99.9,7000],[99.9,7084],[99.9,7166],[99.9,7250],[99.9,7334],[99.9,7416]]",1,0,385.725,386.925,99.89583333,0.407,"[{""rating"":99.89583333333334,""responseTime"":0.40699999999998226}]",space,0.669,,386.925,Definitely yes,100,386.928,,,[],,0,11,11,11,1,audio/Narrative8Situation2.wav,audio/Narrative7Situation2.wav,audio/Narrative6Situation2.wav,audio/Narrative5Situation2.wav,3,3,3,3,,,,,,,,,,,,,,,,,,,,,,,,,,,,,,,,,,,,,,,
,,,,,,5dd6dadf9c84d86703aa8615,2024-05-13_11h53.48.780,group3.1-3.2-social-tom,2023.2.2,Win32,60.0240096,65c5074098b851296ff0b7ed,6642377634db0800e43dc24d,,,,,,,,,,,,,,,,,,,,,,,,,,,,,386.929,1,audio/Narrative7Situation3.wav,394.942,,394.942,404.192,"[[11.8,750],[2.3,998],[0.7,1415],[0.7,1500],[0.7,1582],[0.7,1665],[0.7,1748],[0.7,1832],[0.7,1916],[0.7,1998],[0.7,2082],[0.7,2165],[0.7,2250],[0.7,2331],[0.7,2415],[0.7,2500],[0.7,2582],[0.7,2665],[0.7,2750],[0.7,2832],[0.7,2915],[0.7,3000],[0.7,3081],[0.7,3165],[0.7,3248],[0.7,3331],[0.7,3415],[0.7,3500],[0.7,3582],[0.7,3665],[0.7,3750],[0.7,3832],[0.7,3915],[0.7,3998],[0.7,4082],[0.7,4165],[0.7,4248],[0.7,4332],[0.7,4415],[0.7,4498],[0.7,4581],[0.7,4665],[0.7,4748],[0.7,4831],[0.7,4915],[0.7,5000],[0.7,5081],[0.7,5165],[0.7,5248],[0.7,5331],[0.7,5415],[0.7,5498],[0.7,5581],[0.7,5665],[0.7,5750],[0.7,5832],[0.7,5915],[0.7,5998],[0.7,6082],[0.7,6165],[0.7,6250],[0.7,6331],[0.7,6415],[0.7,6498],[0.7,6581],[0.7,6665],[0.7,6750],[0.7,6831],[0.7,6915],[0.7,6998],[0.7,7081],[0.7,7165],[0.7,7248],[0.7,7331],[0.7,7414],[0.7,7500],[0.7,7581],[0.7,7665],[0.7,7750],[0.7,7831],[0.7,7915],[0.7,7998],[0.7,8081],[0.7,8165],[0.7,8248],[0.7,8332],[0.7,8414],[0.7,8500],[1,8582],[1,8664],[1.4,8748],[1.5,8832],[1.5,8915],[2.1,8998],[4,9081],[6.5,9165],[8.6,9248]]",1,0,404.192,406.524,0.9375,1.673,"[{""rating"":0.9375000000000022,""responseTime"":1.6730000000000018}]",space,1.79,,406.524,Not at all,0,406.53,,,[],,0,12,12,12,1,audio/Narrative8Situation3.wav,audio/Narrative7Situation3.wav,audio/Narrative6Situation3.wav,audio/Narrative5Situation3.wav,4,8,5,3,,,,,,,,,,,,,,,,,,,,,,,,,,,,,,,,,,,,,,,
,,,,,,5dd6dadf9c84d86703aa8615,2024-05-13_11h53.48.780,group3.1-3.2-social-tom,2023.2.2,Win32,60.0240096,65c5074098b851296ff0b7ed,6642377634db0800e43dc24d,,,,,,,,,,,,,,,,,,,,,,,,,,,,,406.53,1,audio/Narrative7Situation4.wav,409.541,,409.541,421.257,"[[40.5,1334],[24.5,1415],[8.9,1500],[7.9,1582],[3.2,1666],[1.3,6334],[11.5,6415],[23.2,6499],[46.6,6582],[64.6,6666],[67.8,6750],[75.2,6832],[77.3,6915],[78.1,6999],[78.1,7082],[78.1,7165],[78.1,7250],[78.1,7332],[75.9,7415],[65.9,7499],[57.9,7582],[53.3,7665],[49.8,7749],[48.8,7831],[47.3,7915],[42.6,8000],[37.1,8082],[28.8,8165],[26.7,8249],[26.7,8331],[26.7,8415],[26.7,8500],[25.3,8582],[22.7,8665],[19.6,8749],[18.4,8832],[18.4,8915],[18.4,9000],[18.4,9082],[18.4,9165],[18.4,9250],[18.4,9332],[18.4,9415],[18.4,9499],[18.4,9582],[18.4,9665],[18.4,9749],[18.4,9831],[18.4,9915],[18.4,9999],[18.4,10082],[18.4,10165],[18.4,10249],[18.4,10332],[18.4,10415],[18.4,10499],[18.4,10582],[18.4,10665],[18.4,10750],[18.4,10832],[18.4,10915],[18.4,10999],[18.4,11082],[18.4,11165],[18.4,11250],[17.5,11331],[13.3,11415],[9,11500],[6.8,11582],[6.7,11665]]",1,0,421.258,423.824,7.395833333,1.079,"[{""rating"":7.395833333333335,""responseTime"":1.0790000000000077}]",space,2.022,,423.824,Partially,50,423.828,,,[],,0,13,13,13,1,audio/Narrative8Situation4.wav,audio/Narrative7Situation4.wav,audio/Narrative6Situation4.wav,audio/Narrative5Situation4.wav,3,3,2,1,,,,,,,,,,,,,,,,,,,,,,,,,,,,,,,,,,,,,,,
,,,,,,5dd6dadf9c84d86703aa8615,2024-05-13_11h53.48.780,group3.1-3.2-social-tom,2023.2.2,Win32,60.0240096,65c5074098b851296ff0b7ed,6642377634db0800e43dc24d,,,,,,,,,,,,,,,,,,,,,,,,,,,,,423.828,1,audio/Narrative7Situation5.wav,428.84,,428.841,437.34,"[[15,997],[9.4,1081],[8,1164],[7.1,1248],[3.8,1331],[1,1414],[0.4,1498],[0.3,1581],[0.3,1665],[0.3,1748],[0.3,1831],[0.3,1915],[0.3,1997],[0.3,2081],[0.3,2164],[0.3,2248],[0.3,2331],[0.3,2414],[0.3,2498],[0.3,2581],[0.3,2665],[0.3,2748],[0.3,2832],[0.3,2914],[0.3,2998],[0.3,3081],[0.3,3164],[0.3,3248],[0.3,3331],[0.3,3414],[0.3,3498],[0.3,3581],[0.3,3664],[0.3,3748],[0.3,3831],[2,3915],[5.3,3998],[6.8,4081],[7.6,4164],[8.2,4248],[8.2,4331],[8.2,4414],[8.2,4497],[8.2,4581],[8.2,4664],[8.2,4748],[8.2,4831],[8.2,4914],[8.2,4998],[8.2,5081],[8.5,5165],[12.1,5248],[17.8,5331],[28.6,5414],[34.3,5498],[37.4,5580],[37.5,5664],[37.9,5748],[38.3,5831],[40.3,5914],[40.3,5997],[40.3,6081],[40.3,6164],[40.3,6248],[41.5,6331],[43.8,6414],[44.6,6497],[44.6,6581],[44.6,6664],[44.6,6748],[44.6,6831],[44.6,6914],[44.6,6998],[44.6,7081],[44.6,7164],[44.6,7248],[44.6,7331],[44.6,7414],[44.6,7498],[44.6,7581],[44.6,7664],[44.6,7747],[44.6,7831],[44.6,7914],[44.6,7998],[44.6,8081],[44.6,8164],[44.6,8247],[44.6,8331],[44.6,8414],[44.6,8497]]",1,0,437.34,439.223,39.6875,0.998,"[{""rating"":39.6875,""responseTime"":0.9979999999999905}]",space,1.334,,439.223,Definitely yes,100,439.228,,,[],,0,14,14,14,1,audio/Narrative8Situation5.wav,audio/Narrative7Situation5.wav,audio/Narrative6Situation5.wav,audio/Narrative5Situation5.wav,2,5,2,5,,,,,,,,,,,,,,,,,,,,,,,,,,,,,,,,,,,,,,,
,,,,,,5dd6dadf9c84d86703aa8615,2024-05-13_11h53.48.780,group3.1-3.2-social-tom,2023.2.2,Win32,60.0240096,65c5074098b851296ff0b7ed,6642377634db0800e43dc24d,,,,,,,,,,,,,,,,,,,,,,,,,,,,,439.228,1,audio/Narrative7Situation6.wav,442.239,,442.239,452.205,"[[38.8,1250],[23.5,1334],[12,1415],[11,1500],[11,1583],[17,1667],[20.8,1749],[23.4,1833],[23.6,1917],[23.6,2000],[23.6,2083],[23.6,2167],[23.8,2250],[23.9,2333],[27.7,2417],[28.1,2500],[28.1,2583],[39.6,2667],[77.8,2750],[91.4,2833],[100,2917],[100,3000],[100,3083],[100,3167],[100,3250],[100,3333],[100,3417],[100,3500],[100,3584],[100,3667],[100,3750],[100,3833],[100,3917],[100,4000],[100,4083],[100,4165],[100,4250],[100,4333],[100,4415],[100,4500],[100,4583],[100,4665],[100,4750],[100,4834],[100,4917],[100,5000],[100,5083],[100,5165],[100,5250],[100,5333],[100,5417],[100,5500],[100,5583],[100,5665],[100,5750],[100,5833],[100,5917],[100,6000],[100,6083],[100,6165],[100,6250],[100,6333],[100,6415],[100,6500],[100,6583],[100,6665],[100,6749],[100,6833],[100,6915],[100,7000],[100,7083],[100,7165],[100,7250],[100,7333],[100,7415],[100,7500],[100,7583],[100,7665],[100,7749],[100,7833],[100,7915],[100,7999],[100,8083],[100,8165],[100,8250],[100,8333],[100,8417],[100,8499],[100,8583],[100,8665],[100,8750],[100,8833],[100,8915],[100,9000],[100,9083],[100,9165],[100,9249],[100,9333],[100,9415],[100,9499],[100,9583],[100,9665],[100,9750],[100,9831],[100,9915]]",1,0,452.206,453.439,98.95833333,0.789,"[{""rating"":98.95833333333333,""responseTime"":0.7889999999999873}]",space,0.683,,453.439,Not at all,0,453.443,,,[],,0,15,15,15,1,audio/Narrative8Situation6.wav,audio/Narrative7Situation6.wav,audio/Narrative6Situation6.wav,audio/Narrative5Situation6.wav,2,3,2,3,,,,,,,,,,,,,,,,,,,,,,,,,,,,,,,,,,,,,,,
,,,,,,5dd6dadf9c84d86703aa8615,2024-05-13_11h53.48.780,group3.1-3.2-social-tom,2023.2.2,Win32,60.0240096,65c5074098b851296ff0b7ed,6642377634db0800e43dc24d,,,,,,,,,,,,,,,,,,,,,,,,,,,,,453.444,1,audio/Narrative7Situation7.wav,458.455,,458.455,475.621,"[[39.7,83],[39.7,167],[39.7,249],[39.7,334],[39.7,417],[39.7,500],[38.8,583],[31.1,667],[14.1,749],[6,834],[0.1,917],[0.3,2000],[0.5,2083],[0.7,2167],[0.7,2250],[0.7,2333],[0.7,2415],[0.7,2500],[0.7,2583],[0.7,2665],[0.7,2749],[3.2,2834],[11.4,2915],[35.6,3000],[73.9,3083],[89.9,3167],[98.6,3250],[99.8,3333],[99.8,3417],[99.8,3500],[99.8,3583],[99.8,3665],[99.8,3750],[99.8,3833],[99.8,3915],[99.8,3999],[99.8,4083],[99.8,4167],[99.8,4250],[99.8,4333],[99.8,4417],[99.8,4500],[99.8,4583],[99.8,4667],[99.8,4749],[99.8,4833],[99.8,4915],[99.8,5000],[99.8,5083],[99.8,5165],[99.8,5249],[99.8,5333],[99.8,5417],[99.8,5500],[99.8,5583],[99.8,5667],[99.8,5750],[99.8,5833],[99.8,5915],[99.8,6000],[99.8,6083],[99.8,6165],[99.8,6250],[99.8,6333],[99.8,6417],[99.8,6499],[99.8,6583],[99.4,6665],[98.6,6749],[97.9,6833],[96.6,6915],[95,6999],[94.1,7081],[92.7,7165],[90.8,7250],[89.5,7333],[89.1,7417],[88,7499],[87.4,7583],[86.8,7665],[85.8,7749],[85,7833],[84.2,7915],[83.6,8000],[83.2,8083],[83,8165],[82.9,8250],[82.6,8331],[82.4,8415],[81.8,8499],[81.3,8583],[81.1,8665],[81.1,8750],[81.1,8833],[81.1,8915],[81.1,8999],[81.1,9081],[81.1,9165],[81.1,9250],[81.1,9333],[81.1,9415],[80.7,9500],[79.4,9581],[77.6,9665],[77,9749],[76.6,9833],[76.6,9915],[76.6,9999],[76.6,10083],[76.5,10165],[76.3,10249],[76,10331],[75.4,10415],[73,10499],[72.6,10583],[72.6,10665],[72.6,10749],[72.6,10831],[72.6,10915],[72.6,11000],[72.6,11081],[72.6,11165],[72.6,11249],[72.6,11331],[72.6,11415],[72.6,11499],[72.6,11581],[73,11667],[73.3,11749],[73.9,11833],[73.9,11915],[74.1,12000],[74.1,12083],[74.1,12165],[74.1,12249],[74.1,12331],[74.1,12415],[74.1,12499],[74.1,12583],[74.1,12665],[74.1,12749],[74.1,12831],[74.1,12915],[74.1,12999],[74.1,13081],[74.1,13165],[74.1,13249],[74.1,13333],[74.1,13415],[74.1,13499],[74.1,13581],[74.1,13665],[74.1,13749],[74.1,13831],[74.1,13915],[74.1,14000],[74.1,14083],[74.1,14165],[74.1,14249],[74.1,14333],[74.4,14415],[78.8,14500],[83.1,14581],[87.2,14665],[88.3,14749],[90.4,14833],[93,14915],[93.6,14999],[97.3,15081],[99,15165],[99,15249],[99,15331],[99,15415],[99,15499],[99,15583],[99,15665],[99,15749],[99,15833],[99,15915],[99,15999],[99,16081],[99,16165],[99,16249],[99,16331],[99,16415],[99,16499],[99,16583],[99,16665],[99,16749],[99,16833],[99,16915],[99,16999],[99,17081],[99,17165]]",1,0,475.622,476.687,98.95833333,0.546,"[{""rating"":98.95833333333333,""responseTime"":0.5459999999999923}]",space,0.519,,476.687,Definitely yes,100,476.693,,,[],,0,16,16,16,1,audio/Narrative8Situation7.wav,audio/Narrative7Situation7.wav,audio/Narrative6Situation7.wav,audio/Narrative5Situation7.wav,3,5,5,4,,,,,,,,,,,,,,,,,,,,,,,,,,,,,,,,,,,,,,,
,,,,,,5dd6dadf9c84d86703aa8615,2024-05-13_11h53.48.780,group3.1-3.2-social-tom,2023.2.2,Win32,60.0240096,65c5074098b851296ff0b7ed,6642377634db0800e43dc24d,,,,,,,,,,,,,,,,,,,,,,,,,,,,,476.693,1,audio/Narrative7Situation8.wav,478.705,,478.705,488.738,"[[54,333],[19.1,415],[0.3,2249],[2.5,2331],[7.7,2415],[13.1,2499],[19.1,2581],[21.1,2665],[21.1,2749],[21.1,2831],[21.1,2915],[21.1,2997],[21.1,3081],[21.1,3165],[21.1,3249],[21.1,3331],[21.1,3415],[21.1,3499],[21.1,3581],[21.1,3665],[21.1,3749],[21.1,3831],[21.1,3915],[21.1,3999],[21.1,4081],[21.1,4165],[21.1,4249],[21.1,4331],[21.1,4415],[21.1,4499],[21.1,4581],[21.1,4665],[21.1,4747],[21.1,4831],[21.1,4915],[21.1,4999],[21.1,5081],[21.1,5165],[21.1,5247],[21.1,5331],[21.1,5415],[21.1,5499],[21.1,5581],[21.1,5665],[21.1,5749],[21.1,5831],[21.1,5915],[21.1,5999],[21.1,6081],[21.1,6165],[21.1,6247],[21.1,6331],[21.1,6415],[21.1,6497],[21.1,6581],[21.1,6665],[21.1,6747],[18.9,6831],[18.9,6915],[18.9,6997],[18.9,7081],[18.9,7165],[18.9,7247],[23.6,7331],[25,7415],[25.4,7497],[25.9,7581],[26,7665],[25.5,8997],[25.2,9081],[25.1,9165],[24.5,9249],[24.2,9331],[24.2,9415],[24.1,9497],[24.1,9581],[24.1,9665],[24.1,9747],[24.1,9831],[25.8,9915],[32.5,9997]]",1,0,488.738,490.736,50.9375,1.632,"[{""rating"":50.9375,""responseTime"":1.632000000000005}]",space,1.458,,490.736,Definitely yes,100,490.739,,,[],,0,17,17,17,1,audio/Narrative8Situation8.wav,audio/Narrative7Situation8.wav,audio/Narrative6Situation8.wav,audio/Narrative5Situation8.wav,3,2,5,3,,,,,,,,,,,,,,,,,,,,,,,,,,,,,,,,,,,,,,,
,,,,,,5dd6dadf9c84d86703aa8615,2024-05-13_11h53.48.780,group3.1-3.2-social-tom,2023.2.2,Win32,60.0240096,65c5074098b851296ff0b7ed,6642377634db0800e43dc24d,,,,,,,,,,,,,,,,,,,,,,,,,,,,,490.74,1,audio/Narrative7Situation9.wav,492.753,,492.753,501.37,"[[38.8,583],[26,665],[11.9,751],[4.9,833],[1.1,917],[4.2,2084],[43.6,2167],[97,2250],[100,2333],[100,2417],[100,2500],[100,2583],[100,2665],[100,2749],[100,2834],[100,2918],[100,3000],[100,3083],[100,3165],[100,3250],[100,3334],[100,3417],[100,3499],[100,3584],[100,3665],[100,3750],[100,3833],[100,3915],[100,3999],[100,4083],[100,4167],[100,4250],[100,4333],[100,4417],[100,4498],[100,4583],[100,4665],[100,4748],[100,4833],[100,4916],[100,5000],[100,5083],[100,5165],[100,5250],[100,5334],[100,5415],[100,5500],[100,5583],[100,5666],[100,5750],[100,5834],[100,5916],[100,6000],[100,6083],[100,6165],[100,6250],[100,6333],[100,6415],[100,6500],[100,6583],[100,6665],[100,6750],[100,6833],[100,6915],[100,6998],[100,7083],[100,7166],[100,7250],[100,7332],[100,7415],[100,7500],[100,7583],[100,7666],[100,7748],[100,7833],[100,7915],[100,8000],[100,8083],[100,8165],[100,8250],[100,8333],[100,8415],[100,8500],[100,8583]]",1,0,501.37,503.27,98.85416667,1.093,"[{""rating"":98.85416666666667,""responseTime"":1.092999999999961}]",space,1.374,,503.27,Not at all,0,503.275,,,[],,0,18,18,18,1,audio/Narrative8Situation9.wav,audio/Narrative7Situation9.wav,audio/Narrative6Situation9.wav,audio/Narrative5Situation9.wav,3,2,4,3,,,,,,,,,,,,,,,,,,,,,,,,,,,,,,,,,,,,,,,
,,,,,,5dd6dadf9c84d86703aa8615,2024-05-13_11h53.48.780,group3.1-3.2-social-tom,2023.2.2,Win32,60.0240096,65c5074098b851296ff0b7ed,6642377634db0800e43dc24d,,,,,,,,,,,,,,,,,,,,,,,,,,,510.686,513.269,513.276,2,audio/Narrative13Situation2.wav,513.276,,513.276,543.034,"[[999,0],[999,76],[999,158],[999,243],[999,326],[999,408],[999,493],[999,576],[999,658],[999,742],[999,826],[999,910],[999,992],[999,1076],[999,1158],[999,1243],[44.7,1326],[43.5,1408],[31,1492],[14.5,1576],[9.5,1658],[2.1,1742],[25.2,8158],[54.1,8243],[66.1,8325],[94.9,8408],[100,8492],[100,8575],[100,8658],[100,8742],[100,8826],[100,8908],[100,8992],[100,9076],[100,9158],[100,9242],[100,9326],[100,9408],[100,9492],[100,9575],[100,9658],[100,9742],[100,9826],[100,9908],[100,9992],[100,10075],[100,10158],[100,10242],[100,10325],[100,10408],[100,10492],[100,10575],[100,10658],[100,10740],[100,10826],[100,10908],[100,10992],[100,11075],[100,11158],[100,11240],[100,11325],[100,11408],[100,11492],[100,11576],[100,11658],[100,11742],[100,11825],[100,11908],[100,11990],[100,12076],[100,12158],[100,12242],[100,12326],[100,12408],[100,12492],[100,12575],[100,12658],[100,12742],[100,12826],[100,12908],[100,12992],[100,13075],[100,13158],[100,13240],[100,13325],[100,13408],[100,13492],[100,13575],[100,13658],[100,13742],[100,13825],[100,13908],[100,13993],[100,14075],[100,14158],[100,14242],[100,14325],[100,14408],[100,14492],[100,14575],[100,14658],[100,14740],[100,14825],[100,14908],[100,14992],[100,15075],[100,15158],[100,15242],[100,15325],[100,15408],[100,15492],[100,15575],[100,15658],[100,15742],[100,15825],[100,15908],[100,15990],[99.5,16076],[98.1,16158],[96.8,16242],[94.6,16325],[92.4,16408],[90.3,16492],[89.5,16575],[89.5,16658],[89.4,16742],[88.8,16825],[87.6,16908],[85.9,16992],[84.9,17075],[84.6,17158],[84.6,17242],[84.6,17326],[84.6,17408],[84.6,17492],[84.6,17575],[84.5,17658],[84.5,17740],[84.5,17825],[84.5,17908],[84.5,17990],[84.5,18075],[84.5,18158],[84.5,18240],[84.5,18325],[84.5,18408],[84.5,18490],[84.5,18575],[84.5,18658],[84.5,18742],[84.5,18825],[84.5,18908],[84.5,18992],[84.5,19075],[84.5,19158],[84.5,19240],[84.5,19325],[84.5,19408],[84.5,19492],[84.5,19575],[84.5,19658],[84.5,19742],[84.5,19825],[84.5,19908],[84.5,19992],[84.5,20075],[84.5,20158],[84.5,20242],[84.5,20325],[84.5,20408],[84.5,20492],[84.5,20575],[84.5,20658],[84.5,20742],[84.5,20825],[84.5,20908],[84.5,20992],[84.5,21075],[84.5,21158],[84.5,21240],[84.5,21325],[84.5,21408],[84.5,21492],[84.5,21575],[84.5,21658],[84.5,21742],[84.5,21825],[84.5,21908],[84.5,21990],[84.5,22075],[84.5,22158],[84.5,22242],[84.5,22324],[84.5,22408],[84.5,22492],[84.5,22574],[84.5,22658],[84.5,22742],[84.5,22825],[84.5,22908],[81.6,22992],[77.5,23075],[72.6,23158],[70.1,23240],[68.3,23325],[68.2,23408],[68.2,23490],[66.3,23575],[61.5,23658],[60.1,23740],[60.1,23825],[60.1,23908],[59.2,23990],[57.5,24075],[57.5,24158],[56.9,24240],[53.4,24325],[52.5,24408],[52.2,24490],[52.2,24574],[51.5,24658],[50.5,24740],[50.3,24825],[50.3,24908],[50.3,24990],[50.3,25075],[50.3,25158],[50.3,25240],[50.3,25325],[50.3,25408],[50.3,25492],[50.3,25575],[50.3,25658],[50.3,25740],[50.3,25824],[50.3,25908],[50.3,25990],[50.3,26075],[50.3,26158],[50.3,26240],[50.3,26325],[50.3,26408],[50.3,26490],[50.3,26574],[50.3,26658],[50.3,26740],[50.3,26824],[50.3,26908],[50.3,26990],[50.3,27074],[50.3,27158],[50.3,27240],[50.3,27324],[50.3,27408],[50.3,27492],[50.3,27574],[50.3,27658],[50.3,27740],[50.3,27825],[50.3,27908],[50.3,27990],[50.3,28075],[50.3,28158],[50.3,28240],[50.3,28324],[50.3,28408],[50.3,28490],[50.3,28574],[50.3,28658],[50.3,28740],[50.3,28824],[50.3,28908],[50.3,28990],[50.3,29075],[50.3,29158],[50.5,29240],[50.5,29325],[50.5,29408],[50.5,29490],[50.5,29574],[50.5,29658],[50.5,29740]]",1,0,543.035,543.04,,,[],,,,543.04,Partially,50,543.043,,,[],,0,0,0,0,1,audio/Narrative13Situation2.wav,audio/Narrative13Situation2.wav,audio/Narrative13Situation2.wav,audio/Narrative13Situation2.wav,2,2,2,2,,,,,503.275,510.685,space,6.89,,,,,,,,,,,,,,,,,,,,,,,,,,,,,,,
,,,,,,5dd6dadf9c84d86703aa8615,2024-05-13_11h53.48.780,group3.1-3.2-social-tom,2023.2.2,Win32,60.0240096,65c5074098b851296ff0b7ed,6642377634db0800e43dc24d,,,,,,,,,,,,,,,,,,,,,,,,,,,,,543.043,2,audio/Narrative6Situation1.wav,545.051,,545.051,571.633,"[[90.8,832],[83.9,915],[56.5,1000],[25.5,1082],[8,1165],[18.4,5165],[37.9,5248],[38,5331],[50.9,5414],[80.7,5498],[93.1,5582],[93.8,5664],[99.4,5750],[100,5831],[100,5915],[100,5998],[100,6082],[100,6165],[100,6248],[100,6331],[100,6415],[100,6498],[100,6582],[100,6665],[100,6748],[100,6831],[100,6914],[100,6998],[100,7081],[100,7164],[100,7248],[100,7331],[100,7415],[100,7498],[100,7582],[100,7665],[100,7748],[100,7832],[100,7915],[100,7998],[100,8081],[100,8165],[100,8247],[100,8332],[100,8414],[100,8498],[100,8581],[100,8664],[100,8748],[100,8832],[100,8914],[100,8998],[100,9081],[100,9165],[100,9248],[100,9331],[100,9414],[100,9498],[100,9581],[100,9665],[100,9748],[100,9831],[100,9915],[100,9998],[100,10081],[100,10165],[100,10248],[100,10331],[100,10414],[100,10498],[100,10581],[100,10664],[100,10747],[100,10831],[100,10914],[100,10998],[99.3,11081],[96.7,11164],[92.5,11248],[85.9,11331],[76.6,11414],[69.5,11498],[63.5,11581],[57.3,11664],[52.5,11747],[49.7,11831],[48.9,11914],[48.6,11998],[48.6,12081],[48.6,12164],[48.6,12248],[48.6,12332],[48.6,12415],[48.6,12497],[48.6,12581],[48.6,12665],[48.6,12747],[48.6,12831],[48.6,12915],[48.6,12998],[48.6,13081],[48.6,13165],[48.6,13247],[48.6,13331],[48.6,13414],[48.6,13498],[48.6,13581],[48.6,13664],[48.6,13748],[48.6,13830],[48.6,13914],[48.6,13998],[48.6,14081],[48.6,14165],[48.6,14248],[48.6,14330],[48.6,14415],[48.6,14498],[48.6,14581],[48.6,14665],[48.5,14747],[48.5,14831],[48.5,14914],[48.5,14998],[48.5,15081],[48.5,15164],[48.5,15248],[48.5,15331],[48.5,15414],[48.1,15498],[47.2,15581],[40.2,15664],[22.4,15747],[7.9,15831],[4.9,15914],[4.9,15998],[4.9,16081],[4.9,16164],[4.5,16248],[3,16331],[2.9,16414],[1.6,16497],[0.4,16581],[0.4,16664],[0.4,16748],[0.4,16831],[0.4,16914],[0.4,16998],[0.4,17081],[0.4,17164],[0.4,17248],[0.4,17331],[0.4,17414],[0.4,17497],[0.4,17581],[0.4,17664],[0.4,17747],[0.4,17831],[0.4,17914],[0.4,17997],[0.4,18081],[0.4,18164],[0.4,18248],[0.4,18331],[0.4,18414],[0.4,18497],[0.4,18581],[0.4,18664],[0.4,18748],[0.4,18831],[0.4,18914],[0.4,18998],[0.4,19081],[0.4,19164],[0.4,19247],[0.4,19331],[0.4,19413],[0.4,19498],[0.4,19580],[0.4,19664],[0.4,19747],[0.4,19830],[0.4,19914],[0.4,19998],[0.4,20081],[0.4,20164],[0.4,20247],[0.4,20330],[0.4,20414],[0.4,20498],[0.4,20581],[0.4,20664],[0.4,20747],[0.4,20831],[0.4,20913],[0.4,20997],[0.4,21081],[0.4,21164],[0.4,21247],[0.4,21331],[0.4,21414],[0.4,21498],[3.4,21581],[17.5,21664],[30.8,21747],[48.4,21831],[57.8,21914],[64.6,21997],[66.4,22081],[67.2,22164],[76.3,22247],[80.9,22330],[81.5,22414],[81.9,22497],[81.9,22580],[81.9,22664],[81.9,22748],[81.9,22830],[81.9,22913],[81.9,22997],[81.9,23081],[81.9,23164],[81.9,23247],[81.9,23331],[81.9,23413],[81.9,23497],[81.9,23580],[81.9,23664],[81.9,23747],[81.9,23830],[81.9,23913],[81.9,23997],[81.9,24080],[81.9,24164],[81.9,24247],[81.9,24330],[81.9,24414],[81.9,24497],[81.9,24580],[81.9,24664],[81.9,24747],[81.9,24831],[81.9,24914],[81.8,24998],[76.9,25081],[76.4,25164],[76.4,25247],[76.4,25331],[76.4,25414],[76.4,25497],[76.4,25580],[77.4,25664],[77.8,25747],[79.6,25831],[80.7,25913],[81,25997],[81.1,26080],[81.1,26163],[81.1,26247],[81.1,26330],[81.1,26414],[81.1,26497],[81.1,26581]]",1,0,571.634,573.933,81.14583333,0.695,"[{""rating"":81.14583333333334,""responseTime"":0.69500000000005}]",space,1.75,,573.933,Not at all,0,573.938,,,[],,0,1,1,1,1,audio/Narrative7Situation1.wav,audio/Narrative8Situation1.wav,audio/Narrative5Situation1.wav,audio/Narrative6Situation1.wav,2,5,5,2,,,,,,,,,,,,,,,,,,,,,,,,,,,,,,,,,,,,,,,
,,,,,,5dd6dadf9c84d86703aa8615,2024-05-13_11h53.48.780,group3.1-3.2-social-tom,2023.2.2,Win32,60.0240096,65c5074098b851296ff0b7ed,6642377634db0800e43dc24d,,,,,,,,,,,,,,,,,,,,,,,,,,,,,573.938,2,audio/Narrative6Situation2.wav,576.949,,576.949,605.448,"[[100,583],[100,666],[100,749],[100,833],[77.3,917],[34.6,1000],[11.4,1083],[10.9,1166],[0.5,2916],[0.7,2999],[1.7,3083],[1.9,3166],[2.4,3250],[2.5,3333],[2.5,3416],[2.5,3500],[2.5,3583],[2.5,3666],[2.5,3749],[2.5,3833],[2.5,3916],[2.5,3999],[2.5,4083],[2.5,4166],[2.2,4250],[0.8,4333],[0.3,4416],[0.3,4499],[0.3,4583],[0.3,4666],[0.3,4749],[0.3,4833],[0.3,4916],[0.3,4999],[0.3,5081],[0.3,5166],[0.3,5250],[0.3,5333],[0.3,5415],[0.3,5500],[0.3,5581],[0.3,5666],[0.3,5749],[0.3,5831],[4.6,5915],[32.4,5999],[47.3,6083],[51.7,6166],[56.4,6249],[56.5,6333],[56.5,6416],[55,6499],[51.8,6581],[51,6667],[50.9,6749],[50.9,6833],[50.9,6916],[50.9,6999],[50.9,7081],[50.9,7166],[49.8,7249],[49.8,7333],[49.8,7416],[49.8,7500],[49.8,7581],[49.8,7666],[49.8,7749],[49.8,7831],[49.8,7915],[49.8,7999],[49.8,8081],[49.8,8166],[49.8,8249],[49.8,8331],[49.8,8416],[49.8,8500],[49.8,8581],[49.8,8666],[49.8,8749],[49.8,8831],[49.8,8916],[49.8,8999],[49.8,9083],[49.8,9166],[49.8,9249],[49.7,9333],[49.5,9416],[49.5,9499],[49.5,9583],[49.5,9666],[49.5,9749],[49.5,9831],[49.5,9916],[49.5,10000],[49.5,10083],[49.5,10165],[49.5,10249],[49.5,10331],[49.5,10416],[49.5,10500],[49.5,10583],[49.5,10666],[49.5,10749],[49.5,10831],[49.5,10916],[49.5,10999],[49.5,11083],[49.5,11165],[49.5,11249],[49.5,11333],[49.5,11416],[49.5,11499],[49.5,11581],[49.5,11666],[49.5,11749],[49.5,11831],[49.5,11916],[49.5,11999],[49.5,12083],[49.5,12165],[49.5,12249],[49.5,12331],[46.3,12416],[41.6,12499],[33.8,12583],[29.1,12666],[28.3,12748],[28.5,12831],[28.5,12915],[28.5,12999],[28.5,13083],[28.5,13166],[28.6,13249],[28.6,13331],[28.6,13416],[28.6,13499],[28.6,13583],[28.6,13666],[28.6,13749],[28.6,13831],[28.6,13916],[28.6,13999],[28.8,14081],[28.8,14166],[29.1,14248],[29.2,14331],[29.2,14415],[29.2,14499],[29.2,14581],[29.2,14666],[29.2,14748],[29.2,14833],[29.2,14915],[29.2,14999],[29.2,15081],[29.2,15165],[29.2,15249],[29.2,15331],[29.2,15416],[29.2,15498],[29.2,15581],[29.2,15665],[29.2,15749],[29.2,15831],[29.2,15916],[29.2,15998],[32.9,16083],[45,16166],[48.9,16249],[48.9,16331],[49.2,16416],[49.3,16499],[49.7,16581],[49.7,16666],[49.7,16748],[49.7,16831],[49.7,16916],[49.7,16999],[49.7,17083],[49.7,17165],[49.7,17249],[49.7,17331],[49.7,17415],[49.7,17499],[49.7,17581],[49.7,17665],[49.7,17749],[49.7,17831],[49.7,17916],[49.7,17999],[49.7,18081],[81.1,18165],[81.1,18249],[52.5,18331],[52.5,18415],[52.5,18499],[52.5,18581],[52.9,18665],[53,18749],[53,18831],[53,18916],[96.9,19749],[98,19831],[99.2,19916],[99.2,19999],[99.2,20081],[99.7,20165],[100,20249],[100,20331],[100,20415],[100,20498],[100,20581],[100,20665],[100,20749],[100,20831],[100,20915],[100,20998],[100,21081],[100,21165],[100,21248],[100,21333],[100,21415],[100,21498],[100,21581],[99.9,21665],[99.4,21748],[98.6,21831],[98.4,21915],[98.4,21998],[98.4,22081],[98.1,22165],[97.9,22249],[97.8,22331],[97,22415],[95.6,22498],[93.8,22581],[91.3,22666],[88.3,22749],[83.3,22831],[80.8,22916],[80.7,22998],[80,23081],[80,23165],[80,23248],[80,23331],[79.9,23416],[79.9,23499],[79.9,23581],[79.9,23665],[79.9,23748],[79.9,23831],[80.1,23915],[91.4,23999],[97.3,24081],[97.7,24165],[98.5,24249],[100,24331],[100,24415],[100,24499],[100,24581],[100,24665],[100,24749],[100,24831],[100,24915],[100,24998],[100,25081],[100,25165],[100,25249],[100,25331],[100,25415],[100,25499],[100,25581],[100,25666],[100,25748],[100,25831],[100,25915],[100,25998],[100,26081],[100,26166],[100,26248],[100,26331],[100,26415],[100,26498],[100,26581],[100,26665],[100,26748],[100,26831],[100,26915],[100,26999],[100,27081],[100,27165],[100,27248],[100,27331],[100,27415],[100,27498],[100,27581],[100,27665],[100,27748],[100,27831],[100,27915],[100,27998],[100,28081],[100,28165],[100,28248],[100,28331],[100,28415],[100,28498]]",1,0,605.448,607.814,99.79166667,1.56,"[{""rating"":99.79166666666667,""responseTime"":1.5599999999999454}]",space,1.816,,607.814,Not at all,0,607.818,,,[],,0,2,2,2,1,audio/Narrative7Situation2.wav,audio/Narrative8Situation2.wav,audio/Narrative5Situation2.wav,audio/Narrative6Situation2.wav,3,3,3,3,,,,,,,,,,,,,,,,,,,,,,,,,,,,,,,,,,,,,,,
,,,,,,5dd6dadf9c84d86703aa8615,2024-05-13_11h53.48.780,group3.1-3.2-social-tom,2023.2.2,Win32,60.0240096,65c5074098b851296ff0b7ed,6642377634db0800e43dc24d,,,,,,,,,,,,,,,,,,,,,,,,,,,,,607.819,2,audio/Narrative6Situation3.wav,612.831,,612.831,625.447,"[[46.1,82],[46.1,165],[46.1,249],[46.1,331],[46.1,415],[46.1,499],[46.1,581],[27.7,665],[12.7,2582],[29.6,2665],[35.6,2749],[44.2,2831],[53.3,2915],[55,2999],[55,3081],[54.6,3164],[51.5,3249],[51.1,3331],[50.8,3415],[50.5,3499],[50.5,3581],[50.5,3665],[50.4,3749],[50.2,3832],[50.1,3914],[50.1,3999],[50.1,4081],[50.1,4164],[50.1,4249],[50.1,4331],[50.1,4415],[50.1,4499],[50.1,4582],[50.1,4665],[50.1,4749],[50.1,4831],[50.1,4914],[50.1,4999],[50.1,5082],[50.1,5165],[50.1,5249],[50.1,5332],[50.1,5414],[50.1,5499],[50.1,5581],[50.1,5664],[50.1,5749],[50.1,5831],[50.1,5914],[50.1,5999],[50.1,6081],[50.1,6165],[50.1,6249],[50.1,6331],[50.1,6415],[50.1,6499],[50.1,6582],[50.1,6664],[50.1,6747],[50.1,6831],[50.1,6914],[51,6999],[67,7082],[100,7164],[100,7249],[100,7332],[100,7415],[100,11664],[100,11747],[100,11831],[100,11914],[100,11997],[100,12081],[100,12165],[100,12249],[100,12331],[100,12414],[100,12499],[100,12581]]",1,0,625.447,626.663,99.6875,0.746,"[{""rating"":99.6875,""responseTime"":0.7459999999999809}]",space,0.668,,626.663,Definitely yes,100,626.668,,,[],,0,3,3,3,1,audio/Narrative7Situation3.wav,audio/Narrative8Situation3.wav,audio/Narrative5Situation3.wav,audio/Narrative6Situation3.wav,8,4,3,5,,,,,,,,,,,,,,,,,,,,,,,,,,,,,,,,,,,,,,,
,,,,,,5dd6dadf9c84d86703aa8615,2024-05-13_11h53.48.780,group3.1-3.2-social-tom,2023.2.2,Win32,60.0240096,65c5074098b851296ff0b7ed,6642377634db0800e43dc24d,,,,,,,,,,,,,,,,,,,,,,,,,,,,,626.669,2,audio/Narrative6Situation4.wav,628.68,,628.68,641.279,"[[57.5,334],[44.2,416],[26.8,499],[12.2,583],[2.5,666],[0.9,750],[0.9,833],[0.9,915],[0.7,1000],[0.6,1083],[0.6,1166],[0.6,1249],[0.6,1333],[49.7,7665],[49.7,7749],[49.7,7831]]",1,0,641.28,643.462,10.41666667,1.313,"[{""rating"":10.416666666666668,""responseTime"":1.3129999999999882}]",space,1.636,,643.462,Not at all,0,647.212,0.833333333,2.81,"[{""rating"":0.8333333333333359,""responseTime"":2.810000000000059}]",space,0,4,4,4,1,audio/Narrative7Situation4.wav,audio/Narrative8Situation4.wav,audio/Narrative5Situation4.wav,audio/Narrative6Situation4.wav,3,3,1,2,,,3.224,,,,,,,,,,,,,,,,,,,,,,,,,,,,,,,,,,,,
,,,,,,5dd6dadf9c84d86703aa8615,2024-05-13_11h53.48.780,group3.1-3.2-social-tom,2023.2.2,Win32,60.0240096,65c5074098b851296ff0b7ed,6642377634db0800e43dc24d,,,,,,,,,,,,,,,,,,,,,,,,,,,,,647.213,2,audio/Narrative6Situation5.wav,649.228,,649.228,657.178,"[[0.5,1250],[0.2,1333],[0.2,1416],[0.2,1500],[0.2,1583],[0.2,1667],[0.2,1750],[0.2,1833],[0.2,1917],[0.2,2000],[0.2,2084],[0.2,2166],[0.2,2250],[0.2,2334],[0.2,2416],[0.2,2500],[0.2,2583],[0.2,2667],[0.2,2750],[0.2,2834],[0.2,2917],[0.2,3000],[0.2,3083],[0.2,3167],[0.2,3250],[0.2,3334],[0.2,3416],[0.2,3500],[0.2,3583],[0.2,3666],[0.2,3750],[0.2,3833],[0.2,3917],[0.2,4000],[0.2,4084],[0.2,4166],[0.2,4249],[1.3,4333],[3.2,4417],[8.2,4500],[17.1,4583],[27.5,4667],[33.8,4750],[34.9,4833],[34.9,4916],[34.9,5000],[34.9,5083],[34.9,5167],[34.9,5250],[34.9,5334],[34.9,5417],[34.9,5500],[34.9,5583],[34.9,5667],[34.9,5750],[34.9,5833],[34.9,5917],[34.9,6000],[34.9,6084],[34.9,6166],[34.9,6250],[34.9,6333],[34.9,6417],[34.9,6500],[34.9,6583],[34.9,6667],[34.9,6750],[34.9,6833],[34.9,6917],[34.9,7000],[34.9,7083],[34.9,7166],[34.9,7250],[34.9,7333],[34.9,7416],[34.9,7500],[34.9,7583],[34.9,7667],[34.9,7750],[34.9,7833],[34.9,7916]]",1,0,657.179,658.544,34.89583333,0.855,"[{""rating"":34.895833333333336,""responseTime"":0.8550000000000182}]",space,0.816,,658.544,Not at all,0,658.546,,,[],,0,5,5,5,1,audio/Narrative7Situation5.wav,audio/Narrative8Situation5.wav,audio/Narrative5Situation5.wav,audio/Narrative6Situation5.wav,5,2,5,2,,,,,,,,,,,,,,,,,,,,,,,,,,,,,,,,,,,,,,,
,,,,,,5dd6dadf9c84d86703aa8615,2024-05-13_11h53.48.780,group3.1-3.2-social-tom,2023.2.2,Win32,60.0240096,65c5074098b851296ff0b7ed,6642377634db0800e43dc24d,,,,,,,,,,,,,,,,,,,,,,,,,,,,,658.547,2,audio/Narrative6Situation6.wav,660.561,,660.561,671.645,"[[999,0],[999,82],[999,166],[999,250],[999,333],[999,416],[41.3,500],[41.3,583],[41.3,666],[41.3,750],[41.3,833],[41.3,916],[41.3,1000],[41.3,1083],[41.3,1165],[34.8,1250],[28.4,1332],[17,1415],[6.3,1500],[0.1,7248],[0.5,7332],[1,7415],[1.1,7498],[1.1,7582],[1.1,7665],[1.1,7750],[1.1,7832],[1.1,7915],[1.1,8000],[1.1,8082],[1.1,8165],[1.1,8250],[1.1,8332],[1.1,8415],[1.5,8498],[2.1,8582],[2.4,8665],[2.5,8748],[2.6,8832],[2.9,8915],[2.9,9000],[2.9,9082],[2.9,9165],[2.9,9250],[2.9,9332],[2.9,9415],[2.9,9498],[2.9,9582],[2.9,9665],[2.9,9750],[2.9,9832],[2.9,9915],[2.9,10000],[2.9,10082],[2.9,10165],[2.9,10248],[2.9,10332],[2.9,10415],[2.9,10498],[2.9,10582],[2.9,10665],[2.9,10748],[2.9,10832],[2.9,10915],[2.9,11000],[2.9,11082]]",1,0,671.645,672.477,2.916666667,0.272,"[{""rating"":2.9166666666666674,""responseTime"":0.2720000000000482}]",space,0.284,,672.477,Not at all,0,672.481,,,[],,0,6,6,6,1,audio/Narrative7Situation6.wav,audio/Narrative8Situation6.wav,audio/Narrative5Situation6.wav,audio/Narrative6Situation6.wav,3,2,3,2,,,,,,,,,,,,,,,,,,,,,,,,,,,,,,,,,,,,,,,
,,,,,,5dd6dadf9c84d86703aa8615,2024-05-13_11h53.48.780,group3.1-3.2-social-tom,2023.2.2,Win32,60.0240096,65c5074098b851296ff0b7ed,6642377634db0800e43dc24d,,,,,,,,,,,,,,,,,,,,,,,,,,,,,672.482,2,audio/Narrative6Situation7.wav,677.494,,677.494,702.359,"[[1.8,915],[0.7,1000],[12.5,6748],[44.6,6832],[80.9,6915],[100,6998],[100,7081],[100,7165],[100,7248],[100,7331],[100,7415],[100,7498],[100,7582],[100,7664],[100,7748],[100,7832],[100,7914],[100,7998],[100,8082],[100,8164],[100,8248],[100,8332],[100,8414],[100,8498],[100,8581],[100,8664],[100,8748],[100,8831],[100,8915],[100,8998],[100,9082],[100,9165],[100,9248],[100,9331],[100,9415],[100,9498],[100,9581],[100,9664],[100,9748],[100,9831],[100,9915],[100,10000],[100,10081],[100,10165],[100,10248],[100,10332],[100,10415],[100,10498],[100,10582],[100,10665],[100,10748],[100,10831],[100,10914],[100,10998],[100,11082],[100,11164],[100,11248],[100,11331],[100,11414],[100,11498],[100,11581],[100,11664],[100,11748],[100,11831],[100,11915],[100,11997],[100,12081],[100,12164],[100,12248],[100,12331],[100,12414],[100,12498],[100,12581],[100,12664],[100,12747],[100,12831],[100,12915],[100,12998],[100,13081],[100,13164],[100,13247],[100,13331],[100,13415],[100,13498],[100,13581],[100,13665],[100,13748],[100,13831],[100,13915],[100,13998],[100,14081],[100,14165],[100,14248],[100,14331],[100,14414],[100,14498],[100,14581],[100,14664],[100,14747],[100,14831],[100,14914],[100,14998],[100,15081],[100,15165],[100,15248],[100,15331],[100,15414],[100,15498],[100,15581],[100,15664],[100,15748],[100,15831],[100,15915],[100,15998],[100,16081],[100,16165],[100,16247],[100,16331],[100,16414],[100,16497],[100,16581],[100,16664],[100,16747],[100,16831],[100,16914],[100,16998],[100,17081],[100,17164],[100,17248],[100,17331],[100,17414],[100,17498],[100,17581],[100,17664],[100,17747],[100,17831],[100,17915],[100,17997],[100,18081],[100,18164],[100,18248],[100,18331],[100,18414],[100,18497],[100,18581],[100,18664],[100,18748],[100,18831],[100,18914],[100,18998],[100,19081],[100,19164],[100,19248],[100,19331],[100,19414],[100,19498],[100,19581],[100,19664],[100,19748],[100,19831],[100,19914],[100,19997],[100,20081],[100,20164],[100,20248],[100,20331],[100,20414],[100,20498],[100,20581],[100,20664],[100,20747],[100,20831],[100,20914],[100,20997],[100,21081],[100,21164],[100,21248],[100,21331],[100,21414],[100,21497],[100,21581],[100,21664],[100,21747],[100,21831],[100,21914],[100,21998],[100,22081],[100,22164],[100,22247],[100,22331],[100,22413],[100,22500],[100,22581],[100,22664],[100,22747],[100,22831],[100,22914],[100,22997],[100,23081],[100,23164],[100,23247],[100,23331],[100,23415],[100,23497],[100,23581],[100,23664],[100,23747],[100,23831],[100,23914],[100,23997],[100,24081],[100,24163],[100,24247],[100,24331],[100,24414],[100,24498],[100,24581],[100,24664],[100,24747],[100,24831]]",1,0,702.36,704.976,99.79166667,1.76,"[{""rating"":99.79166666666667,""responseTime"":1.759999999999991}]",space,2.067,,704.976,Not at all,0,704.98,,,[],,0,7,7,7,1,audio/Narrative7Situation7.wav,audio/Narrative8Situation7.wav,audio/Narrative5Situation7.wav,audio/Narrative6Situation7.wav,5,3,4,5,,,,,,,,,,,,,,,,,,,,,,,,,,,,,,,,,,,,,,,
,,,,,,5dd6dadf9c84d86703aa8615,2024-05-13_11h53.48.780,group3.1-3.2-social-tom,2023.2.2,Win32,60.0240096,65c5074098b851296ff0b7ed,6642377634db0800e43dc24d,,,,,,,,,,,,,,,,,,,,,,,,,,,,,704.98,2,audio/Narrative6Situation8.wav,709.992,,709.992,716.842,"[[52.1,499],[50.3,583],[45.5,666],[37.8,750],[27.8,833],[19,917],[12.2,1000],[4,1083],[34.9,5581],[34.9,5666],[34.9,5750],[34.9,5833],[34.9,5916],[0.2,6083],[0.3,6417]]",1,0,716.842,718.975,0.833333333,0.815,"[{""rating"":0.8333333333333359,""responseTime"":0.8150000000000546}]",space,1.585,,718.975,Definitely yes,100,718.979,,,[],,0,8,8,8,1,audio/Narrative7Situation8.wav,audio/Narrative8Situation8.wav,audio/Narrative5Situation8.wav,audio/Narrative6Situation8.wav,2,3,3,5,,,,,,,,,,,,,,,,,,,,,,,,,,,,,,,,,,,,,,,
,,,,,,5dd6dadf9c84d86703aa8615,2024-05-13_11h53.48.780,group3.1-3.2-social-tom,2023.2.2,Win32,60.0240096,65c5074098b851296ff0b7ed,6642377634db0800e43dc24d,,,,,,,,,,,,,,,,,,,,,,,,,,,,,718.979,2,audio/Narrative6Situation9.wav,722.992,,722.992,732.941,"[[0.8,666],[0.1,7581],[0.2,7665],[0.2,7748],[0.2,7831],[0.2,7915],[0.2,7999],[0.2,8081],[0.1,8166],[0.1,8248],[0.1,8331]]",1,0,732.941,734.424,0,0.589,"[{""rating"":0,""responseTime"":0.5890000000000555}]",space,0.935,,734.424,Partially,50,734.43,,,[],,0,9,9,9,1,audio/Narrative7Situation9.wav,audio/Narrative8Situation9.wav,audio/Narrative5Situation9.wav,audio/Narrative6Situation9.wav,2,3,3,4,,,,,,,,,,,,,,,,,,,,,,,,,,,,,,,,,,,,,,,
,,,,,,5dd6dadf9c84d86703aa8615,2024-05-13_11h53.48.780,group3.1-3.2-social-tom,2023.2.2,Win32,60.0240096,65c5074098b851296ff0b7ed,6642377634db0800e43dc24d,,,,,,,,,,,,,,,,,,,,,,,,,,,,,734.43,2,audio/Narrative5Situation1.wav,739.441,,739.441,752.74,[],1,0,752.74,755.04,0.208333333,1.876,"[{""rating"":0.2083333333333326,""responseTime"":1.8759999999999764}]",space,1.774,,755.04,Definitely yes,100,755.044,,,[],,0,10,10,10,1,audio/Narrative8Situation1.wav,audio/Narrative7Situation1.wav,audio/Narrative6Situation1.wav,audio/Narrative5Situation1.wav,5,2,2,5,,,,,,,,,,,,,,,,,,,,,,,,,,,,,,,,,,,,,,,
,,,,,,5dd6dadf9c84d86703aa8615,2024-05-13_11h53.48.780,group3.1-3.2-social-tom,2023.2.2,Win32,60.0240096,65c5074098b851296ff0b7ed,6642377634db0800e43dc24d,,,,,,,,,,,,,,,,,,,,,,,,,,,,,755.044,2,audio/Narrative5Situation2.wav,758.056,,758.056,787.522,"[[11.4,11081],[11.4,11165],[11.4,11250],[11.4,11332],[14.6,11415],[30.5,11500],[30,11581],[30,11665],[29.7,11748],[29.1,11831],[29.1,11915],[29.1,11998],[29.1,12081],[29.1,12165],[29.1,12248],[29.1,12332],[29.1,12415],[29.1,12498],[29.1,12581],[29.1,12665],[29.1,12748],[29.1,12831],[29.1,12915],[29.1,12998],[29.1,13082],[29.1,13165],[29.1,13248],[29.1,13331],[29.1,13415],[29.1,13498],[29.1,13581],[29.1,13665],[29.1,13748],[29.1,13831],[29.1,13915],[29.1,13998],[27.8,14082],[24.6,14165],[19.7,14248],[17.8,14331],[17.2,14416],[16.5,14498],[14.6,14581],[11.5,14665],[11,14748],[9.1,14832],[8.6,14915],[8.6,14998],[8.6,15081],[8.6,15165],[8.6,15248],[8.6,15331],[8.6,15415],[8.6,15498],[8.6,15581],[8.6,15664],[8.6,15748],[8.6,15831],[8.6,15915],[8.6,15998],[10.2,16081],[11.8,16164],[11.9,16248],[11.9,16331],[11.9,16415],[11.9,16498],[11.9,16581],[11.9,16665],[11.9,16748],[11.9,16831],[11.9,16915],[11.9,16998],[11.9,17081],[11.9,17164],[11.9,17248],[11.9,17331],[11.9,17414],[11.9,17498],[11.9,17581],[11.9,17665],[11.9,17748],[11.9,17831],[11.9,17915],[11.9,17998],[11.9,18081],[11.9,18165],[11.9,18248],[11.9,18331],[11.9,18414],[11.9,18498],[11.9,18582],[11.9,18665],[11.9,18748],[11.9,18831],[11.9,18915],[11.9,18998],[11.9,19081],[11.9,19164],[11.9,19248],[11.9,19331],[11.9,19414],[11.9,19497],[11.9,19581],[11.9,19664],[11.9,19748],[11.9,19831],[11.9,19914],[11.9,19997],[11.9,20082],[11.9,20164],[11.9,20248],[11.9,20331],[11.9,20414],[11.9,20497],[11.9,20581],[11.9,20665],[11.9,20748],[11.9,20831],[11.9,20915],[11.9,20997],[11.5,21081],[11.5,21165],[11.5,21247],[11.5,21332],[11.5,21415],[11.5,21498],[12.1,21581],[12.6,21665],[12.6,21748],[12.6,21831],[12.6,21914],[12.6,21997],[12.6,22081],[12.6,22165],[12.6,22248],[12.6,22331],[12.6,22414],[12.6,22497],[12.6,22581],[12.6,22665],[12.6,22748],[12.6,22831],[12.6,22915],[12.6,22997],[12.6,23081],[12.6,23165],[12.6,23247],[12.6,23330],[12.6,23414],[12.6,23498],[12.6,23581],[12.6,23665],[12.6,23748],[12.6,23830],[12.6,23914],[12.6,23998],[12.6,24081],[12.6,24164],[12.6,24248],[12.6,24331],[12.6,24414],[12.6,24498],[12.6,24581],[12.6,24664],[12.6,24748],[12.6,24831],[12.6,24914],[12.7,24997],[12.7,25080],[12.7,25164],[12.7,25248],[12.7,25331],[12.7,25415],[12.7,25498],[12.7,25580],[12.7,25664],[12.7,25748],[12.7,25831],[12.7,25914],[12.7,25997],[12.7,26081],[12.7,26164],[12.7,26247],[12.7,26331],[12.7,26414],[12.7,26497],[12.7,26581],[12.7,26665],[12.7,26748],[12.7,26831],[12.7,26914],[12.7,26998],[12.7,27080],[12.7,27164],[12.7,27248],[12.7,27331],[12.7,27414],[12.7,27497],[12.7,27580],[12.7,27664],[12.7,27748],[12.7,27831],[12.7,27914],[12.7,27997],[12.7,28081],[12.7,28164],[12.7,28248],[12.7,28330],[12.7,28414],[12.7,28498],[12.7,28581],[12.7,28664],[12.7,28747],[12.7,28830],[12.7,28914],[12.7,28998],[12.7,29081],[12.7,29164],[12.7,29247],[12.7,29331],[12.7,29414]]",1,0,787.522,788.638,12.70833333,0.672,"[{""rating"":12.708333333333332,""responseTime"":0.6720000000000255}]",space,0.567,,788.638,Not at all,0,788.644,,,[],,0,11,11,11,1,audio/Narrative8Situation2.wav,audio/Narrative7Situation2.wav,audio/Narrative6Situation2.wav,audio/Narrative5Situation2.wav,3,3,3,3,,,,,,,,,,,,,,,,,,,,,,,,,,,,,,,,,,,,,,,
,,,,,,5dd6dadf9c84d86703aa8615,2024-05-13_11h53.48.780,group3.1-3.2-social-tom,2023.2.2,Win32,60.0240096,65c5074098b851296ff0b7ed,6642377634db0800e43dc24d,,,,,,,,,,,,,,,,,,,,,,,,,,,,,788.644,2,audio/Narrative5Situation3.wav,791.655,,791.655,805.57,"[[10.7,81],[10.4,166],[10.2,250],[9.5,332],[9.3,416],[9.3,499],[9.3,581],[9.3,666],[7.4,749],[0.6,832],[2.4,4666],[5.9,4750],[7.7,4831],[9.6,4916],[9.9,4999],[9.9,5081],[9.9,5165],[9.9,5249],[9.9,5331],[10.9,5415],[41.7,5499],[73.6,5581],[92.7,5666],[100,5749],[100,5832],[100,5915],[100,5999],[100,6082],[100,6165],[100,6249],[100,6331],[100,6416],[100,6499],[100,6581],[100,6665],[100,6749],[100,6831],[100,6916],[100,7000],[100,7081],[100,7165],[100,7249],[100,7331],[100,7416],[100,7499],[100,7581],[100,7665],[100,7749],[100,7831],[100,7916],[100,7999],[100,8081],[100,8165],[100,8249],[100,8331],[100,8416],[100,8499],[100,8581],[100,8665],[100,8749],[100,8831],[100,8915],[100,8999],[100,9081],[100,9165],[100,9250],[100,9331],[100,9415],[100,9499],[100,9581],[100,9665],[100,9748],[100,9831],[100,9916],[100,9998],[100,10081],[100,10165],[100,10249],[100,10331],[100,10416],[100,10499],[100,10581],[100,10665],[100,10749],[100,10831],[100,10916],[100,10999],[100,11081],[100,11165],[100,11248],[100,11331],[100,11415],[100,11498],[100,11581],[100,11665],[100,11749],[100,11831],[100,11915],[100,11998],[100,12081],[100,12165],[100,12249],[100,12331],[100,12415],[100,12499],[100,12581],[100,12665],[100,12748],[100,12831],[100,12915],[100,12998],[100,13081],[100,13165],[100,13248],[100,13331],[100,13415],[100,13498],[100,13581],[100,13665],[100,13748],[100,13831],[100,13915]]",1,0,805.57,807.087,99.47916667,1.173,"[{""rating"":99.47916666666667,""responseTime"":1.1730000000000018}]",space,0.984,,807.087,Partially,50,807.092,,,[],,0,12,12,12,1,audio/Narrative8Situation3.wav,audio/Narrative7Situation3.wav,audio/Narrative6Situation3.wav,audio/Narrative5Situation3.wav,4,8,5,3,,,,,,,,,,,,,,,,,,,,,,,,,,,,,,,,,,,,,,,
,,,,,,5dd6dadf9c84d86703aa8615,2024-05-13_11h53.48.780,group3.1-3.2-social-tom,2023.2.2,Win32,60.0240096,65c5074098b851296ff0b7ed,6642377634db0800e43dc24d,,,,,,,,,,,,,,,,,,,,,,,,,,,,,807.092,2,audio/Narrative5Situation4.wav,808.104,,808.104,828.502,"[[87.1,915],[47.2,998],[24.6,1081],[17.7,1165],[10.9,1248],[3.3,1332],[2.7,1415],[1,1498],[0.8,1582],[0.8,1665],[0.8,1748],[0.8,1831],[0.8,1915],[0.8,1998],[0.8,2082],[0.8,2165],[0.8,2248],[0.8,2331],[0.7,2415],[0.7,2498],[0.7,2582],[0.4,2665],[0.5,2750],[2.9,2831],[2.9,2915],[2.9,2998],[2.9,3082],[2.9,3165],[1,3248],[1.8,3915],[2.4,4000],[2.5,4082],[3.1,4165],[3.2,4248],[3.2,4332],[3.2,4414],[3.2,4500],[3.2,4581],[3.2,4665],[3.2,4748],[3.2,4831],[3.2,4915],[3.2,4998],[3.2,5081],[3.2,5165],[3.2,5247],[3.2,5331],[3.2,5415],[3.2,5498],[3.2,5581],[3.2,5665],[3.2,5748],[3.2,5831],[3.2,5915],[3.2,5998],[3.2,6082],[3.2,6165],[3.2,6248],[3.2,6331],[3.2,6414],[3.2,6498],[3.2,6582],[3.2,6665],[3.2,6748],[3.2,6831],[3.2,6915],[3.2,6998],[3.2,7081],[3.2,7165],[3.2,7248],[3.2,7331],[3.3,7414],[3.3,7498],[3.3,7581],[3.3,7664],[3.3,7748],[3.3,7831],[3.3,7915],[3.3,7998],[3.3,8081],[3.3,8165],[3.3,8247],[3.3,8331],[3.3,8415],[3.3,8497],[3.1,8582],[3,8665],[2.7,8748],[2.4,8831],[2.4,8914],[2.4,8998],[2.4,9081],[2.4,9164],[2.4,9248],[2.4,9331],[2.4,9414],[2.4,9497],[2.4,9581],[2.4,9664],[2.4,9748],[2.4,9831],[2.4,9914],[2.4,9997],[2.4,10081],[2.4,10164],[2.4,10247],[2.4,10331],[2.4,10414],[2.4,10497],[2.4,10581],[2.4,10664],[2.4,10748],[5,10831],[9,10915],[15.7,10998],[17.4,11080],[17.4,11165],[17.4,11248],[17.4,11331],[17.4,11414],[17.4,11498],[17.4,11581],[17.4,11664],[17.4,11747],[17.4,11831],[17.4,11914],[17.4,11998],[17.4,12081],[17.4,12164],[17.4,12248],[17.4,12331],[17.4,12414],[17.4,12497],[17.4,12581],[17.4,12664],[17.4,12748],[17.4,12831],[17.4,12914],[17.4,12998],[17.4,13081],[17.4,13164],[17.4,13248],[17.4,13331],[17.4,13414],[17.4,13497],[17.4,13581],[17.4,13665],[17.4,13748],[17.4,13830],[17.4,13914],[17.4,13997],[17.4,14080],[17.4,14164],[17.4,14248],[17.4,14331],[17.4,14415],[17.4,14498],[17.4,14581],[17.4,14664],[17.4,14747],[17.4,14830],[17.4,14914],[17.4,14997],[17.4,15081],[17.4,15164],[17.4,15247],[17.4,15331],[17.4,15414],[17.4,15498],[17.4,15581],[17.4,15664],[17.4,15748],[19.7,15830],[22.6,15915],[33.4,15998],[45.1,16081],[47.7,16164],[52,16247],[54.2,16331],[54.2,16414],[54.2,16497],[54.2,16580],[54.2,16664],[54.2,16747],[54.2,16831],[54.2,16914],[54.2,16997],[54.2,17080],[54.2,17164],[54.2,17248],[54.2,17331],[54.2,17415],[54.2,17498],[54.2,17581],[54.2,17664],[54.2,17748],[54.2,17831],[54.2,17914],[54.2,17997],[54.2,18080],[54.2,18164],[54.2,18247],[54.2,18331],[54.2,18414],[54.2,18497],[54.2,18581],[54.2,18664],[54.2,18747],[54.2,18830],[54.2,18914],[54.2,18997],[54.2,19080],[54.2,19164],[54.2,19248],[54.2,19331],[54.2,19414],[54.2,19498],[54.2,19580],[54.2,19664],[54.2,19747],[54.2,19831],[54.2,19914],[54.2,19997],[54.2,20080],[54.2,20164],[54.2,20247],[54.2,20330]]",1,0,828.502,830.336,47.39583333,1.14,"[{""rating"":47.39583333333333,""responseTime"":1.1399999999999864}]",space,1.302,,830.336,Not at all,0,830.341,,,[],,0,13,13,13,1,audio/Narrative8Situation4.wav,audio/Narrative7Situation4.wav,audio/Narrative6Situation4.wav,audio/Narrative5Situation4.wav,3,3,2,1,,,,,,,,,,,,,,,,,,,,,,,,,,,,,,,,,,,,,,,
,,,,,,5dd6dadf9c84d86703aa8615,2024-05-13_11h53.48.780,group3.1-3.2-social-tom,2023.2.2,Win32,60.0240096,65c5074098b851296ff0b7ed,6642377634db0800e43dc24d,,,,,,,,,,,,,,,,,,,,,,,,,,,,,830.341,2,audio/Narrative5Situation5.wav,835.352,,835.352,850.785,"[[48.3,917],[36.4,1000],[25.1,1082],[16.5,1167],[6.9,1250],[2.4,1332],[0.5,14831],[2.7,14916],[7.5,14999],[25.6,15081],[44.3,15164],[50.1,15249],[51.5,15331],[52.3,15414]]",1,0,850.785,852.184,50.52083333,1.079,"[{""rating"":50.520833333333336,""responseTime"":1.0790000000000646}]",space,0.853,,852.185,Not at all,0,852.188,,,[],,0,14,14,14,1,audio/Narrative8Situation5.wav,audio/Narrative7Situation5.wav,audio/Narrative6Situation5.wav,audio/Narrative5Situation5.wav,2,5,2,5,,,,,,,,,,,,,,,,,,,,,,,,,,,,,,,,,,,,,,,
,,,,,,5dd6dadf9c84d86703aa8615,2024-05-13_11h53.48.780,group3.1-3.2-social-tom,2023.2.2,Win32,60.0240096,65c5074098b851296ff0b7ed,6642377634db0800e43dc24d,,,,,,,,,,,,,,,,,,,,,,,,,,,,,852.188,2,audio/Narrative5Situation6.wav,855.201,,855.201,860.885,"[[21.8,82],[21.8,165],[21.8,249],[22.7,333],[22.8,416],[22.8,499],[22.8,582],[19.6,665],[6,750],[0.9,832],[0.6,916],[0.6,1000],[0.7,1082],[0.8,1166],[0.8,1250],[0.8,1332],[0.8,1415],[0.5,1500],[0.5,1582],[0.2,1666]]",1,0,860.885,861.885,0.208333333,0.627,"[{""rating"":0.2083333333333326,""responseTime"":0.6270000000000664}]",space,0.453,,861.885,Definitely yes,100,861.89,,,[],,0,15,15,15,1,audio/Narrative8Situation6.wav,audio/Narrative7Situation6.wav,audio/Narrative6Situation6.wav,audio/Narrative5Situation6.wav,2,3,2,3,,,,,,,,,,,,,,,,,,,,,,,,,,,,,,,,,,,,,,,
,,,,,,5dd6dadf9c84d86703aa8615,2024-05-13_11h53.48.780,group3.1-3.2-social-tom,2023.2.2,Win32,60.0240096,65c5074098b851296ff0b7ed,6642377634db0800e43dc24d,,,,,,,,,,,,,,,,,,,,,,,,,,,,,861.891,2,audio/Narrative5Situation7.wav,865.9,,865.9,886.932,"[[0.6,1000],[1.1,1084],[2.7,1167],[2.7,1250],[2.7,1334],[2.7,1417],[2.7,1500],[2.7,1584],[2.7,1667],[2.7,1750],[2.7,1832],[2.7,1917],[2.7,2000],[2.7,2082],[2.7,2166],[2.7,2250],[2.7,2334],[2.7,2417],[2.7,2500],[2.7,2582],[2.7,2667],[2.7,2750],[2.7,2834],[2.7,2916],[2.7,3000],[2.5,3084],[2.2,3166],[1.8,3250],[1.4,3334],[0.5,3417],[0.5,3500],[0.5,3584],[0.5,3667],[0.5,3750],[0.5,3832],[0.5,3917],[0.5,4000],[0.5,4082],[0.5,4167],[0.5,4250],[0.5,4334],[0.5,4417],[0.5,4500],[0.5,4584],[0.5,4667],[0.5,4750],[0.5,4834],[0.5,4916],[0.5,5000],[0.5,5084],[0.5,5167],[0.5,5250],[0.5,5332],[0.5,5417],[0.5,5500],[0.5,5582],[0.5,5667],[0.5,5750],[0.5,5832],[0.5,5917],[0.5,6000],[0.5,6082],[0.5,6167],[0.5,6250],[0.5,6332],[0.5,6417],[0.5,6500],[0.5,6582],[0.5,6666],[0.5,6750],[0.5,6832],[0.5,6917],[0.4,7000],[0.4,7082],[0.4,7167],[0.4,7250],[0.4,7334],[0.4,7417],[0.4,7500],[0.4,7582],[0.4,7666],[0.4,7750],[0.4,7834],[0.4,7916],[0.4,8000],[0.4,8082],[0.4,8167],[0.4,8250],[0.4,8332],[0.4,8416],[0.4,8499],[0.4,8582],[0.4,8666],[0.4,8749],[0.4,8834],[0.4,8916],[0.4,9000],[0.4,9082],[0.4,9166],[0.4,9249],[0.4,9332],[0.4,9416],[0.4,9500],[0.4,9582],[0.4,9666],[0.4,9750],[0.4,9832],[0.4,9916],[0.4,10000],[0.4,10081],[0.4,10166],[0.4,10249],[0.4,10331],[0.4,10416],[0.4,10499],[0.4,10582],[0.4,10666],[0.4,10750],[0.4,10832],[0.4,10916],[0.4,10999],[0.4,11082],[0.4,11166],[0.4,11249],[0.4,11332],[0.4,11416],[0.4,11500],[0.4,11582],[0.4,11666],[0.4,11750],[0.4,11832],[0.4,11916],[0.4,11999],[0.4,12082],[0.4,12166],[0.4,12249],[0.4,12332],[0.4,12416],[0.4,12499],[0.4,12582],[0.4,12666],[0.4,12750],[0.4,12832],[0.4,12917],[0.4,13000],[0.4,13082],[0.4,13166],[0.4,13249],[0.4,13332],[0.4,13416],[0.4,13500],[0.4,13581],[0.4,13666],[0.4,13749],[0.4,13832],[0.4,13916],[0.4,14000],[0.4,14082],[0.4,14166],[0.4,14250],[0.4,14332],[0.4,14417],[0.4,14499],[0.4,14581],[0.4,14666],[0.4,14750],[0.4,14832],[0.4,14917],[0.4,14999],[0.4,15082],[0.4,15166],[0.4,15250],[0.4,15332],[0.4,15416],[0.4,15500],[0.4,15582],[0.4,15666],[0.4,15749],[0.4,15832],[0.4,15916],[0.4,15999],[0.4,16082],[0.4,16167],[0.4,16250],[0.4,16332],[0.4,16417],[0.4,16499],[0.4,16582],[0.4,16666],[0.4,16749],[0.4,16832],[0.4,16916],[0.4,17000],[0.4,17081],[0.4,17166],[0.4,17250],[0.4,17332],[0.4,17416],[0.4,17499],[0.4,17581],[0.4,17666],[50.2,17750],[50.2,17832],[50.2,17916],[0.2,18000],[0.1,18082],[0.1,18166]]",1,0,886.933,888.249,0.208333333,0.757,"[{""rating"":0.2083333333333326,""responseTime"":0.7570000000000618}]",space,0.788,,888.249,Not at all,0,888.254,,,[],,0,16,16,16,1,audio/Narrative8Situation7.wav,audio/Narrative7Situation7.wav,audio/Narrative6Situation7.wav,audio/Narrative5Situation7.wav,3,5,5,4,,,,,,,,,,,,,,,,,,,,,,,,,,,,,,,,,,,,,,,
,,,,,,5dd6dadf9c84d86703aa8615,2024-05-13_11h53.48.780,group3.1-3.2-social-tom,2023.2.2,Win32,60.0240096,65c5074098b851296ff0b7ed,6642377634db0800e43dc24d,,,,,,,,,,,,,,,,,,,,,,,,,,,,,888.254,2,audio/Narrative5Situation8.wav,891.266,,891.266,900.116,"[[999,0],[999,83],[999,167],[999,250],[999,333],[999,416],[999,500],[999,583],[999,666],[999,750],[999,831],[999,916],[999,999],[999,1083],[999,1167],[999,1249],[11.8,1833],[3.3,1916],[1.1,1999],[1.1,2081],[1.1,2167],[1.1,2250],[1.1,2333],[1.1,2416],[1.1,2499],[1.1,2583],[1.1,2666],[1.1,2750],[1.1,2833],[1.1,2916],[1.1,2999],[1.1,3081],[1.1,3167],[1.1,3250],[1.1,3333],[1.1,3416],[1.1,3499],[1.1,3581],[1.3,3666],[1.3,3749],[1.4,3831],[1.4,3916],[1.4,3999],[1.4,4081],[1.4,4166],[1.4,4250],[1.4,4333],[1.4,4417],[1.4,4499],[1.4,4583],[1.4,4665],[1.4,4749],[1.4,4833],[1.4,4916],[1.4,4999],[1.4,5083],[1.4,5167],[1.4,5250],[1.4,5333],[1.6,5416],[1.6,5500],[1.6,5583],[1.6,5666],[1.6,5750],[1.6,5833],[1.6,5916],[1.6,5999],[1.6,6081],[1.6,6166],[1.6,6250],[1.6,6333],[1.6,6416],[1.6,6499],[1.6,6583],[1.6,6666],[1.6,6749],[1.6,6833],[1.6,6916],[1.6,6999],[1.6,7083],[1.6,7166],[1.6,7249],[1.6,7331],[1.6,7416],[1.6,7499],[1.6,7583],[1.6,7666],[1.6,7749],[1.6,7833],[1.6,7916],[1.6,7999],[1.6,8081],[1.6,8166],[1.6,8249],[1.6,8333],[1.6,8415],[1.6,8499],[1.6,8581],[1.8,8666],[1.8,8749],[1.9,8831]]",1,0,900.116,901.499,1.875,0.238,"[{""rating"":1.874999999999999,""responseTime"":0.2380000000000564}]",space,0.841,,901.499,Definitely yes,100,901.504,,,[],,0,17,17,17,1,audio/Narrative8Situation8.wav,audio/Narrative7Situation8.wav,audio/Narrative6Situation8.wav,audio/Narrative5Situation8.wav,3,2,5,3,,,,,,,,,,,,,,,,,,,,,,,,,,,,,,,,,,,,,,,
,,,,,,5dd6dadf9c84d86703aa8615,2024-05-13_11h53.48.780,group3.1-3.2-social-tom,2023.2.2,Win32,60.0240096,65c5074098b851296ff0b7ed,6642377634db0800e43dc24d,,,,,,,,,,,,,,,,,,,,,,,,,,,,,901.505,2,audio/Narrative5Situation9.wav,904.515,,904.515,944.064,"[[3,834],[2.6,916],[1.8,999],[1.3,1082],[0.8,1166],[0.7,1249],[0.7,1332],[0.7,1416],[0.7,1500],[0.7,1582],[0.7,1666],[0.7,1749],[0.7,1832],[0.7,1916],[0.7,2000],[0.7,2081],[0.7,2166],[0.7,2250],[0.7,2332],[0.7,2417],[0.7,2500],[0.7,2584],[0.7,2666],[0.7,2750],[0.7,2832],[0.7,2916],[0.7,2999],[0.7,3082],[0.7,3167],[0.7,3249],[0.7,3332],[0.7,3416],[0.7,3500],[0.7,3582],[0.7,3666],[0.7,3749],[0.7,3832],[0.7,3916],[0.7,4000],[0.7,4082],[0.7,4166],[0.7,4250],[0.7,4332],[0.7,4417],[0.7,4500],[0.7,4582],[0.7,4666],[0.7,4750],[0.7,4832],[0.7,4917],[0.7,5000],[0.7,5081],[0.7,5166],[0.7,5249],[0.7,5332],[0.7,5416],[0.7,5499],[0.7,5582],[0.7,5666],[0.7,5750],[0.7,5832],[0.7,5916],[0.7,5999],[0.7,6082],[0.7,6167],[0.7,6250],[0.7,6332],[0.7,6416],[0.7,6500],[0.7,6582],[0.7,6666],[0.7,6750],[0.7,6832],[0.7,6916],[0.7,6999],[0.7,7082],[0.7,7166],[0.7,7249],[0.7,7332],[0.7,7416],[0.7,7500],[0.7,7582],[0.7,7666],[0.7,7750],[0.7,7832],[0.7,7916],[0.7,8000],[0.7,8081],[0.7,8166],[0.7,8249],[0.7,8332],[0.7,8416],[0.7,8499],[0.7,8582],[0.7,8666],[0.7,8749],[0.7,8832],[0.7,8916],[0.7,8999],[0.7,9082],[0.7,9166],[0.7,9250],[0.7,9331],[0.7,9416],[0.7,9499],[0.7,9582],[0.7,9666],[0.7,9750],[0.7,9832],[0.7,9916],[0.7,10000],[0.7,10081],[0.7,10166],[0.7,10249],[0.7,10332],[0.7,10416],[0.7,10499],[0.7,10582],[0.7,10666],[0.7,10749],[0.7,10831],[0.7,10916],[0.7,10999],[0.7,11082],[0.7,11166],[0.7,11250],[0.7,11332],[0.7,11416],[0.7,11499],[0.7,11582],[0.7,11664],[0.7,11749],[0.7,11831],[0.7,11916],[0.7,11999],[0.7,12081],[0.7,12166],[0.7,12249],[0.7,12331],[0.7,12416],[1,12499],[1.5,12582],[1.5,12666],[1.5,12749],[1.5,12832],[1.5,12916],[1.5,12999],[1.5,13082],[1.5,13166],[1.5,13249],[1.5,13332],[1.5,13416],[1.5,13500],[1.5,13581],[1.5,13666],[1.5,13749],[1.5,13831],[1.5,13916],[1.5,14000],[1.5,14081],[1.5,14166],[1.5,14250],[1.5,14331],[1.5,14416],[1.5,14499],[1.5,14582],[1.5,14664],[1.5,14750],[1.5,14832],[1.5,14916],[1.5,14999],[1.5,15082],[1.5,15166],[1.5,15249],[1.5,15331],[1.5,15416],[1.5,15499],[1.5,15581],[1.5,15666],[1.5,15750],[1.5,15831],[1.5,15916],[1.5,15999],[1.5,16081],[1.5,16166],[1.5,16249],[1.5,16331],[1.5,16414],[1.5,16499],[1.5,16582],[1.5,16666],[1.5,16749],[1.5,16831],[1.5,16916],[1.5,16999],[1.5,17081],[1.5,17164],[1.5,17249],[1.5,17331],[1.5,17416],[1.5,17499],[1.5,17582],[1.5,17666],[1.5,17749],[1.5,17831],[1.5,17916],[1.5,17999],[1.5,18081],[1.5,18166],[1.5,18248],[1.5,18331],[1.5,18416],[1.5,18499],[1.5,18581],[1.5,18664],[1.5,18749],[1.5,18831],[1.5,18916],[1.5,18999],[1.5,19081],[1.5,19166],[1.5,19249],[1.5,19331],[1.5,19416],[1.5,19499],[1.5,19581],[1.5,19666],[1.5,19749],[1.5,19831],[1.5,19916],[1.5,19999],[1.5,20081],[1.5,20164],[1.5,20249],[1.5,20331],[1.5,20414],[1.5,20499],[1.5,20581],[1.5,20664],[1.3,20749],[0.8,20831],[0.3,20916],[0.3,20999],[0.3,21081],[0.3,21166],[0.3,21249],[0.3,21331],[0.3,21414],[0.4,21499],[0.4,21581],[0.4,21664],[0.6,21749],[0.8,21831],[0.8,21916],[0.8,21998],[0.8,22081],[0.8,22164],[0.8,22249],[0.8,22331],[0.8,22414],[0.8,22499],[0.8,22581],[0.8,22664],[0.8,22749],[0.8,22831],[0.8,22914],[0.8,22999],[0.8,23081],[0.2,23164],[0.2,23249],[0.2,23331],[0.2,23414],[0.2,23498],[2,23581],[0.1,25164],[0.3,25249],[0.3,25331],[0.6,25416],[0.6,25499],[0.6,25581],[0.6,25664],[0.6,25749],[0.6,25831],[0.6,25914],[0.6,25999],[0.6,26081],[0.6,26164],[0.6,26248],[0.6,26331],[0.6,26414],[0.6,26499],[0.6,26581],[0.6,26664],[0.6,26748],[0.6,26831],[0.6,26916],[0.6,26999],[0.6,27081],[0.6,27164],[0.6,27249],[0.6,27331],[0.6,27414],[0.6,27499],[0.6,27581],[0.6,27664],[0.6,27748],[0.6,27831],[0.6,27914],[0.6,27998],[0.6,28081],[0.6,28164],[0.6,28248],[0.6,28331],[0.6,28414],[0.6,28498],[0.6,28581],[0.6,28664],[0.6,28749],[0.6,28831],[0.6,28914],[0.6,28999],[0.6,29081],[0.6,29166],[0.6,29248],[0.6,29331],[0.6,29414],[0.6,29498],[0.6,29581],[0.6,29664],[0.6,29748],[0.6,29831],[0.6,29914],[0.6,29998],[0.6,30081],[0.6,30164],[0.6,30250],[0.6,30331],[0.6,30414],[0.6,30499],[0.6,30581],[0.6,30664],[2.1,30749],[17.9,30831],[33.3,30914],[42.2,30999],[45,31081],[46.4,31166],[59,31248],[78.9,31331],[90,31414],[90.6,31499],[90.6,31581],[90.6,31664],[90.6,31748],[90.6,31831],[90.6,31914],[93.4,31998],[95.9,32081],[98.9,32164],[99.1,32249],[100,32331],[100,32413],[100,32498],[100,32581],[100,32664],[100,32748],[100,32831],[100,32914],[100,32999],[100,33081],[100,33164],[100,33248],[100,33331],[100,33413],[100,33498],[100,33581],[100,33663],[100,33748],[100,33831],[100,33913],[100,33998],[100,34081],[100,34164],[100,34248],[100,34331],[100,34414],[100,34498],[100,34581],[100,34664],[100,34748],[100,34831],[100,34914],[100,34998],[100,35081],[100,35164],[100,35248],[100,35331],[100,35414],[100,35498],[100,35581],[100,35664],[99.8,35749],[99.7,35831],[99.7,35914],[99.7,35998],[99.7,36081],[99.7,36163],[99.7,36248],[99.7,36331],[99.7,36413],[99.7,36498],[99.7,36581],[99.7,36664],[99.7,36748],[99.6,36831],[99.6,36913],[99.4,36998],[99.2,37081],[98.9,37163],[98.3,37248],[97.9,37331],[97.8,37413],[97.8,37498],[97.1,37581],[96.1,37664],[94.7,37749],[93.6,37831],[93.1,37914],[92.7,37998],[92.3,38081],[92.3,38163],[92.3,38248],[92.3,38331],[92.3,38414],[92.3,38496],[92.3,38581],[92.3,38663],[92.3,38748],[92.3,38831],[92.3,38913],[92.3,38998],[92.3,39081],[92.3,39163],[92.3,39248],[92.3,39331],[92.3,39413],[92.3,39498]]",1,0,944.066,946.547,92.29166667,0.558,"[{""rating"":92.29166666666666,""responseTime"":0.5579999999999927}]",space,1.936,,946.547,Partially,50,946.553,,,[],,0,18,18,18,1,audio/Narrative8Situation9.wav,audio/Narrative7Situation9.wav,audio/Narrative6Situation9.wav,audio/Narrative5Situation9.wav,3,2,4,3,,,,,,,,,,,,,,,,,,,,,,,,,,,,,,,,,,,,,,,
,,,,,,5dd6dadf9c84d86703aa8615,2024-05-13_11h53.48.780,group3.1-3.2-social-tom,2023.2.2,Win32,60.0240096,65c5074098b851296ff0b7ed,6642377634db0800e43dc24d,,,,,,,,,,,,,,,,,,,,,,,,,,,,,,,,,,,,,,,,,,,,,,,,,,,,,,,,,,,,,,,,,,,,,,,,946.553,952.645,space,5.574,,952.645,966.695,space,13.732,,,,,,,,,,,,,,,,,,,,,,,,,,
,,,,,,5dd6dadf9c84d86703aa8615,2024-05-13_11h53.48.780,group3.1-3.2-social-tom,2023.2.2,Win32,60.0240096,65c5074098b851296ff0b7ed,6642377634db0800e43dc24d,,,,,,,,,,,,,,,,,,,,,,,,,,,,,969.288,1,audio/Narrative7Situation9.wav,971.295,,,,,,,1003.183,1005.51,0.520833333,1.09,"[{""rating"":0.5208333333333315,""responseTime"":1.0900000000000318}]",space,1.785,,1003.178,Definitely yes,100,1003.183,,,[],,,,,,,,,,,2,2,2,2,,,,,,,,,,,,,,,966.699,969.279,971.295,3,1003.177,"[[76.1,167],[72.4,251],[70.1,333],[69.7,416],[67.3,500],[64.2,584],[64.2,666],[64.2,750],[64.2,833],[63.6,917],[62.6,999],[62.6,1083],[62.6,1167],[62.6,1250],[62.6,1333],[62.6,1416],[62.6,1500],[62.6,1581],[62.6,1666],[62.6,1749],[62.6,1833],[62.6,1916],[62.6,2000],[62.6,2081],[62.6,2166],[62.6,2250],[62.6,2333],[62.6,2416],[62.6,2499],[62.6,2583],[62.6,2666],[62.6,2750],[62.6,2833],[62.6,2916],[62,2999],[50.6,3083],[25.8,3167],[12.2,3250],[3,3333]]",0,0,0,0,1,"Larry had recently lost his family, job and home, and was now living on his own in the park. He had most of his belongings, including some clothes, a blanket, and his mother’s special necklace. His family had been very important to him and he felt as though he did not have much going for him. One of his first days in the park he came across a family that did not have much food and looked very cold. He decided to give them some of his food and his blanket.","Larry had recently lost his family, job and home, and was now living on his own in the park. He had most of his belongings, including some clothes, a blanket, and his mother’s special necklace. His family had been very important to him and he felt as though he did not have much going for him. One of his first days in the park he came across a family that did not have much food and looked very cold. He decided to give them some of his food and his blanket.","Larry had recently lost his family, job and home, and was now living on his own in the park. He had most of his belongings, including some clothes, a blanket, and his mother’s special necklace. His family had been very important to him and he felt as though he did not have much going for him. One of his first days in the park he came across a family that did not have much food and looked very cold. He decided to give them some of his food and his blanket.","Larry had recently lost his family, job and home, and was now living on his own in the park. He had most of his belongings, including some clothes, a blanket, and his mother’s special necklace. His family had been very important to him and he felt as though he did not have much going for him. One of his first days in the park he came across a family that did not have much food and looked very cold. He decided to give them some of his food and his blanket.",,,,,,,,,,
,,,,,,5dd6dadf9c84d86703aa8615,2024-05-13_11h53.48.780,group3.1-3.2-social-tom,2023.2.2,Win32,60.0240096,65c5074098b851296ff0b7ed,6642377634db0800e43dc24d,,,,,,,,,,,,,,,,,,,,,,,,,,,,,1005.51,1,audio/Narrative7Situation9.wav,1008.644,space,,,,,,1032.497,1034.225,0.9375,1.073,"[{""rating"":0.9375000000000022,""responseTime"":1.0730000000000928}]",space,1.184,,1032.493,Definitely yes,100,1032.497,,,[],,,,,,,,,,,6,2,3,9,3.122,,,,,,,,,,,,,,,,1008.644,3,1032.492,"[[999,0],[999,82],[999,165],[999,249],[999,332],[999,415],[999,499],[999,581],[999,666],[999,748],[999,831],[999,915],[999,998],[999,1081],[999,1165],[999,1248],[999,1331],[999,1415],[999,1498],[999,1581],[999,1666],[999,1748],[999,1831],[2,1916],[2.6,1998],[2.6,2081],[2.6,2165],[2.5,2248],[2.5,2331],[2.2,2415],[1.9,2497],[1.9,2581],[1.7,2665],[1.7,2748],[1.7,2831],[1.7,2914],[1.7,2998],[1.7,3081],[1.7,3165],[1.7,3248],[1.7,3331],[1.7,3414],[1,3498],[1,3581],[1,3664],[1,3748],[1,3830],[1,3914],[1,3998],[1,4081],[1,4164],[1,4248],[1,4331],[1,4414],[1,4498],[1,4581],[1,4664],[1,4747],[1,4831],[1,4914],[1,4998],[1,5081],[1,5164],[1,5248],[1,5331],[1,5414],[1,5498],[1,5581],[1,5664],[1,5747],[1,5831],[1,5914],[1,5998],[1,6081],[1,6164],[1,6247],[1,6331],[1,6414],[1,6497],[1,6580],[1,6664],[1,6747],[1,6830],[1,6914],[1,6997],[1,7081],[1,7164],[1,7247],[1,7331],[1,7414],[1,7497],[1,7581],[1,7664],[1,7748],[1,7830],[1,7914],[1,7997],[1,8081],[1,8164],[1,8247],[1,8331],[1,8414],[1,8497],[1,8581],[1,8664],[1,8747],[1,8830],[1,8914],[1,8997],[1,9080],[1,9164],[1,9247],[1,9331],[1,9414],[1,9497],[1,9580],[1,9664],[1,9747],[1,9830],[1,9914],[1,9997],[1,10080],[1,10164],[1,10247],[1,10330],[1,10414],[1,10497],[1,10580],[1,10663],[1,10748],[1,10830],[1,10914],[1,10997],[1,11080],[1,11164],[1,11247],[1,11331],[1,11414],[1,11497],[1,11580],[1,11664],[1,11747],[1,11830],[1,11913],[1,11997],[1,12080],[1,12164],[1,12247],[1,12330],[1,12414],[1,12497],[1,12580],[1,12664],[1,12748],[1,12830],[1,12914],[1,12998],[1,13081],[1,13164],[1,13247],[1,13330],[1,13414],[1,13497],[1,13580],[1,13664],[1,13747],[1,13831],[1,13914],[1,13997],[1,14080],[1,14164],[1,14247],[1,14330],[1,14413],[1,14496],[1,14580],[1,14664],[1,14747],[1,14830],[1,14914],[1,14997],[1,15080],[1,15164],[1,15247],[1,15330],[1,15414],[1,15497],[1,15580],[1,15663],[1,15747],[1,15831],[1,15913],[1,15996],[1,16081],[1,16163],[1,16247],[1,16330],[1,16414],[1,16497],[1,16580],[1,16663],[1,16747],[1,16830],[1,16913],[1,16997],[1,17080],[1,17163],[1,17246],[1,17330],[1,17414],[1,17497],[1,17581],[1,17663],[1,17747],[1,17830],[1,17914],[1,17997],[1,18080],[1,18163],[1,18247],[1,18331],[1,18414],[1,18497],[1,18580],[1,18663],[1,18747],[1,18830],[1,18913],[1,18997],[1,19080],[1,19164],[1,19246],[1,19330],[1,19413],[1,19497],[1,19580],[1,19663],[1,19747],[1,19830],[1,19914],[1,19997],[1,20080],[1,20163],[1,20247],[1,20330],[1,20413],[1,20497],[1,20580],[1,20663],[1,20747],[1,20830],[1,20913],[1,20997],[1,21080],[1,21164],[1,21247],[1,21330],[1,21413],[1,21497],[1,21580],[1,21663],[1,21747],[1,21830],[1,21913],[1,21997],[1,22080],[1,22163],[1,22247],[1,22329],[1,22413],[1,22497],[1,22580],[1,22663],[1,22747],[1,22830],[1,22913],[1,22996],[1,23080],[1,23163],[1,23247],[1,23330],[1,23413],[1,23496],[1,23580],[1,23663],[1,23747],[1,23830]]",0,1,1,1,1,"It was just another Sunday afternoon for Lucy, she was on her way to the farmer's market to pick up some produce. When she arrived at the old train depot that housed the market, she noticed two men fighting on the steps. Before she could call for help, one of the men crumpled to his knees. The other man dropped an object that appeared to be a knife and ran off. When Lucy approached the crime scene she realized that the man who had been murdered was the Mayor and that he had a gunshot wound.","One day at work, Margaret walked up to her partner, Al, to ask him to talk to the chief of staff at the local hospital where she worked as a nurse.","Luke always thought of himself as an honest man. That's why during his evening jog around the swamp, he pondered his recent affair with the receptionist at work. Luke looked up at the sky and asked God why he was so weak and unfaithful. He thought of the impact this would have on his family and told God of his conflicted feelings toward telling his wife Marta.","Linda and Amy had been best friends since kindergarten, they even found homes on the same street in the forest on the edge of town. Their biggest fight had been over who gets the bigger slice of cake, until Amy married Dan. Linda loathed Dan, she thought he was manipulative and had a violent temper. She only put up with him because Amy loved him. ",,,,,,,,,,
