exp_question,consent.started,consent.stopped,consentResponse.keys,consentResponse.rt,consentResponse.duration,participantID,date,expName,psychopyVersion,OS,frameRate,STUDY_ID,SESSION_ID,opening1.started,opening1.stopped,keyEndingOpening1.keys,keyEndingOpening1.rt,keyEndingOpening1.duration,volumeAdjust.started,volumeAdjust.stopped,endingAdjust.keys,endingAdjust.rt,endingAdjust.duration,opening2.started,opening2.stopped,keyEndingOpening.keys,keyEndingOpening.rt,keyEndingOpening.duration,mouse.x,mouse.y,mouse.leftButton,mouse.midButton,mouse.rightButton,mouse.time,instructionLoop.thisRepN,instructionLoop.thisTrialN,instructionLoop.thisN,instructionLoop.thisIndex,instructionLoop.ran,readyForAudio.started,readyForAudio.stopped,fixation.started,run,audio_played,fixation.stopped,endPractice.keys,audioPre.started,audioPre.stopped,continuousResponses_audio,continuousSlider.response,continuousSlider.rt,intRating.started,intRating.stopped,intQuestionSlider.response,intQuestionSlider.rt,intQuestionSlider.history,confirmResponse.keys,confirmResponse.rt,confirmResponse.duration,catchQuestion.started,catch_label,catch_value,catchQuestion.stopped,catchQuestionSlider.response,catchQuestionSlider.rt,catchQuestionSlider.history,confirmResponse_2.keys,audioRunLoop.thisRepN,audioRunLoop.thisTrialN,audioRunLoop.thisN,audioRunLoop.thisIndex,audioRunLoop.ran,conditions1_1,conditions2_1,conditions1_2,conditions2_2,dur1_1,dur2_1,dur1_2,dur2_2,endPractice.rt,endPractice.duration,confirmResponse_2.rt,confirmResponse_2.duration,runIntervalBreak.started,runIntervalBreak.stopped,endingBreakKey.keys,endingBreakKey.rt,endingBreakKey.duration,connection.started,connection.stopped,connectionEnding.keys,connectionEnding.rt,connectionEnding.duration,readyForText.started,readyForText.stopped,textPre.started,run_dup,textPre.stopped,continuousResponses_text,textRunLoop.thisRepN,textRunLoop.thisTrialN,textRunLoop.thisN,textRunLoop.thisIndex,textRunLoop.ran,text1_1,text1_2,text2_1,text2_2,runBreakText.started,runBreakText.stopped,endingBreakKey_2.keys,endingBreakKey_2.rt,endingBreakKey_2.duration,ending.started,ending.stopped,endingEnding.keys,endingEnding.rt,endingEnding.duration
tom,0.0002,60.6416,y,60.3247,,5e126c25a98a7a8fab258f14,2024-02-08_16h08.49.546,group3.1-3.2-social-tom,2023.2.2,MacIntel,40,65c5074098b851296ff0b7ed,65c5418d8f6ee27482552758,,,,,,,,,,,,,,,,,,,,,,,,,,,,,,,,,,,,,,,,,,,,,,,,,,,,,,,,,,,,,,,,,,,,,,,,,,,,,,,,,,,,,,,,,,,,,,,,,,,,,,,,,,
,,,,,,5e126c25a98a7a8fab258f14,2024-02-08_16h08.49.546,group3.1-3.2-social-tom,2023.2.2,MacIntel,40,65c5074098b851296ff0b7ed,65c5418d8f6ee27482552758,60.6417,64.6833,space,4.0366,,,,,,,,,,,,,,,,,,,,,,,,,,,,,,,,,,,,,,,,,,,,,,,,,,,,,,,,,,,,,,,,,,,,,,,,,,,,,,,,,,,,,,,,,,,,,,,,,,,,,,
,,,,,,5e126c25a98a7a8fab258f14,2024-02-08_16h08.49.546,group3.1-3.2-social-tom,2023.2.2,MacIntel,40,65c5074098b851296ff0b7ed,65c5418d8f6ee27482552758,,,,,,64.6833,81.0307,space,16.0395,,,,,,,,,,,,,,,,,,,,,,,,,,,,,,,,,,,,,,,,,,,,,,,,,,,,,,,,,,,,,,,,,,,,,,,,,,,,,,,,,,,,,,,,,,,,,,,,,
,,,,,,5e126c25a98a7a8fab258f14,2024-02-08_16h08.49.546,group3.1-3.2-social-tom,2023.2.2,MacIntel,40,65c5074098b851296ff0b7ed,65c5418d8f6ee27482552758,,,,,,,,,,,81.0372,92.2035,space,11.1623,,[],[],[],[],[],[],0,0,0,0,1,,,,,,,,,,,,,,,,,,,,,,,,,,,,,,,,,,,,,,,,,,,,,,,,,,,,,,,,,,,,,,,,,,,,,,,,,,,,,,,,
,,,,,,5e126c25a98a7a8fab258f14,2024-02-08_16h08.49.546,group3.1-3.2-social-tom,2023.2.2,MacIntel,40,65c5074098b851296ff0b7ed,65c5418d8f6ee27482552758,,,,,,,,,,,92.2084,104.8769,space,12.6649,,[],[],[],[],[],[],1,0,1,0,1,,,,,,,,,,,,,,,,,,,,,,,,,,,,,,,,,,,,,,,,,,,,,,,,,,,,,,,,,,,,,,,,,,,,,,,,,,,,,,,,
,,,,,,5e126c25a98a7a8fab258f14,2024-02-08_16h08.49.546,group3.1-3.2-social-tom,2023.2.2,MacIntel,40,65c5074098b851296ff0b7ed,65c5418d8f6ee27482552758,,,,,,,,,,,104.8818,125.1966,space,20.3117,,[],[],[],[],[],[],2,0,2,0,1,,,,,,,,,,,,,,,,,,,,,,,,,,,,,,,,,,,,,,,,,,,,,,,,,,,,,,,,,,,,,,,,,,,,,,,,,,,,,,,,
,,,,,,5e126c25a98a7a8fab258f14,2024-02-08_16h08.49.546,group3.1-3.2-social-tom,2023.2.2,MacIntel,40,65c5074098b851296ff0b7ed,65c5418d8f6ee27482552758,,,,,,,,,,,125.2013,137.5726,space,12.3668,,[],[],[],[],[],[],3,0,3,0,1,,,,,,,,,,,,,,,,,,,,,,,,,,,,,,,,,,,,,,,,,,,,,,,,,,,,,,,,,,,,,,,,,,,,,,,,,,,,,,,,
,,,,,,5e126c25a98a7a8fab258f14,2024-02-08_16h08.49.546,group3.1-3.2-social-tom,2023.2.2,MacIntel,40,65c5074098b851296ff0b7ed,65c5418d8f6ee27482552758,,,,,,,,,,,137.5772,148.9101,space,11.3291,,[],[],[],[],[],[],4,0,4,0,1,,,,,,,,,,,,,,,,,,,,,,,,,,,,,,,,,,,,,,,,,,,,,,,,,,,,,,,,,,,,,,,,,,,,,,,,,,,,,,,,
,,,,,,5e126c25a98a7a8fab258f14,2024-02-08_16h08.49.546,group3.1-3.2-social-tom,2023.2.2,MacIntel,40,65c5074098b851296ff0b7ed,65c5418d8f6ee27482552758,,,,,,,,,,,,,,,,,,,,,,,,,,,148.9153,151.4986,151.5073,1,audio/Narrative13Situation2.wav,153.5239,,153.524,183.2831,"[[999,0],[999,78],[999,152],[999,226],[999,300],[999,391],[999,465],[999,540],[999,613],[999,687],[999,762],[999,836],[999,909],[999,984],[999,1057],[999,1131],[999,1205],[999,1280],[999,1354],[999,1429],[999,1503],[999,1577],[999,1651],[999,1725],[999,1800],[999,1873],[999,1948],[999,2022],[999,2096],[999,2172],[999,2253],[999,2334],[999,2411],[999,2485],[999,2559],[999,2633],[999,2707],[999,2781],[999,2856],[999,2930],[999,3014],[999,3089],[999,3163],[999,3238],[999,3313],[999,3387],[999,3461],[999,3535],[999,3609],[999,3689],[999,3763],[999,3839],[999,3915],[999,3992],[999,4068],[61.9,4142],[61.9,4217],[61.9,4291],[61.9,4366],[61.9,4441],[60.6,4517],[59,4593],[58.2,4668],[58.1,4743],[57.9,4819],[57.7,4894],[57.7,4969],[57.7,5044],[57.7,5120],[57.7,5195],[57.7,5270],[57.7,5346],[57.8,5420],[57.9,5496],[58.4,5570],[59.4,5645],[60.1,5721],[60.8,5796],[61.4,5872],[61.5,5947],[61.5,6022],[61.6,6098],[61.6,6173],[61.6,6249],[61.6,6324],[61.6,6400],[61.6,6474],[61.6,6549],[61.7,6624],[64.1,6699],[66.8,6775],[67.8,6850],[67.8,6925],[67.8,7000],[67,7076],[66.8,7153],[66.8,7228],[66.8,7303],[68.4,7380],[71.6,7456],[72.6,7532],[72.7,7606],[72.7,7682],[72.7,7757],[72.6,7833],[72.5,7909],[72.5,7983],[72.5,8057],[72.5,8131],[72.5,8206],[72.5,8281],[72.5,8357],[72.5,8432],[72.5,8508],[72.5,8583],[72.2,8658],[72.2,8734],[72.2,8809],[72.2,8885],[72.2,8961],[70.8,9037],[70.2,9113],[70.2,9188],[70.2,9262],[70.2,9338],[70.2,9413],[70.2,9488],[70.2,9564],[70.2,9639],[71.1,9715],[75,9791],[75.9,9869],[75.9,9947],[75.9,10022],[75.9,10098],[75.9,10172],[75.9,10247],[75.9,10322],[75.9,10397],[75.9,10471],[75.5,10548],[72.3,10623],[70.5,10701],[70.3,10777],[70.3,10853],[70.3,10928],[70.3,11004],[70.3,11079],[70.3,11154],[70.3,11228],[70.3,11303],[70.3,11378],[70.3,11454],[70.3,11529],[70.3,11604],[70.3,11679],[70.3,11754],[70.3,11829],[70.3,11904],[70.3,11979],[70.3,12055],[70.3,12130],[70.3,12204],[70.3,12280],[70.3,12355],[70.3,12430],[69.3,12507],[68.8,12582],[68.6,12659],[68.2,12735],[68.1,12811],[68.1,12885],[68.1,12961],[68.1,13037],[68.1,13112],[68.1,13188],[68.1,13263],[68.1,13339],[68.1,13413],[68.1,13488],[68.1,13563],[68.1,13639],[68.1,13714],[68.1,13790],[68.1,13865],[68.1,13941],[67.9,14016],[67.1,14091],[65.7,14167],[65,14242],[65,14317],[65,14391],[65,14466],[65,14541],[65,14615],[65,14690],[65,14765],[65,14840],[65,14914],[65,14989],[65,15064],[65,15139],[65,15215],[65,15290],[65,15365],[65,15440],[65,15515],[65,15590],[65,15665],[65,15740],[65,15815],[65,15890],[65,15965],[65,16040],[65,16116],[65,16191],[65,16266],[65,16341],[65,16416],[65,16490],[65,16564],[65,16639],[65,16714],[65,16789],[65,16864],[65,16939],[65,17014],[65,17089],[65,17164],[65,17239],[65,17314],[65,17389],[65,17464],[65,17539],[65,17614],[65,17690],[65,17765],[65,17840],[65,17916],[65,17991],[65,18066],[65,18141],[65,18217],[65,18292],[65,18367],[65,18442],[65,18517],[65,18593],[65,18669],[65,18744],[65,18819],[60.9,18898],[57.1,18975],[55.3,19051],[53.7,19127],[52.9,19204],[52.3,19279],[50.6,19355],[46.4,19430],[43.6,19506],[42.2,19582],[42.1,19659],[42.1,19734],[42.1,19810],[42.1,19885],[42.1,19960],[42.1,20035],[42.1,20111],[40,20187],[37.6,20263],[34.3,20339],[30.8,20415],[30,20491],[29,20566],[28.5,20642],[27.7,20718],[26.4,20795],[25.9,20870],[25.9,20946],[25.9,21021],[25.9,21096],[25.9,21171],[25.9,21246],[25.9,21322],[25.9,21397],[25.9,21472],[25.9,21547],[25.9,21622],[25.9,21697],[25.9,21772],[25.9,21847],[25.9,21922],[25.9,21998],[25.9,22073],[25.9,22148],[25.9,22223],[25.9,22298],[26,22373],[26.3,22450],[26.7,22526],[26.7,22602],[27,22678],[27.1,22754],[27.1,22829],[27.1,22904],[27.1,22980],[27.1,23055],[27.1,23130],[27.1,23205],[27.1,23279],[27.2,23356],[27.3,23431],[27.3,23507],[27.3,23583],[27.3,23657],[27.3,23732],[27.3,23807],[27.3,23881],[27.3,23956],[27.3,24032],[27.3,24108],[27.3,24182],[27.3,24257],[27.3,24333],[28.5,24409],[30.2,24486],[31,24561],[31,24636],[31,24711],[33.7,24787],[41.1,24863],[44.8,24939],[45.7,25016],[45.7,25090],[45.7,25165],[45.7,25240],[47.4,25316],[53,25391],[53.9,25467],[53.9,25542],[53.9,25617],[53.9,25692],[53.9,25766],[55.2,25841],[61.5,25917],[65.3,25994],[67.8,26068],[68.6,26145],[68.6,26218],[68.6,26293],[68.6,26369],[69,26443],[70.6,26518],[71.3,26594],[71.3,26669],[71.3,26744],[71.3,26818],[71.3,26893],[71.3,26968],[71.3,27043],[71.3,27117],[71.3,27190],[71.3,27265],[71.3,27339],[71.3,27414],[71.6,27490],[72.5,27564],[73.9,27640],[76.5,27716],[77.2,27792],[77.2,27866],[77.2,27941],[77.2,28014],[77.2,28089],[77.2,28163],[77.2,28237],[77.2,28311],[77.2,28385],[77.2,28459],[77.2,28534],[77.2,28608],[77.2,28682],[77.2,28757],[77.2,28831],[77.2,28905],[77.2,28980],[77.2,29055],[77.2,29130],[77.2,29205],[77.1,29280],[76.9,29357],[76.9,29431],[76.9,29506],[76.9,29583],[76.9,29658],[76.9,29733]]",1,0,183.2834,195.5968,45.35997179,11.2263,"[{""rating"":45.35997178819444,""responseTime"":11.226299999952317}]",space,11.7769,,195.5969,All the time,100,195.5988,,,[],,0,0,0,0,1,audio/Narrative13Situation2.wav,audio/Narrative13Situation2.wav,audio/Narrative13Situation2.wav,audio/Narrative13Situation2.wav,2,2,2,2,,,,,,,,,,,,,,,,,,,,,,,,,,,,,,,,,,,,,,,
,,,,,,5e126c25a98a7a8fab258f14,2024-02-08_16h08.49.546,group3.1-3.2-social-tom,2023.2.2,MacIntel,40,65c5074098b851296ff0b7ed,65c5418d8f6ee27482552758,,,,,,,,,,,,,,,,,,,,,,,,,,,,,195.5991,1,audio/Narrative7Situation1.wav,197.2264,space,197.2264,253.1484,"[[999,0],[999,75],[999,149],[999,224],[999,297],[999,370],[999,444],[999,517],[999,590],[999,665],[999,739],[999,813],[999,888],[999,961],[999,1035],[999,1110],[50.8,1187],[51.8,1263],[51.8,1338],[51.7,1413],[51.2,1490],[51.2,1566],[51.2,1640],[51.2,1715],[51,1791],[51,1867],[51,1942],[51,2017],[51,2091],[51,2165],[51,2240],[51,2314],[51,2388],[51.5,2463],[52.2,2539],[52.4,2614],[53.2,2689],[54.9,2763],[56.3,2836],[57,2912],[57.6,2986],[57.7,3061],[57.7,3136],[57.7,3211],[57.7,3286],[57.7,3361],[57.7,3435],[57.7,3511],[57.7,3585],[57.7,3659],[57.7,3733],[57.7,3808],[57.7,3883],[58.4,3959],[58.7,4034],[58.7,4109],[58.7,4185],[56.8,4260],[51,4336],[47.1,4411],[46.6,4487],[46.4,4561],[45.8,4637],[45.4,4712],[45.4,4787],[45.4,4863],[45.4,4938],[45.4,5013],[45.4,5087],[45.4,5161],[45.4,5235],[45.4,5309],[45.4,5383],[45.4,5457],[45.4,5532],[44.5,5607],[43.3,5682],[42.8,5758],[42.3,5833],[41.7,5909],[40.7,5984],[40.4,6060],[40.2,6134],[39.8,6210],[39.7,6284],[39.7,6360],[39.7,6434],[39.7,6509],[39.7,6584],[39.7,6659],[39.7,6734],[39.7,6809],[39.7,6884],[39.7,6958],[39.7,7032],[39.7,7105],[39.7,7180],[39.7,7254],[39.4,7329],[38.7,7404],[38.1,7479],[37.9,7555],[37.9,7630],[37.7,7706],[37.7,7781],[37.7,7856],[37.7,7931],[37.7,8006],[37.7,8081],[37.7,8157],[37.7,8232],[37.7,8307],[37.7,8382],[37.7,8457],[37.7,8531],[37.7,8605],[37.7,8681],[38.5,8755],[39.4,8830],[39.5,8905],[40.9,8980],[43.5,9056],[45.7,9130],[47.4,9206],[48.3,9281],[48.9,9357],[50.5,9433],[50.9,9507],[50.9,9582],[50.9,9657],[50.9,9733],[50.9,9808],[50.9,9883],[50.9,9958],[50.9,10032],[50.9,10105],[51.4,10180],[56.6,10257],[59.5,10332],[59.6,10407],[59.6,10482],[59.6,10557],[59.6,10632],[59.6,10707],[59.6,10782],[59.6,10857],[59.6,10931],[59.6,11006],[59.6,11080],[59.6,11153],[59.6,11227],[59.6,11302],[59.6,11375],[59.6,11450],[59.6,11524],[59.6,11598],[59.6,11672],[59.6,11746],[59.6,11819],[59.6,11893],[59.6,11968],[59.9,12044],[60.7,12119],[61,12194],[61.8,12270],[62.8,12345],[63.6,12421],[64.5,12495],[65.3,12570],[66.1,12646],[67,12721],[67.9,12797],[68,12873],[68,12948],[68,13024],[68,13098],[69.8,13174],[72.7,13250],[72.9,13325],[72.9,13400],[72.9,13476],[72.9,13551],[72.9,13628],[72.9,13702],[72.9,13777],[72.9,13850],[72.9,13925],[72.9,13999],[72.9,14074],[72.4,14149],[71.5,14224],[71.4,14300],[71.4,14376],[71.8,14451],[73.2,14526],[73.4,14602],[73.6,14677],[75.9,14751],[76.5,14827],[76.5,14901],[76.5,14977],[76.5,15051],[76.5,15127],[76.5,15202],[76.5,15276],[76.5,15351],[76.8,15426],[77.5,15502],[78.7,15578],[80.1,15654],[80.3,15729],[80.3,15803],[80.3,15877],[80.3,15951],[80.3,16026],[80.3,16099],[80.3,16172],[80.3,16246],[80.3,16321],[80.3,16396],[80.3,16471],[80.3,16546],[80.3,16621],[80.3,16696],[80.3,16771],[80.3,16845],[79.8,16921],[79.5,16995],[79.2,17071],[78.7,17147],[78.2,17222],[77.9,17297],[77.7,17373],[77.7,17447],[77.6,17523],[77.6,17598],[77.6,17673],[77.6,17748],[77.6,17823],[77.6,17898],[77.6,17972],[77.6,18047],[77.6,18122],[77.6,18196],[77.6,18271],[77.6,18346],[78.5,18421],[79.8,18497],[80.5,18572],[80.7,18647],[80.7,18722],[80.7,18797],[80.7,18872],[80.7,18946],[80.7,19021],[80.7,19096],[80.7,19171],[80.7,19246],[80.7,19320],[80.7,19394],[80.7,19470],[80.3,19546],[79.7,19622],[79,19697],[78.6,19772],[78.6,19847],[78.6,19923],[78.6,19998],[78.6,20072],[78.6,20147],[78.6,20221],[78.6,20296],[78.6,20370],[78.6,20443],[78.6,20518],[78.6,20593],[78.6,20668],[77.7,20742],[77.1,20818],[77,20895],[76.9,20970],[76.8,21046],[76.8,21120],[76.8,21194],[76.8,21269],[76.8,21344],[76.8,21420],[76.8,21494],[76.8,21567],[76.8,21641],[76.8,21714],[76.8,21788],[76.8,21862],[76.8,21937],[76.8,22012],[76.4,22087],[76.1,22162],[76,22236],[76,22311],[76,22386],[76,22461],[76,22535],[76,22610],[76,22684],[76,22759],[76,22833],[76,22907],[76,22982],[76,23056],[76,23131],[76,23206],[76,23280],[76,23355],[76,23430],[76,23505],[76,23580],[76,23656],[76,23731],[76,23806],[76,23881],[76,23955],[76,24030],[76,24105],[76,24179],[76,24254],[76,24328],[76,24403],[75.4,24478],[73.8,24553],[70.6,24629],[67.1,24705],[64.8,24781],[64.5,24856],[64.2,24930],[64.2,25005],[64.2,25080],[64.2,25154],[64.2,25230],[64.2,25304],[64.2,25378],[64.2,25452],[64.2,25526],[64.2,25601],[64.2,25676],[63.2,25751],[61.9,25825],[60,25899],[56.3,25975],[53.4,26050],[52.1,26125],[51.1,26200],[50.5,26276],[50.5,26351],[50.5,26425],[50.5,26500],[50.5,26575],[50.7,26650],[50.7,26726],[50.7,26800],[50.7,26875],[50.7,26951],[50.7,27026],[50.7,27101],[50.7,27176],[50.7,27250],[50.7,27325],[50.7,27399],[50.4,27475],[50.4,27550],[50.4,27625],[51.7,27703],[55.7,27778],[57.3,27853],[57.7,27928],[57.7,28004],[57.7,28078],[57.7,28153],[57.7,28229],[57.7,28304],[57.7,28380],[57.7,28456],[57.7,28529],[57.7,28604],[57.7,28678],[57.7,28752],[57.7,28826],[57.7,28899],[57.7,28972],[57.7,29046],[57.7,29121],[57.7,29195],[57.7,29270],[57.8,29346],[58.4,29421],[59.2,29497],[60,29572],[60.3,29647],[60.4,29722],[60.4,29796],[60.4,29871],[60.4,29946],[60.4,30020],[60.4,30095],[60.4,30170],[60.4,30244],[60.4,30318],[60.4,30393],[60.4,30468],[60.4,30542],[60.4,30617],[60.4,30692],[60.4,30767],[60.4,30841],[60.4,30916],[60.4,30991],[60.4,31066],[60.4,31141],[60.4,31216],[60.4,31290],[61.1,31365],[61.8,31440],[62.3,31515],[62.4,31589],[62.5,31664],[62.5,31738],[62.5,31812],[62.5,31887],[62.5,31962],[62.5,32037],[62.5,32111],[62.5,32185],[62.5,32259],[62.5,32334],[62.5,32408],[62.5,32483],[62.5,32559],[62.5,32633],[62.5,32707],[62.5,32781],[62.6,32855],[62.6,32929],[62.7,33005],[62.8,33080],[62.9,33155],[63.1,33230],[63.2,33305],[63.2,33381],[63.2,33455],[63.2,33529],[63.2,33604],[63.2,33679],[63.2,33753],[63.2,33826],[63.2,33900],[63.2,33974],[63.2,34048],[63.2,34121],[63.2,34196],[63.2,34271],[63.2,34346],[63.2,34421],[63.2,34496],[63.3,34572],[63.4,34647],[63.6,34722],[63.9,34798],[63.9,34873],[63.9,34948],[63.9,35023],[63.9,35097],[63.9,35173],[63.9,35247],[63.9,35322],[63.9,35396],[63.9,35472],[63.9,35547],[63.9,35622],[63.9,35697],[63.9,35772],[63.9,35846],[64,35921],[64.1,35996],[64.2,36071],[64.4,36147],[64.7,36222],[65,36298],[65.2,36373],[65.2,36449],[65.2,36524],[65.2,36598],[65.2,36673],[65.2,36748],[65.2,36823],[65.2,36898],[65.2,36972],[65.2,37046],[65.2,37122],[65.2,37196],[65.2,37270],[65.2,37346],[65.2,37420],[65.2,37495],[65.2,37570],[65.2,37645],[65.2,37719],[65.2,37794],[65.2,37869],[65.2,37944],[65.1,38018],[65.1,38093],[65.1,38167],[65.1,38242],[65.1,38317],[65.1,38392],[65.1,38466],[65.1,38541],[65.1,38616],[65.1,38691],[65.1,38766],[65.3,38841],[65.4,38914],[65.5,38990],[65.6,39065],[65.6,39139],[65.6,39214],[65.6,39289],[65.6,39364],[65.6,39439],[65.6,39513],[65.6,39587],[65.6,39663],[65.6,39737],[65.6,39812],[65.6,39886],[65.6,39960],[65.6,40035],[65.6,40110],[65.6,40185],[65.6,40259],[65.6,40334],[65.6,40409],[65.6,40484],[65.6,40559],[65.6,40634],[65.6,40709],[65.6,40784],[65.6,40859],[65.6,40933],[65.6,41008],[65.6,41083],[65.6,41158],[65.6,41232],[65.6,41307],[65.6,41382],[65.6,41456],[65.6,41531],[65.6,41607],[65.6,41682],[65.6,41757],[65.6,41832],[65.6,41907],[65.6,41981],[65.6,42055],[65.6,42129],[65.6,42204],[65.6,42278],[65.6,42352],[65.6,42428],[65.6,42502],[65.2,42577],[63.7,42653],[60.9,42728],[57.5,42803],[55,42878],[54.4,42953],[54,43029],[53,43104],[52.6,43178],[52.1,43253],[51.3,43328],[50.7,43403],[50.5,43479],[50.5,43554],[50.5,43629],[50.5,43703],[50.2,43778],[49.7,43853],[49.5,43928],[49.5,44003],[49.5,44077],[49.5,44151],[49.5,44226],[49.5,44301],[49.5,44375],[49.5,44451],[49.5,44525],[49.5,44600],[49.5,44675],[49.5,44750],[49.5,44825],[49.5,44899],[49.5,44973],[49.5,45047],[49.5,45120],[49.5,45194],[49.5,45268],[49.5,45341],[49.5,45415],[49.5,45489],[49.5,45562],[49.5,45636],[49.5,45709],[49.5,45783],[49.5,45857],[49.5,45931],[49.5,46005],[49.5,46079],[49.5,46155],[49.5,46230],[49.5,46305],[49.5,46379],[49.5,46454],[49.5,46528],[49.5,46603],[49.5,46678],[49.5,46752],[49.5,46827],[49.4,46902],[49.2,46977],[49.2,47051],[49.2,47126],[49.2,47201],[49.2,47276],[49.2,47351],[49.2,47425],[49.2,47500],[49.2,47574],[49.2,47649],[49.2,47724],[49.2,47798],[49.2,47873],[49.5,47949],[51.6,48023],[53.7,48099],[53.9,48174],[53.9,48248],[53.9,48323],[53.9,48398],[53.9,48473],[53.9,48547],[53.9,48621],[53.9,48696],[53.9,48770],[53.9,48846],[53.9,48921],[53.9,48997],[53.9,49071],[53.9,49145],[53.9,49220],[53.9,49294],[53.8,49369],[53.8,49444],[53.7,49519],[53.7,49594],[53.8,49668],[53.9,49743],[54,49818],[54,49894],[54,49968],[54,50043],[54,50118],[54,50192],[54,50267],[54,50341],[54,50416],[54,50490],[54,50564],[54,50638],[54,50711],[54,50785],[54,50859],[54,50934],[54,51007],[54,51081],[54,51155],[54,51230],[54,51305],[54,51381],[54,51456],[54,51530],[54,51606],[54,51680],[54,51754],[54,51829],[54,51904],[54,51980],[54,52054],[54,52128],[54,52202],[54,52275],[54,52350],[54,52425],[54,52500],[54,52576],[54,52651],[53.5,52726],[53.3,52802],[53.3,52876],[53.3,52951],[53.3,53025],[53.3,53099],[53.3,53174],[53.3,53248],[53.3,53323],[53.3,53398],[53.3,53472],[52.6,53547],[52.3,53622],[52.3,53696],[52.3,53770],[52.3,53846],[52.3,53921],[52.3,53996],[52.3,54071],[52.3,54145],[52.3,54219],[52.3,54295],[52.3,54369],[52.3,54444],[52.3,54520],[52.3,54595],[52.3,54669],[52.3,54743],[52.3,54818],[51.9,54894],[51.5,54970],[51.1,55046],[51,55122],[50.7,55197],[50.5,55272],[50.4,55346],[50.4,55421],[50.4,55496],[49.6,55571],[47.2,55647],[46.5,55721],[46.5,55796],[46.5,55871]]",1,0,253.1486,257.152,50.75502749,3.3725,"[{""rating"":45.68458839699074,""responseTime"":2.2842999999523386},{""rating"":50.75502748842593,""responseTime"":3.3725000000000023}]",space,3.4731,,257.152,Not at all,0,257.1535,,,[],,0,1,1,1,1,audio/Narrative7Situation1.wav,audio/Narrative8Situation1.wav,audio/Narrative5Situation1.wav,audio/Narrative6Situation1.wav,2,5,5,2,1.6252,,,,,,,,,,,,,,,,,,,,,,,,,,,,,,,,,,,,,,
,,,,,,5e126c25a98a7a8fab258f14,2024-02-08_16h08.49.546,group3.1-3.2-social-tom,2023.2.2,MacIntel,40,65c5074098b851296ff0b7ed,65c5418d8f6ee27482552758,,,,,,,,,,,,,,,,,,,,,,,,,,,,,257.1536,1,audio/Narrative7Situation2.wav,260.1547,,260.1547,267.6478,"[[999,4],[999,77],[999,151],[999,224],[999,297],[999,371],[999,445],[999,521],[999,596],[999,671],[999,745],[999,818],[999,893],[999,967],[999,1042],[999,1117],[49,1192],[49.6,1268],[49.8,1343],[50,1418],[50.4,1493],[50.9,1568],[51.1,1644],[51.1,1719],[51.1,1793],[51.1,1868],[51.1,1942],[51.1,2016],[51.1,2090],[51.1,2163],[51.4,2238],[51.5,2313],[51.5,2388],[51.5,2463],[51.5,2537],[51.5,2611],[51.5,2686],[51.5,2761],[51.5,2836],[51.5,2911],[51.5,2986],[51.5,3061],[51.5,3136],[51.5,3210],[51.5,3284],[51.5,3359],[51.5,3433],[51.5,3508],[51.5,3583],[51.5,3657],[51.5,3732],[51.5,3806],[51.5,3880],[51.5,3956],[51.5,4030],[51.5,4105],[51.5,4181],[51.5,4256],[51.5,4330],[51.5,4406],[51.5,4480],[51.5,4555],[51.5,4631],[51.5,4706],[51.5,4781],[51.6,4856],[53.2,4931],[53.7,5007],[54.2,5081],[54.5,5157],[54.7,5231],[55.2,5306],[55.4,5382],[55.7,5456],[55.9,5532],[55.9,5606],[55.9,5681],[55.9,5756],[55.9,5830],[55.9,5903],[55.9,5977],[55.9,6051],[55.9,6124],[55.9,6198],[55.9,6272],[55.9,6346],[55.9,6420],[55.9,6495],[55.9,6570],[55.9,6644],[55.9,6719],[55.9,6793],[55.9,6867],[56,6942],[56.2,7018],[56.2,7092],[56.2,7167],[56.2,7242],[56.2,7316],[56.1,7392],[53.8,7467]]",1,0,267.6479,272.1686,50.36892361,3.9219,"[{""rating"":50.368923611111114,""responseTime"":3.921900000095377}]",space,3.9941,,272.1687,Half the time,50,272.17,,,[],,0,2,2,2,1,audio/Narrative7Situation2.wav,audio/Narrative8Situation2.wav,audio/Narrative5Situation2.wav,audio/Narrative6Situation2.wav,3,3,3,3,,,,,,,,,,,,,,,,,,,,,,,,,,,,,,,,,,,,,,,
,,,,,,5e126c25a98a7a8fab258f14,2024-02-08_16h08.49.546,group3.1-3.2-social-tom,2023.2.2,MacIntel,40,65c5074098b851296ff0b7ed,65c5418d8f6ee27482552758,,,,,,,,,,,,,,,,,,,,,,,,,,,,,272.1702,1,audio/Narrative7Situation3.wav,280.1773,,280.1774,289.4419,"[[47.9,1041],[47.2,1116],[47.2,1192],[47.3,1267],[47.6,1342],[47.6,1417],[47.6,1491],[47.6,1566],[48.1,1641],[48.4,1716],[48.4,1790],[48.4,1865],[48.4,1939],[48.4,2014],[48.4,2087],[48.4,2161],[48.4,2235],[48.4,2310],[48.4,2385],[48.4,2460],[48.4,2534],[48.4,2608],[48.4,2682],[48.4,2757],[48.4,2832],[48.4,2907],[48.4,2981],[49.9,3057],[53.4,3131],[54.3,3205],[54.3,3283],[54.3,3358],[55.2,3431],[55.9,3506],[56,3580],[56.1,3655],[56.7,3730],[58,3804],[60.2,3879],[61.3,3954],[61.3,4029],[61.3,4103],[61.3,4178],[61.3,4252],[61.3,4327],[61.3,4401],[61.3,4476],[62.1,4551],[62.7,4627],[62.7,4702],[62.7,4779],[62.7,4854],[62.7,4928],[62.7,5002],[62.7,5076],[62.7,5150],[62.7,5225],[62.7,5299],[62.7,5374],[63.1,5449],[63.6,5523],[63.6,5598],[63.6,5672],[63.6,5747],[63.6,5821],[63.6,5895],[63.6,5969],[63.6,6043],[63.6,6118],[63.5,6192],[63.5,6267],[63.5,6342],[63.5,6416],[63.5,6490],[63.5,6566],[63.5,6639],[63.5,6713],[63.5,6786],[63.5,6860],[63.5,6933],[63.5,7006],[63.5,7080],[63.5,7154],[63.5,7229],[63.5,7303],[63.6,7377],[64.6,7452],[64.7,7526],[64.7,7601],[64.7,7676],[64.7,7750],[64.7,7824],[64.7,7899],[64.7,7974],[64.7,8048],[64.7,8123],[64.6,8198],[58.4,8273],[54.4,8348],[53.9,8422],[53.9,8497],[53.9,8571],[53.9,8646],[53.9,8720],[53.9,8794],[53.9,8868],[53.9,8943],[53.9,9017],[53.9,9091],[53.9,9165],[53.9,9239]]",1,0,289.4419,292.348,55.79562717,2.3057,"[{""rating"":55.795627170138886,""responseTime"":2.3057000000476933}]",space,2.3809,,292.3481,Half the time,50,292.349,,,[],,0,3,3,3,1,audio/Narrative7Situation3.wav,audio/Narrative8Situation3.wav,audio/Narrative5Situation3.wav,audio/Narrative6Situation3.wav,8,4,3,5,,,,,,,,,,,,,,,,,,,,,,,,,,,,,,,,,,,,,,,
,,,,,,5e126c25a98a7a8fab258f14,2024-02-08_16h08.49.546,group3.1-3.2-social-tom,2023.2.2,MacIntel,40,65c5074098b851296ff0b7ed,65c5418d8f6ee27482552758,,,,,,,,,,,,,,,,,,,,,,,,,,,,,292.349,1,audio/Narrative7Situation4.wav,295.3643,,295.3644,307.1032,"[[999,0],[999,73],[999,147],[999,220],[999,294],[999,368],[999,441],[999,515],[999,588],[999,662],[49.7,736],[49.7,811],[49.7,886],[49.7,960],[49.6,1035],[49.6,1110],[49.6,1184],[49.6,1259],[49.6,1333],[49.6,1406],[49.6,1480],[49.6,1553],[49.6,1627],[49.6,1702],[49.6,1776],[49.6,1852],[49.6,1925],[49.6,2000],[49.6,2074],[49.6,2149],[49.6,2223],[49.6,2298],[49.6,2372],[49.5,2447],[49.5,2521],[49.5,2596],[49.4,2670],[49.4,2744],[49.4,2818],[49.4,2893],[49.4,2967],[49.4,3042],[49.5,3116],[49.6,3192],[50.3,3267],[50.6,3342],[50.7,3416],[50.7,3491],[50.7,3565],[50.7,3640],[50.7,3714],[50.1,3789],[48.1,3864],[46.7,3939],[45.4,4014],[44.2,4089],[44.2,4164],[44.2,4238],[44.2,4313],[44.2,4387],[44.2,4462],[44.2,4536],[44.2,4610],[44.2,4683],[44.2,4757],[44.2,4830],[44.2,4904],[44.2,4978],[44.2,5052],[47.6,5127],[50.1,5202],[50.8,5277],[50.9,5351],[50.9,5425],[50.9,5499],[50.9,5574],[50.9,5648],[50.9,5723],[50.9,5798],[50.9,5873],[50.9,5947],[50.9,6021],[50.9,6095],[50.9,6168],[50.9,6243],[51.9,6318],[53.1,6393],[53.6,6468],[53.8,6542],[53.9,6616],[55.3,6692],[59.3,6766],[61.3,6840],[62.4,6915],[64.1,6991],[64.2,7066],[64.2,7140],[64.2,7215],[64.2,7289],[63.4,7364],[63.4,7438],[63.4,7512],[63.8,7588],[68,7663],[71.6,7738],[72.1,7813],[72.2,7887],[72.2,7961],[72.2,8036],[72.2,8110],[72.5,8185],[73.7,8260],[73.9,8334],[73.9,8409],[73.9,8484],[73.9,8558],[73.9,8633],[73.9,8706],[73.9,8780],[73.9,8854],[73.9,8927],[73.9,9002],[73.9,9077],[74.2,9152],[74.3,9226],[74.3,9300],[74.3,9375],[74.3,9450],[74.3,9524],[74.7,9599],[75.5,9674],[76.6,9750],[77.2,9824],[77.6,9899],[77.7,9973],[77.7,10048],[77.7,10122],[77.7,10197],[77.7,10272],[77.7,10347],[77.7,10421],[77.7,10496],[77.7,10570],[77.7,10644],[77.7,10719],[77.5,10794],[77.4,10869],[77.4,10943],[77.3,11018],[77.3,11093],[77.3,11167],[77.2,11242],[77.2,11317],[77.2,11391],[77.2,11465],[77.2,11539],[77.2,11613],[77.2,11688]]",1,0,307.1032,308.856,71.23842593,1.005,"[{""rating"":71.23842592592592,""responseTime"":1.0049999999999955}]",space,1.2265,,308.8561,Half the time,50,308.8568,,,[],,0,4,4,4,1,audio/Narrative7Situation4.wav,audio/Narrative8Situation4.wav,audio/Narrative5Situation4.wav,audio/Narrative6Situation4.wav,3,3,1,2,,,,,,,,,,,,,,,,,,,,,,,,,,,,,,,,,,,,,,,
,,,,,,5e126c25a98a7a8fab258f14,2024-02-08_16h08.49.546,group3.1-3.2-social-tom,2023.2.2,MacIntel,40,65c5074098b851296ff0b7ed,65c5418d8f6ee27482552758,,,,,,,,,,,,,,,,,,,,,,,,,,,,,308.857,1,audio/Narrative7Situation5.wav,313.8694,,313.8694,322.3503,"[[48.7,78],[48.7,153],[48.8,228],[48.9,302],[49.1,376],[49.4,450],[49.5,524],[49.5,599],[49.6,673],[49.7,749],[49.9,823],[49.9,898],[49.9,973],[49.8,1049],[49.6,1124],[49.5,1199],[49.2,1274],[49.2,1349],[49.1,1423],[48.8,1498],[48.6,1573],[48.6,1647],[48.6,1721],[48.6,1796],[48.6,1871],[48.7,1947],[48.7,2021],[48.7,2096],[48.7,2171],[48.7,2245],[48.7,2319],[48.7,2392],[48.7,2467],[48.9,2542],[49.2,2618],[49.4,2693],[50,2767],[50.5,2843],[50.7,2917],[51.6,2991],[52.5,3067],[52.7,3141],[52.8,3215],[54.5,3290],[56.2,3366],[56.3,3440],[56.3,3515],[56.3,3589],[56.3,3664],[56.3,3739],[56.3,3812],[56.3,3886],[56.3,3959],[56.3,4033],[56.1,4107],[54.1,4181],[52.6,4255],[52.3,4330],[52.3,4405],[52.3,4479],[52.3,4553],[52.3,4627],[52.3,4702],[52.3,4776],[52.3,4850],[52.3,4925],[52.2,5000],[51.9,5074],[51,5149],[50.6,5225],[50.2,5299],[49.4,5375],[49.2,5450],[49.2,5524],[49.2,5599],[49.2,5674],[49.2,5748],[49.2,5823],[49.2,5898],[49.2,5972],[49.2,6047],[49.2,6120],[49.2,6194],[49.2,6267],[49.2,6342],[49.2,6416],[49.2,6490],[49.3,6564],[50.4,6639],[53.5,6713],[56.9,6788],[57.9,6863],[59,6938],[61.1,7013],[62,7088],[62,7162],[62,7237],[62,7311],[62,7386],[62,7460],[62,7535],[62,7609],[62,7683],[62,7758],[62,7832],[62,7906],[62,7981],[62.1,8056],[62.9,8131],[63.1,8207],[63.1,8281],[63.1,8356],[63.1,8430]]",1,0,322.3504,324.2623,51.82834201,1.2841,"[{""rating"":51.828342013888886,""responseTime"":1.284100000023841}]",space,1.3865,,324.2623,Not at all,0,324.2637,,,[],,0,5,5,5,1,audio/Narrative7Situation5.wav,audio/Narrative8Situation5.wav,audio/Narrative5Situation5.wav,audio/Narrative6Situation5.wav,5,2,5,2,,,,,,,,,,,,,,,,,,,,,,,,,,,,,,,,,,,,,,,
,,,,,,5e126c25a98a7a8fab258f14,2024-02-08_16h08.49.546,group3.1-3.2-social-tom,2023.2.2,MacIntel,40,65c5074098b851296ff0b7ed,65c5418d8f6ee27482552758,,,,,,,,,,,,,,,,,,,,,,,,,,,,,324.2639,1,audio/Narrative7Situation6.wav,327.2819,,327.282,337.3038,"[[999,4],[999,76],[999,149],[999,223],[999,296],[999,369],[999,442],[999,515],[999,590],[999,665],[48.9,739],[49.1,814],[49.2,890],[49.2,964],[49.2,1039],[49.2,1114],[49.2,1187],[49.2,1263],[49.2,1338],[49.2,1413],[49.2,1488],[49.2,1562],[49.2,1636],[49.2,1710],[49.2,1783],[49.2,1858],[49.2,1932],[49.2,2006],[49.2,2081],[49.2,2155],[49.2,2230],[49.4,2305],[49.4,2379],[49.4,2454],[49.4,2528],[49.4,2602],[49.8,2677],[51.1,2752],[51.3,2826],[51.3,2901],[51.4,2975],[51.4,3050],[51.4,3125],[51.4,3199],[51.4,3274],[51.4,3348],[51.4,3423],[51.4,3497],[51.4,3572],[51.4,3646],[51.4,3720],[51.4,3795],[51.4,3869],[51.4,3942],[50.6,4018],[49.7,4093],[49.7,4168],[49.3,4242],[48.3,4317],[48.1,4392],[48.1,4466],[48.1,4541],[48.1,4614],[48.1,4689],[48.1,4763],[48.1,4838],[48.1,4912],[48.1,4986],[48.1,5059],[48.1,5132],[48.1,5205],[48.1,5278],[48.1,5352],[48.1,5426],[48.1,5500],[46.8,5576],[45.4,5651],[44.6,5726],[44.5,5800],[44.5,5874],[44.5,5949],[44.5,6023],[44.5,6098],[44.5,6172],[44.5,6246],[44.5,6320],[44.5,6394],[44.5,6468],[44.5,6542],[44.5,6616],[44.4,6691],[44.4,6765],[44.4,6839],[44.4,6913],[43.9,6988],[43.4,7063],[43.4,7138],[43.4,7212],[43.4,7286],[43.4,7361],[43.4,7435],[43.4,7510],[44.3,7584],[47.7,7659],[48.5,7733],[48.5,7808],[48.5,7882],[47.1,7957],[45,8033],[44.1,8107],[43.3,8182],[42.7,8257],[42.7,8331],[42.7,8406],[42.7,8480],[42.7,8556],[42.7,8630],[42.7,8704],[42.7,8779],[42.7,8853],[45.1,8928],[49.9,9003],[52.7,9077],[54.2,9153],[55,9227],[55.2,9302],[55.2,9376],[55.2,9451],[55.2,9525],[55.2,9600],[55.1,9673],[55.1,9748],[55,9823],[55,9898],[54.9,9971]]",1,0,337.3038,338.7577,47.12411386,0.8761,"[{""rating"":47.1241138599537,""responseTime"":0.8761000000238255}]",space,0.905,,338.7577,All the time,100,338.7589,,,[],,0,6,6,6,1,audio/Narrative7Situation6.wav,audio/Narrative8Situation6.wav,audio/Narrative5Situation6.wav,audio/Narrative6Situation6.wav,3,2,3,2,,,,,,,,,,,,,,,,,,,,,,,,,,,,,,,,,,,,,,,
,,,,,,5e126c25a98a7a8fab258f14,2024-02-08_16h08.49.546,group3.1-3.2-social-tom,2023.2.2,MacIntel,40,65c5074098b851296ff0b7ed,65c5418d8f6ee27482552758,,,,,,,,,,,,,,,,,,,,,,,,,,,,,338.759,1,audio/Narrative7Situation7.wav,343.779,,343.779,361.0097,"[[999,4],[999,77],[999,150],[999,224],[999,299],[999,373],[999,447],[999,521],[999,595],[999,671],[999,745],[999,820],[52.6,894],[53,969],[53,1043],[51.7,1118],[49.3,1193],[49.2,1268],[49.2,1342],[49.4,1416],[49.4,1491],[49.4,1566],[49.4,1640],[49.4,1714],[49.4,1787],[49.4,1861],[49.4,1934],[49.4,2007],[49.4,2080],[49.4,2154],[49.4,2228],[49.4,2302],[49.4,2377],[49.4,2451],[49.3,2525],[49.1,2600],[48,2674],[46.3,2749],[44.9,2825],[44.6,2900],[43.8,2974],[42.8,3049],[41.9,3123],[41.3,3198],[41.2,3272],[41.2,3346],[41.2,3420],[41.2,3495],[41.2,3569],[41.2,3642],[41.2,3715],[41.2,3788],[41.2,3862],[40.9,3937],[39.2,4012],[38.3,4087],[37.3,4163],[35.6,4238],[35.1,4313],[35.1,4388],[35,4462],[35,4536],[35,4610],[35,4684],[35,4759],[35,4834],[35,4908],[35,4982],[35,5056],[35,5130],[35,5204],[35,5279],[35,5352],[35,5426],[35,5501],[35,5575],[35,5650],[35,5724],[35,5798],[35,5872],[35,5947],[35,6021],[34.5,6096],[32.2,6170],[30.9,6245],[30.5,6319],[30.5,6394],[30.5,6468],[30.5,6542],[30.5,6617],[30.5,6691],[30.5,6766],[30.5,6840],[30.6,6914],[30.6,6988],[30.6,7063],[30.7,7137],[30.8,7212],[30.8,7286],[30.8,7360],[30.8,7434],[30.8,7509],[30.8,7583],[31.1,7658],[33.1,7733],[34.8,7807],[35.6,7882],[35.7,7957],[35.7,8030],[35.7,8105],[35.7,8179],[35.7,8253],[35.7,8328],[35.7,8402],[35.7,8476],[35.7,8550],[35.7,8624],[35.7,8699],[35.7,8773],[35.7,8848],[35.7,8922],[36.7,8996],[42.9,9071],[47,9146],[47.6,9221],[47.6,9295],[47.6,9370],[47.6,9444],[47.6,9518],[47.6,9593],[47.6,9666],[47.6,9740],[47.6,9815],[47.6,9890],[47.4,9966],[47.4,10040],[47.4,10114],[47.4,10188],[47.4,10262],[47.4,10336],[47.4,10410],[47.4,10485],[47.4,10558],[47.4,10633],[47.4,10707],[47.4,10782],[47.4,10857],[47.5,10932],[47.5,11006],[47.5,11081],[47.5,11155],[47.6,11229],[48.5,11304],[49.7,11379],[50.5,11454],[50.8,11529],[50.8,11604],[50.8,11678],[50.8,11752],[50.8,11827],[50.8,11900],[50.8,11974],[50.8,12048],[50.8,12122],[50.8,12196],[50.8,12271],[50.8,12346],[50.8,12420],[50.8,12493],[50.8,12567],[50.8,12641],[52.9,12716],[55.7,12792],[56.5,12866],[57,12940],[59,13015],[60.2,13091],[60.5,13165],[60.5,13239],[60.5,13314],[60.5,13389],[60.4,13464],[59.3,13540],[54.3,13615],[51.9,13690],[51.8,13765],[51.8,13839],[51.8,13912],[51.8,13987],[51.9,14062],[51.9,14136],[51.9,14210],[51.9,14286],[51.9,14360],[51.9,14434],[51.9,14508],[51.9,14583],[51.9,14657],[50.7,14732],[49.2,14808],[49.1,14883],[49.1,14957],[49.1,15031],[49.1,15105],[49.1,15180],[49.1,15254],[49.1,15329],[49.1,15403],[49.1,15477],[49.1,15550],[49.1,15625],[49.1,15700],[49.1,15774],[49.2,15848],[49.2,15923],[49.3,15998],[49.3,16072],[49.3,16147],[49.3,16221],[49.3,16295],[49.3,16370],[49.3,16444],[49.3,16518],[49.3,16592],[49.3,16666],[49.3,16740],[49.3,16814],[49.3,16887],[49.3,16961],[49.3,17035],[49.3,17108],[49.3,17181]]",1,0,361.0098,363.9302,50.19124349,2.4679,"[{""rating"":50.191243489583336,""responseTime"":2.4679000000953693}]",space,2.3751,,363.9302,Not at all,0,363.9313,,,[],,0,7,7,7,1,audio/Narrative7Situation7.wav,audio/Narrative8Situation7.wav,audio/Narrative5Situation7.wav,audio/Narrative6Situation7.wav,5,3,4,5,,,,,,,,,,,,,,,,,,,,,,,,,,,,,,,,,,,,,,,
,,,,,,5e126c25a98a7a8fab258f14,2024-02-08_16h08.49.546,group3.1-3.2-social-tom,2023.2.2,MacIntel,40,65c5074098b851296ff0b7ed,65c5418d8f6ee27482552758,,,,,,,,,,,,,,,,,,,,,,,,,,,,,363.9314,1,audio/Narrative7Situation8.wav,365.9354,,365.9355,375.9838,"[[59,296],[59.2,370],[59.3,445],[59.3,520],[59.4,593],[59.4,668],[59.4,744],[59.4,819],[59.4,893],[59.4,968],[59.4,1042],[59.4,1115],[59.4,1188],[59.4,1262],[59.4,1337],[59.4,1411],[60,1486],[61.8,1561],[63,1635],[63,1710],[63.1,1784],[63.1,1858],[63.1,1933],[63.1,2007],[63.1,2082],[63.1,2157],[63.1,2232],[63.1,2307],[63.1,2381],[63.1,2454],[63.1,2529],[63.1,2604],[63.1,2678],[64.3,2753],[65.2,2829],[65.8,2904],[66,2978],[66,3054],[66,3130],[66,3205],[66,3279],[66,3354],[66,3429],[66,3503],[66,3577],[66,3651],[66.8,3725],[70.2,3800],[72,3876],[72.2,3950],[72.2,4025],[72.2,4099],[72.2,4174],[72.2,4248],[72.2,4323],[72.2,4397],[72,4471],[69.9,4545],[68.7,4622],[68.6,4697],[67.5,4772],[66,4846],[66,4921],[66,4995],[66,5070],[66,5144],[66,5219],[66,5293],[66,5367],[66,5442],[66,5515],[66,5589],[66,5663],[66,5737],[66,5811],[66,5885],[66,5960],[65.9,6035],[65.8,6110],[65.8,6185],[65.3,6260],[63.8,6334],[62.6,6411],[61.8,6484],[61.6,6558],[61.6,6633],[61.6,6707],[61.6,6782],[61.6,6857],[58.3,6932],[56.7,7007],[56.7,7082],[56.7,7156],[56.3,7231],[52.7,7307],[48.6,7382],[48.3,7456],[48.3,7530],[48.3,7605],[48.3,7679],[48.3,7754],[48.3,7829],[48.4,7903],[48.9,7979],[49.7,8054],[52.8,8130],[58,8204],[59,8280],[59.2,8354],[59.2,8428],[59.2,8503],[59.2,8578],[61,8652],[67.6,8728],[70.2,8802],[72.1,8877],[74.4,8952],[74.6,9029],[74.6,9104],[74.6,9179],[74.6,9255],[74.6,9329],[74.6,9404],[74.6,9478],[74.6,9552],[74.6,9626],[74.6,9701],[74.6,9775],[74.5,9849],[74.5,9924],[74.5,9998]]",1,0,375.9839,377.3361,65.145761,0.8505,"[{""rating"":65.14576099537037,""responseTime"":0.8505000000000109}]",space,0.8032,,377.3361,Half the time,50,377.3372,,,[],,0,8,8,8,1,audio/Narrative7Situation8.wav,audio/Narrative8Situation8.wav,audio/Narrative5Situation8.wav,audio/Narrative6Situation8.wav,2,3,3,5,,,,,,,,,,,,,,,,,,,,,,,,,,,,,,,,,,,,,,,
,,,,,,5e126c25a98a7a8fab258f14,2024-02-08_16h08.49.546,group3.1-3.2-social-tom,2023.2.2,MacIntel,40,65c5074098b851296ff0b7ed,65c5418d8f6ee27482552758,,,,,,,,,,,,,,,,,,,,,,,,,,,,,377.3374,1,audio/Narrative7Situation9.wav,379.3595,,379.3595,388.0344,"[[999,0],[999,73],[999,146],[999,220],[999,293],[999,366],[999,441],[999,515],[999,589],[49.4,663],[49.4,738],[49.4,812],[49.4,887],[49.9,963],[50.1,1037],[50.2,1113],[50.2,1188],[50.2,1262],[50.2,1336],[50.2,1410],[50.2,1484],[50.2,1557],[50.3,1633],[51.8,1707],[52.6,1782],[53.1,1857],[53.8,1931],[54.5,2007],[54.9,2081],[55.5,2156],[56.4,2232],[57.5,2307],[57.8,2381],[57.8,2456],[57.8,2531],[57.8,2606],[57.8,2680],[57.8,2754],[57.8,2829],[57.8,2904],[57.8,2978],[57.8,3053],[57.8,3127],[58.8,3203],[60.8,3278],[62.6,3352],[63.9,3427],[64.1,3502],[64.1,3576],[64.1,3651],[64.1,3726],[62.1,3801],[57,3877],[54.5,3951],[53.4,4026],[52.5,4101],[52.1,4176],[52,4251],[52,4326],[51.7,4399],[51.6,4474],[51.6,4550],[51.6,4624],[51.6,4699],[51.5,4773],[49.1,4848],[47.9,4924],[47.3,4998],[47.2,5072],[47.1,5147],[46.4,5222],[46,5296],[46,5371],[46,5445],[46,5519],[46,5593],[46.1,5668],[48,5743],[52.4,5817],[53.9,5893],[54.9,5967],[58.2,6042],[60.9,6118],[61.6,6193],[61.6,6268],[61.6,6342],[61.6,6417],[61.6,6491],[61.6,6565],[63.3,6640],[64.4,6715],[64.4,6789],[64.4,6863],[64.5,6938],[64.5,7013],[64.5,7087],[64.5,7162],[64.5,7237],[64.5,7311],[64.5,7385],[64.5,7459],[64.4,7534],[64.3,7609],[64.2,7683],[63.8,7758],[63.6,7833],[63.6,7907],[63.6,7981],[63.6,8056],[63.6,8129],[63.6,8204],[63.3,8279],[62.7,8353],[62.7,8427],[62.7,8502],[62.7,8576],[62.7,8650]]",1,0,388.0345,389.5842,59.82033058,1.2247,"[{""rating"":57.747395833333336,""responseTime"":0.7971000000238178},{""rating"":59.82033058449075,""responseTime"":1.224700000047676}]",space,1.0043,,389.5842,All the time,100,389.5854,,,[],,0,9,9,9,1,audio/Narrative7Situation9.wav,audio/Narrative8Situation9.wav,audio/Narrative5Situation9.wav,audio/Narrative6Situation9.wav,2,3,3,4,,,,,,,,,,,,,,,,,,,,,,,,,,,,,,,,,,,,,,,
,,,,,,5e126c25a98a7a8fab258f14,2024-02-08_16h08.49.546,group3.1-3.2-social-tom,2023.2.2,MacIntel,40,65c5074098b851296ff0b7ed,65c5418d8f6ee27482552758,,,,,,,,,,,,,,,,,,,,,,,,,,,,,389.5854,1,audio/Narrative8Situation1.wav,394.6024,,394.6024,410.5581,"[[59.9,884],[56.9,959],[53.4,1034],[52,1109],[51.7,1184],[51.2,1259],[50.1,1333],[50.1,1407],[50.1,1482],[50.1,1556],[50.1,1630],[50.1,1706],[50.1,1781],[50.1,1856],[50.1,1930],[50.1,2005],[50.1,2080],[50.1,2155],[50.1,2230],[50.1,2304],[50.1,2378],[50.1,2451],[50.1,2525],[50.1,2599],[50.1,2673],[49.1,2747],[48.7,2822],[48.7,2897],[48.7,2971],[48.7,3046],[48.7,3120],[48.7,3195],[48.7,3270],[48.7,3346],[48.7,3420],[48.7,3495],[48.7,3569],[48.7,3643],[48.7,3718],[48.7,3792],[48.5,3867],[47.4,3942],[46.4,4017],[46.3,4092],[46.3,4166],[46.3,4241],[46.3,4314],[46.3,4389],[46.3,4464],[46.3,4537],[46.3,4612],[46.3,4685],[46.3,4758],[46.3,4832],[46.3,4907],[46.3,4981],[46.3,5055],[46.3,5129],[46.3,5202],[46.3,5278],[46.3,5351],[46.3,5425],[46.3,5500],[46.3,5574],[46.4,5649],[47.6,5724],[50,5799],[50.4,5873],[50.5,5948],[50.5,6023],[50.5,6097],[50.5,6172],[50.4,6246],[49.7,6321],[49.1,6396],[49.1,6470],[49.1,6544],[49.1,6618],[49.1,6692],[49.1,6767],[49.1,6841],[49.1,6917],[47.1,6992],[44.2,7068],[41.5,7141],[40,7216],[39.9,7291],[39.9,7366],[39.9,7440],[39.9,7515],[39.9,7589],[39.9,7663],[39.9,7737],[39.9,7811],[37.9,7886],[33.4,7961],[32.5,8036],[32.3,8110],[30.9,8186],[30.6,8260],[30.6,8334],[30.6,8408],[30.6,8483],[30.6,8557],[30.6,8631],[30.6,8706],[30.6,8780],[30.6,8856],[30.6,8930],[30.6,9004],[30.6,9079],[30.6,9153],[30.5,9228],[30,9303],[29.4,9378],[29.1,9452],[29.1,9527],[29.1,9601],[29.1,9676],[29.1,9749],[29.1,9824],[29.1,9898],[29.1,9972],[29.1,10048],[29.1,10121],[29.1,10196],[29.1,10271],[29.1,10346],[28.7,10421],[28,10496],[27.9,10570],[27.6,10644],[27.3,10719],[27.3,10793],[27.3,10867],[27.1,10943],[26.9,11017],[26.9,11092],[26.9,11166],[26.9,11240],[26.9,11314],[26.9,11388],[26.9,11463],[28,11537],[34.2,11612],[35.7,11687],[35.8,11762],[35.8,11836],[35.8,11911],[35.8,11985],[35.8,12060],[35.8,12134],[35.8,12209],[35.8,12283],[35.8,12357],[35.8,12431],[35.8,12504],[35.8,12579],[35.8,12653],[37.4,12728],[39.4,12802],[40.8,12878],[41.1,12952],[41.1,13027],[41.1,13101],[41.1,13175],[41.1,13251],[41.1,13325],[41.1,13399],[41.1,13474],[41.1,13549],[40.8,13623],[39.1,13698],[38,13773],[37.9,13848],[37.9,13923],[37.8,13997],[37.8,14071],[37.8,14146],[37.8,14220],[37.8,14294],[37.8,14369],[37.8,14443],[37.8,14517],[37.8,14591],[37.8,14666],[37.8,14739],[37.4,14814],[36.1,14888],[35.6,14965],[35.5,15039],[35,15114],[35,15188],[35,15262],[35,15336],[35,15409],[35,15483],[35,15557],[35,15631],[35,15706],[35,15780],[35.6,15855],[36.9,15930]]",1,0,410.5582,412.9629,38.15827546,0.4027,"[{""rating"":38.15827546296296,""responseTime"":0.4027000000477301}]",space,1.8761,,412.9629,Half the time,50,412.964,,,[],,0,10,10,10,1,audio/Narrative8Situation1.wav,audio/Narrative7Situation1.wav,audio/Narrative6Situation1.wav,audio/Narrative5Situation1.wav,5,2,2,5,,,,,,,,,,,,,,,,,,,,,,,,,,,,,,,,,,,,,,,
,,,,,,5e126c25a98a7a8fab258f14,2024-02-08_16h08.49.546,group3.1-3.2-social-tom,2023.2.2,MacIntel,40,65c5074098b851296ff0b7ed,65c5418d8f6ee27482552758,,,,,,,,,,,,,,,,,,,,,,,,,,,,,412.9642,1,audio/Narrative8Situation2.wav,415.9696,,415.9697,426.111,"[[44,815],[44.7,891],[45.6,966],[46.1,1039],[46.1,1114],[46.1,1188],[46.1,1262],[46.1,1336],[46.1,1410],[46.1,1485],[46.1,1559],[46.1,1635],[46.1,1710],[46.1,1784],[46.1,1857],[46.1,1930],[46.1,2005],[46.1,2079],[46.6,2154],[47.4,2229],[48,2303],[49,2378],[49.8,2453],[50,2529],[50.1,2604],[50.1,2677],[50.1,2752],[50.1,2826],[50.1,2901],[50.1,2974],[50.1,3049],[50.1,3123],[50.1,3197],[50.1,3272],[50.1,3347],[50.1,3421],[50.2,3496],[52.7,3571],[54.8,3646],[56.3,3721],[56.9,3796],[57,3870],[57.4,3945],[57.5,4019],[57.5,4094],[57.5,4169],[57.5,4243],[57.5,4316],[57.5,4389],[57.5,4463],[57.5,4537],[57.5,4610],[57.5,4683],[57.5,4757],[57.5,4831],[57.5,4905],[57.5,4978],[57.5,5053],[57.5,5127],[58.9,5202],[59.8,5277],[60.7,5352],[62.4,5427],[63,5502],[63,5577],[63,5652],[63,5727],[63,5801],[63,5875],[63,5948],[63,6022],[63,6096],[63,6169],[63,6244],[64.2,6318],[65.4,6394],[66.1,6469],[66.1,6544],[66.2,6619],[66.2,6694],[66.2,6768],[66.2,6842],[66.2,6917],[66.2,6991],[66.2,7066],[66.2,7141],[66.2,7216],[66.2,7290],[66.2,7364],[66.2,7439],[66.2,7512],[66.2,7586],[66.2,7661],[66.2,7735],[66.2,7809],[66.2,7883],[66.2,7957],[66.2,8032],[66.2,8106],[66.2,8181],[66.9,8255],[68.5,8330],[69.1,8406],[69.1,8480],[69.2,8554],[69.2,8629],[69.2,8703],[69.2,8778],[69.2,8852],[69.2,8926],[69.2,9001],[69.2,9076],[69.2,9149],[69.2,9223],[69.1,9298],[69.1,9372],[69.1,9446],[69.1,9521],[69.2,9595],[69.2,9669],[69.2,9744],[69.2,9818],[69.2,9893],[69.2,9967],[69.2,10041],[69.2,10116]]",1,0,426.111,427.1666,65.21493417,0.7288,"[{""rating"":65.2149341724537,""responseTime"":0.7288000000714874}]",space,0.5278,,427.1666,Not at all,0,427.1676,,,[],,0,11,11,11,1,audio/Narrative8Situation2.wav,audio/Narrative7Situation2.wav,audio/Narrative6Situation2.wav,audio/Narrative5Situation2.wav,3,3,3,3,,,,,,,,,,,,,,,,,,,,,,,,,,,,,,,,,,,,,,,
,,,,,,5e126c25a98a7a8fab258f14,2024-02-08_16h08.49.546,group3.1-3.2-social-tom,2023.2.2,MacIntel,40,65c5074098b851296ff0b7ed,65c5418d8f6ee27482552758,,,,,,,,,,,,,,,,,,,,,,,,,,,,,427.1677,1,audio/Narrative8Situation3.wav,431.1807,,431.1807,453.5937,"[[49.7,524],[49.6,598],[49.6,673],[49.6,748],[49.6,822],[49.6,896],[49.7,971],[49.7,1046],[49.7,1121],[49.7,1196],[49.7,1271],[49.7,1345],[49.7,1419],[49.4,1494],[47.8,1569],[46.3,1644],[44.4,1718],[42.1,1793],[41.3,1868],[41.2,1943],[41.2,2018],[41.2,2091],[41.2,2165],[41.2,2238],[41.2,2312],[41.2,2388],[40.4,2463],[39.9,2538],[39.8,2612],[39.1,2687],[38.9,2762],[38.9,2836],[38.9,2910],[38.9,2986],[39,3060],[39,3135],[39,3209],[39,3284],[39,3359],[39,3433],[38.9,3507],[37.5,3583],[36.7,3658],[36.6,3735],[36.3,3810],[34.7,3885],[34.1,3961],[33.5,4035],[32.8,4110],[32,4185],[31.4,4259],[31.3,4334],[31.3,4408],[31.3,4482],[31.3,4557],[31.3,4631],[31.3,4705],[31.3,4779],[31.3,4853],[31.3,4927],[31.3,5002],[31.3,5076],[31.3,5150],[31.3,5224],[31.3,5298],[31.3,5372],[31.3,5446],[31.3,5520],[31.3,5594],[31.3,5668],[31.3,5741],[31.3,5816],[31.3,5890],[31.3,5964],[31.4,6039],[31.4,6114],[31.4,6189],[31.4,6263],[31.4,6338],[31.4,6412],[31.4,6487],[31.4,6562],[31.4,6636],[31.4,6710],[31.4,6785],[31.4,6859],[31.4,6933],[31.9,7008],[32.3,7084],[32.6,7159],[33.3,7234],[34,7309],[34.1,7384],[34.1,7459],[34.1,7533],[34.1,7608],[34.1,7683],[34.1,7757],[34.1,7831],[34.1,7906],[34.1,7981],[34.1,8055],[34.1,8129],[34.1,8203],[34.1,8277],[34.1,8352],[34.2,8427],[37.5,8502],[42.1,8577],[43.5,8653],[43.6,8727],[43.6,8802],[43.6,8875],[43.6,8949],[43.6,9024],[43.6,9099],[43.6,9173],[43.6,9248],[43.6,9322],[43.6,9396],[43.6,9471],[43.6,9546],[43.6,9620],[44.7,9696],[45.8,9770],[46.6,9844],[48.1,9919],[49.1,9994],[49.1,10069],[49.1,10142],[49,10217],[48.3,10292],[48.3,10366],[48.3,10440],[48.3,10514],[48.3,10589],[48.3,10663],[48.3,10738],[48.3,10813],[48.3,10887],[48.3,10962],[49.2,11036],[49.5,11112],[49.5,11187],[49.5,11261],[49.5,11335],[49.5,11410],[49.5,11484],[49.5,11558],[49.5,11632],[49.5,11706],[49.5,11781],[49.5,11855],[49.5,11929],[49.5,12004],[49.5,12078],[49.5,12153],[49.5,12228],[49.5,12303],[49.5,12379],[49.5,12452],[49.5,12525],[49.5,12599],[49.5,12673],[49.5,12747],[49.5,12822],[49.5,12896],[49.5,12971],[49.6,13046],[49.7,13120],[49.7,13194],[49.9,13268],[51.2,13344],[51.8,13419],[52.5,13495],[53.8,13570],[54,13645],[54,13720],[54,13794],[54,13869],[54,13943],[54,14018],[54,14092],[54,14165],[54,14238],[54,14312],[54,14386],[54,14460],[54,14534],[54.8,14610],[56.2,14684],[57.6,14759],[57.8,14834],[57.8,14908],[57.8,14982],[57.8,15057],[57.8,15131],[57.8,15206],[57.8,15281],[57.8,15355],[57.8,15429],[57.8,15503],[57.8,15578],[57.8,15651],[57.8,15725],[57.8,15800],[57.8,15874],[57.8,15948],[57.9,16022],[58.2,16098],[59,16173],[59,16247],[59.1,16321],[59.1,16396],[59.1,16470],[59.1,16545],[59.1,16620],[59.1,16695],[59.1,16769],[59.1,16843],[59.1,16917],[59.1,16991],[59.1,17066],[59,17141],[59,17216],[59,17290],[59,17364],[59,17439],[59,17513],[59,17587],[59,17661],[59,17735],[59,17809],[59,17884],[59,17958],[59.1,18033],[59.2,18108],[60.1,18184],[60.6,18259],[60.6,18334],[60.6,18408],[60.6,18483],[60.1,18558],[58.2,18633],[58.1,18708],[58.1,18782],[58.1,18857],[58.1,18932],[58.1,19007],[58.1,19081],[58.1,19156],[58.1,19230],[58.1,19304],[58.1,19378],[58.1,19452],[58.1,19527],[58.1,19601],[58.1,19675],[58.1,19749],[58.1,19823],[58.1,19896],[58.1,19971],[58.1,20045],[58.1,20119],[58,20193],[58,20268],[58,20342],[57.9,20415],[57.9,20490],[57.4,20565],[56.9,20641],[56.9,20715],[56.9,20789],[56.9,20863],[56.9,20938],[56.9,21012],[56.9,21087],[56.9,21161],[56.9,21235],[56.9,21309],[56.9,21383],[56.9,21458],[56.9,21532],[56.9,21606],[56.9,21680],[56.9,21753],[56.9,21827],[56.9,21900],[56.9,21973],[56.9,22046],[56.9,22120],[56.9,22193],[56.9,22266],[56.9,22339],[56.9,22412]]",1,0,453.5937,455.3181,51.57922815,1.2733,"[{""rating"":51.57922815393518,""responseTime"":1.2732999999523145}]",space,1.1792,,455.3181,All the time,100,455.3193,,,[],,0,12,12,12,1,audio/Narrative8Situation3.wav,audio/Narrative7Situation3.wav,audio/Narrative6Situation3.wav,audio/Narrative5Situation3.wav,4,8,5,3,,,,,,,,,,,,,,,,,,,,,,,,,,,,,,,,,,,,,,,
,,,,,,5e126c25a98a7a8fab258f14,2024-02-08_16h08.49.546,group3.1-3.2-social-tom,2023.2.2,MacIntel,40,65c5074098b851296ff0b7ed,65c5418d8f6ee27482552758,,,,,,,,,,,,,,,,,,,,,,,,,,,,,455.3194,1,audio/Narrative8Situation4.wav,458.3339,,458.3339,472.5642,"[[999,0],[999,73],[999,146],[999,219],[999,292],[999,366],[999,439],[999,513],[999,586],[999,660],[999,733],[999,807],[999,881],[999,955],[999,1031],[46.3,1105],[44.3,1180],[44.3,1254],[44.3,1327],[44.3,1401],[44.3,1475],[44.3,1550],[42.8,1625],[42.4,1699],[42.4,1774],[42.4,1849],[42.4,1924],[42.4,1998],[42.4,2073],[42.4,2146],[42.4,2220],[42.4,2293],[42.4,2366],[42.4,2440],[42.4,2513],[42.4,2587],[42.4,2660],[42.4,2733],[42.4,2807],[42.4,2879],[42.4,2954],[42.4,3028],[42.4,3103],[42.4,3177],[42.6,3252],[42.7,3326],[42.7,3400],[42.7,3474],[42.7,3548],[42.7,3622],[42.7,3697],[42.7,3771],[42.7,3845],[42.7,3918],[42.7,3992],[42.7,4066],[42.7,4141],[42.7,4216],[42.7,4290],[42.7,4364],[41.2,4439],[37.2,4514],[36.2,4588],[36.1,4662],[36.1,4737],[36.1,4812],[36.1,4886],[36.1,4961],[36.1,5035],[36.1,5112],[36.1,5188],[36.1,5263],[36.1,5337],[36.1,5411],[36.1,5485],[36.1,5558],[36.1,5632],[36.1,5704],[36.1,5777],[36.1,5851],[36.1,5925],[36.1,6000],[37,6076],[38,6150],[38.2,6225],[38.4,6300],[38.7,6374],[38.8,6449],[38.9,6523],[38.9,6598],[38.9,6673],[38.9,6747],[38.9,6822],[38.9,6896],[38.9,6969],[38.9,7044],[40.1,7119],[44.2,7194],[45.9,7269],[46.3,7346],[46.6,7421],[46.6,7495],[46.7,7570],[47.3,7645],[48.9,7720],[50.8,7795],[50.9,7870],[50.9,7944],[51,8019],[51.2,8094],[51.2,8171],[51.3,8245],[52.7,8319],[53.1,8393],[53.1,8467],[53.1,8541],[53.1,8616],[53.1,8691],[53.1,8765],[53.1,8839],[53.1,8912],[53.1,8985],[53.1,9058],[53.1,9132],[53.1,9205],[53.1,9280],[53.1,9353],[53.1,9426],[53.1,9499],[53.1,9572],[53.1,9646],[53.1,9720],[53.1,9793],[53.1,9867],[53.1,9940],[53.1,10014],[53.1,10088],[53.1,10163],[53.1,10237],[53.1,10311],[53.1,10386],[53.1,10460],[53.1,10534],[53.1,10609],[53.1,10684],[53.1,10758],[53.1,10832],[53.1,10906],[53.1,10981],[53.1,11055],[53.2,11129],[53.2,11204],[53.4,11279],[53.4,11354],[53.4,11427],[53.6,11503],[53.6,11577],[53.6,11650],[53.6,11723],[53.7,11798],[54.1,11873],[54.1,11947],[54.1,12022],[54.5,12098],[54.6,12173],[54.6,12247],[55,12322],[55.2,12397],[55.5,12472],[55.6,12546],[55.6,12620],[55.6,12695],[55.6,12769],[55.6,12844],[55.6,12918],[55.6,12993],[55.6,13068],[55.6,13142],[55.6,13217],[55.6,13291],[55.6,13365],[55.6,13440],[55.6,13513],[55.6,13587],[55.6,13661],[55.6,13735],[55.6,13809],[55.6,13884],[55.6,13958],[55.6,14032],[55.6,14106],[55.6,14180]]",1,0,472.5643,473.6397,53.37818287,0.8009,"[{""rating"":53.378182870370374,""responseTime"":0.8008999999761386}]",space,0.5498,,473.6397,Half the time,50,473.6407,,,[],,0,13,13,13,1,audio/Narrative8Situation4.wav,audio/Narrative7Situation4.wav,audio/Narrative6Situation4.wav,audio/Narrative5Situation4.wav,3,3,2,1,,,,,,,,,,,,,,,,,,,,,,,,,,,,,,,,,,,,,,,
,,,,,,5e126c25a98a7a8fab258f14,2024-02-08_16h08.49.546,group3.1-3.2-social-tom,2023.2.2,MacIntel,40,65c5074098b851296ff0b7ed,65c5418d8f6ee27482552758,,,,,,,,,,,,,,,,,,,,,,,,,,,,,473.6408,1,audio/Narrative8Situation5.wav,475.6578,,475.6578,483.9369,"[[52.5,2570],[50.6,2646],[50.2,2721],[50.2,2795],[50.2,2870],[50.2,2944],[50.2,3018],[50.2,3093],[50.2,3167],[50.2,3240],[50.2,3313],[50.2,3387],[50.2,3460],[50.2,3533],[50.2,3607],[50.2,3680],[50.2,3754],[50.2,3829],[50.2,3903],[49.5,3977],[49.3,4052],[49.4,4126],[51.4,4200],[52.5,4276],[54,4351],[55.9,4425],[57.2,4500],[57.7,4575],[57.9,4650],[57.9,4724],[58.7,4798],[59.7,4874],[59.8,4949],[59.8,5023],[59.8,5099],[59.8,5173],[59.8,5246],[59.8,5319],[60,5393],[62.6,5468],[65,5543],[66.7,5618],[68.1,5694],[68.9,5770],[68.9,5844],[68.9,5919],[68.9,5994],[68.9,6069],[68.9,6143],[68.9,6218],[68.9,6291],[68.9,6365],[68.9,6439],[68.9,6512],[68.9,6587],[68.9,6660],[68.9,6734],[68.9,6809],[68.9,6883],[69.1,6958],[69.8,7033],[71,7108],[72.7,7183],[73.7,7259],[74.1,7334],[74.1,7408],[74.1,7483],[74.1,7557],[74.1,7632],[74.1,7707],[74.1,7782],[74.1,7857],[74.1,7931],[74.1,8005],[74.1,8080],[74,8154],[73.8,8228]]",1,0,483.937,485.0176,66.98314525,0.6551,"[{""rating"":66.98314525462963,""responseTime"":0.6551000000238787}]",space,0.5503,,485.0176,Not at all,0,485.0186,,,[],,0,14,14,14,1,audio/Narrative8Situation5.wav,audio/Narrative7Situation5.wav,audio/Narrative6Situation5.wav,audio/Narrative5Situation5.wav,2,5,2,5,,,,,,,,,,,,,,,,,,,,,,,,,,,,,,,,,,,,,,,
,,,,,,5e126c25a98a7a8fab258f14,2024-02-08_16h08.49.546,group3.1-3.2-social-tom,2023.2.2,MacIntel,40,65c5074098b851296ff0b7ed,65c5418d8f6ee27482552758,,,,,,,,,,,,,,,,,,,,,,,,,,,,,485.0188,1,audio/Narrative8Situation6.wav,487.0398,,487.0398,493.5268,"[[65.7,590],[62.8,666],[60.1,741],[58.3,816],[57.2,891],[56,966],[55,1041],[55,1116],[55,1190],[55,1265],[55,1339],[55,1413],[55,1487],[55,1560],[55,1635],[54.8,1710],[54,1785],[53.9,1859],[53.4,1934],[52.9,2009],[52.8,2085],[52.8,2159],[52.8,2234],[52.8,2309],[52.8,2383],[52.8,2457],[52.8,2532],[52.8,2605],[52.8,2680],[52.8,2755],[52.8,2829],[52.8,2903],[52.8,2977],[52.8,3052],[52.8,3127],[52.8,3201],[52.8,3276],[52.8,3350],[52.8,3425],[52.8,3500],[52.8,3575],[52.8,3649],[52.8,3725],[52.8,3799],[52.8,3874],[52.8,3949],[52.8,4023],[52.8,4097],[52.8,4170],[52.8,4244],[52.8,4317],[52.8,4391],[52.8,4464],[52.8,4539],[52.8,4613],[52,4688],[51.1,4763],[50.9,4838],[50.9,4913],[50.7,4988],[50.5,5063],[50.5,5138],[50.5,5212],[50.5,5286],[50.5,5361],[50.6,5435],[52.1,5510],[55.2,5585],[57.2,5660],[58.6,5736],[60.1,5811],[61.2,5886],[61.4,5962],[62.1,6037],[62.5,6113],[62.5,6187],[62.5,6262],[62.5,6337],[62.5,6412],[62.5,6486]]",1,0,493.5269,494.4869,53.9098669,0.7582,"[{""rating"":53.90986689814815,""responseTime"":0.7582000000476796}]",space,0.4301,,494.4869,Half the time,50,494.488,,,[],,0,15,15,15,1,audio/Narrative8Situation6.wav,audio/Narrative7Situation6.wav,audio/Narrative6Situation6.wav,audio/Narrative5Situation6.wav,2,3,2,3,,,,,,,,,,,,,,,,,,,,,,,,,,,,,,,,,,,,,,,
,,,,,,5e126c25a98a7a8fab258f14,2024-02-08_16h08.49.546,group3.1-3.2-social-tom,2023.2.2,MacIntel,40,65c5074098b851296ff0b7ed,65c5418d8f6ee27482552758,,,,,,,,,,,,,,,,,,,,,,,,,,,,,494.4881,1,audio/Narrative8Situation7.wav,497.4952,,497.4952,509.635,"[[53.2,75],[53.2,150],[53.1,224],[52.4,299],[52.3,374],[51.8,448],[51.3,524],[51.3,599],[51.3,674],[51.3,748],[51.3,823],[51.3,898],[50.4,972],[47.8,1048],[46.1,1123],[46,1197],[46,1272],[46,1345],[46,1419],[46,1494],[46,1568],[44.9,1644],[43.6,1719],[42.9,1795],[42.5,1870],[42.2,1944],[41.7,2019],[41.7,2094],[41.7,2168],[41.7,2243],[41.7,2318],[41.8,2394],[41.8,2468],[41.8,2542],[41.8,2616],[41.8,2690],[41.1,2765],[40.9,2840],[40.9,2914],[40.9,2988],[40.9,3062],[40.9,3135],[40.9,3208],[40.9,3282],[40.9,3356],[40.9,3430],[40.9,3503],[40.9,3578],[41.2,3652],[42.9,3727],[44.1,3802],[45.1,3876],[46.2,3951],[47.9,4026],[48.5,4101],[48.5,4176],[48.5,4250],[48.5,4325],[48.5,4399],[48.5,4474],[48.5,4550],[48.5,4623],[48.5,4698],[48.5,4774],[48.5,4849],[48.5,4923],[48.5,4997],[48.5,5071],[48.5,5146],[48.9,5221],[50.4,5296],[52.2,5372],[53,5447],[53.9,5522],[54.5,5597],[54.6,5671],[54.6,5746],[54.6,5821],[54.6,5895],[54.6,5969],[54.6,6044],[54.6,6118],[54.6,6192],[54.6,6266],[54.6,6341],[54.6,6415],[54.6,6491],[54.6,6566],[54.6,6640],[54.6,6715],[54.6,6790],[54.6,6865],[54.6,6939],[54.6,7014],[55.6,7089],[56.9,7164],[57.4,7239],[57.5,7314],[57.5,7389],[57.5,7463],[57.5,7538],[57.5,7613],[57.5,7688],[57.5,7763],[57.5,7837],[57.5,7913],[57.5,7989],[57.5,8063],[57.5,8138],[57.4,8213],[56.6,8288],[56.6,8363],[56.6,8437],[56.6,8512],[56.6,8586],[56.6,8660],[56.6,8734],[56.6,8808],[56.3,8882],[55.1,8958],[54.7,9033],[52.9,9108],[51.1,9182],[50.9,9257],[50.9,9332],[50.9,9408],[50.9,9482],[50.9,9557],[50.9,9632],[50.9,9707],[50.9,9782],[50.9,9856],[50.9,9930],[50.9,10004],[50.9,10079],[50.9,10153],[50.9,10228],[50.9,10303],[50.9,10378],[50.6,10452],[49.8,10528],[49.6,10602],[49.6,10676],[49.1,10751],[49.1,10827],[49.1,10901],[49.1,10977],[49.1,11051],[49.1,11127],[49.1,11201],[49.1,11276],[49.1,11351],[49.1,11426],[49.1,11501],[49.1,11575],[49.1,11649],[49.1,11722],[49.1,11796],[49.1,11870],[49.1,11943],[49.1,12017],[49.1,12090]]",1,0,509.635,514.5718,50.57779948,4.9363,"[{""rating"":50.577799479166664,""responseTime"":4.936299999952325}]",space,1.5113,,514.5718,Not at all,0,514.573,,,[],,0,16,16,16,1,audio/Narrative8Situation7.wav,audio/Narrative7Situation7.wav,audio/Narrative6Situation7.wav,audio/Narrative5Situation7.wav,3,5,5,4,,,,,,,,,,,,,,,,,,,,,,,,,,,,,,,,,,,,,,,
,,,,,,5e126c25a98a7a8fab258f14,2024-02-08_16h08.49.546,group3.1-3.2-social-tom,2023.2.2,MacIntel,40,65c5074098b851296ff0b7ed,65c5418d8f6ee27482552758,,,,,,,,,,,,,,,,,,,,,,,,,,,,,514.5731,1,audio/Narrative8Situation8.wav,514.7928,space,514.7929,527.6769,"[[47.8,1329],[43.3,2145],[40.1,2444],[39.7,2519],[39.7,2595],[39.5,2670],[39.5,2745],[39.5,2819],[41.2,2894],[44.7,2970],[45.1,3045],[45.1,3119],[45.1,3194],[45.1,3269],[45.2,3344],[45.2,3419],[45.2,3494],[45.2,3568],[45.7,3643],[47.4,3718],[49,3793],[50.9,3869],[51.7,3944],[51.7,4018],[51.7,4091],[51.7,4164],[51.7,4239],[51.7,4314],[52.1,4390],[53.2,4465],[54.2,4541],[54.9,4616],[54.9,4691],[54.9,4765],[54.9,4839],[55.3,4915],[57.6,4990],[59.7,5065],[60.5,5140],[60.6,5216],[60.6,5291],[60.6,5366],[60.6,5442],[60.6,5516],[61.1,5591],[61.5,5667],[61.6,5741],[61.6,5816],[61.6,5890],[61.6,5965],[61.5,6041],[61.4,6115],[60.6,6191],[59.8,6265],[59.7,6340],[59.7,6414],[59.7,6490],[59.7,6564],[59.7,6639],[59.7,6714],[59.7,6788],[59.7,6863],[59.7,6937],[59.7,7011],[59.7,7085],[59.7,7159],[59.7,7233],[59.7,7307],[59.7,7381],[59.7,7455],[59.7,7529],[59.7,7602],[59.7,7676],[59.7,7750],[59.7,7825],[59.6,7900],[59,7976],[59,8051],[60.7,8125],[63.3,8201],[64,8275],[64,8350],[64.6,8425],[65.7,8500],[65.8,8575],[65.8,8651],[65.8,8726],[65.8,8801],[65.8,8875],[65.3,8950],[61.8,9025],[59.6,9100],[59.5,9175],[59.5,9249],[59.5,9323],[59.5,9398],[59.5,9472],[59.5,9546],[59.5,9620],[59.5,9695],[59.5,9770],[59.5,9845],[59.5,9918],[59.5,9992],[59.5,10067],[59.5,10142],[59.5,10217],[59.5,10291],[59.5,10366],[59.5,10442],[59.5,10517],[59.5,10591],[59.5,10665],[59.5,10739],[59.5,10813],[59.5,10888],[59.5,10963],[59.5,11037],[59.5,11111],[59.5,11186],[59.5,11261],[59.5,11336],[59.5,11411],[59.5,11486],[59.5,11560],[59.5,11635],[59.5,11709],[59.4,11784],[59.2,11859],[57.7,11935],[56.7,12010],[55.6,12086],[55.3,12161],[55.3,12235],[55.3,12309],[55.3,12384],[55.3,12459],[55.3,12533],[55.3,12608],[55.3,12683],[55.3,12758],[55.3,12833]]",1,0,527.6771,530.8203,52.67966942,2.8677,"[{""rating"":55.513509114583336,""responseTime"":2.386799999952359},{""rating"":52.67966941550925,""responseTime"":2.8677000000476482}]",space,2.5935,,530.8203,All the time,100,530.8214,,,[],,0,17,17,17,1,audio/Narrative8Situation8.wav,audio/Narrative7Situation8.wav,audio/Narrative6Situation8.wav,audio/Narrative5Situation8.wav,3,2,5,3,0.2194,,,,,,,,,,,,,,,,,,,,,,,,,,,,,,,,,,,,,,
,,,,,,5e126c25a98a7a8fab258f14,2024-02-08_16h08.49.546,group3.1-3.2-social-tom,2023.2.2,MacIntel,40,65c5074098b851296ff0b7ed,65c5418d8f6ee27482552758,,,,,,,,,,,,,,,,,,,,,,,,,,,,,530.8215,1,audio/Narrative8Situation9.wav,533.8343,,533.8344,545.211,"[[50.1,446],[49.7,521],[49.7,595],[49.7,670],[49.7,744],[49.7,820],[49.4,894],[49.3,970],[49.3,1045],[49.3,1120],[49.3,1196],[49.3,1271],[49.3,1345],[49.3,1419],[49.3,1493],[49.3,1566],[49.3,1640],[49.3,1714],[49.3,1788],[49.3,1862],[49.3,1936],[49.3,2010],[49.3,2084],[49.3,2158],[49.3,2232],[49.3,2306],[49.3,2380],[49.3,2454],[49.3,2529],[48.8,2605],[48.5,2679],[48.2,2755],[47.8,2830],[47.7,2905],[47.7,2980],[47.7,3054],[47.7,3130],[47.7,3204],[47.7,3279],[47.7,3354],[47.7,3428],[47.7,3504],[47.7,3579],[47.7,3653],[47.7,3730],[47.7,3804],[47.7,3879],[47.7,3954],[47.7,4028],[47.7,4103],[47.7,4179],[48,4253],[48.6,4328],[48.7,4403],[48.7,4478],[48.8,4553],[48.8,4628],[48.8,4703],[48.8,4778],[47.8,4854],[44.2,4929],[43.6,5004],[43.6,5079],[43.6,5154],[43.6,5228],[43.6,5303],[43.6,5378],[43.6,5452],[43.6,5527],[43.6,5602],[43.6,5677],[43.6,5751],[43.6,5826],[43.6,5901],[43.6,5975],[43.6,6048],[43.6,6122],[43.6,6196],[43.6,6269],[43.6,6344],[43,6418],[41.5,6495],[40.5,6570],[40,6645],[38.6,6720],[37.1,6796],[36.9,6872],[36.9,6947],[36.9,7023],[36.9,7097],[36.9,7174],[36.9,7248],[36.9,7322],[36.9,7395],[36.9,7469],[36.9,7542],[36.9,7616],[36.9,7690],[36.9,7764],[36.9,7839],[36.2,7915],[34.7,7991],[34.1,8067],[34,8141],[34,8216],[33.3,8292],[32.8,8367],[32.7,8442],[32.7,8516],[32.7,8592],[32.7,8666],[32.7,8740],[32.7,8815],[32.7,8889],[32.7,8963],[32.7,9039],[32.7,9114],[32.7,9190],[32.7,9264],[32.7,9338],[32.7,9412],[32.7,9487],[32.7,9562],[32.7,9636],[32.7,9711],[32.7,9785],[32.7,9860],[32.7,9935],[32.7,10009],[32.7,10084],[33.6,10160],[34.5,10235],[35.3,10310],[35.6,10385],[35.6,10459],[35.7,10534],[35.7,10609],[35.7,10683],[35.7,10758],[35.7,10832],[35.7,10906],[35.4,10981],[35.4,11055],[35.4,11129],[35.4,11203],[35.4,11278],[35.4,11351]]",1,0,545.2111,546.5239,35.45373987,1.0623,"[{""rating"":38.63389756944444,""responseTime"":0.7072999999522835},{""rating"":35.45373987268518,""responseTime"":1.0622999999523017}]",space,0.7835,,546.5239,Not at all,0,553.7824,0,5.3698,"[{""rating"":0,""responseTime"":5.369799999952306}]",space,0,18,18,18,1,audio/Narrative8Situation9.wav,audio/Narrative7Situation9.wav,audio/Narrative6Situation9.wav,audio/Narrative5Situation9.wav,3,2,4,3,,,6.7327,,,,,,,,,,,,,,,,,,,,,,,,,,,,,,,,,,,,
,,,,,,5e126c25a98a7a8fab258f14,2024-02-08_16h08.49.546,group3.1-3.2-social-tom,2023.2.2,MacIntel,40,65c5074098b851296ff0b7ed,65c5418d8f6ee27482552758,,,,,,,,,,,,,,,,,,,,,,,,,,,581.6816,584.2465,584.2516,2,audio/Narrative13Situation2.wav,584.2516,,584.2516,614.0229,"[[28.7,1935],[43,2010],[47.6,2085],[53.9,2161],[55.8,2236],[54.4,2312],[46.9,2387],[45.8,2463],[45.8,2538],[45.8,2613],[47.2,2688],[48.5,2763],[48.7,2839],[48.7,2913],[48.7,2988],[48.7,3063],[48.7,3138],[48.7,3213],[48.7,3287],[48.7,3360],[48.7,3434],[48.7,3507],[48.7,3581],[48.7,3656],[49.4,3731],[51,3807],[54.4,3882],[55.5,3957],[55.6,4032],[55.6,4107],[55.6,4181],[55.6,4256],[55.6,4330],[55.6,4405],[55.6,4480],[55.6,4556],[55.6,4629],[55.6,4703],[55.6,4777],[55.6,4850],[55.6,4924],[55.6,4998],[55.6,5071],[55.6,5146],[54.7,5221],[51.5,5295],[51.1,5371],[51.1,5445],[51.1,5520],[51.1,5595],[51.1,5669],[51.1,5742],[51.1,5816],[51.1,5891],[51.1,5966],[51.1,6040],[51.1,6114],[51.1,6189],[51.1,6264],[51.1,6338],[51.1,6413],[51.1,6487],[51.1,6562],[51.1,6636],[51.1,6710],[51.1,6784],[51.1,6858],[51.1,6933],[51.1,7007],[51.1,7081],[51.1,7156],[51.1,7231],[51.1,7305],[51.1,7380],[51.3,7456],[52.2,7531],[53.2,7606],[53.3,7681],[53.3,7756],[53.3,7831],[53.1,7906],[52.9,7982],[52.8,8057],[51.7,8131],[51.6,8206],[51.6,8281],[51.6,8355],[51.6,8431],[51.6,8505],[51.6,8580],[51.6,8656],[51.6,8731],[51.6,8805],[50.8,8881],[49.5,8956],[49.2,9031],[49.2,9106],[49.2,9181],[48.3,9257],[47.8,9332],[47.8,9407],[47.8,9482],[47.8,9556],[47.8,9630],[47.8,9705],[47.8,9779],[47.9,9855],[48,9930],[48.1,10006],[49.8,10082],[50.3,10158],[50.3,10232],[50.3,10307],[50.3,10382],[50.3,10458],[50.3,10532],[50.3,10606],[50.3,10680],[50.3,10754],[50.3,10828],[50.7,10903],[52.4,10977],[52.7,11053],[52.7,11128],[52.7,11202],[52.7,11277],[52.7,11351],[52.7,11426],[52.7,11501],[52.7,11576],[52.7,11651],[52.7,11726],[52.7,11800],[52.7,11875],[52.7,11950],[52.7,12025],[52.7,12099],[52.7,12173],[52.7,12248],[52.7,12322],[52.7,12397],[52.7,12472],[52.7,12547],[52.7,12622],[52.7,12696],[52.7,12770],[52.7,12845],[52.7,12920],[52.7,12995],[52.7,13069],[52.7,13142],[52.7,13218],[52.7,13292],[52.9,13367],[53.4,13443],[54,13517],[54.4,13593],[54.5,13668],[54.5,13742],[54.5,13816],[54.5,13891],[54.5,13966],[54.5,14041],[54.5,14115],[54.9,14191],[55,14266],[55.1,14340],[55.1,14415],[55.1,14489],[55.1,14564],[55.1,14639],[55.1,14713],[55.1,14788],[55.1,14863],[55.1,14937],[55.1,15011],[55.1,15084],[55.1,15158],[55.1,15232],[55.1,15305],[55.1,15379],[55.1,15453],[55.1,15526],[55.1,15600],[55.1,15674],[55.1,15748],[55.1,15822],[55.1,15895],[55.1,15970],[55.1,16044],[55.1,16118],[55.1,16191],[55.1,16265],[55.1,16339],[55.1,16414],[55.1,16489],[55.1,16565],[55.1,16639],[55.1,16713],[55.1,16788],[55.1,16862],[55.1,16937],[55.2,17012],[55.2,17087],[55.3,17161],[55.3,17236],[55.3,17311],[55.3,17386],[55.2,17461],[55,17536],[54.4,17611],[53.8,17686],[53.8,17761],[53.8,17835],[53.8,17910],[53.8,17985],[53.8,18060],[53.8,18135],[53.8,18210],[54.7,18285],[56.1,18360],[56.4,18436],[56.4,18512],[56.4,18586],[56.4,18661],[56.4,18736],[56.4,18810],[56.4,18886],[56.4,18961],[56.4,19035],[56.4,19110],[56.4,19185],[56.4,19260],[56.4,19335],[56.4,19410],[56.4,19485],[56.4,19560],[56.4,19635],[56.4,19709],[56.4,19784],[56.4,19859],[56.4,19932],[56.4,20007],[56.4,20082],[56.4,20156],[56.4,20230],[56.4,20305],[56.4,20379],[56.3,20454],[56.2,20529],[56.2,20604],[56.2,20678],[56.2,20752],[56.2,20826],[56.2,20901],[56.2,20976],[56.2,21050],[56.2,21124],[56.2,21199],[56.2,21274],[56.2,21348],[56.2,21422],[55.8,21498],[55,21573],[54.9,21649],[54.9,21723],[54.9,21798],[54.9,21872],[54.9,21947],[54.9,22021],[54.9,22096],[54.9,22171],[54.9,22246],[54.9,22320],[54.9,22394],[56.1,22469],[56.7,22544],[56.7,22619],[56.7,22694],[57.6,22769],[59.2,22844],[59.3,22919],[59.3,22993],[59.3,23067],[59.3,23142],[59.3,23217],[59.3,23292],[59.3,23366],[59.3,23441],[59.3,23516],[59.3,23591],[59.3,23666],[59.3,23741],[59.3,23816],[63.6,23892],[66.4,23968],[66.6,24043],[66.6,24119],[66.6,24193],[66.6,24268],[66.6,24342],[66.6,24418],[66.6,24492],[66.6,24566],[66.6,24639],[66.6,24713],[66.7,24788],[68.9,24862],[72.3,24938],[73.7,25014],[73.8,25088],[73.9,25163],[73.9,25238],[73.9,25312],[73.9,25387],[73.9,25462],[73.9,25536],[73.9,25611],[73.9,25685],[73.9,25759],[73.9,25833],[73.9,25908],[73.9,25982],[73.9,26057],[73.9,26131],[73.9,26206],[73.9,26280],[73.8,26354],[73.8,26429],[73.7,26505],[73.6,26580],[73.6,26655],[72.9,26730],[71.8,26806],[71.7,26880],[71.7,26955],[71.7,27030],[71.7,27105],[71.7,27180],[71.7,27254],[71.7,27330],[71.7,27404],[72.5,27479],[75.1,27555],[77.7,27630],[79,27706],[79.1,27782],[79.1,27857],[79.1,27931],[79.1,28005],[79.1,28079],[79.1,28155],[79.1,28229],[79.1,28302],[79.1,28376],[79.1,28450],[79.1,28524],[79.1,28598],[78.9,28674],[75.8,28750],[72.7,28825],[71.2,28900],[71.1,28976],[71.1,29050],[71.1,29125],[71.1,29200],[71.1,29274],[71.1,29349],[71.1,29423],[71.1,29497],[71.1,29572],[71.1,29646],[71.1,29721]]",1,0,614.0231,614.0238,,,[],,,,614.0238,Not at all,0,614.0243,,,[],,0,0,0,0,1,audio/Narrative13Situation2.wav,audio/Narrative13Situation2.wav,audio/Narrative13Situation2.wav,audio/Narrative13Situation2.wav,2,2,2,2,,,,,553.7827,581.6772,space,27.3732,,,,,,,,,,,,,,,,,,,,,,,,,,,,,,,
,,,,,,5e126c25a98a7a8fab258f14,2024-02-08_16h08.49.546,group3.1-3.2-social-tom,2023.2.2,MacIntel,40,65c5074098b851296ff0b7ed,65c5418d8f6ee27482552758,,,,,,,,,,,,,,,,,,,,,,,,,,,,,614.0245,2,audio/Narrative5Situation1.wav,619.03,,619.03,632.3458,"[[67,963],[57.5,1038],[52.7,1113],[51.3,1189],[49.8,1264],[48.9,1339],[48.8,1413],[48.8,1488],[49,1563],[49.5,1638],[49.7,1712],[49.8,1787],[49.8,1862],[49.8,1936],[49.8,2011],[49.8,2085],[49.8,2160],[49.8,2235],[49.8,2309],[49.8,2383],[49.8,2457],[49.8,2532],[49.8,2606],[49.8,2682],[49.8,2756],[49.8,2831],[49.8,2906],[49.8,2981],[49.8,3055],[49.8,3131],[49.8,3206],[49.4,3282],[47.6,3356],[41.8,3431],[36.4,3507],[32,3583],[29.8,3658],[27.6,3733],[25.6,3809],[24.9,3885],[24.7,3960],[24.5,4035],[23.4,4110],[22.1,4185],[21.9,4261],[21.9,4335],[21.9,4410],[21.9,4484],[21.9,4558],[21.9,4631],[21.9,4705],[21.9,4778],[21.9,4853],[21.9,4927],[21.9,5000],[21.9,5074],[21.9,5148],[21.9,5221],[21.9,5294],[21.9,5369],[21.9,5442],[21.9,5516],[21.9,5589],[21.9,5664],[21.9,5737],[22.5,5812],[25.8,5888],[26.6,5963],[27.1,6039],[29.6,6115],[34,6191],[36.5,6267],[37.9,6342],[39.2,6417],[40.4,6493],[40.4,6568],[40.5,6643],[40.5,6717],[40.5,6791],[42.3,6866],[46.7,6942],[47.6,7016],[47.7,7091],[47.7,7166],[47.9,7240],[48.4,7317],[48.4,7393],[48.4,7468],[48.4,7543],[48.4,7618],[48.4,7691],[48.4,7765],[48.4,7839],[48.4,7915],[49,7990],[49.5,8065],[49.6,8140],[49.6,8215],[49.7,8290],[50.2,8365],[50.2,8441],[50.2,8516],[50.2,8591],[50.2,8665],[50.2,8740],[50.2,8815],[50.2,8890],[50.2,8964],[50.2,9039],[50.2,9114],[50.2,9188],[50.2,9262],[50.2,9337],[50.2,9413],[50.2,9488],[50.2,9563],[50.2,9638],[50.2,9711],[50.2,9785],[50.2,9859],[50.2,9933],[50.2,10007],[50.2,10081],[50.2,10154],[50.2,10229],[50.2,10303],[50.3,10378],[51.3,10452],[51.8,10527],[52.2,10602],[52.4,10678],[54.6,10753],[58,10829],[58.4,10904],[58.4,10978],[58.4,11053],[58.4,11129],[58.4,11203],[58.4,11278],[58.4,11353],[58.4,11427],[58.4,11501],[58.4,11574],[58.4,11647],[58.4,11721],[58.4,11795],[55.9,11870],[53.6,11946],[53.3,12020],[53.3,12095],[53.3,12169],[53.3,12244],[53.4,12318],[53.9,12393],[56.5,12468],[58,12544],[58.2,12619],[58.2,12693],[58.2,12767],[58.2,12841],[58.2,12916],[58.2,12991],[58.2,13065],[58.2,13139],[58.2,13215],[58.2,13290]]",1,0,632.3459,633.428,48.82315177,0.8313,"[{""rating"":48.8231517650463,""responseTime"":0.8313000000715647}]",space,0.554,,633.428,Half the time,50,633.4295,,,[],,0,1,1,1,1,audio/Narrative7Situation1.wav,audio/Narrative8Situation1.wav,audio/Narrative5Situation1.wav,audio/Narrative6Situation1.wav,2,5,5,2,,,,,,,,,,,,,,,,,,,,,,,,,,,,,,,,,,,,,,,
,,,,,,5e126c25a98a7a8fab258f14,2024-02-08_16h08.49.546,group3.1-3.2-social-tom,2023.2.2,MacIntel,40,65c5074098b851296ff0b7ed,65c5418d8f6ee27482552758,,,,,,,,,,,,,,,,,,,,,,,,,,,,,633.4296,2,audio/Narrative5Situation2.wav,636.4524,,636.4524,665.9743,"[[44.7,889],[33.8,964],[31.2,1039],[31,1115],[31,1188],[31,1263],[31,1337],[32.3,1412],[35.5,1488],[36.9,1564],[36.9,1639],[36.9,1714],[37,1789],[37,1864],[37,1938],[37,2012],[39.9,2089],[43.8,2164],[44.6,2239],[45.9,2314],[47,2390],[47.4,2465],[47.5,2539],[47.5,2614],[47.5,2689],[47.5,2765],[48,2839],[51.9,2914],[54.6,2989],[55.3,3065],[55.3,3140],[55.3,3215],[55.3,3289],[55.3,3365],[55.3,3440],[55.3,3513],[55.3,3587],[55.3,3661],[55.3,3735],[55.3,3809],[55.3,3883],[55.3,3957],[55.3,4032],[56,4108],[58.9,4183],[61.1,4258],[63.9,4334],[65.3,4409],[65.4,4484],[65.4,4558],[65.7,4633],[69.9,4708],[71.6,4782],[71.6,4857],[71.6,4932],[71.6,5006],[71.6,5080],[71.6,5153],[71.6,5227],[71.6,5301],[71.6,5375],[71.6,5449],[71.6,5523],[71.6,5597],[71.6,5671],[71.6,5745],[71.6,5819],[75.9,5895],[78,5970],[79,6045],[81.2,6121],[82.7,6197],[82.8,6272],[82.8,6347],[82.8,6422],[82.8,6496],[82.8,6570],[82.8,6644],[82.8,6717],[82.8,6792],[82.8,6865],[82.8,6939],[82.8,7017],[82.8,7091],[82.8,7164],[82.8,7238],[82.8,7312],[82.8,7387],[82.8,7462],[82.8,7537],[82.8,7611],[83.3,7687],[83.6,7763],[84.4,7837],[85.3,7913],[86.3,7987],[87.5,8062],[88.2,8138],[88.6,8212],[88.7,8288],[88.7,8363],[88.7,8439],[88.7,8520],[88.7,8595],[88.7,8670],[88.7,8745],[88.7,8820],[88.6,8895],[87.1,8970],[84,9046],[82.5,9122],[82,9199],[80.9,9274],[80.8,9349],[80.8,9423],[80.8,9498],[80.8,9573],[80.8,9647],[80.9,9722],[80.9,9796],[80.9,9871],[80.9,9945],[80.9,10020],[80.9,10095],[80.9,10168],[80.9,10242],[79.4,10317],[77.5,10393],[77.4,10468],[77.4,10543],[75.4,10618],[73.9,10693],[73.5,10767],[73.5,10841],[73.5,10916],[73.5,10992],[73.5,11066],[73.5,11140],[73.5,11214],[73.5,11287],[73.5,11361],[73.5,11434],[73.5,11508],[73.5,11582],[73.5,11656],[73.5,11731],[73.5,11806],[71.5,11881],[69.9,11958],[68.3,12032],[67.4,12108],[66.5,12183],[65.5,12259],[65.4,12334],[65.4,12409],[65.4,12484],[65.4,12558],[65.4,12632],[65.4,12707],[65.4,12782],[65.4,12856],[65.4,12931],[65.4,13006],[65.4,13080],[65.4,13153],[65.4,13227],[65.4,13301],[65.4,13375],[65.4,13449],[65.4,13522],[65.4,13596],[65.4,13670],[64.4,13745],[62.9,13820],[62.7,13895],[61.6,13970],[59.5,14046],[58.8,14121],[58.8,14196],[58.8,14271],[58.8,14346],[58.8,14422],[58.8,14497],[58.8,14571],[58.8,14647],[58.8,14721],[58.8,14795],[58.8,14868],[58.8,14942],[58.8,15015],[58.8,15089],[58.8,15163],[58.8,15236],[58.8,15310],[58.8,15384],[58.8,15458],[59.6,15534],[61.3,15609],[61.5,15685],[61.5,15760],[61.5,15835],[58.6,15911],[55.2,15986],[54.3,16061],[54,16136],[53.7,16211],[53.7,16286],[53.7,16361],[53.7,16438],[53.7,16513],[53.7,16587],[53.7,16660],[53.7,16734],[53.7,16808],[53.7,16883],[54.1,16958],[55.6,17033],[55.8,17109],[58.2,17183],[61.4,17258],[63.9,17334],[64.5,17408],[64.5,17484],[64.5,17559],[64.5,17635],[64.5,17709],[64.5,17782],[64.5,17856],[64.5,17932],[69.8,18007],[74.9,18082],[77.1,18158],[78.9,18234],[79.3,18310],[79.3,18385],[79.3,18460],[79.3,18535],[79.3,18611],[79.3,18685],[79.3,18760],[79.3,18835],[79.3,18909],[79.3,18983],[79.3,19058],[79.8,19133],[82.8,19208],[84.1,19284],[85.9,19360],[87.2,19435],[87.7,19510],[87.7,19585],[87.7,19660],[87.7,19735],[87.7,19810],[87.7,19886],[87.7,19961],[87.7,20035],[87.7,20109],[87.7,20182],[87.7,20257],[87.7,20332],[87.8,20407],[88.1,20482],[88.2,20556],[88.2,20631],[88.3,20706],[88.5,20780],[91.1,20856],[93,20931],[93.5,21007],[95.3,21082],[95.8,21158],[96.9,21233],[97.1,21310],[97.1,21384],[97.1,21459],[97.1,21535],[97.1,21610],[97.1,21684],[97.1,21759],[97.1,21834],[97,21910],[93.5,21985],[86.8,22060],[84.6,22136],[83.4,22212],[80.7,22288],[75.2,22363],[72.9,22438],[72.7,22513],[72.6,22588],[72.6,22661],[72.6,22735],[70.8,22810],[62.9,22885],[60.9,22961],[60.9,23035],[60.9,23110],[59.1,23185],[54.7,23260],[53.5,23336],[53.4,23411],[53.4,23486],[53.4,23561],[53.4,23636],[53.4,23710],[53.4,23784],[53.4,23858],[53.4,23932],[53.4,24006],[53.4,24080],[53.4,24155],[53.4,24230],[53.4,24304],[53.4,24379],[53.4,24453],[53.4,24528],[53.4,24602],[53.4,24677],[53.2,24752],[51.1,24828],[49.6,24903],[49.5,24978],[49.5,25053],[49.5,25127],[49.5,25202],[49.5,25277],[49.5,25351],[49.5,25426],[49.5,25500],[49.5,25575],[49.5,25652],[49.5,25726],[49.5,25801],[49.5,25876],[49.5,25950],[49.5,26025],[49.5,26099],[49.5,26174],[49.5,26248],[49.5,26322],[49.5,26397],[49.9,26473],[54.1,26548],[59.3,26624],[63.5,26699],[69.4,26774],[72.5,26850],[76.5,26925],[80.7,27000],[86.8,27076],[88.8,27151],[89.1,27226],[89.1,27301],[89.1,27376],[89.1,27452],[89.1,27526],[89.1,27600],[89.1,27673],[89.1,27747],[89.1,27822],[88.7,27897],[87.3,27973],[87.1,28048],[87.1,28123],[87.1,28198],[87,28272],[84.7,28347],[83.1,28423],[82.8,28498],[82.8,28573],[82.8,28648],[82.9,28723],[82.9,28799],[83,28874],[83,28949],[83,29024],[82.9,29099],[80.9,29175],[79.1,29250],[79.1,29325],[79.1,29399],[79.1,29472]]",1,0,665.9744,667.8623,84.48893229,1.3612,"[{""rating"":84.48893229166667,""responseTime"":1.3612000000476883}]",space,1.3612,,667.8623,Half the time,50,667.8632,,,[],,0,2,2,2,1,audio/Narrative7Situation2.wav,audio/Narrative8Situation2.wav,audio/Narrative5Situation2.wav,audio/Narrative6Situation2.wav,3,3,3,3,,,,,,,,,,,,,,,,,,,,,,,,,,,,,,,,,,,,,,,
,,,,,,5e126c25a98a7a8fab258f14,2024-02-08_16h08.49.546,group3.1-3.2-social-tom,2023.2.2,MacIntel,40,65c5074098b851296ff0b7ed,65c5418d8f6ee27482552758,,,,,,,,,,,,,,,,,,,,,,,,,,,,,667.8633,2,audio/Narrative5Situation3.wav,670.8841,,670.8841,684.804,"[[999,0],[999,73],[999,146],[999,220],[999,294],[999,367],[999,440],[999,513],[999,587],[999,660],[999,734],[999,807],[999,881],[999,954],[999,1027],[999,1101],[999,1175],[999,1248],[999,1321],[999,1395],[999,1468],[999,1542],[999,1615],[999,1688],[999,1760],[999,1834],[999,1907],[999,1981],[999,2055],[999,2128],[999,2201],[999,2276],[60.1,2351],[53.3,2429],[50.7,2504],[49.8,2579],[49.7,2654],[49.7,2728],[49.7,2803],[49.7,2878],[49.7,2952],[49.7,3026],[50.4,3101],[52.4,3176],[54.9,3252],[57.6,3327],[59.2,3402],[59.5,3477],[59.6,3553],[59.6,3627],[59.6,3702],[59.6,3777],[59.6,3851],[60.2,3926],[70,4002],[77.8,4079],[79.4,4153],[79.5,4228],[79.5,4303],[79.5,4379],[79.5,4453],[79.5,4527],[79.9,4601],[85.5,4677],[91.1,4752],[92.1,4827],[92.2,4902],[92.2,4976],[92.2,5050],[92,5125],[89.2,5201],[87.2,5276],[86.8,5350],[85.5,5426],[84.9,5500],[84.9,5575],[84.9,5649],[84.9,5724],[84.9,5797],[84.9,5871],[84.9,5945],[84.9,6018],[84.9,6092],[84.9,6166],[83.2,6242],[78.1,6317],[76.6,6392],[76.5,6467],[76.4,6542],[75.8,6617],[75.7,6692],[75.7,6767],[75.7,6841],[75.7,6916],[75.7,6990],[75.7,7064],[75.7,7137],[75.7,7211],[75.7,7284],[75.7,7358],[75.7,7432],[75.7,7505],[75.7,7579],[75.7,7653],[75.7,7726],[75.7,7800],[75.7,7873],[75.7,7948],[73.8,8023],[68.3,8098],[64.5,8174],[63.8,8249],[63.7,8324],[63.7,8398],[63.7,8474],[63.7,8549],[63.7,8624],[63.7,8699],[63.7,8773],[63.7,8847],[63.7,8921],[63.7,8995],[63.7,9070],[63.7,9143],[63.7,9217],[63.7,9292],[63.7,9366],[63.7,9440],[63.7,9515],[63.7,9589],[64,9664],[64.7,9739],[64.9,9813],[64.9,9888],[64.9,9962],[64.9,10036],[64.9,10110],[64.9,10185],[64.9,10259],[65.3,10335],[66.3,10410],[66.4,10484],[68.4,10560],[72,10636],[74.9,10711],[77.5,10787],[79.3,10862],[80.2,10937],[80.3,11012],[80.3,11086],[80.2,11161],[80.1,11235],[80.1,11309],[80.1,11383],[80,11458],[80,11533],[79.9,11608],[79.8,11683],[79.8,11758],[79.8,11832],[79.7,11906],[79.7,11980],[79.7,12054],[79.7,12129],[79.7,12203],[79.6,12277],[76.7,12352],[73.3,12427],[71.5,12503],[71.4,12578],[71.4,12653],[71.4,12728],[71.4,12802],[71.4,12876],[71.3,12951],[70.5,13027],[70.3,13101],[70.3,13176],[70.3,13250],[70.3,13324],[70.3,13398],[70.3,13473],[70.3,13548],[70.3,13621],[70.3,13696],[70.3,13771],[70.3,13845],[70.3,13919]]",1,0,684.8041,686.1623,66.85700593,1.132,"[{""rating"":66.85700593171296,""responseTime"":1.1320000000000618}]",space,0.8311,,686.1623,Not at all,0,686.1634,,,[],,0,3,3,3,1,audio/Narrative7Situation3.wav,audio/Narrative8Situation3.wav,audio/Narrative5Situation3.wav,audio/Narrative6Situation3.wav,8,4,3,5,,,,,,,,,,,,,,,,,,,,,,,,,,,,,,,,,,,,,,,
,,,,,,5e126c25a98a7a8fab258f14,2024-02-08_16h08.49.546,group3.1-3.2-social-tom,2023.2.2,MacIntel,40,65c5074098b851296ff0b7ed,65c5418d8f6ee27482552758,,,,,,,,,,,,,,,,,,,,,,,,,,,,,686.1636,2,audio/Narrative5Situation4.wav,687.1868,,687.1868,707.6201,"[[67.9,223],[72.5,298],[72.6,669],[68.9,744],[67.7,819],[67.7,894],[67.7,969],[67.7,1044],[67.7,1119],[67.7,1192],[67.7,1267],[67.7,1340],[67.7,1414],[67.7,1487],[67.7,1561],[67.7,1635],[67.7,1709],[67.7,1782],[67.7,1856],[67.7,1930],[67.7,2004],[67.7,2077],[67.7,2152],[67.7,2226],[65.9,2301],[58.4,2376],[54.5,2452],[53,2527],[52,2601],[51.4,2676],[51.4,2751],[51.4,2826],[51.4,2900],[51.4,2974],[51.4,3049],[51.4,3123],[51.4,3200],[51.4,3275],[51.5,3350],[51.6,3424],[57.4,3499],[70.5,3575],[72.4,3650],[72.4,3724],[72.4,3799],[72.4,3874],[72.4,3947],[72.4,4022],[72.4,4098],[72.4,4173],[72.4,4248],[72.4,4323],[72.4,4398],[72.4,4473],[76.8,4549],[82,4624],[82.6,4700],[82.6,4775],[82.6,4850],[82.5,4925],[82.2,5000],[80.6,5075],[80,5150],[80,5224],[80.1,5299],[80.2,5373],[80.2,5448],[80.2,5522],[80.2,5597],[80.2,5672],[80.2,5746],[80.2,5821],[82.2,5896],[84.9,5972],[85.2,6048],[85.2,6122],[85.2,6196],[85.2,6271],[85.2,6345],[85.2,6420],[85.2,6495],[85.2,6570],[85.2,6645],[85.2,6719],[85.2,6794],[85.2,6868],[85.2,6942],[85.2,7017],[85.2,7090],[85.2,7166],[85.2,7239],[85.2,7314],[85.2,7388],[85.2,7463],[85.2,7538],[85.9,7613],[88.7,7688],[90.7,7764],[90.9,7838],[90.9,7913],[90.9,7988],[90.9,8062],[90.9,8137],[90.9,8212],[90.9,8287],[90.9,8362],[90.7,8437],[88.6,8512],[86.3,8587],[85,8662],[83.2,8737],[80.5,8812],[79.2,8887],[79.2,8962],[79.2,9037],[79.2,9111],[79.2,9186],[79.2,9261],[79.2,9334],[79.2,9408],[79.2,9482],[79.2,9555],[79.2,9629],[79.2,9704],[79.2,9777],[78.9,9852],[67.9,9927],[59.6,10001],[57,10077],[55.7,10152],[55.6,10227],[55.5,10301],[55.5,10376],[55.5,10450],[55.5,10525],[55.5,10600],[55.5,10674],[55.5,10749],[55.5,10823],[55.5,10896],[55.5,10970],[55.5,11043],[55.5,11117],[55.6,11192],[60.7,11267],[66.9,11343],[67.8,11418],[67.8,11494],[67.8,11569],[67.8,11644],[67.8,11720],[67.8,11795],[67.8,11869],[67.8,11944],[67.8,12018],[68.5,12094],[71.5,12170],[74.2,12246],[75.7,12321],[75.9,12397],[75.9,12472],[75.9,12547],[75.9,12621],[75.9,12697],[75.9,12771],[75.9,12846],[75.9,12921],[75.9,12996],[75.9,13071],[76,13145],[77.9,13221],[80.5,13296],[81.8,13371],[82,13446],[82,13521],[82,13595],[82,13670],[82,13745],[82,13819],[82,13894],[82,13968],[81.4,14044],[81.1,14118],[81.1,14193],[81.1,14267],[81.1,14341],[81.1,14416],[81,14490],[80.4,14565],[77,14640],[74.8,14715],[74.7,14789],[74.7,14863],[74.7,14938],[74.7,15013],[74.7,15088],[74.7,15163],[78.2,15238],[88.8,15313],[90.8,15389],[90.9,15463],[90.9,15537],[90.9,15612],[90.9,15687],[90.9,15763],[90.9,15838],[90.9,15913],[90.9,15987],[90.9,16061],[90.9,16136],[90.9,16210],[90.9,16288],[90.9,16362],[90.9,16437],[90.9,16511],[90.9,16586],[90.9,16660],[90.9,16735],[91.1,16810],[95,16885],[97.5,16960],[97.6,17034],[97.6,17108],[97.6,17183],[97.6,17258],[97.6,17333],[97.6,17408],[97.6,17482],[97.6,17557],[97.6,17631],[97.6,17705],[97.6,17782],[97.5,17857],[97.5,17932],[97.5,18006],[97.4,18080],[97.4,18154],[97.4,18228],[97.4,18302],[97.4,18376],[97.4,18450],[97.4,18524],[97.5,18599],[97.7,18673],[99.4,18747],[100,18822],[100,18897],[100,18972],[100,19047],[100,19121],[100,19196],[100,19269],[100,19343],[100,19418],[100,19492],[99.8,19567],[99.5,19642],[99.4,19716],[99.4,19790],[99.4,19864],[99.4,19939],[99.4,20012],[99.4,20087],[99.4,20161],[99.4,20235],[99.4,20310],[99.4,20384]]",1,0,707.6203,709.2482,92.75987413,1.353,"[{""rating"":92.75987413194444,""responseTime"":1.3529999999999518}]",space,1.0792,,709.2484,Half the time,50,709.2494,,,[],,0,4,4,4,1,audio/Narrative7Situation4.wav,audio/Narrative8Situation4.wav,audio/Narrative5Situation4.wav,audio/Narrative6Situation4.wav,3,3,1,2,,,,,,,,,,,,,,,,,,,,,,,,,,,,,,,,,,,,,,,
,,,,,,5e126c25a98a7a8fab258f14,2024-02-08_16h08.49.546,group3.1-3.2-social-tom,2023.2.2,MacIntel,40,65c5074098b851296ff0b7ed,65c5418d8f6ee27482552758,,,,,,,,,,,,,,,,,,,,,,,,,,,,,709.2495,2,audio/Narrative5Situation5.wav,714.2644,,714.2645,729.7131,"[[51.2,1343],[51.9,1419],[52.6,1495],[51.7,1570],[49.9,1646],[49.2,1723],[49.2,1798],[49.2,1872],[49.2,1947],[49.2,2021],[49.2,2095],[49.2,2169],[49.2,2244],[50,2319],[50.9,2393],[51.6,2469],[51.9,2544],[52.2,2619],[52.3,2694],[52.3,2768],[52.3,2843],[52.3,2917],[52.3,2991],[52.3,3066],[51.8,3141],[44.2,3217],[39.6,3292],[38.2,3367],[37.6,3442],[37.4,3518],[37.4,3591],[37.4,3666],[37.4,3739],[37.4,3812],[37.4,3887],[37.3,3963],[36.4,4039],[36.4,4114],[37.7,4188],[49.3,4264],[55.9,4339],[57,4413],[57.1,4488],[57.2,4563],[57.2,4638],[57.2,4713],[57.3,4789],[57.3,4864],[57.3,4937],[57.3,5011],[57.3,5085],[57.3,5158],[57.3,5232],[57.3,5306],[57.3,5380],[57.3,5454],[57.3,5528],[62.5,5604],[68,5679],[70.9,5755],[75.5,5831],[77.4,5905],[77.4,5980],[77.4,6055],[77.4,6129],[77.4,6204],[77.4,6279],[77.4,6353],[77.4,6427],[77.4,6501],[77.4,6576],[77.8,6651],[79.8,6727],[81.6,6801],[83.2,6876],[83.9,6951],[84.7,7026],[84.9,7101],[84.9,7175],[84.9,7249],[84.9,7324],[84.9,7398],[84.9,7473],[84.9,7548],[84.9,7622],[84.9,7697],[84.9,7772],[84.9,7847],[84.9,7921],[84.9,7996],[84.9,8071],[84.9,8146],[84.9,8221],[84.6,8295],[82.7,8370],[81.9,8446],[81.9,8521],[81.2,8596],[78.4,8671],[77.2,8746],[77.1,8821],[77.1,8895],[77.1,8970],[77.1,9045],[77.1,9120],[77.1,9196],[77.1,9271],[77.1,9345],[77.1,9420],[81.2,9496],[88.3,9572],[92.1,9647],[92.7,9722],[92.7,9797],[92.7,9871],[92.7,9946],[92.7,10021],[92.6,10097],[92.6,10172],[92.6,10246],[92.6,10322],[92.6,10397],[92.6,10472],[92.6,10547],[92.6,10622],[92.6,10697],[92.6,10772],[92.6,10847],[92.6,10922],[92.6,10996],[92.6,11070],[92.6,11143],[92.6,11218],[92.6,11293],[91.2,11368],[85.4,11442],[81.1,11517],[80.5,11593],[80.5,11668],[80.4,11743],[80.4,11819],[80.4,11893],[80.4,11967],[80.4,12041],[80.4,12114],[80.4,12188],[80.4,12261],[80.4,12335],[80.4,12409],[80.4,12482],[80.4,12556],[80.4,12630],[80.4,12703],[80.4,12777],[80.4,12852],[80.4,12927],[79,13002],[75.5,13077],[73.9,13153],[73.1,13229],[72.9,13303],[72.9,13378],[70.1,13452],[64.6,13528],[62.6,13603],[61.8,13678],[61.2,13753],[60.5,13828],[60,13904],[60,13980],[60,14055],[60,14130],[60,14205],[60,14278],[60,14352],[60,14426],[60,14500],[61.5,14575],[67,14650],[71.1,14727],[73.3,14803],[73.4,14878],[73.4,14953],[73.4,15028],[73.4,15102],[73.4,15175],[73.4,15249],[73.4,15324],[73.4,15398]]",1,0,729.7132,731.1227,79.50303819,1.1828,"[{""rating"":75.30110677083333,""responseTime"":0.7286000000239028},{""rating"":79.50303819444444,""responseTime"":1.1827999999524081}]",space,0.8815,,731.1228,All the time,100,735.9914,100,4.4206,"[{""rating"":100,""responseTime"":2.929899999976101},{""rating"":100,""responseTime"":4.420600000023796}]",space,0,5,5,5,1,audio/Narrative7Situation5.wav,audio/Narrative8Situation5.wav,audio/Narrative5Situation5.wav,audio/Narrative6Situation5.wav,5,2,5,2,,,4.3223,,,,,,,,,,,,,,,,,,,,,,,,,,,,,,,,,,,,
,,,,,,5e126c25a98a7a8fab258f14,2024-02-08_16h08.49.546,group3.1-3.2-social-tom,2023.2.2,MacIntel,40,65c5074098b851296ff0b7ed,65c5418d8f6ee27482552758,,,,,,,,,,,,,,,,,,,,,,,,,,,,,735.9916,2,audio/Narrative5Situation6.wav,738.9982,,738.9983,744.6953,"[[999,4],[999,77],[999,150],[999,223],[999,296],[999,370],[999,443],[999,516],[999,590],[999,664],[999,737],[999,811],[999,885],[68.9,960],[57.2,1035],[55.9,1110],[55.9,1185],[54.9,1260],[52.1,1336],[51.1,1412],[51.1,1486],[51.1,1560],[50.8,1635],[50.7,1710],[50.6,1785],[50.6,1859],[50.6,1932],[50.6,2005],[50.6,2080],[50.6,2154],[50.6,2229],[50.6,2304],[50.6,2378],[50.6,2453],[50.6,2528],[50.8,2603],[50.9,2678],[50.9,2753],[51,2829],[51,2904],[51.1,2979],[51.1,3054],[51.1,3129],[51.1,3203],[51.1,3278],[51.1,3353],[51.1,3429],[51.2,3504],[52.7,3580],[54.6,3655],[55.4,3731],[55.6,3806],[55.6,3880],[55.6,3956],[55.6,4030],[55.6,4104],[55.6,4177],[55.6,4251],[55.6,4325],[55.6,4399],[55.6,4473],[55.6,4547],[55.6,4621],[55.8,4695],[60.3,4771],[62.4,4846],[62.5,4921],[63.8,4996],[67.8,5070],[68.8,5146],[68.9,5221],[69.2,5295],[71.6,5371],[72.8,5446],[72.8,5521],[72.8,5597],[72.8,5671]]",1,0,744.6953,746.0577,59.71679688,1.1605,"[{""rating"":59.716796875,""responseTime"":1.1604999999999563}]",space,0.8335,,746.0578,All the time,100,746.0585,,,[],,0,6,6,6,1,audio/Narrative7Situation6.wav,audio/Narrative8Situation6.wav,audio/Narrative5Situation6.wav,audio/Narrative6Situation6.wav,3,2,3,2,,,,,,,,,,,,,,,,,,,,,,,,,,,,,,,,,,,,,,,
,,,,,,5e126c25a98a7a8fab258f14,2024-02-08_16h08.49.546,group3.1-3.2-social-tom,2023.2.2,MacIntel,40,65c5074098b851296ff0b7ed,65c5418d8f6ee27482552758,,,,,,,,,,,,,,,,,,,,,,,,,,,,,746.0586,2,audio/Narrative5Situation7.wav,750.0626,,750.0626,771.1251,"[[57.6,888],[53.2,963],[51.7,1038],[51.7,1113],[51.3,1189],[49.9,1264],[49.6,1340],[49.6,1415],[49.6,1490],[49.6,1565],[49.6,1640],[49.6,1714],[50.2,1790],[51.9,1865],[53.3,1940],[53.7,2014],[53.7,2089],[53.7,2163],[53.7,2237],[53.7,2312],[53.7,2385],[53.7,2461],[53.7,2535],[53.7,2610],[53.5,2684],[52.9,2760],[52.4,2835],[52.2,2909],[52,2984],[51.7,3059],[51.7,3134],[51.7,3209],[51.7,3283],[51.7,3357],[51.7,3433],[51.9,3507],[52.6,3583],[53.2,3659],[53.9,3734],[54,3808],[54.5,3884],[55.9,3959],[56.2,4035],[56.2,4110],[56.2,4184],[56.2,4258],[56.3,4334],[57.1,4409],[57.3,4485],[57.3,4560],[56.5,4634],[53.5,4710],[52.2,4786],[51.9,4861],[50.9,4937],[50.6,5012],[48.7,5088],[45.8,5163],[45.4,5238],[45.4,5313],[45.4,5388],[45.4,5463],[45.4,5537],[45.4,5612],[45.4,5687],[45.4,5762],[45.3,5837],[45.3,5912],[45.3,5987],[45.3,6062],[45.3,6137],[45.3,6211],[45.3,6285],[45.3,6359],[45.3,6433],[45.3,6507],[45.3,6581],[45.3,6656],[45.3,6730],[45.3,6804],[45.3,6878],[45.3,6952],[45.3,7027],[45.6,7102],[47.3,7177],[47.9,7253],[48.4,7328],[49.3,7404],[50.2,7479],[50.6,7555],[50.6,7630],[50.7,7705],[50.7,7780],[50.7,7855],[50.7,7929],[50.7,8004],[50.7,8079],[50.7,8154],[50.7,8229],[50.7,8305],[50.7,8380],[50.7,8455],[50.7,8530],[50.7,8606],[50.7,8681],[52.8,8757],[53.7,8832],[53.7,8906],[54.3,8981],[56.5,9057],[57.5,9132],[57.6,9206],[58.5,9282],[60.1,9358],[60.3,9432],[60.3,9508],[60.3,9583],[60.3,9659],[60.3,9733],[60.3,9807],[60.3,9880],[60.3,9955],[60.3,10028],[60.3,10102],[60.3,10176],[60.3,10250],[60.3,10323],[60.3,10397],[60.3,10471],[60.3,10546],[60.3,10620],[61.7,10695],[62.8,10771],[63.1,10846],[63.4,10921],[64,10997],[64.2,11072],[64.2,11148],[64.2,11224],[64.2,11298],[64.2,11373],[64.2,11447],[64.2,11522],[64.2,11597],[64.2,11672],[64.2,11747],[64.2,11822],[64.2,11897],[64.2,11973],[64.2,12048],[64.2,12123],[64.2,12197],[64.2,12272],[64.3,12347],[66.1,12423],[68.2,12498],[70.1,12574],[71.5,12649],[71.9,12725],[71.9,12800],[71.9,12875],[71.9,12950],[71.9,13025],[71.9,13100],[71.9,13174],[71.9,13248],[71.9,13322],[71.9,13400],[72.8,13475],[76.8,13551],[79,13626],[79.9,13702],[81.2,13777],[81.9,13852],[81.9,13927],[81.9,14001],[81.9,14076],[81.9,14151],[81.9,14226],[81.9,14300],[81.9,14375],[81.9,14450],[81.9,14525],[81.9,14599],[81.9,14674],[81.9,14750],[81.9,14824],[81.9,14902],[81.9,14976],[81.9,15052],[81.9,15126],[81.9,15201],[81.9,15275],[78.9,15351],[69.9,15426],[66.4,15503],[66.2,15578],[66.2,15653],[66.2,15728],[66.2,15803],[66.2,15879],[66.2,15954],[66.2,16028],[66.2,16102],[66.2,16177],[66.2,16250],[66.2,16324],[66.2,16398],[66.2,16473],[66.2,16548],[65.2,16624],[65,16699],[65.1,16774],[68.7,16850],[74,16925],[75.8,17000],[75.9,17075],[75.9,17150],[75.9,17226],[75.9,17301],[75.9,17375],[75.9,17450],[75.9,17525],[75.9,17600],[75.9,17673],[75.9,17747],[75.9,17822],[75.9,17895],[75.9,17969],[75.9,18044],[75.9,18120],[75.7,18195],[75.6,18269],[75.6,18345],[75,18420],[74.4,18495],[74,18571],[72.6,18646],[71.7,18722],[71.3,18798],[70.9,18873],[70.9,18949],[70.9,19023],[70.9,19097],[70.9,19172],[70.9,19247],[70.9,19321],[70.9,19396],[70.9,19470],[70.9,19546],[70.9,19620],[70.9,19695],[70.9,19769],[71.7,19844],[72.2,19919],[72.2,19993],[72.2,20068],[72.2,20142],[72.2,20216],[72.2,20291],[72.2,20366],[72.2,20441],[72.2,20516],[72.1,20591],[72.1,20665],[72.1,20740],[72.1,20813],[72.1,20887],[72.1,20962],[72.1,21037]]",1,0,771.1251,772.0841,66.71639902,0.7069,"[{""rating"":66.7163990162037,""responseTime"":0.7068999999761445}]",space,0.4298,,772.0842,All the time,100,772.0849,,,[],,0,7,7,7,1,audio/Narrative7Situation7.wav,audio/Narrative8Situation7.wav,audio/Narrative5Situation7.wav,audio/Narrative6Situation7.wav,5,3,4,5,,,,,,,,,,,,,,,,,,,,,,,,,,,,,,,,,,,,,,,
,,,,,,5e126c25a98a7a8fab258f14,2024-02-08_16h08.49.546,group3.1-3.2-social-tom,2023.2.2,MacIntel,40,65c5074098b851296ff0b7ed,65c5418d8f6ee27482552758,,,,,,,,,,,,,,,,,,,,,,,,,,,,,772.085,2,audio/Narrative5Situation8.wav,775.094,,775.0941,783.9327,"[[66.2,817],[58.3,891],[52.2,967],[50.6,1042],[49.5,1117],[48.4,1192],[48.3,1266],[48.3,1341],[48.3,1416],[48.6,1491],[49.5,1566],[49.7,1640],[50.3,1715],[50.4,1790],[50.4,1865],[50.4,1941],[50.4,2015],[50.4,2089],[50.4,2163],[51.4,2239],[53.3,2314],[53.9,2390],[54.5,2466],[54.8,2542],[55.3,2617],[56.4,2691],[56.6,2767],[56.6,2841],[56.6,2916],[56.6,2991],[56.6,3066],[56.6,3141],[56.6,3216],[56.6,3291],[56.6,3366],[56.6,3441],[56.6,3515],[56.6,3591],[56.6,3666],[56.6,3740],[56.6,3814],[56.6,3889],[56.6,3964],[56.6,4038],[56.6,4113],[56.6,4188],[56.6,4263],[56.6,4338],[56.6,4413],[56.6,4488],[57.2,4563],[60.8,4638],[64.3,4713],[65.6,4788],[65.8,4863],[65.8,4938],[65.8,5014],[65.8,5089],[65.8,5163],[65.8,5237],[65.8,5312],[65.8,5388],[65.8,5463],[65.5,5538],[65.1,5613],[65.1,5687],[65.1,5762],[65.1,5837],[65.1,5911],[65.1,5986],[65.1,6061],[65.1,6136],[65.1,6211],[65.1,6286],[65.1,6361],[65.1,6436],[65.1,6511],[65.1,6586],[65.1,6661],[65.1,6735],[65.1,6809],[65.1,6884],[66.6,6959],[69.8,7034],[73.2,7111],[75.6,7187],[76.6,7262],[77.2,7338],[78.5,7414],[78.8,7490],[78.8,7565],[78.8,7640],[78.8,7716],[78.8,7791],[78.8,7866],[78.8,7940],[78.8,8014],[78.8,8088],[78.8,8163],[78.8,8238],[78.8,8314],[78.8,8388],[78.8,8463],[78.8,8538],[78.8,8613],[78.8,8688],[78.8,8763],[78.8,8838]]",1,0,783.9327,785.571,72.50660084,1.3868,"[{""rating"":72.50660083912037,""responseTime"":1.386799999952359}]",space,1.1099,,785.571,All the time,100,785.5717,,,[],,0,8,8,8,1,audio/Narrative7Situation8.wav,audio/Narrative8Situation8.wav,audio/Narrative5Situation8.wav,audio/Narrative6Situation8.wav,2,3,3,5,,,,,,,,,,,,,,,,,,,,,,,,,,,,,,,,,,,,,,,
,,,,,,5e126c25a98a7a8fab258f14,2024-02-08_16h08.49.546,group3.1-3.2-social-tom,2023.2.2,MacIntel,40,65c5074098b851296ff0b7ed,65c5418d8f6ee27482552758,,,,,,,,,,,,,,,,,,,,,,,,,,,,,785.5718,2,audio/Narrative5Situation9.wav,788.5819,,788.5819,828.177,"[[71.7,444],[67.1,519],[61.8,595],[58.4,670],[58.1,745],[58.1,819],[58.1,894],[58.1,968],[55.6,1043],[52,1118],[51.4,1194],[51.1,1269],[50.2,1345],[49.8,1421],[49.8,1496],[49.8,1570],[49.8,1646],[49.8,1721],[49.8,1795],[49.8,1871],[49.8,1945],[49.8,2019],[49.8,2093],[49.8,2167],[49.8,2242],[49.8,2317],[50.3,2392],[50.9,2467],[51,2542],[51.1,2616],[51.1,2690],[51.1,2765],[51.1,2840],[51.1,2915],[51.1,2990],[51.1,3065],[51.5,3140],[52,3216],[52.3,3291],[51.8,3366],[48.3,3441],[47.5,3517],[47.5,3591],[47.5,3666],[47.5,3740],[47.3,3815],[45.7,3889],[44.6,3965],[44.4,4040],[44.3,4115],[42.7,4190],[40.3,4265],[39.8,4339],[39.8,4414],[39.8,4489],[39.8,4564],[39.8,4639],[39.8,4714],[39.8,4788],[39.8,4862],[39.8,4936],[39.8,5011],[39.8,5085],[39.8,5159],[39.8,5235],[39.4,5309],[37.7,5384],[36.7,5460],[35.9,5534],[35.2,5609],[34.7,5684],[34.2,5759],[34.1,5834],[34.1,5910],[34.1,5985],[34.1,6060],[34,6136],[34,6211],[35.7,6287],[42.2,6364],[48.9,6439],[50,6514],[50.3,6589],[51.6,6665],[51.7,6741],[51.7,6815],[51.7,6890],[51.7,6966],[51.7,7040],[51.7,7114],[52.4,7189],[56,7265],[57,7340],[57.1,7415],[57.1,7490],[57.1,7565],[57.1,7640],[57.1,7716],[57.1,7792],[57.1,7866],[57.1,7942],[57.1,8017],[57.1,8092],[57.1,8167],[57.1,8241],[57.1,8316],[57.1,8391],[57.1,8465],[57.1,8540],[57.6,8615],[59.9,8690],[62.1,8765],[62.7,8840],[62.7,8915],[62.7,8991],[62.7,9066],[62.7,9141],[62.7,9216],[62.7,9291],[62.7,9365],[62.7,9439],[62.7,9513],[62.7,9587],[62.7,9661],[62.7,9734],[62.7,9808],[62.7,9882],[62.7,9956],[62.7,10030],[62.7,10105],[62.7,10180],[62.7,10255],[62.7,10330],[62.7,10405],[62.7,10481],[62.7,10555],[62.7,10630],[62.7,10704],[62.7,10779],[62.8,10854],[64.5,10929],[65,11005],[65,11080],[65,11155],[65,11230],[65,11305],[65,11380],[65,11453],[65,11528],[65,11602],[65,11677],[65,11751],[65,11826],[65,11900],[65,11975],[65,12049],[65,12123],[65,12197],[64.9,12272],[64.1,12348],[63,12423],[62.9,12498],[62.9,12572],[62.9,12647],[62.9,12721],[62.9,12796],[62.9,12871],[62.9,12946],[63,13021],[66.9,13096],[70.8,13171],[72.2,13246],[72.2,13321],[72.2,13395],[72.2,13469],[72.2,13543],[72.2,13619],[72.2,13693],[72.2,13768],[72.2,13843],[72.2,13917],[72.2,13991],[72.2,14066],[80.8,14141],[84.3,14215],[84.4,14291],[84.4,14366],[84.4,14441],[84.4,14515],[84.5,14590],[84.5,14664],[84.5,14738],[84.5,14813],[84.5,14888],[84.5,14962],[84.5,15037],[84.5,15112],[84.5,15186],[84.5,15261],[84.6,15337],[86.6,15412],[87.9,15488],[88,15562],[88,15637],[88,15712],[88,15787],[88,15862],[88,15937],[88,16011],[88,16085],[84.7,16160],[82.3,16236],[82.3,16311],[82.3,16385],[82.3,16460],[82.3,16535],[82.3,16609],[82.3,16684],[82.3,16759],[82.3,16834],[82.3,16910],[82.3,16984],[82.3,17058],[82.3,17133],[82.6,17208],[86.9,17283],[91.4,17658],[91.4,17732],[91.4,17807],[91.4,17882],[91.4,17956],[91.4,18032],[91.4,18109],[91.8,18182],[92.7,18257],[92.9,18331],[92.9,18406],[92.9,18481],[92.9,18557],[92.9,18631],[92.9,18706],[92.9,18781],[92.9,18855],[92.9,18929],[92.9,19003],[92.9,19077],[92.9,19150],[92.9,19224],[92.9,19298],[92.9,19371],[92.9,19446],[92.9,19520],[92.9,19595],[92.9,19670],[92.9,19744],[92.9,19819],[92.9,19893],[92.9,19967],[92.9,20042],[92.9,20116],[91.7,20190],[90.7,20266],[90.6,20340],[90.5,20414],[90.5,20488],[90.5,20563],[90.5,20638],[90.5,20713],[90.5,20788],[90.5,20862],[90.5,20937],[90.5,21011],[90.5,21086],[90.5,21161],[90.5,21234],[90.5,21309],[90.5,21383],[90.5,21457],[90.5,21530],[90.5,21605],[90.5,21680],[90.5,21754],[90.5,21828],[90.3,21903],[89.9,21977],[89.9,22052],[89.9,22126],[89.9,22200],[89.9,22274],[89.1,22349],[88.2,22424],[88.2,22499],[88,22573],[87.3,22649],[87.2,22724],[87.2,22798],[87.2,22872],[87.3,22947],[88.6,23023],[90.1,23097],[92.3,23172],[94.4,23248],[96.8,23324],[97.8,23400],[98,23474],[98,23549],[98,23623],[98,23698],[98,23773],[98,23847],[98,23922],[97.6,23996],[96.8,24072],[96.7,24147],[96.4,24222],[95.4,24297],[95.2,24372],[95.1,24446],[93.6,24521],[92.3,24598],[90.7,24673],[89.1,24748],[88,24824],[86.8,24899],[85.8,24974],[85.3,25048],[84.9,25122],[84.2,25197],[84.1,25273],[84.1,25347],[83.8,25422],[83,25497],[82,25571],[81.2,25646],[81.1,25720],[80.7,25796],[80,25870],[79.7,25944],[79.7,26018],[79.7,26093],[79.7,26167],[79.8,26242],[80,26316],[80.5,26390],[82.4,26465],[82.6,26539],[83.3,26614],[84.2,26689],[84.3,26764],[84.3,26839],[84.3,26913],[84.3,26989],[84.3,27063],[84.3,27138],[84.3,27211],[84.3,27285],[84.3,27359],[84.3,27431],[84.3,27505],[84.3,27578],[84.3,27652],[84.3,27726],[84.3,27801],[80.8,27876],[77.8,27951],[77.3,28027],[76.5,28101],[75.8,28176],[75.2,28251],[75.1,28326],[75.1,28400],[75.1,28475],[75.1,28549],[75.1,28623],[75.1,28696],[75.1,28770],[75.1,28843],[75.1,28916],[75.1,28990],[75.1,29064],[75.1,29138],[73.2,29212],[63.2,29287],[57.8,29363],[57.4,29438],[57.4,29512],[57.4,29587],[57.4,29661],[57.4,29735],[57.4,29810],[57.4,29885],[57.4,29959],[57.4,30034],[57.5,30109],[62.5,30183],[69.3,30259],[70.1,30334],[70.1,30409],[70.1,30484],[70.1,30558],[70.1,30633],[70.1,30708],[70.1,30783],[70.5,30858],[70.7,30932],[70.7,31006],[70.7,31080],[70.7,31154],[70.7,31228],[70.7,31303],[70.7,31376],[70.7,31450],[70.7,31523],[70.7,31597],[70.7,31671],[70.7,31745],[70.7,31819],[70.7,31893],[70.7,31966],[70.7,32040],[70.7,32114],[70.6,32189],[70.6,32263],[70.6,32337],[70.6,32411],[69.8,32486],[68.5,32561],[67.8,32637],[63.7,32711],[56.8,32786],[55.8,32862],[55.8,32936],[55.8,33010],[55.8,33084],[55.8,33158],[55.5,33233],[55.5,33308],[55.5,33382],[55.5,33457],[55.5,33531],[55.5,33604],[55.5,33677],[55.5,33751],[56.7,33826],[65.1,33901],[71.5,33976],[73.4,34050],[74.2,34125],[74.6,34200],[74.6,34274],[74.6,34347],[74.6,34422],[75.4,34497],[76.3,34572],[76.3,34646],[76.3,34721],[76.3,34795],[76.3,34873],[76.3,34947],[76.3,35021],[76.3,35095],[76.3,35168],[76.3,35241],[76.3,35316],[76.6,35390],[79,35466],[80.8,35541],[80.9,35616],[80.9,35690],[80.9,35764],[80.9,35839],[80.9,35913],[80.9,35987],[80.9,36061],[80.9,36135],[80.9,36210],[80.9,36284],[80.9,36360],[80.9,36435],[80.9,36509],[80.9,36583],[80.9,36657],[80.9,36731],[80.9,36805],[80.9,36879],[80.9,36953],[80.9,37028],[80.9,37103],[80.9,37178],[80.9,37252],[80.9,37325],[80.9,37399],[80.9,37472],[80.9,37545],[80.9,37620],[80.9,37694],[82.6,37769],[83.6,37843],[83.9,37918],[84.1,37992],[84.2,38067],[84.2,38141],[84.2,38215],[84.2,38289],[84.2,38361],[84.2,38434],[84.2,38508],[84.2,38581],[84.2,38655],[84.2,38729],[84.2,38803],[84.2,38878],[84.2,38952],[84.2,39027],[84.2,39101],[84.2,39174],[84.2,39248],[84.2,39323],[84.2,39397],[84.2,39471],[84.2,39545]]",1,0,828.1771,829.3016,78.20276331,0.876,"[{""rating"":78.20276331018519,""responseTime"":0.8759999999999764}]",space,0.5746,,829.3017,Not at all,0,829.3029,,,[],,0,9,9,9,1,audio/Narrative7Situation9.wav,audio/Narrative8Situation9.wav,audio/Narrative5Situation9.wav,audio/Narrative6Situation9.wav,2,3,3,4,,,,,,,,,,,,,,,,,,,,,,,,,,,,,,,,,,,,,,,
