exp_question,consent.started,consent.stopped,consentResponse.keys,consentResponse.rt,consentResponse.duration,participantID,date,expName,psychopyVersion,OS,frameRate,STUDY_ID,SESSION_ID,opening1.started,opening1.stopped,keyEndingOpening1.keys,keyEndingOpening1.rt,keyEndingOpening1.duration,volumeAdjust.started,volumeAdjust.stopped,endingAdjust.keys,endingAdjust.rt,endingAdjust.duration,opening2.started,opening2.stopped,keyEndingOpening.keys,keyEndingOpening.rt,keyEndingOpening.duration,mouse.x,mouse.y,mouse.leftButton,mouse.midButton,mouse.rightButton,mouse.time,instructionLoop.thisRepN,instructionLoop.thisTrialN,instructionLoop.thisN,instructionLoop.thisIndex,instructionLoop.ran,readyForAudio.started,readyForAudio.stopped,fixation.started,run,audio_played,fixation.stopped,endPractice.keys,audioPre.started,audioPre.stopped,continuousResponses_audio,continuousSlider.response,continuousSlider.rt,intRating.started,intRating.stopped,intQuestionSlider.response,intQuestionSlider.rt,intQuestionSlider.history,confirmResponse.keys,confirmResponse.rt,confirmResponse.duration,catchQuestion.started,catch_label,catch_value,catchQuestion.stopped,catchQuestionSlider.response,catchQuestionSlider.rt,catchQuestionSlider.history,confirmResponse_2.keys,audioRunLoop.thisRepN,audioRunLoop.thisTrialN,audioRunLoop.thisN,audioRunLoop.thisIndex,audioRunLoop.ran,conditions1_1,conditions2_1,conditions1_2,conditions2_2,dur1_1,dur2_1,dur1_2,dur2_2,endPractice.rt,endPractice.duration,confirmResponse_2.rt,confirmResponse_2.duration,runIntervalBreak.started,runIntervalBreak.stopped,endingBreakKey.keys,endingBreakKey.rt,endingBreakKey.duration,connection.started,connection.stopped,connectionEnding.keys,connectionEnding.rt,connectionEnding.duration,readyForText.started,readyForText.stopped,textPre.started,run_dup,textPre.stopped,continuousResponses_text,textRunLoop.thisRepN,textRunLoop.thisTrialN,textRunLoop.thisN,textRunLoop.thisIndex,textRunLoop.ran,text1_1,text1_2,text2_1,text2_2,runBreakText.started,runBreakText.stopped,endingBreakKey_2.keys,endingBreakKey_2.rt,endingBreakKey_2.duration,ending.started,ending.stopped,endingEnding.keys,endingEnding.rt,endingEnding.duration
tom,0,129.538,y,129.216,,5e1371f92b12bd9a96c2d902,2024-05-13_10h29.45.053,group3.1-3.2-social-tom,2023.2.2,Win32,60.0240096,65c5074098b851296ff0b7ed,664231d1d200c76851154db6,,,,,,,,,,,,,,,,,,,,,,,,,,,,,,,,,,,,,,,,,,,,,,,,,,,,,,,,,,,,,,,,,,,,,,,,,,,,,,,,,,,,,,,,,,,,,,,,,,,,,,,,,,
,,,,,,5e1371f92b12bd9a96c2d902,2024-05-13_10h29.45.053,group3.1-3.2-social-tom,2023.2.2,Win32,60.0240096,65c5074098b851296ff0b7ed,664231d1d200c76851154db6,129.539,131.704,space,2.122,,,,,,,,,,,,,,,,,,,,,,,,,,,,,,,,,,,,,,,,,,,,,,,,,,,,,,,,,,,,,,,,,,,,,,,,,,,,,,,,,,,,,,,,,,,,,,,,,,,,,,
,,,,,,5e1371f92b12bd9a96c2d902,2024-05-13_10h29.45.053,group3.1-3.2-social-tom,2023.2.2,Win32,60.0240096,65c5074098b851296ff0b7ed,664231d1d200c76851154db6,,,,,,131.705,172.706,space,40.668,,,,,,,,,,,,,,,,,,,,,,,,,,,,,,,,,,,,,,,,,,,,,,,,,,,,,,,,,,,,,,,,,,,,,,,,,,,,,,,,,,,,,,,,,,,,,,,,,
,,,,,,5e1371f92b12bd9a96c2d902,2024-05-13_10h29.45.053,group3.1-3.2-social-tom,2023.2.2,Win32,60.0240096,65c5074098b851296ff0b7ed,664231d1d200c76851154db6,,,,,,,,,,,172.713,233.572,space,60.837,,[],[],[],[],[],[],0,0,0,0,1,,,,,,,,,,,,,,,,,,,,,,,,,,,,,,,,,,,,,,,,,,,,,,,,,,,,,,,,,,,,,,,,,,,,,,,,,,,,,,,,
,,,,,,5e1371f92b12bd9a96c2d902,2024-05-13_10h29.45.053,group3.1-3.2-social-tom,2023.2.2,Win32,60.0240096,65c5074098b851296ff0b7ed,664231d1d200c76851154db6,,,,,,,,,,,233.573,389.171,space,155.484,,[],[],[],[],[],[],1,0,1,0,1,,,,,,,,,,,,,,,,,,,,,,,,,,,,,,,,,,,,,,,,,,,,,,,,,,,,,,,,,,,,,,,,,,,,,,,,,,,,,,,,
,,,,,,5e1371f92b12bd9a96c2d902,2024-05-13_10h29.45.053,group3.1-3.2-social-tom,2023.2.2,Win32,60.0240096,65c5074098b851296ff0b7ed,664231d1d200c76851154db6,,,,,,,,,,,389.174,392.086,space,2.853,,[],[],[],[],[],[],2,0,2,0,1,,,,,,,,,,,,,,,,,,,,,,,,,,,,,,,,,,,,,,,,,,,,,,,,,,,,,,,,,,,,,,,,,,,,,,,,,,,,,,,,
,,,,,,5e1371f92b12bd9a96c2d902,2024-05-13_10h29.45.053,group3.1-3.2-social-tom,2023.2.2,Win32,60.0240096,65c5074098b851296ff0b7ed,664231d1d200c76851154db6,,,,,,,,,,,392.087,394.67,space,2.551,,[],[],[],[],[],[],3,0,3,0,1,,,,,,,,,,,,,,,,,,,,,,,,,,,,,,,,,,,,,,,,,,,,,,,,,,,,,,,,,,,,,,,,,,,,,,,,,,,,,,,,
,,,,,,5e1371f92b12bd9a96c2d902,2024-05-13_10h29.45.053,group3.1-3.2-social-tom,2023.2.2,Win32,60.0240096,65c5074098b851296ff0b7ed,664231d1d200c76851154db6,,,,,,,,,,,394.67,397.67,space,2.975,,[],[],[],[],[],[],4,0,4,0,1,,,,,,,,,,,,,,,,,,,,,,,,,,,,,,,,,,,,,,,,,,,,,,,,,,,,,,,,,,,,,,,,,,,,,,,,,,,,,,,,
,,,,,,5e1371f92b12bd9a96c2d902,2024-05-13_10h29.45.053,group3.1-3.2-social-tom,2023.2.2,Win32,60.0240096,65c5074098b851296ff0b7ed,664231d1d200c76851154db6,,,,,,,,,,,,,,,,,,,,,,,,,,,397.673,400.252,400.275,1,audio/Narrative13Situation2.wav,402.288,,402.288,432.054,"[[999,2],[999,96],[999,180],[999,264],[999,346],[999,432],[999,514],[999,615],[999,699],[999,781],[999,865],[999,947],[999,1029],[999,1115],[999,1197],[999,1281],[999,1365],[999,1447],[999,1531],[999,1615],[999,1697],[999,1781],[999,1865],[999,1947],[999,2031],[999,2115],[999,2199],[49.5,2281],[49.5,2363],[49.5,2447],[49.5,2531],[49.5,2613],[49.5,2697],[49.5,2779],[49.5,2863],[49.5,2947],[49.5,3029],[49.5,3115],[49.5,3197],[49.5,3283],[49.5,3363],[49.5,3447],[49.5,3531],[49.5,3615],[49.5,3697],[49.5,3781],[49.5,3863],[49.5,3947],[49.5,4031],[49.5,4115],[49.5,4197],[49.5,4281],[49.5,4365],[49.5,4447],[49.5,4531],[49.5,4613],[49.5,4697],[49.5,4781],[49.5,4863],[49.5,4947],[49.5,5031],[49.5,5113],[49.5,5197],[49.5,5281],[49.5,5363],[49.5,5449],[49.5,5531],[49.5,5613],[49.5,5697],[49.5,5779],[49.5,5865],[49.5,5947],[49.5,6031],[49.5,6113],[49.5,6197],[49.5,6281],[49.5,6363],[49.5,6447],[49.5,6533],[49.5,6613],[49.5,6697],[49.5,6781],[49.5,6863],[49.5,6947],[49.5,7031],[49.5,7115],[49.5,7197],[89.1,7447],[94.4,7531],[97.5,7617],[99.1,7699],[99.5,7781],[99.6,7865],[99.6,7947],[99.6,8031],[99.6,8113],[99.6,8197],[99.6,8281],[99.6,8365],[99.6,8447],[99.6,8531],[99.6,8615],[99.6,8697],[99.6,8781],[99.6,8865],[99.6,8947],[76.5,9031],[53.8,9117],[49.4,9447],[49.1,9531],[49.1,9613],[49.1,9697],[49.1,9781],[49.1,9863],[49.1,9947],[49.1,10031],[49.1,10113],[49.1,10199],[49.1,10281],[49.1,10365],[49.1,10449],[49.1,10529],[49.1,10615],[49.1,10697],[49.1,10781],[49.1,10865],[49.1,10949],[49.1,11031],[49.1,11115],[49.1,11197],[49.1,11281],[49.1,11363],[49.1,11447],[49.1,11531],[49.1,11613],[49.1,11697],[49.1,11781],[49.1,11863],[49.1,11947],[49.1,12033],[49.1,12113],[49.1,12197],[49.1,12283],[49.1,12363],[49.1,12447],[49.1,12531],[49.1,12613],[49.1,12697],[49.1,12781],[49.1,12865],[49.1,12947],[49.1,13029],[49.1,13115],[49.1,13197],[49.1,13281],[49.1,13363],[49.1,13447],[49.1,13529],[49.1,13615],[49.1,13697],[49.1,13779],[49.1,13865],[49.1,13947],[49.1,14031],[49.1,14113],[49.1,14199],[49.1,14281],[49.1,14363],[49.1,14447],[49.1,14531],[49.1,14613],[49.1,14697],[49.1,14781],[49.1,14865],[49.1,14947],[49.1,15029],[49.1,15113],[49.1,15197],[49.1,15283],[49.1,15365],[49.1,15447],[49.1,15529],[49.1,15613],[49.1,15697],[49.1,15781],[49.1,15863],[49.1,15947],[49.1,16031],[49.1,16113],[49.1,16197],[49.1,16281],[49.1,16363],[49.1,16447],[49.1,16531],[49.1,16613],[49.1,16697],[49.1,16781],[49.1,16865],[49.1,16949],[49.1,17031],[49.1,17113],[49.1,17197],[49.1,17279],[49.1,17363],[49.1,17447],[49.1,17533],[49.1,17615],[49.1,17699],[49.1,17781],[49.1,17863],[49.1,17947],[49.1,18031],[49.1,18115],[49.1,18197],[49.1,18279],[49.1,18363],[49.1,18447],[49.1,18529],[49.1,18613],[49.1,18697],[49.1,18779],[49.1,18863],[49.1,18947],[49.1,19031],[49.1,19113],[49.1,19199],[49.1,19279],[49.1,19365],[49.1,19447],[49.1,19531],[49.1,19615],[49.1,19697],[49.1,19779],[49.1,19863],[49.1,19947],[47.4,21031],[47.4,21113],[47.4,21197],[48.3,21281],[48.4,21365],[48.4,21447],[48.4,21531],[48.5,21613],[48.5,21697],[48.9,21781],[49.4,21863],[49.5,21947],[49.6,22033],[49.6,22113],[49.6,22197],[49.6,22281],[49.6,22365],[49.6,22447],[49.6,22531],[49.6,22613],[49.6,22697],[49.6,22781],[49.6,22865],[49.6,22947],[49.6,23033],[38.9,23115],[17.9,23197],[13.8,23281],[9.4,23363],[5.8,23447],[2.8,23531],[0.6,23615],[23.9,25281],[33.5,25365],[35,25447],[36.5,25531],[43,25615],[48,25697],[48.8,25783],[49.3,25863],[50.5,25949],[51,26033],[51,26113],[51,26197],[51,26281],[51,26363],[51,26449],[51,26531],[52.8,26615],[100,26781],[100,26865],[100,26947],[100,27033],[100,27113],[100,27199],[100,27281],[100,27365],[100,27447],[100,27531],[100,27615],[100,27697],[100,27781],[100,27863],[100,27947],[100,28031],[100,28113],[100,28199],[100,28281],[100,28363],[100,28447],[100,28531],[100,28613],[100,28697],[100,28781],[100,28863],[100,28947],[100,29031],[100,29113],[100,29197],[100,29279],[100,29363],[100,29447],[100,29531],[100,29613],[100,29697]]",1,0,432.055,442.487,99.625,8.6,"[{""rating"":99.62500000000001,""responseTime"":7.771999999999991},{""rating"":99.62500000000001,""responseTime"":8.600000000000023}]",space,9.885,,442.488,Not at all,0,442.499,,,[],,0,0,0,0,1,audio/Narrative13Situation2.wav,audio/Narrative13Situation2.wav,audio/Narrative13Situation2.wav,audio/Narrative13Situation2.wav,2,2,2,2,,,,,,,,,,,,,,,,,,,,,,,,,,,,,,,,,,,,,,,
,,,,,,5e1371f92b12bd9a96c2d902,2024-05-13_10h29.45.053,group3.1-3.2-social-tom,2023.2.2,Win32,60.0240096,65c5074098b851296ff0b7ed,664231d1d200c76851154db6,,,,,,,,,,,,,,,,,,,,,,,,,,,,,442.499,1,audio/Narrative7Situation1.wav,444.186,space,444.186,500.069,"[[999,2],[999,82],[999,167],[999,250],[999,332],[999,415],[999,499],[999,582],[999,667],[999,749],[999,833],[999,918],[999,999],[999,1085],[999,1165],[999,1250],[999,1333],[999,1415],[999,1499],[999,1582],[999,1665],[999,1751],[999,1833],[999,1915],[999,2000],[999,2083],[999,2168],[999,2249],[999,2332],[999,2417],[999,2499],[999,2582],[999,2668],[55.6,2750],[55.6,2832],[55.6,2915],[55.6,2999],[55.6,3084],[53.6,3165],[51.9,3249],[51.6,3332],[51.1,3419],[50.3,3499],[49.9,3583],[49.9,3665],[49.9,3749],[49.9,3833],[49.9,3915],[49.9,3999],[49.9,4083],[49.9,4168],[49.9,4249],[49.9,4332],[49.9,4415],[49.9,4499],[49.9,4582],[49.9,4667],[49.9,4749],[49.9,4832],[49.9,4917],[49.9,4999],[49.9,5083],[49.9,5167],[49.9,5250],[49.9,5332],[49.9,5417],[49.9,5499],[49.9,5583],[49.9,5665],[49.9,5749],[49.9,5832],[49.9,5915],[49.9,6000],[49.9,6083],[49.9,6165],[49.9,6249],[49.9,6333],[49.9,6415],[49.9,6499],[49.9,6583],[49.9,6665],[49.9,6750],[49.9,6833],[49.9,6915],[49.9,6999],[49.9,7084],[49.9,7168],[49.9,7249],[49.9,7333],[49.9,7418],[49.9,7499],[49.9,7582],[49.9,7665],[49.9,7750],[49.9,7833],[49.9,7915],[49.9,8000],[49.9,8082],[49.9,8165],[49.9,8249],[49.9,8332],[49.9,8415],[49.9,8501],[49.9,8582],[49.9,8667],[49.9,8751],[49.9,8833],[49.9,8915],[49.9,9000],[49.9,9083],[49.9,9167],[49.9,9249],[49.9,9332],[49.9,9415],[49.9,9499],[49.9,9585],[49.9,9665],[49.9,9749],[49.9,9833],[49.9,9915],[49.9,10000],[49.9,10082],[49.9,10165],[49.9,10249],[49.9,10332],[49.9,10417],[49.9,10499],[49.9,10582],[49.9,10669],[49.9,10749],[49.9,10833],[49.9,10915],[49.9,11000],[49.9,11083],[49.9,11168],[49.9,11249],[49.9,11332],[49.9,11415],[49.9,11499],[49.9,11583],[49.9,11665],[49.9,11749],[49.9,11833],[49.9,11915],[49.9,11999],[49.9,12083],[49.9,12165],[49.9,12249],[49.9,12334],[49.9,12415],[49.9,12499],[49.9,12582],[49.9,12665],[49.9,12749],[49.9,12833],[49.9,12915],[49.9,12999],[49.9,13083],[49.9,13165],[49.9,13249],[49.9,13333],[49.9,13415],[49.9,13499],[49.9,13583],[49.9,13665],[49.9,13751],[49.9,13834],[49.9,13915],[49.9,14000],[49.9,14082],[49.9,14165],[49.9,14249],[49.9,14332],[49.9,14415],[49.9,14499],[49.9,14582],[49.9,14667],[49.9,14749],[49.9,14833],[49.9,14915],[49.9,14999],[49.9,15084],[49.9,15165],[49.9,15249],[49.9,15332],[49.9,15417],[49.9,15499],[49.9,15582],[49.9,15665],[49.9,15750],[49.9,15832],[49.9,15915],[49.9,15999],[49.9,16082],[49.9,16167],[49.9,16249],[49.9,16332],[49.9,16415],[49.9,16499],[49.9,16582],[49.9,16665],[49.9,16749],[49.9,16833],[49.9,16915],[49.9,16999],[49.9,17084],[49.9,17165],[49.9,17249],[49.9,17333],[49.9,17415],[49.9,17499],[49.9,17582],[49.9,17665],[49.9,17749],[49.9,17833],[49.9,17915],[49.9,18001],[49.9,18082],[49.9,18165],[49.9,18250],[49.9,18333],[49.9,18417],[49.9,18499],[49.9,18582],[49.9,18665],[49.9,18750],[49.9,18832],[49.9,18915],[49.9,19001],[49.9,19083],[49.9,19165],[49.9,19251],[49.9,19334],[49.9,19417],[49.9,19499],[49.9,19583],[49.9,19665],[49.9,19749],[49.9,19833],[49.9,19915],[49.9,20000],[49.9,20082],[49.9,20165],[49.9,20250],[49.9,20333],[49.9,20417],[49.9,20502],[49.9,20583],[49.9,20667],[49.9,20749],[49.9,20833],[49.9,20915],[49.9,20999],[49.9,21083],[49.9,21165],[49.9,21250],[49.9,21332],[49.9,21415],[49.9,21499],[49.9,21582],[49.9,21667],[49.9,21749],[49.9,21833],[49.9,21915],[49.9,22000],[49.9,22084],[49.9,22165],[49.9,22249],[49.9,22333],[49.9,22417],[49.9,22499],[49.9,22583],[49.9,22665],[49.9,22751],[49.9,22834],[49.9,22917],[49.9,23001],[49.9,23083],[49.9,23165],[49.9,23250],[49.9,23333],[49.9,23415],[49.9,23499],[49.9,23582],[49.9,23665],[49.9,23749],[49.9,23834],[49.9,23915],[49.9,23999],[49.9,24082],[49.9,24165],[49.9,24250],[49.9,24333],[49.9,24415],[49.9,24499],[49.9,24582],[49.9,24667],[49.9,24749],[49.9,24832],[49.9,24917],[49.9,24999],[49.9,25082],[49.9,25168],[49.9,25250],[49.9,25333],[49.9,25417],[49.9,25499],[49.9,25583],[49.9,25665],[49.9,25749],[49.9,25832],[49.9,25915],[49.9,26001],[49.9,26082],[49.9,26165],[49.9,26249],[49.9,26332],[49.9,26415],[49.9,26500],[49.9,26583],[49.9,26665],[49.9,26749],[49.9,26833],[49.9,26915],[49.9,26999],[49.9,27084],[49.9,27165],[49.9,27249],[49.9,27333],[49.9,27415],[49.9,27500],[49.9,27583],[49.9,27665],[49.9,27749],[49.9,27832],[49.9,27915],[49.9,27999],[49.9,28083],[49.9,28168],[49.9,28249],[49.9,28332],[49.9,28415],[49.9,28499],[49.9,28582],[49.9,28667],[49.9,28750],[49.9,28833],[49.9,28915],[49.9,29001],[49.9,29082],[49.9,29165],[49.9,29250],[49.9,29333],[49.9,29415],[49.9,29499],[49.9,29583],[49.9,29665],[49.9,29751],[49.9,29834],[49.9,29915],[49.9,29999],[49.9,30083],[49.9,30165],[49.9,30249],[49.9,30333],[49.9,30417],[49.9,30499],[49.9,30583],[49.9,30665],[49.9,30749],[49.9,30832],[49.9,30915],[49.9,30999],[49.9,31083],[49.9,31165],[49.9,31249],[49.9,31334],[49.9,31415],[49.9,31499],[49.9,31582],[49.9,31665],[49.9,31749],[49.9,31832],[49.9,31915],[49.9,31999],[49.9,32085],[49.9,32165],[49.9,32250],[49.9,32333],[49.9,32415],[49.9,32499],[49.9,32582],[49.9,32667],[49.9,32749],[49.9,32833],[49.9,32916],[49.9,32998],[49.9,33083],[49.9,33168],[49.9,33249],[49.9,33333],[49.9,33415],[49.9,33498],[49.9,33583],[49.9,33666],[49.9,33751],[49.9,33832],[49.9,33916],[49.9,33999],[49.9,34082],[49.9,34165],[49.9,34251],[49.9,34332],[49.9,34416],[49.9,34499],[49.9,34582],[49.9,34666],[49.9,34749],[49.9,34832],[49.9,34916],[49.9,35000],[49.9,35082],[49.9,35165],[49.9,35249],[49.9,35334],[49.9,35417],[49.9,35499],[49.9,35582],[49.9,35665],[49.9,35749],[49.9,35832],[49.9,35916],[49.9,35999],[49.9,36082],[49.9,36166],[49.9,36249],[49.9,36333],[49.9,36418],[49.9,36499],[49.9,36582],[49.9,36667],[49.9,36748],[49.9,36833],[49.9,36916],[49.9,36999],[49.9,37084],[49.9,37166],[49.9,37249],[49.9,37332],[49.9,37415],[49.9,37500],[49.9,37582],[49.9,37666],[49.9,37750],[49.9,37833],[49.9,37916],[49.9,38000],[49.9,38082],[49.9,38166],[49.9,38249],[49.9,38333],[49.9,38416],[49.9,38499],[49.9,38584],[49.9,38667],[49.9,38749],[49.9,38834],[49.9,38916],[49.9,38999],[49.9,39082],[49.9,39167],[49.9,39249],[49.9,39332],[49.9,39415],[49.9,39499],[49.9,39582],[49.9,39667],[49.9,39750],[49.9,39833],[49.9,39915],[49.9,39999],[49.9,40082],[49.9,40166],[49.9,40249],[49.9,40332],[49.9,40416],[49.9,40501],[49.9,40583],[49.9,40665],[49.9,40750],[49.9,40833],[49.9,40916],[49.9,40999],[49.9,41083],[49.9,41166],[49.9,41249],[49.9,41332],[49.9,41416],[49.9,41499],[49.9,41583],[49.9,41666],[49.9,41749],[49.9,41835],[49.9,41916],[49.9,41999],[49.9,42083],[49.9,42166],[49.9,42249],[49.9,42332],[49.9,42416],[49.9,42499],[49.9,42583],[49.9,42666],[49.9,42749],[49.9,42832],[49.9,42917],[49.9,42999],[49.9,43082],[49.9,43166],[49.9,43249],[49.9,43333],[49.9,43416],[49.9,43499],[49.9,43582],[49.9,43666],[49.9,43749],[49.9,43832],[49.9,43916],[49.9,44001],[49.9,44083],[49.9,44166],[49.9,44249],[49.9,44332],[49.9,44415],[49.9,44499],[49.9,44582],[49.9,44666],[49.9,44749],[49.9,44832],[49.9,44916],[49.9,44999],[49.9,45085],[49.9,45166],[49.9,45249],[49.9,45332],[49.9,45416],[49.9,45499],[49.9,45582],[49.9,45666],[49.9,45748],[49.9,45833],[49.9,45916],[49.9,46000],[49.9,46083],[49.9,46166],[49.9,46249],[49.9,46332],[49.9,46416],[49.9,46499],[49.9,46582],[49.9,46666],[49.9,46748],[49.9,46833],[49.9,46915],[49.9,46998],[49.9,47084],[49.9,47165],[49.9,47251],[49.9,47334],[49.9,47415],[49.9,47499],[49.9,47582],[49.9,47665],[49.9,47751],[49.9,47834],[49.9,47915],[49.9,47999],[49.9,48082],[49.9,48166],[49.9,48249],[49.9,48334],[49.9,48416],[49.9,48499],[49.9,48582],[49.9,48666],[49.9,48749],[49.9,48833],[49.9,48915],[49.9,48999],[49.9,49083],[49.9,49166],[49.9,49250],[49.9,49334],[49.9,49417],[49.9,49499],[49.9,49582],[49.9,49666],[49.9,49749],[49.9,49832],[49.9,49915],[49.9,50000],[49.9,50082],[49.9,50166],[49.9,50249],[49.9,50333],[49.9,50417],[49.9,50501],[49.9,50583],[49.9,50665],[49.9,50749],[49.9,50832],[49.9,50916],[49.9,50999],[49.9,51084],[49.9,51166],[49.9,51249],[49.9,51332],[49.9,51416],[49.9,51499],[49.9,51582],[49.9,51665],[49.9,51750],[49.9,51833],[49.9,51915],[49.9,51999],[49.9,52082],[49.9,52167],[49.9,52250],[49.9,52333],[49.9,52416],[49.9,52499],[49.9,52582],[49.9,52666],[49.9,52749],[49.9,52832],[49.9,52915],[49.9,52997],[49.9,53083],[49.9,53165],[49.9,53250],[49.9,53333],[49.9,53415],[49.9,53498],[49.9,53582],[49.9,53665],[49.9,53748],[49.9,53833],[49.9,53915],[49.9,53998],[49.9,54082],[49.9,54165],[49.9,54250],[49.9,54332],[49.9,54416],[49.9,54498],[49.9,54582],[49.9,54666],[49.9,54748],[49.9,54832],[49.9,54916],[49.9,54997],[49.9,55082],[49.9,55166],[49.9,55248],[49.9,55333],[49.9,55418],[49.9,55497],[49.9,55582],[49.9,55666],[49.9,55748],[49.9,55833]]",1,0,500.07,511.885,49.875,10.774,"[{""rating"":49.875,""responseTime"":1.6610000000000014},{""rating"":49.875,""responseTime"":10.774000000000058}]",space,11.266,,511.886,Not at all,0,511.892,,,[],,0,1,1,1,1,audio/Narrative7Situation1.wav,audio/Narrative8Situation1.wav,audio/Narrative5Situation1.wav,audio/Narrative6Situation1.wav,2,5,5,2,1.669,,,,,,,,,,,,,,,,,,,,,,,,,,,,,,,,,,,,,,
,,,,,,5e1371f92b12bd9a96c2d902,2024-05-13_10h29.45.053,group3.1-3.2-social-tom,2023.2.2,Win32,60.0240096,65c5074098b851296ff0b7ed,664231d1d200c76851154db6,,,,,,,,,,,,,,,,,,,,,,,,,,,,,511.893,1,audio/Narrative7Situation2.wav,514.902,,514.902,522.385,[],1,0,522.385,526.685,49.875,2.403,"[{""rating"":49.875,""responseTime"":2.40300000000002}]",space,3.773,,526.685,Not at all,0,526.69,,,[],,0,2,2,2,1,audio/Narrative7Situation2.wav,audio/Narrative8Situation2.wav,audio/Narrative5Situation2.wav,audio/Narrative6Situation2.wav,3,3,3,3,,,,,,,,,,,,,,,,,,,,,,,,,,,,,,,,,,,,,,,
,,,,,,5e1371f92b12bd9a96c2d902,2024-05-13_10h29.45.053,group3.1-3.2-social-tom,2023.2.2,Win32,60.0240096,65c5074098b851296ff0b7ed,664231d1d200c76851154db6,,,,,,,,,,,,,,,,,,,,,,,,,,,,,526.691,1,audio/Narrative7Situation3.wav,531.254,space,531.254,540.52,"[[50,1331],[50.1,1413],[50.3,1497],[50.3,1579],[50.3,1663],[50.3,1747],[50.4,1829],[50.4,1913],[50.4,1997],[53.5,2081],[100,2581],[100,2663],[100,2747],[100,2831],[100,2913],[100,2996],[100,3081],[100,3163],[100,3247],[100,3329],[100,3413],[100,3499],[100,3581],[100,3663],[100,3746],[100,3831],[100,3913],[100,3996],[100,4081],[100,4164],[100,4246],[100,4331],[100,4413],[100,4496],[100,4581],[100,4663],[100,4746],[100,4831],[100,4915],[100,4996],[100,5081],[100,5163],[100,5246],[100,5329],[100,5413],[100,5496],[100,5581],[100,5663],[100,5747],[100,5831],[100,5913],[100,5999],[100,6081],[100,6163],[100,6246],[100,6331],[100,6413],[100,6496],[100,6581],[100,6663],[100,6746],[100,6831],[100,6913],[100,6997],[100,7081],[100,7163],[100,7246],[100,7331],[100,7413],[100,7497],[100,7581],[100,7663],[100,7746],[100,7829],[100,7913],[100,7996],[100,8081],[100,8164],[100,8246],[100,8329],[100,8413],[100,8496],[100,8581],[100,8663],[100,8747],[100,8831],[100,8913],[100,8996],[100,9081],[100,9163],[100,9249]]",1,0,540.52,544.352,99.5,2.939,"[{""rating"":99.5,""responseTime"":2.9389999999999645}]",space,3.283,,544.352,Half the time,50,553.269,50,7.659,"[{""rating"":99.5,""responseTime"":3.854000000000042},{""rating"":50,""responseTime"":7.658999999999992}]",space,0,3,3,3,1,audio/Narrative7Situation3.wav,audio/Narrative8Situation3.wav,audio/Narrative5Situation3.wav,audio/Narrative6Situation3.wav,8,4,3,5,4.549,,8.386,,,,,,,,,,,,,,,,,,,,,,,,,,,,,,,,,,,,
,,,,,,5e1371f92b12bd9a96c2d902,2024-05-13_10h29.45.053,group3.1-3.2-social-tom,2023.2.2,Win32,60.0240096,65c5074098b851296ff0b7ed,664231d1d200c76851154db6,,,,,,,,,,,,,,,,,,,,,,,,,,,,,553.27,1,audio/Narrative7Situation4.wav,556.287,,556.287,568.021,[],1,0,568.022,580.619,50,2.321,"[{""rating"":50,""responseTime"":2.3210000000000264}]",space,12.056,,580.619,Half the time,50,580.627,,,[],,0,4,4,4,1,audio/Narrative7Situation4.wav,audio/Narrative8Situation4.wav,audio/Narrative5Situation4.wav,audio/Narrative6Situation4.wav,3,3,1,2,,,,,,,,,,,,,,,,,,,,,,,,,,,,,,,,,,,,,,,
,,,,,,5e1371f92b12bd9a96c2d902,2024-05-13_10h29.45.053,group3.1-3.2-social-tom,2023.2.2,Win32,60.0240096,65c5074098b851296ff0b7ed,664231d1d200c76851154db6,,,,,,,,,,,,,,,,,,,,,,,,,,,,,580.627,1,audio/Narrative7Situation5.wav,585.634,,585.634,594.136,[],1,0,594.136,634.551,50,39.006,"[{""rating"":50,""responseTime"":39.00599999999997}]",space,39.868,,634.551,All the time,100,634.561,,,[],,0,5,5,5,1,audio/Narrative7Situation5.wav,audio/Narrative8Situation5.wav,audio/Narrative5Situation5.wav,audio/Narrative6Situation5.wav,5,2,5,2,,,,,,,,,,,,,,,,,,,,,,,,,,,,,,,,,,,,,,,
,,,,,,5e1371f92b12bd9a96c2d902,2024-05-13_10h29.45.053,group3.1-3.2-social-tom,2023.2.2,Win32,60.0240096,65c5074098b851296ff0b7ed,664231d1d200c76851154db6,,,,,,,,,,,,,,,,,,,,,,,,,,,,,634.562,1,audio/Narrative7Situation6.wav,637.567,,637.567,647.553,[],1,0,647.553,660.734,50,9.076,"[{""rating"":50,""responseTime"":9.076000000000022}]",space,12.639,,660.734,Not at all,0,660.743,,,[],,0,6,6,6,1,audio/Narrative7Situation6.wav,audio/Narrative8Situation6.wav,audio/Narrative5Situation6.wav,audio/Narrative6Situation6.wav,3,2,3,2,,,,,,,,,,,,,,,,,,,,,,,,,,,,,,,,,,,,,,,
,,,,,,5e1371f92b12bd9a96c2d902,2024-05-13_10h29.45.053,group3.1-3.2-social-tom,2023.2.2,Win32,60.0240096,65c5074098b851296ff0b7ed,664231d1d200c76851154db6,,,,,,,,,,,,,,,,,,,,,,,,,,,,,660.743,1,audio/Narrative7Situation7.wav,665.75,,665.75,682.934,[],1,0,682.934,685.568,99.75,1.495,"[{""rating"":99.75,""responseTime"":1.4950000000000045}]",space,2.101,,685.568,Not at all,0,685.577,,,[],,0,7,7,7,1,audio/Narrative7Situation7.wav,audio/Narrative8Situation7.wav,audio/Narrative5Situation7.wav,audio/Narrative6Situation7.wav,5,3,4,5,,,,,,,,,,,,,,,,,,,,,,,,,,,,,,,,,,,,,,,
,,,,,,5e1371f92b12bd9a96c2d902,2024-05-13_10h29.45.053,group3.1-3.2-social-tom,2023.2.2,Win32,60.0240096,65c5074098b851296ff0b7ed,664231d1d200c76851154db6,,,,,,,,,,,,,,,,,,,,,,,,,,,,,685.577,1,audio/Narrative7Situation8.wav,687.584,,687.584,697.618,"[[999,3],[999,83],[999,166],[999,250],[999,332],[999,416],[999,499],[999,583],[999,667],[999,751],[999,833],[999,916],[999,999],[999,1083],[999,1166],[999,1249],[999,1333],[999,1418],[999,1499],[999,1583],[999,1666],[999,1749],[999,1834],[999,1916],[999,2000],[999,2085],[999,2166],[999,2250],[999,2333],[999,2416],[999,2499],[999,2583],[999,2666],[999,2750],[999,2833],[999,2918],[999,3000],[999,3083],[999,3166],[999,3251],[999,3333],[999,3416],[999,3499],[999,3583],[999,3666],[999,3750],[999,3833],[999,3916],[999,3999],[999,4082],[999,4166],[999,4249],[999,4333],[999,4416],[999,4500],[999,4583],[999,4665],[999,4749],[999,4832],[999,4917],[999,5000],[999,5084],[999,5166],[999,5249],[999,5332],[999,5416],[999,5499],[999,5582],[999,5665],[999,5750],[999,5833],[999,5916],[999,6000],[999,6083],[999,6167],[999,6251],[999,6335],[999,6416],[999,6499],[999,6584],[999,6666],[999,6749],[999,6832],[999,6916],[999,6999],[999,7083],[999,7166],[999,7249],[999,7332],[999,7416],[999,7499],[999,7584],[999,7666],[999,7749],[999,7835],[999,7915],[999,8000],[999,8083],[999,8166],[999,8250],[999,8332],[999,8416],[999,8499],[999,8583],[999,8666],[999,8749],[999,8833],[999,8918],[999,8999],[999,9083],[999,9166],[999,9249],[999,9333],[999,9416],[999,9499],[999,9583],[999,9666],[999,9749],[999,9834],[999,9916],[999,10001]]",1,0,697.618,703.467,49.875,1.826,"[{""rating"":49.875,""responseTime"":1.8260000000000218}]",space,5.321,,703.467,Half the time,50,703.476,,,[],,0,8,8,8,1,audio/Narrative7Situation8.wav,audio/Narrative8Situation8.wav,audio/Narrative5Situation8.wav,audio/Narrative6Situation8.wav,2,3,3,5,,,,,,,,,,,,,,,,,,,,,,,,,,,,,,,,,,,,,,,
,,,,,,5e1371f92b12bd9a96c2d902,2024-05-13_10h29.45.053,group3.1-3.2-social-tom,2023.2.2,Win32,60.0240096,65c5074098b851296ff0b7ed,664231d1d200c76851154db6,,,,,,,,,,,,,,,,,,,,,,,,,,,,,703.476,1,audio/Narrative7Situation9.wav,705.484,,705.484,714.102,"[[999,1],[999,82],[999,165],[999,250],[999,331],[999,415],[999,498],[999,581],[999,665],[999,750],[999,833],[999,916],[999,998],[999,1082],[999,1165],[999,1248],[999,1331],[999,1416],[999,1498],[999,1582],[999,1665],[999,1750],[999,1831],[999,1916],[999,1998],[999,2082],[999,2165],[999,2250],[999,2333],[999,2416],[999,2500],[999,2583],[52.4,2665],[52.4,2748],[52,2833],[51,2915],[50.5,3000],[50.5,3081],[50.5,3165],[50.5,3248],[50.5,3331],[50.5,3415],[50.5,3498],[50.5,3583],[50.5,3665],[50.5,3748],[50.5,3831],[50.5,3915],[50.5,3998],[50.5,4083],[50.5,4165],[50.5,4248],[50.5,4332],[50.5,4415],[50.5,4498],[50.5,4582],[50.5,4668],[50.5,4748],[50.5,4832],[50.5,4915],[50.5,5000],[50.5,5082],[50.5,5165],[50.5,5248],[50.5,5332],[50.5,5415],[50.5,5498],[50.5,5581],[50.5,5664],[50.5,5748],[50.5,5832],[50.5,5915],[50.5,6001],[50.5,6082],[50.5,6164],[50.5,6248],[50.5,6332],[50.5,6415],[50.5,6498],[50.5,6581],[50.5,6665],[50.5,6748],[50.5,6832],[50.5,6915],[50.5,6998],[50.5,7081],[50.5,7165],[50.5,7250],[50.5,7332],[50.5,7415],[50.5,7498],[50.5,7582],[50.5,7665],[50.5,7748],[50.5,7832],[50.5,7915],[50.5,7998],[50.5,8083],[50.5,8165],[50.5,8248],[50.5,8331],[50.5,8415],[50.5,8501],[50.5,8582]]",1,0,714.103,719.652,50.5,0.49,"[{""rating"":50.5,""responseTime"":0.4900000000000091}]",space,5.001,,719.652,All the time,100,719.664,,,[],,0,9,9,9,1,audio/Narrative7Situation9.wav,audio/Narrative8Situation9.wav,audio/Narrative5Situation9.wav,audio/Narrative6Situation9.wav,2,3,3,4,,,,,,,,,,,,,,,,,,,,,,,,,,,,,,,,,,,,,,,
,,,,,,5e1371f92b12bd9a96c2d902,2024-05-13_10h29.45.053,group3.1-3.2-social-tom,2023.2.2,Win32,60.0240096,65c5074098b851296ff0b7ed,664231d1d200c76851154db6,,,,,,,,,,,,,,,,,,,,,,,,,,,,,719.665,1,audio/Narrative8Situation1.wav,724.667,,724.667,740.6,"[[999,1],[999,82],[999,165],[999,249],[999,332],[999,416],[999,499],[999,583],[999,665],[999,750],[999,832],[999,915],[999,1000],[50.8,1083],[51,1168],[51.1,1250],[51.1,1332],[50.9,1416],[50.6,1499],[50.4,1583],[50.3,1666],[50.3,1749],[50.3,1831],[50.3,1915],[83.5,2000],[94.1,2082],[95,2166],[96.1,2249],[98.9,2336],[99.1,2418],[99.1,2500],[99.1,2582],[99.1,2665],[99.1,2749],[99.1,2831],[99.3,2916],[99.3,2999],[99.3,3082],[99.3,3166],[99.3,3250],[99.3,3332],[99.3,3415],[99.3,3500],[99.3,3582],[99.3,3666],[99.3,3750],[99.3,3832],[99.3,3915],[99.3,3999],[99.3,4082],[99.3,4165],[99.3,4250],[99.3,4331],[99.3,4415],[99.3,4500],[99.3,4581],[99.3,4665],[99.3,4750],[93.9,5500],[96.4,5582],[96.9,5668],[97.9,5750],[99,5832],[99.3,5915],[99.4,6000],[100,6082],[100,6165],[100,6249],[100,6332],[100,6415],[100,6500],[100,6581],[100,6665],[100,6750],[100,6832],[100,6915],[100,7000],[100,7081],[100,7165],[100,7249],[100,7331],[100,7415],[100,7500],[100,7581],[100,7666],[100,7750],[100,7834],[100,7915],[100,8000],[100,8082],[100,8164],[100,8250],[100,8333],[100,8416],[100,8500],[100,8582],[100,8666],[100,8749],[100,8832],[100,8918],[100,8999],[100,9082],[100,9165],[100,9249],[100,9331],[100,9415],[100,9500],[100,9584],[100,9665],[100,9749],[100,9833],[100,9915],[100,9999],[100,10082],[100,10165],[100,10250],[100,10332],[100,10415],[100,10500],[100,10583],[100,10665],[100,10749],[100,10832],[100,10916],[100,11000],[100,11083],[100,11166],[100,11250],[100,11332],[100,11415],[100,11499],[100,11582],[100,11664],[100,11749],[100,11833],[100,11915],[100,12000],[100,12081],[100,12168],[100,12250],[100,12332],[100,12414],[100,12500],[100,12581],[100,12665],[100,12750],[100,12831],[100,12915],[100,12999],[100,13081],[100,13165],[100,13251],[100,13332],[100,13415],[100,13499],[100,13581],[100,13665],[100,13749],[100,13832],[100,13915],[100,14000],[100,14082],[100,14165],[100,14249],[100,14334],[100,14415],[100,14500],[100,14581],[100,14665],[100,14750],[100,14832],[100,14916],[100,15000],[100,15082],[100,15165],[100,15250],[100,15332],[100,15418],[100,15499],[100,15582],[100,15665],[100,15749],[100,15832],[100,15915]]",1,0,740.601,743.5,99.5,1.463,"[{""rating"":99.5,""responseTime"":1.4629999999999654}]",space,2.352,,743.5,All the time,100,743.504,,,[],,0,10,10,10,1,audio/Narrative8Situation1.wav,audio/Narrative7Situation1.wav,audio/Narrative6Situation1.wav,audio/Narrative5Situation1.wav,5,2,2,5,,,,,,,,,,,,,,,,,,,,,,,,,,,,,,,,,,,,,,,
,,,,,,5e1371f92b12bd9a96c2d902,2024-05-13_10h29.45.053,group3.1-3.2-social-tom,2023.2.2,Win32,60.0240096,65c5074098b851296ff0b7ed,664231d1d200c76851154db6,,,,,,,,,,,,,,,,,,,,,,,,,,,,,743.504,1,audio/Narrative8Situation2.wav,746.518,,746.519,756.652,"[[999,3],[999,80],[999,163],[999,246],[999,330],[999,413],[999,496],[999,581],[999,663],[999,748],[999,830],[999,914],[999,998],[999,1081],[999,1163],[999,1250],[999,1331],[999,1413],[999,1499],[999,1581],[999,1664],[999,1746],[999,1831],[999,1913],[999,1996],[999,2080],[999,2163],[999,2246],[999,2331],[999,2413],[999,2496],[999,2580],[999,2663],[999,2748],[999,2830],[999,2913],[999,2996],[999,3080],[999,3165],[999,3249],[999,3330],[999,3413],[999,3496],[999,3581],[999,3663],[999,3746],[999,3831],[999,3913],[999,3998],[999,4081],[999,4163],[999,4246],[999,4330],[999,4413],[999,4496],[999,4581],[999,4663],[999,4746],[999,4831],[999,4918],[999,4996],[999,5080],[999,5163],[999,5246],[999,5331],[999,5413],[999,5498],[999,5581],[999,5663],[999,5746],[999,5831],[999,5913],[999,5999],[999,6081],[999,6163],[999,6248],[999,6330],[999,6413],[999,6496],[999,6581],[999,6664],[999,6746],[999,6830],[999,6913],[999,6996],[999,7081],[999,7163],[999,7246],[999,7331],[999,7413],[999,7496],[999,7581],[999,7664],[999,7746],[999,7831],[999,7913],[999,7998],[999,8080],[999,8165],[999,8246],[999,8331],[999,8413],[999,8498],[999,8581],[999,8663],[999,8746],[999,8830],[999,8913],[999,8998],[999,9081],[999,9163],[999,9249],[999,9331],[999,9413],[999,9496],[999,9581],[999,9663],[999,9748],[999,9831],[999,9913],[999,9996],[999,10081]]",1,0,756.653,760.6,49.75,2.49,"[{""rating"":49.75,""responseTime"":2.490000000000009}]",space,3.402,,760.6,Not at all,0,760.608,,,[],,0,11,11,11,1,audio/Narrative8Situation2.wav,audio/Narrative7Situation2.wav,audio/Narrative6Situation2.wav,audio/Narrative5Situation2.wav,3,3,3,3,,,,,,,,,,,,,,,,,,,,,,,,,,,,,,,,,,,,,,,
,,,,,,5e1371f92b12bd9a96c2d902,2024-05-13_10h29.45.053,group3.1-3.2-social-tom,2023.2.2,Win32,60.0240096,65c5074098b851296ff0b7ed,664231d1d200c76851154db6,,,,,,,,,,,,,,,,,,,,,,,,,,,,,760.608,1,audio/Narrative8Situation3.wav,764.617,,764.617,786.985,"[[999,2],[999,81],[999,165],[999,249],[999,331],[999,417],[999,499],[999,581],[999,666],[999,751],[999,833],[999,917],[49.1,999],[49.1,1083],[49.4,1166],[49.6,1250],[49.6,1333],[49.6,1416],[49.6,1499],[49.6,1581],[49.6,1665],[49.6,1749],[49.6,1831],[49.6,1918],[49.6,2001],[49.6,2081],[49.6,2167],[49.6,2249],[49.6,2331],[49.6,2415],[49.6,22333]]",1,0,786.985,789.152,49.625,0.606,"[{""rating"":49.625,""responseTime"":0.6059999999999945}]",space,1.617,0.008,789.152,Not at all,0,789.158,,,[],,0,12,12,12,1,audio/Narrative8Situation3.wav,audio/Narrative7Situation3.wav,audio/Narrative6Situation3.wav,audio/Narrative5Situation3.wav,4,8,5,3,,,,,,,,,,,,,,,,,,,,,,,,,,,,,,,,,,,,,,,
,,,,,,5e1371f92b12bd9a96c2d902,2024-05-13_10h29.45.053,group3.1-3.2-social-tom,2023.2.2,Win32,60.0240096,65c5074098b851296ff0b7ed,664231d1d200c76851154db6,,,,,,,,,,,,,,,,,,,,,,,,,,,,,789.159,1,audio/Narrative8Situation4.wav,792.166,,792.166,806.352,"[[999,1],[999,82],[999,165],[999,250],[999,333],[999,415],[999,500],[999,582],[999,665],[999,750],[999,832],[999,916],[999,1000],[999,1084],[999,1165],[999,1250],[999,1333],[999,1416],[999,1500],[999,1582],[999,1666],[999,1750],[999,1833],[999,1915],[999,2000],[999,2084],[999,2166],[999,2250],[999,2333],[999,2416],[999,2501],[999,2582],[999,2667],[999,2750],[999,2832],[999,2918],[999,2998],[999,3084],[999,3167],[999,3251],[999,3335],[999,3418],[50,3500],[50,3583],[50,3666],[50,3750],[50,3833],[50,3915],[50,3998],[50,4082],[50,4165],[50,4250],[50,4332],[50,4415],[50,4500],[50,4582],[50,4666],[50,4750],[50,4833],[50,4916],[50,5000],[50,5082],[50,5166],[50,5250],[50,5332],[50,5416],[50,5500],[50,5582],[50,5666],[50,5750],[50,5832],[50,5915],[50,6001],[50,6084],[50,6165],[50,6248],[50,6333],[50,6415],[50,6500],[50,6583],[50,6666],[50,6750],[50,6832],[50,6916],[50,7000],[50,7084],[50,7166],[50,7248],[50,7333],[50,7415],[50,7500],[50,7582],[50,7666],[50,7750],[50,7833],[50,7915],[50,8000],[50,8082],[50,8167],[50,8250],[50,8332],[50,8417],[50,8500],[50,8582],[50,8665],[50,8750],[50,8832],[50,8916],[50,9000],[50,9082],[50,9166],[50,9251],[50,9333],[50,9415],[50,9498],[50,9582],[50,9666],[50,9750],[50,9832],[50,9916],[50,10000],[50,10084],[50,10166],[50,10250],[50,10334],[50,10416],[50,10500],[50,10582],[50,10666],[50,10750],[50,10832],[50,10916],[50,11000],[50,11082],[50,11166],[50,11250],[50,11332],[50,11418],[50,11500],[50,11582],[50,11666],[50,11750],[50,11832],[50,11916],[50,12000],[50,12084],[50,12165],[50,12248],[50,12332],[50,12416],[50,12500],[50,12582],[50,12665],[50,12750],[50,12832],[50,12915],[50,13000],[50,13082],[50,13166],[50,13250],[50,13332],[50,13416],[50,13500],[50,13582],[50,13665],[50,13750],[50,13832],[50,13916],[50,14000],[50,14083],[50,14165]]",1,0,806.353,808.533,50,1.005,"[{""rating"":50,""responseTime"":1.0049999999999955}]",space,1.635,,808.533,Not at all,0,808.54,,,[],,0,13,13,13,1,audio/Narrative8Situation4.wav,audio/Narrative7Situation4.wav,audio/Narrative6Situation4.wav,audio/Narrative5Situation4.wav,3,3,2,1,,,,,,,,,,,,,,,,,,,,,,,,,,,,,,,,,,,,,,,
,,,,,,5e1371f92b12bd9a96c2d902,2024-05-13_10h29.45.053,group3.1-3.2-social-tom,2023.2.2,Win32,60.0240096,65c5074098b851296ff0b7ed,664231d1d200c76851154db6,,,,,,,,,,,,,,,,,,,,,,,,,,,,,808.541,1,audio/Narrative8Situation5.wav,810.55,,810.55,818.784,"[[999,2],[999,84],[999,166],[999,249],[999,334],[999,416],[999,500],[999,581],[999,666],[999,748],[999,831],[999,916],[999,1000],[50.5,1084],[50.4,1168],[50.1,1250],[50.1,1331],[50.1,1419],[50.1,1499],[50.1,1581],[50.1,1666],[50.1,1749],[50.1,1831],[50.1,1916],[50.1,1999],[50.1,2084],[50.1,2166],[50.1,2250],[49.8,2334],[49.6,2416],[49.5,2499],[49.5,2581],[49.5,2665],[49.5,2749],[49.5,2831],[49.5,2916],[49.5,2999],[49.5,3081],[49.5,3167],[49.5,3250],[49.5,3331],[49.5,3419],[49.5,3498],[49.5,3581],[49.5,3667],[49.5,3751],[49.5,3833],[49.5,3916],[49.5,4000],[49.5,4083],[49.5,4169],[49.5,4250],[49.5,4331],[49.5,4416],[49.5,4499],[49.5,4581],[49.5,4666],[49.5,4749],[49.5,4831],[49.5,4916],[49.5,5000],[49.5,5081],[49.5,5166],[49.5,5249],[52.3,6083],[52.4,6166],[52.4,6251],[52,6331],[51.9,6416],[51.6,6500],[50.9,6581],[50.6,6666],[50.4,6751],[50.3,6831],[50.1,6916],[50.1,7000],[50.1,7081],[50.1,7166],[50.1,7249],[50.1,7333],[50.3,7417],[50.4,7499],[50.4,7583],[50.4,7666],[50.5,7749],[50.5,7833],[50.5,7915],[50.5,7999],[50.5,8083],[50.5,8166]]",1,0,818.784,825.667,99.625,5.191,"[{""rating"":99.62500000000001,""responseTime"":5.191000000000031}]",space,6.339,,825.667,Not at all,0,825.671,,,[],,0,14,14,14,1,audio/Narrative8Situation5.wav,audio/Narrative7Situation5.wav,audio/Narrative6Situation5.wav,audio/Narrative5Situation5.wav,2,5,2,5,,,,,,,,,,,,,,,,,,,,,,,,,,,,,,,,,,,,,,,
,,,,,,5e1371f92b12bd9a96c2d902,2024-05-13_10h29.45.053,group3.1-3.2-social-tom,2023.2.2,Win32,60.0240096,65c5074098b851296ff0b7ed,664231d1d200c76851154db6,,,,,,,,,,,,,,,,,,,,,,,,,,,,,825.672,1,audio/Narrative8Situation6.wav,827.683,,827.683,834.166,"[[999,0],[999,82],[999,166],[999,250],[999,332],[999,416],[999,499],[999,585],[999,666],[999,749],[999,832],[999,914],[999,999],[999,1082],[999,1164],[999,1249],[999,1331],[999,1414],[999,1500],[999,1582],[999,1667],[999,1749],[999,1831],[999,1917],[999,2000],[999,2081],[999,2166],[999,2249],[999,2331],[999,2416],[999,2499],[999,2582],[999,2666],[999,2750],[999,2831],[999,2916],[999,2999],[999,3081],[999,3166],[999,3250],[999,3331],[999,3416],[999,3499],[999,3581],[999,3666],[999,3749],[999,3834],[999,3916],[999,3999],[999,4081],[999,4166],[999,4249],[999,4334],[999,4417],[999,4499],[999,4582],[999,4666],[999,4749],[999,4832],[999,4918],[999,5000],[999,5081],[999,5166],[999,5249],[999,5332],[999,5416],[999,5500],[999,5581],[999,5666],[999,5750],[999,5831],[999,5916],[999,6001],[999,6081],[999,6166],[999,6249],[999,6332],[999,6416]]",1,0,834.166,842.466,99.25,1.769,"[{""rating"":99.25,""responseTime"":1.7689999999998918}]",space,7.768,,842.467,Not at all,0,842.477,,,[],,0,15,15,15,1,audio/Narrative8Situation6.wav,audio/Narrative7Situation6.wav,audio/Narrative6Situation6.wav,audio/Narrative5Situation6.wav,2,3,2,3,,,,,,,,,,,,,,,,,,,,,,,,,,,,,,,,,,,,,,,
,,,,,,5e1371f92b12bd9a96c2d902,2024-05-13_10h29.45.053,group3.1-3.2-social-tom,2023.2.2,Win32,60.0240096,65c5074098b851296ff0b7ed,664231d1d200c76851154db6,,,,,,,,,,,,,,,,,,,,,,,,,,,,,842.477,1,audio/Narrative8Situation7.wav,845.483,,845.483,857.583,"[[999,1],[999,82],[999,165],[999,250],[999,333],[999,418],[999,499],[999,582],[999,667],[999,749],[999,833],[999,918],[999,999],[999,1082],[999,1166],[999,1249],[999,1332],[999,1416],[999,1499],[999,1582],[999,1666],[999,1749],[999,1832],[999,1916],[999,1999],[999,2083],[999,2166],[999,2249],[999,2333],[999,2416],[999,2500],[999,2583],[999,2665],[999,2749],[999,2835],[999,2916],[999,2999],[999,3083],[999,3166],[999,3249],[999,3333],[999,3416],[999,3499],[999,3584],[999,3667],[999,3750],[999,3833],[999,3917],[999,3999],[999,4082],[999,4167],[999,4249],[999,4332],[999,4415],[999,4499],[999,4583],[999,4666],[999,4749],[999,4833],[999,4916],[999,5001],[999,5082],[999,5166],[999,5249],[999,5333],[999,5419],[999,5500],[999,5583],[999,5666],[999,5749],[999,5834],[999,5915],[999,5999],[999,6082],[999,6166],[999,6250],[999,6332],[999,6416],[999,6499],[999,6582],[999,6666],[999,6749],[999,6832],[999,6916],[999,6999],[999,7084],[999,7166],[999,7249],[999,7333],[999,7416],[999,7500],[999,7584],[999,7666],[999,7749],[999,7834],[999,7916],[999,7999],[999,8082],[999,8166],[999,8250],[999,8334],[999,8416],[999,8499],[999,8582],[999,8666],[999,8751],[999,8832],[999,8916],[999,8999],[999,9082],[999,9168],[999,9249],[999,9332],[999,9417],[999,9499],[999,9582],[999,9665],[999,9751],[999,9834],[97.1,10250],[98.8,10333],[99.6,10418],[100,10502],[100,10582],[100,10666],[100,10749],[100,10835],[100,10916],[100,10999],[100,11084],[100,11166],[100,11249],[100,11332],[100,11416],[100,11499],[100,11584],[100,11666],[100,11749],[100,11833]]",1,0,857.583,861.583,49.625,2.785,"[{""rating"":49.625,""responseTime"":2.785000000000082}]",space,3.45,,861.583,Not at all,0,861.59,,,[],,0,16,16,16,1,audio/Narrative8Situation7.wav,audio/Narrative7Situation7.wav,audio/Narrative6Situation7.wav,audio/Narrative5Situation7.wav,3,5,5,4,,,,,,,,,,,,,,,,,,,,,,,,,,,,,,,,,,,,,,,
,,,,,,5e1371f92b12bd9a96c2d902,2024-05-13_10h29.45.053,group3.1-3.2-social-tom,2023.2.2,Win32,60.0240096,65c5074098b851296ff0b7ed,664231d1d200c76851154db6,,,,,,,,,,,,,,,,,,,,,,,,,,,,,861.591,1,audio/Narrative8Situation8.wav,864.599,,864.599,877.484,"[[999,0],[999,84],[999,165],[999,248],[999,332],[999,415],[999,500],[999,582],[999,665],[999,750],[999,833],[999,916],[50.1,1000],[50.1,1082],[50.1,1165],[50.1,1248],[50.1,1332],[50.1,1415],[50.1,1500],[50.1,1583],[50.1,1665],[50.1,1750],[50.1,1832],[50.1,1915],[50.1,2000],[50.1,2084],[49.6,3000],[49.6,3082],[49.6,3165],[49.6,3250],[49.5,3336],[49.5,3416],[49.5,3498],[49.5,3582],[49.5,3666],[49.5,3750],[49.5,3832],[49.5,3915],[49.5,3998],[49.5,4082],[49.5,4166]]",1,0,877.484,885.183,49.625,1.324,"[{""rating"":49.625,""responseTime"":1.3239999999999554}]",space,7.171,,885.183,Not at all,0,885.189,,,[],,0,17,17,17,1,audio/Narrative8Situation8.wav,audio/Narrative7Situation8.wav,audio/Narrative6Situation8.wav,audio/Narrative5Situation8.wav,3,2,5,3,,,,,,,,,,,,,,,,,,,,,,,,,,,,,,,,,,,,,,,
,,,,,,5e1371f92b12bd9a96c2d902,2024-05-13_10h29.45.053,group3.1-3.2-social-tom,2023.2.2,Win32,60.0240096,65c5074098b851296ff0b7ed,664231d1d200c76851154db6,,,,,,,,,,,,,,,,,,,,,,,,,,,,,885.189,1,audio/Narrative8Situation9.wav,888.199,,888.199,899.517,"[[999,2],[999,84],[999,167],[999,250],[999,333],[999,419],[999,500],[999,581],[999,666],[999,751],[999,831],[999,916],[999,1000],[999,1083],[999,1167],[999,1250],[999,1333],[999,1417],[999,1499],[999,1583],[999,1667],[999,1749],[999,1833],[999,1916],[999,1999],[999,2083],[999,2166],[999,2249],[999,2333],[999,2416],[999,2499],[999,2581],[999,2666],[999,2749],[999,2833],[999,2916],[999,3001],[999,3083],[999,3168],[999,3252],[999,3331],[999,3416],[999,3499],[999,3583],[999,3666],[999,3750],[999,3833],[999,3917],[999,3999],[999,4083],[999,4166],[999,4250],[999,4334],[999,4416],[999,4500],[999,4581],[999,4666],[999,4750],[999,4833],[999,4916],[999,4999],[999,5083],[999,5167],[999,5250],[999,5333],[999,5418],[999,5499],[999,5583],[999,5666],[999,5750],[999,5834],[999,5916],[999,5999],[999,6083],[999,6167],[999,6250],[999,6333],[999,6418],[999,6501],[999,6583],[999,6666],[999,6750],[999,6831],[999,6917],[999,6999],[999,7081],[999,7168],[999,7249],[999,7333],[999,7416],[999,7499],[999,7581],[999,7666],[999,7749],[999,7833],[999,7916],[999,7999],[999,8083],[999,8169],[999,8249],[999,8333],[999,8416],[999,8500],[999,8583],[999,8666],[999,8750],[999,8833],[999,8916],[999,8999],[999,9083],[999,9167],[999,9250],[999,9333],[999,9416],[999,9504],[999,9584],[999,9668],[999,9749],[999,9833],[999,9916],[999,9999],[999,10083],[999,10167],[999,10249],[999,10331],[999,10416],[999,10499],[999,10583],[999,10666],[999,10749],[999,10833],[999,10916],[999,11001],[999,11083],[999,11168],[999,11250]]",1,0,899.517,903.449,49.5,2.821,"[{""rating"":49.5,""responseTime"":2.8210000000000264}]",space,3.383,,903.45,Half the time,50,903.459,,,[],,0,18,18,18,1,audio/Narrative8Situation9.wav,audio/Narrative7Situation9.wav,audio/Narrative6Situation9.wav,audio/Narrative5Situation9.wav,3,2,4,3,,,,,,,,,,,,,,,,,,,,,,,,,,,,,,,,,,,,,,,
,,,,,,5e1371f92b12bd9a96c2d902,2024-05-13_10h29.45.053,group3.1-3.2-social-tom,2023.2.2,Win32,60.0240096,65c5074098b851296ff0b7ed,664231d1d200c76851154db6,,,,,,,,,,,,,,,,,,,,,,,,,,,925.303,927.882,927.9,2,audio/Narrative13Situation2.wav,927.901,,927.901,957.649,"[[999,1],[999,81],[999,164],[999,249],[999,330],[999,414],[999,497],[999,581],[999,665],[999,747],[999,830],[999,914],[999,997],[999,1081],[999,1165],[999,1248],[999,1331],[999,1415],[999,1498],[49.8,1581],[49.5,1664],[49.5,1749],[49.5,1831],[49.5,1913],[49.5,1998],[50,2085],[50,2164],[50,2247],[50.1,2330],[50.1,2414],[50.1,2497],[50.1,2581],[50.1,2664],[50.1,2747],[50.1,2831],[50.1,2915],[50.1,2999],[50.1,3081],[50.1,3163],[50.1,3247],[50.1,3334]]",1,0,957.649,957.656,,,[],,,,957.656,Not at all,0,957.663,,,[],,0,0,0,0,1,audio/Narrative13Situation2.wav,audio/Narrative13Situation2.wav,audio/Narrative13Situation2.wav,audio/Narrative13Situation2.wav,2,2,2,2,,,,,903.459,925.303,space,21.327,,,,,,,,,,,,,,,,,,,,,,,,,,,,,,,
,,,,,,5e1371f92b12bd9a96c2d902,2024-05-13_10h29.45.053,group3.1-3.2-social-tom,2023.2.2,Win32,60.0240096,65c5074098b851296ff0b7ed,664231d1d200c76851154db6,,,,,,,,,,,,,,,,,,,,,,,,,,,,,957.664,2,audio/Narrative5Situation1.wav,960.716,space,960.717,974.017,"[[999,0],[999,81],[999,166],[999,248],[999,346],[999,431],[999,514],[999,598],[999,680],[999,764],[999,848],[999,931],[999,1014],[999,1098],[48.9,1181],[49,1268],[49.3,1348],[49.3,1431],[49.3,1514],[49.3,1598],[49.3,1680],[49.3,1764],[49.3,1849],[49.3,1931],[49.3,2014],[49.3,2098],[49.3,2181],[49.3,2267],[49.3,2346],[49.3,2431],[49.3,2514],[49.3,2598],[49.3,2682],[49.3,2764],[49.3,2846],[49.3,2930],[49.3,3014],[49.3,3096],[49.3,3181],[49.3,3264],[49.3,3346],[49.3,3431],[49.3,3515],[49.3,3596],[49.3,3681],[49.3,3764],[49.3,3848],[49.3,3932],[49.3,4014],[49.3,4100],[49.3,4182],[49.3,4264],[49.3,4348],[49.3,4432],[49.3,4514],[49.3,4598],[49.3,4681],[49.3,4765],[49.3,4846],[49.3,4931],[49.3,5015],[49.3,5098],[49.3,5182],[49.3,5264],[49.3,5346],[49.3,5431],[49.3,5514],[49.3,5600],[49.3,5682],[49.3,5764],[49.3,5848],[49.3,5931],[49.3,6014],[49.3,6096],[49.3,6181],[49.3,6264],[49.3,6348],[49.3,6431],[49.3,6514],[49.3,6598],[49.3,6682],[49.3,6767],[49.3,6849],[49.3,6930],[49.3,7014],[49.3,7096],[49.3,7181],[49.3,7264],[49.3,7346],[49.3,7431],[49.3,7514],[49.3,7596],[49.3,7682],[49.3,7764],[49.3,7848],[49.3,7931],[49.3,8014],[49.3,8096],[49.3,8180],[49.3,8264],[49.3,8346],[49.3,8431],[49.3,8514],[49.3,8598],[49.3,8681],[49.3,8764],[49.3,8848],[49.3,8932],[49.3,9014],[49.3,9096],[49.3,9181],[49.3,9264],[49.3,9346],[49.3,9433],[49.3,9514],[49.3,9598],[49.3,9681],[49.3,9764],[49.3,9848],[49.3,9931],[49.3,10017],[49.3,10098],[49.3,10182],[49.3,10264],[49.3,10348],[49.3,10430],[49.3,10514],[49.3,10600],[49.3,10680],[49.3,10764],[49.3,10846],[49.3,10931],[49.3,11014],[49.3,11096],[49.3,11181],[49.3,11264],[49.3,11346],[49.3,11431],[49.3,11514],[49.3,11596],[49.3,11682],[49.3,11764],[49.3,11849],[49.3,11931],[49.3,12014],[49.3,12101],[49.3,12181],[49.3,12264],[49.3,12348],[49.3,12430],[49.3,12514],[49.3,12598],[49.3,12681],[49.3,12765],[49.3,12848],[49.3,12932],[49.3,13014],[49.3,13096],[49.3,13181],[49.3,13264]]",1,0,974.018,984.15,49.75,9.19,"[{""rating"":49.75,""responseTime"":9.18999999999994}]",space,9.584,,984.15,Half the time,50,984.157,,,[],,0,1,1,1,1,audio/Narrative7Situation1.wav,audio/Narrative8Situation1.wav,audio/Narrative5Situation1.wav,audio/Narrative6Situation1.wav,2,5,5,2,3.036,,,,,,,,,,,,,,,,,,,,,,,,,,,,,,,,,,,,,,
,,,,,,5e1371f92b12bd9a96c2d902,2024-05-13_10h29.45.053,group3.1-3.2-social-tom,2023.2.2,Win32,60.0240096,65c5074098b851296ff0b7ed,664231d1d200c76851154db6,,,,,,,,,,,,,,,,,,,,,,,,,,,,,984.157,2,audio/Narrative5Situation2.wav,987.165,,987.165,1016.631,"[[52.3,27000],[63.5,27084],[82.8,27168],[94.9,27249],[100,27334],[100,27417],[100,27498],[100,27582],[100,27667],[100,27748],[99.8,27831],[99.8,27915],[99.8,27998],[99.8,28082],[99.8,28165],[99.8,28250],[99.8,28332],[99.8,28415],[99.8,28498],[99.8,28582],[99.8,28665],[99.8,28748],[99.8,28831],[99.8,28915],[99.8,28999],[99.8,29082],[99.8,29165],[99.8,29249],[99.8,29333],[99.8,29415]]",1,0,1016.632,1021.016,99.75,1.891,"[{""rating"":99.75,""responseTime"":1.8910000000000764}]",space,3.836,,1021.016,Not at all,0,1021.028,,,[],,0,2,2,2,1,audio/Narrative7Situation2.wav,audio/Narrative8Situation2.wav,audio/Narrative5Situation2.wav,audio/Narrative6Situation2.wav,3,3,3,3,,,,,,,,,,,,,,,,,,,,,,,,,,,,,,,,,,,,,,,
,,,,,,5e1371f92b12bd9a96c2d902,2024-05-13_10h29.45.053,group3.1-3.2-social-tom,2023.2.2,Win32,60.0240096,65c5074098b851296ff0b7ed,664231d1d200c76851154db6,,,,,,,,,,,,,,,,,,,,,,,,,,,,,1021.029,2,audio/Narrative5Situation3.wav,1024.031,,1024.031,1037.948,"[[999,3],[999,84],[999,167],[999,250],[999,333],[999,417],[999,499],[999,583],[999,668],[999,750],[999,833],[999,918],[999,1000],[999,1083],[999,1168],[999,1249],[999,1334],[999,1417],[999,1500],[999,1583],[999,1665],[999,1751],[999,1834],[999,1915],[999,2000],[999,2083],[999,2165],[999,2250],[999,2333],[999,2417],[999,2500],[999,2584],[999,2665],[999,2750],[999,2834],[999,2917],[999,2999],[999,3083],[999,3167],[999,3250],[999,3334],[999,3415],[999,3500],[999,3583],[999,3665],[999,3750],[999,3833],[999,3918],[999,4000],[999,4083],[999,4165],[999,4250],[999,4333],[999,4417],[999,4500],[999,4583],[999,4667],[999,4749],[999,4833],[999,4917],[999,5003],[999,5083],[999,5165],[999,5250],[999,5333],[999,5417],[999,5500],[999,5584],[999,5667],[999,5750],[999,5833],[999,5915],[999,6000],[999,6084],[999,6165],[999,6249],[999,6334],[999,6415],[999,6500],[999,6583],[999,6669],[999,6750],[999,6833],[999,6915],[999,7000],[999,7085],[50.5,7165],[50.4,7249],[50.4,7335],[50.3,7417],[50.3,7499],[50.3,7585],[50.3,7665],[50.3,7750],[50.3,7833],[50.3,7915],[50.3,8000],[50.3,8083],[50.3,8165],[50.3,8250],[50.3,8333],[50.3,8417],[50.3,8500],[50.3,8583],[50.3,8665],[50.3,8749],[50.3,8834],[50.3,8917],[50.3,8999],[50.3,9083],[50.3,9165],[50.3,9250],[50.3,9334],[50.3,9415],[50.3,9499],[50.3,9583],[50.3,9665],[50.3,9750],[50.3,9834],[50.3,9917],[50.3,10000],[50.3,10083],[50.3,10167],[50.3,10250],[50.3,10334],[50.3,10417],[50.3,10499],[50.3,10583],[50.3,10667],[50.3,10749],[50.3,10834],[50.3,10917],[50.3,11001],[50.3,11083],[50.3,11169],[50.3,11250],[50.3,11333],[50.3,11417],[50.3,11500],[50.3,11583],[50.3,11665],[50.3,11749],[50.3,11833],[50.3,11915],[50.3,12000],[50.3,12085],[50.3,12165],[50.3,12250],[50.3,12333],[50.3,12415],[50.3,12499],[50.3,12583],[50.3,12665],[50.3,12750],[50.3,12833],[50.3,12915],[50.3,13000],[50.3,13083],[50.3,13168],[50.3,13250],[50.3,13332],[50.3,13415],[50.3,13500],[50.3,13583],[50.3,13665],[50.3,13749],[50.3,13832],[50.3,13915]]",1,0,1037.948,1040.647,50.25,1.93,"[{""rating"":50.24999999999999,""responseTime"":1.9299999999998363}]",space,2.156,,1040.647,Half the time,50,1040.655,,,[],,0,3,3,3,1,audio/Narrative7Situation3.wav,audio/Narrative8Situation3.wav,audio/Narrative5Situation3.wav,audio/Narrative6Situation3.wav,8,4,3,5,,,,,,,,,,,,,,,,,,,,,,,,,,,,,,,,,,,,,,,
,,,,,,5e1371f92b12bd9a96c2d902,2024-05-13_10h29.45.053,group3.1-3.2-social-tom,2023.2.2,Win32,60.0240096,65c5074098b851296ff0b7ed,664231d1d200c76851154db6,,,,,,,,,,,,,,,,,,,,,,,,,,,,,1040.656,2,audio/Narrative5Situation4.wav,1041.664,,1041.664,1062.064,"[[50.1,5585],[50.1,5666],[50.1,5749],[50.1,5835],[50.1,5916],[50.1,6000],[50.1,6084],[50.1,6165],[50.1,6249],[50.1,6333],[50.1,6416],[50.1,6500],[50.1,6583],[50.1,6666],[50.1,6750],[50.1,6833],[50.1,6915],[50.1,7001],[50.1,7083],[50.1,7166],[50.1,7249],[50.1,7335],[50.1,7415],[50.1,7500],[50.1,7584],[50.1,7666],[50.1,7750],[50.1,7834],[50.1,7916],[50.1,8000],[50.1,8085],[50.1,8166],[50.1,8250],[50.1,8333],[50.1,8416],[50.1,8500],[50.1,8583],[50.1,8666],[50.1,8749],[50.1,8833],[50.1,8915],[50.1,9000],[50.1,9084],[50.1,9168],[50.1,9250],[50.1,9333],[50.1,9415],[50.1,9500],[50.1,9583],[50.1,9665],[50.1,9750],[50.1,9834],[50.1,9916],[50.1,9999],[50.1,10083],[50.1,10165],[50.1,10251],[50.1,10333],[50.1,10416],[50.1,10500],[50.1,10583],[50.1,10665],[50.1,10750],[50.1,10833],[50.1,10915],[50.1,11000],[50.1,11083],[50.1,11166],[50.1,11250],[50.1,11335],[50.1,11416],[50.1,11500],[50.1,11584],[50.1,11668],[50.1,11750],[50.1,11833],[50.1,11915],[50.1,12000],[50.1,12084],[50.1,12166],[50.1,12250],[50.1,12333],[50.1,12418],[50.1,12500],[50.1,12584],[50.1,12665],[50.1,12750],[50.1,12833],[50.1,12916],[50.1,13000],[50.1,13083],[50.1,13166],[50.1,13249],[50.1,13333],[50.1,13419],[50.1,13501],[50.1,13583],[50.1,13665],[50.1,13749],[50.1,13834],[50.1,13915],[50.1,14000],[50.1,14083],[65.6,14166],[80.5,14250],[86.4,14334],[90.6,14416],[94.4,14500],[98.1,14586],[100,14669],[100,14750],[100,14834],[100,14916],[100,15001],[100,15084],[100,15166],[100,15250],[100,15336],[100,15416],[100,15500],[100,15583],[100,15669],[100,15750],[100,15833],[100,15915],[100,15999],[100,16083],[100,16166],[100,16250],[100,16333],[100,16416],[100,16500],[100,16583],[100,16666],[100,16750],[100,16833],[100,16915],[100,17000],[100,17083],[100,17166],[100,17249],[100,17333],[100,17416],[100,17500],[100,17584],[100,17665],[100,17749],[100,17833],[100,17916],[100,18000],[100,18084],[100,18166],[100,18250],[100,18333],[100,18418],[100,18500],[100,18583],[100,18665],[100,18750],[100,18833],[100,18916],[100,19000],[100,19083],[100,19166],[100,19249],[100,19336],[100,19416],[100,19501],[100,19583],[100,19666],[100,19750],[100,19833],[100,19916],[100,19999],[100,20083],[100,20166],[100,20250],[100,20334]]",1,0,1062.065,1066.265,99.25,3.156,"[{""rating"":99.25,""responseTime"":3.155999999999949}]",space,3.666,,1066.265,Not at all,0,1066.274,,,[],,0,4,4,4,1,audio/Narrative7Situation4.wav,audio/Narrative8Situation4.wav,audio/Narrative5Situation4.wav,audio/Narrative6Situation4.wav,3,3,1,2,,,,,,,,,,,,,,,,,,,,,,,,,,,,,,,,,,,,,,,
,,,,,,5e1371f92b12bd9a96c2d902,2024-05-13_10h29.45.053,group3.1-3.2-social-tom,2023.2.2,Win32,60.0240096,65c5074098b851296ff0b7ed,664231d1d200c76851154db6,,,,,,,,,,,,,,,,,,,,,,,,,,,,,1066.275,2,audio/Narrative5Situation5.wav,1071.28,,1071.281,1086.731,"[[999,0],[999,85],[999,165],[999,250],[999,333],[999,415],[999,499],[999,582],[999,667],[999,750],[999,832],[999,915],[999,999],[999,1082],[999,1167],[999,1250],[999,1333],[999,1415],[999,1500],[48,1583],[49.1,1667],[49.6,1750],[50.1,1833],[50.1,1914],[50.1,1999],[50.1,2082],[50.1,2165],[50.1,2250],[50.1,2332],[50.1,2415],[50.1,2501],[50.1,2582],[50.1,2665],[50.1,2750],[50.1,2833],[50.1,2918],[50.1,2999],[50.1,3082],[50.1,3165],[50.1,3249],[50.1,3333],[50.1,3415],[50.1,3499],[50.1,3583],[50.1,3665],[50.1,3749],[50.1,3834],[50.1,3914],[50.1,3999],[50.1,4084],[50.1,4164],[50.1,4249],[50.1,4332],[50.1,4415],[50.1,4499],[50.1,4583],[50.1,4665],[50.1,4750],[50.1,4833],[50.1,4915],[50.1,5000],[50.1,5085],[50.1,5168],[50.1,5250],[50.1,5332],[50.1,5415],[50.1,5499],[50.1,5583],[50.1,5665],[50.1,5749],[50.1,5833],[50.1,5915],[50.1,5999],[50.1,6083],[50.1,6167],[50.1,6249],[50.1,6334],[50.1,6415],[50.1,6500],[50.1,6582],[50.1,6665],[50.1,6750],[50.1,6833],[50.1,6915],[50.1,6999],[50.1,7082],[50.1,7165],[50.1,7250],[50.1,7333],[50.1,7417],[50.1,7499],[50.1,7583],[50.1,7665],[50.1,7750],[50.1,7833],[50.1,7915],[50.1,8000],[50.1,8083],[50.1,8165],[50.1,8250],[50.1,8333],[50.1,8415],[50.1,8500],[50.1,8582],[50.1,8665],[50.1,8749],[50.1,8832],[50.1,8915],[50.1,9000],[50.1,9084],[50.1,9165],[50.1,9250],[50.1,9333],[50.1,9415],[50.1,9500],[50.1,9582],[50.1,9665],[50.1,9750],[50.1,9833],[50.1,9915],[50.1,10000],[50.1,10083],[50.1,10165],[50.1,10250],[50.1,10333],[50.1,10415],[50.1,10499],[50.1,10582],[50.1,10665],[50.1,10750],[50.1,10832],[50.1,10915],[50.1,11000],[50.1,11083],[50.1,11165],[50.1,11250],[50.1,11333],[50.1,11417],[50.1,11500],[50.1,11583],[50.1,11665],[50.1,11750],[50.1,11834],[50.1,11915],[50.1,11999],[50.1,12082],[50.1,12165],[50.1,12250],[50.1,12333],[50.1,12415],[50.1,12499],[50.1,12583],[50.1,12665],[50.1,12750],[50.1,12832],[50.1,12917],[50.1,12999],[50.1,13082],[50.1,13167],[50.1,13249],[50.1,13333],[50.1,13415],[50.1,13499],[50.1,13583],[50.1,13665],[50.1,13750],[50.1,13835],[50.1,13917],[50.1,14000],[50.1,14085],[50.1,14165],[50.1,14251],[50.1,14332],[50.1,14418],[50.1,14500],[50.1,14583],[50.1,14665],[50.1,14750],[50.1,14833],[50.1,14915],[50.1,15003],[50.1,15085],[50.1,15165],[50.1,15251],[50.1,15333],[50.1,15415]]",1,0,1086.732,1089.464,50,1.975,"[{""rating"":50,""responseTime"":1.9750000000001364}]",space,2.193,,1089.464,Not at all,0,1089.471,,,[],,0,5,5,5,1,audio/Narrative7Situation5.wav,audio/Narrative8Situation5.wav,audio/Narrative5Situation5.wav,audio/Narrative6Situation5.wav,5,2,5,2,,,,,,,,,,,,,,,,,,,,,,,,,,,,,,,,,,,,,,,
,,,,,,5e1371f92b12bd9a96c2d902,2024-05-13_10h29.45.053,group3.1-3.2-social-tom,2023.2.2,Win32,60.0240096,65c5074098b851296ff0b7ed,664231d1d200c76851154db6,,,,,,,,,,,,,,,,,,,,,,,,,,,,,1089.471,2,audio/Narrative5Situation6.wav,1092.481,,1092.481,1098.182,"[[54.1,2583],[99.5,2752],[100,2834],[100,2918],[100,3002],[100,3083],[100,3168],[100,3251],[100,3333],[100,3416],[100,3500],[100,3582],[100,3665],[100,3749],[100,3834],[100,3915],[100,3999],[100,4085],[100,4165],[100,4250],[100,4333],[100,4415],[100,4500],[100,4583],[100,4664],[100,4750],[100,4832],[100,4915],[100,4999],[100,5085],[100,5166],[100,5250],[100,5333],[100,5414],[100,5500]]",1,0,1098.182,1100.88,99.5,1.825,"[{""rating"":99.5,""responseTime"":1.8250000000000455}]",space,2.151,,1100.88,All the time,100,1100.889,,,[],,0,6,6,6,1,audio/Narrative7Situation6.wav,audio/Narrative8Situation6.wav,audio/Narrative5Situation6.wav,audio/Narrative6Situation6.wav,3,2,3,2,,,,,,,,,,,,,,,,,,,,,,,,,,,,,,,,,,,,,,,
,,,,,,5e1371f92b12bd9a96c2d902,2024-05-13_10h29.45.053,group3.1-3.2-social-tom,2023.2.2,Win32,60.0240096,65c5074098b851296ff0b7ed,664231d1d200c76851154db6,,,,,,,,,,,,,,,,,,,,,,,,,,,,,1100.889,2,audio/Narrative5Situation7.wav,1104.897,,1104.897,1125.949,"[[999,2],[999,84],[999,166],[999,250],[999,336],[999,416],[999,500],[999,585],[999,666],[999,750],[999,833],[999,917],[999,1000],[999,1083],[999,1166],[999,1249],[999,1333],[999,1418],[999,1499],[999,1584],[999,1667],[999,1749],[999,1833],[999,1916],[999,2000],[999,2083],[999,2167],[999,2249],[999,2335],[999,2417],[999,2500],[999,2583],[999,2668],[999,2750],[999,2833],[999,2917],[999,3000],[999,3085],[999,3166],[999,3250],[999,3333],[999,3419],[999,3500],[999,3583],[999,3667],[999,3750],[999,3834],[999,3917],[999,4000],[999,4083],[999,4166],[999,4249],[999,4334],[999,4416],[999,4500],[999,4583],[999,4666],[999,4750],[999,4833],[999,4917],[999,5000],[999,5083],[999,5167],[999,5250],[999,5333],[999,5419],[90.1,5500],[99.3,5585],[99.8,5667],[100,5749],[100,5834],[100,5917],[100,6000],[100,6083],[100,6166],[100,6250],[100,6333],[100,6417],[100,6500],[100,6584],[100,6666],[100,6750],[100,6834],[100,6916],[100,6999],[100,7084],[100,7167],[100,7250],[100,7333],[100,7416],[100,7500],[100,7583],[100,7668],[100,7750],[100,7835],[100,7916],[100,8000],[100,8086],[100,8166],[100,8250],[100,8334],[100,8416],[100,8500],[100,8582],[100,8667],[100,8750],[100,8833],[100,8918],[100,9000],[100,9082],[100,9167],[100,9250],[100,9334],[100,9417],[100,9499],[100,9583],[100,9666],[100,9750],[100,9833],[100,9917],[100,9999],[100,10083],[100,10167],[100,10252],[100,10334],[100,10418],[100,10500],[100,10583],[100,10666],[100,10750],[100,10834],[100,10916],[100,11000],[100,11084],[100,11167],[100,11250],[100,11333],[100,11417],[100,11500],[100,11583],[100,11667],[100,11750],[100,11833],[100,11916],[100,11999],[100,12083],[100,12169],[100,12249],[100,12333],[100,12416],[100,12500],[100,12584],[100,12668],[100,12750],[100,12833],[100,12917],[100,13000],[100,13084],[100,13167],[100,13252],[100,13334],[100,13417],[100,13500],[100,13584],[100,13667],[100,13750],[100,13833],[100,13918],[100,13999],[100,14083],[100,14166],[100,14250],[100,14335],[100,14416],[100,14500],[100,14583],[100,14667],[100,14750],[100,14833],[100,14918],[100,15000],[100,15083],[100,15166],[100,15250],[100,15333],[100,15416],[100,15499],[100,15583],[100,15666],[100,15750],[100,15833],[100,15916],[100,16002],[100,16082],[100,16166],[100,16249],[100,16333],[100,16417],[100,16500],[100,16583],[100,16668],[100,16750],[100,16833],[100,16917],[100,17000],[100,17083],[100,17167],[100,17250],[100,17333],[100,17417],[100,17500],[100,17583],[100,17668],[100,17749],[100,17833],[100,17917],[100,18333],[100,18417],[100,18500],[100,18584],[100,18666],[100,18752],[100,18834],[100,18916],[100,19000],[100,19083],[100,19167],[100,19250],[79.1,20085],[94.9,20167],[96,20250],[96.1,20333],[96.3,20418],[97.6,20503],[99.1,20583],[99.3,20667],[99.3,20750],[99.3,20833],[99.3,20916],[99.3,21000]]",1,0,1125.95,1127.83,99.25,0.856,"[{""rating"":99.25,""responseTime"":0.8559999999999945}]",space,1.333,,1127.83,Half the time,50,1127.839,,,[],,0,7,7,7,1,audio/Narrative7Situation7.wav,audio/Narrative8Situation7.wav,audio/Narrative5Situation7.wav,audio/Narrative6Situation7.wav,5,3,4,5,,,,,,,,,,,,,,,,,,,,,,,,,,,,,,,,,,,,,,,
,,,,,,5e1371f92b12bd9a96c2d902,2024-05-13_10h29.45.053,group3.1-3.2-social-tom,2023.2.2,Win32,60.0240096,65c5074098b851296ff0b7ed,664231d1d200c76851154db6,,,,,,,,,,,,,,,,,,,,,,,,,,,,,1127.84,2,audio/Narrative5Situation8.wav,1130.849,,1130.849,1139.68,"[[99.3,2497],[99.3,2581],[99.3,2664],[99.3,2747],[99.3,2831],[99.3,2913],[99.3,2997],[99.3,3081],[99.3,3164],[99.3,3247],[90.9,3341],[92.6,4500],[97.3,4581],[97.5,4663],[97.9,4750],[98.9,4832],[100,4914],[100,4998],[100,5081],[100,5163],[100,5247],[100,5333],[100,5413],[100,5497],[100,5582],[100,5663],[100,5748],[100,5831],[100,5917],[99.9,6000]]",1,0,1139.681,1142.748,49.75,2.511,"[{""rating"":49.75,""responseTime"":2.5109999999999673}]",space,2.541,,1142.748,Half the time,50,1142.753,,,[],,0,8,8,8,1,audio/Narrative7Situation8.wav,audio/Narrative8Situation8.wav,audio/Narrative5Situation8.wav,audio/Narrative6Situation8.wav,2,3,3,5,,,,,,,,,,,,,,,,,,,,,,,,,,,,,,,,,,,,,,,
,,,,,,5e1371f92b12bd9a96c2d902,2024-05-13_10h29.45.053,group3.1-3.2-social-tom,2023.2.2,Win32,60.0240096,65c5074098b851296ff0b7ed,664231d1d200c76851154db6,,,,,,,,,,,,,,,,,,,,,,,,,,,,,1142.754,2,audio/Narrative5Situation9.wav,1145.766,,1145.766,1185.314,"[[49.8,4331],[49.8,4413],[49.8,4496],[49.8,4580],[49.8,4663],[49.8,4746],[49.8,4829],[49.8,4913],[49.8,4996],[49.8,5079],[49.5,5163],[49.5,5246],[49.5,5329],[49.5,5415],[49.5,5496],[49.5,5579],[49.5,5663],[49.5,5750],[49.5,5829],[49.5,5913],[49.5,5999],[49.5,6080],[49.5,6163],[49.5,6246],[49.5,6330],[49.5,6413],[49.5,6497],[49.5,6579],[49.5,6663],[49.5,6746],[49.5,6830],[49.5,6913],[49.5,6997],[49.5,7081],[49.5,7163],[49.5,7246],[49.5,7329],[49.5,7413],[49.5,7496],[49.5,7579],[49.5,7663],[49.5,7746],[49.5,7829],[49.5,7913],[49.5,7996],[49.5,8079],[49.5,8164],[49.5,8245],[49.5,8329],[49.5,8413],[49.5,8496],[49.5,8579],[49.5,8665],[49.5,8746],[49.5,8829],[49.5,8913],[49.5,8996],[49.5,9079],[49.5,9163],[49.5,9249],[49.5,9330],[49.5,9413],[49.5,9496],[49.5,9579],[49.5,9664],[49.5,9746],[49.5,9829],[49.5,9913],[49.5,9997],[49.5,10079],[49.5,10163],[49.5,10246],[49.5,10330],[49.5,10413],[49.5,10496],[49.5,10579],[49.5,10663],[49.5,10746],[49.5,10831],[49.5,10913],[49.5,10997],[49.5,11080],[49.5,11163],[49.5,11246],[49.5,11329],[49.5,11415],[49.5,11496],[49.5,11579],[49.5,11663],[49.5,11747],[49.5,11829],[49.5,11914],[49.5,11996],[49.5,12080],[49.5,12163],[49.5,12246],[49.5,12330],[49.5,12413],[49.5,12495],[49.5,12580],[49.5,12663],[49.5,12746],[49.5,12830],[49.5,12913],[49.5,12996],[49.5,13081],[49.5,13163],[49.5,13246],[49.5,13329],[49.5,13413],[49.5,13499],[49.5,13579],[49.5,13663],[49.5,13745],[49.5,13830],[49.5,13913],[49.5,13996],[49.5,14080],[49.5,14164],[49.5,14245],[49.5,14329],[49.5,14413],[49.5,14497],[49.5,14580],[49.5,14663],[49.5,14749],[49.5,14829],[49.5,14913],[49.5,14996],[49.5,15079],[49.5,15163],[49.5,15247],[49.5,15329],[49.5,15413],[49.5,15496],[49.5,15580],[49.5,15663],[49.5,15746],[49.5,15831],[49.5,15913],[49.5,15996],[49.5,16079],[49.5,16166],[49.5,16246],[49.5,16330],[49.5,16413],[49.5,16496],[49.5,16580],[49.5,16663],[49.5,16746],[49.5,16829],[49.5,16915],[49.5,16996],[49.5,17080],[49.5,17163],[49.5,17246],[49.5,17329],[49.5,17413],[49.5,17496],[49.5,17579],[49.5,17663],[49.5,17746],[49.5,17829],[49.5,17913],[49.5,17999],[49.5,18079],[49.5,18163],[49.5,18246],[49.5,18329],[49.5,18413],[49.5,18496],[49.5,18579],[49.5,18663],[49.5,18746],[49.5,18830],[49.5,18913],[49.5,18996],[49.5,19082],[49.5,19163],[49.5,19246],[49.5,19331],[49.5,19414],[49.5,19496],[49.5,19579],[49.5,19665],[49.5,19746],[49.5,19830],[49.5,19914],[49.5,19996],[49.5,20079],[49.5,20164],[49.5,20246],[49.5,20329],[49.5,20413],[49.5,20496],[49.5,20579],[49.5,20663],[49.5,20745],[49.5,20830],[49.5,20914],[49.5,20996],[49.5,21079],[49.5,21163],[49.5,21246],[49.5,21329],[49.5,21413],[49.5,21496],[49.5,21579],[49.5,21663],[49.5,21746],[49.5,21830],[49.5,21913],[49.5,21995],[49.5,22080],[49.5,22163],[49.5,22246],[49.5,22329],[49.5,22415],[49.5,22496],[49.5,22579],[49.5,22663],[49.5,22746],[49.5,22830],[49.5,22915],[49.5,22996],[49.5,23079],[49.5,23163],[49.5,23246],[49.5,23329],[49.5,23413],[49.5,23497],[49.5,23580],[49.5,23663],[49.5,23746],[49.5,23829],[49.5,23913],[49.5,23997],[49.5,24079],[49.5,24165],[49.5,24246],[49.5,24330],[49.5,24413],[49.5,24495],[49.5,24580],[49.5,24663],[49.5,24746],[49.5,24829],[49.5,24913],[49.5,24996],[49.5,25081],[49.5,25163],[49.5,25246],[49.5,25329],[49.5,25413],[49.5,25497],[49.5,25579],[49.5,25663],[49.5,25746],[49.5,25829],[49.5,25913],[49.5,25996],[49.5,26079],[49.5,26165],[49.5,26246],[49.5,26329],[49.5,26413],[49.5,26495],[49.5,26579],[49.5,26663],[49.5,26746],[49.5,26830],[49.5,26913],[49.5,26995],[49.5,27079],[49.5,27163],[49.5,27249],[49.5,27329],[49.5,27413],[49.5,27497],[49.5,27579],[49.5,27663],[49.5,27746],[49.5,27829],[49.5,27913],[49.5,27996],[49.5,28079],[49.5,28163],[49.5,28246],[49.5,28331],[49.5,28413],[49.5,28496],[49.5,28579],[49.5,28663],[49.5,28746],[49.5,28829],[49.5,28913],[49.5,28996],[49.5,29080],[49.5,29163],[49.5,29246],[49.5,29329],[49.5,29413],[49.5,29496],[49.5,29580],[49.5,29663],[49.5,29747],[49.5,29829],[49.5,29913],[49.5,29997],[49.5,30079],[49.5,30163],[49.5,30245],[49.5,30329],[49.5,30413],[49.5,30499],[49.5,30580],[49.5,30663],[49.5,30746],[49.5,30830],[49.5,30913],[49.5,30996],[49.5,31081],[49.5,31163],[49.5,31246],[49.5,31329],[49.5,31413],[49.5,31496],[49.5,31581],[49.5,31663],[49.5,31746],[49.5,31829],[49.5,31913],[49.5,31999],[49.5,32079],[49.5,32163],[49.5,32246],[49.5,32329],[49.5,32413],[49.5,32496],[49.5,32579],[49.5,32664],[49.5,32746],[49.5,32830],[49.5,32913],[49.5,32996],[49.5,33079],[49.5,33163],[49.5,33246],[49.5,33329],[49.5,33413],[49.5,33497],[49.5,33579],[49.5,33663],[49.5,33749],[49.5,33829],[49.5,33913],[49.5,33995],[49.5,34079],[49.5,34163],[49.5,34245],[49.5,34329],[49.5,34413],[49.5,34500],[49.5,34579],[49.5,34663],[49.5,34746],[49.5,34831],[49.5,34913],[49.5,34996],[49.5,35079],[49.5,35163],[49.5,35246],[49.5,35329],[49.5,35413],[49.5,35496],[49.5,35580],[49.5,35663],[49.5,35747],[49.5,35829],[49.5,35913],[49.5,35996],[49.5,36079],[49.5,36163],[49.5,36246],[49.5,36329],[49.5,36413],[49.5,36496],[49.5,36579],[49.5,36663],[49.5,36746],[49.5,36829],[49.5,36913],[49.5,36996],[49.5,37082],[49.5,37163],[49.5,37246],[49.5,37329],[49.5,37413],[49.5,37497],[49.5,37579],[49.5,37663],[49.5,37746],[49.5,37829],[49.5,37913],[49.5,37996],[49.5,38079],[49.5,38164],[49.5,38246],[49.5,38329],[49.5,38413],[49.5,38496],[49.5,38580],[49.5,38663],[49.5,38745],[49.5,38829],[49.5,38913],[49.5,38995],[49.5,39079],[49.5,39163],[49.5,39246],[49.5,39329],[49.5,39413],[49.5,39497]]",1,0,1185.315,1191.747,49.625,3.855,"[{""rating"":49.625,""responseTime"":3.855000000000018}]",space,5.882,,1191.747,Not at all,0,1191.755,,,[],,0,9,9,9,1,audio/Narrative7Situation9.wav,audio/Narrative8Situation9.wav,audio/Narrative5Situation9.wav,audio/Narrative6Situation9.wav,2,3,3,4,,,,,,,,,,,,,,,,,,,,,,,,,,,,,,,,,,,,,,,
,,,,,,5e1371f92b12bd9a96c2d902,2024-05-13_10h29.45.053,group3.1-3.2-social-tom,2023.2.2,Win32,60.0240096,65c5074098b851296ff0b7ed,664231d1d200c76851154db6,,,,,,,,,,,,,,,,,,,,,,,,,,,,,1191.756,2,audio/Narrative6Situation1.wav,1193.764,,1193.764,1220.348,"[[999,1],[999,81],[999,167],[999,249],[999,332],[999,416],[999,500],[999,583],[999,665],[999,787],[999,871],[999,949],[999,1032],[999,1116],[999,1199],[999,1282],[999,1365],[999,1448],[999,1532],[999,1615],[999,1698],[999,1783],[999,1865],[999,1950],[999,2032],[999,2117],[999,2199],[999,2282],[999,2366],[999,2448],[47.1,6600],[48,6682],[49.1,6766],[49.8,6850],[49.9,6932],[49.9,7016],[49.9,7100],[49.9,7182],[49.9,7267],[49.9,7349],[49.9,7432],[49.9,7516],[49.9,7598],[49.9,7682],[49.9,7765],[49.9,7848],[49.9,7932],[49.9,8016],[49.9,8099],[49.9,8182],[49.9,8266],[49.9,8348],[49.9,8432],[49.9,8516],[49.9,8599],[49.9,8682],[49.9,8765],[49.9,8848],[49.9,8932],[49.9,9016],[49.9,9099],[49.9,9182],[49.9,9268],[49.9,9348],[49.9,9432],[49.9,9516],[49.9,9599],[49.9,9681],[49.9,9767],[49.9,9849],[49.9,9932],[49.9,10016],[49.9,10098],[49.9,10182],[49.9,10266],[49.9,10349],[49.9,10432],[49.9,10515],[49.9,10599],[49.9,10682],[49.9,10765],[49.9,10848],[49.9,10934],[49.9,11016],[49.9,11100],[49.9,11182],[49.9,11266],[49.9,11349],[49.9,11431],[49.9,11516],[49.9,11599],[49.9,11682],[49.9,11766],[49.9,11848],[49.9,11932],[49.9,12017],[49.9,12101],[49.9,12182],[49.9,12265],[49.9,12349],[49.9,12432],[49.9,12515],[49.9,12599],[49.9,12682],[49.9,12766],[49.9,12849],[49.9,12932],[49.9,13015],[49.9,13098],[49.9,13182],[49.9,13266],[49.9,13349],[49.9,13432],[49.9,13516],[49.9,13598],[49.9,13682],[49.9,13765],[49.9,13848],[49.9,13932],[49.9,14015],[49.9,14099],[49.9,14182],[49.9,14265],[49.9,14349],[49.9,14432],[49.9,14515],[49.9,14598],[49.9,14681],[49.9,14765],[49.9,14849],[49.9,14932],[49.9,15015],[49.9,15100],[49.9,15182],[49.9,15266],[49.9,15348],[49.9,15432],[49.9,15515],[49.9,15598],[49.9,15682],[49.9,15765],[49.9,15849],[49.9,15932],[49.9,16016],[49.9,16099],[49.9,16182],[49.9,16265],[49.9,16348],[49.9,16432],[49.9,16515],[49.9,16598],[49.9,16682],[49.9,16765],[49.9,16849],[49.9,16932],[49.9,17016],[49.9,17100],[49.9,17182],[49.9,17266],[49.9,17349],[49.9,17432],[49.9,17515],[49.9,17599],[49.9,17682],[49.9,17766],[49.9,17848],[49.9,17932],[49.9,18018],[49.9,18098],[49.9,18182],[49.9,18265],[49.9,18349],[49.9,18432],[49.9,18516],[49.9,18599],[49.9,18682],[49.9,18766],[49.9,18849],[49.9,18931],[49.9,19015],[49.9,19101],[49.9,19182],[49.9,19266],[49.9,19349],[49.9,19431],[49.9,19515],[49.9,19598],[49.9,19682],[49.9,19766],[49.9,19849],[49.9,19932],[49.9,20015],[49.9,20099],[49.9,20182],[49.9,20265],[49.9,20349],[49.9,20432],[49.9,20515],[49.9,20599],[49.9,20681],[49.9,20766],[49.9,20849],[49.9,20932],[49.9,21015],[49.9,21099],[49.9,21181],[49.9,21268],[49.9,21348],[49.9,21432],[49.9,21515],[49.9,21598],[49.9,21682],[49.9,21768],[49.9,21852],[49.9,21932],[49.9,22015],[49.9,22098],[49.9,22182],[49.9,22266],[49.9,22348],[49.9,22432],[49.9,22515],[49.9,22599],[49.9,22682],[49.9,22766],[49.9,22849],[49.9,22932],[49.9,23015],[49.9,23099],[49.9,23182],[49.9,23265],[49.9,23348],[49.9,23432],[49.9,23516],[49.9,23599],[49.9,23682],[49.9,23765],[49.9,23848],[49.9,23932],[49.9,24016],[49.9,24099],[49.9,24182],[49.9,24265],[49.9,24348],[49.9,24432],[49.9,24516],[49.9,24599],[49.9,24682],[49.9,24765],[49.9,24849],[49.9,24932],[49.9,25015],[49.9,25099],[49.9,25182],[49.9,25266],[49.9,25349],[49.9,25432],[49.9,25516],[49.9,25598],[49.9,25682],[49.9,25766],[49.9,25848],[49.9,25931],[49.9,26015],[49.9,26099],[49.9,26182],[49.9,26265],[49.9,26348],[49.9,26432],[49.9,26515]]",1,0,1220.348,1225.963,99.625,4.789,"[{""rating"":99.62500000000001,""responseTime"":4.788999999999987}]",space,5.076,,1225.963,Not at all,0,1225.97,,,[],,0,10,10,10,1,audio/Narrative8Situation1.wav,audio/Narrative7Situation1.wav,audio/Narrative6Situation1.wav,audio/Narrative5Situation1.wav,5,2,2,5,,,,,,,,,,,,,,,,,,,,,,,,,,,,,,,,,,,,,,,
,,,,,,5e1371f92b12bd9a96c2d902,2024-05-13_10h29.45.053,group3.1-3.2-social-tom,2023.2.2,Win32,60.0240096,65c5074098b851296ff0b7ed,664231d1d200c76851154db6,,,,,,,,,,,,,,,,,,,,,,,,,,,,,1225.97,2,audio/Narrative6Situation2.wav,1228.981,,1228.981,1257.513,"[[81.1,1500],[64.3,1582],[61.6,1664],[58.6,1750],[58.1,1830],[58,1914],[58,1998],[58,2080],[58,2164],[58,2248],[58,2330],[58,2414],[58,2499],[58,2584],[58,2664],[58,2748],[58,2830],[58,2913],[58,2998],[58,3080],[58,3164],[58,3249],[58,3332],[58,3413],[58,3498],[58,3583],[58,3663],[58,3749],[58,3832],[58,3914],[58,3999],[58,4082],[58,4164],[58,4248],[58,4330],[58,4414],[58,4499],[58,4582],[58,4665],[58,4748],[58,4832],[58,4915],[58,4999],[58,5082],[58,5164],[58,5249],[58,5330],[58,5414],[58,5498],[58,5580],[58,5663],[58,5750],[58,5830],[58,5914],[58,5999],[58,6080],[58,6164],[58,6248],[58,6330],[58,6414],[58,6498],[58,6582],[58,6664],[58,6749],[58,6833],[58,6916],[58,6998],[58,7082],[58,7164],[58,7248],[58,7332],[58,7413],[58,7499],[58,7582],[58,7664],[58,7748],[58,7830],[58,7916],[58,7998],[58,8080],[58,8164],[58,8248],[58,8332],[58,8414],[58,8498],[58,8582],[58,8664],[58,8748],[58,8832],[58,8914],[58,8999],[58,9082],[58,9163],[58,9248],[58,9330],[58,9414],[58,9498],[58,9580],[58,9664],[58,9748],[58,9830],[58,9914],[58,9998],[58,10080],[58,10164],[58,10250],[58,10332],[58,10414],[58,10497],[58,10580],[58,10664],[58,10748],[58,10832],[58,10914],[58,10997],[58,11082],[58,11165],[58,11249],[58,11332],[58,11414],[58,11499],[58,11580],[58,11664],[58,11749],[58,11832],[58,11915],[58,11998],[58,12082],[58,12164],[58,12248],[58,12330],[58,12414],[58,12498],[58,12580],[58,12664],[58,12747],[58,12830],[58,12914],[58,12998],[58,13080],[58,13164],[58,13248],[58,13332],[58,13414],[58,13497],[58,13582],[58,13663],[58,13748],[58,13830],[58,13915],[58,13998],[58,14080],[58,14163],[58,14248],[58,14330],[58,14414],[58,14498],[58,14582],[58,14664],[58,14748],[58,14830],[58,14913],[58,14997],[58,15082],[58,15164],[58,15248],[58,15330],[58,15414],[58,15499],[58,15582],[58,15664],[58,15748],[58,15830],[58,15914],[58,15998],[58,16080],[58,16164],[58,16248],[58,16330],[58,16414],[58,16498],[58,16580],[58,16663],[58,16749],[58,16832],[58,16914],[58,16999],[58,17080],[58,17164],[58,17248],[58,17330],[58,17413],[58,17498],[58,17580],[58,17663],[58,17748],[58,17830],[58,17914],[58,17998],[58,18083],[58,18164],[58,18249],[58,18332],[58,18414],[58,18498],[58,18580],[58,18663],[58,18748],[58,18832],[58,18914],[58,18997],[58,19080],[58,19164],[58,19248],[58,19332],[58,19414],[58,19498],[58,19580],[58,19664],[58,19747],[58,19830],[58,19915],[58,19999],[58,20080],[58,20164],[58,20249],[58,20330],[58,20413],[58,20498],[58,20580],[58,20664],[58,20748],[58,20832],[58,20914],[58,20999],[58,21080],[58,21163],[58,21248],[58,21330],[58,21414],[58,21498],[58,21580],[58,21664],[58,21750],[58,21830],[58,21915],[58,21998],[58,22080],[58,22165],[58,22248],[70.5,22332],[83.5,22414],[90.8,22498],[94.4,22582],[96.5,22665],[100,22748],[100,22832],[100,22914],[100,22998],[100,23080],[100,23168],[100,23249],[100,23330],[100,23413],[100,23498],[100,23582],[100,23665],[100,23747],[100,23830],[100,23913],[100,23998],[100,24082],[100,24164],[100,24249],[100,24332],[100,24414],[100,24498],[100,24582],[100,24663],[100,24748],[100,24832],[100,24913],[100,24998],[100,25080],[100,25164],[100,25249],[100,25333],[100,25413],[100,25498],[100,25580],[100,25664],[100,25748],[100,25832],[100,25913],[100,25998],[100,26080],[100,26164],[100,26248],[100,26332],[100,26415],[100,26498],[100,26580],[100,26664],[100,26748],[100,26830],[100,26914],[100,26998],[100,27080],[100,27164],[100,27248],[100,27330],[100,27414],[100,27500],[100,27580],[100,27663],[100,27748],[100,27830],[100,27914],[100,27998],[100,28080],[100,28164],[100,28248],[100,28330],[100,28414],[100,28498]]",1,0,1257.513,1261.196,99.75,1.673,"[{""rating"":99.75,""responseTime"":1.6730000000000018}]",space,3.132,,1261.197,Not at all,0,1261.203,,,[],,0,11,11,11,1,audio/Narrative8Situation2.wav,audio/Narrative7Situation2.wav,audio/Narrative6Situation2.wav,audio/Narrative5Situation2.wav,3,3,3,3,,,,,,,,,,,,,,,,,,,,,,,,,,,,,,,,,,,,,,,
,,,,,,5e1371f92b12bd9a96c2d902,2024-05-13_10h29.45.053,group3.1-3.2-social-tom,2023.2.2,Win32,60.0240096,65c5074098b851296ff0b7ed,664231d1d200c76851154db6,,,,,,,,,,,,,,,,,,,,,,,,,,,,,1261.203,2,audio/Narrative6Situation3.wav,1266.213,,1266.213,1278.83,[],1,0,1278.83,1281.612,99.875,2.105,"[{""rating"":99.875,""responseTime"":2.105000000000018}]",space,2.238,,1281.613,Not at all,0,1281.619,,,[],,0,12,12,12,1,audio/Narrative8Situation3.wav,audio/Narrative7Situation3.wav,audio/Narrative6Situation3.wav,audio/Narrative5Situation3.wav,4,8,5,3,,,,,,,,,,,,,,,,,,,,,,,,,,,,,,,,,,,,,,,
,,,,,,5e1371f92b12bd9a96c2d902,2024-05-13_10h29.45.053,group3.1-3.2-social-tom,2023.2.2,Win32,60.0240096,65c5074098b851296ff0b7ed,664231d1d200c76851154db6,,,,,,,,,,,,,,,,,,,,,,,,,,,,,1281.62,2,audio/Narrative6Situation4.wav,1283.629,,1283.629,1296.229,[],1,0,1296.229,1299.229,51,2.523,"[{""rating"":51,""responseTime"":2.522999999999911}]",space,2.467,,1299.229,Half the time,50,1299.238,,,[],,0,13,13,13,1,audio/Narrative8Situation4.wav,audio/Narrative7Situation4.wav,audio/Narrative6Situation4.wav,audio/Narrative5Situation4.wav,3,3,2,1,,,,,,,,,,,,,,,,,,,,,,,,,,,,,,,,,,,,,,,
,,,,,,5e1371f92b12bd9a96c2d902,2024-05-13_10h29.45.053,group3.1-3.2-social-tom,2023.2.2,Win32,60.0240096,65c5074098b851296ff0b7ed,664231d1d200c76851154db6,,,,,,,,,,,,,,,,,,,,,,,,,,,,,1299.239,2,audio/Narrative6Situation5.wav,1301.245,,1301.246,1309.212,"[[50.8,7084],[50.4,7165],[50.1,7248],[49.9,7331],[49.8,7415],[49.8,7500],[49.8,7581],[49.8,7665],[49.8,7748],[49.8,7831],[49.8,7916]]",1,0,1309.213,1311.779,49.75,1.31,"[{""rating"":49.75,""responseTime"":1.3099999999999454}]",space,2.017,,1311.779,All the time,100,1311.789,,,[],,0,14,14,14,1,audio/Narrative8Situation5.wav,audio/Narrative7Situation5.wav,audio/Narrative6Situation5.wav,audio/Narrative5Situation5.wav,2,5,2,5,,,,,,,,,,,,,,,,,,,,,,,,,,,,,,,,,,,,,,,
,,,,,,5e1371f92b12bd9a96c2d902,2024-05-13_10h29.45.053,group3.1-3.2-social-tom,2023.2.2,Win32,60.0240096,65c5074098b851296ff0b7ed,664231d1d200c76851154db6,,,,,,,,,,,,,,,,,,,,,,,,,,,,,1311.789,2,audio/Narrative6Situation6.wav,1313.796,,1313.797,1324.879,[],1,0,1324.879,1338.313,50,10.34,"[{""rating"":50,""responseTime"":10.339999999999918}]",space,12.902,,1338.314,All the time,100,1338.324,,,[],,0,15,15,15,1,audio/Narrative8Situation6.wav,audio/Narrative7Situation6.wav,audio/Narrative6Situation6.wav,audio/Narrative5Situation6.wav,2,3,2,3,,,,,,,,,,,,,,,,,,,,,,,,,,,,,,,,,,,,,,,
,,,,,,5e1371f92b12bd9a96c2d902,2024-05-13_10h29.45.053,group3.1-3.2-social-tom,2023.2.2,Win32,60.0240096,65c5074098b851296ff0b7ed,664231d1d200c76851154db6,,,,,,,,,,,,,,,,,,,,,,,,,,,,,1338.324,2,audio/Narrative6Situation7.wav,1343.328,,1343.328,1368.197,"[[50,1084],[50,1166],[50,1250],[50,1334],[50,1418],[50,1500],[50,1584],[50,1666],[50,1750],[50,1835],[50,1916],[50,2000],[50,2084],[50,2165],[50,2250],[50,2333],[50,2416],[50,2500],[50,2583],[50,2669],[50,2750],[50,2834],[50,2918],[50,3000],[50,3085],[50,3168],[50,3250],[50,3333],[50,3416],[50,3500],[50,3584],[50,3666],[50,3750],[50,3833],[50,3918],[50,4000],[50,4084],[50,4169],[50,4250],[50,4334],[50,4416],[50,4500],[50,4583],[50,4666],[50,4750],[50,4834],[50,4916],[50,5000],[50,5083],[50,5166],[50,5250],[50,5333],[50,5416],[50,5500],[50,5584],[50,5665],[50,5750],[50,5834],[50,5916],[50,6000],[50,6084],[50,6165],[50,6250],[50,6333],[50,6416],[50,6500],[50,6584],[50,6666],[50,6750],[50,6833],[50,6916],[50,7000],[50,7083],[50,7168],[50,7250],[50,7334],[50,7416],[50,7500],[50,7584],[50,7666],[50,7750],[50,7834],[50,7916],[50,8001],[50,8084],[50,8165],[50,8250],[50,8333],[50,8416],[50,8500],[50,8584],[50,8666],[50,8750],[50,8833],[50,8916],[50,9000],[50,9084],[50,9168],[50,9250],[50,9334],[50,9416],[50,9500],[50,9584],[50,9666],[50,9750],[50,9834],[50,9916],[50,10000],[50,10084],[50,10166],[50,10250],[50,10334],[50,10415],[50,10500],[50,10583],[50,10666],[50,10750],[50,10833],[50,10916],[50,11000],[50,11084],[50,11168],[50,11250],[50,11334],[50,11416],[50,11500],[50,11583],[50,11666],[50,11750],[50,11833],[50,11916],[50,12000],[50,12083],[50,12166],[50,12250],[50,12334],[50,12416],[50,12500],[50,12583],[50,12666],[50,12750],[50,12834],[50,12916],[50,13000],[50,13084],[50,13168],[50,13250],[50,13334],[50,13416],[50,13500],[50,13583],[50,13666],[50,13750],[50,13835],[50,13916],[50,14000],[50,14083],[50,14165],[50,14250],[50,14334],[50,14416],[50,14500],[50,14584],[50,14666],[50,14750],[50,14834],[50,14916],[50,15000],[50,15084],[50,15166],[50,15250],[50,15333],[50,15416],[50,15500],[50,15584],[50,15666],[50,15750],[50,15834],[50,15916],[50,16000],[50,16083],[50,16168],[50,16250],[50,16333],[50,16415],[50,16500],[50,16584],[50,16666],[50,16750],[50,16833],[50,16916],[50,17000],[50,17083],[50,17165],[50,17250],[50,17333],[50,17416],[50,17500],[50,17584],[50,17666],[50,17750],[50,17833],[50,17915],[50,18000],[50,18084],[50,18168],[50,18250],[50,18333],[50,18415],[50,18501],[50,18583],[50,18666],[50,18750],[50,18833],[50,18916],[50,19000],[50,19083],[50,19168],[50,19250],[50,19333],[50,19418],[50,19500],[50,19583],[50,19666],[50,19750],[50,19833],[50,19916],[50,20000],[50,20083],[50,20166],[50,20250],[50,20333],[50,20416],[50,20500],[50,20584],[50,20666],[50,20750],[50,20833],[50,20916],[50,21000],[50,21084],[50,21165],[50,21250],[50,21333],[50,21415],[50,21500],[50,21583],[50,21665],[50,21750],[50,21834],[50,21916],[50,22000],[50,22083],[50,22168],[50,22250],[50,22334],[50,22416],[50,22500],[50,22583],[50,22665],[50,22756],[50,22834],[50,22919],[50,23000],[50,23084],[50,23169],[50,23250],[50,23333],[50,23416],[50,23500],[50,23584],[50,23666],[50,23750],[50,23834],[50,23915],[50,24000],[50,24083],[50,24165],[50,24250],[50,24336],[50,24416],[50,24500],[50,24583],[50,24665],[50,24750],[50,24833]]",1,0,1368.197,1379.231,50,2.339,"[{""rating"":50,""responseTime"":2.338999999999942}]",space,10.483,,1379.231,Not at all,0,1379.244,,,[],,0,16,16,16,1,audio/Narrative8Situation7.wav,audio/Narrative7Situation7.wav,audio/Narrative6Situation7.wav,audio/Narrative5Situation7.wav,3,5,5,4,,,,,,,,,,,,,,,,,,,,,,,,,,,,,,,,,,,,,,,
,,,,,,5e1371f92b12bd9a96c2d902,2024-05-13_10h29.45.053,group3.1-3.2-social-tom,2023.2.2,Win32,60.0240096,65c5074098b851296ff0b7ed,664231d1d200c76851154db6,,,,,,,,,,,,,,,,,,,,,,,,,,,,,1379.245,2,audio/Narrative6Situation8.wav,1384.262,,1384.262,1391.146,"[[999,3],[999,82],[999,166],[999,250],[999,332],[999,416],[999,499],[999,582],[999,666],[999,749],[999,832],[999,916],[999,999],[999,1083],[999,1167],[999,1249],[999,1336],[76.4,1417],[100,2085],[100,2169],[100,2250],[99.8,2333],[99.6,2416],[99.6,2499],[99.6,2582],[99.6,2666],[99.6,2750],[99.6,2832],[99.6,2917],[99.6,3000],[99.6,3083],[99.6,3164],[99.6,3249],[99.6,3333],[99.6,3416],[99.6,3500],[99.6,3583],[99.6,3666],[99.6,3749],[99.6,3833],[99.6,3916],[99.6,4000],[99.6,4082],[99.6,4166],[99.6,4250],[99.6,4333],[99.6,4416],[99.6,4499],[99.6,4583],[99.6,4666],[99.6,4749],[99.6,4832],[99.6,4916],[99.6,4999],[99.6,5083],[99.6,5168],[99.6,5249],[99.6,5332],[99.6,5416],[99.6,5499],[99.6,5583],[99.6,5666],[99.6,5749],[99.6,5833],[99.6,5914],[99.6,5999],[99.6,6083],[99.6,6166],[99.6,6250],[99.6,6333],[99.6,6414],[99.6,6499],[99.6,6583],[99.6,6666],[99.6,6749],[99.6,6833]]",1,0,1391.146,1399.478,99.625,1.474,"[{""rating"":99.62500000000001,""responseTime"":1.47400000000016}]",space,7.794,,1399.478,Not at all,0,1399.484,,,[],,0,17,17,17,1,audio/Narrative8Situation8.wav,audio/Narrative7Situation8.wav,audio/Narrative6Situation8.wav,audio/Narrative5Situation8.wav,3,2,5,3,,,,,,,,,,,,,,,,,,,,,,,,,,,,,,,,,,,,,,,
,,,,,,5e1371f92b12bd9a96c2d902,2024-05-13_10h29.45.053,group3.1-3.2-social-tom,2023.2.2,Win32,60.0240096,65c5074098b851296ff0b7ed,664231d1d200c76851154db6,,,,,,,,,,,,,,,,,,,,,,,,,,,,,1399.484,2,audio/Narrative6Situation9.wav,1403.495,,1403.496,1413.447,"[[999,4],[999,83],[999,167],[999,249],[999,333],[999,416],[999,499],[999,582],[999,666],[999,749],[999,832],[999,916],[999,999],[999,1083],[999,1166],[999,1250],[999,1333],[999,1416],[999,1500],[999,1583],[999,1666],[999,1749],[999,1834],[999,1919],[49.8,2000],[49.9,2084],[50.1,2166],[50.1,2250],[50.1,2333],[50.1,2416],[50.1,2500],[50.1,2583],[50.1,2666],[50.1,2752],[50.1,2832],[50.1,2918],[50.1,3000],[50.1,3083],[50.1,3166],[50.1,3250],[50.1,3333],[50.1,3418],[50.1,3500],[50.1,3582],[50.1,3667],[50.1,3749],[50.1,3833],[50.1,3916],[50.1,3999],[50.1,4083],[50.1,4166],[50.1,4249],[50.1,4334],[50.1,4416],[50.1,4500],[50.1,4583],[50.1,4666],[50.1,4750],[50.1,4833],[50.1,4917],[50.1,5000],[50.1,5082],[50.1,5167],[50.1,5250],[50.1,5333],[50.1,5416],[50.1,5499],[50.1,5583],[50.1,5666],[50.1,5749],[50.1,5833],[50.1,5916],[50.1,5999],[50.1,6083],[50.1,6166],[50.1,6250],[50.1,6333],[50.1,6415],[50.1,6499],[50.1,6583],[50.1,6666],[50.1,6749],[50.1,6832],[50.1,6916],[50.1,7001],[50.1,7083],[50.1,7167],[50.1,7250],[50.1,7333],[50.1,7417],[50.1,7499],[50.1,7583],[50.1,7667],[50.1,7749],[50.1,7833],[50.1,7917],[50.1,7999],[50.1,8083],[50.1,8166],[50.1,8249],[50.1,8334],[50.1,8416],[50.1,8499],[50.1,8583],[50.1,8666],[50.1,8750],[50.1,8834],[50.1,8915],[50.1,8999],[50.1,9082],[50.1,9165],[50.1,9250],[50.1,9333],[50.1,9417],[50.1,9499],[50.1,9582],[50.1,9666],[50.1,9749],[50.1,9833],[50.1,9916]]",1,0,1413.447,1415.878,50.125,1.731,"[{""rating"":50.125,""responseTime"":1.7309999999999945}]",space,1.884,,1415.878,All the time,100,1425.262,99.875,8.506,"[{""rating"":49.75,""responseTime"":2.06899999999996},{""rating"":99.875,""responseTime"":8.505999999999858}]",space,0,18,18,18,1,audio/Narrative8Situation9.wav,audio/Narrative7Situation9.wav,audio/Narrative6Situation9.wav,audio/Narrative5Situation9.wav,3,2,4,3,,,8.859,,,,,,,,,,,,,,,,,,,,,,,,,,,,,,,,,,,,
,,,,,,5e1371f92b12bd9a96c2d902,2024-05-13_10h29.45.053,group3.1-3.2-social-tom,2023.2.2,Win32,60.0240096,65c5074098b851296ff0b7ed,664231d1d200c76851154db6,,,,,,,,,,,,,,,,,,,,,,,,,,,,,,,,,,,,,,,,,,,,,,,,,,,,,,,,,,,,,,,,,,,,,,,,1425.262,1484.529,space,58.736,,1484.53,1502.813,space,17.955,,,,,,,,,,,,,,,,,,,,,,,,,,
,,,,,,5e1371f92b12bd9a96c2d902,2024-05-13_10h29.45.053,group3.1-3.2-social-tom,2023.2.2,Win32,60.0240096,65c5074098b851296ff0b7ed,664231d1d200c76851154db6,,,,,,,,,,,,,,,,,,,,,,,,,,,,,1505.415,1,audio/Narrative8Situation9.wav,1507.427,,,,,,,1539.336,1544.81,99.375,2.686,"[{""rating"":99.375,""responseTime"":2.685999999999922}]",space,4.933,,1539.329,All the time,100,1539.336,,,[],,,,,,,,,,,2,2,2,2,,,,,,,,,,,,,,,1502.817,1505.394,1507.427,3,1539.329,"[[99.8,4919],[99.5,5001],[99.4,5083],[99.4,5167],[99.4,5250],[99.4,5333],[99.4,5417],[99.4,5500],[99.4,5583],[99.4,5667],[99.4,5750],[99.4,5833],[99.4,5917],[99.4,6000],[99.4,6083],[99.4,6167],[99.4,6250],[99.4,6333],[99.4,6417],[99.4,6500],[99.4,6583],[99.4,6667],[99.4,6750],[99.4,6836],[99.4,6917],[99.4,7000],[99.4,7083],[99.4,7166],[99.4,7250],[99.4,7334],[99.4,7417],[99.4,7500],[99.4,7583],[99.4,7666],[99.4,7750],[99.4,7833],[99.4,7916],[99.4,8000],[99.4,8083],[99.4,8169],[99.4,8252],[99.4,8333],[99.4,8416],[99.4,8500],[99.4,8584],[99.4,8667],[99.4,8750],[99.4,8834],[99.4,8916],[99.4,9001],[99.4,9083],[99.4,9167],[99.4,9251],[99.4,9333],[99.4,9417],[99.4,9501],[99.4,9583],[99.4,9666],[99.4,9750],[99.4,9833],[99.4,9917],[99.4,10000],[99.4,10084],[99.4,10167],[99.4,10249],[99.4,10333],[99.4,10417],[99.4,10499],[99.4,10584],[99.4,10667],[99.4,10750],[99.4,10833],[99.4,10917],[99.4,11000],[99.4,11083],[99.4,11167],[99.4,11250],[99.4,11333],[99.4,11416],[99.4,11500],[99.4,11583],[99.4,11667],[99.4,11749],[99.4,11833],[99.4,11916],[99.4,12000],[99.4,12083],[99.4,12168],[99.4,12249],[99.4,12333],[99.4,12417],[99.4,12500],[99.4,12583],[99.4,12666],[99.4,12751],[99.4,12834],[99.4,12916],[99.4,13000],[99.4,13083],[99.4,13166],[99.4,13249],[99.4,13333],[99.4,13416],[99.4,13501],[99.4,13583],[99.4,13666],[99.4,13750],[99.4,13833],[99.4,13917],[99.4,14000],[99.4,14083],[99.4,14168],[99.4,14251],[99.4,14334],[99.4,14418],[99.4,14501],[99.4,14585],[99.4,14667],[99.4,14750],[99.4,14836],[99.4,14916],[99.4,15000],[99.4,15083],[99.4,15166],[99.4,15250],[99.4,15333],[99.4,15416],[99.4,15500],[99.4,15583],[99.4,15666],[99.4,15750],[99.4,15833],[99.4,15917],[99.4,16000],[99.4,16084],[99.4,16167],[99.4,16250],[99.4,16333],[99.4,16417],[99.4,16500],[99.4,16583],[99.4,16666],[99.4,16750],[99.4,16834],[99.4,16917],[99.4,17000],[99.4,17083],[99.4,17166],[99.4,17250],[99.4,17333],[99.4,17416],[99.4,17500],[99.4,17583],[99.4,17667],[99.4,17749],[99.4,17833],[99.4,17917],[99.4,17999],[99.4,18083],[99.4,18166],[99.4,18249],[99.4,18333],[99.4,18417],[99.4,18500],[99.4,18584],[99.4,18667],[99.4,18750],[99.4,18834],[99.4,18917],[99.4,19000],[99.4,19083],[99.4,19169],[99.4,19250],[99.4,19334],[99.4,19416],[99.4,19500],[99.4,19583],[99.4,19666],[99.4,19750],[99.4,19833],[99.4,19916],[99.4,20000],[99.4,20083],[99.4,20168],[99.4,20250],[99.4,20333],[99.4,20418],[99.4,20499],[99.4,20583],[99.4,20667],[99.4,20749],[99.4,20833],[99.4,20916],[99.4,21000],[99.4,21083],[99.4,21167],[99.4,21250],[99.4,21333],[99.4,21416],[99.4,21501],[99.4,21583],[99.4,21666],[99.4,21750],[99.4,21833],[99.4,21916],[99.4,22000],[99.4,22083],[99.4,22167],[99.4,22250],[99.4,22333],[99.4,22417],[99.4,22500],[99.4,22585],[99.4,22666],[99.4,22750],[99.4,22834],[99.4,22917],[99.4,22999],[99.4,23083],[99.4,23166],[99.4,23250],[99.4,23333],[99.4,23417],[99.4,23500],[99.4,23583],[99.4,23666],[99.4,23750],[99.4,23833],[99.4,23917],[99.4,24000],[99.4,24083],[99.4,24166],[99.4,24249],[99.4,24333],[99.4,24417],[99.4,24500],[99.4,24583],[99.4,24666],[99.4,24750],[99.4,24833],[99.4,24916],[99.4,25000],[99.4,25083],[99.4,25166],[99.4,25250],[99.4,25333],[99.4,25416],[99.4,25501],[99.4,25583],[99.4,25667],[99.4,25750],[99.4,25834],[99.4,25917],[99.4,26000],[99.4,26083],[99.4,26166],[99.4,26249],[99.4,26333],[99.4,26416],[99.4,26501],[99.4,26583],[99.4,26667],[99.4,26749],[99.4,26834],[99.4,26917],[99.4,27000],[99.4,27083],[99.4,27167],[99.4,27250],[99.4,27333],[99.4,27417],[99.4,27503],[99.4,27583],[99.4,27666],[99.4,27749],[99.4,27833],[99.4,27916],[99.4,27999],[99.4,28083],[99.4,28166],[99.4,28249],[99.4,28333],[99.4,28417],[99.4,28499],[99.4,28585],[99.4,28667],[99.4,28749],[99.4,28832],[99.4,28916],[99.4,29000],[99.4,29083],[99.4,29167],[99.4,29250],[99.4,29333],[99.4,29416],[99.4,29501],[99.4,29583],[99.4,29668],[99.4,29749],[99.4,29833],[99.4,29917],[99.4,29999],[99.4,30083],[99.4,30167],[99.4,30249],[99.4,30334],[99.4,30417],[99.4,30499],[99.4,30583],[99.4,30666],[99.4,30751],[99.4,30835],[99.4,30916],[99.4,31001],[99.4,31083],[99.4,31166],[99.4,31250],[99.4,31333],[99.4,31416],[99.4,31500],[99.4,31582],[99.4,31666],[99.4,31749],[99.4,31833]]",0,0,0,0,1,"Larry had recently lost his family, job and home, and was now living on his own in the park. He had most of his belongings, including some clothes, a blanket, and his mother’s special necklace. His family had been very important to him and he felt as though he did not have much going for him. One of his first days in the park he came across a family that did not have much food and looked very cold. He decided to give them some of his food and his blanket.","Larry had recently lost his family, job and home, and was now living on his own in the park. He had most of his belongings, including some clothes, a blanket, and his mother’s special necklace. His family had been very important to him and he felt as though he did not have much going for him. One of his first days in the park he came across a family that did not have much food and looked very cold. He decided to give them some of his food and his blanket.","Larry had recently lost his family, job and home, and was now living on his own in the park. He had most of his belongings, including some clothes, a blanket, and his mother’s special necklace. His family had been very important to him and he felt as though he did not have much going for him. One of his first days in the park he came across a family that did not have much food and looked very cold. He decided to give them some of his food and his blanket.","Larry had recently lost his family, job and home, and was now living on his own in the park. He had most of his belongings, including some clothes, a blanket, and his mother’s special necklace. His family had been very important to him and he felt as though he did not have much going for him. One of his first days in the park he came across a family that did not have much food and looked very cold. He decided to give them some of his food and his blanket.",,,,,,,,,,
,,,,,,5e1371f92b12bd9a96c2d902,2024-05-13_10h29.45.053,group3.1-3.2-social-tom,2023.2.2,Win32,60.0240096,65c5074098b851296ff0b7ed,664231d1d200c76851154db6,,,,,,,,,,,,,,,,,,,,,,,,,,,,,1544.811,1,audio/Narrative8Situation9.wav,1548.627,space,,,,,,1582.184,1585.327,99.25,2.134,"[{""rating"":99.25,""responseTime"":2.1340000000000146}]",space,2.602,,1582.178,All the time,100,1582.184,,,[],,,,,,,,,,,6,2,3,9,3.798,,,,,,,,,,,,,,,,1548.627,3,1582.176,"[[87.4,20000],[92.5,20083],[97.5,20169],[100,20250],[100,20333],[100,20417],[100,20500],[100,20584],[100,20665],[100,20750],[100,20833],[100,20915],[100,21000],[100,21083],[100,21167],[100,21250],[100,21333],[100,21415],[100,21500],[100,21583],[100,21665],[100,21751],[100,21834],[100,21918],[100,22000],[100,22082],[100,22165],[100,22250],[100,22334],[100,22415],[100,22501],[100,22583],[100,22667],[100,22751],[100,22833],[100,22915],[100,22999],[100,23082],[100,23165],[100,23250],[100,23333],[100,23418],[100,23499],[100,23583],[100,23665],[100,23750],[100,23833],[100,23915],[100,24000],[100,24082],[100,24167],[100,24249],[100,24333],[100,24415],[100,24500],[100,24583],[100,24665],[100,24749],[100,24832],[100,24915],[100,24999],[100,25083],[100,25165],[100,25250],[100,25334],[100,25415],[100,25500],[100,25583],[100,25665],[100,25749],[100,25833],[100,25914],[100,26000],[100,26083],[100,26167],[100,26249],[100,26332],[100,26415],[100,26499],[100,26583],[100,26664],[100,26750],[100,26832],[100,26915],[100,26999],[100,27083],[100,27165],[100,27251],[100,27332],[100,27415],[100,27499],[100,27583],[100,27665],[100,27750],[100,27832],[100,27915],[100,28000],[100,28082],[100,28167],[100,28250],[100,28335],[100,28418],[100,28500],[100,28583],[100,28665],[100,28750],[100,28832],[100,28915],[100,29000],[100,29082],[100,29165],[100,29250],[100,29334],[100,29418],[100,29499],[100,29582],[100,29665],[100,29749],[100,29832],[100,29915],[100,29999],[100,30083],[100,30165],[100,30249],[100,30333],[100,30415],[100,30499],[100,30582],[100,30665],[100,30750],[100,30832],[100,30915],[100,31000],[100,31082],[100,31165],[100,31249],[100,31333],[100,31415],[100,31500],[100,31583],[100,31665],[100,31750],[100,31833],[100,31917],[100,32000],[100,32082],[100,32164],[100,32250],[100,32332],[100,32415],[100,32499],[100,32583],[100,32668],[100,32750],[100,32832],[100,32915],[100,33000],[100,33082],[100,33164],[100,33250],[100,33332],[100,33415],[100,33500]]",0,1,1,1,1,"It was just another Sunday afternoon for Lucy, she was on her way to the farmer's market to pick up some produce. When she arrived at the old train depot that housed the market, she noticed two men fighting on the steps. Before she could call for help, one of the men crumpled to his knees. The other man dropped an object that appeared to be a knife and ran off. When Lucy approached the crime scene she realized that the man who had been murdered was the Mayor and that he had a gunshot wound.","One day at work, Margaret walked up to her partner, Al, to ask him to talk to the chief of staff at the local hospital where she worked as a nurse.","Luke always thought of himself as an honest man. That's why during his evening jog around the swamp, he pondered his recent affair with the receptionist at work. Luke looked up at the sky and asked God why he was so weak and unfaithful. He thought of the impact this would have on his family and told God of his conflicted feelings toward telling his wife Marta.","Linda and Amy had been best friends since kindergarten, they even found homes on the same street in the forest on the edge of town. Their biggest fight had been over who gets the bigger slice of cake, until Amy married Dan. Linda loathed Dan, she thought he was manipulative and had a violent temper. She only put up with him because Amy loved him. ",,,,,,,,,,
,,,,,,5e1371f92b12bd9a96c2d902,2024-05-13_10h29.45.053,group3.1-3.2-social-tom,2023.2.2,Win32,60.0240096,65c5074098b851296ff0b7ed,664231d1d200c76851154db6,,,,,,,,,,,,,,,,,,,,,,,,,,,,,1585.328,1,audio/Narrative8Situation9.wav,1589.343,,,,,,,1617.596,1668.909,99.625,50.37,"[{""rating"":99.62500000000001,""responseTime"":50.36999999999989}]",space,35.266,,1617.581,Half the time,50,1617.596,,,[],,,,,,,,,,,4,5,2,2,,,,,,,,,,,,,,,,,1589.343,3,1617.581,[],0,2,2,2,1,On the ground beside him was a pen that she had mistaken for a knife. Lucy looked for the gunman and saw a suspicious man in black with distinct pointy features darting into an alley across the street. Cops who were nearby chased the man who had fled and arrested him.,"While waiting outside the chief of staff's office, Al heard nondescript shouting and yelling, there was a loud clatter in the room and then an eerie silence. An unfamiliar employee ran hastily out of the office with a terrified look on their face.","Suddenly, Luke heard a woman call out his name and when he turned around he saw Carly, his receptionist, across the road with a gun in her hand. Carly ran to him and explained how she had followed him here to confess her love. She exclaimed if Luke didn't love her back that she would kill him and his family. Carly explained that the only way they could be together is to kill Marta.","This feeling of hate between Amy and Dan was mutual, Dan didn't like how much time his wife spent with her and thought Amy was creating distance between their marriage. That's why Dan decided to try and tarnish Linda's reputation with his wife, in hopes it would get rid of her. He came home one afternoon and exclaimed that Linda had tried to kiss him. Amy was taken aback and immediately called Linda to confront her about these accusations. When Linda arrived she denied having made a move on Dan, but discovered Dan had enlisted the help of his friend Will who said he witnessed it all happen.",,,,,,,,,,
,,,,,,5e1371f92b12bd9a96c2d902,2024-05-13_10h29.45.053,group3.1-3.2-social-tom,2023.2.2,Win32,60.0240096,65c5074098b851296ff0b7ed,664231d1d200c76851154db6,,,,,,,,,,,,,,,,,,,,,,,,,,,,,1668.911,1,audio/Narrative8Situation9.wav,1670.926,,,,,,,1682.785,1717.077,99.375,19.162,"[{""rating"":99.375,""responseTime"":19.162000000000035}]",space,33.759,,1682.776,All the time,100,1682.785,,,[],,,,,,,,,,,2,2,1,4,,,,,,,,,,,,,,,,,1670.927,3,1682.776,"[[999,1],[999,82],[999,166],[999,249],[999,333],[999,415],[999,498],[999,582],[999,666],[999,749],[999,832],[999,915],[999,999],[999,1082],[999,1167],[999,1249],[999,1332],[999,1416],[999,1498],[999,1582],[999,1666],[999,1750],[999,1832],[999,1916],[999,1999],[999,2082],[999,2166],[999,2251],[58,2332],[100,2834],[100,2916],[100,2999],[100,3082],[100,3168],[100,3249],[100,3332],[100,3415],[100,3498],[100,3582],[100,3667],[100,3748],[100,3832],[100,3915],[100,3999],[100,4082],[100,4165],[100,4249],[100,4332],[100,4416],[100,4499],[100,4584],[100,4666],[100,4749],[100,4831],[100,4915],[100,4998],[100,5083],[100,5165],[100,5248],[100,5332],[100,5415],[100,5499],[100,5583],[100,5665],[100,5749],[100,5832],[100,5915],[100,5999],[100,6082],[100,6167],[100,6248],[100,6332],[100,6415],[100,6499],[100,6582],[100,6665],[100,6749],[100,6833],[100,6915],[100,6999],[100,7082],[100,7165],[100,7249],[100,7332],[100,7415],[100,7499],[100,7582],[100,7665],[100,7748],[100,7833],[100,7915],[100,7999],[100,8082],[100,8166],[100,8249],[100,8333],[100,8415],[100,8498],[100,8582],[100,8665],[100,8749],[100,8833],[100,8918],[100,8998],[100,9083],[100,9166],[100,9249],[100,9332],[100,9415],[100,9499],[100,9582],[100,9665],[100,9749],[100,9832],[100,9916],[100,9998],[100,10082],[100,10165],[100,10249],[100,10332],[100,10416],[100,10498],[100,10582],[100,10665],[100,10748],[100,10833],[100,10915],[100,10998],[100,11082],[100,11165],[100,11248],[100,11332],[100,11415],[100,11500],[100,11584],[100,11666],[100,11749],[100,11832]]",0,3,3,3,1,"But Lucy knew the charged man was innocent, which meant the killer was free. Lucy vowed to find out who the real murderer was and to stop him at all costs.","Al explained to the chief of staff that Margaret wanted to be excused from her absences last week. The chief of staff, Susan, revealed that she wanted to fire Margaret and never see her again. Susan and Al had been having an affair and she wanted Margaret ""out of the picture"". Al was conflicted, but agreed it would be for the best.","Luke thought of his child and felt like this was his only option. He agreed to the plan and called his wife to meet him at the swamp to watch the sunset with him. When she arrived, Marta called out for her husband, but found Carly waiting for her. She immediately drew her gun and shot her in the chest, knocking her unconscious.","Since it was their word against her own, she decided to go home and admit defeat. She knew how much it would hurt Amy to know the truth.",,,,,,,,,,
