exp_question,consent.started,consent.stopped,consentResponse.keys,consentResponse.rt,consentResponse.duration,participantID,date,expName,psychopyVersion,OS,frameRate,STUDY_ID,SESSION_ID,opening1.started,opening1.stopped,keyEndingOpening1.keys,keyEndingOpening1.rt,keyEndingOpening1.duration,volumeAdjust.started,volumeAdjust.stopped,endingAdjust.keys,endingAdjust.rt,endingAdjust.duration,opening2.started,opening2.stopped,keyEndingOpening.keys,keyEndingOpening.rt,keyEndingOpening.duration,mouse.x,mouse.y,mouse.leftButton,mouse.midButton,mouse.rightButton,mouse.time,instructionLoop.thisRepN,instructionLoop.thisTrialN,instructionLoop.thisN,instructionLoop.thisIndex,instructionLoop.ran,readyForAudio.started,readyForAudio.stopped,fixation.started,run,audio_played,fixation.stopped,endPractice.keys,audioPre.started,audioPre.stopped,continuousResponses_audio,continuousSlider.response,continuousSlider.rt,intRating.started,intRating.stopped,intQuestionSlider.response,intQuestionSlider.rt,intQuestionSlider.history,confirmResponse.keys,confirmResponse.rt,confirmResponse.duration,catchQuestion.started,catch_label,catch_value,catchQuestion.stopped,catchQuestionSlider.response,catchQuestionSlider.rt,catchQuestionSlider.history,confirmResponse_2.keys,audioRunLoop.thisRepN,audioRunLoop.thisTrialN,audioRunLoop.thisN,audioRunLoop.thisIndex,audioRunLoop.ran,conditions1_1,conditions2_1,conditions1_2,conditions2_2,dur1_1,dur2_1,dur1_2,dur2_2,endPractice.rt,endPractice.duration,confirmResponse_2.rt,confirmResponse_2.duration,runIntervalBreak.started,runIntervalBreak.stopped,endingBreakKey.keys,endingBreakKey.rt,endingBreakKey.duration,connection.started,connection.stopped,connectionEnding.keys,connectionEnding.rt,connectionEnding.duration,readyForText.started,readyForText.stopped,textPre.started,run_dup,textPre.stopped,continuousResponses_text,textRunLoop.thisRepN,textRunLoop.thisTrialN,textRunLoop.thisN,textRunLoop.thisIndex,textRunLoop.ran,text1_1,text1_2,text2_1,text2_2,runBreakText.started,runBreakText.stopped,endingBreakKey_2.keys,endingBreakKey_2.rt,endingBreakKey_2.duration,ending.started,ending.stopped,endingEnding.keys,endingEnding.rt,endingEnding.duration
social,0.0008,3.4048,y,3.0806,,5e24fbd4e1f467771c234e5f,2024-05-13_10h48.54.819,group3.1-3.2-social-tom,2023.2.2,Win32,59.88023952,65c5074098b851296ff0b7ed,664234665e253b37067fb453,,,,,,,,,,,,,,,,,,,,,,,,,,,,,,,,,,,,,,,,,,,,,,,,,,,,,,,,,,,,,,,,,,,,,,,,,,,,,,,,,,,,,,,,,,,,,,,,,,,,,,,,,,
,,,,,,5e24fbd4e1f467771c234e5f,2024-05-13_10h48.54.819,group3.1-3.2-social-tom,2023.2.2,Win32,59.88023952,65c5074098b851296ff0b7ed,664234665e253b37067fb453,3.4054,20.49,space,17.0101,,,,,,,,,,,,,,,,,,,,,,,,,,,,,,,,,,,,,,,,,,,,,,,,,,,,,,,,,,,,,,,,,,,,,,,,,,,,,,,,,,,,,,,,,,,,,,,,,,,,,,
,,,,,,5e24fbd4e1f467771c234e5f,2024-05-13_10h48.54.819,group3.1-3.2-social-tom,2023.2.2,Win32,59.88023952,65c5074098b851296ff0b7ed,664234665e253b37067fb453,,,,,,20.4903,78.9596,space,58.1491,,,,,,,,,,,,,,,,,,,,,,,,,,,,,,,,,,,,,,,,,,,,,,,,,,,,,,,,,,,,,,,,,,,,,,,,,,,,,,,,,,,,,,,,,,,,,,,,,
,,,,,,5e24fbd4e1f467771c234e5f,2024-05-13_10h48.54.819,group3.1-3.2-social-tom,2023.2.2,Win32,59.88023952,65c5074098b851296ff0b7ed,664234665e253b37067fb453,,,,,,,,,,,78.9946,80.0986,space,1.0631,,[],[],[],[],[],[],0,0,0,0,1,,,,,,,,,,,,,,,,,,,,,,,,,,,,,,,,,,,,,,,,,,,,,,,,,,,,,,,,,,,,,,,,,,,,,,,,,,,,,,,,
,,,,,,5e24fbd4e1f467771c234e5f,2024-05-13_10h48.54.819,group3.1-3.2-social-tom,2023.2.2,Win32,59.88023952,65c5074098b851296ff0b7ed,664234665e253b37067fb453,,,,,,,,,,,80.1008,85.4312,space,5.0305,,[],[],[],[],[],[],1,0,1,0,1,,,,,,,,,,,,,,,,,,,,,,,,,,,,,,,,,,,,,,,,,,,,,,,,,,,,,,,,,,,,,,,,,,,,,,,,,,,,,,,,
,,,,,,5e24fbd4e1f467771c234e5f,2024-05-13_10h48.54.819,group3.1-3.2-social-tom,2023.2.2,Win32,59.88023952,65c5074098b851296ff0b7ed,664234665e253b37067fb453,,,,,,,,,,,85.453,86.541,space,0.9824,,[],[],[],[],[],[],2,0,2,0,1,,,,,,,,,,,,,,,,,,,,,,,,,,,,,,,,,,,,,,,,,,,,,,,,,,,,,,,,,,,,,,,,,,,,,,,,,,,,,,,,
,,,,,,5e24fbd4e1f467771c234e5f,2024-05-13_10h48.54.819,group3.1-3.2-social-tom,2023.2.2,Win32,59.88023952,65c5074098b851296ff0b7ed,664234665e253b37067fb453,,,,,,,,,,,86.5425,89.8813,space,3.2937,,[],[],[],[],[],[],3,0,3,0,1,,,,,,,,,,,,,,,,,,,,,,,,,,,,,,,,,,,,,,,,,,,,,,,,,,,,,,,,,,,,,,,,,,,,,,,,,,,,,,,,
,,,,,,5e24fbd4e1f467771c234e5f,2024-05-13_10h48.54.819,group3.1-3.2-social-tom,2023.2.2,Win32,59.88023952,65c5074098b851296ff0b7ed,664234665e253b37067fb453,,,,,,,,,,,89.9013,91.1818,space,1.2441,,[],[],[],[],[],[],4,0,4,0,1,,,,,,,,,,,,,,,,,,,,,,,,,,,,,,,,,,,,,,,,,,,,,,,,,,,,,,,,,,,,,,,,,,,,,,,,,,,,,,,,
,,,,,,5e24fbd4e1f467771c234e5f,2024-05-13_10h48.54.819,group3.1-3.2-social-tom,2023.2.2,Win32,59.88023952,65c5074098b851296ff0b7ed,664234665e253b37067fb453,,,,,,,,,,,,,,,,,,,,,,,,,,,91.1875,93.7641,93.8244,1,audio/Narrative13Situation2.wav,95.8311,,95.8316,125.5834,"[[999,3],[999,183],[999,265],[999,350],[999,431],[999,515],[999,598],[999,682],[999,765],[999,848],[999,932],[999,1015],[999,1099],[999,1183],[999,1270],[999,1350],[999,1433],[999,1515],[999,1598],[999,1681],[999,1765],[999,1848],[999,1932],[999,2015],[999,2098],[999,2181],[999,2265],[999,2348],[999,2431],[999,2515],[999,2598],[999,2681],[999,2765],[999,2848],[999,2932],[999,3015],[999,3098],[999,3182],[999,3265],[999,3348],[999,3432],[999,3515],[999,3598],[999,3682],[999,3765],[999,3848],[999,3931],[999,4015],[999,4098],[999,4185],[999,4265],[999,4348],[999,4431],[999,4515],[999,4598],[999,4681],[999,4765],[999,4848],[999,4931],[999,5015],[999,5098],[999,5181],[999,5265],[999,5348],[999,5431],[999,5514],[999,5598],[999,5681],[999,5765],[999,5848],[999,5932],[999,6015],[999,6098],[999,6181],[999,6265],[999,6348],[999,6431],[999,6515],[999,6598],[999,6681],[999,6765],[999,6848],[999,6931],[999,7015],[999,7098],[999,7181],[999,7265],[999,7348],[999,7431],[999,7515],[999,7598],[999,7681],[999,7765],[999,7848],[999,7932],[999,8015],[999,8098],[999,8181],[999,8265],[999,8348],[999,8431],[999,8515],[999,8600],[999,8681],[999,8765],[999,8848],[999,8931],[999,9015],[999,9098],[999,9181],[999,9265],[999,9348],[999,9431],[999,9515],[999,9598],[999,9681],[999,9765],[999,9848],[999,9931],[999,10015],[999,10098],[999,10182],[999,10267],[88.2,10385],[88.4,10450],[88.4,10533],[88.4,10617],[93.2,10703],[99.5,10785],[99.5,10867],[99.5,10950],[99.3,11033],[99.2,11117],[99.2,11199],[99.2,11283],[99.2,11367],[99.2,11449],[99.2,11533],[99.2,11617],[99.2,11699],[99.2,11783],[99.2,11867],[99.2,11950],[99.2,12033],[99.2,12117],[99.2,12199],[99.2,12283],[99.2,12367],[99.2,12449],[99.2,12531],[99.2,12617],[99.2,12700],[99.2,12783],[99.2,12867],[99.2,12950],[99.2,13033],[99.2,13117],[99.2,13199],[99.2,13283],[99.2,13367],[99.2,13449],[99.2,13533],[99.2,13615],[99.2,13700],[99.2,13783],[99.2,13867],[99.2,13949],[99.2,14033],[99.2,14117],[99.2,14199],[99.2,14283],[99.2,14367],[99.2,14449],[99.2,14533],[99.2,14617],[99.2,14699],[99.2,14783],[99.2,14866],[99.2,14949],[99.2,15033],[99.2,15117],[99.2,15199],[99.2,15283],[99.2,15367],[99.2,15449],[99.2,15533],[99.2,15616],[99.2,15699],[99.2,15782],[99.2,15867],[99.2,15949],[99.2,16033],[99.2,16117],[99.2,16199],[99.2,16283],[99.2,16367],[99.2,16449],[99.2,16533],[99.2,16616],[99.2,16699],[99.2,16783],[99.2,16867],[99.2,16949],[99.2,17033],[99.2,17117],[99.2,17199],[99.2,17283],[99.2,17366],[99.2,17449],[99.2,17533],[99.2,17617],[99.2,17699],[99.2,17783],[99.2,17866],[99.2,17950],[99.2,18033],[99.2,18117],[99.2,18199],[99.2,18283],[99.2,18367],[99.2,18449],[99.2,18533],[99.2,18616],[99.2,18700],[99.2,18783],[99.2,18866],[99.2,18949],[99.2,19033],[99.2,19117],[99.2,19199],[99.2,19283],[99.2,19367],[99.2,19449],[99.2,19533],[99.2,19617],[99.2,19699],[99.2,19783],[99.2,19866],[99.2,19949],[99.2,20033],[99.2,20116],[99.2,20202],[99.2,20283],[99.2,20366],[99.2,20449],[99.2,20533],[99.2,20615],[99.2,20700],[99.2,20783],[99.2,20867],[99.2,20949],[99.2,21033],[99.2,21116],[99.2,21199],[99.2,21283],[99.2,21366],[99.2,21449],[99.2,21532],[99.2,21616],[99.2,21699],[99.2,21783],[99.2,21866],[99.2,21949],[99.2,22033],[99.2,22116],[99.2,22199],[99.2,22283],[99.2,22366],[99.2,22449],[99.2,22533],[99.2,22616],[99.2,22699],[99.2,22783],[99.2,22866],[99.2,22949],[99.2,23033],[99.2,23116],[99.2,23199],[99.2,23283],[99.2,23366],[99.2,23449],[99.2,23533],[99.2,23616],[99.2,23698],[99.2,23782],[99.2,23866],[99.2,23949],[99.2,24033],[99.2,24117],[99.2,24199],[99.2,24283],[99.2,24366],[99.2,24449],[99.2,24533],[99.2,24616],[99.2,24699],[99.2,24783],[99.2,24866],[99.2,24949],[99.2,25033],[99.2,25116],[99.2,25200],[99.2,25283],[99.2,25366],[99.2,25449],[99.2,25533],[99.2,25616],[99.2,25699],[99.2,25783],[99.2,25866],[99.2,25949],[99.2,26033],[99.2,26116],[99.2,26199],[99.2,26282],[99.2,26366],[99.2,26449],[99.2,26533],[99.2,26616],[99.2,26699],[99.2,26783],[99.2,26866],[99.2,26949],[99.2,27032],[99.2,27116],[99.2,27199],[99.2,27283],[99.2,27366],[99.2,27449],[99.2,27533],[99.2,27616],[99.2,27700],[99.2,27782],[99.2,27866],[99.2,27949],[99.2,28033],[99.2,28116],[99.2,28199],[99.2,28282],[99.2,28366],[99.2,28448],[99.2,28533],[99.2,28616],[99.2,28699],[99.2,28783],[99.2,28866],[99.2,28949],[99.2,29034],[99.2,29116],[99.2,29199],[99.2,29283],[99.2,29366],[99.2,29449],[99.2,29533],[99.2,29616],[99.2,29699]]",1,0,125.584,132.8492,99.19472914,1.6344,"[{""rating"":99.19472913616399,""responseTime"":1.6344000000357255}]",space,6.7191,,132.8695,Not at all,0,132.8834,,,[],,0,0,0,0,1,audio/Narrative13Situation2.wav,audio/Narrative13Situation2.wav,audio/Narrative13Situation2.wav,audio/Narrative13Situation2.wav,2,2,2,2,,,,,,,,,,,,,,,,,,,,,,,,,,,,,,,,,,,,,,,
,,,,,,5e24fbd4e1f467771c234e5f,2024-05-13_10h48.54.819,group3.1-3.2-social-tom,2023.2.2,Win32,59.88023952,65c5074098b851296ff0b7ed,664234665e253b37067fb453,,,,,,,,,,,,,,,,,,,,,,,,,,,,,132.8842,1,audio/Narrative8Situation1.wav,136.0969,space,136.0969,152.0305,"[[999,23],[999,116],[999,199],[999,282],[999,365],[999,449],[999,532],[999,615],[999,700],[999,784],[999,866],[999,949],[999,1032],[999,1116],[999,1199],[999,1283],[999,1365],[999,1449],[999,1532],[999,1615],[999,1699],[999,1782],[999,1866],[999,1953],[999,2036],[999,2115],[999,2199],[999,2282],[999,2365],[999,2449],[999,2533],[999,2615],[999,2699],[999,2783],[999,2865],[999,2949],[999,3033],[999,3115],[999,3199],[999,3282],[999,3365],[999,3449],[999,3532],[999,3615],[999,3699],[999,3782],[999,3865],[999,3949],[999,4032],[999,4115],[999,4199],[999,4282],[999,4365],[999,4449],[999,4532],[999,4615],[999,4699],[999,4783],[999,4865],[999,4949],[999,5032],[999,5115],[999,5199],[999,5283],[999,5365],[999,5449],[999,5532],[999,5615],[999,5699],[999,5782],[999,5865],[999,5949],[999,6032],[999,6115],[999,6199],[999,6282],[999,6365],[999,6449],[999,6533],[999,6615],[999,6699],[999,6782],[999,6865],[999,6949],[999,7032],[999,7115],[999,7199],[999,7283],[999,7366],[999,7449],[999,7532],[999,7615],[999,7699],[999,7782],[999,7865],[999,7949],[999,8033],[999,8116],[999,8199],[999,8283],[999,8365],[999,8449],[999,8532],[999,8615],[999,8699],[999,8783],[999,8865],[999,8949],[999,9033],[999,9115],[999,9199],[999,9283],[999,9365],[999,9449],[999,9532],[999,9615],[999,9699],[999,9783],[999,9865],[999,9949],[999,10033],[999,10115],[999,10199],[999,10283],[999,10365],[999,10448],[999,10533],[999,10615],[999,10699],[999,10783],[999,10865],[999,10949],[999,11033],[999,11115],[999,11199],[999,11283],[999,11365],[999,11449],[999,11533],[999,11615],[999,11699],[999,11783],[999,11865],[999,11949],[999,12033],[999,12115],[999,12198],[999,12283],[999,12365],[999,12449],[999,12533],[999,12615],[999,12699],[999,12783],[999,12865],[999,12949],[999,13033],[999,13115],[999,13204],[999,13283],[999,13365],[999,13449],[999,13532],[999,13615],[999,13698],[999,13783],[999,13865],[999,13948],[999,14033],[999,14115],[999,14198],[999,14283],[999,14365],[999,14448],[999,14533],[999,14616],[999,14698],[999,14783],[999,14865],[999,14948],[999,15033],[999,15115],[999,15199],[999,15283],[999,15365],[999,15449],[999,15533],[999,15617],[999,15700],[13.3,15799],[13.3,15883]]",1,0,152.0309,155.6713,98.90190337,3.3696,"[{""rating"":98.90190336749633,""responseTime"":3.3695999999642936}]",space,3.1016,,155.6714,Definitely yes,100,162.1129,99.92679356,3.7475,"[{""rating"":99.9267935578331,""responseTime"":3.747500000000059}]",space,0,1,1,1,1,audio/Narrative7Situation1.wav,audio/Narrative8Situation1.wav,audio/Narrative5Situation1.wav,audio/Narrative6Situation1.wav,2,5,5,2,3.178,,5.8873,,,,,,,,,,,,,,,,,,,,,,,,,,,,,,,,,,,,
,,,,,,5e24fbd4e1f467771c234e5f,2024-05-13_10h48.54.819,group3.1-3.2-social-tom,2023.2.2,Win32,59.88023952,65c5074098b851296ff0b7ed,664234665e253b37067fb453,,,,,,,,,,,,,,,,,,,,,,,,,,,,,162.1351,1,audio/Narrative8Situation2.wav,165.1461,,165.1464,175.2806,"[[999,2],[999,82],[999,165],[999,249],[999,332],[999,416],[999,499],[999,582],[999,667],[999,750],[999,834],[999,915],[999,999],[999,1082],[999,1166],[999,1249],[999,1332],[999,1415],[999,1499],[999,1582],[999,1665],[999,1749],[999,1832],[999,1915],[999,1999],[999,2082],[999,2166],[999,2249],[999,2332],[999,2415],[999,2499],[999,2582],[999,2665],[999,2749],[999,2832],[999,2915],[999,2999],[999,3082],[999,3166],[999,3249],[999,3332],[999,3415],[999,3499],[999,3582],[999,3666],[999,3749],[999,3832],[999,3916],[999,3999],[999,4082],[999,4165],[999,4249],[999,4332],[999,4415],[999,4499],[999,4582],[999,4666],[999,4749],[999,4832],[999,4915],[999,4999],[999,5082],[999,5165],[999,5249],[999,5332],[999,5415],[999,5499],[999,5582],[999,5665],[999,5749],[999,5832],[999,5916],[999,5999],[999,6082],[999,6165],[999,6249],[999,6332],[999,6416],[999,6499],[999,6582],[999,6665],[999,6749],[999,6832],[999,6915],[999,6999],[999,7082],[999,7166],[999,7249],[999,7332],[999,7416],[999,7499],[999,7582],[999,7665],[999,7749],[999,7832],[999,7915],[999,7999],[999,8082],[999,8166],[999,8249],[999,8332],[999,8415],[999,8499],[999,8582],[999,8665],[999,8749],[999,8832],[999,8915],[999,8999],[999,9082],[999,9165],[999,9249],[999,9332],[999,9415],[999,9499],[999,9582],[999,9665],[999,9749],[999,9832],[66.4,9920],[50.3,10017],[50.3,10099]]",1,0,175.2816,177.8459,49.85358712,1.6293,"[{""rating"":49.85358711566617,""responseTime"":1.629300000011881}]",space,2.0067,,177.8465,Not at all,0,177.8618,,,[],,0,2,2,2,1,audio/Narrative7Situation2.wav,audio/Narrative8Situation2.wav,audio/Narrative5Situation2.wav,audio/Narrative6Situation2.wav,3,3,3,3,,,,,,,,,,,,,,,,,,,,,,,,,,,,,,,,,,,,,,,
,,,,,,5e24fbd4e1f467771c234e5f,2024-05-13_10h48.54.819,group3.1-3.2-social-tom,2023.2.2,Win32,59.88023952,65c5074098b851296ff0b7ed,664234665e253b37067fb453,,,,,,,,,,,,,,,,,,,,,,,,,,,,,177.8625,1,audio/Narrative8Situation3.wav,181.8793,,181.8794,204.2624,"[[999,22],[999,115],[999,199],[999,282],[999,365],[999,449],[999,532],[999,615],[999,704],[999,783],[999,867],[999,950],[999,1033],[999,1115],[999,1199],[999,1282],[999,1365],[999,1452],[999,1533],[999,1616],[999,1699],[999,1782],[999,1865],[999,1949],[999,2032],[999,2115],[999,2199],[999,2282],[999,2369],[999,2449],[999,2533],[999,2615],[999,2699],[999,2782],[999,2866],[999,2949],[999,3033],[999,3116],[999,3199],[999,3282],[999,3365],[999,3449],[999,3532],[999,3615],[999,3699],[999,3782],[999,3865],[999,3949],[999,4032],[999,4115],[999,4200],[999,4282],[999,4365],[999,4449],[999,4532],[999,4616],[999,4699],[999,4783],[999,4865],[999,4949],[999,5032],[999,5116],[999,5199],[999,5282],[999,5365],[999,5449],[999,5532],[999,5615],[999,5699],[999,5782],[999,5865],[999,5949],[999,6032],[999,6115],[999,6199],[999,6282],[999,6365],[999,6449],[999,6532],[999,6615],[999,6699],[999,6782],[999,6865],[999,6949],[999,7032],[999,7115],[999,7199],[999,7283],[999,7365],[999,7449],[999,7532],[999,7616],[999,7699],[999,7782],[999,7865],[999,7949],[999,8032],[999,8115],[999,8199],[999,8282],[999,8365],[999,8449],[999,8532],[999,8615],[999,8699],[999,8782],[999,8865],[999,8949],[999,9032],[999,9115],[999,9199],[999,9282],[999,9365],[999,9449],[999,9532],[999,9616],[999,9699],[999,9782],[999,9865],[999,9949],[999,10032],[999,10116],[999,10199],[999,10282],[999,10366],[999,10449],[999,10532],[999,10615],[999,10699],[999,10782],[999,10865],[999,10949],[999,11032],[999,11115],[999,11199],[999,11282],[999,11365],[999,11449],[999,11532],[999,11615],[999,11699],[999,11782],[999,11865],[999,11949],[999,12032],[999,12115],[999,12199],[999,12282],[999,12365],[999,12449],[999,12532],[999,12616],[999,12699],[999,12782],[999,12865],[999,12949],[999,13032],[999,13115],[999,13199],[999,13282],[999,13365],[999,13449],[999,13532],[999,13615],[999,13699],[999,13782],[999,13865],[999,13949],[999,14032],[999,14115],[999,14199],[999,14282],[999,14365],[999,14449],[999,14532],[999,14615],[999,14699],[999,14782],[999,14865],[999,14949],[999,15032],[999,15115],[999,15199],[999,15285],[88.9,15383],[88.9,15465],[88.9,15549],[88.9,15632],[88.9,15716],[95.4,15800],[100,15883],[100,15965],[100,16049],[100,16132],[100,16215],[100,16299],[100,16382],[100,16466],[100,16549],[100,16632],[100,16716],[100,16803],[100,16884],[100,16965],[100,17049],[100,17132],[100,17215],[100,17299],[100,17382],[100,17465],[100,17549],[100,17632],[100,17715],[100,17799],[100,17882],[100,17965],[100,18049],[100,18132],[100,18215],[100,18299],[100,18382],[100,18466],[100,18549],[100,18632],[100,18715],[100,18799],[100,18882],[100,18965],[100,19049],[100,19132],[100,19215],[100,19299],[100,19382],[100,19465],[100,19549],[100,19632],[100,19715],[100,19799],[100,19882],[100,19965],[100,20049],[100,20132],[100,20215],[100,20299],[100,20382],[100,20465],[100,20549],[100,20632],[100,20716],[100,20799],[100,20882],[100,20965],[100,21049],[100,21132],[100,21215],[100,21299],[100,21382],[100,21465],[100,21549],[100,21632],[100,21715],[100,21799],[100,21883],[100,21966],[100,22048],[100,22132],[100,22215],[100,22316],[100,22382]]",1,0,204.2629,206.9624,99.92679356,1.5414,"[{""rating"":99.9267935578331,""responseTime"":1.5413999999761927}]",space,2.1559,,206.9628,Not at all,0,206.9695,,,[],,0,3,3,3,1,audio/Narrative7Situation3.wav,audio/Narrative8Situation3.wav,audio/Narrative5Situation3.wav,audio/Narrative6Situation3.wav,8,4,3,5,,,,,,,,,,,,,,,,,,,,,,,,,,,,,,,,,,,,,,,
,,,,,,5e24fbd4e1f467771c234e5f,2024-05-13_10h48.54.819,group3.1-3.2-social-tom,2023.2.2,Win32,59.88023952,65c5074098b851296ff0b7ed,664234665e253b37067fb453,,,,,,,,,,,,,,,,,,,,,,,,,,,,,206.9703,1,audio/Narrative8Situation4.wav,209.9785,,209.9788,224.1466,"[[999,21],[999,102],[999,189],[999,273],[999,355],[999,439],[999,519],[999,600],[999,689],[999,774],[999,855],[999,940],[999,1016],[999,1105],[999,1190],[999,1273],[999,1355],[999,1440],[999,1518],[999,1605],[999,1689],[999,1772],[999,1856],[999,1939],[999,2023],[999,2106],[999,2189],[999,2272],[999,2356],[999,2444],[999,2523],[999,2605],[999,2690],[999,2774],[999,2855],[999,2941],[999,3022],[999,3106],[999,3186],[999,3273],[999,3355],[999,3439],[999,3521],[999,3606],[999,3689],[999,3773],[999,3856],[999,3933],[999,4022],[999,4107],[999,4189],[999,4273],[999,4350],[999,4439],[999,4519],[999,4599],[999,4689],[999,4766],[999,4849],[999,4939],[999,5022],[999,5105],[999,5189],[999,5274],[999,5355],[999,5439],[999,5522],[999,5605],[999,5689],[999,5772],[999,5855],[999,5938],[999,6023],[999,6100],[999,6189],[999,6273],[999,6356],[999,6438],[999,6522],[999,6606],[999,6689],[999,6766],[999,6849],[999,6939],[999,7024],[999,7105],[999,7188],[999,7273],[999,7350],[999,7439],[999,7522],[999,7604],[999,7690],[999,7772],[999,7856],[999,7940],[999,8023],[999,8102],[999,8190],[999,8273],[999,8355],[999,8438],[999,8523],[999,8599],[999,8688],[999,8773],[999,8856],[999,8938],[999,9022],[999,9099],[999,9188],[999,9273],[999,9355],[999,9439],[999,9518],[999,9605],[999,9688],[999,9773],[999,9855],[999,9939],[999,10023],[999,10105],[999,10183],[999,10273],[999,10356],[999,10439],[999,10523],[999,10599],[999,10688],[999,10774],[999,10855],[999,10938],[999,11019],[999,11105],[999,11190],[999,11274],[999,11355],[999,11437],[999,11524],[999,11605],[999,11690],[999,11772],[999,11856],[999,11939],[999,12023],[999,12106],[999,12190],[999,12268],[999,12356],[999,12438],[999,12522],[999,12606],[999,12689],[999,12773],[999,12849],[999,12938],[999,13022],[999,13105],[999,13188],[999,13272],[999,13354],[999,13438],[999,13522],[999,13605],[999,13689],[999,13775],[87.9,13857]]",1,0,224.1468,227.5134,98.75549048,1.6236,"[{""rating"":98.75549048316252,""responseTime"":1.623599999964199}]",space,2.8375,,227.5136,Definitely yes,100,227.5239,,,[],,0,4,4,4,1,audio/Narrative7Situation4.wav,audio/Narrative8Situation4.wav,audio/Narrative5Situation4.wav,audio/Narrative6Situation4.wav,3,3,1,2,,,,,,,,,,,,,,,,,,,,,,,,,,,,,,,,,,,,,,,
,,,,,,5e24fbd4e1f467771c234e5f,2024-05-13_10h48.54.819,group3.1-3.2-social-tom,2023.2.2,Win32,59.88023952,65c5074098b851296ff0b7ed,664234665e253b37067fb453,,,,,,,,,,,,,,,,,,,,,,,,,,,,,227.5245,1,audio/Narrative8Situation5.wav,229.5297,,229.5298,237.7833,"[[999,1],[999,83],[999,166],[999,249],[999,333],[999,416],[999,499],[999,584],[999,667],[999,753],[999,834],[999,916],[999,1000],[77.5,1084],[77.5,1166],[77.5,1249],[77.5,1333],[77.5,1416],[77.5,1499],[77.5,1583],[77.5,1666],[77.5,1749],[77.5,1833],[77.5,1916],[77.5,1999],[77.5,2083],[77.5,2166],[77.5,2249],[77.5,2333],[77.5,2416],[77.5,2499],[77.5,2583],[77.5,2666],[77.5,2749],[77.5,2833],[77.5,2916],[77.5,2999],[77.5,3083],[77.5,3166],[77.5,3249],[77.5,3333],[77.5,3416],[77.5,3499],[77.5,3583],[77.5,3666]]",1,0,237.7835,239.9782,99.92679356,1.317,"[{""rating"":99.9267935578331,""responseTime"":1.3170000000000073}]",space,1.6521,,239.9784,Not at all,0,239.9895,,,[],,0,5,5,5,1,audio/Narrative7Situation5.wav,audio/Narrative8Situation5.wav,audio/Narrative5Situation5.wav,audio/Narrative6Situation5.wav,5,2,5,2,,,,,,,,,,,,,,,,,,,,,,,,,,,,,,,,,,,,,,,
,,,,,,5e24fbd4e1f467771c234e5f,2024-05-13_10h48.54.819,group3.1-3.2-social-tom,2023.2.2,Win32,59.88023952,65c5074098b851296ff0b7ed,664234665e253b37067fb453,,,,,,,,,,,,,,,,,,,,,,,,,,,,,239.9903,1,audio/Narrative8Situation6.wav,241.9946,,241.9948,248.4677,"[[999,1],[999,89],[999,172],[999,255],[999,340],[999,422],[999,507],[999,589],[999,672],[999,757],[999,839],[999,918],[999,999],[999,1089],[999,1173],[999,1256],[999,1340],[999,1424],[999,1500],[999,1591],[999,1672],[999,1756],[999,1833],[999,1922],[999,2006],[999,2083],[999,2172],[999,2258],[999,2333],[999,2422],[999,2507],[999,2583],[999,2673],[999,2754],[999,2839],[999,2916],[999,3006],[999,3090],[999,3174],[999,3249],[999,3340],[999,3423],[999,3506],[999,3589],[999,3672],[999,3756],[999,3840],[999,3916],[999,4005],[999,4085],[999,4166],[999,4258],[999,4339],[999,4422],[999,4506],[999,4590],[999,4673],[999,4757],[999,4833],[999,4916],[999,4999],[999,5089],[999,5169],[999,5254],[999,5339],[999,5423],[999,5506],[999,5589],[999,5666],[999,5755],[999,5840],[999,5916],[999,6006],[999,6086],[999,6166],[999,6256],[999,6340],[999,6419]]",1,0,248.4681,252.8781,98.75549048,3.5481,"[{""rating"":98.75549048316252,""responseTime"":3.548099999964279}]",space,3.8701,,252.8782,Definitely yes,100,252.8891,,,[],,0,6,6,6,1,audio/Narrative7Situation6.wav,audio/Narrative8Situation6.wav,audio/Narrative5Situation6.wav,audio/Narrative6Situation6.wav,3,2,3,2,,,,,,,,,,,,,,,,,,,,,,,,,,,,,,,,,,,,,,,
,,,,,,5e24fbd4e1f467771c234e5f,2024-05-13_10h48.54.819,group3.1-3.2-social-tom,2023.2.2,Win32,59.88023952,65c5074098b851296ff0b7ed,664234665e253b37067fb453,,,,,,,,,,,,,,,,,,,,,,,,,,,,,252.8897,1,audio/Narrative8Situation7.wav,255.8945,,255.8946,267.9796,"[[999,2],[999,89],[999,173],[999,256],[999,340],[999,416],[999,506],[999,589],[999,671],[999,754],[999,840],[999,922],[999,1006],[999,1089],[999,1172],[999,1249],[999,1339],[999,1422],[999,1507],[999,1589],[999,1676],[999,1751],[999,1834],[999,1918],[999,2000],[999,2084],[999,2167],[999,2251],[999,2334],[999,2418],[999,2500],[999,2584],[999,2667],[999,2751],[999,2834],[999,2918],[999,3001],[999,3084],[999,3167],[999,3250],[999,3334],[999,3418],[999,3500],[999,3584],[999,3668],[999,3750],[999,3834],[999,3918],[999,4001],[999,4084],[999,4168],[999,4250],[999,4334],[999,4418],[999,4500],[999,4584],[999,4667],[999,4752],[999,4834],[999,4918],[999,5000],[999,5084],[999,5167],[999,5250],[999,5334],[999,5418],[999,5501],[999,5584],[999,5668],[999,5750],[999,5834],[999,5917],[999,6000],[999,6084],[999,6168],[999,6250],[999,6334],[999,6416],[999,6500],[999,6584],[999,6668],[999,6750],[999,6834],[999,6917],[999,7001],[999,7084],[999,7167],[999,7250],[999,7334],[999,7417],[999,7500],[999,7584],[999,7667],[999,7750],[999,7834],[999,7917],[999,8000],[999,8084],[999,8167],[999,8252],[999,8334],[999,8417],[999,8500],[999,8584],[999,8667],[999,8750],[999,8834],[999,8917],[999,9000],[999,9084],[999,9167],[999,9250],[999,9334],[999,9417],[999,9500],[999,9584],[999,9667],[999,9750],[999,9834],[999,9917],[999,10000],[999,10084],[999,10167],[999,10250],[999,10334],[999,10417],[999,10500],[999,10584],[999,10667],[999,10750],[999,10834],[999,10917],[999,11000],[999,11084],[999,11167],[999,11250],[999,11334],[999,11417],[999,11501],[999,11586],[999,11670],[97.7,11766],[97.7,11849],[97.7,11932],[97.7,12018]]",1,0,267.9801,271.461,49.70717423,2.7888,"[{""rating"":49.70717423133236,""responseTime"":2.788800000011861}]",space,2.9321,,271.4613,Not at all,0,271.4724,,,[],,0,7,7,7,1,audio/Narrative7Situation7.wav,audio/Narrative8Situation7.wav,audio/Narrative5Situation7.wav,audio/Narrative6Situation7.wav,5,3,4,5,,,,,,,,,,,,,,,,,,,,,,,,,,,,,,,,,,,,,,,
,,,,,,5e24fbd4e1f467771c234e5f,2024-05-13_10h48.54.819,group3.1-3.2-social-tom,2023.2.2,Win32,59.88023952,65c5074098b851296ff0b7ed,664234665e253b37067fb453,,,,,,,,,,,,,,,,,,,,,,,,,,,,,271.4733,1,audio/Narrative8Situation8.wav,274.4773,,274.4774,287.3289,"[[999,21],[999,106],[999,189],[999,272],[999,358],[999,439],[999,522],[999,614],[999,689],[999,773],[999,856],[999,940],[999,1022],[999,1110],[999,1190],[999,1272],[999,1356],[999,1433],[999,1522],[999,1607],[999,1688],[999,1772],[999,1857],[999,1933],[999,2023],[999,2108],[999,2189],[999,2272],[999,2350],[999,2439],[999,2523],[999,2606],[999,2689],[999,2773],[999,2855],[999,2939],[999,3023],[999,3105],[999,3183],[999,3273],[999,3356],[999,3440],[999,3522],[999,3607],[999,3689],[999,3772],[999,3857],[999,3936],[999,4022],[999,4107],[999,4183],[999,4272],[999,4353],[999,4439],[999,4524],[999,4599],[999,4689],[999,4766],[999,4849],[999,4939],[999,5023],[999,5099],[999,5189],[999,5273],[999,5356],[999,5439],[999,5523],[999,5606],[999,5690],[999,5772],[999,5856],[999,5933],[999,6016],[999,6106],[999,6183],[999,6272],[999,6357],[999,6439],[999,6522],[999,6608],[999,6688],[999,6772],[999,6857],[999,6939],[999,7022],[999,7106],[999,7189],[999,7272],[999,7356],[999,7439],[999,7523],[999,7600],[999,7689],[999,7766],[999,7856],[999,7936],[999,8016],[999,8106],[999,8183],[999,8272],[999,8356],[999,8440],[999,8522],[999,8606],[999,8689],[999,8772],[999,8849],[999,8939],[999,9022],[999,9108],[999,9188],[999,9272],[999,9355],[999,9439],[999,9522],[999,9607],[999,9689],[999,9773],[999,9856],[999,9939],[999,10024],[999,10099],[999,10189],[999,10278],[999,10356],[999,10439],[999,10516],[999,10606],[999,10689],[999,10772],[999,10856],[999,10940],[999,11017],[999,11106],[999,11190],[999,11272],[999,11357],[999,11439],[999,11522],[999,11607],[999,11683],[999,11772],[999,11851],[999,11939],[999,12023],[999,12106],[999,12189],[999,12273],[999,12352],[999,12443],[48.8,12526],[48.8,12618],[48.8,12701],[48.8,12784]]",1,0,287.3293,292.0786,99.78038067,3.4924,"[{""rating"":99.78038067349927,""responseTime"":3.492399999976101}]",space,4.2024,,292.0787,Definitely yes,100,292.0892,,,[],,0,8,8,8,1,audio/Narrative7Situation8.wav,audio/Narrative8Situation8.wav,audio/Narrative5Situation8.wav,audio/Narrative6Situation8.wav,2,3,3,5,,,,,,,,,,,,,,,,,,,,,,,,,,,,,,,,,,,,,,,
,,,,,,5e24fbd4e1f467771c234e5f,2024-05-13_10h48.54.819,group3.1-3.2-social-tom,2023.2.2,Win32,59.88023952,65c5074098b851296ff0b7ed,664234665e253b37067fb453,,,,,,,,,,,,,,,,,,,,,,,,,,,,,292.0899,1,audio/Narrative8Situation9.wav,295.0958,,295.0958,306.4272,"[[999,22],[999,99],[999,182],[999,265],[999,349],[999,432],[999,516],[999,599],[999,682],[999,769],[999,850],[999,932],[999,1015],[999,1099],[999,1182],[999,1265],[999,1349],[999,1432],[999,1515],[999,1599],[999,1682],[999,1765],[999,1849],[999,1932],[999,2015],[999,2099],[999,2182],[999,2266],[999,2349],[999,2432],[999,2515],[999,2599],[999,2682],[999,2766],[999,2849],[999,2932],[999,3015],[999,3099],[999,3182],[999,3265],[999,3349],[999,3432],[999,3515],[999,3599],[999,3682],[999,3765],[999,3849],[999,3932],[999,4016],[999,4099],[999,4182],[999,4265],[999,4349],[999,4432],[999,4515],[999,4599],[999,4682],[999,4765],[999,4849],[999,4932],[999,5015],[999,5099],[999,5182],[999,5265],[999,5349],[999,5432],[999,5516],[999,5599],[999,5682],[999,5765],[999,5849],[999,5932],[999,6015],[999,6099],[999,6182],[999,6266],[999,6349],[999,6432],[999,6515],[999,6599],[999,6682],[999,6765],[999,6849],[999,6932],[999,7015],[999,7099],[999,7182],[999,7265],[999,7349],[999,7431],[999,7515],[999,7599],[999,7682],[999,7765],[999,7849],[999,7932],[999,8016],[999,8099],[999,8182],[999,8265],[999,8349],[999,8432],[999,8515],[999,8599],[999,8682],[999,8765],[999,8849],[999,8932],[999,9015],[999,9099],[999,9182],[999,9265],[999,9349],[999,9432],[999,9516],[999,9599],[999,9686],[999,9769],[91.3,9864],[91.3,9947],[91.3,10031],[91.3,10114],[98.5,10200],[100,10281],[100,10364],[100,10447],[100,10531],[100,10614],[100,10697],[100,10780],[100,10864],[100,10947],[100,11030],[100,11115],[100,11197],[100,11280]]",1,0,306.4275,308.6937,98.90190337,1.596,"[{""rating"":98.90190336749633,""responseTime"":1.5960000000000036}]",space,1.7205,,308.694,Not at all,0,308.7056,,,[],,0,9,9,9,1,audio/Narrative7Situation9.wav,audio/Narrative8Situation9.wav,audio/Narrative5Situation9.wav,audio/Narrative6Situation9.wav,2,3,3,4,,,,,,,,,,,,,,,,,,,,,,,,,,,,,,,,,,,,,,,
,,,,,,5e24fbd4e1f467771c234e5f,2024-05-13_10h48.54.819,group3.1-3.2-social-tom,2023.2.2,Win32,59.88023952,65c5074098b851296ff0b7ed,664234665e253b37067fb453,,,,,,,,,,,,,,,,,,,,,,,,,,,,,308.7071,1,audio/Narrative7Situation1.wav,310.7117,,310.7118,366.6109,"[[999,1],[999,83],[999,166],[999,249],[999,333],[999,416],[999,499],[999,583],[999,666],[999,753],[999,835],[999,917],[999,999],[999,1083],[999,1166],[999,1249],[999,1333],[999,1416],[999,1499],[999,1583],[999,1666],[999,1749],[999,1833],[999,1916],[999,1999],[999,2083],[999,2166],[999,2249],[999,2333],[999,2416],[999,2499],[999,2583],[999,2666],[999,2749],[999,2833],[999,2916],[999,2999],[999,3083],[999,3166],[999,3249],[999,3333],[999,3416],[999,3499],[999,3583],[999,3666],[999,3749],[999,3833],[999,3917],[999,3999],[999,4083],[999,4166],[999,4249],[999,4333],[999,4416],[999,4499],[999,4583],[999,4666],[999,4749],[999,4833],[999,4916],[999,4999],[999,5083],[999,5166],[999,5249],[999,5333],[999,5416],[999,5501],[999,5583],[999,5666],[999,5749],[999,5833],[999,5916],[999,5999],[999,6083],[999,6166],[999,6249],[999,6333],[999,6416],[999,6499],[999,6583],[999,6666],[999,6749],[999,6833],[999,6916],[999,6999],[999,7083],[999,7166],[999,7249],[999,7333],[999,7416],[999,7499],[999,7583],[999,7666],[999,7749],[999,7833],[999,7916],[999,7999],[999,8083],[999,8166],[999,8249],[999,8333],[999,8416],[999,8499],[999,8583],[999,8666],[999,8749],[999,8833],[999,8916],[999,8999],[999,9083],[999,9166],[999,9249],[999,9333],[999,9416],[999,9499],[999,9583],[999,9666],[999,9749],[999,9833],[999,9916],[999,9999],[999,10083],[999,10168],[999,10249],[999,10333],[999,10416],[999,10499],[999,10583],[999,10666],[999,10749],[999,10833],[999,10916],[999,10999],[999,11081],[999,11166],[999,11249],[999,11333],[999,11416],[999,11499],[999,11583],[999,11666],[999,11749],[999,11833],[999,11916],[999,11999],[999,12083],[999,12166],[999,12249],[999,12333],[999,12416],[999,12499],[999,12583],[999,12666],[999,12749],[999,12833],[999,12916],[999,12999],[999,13083],[999,13165],[999,13249],[999,13333],[999,13416],[999,13499],[999,13583],[999,13666],[999,13749],[999,13833],[999,13916],[999,13999],[999,14083],[999,14166],[999,14249],[999,14333],[999,14416],[999,14499],[999,14583],[999,14666],[999,14749],[999,14833],[999,14916],[999,14999],[999,15083],[999,15166],[999,15249],[999,15333],[999,15416],[999,15500],[999,15583],[999,15666],[999,15749],[999,15833],[999,15916],[999,15999],[999,16083],[999,16166],[999,16249],[999,16333],[999,16416],[999,16499],[999,16583],[999,16666],[999,16749],[999,16833],[999,16916],[999,16999],[999,17083],[999,17166],[999,17249],[999,17333],[999,17416],[999,17499],[999,17583],[999,17666],[999,17749],[999,17833],[999,17915],[999,17999],[999,18083],[999,18166],[999,18249],[999,18333],[999,18416],[999,18499],[999,18582],[999,18665],[999,18749],[999,18833],[999,18915],[999,18999],[999,19082],[999,19166],[999,19249],[999,19333],[999,19416],[999,19499],[999,19583],[999,19665],[999,19749],[999,19833],[999,19916],[999,19999],[999,20082],[999,20166],[999,20249],[999,20333],[999,20416],[999,20499],[999,20583],[999,20666],[999,20749],[999,20833],[999,20918],[999,20999],[999,21083],[999,21166],[999,21249],[999,21333],[999,21416],[999,21499],[999,21583],[999,21665],[999,21749],[999,21832],[999,21916],[999,21999],[999,22083],[999,22165],[999,22249],[999,22333],[999,22416],[999,22499],[999,22583],[999,22664],[999,22749],[999,22832],[999,22916],[999,22999],[999,23083],[999,23166],[999,23249],[999,23332],[999,23416],[999,23499],[999,23583],[999,23666],[999,23749],[999,23832],[999,23916],[999,23999],[999,24083],[999,24164],[999,24249],[999,24332],[999,24415],[999,24499],[999,24583],[999,24665],[999,24749],[999,24832],[999,24916],[999,24999],[999,25082],[999,25166],[999,25249],[999,25332],[999,25415],[999,25499],[999,25582],[999,25665],[999,25749],[999,25832],[999,25915],[999,25999],[999,26082],[999,26165],[999,26249],[999,26332],[999,26416],[999,26499],[999,26582],[999,26665],[999,26749],[999,26832],[999,26915],[999,26999],[999,27082],[999,27165],[999,27249],[999,27332],[999,27416],[999,27499],[999,27582],[999,27666],[999,27749],[999,27832],[999,27917],[999,27999],[999,28085],[999,28165],[999,28249],[999,28332],[999,28415],[999,28499],[999,28582],[999,28666],[999,28749],[999,28832],[999,28916],[999,28999],[999,29082],[999,29165],[999,29249],[999,29332],[999,29415],[999,29499],[999,29582],[999,29668],[999,29749],[999,29832],[999,29916],[999,30000],[999,30084],[999,30166],[999,30249],[999,30333],[999,30416],[50,30522],[50,30603],[50,30687],[50,30771],[50,30854],[50,30939],[50,31021],[50,31104],[50,31188],[50,31271],[50,31355],[50,31438],[50,31520],[50,31604],[50,31688],[50,31769],[50,31851],[50,31937],[50,32020],[50,32104],[50,32186],[50,32272],[50,32348],[50,32436],[50,32521],[50,32603],[50,32687],[50,32764],[50,32854],[50,32937],[50,33021],[50,33104],[50,33181],[50,33269],[50,33354],[50,33437],[50,33520],[50,33605],[50,33687],[50,33770],[50,33855],[50,33937],[50,34020],[50,34105],[50,34186],[50,34270],[50,34355],[50,34437],[50,34520],[50,34603],[50,34687],[50,34771],[50,34853],[50,34938],[50,35020],[50,35100],[50,35188],[50,35270],[50,35355],[50,35437],[50,35524],[50,35604],[50,35681],[50,35770],[50,35854],[50,35937],[50,36021],[50,36104],[50,36181],[50,36271],[50,36355],[50,36436],[50,36520],[50,36605],[50,36687],[50,36770],[50,36855],[50,36931],[50,37020],[50,37105],[50,37186],[50,37271],[50,37354],[50,37437],[50,37521],[50,37604],[50,37687],[50,37764],[50,37854],[50,37937],[50,38021],[50,38104],[50,38187],[50,38270],[50,38354],[50,38438],[50,38520],[50,38604],[50,38687],[50,38770],[50,38854],[50,38936],[50,39020],[50,39103],[50,39187],[50,39270],[50,39355],[50,39437],[50,39520],[50,39605],[50,39687],[50,39770],[50,39847],[50,39937],[50,40022],[50,40103],[50,40187],[50,40271],[50,40353],[50,40437],[50,40521],[50,40597],[50,40687],[50,40771],[50,40854],[50,40938],[50,41020],[50,41104],[50,41187],[50,41271],[50,41354],[50,41438],[50,41521],[50,41604],[50,41687],[50,41770],[50,41853],[50,41937],[50,42020],[50,42105],[50,42186],[50,42270],[50,42354],[50,42437],[50,42514],[50,42604],[50,42687],[50,42764],[50,42854],[50,42937],[50,43019],[50,43104],[50,43180],[50,43271],[50,43354],[50,43436],[50,43520],[50,43604],[50,43688],[50,43770],[50,43855],[50,43936],[50,44020],[50,44105],[50,44181],[50,44271],[50,44355],[50,44437],[50,44521],[50,44604],[50,44687],[50,44765],[50,44854],[50,44937],[50,45021],[50,45104],[50,45187],[50,45270],[50,45347],[50,45437],[50,45520],[50,45604],[50,45687],[50,45770],[50,45854],[50,45937],[50,46021],[50,46104],[50,46187],[50,46271],[50,46352],[50,46437],[50,46521],[50,46604],[50,46684],[50,46770],[50,46855],[50,46938],[50,47020],[50,47104],[50,47187],[50,47270],[50,47347],[50,47436],[50,47520],[50,47605],[50,47683],[50,47770],[50,47854],[50,47937],[50,48020],[50,48103],[50,48189],[50,48271],[50,48352],[50,48437],[50,48521],[50,48598],[50,48687],[50,48770],[50,48854],[50,48930],[50,49020],[50,49104],[50,49188],[50,49269],[50,49354],[50,49430],[50,49520],[50,49605],[50,49688],[50,49770],[50,49847],[50,49930],[50,50020],[50,50104],[50,50187],[50,50270],[50,50352],[50,50437],[50,50521],[50,50604],[50,50687],[50,50770],[50,50854],[50,50937],[50,51020],[50,51104],[50,51187],[50,51270],[50,51354],[50,51437],[50,51520],[50,51604],[50,51687],[50,51770],[50,51850],[50,51930],[50,52020],[50,52104],[50,52187],[50,52270],[50,52353],[50,52436],[50,52521],[50,52604],[50,52687],[50,52771],[50,52854],[50,52937],[50,53021],[50,53102],[50,53187],[50,53271],[50,53354],[50,53436],[50,53520],[50,53604],[50,53686],[50,53769],[50,53854],[50,53936],[50,54019],[50,54102],[50,54187],[50,54274],[50,54354],[50,54437],[50,54521],[50,54604],[50,54687],[50,54770],[50,54854],[50,54937],[50,55020],[50,55104],[50,55186],[50,55270],[50,55354],[50,55436],[50,55520],[50,55604],[74.9,55711],[87,55786],[87.2,55865]]",1,0,366.6115,369.0781,98.6090776,1.3912,"[{""rating"":98.6090775988287,""responseTime"":1.391199999988089}]",space,1.9369,,369.0782,Partially,50,369.0879,,,[],,0,10,10,10,1,audio/Narrative8Situation1.wav,audio/Narrative7Situation1.wav,audio/Narrative6Situation1.wav,audio/Narrative5Situation1.wav,5,2,2,5,,,,,,,,,,,,,,,,,,,,,,,,,,,,,,,,,,,,,,,
,,,,,,5e24fbd4e1f467771c234e5f,2024-05-13_10h48.54.819,group3.1-3.2-social-tom,2023.2.2,Win32,59.88023952,65c5074098b851296ff0b7ed,664234665e253b37067fb453,,,,,,,,,,,,,,,,,,,,,,,,,,,,,369.0887,1,audio/Narrative7Situation2.wav,372.0924,,372.0925,379.5675,"[[999,1],[999,85],[999,166],[999,249],[999,339],[999,418],[999,506],[999,584],[999,673],[999,756],[999,841],[999,924],[57.8,1009],[57.8,1090],[57.8,1172],[57.8,1257],[57.8,1339],[57.8,1422],[57.8,1508]]",1,0,379.5677,382.8437,48.38945827,2.6678,"[{""rating"":48.38945827232797,""responseTime"":2.66780000001188}]",space,2.7325,,382.8438,Definitely yes,100,382.8536,,,[],,0,11,11,11,1,audio/Narrative8Situation2.wav,audio/Narrative7Situation2.wav,audio/Narrative6Situation2.wav,audio/Narrative5Situation2.wav,3,3,3,3,,,,,,,,,,,,,,,,,,,,,,,,,,,,,,,,,,,,,,,
,,,,,,5e24fbd4e1f467771c234e5f,2024-05-13_10h48.54.819,group3.1-3.2-social-tom,2023.2.2,Win32,59.88023952,65c5074098b851296ff0b7ed,664234665e253b37067fb453,,,,,,,,,,,,,,,,,,,,,,,,,,,,,382.8542,1,audio/Narrative7Situation3.wav,390.8603,,390.8604,400.1257,"[[999,22],[999,114],[999,197],[999,281],[999,364],[999,448],[999,531],[999,614],[999,699],[999,782],[999,865],[999,948],[999,1033],[61.4,1116],[63,1198],[63,1281],[63,1364],[63,1448],[63,1531],[63,1614],[63,1698],[63,1781],[63.2,1866]]",1,0,400.1259,403.5419,49.56076135,2.6458,"[{""rating"":49.56076134699854,""responseTime"":2.6458000000119455}]",space,2.8724,,403.542,Not at all,0,403.5533,,,[],,0,12,12,12,1,audio/Narrative8Situation3.wav,audio/Narrative7Situation3.wav,audio/Narrative6Situation3.wav,audio/Narrative5Situation3.wav,4,8,5,3,,,,,,,,,,,,,,,,,,,,,,,,,,,,,,,,,,,,,,,
,,,,,,5e24fbd4e1f467771c234e5f,2024-05-13_10h48.54.819,group3.1-3.2-social-tom,2023.2.2,Win32,59.88023952,65c5074098b851296ff0b7ed,664234665e253b37067fb453,,,,,,,,,,,,,,,,,,,,,,,,,,,,,403.554,1,audio/Narrative7Situation4.wav,406.5584,,406.5586,418.282,"[[999,1],[999,89],[999,173],[999,257],[999,339],[999,421],[999,506],[999,590],[999,671],[999,755],[999,834],[999,923],[999,1006],[999,1088],[999,1172],[999,1257],[999,1339],[999,1422],[999,1505],[999,1589],[999,1666],[999,1756],[999,1840],[999,1916],[999,2004],[999,2089],[999,2174],[999,2250],[999,2339],[999,2422],[999,2506],[999,2583],[999,2673],[999,2756],[999,2836],[999,2922],[999,3006],[999,3089],[999,3166],[999,3257],[999,3333],[999,3422],[999,3507],[999,3589],[999,3672],[999,3757],[999,3840],[999,3923],[999,4000],[999,4089],[999,4172],[999,4255],[999,4339],[999,4423],[999,4506],[999,4589],[999,4673],[999,4756],[999,4833],[999,4922],[999,5006],[999,5083],[999,5173],[999,5257],[999,5340],[999,5422],[999,5506],[999,5590],[999,5672],[999,5756],[999,5833],[999,5916],[999,6006],[999,6089],[999,6166],[999,6255],[999,6340],[999,6422],[999,6506],[999,6590],[999,6672],[999,6755],[999,6840],[999,6923],[999,7006],[999,7090],[999,7172],[999,7257],[999,7335],[999,7422],[999,7506],[999,7583],[999,7673],[999,7755],[999,7833],[999,7923],[999,8006],[999,8089],[999,8166],[999,8254],[999,8339],[999,8423],[999,8506],[999,8589],[999,8672],[999,8752],[999,8840],[999,8916],[999,9006],[999,9090],[999,9166],[999,9255],[999,9340],[999,9422],[999,9506],[999,9589],[999,9673],[999,9750],[999,9839],[999,9923],[999,10007],[999,10083],[999,10172],[999,10256],[999,10339],[999,10423],[999,10506],[999,10589],[999,10666],[999,10755],[999,10839],[999,10923],[999,11005],[999,11090],[999,11166],[999,11255],[999,11341],[999,11416],[999,11502],[999,11590],[999,11672]]",1,0,418.2823,473.9423,98.90190337,54.9301,"[{""rating"":98.90190336749633,""responseTime"":54.9301000000238}]",space,55.116,,473.9424,Not at all,0,473.9485,,,[],,0,13,13,13,1,audio/Narrative8Situation4.wav,audio/Narrative7Situation4.wav,audio/Narrative6Situation4.wav,audio/Narrative5Situation4.wav,3,3,2,1,,,,,,,,,,,,,,,,,,,,,,,,,,,,,,,,,,,,,,,
,,,,,,5e24fbd4e1f467771c234e5f,2024-05-13_10h48.54.819,group3.1-3.2-social-tom,2023.2.2,Win32,59.88023952,65c5074098b851296ff0b7ed,664234665e253b37067fb453,,,,,,,,,,,,,,,,,,,,,,,,,,,,,473.9492,1,audio/Narrative7Situation5.wav,478.9589,,478.959,487.4589,[],1,0,487.4592,491.4475,0.366032211,3.3172,"[{""rating"":50.14641288433383,""responseTime"":1.4278999999761481},{""rating"":0.36603221083455484,""responseTime"":3.3171999999881336}]",space,3.4477,,491.4476,Definitely yes,100,491.4592,,,[],,0,14,14,14,1,audio/Narrative8Situation5.wav,audio/Narrative7Situation5.wav,audio/Narrative6Situation5.wav,audio/Narrative5Situation5.wav,2,5,2,5,,,,,,,,,,,,,,,,,,,,,,,,,,,,,,,,,,,,,,,
,,,,,,5e24fbd4e1f467771c234e5f,2024-05-13_10h48.54.819,group3.1-3.2-social-tom,2023.2.2,Win32,59.88023952,65c5074098b851296ff0b7ed,664234665e253b37067fb453,,,,,,,,,,,,,,,,,,,,,,,,,,,,,491.4599,1,audio/Narrative7Situation6.wav,494.4754,,494.4758,504.4575,"[[999,0],[999,82],[999,165],[999,249],[999,332],[999,415],[999,499],[999,582],[999,668],[999,751],[999,833],[999,917],[999,999],[999,1082],[999,1166],[999,1249],[999,1332],[999,1415],[999,1499],[999,1582],[999,1666],[999,1749],[999,1832],[999,1915],[999,1999],[999,2082],[999,2166],[999,2249],[999,2332],[999,2415],[999,2499],[999,2582],[999,2665],[999,2749],[999,2832],[999,2915],[999,2999],[999,3082],[999,3165],[999,3251],[100,3360],[100,3430],[100,3514],[100,3597],[100,3682],[100,3764],[100,3849],[100,3931],[100,4014],[100,4097],[100,4181],[100,4264],[100,4347],[100,4431],[100,4514],[100,4597],[100,4680],[100,4764],[100,4847],[100,4930],[100,5014],[100,5097],[100,5180],[100,5264],[100,5348],[100,5431],[100,5514],[100,5597],[100,5681],[100,5764],[100,5847],[100,5931],[100,6014],[100,6097],[100,6180],[100,6264],[100,6347],[100,6430],[100,6514],[100,6597],[100,6680],[100,6764],[100,6847],[100,6931],[100,7014],[100,7097],[100,7181],[100,7264],[100,7347],[100,7431],[100,7514],[100,7597],[100,7680],[100,7764],[100,7847],[100,7930],[100,8014],[100,8097],[100,8180],[100,8264],[100,8347],[100,8431],[100,8514],[100,8597],[100,8681],[100,8764],[100,8847],[100,8930],[100,9014],[100,9097],[100,9181],[100,9264],[100,9347],[100,9431],[100,9514],[100,9597],[100,9681],[100,9764],[100,9847],[100,9931]]",1,0,504.4578,506.514,99.19472914,1.7516,"[{""rating"":99.19472913616399,""responseTime"":1.7516000000238137}]",space,1.5183,,506.5141,Partially,50,506.5271,,,[],,0,15,15,15,1,audio/Narrative8Situation6.wav,audio/Narrative7Situation6.wav,audio/Narrative6Situation6.wav,audio/Narrative5Situation6.wav,2,3,2,3,,,,,,,,,,,,,,,,,,,,,,,,,,,,,,,,,,,,,,,
,,,,,,5e24fbd4e1f467771c234e5f,2024-05-13_10h48.54.819,group3.1-3.2-social-tom,2023.2.2,Win32,59.88023952,65c5074098b851296ff0b7ed,664234665e253b37067fb453,,,,,,,,,,,,,,,,,,,,,,,,,,,,,506.5287,1,audio/Narrative7Situation7.wav,511.5297,,511.5299,528.7076,"[[99,8712],[99.5,9132],[99.8,9213],[99.8,9293],[99.8,9376],[99.8,9460],[99.8,9543],[99.8,9627],[99.8,9709],[99.8,9793],[99.8,9877],[99.8,9960],[99.8,10043],[99.8,10127],[99.8,10209],[99.8,10293],[99.8,10377],[99.8,10460],[99.8,10543],[99.8,10627],[99.8,10709],[99.8,10793],[99.8,10878],[99.8,10961],[99.8,11043],[99.8,11127],[99.8,11210],[99.8,11293],[99.8,11377],[99.8,11460],[99.8,11543],[99.8,11627],[99.8,11709],[99.8,11793],[99.8,11877],[99.8,11960],[99.8,12043],[99.8,12127],[99.8,12210],[99.8,12293],[99.8,12377],[99.8,12460],[99.8,12543],[99.8,12627],[99.8,12709],[99.8,12793],[99.8,12877],[99.8,12960],[99.8,13043],[99.8,13127],[99.8,13209],[99.8,13293],[99.8,13377],[99.8,13459],[99.8,13543],[99.8,13627],[99.8,13709],[99.8,13793],[99.8,13877],[99.8,13959],[99.8,14043],[99.8,14127],[99.8,14209],[99.8,14293],[99.8,14377],[99.8,14459],[99.8,14543],[99.8,14626],[99.8,14709],[99.8,14793],[99.8,14877],[99.8,14959],[99.8,15043],[99.8,15127],[99.8,15209],[99.8,15293],[99.8,15377],[99.8,15459],[99.8,15543],[99.8,15627],[99.8,15709],[99.8,15793],[99.8,15877],[99.8,15960],[99.8,16043],[99.8,16126],[99.8,16209],[99.8,16293],[99.8,16380],[99.8,16459],[99.8,16542],[99.8,16626],[99.8,16729],[99.8,16792],[99.8,16877],[99.8,16959],[99.8,17043],[99.8,17126]]",1,0,528.708,530.3075,99.04831625,1.4139,"[{""rating"":99.04831625183016,""responseTime"":1.4138999999761381}]",space,1.0563,,530.3076,Partially,50,530.3149,,,[],,0,16,16,16,1,audio/Narrative8Situation7.wav,audio/Narrative7Situation7.wav,audio/Narrative6Situation7.wav,audio/Narrative5Situation7.wav,3,5,5,4,,,,,,,,,,,,,,,,,,,,,,,,,,,,,,,,,,,,,,,
,,,,,,5e24fbd4e1f467771c234e5f,2024-05-13_10h48.54.819,group3.1-3.2-social-tom,2023.2.2,Win32,59.88023952,65c5074098b851296ff0b7ed,664234665e253b37067fb453,,,,,,,,,,,,,,,,,,,,,,,,,,,,,530.3157,1,audio/Narrative7Situation8.wav,532.3232,,532.3234,542.3464,[],1,0,542.3468,581.9905,99.04831625,38.9464,"[{""rating"":99.04831625183016,""responseTime"":38.94640000003574}]",space,39.1009,,581.9905,Not at all,0,582.0005,,,[],,0,17,17,17,1,audio/Narrative8Situation8.wav,audio/Narrative7Situation8.wav,audio/Narrative6Situation8.wav,audio/Narrative5Situation8.wav,3,2,5,3,,,,,,,,,,,,,,,,,,,,,,,,,,,,,,,,,,,,,,,
,,,,,,5e24fbd4e1f467771c234e5f,2024-05-13_10h48.54.819,group3.1-3.2-social-tom,2023.2.2,Win32,59.88023952,65c5074098b851296ff0b7ed,664234665e253b37067fb453,,,,,,,,,,,,,,,,,,,,,,,,,,,,,582.0013,1,audio/Narrative7Situation9.wav,584.0074,,584.0075,592.6407,"[[999,0],[999,83],[999,166],[999,249],[999,332],[999,416],[999,499],[999,583],[999,666],[999,749],[999,832],[999,916],[999,999],[999,1083],[999,1166],[999,1250],[999,1333],[999,1419],[999,1501],[999,1583],[999,1666],[999,1749],[999,1832],[999,1915],[999,1999],[999,2082],[999,2166],[999,2251],[999,2333],[999,2416],[999,2499],[999,2582],[999,2665],[999,2749],[999,2833],[999,2916],[999,2997],[999,3082],[999,3165],[999,3249],[999,3333],[999,3416],[999,3499],[999,3583],[999,3665],[999,3749],[999,3833],[999,3915],[999,3999],[999,4083],[999,4166],[999,4249],[999,4333],[999,4416],[999,4499],[999,4583],[999,4665],[999,4749],[999,4833],[999,4916],[999,4999],[999,5081],[999,5165],[999,5249],[999,5333],[999,5416],[999,5499],[999,5582],[999,5665],[999,5749],[999,5833],[999,5915],[999,5999],[999,6082],[999,6165],[999,6249],[999,6332],[999,6415],[999,6499],[999,6583],[999,6666],[999,6749],[999,6833],[999,6917],[999,6999],[999,7083],[999,7166],[999,7249],[999,7333],[999,7414],[999,7499],[999,7583],[999,7666],[999,7749],[999,7832],[999,7915],[999,7999],[999,8082],[999,8165],[999,8249],[999,8333],[999,8416],[999,8499],[999,8582]]",1,0,592.6409,594.7131,98.6090776,1.5987,"[{""rating"":98.6090775988287,""responseTime"":1.5986999999879572}]",space,1.5342,,594.7131,Definitely yes,100,594.7258,,,[],,0,18,18,18,1,audio/Narrative8Situation9.wav,audio/Narrative7Situation9.wav,audio/Narrative6Situation9.wav,audio/Narrative5Situation9.wav,3,2,4,3,,,,,,,,,,,,,,,,,,,,,,,,,,,,,,,,,,,,,,,
,,,,,,5e24fbd4e1f467771c234e5f,2024-05-13_10h48.54.819,group3.1-3.2-social-tom,2023.2.2,Win32,59.88023952,65c5074098b851296ff0b7ed,664234665e253b37067fb453,,,,,,,,,,,,,,,,,,,,,,,,,,,596.7916,599.372,599.4261,2,audio/Narrative13Situation2.wav,599.4264,,599.4265,629.1719,"[[90,8284],[94.5,8366],[96.6,8447],[96.7,8528],[96.7,8611],[97.1,8696],[97.7,8778],[97.7,8862],[97.7,8945],[97.7,9028],[88.5,9116],[88.2,9195],[88.2,9278],[88.2,9361],[88.2,9445],[88.2,9528],[88.2,9612],[88.2,9695],[88.2,9778],[88.2,9861],[88.2,9944],[88.2,10028],[88.2,10111],[88.2,10195],[88.2,10278],[88.2,10362],[88.2,10444],[88.2,10528],[88.2,10612],[88.2,10695],[88.2,10778],[88.2,10861],[88.2,10944],[88.2,11028],[88.2,11111],[88.2,11195],[88.2,11278],[88.2,11362],[93,11447],[97.9,11530],[98.2,11614],[98.2,11695],[98.2,11778],[98.2,11862],[98.3,11945],[100,12032],[100,12113],[100,12195],[100,12278],[100,12361],[100,12445],[100,12528],[100,12611],[100,12694],[100,12778],[100,12861],[100,12944],[100,13028],[100,13111],[100,13195],[100,13278],[100,13361],[100,13444],[100,13528],[100,13612],[100,13694],[100,13778],[100,13861],[100,13945],[100,14028],[100,14111],[100,14194],[100,14278],[100,14361],[100,14448],[100,14528],[100,14611],[100,14695],[100,14778],[100,14861],[100,14945],[100,15028],[100,15111],[100,15195],[100,15278],[100,15361],[100,15445],[100,15528],[100,15611],[100,15695],[100,15778],[100,15862],[100,15945],[100,16028],[100,16111],[100,16195],[100,16278],[100,16361],[100,16445],[100,16528],[100,16611],[100,16695],[100,16778],[100,16861],[100,16945],[100,17028],[100,17112],[100,17195],[100,17278],[100,17361],[100,17444],[100,17528],[100,17611],[100,17695],[100,17778],[100,17861],[100,17945],[100,18028],[100,18111],[100,18194],[100,18278],[100,18361],[100,18444],[100,18528],[100,18611],[100,18695],[100,18778],[100,18861],[100,18944],[100,19028],[100,19111],[100,19195],[100,19278],[100,19361],[100,19445],[100,19528],[100,19611],[100,19695],[100,19778],[100,19861],[100,19944],[100,20028],[100,20111],[100,20194],[100,20278],[100,20361],[100,20444],[100,20528],[100,20611],[100,20695],[100,20778],[100,20861],[100,20945],[100,21028],[100,21111],[100,21194],[100,21278],[100,21361],[100,21444],[100,21528],[100,21611],[100,21695],[100,21778],[100,21861],[100,21944],[100,22028],[100,22111],[100,22194],[100,22278],[100,22361],[100,22444],[100,22528],[100,22611],[100,22694],[100,22778],[100,22861],[100,22945],[100,23028],[100,23111],[100,23194],[100,23278],[100,23361],[100,23445],[100,23528],[100,23611],[100,23695],[100,23778],[100,23861],[100,23944],[100,24028],[100,24111],[100,24194],[100,24278],[100,24361],[100,24445],[100,24528],[100,24611],[100,24694],[100,24778],[100,24861],[100,24944],[100,25028],[100,25111],[100,25194],[100,25278],[100,25361],[100,25444],[100,25528],[100,25611],[100,25695],[100,25778],[100,25861],[100,25944],[100,26028],[100,26111],[100,26194],[100,26278],[100,26361],[100,26445],[100,26528],[100,26611],[100,26694],[100,26778],[100,26861],[100,26944],[100,27028],[100,27111],[100,27194],[100,27278],[100,27361],[100,27444],[100,27528],[100,27611],[100,27694],[100,27778],[100,27861],[100,27944],[100,28028],[100,28111],[100,28194],[100,28278],[100,28361],[100,28444],[100,28528],[100,28611],[100,28694],[100,28778],[100,28861],[100,28944],[100,29028],[100,29112],[100,29194],[100,29278],[100,29361],[100,29444],[100,29530]]",1,0,629.1725,629.1791,,,[],,,,629.1792,Definitely yes,100,629.184,,,[],,0,0,0,0,1,audio/Narrative13Situation2.wav,audio/Narrative13Situation2.wav,audio/Narrative13Situation2.wav,audio/Narrative13Situation2.wav,2,2,2,2,,,,,594.7277,596.7902,space,1.535,,,,,,,,,,,,,,,,,,,,,,,,,,,,,,,
,,,,,,5e24fbd4e1f467771c234e5f,2024-05-13_10h48.54.819,group3.1-3.2-social-tom,2023.2.2,Win32,59.88023952,65c5074098b851296ff0b7ed,664234665e253b37067fb453,,,,,,,,,,,,,,,,,,,,,,,,,,,,,629.1846,2,audio/Narrative6Situation1.wav,631.1885,,631.1885,657.7716,"[[98,5528],[99.6,5609],[99.8,5689],[99.8,5774],[99.8,5856],[100,5942],[100,6022],[100,6106],[100,6189],[100,6273],[100,6354],[100,6439],[100,6524],[100,6605],[100,6689],[100,6776],[100,6855],[100,6940],[100,7022],[100,7105],[100,7182],[100,7272],[100,7355],[100,7439],[100,7522],[100,7603],[100,7689],[100,7772],[100,7856],[100,7939],[100,8022],[100,8104],[100,8189],[100,8273],[100,8355],[100,8438],[100,8523],[100,8605],[100,8690],[100,8773],[100,8855],[100,8940],[100,9022],[100,9105],[100,9189],[100,9272],[100,9355],[100,9432],[100,9516],[100,9599],[100,9689],[100,9774],[100,9856],[100,9939],[100,10022],[100,10105],[100,10189],[100,10273],[100,10356],[100,10438],[100,10524],[100,10606],[100,10689],[100,10773],[100,10855],[100,10939],[100,11022],[100,11106],[100,11190],[100,11272],[100,11355],[100,11439],[100,11522],[100,11605],[100,11689],[100,11768],[100,11855],[100,11938],[100,12022],[100,12106],[100,12187],[100,12272],[100,12356],[100,12439],[100,12522],[100,12606],[100,12689],[100,12772],[100,12855],[100,12939],[100,13019],[100,13105],[100,13189],[100,13274],[100,13355],[100,13439],[100,13523],[100,13605],[100,13689],[100,13772],[100,13855],[100,13938],[100,14023],[100,14099],[100,14189],[100,14272],[100,14356],[100,14439],[100,14522],[100,14606],[100,14688],[100,14772],[100,14849],[100,14939],[100,15024],[100,15106],[100,15188],[100,15273],[100,15356],[100,15439],[100,15523],[100,15599],[100,15688],[100,15772],[100,15855],[100,15940],[100,16023],[100,16105],[100,16189],[100,16266],[100,16349],[100,16438],[100,16522],[100,16606],[100,16689],[100,16773],[100,16856],[100,16932],[100,17023],[100,17099],[100,17188],[100,17273],[100,17349],[100,17438],[100,17523],[100,17605],[100,17688],[100,17773],[100,17855],[100,17939],[100,18022],[100,18105],[100,18189],[100,18273],[100,18355],[100,18433],[100,18522],[100,18605],[100,18689],[100,18772],[100,18856],[100,18938],[100,19022],[100,19106],[100,19188],[100,19272],[100,19356],[100,19439],[100,19523],[100,19605],[100,19689],[100,19773],[100,19849],[100,19938],[100,20023],[100,20104],[100,20188],[100,20274],[100,20355],[100,20439],[100,20522],[100,20605],[100,20689],[100,20772],[100,20855],[100,20939],[100,21022],[100,21105],[100,21188],[100,21272],[100,21356],[100,21433],[100,21522],[100,21606],[100,21688],[100,21772],[100,21855],[100,21933],[100,22022],[100,22105],[100,22188],[100,22273],[100,22355],[100,22438],[100,22523],[100,22606],[100,22688],[100,22766],[100,22849],[100,22938],[100,23022],[100,23105],[100,23188],[100,23272],[100,23355],[100,23438],[100,23522],[100,23605],[100,23688],[100,23772],[100,23856],[100,23937],[100,24022],[100,24106],[100,24188],[100,24272],[100,24354],[100,24438],[100,24523],[100,24605],[100,24688],[100,24772],[100,24856],[100,24938],[100,25023],[100,25102],[100,25188],[100,25273],[100,25355],[100,25440],[100,25522],[100,25605],[100,25689],[100,25772],[100,25856],[100,25939],[100,26022],[100,26105],[100,26188],[100,26272],[100,26355],[100,26459],[100,26532]]",1,0,657.7722,660.7714,99.34114202,2.6896,"[{""rating"":99.3411420204978,""responseTime"":2.689600000023802}]",space,2.459,,660.7716,Definitely yes,100,660.7782,,,[],,0,1,1,1,1,audio/Narrative7Situation1.wav,audio/Narrative8Situation1.wav,audio/Narrative5Situation1.wav,audio/Narrative6Situation1.wav,2,5,5,2,,,,,,,,,,,,,,,,,,,,,,,,,,,,,,,,,,,,,,,
,,,,,,5e24fbd4e1f467771c234e5f,2024-05-13_10h48.54.819,group3.1-3.2-social-tom,2023.2.2,Win32,59.88023952,65c5074098b851296ff0b7ed,664234665e253b37067fb453,,,,,,,,,,,,,,,,,,,,,,,,,,,,,660.7789,2,audio/Narrative6Situation2.wav,663.7876,,663.7877,692.2874,"[[98.9,22795],[98.6,22875],[98.5,22955],[98.5,23038],[98.5,23123],[98.5,23205],[98.5,23289],[98.5,23366],[98.5,23455],[98.5,23539],[98.6,23623],[98.8,23706],[98.9,23790],[99,23874],[99,23955],[99,24040],[99,24122],[99,24206],[99,24288],[99,24372],[99,24456],[99,24538],[99,24622],[99,24705],[99,24782],[99,24873],[99,24955],[99,25039],[99,25123],[99,25205],[99,25289],[99,25371],[99,25455],[99,25538],[99,25622],[99,25706],[99,25785],[99,25872],[99,25956],[99,26038],[99,26122],[99,26199],[99,26289],[99,26372],[99,26456],[99,26538],[99,26615],[99,26699],[99,26789],[99,26872],[99,26955],[99,27037],[99,27123],[99,27205],[99,27289],[99,27372],[99,27455],[99,27538],[99,27622],[99,27706],[99,27789],[99,27877],[99,27956],[99,28039],[99,28132],[99,28216],[99,28299],[99,28384],[99,28465]]",1,0,692.2877,694.1537,99.04831625,1.2434,"[{""rating"":99.04831625183016,""responseTime"":1.2434000000357628}]",space,1.319,,694.1539,Partially,50,694.1646,,,[],,0,2,2,2,1,audio/Narrative7Situation2.wav,audio/Narrative8Situation2.wav,audio/Narrative5Situation2.wav,audio/Narrative6Situation2.wav,3,3,3,3,,,,,,,,,,,,,,,,,,,,,,,,,,,,,,,,,,,,,,,
,,,,,,5e24fbd4e1f467771c234e5f,2024-05-13_10h48.54.819,group3.1-3.2-social-tom,2023.2.2,Win32,59.88023952,65c5074098b851296ff0b7ed,664234665e253b37067fb453,,,,,,,,,,,,,,,,,,,,,,,,,,,,,694.1653,2,audio/Narrative6Situation3.wav,699.1704,,699.1706,711.7875,[],1,0,711.7877,713.0722,99.04831625,0.935,"[{""rating"":99.04831625183016,""responseTime"":0.9349999999999454}]",space,0.74,,713.0729,Partially,50,713.0782,,,[],,0,3,3,3,1,audio/Narrative7Situation3.wav,audio/Narrative8Situation3.wav,audio/Narrative5Situation3.wav,audio/Narrative6Situation3.wav,8,4,3,5,,,,,,,,,,,,,,,,,,,,,,,,,,,,,,,,,,,,,,,
,,,,,,5e24fbd4e1f467771c234e5f,2024-05-13_10h48.54.819,group3.1-3.2-social-tom,2023.2.2,Win32,59.88023952,65c5074098b851296ff0b7ed,664234665e253b37067fb453,,,,,,,,,,,,,,,,,,,,,,,,,,,,,713.079,2,audio/Narrative6Situation4.wav,715.0869,,715.087,727.6902,"[[79.3,12363],[73.1,12436],[69.9,12520],[61.4,12602]]",1,0,727.6906,729.3603,50,1.1354,"[{""rating"":50,""responseTime"":1.1353999999760163}]",space,1.1357,,729.3604,Partially,50,729.3665,,,[],,0,4,4,4,1,audio/Narrative7Situation4.wav,audio/Narrative8Situation4.wav,audio/Narrative5Situation4.wav,audio/Narrative6Situation4.wav,3,3,1,2,,,,,,,,,,,,,,,,,,,,,,,,,,,,,,,,,,,,,,,
,,,,,,5e24fbd4e1f467771c234e5f,2024-05-13_10h48.54.819,group3.1-3.2-social-tom,2023.2.2,Win32,59.88023952,65c5074098b851296ff0b7ed,664234665e253b37067fb453,,,,,,,,,,,,,,,,,,,,,,,,,,,,,729.3671,2,audio/Narrative6Situation5.wav,731.3764,,731.3765,739.3367,[],1,0,739.337,741.5107,99.19472914,1.6326,"[{""rating"":99.19472913616399,""responseTime"":1.6326000000237855}]",space,1.6356,,741.5108,Not at all,0,741.522,,,[],,0,5,5,5,1,audio/Narrative7Situation5.wav,audio/Narrative8Situation5.wav,audio/Narrative5Situation5.wav,audio/Narrative6Situation5.wav,5,2,5,2,,,,,,,,,,,,,,,,,,,,,,,,,,,,,,,,,,,,,,,
,,,,,,5e24fbd4e1f467771c234e5f,2024-05-13_10h48.54.819,group3.1-3.2-social-tom,2023.2.2,Win32,59.88023952,65c5074098b851296ff0b7ed,664234665e253b37067fb453,,,,,,,,,,,,,,,,,,,,,,,,,,,,,741.523,2,audio/Narrative6Situation6.wav,743.5377,,743.5379,754.6217,"[[99.2,10917],[99.2,10999],[99.2,11083]]",1,0,754.6221,757.5048,99.4875549,2.6892,"[{""rating"":99.48755490483163,""responseTime"":2.6891999999882046}]",space,2.3404,,757.5049,Partially,50,757.5143,,,[],,0,6,6,6,1,audio/Narrative7Situation6.wav,audio/Narrative8Situation6.wav,audio/Narrative5Situation6.wav,audio/Narrative6Situation6.wav,3,2,3,2,,,,,,,,,,,,,,,,,,,,,,,,,,,,,,,,,,,,,,,
,,,,,,5e24fbd4e1f467771c234e5f,2024-05-13_10h48.54.819,group3.1-3.2-social-tom,2023.2.2,Win32,59.88023952,65c5074098b851296ff0b7ed,664234665e253b37067fb453,,,,,,,,,,,,,,,,,,,,,,,,,,,,,757.5152,2,audio/Narrative6Situation7.wav,762.5207,,762.5209,787.391,[],1,0,787.3912,788.8036,99.4875549,0.7845,"[{""rating"":99.48755490483163,""responseTime"":0.7845000000002074}]",space,0.8703,,788.8044,Partially,50,788.8105,,,[],,0,7,7,7,1,audio/Narrative7Situation7.wav,audio/Narrative8Situation7.wav,audio/Narrative5Situation7.wav,audio/Narrative6Situation7.wav,5,3,4,5,,,,,,,,,,,,,,,,,,,,,,,,,,,,,,,,,,,,,,,
,,,,,,5e24fbd4e1f467771c234e5f,2024-05-13_10h48.54.819,group3.1-3.2-social-tom,2023.2.2,Win32,59.88023952,65c5074098b851296ff0b7ed,664234665e253b37067fb453,,,,,,,,,,,,,,,,,,,,,,,,,,,,,788.8112,2,audio/Narrative6Situation8.wav,793.8188,,793.8189,800.6895,[],1,0,800.6898,803.6688,0.073206442,2.6372,"[{""rating"":0.07320644216691208,""responseTime"":2.637200000047642}]",space,2.4352,,803.6689,Partially,50,803.6756,,,[],,0,8,8,8,1,audio/Narrative7Situation8.wav,audio/Narrative8Situation8.wav,audio/Narrative5Situation8.wav,audio/Narrative6Situation8.wav,2,3,3,5,,,,,,,,,,,,,,,,,,,,,,,,,,,,,,,,,,,,,,,
,,,,,,5e24fbd4e1f467771c234e5f,2024-05-13_10h48.54.819,group3.1-3.2-social-tom,2023.2.2,Win32,59.88023952,65c5074098b851296ff0b7ed,664234665e253b37067fb453,,,,,,,,,,,,,,,,,,,,,,,,,,,,,803.6762,2,audio/Narrative6Situation9.wav,807.6854,,807.6856,817.6359,"[[0.1,9199],[0.1,9282],[0.1,9365],[0.1,9449],[0.1,9532],[0.1,9616],[0.1,9699],[0.1,9782],[0.1,9865],[0.1,9949]]",1,0,817.6362,819.9444,0.073206442,2.0705,"[{""rating"":0.07320644216691208,""responseTime"":2.070500000000038}]",space,1.7672,,819.9446,Partially,50,819.9504,,,[],,0,9,9,9,1,audio/Narrative7Situation9.wav,audio/Narrative8Situation9.wav,audio/Narrative5Situation9.wav,audio/Narrative6Situation9.wav,2,3,3,4,,,,,,,,,,,,,,,,,,,,,,,,,,,,,,,,,,,,,,,
,,,,,,5e24fbd4e1f467771c234e5f,2024-05-13_10h48.54.819,group3.1-3.2-social-tom,2023.2.2,Win32,59.88023952,65c5074098b851296ff0b7ed,664234665e253b37067fb453,,,,,,,,,,,,,,,,,,,,,,,,,,,,,819.9518,2,audio/Narrative5Situation1.wav,824.9683,,824.9685,838.2588,[],1,0,838.259,840.7515,99.92679356,1.8117,"[{""rating"":99.9267935578331,""responseTime"":1.81169999998815}]",space,1.9494,,840.7517,Partially,50,845.4765,49.56076135,4.4053,"[{""rating"":49.56076134699854,""responseTime"":4.405300000011948}]",space,0,10,10,10,1,audio/Narrative8Situation1.wav,audio/Narrative7Situation1.wav,audio/Narrative6Situation1.wav,audio/Narrative5Situation1.wav,5,2,2,5,,,4.1804,,,,,,,,,,,,,,,,,,,,,,,,,,,,,,,,,,,,
,,,,,,5e24fbd4e1f467771c234e5f,2024-05-13_10h48.54.819,group3.1-3.2-social-tom,2023.2.2,Win32,59.88023952,65c5074098b851296ff0b7ed,664234665e253b37067fb453,,,,,,,,,,,,,,,,,,,,,,,,,,,,,845.4776,2,audio/Narrative5Situation2.wav,848.4912,,848.4913,877.9523,"[[54,19195],[89.2,20210],[91.1,20292],[91.1,20376],[91.1,20459],[91.1,20542],[96,20627],[98.3,20710],[98.5,20793],[98.3,20877],[98.3,20959],[98.3,21043],[98.3,21125],[98.3,21209],[98.3,21292],[98.3,21376],[98.3,21459],[98.3,21542],[98.3,21626],[98.3,21709],[98.3,21792],[98.3,21875],[98.6,21960],[98.8,22042],[98.8,22126],[98.9,22209],[98.9,22293],[98.9,22376],[98.9,22460],[98.9,22542],[98.9,22626],[98.9,22709],[98.9,22792],[98.9,22876],[98.9,22959],[98.9,23042],[98.9,23125],[98.9,23209],[98.9,23292],[98.9,23375],[98.9,23459],[98.9,23542],[98.9,23625],[98.9,23709],[98.9,23792],[98.9,23876],[98.9,23959],[98.9,24042],[98.9,24126],[98.9,24209],[98.9,24292],[98.9,24375],[98.9,24459],[98.9,24542],[98.9,24625],[98.9,24709],[98.9,24792],[98.9,24876],[98.9,24959],[98.9,25042],[98.9,25125],[98.9,25209],[98.9,25292],[98.9,25376],[98.9,25459],[98.9,25542],[98.9,25626],[98.9,25709],[98.9,25792],[98.9,25876],[98.9,25959],[98.9,26042],[98.9,26125],[98.9,26209],[98.9,26292],[98.9,26379],[98.9,26459],[98.9,26542],[98.9,26626],[98.9,26709],[98.9,26792],[98.9,26876],[98.9,26959],[98.9,27042],[98.9,27125],[98.9,27209],[98.9,27292],[98.9,27376],[98.9,27459],[98.9,27542],[98.9,27626],[98.9,27709],[98.9,27792],[98.9,27876],[98.9,27959],[98.9,28042],[98.9,28126],[98.9,28209],[98.9,28292],[98.9,28375],[98.9,28459],[98.9,28561],[98.9,28642],[98.9,28726],[98.9,28809],[98.9,28894],[69.2,29312]]",1,0,877.9525,881.6087,99.19472914,2.2372,"[{""rating"":98.31625183016106,""responseTime"":1.0479000000357246},{""rating"":99.19472913616399,""responseTime"":2.237199999987979}]",space,3.1211,,881.6089,Definitely yes,100,881.6197,,,[],,0,11,11,11,1,audio/Narrative8Situation2.wav,audio/Narrative7Situation2.wav,audio/Narrative6Situation2.wav,audio/Narrative5Situation2.wav,3,3,3,3,,,,,,,,,,,,,,,,,,,,,,,,,,,,,,,,,,,,,,,
,,,,,,5e24fbd4e1f467771c234e5f,2024-05-13_10h48.54.819,group3.1-3.2-social-tom,2023.2.2,Win32,59.88023952,65c5074098b851296ff0b7ed,664234665e253b37067fb453,,,,,,,,,,,,,,,,,,,,,,,,,,,,,881.6204,2,audio/Narrative5Situation3.wav,884.6238,,884.6239,898.5456,"[[999,20],[999,109],[999,193],[999,276],[999,359],[999,443],[999,526],[999,609],[999,694],[999,777],[999,860],[999,943],[999,1026],[999,1109],[999,1193],[999,1276],[999,1359],[999,1443],[999,1526],[999,1609],[999,1693],[999,1776],[999,1860],[999,1943],[999,2026],[999,2109],[999,2195],[999,2276],[999,2359],[999,2443],[999,2526],[999,2609],[999,2693],[999,2776],[999,2859],[999,2943],[999,3026],[999,3109],[999,3193],[999,3276],[999,3359],[999,3443],[999,3526],[999,3609],[999,3693],[999,3776],[999,3859],[999,3943],[999,4026],[999,4109],[999,4193],[999,4276],[999,4359],[999,4443],[999,4526],[999,4609],[999,4693],[999,4776],[999,4859],[999,4943],[999,5026],[999,5109],[999,5193],[999,5276],[999,5359],[999,5443],[999,5529],[999,5609],[999,5693],[999,5776],[999,5859],[999,5957],[999,6060],[999,6143],[999,6227],[999,6309],[999,6393],[999,6476],[999,6619],[999,6693],[999,6776],[999,6859],[999,6943],[999,7026],[999,7109],[999,7193],[999,7276],[999,7359],[999,7443],[999,7526],[999,7609],[999,7694],[999,7776],[999,7859],[999,7943],[999,8026],[999,8109],[999,8193],[999,8276],[999,8359],[999,8443],[999,8526],[999,8611],[999,8697],[999,8777],[999,8859],[999,8942],[999,9026],[999,9109],[999,9193],[999,9276],[999,9359],[999,9442],[999,9526],[999,9609],[999,9693],[999,9776],[999,9859],[999,9942],[999,10026],[999,10110],[999,10192],[999,10276],[999,10359],[999,10443],[999,10526],[999,10609],[999,10693],[999,10776],[999,10859],[999,10943],[999,11026],[999,11109],[999,11193],[999,11276],[999,11359],[999,11443],[999,11526],[999,11609],[999,11693],[999,11776],[999,11859],[999,11942],[999,12026],[999,12109],[999,12197],[999,12276],[999,12359],[999,12442],[999,12526],[999,12609],[999,12692],[999,12776],[999,12860],[999,12946],[100,13050],[100,13127],[99.9,13209],[99.9,13293],[99.9,13379],[99.9,13460],[99.9,13545],[100,13628],[100,13712],[100,13793],[100,13877]]",1,0,898.546,901.3417,99.63396779,2.0933,"[{""rating"":99.63396778916544,""responseTime"":2.093299999952251}]",space,2.2593,,901.3417,Definitely yes,100,901.3469,,,[],,0,12,12,12,1,audio/Narrative8Situation3.wav,audio/Narrative7Situation3.wav,audio/Narrative6Situation3.wav,audio/Narrative5Situation3.wav,4,8,5,3,,,,,,,,,,,,,,,,,,,,,,,,,,,,,,,,,,,,,,,
,,,,,,5e24fbd4e1f467771c234e5f,2024-05-13_10h48.54.819,group3.1-3.2-social-tom,2023.2.2,Win32,59.88023952,65c5074098b851296ff0b7ed,664234665e253b37067fb453,,,,,,,,,,,,,,,,,,,,,,,,,,,,,901.3478,2,audio/Narrative5Situation4.wav,902.3569,,902.357,922.7503,"[[4.8,9697],[30.8,9795],[30.4,9876],[30.4,9959],[30.4,10042],[30.4,10126],[30.4,10209],[46.2,10294],[52,10377],[51.8,10459],[51.8,10542],[51.8,10626],[51.8,10709],[51.8,10793],[51.8,10876],[51.8,10959],[51.8,11042],[51.8,11126],[51.8,11209],[51.8,11293],[51.8,11376],[51.8,11459],[51.8,11543],[51.8,11626],[51.8,11709],[51.8,11792],[51.8,11876],[51.8,11959],[51.8,12042],[51.8,12126],[51.8,12209],[51.8,12293],[51.8,12376],[51.8,12459],[51.8,12542],[51.8,12626],[51.8,12709],[51.8,12793],[51.8,12876],[51.8,12959],[51.8,13042],[51.8,13126],[51.8,13209],[51.8,13292],[51.8,13376],[51.8,13459],[51.8,13542],[51.8,13626],[51.8,13710],[51.8,13793],[51.8,13876],[51.8,13959],[51.8,14043],[51.8,14126],[51.8,14209],[51.8,14292],[51.8,14376],[51.8,14459],[51.8,14543],[51.8,14626],[51.8,14709],[51.8,14793],[51.8,14875],[51.8,14959],[51.8,15042],[51.8,15125],[51.8,15209],[51.8,15292],[51.8,15375],[51.8,15459],[51.8,15542],[51.8,15626],[51.8,15709],[51.8,15792],[51.8,15876],[51.8,15959],[51.8,16042],[51.8,16125],[51.8,16209],[51.8,16292],[51.8,16375],[51.8,16459],[68.7,16568],[85.1,16644],[87.2,16726],[87.2,16809],[87.2,16892],[91.9,16978],[100,17063],[100,17143],[100,17226],[100,17309],[100,17393],[100,17476],[100,17559],[100,17643],[100,17727],[100,17809],[100,17892],[100,17976],[100,18060],[100,18143],[100,18226],[100,18309],[100,18392],[100,18475],[100,18559],[100,18642],[100,18726],[100,18809],[100,18893],[100,18975],[100,19059],[100,19142],[100,19226],[100,19309],[100,19392],[100,19476],[100,19559],[100,19642],[100,19726],[100,19809],[100,19892],[100,19976],[100,20059],[100,20143],[100,20226],[100,20309],[100,20392]]",1,0,922.7506,924.5834,99.34114202,1.2924,"[{""rating"":99.3411420204978,""responseTime"":1.292399999976169}]",space,1.3016,,924.5836,Not at all,0,924.5939,,,[],,0,13,13,13,1,audio/Narrative8Situation4.wav,audio/Narrative7Situation4.wav,audio/Narrative6Situation4.wav,audio/Narrative5Situation4.wav,3,3,2,1,,,,,,,,,,,,,,,,,,,,,,,,,,,,,,,,,,,,,,,
,,,,,,5e24fbd4e1f467771c234e5f,2024-05-13_10h48.54.819,group3.1-3.2-social-tom,2023.2.2,Win32,59.88023952,65c5074098b851296ff0b7ed,664234665e253b37067fb453,,,,,,,,,,,,,,,,,,,,,,,,,,,,,924.5945,2,audio/Narrative5Situation5.wav,929.6071,,929.6072,945.0333,[],1,0,945.0336,948.807,99.19472914,3.4179,"[{""rating"":99.19472913616399,""responseTime"":3.4178999999760435}]",space,3.2332,,948.8077,Definitely yes,100,948.8201,,,[],,0,14,14,14,1,audio/Narrative8Situation5.wav,audio/Narrative7Situation5.wav,audio/Narrative6Situation5.wav,audio/Narrative5Situation5.wav,2,5,2,5,,,,,,,,,,,,,,,,,,,,,,,,,,,,,,,,,,,,,,,
,,,,,,5e24fbd4e1f467771c234e5f,2024-05-13_10h48.54.819,group3.1-3.2-social-tom,2023.2.2,Win32,59.88023952,65c5074098b851296ff0b7ed,664234665e253b37067fb453,,,,,,,,,,,,,,,,,,,,,,,,,,,,,948.8208,2,audio/Narrative5Situation6.wav,951.8343,,951.8344,957.5179,[],1,0,957.5181,959.6828,99.4875549,1.4654,"[{""rating"":99.48755490483163,""responseTime"":1.4653999999761709}]",space,1.6164,,959.683,Not at all,0,959.6935,,,[],,0,15,15,15,1,audio/Narrative8Situation6.wav,audio/Narrative7Situation6.wav,audio/Narrative6Situation6.wav,audio/Narrative5Situation6.wav,2,3,2,3,,,,,,,,,,,,,,,,,,,,,,,,,,,,,,,,,,,,,,,
,,,,,,5e24fbd4e1f467771c234e5f,2024-05-13_10h48.54.819,group3.1-3.2-social-tom,2023.2.2,Win32,59.88023952,65c5074098b851296ff0b7ed,664234665e253b37067fb453,,,,,,,,,,,,,,,,,,,,,,,,,,,,,959.6941,2,audio/Narrative5Situation7.wav,963.7,,963.7001,984.7514,"[[999,21],[999,105],[999,182],[999,271],[999,355],[999,438],[999,522],[999,606],[999,688],[999,771],[999,855],[999,938],[999,1023],[999,1105],[999,1189],[999,1265],[999,1355],[999,1440],[999,1521],[999,1605],[999,1690],[999,1772],[999,1849],[999,1932],[999,2022],[999,2106],[999,2187],[999,2271],[999,2356],[999,2432],[999,2521],[999,2606],[999,2689],[999,2772],[999,2855],[999,2938],[999,3023],[999,3105],[999,3189],[999,3272],[999,3355],[999,3443],[999,3523],[999,3605],[999,3690],[999,3772],[999,3854],[999,3939],[999,4020],[999,4105],[999,4190],[999,4273],[999,4355],[999,4432],[999,4515],[999,4605],[999,4689],[999,4772],[999,4855],[999,4938],[999,5021],[999,5105],[999,5189],[999,5273],[999,5356],[999,5432],[999,5522],[999,5606],[999,5688],[999,5765],[999,5854],[999,5938],[999,6023],[999,6105],[999,6188],[999,6265],[999,6356],[999,6438],[999,6522],[999,6606],[999,6689],[999,6772],[999,6855],[999,6932],[999,7020],[999,7105],[999,7184],[999,7272],[999,7355],[999,7438],[999,7521],[999,7606],[999,7684],[999,7771],[999,7856],[999,7938],[999,8021],[999,8105],[999,8188],[999,8271],[999,8353],[999,8438],[999,8521],[999,8605],[999,8688],[999,8765],[999,8854],[999,8938],[999,9021],[999,9104],[999,9189],[999,9272],[999,9355],[999,9439],[999,9515],[999,9605],[999,9689],[999,9771],[999,9855],[999,9938],[999,10022],[999,10099],[999,10189],[999,10268],[999,10356],[999,10437],[999,10521],[999,10606],[999,10682],[999,10772],[999,10856],[999,10938],[999,11022],[999,11103],[999,11188],[999,11272],[999,11355],[999,11438],[999,11522],[999,11598],[999,11688],[999,11773],[999,11855],[999,11932],[999,12021],[999,12105],[999,12182],[999,12271],[999,12355],[999,12438],[999,12521],[999,12599],[999,12688],[999,12771],[999,12856],[999,12932],[999,13021],[999,13098],[999,13188],[999,13271],[999,13354],[999,13438],[999,13521],[999,13605],[999,13688],[999,13771],[999,13855],[999,13932],[999,14021],[999,14105],[999,14181],[999,14271],[999,14356],[999,14432],[999,14521],[999,14606],[999,14682],[999,14767],[999,14856],[999,14932],[999,15021],[999,15105],[999,15188],[999,15265],[999,15354],[999,15438],[999,15515],[999,15604],[999,15690],[999,15770],[999,15854],[999,15939],[999,16022],[999,16105],[999,16185],[999,16265],[999,16351],[999,16439],[999,16521],[999,16604],[999,16688],[999,16771],[999,16854],[999,16938],[999,17021],[999,17105],[999,17182],[999,17272],[999,17355],[999,17438],[999,17515],[999,17605],[999,17688],[999,17765],[999,17855],[999,17938],[999,18022],[999,18104],[999,18188],[999,18271],[999,18355],[999,18439],[999,18522],[999,18604],[999,18682],[999,18770],[999,18855],[999,18938],[999,19021],[999,19098],[999,19181],[999,19272],[999,19351],[999,19438],[999,19521],[999,19604],[999,19689],[999,19773],[999,19854],[999,19932],[999,20021],[999,20104],[999,20189],[999,20271],[999,20354],[999,20439],[999,20522],[99.2,20606],[100,20702],[100,20782],[100,20868],[100,20951],[100,21033]]",1,0,984.7519,986.8837,99.19472914,1.6111,"[{""rating"":99.19472913616399,""responseTime"":1.6111000000237254}]",space,1.5882,,986.8838,Partially,50,986.8936,,,[],,0,16,16,16,1,audio/Narrative8Situation7.wav,audio/Narrative7Situation7.wav,audio/Narrative6Situation7.wav,audio/Narrative5Situation7.wav,3,5,5,4,,,,,,,,,,,,,,,,,,,,,,,,,,,,,,,,,,,,,,,
,,,,,,5e24fbd4e1f467771c234e5f,2024-05-13_10h48.54.819,group3.1-3.2-social-tom,2023.2.2,Win32,59.88023952,65c5074098b851296ff0b7ed,664234665e253b37067fb453,,,,,,,,,,,,,,,,,,,,,,,,,,,,,986.8946,2,audio/Narrative5Situation8.wav,989.9011,,989.9012,998.7225,"[[94.1,2442],[46,3271],[46,3353],[46,3438],[46,3520],[46,3603],[53.8,5022],[53.5,5103],[53.5,5187],[53.5,5270],[53.5,5353],[53.5,5437],[51.5,5525],[51,5607],[51,5686],[51,5771],[51,5853],[51,5937],[51,6021],[51,6104],[51,6187],[51,6271],[51,6353],[51,6437],[50.6,6521],[50.4,6604],[50.4,6681],[50.4,6770],[50.4,6854],[50.4,6936],[50.4,7014],[50.4,7105],[50.4,7188],[50.4,7270],[50.4,7347],[50.4,7437],[50.4,7514],[50.4,7604],[50.4,7687],[50.4,7771],[50.4,7853],[50.4,7937],[50.4,8021],[50.4,8103],[50.4,8187],[50.4,8271],[50.4,8357],[50.4,8438],[50.4,8521],[50.4,8603],[50.4,8688],[50.4,8770]]",1,0,998.7228,1000.6835,49.70717423,1.5515,"[{""rating"":49.70717423133236,""responseTime"":1.5515000000000327}]",space,1.4156,,1000.6836,Partially,50,1000.6884,,,[],,0,17,17,17,1,audio/Narrative8Situation8.wav,audio/Narrative7Situation8.wav,audio/Narrative6Situation8.wav,audio/Narrative5Situation8.wav,3,2,5,3,,,,,,,,,,,,,,,,,,,,,,,,,,,,,,,,,,,,,,,
,,,,,,5e24fbd4e1f467771c234e5f,2024-05-13_10h48.54.819,group3.1-3.2-social-tom,2023.2.2,Win32,59.88023952,65c5074098b851296ff0b7ed,664234665e253b37067fb453,,,,,,,,,,,,,,,,,,,,,,,,,,,,,1000.6891,2,audio/Narrative5Situation9.wav,1003.7,,1003.7001,1043.2484,"[[74,9933],[85.3,10016],[85.3,10098],[85.3,10181],[85.3,10265],[96.9,10354],[100,10432],[100,10514],[100,10597],[100,10681],[100,10764],[100,10847],[100,10931],[100,11014],[100,11098],[100,11181],[100,11264],[100,11347],[100,11431],[100,11514],[100,11598],[100,11681],[100,11764],[100,11848],[100,11931],[100,12014],[100,12098],[100,12181],[100,12264],[100,12348],[100,12431],[100,12514],[100,12598],[100,12681],[100,12764],[100,12848],[100,12931],[100,13014],[100,13097],[100,13181],[100,13264],[100,13348],[100,13431],[100,13514],[100,13598],[100,13681],[100,13764],[100,13847],[100,13931],[100,14014],[100,14098],[100,14181],[100,14264],[100,14348],[100,14431],[100,14514],[100,14598],[100,14681],[100,14764],[100,14848],[100,14931],[100,15014],[100,15098],[100,15181],[100,15264],[100,15348],[100,15431],[100,15514],[100,15598],[100,15681],[100,15764],[100,15848],[100,15931],[100,16014],[100,16098],[100,16181],[100,16264],[100,16348],[100,16431],[100,16514],[100,16598],[100,16681],[100,16764],[100,16848],[100,16932],[100,17014],[100,17098],[100,17181],[100,17264],[100,17348],[100,17431],[100,17514],[100,17598],[100,17681],[100,17764],[100,17848],[100,17931],[100,18014],[100,18098],[100,18181],[100,18264],[100,18348],[100,18431],[100,18514],[100,18598],[100,18681],[100,18764],[100,18848],[100,18931],[100,19014],[100,19098],[100,19181],[100,19264],[100,19348],[100,19431],[100,19514],[100,19597],[100,19681],[100,19764],[100,19847],[100,19931],[100,20014],[100,20097],[100,20181],[100,20264],[100,20348],[100,20431],[100,20514],[100,20597],[100,20681],[100,20764],[100,20847],[100,20931],[100,21014],[100,21097],[100,21181],[100,21264],[100,21347],[100,21431],[100,21514],[100,21598],[100,21681],[100,21764],[100,21848],[100,21931],[100,22014],[100,22098],[100,22181],[100,22264],[100,22347],[100,22431],[100,22514],[100,22597],[100,22681],[100,22764],[100,22847],[100,22931],[100,23014],[100,23098],[100,23181],[100,23264],[100,23348],[100,23431],[100,23514],[100,23597],[100,23681],[100,23764],[100,23847],[100,23931],[100,24014],[100,24097],[100,24181],[100,24264],[100,24348],[100,24431],[100,24514],[100,24597],[100,24681],[100,24764],[100,24847],[100,24931],[100,25014],[100,25098],[100,25181],[100,25264],[100,25347],[100,25431],[100,25514],[100,25598],[100,25681],[100,25764],[100,25847],[100,25931],[100,26014],[100,26097],[100,26181],[100,26264],[100,26348],[100,26431],[100,26514],[100,26598],[100,26681],[100,26764],[100,26848],[100,26931],[100,27014],[100,27097],[100,27181],[100,27264],[100,27348],[100,27431],[100,27514],[100,27597],[100,27685],[100,27764],[100,27848],[100,27931],[100,28014],[100,28097],[100,28181],[100,28264],[100,28347],[100,28431],[100,28514],[100,28598],[100,28681],[100,28764],[100,28847],[100,28931],[100,29014],[100,29097],[100,29181],[100,29264],[100,29347],[100,29431],[100,29514],[100,29597],[100,29681],[100,29764],[100,29847],[100,29931],[100,30014],[100,30097],[100,30181],[100,30264],[100,30348],[100,30431],[100,30514],[100,30597],[100,30681],[100,30764],[100,30847],[100,30931],[100,31014],[100,31097],[100,31181],[100,31264],[100,31347],[100,31431],[100,31514],[100,31597],[100,31681],[100,31764],[100,31847],[100,31930],[100,32014],[100,32097],[100,32182],[100,32264],[100,32347],[100,32431],[100,32514],[100,32597],[100,32681],[100,32764],[100,32847],[100,32931],[100,33014],[100,33097],[100,33181],[100,33264],[100,33347],[100,33431],[100,33514],[100,33597],[100,33681],[100,33764],[100,33847],[100,33931],[100,34014],[100,34097],[100,34181],[100,34264],[100,34347],[100,34431],[100,34514],[100,34597],[100,34680],[100,34764],[100,34847],[100,34931],[100,35014],[100,35097],[100,35181],[100,35264],[100,35347],[100,35431],[100,35514],[100,35597],[100,35681],[100,35764],[100,35847],[100,35931],[100,36014],[100,36097],[100,36181],[100,36264],[100,36347],[100,36431],[100,36514],[100,36597],[100,36681],[100,36764],[100,36847],[100,36931],[100,37014],[100,37097],[100,37181],[100,37264],[100,37347],[100,37430],[100,37514],[100,37597],[100,37681],[100,37764],[100,37847],[100,37930],[100,38014],[100,38097],[100,38181],[100,38264],[100,38347],[100,38431],[100,38514],[100,38597],[100,38681],[100,38764],[100,38847],[100,38930],[100,39014],[100,39098],[100,39180],[100,39264]]",1,0,1043.2491,1045.7981,99.63396779,1.5913,"[{""rating"":99.63396778916544,""responseTime"":1.59130000001187}]",space,2.0019,,1045.7982,Definitely yes,100,1045.8091,,,[],,0,18,18,18,1,audio/Narrative8Situation9.wav,audio/Narrative7Situation9.wav,audio/Narrative6Situation9.wav,audio/Narrative5Situation9.wav,3,2,4,3,,,,,,,,,,,,,,,,,,,,,,,,,,,,,,,,,,,,,,,
,,,,,,5e24fbd4e1f467771c234e5f,2024-05-13_10h48.54.819,group3.1-3.2-social-tom,2023.2.2,Win32,59.88023952,65c5074098b851296ff0b7ed,664234665e253b37067fb453,,,,,,,,,,,,,,,,,,,,,,,,,,,,,,,,,,,,,,,,,,,,,,,,,,,,,,,,,,,,,,,,,,,,,,,,1045.8095,1047.3841,space,1.0583,,1047.3852,1055.4005,space,7.6868,,,,,,,,,,,,,,,,,,,,,,,,,,
,,,,,,5e24fbd4e1f467771c234e5f,2024-05-13_10h48.54.819,group3.1-3.2-social-tom,2023.2.2,Win32,59.88023952,65c5074098b851296ff0b7ed,664234665e253b37067fb453,,,,,,,,,,,,,,,,,,,,,,,,,,,,,1058.0174,1,audio/Narrative7Situation9.wav,1060.0313,,,,,,,1091.9429,1097.3883,51.02489019,3.4027,"[{""rating"":51.02489019033675,""responseTime"":3.4026999999880445}]",space,4.9161,,1091.9336,Not at all,0,1091.9428,,,[],,,,,,,,,,,2,2,2,2,,,,,,,,,,,,,,,1055.4266,1057.9814,1060.0325,3,1091.9334,"[[70.5,6183],[2.6,6616],[1,6698],[1,6781],[1,6864],[1,6948],[1,7031],[1,7115],[1,7198],[1,7281],[1,7365],[1,7448],[1,7531],[1,7615],[1,7698],[1,7781],[1,7865],[1,7948],[1,8031],[1,8114],[27.2,8200],[45.6,8285],[45.6,8365],[45.6,8448],[45.6,8531],[45.6,8614],[45.6,8698],[45.6,8781],[37.1,8866],[8.6,8950],[7.1,9031],[7.1,9114],[7.1,9198],[7.1,9281],[0.1,22712],[0.1,22782],[0.1,22864],[0.1,22954],[0.1,23037],[0.1,23121],[0.1,23204],[0.1,23288],[0.1,23371],[0.1,23455],[0.1,23538],[0.1,23620],[0.2,23706],[5.9,23792],[34.3,23875],[45.3,23960],[45.6,24033],[46,24117],[53.8,24201],[55.6,24282],[55,24368],[53.1,24451],[51.6,24535],[51.2,24616],[51,24699],[51,24783],[51,24866],[51,24949],[51,25032],[51,25117],[51,25199],[51,25282],[51,25365],[51,25449],[51,25532],[51,25616],[51,25699],[51,25782],[51,25866],[51,25949],[51,26032],[51,26116],[49.6,26201],[14.1,26284],[9.9,26366],[9.9,26449],[9.9,26533],[7,26618],[0.8,27784],[10,27867],[13.4,27950],[14,28033],[14,28115],[14,28199],[10.2,28284],[0.8,30785],[1,30866],[1,30949],[1,31032],[1,31115],[1,31199],[1,31282],[1,31366],[1,31451]]",0,0,0,0,1,"Larry had recently lost his family, job and home, and was now living on his own in the park. He had most of his belongings, including some clothes, a blanket, and his mother’s special necklace. His family had been very important to him and he felt as though he did not have much going for him. One of his first days in the park he came across a family that did not have much food and looked very cold. He decided to give them some of his food and his blanket.","Larry had recently lost his family, job and home, and was now living on his own in the park. He had most of his belongings, including some clothes, a blanket, and his mother’s special necklace. His family had been very important to him and he felt as though he did not have much going for him. One of his first days in the park he came across a family that did not have much food and looked very cold. He decided to give them some of his food and his blanket.","Larry had recently lost his family, job and home, and was now living on his own in the park. He had most of his belongings, including some clothes, a blanket, and his mother’s special necklace. His family had been very important to him and he felt as though he did not have much going for him. One of his first days in the park he came across a family that did not have much food and looked very cold. He decided to give them some of his food and his blanket.","Larry had recently lost his family, job and home, and was now living on his own in the park. He had most of his belongings, including some clothes, a blanket, and his mother’s special necklace. His family had been very important to him and he felt as though he did not have much going for him. One of his first days in the park he came across a family that did not have much food and looked very cold. He decided to give them some of his food and his blanket.",,,,,,,,,,
,,,,,,5e24fbd4e1f467771c234e5f,2024-05-13_10h48.54.819,group3.1-3.2-social-tom,2023.2.2,Win32,59.88023952,65c5074098b851296ff0b7ed,664234665e253b37067fb453,,,,,,,,,,,,,,,,,,,,,,,,,,,,,1097.3903,1,audio/Narrative7Situation9.wav,1099.5477,space,,,,,,1123.4403,1127.5968,49.41434846,3.1561,"[{""rating"":49.41434846266471,""responseTime"":3.156100000023798}]",space,3.6211,,1123.4306,Partially,50,1123.4402,,,[],,,,,,,,,,,6,2,3,9,2.1362,,,,,,,,,,,,,,,,1099.5483,3,1123.4303,"[[999,2],[999,92],[999,172],[999,255],[999,339],[999,421],[999,505],[999,589],[999,671],[999,755],[999,832],[999,922],[999,1008],[12.1,1092],[9.9,1175],[7.2,1259],[2.7,1340],[2,1421],[7,1510],[15.4,1592],[21.3,1673],[26.9,1758],[36.1,1840],[35.7,1921],[7.8,2007],[3.1,2091],[3.1,2170],[3.1,2255],[3.1,2339],[3.1,2421],[2.9,2506],[2.3,2591],[2.4,3755],[7.2,3923],[0.1,4007],[0.8,7590],[1,7671],[5.2,7760],[17.5,7840],[52.8,8591],[49.9,8674],[49.9,8754],[49.6,8840],[49.6,8921],[49.6,9004],[49.6,9089],[49.6,9172],[49.6,9255],[49.6,9331],[49.6,9421],[49.6,9505],[49.6,9584],[49.6,9671],[49.6,9748],[49.6,9838],[49.6,9921],[49.6,9998],[49.6,10088],[49.6,10171],[49.6,10254],[49.6,10339],[49.6,10422],[49.6,10504],[49.6,10588],[49.6,10667],[49.6,10755],[49.6,10832],[49.4,10923],[49.3,11006],[49.1,11088],[49.1,11171],[49.1,11255],[49.1,11338],[49.1,11421],[49.1,11507],[49.3,11588],[49.3,11671],[49.3,11755],[49.3,11838],[49.3,11918],[49.3,12004],[49.3,12087],[49.3,12168],[49.3,12255],[49.3,12338],[49.3,12420],[49.3,12504],[49.3,12589],[49.3,12671],[49.3,12754],[49.3,12839],[49.3,12921],[49.3,13005],[49.3,13087],[49.3,13171],[49.3,13256],[49.3,13339],[49.3,13421],[49.3,13504],[49.3,13587],[49.3,13671],[49.3,13755],[49.3,13838],[49.3,13922],[49.3,14003],[49.3,14088],[49.3,14172],[49.3,14254],[49.3,14338],[49.3,14422],[49.3,14498],[49.3,14588],[49.3,14665],[24.8,14759],[7.7,14842],[7.1,14921],[7.1,15004],[7.1,15088],[7.1,15171],[0.5,15258],[14.9,21183],[31.3,21266],[32.9,21348],[35.4,21433],[45,21517],[46.6,21600],[47.7,21682],[48.4,21766],[49.1,21850],[49.3,21931],[49.3,22014],[49.3,22101],[49.3,22181],[49.3,22264],[49.3,22347],[49.3,22431],[49.3,22515],[49.3,22598],[49.3,22681],[49.3,22764],[49.3,22848],[49.3,22931],[49.3,23014],[49.3,23097],[49.3,23181],[49.3,23264],[49.3,23348],[49.3,23431],[49.3,23514],[49.3,23598],[49.3,23681],[49.3,23764],[49.3,23847]]",0,1,1,1,1,"It was just another Sunday afternoon for Lucy, she was on her way to the farmer's market to pick up some produce. When she arrived at the old train depot that housed the market, she noticed two men fighting on the steps. Before she could call for help, one of the men crumpled to his knees. The other man dropped an object that appeared to be a knife and ran off. When Lucy approached the crime scene she realized that the man who had been murdered was the Mayor and that he had a gunshot wound.","One day at work, Margaret walked up to her partner, Al, to ask him to talk to the chief of staff at the local hospital where she worked as a nurse.","Luke always thought of himself as an honest man. That's why during his evening jog around the swamp, he pondered his recent affair with the receptionist at work. Luke looked up at the sky and asked God why he was so weak and unfaithful. He thought of the impact this would have on his family and told God of his conflicted feelings toward telling his wife Marta.","Linda and Amy had been best friends since kindergarten, they even found homes on the same street in the forest on the edge of town. Their biggest fight had been over who gets the bigger slice of cake, until Amy married Dan. Linda loathed Dan, she thought he was manipulative and had a violent temper. She only put up with him because Amy loved him. ",,,,,,,,,,
,,,,,,5e24fbd4e1f467771c234e5f,2024-05-13_10h48.54.819,group3.1-3.2-social-tom,2023.2.2,Win32,59.88023952,65c5074098b851296ff0b7ed,664234665e253b37067fb453,,,,,,,,,,,,,,,,,,,,,,,,,,,,,1127.5987,1,audio/Narrative7Situation9.wav,1132.6131,,,,,,,1158.8409,1163.3462,99.4875549,2.4969,"[{""rating"":99.48755490483163,""responseTime"":2.4969000000357937}]",space,3.9718,,1158.8302,Not at all,0,1158.8408,,,[],,,,,,,,,,,4,5,2,2,,,,,,,,,,,,,,,,,1132.6135,3,1158.8297,"[[999,20],[999,99],[999,182],[999,265],[999,349],[999,432],[999,516],[999,599],[999,682],[999,766],[999,854],[0.2,1873],[59.2,2458],[60.2,2539],[60.2,2623],[60.2,2706],[61.3,2791],[82.5,2876],[90,2959],[91.4,3041],[92.3,3126],[100,3210],[100,3290],[100,3373],[100,3459],[100,3538],[100,3621],[100,3705],[100,3790],[100,3873],[81.5,3957],[85.4,4541],[88.4,4624],[89.1,4707],[91,4791],[100,4875],[100,4951],[100,5039],[100,5123],[100,5205],[100,5291],[100,5373],[100,5456],[100,5539],[100,5623],[100,5705],[100,5789],[100,5872],[100,5955],[100,6039],[100,6123],[100,6206],[100,6289],[100,6373],[99.3,6461],[98.5,6540],[98.5,6616],[98.5,6706],[98.5,6788],[98.5,6873],[98.5,6956],[98.5,7039],[98.5,7118],[98.5,7206],[98.5,7290],[98.6,7374],[98.8,7457],[99,7540],[99.3,7623],[98.9,7707],[74.7,7791],[66.7,7876],[66.7,7956],[66.7,8039],[66.7,8123],[54.8,8208],[50.1,8289],[50.1,8372],[50.1,8455],[50.1,8538],[50.1,8622],[50.1,8706],[26.9,8794],[17.9,8873],[17.9,8955],[17.9,9039],[42.5,9125],[55,9209],[55,9289],[55,9372],[54.5,9460],[51,9544],[49.6,9623],[49.4,9700],[49.4,9789],[49.4,9872],[49.4,9955],[49.4,10042],[49.4,10121],[49.4,10206],[49.4,10289],[49.4,10372],[49.4,10456],[49.4,10539],[49.4,10622],[52.3,10709],[93.3,11292],[94.7,11376],[94.7,11457],[94.9,11540],[95.4,11625],[97.7,11710],[98.5,11789],[98.5,11865],[98.5,11955],[98.5,12033],[99.2,12124],[99.2,12206],[99.2,12289],[99.2,12373],[99.2,12455],[99.2,12538],[99.2,12623],[99.2,12704],[99.2,12788],[99.2,12872],[99.2,12955],[99.2,13040],[99.2,13121],[99.2,13205],[99.2,13289],[91.3,13379],[75.2,13459],[74.9,13535],[74.9,13622],[74.9,13706],[74.9,13788],[74.9,13872],[74.9,13956],[74.9,14037],[74.9,14122],[74.9,14207],[100,14872],[99.6,14956],[99.5,15040],[99.5,15124],[99.5,15205],[99.5,15289],[99.5,15372],[99.5,15456],[99.5,15538],[99.5,15624],[99.5,15705],[99.5,15789],[99.5,15872],[99.5,15955],[99.5,16033],[99.5,16121],[99.5,16205],[99.5,16288],[99.5,16372],[99.5,16456],[99.5,16538],[99.5,16622],[99.5,16706],[99.5,16788],[99.5,16872],[99.5,16957],[99.5,17038],[99.5,17123],[99.5,17205],[99.5,17288],[99.5,17373],[99.5,17455],[99.5,17539],[99.5,17623],[99.5,17705],[99.5,17789],[99.5,17873],[99.5,17957],[99.5,18039],[99.5,18121],[99.5,18205],[99.5,18289],[99.5,18372],[99.5,18455],[99.5,18538],[99.5,18616],[99.5,18705],[99.5,18788],[99.5,18872],[99.5,18955],[99.5,19038],[99.5,19122],[99.5,19206],[99.5,19292],[99.5,19372],[99.5,19456],[99.5,19538],[99.5,19624],[99.5,19706],[99.5,19788],[99.5,19873],[99.5,19954],[99.5,20038],[99.5,20123],[99.5,20205],[99.5,20288],[99.5,20366],[99.5,20455],[99.5,20538],[99.5,20622],[99.5,20705],[99.5,20789],[99.5,20872],[99.5,20957],[99.5,21032],[99.5,21122],[99.5,21206],[99.5,21288],[99.5,21372],[99.5,21455],[99.5,21537],[99.5,21622],[99.5,21706],[99.5,21788],[99.5,21872],[99.5,21954],[99.5,22049],[99.5,22132],[99.5,22215],[99.5,22298],[99.5,22382],[99.5,22465],[99.5,22549],[99.5,22632],[99.5,22715],[99.5,22799],[99.5,22882],[99.5,22965],[99.5,23049],[99.5,23132],[99.5,23215],[99.5,23299],[99.5,23382],[99.5,23465],[99.5,23548],[99.5,23632],[99.5,23715],[99.5,23798],[99.5,23882],[99.5,23965],[99.5,24049],[99.5,24132],[99.5,24215],[99.5,24299],[99.5,24382],[99.5,24465],[99.5,24549],[99.5,24634],[99.5,24715],[99.5,24799],[99.5,24882],[99.5,24965],[99.5,25048],[99.5,25132],[99.5,25215],[99.5,25298],[99.5,25382],[99.5,25465],[99.5,25549],[99.5,25632],[99.5,25715],[99.5,25799],[99.5,25882],[99.5,25965],[99.5,26048],[99.5,26132],[99.5,26215]]",0,2,2,2,1,On the ground beside him was a pen that she had mistaken for a knife. Lucy looked for the gunman and saw a suspicious man in black with distinct pointy features darting into an alley across the street. Cops who were nearby chased the man who had fled and arrested him.,"While waiting outside the chief of staff's office, Al heard nondescript shouting and yelling, there was a loud clatter in the room and then an eerie silence. An unfamiliar employee ran hastily out of the office with a terrified look on their face.","Suddenly, Luke heard a woman call out his name and when he turned around he saw Carly, his receptionist, across the road with a gun in her hand. Carly ran to him and explained how she had followed him here to confess her love. She exclaimed if Luke didn't love her back that she would kill him and his family. Carly explained that the only way they could be together is to kill Marta.","This feeling of hate between Amy and Dan was mutual, Dan didn't like how much time his wife spent with her and thought Amy was creating distance between their marriage. That's why Dan decided to try and tarnish Linda's reputation with his wife, in hopes it would get rid of her. He came home one afternoon and exclaimed that Linda had tried to kiss him. Amy was taken aback and immediately called Linda to confront her about these accusations. When Linda arrived she denied having made a move on Dan, but discovered Dan had enlisted the help of his friend Will who said he witnessed it all happen.",,,,,,,,,,
,,,,,,5e24fbd4e1f467771c234e5f,2024-05-13_10h48.54.819,group3.1-3.2-social-tom,2023.2.2,Win32,59.88023952,65c5074098b851296ff0b7ed,664234665e253b37067fb453,,,,,,,,,,,,,,,,,,,,,,,,,,,,,1163.3484,1,audio/Narrative7Situation9.wav,1165.3626,,,,,,,1187.8905,1190.6625,99.63396779,1.9801,"[{""rating"":99.63396778916544,""responseTime"":1.9801000000238673}]",space,2.2427,,1187.8794,Partially,50,1187.8904,,,[],,,,,,,,,,,2,2,1,4,,,,,,,,,,,,,,,,,1165.3627,3,1187.879,"[[999,0],[999,99],[999,183],[999,266],[999,349],[999,432],[999,516],[999,599],[999,682],[999,766],[999,849],[999,934],[999,1018],[999,1101],[99.9,1185],[97.9,1268],[97,1351],[97.1,1432],[97.1,1516],[97.1,1600],[97.1,1682],[98.5,1768],[99,1849],[99.2,1933],[99.2,2016],[99.2,2099],[99.2,2183],[99.2,2266],[99.2,2349],[99.2,2432],[99.2,2516],[99.2,2599],[99.2,2682],[99.2,2766],[99.2,2849],[99.2,2932],[99.2,3016],[99.2,3099],[99.2,3182],[99.2,3266],[99.2,3349],[99.2,3432],[99.2,3517],[99.2,3600],[99.2,3684],[98.6,3770],[94.1,3853],[93.9,3932],[94.7,4021],[96.4,4102],[97.6,4184],[98.2,4267],[98.5,4349],[99,4434],[99.3,4516],[99.3,4599],[99.3,4683],[99.3,4766],[99.3,4849],[99.3,4932],[99.3,5016],[99.3,5099],[99.3,5182],[99.3,5266],[99.3,5349],[99.3,5432],[99.3,5517],[99.3,5599],[99.3,5683],[99.3,5766],[99.3,5849],[99.3,5932],[99.3,6016],[99.3,6099],[99.3,6182],[99.3,6266],[99.3,6349],[99.3,6432],[99.3,6516],[99.3,6599],[99.3,6683],[99.3,6766],[99.3,6849],[99.3,6932],[99.3,7016],[99.3,7099],[99.3,7182],[99.3,7266],[99.3,7349],[99.3,7432],[99.3,7516],[99.3,7599],[99.3,7682],[99.3,7766],[99.3,7849],[99.3,7933],[99.3,8016],[99.3,8099],[99.3,8182],[99.3,8266],[99.3,8349],[99.3,8432],[99.3,8516],[99.3,8599],[99.3,8682],[99.3,8767],[99.3,8849],[99.3,8932],[99.3,9016],[99.3,9099],[99.3,9182],[99.3,9266],[99.3,9349],[99.3,9433],[99.3,9516],[99.3,9599],[99.3,9682],[99.3,9766],[99.3,9850],[99.3,9932],[99.3,10016],[99.3,10099],[99.3,10183],[99.3,10266],[99.3,10349],[99.3,10432],[99.3,10516],[99.3,10599],[99.3,10682],[99.3,10766],[99.3,10849],[99.3,10932],[99.3,11016],[99.3,11099],[99.3,11182],[99.3,11266],[99.3,11349],[99.3,11433],[99.3,11516],[99.3,11599],[99.3,11682],[99.3,11766],[99.3,11849],[99.3,11934],[99.3,12016],[99.3,12099],[99.3,12182],[99.3,12266],[99.3,12349],[99.3,12433],[99.3,12516],[99.3,12599],[99.3,12682],[99.3,12766],[99.3,12849],[99.3,12932],[99.3,13016],[99.3,13099],[99.3,13182],[99.3,13266],[99.3,13349],[99.3,13432],[99.3,13516],[99.3,13599],[99.3,13682],[99.3,13766],[99.3,13849],[99.3,13932],[99.3,14016],[99.3,14099],[99.3,14182],[99.3,14267],[99.3,14349],[99.3,14432],[99.3,14516],[99.3,14599],[99.3,14682],[99.3,14766],[99.3,14849],[99.3,14932],[99.3,15016],[99.3,15099],[99.3,15200],[99.3,15266],[99.3,15349],[99.3,15432],[99.3,15516],[99.3,15599],[99.3,15682],[99.3,15765],[99.3,15849],[99.3,15932],[99.3,16016],[99.3,16099],[99.3,16182],[99.3,16266],[99.3,16349],[99.3,16432],[99.3,16516],[99.3,16599],[99.3,16682],[99.3,16766],[99.3,16849],[99.3,16933],[99.3,17016],[99.3,17099],[99.3,17182],[99.3,17266],[99.3,17349],[99.3,17432],[99.3,17516],[99.3,17599],[99.3,17682],[99.3,17766],[99.3,17849],[99.3,17932],[99.3,18015],[99.3,18099],[99.3,18182],[99.3,18266],[99.3,18349],[99.3,18432],[99.3,18516],[99.3,18599],[99.3,18683],[99.3,18766],[99.3,18849],[99.3,18932],[99.3,19015],[99.3,19099],[99.3,19182],[99.3,19266],[99.3,19349],[99.3,19432],[99.3,19515],[99.3,19599],[99.3,19682],[99.3,19766],[99.3,19849],[99.3,19932],[99.3,20016],[99.3,20099],[99.3,20182],[99.3,20265],[99.3,20349],[99.3,20432],[99.3,20515],[99.3,20599],[99.3,20682],[99.3,20766],[99.3,20849],[99.3,20932],[99.3,21015],[99.3,21099],[99.3,21182],[99.3,21265],[99.3,21349],[99.3,21432],[99.3,21516],[99.3,21599],[99.3,21682],[99.3,21765],[99.3,21849],[99.3,21932],[99.3,22016],[99.3,22099],[99.3,22182],[99.3,22265],[99.3,22349],[99.3,22432],[99.3,22515]]",0,3,3,3,1,"But Lucy knew the charged man was innocent, which meant the killer was free. Lucy vowed to find out who the real murderer was and to stop him at all costs.","Al explained to the chief of staff that Margaret wanted to be excused from her absences last week. The chief of staff, Susan, revealed that she wanted to fire Margaret and never see her again. Susan and Al had been having an affair and she wanted Margaret ""out of the picture"". Al was conflicted, but agreed it would be for the best.","Luke thought of his child and felt like this was his only option. He agreed to the plan and called his wife to meet him at the swamp to watch the sunset with him. When she arrived, Marta called out for her husband, but found Carly waiting for her. She immediately drew her gun and shot her in the chest, knocking her unconscious.","Since it was their word against her own, she decided to go home and admit defeat. She knew how much it would hurt Amy to know the truth.",,,,,,,,,,
