exp_question,consent.started,consent.stopped,consentResponse.keys,consentResponse.rt,consentResponse.duration,participantID,date,expName,psychopyVersion,OS,frameRate,STUDY_ID,SESSION_ID,opening1.started,opening1.stopped,keyEndingOpening1.keys,keyEndingOpening1.rt,keyEndingOpening1.duration,volumeAdjust.started,volumeAdjust.stopped,endingAdjust.keys,endingAdjust.rt,endingAdjust.duration,opening2.started,opening2.stopped,keyEndingOpening.keys,keyEndingOpening.rt,keyEndingOpening.duration,mouse.x,mouse.y,mouse.leftButton,mouse.midButton,mouse.rightButton,mouse.time,instructionLoop.thisRepN,instructionLoop.thisTrialN,instructionLoop.thisN,instructionLoop.thisIndex,instructionLoop.ran,readyForAudio.started,readyForAudio.stopped,fixation.started,run,audio_played,fixation.stopped,endPractice.keys,audioPre.started,audioPre.stopped,continuousResponses_audio,continuousSlider.response,continuousSlider.rt,intRating.started,intRating.stopped,intQuestionSlider.response,intQuestionSlider.rt,intQuestionSlider.history,confirmResponse.keys,confirmResponse.rt,confirmResponse.duration,catchQuestion.started,catch_label,catch_value,catchQuestion.stopped,catchQuestionSlider.response,catchQuestionSlider.rt,catchQuestionSlider.history,confirmResponse_2.keys,audioRunLoop.thisRepN,audioRunLoop.thisTrialN,audioRunLoop.thisN,audioRunLoop.thisIndex,audioRunLoop.ran,conditions1_1,conditions2_1,conditions1_2,conditions2_2,dur1_1,dur2_1,dur1_2,dur2_2,endPractice.rt,endPractice.duration,confirmResponse_2.rt,confirmResponse_2.duration,runIntervalBreak.started,runIntervalBreak.stopped,endingBreakKey.keys,endingBreakKey.rt,endingBreakKey.duration,connection.started,connection.stopped,connectionEnding.keys,connectionEnding.rt,connectionEnding.duration,readyForText.started,readyForText.stopped,textPre.started,run_dup,textPre.stopped,continuousResponses_text,textRunLoop.thisRepN,textRunLoop.thisTrialN,textRunLoop.thisN,textRunLoop.thisIndex,textRunLoop.ran,text1_1,text1_2,text2_1,text2_2,runBreakText.started,runBreakText.stopped,endingBreakKey_2.keys,endingBreakKey_2.rt,endingBreakKey_2.duration,ending.started,ending.stopped,endingEnding.keys,endingEnding.rt,endingEnding.duration
tom,0.0006,44.6133,y,44.2697,,5ea89d0c5a0a9c12978f8263,2024-05-13_12h32.18.901,group3.1-3.2-social-tom,2023.2.2,Linux x86_64,30.03003003,65c5074098b851296ff0b7ed,664231c946ca20fbe6114772,,,,,,,,,,,,,,,,,,,,,,,,,,,,,,,,,,,,,,,,,,,,,,,,,,,,,,,,,,,,,,,,,,,,,,,,,,,,,,,,,,,,,,,,,,,,,,,,,,,,,,,,,,
,,,,,,5ea89d0c5a0a9c12978f8263,2024-05-13_12h32.18.901,group3.1-3.2-social-tom,2023.2.2,Linux x86_64,30.03003003,65c5074098b851296ff0b7ed,664231c946ca20fbe6114772,44.6135,49.3868,space,4.7149,,,,,,,,,,,,,,,,,,,,,,,,,,,,,,,,,,,,,,,,,,,,,,,,,,,,,,,,,,,,,,,,,,,,,,,,,,,,,,,,,,,,,,,,,,,,,,,,,,,,,,
,,,,,,5ea89d0c5a0a9c12978f8263,2024-05-13_12h32.18.901,group3.1-3.2-social-tom,2023.2.2,Linux x86_64,30.03003003,65c5074098b851296ff0b7ed,664231c946ca20fbe6114772,,,,,,49.3869,90.4395,space,40.6995,,,,,,,,,,,,,,,,,,,,,,,,,,,,,,,,,,,,,,,,,,,,,,,,,,,,,,,,,,,,,,,,,,,,,,,,,,,,,,,,,,,,,,,,,,,,,,,,,
,,,,,,5ea89d0c5a0a9c12978f8263,2024-05-13_12h32.18.901,group3.1-3.2-social-tom,2023.2.2,Linux x86_64,30.03003003,65c5074098b851296ff0b7ed,664231c946ca20fbe6114772,,,,,,,,,,,90.443,101.7164,space,11.2476,,[],[],[],[],[],[],0,0,0,0,1,,,,,,,,,,,,,,,,,,,,,,,,,,,,,,,,,,,,,,,,,,,,,,,,,,,,,,,,,,,,,,,,,,,,,,,,,,,,,,,,
,,,,,,5ea89d0c5a0a9c12978f8263,2024-05-13_12h32.18.901,group3.1-3.2-social-tom,2023.2.2,Linux x86_64,30.03003003,65c5074098b851296ff0b7ed,664231c946ca20fbe6114772,,,,,,,,,,,101.7231,145.8983,space,44.0952,,[],[],[],[],[],[],1,0,1,0,1,,,,,,,,,,,,,,,,,,,,,,,,,,,,,,,,,,,,,,,,,,,,,,,,,,,,,,,,,,,,,,,,,,,,,,,,,,,,,,,,
,,,,,,5ea89d0c5a0a9c12978f8263,2024-05-13_12h32.18.901,group3.1-3.2-social-tom,2023.2.2,Linux x86_64,30.03003003,65c5074098b851296ff0b7ed,664231c946ca20fbe6114772,,,,,,,,,,,145.9048,171.3354,space,25.3948,,[],[],[],[],[],[],2,0,2,0,1,,,,,,,,,,,,,,,,,,,,,,,,,,,,,,,,,,,,,,,,,,,,,,,,,,,,,,,,,,,,,,,,,,,,,,,,,,,,,,,,
,,,,,,5ea89d0c5a0a9c12978f8263,2024-05-13_12h32.18.901,group3.1-3.2-social-tom,2023.2.2,Linux x86_64,30.03003003,65c5074098b851296ff0b7ed,664231c946ca20fbe6114772,,,,,,,,,,,171.342,220.7706,space,49.3811,,[],[],[],[],[],[],3,0,3,0,1,,,,,,,,,,,,,,,,,,,,,,,,,,,,,,,,,,,,,,,,,,,,,,,,,,,,,,,,,,,,,,,,,,,,,,,,,,,,,,,,
,,,,,,5ea89d0c5a0a9c12978f8263,2024-05-13_12h32.18.901,group3.1-3.2-social-tom,2023.2.2,Linux x86_64,30.03003003,65c5074098b851296ff0b7ed,664231c946ca20fbe6114772,,,,,,,,,,,220.7771,233.2121,space,12.3765,,[],[],[],[],[],[],4,0,4,0,1,,,,,,,,,,,,,,,,,,,,,,,,,,,,,,,,,,,,,,,,,,,,,,,,,,,,,,,,,,,,,,,,,,,,,,,,,,,,,,,,
,,,,,,5ea89d0c5a0a9c12978f8263,2024-05-13_12h32.18.901,group3.1-3.2-social-tom,2023.2.2,Linux x86_64,30.03003003,65c5074098b851296ff0b7ed,664231c946ca20fbe6114772,,,,,,,,,,,,,,,,,,,,,,,,,,,233.223,235.8279,235.8438,1,audio/Narrative13Situation2.wav,237.8541,,237.8543,267.6639,"[[999,0],[999,102],[999,156],[999,224],[999,277],[999,347],[999,413],[999,488],[999,548],[999,622],[999,681],[999,755],[999,800],[999,855],[999,930],[999,1004],[999,1033],[999,1121],[999,1174],[999,1248],[999,1307],[999,1381],[999,1440],[999,1507],[999,1560],[999,1607],[999,1683],[999,1750],[999,1805],[999,1848],[999,1914],[999,2005],[999,2065],[999,2115],[999,2189],[999,2257],[999,2299],[999,2389],[999,2443],[999,2506],[999,2565],[999,2603],[999,2681],[999,2725],[999,2806],[999,2849],[999,2931],[999,3005],[999,3034],[999,3124],[999,3190],[999,3258],[999,3299],[999,3397],[999,3456],[999,3524],[999,3589],[999,3669],[999,3722],[999,3766],[999,3848],[999,3923],[999,3989],[999,4056],[999,4115],[999,4159],[999,4211],[999,4297],[999,4356],[999,4406],[999,4489],[999,4556],[999,4585],[999,4672],[999,4701],[999,4772],[999,4824],[999,4892],[999,4972],[999,5016],[999,5082],[999,5173],[50.4,5227],[51.7,5299],[51.7,5355],[51.7,5423],[51.7,5465],[51.7,5555],[50.7,5615],[50.4,5691],[50.4,5755],[50.4,5823],[50.4,5866],[50.5,5955],[50.5,6014],[50.5,6088],[50.4,6148],[50.3,6224],[50.3,6290],[50.2,6364],[50.2,6423],[50.2,6491],[50.2,6556],[50.2,6631],[50.2,6689],[50.2,6763],[50.2,6799],[50.2,6898],[50.2,6964],[50.2,7038],[50.2,7091],[50.2,7164],[50.2,7199],[50.2,7291],[50.2,7333],[50.2,7423],[50.2,7482],[50.2,7555],[50.2,7607],[50.2,7657],[50.2,7738],[50.2,7782],[50.2,7863],[50.2,7923],[50.2,7964],[50.2,8031],[50.2,8114],[50.2,8164],[50.2,8247],[50.2,8322],[50.2,8350],[50.2,8441],[50.2,8507],[50.2,8556],[50.2,8639],[50.2,8683],[50.2,8747],[50.2,8814],[50.2,8866],[50.2,8964],[50.2,9023],[50.2,9091],[50.2,9144],[50.2,9219],[50.2,9272],[50.2,9316],[50.2,9398],[50.2,9472],[50.2,9500],[50.2,9574],[50.2,9645],[50.2,9708],[50.2,9772],[50.2,9834],[50.2,9866],[50.2,9954],[50.2,10013],[50.2,10088],[50.2,10147],[50.2,10214],[50.2,10273],[50.2,10316],[50.2,10399],[50.2,10467],[50.2,10499],[50.2,10588],[50.2,10641],[53.5,10721],[53.8,10782],[54.7,10859],[55.8,10917],[56.5,10989],[57.9,11049],[58.8,11123],[58.8,11183],[59.1,11252],[60.5,11306],[61,11382],[62,11440],[62.2,11503],[62.2,11573],[62.2,11610],[62.2,11662],[62.2,11754],[62.2,11806],[62.2,11856],[62.2,11932],[62.2,12005],[62.2,12065],[62.2,12140],[62.2,12199],[62.2,12271],[62.2,12300],[62.2,12367],[62.2,12449],[62.2,12487],[62.2,12565],[62.2,12639],[62.2,12683],[62.2,12756],[62.2,12815],[62.2,12864],[62.2,12939],[62.2,12983],[62.2,13065],[62.2,13139],[62.2,13198],[62.2,13247],[62.2,13294],[62.2,13398],[62.2,13433],[62.2,13538],[62.2,13567],[62.2,13655],[62.2,13708],[62.2,13757],[62.2,13840],[62.2,13883],[62.2,13948],[62.2,14015],[62.2,14099],[62.2,14173],[62.2,14209],[62.2,14281],[66,14365],[66.1,14441],[66.1,14494],[67,14559],[67.1,14632],[67.1,14681],[67.1,14756],[67.1,14824],[67.1,14884],[67.1,14951],[67.1,15006],[67.1,15076],[67.1,15141],[67.1,15208],[67.1,15273],[67.1,15340],[67.1,15393],[67.1,15465],[67.1,15531],[67.1,15575],[67.1,15656],[67.1,15724],[67.1,15790],[67.1,15833],[67.1,15898],[67.1,15989],[67.1,16033],[67.1,16091],[67.1,16138],[67.1,16205],[67.1,16282],[67.1,16331],[67.1,16402],[67.1,16439],[67.1,16515],[67.1,16589],[67.1,16633],[67.1,16690],[67.1,16743],[67.1,16841],[67.1,16906],[67.1,16974],[67.1,17009],[67.1,17105],[67.1,17164],[67.1,17208],[67.1,17267],[67.1,17351],[67.1,17407],[67.1,17489],[67.1,17542],[67.1,17591],[67.1,17673],[67.1,17723],[67.1,17807],[67.1,17849],[67.1,17909],[67.1,17999],[67.1,18034],[67.1,18132],[67.1,18190],[67.1,18258],[67.1,18323],[67.1,18373],[67.1,18449],[67.1,18499],[67.1,18573],[67.1,18623],[67.1,18681],[67.1,18773],[67.1,18832],[67.2,18876],[67.2,18934],[67.6,19033],[68.4,19094],[69.6,19175],[69.8,19228],[70.3,19307],[70.6,19361],[70.7,19432],[70.9,19499],[70.9,19549],[70.9,19607],[70.9,19691],[70.9,19733],[70.9,19806],[70.9,19858],[70.9,19924],[70.9,19983],[70.9,20074],[70.9,20127],[70.9,20173],[70.9,20257],[70.9,20325],[70.9,20366],[70.9,20440],[70.9,20516],[70.9,20591],[70.9,20633],[70.9,20689],[70.9,20741],[70.9,20826],[70.9,20891],[70.9,20972],[70.9,21025],[70.9,21074],[70.9,21157],[70.9,21232],[70.9,21291],[70.9,21359],[70.9,21417],[70.9,21478],[70.9,21533],[70.9,21607],[70.9,21661],[70.9,21708],[70.9,21791],[70.9,21835],[70.9,21916],[70.9,21990],[70.9,22055],[70.9,22092],[70.9,22176],[70.9,22256],[70.9,22299],[70.9,22351],[70.9,22416],[70.9,22490],[70.9,22566],[72.2,22648],[72.4,22707],[72.8,22777],[73.8,22841],[74.4,22904],[75,22959],[75.8,23034],[77,23091],[77.7,23154],[79.6,23209],[80.4,23290],[80.8,23344],[80.9,23416],[80.9,23481],[80.9,23525],[80.9,23608],[80.9,23657],[81.3,23741],[82.4,23803],[82.4,23833],[82.4,23924],[82.4,23966],[82.4,24050],[82.4,24116],[82.4,24167],[82.4,24224],[82.4,24323],[82.4,24366],[82.4,24407],[82.4,24483],[82.4,24557],[82.4,24600],[82.4,24656],[82.4,24708],[82.4,24775],[82.4,24833],[82.4,24906],[82.4,24958],[82.4,25025],[82.4,25107],[82.4,25151],[82.4,25210],[82.4,25307],[82.4,25350],[82.4,25408],[82.4,25499],[82.4,25550],[82.4,25626],[82.4,25699],[82.4,25759],[82.4,25809],[82.4,25891],[82.4,25934],[82.4,26024],[82.4,26091],[82.4,26137],[82.4,26206],[82.4,26250],[82.4,26323],[82.4,26383],[82.4,26450],[82.4,26483],[82.4,26573],[82.4,26616],[82.4,26674],[82.4,26757],[82.4,26800],[82.4,26883],[82.4,26957],[82.4,27000],[82.4,27056],[82.4,27109],[82.4,27182],[82.4,27258],[82.4,27301],[82.4,27383],[82.4,27457],[82.4,27493],[82.4,27589],[82.4,27650],[82.4,27687],[82.4,27764],[82.4,27809],[82.4,27891],[82.4,27941],[82.4,27999],[82.4,28090],[82.4,28150],[82.4,28193],[82.4,28245],[82.4,28339],[82.4,28392],[82.4,28472],[82.4,28501],[82.4,28592],[82.4,28657],[82.4,28700],[82.4,28783],[82.4,28857],[82.4,28917],[82.4,28954],[82.4,29033],[82.4,29107],[82.4,29149],[82.4,29239],[82.4,29292],[82.4,29359],[82.4,29424],[82.4,29468],[82.4,29533],[82.4,29607],[82.4,29682],[82.4,29756],[82.4,29808]]",1,0,267.6642,274.7647,56.58678256,4.3097,"[{""rating"":56.586782556181205,""responseTime"":4.309699999988084}]",space,6.5103,,274.7649,Not at all,0,274.7687,,,[],,0,0,0,0,1,audio/Narrative13Situation2.wav,audio/Narrative13Situation2.wav,audio/Narrative13Situation2.wav,audio/Narrative13Situation2.wav,2,2,2,2,,,,,,,,,,,,,,,,,,,,,,,,,,,,,,,,,,,,,,,
,,,,,,5ea89d0c5a0a9c12978f8263,2024-05-13_12h32.18.901,group3.1-3.2-social-tom,2023.2.2,Linux x86_64,30.03003003,65c5074098b851296ff0b7ed,664231c946ca20fbe6114772,,,,,,,,,,,,,,,,,,,,,,,,,,,,,274.769,1,audio/Narrative8Situation1.wav,279.4719,space,279.472,295.483,"[[999,6],[999,100],[999,159],[999,233],[999,291],[999,367],[999,426],[999,500],[999,559],[999,633],[999,692],[999,742],[999,800],[999,867],[999,950],[999,1018],[999,1084],[999,1152],[999,1199],[999,1268],[999,1320],[999,1383],[51.4,1441],[51.4,1518],[51.4,1576],[51.4,1651],[51.1,1709],[50.5,1785],[50.3,1831],[50.2,1901],[50.2,1966],[50,2036],[49.8,2091],[49.8,2167],[49.8,2199],[49.8,2291],[49.8,2350],[49.8,2419],[49.8,2449],[49.8,2534],[49.8,2583],[49.8,2642],[49.8,2724],[49.8,2800],[49.8,2851],[49.8,2926],[49.8,2966],[49.8,3059],[49.8,3124],[49.8,3183],[49.8,3219],[49.8,3316],[49.8,3367],[49.8,3435],[49.8,3466],[49.8,3551],[49.8,3583],[49.8,3675],[49.8,3733],[49.8,3802],[49.8,3866],[49.8,3903],[49.8,3950],[49.8,4042],[49.8,4100],[49.8,4138],[49.8,4217],[49.8,4285],[49.8,4343],[49.8,4417],[49.8,4449],[49.8,4542],[49.8,4600],[49.8,4669],[49.8,4699],[49.8,4766],[49.8,4841],[49.8,4909],[49.8,4967],[49.8,5042],[49.8,5075],[49.8,5166],[49.8,5200],[49.8,5267],[49.8,5349],[49.8,5417],[49.8,5476],[53.8,5557],[56,5611],[57.3,5687],[59.9,5734],[60.6,5809],[60.7,5844],[61.5,5943],[62.1,6003],[62.2,6066],[62.2,6118],[62.2,6168],[62.2,6250],[62.2,6318],[62.2,6349],[62.2,6416],[62.2,6491],[62.2,6567],[62.2,6626],[62.2,6682],[62.2,6734],[62.2,6826],[62.2,6865],[62.2,6941],[62.2,6983],[62.2,7067],[62.2,7099],[62.2,7200],[62.2,7259],[62.2,7308],[62.2,7384],[62.2,7453],[62.2,7508],[62.2,7552],[62.2,7636],[62.2,7685],[62.2,7767],[62.2,7843],[62.2,7883],[62.2,7969],[62.2,7999],[62.2,8066],[62.2,8141],[62.2,8216],[62.2,8268],[62.2,8343],[62.2,8376],[62.2,8475],[62.2,8533],[62.2,8603],[62.2,8667],[62.2,8724],[62.2,8783],[62.2,8833],[62.2,8910],[62.2,8984],[62.2,9042],[62.2,9117],[62.2,9168],[62.2,9243],[62.2,9277],[62.2,9369],[62.2,9399],[62.2,9466],[62.2,9542],[62.2,9617],[62.2,9651],[62.2,9718],[62.2,9776],[62.2,9842],[62.2,9925],[62.2,9975],[62.2,10050],[62.2,10118],[62.2,10149],[62.2,10241],[62.2,10283],[62.2,10367],[62.2,10418],[62.2,10468],[62.2,10526],[62.2,10593],[62.2,10676],[62.2,10725],[62.2,10801],[62.2,10876],[62.2,10908],[62.2,11001],[62.2,11049],[62.2,11134],[62.2,11168],[62.2,11259],[62.2,11317],[62.2,11386],[62.2,11415],[62.2,11502],[62.2,11549],[62.2,11634],[62.2,11668],[62.2,11759],[62.2,11818],[62.2,11868],[62.2,11950],[62.2,11994],[62.2,12075],[62.4,12159],[63.6,12218],[65,12293],[65.4,12352],[65.8,12428],[66.4,12493],[67.2,12564],[67.6,12619],[68.3,12702],[69,12768],[69.1,12837],[69.1,12884],[69.1,12953],[69.1,12982],[69.1,13068],[69.1,13134],[69.1,13202],[69.1,13249],[69.1,13334],[69.1,13392],[69.1,13467],[69.1,13525],[69.1,13600],[69.1,13634],[69.1,13701],[69.1,13783],[69.1,13852],[69.1,13900],[69.1,13984],[69.1,14043],[69.1,14117],[69.1,14169],[69.1,14219],[69.1,14302],[69.1,14370],[69.1,14426],[69.1,14500],[69.1,14534],[69.1,14602],[69.1,14684],[69.1,14759],[69.1,14817],[69.1,14886],[69.1,14941],[69.1,15010],[69.1,15076],[69.1,15150],[69.1,15209],[69.1,15277],[69.1,15336],[69.1,15410],[69.1,15468],[69.1,15537],[69.1,15591],[69.1,15660],[69.1,15718],[69.1,15793],[69.1,15826],[69.1,15917],[69.1,15952]]",1,0,295.4832,301.5429,62.52564257,3.3813,"[{""rating"":62.525642565662146,""responseTime"":3.3812999999821614}]",space,5.4343,,301.543,Half the time,50,301.5456,,,[],,0,1,1,1,1,audio/Narrative7Situation1.wav,audio/Narrative8Situation1.wav,audio/Narrative5Situation1.wav,audio/Narrative6Situation1.wav,2,5,5,2,4.6703,,,,,,,,,,,,,,,,,,,,,,,,,,,,,,,,,,,,,,
,,,,,,5ea89d0c5a0a9c12978f8263,2024-05-13_12h32.18.901,group3.1-3.2-social-tom,2023.2.2,Linux x86_64,30.03003003,65c5074098b851296ff0b7ed,664231c946ca20fbe6114772,,,,,,,,,,,,,,,,,,,,,,,,,,,,,301.5457,1,audio/Narrative8Situation2.wav,304.5656,,304.5656,314.7258,"[[59.6,2132],[57.5,2193],[57.1,2265],[56.9,2326],[56.6,2401],[56.5,2455],[56.5,2498],[56.5,2550],[56.5,2642],[56.5,2707],[56.5,2781],[56.5,2822],[56.5,2901],[56.5,2959],[56.5,3020],[56.5,3075],[56.5,3150],[56.5,3209],[56.5,3276],[56.5,3335],[56.5,3384],[56.5,3455],[56.5,3499],[56.5,3558],[56.5,3649],[56.5,3689],[56.5,3749],[56.5,3825],[56.5,3899],[56.5,3959],[56.5,4033],[56.5,4072],[56.5,4151],[56.5,4217],[56.5,4267],[56.5,4325],[56.5,4416],[56.5,4475],[56.5,4549],[56.5,4609],[56.5,4683],[56.5,4723],[56.5,4806],[56.5,4866],[56.5,4910],[56.6,4975],[58.3,5068],[58.5,5134],[58.7,5208],[59,5267],[59.9,5342],[60.5,5401],[60.5,5463],[61,5517],[61.5,5594],[61.6,5650],[62.2,5727],[62.5,5784],[63.5,5853],[63.7,5917],[64.1,5981],[64.1,6034],[64.1,6084],[64.1,6167],[64.1,6217],[64.1,6300],[64.1,6343],[64.1,6426],[64.1,6493],[64.1,6540],[64.1,6625],[64.1,6692],[64.1,6742],[64.1,6816],[64.1,6866],[64.1,6950],[64.1,7018],[64.1,7082],[64.1,7150],[64.1,7189],[64.1,7249],[64.1,7325],[64.1,7399],[64.1,7439],[64.1,7499],[64.1,7551],[64.1,7649],[64.1,7689],[64.1,7749],[64.1,7801],[64.1,7892],[64.1,7939],[64.1,8000],[64.1,8058],[64.1,8125],[64.1,8200],[64.1,8245],[64.1,8327],[64.1,8399],[64.1,8459],[64.1,8509],[64.1,8590],[64.1,8652],[64.1,8710],[64.1,8784],[64.1,8831],[64.1,8868],[64.1,8951],[64.1,8994],[64.1,9083],[64.1,9151],[64.1,9189],[64.1,9258],[64.1,9310],[64.1,9395],[64.1,9424],[64.1,9516],[64.1,9576],[64.1,9643],[64.1,9702],[64.1,9775],[64.1,9834],[64.1,9879],[64.1,9945],[64.1,9983],[64.1,10058],[64.1,10133]]",1,0,314.726,320.3826,63.20287585,3.7432,"[{""rating"":63.20287584528782,""responseTime"":3.7431999999880645}]",space,5.0566,,320.3826,Not at all,0,320.3851,,,[],,0,2,2,2,1,audio/Narrative7Situation2.wav,audio/Narrative8Situation2.wav,audio/Narrative5Situation2.wav,audio/Narrative6Situation2.wav,3,3,3,3,,,,,,,,,,,,,,,,,,,,,,,,,,,,,,,,,,,,,,,
,,,,,,5ea89d0c5a0a9c12978f8263,2024-05-13_12h32.18.901,group3.1-3.2-social-tom,2023.2.2,Linux x86_64,30.03003003,65c5074098b851296ff0b7ed,664231c946ca20fbe6114772,,,,,,,,,,,,,,,,,,,,,,,,,,,,,320.3853,1,audio/Narrative8Situation3.wav,324.409,,324.409,346.8525,"[[57.2,1642],[55.4,1701],[54.9,1765],[54.5,1825],[53.2,1902],[53.2,1960],[53,2025],[52.4,2084],[50.5,2154],[50.5,2207],[50.5,2276],[50.5,2334],[50.5,2409],[50.5,2467],[50.5,2535],[50.5,2594],[50.5,2646],[50.5,2689],[50.5,2783],[52.2,2850],[54.2,2920],[55.4,2975],[56.1,3052],[57.7,3109],[59.3,3184],[60.3,3250],[60.8,3319],[61.5,3375],[62,3451],[63.7,3508],[64.4,3584],[64.5,3650],[64.5,3726],[64.5,3758],[64.8,3851],[64.9,3916],[65.1,3986],[65.1,4014],[65.1,4101],[65.2,4158],[65.4,4234],[65.4,4280],[65.4,4342],[65.4,4417],[65.4,4467],[65.4,4525],[65.4,4617],[65.4,4651],[65.4,4742],[65.4,4800],[65.4,4862],[65.4,4917],[65.4,4986],[65.4,5014],[65.4,5108],[65.4,5166],[65.4,5229],[65.4,5284],[65.4,5358],[65.4,5391],[65.4,5484],[65.4,5529],[65.4,5586],[65.4,5641],[65.4,5708],[65.4,5767],[65.4,5834],[65.4,5892],[65.4,5959],[65.4,6017],[65.4,6109],[65.4,6150],[65.4,6216],[65.4,6274],[65.4,6359],[65.4,6393],[65.4,6493],[65.4,6533],[65.4,6601],[65.4,6684],[65.4,6759],[65.4,6817],[65.4,6885],[65.4,6929],[65.4,6979],[65.4,7033],[65.4,7107],[65.4,7182],[65.4,7251],[65.4,7310],[65.4,7384],[65.4,7430],[65.4,7486],[65.4,7567],[65.4,7617],[65.4,7700],[65.4,7768],[65.4,7827],[65.4,7901],[65.4,7961],[65.4,8036],[65.4,8080],[65.4,8158],[65.4,8217],[65.4,8285],[65.4,8330],[65.4,8417],[65.4,8475],[65.4,8551],[65.4,8609],[65.4,8684],[65.4,8730],[65.4,8817],[65.4,8847],[65.4,8941],[65.4,8980],[65.4,9067],[65.4,9125],[65.4,9200],[65.4,9234],[65.4,9326],[65.4,9383],[65.4,9451],[65.4,9496],[65.4,9558],[65.4,9610],[65.4,9702],[65.4,9766],[65.4,9810],[65.4,9892],[65.4,9935],[65.4,10011],[65.4,10048],[65.4,10125],[65.4,10208],[65.4,10254],[65.4,10316],[65.4,10375],[65.4,10450],[65.4,10484],[65.4,10551],[66.3,10610],[67.1,10711],[67.7,10769],[68.2,10845],[68.5,10911],[68.6,10987],[68.6,11013],[68.6,11075],[68.6,11127],[68.6,11226],[68.6,11291],[68.6,11360],[68.6,11418],[68.6,11461],[68.6,11543],[68.6,11617],[68.6,11652],[68.6,11744],[68.6,11780],[68.6,11851],[68.6,11934],[68.6,11983],[68.6,12042],[68.6,12133],[68.6,12167],[68.6,12259],[68.6,12318],[68.6,12367],[68.6,12426],[68.6,12517],[68.6,12576],[68.6,12651],[68.6,12696],[68.6,12783],[68.6,12842],[68.6,12917],[68.6,12968],[68.6,13018],[68.6,13101],[68.6,13176],[68.6,13209],[68.6,13301],[68.6,13346],[68.6,13426],[68.6,13484],[68.6,13552],[68.6,13586],[68.6,13685],[68.6,13744],[68.6,13796],[68.6,13840],[68.6,13925],[68.6,13983],[68.6,14052],[68.6,14096],[68.6,14184],[68.6,14242],[68.6,14317],[68.6,14351],[68.6,14443],[68.6,14501],[68.6,14547],[68.6,14617],[68.6,14686],[68.6,14742],[68.6,14810],[68.6,14850],[68.6,14936],[68.6,14963],[68.6,15033],[68.6,15109],[68.6,15184],[68.6,15241],[68.6,15309],[68.6,15350],[70,15467],[70.1,15527],[70.3,15603],[70.7,15659],[71.4,15735],[71.5,15795],[71.5,15863],[71.5,15900],[71.5,15986],[71.5,16045],[71.5,16120],[71.5,16146],[71.5,16234],[71.5,16292],[71.5,16355],[71.5,16396],[71.5,16482],[71.5,16534],[71.5,16602],[71.5,16667],[71.5,16735],[71.5,16801],[71.5,16870],[71.5,16925],[71.5,16993],[71.5,17051],[71.5,17096],[71.5,17168],[71.5,17236],[71.5,17295],[71.5,17356],[71.5,17396],[71.5,17498],[71.5,17551],[71.5,17601],[71.5,17678],[71.5,17747],[71.5,17780],[71.5,17869],[71.5,17927],[71.5,17976],[71.5,18026],[71.5,18118],[71.5,18163],[71.5,18226],[71.5,18278],[71.5,18351],[71.5,18409],[71.5,18476],[71.5,18534],[71.5,18601],[71.5,18660],[71.5,18751],[71.5,18809],[71.5,18884],[71.5,18935],[71.5,19011],[71.5,19046],[71.5,19143],[71.5,19201],[71.5,19263],[71.5,19300],[71.5,19392],[71.5,19451],[71.5,19513],[71.5,19550],[71.5,19643],[71.5,19702],[71.5,19775],[71.5,19834],[71.5,19903],[71.5,19959],[71.5,20013],[71.5,20085],[71.5,20153],[71.5,20209],[71.5,20276],[71.5,20334],[71.5,20396],[71.5,20451],[71.5,20501],[71.5,20560],[71.5,20652],[71.5,20718],[71.5,20809],[71.5,20846],[71.5,20929],[71.5,20985],[71.5,21035],[71.5,21117],[71.5,21186],[71.5,21242],[71.5,21310],[71.5,21344],[71.5,21442],[71.5,21500],[71.5,21562],[71.5,21600],[71.5,21686],[71.5,21743],[71.5,21819],[71.5,21863],[71.5,21951],[71.5,22010],[71.5,22085],[71.5,22144],[71.5,22193],[71.5,22242],[71.5,22342],[71.5,22400]]",1,0,346.8526,351.3689,71.12134923,1.8579,"[{""rating"":71.12134923368134,""responseTime"":1.857900000005941}]",space,3.9274,,351.3689,Not at all,0,351.3763,,,[],,0,3,3,3,1,audio/Narrative7Situation3.wav,audio/Narrative8Situation3.wav,audio/Narrative5Situation3.wav,audio/Narrative6Situation3.wav,8,4,3,5,,,,,,,,,,,,,,,,,,,,,,,,,,,,,,,,,,,,,,,
,,,,,,5ea89d0c5a0a9c12978f8263,2024-05-13_12h32.18.901,group3.1-3.2-social-tom,2023.2.2,Linux x86_64,30.03003003,65c5074098b851296ff0b7ed,664231c946ca20fbe6114772,,,,,,,,,,,,,,,,,,,,,,,,,,,,,351.3765,1,audio/Narrative8Situation4.wav,354.3781,,354.3781,368.6372,"[[70.7,1302],[69.4,1358],[69.4,1433],[69.4,1485],[69.4,1528],[69.4,1583],[69.4,1650],[69.4,1733],[69.4,1808],[69.4,1840],[69.4,1932],[69.4,1967],[69.4,2034],[69.4,2092],[69.4,2166],[69.4,2224],[69.4,2317],[69.4,2361],[69.4,2418],[69.4,2474],[69.4,2567],[69.4,2611],[69.4,2667],[69.4,2744],[69.4,2817],[69.4,2861],[69.4,2924],[69.4,3001],[69.4,3074],[69.4,3133],[69.4,3209],[69.4,3241],[69.4,3333],[69.4,3377],[69.4,3467],[69.4,3494],[69.4,3591],[69.4,3650],[69.5,3712],[69.5,3767],[69.5,3817],[69.5,3875],[69.5,3967],[69.5,4033],[69.5,4101],[69.5,4158],[69.5,4232],[69.5,4267],[69.5,4352],[69.5,4407],[69.5,4483],[69.5,4517],[69.5,4608],[69.5,4666],[69.5,4728],[69.5,4766],[69.5,4858],[69.5,4917],[69.5,4967],[69.5,5028],[69.5,5108],[69.5,5166],[69.5,5235],[69.5,5299],[69.5,5373],[69.5,5424],[69.5,5478],[69.5,5550],[69.5,5587],[69.5,5667],[69.5,5717],[69.5,5793],[69.5,5858],[69.5,5916],[69.5,5960],[69.5,6041],[69.5,6116],[69.5,6174],[69.5,6242],[69.5,6307],[69.5,6376],[69.5,6411],[69.5,6491],[71.9,6551],[72.2,6632],[72.7,6692],[72.9,6768],[72.9,6825],[72.9,6900],[72.9,6959],[72.9,7029],[72.9,7065],[72.9,7133],[72.9,7185],[72.9,7283],[72.9,7317],[72.9,7402],[72.9,7456],[72.9,7517],[72.9,7545],[72.9,7615],[73.5,7692],[75.3,7762],[75.9,7826],[76,7896],[76.2,7951],[76.2,8001],[76.2,8084],[76.2,8152],[76.2,8178],[76.2,8234],[76.2,8317],[76.2,8385],[76.2,8428],[76.2,8500],[76.2,8558],[76.2,8633],[76.2,8685],[76.2,8758],[76.2,8793],[76.2,8885],[76.2,8950],[76.2,9019],[76.2,9064],[76.2,9102],[76.2,9184],[76.2,9246],[76.2,9301],[76.2,9369],[76.2,9424],[76.2,9467],[76.2,9550],[76.2,9601],[76.2,9683],[76.2,9733],[76.2,9792],[76.2,9884],[76.2,9918],[76.2,9991],[76.2,10067],[76.2,10137],[76.2,10178],[76.2,10257],[76.2,10316],[76.2,10392],[77.8,10451],[78.2,10521],[78.6,10576],[79.7,10651],[79.8,10698],[79.8,10768],[80.4,10834],[80.4,10884],[80.4,10966],[80.4,11003],[80.4,11082],[80.4,11128],[80.4,11184],[80.4,11276],[80.4,11341],[80.4,11378],[80.4,11458],[80.4,11501],[80.4,11559],[80.4,11632],[80.4,11684],[80.4,11751],[80.4,11809],[80.4,11876],[80.4,11935],[80.4,12027],[80.4,12058],[80.4,12118],[80.4,12176],[80.4,12250],[80.4,12308],[80.4,12375],[80.4,12425],[80.4,12492],[80.4,12574],[80.4,12642],[80.4,12678],[80.4,12732],[80.4,12784],[80.4,12851],[80.4,12942],[80.4,13017],[80.4,13045],[82.6,13142],[83,13203],[83,13266],[83,13300],[83,13391],[83,13428],[83,13486],[83,13567],[83,13617],[83,13700],[83,13750],[83,13809],[83,13901],[83,13959],[83,14009],[83,14058],[83,14150],[83,14185],[83,14258]]",1,0,368.6373,374.0874,68.46449264,3.0161,"[{""rating"":82.53019174924698,""responseTime"":1.501699999988091},{""rating"":68.46449263877147,""responseTime"":3.016099999994026}]",space,4.8446,,374.0875,All the time,100,374.0958,,,[],,0,4,4,4,1,audio/Narrative7Situation4.wav,audio/Narrative8Situation4.wav,audio/Narrative5Situation4.wav,audio/Narrative6Situation4.wav,3,3,1,2,,,,,,,,,,,,,,,,,,,,,,,,,,,,,,,,,,,,,,,
,,,,,,5ea89d0c5a0a9c12978f8263,2024-05-13_12h32.18.901,group3.1-3.2-social-tom,2023.2.2,Linux x86_64,30.03003003,65c5074098b851296ff0b7ed,664231c946ca20fbe6114772,,,,,,,,,,,,,,,,,,,,,,,,,,,,,374.0959,1,audio/Narrative8Situation5.wav,376.1126,,376.1127,384.397,"[[999,0],[999,80],[999,125],[999,209],[999,276],[999,317],[999,407],[999,466],[999,540],[999,577],[999,640],[999,692],[999,759],[999,842],[58.4,904],[57.5,959],[57.5,1020],[57.5,1060],[57.4,1141],[56.5,1201],[54.4,1274],[52.4,1334],[51.7,1407],[51.7,1467],[51.2,1529],[50.8,1586],[50.4,1655],[50.4,1708],[50.4,1775],[50.4,1811],[50.1,1907],[50.1,1961],[50.1,2007],[50.1,2058],[50.1,2142],[50.1,2195],[50.1,2240],[50.1,2317],[50.1,2367],[50.1,2450],[50.1,2524],[50.1,2583],[50.1,2633],[50.2,2708],[52.5,2777],[53.2,2842],[55.1,2905],[55.7,2960],[57.2,3041],[58,3097],[59.1,3167],[60.4,3234],[61.3,3291],[61.4,3351],[61.7,3426],[61.9,3468],[61.9,3552],[62,3608],[62,3659],[62,3717],[62,3808],[62,3867],[62,3910],[62,3991],[62,4035],[62,4100],[62,4191],[62,4251],[62,4325],[62,4372],[62,4409],[62,4491],[62,4534],[62,4617],[62,4654],[62,4734],[62,4783],[62,4860],[62,4907],[62,4984],[62,5034],[62,5108],[62,5175],[62,5234],[62,5284],[64.3,5358],[64.7,5434],[65.3,5496],[66.2,5576],[67.7,5631],[69.3,5694],[69.8,5767],[70.6,5841],[71.3,5896],[71.6,5968],[71.7,6034],[72.2,6110],[72.3,6168],[72.3,6205],[72.5,6283],[72.5,6351],[72.5,6411],[72.5,6460],[72.5,6541],[72.5,6585],[72.5,6650],[72.5,6717],[72.5,6792],[72.5,6842],[72.5,6918],[72.5,6990],[72.5,7027],[72.5,7117],[72.5,7175],[72.5,7220],[72.5,7300],[72.5,7367],[72.5,7432],[72.5,7507],[72.5,7566],[72.5,7627],[72.5,7668],[72.5,7757],[72.5,7810],[72.5,7859],[72.5,7942],[72.5,7986],[72.5,8044],[72.5,8111],[72.5,8163],[72.5,8257]]",1,0,384.397,388.0551,66.32859007,1.8245,"[{""rating"":66.32859007085071,""responseTime"":1.8245000000000005}]",space,3.0787,,388.0552,Not at all,0,388.0575,,,[],,0,5,5,5,1,audio/Narrative7Situation5.wav,audio/Narrative8Situation5.wav,audio/Narrative5Situation5.wav,audio/Narrative6Situation5.wav,5,2,5,2,,,,,,,,,,,,,,,,,,,,,,,,,,,,,,,,,,,,,,,
,,,,,,5ea89d0c5a0a9c12978f8263,2024-05-13_12h32.18.901,group3.1-3.2-social-tom,2023.2.2,Linux x86_64,30.03003003,65c5074098b851296ff0b7ed,664231c946ca20fbe6114772,,,,,,,,,,,,,,,,,,,,,,,,,,,,,388.0577,1,audio/Narrative8Situation6.wav,390.0638,,390.0638,396.6236,"[[66.2,1677],[66.2,1750],[66.2,1792],[66.2,1882],[66.2,1942],[66.2,1991],[66.2,2068],[66.2,2105],[66.2,2183],[66.2,2257],[66.2,2316],[66.2,2390],[66.2,2426],[66.2,2490],[66.2,2541],[66.2,2608],[66.2,2691],[66.2,2741],[66.2,2817],[66.2,2891],[66.2,2927],[66.2,3023],[66.2,3083],[66.2,3121],[66.2,3199],[66.2,3243],[66.2,3325],[66.2,3392],[66.2,3451],[66.2,3525],[66.2,3584],[66.2,3621],[66.2,3700],[66.2,3749],[66.2,3796],[66.2,3890],[66.2,3949],[66.2,3993],[66.2,4075],[66.2,4118],[66.2,4207],[66.2,4252],[66.2,4317],[66.2,4384],[66.2,4442],[66.2,4526],[66.2,4591],[66.2,4641],[66.2,4716],[66.2,4760],[66.2,4842],[66.2,4892],[66.2,4975],[66.2,5036],[66.2,5064],[66.2,5157],[66.2,5193],[66.2,5276],[66.2,5341],[66.2,5391],[66.2,5444],[66.2,5533],[66.2,5592],[66.2,5642],[66.2,5717],[66.2,5767],[66.2,5841],[66.2,5891],[66.2,5949],[66.2,6040],[66.2,6099],[66.2,6142],[66.2,6195],[66.2,6290],[66.2,6349],[66.2,6392],[66.2,6458],[66.2,6549]]",1,0,396.6238,400.4322,68.82915748,2.3668,"[{""rating"":68.82915747675234,""responseTime"":2.3668000000118923}]",space,3.2191,,400.4322,Not at all,0,400.4334,,,[],,0,6,6,6,1,audio/Narrative7Situation6.wav,audio/Narrative8Situation6.wav,audio/Narrative5Situation6.wav,audio/Narrative6Situation6.wav,3,2,3,2,,,,,,,,,,,,,,,,,,,,,,,,,,,,,,,,,,,,,,,
,,,,,,5ea89d0c5a0a9c12978f8263,2024-05-13_12h32.18.901,group3.1-3.2-social-tom,2023.2.2,Linux x86_64,30.03003003,65c5074098b851296ff0b7ed,664231c946ca20fbe6114772,,,,,,,,,,,,,,,,,,,,,,,,,,,,,400.4336,1,audio/Narrative8Situation7.wav,403.4406,,403.4407,415.5405,"[[999,0],[999,91],[999,133],[999,206],[999,249],[999,300],[999,375],[999,433],[999,491],[999,557],[57.1,609],[53.7,669],[51.8,726],[51.4,783],[51.3,842],[50.9,902],[49.7,967],[49.5,1019],[49.5,1081],[49.5,1134],[49.8,1192],[49.8,1251],[49.9,1309],[49.9,1367],[49.9,1425],[49.9,1453],[49.9,1531],[49.9,1590],[49.9,1623],[50,1700],[50,1759],[50,1825],[50,1883],[50,1947],[50,1982],[50,2056],[50,2090],[50,2165],[50,2223],[50,2276],[50,2332],[50,2390],[50,2424],[50,2505],[50,2558],[50,2617],[50,2675],[50,2708],[50,2783],[50.4,2842],[53,2908],[54,2969],[54.7,3041],[55.4,3099],[56.7,3153],[57.2,3209],[57.7,3275],[57.9,3333],[58.4,3387],[59,3449],[59.5,3503],[60.3,3566],[61.1,3620],[61.6,3682],[62.1,3736],[62.4,3799],[62.8,3852],[62.9,3908],[63.5,3975],[63.6,4041],[63.8,4100],[64.1,4153],[64.2,4216],[65.2,4270],[65.6,4332],[66,4385],[66.5,4449],[66.5,4508],[66.5,4567],[66.5,4600],[66.5,4649],[66.5,4724],[66.5,4782],[66.5,4840],[66.5,4900],[66.5,4940],[66.5,4991],[66.5,5049],[66.5,5123],[66.5,5182],[66.5,5216],[66.5,5265],[66.5,5341],[66.5,5399],[66.5,5451],[66.5,5483],[66.5,5557],[66.5,5600],[66.5,5673],[66.5,5716],[66.5,5766],[66.5,5824],[66.5,5875],[66.5,5933],[66.5,6015],[66.5,6049],[66.5,6125],[66.5,6166],[66.5,6210],[66.5,6291],[66.5,6348],[66.5,6400],[66.5,6432],[66.5,6507],[66.5,6566],[66.5,6600],[66.5,6675],[66.5,6733],[66.5,6767],[66.5,6849],[66.5,6907],[66.5,6949],[66.5,7018],[66.5,7057],[66.5,7133],[66.5,7191],[66.5,7225],[66.6,7300],[68.5,7367],[69,7426],[70.3,7483],[72.5,7542],[72.8,7599],[73.5,7660],[73.8,7716],[74.5,7775],[74.6,7834],[74.6,7893],[74.6,7949],[74.6,8008],[74.6,8050],[74.6,8124],[74.6,8183],[74.6,8241],[74.6,8308],[74.6,8350],[74.6,8425],[74.6,8449],[74.6,8523],[74.6,8566],[74.6,8609],[74.6,8690],[74.6,8725],[74.6,8807],[74.6,8840],[74.6,8892],[74.6,8950],[74.6,9024],[74.6,9082],[74.6,9116],[74.6,9166],[74.6,9242],[74.6,9307],[74.6,9341],[74.6,9399],[74.6,9474],[74.6,9516],[74.6,9559],[74.6,9642],[74.6,9707],[74.6,9765],[74.6,9800],[74.6,9869],[74.6,9907],[74.6,9958],[74.6,10016],[74.6,10074],[74.6,10125],[74.6,10200],[74.6,10240],[74.6,10316],[74.6,10350],[74.6,10425],[74.6,10483],[74.6,10524],[74.6,10575],[74.6,10650],[74.6,10709],[74.6,10736],[74.6,10816],[74.6,10849],[74.6,10923],[74.6,10966],[74.6,11009],[74.6,11066],[74.6,11117],[74.6,11175],[74.6,11250],[74.6,11283],[74.6,11366],[74.6,11399],[74.6,11444],[74.6,11499],[74.6,11574],[74.6,11616],[74.6,11659],[74.6,11717],[74.6,11792],[74.6,11820],[74.6,11899],[74.6,11958],[74.6,12016],[74.6,12050]]",1,0,415.5406,420.8496,66.17230088,1.9345,"[{""rating"":66.17230088184249,""responseTime"":1.934500000000014}]",space,4.7093,,420.8496,Not at all,0,420.8569,,,[],,0,7,7,7,1,audio/Narrative7Situation7.wav,audio/Narrative8Situation7.wav,audio/Narrative5Situation7.wav,audio/Narrative6Situation7.wav,5,3,4,5,,,,,,,,,,,,,,,,,,,,,,,,,,,,,,,,,,,,,,,
,,,,,,5ea89d0c5a0a9c12978f8263,2024-05-13_12h32.18.901,group3.1-3.2-social-tom,2023.2.2,Linux x86_64,30.03003003,65c5074098b851296ff0b7ed,664231c946ca20fbe6114772,,,,,,,,,,,,,,,,,,,,,,,,,,,,,420.8571,1,audio/Narrative8Situation8.wav,423.8758,,423.8759,436.7582,"[[65.4,576],[65.1,653],[65.1,708],[65.5,773],[65.9,840],[65.9,906],[65.9,965],[65.9,997],[65.9,1072],[65.9,1131],[65.9,1165],[65.9,1224],[65.9,1299],[65.9,1357],[65.9,1398],[65.9,1473],[65.9,1524],[65.9,1552],[65.9,1607],[65.9,1682],[65.9,1740],[65.9,1785],[65.9,1840],[65.9,1874],[65.9,1957],[65.9,2015],[65.9,2064],[65.9,2140],[65.9,2198],[65.9,2257],[65.9,2315],[65.9,2373],[65.9,2431],[65.9,2490],[65.9,2548],[65.9,2600],[65.9,2632],[65.9,2706],[65.9,2758],[65.9,2798],[65.9,2865],[65.9,2898],[65.9,2974],[65.9,3031],[65.9,3090],[65.9,3148],[65.9,3207],[65.9,3248],[65.9,3325],[65.9,3390],[65.9,3419],[65.9,3498],[65.9,3556],[65.9,3619],[65.9,3648],[65.9,3724],[65.9,3783],[65.9,3823],[65.9,3899],[65.9,3957],[65.9,3998],[65.9,4065],[65.9,4098],[65.9,4172],[65.9,4214],[65.9,4265],[65.9,4316],[65.9,4398],[65.9,4450],[65.9,4507],[65.9,4573],[65.9,4632],[65.9,4690],[65.9,4748],[65.9,4807],[65.9,4848],[65.9,4898],[65.9,4973],[65.9,5015],[65.9,5065],[65.9,5140],[65.9,5198],[65.9,5251],[65.9,5298],[65.9,5373],[65.9,5415],[65.9,5489],[65.9,5524],[65.9,5575],[65.9,5650],[65.9,5707],[65.9,5748],[65.9,5808],[65.9,5889],[65.9,5941],[70.1,6006],[71.4,6066],[74.3,6120],[76,6175],[76,6214],[76,6255],[76.1,6332],[76.1,6390],[76.1,6449],[76.1,6490],[76.1,6565],[76.1,6623],[76.1,6675],[76.1,6740],[76.1,6798],[76.1,6832],[76.1,6890],[76.1,6965],[76.1,6999],[76.1,7073],[76.1,7125],[76.1,7165],[76.1,7242],[76.1,7270],[76.1,7348],[76.1,7382],[76.1,7440],[76.1,7491],[76.1,7566],[76.1,7598],[76.1,7672],[76.1,7715],[76.1,7792],[76.1,7859],[76.1,7915],[74,7975],[73.7,8034],[73.7,8092],[73.7,8120],[73.7,8199],[73.7,8257],[73.7,8291],[73.7,8342],[73.9,8425],[74.1,8484],[74.1,8531],[74.1,8582],[74.1,8634],[74.1,8715],[74.1,8748],[74.1,8824],[74.1,8865],[74.1,8941],[74.1,8969],[74.1,9048],[74.1,9082],[74.1,9141],[74.1,9216],[74.1,9264],[74.1,9315],[74.1,9360],[74.1,9415],[74.1,9466],[74.1,9548],[74.1,9606],[74.1,9665],[74.1,9715],[74.1,9758],[74.1,9809],[74.1,9866],[74.1,9924],[74.1,9975],[74.1,10057],[74.1,10091],[74.1,10167],[74.1,10200],[74.1,10258],[74.1,10309],[74.1,10373],[74.1,10424],[74.1,10500],[74.1,10540],[74.1,10625],[74.1,10665],[74.1,10740],[74.1,10792],[74.1,10857],[74.1,10909],[74.1,10967],[74.1,11001],[74.1,11058],[74.1,11109],[74.1,11173],[74.1,11249],[74.1,11283],[74.1,11340],[74.1,11391],[74.1,11466],[74.1,11506],[74.1,11582],[74.1,11615],[74.1,11691],[74.1,11732],[74.1,11782],[74.1,11833],[74.1,11890],[74.1,11942],[74.1,12024],[74.1,12084],[74.1,12131],[74.1,12199],[74.1,12257],[74.1,12315],[74.1,12375],[74.1,12414],[74.1,12481],[74.1,12525],[74.1,12606],[74.1,12658],[74.1,12715],[74.1,12782],[74.1,12840],[74.1,12882]]",1,0,436.7583,439.6683,63.82802266,1.6196,"[{""rating"":63.82802266494904,""responseTime"":1.6195999999940796}]",space,2.3247,,439.6684,All the time,100,439.6705,,,[],,0,8,8,8,1,audio/Narrative7Situation8.wav,audio/Narrative8Situation8.wav,audio/Narrative5Situation8.wav,audio/Narrative6Situation8.wav,2,3,3,5,,,,,,,,,,,,,,,,,,,,,,,,,,,,,,,,,,,,,,,
,,,,,,5ea89d0c5a0a9c12978f8263,2024-05-13_12h32.18.901,group3.1-3.2-social-tom,2023.2.2,Linux x86_64,30.03003003,65c5074098b851296ff0b7ed,664231c946ca20fbe6114772,,,,,,,,,,,,,,,,,,,,,,,,,,,,,439.6706,1,audio/Narrative8Situation9.wav,442.6931,,442.6931,454.0439,"[[63.6,534],[59,593],[56.2,649],[56.2,716],[56.2,769],[56.1,826],[55.9,891],[55.9,957],[55.9,991],[56,1075],[57.4,1134],[60.4,1199],[61,1259],[62.8,1316],[63.3,1376],[63.5,1432],[63.8,1491],[63.8,1550],[64.3,1608],[65.1,1667],[65.2,1726],[65.7,1785],[65.8,1849],[65.9,1909],[66.1,1966],[66.7,2025],[66.9,2084],[66.9,2143],[67.3,2203],[67.5,2266],[67.6,2318],[67.6,2349],[67.6,2425],[67.6,2490],[67.6,2531],[67.6,2583],[67.6,2641],[67.6,2692],[67.6,2773],[67.6,2815],[67.6,2889],[67.6,2931],[67.6,3008],[67.6,3065],[67.6,3117],[67.6,3183],[67.6,3215],[67.6,3291],[67.6,3350],[67.6,3384],[67.6,3465],[67.6,3498],[67.6,3574],[67.6,3615],[67.6,3691],[67.6,3715],[67.6,3789],[67.6,3842],[67.6,3901],[67.6,3958],[67.6,4015],[67.6,4074],[67.6,4132],[67.6,4164],[67.6,4242],[67.6,4281],[67.6,4331],[67.6,4400],[67.6,4458],[67.6,4515],[67.6,4567],[67.6,4601],[67.6,4682],[67.6,4715],[67.6,4789],[67.6,4831],[67.6,4875],[67.6,4933],[67.6,5008],[67.6,5067],[67.6,5100],[67.6,5182],[67.6,5240],[67.6,5293],[67.6,5331],[67.6,5408],[67.6,5436],[67.6,5515],[67.6,5574],[67.6,5614],[67.6,5690],[67.6,5731],[67.6,5783],[67.6,5858],[67.6,5916],[67.6,5950],[67.6,6008],[67.6,6083],[67.6,6131],[67.6,6175],[67.6,6233],[67.6,6308],[67.6,6342],[67.6,6417],[67.6,6476],[67.6,6531],[67.6,6583],[67.6,6615],[67.6,6690],[67.6,6731],[67.6,6799],[67.6,6858],[67.6,6916],[67.6,6974],[67.6,7008],[67.6,7060],[67.6,7141],[67.6,7181],[67.6,7257],[67.6,7291],[67.6,7366],[67.6,7407],[67.6,7458],[67.6,7516],[67.6,7590],[67.6,7631],[67.6,7682],[67.6,7741],[67.6,7792],[67.6,7875],[67.6,7909],[67.6,7967],[67.6,8024],[67.6,8075],[67.6,8126],[67.6,8191],[67.6,8242],[67.6,8300],[67.6,8357],[67.6,8408],[67.6,8466],[67.6,8517],[67.6,8598],[67.6,8631],[67.6,8690],[67.6,8766],[67.6,8801],[67.6,8858],[67.6,8933],[67.6,8967],[67.6,9025],[67.6,9106],[67.6,9148],[67.6,9216],[67.6,9274],[67.6,9333],[67.6,9391],[67.6,9449],[67.6,9508],[67.6,9548],[67.6,9600],[67.6,9658],[67.6,9742],[67.6,9800],[67.6,9859],[67.6,9924],[67.6,9982],[67.6,10035],[67.6,10069],[67.6,10149],[67.6,10207],[67.6,10248],[67.6,10300],[67.6,10351],[67.6,10433],[67.6,10491],[67.6,10531],[67.6,10607],[67.6,10648],[67.6,10692],[67.6,10767],[67.6,10825],[67.6,10859],[67.6,10910],[67.6,10974],[67.6,11025],[67.6,11076],[67.6,11133],[67.6,11208],[67.6,11260],[67.6,11324]]",1,0,454.0439,457.2008,67.68306657,1.5394,"[{""rating"":67.68306656647367,""responseTime"":1.539400000005969}]",space,2.5423,,457.2008,Not at all,0,457.2031,,,[],,0,9,9,9,1,audio/Narrative7Situation9.wav,audio/Narrative8Situation9.wav,audio/Narrative5Situation9.wav,audio/Narrative6Situation9.wav,2,3,3,4,,,,,,,,,,,,,,,,,,,,,,,,,,,,,,,,,,,,,,,
,,,,,,5ea89d0c5a0a9c12978f8263,2024-05-13_12h32.18.901,group3.1-3.2-social-tom,2023.2.2,Linux x86_64,30.03003003,65c5074098b851296ff0b7ed,664231c946ca20fbe6114772,,,,,,,,,,,,,,,,,,,,,,,,,,,,,457.2031,1,audio/Narrative7Situation1.wav,459.2121,,459.2121,515.1578,"[[67.6,10783],[64.2,10849],[63.9,10902],[63.9,10965],[63.8,11018],[63.3,11082],[63.3,11135],[63.3,11191],[63.3,11219],[63.3,11298],[63.3,11332],[63.3,11407],[63.3,11465],[63.3,11524],[63.3,11563],[63.3,11609],[63.3,11690],[63.3,11718],[63.3,11798],[63.3,11832],[63.3,11907],[63.3,11946],[63.3,12022],[63.3,12063],[63.3,12132],[63.3,12173],[63.3,12249],[63.3,12283],[63.3,12357],[63.3,12396],[63.3,12449],[63.3,12531],[63.3,12589],[63.3,12629],[63.3,12708],[63.3,12766],[63.3,12813],[63.3,12858],[63.3,12940],[63.3,12974],[63.3,13049],[63.3,13114],[63.3,13146],[63.3,13223],[63.3,13263],[63.3,13316],[63.3,13391],[63.3,13425],[63.3,13499],[63.3,13539],[63.3,13591],[63.3,13672],[63.3,13713],[63.3,13758],[63.3,13840],[63.3,13874],[63.3,13949],[63.3,13989],[63.3,14041],[63.3,14098],[63.3,14173],[63.3,14213],[63.3,14266],[63.3,14323],[63.3,14375],[63.3,14449],[63.3,14507],[63.3,14541],[63.3,14599],[63.3,14673],[63.3,14725],[63.3,14762],[63.3,14823],[63.3,14898],[63.3,14957],[63.3,15015],[63.3,15074],[63.3,15113],[63.3,15166],[63.3,15224],[63.3,15299],[63.3,15333],[63.3,15391],[63.3,15466],[63.3,15513],[63.3,15558],[63.3,15616],[63.3,15673],[63.3,15748],[63.3,15807],[63.3,15841],[63.3,15899],[63.3,15974],[63.3,16033],[63.3,16091],[63.3,16148],[63.3,16183],[63.3,16265],[63.3,16296],[63.3,16374],[63.3,16413],[63.3,16477],[63.3,16513],[63.3,16563],[63.3,16641],[63.3,16698],[63.3,16757],[63.3,16815],[63.3,16846],[63.3,16922],[63.3,16962],[63.3,17033],[63.3,17091],[63.3,17125],[63.3,17207],[63.3,17236],[63.3,17315],[63.3,17345],[63.3,17424],[63.3,17483],[63.3,17548],[63.3,17580],[63.3,17634],[63.3,17715],[63.3,17746],[63.3,17823],[63.3,17863],[63.3,17933],[63.3,17980],[63.3,18049],[63.3,18113],[63.3,18165],[63.3,18224],[63.3,18263],[63.3,18341],[63.3,18400],[63.3,18464],[63.3,18516],[63.3,18550],[63.3,18632],[63.3,18663],[63.3,18741],[63.3,18798],[63.3,18832],[63.3,18908],[63.3,18965],[63.3,19023],[63.3,19063],[63.3,19116],[63.3,19191],[63.3,19250],[63.3,19290],[63.3,19365],[63.3,19399],[63.3,19474],[63.3,19513],[63.3,19589],[63.3,19629],[63.3,19675],[63.3,19733],[63.3,19790],[63.3,19841],[63.3,19916],[63.3,19974],[63.3,20012],[63.3,20066],[63.3,20140],[63.3,20180],[63.3,20233],[63.3,20308],[63.3,20342],[63.3,20417],[63.3,20457],[63.3,20532],[63.3,20562],[63.3,20641],[63.3,20679],[63.3,20726],[63.3,20784],[63.3,20865],[63.3,20917],[63.3,20976],[63.3,21034],[63.3,21080],[63.3,21158],[63.3,21216],[63.3,21274],[63.3,21308],[63.3,21359],[63.3,21416],[63.3,21498],[63.3,21550],[63.3,21584],[63.3,21642],[63.3,21716],[63.3,21757],[63.3,21832],[63.3,21863],[63.3,21915],[63.3,21990],[63.3,22030],[63.3,22076],[63.3,22150],[63.3,22208],[63.3,22236],[63.3,22315],[63.3,22350],[63.3,22425],[63.3,22463],[63.3,22540],[63.3,22579],[63.3,22633],[63.3,22690],[63.3,22742],[63.3,22825],[63.3,22862],[63.3,22917],[63.3,22999],[63.3,23029],[63.3,23082],[63.3,23157],[63.3,23191],[63.3,23243],[63.3,23323],[63.3,23357],[63.3,23415],[63.3,23490],[63.3,23530],[63.3,23582],[63.3,23658],[63.3,23692],[63.3,23743],[63.3,23824],[63.3,23882],[63.3,23912],[63.3,23992],[63.3,24030],[63.3,24079],[63.3,24129],[63.3,24179],[63.3,24258],[63.3,24317],[63.3,24374],[63.3,24432],[63.3,24463],[63.3,24542],[63.3,24579],[63.3,24658],[63.3,24687],[63.3,24765],[63.3,24823],[63.3,24875],[63.3,24909],[63.3,24991],[63.3,25030],[63.3,25079],[63.3,25158],[63.3,25192],[63.3,25250],[63.3,25325],[63.3,25353],[63.3,25408],[63.3,25459],[63.3,25517],[63.3,25574],[63.3,25649],[63.3,25679],[63.3,25759],[63.3,25817],[63.3,25851],[63.3,25932],[63.5,25967],[66.2,26051],[66.3,26110],[67,26176],[67.6,26242],[68.4,26302],[69.2,26367],[69.6,26420],[70,26476],[71,26533],[71.4,26592],[71.8,26658],[72.1,26718],[72.2,26784],[72.2,26842],[72.2,26879],[72.2,26935],[72.2,26992],[72.2,27043],[72.2,27100],[72.2,27158],[72.2,27232],[72.2,27266],[72.2,27324],[72.2,27375],[72.2,27433],[72.2,27508],[72.2,27546],[72.2,27608],[72.2,27683],[72.2,27742],[72.2,27763],[72.2,27839],[72.2,27880],[72.2,27949],[72.2,27979],[72.2,28058],[72.2,28096],[72.2,28150],[72.2,28207],[72.2,28258],[72.2,28333],[72.2,28367],[72.2,28425],[72.2,28500],[72.2,28546],[72.2,28599],[72.2,28650],[72.2,28708],[72.2,28783],[72.2,28842],[72.2,28870],[72.2,28925],[72.2,28983],[72.2,29066],[72.2,29124],[72.2,29159],[72.2,29234],[72.2,29274],[72.2,29325],[72.2,29383],[72.2,29458],[72.2,29517],[72.2,29551],[72.2,29609],[72.2,29683],[72.2,29742],[72.2,29800],[72.2,29859],[72.2,29924],[72.2,29982],[72.2,30013],[72.2,30092],[72.2,30129],[72.2,30200],[72.2,30246],[72.2,30292],[72.2,30367],[72.2,30424],[72.2,30463],[72.2,30534],[72.2,30591],[72.2,30629],[72.2,30707],[72.2,30746],[72.2,30800],[72.2,30875],[72.2,30933],[72.2,30991],[72.2,31050],[72.2,31108],[72.2,31146],[72.2,31209],[72.2,31292],[72.2,31329],[72.2,31408],[72.2,31447],[72.2,31525],[72.2,31583],[72.2,31641],[72.2,31700],[72.2,31730],[72.2,31807],[72.2,31846],[72.2,31896],[72.2,31966],[72.2,32043],[72.2,32080],[72.2,32158],[72.2,32196],[72.2,32246],[72.2,32301],[72.2,32359],[72.2,32442],[72.2,32499],[72.2,32529],[72.2,32600],[72.2,32630],[72.2,32708],[72.2,32746],[72.2,32800],[72.2,32858],[72.2,32909],[72.2,32991],[72.2,33049],[72.2,33080],[72.2,33159],[72.2,33180],[72.2,33257],[72.2,33310],[72.2,33346],[72.2,33400],[72.2,33451],[72.2,33542],[72.2,33598],[72.2,33629],[72.2,33708],[72.2,33760],[72.2,33796],[72.2,33873],[72.2,33913],[72.2,33984],[72.2,34042],[72.2,34100],[72.2,34130],[72.2,34207],[72.2,34246],[72.2,34324],[72.2,34363],[72.2,34434],[72.2,34492],[72.2,34521],[72.2,34599],[72.2,34629],[72.2,34708],[72.2,34747],[72.2,34825],[72.2,34876],[72.2,34932],[72.2,34983],[72.2,35042],[72.2,35100],[72.2,35158],[72.2,35196],[72.2,35274],[72.2,35313],[72.2,35385],[72.2,35442],[72.2,35476],[72.2,35551],[72.2,35597],[72.2,35643],[72.2,35701],[72.2,35758],[72.2,35833],[72.2,35891],[72.2,35926],[72.2,36000],[72.2,36030],[72.2,36107],[72.2,36147],[72.2,36192],[72.2,36251],[72.2,36326],[72.2,36363],[72.2,36417],[72.2,36468],[72.2,36525],[72.2,36601],[72.2,36634],[72.2,36716],[72.2,36768],[72.2,36796],[72.2,36876],[72.2,36933],[72.2,36968],[72.2,37050],[72.2,37084],[72.2,37159],[72.2,37197],[72.2,37275],[72.2,37313],[72.2,37367],[72.2,37442],[72.2,37500],[72.2,37558],[72.2,37597],[72.2,37667],[72.2,37713],[72.2,37767],[72.2,37842],[72.2,37876],[72.2,37951],[72.2,37991],[72.2,38067],[72.2,38096],[72.2,38175],[72.2,38209],[72.2,38284],[72.2,38318],[72.2,38400],[72.2,38451],[72.2,38509],[72.2,38546],[72.2,38625],[72.2,38684],[72.2,38725],[72.2,38799],[72.2,38834],[72.2,38892],[72.2,38943],[72.2,39001],[72.2,39075],[72.2,39113],[72.2,39168],[72.2,39226],[72.2,39277],[72.2,39359],[72.2,39387],[72.2,39442],[72.2,39517],[72.2,39563],[72.2,39610],[72.2,39693],[72.2,39726],[72.2,39778],[72.2,39859],[72.2,39893],[72.2,39968],[72.2,40008],[72.2,40060],[72.2,40114],[72.2,40175],[72.2,40226],[72.2,40284],[72.2,40359],[72.2,40411],[72.2,40446],[72.2,40526],[72.2,40563],[72.2,40625],[72.2,40700],[72.2,40759],[72.2,40793],[72.2,40868],[72.2,40913],[72.2,40963],[72.2,41042],[72.2,41101],[72.2,41150],[72.2,41226],[72.2,41263],[72.2,41314],[72.2,41393],[72.2,41421],[72.2,41500],[72.2,41534],[72.2,41609],[72.2,41637],[72.2,41692],[72.2,41743],[72.2,41802],[72.2,41877],[72.2,41913],[72.2,41975],[72.2,42027],[72.2,42102],[72.2,42133],[72.2,42191],[72.2,42243],[72.2,42301],[72.2,42376],[72.2,42414],[72.2,42493],[72.2,42550],[72.2,42603],[72.2,42637],[72.2,42717],[72.2,42746],[73.9,42824],[75,42863],[75.2,42942],[75.2,43001],[75.2,43041],[75,43118],[75,43163],[75,43242],[75,43276],[75,43351],[75,43392],[75,43468],[75,43513],[75,43559],[75,43635],[75,43693],[75,43752],[75,43792],[75,43867],[75,43897],[74.7,43977],[74.4,44035],[72.7,44100],[72.7,44153],[72.7,44187],[72.7,44275],[72.7,44313],[72.7,44392],[72.7,44450],[72.7,44485],[72.7,44560],[72.7,44588],[72.7,44667],[72.7,44724],[72.7,44763],[72.7,44834],[72.7,44864],[72.8,44942],[72.8,45001],[72.8,45035],[72.8,45117],[72.8,45151],[72.8,45226],[72.8,45264],[72.8,45342],[72.8,45394],[72.8,45459],[72.8,45493],[72.8,45562],[72.8,45590],[72.8,45667],[72.8,45725],[72.8,45777],[72.8,45813],[72.8,45894],[72.8,45951],[72.8,46009],[72.8,46068],[72.8,46102],[72.8,46176],[72.8,46214],[72.8,46292],[72.8,46350],[72.8,46402],[72.8,46442],[72.8,46518],[72.8,46576],[72.8,46634],[72.8,46663],[72.8,46741],[72.8,46780],[72.8,46834],[72.8,46885],[72.8,46946],[72.8,46994],[72.8,47075],[72.8,47113],[73.2,47192],[73.4,47230],[73.4,47285],[73.4,47343],[73.4,47418],[73.4,47475],[73.4,47513],[73.4,47567],[73.4,47650],[73.4,47709],[73.4,47767],[73.4,47801],[73.4,47876],[73.4,47913],[73.4,47992],[73.4,48030],[73.4,48109],[73.4,48143],[73.4,48218],[73.4,48259],[73.4,48310],[73.4,48368],[73.4,48443],[73.4,48480],[73.4,48534],[73.4,48585],[73.4,48643],[73.4,48725],[73.4,48776],[73.4,48810],[73.4,48862],[73.4,48943],[73.4,48980],[73.4,49036],[73.4,49093],[73.4,49145],[73.4,49226],[73.4,49260],[73.4,49318],[73.4,49369],[73.4,49430],[73.4,49480],[73.4,49535],[73.4,49617],[73.4,49647],[73.4,49726],[73.4,49760],[73.4,49835],[73.4,49893],[73.4,49930],[73.4,49980],[73.4,50034],[73.4,50110],[73.4,50144],[73.4,50219],[73.4,50253],[73.4,50310],[73.4,50362],[73.4,50443],[73.4,50480],[73.4,50530],[73.4,50586],[73.4,50643],[73.4,50695],[73.4,50776],[73.4,50804],[73.4,50860],[73.4,50918],[73.4,51001],[73.4,51030],[73.4,51110],[73.4,51138],[73.4,51217],[73.4,51252],[73.4,51327],[73.4,51384],[73.4,51414],[73.4,51493],[73.4,51560],[73.4,51594],[73.4,51647],[73.4,51702],[73.4,51760],[73.4,51835],[73.4,51893],[73.4,51951],[73.4,51980],[73.4,52060],[73.4,52118],[73.4,52176],[73.4,52204],[73.4,52260],[73.4,52311],[73.4,52369],[73.4,52426],[73.4,52501],[73.4,52530],[73.4,52610],[73.4,52638],[73.4,52717],[73.4,52751],[73.4,52826],[73.4,52860],[73.4,52918],[73.4,52992],[73.4,53030],[73.4,53101],[73.4,53147],[73.4,53193],[73.4,53269],[73.4,53309],[73.4,53364],[73.4,53419],[73.4,53476],[73.4,53534],[73.4,53586],[73.4,53642],[73.4,53718],[73.4,53776],[73.4,53810],[73.4,53885],[73.4,53919],[73.4,53977],[73.4,54034],[73.4,54109],[73.4,54146],[73.4,54194],[73.4,54277],[73.4,54335],[73.4,54369],[73.4,54444],[73.4,54480],[73.4,54559],[73.4,54597],[73.4,54651],[73.4,54702],[73.4,54759],[73.4,54835],[73.4,54901],[73.4,54959],[73.4,54997],[73.4,55052],[73.4,55109],[73.4,55184],[73.4,55243],[73.4,55303],[73.4,55347],[73.4,55426],[73.4,55484],[73.4,55536],[73.4,55594],[73.4,55630],[73.4,55701],[73.4,55730],[73.4,55810],[73.4,55847],[73.4,55919]]",1,0,515.1581,517.5644,68.46449264,1.057,"[{""rating"":68.46449263877147,""responseTime"":1.0570000000000164}]",space,1.834,,517.5644,Half the time,50,517.5664,,,[],,0,10,10,10,1,audio/Narrative8Situation1.wav,audio/Narrative7Situation1.wav,audio/Narrative6Situation1.wav,audio/Narrative5Situation1.wav,5,2,2,5,,,,,,,,,,,,,,,,,,,,,,,,,,,,,,,,,,,,,,,
,,,,,,5ea89d0c5a0a9c12978f8263,2024-05-13_12h32.18.901,group3.1-3.2-social-tom,2023.2.2,Linux x86_64,30.03003003,65c5074098b851296ff0b7ed,664231c946ca20fbe6114772,,,,,,,,,,,,,,,,,,,,,,,,,,,,,517.5665,1,audio/Narrative7Situation2.wav,520.5732,,520.5732,528.0906,[],1,0,528.0907,531.0063,57.00354379,1.2888,"[{""rating"":57.003543790498156,""responseTime"":1.288800000011861}]",space,2.3182,,531.0064,Not at all,0,531.0088,,,[],,0,11,11,11,1,audio/Narrative8Situation2.wav,audio/Narrative7Situation2.wav,audio/Narrative6Situation2.wav,audio/Narrative5Situation2.wav,3,3,3,3,,,,,,,,,,,,,,,,,,,,,,,,,,,,,,,,,,,,,,,
,,,,,,5ea89d0c5a0a9c12978f8263,2024-05-13_12h32.18.901,group3.1-3.2-social-tom,2023.2.2,Linux x86_64,30.03003003,65c5074098b851296ff0b7ed,664231c946ca20fbe6114772,,,,,,,,,,,,,,,,,,,,,,,,,,,,,531.009,1,audio/Narrative7Situation3.wav,539.0164,,539.0164,548.3334,"[[58,2374],[59.9,2433],[60,2499],[60,2543],[60.2,2616],[60.7,2669],[60.8,2725],[60.8,2790],[61.1,2851],[61.9,2909],[62.7,2966],[62.9,3026],[63.5,3082],[64.9,3143],[65.7,3199],[65.7,3258],[66.4,3317],[66.6,3376],[66.8,3432],[67,3492],[67.1,3549],[67.1,3593],[67.1,3635],[67.1,3715],[67.1,3774],[67.1,3808],[67.2,3885],[68.2,3949],[68.7,4003],[69.3,4067],[69.9,4132],[69.9,4186],[71.1,4249],[71.1,4309],[71.1,4343],[71.1,4415],[71.1,4473],[71.1,4532],[71.1,4566],[71.1,4624],[71.1,4699],[71.1,4727],[71.1,4806],[71.1,4858],[71.1,4916],[71.1,4974],[71.1,5032],[71.1,5060],[71.1,5115],[71.1,5166],[71.1,5224],[71.1,5283],[71.1,5340],[71.1,5416],[71.1,5474],[71.1,5508],[71.1,5590],[71.1,5648],[71.1,5676],[71.1,5758],[71.1,5816],[71.1,5844],[71.1,5899],[71.1,5974],[71.1,6032],[71.1,6084],[71.1,6142],[71.1,6170],[71.1,6249],[71.1,6277],[71.1,6356],[71.1,6408],[71.1,6443],[71.1,6524],[71.1,6582],[71.1,6640],[71.1,6699],[71.1,6727],[71.1,6808],[71.1,6865],[71.1,6893],[71.1,6974],[71.1,7032],[71.1,7091],[71.1,7127],[71.1,7182],[71.1,7258],[71.1,7317],[71.1,7375],[71.1,7439],[71.1,7491],[71.1,7519],[71.1,7599],[71.1,7626],[71.1,7708],[71.1,7743],[71.1,7824],[71.1,7882],[71.1,7934],[71.1,7966],[71.1,8041],[71.1,8092],[71.1,8126],[71.1,8208],[71.1,8243],[71.2,8282],[73.7,8367],[73.7,8410],[74.6,8484],[74.8,8550],[75.1,8609],[75.1,8665],[75.1,8717],[75.1,8760],[75.1,8816],[75.1,8891],[75.1,8926],[75.1,9000],[75.1,9034],[75.1,9123],[75.1,9182],[75.1,9210],[75.1,9282],[75.1,9316]]",1,0,548.3336,555.1759,74.97639314,1.6658,"[{""rating"":74.97639313520595,""responseTime"":1.6658000000119273}]",space,6.2682,,555.1759,All the time,100,555.1841,,,[],,0,12,12,12,1,audio/Narrative8Situation3.wav,audio/Narrative7Situation3.wav,audio/Narrative6Situation3.wav,audio/Narrative5Situation3.wav,4,8,5,3,,,,,,,,,,,,,,,,,,,,,,,,,,,,,,,,,,,,,,,
,,,,,,5ea89d0c5a0a9c12978f8263,2024-05-13_12h32.18.901,group3.1-3.2-social-tom,2023.2.2,Linux x86_64,30.03003003,65c5074098b851296ff0b7ed,664231c946ca20fbe6114772,,,,,,,,,,,,,,,,,,,,,,,,,,,,,555.1842,1,audio/Narrative7Situation4.wav,558.208,,558.208,569.9921,"[[999,0],[999,80],[999,134],[999,169],[999,251],[999,308],[999,367],[999,427],[999,485],[999,543],[999,609],[999,660],[999,691],[999,743],[999,825],[999,883],[999,918],[999,999],[999,1051],[999,1109],[999,1150],[999,1226],[64.4,1292],[62.2,1346],[61.2,1402],[61.1,1466],[61.1,1525],[61,1584],[61,1618],[61,1700],[61,1735],[61,1817],[61,1876],[61,1909],[61,1991],[61,2019],[61,2099],[61,2135],[61,2186],[61,2244],[61.1,2325],[61.1,2378],[61.1,2435],[61.1,2469],[61.1,2549],[61.1,2601],[61.1,2660],[61.1,2718],[61.1,2746],[61.1,2800],[61.1,2876],[61.1,2916],[61.5,2967],[62.9,3051],[63.3,3110],[64.7,3176],[65.5,3236],[65.5,3269],[67.6,3342],[68.4,3396],[68.4,3435],[68.4,3508],[68.4,3537],[68.4,3618],[68.4,3646],[68.4,3725],[68.4,3759],[70.6,3835],[72.8,3895],[73.3,3959],[74,4012],[75.1,4076],[75.8,4129],[76.9,4192],[78.6,4246],[79.4,4302],[80.2,4363],[80.2,4402],[80.2,4475],[80.2,4533],[80.2,4561],[80.2,4643],[80.2,4676],[80.2,4758],[80.2,4786],[80.2,4867],[80.2,4926],[80.2,4960],[80.2,5017],[80.2,5099],[80.2,5135],[80.2,5209],[80.2,5236],[80.2,5316],[80.2,5352],[80.2,5401],[80.2,5483],[80.2,5517],[80.2,5592],[80.2,5620],[80.2,5699],[80.2,5735],[80.2,5808],[80.2,5836],[80.2,5918],[80.2,5975],[80.2,6010],[80.2,6091],[80.2,6144],[80.2,6185],[80.2,6258],[80.2,6310],[80.2,6352],[80.2,6409],[80.2,6484],[80.2,6535],[80.2,6600],[80.2,6636],[80.2,6716],[80.2,6768],[80.2,6826],[80.2,6891],[80.2,6943],[80.2,6976],[80.2,7058],[80.2,7086],[80.2,7167],[80.2,7202],[80.2,7260],[80.2,7341],[80.2,7370],[80.2,7451],[80.2,7485],[80.2,7568],[80.2,7626],[80.2,7684],[80.2,7743],[80.2,7801],[80.2,7835],[80.2,7917],[80.2,7952],[80.2,8003],[80.2,8084],[80.2,8112],[80.2,8191],[80.2,8243],[80.2,8283],[80.2,8358],[80.2,8386],[80.2,8467],[80.2,8502],[80.2,8576],[80.2,8617],[80.2,8692],[80.2,8751],[80.2,8785],[80.2,8868],[80.2,8926],[80.2,8984],[80.2,9018],[80.2,9093],[80.2,9127],[80.2,9208],[80.2,9236],[80.2,9317],[80.2,9376],[80.2,9435],[80.2,9492],[80.2,9527],[80.2,9584],[80.2,9642],[80.2,9716],[80.2,9752],[80.2,9809],[80.2,9867],[80.2,9942],[80.2,9976],[80.2,10052],[80.2,10086],[80.2,10168],[80.2,10226],[80.2,10291],[80.2,10343],[80.2,10376],[80.2,10458],[80.2,10492],[80.2,10568],[80.2,10602],[80.2,10667],[80.2,10742],[80.2,10800],[80.2,10836],[80.2,10916],[80.2,10952],[80.2,11009],[80.2,11060],[80.2,11117],[80.2,11192],[80.2,11227],[80.2,11284],[80.2,11335],[80.2,11425],[80.2,11453],[80.2,11510],[80.2,11567],[80.2,11619],[80.2,11676],[80.2,11733]]",1,0,569.9921,574.2086,80.23800993,0.4938,"[{""rating"":80.2380099286896,""responseTime"":0.4937999999821159}]",space,3.6339,,574.2087,Half the time,50,574.2167,,,[],,0,13,13,13,1,audio/Narrative8Situation4.wav,audio/Narrative7Situation4.wav,audio/Narrative6Situation4.wav,audio/Narrative5Situation4.wav,3,3,2,1,,,,,,,,,,,,,,,,,,,,,,,,,,,,,,,,,,,,,,,
,,,,,,5ea89d0c5a0a9c12978f8263,2024-05-13_12h32.18.901,group3.1-3.2-social-tom,2023.2.2,Linux x86_64,30.03003003,65c5074098b851296ff0b7ed,664231c946ca20fbe6114772,,,,,,,,,,,,,,,,,,,,,,,,,,,,,574.2168,1,audio/Narrative7Situation5.wav,579.2182,,579.2182,587.8015,"[[999,6],[999,91],[999,125],[999,176],[999,233],[999,290],[999,366],[999,400],[999,482],[999,525],[999,566],[999,617],[999,674],[999,750],[999,784],[999,842],[999,924],[999,984],[63.6,1043],[63.1,1102],[63.1,1167],[63.1,1209],[63.2,1275],[63.3,1342],[63.3,1401],[63.3,1458],[63.3,1491],[63.3,1573],[63.3,1609],[63.3,1659],[63.3,1740],[63.3,1799],[66.1,1853],[66.9,1909],[67.6,1975],[67.6,2033],[67.6,2092],[67.6,2149],[67.6,2184],[67.6,2265],[67.6,2299],[67.6,2357],[67.6,2409],[67.6,2466],[67.6,2517],[67.6,2574],[67.6,2650],[67.6,2684],[67.6,2766],[67.6,2808],[67.6,2849],[67.6,2909],[67.6,2983],[67.6,3025],[67.6,3066],[67.6,3149],[67.6,3215],[67.6,3250],[67.6,3307],[67.6,3358],[67.6,3440],[67.6,3475],[67.6,3549],[67.6,3577],[67.6,3658],[67.6,3703],[67.6,3742],[67.8,3817],[67.9,3876],[67.9,3934],[67.9,3976],[67.9,4020],[67.9,4099],[67.9,4157],[67.9,4192],[68.2,4275],[68.2,4310],[68.2,4374],[68.2,4450],[68.2,4514],[68.3,4567],[68.4,4633],[68.4,4692],[68.4,4750],[68.4,4784],[68.4,4859],[68.4,4916],[68.4,4950],[68.4,5025],[68.4,5059],[68.4,5117],[68.4,5199],[68.4,5251],[68.4,5284],[68.4,5342],[68.4,5417],[68.4,5474],[68.4,5509],[68.4,5591],[68.4,5649],[68.4,5707],[68.4,5766],[68.4,5824],[68.4,5858],[68.4,5940],[68.4,5975],[68.4,6025],[68.4,6083],[68.4,6134],[68.4,6216],[68.4,6250],[68.4,6308],[68.4,6383],[68.4,6425],[68.4,6483],[68.4,6558],[68.4,6592],[68.4,6667],[68.4,6725],[68.4,6759],[68.4,6835],[68.4,6875],[68.4,6926],[68.4,7007],[68.4,7067],[68.4,7107],[68.4,7159],[68.4,7241],[68.4,7275],[68.4,7333],[68.4,7384],[68.4,7466],[68.4,7524],[68.4,7559],[68.4,7617],[68.4,7698],[68.4,7726],[68.4,7784],[68.4,7866],[68.4,7924],[68.4,7983],[68.4,8010],[68.4,8091],[68.4,8125],[68.4,8206],[68.4,8259],[68.4,8292],[68.4,8343],[68.4,8408],[68.4,8484],[68.4,8525],[68.4,8583]]",1,0,587.8016,590.3352,65.96392523,1.0849,"[{""rating"":65.96392523286984,""responseTime"":1.0849000000059732}]",space,1.9244,,590.3353,Not at all,0,590.3374,,,[],,0,14,14,14,1,audio/Narrative8Situation5.wav,audio/Narrative7Situation5.wav,audio/Narrative6Situation5.wav,audio/Narrative5Situation5.wav,2,5,2,5,,,,,,,,,,,,,,,,,,,,,,,,,,,,,,,,,,,,,,,
,,,,,,5ea89d0c5a0a9c12978f8263,2024-05-13_12h32.18.901,group3.1-3.2-social-tom,2023.2.2,Linux x86_64,30.03003003,65c5074098b851296ff0b7ed,664231c946ca20fbe6114772,,,,,,,,,,,,,,,,,,,,,,,,,,,,,590.3375,1,audio/Narrative7Situation6.wav,593.3608,,593.3609,603.3706,"[[69.9,727],[70.2,791],[70.2,850],[70.2,884],[69.7,966],[68.9,1027],[68.7,1084],[68.7,1116],[68.7,1166],[68.7,1242],[68.6,1300],[68.5,1350],[68.3,1419],[68.3,1474],[68.3,1532],[68.3,1566],[68.3,1617],[68.3,1675],[68.3,1750],[68.3,1800],[68.3,1842],[68.3,1917],[68.3,1975],[68.3,2033],[68.3,2091],[68.3,2150],[68.3,2208],[68.3,2250],[68.3,2317],[68.3,2375],[68.3,2433],[68.3,2467],[68.3,2542],[68.3,2576],[68.3,2650],[68.3,2683],[68.3,2759],[68.3,2800],[68.3,2875],[68.3,2916],[68.3,2983],[68.3,3040],[68.3,3093],[68.3,3149],[68.3,3207],[68.3,3250],[68.3,3317],[68.3,3351],[68.3,3433],[68.3,3467],[68.3,3548],[68.3,3600],[68.3,3659],[68.3,3699],[68.3,3774],[68.3,3801],[68.3,3858],[68.3,3916],[69.2,3999],[70.3,4059],[71.4,4118],[71.7,4177],[72.5,4242],[73.3,4295],[73.6,4358],[73.9,4411],[74.3,4468],[74.8,4528],[75,4591],[75,4620],[75,4700],[75,4733],[75,4808],[75,4849],[75,4900],[75,4958],[75,5033],[75,5067],[75,5118],[75,5200],[75,5234],[75,5308],[75,5349],[75,5424],[75,5466],[75,5533],[75,5566],[75,5617],[75,5692],[75,5733],[75,5807],[75,5866],[75,5900],[75,5976],[75,6034],[75,6067],[75,6117],[75,6192],[75,6241],[75,6317],[75,6375],[75,6409],[75,6491],[75,6543],[75.1,6608],[76,6668],[76.5,6734],[76.9,6800],[77.8,6866],[77.8,6925],[78.2,6984],[78.2,7051],[78.2,7083],[78.2,7133],[78.2,7208],[78.2,7249],[78.2,7301],[78.2,7375],[78.2,7416],[78.2,7467],[78.2,7524],[78.2,7575],[78.2,7657],[78.2,7685],[78.2,7767],[78.2,7824],[78.2,7866],[78.2,7932],[78.2,7966],[78.2,8024],[78.2,8083],[78.2,8158],[78.2,8192],[78.2,8274],[78.2,8316],[78.2,8367],[78.2,8441],[78.2,8500],[78.2,8558],[78.2,8617],[78.2,8675],[78.2,8716],[78.2,8758],[78.2,8808],[78.2,8890],[78.2,8944],[78.2,8982],[78.2,9058],[78.2,9116],[78.2,9150],[78.2,9208],[78.2,9284],[78.2,9342],[78.2,9383],[78.2,9467],[78.2,9526],[78.2,9566],[78.2,9641],[78.2,9699],[78.2,9757],[78.2,9792],[78.2,9867],[78.2,9900],[78.2,9983]]",1,0,603.3707,606.4288,73.51772385,1.1411,"[{""rating"":73.51772384691087,""responseTime"":1.1411000000239255}]",space,2.4996,,606.4289,Not at all,0,606.43,,,[],,0,15,15,15,1,audio/Narrative8Situation6.wav,audio/Narrative7Situation6.wav,audio/Narrative6Situation6.wav,audio/Narrative5Situation6.wav,2,3,2,3,,,,,,,,,,,,,,,,,,,,,,,,,,,,,,,,,,,,,,,
,,,,,,5ea89d0c5a0a9c12978f8263,2024-05-13_12h32.18.901,group3.1-3.2-social-tom,2023.2.2,Linux x86_64,30.03003003,65c5074098b851296ff0b7ed,664231c946ca20fbe6114772,,,,,,,,,,,,,,,,,,,,,,,,,,,,,606.4301,1,audio/Narrative7Situation7.wav,611.4617,,611.4618,628.6731,"[[63.7,3433],[61.5,3500],[60.4,3567],[59.9,3634],[59.8,3700],[59.6,3760],[59.6,3818],[59.6,3849],[59.6,3900],[59.6,3975],[59.6,4016],[59.6,4091],[59.6,4133],[59.6,4201],[59.6,4249],[59.6,4293],[59.6,4351],[59.6,4433],[59.6,4467],[59.6,4549],[59.6,4583],[59.6,4634],[59.6,4716],[59.6,4774],[60,4809],[63.2,4892],[63.9,4946],[64.5,5008],[65.4,5062],[69.4,5125],[69.5,5184],[69.5,5241],[69.5,5299],[69.5,5333],[69.5,5391],[69.5,5467],[69.5,5526],[69.5,5559],[69.5,5617],[69.5,5692],[69.5,5749],[69.5,5783],[69.5,5864],[69.5,5899],[69.5,5951],[69.5,6032],[69.5,6091],[69.5,6119],[69.5,6176],[69.5,6258],[69.5,6300],[69.5,6342],[69.5,6424],[69.5,6476],[69.5,6510],[69.5,6567],[69.5,6636],[69.5,6691],[69.5,6749],[69.5,6783],[69.5,6859],[69.5,6918],[69.5,6983],[69.5,7046],[69.5,7101],[69.5,7133],[69.5,7208],[69.5,7249],[69.5,7317],[69.5,7349],[69.5,7391],[69.5,7442],[69.5,7500],[69.5,7552],[69.5,7616],[69.5,7667],[69.5,7725],[69.5,7800],[69.5,7849],[69.5,7899],[69.5,7951],[69.5,8009],[69.5,8084],[69.5,8116],[69.5,8168],[69.5,8242],[69.5,8299],[69.5,8333],[69.5,8409],[69.5,8450],[69.5,8531],[69.5,8584],[69.5,8618],[69.5,8675],[69.5,8750],[69.5,8784],[69.6,8860],[69.6,8925],[69.7,8984],[69.7,9041],[69.7,9099],[69.7,9158],[69.7,9199],[69.7,9243],[69.7,9318],[69.7,9382],[69.7,9441],[69.7,9469],[69.7,9552],[69.7,9600],[69.7,9650],[69.7,9725],[69.7,9783],[69.7,9816],[69.7,9882],[69.7,9941],[69.7,9976],[69.7,10051],[69.7,10083],[69.7,10158],[69.7,10200],[69.7,10267],[69.7,10299],[69.7,10341],[69.7,10393],[69.7,10474],[69.7,10516],[69.7,10560],[69.7,10618],[69.7,10675],[69.7,10750],[69.7,10784],[69.7,10829],[69.7,10908],[69.7,10950],[69.7,10991],[69.7,11066],[69.7,11100],[69.7,11159],[69.7,11216],[69.7,11268],[69.7,11342],[69.7,11376],[69.7,11467],[69.7,11501],[69.7,11576],[69.7,11610],[69.7,11667],[69.7,11718],[69.7,11775],[69.7,11850],[69.7,11901],[69.7,11932],[69.8,12008],[70,12050],[70,12115],[70,12150],[70,12225],[70,12266],[70,12333],[70,12391],[70,12426],[70,12509],[70,12567],[70,12599],[70,12675],[70,12726],[70,12784],[70,12841],[70,12900],[70,12934],[70,12992],[70,13050],[70,13132],[70,13184],[70,13218],[70,13299],[70,13333],[70,13408],[70,13449],[70,13493],[70,13546],[70,13601],[70,13682],[70,13716],[70,13768],[70,13825],[70,13901],[70,13933],[70,13984],[70,14065],[70,14100],[70,14175],[70,14216],[70,14284],[70,14343],[70,14383],[70,14434],[70,14509],[70,14550],[70,14625],[70,14666],[70,14711],[70,14768],[70,14819],[70,14901],[70.2,14967],[70.3,15026],[70.3,15066],[70.3,15108],[70.3,15159],[70.3,15234],[70.3,15268],[70.3,15351],[70.3,15384],[70.3,15436],[70.3,15494],[70.3,15551],[70.3,15626],[70.3,15667],[70.3,15742],[70.3,15800],[70.3,15834],[70.3,15892],[70.3,15943],[70.3,16001],[70.3,16052],[70.3,16109],[70.3,16167],[70.3,16218],[70.3,16299],[70.3,16358],[70.3,16386],[70.3,16450],[70.3,16526],[70.3,16566],[70.3,16612],[70.3,16692],[70.3,16750],[70.3,16784],[70.3,16842],[70.3,16918],[70.3,16983],[70.3,17018],[70.3,17093],[70.3,17151],[70.3,17185]]",1,0,628.6732,634.3218,67.73516296,2.1072,"[{""rating"":67.73516296280974,""responseTime"":2.1071999999880973}]",space,5.0904,,634.3218,All the time,100,634.3302,,,[],,0,16,16,16,1,audio/Narrative8Situation7.wav,audio/Narrative7Situation7.wav,audio/Narrative6Situation7.wav,audio/Narrative5Situation7.wav,3,5,5,4,,,,,,,,,,,,,,,,,,,,,,,,,,,,,,,,,,,,,,,
,,,,,,5ea89d0c5a0a9c12978f8263,2024-05-13_12h32.18.901,group3.1-3.2-social-tom,2023.2.2,Linux x86_64,30.03003003,65c5074098b851296ff0b7ed,664231c946ca20fbe6114772,,,,,,,,,,,,,,,,,,,,,,,,,,,,,634.3303,1,audio/Narrative7Situation8.wav,636.3471,,636.3472,646.4303,"[[68.1,491],[68.2,567],[68.2,626],[68.2,684],[68.2,714],[68.2,766],[68.2,824],[68.2,875],[68.2,933],[68.2,990],[68.2,1048],[68.2,1100],[65.5,1182],[65.4,1248],[65.4,1307],[65.4,1348],[65.4,1398],[65.4,1464],[65.4,1500],[65.6,1559],[66,1635],[66.2,1691],[66.6,1751],[66.7,1808],[67,1867],[67.2,1927],[68.5,1991],[68.8,2045],[69.4,2101],[69.6,2167],[69.6,2232],[69.6,2290],[69.6,2348],[69.6,2407],[69.6,2447],[69.6,2515],[69.6,2549],[69.6,2631],[69.6,2683],[69.7,2714],[71,2791],[71.2,2851],[73.7,2910],[75.1,2968],[76.3,3024],[76.7,3078],[77,3134],[77.2,3194],[77.3,3250],[77.3,3315],[77.3,3367],[77.3,3415],[77.3,3483],[77.3,3514],[77.3,3566],[77.3,3641],[77.3,3682],[77.3,3757],[77.3,3808],[77.3,3873],[77.3,3914],[77.3,3964],[77.3,4033],[77.3,4091],[77.3,4149],[77.3,4183],[77.3,4241],[77.3,4299],[77.3,4374],[77.3,4432],[77.3,4464],[77.3,4511],[77.3,4590],[77.3,4625],[77.3,4707],[77.3,4747],[77.3,4790],[77.3,4849],[77.3,4924],[77.3,4964],[77.3,5007],[77.3,5065],[77.3,5117],[77.3,5199],[77.3,5233],[77.3,5291],[77.3,5367],[77.3,5415],[77.3,5482],[77.3,5514],[77.3,5557],[77.3,5633],[77.3,5690],[77.3,5743],[77.3,5798],[77.3,5857],[77.3,5916],[77.3,5950],[77.3,6034],[77.3,6092],[77.3,6124],[77.3,6199],[77.3,6233],[77.3,6309],[77.3,6349],[76.8,6425],[76.3,6491],[75.9,6557],[75.3,6611],[75.1,6676],[74.9,6735],[74.9,6790],[74.9,6825],[74.9,6883],[74.9,6965],[74.9,6999],[74.9,7075],[74.9,7115],[74.9,7199],[74.9,7261],[74.9,7299],[74.9,7379],[74.9,7435],[74.9,7491],[74.9,7565],[74.9,7598],[74.9,7682],[74.9,7750],[74.9,7781],[74.9,7857],[74.9,7909],[74.9,7966],[74.9,8017],[74.9,8064],[74.9,8114],[74.9,8165],[74.9,8242],[74.9,8276],[74.9,8334],[74.9,8408],[74.9,8466],[74.9,8500],[74.9,8575],[74.9,8616],[74.9,8692],[74.9,8732],[74.9,8808],[74.9,8849],[74.9,8924],[74.9,8964],[74.9,9007],[74.9,9091],[74.9,9149],[74.9,9207],[74.9,9265],[74.9,9299],[74.9,9383],[74.9,9417],[74.9,9492],[74.9,9550],[74.9,9605],[74.9,9658],[74.9,9715],[74.9,9774],[75.6,9841],[75.7,9894],[75.7,9934],[75.7,10003],[75.8,10032]]",1,0,646.4305,649.2056,76.95600651,1.2904,"[{""rating"":76.95600651411854,""responseTime"":1.2904000000060023}]",space,2.1934,,649.2057,Not at all,0,649.2079,,,[],,0,17,17,17,1,audio/Narrative8Situation8.wav,audio/Narrative7Situation8.wav,audio/Narrative6Situation8.wav,audio/Narrative5Situation8.wav,3,2,5,3,,,,,,,,,,,,,,,,,,,,,,,,,,,,,,,,,,,,,,,
,,,,,,5ea89d0c5a0a9c12978f8263,2024-05-13_12h32.18.901,group3.1-3.2-social-tom,2023.2.2,Linux x86_64,30.03003003,65c5074098b851296ff0b7ed,664231c946ca20fbe6114772,,,,,,,,,,,,,,,,,,,,,,,,,,,,,649.208,1,audio/Narrative7Situation9.wav,651.2222,,651.2222,659.8901,"[[76.2,1358],[73.7,1417],[72.8,1471],[72.7,1526],[72.7,1584],[72.8,1624],[73.6,1710],[74.7,1769],[75,1834],[75.1,1887],[75.1,1916],[75.1,1992],[75.1,2050],[75.1,2110],[75.1,2139],[75.1,2216],[75.1,2256],[75.1,2301],[75.1,2359],[75.1,2417],[75.1,2499],[75.1,2527],[75.1,2608],[75.1,2660],[75.1,2706],[75.1,2751],[75.1,2833],[75.1,2885],[75.1,2917],[75.1,2992],[75.1,3023],[75.1,3075],[75.1,3150],[75.1,3209],[75.1,3256],[75.1,3306],[75.1,3350],[75.1,3425],[75.1,3484],[75.1,3524],[75.1,3575],[75.1,3626],[75.1,3684],[75.1,3741],[75.1,3817],[75.1,3857],[75.1,3899],[75.1,3951],[75.1,4026],[75.1,4091],[75.1,4126],[75.1,4207],[75.1,4242],[75.1,4293],[75.1,4351],[75.1,4409],[75.1,4460],[75.1,4518],[75.1,4599],[75.1,4634],[75.1,4709],[75.1,4743],[75.1,4800],[75.1,4876],[75.1,4923],[75.1,4967],[75.1,5025],[75.1,5083],[75.1,5159],[75.1,5192],[75.1,5274],[75.1,5308],[75.1,5384],[75.1,5442],[75.1,5500],[75.1,5552],[75.1,5583],[75.1,5634],[75.1,5692],[75.1,5743],[75.1,5801],[75.1,5859],[75.1,5940],[75.1,5974],[75.1,6026],[75.1,6108],[75.1,6142],[75.1,6223],[75.1,6258],[75.1,6333],[75.1,6392],[75.1,6426],[75.1,6501],[75.1,6535],[75.1,6616],[75.1,6656],[75.1,6726],[75.1,6791],[75.1,6850],[75.1,6884],[75.1,6966],[75.1,7006],[75.1,7077],[75.1,7128],[75.1,7156],[75.1,7233],[75.1,7273],[75.1,7342],[75.1,7376],[75.1,7452],[75.1,7486],[75.1,7544],[75.1,7601],[75.1,7682],[75.1,7723],[75.1,7775],[75.1,7826],[75.1,7908],[75.1,7943],[75.1,8018],[75.1,8058],[75.1,8134],[75.1,8173],[75.1,8216],[75.1,8292],[75.1,8326],[75.1,8409],[75.1,8440],[75.1,8517],[75.1,8576],[75.1,8610],[75.1,8667]]",1,0,659.8902,663.9151,76.12248405,1.293,"[{""rating"":76.12248404548465,""responseTime"":1.2930000000000064}]",space,3.434,,663.9151,Half the time,50,672.9738,49.86650641,6.9317,"[{""rating"":49.86650641077407,""responseTime"":6.931699999988155}]",space,0,18,18,18,1,audio/Narrative8Situation9.wav,audio/Narrative7Situation9.wav,audio/Narrative6Situation9.wav,audio/Narrative5Situation9.wav,3,2,4,3,,,8.4594,,,,,,,,,,,,,,,,,,,,,,,,,,,,,,,,,,,,
,,,,,,5ea89d0c5a0a9c12978f8263,2024-05-13_12h32.18.901,group3.1-3.2-social-tom,2023.2.2,Linux x86_64,30.03003003,65c5074098b851296ff0b7ed,664231c946ca20fbe6114772,,,,,,,,,,,,,,,,,,,,,,,,,,,732.9929,735.5543,735.5631,2,audio/Narrative13Situation2.wav,735.5632,,735.5632,765.3721,"[[53.7,17005],[54.8,17065],[54.5,17119],[57.3,17640],[57.3,17706],[57.3,17765],[57.3,17801],[57.3,17871],[57.3,17905],[58,17982],[58,18047],[58,18092],[58,18120],[58,18197],[58,18232],[58,18306],[58,18340],[58,18398],[58,18481],[58,18517],[58,18588],[58,18622],[58,18674],[58,18755],[58,18789],[58,18847],[58,18899],[58,18956],[58,19031],[58,19066],[58,19123],[58,19181],[58,19256],[58,19290],[58,19372],[58,19431],[58,19467],[58,19516],[58,19573],[58,19664],[58,19722],[58,19756],[58,19814],[58,19890],[58,19947],[58,20006],[58,20057],[58,20114],[58,20150],[58,20223],[58,20267],[58,20322],[58,20398],[58,20432],[58,20508],[58,20536],[58,20590],[58,20665],[58,20723],[58,20757],[58,20839],[58,20873],[58,20948],[58,21006],[58,21058],[58,21116],[58,21180],[58,21218],[58,21290],[58,21349],[58,21389],[58,21464],[58,21523],[58,21567],[58,21640],[58,21705],[58,21764],[58,21815],[58,21873],[58,21931],[58,21967],[58,22041],[58,22100],[58,22158],[58,22214],[58,22272],[58,22306],[58,22364],[58,22440],[58,22473],[58,22555],[58,22590],[58,22647],[58,22723],[58,22767],[61.7,22847],[64.2,22901],[64.4,22966],[66.4,23026],[71.6,23082],[72.8,23136],[72.8,23173],[72.8,23248],[72.8,23282],[72.8,23366],[72.8,23423],[72.8,23457],[72.8,23539],[72.8,23573],[72.8,23625],[72.8,23706],[72.8,23740],[71.2,23823],[67.6,23883],[65.2,23949],[65.2,24007],[65.2,24035],[65.2,24114],[65.2,24172],[65.2,24230],[65.2,24267],[66.6,24341],[68.6,24407],[68.6,24473],[68.6,24533],[68.6,24567],[68.6,24648],[68.6,24706],[68.6,24740],[68.6,24798],[68.6,24849],[68.6,24931],[68.6,24967],[68.6,25033],[68.6,25067],[68.6,25148],[68.6,25184],[68.6,25226],[68.6,25306],[68.6,25341],[68.6,25392],[68.6,25474],[68.6,25501],[68.6,25557],[68.6,25614],[68.6,25690],[68.6,25748],[68.6,25784],[68.6,25857],[68.6,25914],[68.6,25966],[68.6,25998],[68.6,26073],[68.6,26107],[68.6,26182],[68.6,26222],[68.6,26298],[68.6,26334],[68.6,26383],[68.6,26441],[68.6,26516],[68.6,26581],[68.6,26617],[68.6,26690],[68.6,26734],[68.6,26782],[68.6,26858],[68.6,26923],[68.6,26981],[68.6,27041],[68.6,27084],[68.6,27124],[68.6,27181],[68.6,27257],[68.6,27291],[68.6,27373],[68.6,27425],[68.6,27452],[68.6,27531],[68.6,27590],[68.6,27634],[68.6,27706],[68.6,27741],[68.6,27799],[68.6,27874],[68.6,27902],[68.6,27981],[68.6,28017],[68.6,28090],[68.6,28124],[68.6,28206],[68.6,28258],[68.6,28314],[68.6,28366],[68.6,28424],[68.6,28481],[68.6,28517],[68.6,28590],[68.6,28624],[68.6,28698],[68.6,28734],[68.6,28791],[68.6,28848],[68.6,28931],[68.6,28959],[68.6,29016],[68.6,29074],[68.6,29154],[68.6,29207],[68.6,29265],[68.6,29299],[68.6,29381],[68.6,29439],[68.6,29474],[68.6,29532],[68.6,29592],[68.6,29649],[68.6,29736],[68.6,29774]]",1,0,765.3722,765.3793,,,[],,,,765.3793,Not at all,0,765.3811,,,[],,0,0,0,0,1,audio/Narrative13Situation2.wav,audio/Narrative13Situation2.wav,audio/Narrative13Situation2.wav,audio/Narrative13Situation2.wav,2,2,2,2,,,,,672.9744,732.9867,,,,,,,,,,,,,,,,,,,,,,,,,,,,,,,,,
,,,,,,5ea89d0c5a0a9c12978f8263,2024-05-13_12h32.18.901,group3.1-3.2-social-tom,2023.2.2,Linux x86_64,30.03003003,65c5074098b851296ff0b7ed,664231c946ca20fbe6114772,,,,,,,,,,,,,,,,,,,,,,,,,,,,,765.3813,2,audio/Narrative6Situation1.wav,767.3874,,767.3874,794.0553,"[[67.7,1126],[67.4,1208],[67.4,1259],[67.1,1324],[67.1,1360],[67.1,1434],[67.1,1476],[67.1,1526],[67.1,1607],[67.1,1642],[67.1,1699],[67.1,1750],[67.1,1807],[67.1,1858],[67.1,1916],[67.1,1991],[67.1,2050],[67.1,2078],[67.1,2157],[67.1,2192],[67.1,2250],[67.1,2308],[67.1,2383],[67.1,2410],[67.1,2481],[67.1,2515],[67.1,2567],[67.1,2625],[67.1,2700],[67.1,2734],[67.1,2809],[67.1,2864],[67.1,2916],[67.1,2950],[67.1,3025],[67.1,3065],[67.1,3140],[67.1,3177],[67.1,3249],[67.1,3277],[67.1,3348],[67.1,3382],[67.1,3457],[67.1,3491],[67.1,3549],[67.1,3600],[67.1,3658],[67.1,3716],[67.1,3791],[67.1,3827],[67.1,3898],[67.1,3950],[67.1,4007],[67.1,4066],[67.1,4100],[67.1,4175],[67.1,4216],[67.1,4291],[67.1,4350],[67.1,4377],[67.1,4433],[67.1,4484],[67.1,4542],[67.1,4624],[67.1,4660],[67.1,4733],[67.1,4761],[67.1,4840],[67.1,4892],[67.1,4957],[67.1,5009],[67.1,5067],[67.1,5124],[67.1,5160],[67.1,5207],[67.1,5258],[67.1,5317],[67.1,5374],[67.1,5432],[67.1,5508],[67.1,5549],[67.1,5624],[67.1,5660],[67.1,5740],[67.1,5777],[67.1,5826],[67.1,5901],[67.1,5929],[67.1,6007],[67.1,6041],[67.1,6117],[67.1,6150],[67.1,6201],[67.1,6259],[67.1,6340],[67.1,6377],[67.1,6450],[67.2,6515],[67.2,6574],[67.2,6609],[67.2,6667],[67.2,6725],[67.2,6783],[67.2,6835],[67.2,6917],[67.2,6976],[67.2,7009],[67.2,7091],[67.2,7127],[67.2,7200],[67.2,7244],[67.2,7292],[67.2,7367],[67.2,7395],[67.2,7483],[67.2,7527],[67.2,7599],[67.2,7634],[67.2,7716],[67.2,7774],[67.2,7808],[67.2,7883],[67.2,7917],[67.2,7975],[67.2,8032],[67.2,8084],[67.2,8143],[67.2,8199],[67.2,8250],[67.2,8308],[67.2,8383],[67.2,8417],[67.2,8475],[67.2,8533],[67.2,8608],[67.2,8666],[67.2,8700],[67.2,8783],[67.2,8817],[67.2,8875],[67.2,8933],[67.2,8984],[67.2,9059],[67.2,9099],[67.2,9150],[67.2,9225],[67.2,9283],[67.2,9317],[67.2,9375],[67.2,9450],[67.2,9509],[67.2,9542],[67.2,9624],[67.2,9683],[67.2,9717],[67.2,9775],[67.2,9832],[67.2,9908],[67.2,9966],[67.2,10000],[67.2,10077],[67.2,10134],[67.2,10177],[67.2,10251],[67.2,10294],[67.2,10343],[67.2,10424],[67.2,10458],[67.2,10533],[67.2,10592],[67.2,10627],[67.2,10698],[67.2,10733],[67.5,10809],[68.3,10875],[68.3,10928],[68.7,10982],[68.9,11035],[69.2,11092],[69.4,11152],[69.8,11209],[70.1,11268],[70.4,11325],[70.7,11384],[70.7,11443],[71.1,11502],[71.1,11543],[71.1,11608],[71.1,11666],[71.1,11700],[71.1,11783],[71.1,11834],[71.1,11862],[71.1,11941],[71.1,11977],[71.1,12050],[71.1,12083],[71.1,12159],[71.1,12199],[71.1,12251],[71.1,12325],[71.1,12359],[71.1,12441],[71.1,12476],[71.1,12550],[71.1,12584],[71.1,12666],[71.1,12718],[71.1,12786],[71.1,12841],[71.1,12877],[71.1,12951],[71.1,12994],[71.1,13067],[71.1,13125],[71.1,13183],[71.1,13241],[71.1,13300],[71.1,13334],[71.1,13392],[71.1,13467],[71.1,13532],[71.1,13567],[71.1,13625],[71.1,13701],[71.1,13743],[71.1,13800],[71.1,13875],[71.1,13909],[71.1,13984],[71.1,14012],[71.1,14067],[71.1,14142],[71.1,14183],[71.1,14267],[71.1,14325],[71.1,14383],[71.1,14435],[71.1,14490],[71.1,14525],[71.1,14600],[71.1,14659],[71.1,14694],[71.1,14751],[71.1,14834],[71.1,14879],[71.1,14910],[71.1,14960],[71.1,15041],[71.1,15069],[71.1,15150],[71.1,15208],[71.1,15244],[71.1,15325],[71.1,15360],[71.1,15408],[71.1,15484],[71.1,15550],[71.1,15584],[71.1,15642],[71.1,15717],[71.1,15783],[71.1,15841],[71.1,15893],[71.1,15958],[71.1,16010],[71.1,16068],[71.1,16126],[71.1,16166],[71.1,16242],[71.1,16300],[71.1,16327],[71.1,16400],[71.1,16459],[71.1,16499],[71.1,16575],[71.1,16632],[71.1,16691],[71.1,16750],[71.1,16784],[71.1,16841],[71.1,16893],[71.1,16974],[71.1,17026],[71.1,17067],[71.1,17117],[71.1,17175],[71.1,17250],[71.1,17284],[71.1,17342],[71.1,17423],[71.1,17475],[71.1,17509],[71.1,17591],[71.1,17649],[71.1,17683],[71.1,17759],[71.1,17793],[71.1,17865],[71.1,17900],[71.1,17958],[71.1,18034],[71.1,18062],[71.1,18141],[71.1,18175],[71.1,18250],[71.1,18284],[71.1,18342],[71.1,18417],[71.1,18475],[71.1,18510],[71.1,18561],[71.1,18617],[71.1,18669],[71.1,18750],[71.1,18802],[71.1,18867],[71.1,18910],[71.1,18983],[71.1,19041],[71.1,19076],[71.1,19151],[71.1,19210],[71.1,19250],[71.1,19326],[71.1,19384],[71.1,19443],[71.1,19483],[71.1,19558],[71.1,19593],[71.1,19669],[71.1,19710],[71.1,19758],[71.1,19834],[71.1,19862],[71.1,19941],[71.1,19975],[71.1,20026],[71.1,20108],[71.1,20143],[71.1,20216],[71.1,20275],[71.1,20310],[71.1,20358],[71.1,20434],[71.1,20468],[71.1,20543],[71.1,20583],[71.1,20658],[71.1,20693],[71.1,20768],[71.1,20810],[71.1,20850],[71.1,20925],[71.1,20984],[71.1,21043],[71.1,21084],[71.1,21142],[71.1,21200],[71.1,21283],[71.1,21334],[71.1,21392],[71.1,21433],[71.1,21509],[71.1,21544],[71.1,21625],[71.1,21684],[71.1,21743],[71.1,21801],[71.1,21835],[71.1,21886],[71.1,21943],[71.1,22018],[71.1,22061],[71.1,22117],[71.1,22168],[71.1,22225],[71.1,22276],[71.1,22351],[71.1,22409],[71.1,22443],[71.1,22515],[71.1,22550],[71.1,22601],[71.1,22659],[71.1,22734],[71.1,22793],[71.1,22851],[71.1,22908],[71.1,22966],[71.1,23001],[71.1,23059],[71.1,23116],[71.1,23168],[71.1,23226],[71.1,23301],[71.1,23329],[71.1,23384],[71.1,23459],[71.1,23518],[71.1,23578],[71.1,23617],[71.1,23693],[71.1,23750],[71.1,23784],[71.1,23860],[71.1,23899],[71.1,23975],[71.1,24010],[71.1,24085],[71.1,24127],[71.1,24200],[71.1,24259],[71.1,24317],[71.1,24350],[71.1,24425],[71.1,24485],[71.1,24527],[71.1,24591],[71.1,24650],[71.1,24684],[71.1,24759],[71.1,24817],[71.1,24851],[71.1,24909],[71.1,24967],[71.1,25025],[71.1,25101],[71.1,25158],[71.1,25217],[71.1,25275],[71.1,25311],[71.1,25385],[71.1,25427],[71.1,25501],[71.1,25558],[71.1,25610],[71.1,25666],[71.1,25700],[71.1,25775],[71.1,25810],[71.1,25884],[71.1,25943],[71.1,26001],[71.1,26029],[71.1,26108],[71.1,26142],[71.1,26193],[71.1,26275],[71.1,26327],[71.1,26366],[71.1,26418],[71.1,26476],[71.1,26551],[71.1,26609],[71.1,26667]]",1,0,794.0555,797.3147,65.18248922,2.0853,"[{""rating"":65.18248922420038,""responseTime"":2.085300000012012}]",space,2.6679,,797.3147,Half the time,50,797.3169,,,[],,0,1,1,1,1,audio/Narrative7Situation1.wav,audio/Narrative8Situation1.wav,audio/Narrative5Situation1.wav,audio/Narrative6Situation1.wav,2,5,5,2,,,,,,,,,,,,,,,,,,,,,,,,,,,,,,,,,,,,,,,
,,,,,,5ea89d0c5a0a9c12978f8263,2024-05-13_12h32.18.901,group3.1-3.2-social-tom,2023.2.2,Linux x86_64,30.03003003,65c5074098b851296ff0b7ed,664231c946ca20fbe6114772,,,,,,,,,,,,,,,,,,,,,,,,,,,,,797.317,2,audio/Narrative6Situation2.wav,800.3389,,800.3389,828.8917,"[[64.6,1544],[64.2,1624],[64.2,1684],[64.2,1742],[64.2,1775],[64.1,1848],[64.1,1908],[64.1,1943],[64.1,1991],[64.1,2067],[64.1,2095],[64.1,2174],[64.1,2208],[64.1,2259],[64.1,2334],[64.1,2399],[64.1,2433],[64.1,2491],[64.1,2566],[64.1,2601],[64.1,2683],[64.1,2741],[64.1,2776],[64.1,2850],[64.1,2908],[64.1,2966],[64.1,3025],[64.1,3083],[64.1,3134],[64.1,3175],[64.1,3250],[64.1,3293],[64.1,3341],[64.1,3417],[64.1,3474],[64.1,3509],[64.1,3591],[64.1,3626],[64.1,3698],[64.1,3732],[64.1,3808],[64.1,3843],[64.1,3916],[64.1,3974],[64.1,4033],[64.1,4091],[64.1,4150],[64.1,4202],[64.1,4242],[64.1,4315],[64.1,4374],[64.1,4402],[64.1,4483],[64.1,4528],[64.1,4583],[64.1,4617],[64.1,4668],[64.1,4726],[64.1,4784],[64.1,4865],[64.1,4924],[64.1,4952],[64.1,5033],[64.1,5091],[64.1,5149],[64.1,5207],[64.1,5266],[64.1,5319],[64.1,5374],[64.1,5432],[64.1,5484],[64.1,5541],[64.1,5599],[64.1,5633],[64.1,5724],[64.1,5782],[64.1,5816],[64.1,5892],[64.1,5950],[64.1,5992],[64.1,6067],[64.1,6125],[64.1,6183],[64.1,6241],[64.1,6293],[64.1,6351],[64.1,6392],[64.1,6457],[64.1,6492],[64.1,6550],[64.1,6601],[64.1,6676],[64.1,6716],[64.1,6798],[64.1,6857],[64.1,6909],[64.1,6967],[64.1,7025],[64.1,7077],[64.1,7134],[59.2,7200],[59.1,7259],[59.1,7299],[59.1,7375],[59.1,7440],[58.7,7492],[57.7,7546],[57.7,7601],[57.7,7643],[57.7,7694],[57.7,7775],[57.7,7833],[57.7,7884],[57.7,7941],[57.7,8008],[57.7,8066],[57.7,8125],[57.7,8183],[57.7,8241],[57.7,8275],[57.7,8326],[57.7,8408],[57.7,8443],[57.7,8493],[57.7,8574],[57.7,8626],[57.7,8660],[57.7,8741],[57.7,8799],[57.7,8851],[57.7,8892],[57.7,8966],[57.7,9025],[57.7,9059],[57.7,9141],[57.7,9176],[57.7,9251],[57.7,9293],[57.7,9367],[57.7,9409],[57.7,9459],[57.7,9534],[57.7,9568],[57.7,9636],[57.7,9664],[57.7,9741],[57.7,9776],[57.7,9851],[57.7,9909],[57.7,9949],[57.7,10025],[57.7,10059],[57.7,10141],[57.7,10193],[57.7,10258],[57.7,10292],[57.7,10368],[57.7,10426],[57.7,10484],[57.7,10512],[57.7,10591],[57.7,10626],[57.7,10701],[57.7,10742],[57.7,10817],[57.7,10875],[57.7,10910],[57.7,11007],[57.7,11043],[57.7,11116],[57.7,11159],[57.7,11232],[57.7,11291],[57.7,11319],[57.7,11400],[57.7,11459],[57.4,11532],[56.8,11586],[56.1,11641],[56,11701],[55.3,11761],[55.2,11819],[54.8,11878],[52.5,11935],[51.8,12001],[51.6,12061],[51.2,12126],[51,12179],[50.9,12241],[50.9,12269],[50.9,12327],[50.7,12409],[50.3,12475],[50.2,12510],[49.9,12584],[49.9,12612],[49.9,12692],[49.9,12726],[49.9,12800],[49.9,12834],[49.9,12892],[49.9,12966],[49.9,13024],[49.9,13059],[49.9,13117],[49.9,13168],[49.9,13250],[49.9,13284],[49.9,13374],[49.9,13410],[49.9,13466],[49.9,13517],[49.9,13594],[49.9,13650],[49.9,13684],[49.9,13736],[49.9,13817],[49.9,13860],[49.9,13901],[49.9,13983],[49.9,14017],[49.9,14068],[49.9,14126],[49.9,14175],[49.9,14250],[49.9,14284],[49.9,14365],[49.9,14418],[49.9,14459],[49.9,14510],[49.9,14567],[49.9,14642],[49.9,14701],[49.9,14728],[49.9,14784],[49.9,14841],[49.9,14892],[49.9,14950],[49.9,15025],[49.9,15084],[49.9,15142],[49.9,15200],[49.9,15228],[49.9,15308],[49.9,15342],[49.9,15417],[49.9,15469],[49.9,15509],[49.9,15550],[49.9,15601],[49.9,15683],[49.9,15741],[49.9,15776],[49.9,15851],[49.9,15908],[49.9,15967],[49.9,16019],[49.9,16059],[49.9,16132],[49.9,16185],[49.9,16250],[49.9,16301],[49.9,16359],[49.9,16417],[49.9,16460],[49.9,16510],[49.9,16592],[49.9,16633],[49.9,16692],[49.9,16769],[49.9,16820],[49.9,16875],[49.9,16933],[49.9,16985],[49.9,17043],[49.9,17077],[49.9,17159],[49.9,17193],[49.9,17275],[49.9,17333],[49.9,17392],[51.3,17456],[52.5,17509],[52.5,17568],[52.6,17634],[53,17694],[54.6,17760],[54.7,17818],[54.7,17875],[54.7,17909],[54.7,17984],[54.7,18026],[54.7,18101],[54.7,18159],[54.7,18210],[54.7,18268],[54.7,18326],[54.7,18367],[54.7,18442],[54.7,18476],[54.7,18551],[54.7,18610],[54.7,18643],[54.7,18725],[54.7,18759],[54.7,18833],[54.7,18876],[54.7,18925],[54.7,19001],[54.7,19059],[54.7,19117],[54.7,19176],[54.7,19209],[54.7,19282],[54.7,19316],[54.7,19392],[54.7,19450],[54.7,19484],[54.7,19558],[54.7,19617],[54.7,19659],[54.7,19733],[54.7,19767],[54.7,19825],[54.7,19900],[54.7,19935],[54.7,20018],[54.7,20083],[54.7,20126],[54.7,20176],[54.7,20233],[54.7,20284],[54.7,20359],[54.7,20399],[54.7,20451],[54.7,20502],[54.7,20559],[54.7,20617],[54.7,20668],[54.7,20750],[54.7,20802],[54.7,20830],[54.7,20908],[54.7,20967],[55.1,21034],[56.4,21094],[56.9,21152],[56.9,21193],[58,21268],[58,21328],[58,21392],[58,21444],[58.9,21503],[58.9,21568],[58.9,21627],[58.9,21661],[58.9,21742],[58.9,21776],[58.9,21825],[58.9,21901],[58.9,21935],[58.9,22016],[58.9,22045],[58.9,22096],[58.9,22151],[58.9,22202],[58.9,22259],[58.9,22334],[58.9,22376],[58.9,22451],[58.9,22509],[58.9,22567],[58.9,22601],[58.9,22658],[58.9,22710],[58.9,22793],[58.9,22826],[58.9,22875],[58.9,22951],[58.9,22985],[58.9,23036],[58.9,23117],[58.9,23151],[58.9,23226],[58.9,23266],[58.9,23318],[58.9,23375],[58.9,23427],[58.9,23508],[58.9,23536],[58.9,23617],[58.9,23675],[58.9,23710],[58.9,23792],[58.9,23826],[58.9,23876],[58.9,23951],[58.9,24008],[58.9,24067],[58.9,24126],[58.9,24160],[58.9,24242],[58.9,24300],[58.9,24359],[58.9,24410],[58.9,24450],[58.9,24526],[58.9,24560],[58.9,24634],[58.9,24676],[58.9,24733],[58.9,24784],[58.9,24859],[58.9,24918],[58.9,24976],[58.9,25027],[58.9,25085],[58.9,25126],[58.9,25201],[58.9,25243],[58.9,25300],[58.9,25375],[58.9,25434],[58.9,25492],[58.9,25526],[58.9,25600],[58.9,25634],[58.9,25709],[58.9,25768],[58.9,25825],[58.9,25859],[58.9,25934],[58.9,25993],[58.9,26026],[58.9,26099],[58.9,26134],[58.9,26193],[58.9,26243],[58.9,26301],[58.9,26359],[58.9,26434],[58.9,26476],[58.9,26550],[58.9,26584],[58.9,26643],[58.9,26701],[58.9,26776],[58.9,26835],[58.9,26863],[58.9,26942],[58.9,26976],[58.9,27051],[58.9,27110],[58.9,27150],[58.9,27226],[58.9,27284],[58.9,27342],[58.9,27377],[58.9,27452],[58.9,27517],[58.9,27551],[58.9,27626],[58.9,27690],[58.9,27727],[58.9,27809],[58.9,27867],[58.9,27926],[58.9,27984],[58.9,28042],[58.9,28076],[58.9,28152],[58.9,28209],[58.9,28267],[58.9,28301],[58.9,28359],[58.9,28433],[58.9,28492],[58.9,28526]]",1,0,828.8919,831.925,56.79516814,1.6908,"[{""rating"":56.79516814152549,""responseTime"":1.6908000000120182}]",space,2.427,,831.925,Half the time,50,831.9263,,,[],,0,2,2,2,1,audio/Narrative7Situation2.wav,audio/Narrative8Situation2.wav,audio/Narrative5Situation2.wav,audio/Narrative6Situation2.wav,3,3,3,3,,,,,,,,,,,,,,,,,,,,,,,,,,,,,,,,,,,,,,,
,,,,,,5ea89d0c5a0a9c12978f8263,2024-05-13_12h32.18.901,group3.1-3.2-social-tom,2023.2.2,Linux x86_64,30.03003003,65c5074098b851296ff0b7ed,664231c946ca20fbe6114772,,,,,,,,,,,,,,,,,,,,,,,,,,,,,831.9264,2,audio/Narrative6Situation3.wav,836.9654,,836.9655,849.6417,"[[56.6,1243],[56.6,1283],[56.6,1335],[57.4,1417],[57.5,1477],[57.5,1533],[57.6,1593],[57.6,1650],[57.7,1709],[57.7,1768],[57.7,1820],[57.7,1883],[57.7,1916],[57.7,1991],[57.7,2033],[57.7,2076],[57.7,2157],[57.7,2209],[57.7,2274],[57.7,2308],[57.7,2366],[57.7,2449],[57.7,2508],[57.7,2567],[57.7,2601],[57.7,2658],[57.7,2740],[57.7,2774],[57.7,2849],[57.7,2884],[57.7,2959],[57.7,3016],[57.7,3074],[57.7,3127],[57.7,3182],[57.7,3235],[57.7,3283],[57.7,3333],[57.7,3408],[57.7,3450],[57.7,3500],[57.7,3576],[57.7,3604],[57.7,3682],[57.7,3717],[57.7,3791],[57.7,3833],[57.7,3884],[57.7,3942],[57.7,3993],[57.7,4075],[57.7,4133],[59.2,4193],[61,4259],[62.7,4325],[63,4383],[63.9,4437],[64.7,4493],[65.1,4553],[65.1,4617],[66.3,4671],[66.5,4726],[66.5,4783],[66.6,4836],[66.7,4894],[66.7,4952],[66.7,4986],[66.7,5067],[66.7,5108],[66.7,5159],[66.7,5217],[66.7,5299],[66.7,5358],[70.8,5418],[71,5477],[71.1,5533],[71.5,5593],[71.6,5650],[71.6,5708],[71.6,5766],[71.6,5801],[71.6,5875],[71.6,5933],[71.6,5986],[71.6,6042],[71.6,6083],[71.6,6159],[71.6,6200],[71.6,6275],[71.6,6309],[71.6,6393],[71.6,6434],[71.6,6508],[71.6,6549],[71.6,6617],[71.6,6675],[71.6,6733],[71.6,6786],[71.6,6840],[71.6,6883],[71.6,6959],[71.6,7019],[71.6,7058],[71.6,7134],[71.6,7192],[71.6,7233],[71.6,7309],[71.6,7367],[71.6,7426],[71.6,7483],[71.6,7542],[71.6,7600],[71.6,7649],[71.6,7693],[71.6,7750],[71.6,7794],[71.6,7883],[71.6,7935],[71.6,7968],[71.6,8049],[71.6,8084],[71.6,8150],[71.6,8184],[71.6,8259],[71.6,8317],[71.6,8351],[71.6,8409],[71.6,8483],[71.6,8518],[71.6,8599],[71.6,8659],[71.6,8700],[71.6,8750],[71.6,8801],[71.6,8875],[71.6,8933],[71.6,8978],[71.6,9006],[71.6,9083],[71.6,9117],[71.6,9192],[71.6,9233],[71.6,9308],[71.6,9360],[71.6,9425],[71.6,9483],[71.6,9542],[71.6,9583],[71.6,9633],[71.6,9708],[71.6,9750],[71.6,9800],[71.6,9853],[71.6,9909],[71.6,9960],[71.6,10042],[71.6,10108],[71.6,10150],[71.6,10201],[71.6,10258],[71.6,10333],[71.6,10367],[71.6,10442],[71.6,10483],[71.6,10558],[71.6,10601],[71.6,10650],[71.6,10726],[71.6,10784],[71.6,10824],[71.6,10875],[71.6,10933],[71.6,11008],[71.6,11050],[71.6,11100],[71.6,11176],[71.6,11210],[71.6,11285],[71.6,11319],[71.6,11376],[71.6,11427],[71.6,11485],[71.6,11567],[71.6,11600],[71.6,11650],[71.6,11726],[71.6,11760],[71.6,11834],[71.6,11893],[71.6,11926],[71.6,12001],[71.6,12050],[71.6,12093],[71.6,12151],[71.6,12208],[71.6,12260],[71.6,12342],[71.6,12376],[71.6,12427],[71.6,12491],[71.6,12567],[71.6,12600],[71.6,12650]]",1,0,849.6418,852.1754,65.85973244,1.4111,"[{""rating"":65.85973244019767,""responseTime"":1.4111000000237937}]",space,1.9428,,852.1754,All the time,100,852.1775,,,[],,0,3,3,3,1,audio/Narrative7Situation3.wav,audio/Narrative8Situation3.wav,audio/Narrative5Situation3.wav,audio/Narrative6Situation3.wav,8,4,3,5,,,,,,,,,,,,,,,,,,,,,,,,,,,,,,,,,,,,,,,
,,,,,,5ea89d0c5a0a9c12978f8263,2024-05-13_12h32.18.901,group3.1-3.2-social-tom,2023.2.2,Linux x86_64,30.03003003,65c5074098b851296ff0b7ed,664231c946ca20fbe6114772,,,,,,,,,,,,,,,,,,,,,,,,,,,,,852.1777,2,audio/Narrative6Situation4.wav,854.1829,,854.183,866.8189,"[[65.8,5616],[65.3,5692],[64.9,5759],[64.9,5799],[64.9,5883],[64.9,5941],[64.9,5983],[64.9,6050],[64.9,6084],[64.9,6159],[64.9,6200],[64.9,6283],[64.9,6342],[64.9,6376],[64.9,6457],[64.9,6500],[64.9,6573],[64.9,6616],[64.9,6683],[64.9,6741],[64.9,6793],[64.9,6850],[64.9,6909],[64.9,6967],[64.9,6999],[64.9,7073],[64.9,7116],[64.9,7160],[64.9,7241],[64.9,7275],[64.9,7351],[64.9,7416],[64.9,7450],[64.9,7509],[64.9,7561],[64.9,7642],[64.9,7701],[64.9,7735],[64.9,7792],[64.9,7868],[64.9,7916],[64.9,7983],[64.9,8041],[64.9,8100],[64.9,8183],[64.9,8235],[64.9,8275],[64.9,8351],[64.9,8416],[64.9,8450],[64.9,8526],[64.9,8554],[64.9,8633],[64.9,8692],[64.9,8744],[64.9,8801],[64.9,8833],[64.9,8908],[64.9,8967],[64.9,9016],[64.9,9053],[64.9,9109],[64.9,9184],[64.9,9225],[64.9,9276],[64.9,9351],[64.9,9392],[64.9,9467],[64.9,9516],[64.9,9559],[65.3,9641],[65.9,9683],[66.2,9767],[67,9827],[69,9892],[69.7,9958],[70.6,10018],[70.9,10084],[71.3,10138],[71.5,10200],[71.5,10253],[71.5,10293],[71.5,10344],[71.5,10425],[71.5,10466],[71.5,10517],[71.5,10569],[71.5,10626],[71.5,10683],[71.5,10734],[71.7,10792],[75.6,10868],[76.6,10934],[77,10993],[79.4,11059],[79.5,11117],[79.6,11171],[79.6,11216],[79.6,11259],[79.6,11341],[79.6,11383],[79.6,11426],[79.6,11501],[79.6,11541],[79.6,11592],[79.6,11650],[79.6,11725],[79.6,11766],[79.6,11817],[79.6,11893],[79.6,11945],[79.6,11982],[79.6,12033],[79.6,12100],[79.6,12166],[79.6,12200],[79.6,12276],[79.6,12316],[79.6,12368],[78.6,12451],[78.2,12519],[78.2,12576],[78.2,12635]]",1,0,866.8191,870.4859,69.66267995,2.0316,"[{""rating"":69.66267994538624,""responseTime"":2.0315999999940004}]",space,3.0755,,870.486,All the time,100,870.4874,,,[],,0,4,4,4,1,audio/Narrative7Situation4.wav,audio/Narrative8Situation4.wav,audio/Narrative5Situation4.wav,audio/Narrative6Situation4.wav,3,3,1,2,,,,,,,,,,,,,,,,,,,,,,,,,,,,,,,,,,,,,,,
,,,,,,5ea89d0c5a0a9c12978f8263,2024-05-13_12h32.18.901,group3.1-3.2-social-tom,2023.2.2,Linux x86_64,30.03003003,65c5074098b851296ff0b7ed,664231c946ca20fbe6114772,,,,,,,,,,,,,,,,,,,,,,,,,,,,,870.4875,2,audio/Narrative6Situation5.wav,872.5095,,872.5096,880.4689,"[[69.8,867],[70,924],[70,984],[70.2,1043],[70.4,1102],[70.8,1157],[70.8,1217],[70.9,1275],[70.9,1340],[70.9,1373],[71,1450],[71,1509],[71,1557],[71,1608],[71,1665],[71,1741],[71,1799],[71,1857],[71,1889],[71,1967],[71,2023],[71,2057],[71,2133],[71,2161],[71,2240],[71,2274],[71,2349],[71,2383],[71,2458],[71,2517],[71,2557],[71,2602],[71,2683],[71,2740],[71,2792],[71,2857],[71,2890],[71,2966],[71,3006],[71,3056],[71.3,3133],[76.5,3199],[76.5,3257],[76.5,3290],[76.6,3367],[76.6,3419],[76.6,3456],[76.6,3507],[76.6,3582],[76.6,3634],[76.6,3663],[76.6,3740],[76.6,3775],[76.6,3833],[76.6,3908],[76.6,3956],[76.6,4025],[76.6,4057],[76.6,4133],[76.6,4161],[76.6,4240],[76.6,4275],[76.6,4350],[76.6,4384],[76.6,4435],[76.6,4493],[76.6,4575],[76.6,4606],[76.6,4681],[76.6,4723],[76.6,4792],[76.6,4832],[76.6,4908],[76.6,4942],[76.6,5000],[76.6,5058],[76.6,5134],[76.6,5192],[76.6,5225],[76.6,5283],[76.6,5365],[76.6,5417],[76.6,5456],[76.6,5533],[76.6,5573],[76.6,5625],[76.6,5682],[76.6,5733],[76.6,5808],[76.6,5849],[76.6,5900],[76.6,5957],[76.6,6033],[76.6,6091],[76.6,6132],[76.6,6208],[76.6,6267],[76.6,6306],[76.6,6382],[76.6,6441],[76.6,6493],[76.6,6549],[76.6,6584],[76.6,6666],[76.6,6707],[76.6,6775],[76.6,6823],[76.6,6867],[76.6,6942],[76.6,6982],[76.6,7058],[76.6,7092],[76.6,7149],[76.6,7225],[76.6,7274],[76.6,7318],[76.6,7399],[76.6,7458],[76.6,7499],[76.6,7550],[76.6,7641],[76.6,7699],[76.6,7758],[76.6,7817],[76.6,7857],[76.6,7933]]",1,0,880.4691,883.8766,65.44297121,1.6846,"[{""rating"":65.44297120588074,""responseTime"":1.6845999999940204}]",space,2.7844,,883.8766,Half the time,50,883.8787,,,[],,0,5,5,5,1,audio/Narrative7Situation5.wav,audio/Narrative8Situation5.wav,audio/Narrative5Situation5.wav,audio/Narrative6Situation5.wav,5,2,5,2,,,,,,,,,,,,,,,,,,,,,,,,,,,,,,,,,,,,,,,
,,,,,,5ea89d0c5a0a9c12978f8263,2024-05-13_12h32.18.901,group3.1-3.2-social-tom,2023.2.2,Linux x86_64,30.03003003,65c5074098b851296ff0b7ed,664231c946ca20fbe6114772,,,,,,,,,,,,,,,,,,,,,,,,,,,,,883.8789,2,audio/Narrative6Situation6.wav,885.8923,,885.8925,897.0198,"[[66.7,1100],[68.4,1159],[68.4,1219],[68.4,1277],[68.4,1311],[68.4,1368],[68.5,1443],[68.5,1475],[68.5,1550],[68.5,1590],[68.5,1642],[68.5,1718],[68.5,1776],[68.5,1834],[68.5,1891],[68.5,1925],[68.5,2000],[68.5,2040],[68.5,2117],[68.5,2157],[68.5,2210],[68.5,2285],[68.5,2341],[68.5,2393],[68.5,2433],[68.5,2508],[68.5,2541],[68.5,2615],[68.5,2657],[68.5,2725],[68.5,2783],[68.5,2817],[68.5,2892],[68.5,2924],[68.5,3000],[68.5,3041],[68.5,3110],[68.5,3175],[68.5,3234],[68.5,3292],[68.5,3324],[68.5,3375],[68.5,3451],[68.5,3491],[68.5,3567],[68.5,3625],[68.5,3683],[68.5,3718],[68.5,3793],[68.5,3851],[68.5,3879],[68.5,3958],[68.5,4016],[68.5,4057],[68.5,4107],[68.5,4159],[73.9,4236],[74,4295],[75.7,4359],[76.1,4413],[76.2,4475],[76.3,4529],[76.4,4585],[76.4,4650],[76.4,4684],[76.4,4765],[76.4,4807],[76.4,4857],[76.4,4934],[76.4,4992],[76.4,5043],[76.4,5077],[76.4,5134],[76.4,5179],[76.4,5258],[76.4,5310],[76.4,5358],[76.4,5402],[76.4,5459],[76.4,5517],[76.4,5568],[76.4,5626],[76.4,5683],[76.4,5735],[76.4,5792],[76.4,5867],[76.4,5907],[76.4,5959],[76.4,6017],[76.4,6068],[76.4,6149],[76.4,6202],[76.4,6230],[76.4,6284],[76.4,6335],[76.4,6417],[76.4,6458],[76.4,6510],[76.4,6567],[76.4,6643],[76.4,6701],[76.4,6759],[76.4,6793],[76.4,6875],[76.4,6907],[76.4,6961],[76.4,7042],[76.4,7076],[76.4,7134],[76.4,7192],[76.4,7261],[76.4,7319],[76.4,7357],[76.4,7425],[76.4,7457],[76.4,7532],[76.4,7584],[76.4,7612],[76.4,7668],[76.4,7725],[76.4,7801],[76.4,7835],[76.4,7903],[76.4,7931],[76.4,8009],[76.4,8068],[76.4,8107],[76.4,8160],[76.4,8224],[76.4,8268],[76.4,8343],[76.4,8377],[76.4,8434],[76.4,8509],[76.4,8574],[76.4,8608],[76.4,8683],[76.4,8724],[76.4,8801],[76.4,8859],[76.4,8910],[76.4,8942],[76.4,9016],[76.4,9075],[76.4,9107],[76.4,9184],[76.4,9224],[76.4,9276],[76.4,9333],[76.4,9385],[76.4,9440],[76.4,9518],[76.4,9557],[76.4,9634],[76.4,9693],[76.4,9727],[76.4,9784],[76.4,9859],[76.4,9918],[76.4,9976],[76.4,10035],[76.4,10100],[76.4,10129],[76.4,10209],[76.4,10243],[76.4,10325],[76.4,10384],[76.4,10424],[76.4,10501],[76.4,10529],[76.4,10609],[76.4,10668],[76.4,10707],[75.4,10785],[75.3,10844],[75.3,10903],[75.3,10930],[75.3,11008],[75.3,11067],[75.3,11107]]",1,0,897.02,903.0608,61.5879273,4.8901,"[{""rating"":61.587927304356135,""responseTime"":4.8900999999940495}]",space,5.4893,,903.0608,Not at all,0,903.0629,,,[],,0,6,6,6,1,audio/Narrative7Situation6.wav,audio/Narrative8Situation6.wav,audio/Narrative5Situation6.wav,audio/Narrative6Situation6.wav,3,2,3,2,,,,,,,,,,,,,,,,,,,,,,,,,,,,,,,,,,,,,,,
,,,,,,5ea89d0c5a0a9c12978f8263,2024-05-13_12h32.18.901,group3.1-3.2-social-tom,2023.2.2,Linux x86_64,30.03003003,65c5074098b851296ff0b7ed,664231c946ca20fbe6114772,,,,,,,,,,,,,,,,,,,,,,,,,,,,,903.063,2,audio/Narrative6Situation7.wav,908.0695,,908.0696,932.996,"[[61.6,1358],[61.6,1404],[61.6,1458],[61.4,1524],[61.4,1563],[61.4,1616],[61.5,1692],[61.5,1757],[61.5,1798],[61.5,1849],[61.5,1901],[61.5,1976],[61.5,2014],[61.5,2089],[61.5,2142],[61.5,2200],[61.5,2264],[61.5,2316],[61.5,2375],[61.5,2432],[61.5,2464],[61.5,2539],[61.5,2591],[61.5,2620],[61.5,2699],[61.5,2734],[61.5,2815],[61.5,2874],[61.5,2932],[61.5,2964],[61.5,3042],[61.5,3107],[61.5,3142],[61.5,3216],[61.5,3281],[61.5,3314],[61.5,3390],[61.5,3431],[61.5,3476],[61.5,3557],[61.5,3591],[61.5,3666],[61.5,3725],[61.5,3764],[61.5,3841],[61.5,3881],[61.5,3932],[61.5,3984],[61.5,4065],[61.5,4100],[61.5,4176],[61.5,4240],[61.5,4280],[61.5,4333],[61.5,4391],[61.5,4466],[61.5,4525],[61.5,4553],[61.5,4608],[61.5,4689],[61.5,4730],[61.5,4799],[61.5,4857],[61.5,4916],[61.5,4974],[61.5,5014],[61.5,5090],[61.5,5131],[61.5,5200],[61.5,5234],[61.5,5292],[61.5,5367],[61.5,5425],[61.5,5483],[61.5,5517],[61.5,5591],[61.5,5650],[61.5,5684],[61.5,5742],[61.5,5817],[61.5,5857],[61.5,5932],[61.5,5964],[61.5,6041],[61.5,6081],[61.5,6134],[61.5,6209],[61.5,6237],[61.5,6316],[61.5,6374],[61.5,6408],[61.5,6459],[61.5,6541],[61.5,6600],[61.5,6634],[61.5,6716],[61.5,6775],[61.5,6814],[61.5,6884],[61.5,6917],[61.5,6975],[61.5,7027],[61.5,7108],[61.5,7166],[61.5,7225],[61.5,7264],[61.5,7317],[61.5,7391],[61.5,7431],[61.5,7484],[61.5,7566],[61.5,7600],[61.5,7675],[61.5,7709],[61.5,7760],[61.5,7824],[61.5,7875],[61.5,7926],[61.5,7981],[61.5,8041],[61.5,8092],[61.5,8167],[61.5,8224],[61.5,8258],[61.5,8334],[61.5,8392],[61.5,8431],[61.5,8508],[61.5,8566],[61.5,8625],[61.5,8685],[61.5,8731],[61.5,8770],[61.5,8825],[67.4,8909],[67.6,8975],[70.2,9041],[70.3,9101],[70.3,9166],[70.3,9218],[70.3,9250],[70.3,9308],[70.3,9359],[70.3,9417],[70.3,9492],[70.3,9531],[70.3,9591],[70.3,9642],[70.3,9717],[70.3,9757],[70.3,9808],[70.3,9867],[70.3,9942],[74.2,10002],[75.5,10067],[76,10120],[77.3,10177],[78.1,10243],[78.1,10300],[78.1,10353],[78.1,10409],[78.1,10437],[78.1,10516],[78.1,10550],[78.1,10608],[78.1,10659],[76.9,10743],[76,10800],[76,10858],[76,10886],[76,10967],[76,11025],[76,11059],[76,11135],[76,11181],[76,11249],[76,11281],[76,11358],[76,11380],[76,11457],[76,11509],[76,11566],[76,11618],[76,11677],[76,11705],[76,11782],[76,11817],[76,11891],[76,11931],[76,11983],[76,12058],[76,12097],[76,12150],[76,12225],[76,12259],[76,12334],[76,12374],[76,12449],[76,12480],[76,12558],[76,12617],[76,12675],[76,12703],[76,12783],[76,12817],[76,12892],[76,12931],[76,13009],[76,13067],[76,13125],[76,13183],[76,13241],[76,13281],[76,13351],[76,13398],[76,13442],[76,13518],[76,13583],[76,13614],[76,13691],[76,13731],[76,13807],[76,13847],[76,13917],[76,13951],[76,14033],[76,14091],[76,14131],[76,14184],[76,14258],[76,14297],[76,14348],[76,14408],[76,14459],[76,14517],[76,14591],[76,14643],[76,14708],[76,14748],[76,14817],[76,14875],[76,14934],[76,14992],[76,15050],[76,15081],[76,15159],[76,15197],[76,15276],[76,15333],[76,15391],[76,15426],[76,15484],[76,15558],[76,15597],[76,15667],[76,15725],[76,15784],[76,15818],[76,15899],[76,15931],[76,16009],[76,16048],[76,16101],[76,16183],[76,16241],[76,16275],[76,16333],[76,16391],[76,16442],[76,16498],[76,16575],[76,16633],[76,16685],[76,16719],[76,16800],[76,16831],[76,16908],[76,16942],[76,17018],[76,17075],[76,17109],[76,17191],[76,17231],[76,17307],[76,17347],[76,17400],[76,17451],[76,17509],[76,17591],[76,17642],[76,17670],[76,17757],[76,17816],[76,17847],[76,17889],[76,17942],[76,17993],[76,18051],[76,18108],[76,18183],[76,18242],[76,18276],[76,18351],[76,18398],[76,18468],[76,18497],[76,18550],[76,18601],[76,18675],[76,18727],[76,18792],[76,18850],[76,18908],[76,18967],[76,18998],[76,19075],[76,19133],[76,19186],[76,19243],[76,19272],[76,19351],[76,19410],[76,19448],[76,19525],[76,19560],[76,19634],[76,19692],[76,19751],[76,19798],[76,19867],[76,19897],[76,19975],[76,20010],[76,20085],[76,20143],[76,20201],[76,20248],[76,20324],[76,20364],[76,20433],[76,20493],[76,20558],[76,20598],[76,20674],[76,20714],[76,20766],[76,20817],[76,20892],[76,20950],[76,21008],[76,21048],[76,21125],[76,21164],[76,21235],[76,21300],[76,21359],[76,21398],[76,21476],[76,21533],[76,21585],[76,21643],[76,21671],[76,21750],[76,21809],[76,21848],[76,21900],[76,21976],[76,22034],[76,22075],[76,22151],[76,22209],[76,22268],[76,22301],[76,22383],[76,22441],[76,22475],[76,22551],[76,22585],[76,22667],[76,22725],[76,22765],[76,22834],[76,22875],[76,22950],[76,22984],[76,23059],[76,23098],[76,23176],[76,23214],[76,23259],[76,23334],[76,23368],[76,23450],[76,23484],[76,23559],[76,23598],[76,23668],[76,23714],[76,23767],[76,23841],[76,23894],[76,23959],[76,23997],[76,24068],[76,24126],[76,24191],[76,24231],[76,24309],[76,24368],[76,24398],[76,24476],[76,24514],[76,24591],[76,24643],[76,24700],[76,24758],[76,24816],[76,24869],[76,24926]]",1,0,932.9962,936.17,66.48486932,2.2676,"[{""rating"":66.48486932348729,""responseTime"":2.2675999999939904}]",space,2.5837,,936.1701,Not at all,0,936.1712,,,[],,0,7,7,7,1,audio/Narrative7Situation7.wav,audio/Narrative8Situation7.wav,audio/Narrative5Situation7.wav,audio/Narrative6Situation7.wav,5,3,4,5,,,,,,,,,,,,,,,,,,,,,,,,,,,,,,,,,,,,,,,
