exp_question,consent.started,consent.stopped,consentResponse.keys,consentResponse.rt,consentResponse.duration,participantID,date,expName,psychopyVersion,OS,frameRate,STUDY_ID,SESSION_ID,opening1.started,opening1.stopped,keyEndingOpening1.keys,keyEndingOpening1.rt,keyEndingOpening1.duration,volumeAdjust.started,volumeAdjust.stopped,endingAdjust.keys,endingAdjust.rt,endingAdjust.duration,opening2.started,opening2.stopped,keyEndingOpening.keys,keyEndingOpening.rt,keyEndingOpening.duration,mouse.x,mouse.y,mouse.leftButton,mouse.midButton,mouse.rightButton,mouse.time,instructionLoop.thisRepN,instructionLoop.thisTrialN,instructionLoop.thisN,instructionLoop.thisIndex,instructionLoop.ran,readyForAudio.started,readyForAudio.stopped,fixation.started,run,audio_played,fixation.stopped,endPractice.keys,audioPre.started,audioPre.stopped,continuousResponses_audio,continuousSlider.response,continuousSlider.rt,intRating.started,intRating.stopped,intQuestionSlider.response,intQuestionSlider.rt,intQuestionSlider.history,confirmResponse.keys,confirmResponse.rt,confirmResponse.duration,catchQuestion.started,catch_label,catch_value,catchQuestion.stopped,catchQuestionSlider.response,catchQuestionSlider.rt,catchQuestionSlider.history,confirmResponse_2.keys,audioRunLoop.thisRepN,audioRunLoop.thisTrialN,audioRunLoop.thisN,audioRunLoop.thisIndex,audioRunLoop.ran,conditions1_1,conditions2_1,conditions1_2,conditions2_2,dur1_1,dur2_1,dur1_2,dur2_2,endPractice.rt,endPractice.duration,confirmResponse_2.rt,confirmResponse_2.duration,runIntervalBreak.started,runIntervalBreak.stopped,endingBreakKey.keys,endingBreakKey.rt,endingBreakKey.duration,connection.started,connection.stopped,connectionEnding.keys,connectionEnding.rt,connectionEnding.duration,readyForText.started,readyForText.stopped,textPre.started,run_dup,textPre.stopped,continuousResponses_text,textRunLoop.thisRepN,textRunLoop.thisTrialN,textRunLoop.thisN,textRunLoop.thisIndex,textRunLoop.ran,text1_1,text1_2,text2_1,text2_2,runBreakText.started,runBreakText.stopped,endingBreakKey_2.keys,endingBreakKey_2.rt,endingBreakKey_2.duration,ending.started,ending.stopped,endingEnding.keys,endingEnding.rt,endingEnding.duration
tom,0.0007,57.2234,y,56.8803,,5f121091e95fdc03b5e897d0,2024-02-08_16h03.32.889,group3.1-3.2-social-tom,2023.2.2,Win32,41.15226337,65c5074098b851296ff0b7ed,65c5416e8162edf01ba95d81,,,,,,,,,,,,,,,,,,,,,,,,,,,,,,,,,,,,,,,,,,,,,,,,,,,,,,,,,,,,,,,,,,,,,,,,,,,,,,,,,,,,,,,,,,,,,,,,,,,,,,,,,,
,,,,,,5f121091e95fdc03b5e897d0,2024-02-08_16h03.32.889,group3.1-3.2-social-tom,2023.2.2,Win32,41.15226337,65c5074098b851296ff0b7ed,65c5416e8162edf01ba95d81,57.2247,64.548,space,7.2519,,,,,,,,,,,,,,,,,,,,,,,,,,,,,,,,,,,,,,,,,,,,,,,,,,,,,,,,,,,,,,,,,,,,,,,,,,,,,,,,,,,,,,,,,,,,,,,,,,,,,,
,,,,,,5f121091e95fdc03b5e897d0,2024-02-08_16h03.32.889,group3.1-3.2-social-tom,2023.2.2,Win32,41.15226337,65c5074098b851296ff0b7ed,65c5416e8162edf01ba95d81,,,,,,64.5487,86.7271,space,21.852,,,,,,,,,,,,,,,,,,,,,,,,,,,,,,,,,,,,,,,,,,,,,,,,,,,,,,,,,,,,,,,,,,,,,,,,,,,,,,,,,,,,,,,,,,,,,,,,,
,,,,,,5f121091e95fdc03b5e897d0,2024-02-08_16h03.32.889,group3.1-3.2-social-tom,2023.2.2,Win32,41.15226337,65c5074098b851296ff0b7ed,65c5416e8162edf01ba95d81,,,,,,,,,,,86.7598,99.5143,space,12.6835,,[],[],[],[],[],[],0,0,0,0,1,,,,,,,,,,,,,,,,,,,,,,,,,,,,,,,,,,,,,,,,,,,,,,,,,,,,,,,,,,,,,,,,,,,,,,,,,,,,,,,,
,,,,,,5f121091e95fdc03b5e897d0,2024-02-08_16h03.32.889,group3.1-3.2-social-tom,2023.2.2,Win32,41.15226337,65c5074098b851296ff0b7ed,65c5416e8162edf01ba95d81,,,,,,,,,,,99.5347,124.3664,space,24.5522,,[],[],[],[],[],[],1,0,1,0,1,,,,,,,,,,,,,,,,,,,,,,,,,,,,,,,,,,,,,,,,,,,,,,,,,,,,,,,,,,,,,,,,,,,,,,,,,,,,,,,,
,,,,,,5f121091e95fdc03b5e897d0,2024-02-08_16h03.32.889,group3.1-3.2-social-tom,2023.2.2,Win32,41.15226337,65c5074098b851296ff0b7ed,65c5416e8162edf01ba95d81,,,,,,,,,,,124.3838,144.3752,space,19.8711,,[],[],[],[],[],[],2,0,2,0,1,,,,,,,,,,,,,,,,,,,,,,,,,,,,,,,,,,,,,,,,,,,,,,,,,,,,,,,,,,,,,,,,,,,,,,,,,,,,,,,,
,,,,,,5f121091e95fdc03b5e897d0,2024-02-08_16h03.32.889,group3.1-3.2-social-tom,2023.2.2,Win32,41.15226337,65c5074098b851296ff0b7ed,65c5416e8162edf01ba95d81,,,,,,,,,,,144.3947,176.8005,space,32.3432,,[],[],[],[],[],[],3,0,3,0,1,,,,,,,,,,,,,,,,,,,,,,,,,,,,,,,,,,,,,,,,,,,,,,,,,,,,,,,,,,,,,,,,,,,,,,,,,,,,,,,,
,,,,,,5f121091e95fdc03b5e897d0,2024-02-08_16h03.32.889,group3.1-3.2-social-tom,2023.2.2,Win32,41.15226337,65c5074098b851296ff0b7ed,65c5416e8162edf01ba95d81,,,,,,,,,,,176.8179,193.694,space,16.8214,,[],[],[],[],[],[],4,0,4,0,1,,,,,,,,,,,,,,,,,,,,,,,,,,,,,,,,,,,,,,,,,,,,,,,,,,,,,,,,,,,,,,,,,,,,,,,,,,,,,,,,
,,,,,,5f121091e95fdc03b5e897d0,2024-02-08_16h03.32.889,group3.1-3.2-social-tom,2023.2.2,Win32,41.15226337,65c5074098b851296ff0b7ed,65c5416e8162edf01ba95d81,,,,,,,,,,,,,,,,,,,,,,,,,,,193.7175,196.2919,196.364,1,audio/Narrative13Situation2.wav,198.3796,,198.3809,228.1723,"[[999,2],[999,196],[999,262],[999,333],[999,406],[999,474],[999,544],[999,622],[999,689],[999,765],[999,837],[999,907],[999,966],[999,1026],[999,1096],[999,1146],[999,1214],[999,1269],[999,1327],[999,1390],[999,1449],[999,1507],[999,1567],[999,1642],[66.7,1720],[68,1784],[69.9,1863],[70.4,1917],[70.4,1974],[70.5,2047],[70.8,2110],[70.9,2175],[70.9,2228],[68.9,2309],[65.5,2377],[64.2,2444],[62.6,2526],[60.5,2598],[59.5,2676],[56.6,2746],[54.4,2816],[53.8,2882],[51.8,2947],[50,3008],[49.3,3063],[49.3,3127],[49.3,3181],[49.3,3240],[49.4,3310],[49.4,3367],[49.6,3432],[49.7,3490],[49.9,3548],[50,3609],[50.1,3666],[50.1,3727],[50.1,3786],[50.1,3846],[50.3,3906],[50.3,3967],[50.3,4026],[50.3,4087],[50.3,4151],[50.3,4217],[50.3,4277],[50.3,4336],[50.3,4396],[50.3,4458],[50.3,4517],[50.3,4576],[50.3,4636],[50.3,4697],[50.3,4758],[50.3,4816],[50.3,4876],[50.3,4936],[50.3,4997],[50.3,5058],[50.3,5126],[50.3,5186],[50.3,5247],[50.3,5308],[50.3,5364],[50.3,5426],[50.3,5486],[50.3,5545],[50.3,5607],[50.3,5666],[50.3,5726],[50.3,5786],[50.3,5847],[50.3,5908],[50.3,5966],[50.3,6027],[50.3,6087],[50.4,6161],[51,6219],[51.3,6280],[51.6,6340],[51.9,6405],[52.2,6463],[52.6,6527],[53.1,6584],[53.7,6647],[54.1,6711],[54.2,6770],[54.5,6839],[54.5,6896],[54.5,6958],[54.5,7017],[54.7,7078],[54.8,7146],[54.8,7196],[55,7260],[55,7316],[55,7376],[55,7436],[55,7496],[55,7557],[55.1,7622],[55.1,7677],[55.1,7738],[55.1,7796],[55.1,7860],[55.1,7917],[55.1,7977],[55.1,8037],[55.1,8098],[55.1,8160],[55.1,8222],[55.1,8281],[55.1,8340],[55.1,8407],[55.1,8467],[55.1,8526],[55.1,8588],[55.1,8647],[55.1,8708],[55.1,8767],[55.1,8826],[55.1,8886],[55.1,8946],[55.1,9007],[55.1,9066],[55.1,9136],[55.1,9196],[55.1,9260],[55.1,9326],[55.1,9386],[55.1,9446],[55.1,9508],[55.1,9566],[55.1,9629],[55.1,9686],[55.1,9757],[55.1,9816],[55.1,9876],[55.1,9936],[55.1,9997],[55.1,10057],[55.1,10122],[55.1,10186],[55.1,10246],[55.9,10312],[56.4,10371],[56.9,10426],[57.3,10492],[57.8,10563],[58.1,10624],[58.3,10680],[59.1,10743],[60,10803],[60.4,10864],[60.5,10916],[61.1,10981],[61.4,11042],[61.6,11097],[61.7,11160],[61.9,11226],[62,11292],[62,11346],[62,11407],[62.2,11470],[62.2,11526],[62.2,11590],[62.2,11646],[62.2,11707],[62.2,11767],[62.2,11827],[62.2,11886],[62.2,11946],[62.2,12007],[62.2,12067],[62.2,12140],[62.2,12196],[62.2,12257],[62.2,12317],[62.2,12377],[62.2,12436],[62.2,12497],[62.2,12558],[62.2,12616],[62.2,12676],[62.2,12736],[62.2,12806],[62.2,12867],[62.2,12926],[62.2,12996],[62.2,13058],[62.2,13117],[62.2,13179],[62.2,13236],[62.2,13296],[62.2,13358],[62.2,13416],[62.2,13476],[62.2,13536],[62.2,13596],[62.2,13657],[62.2,13716],[62.2,13777],[62.2,13836],[62.2,13896],[62.2,13957],[62.2,14016],[62.2,14076],[62.2,14136],[62.2,14206],[62.2,14266],[62.2,14336],[62.2,14396],[62.2,14457],[62.2,14516],[62.2,14584],[62.2,14646],[62.2,14707],[62.2,14766],[62.2,14837],[62.2,14896],[62.2,14959],[62.2,15016],[62.2,15076],[62.2,15136],[62.2,15198],[62.2,15261],[62.2,15333],[62.2,15396],[62.2,15456],[62.2,15516],[62.2,15577],[62.2,15636],[62.2,15696],[62.2,15757],[62.2,15817],[62.2,15875],[62.2,15937],[62.2,15996],[62.7,16077],[63,16130],[63.5,16202],[63.6,16254],[63.9,16314],[64.3,16376],[64.8,16433],[64.9,16493],[65.2,16550],[65.4,16613],[65.4,16673],[65.4,16732],[65.4,16796],[65.4,16858],[65.4,16917],[65.4,16976],[65.4,17036],[65.4,17097],[65.4,17158],[65.4,17222],[65.4,17276],[65.4,17339],[65.4,17396],[65.4,17457],[65.4,17516],[65.4,17576],[65.4,17636],[65.4,17697],[65.4,17757],[65.4,17817],[65.4,17876],[65.4,17939],[65.4,17996],[65.4,18057],[65.4,18116],[65.4,18176],[65.4,18238],[65.4,18304],[65.4,18364],[65.4,18426],[65.4,18486],[65.4,18559],[65.4,18616],[65.4,18676],[65.4,18737],[65.4,18796],[65.4,18857],[65.4,18916],[65.4,18976],[65.4,19036],[65.4,19096],[65.4,19156],[65.4,19224],[65.4,19288],[65.4,19350],[65.4,19407],[65.4,19466],[65.4,19527],[65.4,19586],[65.4,19646],[65.4,19707],[65.4,19766],[65.4,19828],[65.4,19887],[65.4,19946],[65.4,20007],[65.4,20066],[65.4,20126],[65.4,20187],[65.4,20243],[65.4,20306],[65.4,20366],[65.4,20426],[65.4,20486],[65.4,20546],[65.4,20607],[65.4,20668],[65.4,20726],[65.4,20787],[65.4,20858],[65.4,20917],[65.4,20977],[65.4,21038],[65.4,21096],[65.4,21157],[65.4,21219],[65.4,21275],[65.4,21337],[65.4,21397],[65.4,21457],[65.4,21517],[65.4,21576],[65.4,21639],[65.4,21696],[65.4,21757],[65.4,21817],[65.4,21876],[65.4,21938],[65.4,21996],[65.4,22057],[65.4,22116],[65.4,22177],[72.3,22284],[78.3,22648],[79.6,22709],[80,22763],[80,22817],[80,22876],[80,22937],[80,22998],[80,23055],[80,23116],[80,23176],[80,23246],[80,23296],[80,23357],[80,23419],[80,23476],[80,23538],[80,23596],[80,23657],[80,23716],[80,23776],[80,23837],[80,23896],[80,23957],[80,24016],[80,24076],[80,24137],[80,24196],[80,24260],[80,24316],[80,24376],[80,24437],[80,24496],[80,24559],[80,24617],[80,24676],[80,24737],[80,24797],[80,24857],[80,24916],[80,24976],[80,25035],[80,25097],[80,25157],[80,25216],[80,25280],[80,25341],[80,25407],[80,25466],[80,25526],[80,25588],[80,25646],[80,25707],[80,25767],[80,25826],[80,25887],[80,25946],[80,26007],[80,26066],[80,26126],[80,26188],[80,26248],[80,26307],[80,26366],[80,26426],[80,26489],[80,26546],[80,26609],[80,26666],[80,26724],[80,26788],[80,26846],[80,26906],[80,26966],[80,27026],[80,27087],[80,27157],[80,27216],[80,27280],[80,27339],[80,27400],[80,27457],[80,27516],[80,27576],[80,27638],[80,27697],[80,27756],[80,27816],[80,27876],[80,27937],[80,27996],[80,28056],[80,28116],[80,28188],[80,28249],[80,28306],[80,28366],[80,28426],[80,28489],[80,28557],[80,28616],[80,28676],[80,28739],[80,28796],[80,28857],[80,28916],[80,28976],[80,29038],[80,29096],[80,29156],[80,29216],[80,29283],[80,29346],[80,29409],[80,29466],[80,29526],[80,29586],[80,29647],[80,29709],[80,29767]]",1,0,228.1732,237.0299,84.40702782,7.4707,"[{""rating"":84.40702781844803,""responseTime"":7.470700000047685}]",space,8.3031,,237.0306,Not at all,0,237.044,,,[],,0,0,0,0,1,audio/Narrative13Situation2.wav,audio/Narrative13Situation2.wav,audio/Narrative13Situation2.wav,audio/Narrative13Situation2.wav,2,2,2,2,,,,,,,,,,,,,,,,,,,,,,,,,,,,,,,,,,,,,,,
,,,,,,5f121091e95fdc03b5e897d0,2024-02-08_16h03.32.889,group3.1-3.2-social-tom,2023.2.2,Win32,41.15226337,65c5074098b851296ff0b7ed,65c5416e8162edf01ba95d81,,,,,,,,,,,,,,,,,,,,,,,,,,,,,237.0447,1,audio/Narrative7Situation1.wav,240.6708,space,240.671,296.5693,"[[999,19],[999,103],[999,163],[999,230],[999,287],[999,348],[999,406],[999,476],[999,536],[999,597],[999,654],[999,717],[999,777],[999,837],[999,899],[999,954],[999,1021],[999,1099],[999,1150],[999,1203],[999,1261],[999,1333],[52,1397],[49,1467],[48.1,1527],[47.5,1588],[47.4,1638],[47.4,1698],[47.4,1756],[47.5,1821],[47.8,1882],[48.4,1952],[48.7,2010],[48.7,2069],[48.8,2126],[48.8,2187],[48.8,2251],[48.8,2306],[49.4,2371],[50.3,2431],[50.3,2486],[50.3,2548],[50.3,2606],[50.3,2667],[50.3,2726],[50.3,2786],[50.3,2847],[50.3,2906],[50.3,2966],[50.3,3026],[50.3,3092],[50.3,3148],[50.3,3206],[50.3,3266],[50.3,3326],[50.3,3386],[50.3,3447],[50.3,3507],[50.3,3566],[50.3,3626],[50.3,3686],[50.3,3747],[50.3,3806],[50.3,3865],[50.3,3926],[50.3,3986],[50.3,4047],[50.3,4109],[50.3,4166],[50.3,4250],[50.3,4307],[50.3,4368],[50.3,4427],[50.3,4487],[50.4,4552],[51.8,4616],[53.7,4682],[58.6,4751],[64.1,4814],[64.5,4869],[64.5,4939],[63.6,5002],[51.2,5064],[39.2,5139],[35.2,5208],[33.6,5283],[33.2,5339],[33.2,5398],[33.2,5456],[33.2,5517],[33.2,5576],[33.2,5638],[32.9,5702],[27.9,5767],[22.8,5833],[21.3,5902],[20.9,5956],[20.6,6017],[20.4,6077],[20.3,6141],[20.1,6198],[20.1,6262],[20.1,6317],[20,6377],[19.8,6450],[19.8,6506],[19.8,6567],[19.8,6626],[19.8,6686],[19.8,6744],[19.8,6806],[19.8,6867],[19.8,6936],[19.8,6997],[19.8,7056],[19.8,7124],[19.8,7189],[19.8,7247],[19.8,7307],[19.8,7369],[19.8,7426],[19.8,7486],[19.8,7547],[19.8,7607],[19.8,7666],[19.8,7726],[19.8,7786],[19.8,7844],[19.8,7906],[19.8,7966],[19.8,8026],[19.8,8086],[19.8,8147],[19.8,8213],[19.8,8266],[19.8,8326],[19.8,8387],[19.8,8449],[19.8,8506],[19.8,8564],[19.8,8626],[19.8,8686],[19.8,8744],[19.8,8806],[19.8,8866],[19.8,8926],[19.8,8986],[19.8,9048],[19.8,9109],[19.8,9166],[19.8,9229],[19.8,9287],[19.8,9347],[19.8,9406],[19.8,9467],[19.8,9526],[19.8,9586],[19.8,9647],[19.8,9717],[19.8,9776],[19.8,9836],[19.8,9897],[19.8,9957],[19.8,10017],[19.8,10076],[19.8,10139],[19.8,10201],[19.8,10267],[19.8,10326],[19.8,10386],[19.8,10447],[19.8,10506],[19.8,10564],[19.8,10626],[19.8,10686],[19.8,10744],[19.8,10807],[19.8,10866],[19.8,10926],[19.8,10987],[19.8,11044],[19.8,11106],[19.8,11166],[19.8,11226],[19.8,11287],[19.8,11347],[19.8,11407],[19.8,11466],[19.8,11526],[19.8,11586],[19.8,11647],[19.8,11707],[19.8,11766],[19.8,11826],[19.8,11886],[19.8,11946],[19.8,12007],[19.8,12066],[19.8,12129],[19.8,12198],[19.8,12256],[19.8,12317],[19.8,12376],[19.8,12436],[19.8,12497],[19.8,12556],[19.8,12616],[19.8,12677],[19.8,12736],[19.8,12797],[19.8,12856],[19.8,12917],[19.8,12974],[19.8,13036],[19.8,13100],[23.4,13199],[23.9,13250],[24.1,13308],[24.1,13367],[24.1,13426],[24.2,13487],[24.4,13552],[24.4,13609],[25,13670],[26.4,13732],[33,13801],[39.6,13864],[43.4,13931],[43.7,13990],[43.7,14056],[43.7,14116],[43.7,14186],[43.7,14247],[43.7,14306],[43.7,14367],[43.7,14426],[43.7,14486],[43.7,14546],[43.7,14607],[43.7,14666],[43.7,14724],[43.7,14787],[43.7,14847],[43.7,14907],[43.7,14967],[43.7,15026],[43.7,15086],[43.7,15156],[43.7,15206],[43.7,15266],[43.7,15326],[43.7,15384],[43.7,15447],[43.7,15507],[43.7,15566],[43.7,15626],[43.7,15687],[43.7,15748],[43.9,15809],[49.7,15875],[55.4,15933],[60,15997],[63.8,16057],[64.2,16109],[64.5,16177],[64.5,16236],[64.5,16290],[64.5,16356],[64.5,16417],[64.5,16476],[64.5,16536],[64.5,16594],[64.5,16656],[64.5,16716],[64.5,16776],[64.5,16836],[64.5,16897],[64.5,16956],[64.5,17016],[64.5,17076],[64.5,17136],[64.5,17198],[64.5,17256],[64.5,17316],[64.5,17376],[64.5,17436],[64.5,17498],[64.5,17556],[64.5,17616],[64.5,17676],[64.5,17737],[64.5,17797],[64.5,17856],[64.5,17917],[64.5,17976],[64.5,18036],[64.5,18097],[64.5,18159],[64.5,18216],[64.5,18276],[64.5,18336],[64.5,18396],[64.5,18457],[64.5,18517],[64.5,18586],[65.4,18652],[69.6,18714],[81,19414],[80.6,19479],[80.5,19531],[80.3,19588],[79.9,19652],[79.4,19709],[79.3,19769],[79.3,19826],[79.4,19903],[81.5,19966],[82.8,20023],[82.9,20076],[83.1,20138],[83.2,20200],[83.2,20256],[83.2,20317],[83.2,20376],[83.2,20436],[83.2,20498],[83.2,20557],[83.2,20616],[83.2,20676],[83.2,20748],[83.2,20807],[83.2,20866],[83.2,20926],[83.2,20986],[83.2,21048],[83.2,21107],[83.2,21166],[83.2,21226],[83.2,21297],[83.2,21356],[83.2,21417],[83.2,21476],[83.2,21536],[83.2,21599],[83.2,21656],[83.2,21716],[83.2,21776],[83.2,21836],[83.2,21897],[83.2,21957],[83.2,22016],[83.2,22076],[83.2,22136],[83.2,22206],[83.2,22273],[83.2,22337],[83.2,22397],[83.2,22456],[83.2,22516],[83.2,22576],[83.2,22636],[83.2,22697],[83.2,22766],[83.2,22826],[83.2,22886],[83.2,22947],[83.2,23006],[83.2,23066],[83.2,23126],[83.2,23189],[83.2,23247],[83.2,23306],[83.2,23366],[83.2,23426],[83.2,23486],[83.2,23547],[83.2,23607],[83.2,23666],[83.2,23726],[83.2,23786],[83.2,23847],[83.2,23907],[83.2,23966],[83.2,24026],[83.2,24086],[83.2,24147],[83.2,24216],[83.2,24269],[83.2,24326],[83.2,24386],[83.2,24448],[83.2,24506],[83.2,24566],[83.2,24626],[83.2,24684],[83.2,24744],[83.2,24806],[83.2,24867],[83.2,24926],[83.2,24986],[83.2,25047],[83.2,25106],[83.2,25166],[83.2,25234],[83.2,25290],[83.2,25353],[83.2,25414],[83.2,25476],[83.2,25536],[83.2,25597],[83.2,25657],[83.2,25713],[83.2,25778],[83.2,25836],[83.2,25898],[83.2,25957],[83.2,26016],[83.2,26076],[83.2,26136],[83.2,26198],[83.2,26269],[83.2,26330],[83.2,26387],[83.2,26447],[83.2,26506],[83.2,26566],[83.2,26626],[83.2,26686],[83.2,26747],[83.2,26807],[83.2,26867],[83.2,26926],[83.2,26987],[83.2,27047],[83.2,27106],[83.2,27166],[83.2,27229],[83.2,27296],[83.2,27356],[83.2,27416],[83.2,27476],[83.2,27536],[83.2,27597],[83.2,27656],[83.2,27716],[83.2,27786],[83.2,27847],[83.2,27907],[83.2,27966],[83.2,28026],[83.2,28086],[83.2,28147],[83.2,28206],[83.2,28280],[83.2,28336],[83.2,28398],[83.2,28456],[83.2,28516],[83.2,28579],[83.2,28636],[83.2,28698],[83.2,28756],[83.2,28816],[83.2,28876],[83.2,28937],[83.2,28997],[83.2,29056],[83.2,29116],[83.2,29174],[83.2,29240],[83.2,29298],[83.2,29357],[83.2,29416],[83.2,29479],[83.2,29536],[83.2,29598],[83.2,29657],[83.2,29716],[83.2,29776],[83.2,29837],[83.2,29897],[83.2,29956],[83.2,30016],[83.2,30076],[83.2,30136],[83.2,30197],[83.2,30266],[83.2,30326],[83.2,30386],[83.2,30448],[83.2,30506],[83.2,30567],[83.2,30626],[83.2,30686],[83.2,30747],[83.2,30807],[83.2,30876],[83.2,30933],[83.2,30998],[83.2,31056],[83.2,31116],[83.2,31176],[83.2,31234],[83.2,31300],[83.2,31366],[83.2,31426],[83.2,31486],[83.2,31547],[83.2,31606],[83.2,31666],[83.2,31726],[83.2,31786],[83.2,31848],[83.2,31906],[83.2,31966],[83.2,32024],[83.2,32087],[83.2,32147],[83.2,32209],[83.2,32273],[83.2,32329],[83.2,32386],[83.2,32447],[83.2,32506],[83.2,32566],[83.2,32626],[83.2,32687],[83.2,32748],[83.2,32816],[83.2,32876],[83.2,32936],[83.2,32997],[83.2,33056],[83.2,33117],[83.2,33176],[83.2,33236],[83.2,33310],[83.2,33366],[83.2,33424],[83.2,33486],[83.2,33543],[83.2,33606],[83.2,33666],[83.2,33726],[83.2,33786],[83.2,33847],[83.2,33906],[83.2,33966],[83.2,34026],[83.2,34087],[83.2,34147],[83.2,34206],[83.2,34269],[83.2,34333],[83.2,34386],[83.2,34447],[83.2,34506],[83.2,34566],[83.2,34628],[83.2,34691],[83.2,34752],[83.2,34810],[83.4,34889],[83.4,34937],[83.8,35001],[84.1,35059],[84.8,35119],[85.4,35181],[85.6,35241],[85.6,35309],[85.6,35360],[85.6,35420],[85.6,35487],[85.6,35547],[85.6,35606],[85.6,35666],[85.6,35728],[85.6,35786],[85.6,35847],[85.6,35906],[85.6,35966],[85.6,36026],[85.6,36087],[85.6,36147],[85.6,36206],[85.6,36266],[85.6,36331],[85.6,36388],[85.6,36447],[85.6,36506],[85.6,36566],[85.6,36626],[85.6,36687],[85.6,36755],[85.6,36816],[85.6,36876],[85.6,36936],[85.6,36997],[85.6,37056],[85.6,37116],[85.6,37177],[85.6,37236],[85.6,37307],[85.6,37356],[85.6,37416],[85.6,37476],[85.6,37537],[85.6,37597],[85.6,37656],[85.6,37716],[85.6,37776],[85.6,37836],[85.6,37896],[85.6,37956],[85.6,38016],[85.6,38078],[85.6,38136],[85.6,38196],[85.6,38266],[85.6,38331],[85.6,38396],[85.6,38456],[85.6,38517],[85.6,38580],[85.6,38636],[85.6,38696],[85.6,38756],[85.6,38816],[85.6,38879],[85.6,38947],[85.6,39007],[85.6,39067],[85.6,39128],[85.6,39186],[85.6,39246],[85.6,39309],[85.6,39379],[85.6,39436],[85.6,39496],[85.6,39556],[85.6,39616],[85.6,39673],[85.6,39736],[85.6,39796],[85.6,39859],[85.6,39916],[85.6,39976],[85.6,40036],[85.6,40097],[85.9,40163],[88.5,40246],[88.7,40296],[88.7,40359],[88.7,40417],[88.7,40479],[88.8,40539],[89.5,40603],[90,40664],[90.1,40724],[90.3,40788],[90.3,40846],[90.3,40906],[90.3,40966],[90.3,41027],[90.3,41087],[90.3,41148],[90.3,41206],[90.3,41266],[90.3,41333],[90.3,41385],[90.3,41447],[90.3,41506],[90.3,41566],[90.3,41627],[90.3,41686],[90.3,41746],[90.3,41806],[90.3,41866],[90.3,41927],[90.3,41986],[90.3,42046],[90.3,42106],[90.3,42166],[90.3,42228],[90.3,42286],[90.3,42348],[90.3,42406],[90.3,42466],[90.3,42528],[90.3,42586],[90.3,42647],[90.3,42706],[90.3,42766],[90.3,42827],[90.3,42886],[90.3,42946],[90.3,43006],[90.3,43066],[90.3,43129],[90.3,43186],[90.3,43247],[90.3,43306],[90.3,43380],[90.3,43436],[90.3,43496],[90.3,43556],[90.3,43614],[90.3,43677],[90.3,43737],[90.3,43796],[90.3,43856],[90.3,43916],[90.3,43978],[90.3,44036],[90.3,44096],[90.3,44156],[90.3,44216],[90.3,44278],[90.3,44347],[90.3,44396],[90.3,44456],[90.3,44519],[90.3,44578],[90.3,44636],[90.3,44696],[90.3,44756],[90.3,44815],[90.3,44877],[90.3,44944],[90.3,45006],[90.3,45066],[90.3,45128],[90.3,45186],[90.3,45246],[90.3,45306],[90.3,45367],[90.3,45428],[90.3,45486],[90.3,45546],[90.3,45606],[90.3,45666],[90.3,45728],[90.3,45786],[90.3,45846],[90.3,45906],[90.3,45967],[90.3,46027],[90.3,46086],[90.3,46146],[90.3,46206],[90.3,46266],[90.3,46327],[90.3,46406],[90.3,46466],[90.3,46524],[90.3,46587],[90.3,46647],[90.3,46707],[90.3,46766],[90.3,46828],[90.3,46887],[90.3,46946],[90.3,47006],[90.3,47066],[90.3,47128],[90.3,47187],[90.3,47247],[90.3,47306],[90.3,47374],[90.3,47437],[90.3,47497],[90.3,47556],[90.3,47616],[90.3,47677],[90.3,47737],[90.3,47796],[90.3,47854],[90.3,47916],[90.3,47977],[90.3,48034],[92.2,48129],[93.5,48200],[93.5,48262],[93.5,48321],[93.5,48397],[93.5,48456],[93.5,48517],[93.5,48579],[93.5,48647],[93.5,48703],[93.5,48764],[93.5,48827],[93.5,48887],[93.5,48948],[93.5,49006],[93.5,49064],[93.5,49127],[93.5,49187],[93.5,49246],[93.5,49306],[93.5,49378],[93.5,49428],[93.5,49486],[93.5,49546],[93.5,49606],[93.5,49666],[93.5,49729],[93.5,49786],[93.5,49847],[93.5,49906],[93.5,49966],[93.5,50027],[93.5,50086],[93.5,50146],[93.5,50206],[93.5,50266],[93.5,50326],[93.5,50394],[93.5,50456],[93.5,50516],[93.5,50578],[93.5,50636],[93.5,50696],[93.5,50756],[93.5,50816],[93.5,50878],[93.5,50937],[93.5,50998],[93.5,51056],[93.5,51116],[93.5,51178],[93.5,51237],[93.5,51296],[93.5,51356],[93.5,51431],[93.5,51496],[93.5,51556],[93.5,51616],[93.5,51678],[93.5,51736],[93.5,51796],[93.5,51856],[93.5,51916],[93.5,51978],[93.5,52036],[93.5,52096],[93.5,52156],[93.5,52217],[93.5,52278],[93.5,52336],[93.5,52406],[93.5,52467],[93.5,52528],[93.5,52586],[93.5,52646],[93.5,52706],[93.5,52766],[93.5,52828],[93.5,52886],[93.5,52947],[93.5,53006],[93.5,53066],[93.5,53128],[93.5,53187],[93.5,53246],[93.5,53316],[93.5,53370],[93.5,53430],[93.5,53491],[93.5,53556],[93.5,53617],[93.5,53678],[93.5,53736],[93.5,53796],[93.5,53866],[93.5,53928],[93.5,53987],[93.5,54056],[93.5,54113],[93.5,54178],[93.5,54236],[93.5,54297],[93.5,54357],[93.5,54427],[93.5,54486],[93.5,54546],[93.5,54607],[93.5,54666],[93.5,54729],[93.5,54785],[93.5,54849],[93.5,54907],[93.5,54968],[92.9,55051],[92.8,55107],[92.6,55167],[92.6,55229],[92.6,55285],[92.6,55347],[92.6,55423],[92.6,55470],[92.8,55532],[92.9,55593],[92.9,55653],[93,55712],[93,55777],[93,55834],[93.2,55897]]",1,0,296.5711,301.5882,65.95900439,3.5348,"[{""rating"":65.95900439238653,""responseTime"":3.5347999999523267}]",space,4.4668,,301.5883,Half the time,50,301.6012,,,[],,0,1,1,1,1,audio/Narrative7Situation1.wav,audio/Narrative8Situation1.wav,audio/Narrative5Situation1.wav,audio/Narrative6Situation1.wav,2,5,5,2,3.5666,,,,,,,,,,,,,,,,,,,,,,,,,,,,,,,,,,,,,,
,,,,,,5f121091e95fdc03b5e897d0,2024-02-08_16h03.32.889,group3.1-3.2-social-tom,2023.2.2,Win32,41.15226337,65c5074098b851296ff0b7ed,65c5416e8162edf01ba95d81,,,,,,,,,,,,,,,,,,,,,,,,,,,,,301.6033,1,audio/Narrative7Situation2.wav,304.6168,,304.6169,312.1183,"[[999,1],[999,77],[999,137],[999,197],[999,256],[999,318],[999,377],[999,438],[999,506],[999,572],[999,628],[999,690],[999,752],[999,810],[999,871],[999,931],[999,988],[999,1054],[999,1110],[999,1177],[999,1237],[999,1298],[999,1356],[999,1422],[999,1483],[999,1578],[999,1653],[999,1721],[58.1,1791],[49.7,1870],[58.8,2322],[62.7,2393],[66.7,2472],[70.4,2577],[72.8,2648],[75.8,2716],[79.3,2792],[81.2,2859],[81.9,2921],[82.2,2983],[82.7,3040],[83.4,3103],[84.8,3172],[85,3222],[85,3277],[85,3339],[85,3398],[85,3464],[85,3524],[85,3590],[85,3650],[85,3710],[85,3770],[85,3831],[85,3890],[85,3950],[85,4009],[85,4071],[85,4128],[85,4191],[85,4250],[85,4310],[85,4370],[85,4432],[85,4494],[85,4565],[85,4630],[85,4690],[85,4752],[85,4810],[85,4870],[85,4931],[85,4990],[85,5050],[85,5110],[85,5170],[85,5228],[85,5290],[85,5350],[85,5410],[85,5470],[85,5543],[85,5590],[85,5650],[85,5710],[85,5770],[85,5831],[85,5890],[85,5950],[85,6010],[85,6070],[85,6131],[85,6190],[85,6250],[85,6310],[85,6370],[85,6428],[85,6490],[85,6557],[85,6620],[85,6681],[85,6740],[85,6800],[85,6860],[85,6920],[85,6981],[85,7040],[85,7103],[85,7160],[85,7221],[85,7281],[85,7341],[85,7400],[85,7460]]",1,0,312.1188,318.2326,96.12005857,3.4558,"[{""rating"":96.12005856515373,""responseTime"":3.4558000000715197}]",space,5.539,,318.2327,Half the time,50,318.2421,,,[],,0,2,2,2,1,audio/Narrative7Situation2.wav,audio/Narrative8Situation2.wav,audio/Narrative5Situation2.wav,audio/Narrative6Situation2.wav,3,3,3,3,,,,,,,,,,,,,,,,,,,,,,,,,,,,,,,,,,,,,,,
,,,,,,5f121091e95fdc03b5e897d0,2024-02-08_16h03.32.889,group3.1-3.2-social-tom,2023.2.2,Win32,41.15226337,65c5074098b851296ff0b7ed,65c5416e8162edf01ba95d81,,,,,,,,,,,,,,,,,,,,,,,,,,,,,318.2428,1,audio/Narrative7Situation3.wav,326.2489,,326.2489,335.5176,"[[999,20],[999,84],[999,149],[999,211],[999,269],[999,328],[999,388],[999,450],[999,508],[999,567],[999,628],[999,701],[999,761],[999,826],[999,901],[999,968],[999,1033],[999,1096],[999,1161],[999,1219],[999,1280],[999,1339],[999,1399],[999,1461],[999,1524],[999,1588],[74.5,1650],[74.3,1705],[73.4,1768],[73,1828],[73,1889],[74.2,1959],[85.3,2324],[87.5,2388],[90.3,2449],[91.7,2505],[91.9,2558],[91.9,2619],[91.9,2680],[91.9,2738],[91.9,2799],[91.9,2858],[91.9,2918],[91.9,2978],[91.9,3044],[91.9,3099],[91.9,3159],[91.9,3218],[91.9,3278],[91.9,3338],[91.9,3399],[91.9,3459],[91.9,3518],[91.9,3584],[91.9,3639],[91.9,3700],[91.9,3758],[91.9,3818],[91.9,3878],[91.9,3939],[91.9,3999],[91.9,4059],[91.9,4118],[91.9,4178],[91.9,4238],[91.9,4299],[91.9,4359],[91.9,4418],[91.9,4478],[91.9,4539],[91.9,4599],[91.9,4668],[91.9,4728],[91.9,4788],[91.9,4850],[91.9,4911],[91.9,4968],[91.9,5031],[91.9,5099],[91.9,5158],[91.9,5218],[91.9,5278],[91.9,5336],[91.9,5399],[91.9,5459],[91.9,5518],[91.9,5578],[91.9,5636],[91.9,5699],[91.9,5758],[91.9,5818],[91.9,5878],[91.9,5941],[91.9,5999],[91.9,6058],[91.9,6118],[91.9,6178],[91.9,6238],[91.9,6299],[91.9,6358],[91.9,6418],[91.9,6478],[91.9,6538],[91.9,6599],[91.9,6658],[91.9,6719],[91.9,6778],[91.9,6838],[91.9,6900],[91.9,6968],[91.9,7028],[91.9,7088],[91.9,7149],[91.9,7208],[91.9,7268],[91.9,7328],[91.9,7388],[91.9,7450],[91.9,7508],[91.9,7568],[91.9,7628],[91.9,7688],[91.9,7749],[91.9,7809],[91.9,7868],[91.9,7939],[91.9,7999],[91.9,8060],[91.9,8118],[91.9,8180],[91.9,8238],[91.9,8300],[91.9,8358],[91.9,8418],[91.9,8479],[91.9,8538],[91.9,8599],[91.9,8659],[91.9,8718],[91.9,8778],[91.9,8839],[91.9,8899],[91.9,8958],[91.9,9018],[91.9,9085],[91.9,9149],[91.9,9208],[91.9,9268]]",1,0,335.5182,338.9674,91.72767204,2.5136,"[{""rating"":91.7276720351391,""responseTime"":2.513600000023814}]",space,2.9057,,338.9676,Not at all,0,338.9773,,,[],,0,3,3,3,1,audio/Narrative7Situation3.wav,audio/Narrative8Situation3.wav,audio/Narrative5Situation3.wav,audio/Narrative6Situation3.wav,8,4,3,5,,,,,,,,,,,,,,,,,,,,,,,,,,,,,,,,,,,,,,,
,,,,,,5f121091e95fdc03b5e897d0,2024-02-08_16h03.32.889,group3.1-3.2-social-tom,2023.2.2,Win32,41.15226337,65c5074098b851296ff0b7ed,65c5416e8162edf01ba95d81,,,,,,,,,,,,,,,,,,,,,,,,,,,,,338.9785,1,audio/Narrative7Situation4.wav,341.999,,341.9992,353.7532,"[[90.4,874],[85.4,938],[81.6,999],[78.4,1062],[73.9,1132],[72.5,1190],[69.9,1255],[67.3,1315],[66,1383],[65.8,1435],[65.8,1484],[66.1,1593],[66.1,1650],[66.1,1708],[66.1,1768],[66.1,1827],[66.1,1889],[66.1,1948],[66.1,2007],[66.1,2067],[66.1,2129],[66.1,2188],[66.1,2248],[66.1,2307],[66.1,2367],[66.1,2431],[66.1,2488],[66.1,2548],[66.1,2608],[66.1,2669],[66.1,2729],[66.1,2788],[66.1,2848],[66.1,2908],[66.1,2968],[66.1,3027],[66.1,3088],[66.1,3148],[66.1,3207],[66.1,3268],[66.1,3328],[66.1,3391],[66.1,3449],[66.1,3515],[66.1,3581],[66.1,3638],[66.1,3701],[66.1,3758],[66.1,3818],[66.1,3888],[66.1,3949],[66.1,4008],[66.1,4069],[66.1,4130],[66.1,4188],[66.1,4258],[66.1,4317],[66.1,4379],[66.1,4439],[66.1,4498],[66.1,4558],[66.1,4618],[66.1,4679],[66.1,4738],[66.1,4798],[66.1,4858],[66.1,4918],[66.1,4980],[66.1,5038],[66.1,5098],[66.1,5158],[66.1,5218],[66.1,5279],[66.1,5338],[66.1,5401],[66.1,5457],[66.1,5518],[66.1,5579],[66.1,5637],[66.1,5698],[66.1,5757],[66.1,5818],[66.1,5880],[66.1,5938],[66.1,5997],[66.1,6058],[66.1,6118],[66.1,6179],[66.1,6238],[66.1,6298],[66.1,6358],[66.1,6430],[66.1,6482],[66.1,6550],[66.1,6607],[66.1,6667],[66.1,6729],[66.1,6788],[66.1,6848],[66.1,6907],[66.1,6968],[66.1,7030],[66.1,7087],[66.1,7148],[66.1,7207],[66.1,7267],[66.1,7329],[66.1,7388],[66.1,7452],[66.1,7508],[66.1,7579],[66.1,7638],[66.1,7699],[66.1,7757],[66.1,7817],[66.1,7879],[66.1,7938],[66.1,7997],[66.1,8061],[66.1,8118],[66.1,8188],[66.1,8247],[66.1,8308],[66.1,8370],[66.1,8434],[66.1,8497],[66.1,8558],[66.1,8617],[66.1,8679],[66.1,8738],[66.1,8799],[66.1,8855],[66.1,8918],[66.1,8978],[66.1,9038],[66.1,9098],[66.1,9156],[66.1,9218],[66.1,9288],[66.1,9348],[66.1,9408],[66.1,9479],[66.1,9537],[66.1,9598],[66.1,9659],[66.1,9718],[66.1,9780],[66.1,9838],[66.1,9898],[66.1,9958],[66.1,10017],[66.1,10080],[66.1,10138],[66.1,10207],[66.1,10266],[66.1,10330],[66.1,10388],[66.1,10458],[66.1,10506],[66.1,10565],[66.1,10629],[66.1,10688],[66.1,10748],[66.1,10808],[66.1,10868],[66.1,10930],[66.1,10988],[66.1,11048],[66.1,11108],[66.1,11165],[66.1,11229],[66.1,11289],[66.1,11348],[66.1,11408],[66.1,11469],[66.1,11526],[66.1,11587],[66.1,11648],[66.1,11708]]",1,0,353.7536,358.9582,70.05856515,4.6413,"[{""rating"":70.05856515373353,""responseTime"":4.6412999999523095}]",space,4.6602,,358.9582,Not at all,0,358.9649,,,[],,0,4,4,4,1,audio/Narrative7Situation4.wav,audio/Narrative8Situation4.wav,audio/Narrative5Situation4.wav,audio/Narrative6Situation4.wav,3,3,1,2,,,,,,,,,,,,,,,,,,,,,,,,,,,,,,,,,,,,,,,
,,,,,,5f121091e95fdc03b5e897d0,2024-02-08_16h03.32.889,group3.1-3.2-social-tom,2023.2.2,Win32,41.15226337,65c5074098b851296ff0b7ed,65c5416e8162edf01ba95d81,,,,,,,,,,,,,,,,,,,,,,,,,,,,,358.9656,1,audio/Narrative7Situation5.wav,363.9802,,363.9805,372.4877,"[[72.4,1332],[72.5,1400],[73.1,1459],[73.9,1527],[75.9,1614],[76.5,1675],[76.5,1721],[76.4,1782],[76.4,1842],[76.4,1907],[76.4,1967],[76.4,2026],[76.4,2086],[76.4,2151],[76.4,2207],[76.4,2267],[75.6,2333],[73.9,2397],[73.1,2456],[71.7,2516],[65.2,2597],[63.5,2654],[63.5,2707],[63.5,2770],[63.5,2827],[63.6,2889],[63.8,2954],[63.9,3017],[63.9,3076],[63.9,3136],[63.9,3198],[63.9,3256],[63.9,3316],[63.9,3377],[63.9,3437],[63.9,3497],[63.9,3564],[63.9,3626],[63.9,3686],[63.9,3748],[63.9,3807],[63.9,3867],[63.9,3926],[63.9,3986],[63.9,4048],[63.9,4107],[63.9,4166],[63.9,4226],[63.9,4287],[63.9,4348],[63.9,4407],[63.9,4465],[63.9,4526],[63.9,4587],[63.9,4647],[63.9,4707],[63.9,4766],[63.9,4826],[63.9,4886],[63.9,4948],[63.9,5008],[63.9,5067],[63.9,5127],[63.9,5186],[63.9,5248],[63.9,5307],[63.9,5367],[63.9,5430],[63.9,5486],[63.9,5551],[63.9,5607],[63.9,5667],[63.9,5726],[63.9,5788],[63.9,5845],[63.9,5907],[64.5,5971],[78,6057],[81.3,6121],[81.9,6177],[83.7,6243],[83.8,6299],[84,6360],[84,6417],[84,6477],[84,6536],[84.3,6609],[84.6,6660],[84.7,6720],[84.8,6777],[84.8,6837],[84.8,6898],[84.8,6957],[84.8,7016],[85,7081],[85,7141],[85,7208],[85,7267],[85,7326],[85,7391],[85,7456],[85,7517],[85,7588],[85,7641],[85,7707],[85,7767],[85,7827],[85,7887],[85,7948],[85,8007],[85,8072],[85,8137],[85,8199],[85,8256],[85,8317],[85,8378],[85,8440],[85,8506]]",1,0,372.4883,374.9286,94.80234261,2.0088,"[{""rating"":84.99267935578331,""responseTime"":0.8631000000238487},{""rating"":91.1420204978038,""responseTime"":1.5286999999285058},{""rating"":94.80234260614935,""responseTime"":2.0087999999523163}]",space,1.8928,,374.9305,Not at all,0,374.9374,,,[],,0,5,5,5,1,audio/Narrative7Situation5.wav,audio/Narrative8Situation5.wav,audio/Narrative5Situation5.wav,audio/Narrative6Situation5.wav,5,2,5,2,,,,,,,,,,,,,,,,,,,,,,,,,,,,,,,,,,,,,,,
,,,,,,5f121091e95fdc03b5e897d0,2024-02-08_16h03.32.889,group3.1-3.2-social-tom,2023.2.2,Win32,41.15226337,65c5074098b851296ff0b7ed,65c5416e8162edf01ba95d81,,,,,,,,,,,,,,,,,,,,,,,,,,,,,374.9383,1,audio/Narrative7Situation6.wav,377.9479,,377.948,387.9177,"[[999,19],[999,110],[999,170],[999,230],[999,289],[999,349],[999,409],[999,468],[999,534],[999,599],[999,660],[999,730],[999,790],[999,850],[999,910],[999,969],[999,1030],[999,1089],[999,1149],[999,1209],[999,1270],[999,1331],[999,1389],[999,1449],[999,1509],[999,1569],[999,1639],[999,1699],[999,1759],[999,1819],[999,1879],[999,1940],[999,1999],[999,2058],[999,2119],[999,2185],[999,2239],[999,2299],[999,2359],[999,2419],[999,2481],[999,2540],[999,2599],[999,2662],[999,2730],[999,2789],[999,2849],[999,2909],[999,2975],[77.2,3035],[82.2,3097],[85.1,3285],[85.7,3347],[86.6,3414],[86.7,3469],[86.7,3539],[86.7,3606],[86.9,3680],[86.9,3739],[87,3800],[87,3859],[87,3919],[87,3980],[87,4039],[86.9,4100],[87,4164],[87.6,4223],[87.8,4281],[87.8,4339],[87.8,4399],[87.8,4459],[87.8,4519],[87.8,4583],[87.8,4656],[87.8,4718],[87.8,4780],[87.8,4840],[87.8,4899],[87.8,4959],[87.8,5019],[87.8,5080],[87.8,5139],[87.8,5199],[87.8,5259],[87.8,5319],[87.8,5381],[87.8,5439],[87.8,5503],[87.8,5569],[87.8,5633],[87.8,5691],[87.8,5749],[87.8,5809],[87.8,5869],[87.8,5930],[87.8,5989],[87.8,6049],[87.8,6109],[87.8,6180],[87.8,6237],[87.8,6299],[87.8,6359],[87.8,6419],[87.8,6480],[87.8,6537],[87.8,6602],[87.8,6664],[87.8,6719],[87.8,6780],[87.8,6838],[87.8,6899],[87.8,6959],[87.8,7019],[87.8,7079],[87.8,7139],[87.8,7199],[87.8,7259],[87.8,7319],[87.8,7380],[87.8,7439],[87.8,7499],[87.8,7559],[87.8,7620],[87.8,7681],[87.8,7740],[87.8,7799],[87.8,7859],[87.8,7919],[87.8,7980],[87.8,8040],[87.8,8099],[87.8,8159],[87.8,8219],[87.8,8281],[87.8,8339],[87.8,8399],[87.8,8459],[87.8,8521],[87.8,8581],[87.8,8642],[87.8,8699],[87.8,8759],[87.8,8819],[87.8,8880],[87.8,8940],[87.8,8999],[87.8,9059],[87.8,9119],[87.8,9189],[87.8,9249],[87.8,9309],[87.8,9370],[87.8,9431],[87.8,9490],[87.8,9549],[87.8,9608],[87.8,9684],[87.8,9749],[87.8,9809],[87.8,9869],[87.8,9930]]",1,0,387.9189,389.9493,93.33821376,1.4061,"[{""rating"":93.33821376281112,""responseTime"":1.4060999999045976}]",space,1.4797,,389.9495,All the time,100,389.9585,,,[],,0,6,6,6,1,audio/Narrative7Situation6.wav,audio/Narrative8Situation6.wav,audio/Narrative5Situation6.wav,audio/Narrative6Situation6.wav,3,2,3,2,,,,,,,,,,,,,,,,,,,,,,,,,,,,,,,,,,,,,,,
,,,,,,5f121091e95fdc03b5e897d0,2024-02-08_16h03.32.889,group3.1-3.2-social-tom,2023.2.2,Win32,41.15226337,65c5074098b851296ff0b7ed,65c5416e8162edf01ba95d81,,,,,,,,,,,,,,,,,,,,,,,,,,,,,389.9599,1,audio/Narrative7Situation7.wav,394.9807,,394.9809,412.1809,"[[999,20],[999,98],[999,156],[999,216],[999,276],[999,336],[999,398],[999,456],[999,516],[999,579],[999,636],[999,709],[999,763],[999,822],[999,886],[999,943],[999,1007],[999,1066],[999,1136],[999,1196],[999,1257],[999,1317],[999,1376],[999,1436],[999,1498],[999,1561],[70.8,1624],[71.1,1678],[76.2,1757],[79.6,1817],[83.7,1873],[87,1934],[89.4,1996],[90.3,2050],[91.1,2112],[91.3,2166],[92.3,2241],[92.6,2297],[92.8,2356],[92.8,2416],[92.8,2476],[92.8,2536],[92.8,2596],[92.8,2659],[92.8,2720],[92.8,2776],[92.8,2836],[92.8,2897],[92.8,2956],[92.8,3016],[92.8,3086],[92.8,3147],[92.8,3206],[92.8,3266],[92.8,3326],[92.8,3386],[92.8,3447],[92.8,3507],[92.8,3566],[92.8,3626],[92.8,3690],[92.8,3747],[92.8,3807],[92.8,3866],[92.8,3926],[92.8,3986],[92.8,4047],[92.8,4111],[92.8,4176],[92.8,4233],[92.8,4296],[92.8,4356],[92.8,4416],[92.8,4476],[92.8,4534],[92.8,4596],[92.8,4656],[92.8,4723],[92.8,4785],[92.8,4856],[92.8,4916],[92.8,4976],[92.8,5036],[92.8,5097],[92.8,5156],[92.8,5226],[92.8,5289],[92.8,5347],[92.8,5406],[92.8,5466],[92.8,5526],[92.8,5586],[92.8,5647],[92.8,5716],[92.8,5766],[92.8,5826],[92.8,5886],[92.8,5947],[92.8,6008],[92.8,6066],[92.8,6126],[92.8,6196],[92.8,6257],[92.8,6316],[92.8,6377],[92.8,6439],[92.8,6497],[92.8,6556],[92.8,6616],[92.8,6677],[92.8,6738],[92.8,6797],[92.8,6856],[92.8,6916],[92.8,6976],[92.8,7036],[92.8,7097],[92.8,7166],[92.8,7228],[92.8,7286],[92.8,7346],[92.8,7407],[92.8,7468],[92.8,7526],[92.8,7586],[92.8,7647],[92.8,7706],[92.8,7776],[92.8,7836],[92.8,7898],[92.8,7957],[92.8,8016],[92.8,8077],[92.8,8136],[92.8,8199],[92.8,8256],[92.8,8316],[92.8,8376],[92.8,8436],[92.8,8497],[92.8,8556],[92.8,8614],[92.8,8676],[92.8,8738],[92.8,8796],[92.8,8856],[92.8,8916],[92.8,8976],[92.8,9036],[92.8,9097],[92.8,9156],[92.8,9216],[92.8,9276],[92.8,9336],[92.8,9397],[92.8,9457],[92.8,9516],[92.8,9576],[92.8,9637],[92.8,9697],[92.8,9758],[92.8,9816],[92.8,9878],[92.8,9936],[92.8,9997],[92.8,10056],[92.8,10117],[92.8,10174],[92.8,10237],[92.8,10296],[92.8,10356],[92.8,10416],[92.8,10479],[92.8,10536],[92.8,10596],[92.8,10656],[92.8,10716],[92.8,10773],[92.8,10836],[92.8,10896],[92.8,10956],[92.8,11016],[92.8,11077],[92.8,11136],[92.8,11196],[92.8,11256],[92.8,11317],[92.8,11376],[92.8,11436],[92.8,11497],[92.8,11556],[92.8,11616],[92.8,11676],[92.8,11739],[92.8,11797],[92.8,11856],[92.8,11916],[92.8,11976],[92.8,12036],[92.8,12096],[92.8,12156],[92.8,12216],[92.8,12277],[92.8,12336],[92.8,12397],[92.8,12456],[92.8,12515],[92.8,12577],[92.8,12636],[92.8,12696],[92.8,12757],[92.8,12826],[92.8,12886],[92.8,12946],[92.8,13004],[92.8,13065],[92.8,13129],[92.8,13184],[92.8,13247],[92.8,13306],[92.8,13366],[92.8,13425],[92.8,13486],[92.8,13547],[92.8,13606],[92.8,13666],[92.8,13728],[92.8,13788],[92.8,13846],[92.8,13908],[92.8,13966],[92.8,14028],[92.8,14086],[92.8,14146],[92.8,14206],[92.8,14266],[92.8,14328],[92.8,14387],[92.8,14456],[92.8,14516],[92.8,14577],[92.8,14636],[92.8,14696],[92.8,14760],[92.8,14828],[92.8,14886],[92.8,14946],[92.8,15006],[92.8,15064],[92.8,15128],[92.8,15186],[92.8,15256],[92.8,15316],[92.8,15378],[92.8,15436],[92.8,15496],[92.8,15556],[92.8,15616],[92.8,15680],[92.8,15736],[92.8,15797],[92.8,15856],[92.8,15916],[92.8,15979],[92.8,16036],[92.8,16096],[92.8,16157],[92.8,16215],[91.9,16299],[92.2,16363],[94.7,16427],[97.7,16488],[98.3,16550],[98.3,16606],[98.3,16667],[98.3,16730],[98.5,16801],[98.5,16847],[98.5,16907],[98.5,16966],[98.5,17028],[98.5,17084],[98.5,17151]]",1,0,412.1814,414.2785,100,1.392,"[{""rating"":100,""responseTime"":1.391999999999996}]",space,1.5558,,414.2786,Not at all,0,414.2885,,,[],,0,7,7,7,1,audio/Narrative7Situation7.wav,audio/Narrative8Situation7.wav,audio/Narrative5Situation7.wav,audio/Narrative6Situation7.wav,5,3,4,5,,,,,,,,,,,,,,,,,,,,,,,,,,,,,,,,,,,,,,,
,,,,,,5f121091e95fdc03b5e897d0,2024-02-08_16h03.32.889,group3.1-3.2-social-tom,2023.2.2,Win32,41.15226337,65c5074098b851296ff0b7ed,65c5416e8162edf01ba95d81,,,,,,,,,,,,,,,,,,,,,,,,,,,,,414.2892,1,audio/Narrative7Situation8.wav,416.3106,,416.3108,426.349,"[[999,1],[999,76],[999,136],[999,199],[999,258],[999,318],[999,376],[999,436],[999,498],[999,557],[999,616],[999,689],[999,754],[999,816],[70.5,882],[70.2,939],[70.2,987],[70.2,1049],[70.1,1110],[69.9,1177],[70.2,1239],[70.6,1302],[74.5,1366],[82.5,1426],[86.3,1502],[86.6,1549],[86.6,1617],[86.6,1676],[86.6,1736],[86.6,1798],[86.6,1857],[86.6,1917],[86.6,1976],[88.1,2042],[90.1,2106],[90.7,2159],[91.3,2225],[91.9,2279],[91.9,2337],[91.9,2401],[91.9,2460],[91.9,2517],[91.9,2576],[91.9,2636],[91.9,2698],[91.9,2757],[91.9,2815],[91.9,2876],[91.9,2936],[91.9,2998],[92,3061],[93.2,3122],[93.3,3176],[93.3,3236],[93.5,3301],[93.6,3357],[93.9,3423],[94.2,3500],[94.4,3560],[94.4,3616],[94.5,3680],[94.5,3738],[94.7,3799],[94.7,3854],[94.7,3916],[94.7,3977],[94.7,4036],[94.7,4098],[94.7,4156],[94.7,4216],[94.7,4276],[94.7,4337],[94.7,4395],[94.7,4459],[94.7,4517],[94.7,4576],[94.7,4636],[94.7,4699],[94.7,4756],[94.7,4817],[94.7,4877],[94.7,4936],[94.7,4997],[94.7,5056],[94.7,5115],[94.7,5176],[94.7,5236],[94.7,5298],[94.7,5356],[94.7,5420],[94.7,5482],[94.7,5536],[94.7,5598],[94.7,5656],[94.7,5716],[94.7,5776],[94.7,5835],[94.7,5897],[94.7,5956],[94.7,6016],[94.7,6076],[94.7,6136],[94.7,6197],[94.7,6256],[94.7,6315],[94.7,6376],[94.7,6439],[94.7,6506],[94.7,6566],[94.7,6627],[94.7,6686],[94.7,6747],[94.7,6806],[94.7,6866],[94.7,6934],[94.7,7000],[94.7,7057],[94.7,7115],[94.7,7179],[94.7,7236],[94.7,7298],[94.7,7358],[94.7,7419],[94.7,7477],[94.7,7536],[94.7,7598],[94.7,7656],[97.3,7753],[97.9,7817],[98.2,7880],[98.2,7936],[98.2,7999],[98.2,8056],[98.2,8116],[98.2,8176],[98.2,8236],[98.3,8298],[98.3,8357],[98.6,8420],[99,8503],[99.3,8552],[99.3,8607],[99.3,8668],[99.3,8727],[99.3,8785],[99.5,8848],[99.9,8909],[100,8972],[100,9033],[100,9104],[100,9158],[100,9218],[100,9287],[100,9344],[100,9406],[100,9468],[100,9531],[100,9596],[100,9651],[100,9716],[100,9773],[100,9836],[100,9896],[100,9956],[100,10016]]",1,0,426.3496,430.5472,100,1.993,"[{""rating"":100,""responseTime"":1.992999999999995}]",space,3.6535,,430.5475,Half the time,50,430.5584,,,[],,0,8,8,8,1,audio/Narrative7Situation8.wav,audio/Narrative8Situation8.wav,audio/Narrative5Situation8.wav,audio/Narrative6Situation8.wav,2,3,3,5,,,,,,,,,,,,,,,,,,,,,,,,,,,,,,,,,,,,,,,
,,,,,,5f121091e95fdc03b5e897d0,2024-02-08_16h03.32.889,group3.1-3.2-social-tom,2023.2.2,Win32,41.15226337,65c5074098b851296ff0b7ed,65c5416e8162edf01ba95d81,,,,,,,,,,,,,,,,,,,,,,,,,,,,,430.5592,1,audio/Narrative7Situation9.wav,432.568,,432.5682,441.198,"[[999,2],[999,78],[999,140],[999,200],[999,263],[999,329],[999,390],[999,448],[999,509],[999,570],[999,628],[999,697],[100,759],[100,816],[98.5,881],[96.1,941],[93.2,1008],[93,1051],[93,1109],[93,1170],[93.2,1243],[93.6,1313],[94.5,1373],[95.2,1432],[95.7,1494],[95.8,1549],[96,1610],[96.1,1665],[96.3,1731],[96.7,1802],[97.4,1863],[97.9,1923],[98,1981],[98.2,2043],[98.6,2112],[99,2176],[99,2228],[99.2,2300],[99.2,2369],[99.2,2430],[99.2,2490],[99.2,2549],[99.2,2609],[99.5,2672],[99.8,2731],[100,2796],[100,2853],[100,2912],[100,2974],[100,3032],[100,3093],[100,3152],[100,3213],[100,3278],[100,3340],[100,3399],[100,3459],[100,3518],[100,3578],[100,3640],[100,3699],[100,3759],[100,3819],[100,3878],[100,3940],[100,3999],[100,4059],[100,4119],[100,4179],[100,4240],[100,4307],[100,4359],[100,4418],[100,4479],[100,4543],[100,4608],[100,4668],[100,4728],[100,4789],[100,4849],[100,4909],[100,4968],[100,5029],[100,5099],[100,5159],[100,5218],[100,5277],[100,5340],[100,5400],[100,5459],[100,5519],[100,5576],[100,5640],[100,5699],[100,5759],[100,5819],[100,5878],[100,5939],[100,5999],[100,6059],[100,6118],[100,6179],[100,6241],[100,6299],[100,6369],[100,6428],[100,6490],[100,6549],[100,6609],[100,6668],[100,6728],[100,6790],[100,6849],[100,6909],[100,6968],[100,7028],[100,7088],[100,7149],[100,7209],[100,7269],[100,7334],[100,7390],[100,7449],[100,7509],[100,7568],[100,7628],[100,7690],[100,7749],[100,7818],[100,7878],[100,7946],[100,8001],[100,8059],[100,8119],[100,8179],[100,8239],[100,8302],[100,8368],[100,8428],[100,8486],[100,8549],[100,8609]]",1,0,441.1985,443.3372,98.90190337,1.6253,"[{""rating"":98.90190336749633,""responseTime"":1.62529999995229}]",space,1.5835,,443.3375,Half the time,50,443.3434,,,[],,0,9,9,9,1,audio/Narrative7Situation9.wav,audio/Narrative8Situation9.wav,audio/Narrative5Situation9.wav,audio/Narrative6Situation9.wav,2,3,3,4,,,,,,,,,,,,,,,,,,,,,,,,,,,,,,,,,,,,,,,
,,,,,,5f121091e95fdc03b5e897d0,2024-02-08_16h03.32.889,group3.1-3.2-social-tom,2023.2.2,Win32,41.15226337,65c5074098b851296ff0b7ed,65c5416e8162edf01ba95d81,,,,,,,,,,,,,,,,,,,,,,,,,,,,,443.344,1,audio/Narrative8Situation1.wav,448.3585,,448.3585,464.3189,"[[999,20],[999,84],[999,138],[999,200],[999,258],[999,319],[999,379],[999,438],[999,499],[999,576],[999,632],[999,700],[999,769],[999,829],[999,889],[999,950],[999,1009],[999,1068],[999,1128],[999,1188],[999,1250],[999,1308],[999,1368],[999,1426],[999,1488],[999,1550],[999,1608],[999,1668],[999,1730],[999,1799],[999,1860],[999,1921],[999,1978],[999,2049],[999,2108],[999,2168],[999,2232],[999,2304],[999,2365],[75.9,2428],[72.1,2664],[70.8,2724],[69.8,2786],[67.3,2845],[60.4,2906],[53.1,2966],[50,3029],[49.4,3086],[49.4,3138],[49.3,3202],[49.3,3259],[49.3,3319],[49.3,3378],[49.3,3438],[49.3,3500],[49.3,3561],[49.3,3618],[49.3,3678],[49.3,3739],[49.3,3800],[49.3,3858],[49.3,3918],[49.3,3978],[49.3,4038],[49.3,4100],[49.3,4159],[49.3,4218],[49.3,4278],[49.3,4338],[49.3,4399],[49.3,4459],[49.3,4519],[49.3,4588],[49.3,4638],[49.3,4700],[49.3,4758],[49.3,4818],[49.3,4878],[49.3,4939],[49.3,4999],[49.3,5059],[49.3,5118],[49.3,5178],[49.3,5239],[49.3,5299],[49.3,5359],[49.3,5418],[49.3,5478],[49.3,5538],[49.3,5605],[49.3,5669],[49.3,5728],[49.3,5788],[49.3,5849],[49.3,5908],[49.3,5968],[49.3,6035],[49.3,6100],[49.3,6158],[49.3,6218],[49.3,6278],[49.3,6335],[49.3,6400],[49.3,6459],[49.3,6518],[49.3,6583],[49.3,6649],[49.3,6709],[49.3,6768],[49.3,6828],[49.3,6888],[49.3,6949],[49.3,7009],[49.3,7068],[49.3,7128],[49.3,7188],[49.3,7250],[49.3,7308],[49.3,7368],[49.3,7428],[49.3,7489],[49.3,7549],[49.3,7612],[49.3,7669],[49.3,7728],[49.3,7788],[49.3,7849],[49.3,7909],[49.3,7967],[49.3,8028],[49.3,8088],[49.3,8150],[49.3,8209],[49.3,8268],[49.3,8328],[49.3,8389],[49.3,8449],[49.3,8508],[49.3,8568],[49.3,8632],[49.3,8688],[49.3,8748],[49.3,8808],[49.3,8868],[49.3,8928],[49.3,8988],[49.3,9049],[49.3,9108],[49.3,9168],[49.3,9228],[49.3,9288],[49.3,9349],[49.3,9408],[49.3,9468],[49.3,9529],[49.3,9592],[49.3,9649],[49.3,9708],[49.3,9768],[49.3,9830],[49.3,9889],[49.3,9950],[49.3,10008],[49.3,10068],[49.3,10128],[49.3,10188],[49.3,10245],[49.3,10308],[49.3,10368],[49.3,10431],[49.3,10489],[49.3,10549],[49.3,10608],[49.3,10678],[49.3,10738],[49.3,10800],[49.3,10858],[49.3,10918],[49.3,10978],[49.3,11038],[49.3,11100],[49.3,11159],[49.3,11218],[49.3,11278],[49.3,11338],[49.3,11399],[49.3,11458],[49.3,11518],[49.3,11578],[49.3,11653],[49.3,11719],[49.3,11781],[49.3,11838],[49.3,11899],[49.3,11958],[49.3,12018],[49.3,12078],[49.3,12138],[49.3,12199],[49.3,12259],[49.3,12319],[49.3,12378],[49.3,12439],[49.3,12499],[49.3,12561],[49.3,12630],[49.3,12688],[49.3,12749],[49.3,12808],[49.3,12868],[49.3,12928],[49.3,12989],[49.3,13049],[49.3,13108],[49.3,13168],[49.3,13229],[49.3,13288],[49.3,13350],[49.3,13408],[49.3,13473],[49.3,13534],[49.3,13593],[49.3,13665],[49.3,13728],[49.3,13790],[49.3,13854],[49.3,13911],[49.3,13968],[49.3,14039],[49.3,14099],[49.3,14158],[49.3,14218],[49.3,14278],[49.3,14337],[49.3,14399],[49.3,14458],[49.3,14518],[49.3,14578],[49.3,14640],[49.3,14700],[49.3,14758],[49.3,14818],[49.3,14878],[49.3,14939],[49.3,14999],[49.3,15059],[49.3,15118],[49.3,15178],[49.3,15238],[49.3,15299],[49.3,15358],[49.3,15418],[49.3,15478],[49.3,15538],[49.3,15598],[49.3,15671],[49.3,15730],[49.3,15789],[49.4,15854],[57.3,15940]]",1,0,464.3191,469.348,58.19912152,1.5575,"[{""rating"":58.199121522694,""responseTime"":1.5575000000000045}]",space,4.4812,,469.3481,All the time,100,469.3819,,,[],,0,10,10,10,1,audio/Narrative8Situation1.wav,audio/Narrative7Situation1.wav,audio/Narrative6Situation1.wav,audio/Narrative5Situation1.wav,5,2,2,5,,,,,,,,,,,,,,,,,,,,,,,,,,,,,,,,,,,,,,,
,,,,,,5f121091e95fdc03b5e897d0,2024-02-08_16h03.32.889,group3.1-3.2-social-tom,2023.2.2,Win32,41.15226337,65c5074098b851296ff0b7ed,65c5416e8162edf01ba95d81,,,,,,,,,,,,,,,,,,,,,,,,,,,,,469.3826,1,audio/Narrative8Situation2.wav,472.3896,,472.3898,482.5182,"[[51.6,761],[50.9,826],[50.6,878],[50.3,940],[49.7,1000],[49.6,1067],[49.6,1130],[49.6,1191],[49.6,1249],[49.7,1309],[49.7,1369],[49.9,1427],[49.9,1487],[50.3,1552],[52.6,1626],[54,1703],[54.2,1758],[54.5,1832],[54.8,1887],[55,1951],[55.1,2007],[55.3,2072],[55.4,2127],[55.9,2192],[56.6,2254],[57.3,2311],[57.6,2371],[57.8,2427],[57.9,2487],[57.9,2546],[57.9,2607],[57.9,2668],[57.9,2727],[57.9,2787],[57.9,2849],[57.9,2907],[57.9,2968],[57.9,3030],[57.9,3087],[57.9,3150],[57.9,3207],[57.9,3268],[59.8,3331],[62.9,3397],[64.5,3457],[66.7,3519],[69.5,3577],[71.8,3643],[74.3,3722],[78,3781],[80.2,3840],[80.3,3892],[80.3,3953],[80.5,4012],[80.5,4076],[80.5,4149],[80.5,4207],[80.5,4268],[80.5,4327],[80.5,4387],[80.5,4449],[80.5,4507],[80.5,4568],[80.5,4627],[80.5,4700],[80.5,4768],[80.5,4827],[80.5,4885],[80.5,4949],[80.5,5007],[80.5,5068],[80.5,5127],[80.5,5185],[80.5,5249],[80.5,5307],[80.5,5366],[80.5,5426],[80.5,5485],[80.5,5548],[80.5,5608],[80.5,5674],[80.5,5737],[80.5,5799],[80.5,5857],[80.5,5917],[80.5,5977],[80.5,6037],[80.5,6099],[80.5,6157],[80.5,6217],[80.5,6277],[80.5,6337],[80.5,6399],[80.5,6458],[80.5,6517],[80.5,6577],[80.5,6637],[80.5,6699],[80.5,6758],[80.5,6817],[80.5,6877],[80.5,6937],[80.5,6999],[80.5,7057],[80.5,7116],[80.5,7177],[80.5,7237],[80.5,7301],[80.5,7368],[80.5,7427],[80.5,7487],[80.5,7549],[80.5,7608],[80.5,7668],[80.5,7732],[80.5,7788],[80.5,7848],[80.5,7917],[80.5,7977],[80.5,8037],[80.5,8099],[80.5,8157],[80.5,8217],[80.5,8277],[80.5,8337],[80.5,8404],[80.5,8466],[80.5,8528],[80.5,8587],[80.5,8649],[80.5,8707],[80.5,8768],[80.5,8827],[80.5,8887],[80.5,8949],[80.5,9007],[80.5,9068],[80.5,9128],[80.5,9187],[80.5,9248],[80.5,9307],[80.5,9366],[80.5,9427],[80.5,9487],[80.5,9549],[80.5,9607],[80.5,9671],[88.5,9770],[94.5,9825],[96,9885],[98.5,9945],[99,10001],[99,10068],[99,10127]]",1,0,482.5216,484.308,99.19472914,1.0299,"[{""rating"":99.19472913616399,""responseTime"":1.0298999999761236}]",space,1.24,,484.3081,Not at all,0,484.317,,,[],,0,11,11,11,1,audio/Narrative8Situation2.wav,audio/Narrative7Situation2.wav,audio/Narrative6Situation2.wav,audio/Narrative5Situation2.wav,3,3,3,3,,,,,,,,,,,,,,,,,,,,,,,,,,,,,,,,,,,,,,,
,,,,,,5f121091e95fdc03b5e897d0,2024-02-08_16h03.32.889,group3.1-3.2-social-tom,2023.2.2,Win32,41.15226337,65c5074098b851296ff0b7ed,65c5416e8162edf01ba95d81,,,,,,,,,,,,,,,,,,,,,,,,,,,,,484.3175,1,audio/Narrative8Situation3.wav,488.3195,,488.3198,510.7074,"[[999,18],[999,97],[999,157],[999,218],[999,278],[999,337],[999,397],[999,457],[999,518],[999,577],[999,638],[999,698],[999,758],[999,821],[999,878],[999,937],[999,997],[999,1057],[999,1119],[999,1177],[999,1237],[999,1297],[999,1357],[999,1418],[999,1478],[999,1537],[999,1597],[999,1657],[999,1718],[999,1777],[999,1836],[999,1898],[999,1957],[999,2019],[999,2079],[999,2135],[999,2197],[999,2258],[999,2319],[999,2377],[999,2437],[999,2497],[999,2557],[999,2618],[999,2677],[999,2737],[999,2807],[999,2857],[999,2918],[999,2978],[999,3047],[999,3109],[999,3169],[999,3228],[999,3297],[999,3357],[999,3420],[999,3477],[999,3545],[999,3607],[999,3675],[999,3729],[999,3787],[999,3859],[85.1,3944],[75.3,4191],[75.5,4254],[75.9,4312],[76.4,4372],[76.6,4437],[76.6,4497],[76.6,4557],[76.6,4627],[76.6,4687],[76.6,4747],[76.6,4817],[76.6,4869],[76.6,4927],[76.6,4985],[76.6,5047],[76.6,5107],[76.6,5168],[76.6,5227],[76.6,5287],[76.6,5347],[76.6,5407],[76.6,5468],[76.6,5527],[76.6,5585],[76.6,5647],[76.6,5709],[76.6,5768],[78.6,5845],[81.6,5907],[82.4,5960],[82.4,6019],[82.7,6077],[82.9,6140],[83.1,6200],[83.2,6261],[83.2,6319],[83.2,6377],[83.2,6437],[83.2,6495],[83.2,6557],[83.2,6618],[83.2,6678],[83.2,6738],[83.2,6797],[83.2,6872],[83.2,6927],[83.2,6987],[83.2,7047],[83.2,7105],[83.2,7170],[83.2,7237],[83.2,7297],[83.2,7357],[83.2,7415],[83.2,7477],[83.2,7538],[83.2,7597],[83.2,7657],[83.2,7718],[83.2,7777],[83.2,7845],[83.2,7908],[83.2,7969],[83.2,8027],[83.2,8087],[83.2,8147],[83.2,8207],[83.2,8268],[83.2,8327],[83.2,8387],[83.2,8447],[83.2,8504],[83.2,8568],[83.2,8627],[83.2,8688],[83.2,8747],[83.2,8806],[83.2,8868],[83.2,8927],[83.2,8988],[83.2,9047],[83.2,9107],[83.2,9168],[83.2,9228],[83.2,9287],[83.2,9347],[83.2,9407],[83.2,9468],[83.2,9528],[83.2,9588],[83.2,9647],[83.2,9707],[83.2,9769],[83.2,9830],[83.2,9888],[83.2,9947],[83.2,10007],[83.2,10068],[83.2,10127],[83.2,10187],[83.2,10248],[83.2,10307],[83.2,10368],[83.2,10428],[83.2,10488],[83.2,10547],[83.2,10608],[83.2,10668],[83.2,10727],[83.2,10787],[83.2,10853],[83.2,10908],[83.2,10968],[83.2,11027],[83.2,11094],[83.2,11157],[83.2,11228],[83.2,11287],[83.2,11347],[83.2,11407],[83.2,11467],[83.2,11527],[83.2,11587],[83.2,11647],[83.2,11707],[83.2,11767],[83.2,11827],[83.2,11887],[83.2,11950],[83.2,12007],[83.2,12070],[83.2,12127],[83.2,12187],[83.2,12247],[83.2,12307],[83.2,12368],[83.2,12427],[83.2,12487],[83.2,12547],[83.2,12607],[83.2,12669],[83.2,12727],[83.2,12787],[83.2,12850],[83.2,12918],[83.2,12977],[83.2,13037],[83.2,13097],[83.2,13157],[83.2,13224],[83.2,13287],[83.2,13347],[83.2,13407],[83.2,13468],[83.2,13525],[83.2,13587],[83.2,13647],[83.2,13707],[83.2,13768],[83.2,13827],[83.2,13887],[83.2,13947],[83.2,14007],[83.2,14069],[83.2,14137],[83.2,14197],[83.2,14257],[83.2,14318],[83.2,14377],[83.2,14437],[83.2,14497],[83.2,14557],[83.2,14618],[83.2,14677],[83.2,14737],[83.2,14797],[83.2,14868],[83.2,14919],[83.2,14977],[83.2,15037],[83.2,15097],[83.2,15157],[83.2,15218],[83.2,15287],[83.2,15347],[83.2,15407],[83.2,15468],[83.2,15527],[83.2,15587],[83.2,15647],[83.2,15707],[83.2,15768],[83.2,15827],[83.2,15897],[83.2,15957],[83.2,16018],[83.2,16077],[83.2,16138],[83.2,16195],[83.2,16257],[83.2,16318],[83.2,16377],[83.2,16437],[83.2,16497],[83.2,16558],[83.2,16617],[83.2,16677],[83.2,16738],[83.2,16798],[83.2,16857],[83.2,16918],[83.2,16977],[83.2,17037],[83.2,17097],[83.2,17156],[83.2,17221],[83.2,17287],[83.2,17347],[83.2,17407],[83.2,17468],[83.2,17527],[83.2,17587],[83.2,17650],[83.2,17705],[83.2,17768],[83.2,17827],[83.2,17896],[83.2,17951],[83.2,18018],[83.2,18078],[83.2,18137],[83.2,18197],[83.2,18267],[83.2,18327],[83.2,18388],[83.2,18447],[83.2,18507],[83.2,18568],[83.2,18627],[83.2,18687],[83.2,18747],[83.2,18806],[83.2,18868],[83.2,18934],[83.2,18997],[83.2,19058],[83.2,19118],[83.2,19177],[83.2,19235],[83.2,19297],[83.2,19358],[83.2,19418],[83.2,19477],[83.2,19537],[83.2,19597],[83.2,19657],[83.2,19718],[83.2,19777],[83.2,19837],[83.2,19900],[83.2,19962],[83.2,20027],[83.2,20087],[83.2,20147],[83.2,20207],[83.2,20268],[83.2,20328],[83.2,20387],[83.2,20447],[83.2,20507],[83.2,20568],[83.2,20629],[83.2,20687],[83.2,20747],[83.2,20807],[83.2,20869],[83.2,20944],[83.2,21002],[83.2,21069],[83.2,21127],[83.2,21187],[83.2,21247],[83.2,21307],[83.2,21368],[83.2,21427],[83.2,21487],[83.2,21544],[83.2,21608],[83.2,21668],[83.2,21727],[83.2,21786],[83.2,21846],[83.2,21907],[83.2,21969],[83.2,22027],[83.2,22087],[83.2,22146],[83.2,22207],[83.2,22268],[83.2,22327],[83.2,22387]]",1,0,510.7088,514.1272,99.78038067,3.0324,"[{""rating"":92.16691068814056,""responseTime"":1.893299999952319},{""rating"":99.78038067349927,""responseTime"":3.032399999976178}]",space,2.8751,,514.1274,Half the time,50,514.1377,,,[],,0,12,12,12,1,audio/Narrative8Situation3.wav,audio/Narrative7Situation3.wav,audio/Narrative6Situation3.wav,audio/Narrative5Situation3.wav,4,8,5,3,,,,,,,,,,,,,,,,,,,,,,,,,,,,,,,,,,,,,,,
,,,,,,5f121091e95fdc03b5e897d0,2024-02-08_16h03.32.889,group3.1-3.2-social-tom,2023.2.2,Win32,41.15226337,65c5074098b851296ff0b7ed,65c5416e8162edf01ba95d81,,,,,,,,,,,,,,,,,,,,,,,,,,,,,514.1384,1,audio/Narrative8Situation4.wav,517.1542,,517.1543,531.3397,"[[999,21],[999,99],[999,159],[999,219],[999,277],[999,337],[999,399],[999,457],[999,518],[999,576],[999,637],[999,714],[999,773],[999,844],[999,903],[999,961],[999,1022],[999,1083],[999,1150],[999,1218],[999,1280],[999,1339],[84.4,1403],[84.4,1455],[84.1,1523],[82.7,1583],[82.5,1637],[82.5,1699],[82.5,1757],[82.4,1820],[82.2,1877],[81.9,1940],[81.8,2003],[81.8,2057],[81.8,2118],[81.9,2185],[82.2,2238],[83.4,2306],[85.9,2368],[86.3,2419],[87.3,2485],[88.4,2546],[88.5,2612],[88.5,2672],[88.5,2733],[88.5,2792],[88.5,2852],[88.5,2912],[88.5,2973],[88.5,3034],[88.5,3093],[88.5,3166],[88.5,3222],[88.5,3283],[88.5,3343],[88.5,3402],[88.5,3462],[88.5,3522],[88.5,3584],[88.5,3642],[88.5,3702],[88.5,3762],[88.5,3822],[88.5,3889],[88.5,3942],[88.5,4003],[88.5,4063],[88.5,4122],[88.5,4183],[88.5,4242],[88.5,4302],[88.5,4362],[88.5,4422],[88.5,4485],[88.5,4542],[88.5,4603],[88.5,4662],[88.5,4722],[88.5,4783],[88.5,4842],[88.5,4903],[88.5,4962],[88.5,5023],[88.5,5084],[88.5,5145],[88.5,5217],[88.5,5283],[88.5,5342],[88.5,5402],[88.5,5465],[88.5,5523],[88.5,5583],[88.5,5643],[88.5,5702],[88.5,5762],[88.5,5822],[88.5,5883],[88.5,5942],[88.5,6002],[88.5,6063],[88.5,6123],[88.5,6188],[88.5,6243],[88.5,6303],[88.5,6362],[88.5,6423],[88.5,6484],[88.5,6542],[88.5,6602],[88.5,6663],[88.5,6723],[88.5,6783],[88.5,6842],[88.5,6902],[88.5,6963],[88.5,7023],[88.5,7084],[88.5,7142],[88.5,7212],[88.5,7273],[88.5,7333],[88.5,7392],[88.5,7452],[88.5,7512],[88.5,7573],[88.5,7633],[88.5,7693],[88.5,7753],[88.5,7812],[88.5,7873],[88.5,7933],[88.5,7992],[88.5,8053],[88.5,8115],[88.5,8176],[88.5,8242],[88.5,8302],[88.5,8362],[88.5,8422],[88.5,8479],[88.5,8542],[88.5,8617],[88.5,8673],[88.5,8743],[88.5,8803],[88.5,8865],[88.5,8922],[88.5,8983],[88.5,9042],[88.5,9102],[88.5,9162],[88.5,9222],[88.5,9283],[88.5,9342],[88.5,9402],[88.5,9462],[88.5,9523],[88.5,9583],[88.5,9642],[88.5,9702],[88.5,9762],[88.5,9822],[88.5,9884],[88.5,9942],[88.5,10002],[88.5,10062],[88.5,10122],[88.5,10186],[88.5,10252],[88.5,10313],[88.5,10373],[88.5,10433],[88.5,10503],[88.5,10562],[88.5,10622],[88.5,10683],[88.5,10743],[88.5,10802],[88.5,10864],[88.5,10923],[88.5,10983],[88.5,11042],[88.5,11102],[88.5,11166],[88.5,11223],[88.5,11283],[88.5,11342],[88.5,11403],[88.5,11462],[88.5,11523],[88.5,11583],[88.5,11644],[88.5,11703],[88.5,11762],[88.5,11823],[88.5,11882],[88.5,11942],[88.5,12004],[88.5,12066],[88.5,12122],[88.5,12184],[88.5,12244],[88.5,12305],[88.5,12365],[88.5,12423],[88.5,12488],[88.5,12548],[88.5,12608],[88.5,12668],[88.5,12743],[88.5,12810],[88.5,12871],[88.5,12935],[88.5,12993],[88.5,13053],[88.5,13117],[88.5,13177],[88.5,13240],[88.5,13303],[88.5,13367],[88.5,13441],[88.5,13501],[88.5,13565],[88.5,13625],[88.5,13684],[88.5,13743],[88.5,13808],[88.5,13867],[88.5,13927],[88.5,13996],[88.5,14063],[88.5,14123],[88.5,14184]]",1,0,531.341,534.4711,99.34114202,2.4122,"[{""rating"":99.3411420204978,""responseTime"":2.412200000047619}]",space,2.5867,,534.4711,Not at all,0,534.4804,,,[],,0,13,13,13,1,audio/Narrative8Situation4.wav,audio/Narrative7Situation4.wav,audio/Narrative6Situation4.wav,audio/Narrative5Situation4.wav,3,3,2,1,,,,,,,,,,,,,,,,,,,,,,,,,,,,,,,,,,,,,,,
,,,,,,5f121091e95fdc03b5e897d0,2024-02-08_16h03.32.889,group3.1-3.2-social-tom,2023.2.2,Win32,41.15226337,65c5074098b851296ff0b7ed,65c5416e8162edf01ba95d81,,,,,,,,,,,,,,,,,,,,,,,,,,,,,534.4812,1,audio/Narrative8Situation5.wav,536.499,,536.4996,544.8283,"[[76.5,1425],[68.4,1504],[64.1,1572],[64.1,1775],[65.4,1841],[65.8,1889],[65.8,1952],[65.8,2015],[65.8,2074],[65.8,2140],[65.8,2206],[65.8,2262],[65.8,2327],[65.8,2401],[65.8,2461],[65.8,2525],[65.8,2588],[65.8,2649],[65.8,2719],[65.8,2792],[65.8,2853],[65.8,2914],[65.8,2987],[68.2,3045],[73.9,3110],[76.8,3173],[81,3346],[82.1,3425],[84,3492],[84.8,3559],[84.8,3631],[84.8,3698],[84.8,3763],[84.8,3829],[84.8,3892],[84.8,3958],[84.8,4020],[84.8,4078],[84.8,4142],[84.8,4202],[84.8,4262],[84.8,4322],[84.8,4382],[84.8,4448],[84.8,4508],[84.8,4569],[84.8,4632],[84.8,4692],[84.8,4755],[84.8,4824],[84.8,4894],[84.8,4968],[84.8,5040],[84.8,5108],[84.8,5170],[84.8,5232],[84.8,5296],[84.8,5359],[84.8,5414],[85.1,5475],[85.3,5542],[85.9,5603],[86.7,5663],[86.9,5722],[86.9,5781],[86.9,5841],[86.9,5907],[86.9,5970],[86.9,6028],[86.9,6088],[86.9,6155],[86.9,6212],[86.9,6275],[86.9,6341],[86.9,6407],[86.9,6466],[86.9,6532],[86.9,6603],[86.9,6671],[86.9,6732],[86.9,6795],[86.9,6854],[86.9,6913],[86.9,6980],[86.9,7038],[86.9,7102],[86.9,7158],[86.9,7222],[86.9,7285],[86.9,7356],[86.9,7417],[86.9,7490],[86.9,7558],[86.9,7630],[86.9,7706],[86.9,7776],[86.9,7848],[86.9,7920],[86.9,8013],[86.9,8068],[86.9,8137],[86.9,8209]]",1,0,544.8286,547.3262,100,1.7412,"[{""rating"":100,""responseTime"":1.7412000000476837}]",space,1.9516,,547.3263,Half the time,50,547.3333,,,[],,0,14,14,14,1,audio/Narrative8Situation5.wav,audio/Narrative7Situation5.wav,audio/Narrative6Situation5.wav,audio/Narrative5Situation5.wav,2,5,2,5,,,,,,,,,,,,,,,,,,,,,,,,,,,,,,,,,,,,,,,
,,,,,,5f121091e95fdc03b5e897d0,2024-02-08_16h03.32.889,group3.1-3.2-social-tom,2023.2.2,Win32,41.15226337,65c5074098b851296ff0b7ed,65c5416e8162edf01ba95d81,,,,,,,,,,,,,,,,,,,,,,,,,,,,,547.3343,1,audio/Narrative8Situation6.wav,549.3371,,549.3372,555.8087,"[[999,1],[999,79],[999,152],[999,219],[999,281],[999,341],[999,414],[999,472],[999,532],[999,593],[999,652],[999,712],[999,772],[999,833],[999,892],[999,951],[999,1014],[999,1072],[999,1136],[999,1191],[999,1253],[999,1311],[999,1382],[999,1442],[999,1502],[999,1561],[999,1623],[999,1682],[999,1742],[999,1802],[999,1866],[999,1924],[999,1984],[999,2047],[999,2106],[999,2172],[999,2232],[999,2294],[999,2354],[999,2413],[999,2474],[999,2533],[999,2593],[999,2658],[999,2716],[999,2779],[999,2852],[999,2921],[999,2976],[999,3039],[999,3098],[999,3167],[999,3217],[999,3285],[999,3347],[999,3420],[999,3485],[999,3556],[999,3632],[999,3703],[999,3761],[999,3830],[999,3906],[999,3972],[999,4033],[999,4146],[999,4187],[999,4245],[999,4303],[999,4372],[999,4425],[999,4491],[999,4554],[999,4612],[999,4671],[999,4738],[999,4799],[999,4855],[999,4916],[999,4988],[999,5040],[999,5102],[999,5207],[83.2,5271],[87,5382],[88.2,5453],[88.8,5517],[88.9,5566],[88.9,5617],[89.2,5683],[90.4,5741],[91,5799],[91,5861],[91,5924],[91,5984],[91,6041],[91,6105],[91,6168],[91,6227],[91,6291],[91,6348],[91,6405],[91,6471]]",1,0,555.8091,558.1593,100,1.7215,"[{""rating"":93.92386530014642,""responseTime"":1.002200000047651},{""rating"":100,""responseTime"":1.7214999999999918}]",space,1.8082,,558.1595,Not at all,0,558.171,,,[],,0,15,15,15,1,audio/Narrative8Situation6.wav,audio/Narrative7Situation6.wav,audio/Narrative6Situation6.wav,audio/Narrative5Situation6.wav,2,3,2,3,,,,,,,,,,,,,,,,,,,,,,,,,,,,,,,,,,,,,,,
,,,,,,5f121091e95fdc03b5e897d0,2024-02-08_16h03.32.889,group3.1-3.2-social-tom,2023.2.2,Win32,41.15226337,65c5074098b851296ff0b7ed,65c5416e8162edf01ba95d81,,,,,,,,,,,,,,,,,,,,,,,,,,,,,558.1715,1,audio/Narrative8Situation7.wav,561.1787,,561.1789,573.2836,"[[100,1056],[96.7,1116],[93.5,1178],[93.3,1231],[93.2,1294],[92.8,1354],[92.6,1419],[92.6,1481],[92.6,1540],[92.6,1599],[92.6,1659],[92.6,1719],[92.6,1778],[92.6,1839],[92.6,1899],[92.6,1959],[92.6,2022],[92.6,2077],[92.6,2140],[92.6,2199],[92.6,2265],[92.6,2328],[92.6,2399],[92.6,2459],[92.6,2518],[92.6,2578],[92.6,2639],[92.6,2699],[92.6,2759],[92.6,2820],[92.6,2879],[92.6,2939],[92.6,3000],[92.6,3058],[92.6,3119],[92.6,3179],[92.6,3239],[92.6,3298],[92.6,3372],[92.6,3440],[92.6,3499],[92.6,3557],[92.6,3622],[92.6,3679],[92.6,3747],[92.6,3806],[92.6,3863],[92.6,3929],[92.6,3989],[92.6,4049],[92.6,4108],[92.6,4169],[92.6,4229],[92.6,4290],[92.6,4349],[92.6,4420],[92.6,4479],[92.6,4542],[92.6,4598],[92.6,4659],[92.6,4720],[92.6,4779],[92.6,4840],[92.6,4899],[92.6,4959],[92.6,5019],[92.6,5078],[92.6,5140],[92.6,5199],[94.7,5325],[94.8,5379],[94.8,5432],[94.8,5479],[94.8,5541],[94.8,5600],[94.8,5659],[95.1,5727],[95.4,5790],[95.7,5852],[95.7,5909],[95.7,5971],[95.7,6029],[95.7,6089],[95.7,6150],[95.5,6210],[95.4,6271],[95.4,6328],[95.4,6396],[95.4,6459],[95.4,6519],[95.4,6579],[95.4,6640],[95.4,6697],[95.4,6759],[95.4,6820],[95.4,6889],[95.4,6949],[95.4,7009],[95.4,7092],[95.4,7150],[95.4,7209],[95.4,7269],[95.4,7329],[95.4,7399],[95.4,7459],[95.4,7520],[95.4,7579],[95.4,7640],[95.4,7699],[95.4,7759],[95.4,7819],[95.4,7879],[95.4,7939],[95.4,7999],[95.4,8059],[95.4,8116],[95.4,8180],[95.4,8239],[95.4,8299],[95.4,8358],[95.4,8421],[95.4,8479],[95.4,8539],[95.4,8599],[95.4,8658],[95.4,8722],[95.4,8778],[95.4,8843],[95.4,8899],[95.4,8959],[95.4,9018],[95.4,9079],[95.4,9139],[95.4,9199],[95.4,9259],[95.4,9321],[95.4,9379],[96.3,9444],[100,9535],[100,9593],[100,9642],[100,9699],[100,9759],[100,9821],[100,9879],[100,9939],[100,9999],[100,10058],[100,10123],[100,10179],[100,10239],[100,10299],[100,10359],[100,10426],[100,10491],[100,10558],[100,10620],[100,10679],[100,10739],[100,10799],[100,10859],[100,10921],[100,10979],[100,11039],[100,11099],[100,11159],[100,11220],[100,11279],[100,11339],[100,11402],[100,11470],[100,11540],[100,11599],[100,11659],[100,11721],[100,11788],[100,11849],[100,11909],[100,11971],[100,12029],[100,12104]]",1,0,573.2839,576.2382,99.34114202,2.0181,"[{""rating"":99.3411420204978,""responseTime"":2.0181000000238782}]",space,2.4106,,576.2384,All the time,100,576.2501,,,[],,0,16,16,16,1,audio/Narrative8Situation7.wav,audio/Narrative7Situation7.wav,audio/Narrative6Situation7.wav,audio/Narrative5Situation7.wav,3,5,5,4,,,,,,,,,,,,,,,,,,,,,,,,,,,,,,,,,,,,,,,
,,,,,,5f121091e95fdc03b5e897d0,2024-02-08_16h03.32.889,group3.1-3.2-social-tom,2023.2.2,Win32,41.15226337,65c5074098b851296ff0b7ed,65c5416e8162edf01ba95d81,,,,,,,,,,,,,,,,,,,,,,,,,,,,,576.2522,1,audio/Narrative8Situation8.wav,579.2681,,579.2683,592.1406,"[[100,724],[100,792],[92.9,859],[86.7,931],[84.6,991],[82.9,1055],[82.5,1114],[82.5,1169],[83.7,1239],[89.7,1306],[94.1,1372],[94.7,1435],[94.7,1482],[94.7,1541],[94.7,1600],[94.7,1660],[94.7,1722],[94.7,1782],[94.7,1840],[94.7,1901],[94.7,1970],[95.1,2036],[96.6,2111],[96.6,2160],[96.6,2219],[96.6,2281],[96.6,2340],[96.9,2414],[97,2476],[97,2536],[97,2600],[97,2659],[97,2719],[97,2781],[97,2837],[97,2900],[97,2959],[97,3019],[97,3083],[97,3137],[97,3200],[97,3259],[97,3319],[97,3391],[97,3439],[97,3499],[97,3559],[97,3620],[97,3681],[97,3741],[97,3800],[97,3860],[97,3919],[97,3983],[97,4039],[97,4100],[97,4159],[97,4219],[97,4283],[97,4339],[97.4,4421],[98.9,4477],[98.9,4525],[99,4587],[99,4650],[99,4710],[99,4769],[99,4832],[99,4890],[99,4950],[99,5009],[99,5069],[99,5131],[99,5190],[99,5250],[99,5309],[99,5369],[99,5426],[99,5500],[99,5559],[99,5620],[99,5682],[99,5740],[99,5800],[99,5859],[99,5920],[99,5981],[99,6039],[99,6109],[99,6181],[99,6239],[99,6300],[99,6359],[99,6422],[99,6482],[99,6539],[99,6601],[99,6660],[99,6719],[99,6777],[99,6840],[99,6899],[99,6959],[99,7019],[99,7081],[99,7139],[99,7200],[99,7259],[99,7319],[99,7382],[99,7439],[99,7500],[99,7559],[99,7619],[99,7682],[99,7740],[99,7800],[99,7859],[99,7920],[99,7979],[99,8040],[99,8099],[99,8159],[99,8219],[99,8283],[99,8339],[99,8403],[99,8469],[99,8531],[99,8589],[99,8650],[99,8709],[99,8769],[99,8831],[99,8890],[99,8950],[99,9009],[99,9070],[99,9131],[99,9189],[99,9250],[99,9309],[99,9370],[99,9431],[99,9490],[99,9550],[99,9610],[99,9669],[99,9730],[99,9790],[99,9850],[99,9910],[99,9970],[99,10031],[99,10089],[99,10149],[99,10209],[99,10269],[99,10331],[99,10389],[99,10451],[99,10509],[99,10569],[99,10631],[99,10690],[99,10750],[99,10809],[99,10869],[99,10931],[99,10989],[99,11050],[99,11109],[99,11169],[99,11231],[99,11290],[99,11359],[99,11422],[99,11482],[99,11539],[99,11598],[99,11659],[99,11719],[99,11781],[99,11840],[99,11898],[99,11959],[99,12019],[99,12081],[99,12140],[99,12200],[99,12269],[99,12331],[99,12389],[99,12453],[99,12510],[99,12569],[99,12631],[99,12690],[99,12750],[99,12809],[99,12871]]",1,0,592.1418,595.5886,99.92679356,0.7931,"[{""rating"":99.9267935578331,""responseTime"":0.7931000000238555}]",space,2.8994,,595.5887,All the time,100,595.5946,,,[],,0,17,17,17,1,audio/Narrative8Situation8.wav,audio/Narrative7Situation8.wav,audio/Narrative6Situation8.wav,audio/Narrative5Situation8.wav,3,2,5,3,,,,,,,,,,,,,,,,,,,,,,,,,,,,,,,,,,,,,,,
,,,,,,5f121091e95fdc03b5e897d0,2024-02-08_16h03.32.889,group3.1-3.2-social-tom,2023.2.2,Win32,41.15226337,65c5074098b851296ff0b7ed,65c5416e8162edf01ba95d81,,,,,,,,,,,,,,,,,,,,,,,,,,,,,595.5977,1,audio/Narrative8Situation9.wav,598.5993,,598.5995,609.9188,"[[999,20],[999,88],[999,151],[999,209],[999,266],[999,328],[999,388],[999,449],[999,508],[999,568],[999,630],[999,689],[999,755],[999,817],[999,878],[53.8,940],[52.8,1000],[52.3,1062],[52.3,1120],[52.3,1185],[52.2,1241],[52.2,1300],[52.2,1361],[52.2,1422],[52.2,1478],[52.2,1539],[52.6,1604],[55.6,1666],[58.9,1727],[60.2,1786],[60.7,1843],[61,1903],[61.1,1957],[61.3,2029],[61.3,2088],[61.3,2149],[61.3,2208],[61.3,2271],[61.3,2328],[61.3,2388],[61.3,2450],[61.3,2508],[61.3,2568],[61.3,2628],[61.3,2688],[61.3,2752],[61.3,2813],[61.3,2872],[61.3,2934],[61.3,2995],[61.3,3052],[61.3,3112],[61.3,3172],[61.3,3233],[61.3,3293],[61.3,3352],[61.3,3418],[61.3,3478],[61.3,3542],[61.3,3599],[61.3,3658],[61.3,3719],[61.3,3778],[61.3,3838],[61.3,3899],[61.3,3958],[61.3,4018],[61.3,4078],[61.3,4138],[61.3,4201],[61.3,4258],[61.3,4318],[61.3,4379],[61.3,4438],[61.3,4500],[61.3,4558],[61.3,4618],[61.3,4678],[61.3,4738],[61.3,4800],[61.3,4858],[61.3,4918],[61.3,4978],[61.3,5038],[61.3,5102],[61.3,5158],[61.3,5224],[61.3,5288],[61.3,5349],[61.3,5408],[61.3,5469],[61.3,5530],[61.3,5588],[61.3,5649],[61.3,5708],[61.3,5769],[61.3,5825],[61.3,5888],[61.3,5949],[61.3,6009],[61.3,6068],[61.3,6126],[61.3,6190],[61.3,6250],[61.3,6308],[61.3,6368],[61.3,6428],[61.3,6488],[61.3,6549],[61.3,6608],[61.3,6668],[61.3,6728],[61.3,6788],[61.3,6849],[61.3,6908],[61.3,6968],[61.3,7028],[61.3,7089],[61.3,7149],[61.3,7218],[61.3,7278],[61.3,7338],[61.3,7400],[61.3,7459],[61.3,7518],[61.3,7578],[61.3,7638],[65.4,7725],[68.4,7787],[69.8,7853],[70.6,7912],[71.1,7972],[71.2,8028],[71.2,8088],[71.2,8150],[71.2,8218],[72.1,8286],[74.9,8357],[75.9,8418],[76.1,8468],[76.1,8528],[76.1,8589],[76.1,8651],[76.1,8708],[76.1,8768],[76.1,8829],[76.2,8888],[76.2,8949],[76.2,9009],[76.2,9068],[76.2,9128],[76.2,9202],[76.2,9268],[76.2,9328],[76.2,9388],[76.2,9449],[76.2,9509],[76.2,9568],[76.2,9628],[76.2,9688],[76.2,9749],[76.2,9809],[76.2,9869],[76.2,9928],[76.2,9988],[76.2,10050],[76.2,10108],[76.2,10169],[76.2,10236],[76.2,10301],[76.2,10362],[76.2,10429],[76.2,10488],[76.1,10552],[74.3,10625],[71.7,10693],[71.2,10753],[71.2,10808],[71.2,10878],[71.2,10938],[71.2,11000],[71.2,11058],[71.4,11123],[71.5,11178],[71.8,11241],[71.8,11299]]",1,0,609.9193,611.7289,82.94289898,1.2216,"[{""rating"":82.9428989751098,""responseTime"":1.2215999999046971}]",space,1.2582,,611.729,Not at all,0,619.9064,0.512445095,7.21,"[{""rating"":0.5124450951683734,""responseTime"":7.210000000000036}]",space,0,18,18,18,1,audio/Narrative8Situation9.wav,audio/Narrative7Situation9.wav,audio/Narrative6Situation9.wav,audio/Narrative5Situation9.wav,3,2,4,3,,,7.621,,,,,,,,,,,,,,,,,,,,,,,,,,,,,,,,,,,,
,,,,,,5f121091e95fdc03b5e897d0,2024-02-08_16h03.32.889,group3.1-3.2-social-tom,2023.2.2,Win32,41.15226337,65c5074098b851296ff0b7ed,65c5416e8162edf01ba95d81,,,,,,,,,,,,,,,,,,,,,,,,,,,623.0397,625.6186,625.6538,2,audio/Narrative13Situation2.wav,625.6541,,625.6542,655.4189,"[[999,0],[999,67],[999,134],[999,194],[999,253],[999,314],[999,374],[999,433],[999,495],[999,553],[999,614],[999,673],[999,735],[999,797],[999,863],[999,915],[999,976],[999,1038],[60.5,1100],[60.8,1154],[61,1222],[61.7,1289],[63,1359],[63.2,1414],[63.2,1476],[63.2,1534],[63.2,1594],[63.2,1654],[63.2,1713],[63.2,1773],[63.2,1833],[63.2,1894],[63.2,1953],[63.2,2014],[63.2,2073],[63.2,2145],[63.2,2214],[63.2,2283],[63.2,2334],[63.2,2394],[63.2,2454],[63.2,2513],[62.2,2584],[59.4,2651],[57.9,2713],[56.6,2779],[56,2849],[55.9,2903],[55.3,2968],[53.1,3030],[51.8,3089],[51.5,3148],[50.9,3207],[49.7,3270],[49.4,3334],[49.3,3395],[49.3,3455],[49.3,3513],[49.3,3577],[49.3,3636],[49.4,3700],[49.6,3757],[49.6,3814],[49.7,3876],[49.7,3934],[49.7,3995],[49.7,4053],[49.7,4114],[49.7,4173],[49.7,4234],[49.7,4298],[50,4368],[50.1,4432],[50.3,4494],[50.3,4553],[50.3,4614],[50.3,4673],[50.3,4733],[50.3,4794],[50.3,4853],[50.3,4923],[50.3,4984],[50.3,5044],[50.3,5104],[50.3,5163],[50.3,5224],[50.3,5283],[50.3,5344],[50.3,5403],[50.3,5462],[50.3,5527],[50.3,5584],[50.3,5644],[50.3,5703],[50.3,5763],[50.3,5824],[50.3,5884],[50.3,5944],[50.3,6003],[50.3,6064],[50.3,6128],[50.3,6183],[50.3,6244],[50.3,6306],[50.3,6368],[50.3,6433],[50.3,6494],[50.3,6555],[50.3,6612],[50.3,6673],[50.3,6734],[50.3,6794],[50.3,6853],[50.3,6913],[50.3,6974],[50.3,7033],[50.3,7095],[50.3,7163],[50.3,7223],[50.3,7284],[50.3,7345],[50.3,7403],[50.3,7463],[50.3,7523],[50.3,7583],[50.3,7644],[50.3,7713],[50.3,7775],[50.3,7833],[50.3,7894],[50.3,7953],[50.3,8013],[50.3,8072],[50.3,8133],[50.3,8194],[50.3,8264],[50.3,8326],[50.3,8384],[50.3,8443],[50.3,8503],[50.3,8564],[50.3,8621],[50.3,8683],[50.3,8744],[50.3,8803],[50.3,8863],[50.3,8923],[50.3,8983],[50.3,9044],[50.3,9104],[50.3,9163],[50.3,9223],[50.3,9283],[50.3,9350],[50.3,9413],[50.3,9476],[50.3,9533],[50.3,9594],[50.3,9654],[50.3,9714],[50.3,9776],[50.3,9833],[50.3,9906],[50.3,9964],[50.3,10027],[50.3,10084],[50.3,10151],[50.3,10210],[50.3,10268],[50.3,10346],[50.3,10393],[50.3,10454],[50.3,10513],[50.3,10572],[50.3,10633],[50.3,10693],[50.3,10754],[50.3,10813],[50.3,10875],[50.3,10933],[50.3,10993],[50.3,11053],[50.3,11113],[50.3,11175],[50.3,11233],[50.3,11294],[50.3,11354],[50.3,11414],[50.3,11486],[50.3,11544],[50.3,11603],[50.3,11663],[50.3,11723],[50.3,11794],[50.3,11854],[50.3,11913],[50.3,11975],[50.3,12033],[50.3,12094],[50.3,12158],[50.3,12213],[50.3,12277],[50.3,12337],[50.3,12398],[52.2,12494],[52.6,12550],[52.8,12616],[53.1,12679],[53.5,12736],[53.7,12794],[53.7,12853],[53.7,12914],[53.7,12975],[53.4,13035],[47.1,13101],[45.2,13163],[45,13211],[45,13275],[45,13333],[45.3,13404],[48.2,13476],[51.2,13540],[51.5,13599],[51.9,13657],[52.6,13716],[54,13777],[55.4,13839],[55.7,13898],[56.1,13965],[56.3,14032],[56.4,14093],[56.6,14153],[56.7,14214],[56.9,14277],[56.9,14334],[56.9,14394],[56.9,14453],[56.9,14513],[56.9,14574],[56.9,14634],[56.9,14694],[56.9,14753],[56.9,14813],[56.9,14875],[56.9,14934],[56.9,15004],[56.9,15064],[56.9,15127],[56.9,15187],[56.9,15244],[56.9,15304],[56.9,15375],[56.9,15433],[56.9,15494],[56.9,15554],[56.9,15614],[56.9,15676],[56.9,15734],[56.9,15794],[56.9,15853],[56.9,15914],[56.9,15975],[56.9,16033],[56.9,16096],[56.9,16153],[56.9,16214],[56.9,16276],[56.9,16333],[56.9,16395],[56.9,16454],[56.9,16513],[56.9,16576],[56.9,16633],[56.9,16694],[56.9,16754],[56.9,16814],[56.9,16875],[56.9,16933],[56.9,16993],[56.9,17053],[56.9,17115],[56.9,17176],[56.9,17234],[56.9,17294],[56.9,17354],[58.1,17445],[58.2,17503],[58.2,17566],[58.5,17628],[58.6,17683],[58.6,17744],[58.6,17803],[58.6,17864],[58.6,17933],[58.6,17994],[58.6,18054],[58.6,18114],[58.6,18177],[58.6,18234],[58.6,18294],[58.6,18376],[58.6,18443],[58.6,18494],[58.6,18544],[58.6,18604],[58.6,18663],[58.6,18726],[58.6,18784],[58.6,18844],[58.6,18903],[58.6,18964],[58.6,19022],[58.6,19084],[58.6,19144],[58.6,19204],[58.6,19263],[58.6,19327],[58.6,19395],[58.6,19453],[58.6,19514],[58.6,19576],[58.6,19634],[58.6,19694],[58.6,19753],[58.6,19813],[58.6,19875],[58.6,19933],[58.6,19996],[58.6,20053],[58.6,20113],[58.6,20175],[58.6,20234],[58.6,20304],[58.6,20363],[58.6,20426],[58.6,20484],[58.6,20543],[58.6,20603],[58.6,20663],[58.6,20725],[58.6,20783],[58.6,20843],[58.6,20904],[58.6,20963],[58.6,21025],[58.6,21084],[58.6,21144],[58.6,21204],[58.6,21263],[58.6,21325],[58.6,21384],[58.6,21444],[58.6,21504],[58.6,21563],[58.6,21625],[58.6,21684],[58.6,21743],[58.6,21804],[58.6,21863],[58.6,21925],[58.6,21984],[58.6,22044],[58.6,22104],[58.6,22163],[58.6,22225],[58.6,22283],[58.6,22344],[58.6,22408],[58.6,22463],[58.6,22525],[58.6,22584],[58.6,22644],[58.6,22703],[58.6,22764],[58.6,22825],[58.6,22884],[58.6,22944],[58.6,23003],[58.6,23063],[58.6,23125],[58.6,23183],[58.6,23244],[58.6,23304],[58.6,23363],[58.6,23436],[58.6,23488],[58.6,23553],[58.6,23613],[58.6,23675],[58.6,23733],[58.6,23793],[58.6,23853],[58.6,23914],[58.6,23976],[58.6,24034],[58.6,24094],[58.6,24153],[58.6,24213],[58.6,24275],[58.6,24333],[58.6,24394],[58.6,24456],[58.6,24514],[58.6,24575],[58.6,24638],[58.6,24694],[58.6,24754],[58.6,24813],[58.6,24876],[58.6,24933],[58.6,24994],[58.6,25054],[58.6,25111],[58.6,25175],[58.6,25235],[58.6,25294],[58.6,25353],[58.6,25413],[58.6,25475],[58.6,25534],[58.6,25604],[58.6,25663],[58.6,25725],[58.6,25784],[58.6,25843],[58.6,25903],[58.6,25963],[58.6,26025],[58.6,26083],[58.6,26143],[58.6,26203],[58.6,26266],[58.6,26325],[58.6,26383],[58.6,26446],[58.6,26503],[58.6,26563],[58.6,26625],[58.6,26683],[58.6,26743],[58.6,26803],[58.6,26863],[58.6,26923],[58.6,26984],[58.6,27042],[58.6,27103],[58.6,27163],[58.6,27225],[58.6,27283],[58.6,27344],[58.6,27403],[58.6,27465],[58.6,27525],[58.6,27583],[58.6,27644],[58.6,27704],[58.6,27763],[58.6,27825],[58.6,27884],[58.6,27944],[58.6,28003],[58.6,28063],[58.6,28123],[58.6,28184],[58.6,28244],[58.6,28303],[58.6,28364],[58.6,28425],[58.6,28484],[58.6,28544],[58.6,28604],[58.6,28663],[58.6,28724],[58.6,28784],[58.6,28842],[58.6,28903],[58.6,28968],[58.6,29034],[58.6,29094],[58.6,29153],[58.6,29213],[58.6,29275],[58.6,29334],[58.6,29394],[58.6,29461],[58.6,29513],[58.6,29575],[58.6,29633],[58.6,29706],[58.6,29763]]",1,0,655.4203,655.4507,,,[],,,,655.4507,All the time,100,655.461,,,[],,0,0,0,0,1,audio/Narrative13Situation2.wav,audio/Narrative13Situation2.wav,audio/Narrative13Situation2.wav,audio/Narrative13Situation2.wav,2,2,2,2,,,,,619.9089,623.0201,space,2.5761,,,,,,,,,,,,,,,,,,,,,,,,,,,,,,,
,,,,,,5f121091e95fdc03b5e897d0,2024-02-08_16h03.32.889,group3.1-3.2-social-tom,2023.2.2,Win32,41.15226337,65c5074098b851296ff0b7ed,65c5416e8162edf01ba95d81,,,,,,,,,,,,,,,,,,,,,,,,,,,,,655.4617,2,audio/Narrative5Situation1.wav,660.4793,,660.4795,673.7587,[],1,0,673.7589,678.9293,52.34260615,4.4369,"[{""rating"":57.467057101024885,""responseTime"":3.37180000007163},{""rating"":52.342606149341144,""responseTime"":4.436899999976163}]",space,4.6134,,678.9294,Not at all,0,686.5096,0.512445095,6.4817,"[{""rating"":0.5124450951683734,""responseTime"":6.481700000047681}]",space,0,1,1,1,1,audio/Narrative7Situation1.wav,audio/Narrative8Situation1.wav,audio/Narrative5Situation1.wav,audio/Narrative6Situation1.wav,2,5,5,2,,,7.0123,,,,,,,,,,,,,,,,,,,,,,,,,,,,,,,,,,,,
,,,,,,5f121091e95fdc03b5e897d0,2024-02-08_16h03.32.889,group3.1-3.2-social-tom,2023.2.2,Win32,41.15226337,65c5074098b851296ff0b7ed,65c5416e8162edf01ba95d81,,,,,,,,,,,,,,,,,,,,,,,,,,,,,686.5116,2,audio/Narrative5Situation2.wav,689.5179,,689.518,718.9888,"[[999,4],[999,79],[999,142],[999,200],[999,260],[999,321],[999,379],[999,446],[999,510],[999,574],[999,629],[999,689],[999,749],[999,821],[999,882],[999,943],[999,1000],[999,1060],[999,1119],[999,1180],[999,1246],[34.8,1310],[45.3,1373],[51.3,1439],[54.2,1499],[54.5,1552],[54.5,1611],[54.8,1675],[55.4,1735],[55.6,1789],[55.6,1864],[55.9,1932],[57,1990],[57.3,2045],[57.3,2104],[57.3,2171],[57.3,2229],[57.3,2289],[57.3,2350],[57.3,2410],[57.3,2469],[57.3,2529],[57.3,2594],[57.3,2649],[57.3,2710],[57.3,2769],[57.3,2839],[57.3,2892],[57.3,2949],[57.3,3011],[57.3,3070],[57.3,3129],[57.3,3189],[57.3,3250],[57.3,3310],[57.3,3370],[57.3,3429],[57.3,3489],[57.3,3550],[57.3,3611],[57.3,3670],[57.3,3731],[57.3,3790],[57.3,3854],[57.3,3910],[57.3,3969],[57.3,4029],[57.3,4089],[57.3,4150],[57.3,4210],[57.3,4269],[57.3,4329],[57.3,4389],[57.3,4449],[57.3,4511],[57.3,4569],[57.3,4629],[57.3,4691],[57.3,4750],[57.3,4810],[57.3,4873],[57.3,4929],[57.3,4991],[57.3,5049],[57.3,5111],[57.3,5169],[57.3,5229],[57.3,5289],[57.3,5350],[57.3,5410],[57.3,5469],[57.3,5529],[57.3,5591],[57.3,5650],[57.3,5710],[57.3,5770],[57.3,5829],[57.3,5889],[57.3,5949],[57.3,6010],[57.3,6070],[57.3,6130],[57.3,6189],[57.3,6250],[57.3,6312],[57.3,6374],[57.3,6430],[57.3,6490],[57.3,6550],[57.3,6620],[57.3,6679],[57.3,6743],[57.3,6800],[57.3,6862],[57.3,6920],[57.3,6979],[57.3,7039],[57.3,7099],[57.3,7160],[57.3,7219],[57.3,7279],[57.3,7341],[57.3,7399],[57.3,7467],[57.3,7529],[57.3,7591],[57.3,7650],[57.3,7711],[57.3,7767],[57.3,7829],[57.3,7893],[57.3,7950],[57.3,8010],[57.3,8069],[57.3,8129],[57.3,8189],[57.3,8250],[57.3,8312],[57.3,8380],[57.3,8443],[57.3,8500],[57.3,8559],[57.3,8620],[57.3,8679],[57.3,8741],[57.3,8800],[57.3,8860],[57.3,8919],[57.3,8980],[57.3,9043],[57.3,9100],[57.3,9159],[57.3,9219],[57.3,9278],[57.3,9341],[57.3,9399],[57.3,9459],[57.3,9519],[57.3,9579],[57.3,9643],[57.3,9699],[57.3,9759],[57.3,9820],[57.3,9883],[57.3,9941],[57.3,9999],[57.3,10059],[57.3,10119],[57.3,10180],[57.3,10242],[57.3,10299],[57.3,10359],[57.3,10420],[57.3,10481],[57.3,10542],[57.3,10603],[57.3,10659],[57.3,10719],[57.3,10780],[57.3,10841],[57.3,10915],[57.3,10961],[48.7,11977],[48.4,12044],[48.4,12099],[48.4,12160],[48.4,12221],[48.4,12280],[48.5,12345],[49.4,12404],[49.9,12464],[50,12525],[50,12590],[50,12653],[50,12709],[50,12769],[50,12829],[50,12891],[50,12950],[50,13009],[50,13069],[50,13130],[50,13189],[50,13250],[50,13310],[50,13370],[50,13429],[50,13492],[50,13549],[50,13609],[50,13670],[50,13728],[50,13799],[50,13860],[50,13927],[50,13979],[50,14041],[50,14100],[50,14160],[50,14219],[50,14279],[50,14341],[50,14399],[50,14461],[50,14519],[50,14579],[50,14641],[50,14700],[50,14760],[50,14819],[50,14879],[50,14951],[50,15011],[50,15070],[50,15130],[50,15192],[50,15250],[50,15310],[50,15370],[50,15429],[50,15500],[50,15560],[50,15620],[50,15681],[50,15742],[50,15799],[50,15859],[50,15924],[50,15980],[50.4,16046],[51,16112],[51.2,16163],[51.2,16224],[51.2,16280],[51.2,16343],[51.2,16402],[50.7,16469],[50.3,16526],[50.3,16584],[50.3,16644],[50.1,16701],[50.1,16762],[50.1,16822],[50.1,16881],[50.1,16949],[50.1,17001],[50.1,17061],[50.1,17121],[50.1,17181],[50.1,17242],[50.1,17301],[50.1,17361],[50.1,17421],[50.1,17481],[50.1,17541],[50.1,17601],[50.1,17661],[50.1,17721],[50.1,17781],[50.1,17841],[50.1,17900],[50.1,17965],[50.1,18031],[50.1,18092],[50.1,18151],[50.1,18212],[50.1,18268],[50.1,18331],[50.1,18385],[50.1,18445],[50.1,18521],[50.1,18571],[50.1,18634],[50.1,18695],[50.1,18780],[50.1,18854],[50.1,18924],[50.1,18990],[50.1,19045],[50.1,19106],[50.1,19164],[50.1,19225],[50.1,19287],[50.1,19347],[50.1,19407],[50.1,19467],[50.1,19528],[50.1,19591],[50.1,19647],[50.1,19707],[50.1,19781],[50.1,19828],[50.1,19894],[50.1,19963],[50.1,20013],[50.1,20107],[50.1,20167],[50.1,20228],[50.1,20292],[50.1,20352],[50.1,20413],[50.1,20473],[50.1,20545],[50.1,20600],[50.1,20657],[50.1,20708],[50.1,20765],[50.1,20833],[50.1,20894],[50.1,20952],[50.1,21019],[50.1,21077],[50.1,21136],[50.1,21206],[50.1,21277],[50.1,21336],[50.1,21406],[50.1,21478],[50.1,21542],[50.1,21614],[50.1,21683],[50.1,21747],[50.1,21822],[50.1,21891],[50.1,21971],[50.1,22036],[50.1,22105],[50.1,22169],[50.1,22242],[50.1,22311],[50.1,22380],[50.1,22450],[50.1,22526],[50.1,22590],[50.1,22653],[50.1,22711],[50.1,22788],[50.1,22856],[50.1,22920],[50.1,22997],[50.1,23050],[50.1,23110],[50.1,23169],[50.1,23230],[50.1,23300],[50.1,23375],[50.1,23430],[52.2,23520],[53.7,23587],[54,23644],[54.4,23700],[54.4,23757],[54.4,23817],[51,23882],[46.3,23943],[44,24008],[43.6,24077],[43.6,24135],[43.6,24199],[43.6,24260],[43.6,24319],[43.6,24379],[45,24446],[51.3,24509],[53.4,24565],[54,24624],[55.6,24690],[56.4,24744],[56.4,24799],[56.4,24860],[56.7,24924],[57.5,24983],[60.1,25062],[62.7,25121],[63,25177],[63,25226],[63,25280],[63.2,25343],[63.6,25403],[64.2,25464],[64.5,25523],[64.5,25579],[64.5,25641],[64.5,25700],[64.5,25758],[64.5,25820],[64.5,25879],[64.5,25941],[64.5,26000],[64.5,26060],[64.5,26119],[64.5,26179],[64.5,26241],[64.5,26299],[64.5,26359],[64.5,26419],[64.5,26479],[64.5,26541],[64.5,26599],[64.5,26660],[64.5,26719],[64.5,26780],[64.5,26841],[64.5,26900],[64.5,26959],[64.5,27027],[64.5,27080],[64.5,27141],[64.5,27199],[64.5,27260],[64.5,27319],[64.5,27379],[64.5,27441],[64.5,27499],[64.5,27560],[64.5,27619],[64.5,27679],[64.5,27740],[64.5,27800],[64.5,27861],[64.5,27920],[64.5,27979],[64.5,28042],[64.5,28099],[64.5,28160],[64.5,28219],[64.5,28279],[64.5,28341],[64.5,28400],[64.5,28461],[64.5,28519],[64.5,28580],[64.5,28642],[64.5,28700],[64.5,28760],[64.5,28819],[64.5,28879],[64.5,28941],[64.5,29000],[64.5,29072],[64.5,29129],[64.5,29192],[64.5,29249],[68,29325],[70.2,29387],[70.6,29452]]",1,0,718.9899,722.4812,72.10834553,2.942,"[{""rating"":72.10834553440702,""responseTime"":2.9420000000000073}]",space,2.9456,,722.4815,All the time,100,722.4895,,,[],,0,2,2,2,1,audio/Narrative7Situation2.wav,audio/Narrative8Situation2.wav,audio/Narrative5Situation2.wav,audio/Narrative6Situation2.wav,3,3,3,3,,,,,,,,,,,,,,,,,,,,,,,,,,,,,,,,,,,,,,,
,,,,,,5f121091e95fdc03b5e897d0,2024-02-08_16h03.32.889,group3.1-3.2-social-tom,2023.2.2,Win32,41.15226337,65c5074098b851296ff0b7ed,65c5416e8162edf01ba95d81,,,,,,,,,,,,,,,,,,,,,,,,,,,,,722.4931,2,audio/Narrative5Situation3.wav,725.4981,,725.4982,739.4103,"[[63.2,1429],[57.6,1485],[55.9,1542],[55.1,1604],[53.7,1670],[51.8,1778],[51,1855],[50.9,1904],[50.9,1961],[50.9,2020],[50.9,2081],[50.9,2140],[50.9,2200],[50.7,2261],[50.3,2323],[50.1,2387],[50.1,2439],[50.1,2501],[50.1,2562],[50.1,2619],[50.1,2689],[50.1,2750],[50.1,2811],[50.1,2869],[53.2,2937],[58.3,3000],[63.3,3069],[68.3,3151],[68.6,3201],[68.6,3261],[68.6,3321],[68.6,3380],[68.9,3439],[69,3499],[69.2,3563],[69.3,3619],[69.6,3679],[69.6,3739],[69.6,3799],[69.6,3860],[69.6,3919],[69.6,3979],[69.6,4037],[69.6,4099],[69.6,4161],[69.6,4220],[69.6,4278],[69.6,4339],[69.6,4397],[69.6,4459],[69.6,4520],[69.6,4579],[69.6,4638],[69.6,4699],[69.6,4761],[69.6,4820],[69.6,4879],[69.6,4939],[69.6,4999],[69.6,5061],[69.6,5131],[69.6,5179],[69.6,5239],[69.6,5299],[69.6,5361],[69.6,5430],[69.6,5490],[69.6,5549],[69.6,5610],[69.6,5669],[69.6,5730],[69.6,5789],[69.6,5849],[69.6,5910],[69.6,5970],[69.6,6029],[69.6,6090],[69.6,6151],[69.6,6219],[69.6,6279],[69.6,6339],[69.6,6399],[69.6,6461],[69.6,6520],[69.6,6579],[69.6,6645],[69.6,6710],[69.6,6769],[69.6,6829],[69.6,6890],[69.6,6949],[69.6,7010],[69.6,7070],[69.6,7129],[69.6,7195],[69.6,7261],[69.6,7322],[70.8,7392],[71.1,7440],[71.2,7500],[71.4,7563],[71.8,7624],[72.1,7682],[72.4,7743],[72.5,7814],[72.5,7872],[72.5,7929],[72.5,7989],[72.5,8050],[72.5,8110],[72.5,8181],[72.5,8239],[72.5,8299],[72.5,8361],[72.5,8419],[72.5,8479],[72.5,8539],[72.5,8599],[72.5,8659],[72.5,8720],[72.5,8780],[72.5,8840],[72.5,8899],[72.5,8957],[72.5,9019],[72.5,9079],[72.5,9139],[72.5,9200],[72.5,9261],[72.5,9320],[72.5,9380],[72.5,9439],[72.5,9499],[72.5,9561],[72.5,9623],[72.7,9679],[72.8,9740],[72.8,9814],[73,9873],[73.1,9942],[73.1,10000],[73.4,10065],[73.4,10120],[73.7,10193],[73.7,10249],[74,10319],[74.2,10382],[74.2,10440],[74.3,10499],[74.5,10560],[74.6,10621],[74.7,10679],[74.9,10744],[74.9,10799],[74.9,10861],[75,10920],[75,10979],[75,11040],[75,11099],[75,11169],[75,11230],[75,11284],[75,11343],[75,11405],[75,11469],[75,11529],[75,11590],[75,11649],[75,11710],[75,11767],[75,11829],[75,11890],[75,11950],[75,12011],[75,12069],[75,12129],[75,12186],[75,12249],[75,12312],[75,12371],[75,12429],[75,12489],[75,12549],[75,12610],[75,12669],[75,12729],[75,12789],[75,12850],[75,12911],[75,12969],[75,13029],[75,13089],[75,13153],[75,13211],[75,13269],[75,13329],[75,13389],[75,13450],[75,13510],[75,13570],[75,13629],[75,13689],[75,13749],[75,13811],[75,13870]]",1,0,739.4114,741.8756,85.57833089,1.9354,"[{""rating"":85.57833089311859,""responseTime"":1.9353999999761982}]",space,1.9215,,741.8773,All the time,100,741.8846,,,[],,0,3,3,3,1,audio/Narrative7Situation3.wav,audio/Narrative8Situation3.wav,audio/Narrative5Situation3.wav,audio/Narrative6Situation3.wav,8,4,3,5,,,,,,,,,,,,,,,,,,,,,,,,,,,,,,,,,,,,,,,
,,,,,,5f121091e95fdc03b5e897d0,2024-02-08_16h03.32.889,group3.1-3.2-social-tom,2023.2.2,Win32,41.15226337,65c5074098b851296ff0b7ed,65c5416e8162edf01ba95d81,,,,,,,,,,,,,,,,,,,,,,,,,,,,,741.8857,2,audio/Narrative5Situation4.wav,742.8984,,742.8986,763.3081,"[[75.6,819],[69,886],[64.8,948],[62.3,1005],[61.9,1056],[61.9,1115],[61.9,1175],[61.9,1233],[61.9,1294],[61.9,1360],[61.9,1419],[61.9,1478],[61.9,1539],[61.9,1598],[61.9,1660],[61.9,1720],[61.9,1782],[61.9,1849],[61.9,1910],[61.9,1969],[61.9,2028],[61.9,2089],[61.9,2149],[61.9,2206],[61.9,2269],[61.9,2328],[61.9,2388],[61.9,2448],[61.9,2510],[61.9,2569],[61.9,2629],[61.9,2689],[61.9,2749],[63,2830],[65.8,2886],[67.6,2950],[67.7,3004],[67.9,3070],[68,3129],[68.3,3195],[69,3252],[69.6,3313],[70.1,3377],[70.6,3444],[72.4,3514],[73.7,3600],[73.9,3649],[73.9,3710],[73.9,3769],[73.9,3839],[73.9,3896],[73.9,3960],[73.9,4019],[73.9,4079],[73.9,4145],[75.5,4218],[79.4,4279],[80.5,4333],[80.5,4391],[80.5,4459],[80.5,4519],[80.5,4578],[80.5,4639],[80.5,4697],[80.5,4760],[80.5,4826],[80.5,4880],[80.5,4944],[80.5,5009],[80.5,5069],[80.5,5129],[80.5,5189],[80.5,5250],[80.5,5310],[80.5,5369],[80.5,5432],[80.5,5488],[80.5,5549],[80.5,5610],[80.5,5669],[80.5,5729],[80.5,5789],[80.5,5859],[80.5,5924],[80.5,5992],[80.5,6048],[80.5,6111],[80.5,6169],[80.5,6227],[80.5,6298],[80.5,6369],[80.5,6432],[80.5,6489],[80.5,6551],[80.5,6610],[80.5,6669],[80.5,6729],[80.5,6788],[80.5,6851],[80.5,6910],[80.5,6968],[80.5,7029],[80.5,7089],[80.5,7149],[80.5,7209],[80.5,7269],[80.5,7330],[80.5,7389],[80.5,7448],[80.5,7510],[80.5,7570],[80.5,7629],[80.5,7698],[80.5,7759],[80.5,7820],[80.5,7880],[80.5,7942],[80.5,8009],[80.5,8069],[80.7,8133],[81.2,8193],[81.3,8249],[81.5,8312],[81.6,8374],[81.8,8432],[81.9,8492],[81.9,8549],[81.9,8609],[82.1,8669],[82.1,8728],[82.1,8789],[82.1,8859],[82.1,8910],[82.1,8969],[82.1,9028],[82.1,9098],[82.1,9159],[82.1,9219],[82.1,9277],[82.1,9340],[82.1,9399],[82.1,9459],[82.1,9519],[82.1,9579],[82.1,9642],[82.1,9710],[82.1,9769],[82.1,9829],[82.1,9891],[82.1,9951],[82.1,10010],[82.1,10069],[82.1,10128],[82.1,10188],[82.1,10249],[82.1,10309],[82.1,10368],[82.1,10428],[82.1,10488],[82.1,10549],[82.1,10609],[82.1,10669],[82.1,10730],[82.1,10791],[82.1,10851],[82.1,10918],[82.1,10979],[82.1,11039],[82.1,11099],[82.1,11160],[82.1,11219],[82.1,11279],[82.1,11340],[82.1,11399],[82.1,11459],[82.1,11519],[82.1,11579],[82.1,11640],[82.1,11699],[82.1,11759],[82.1,11819],[82.1,11882],[82.1,11938],[82.1,11999],[82.1,12059],[82.1,12120],[82.1,12178],[82.1,12240],[82.1,12299],[82.1,12359],[82.1,12418],[82.1,12479],[82.1,12538],[82.1,12598],[82.1,12659],[82.1,12719],[82.1,12780],[82.1,12839],[82.1,12903],[82.1,12969],[82.1,13029],[82.1,13090],[82.1,13149],[82.1,13210],[82.1,13269],[82.1,13329],[82.1,13399],[82.1,13460],[82.1,13519],[82.1,13578],[82.1,13642],[82.1,13698],[82.1,13761],[82.1,13819],[82.1,13886],[82.1,13941],[82.1,13999],[82.1,14060],[82.1,14119],[82.1,14179],[82.1,14241],[82.1,14299],[82.1,14360],[82.1,14418],[82.1,14479],[82.1,14540],[82.1,14599],[82.1,14669],[82.1,14728],[82.1,14790],[82.1,14849],[82.1,14918],[82.1,14979],[82.1,15044],[82.1,15110],[82.1,15169],[82.1,15228],[82.1,15289],[82.1,15349],[82.1,15409],[82.1,15473],[82.1,15529],[82.1,15589],[82.1,15659],[82.1,15718],[82.1,15779],[82.1,15840],[82.1,15911],[82.1,15954],[82.1,16013],[82.1,16079],[82.1,16137],[82.1,16198],[82.1,16259],[82.1,16319],[82.1,16378],[82.1,16437],[82.1,16499],[82.1,16559],[82.1,16619],[82.1,16679],[82.1,16738],[82.1,16799],[82.1,16859],[82.1,16924],[82.1,16979],[82.1,17041],[82.1,17099],[82.1,17159],[82.1,17219],[82.1,17279],[82.1,17341],[82.1,17399],[82.1,17459],[82.1,17519],[82.1,17579],[82.1,17638],[82.1,17699],[82.1,17759],[82.1,17819],[82.1,17879],[82.1,17941],[82.1,17999],[82.1,18060],[82.1,18119],[82.1,18179],[82.1,18242],[82.1,18299],[82.1,18359],[82.1,18418],[82.1,18479],[82.1,18541],[82.1,18599],[82.1,18659],[82.1,18718],[82.1,18780],[82.1,18842],[82.1,18899],[82.1,18961],[83.5,19034],[88.4,19117],[88.8,19176],[88.8,19230],[88.8,19291],[88.9,19349],[88.9,19414],[88.9,19474],[88.8,19536],[88.7,19591],[88.7,19648],[88.7,19710],[88.7,19769],[88.7,19828],[88.7,19891],[88.7,19952],[88.7,20010],[88.7,20069],[88.7,20129],[88.7,20191],[88.7,20249],[88.7,20308],[88.7,20369]]",1,0,763.3093,766.1912,86.01756955,2.1197,"[{""rating"":86.01756954612006,""responseTime"":2.119700000047601}]",space,2.3423,,766.1915,Not at all,0,766.1992,,,[],,0,4,4,4,1,audio/Narrative7Situation4.wav,audio/Narrative8Situation4.wav,audio/Narrative5Situation4.wav,audio/Narrative6Situation4.wav,3,3,1,2,,,,,,,,,,,,,,,,,,,,,,,,,,,,,,,,,,,,,,,
,,,,,,5f121091e95fdc03b5e897d0,2024-02-08_16h03.32.889,group3.1-3.2-social-tom,2023.2.2,Win32,41.15226337,65c5074098b851296ff0b7ed,65c5416e8162edf01ba95d81,,,,,,,,,,,,,,,,,,,,,,,,,,,,,766.1999,2,audio/Narrative5Situation5.wav,771.218,,771.2181,786.6587,"[[999,19],[999,90],[999,147],[999,209],[999,270],[999,330],[999,390],[999,449],[999,509],[999,571],[999,629],[999,694],[999,750],[999,810],[999,871],[999,930],[999,990],[999,1050],[999,1109],[999,1171],[999,1229],[999,1293],[999,1349],[999,1409],[999,1471],[999,1530],[999,1588],[999,1650],[999,1720],[999,1779],[999,1839],[999,1899],[999,1957],[999,2022],[999,2079],[999,2140],[999,2203],[999,2258],[999,2321],[999,2380],[999,2440],[999,2499],[999,2559],[999,2621],[999,2682],[999,2741],[999,2801],[999,2860],[999,2921],[999,2980],[999,3039],[999,3100],[999,3159],[999,3221],[999,3280],[999,3339],[999,3400],[999,3459],[999,3521],[999,3579],[999,3640],[999,3717],[999,3780],[999,3840],[999,3899],[999,3961],[999,4021],[999,4075],[62.6,4161],[61.9,4225],[60.8,4289],[60.5,4335],[60.5,4395],[60.7,4460],[63.5,4521],[70.2,4582],[74,4641],[80.9,4706],[83.7,4777],[83.8,4837],[84.1,4902],[84.1,4958],[84.1,5022],[84.1,5079],[84.1,5139],[84.1,5200],[84.1,5260],[84,5325],[83.5,5383],[83.2,5452],[83.2,5511],[83.2,5570],[83.2,5630],[83.2,5692],[83.2,5760],[83.2,5821],[83.2,5880],[83.4,5940],[83.4,6000],[83.4,6059],[83.4,6120],[83.4,6179],[83.4,6239],[83.4,6298],[83.4,6359],[83.4,6421],[83.4,6479],[83.4,6540],[83.4,6599],[83.4,6660],[83.4,6731],[83.4,6779],[83.4,6839],[83.4,6899],[83.4,6959],[83.4,7021],[83.4,7079],[83.4,7138],[83.4,7199],[83.4,7259],[83.4,7320],[83.4,7380],[83.4,7439],[83.4,7499],[83.4,7559],[83.4,7621],[83.4,7680],[83.4,7747],[83.4,7809],[83.4,7871],[83.4,7929],[83.4,7989],[83.4,8049],[83.4,8109],[83.4,8170],[83.4,8230],[83.4,8289],[83.4,8350],[83.4,8409],[83.4,8470],[83.4,8529],[83.4,8590],[83.4,8649],[83.4,8709],[83.4,8770],[83.4,8829],[83.4,8889],[83.4,8949],[83.4,9009],[83.4,9070],[83.4,9129],[83.4,9190],[83.4,9249],[83.4,9309],[83.4,9371],[83.4,9429],[83.4,9488],[83.4,9549],[83.4,9609],[83.4,9672],[83.4,9733],[83.4,9790],[83.4,9849],[83.4,9909],[83.4,9970],[83.4,10030],[83.4,10090],[83.4,10149],[83.4,10209],[83.4,10271],[83.4,10330],[83.4,10390],[83.4,10449],[83.4,10509],[83.4,10571],[83.4,10631],[83.4,10692],[83.4,10755],[83.4,10809],[83.4,10871],[83.4,10929],[83.4,10990],[83.4,11049],[83.4,11109],[83.4,11170],[83.4,11229],[83.4,11290],[83.4,11349],[83.4,11413],[83.4,11470],[83.4,11530],[83.4,11589],[83.4,11649],[83.4,11709],[83.4,11773],[83.4,11830],[83.4,11889],[83.4,11949],[83.4,12009],[83.4,12071],[83.4,12130],[83.4,12190],[83.4,12250],[83.4,12310],[83.4,12370],[83.4,12430],[83.4,12488],[83.4,12549],[83.4,12609],[83.4,12671],[83.4,12729],[83.4,12791],[83.4,12849],[83.4,12909],[83.4,12971],[83.4,13029],[83.4,13096],[83.4,13159],[83.4,13222],[83.4,13279],[84.7,13371],[86,13431],[86.5,13493],[86.6,13553],[86.6,13609],[86.6,13671],[86.6,13730],[86.6,13795],[86.6,13850],[86.6,13918],[86.6,13979],[86.6,14039],[86.6,14099],[86.6,14159],[86.6,14220],[86.6,14279],[86.6,14340],[86.6,14399],[86.6,14457],[86.6,14521],[86.6,14580],[86.6,14640],[86.6,14699],[86.6,14759],[86.6,14822],[86.6,14879],[86.6,14940],[86.6,14999],[86.6,15059],[86.6,15121],[86.6,15179],[86.6,15239],[86.6,15299],[86.6,15359],[86.6,15418]]",1,0,786.6593,788.9581,90.84919473,1.7949,"[{""rating"":90.84919472913616,""responseTime"":1.7948999999762236}]",space,1.752,,788.9584,All the time,100,788.9672,,,[],,0,5,5,5,1,audio/Narrative7Situation5.wav,audio/Narrative8Situation5.wav,audio/Narrative5Situation5.wav,audio/Narrative6Situation5.wav,5,2,5,2,,,,,,,,,,,,,,,,,,,,,,,,,,,,,,,,,,,,,,,
,,,,,,5f121091e95fdc03b5e897d0,2024-02-08_16h03.32.889,group3.1-3.2-social-tom,2023.2.2,Win32,41.15226337,65c5074098b851296ff0b7ed,65c5416e8162edf01ba95d81,,,,,,,,,,,,,,,,,,,,,,,,,,,,,788.968,2,audio/Narrative5Situation6.wav,791.9682,,791.9684,797.6586,"[[999,3],[999,85],[999,139],[999,199],[999,259],[999,321],[999,379],[999,439],[999,499],[999,559],[999,620],[999,680],[999,741],[999,800],[999,860],[999,922],[999,994],[999,1057],[999,1134],[64.6,1192],[62.4,1254],[62.2,1320],[62.2,1382],[62.6,1444],[65.5,1506],[69,1574],[75.2,1632],[76.6,1705],[79.9,1766],[80.9,1826],[81.3,1883],[82.4,1943],[82.9,2003],[83.8,2078],[84.6,2146],[84.6,2199],[84.6,2259],[84.6,2321],[84.6,2379],[84.6,2439],[84.6,2499],[84.6,2559],[84.6,2620],[86,2684],[86.3,2740],[86.3,2799],[86.3,2859],[86.3,2921],[86.3,2979],[86.3,3039],[86.5,3113],[86.3,3159],[86.3,3220],[86.3,3279],[86.3,3339],[86.3,3399],[86.3,3459],[86.3,3520],[86.3,3579],[86.3,3639],[86.3,3699],[86.3,3759],[86.3,3820],[86.3,3879],[86.3,3939],[86.3,3999],[86.3,4059],[86.3,4123],[86.3,4179],[86.3,4238],[86.3,4299],[86.3,4359],[86.3,4420],[86.3,4480],[86.3,4542],[86.3,4609],[86.3,4670],[86.3,4729],[86.3,4788],[86.3,4848],[86.3,4909],[86.3,4970],[86.3,5030],[86.3,5089],[86.3,5150],[86.3,5209],[86.3,5270],[86.3,5329],[86.3,5389],[86.3,5449],[86.3,5509],[86.3,5570],[86.3,5629],[86.3,5689]]",1,0,797.6591,802.618,79.57540264,4.5993,"[{""rating"":79.57540263543193,""responseTime"":4.59930000007148}]",space,4.416,,802.618,Not at all,0,802.6265,,,[],,0,6,6,6,1,audio/Narrative7Situation6.wav,audio/Narrative8Situation6.wav,audio/Narrative5Situation6.wav,audio/Narrative6Situation6.wav,3,2,3,2,,,,,,,,,,,,,,,,,,,,,,,,,,,,,,,,,,,,,,,
