exp_question,consent.started,consent.stopped,consentResponse.keys,consentResponse.rt,consentResponse.duration,participantID,date,expName,psychopyVersion,OS,frameRate,STUDY_ID,SESSION_ID,opening1.started,opening1.stopped,keyEndingOpening1.keys,keyEndingOpening1.rt,keyEndingOpening1.duration,volumeAdjust.started,volumeAdjust.stopped,endingAdjust.keys,endingAdjust.rt,endingAdjust.duration,opening2.started,opening2.stopped,keyEndingOpening.keys,keyEndingOpening.rt,keyEndingOpening.duration,mouse.x,mouse.y,mouse.leftButton,mouse.midButton,mouse.rightButton,mouse.time,instructionLoop.thisRepN,instructionLoop.thisTrialN,instructionLoop.thisN,instructionLoop.thisIndex,instructionLoop.ran,readyForAudio.started,readyForAudio.stopped,fixation.started,run,audio_played,fixation.stopped,endPractice.keys,audioPre.started,audioPre.stopped,continuousResponses_audio,continuousSlider.response,continuousSlider.rt,intRating.started,intRating.stopped,intQuestionSlider.response,intQuestionSlider.rt,intQuestionSlider.history,confirmResponse.keys,confirmResponse.rt,confirmResponse.duration,catchQuestion.started,catch_label,catch_value,catchQuestion.stopped,catchQuestionSlider.response,catchQuestionSlider.rt,catchQuestionSlider.history,confirmResponse_2.keys,audioRunLoop.thisRepN,audioRunLoop.thisTrialN,audioRunLoop.thisN,audioRunLoop.thisIndex,audioRunLoop.ran,conditions1_1,conditions2_1,conditions1_2,conditions2_2,dur1_1,dur2_1,dur1_2,dur2_2,endPractice.rt,endPractice.duration,confirmResponse_2.rt,confirmResponse_2.duration,runIntervalBreak.started,runIntervalBreak.stopped,endingBreakKey.keys,endingBreakKey.rt,endingBreakKey.duration,connection.started,connection.stopped,connectionEnding.keys,connectionEnding.rt,connectionEnding.duration,readyForText.started,readyForText.stopped,textPre.started,run_dup,textPre.stopped,continuousResponses_text,textRunLoop.thisRepN,textRunLoop.thisTrialN,textRunLoop.thisN,textRunLoop.thisIndex,textRunLoop.ran,text1_1,text1_2,text2_1,text2_2,runBreakText.started,runBreakText.stopped,endingBreakKey_2.keys,endingBreakKey_2.rt,endingBreakKey_2.duration,ending.started,ending.stopped,endingEnding.keys,endingEnding.rt,endingEnding.duration
tom,0.0006,2.0378,y,1.7073,,5f42eec40c24ac531d4ca24a,2024-05-13_11h33.36.364,group3.1-3.2-social-tom,2023.2.2,Win32,59.88023952,65c5074098b851296ff0b7ed,66423293130c38434d535ee1,,,,,,,,,,,,,,,,,,,,,,,,,,,,,,,,,,,,,,,,,,,,,,,,,,,,,,,,,,,,,,,,,,,,,,,,,,,,,,,,,,,,,,,,,,,,,,,,,,,,,,,,,,
,,,,,,5f42eec40c24ac531d4ca24a,2024-05-13_11h33.36.364,group3.1-3.2-social-tom,2023.2.2,Win32,59.88023952,65c5074098b851296ff0b7ed,66423293130c38434d535ee1,2.0386,5.4689,space,3.3312,,,,,,,,,,,,,,,,,,,,,,,,,,,,,,,,,,,,,,,,,,,,,,,,,,,,,,,,,,,,,,,,,,,,,,,,,,,,,,,,,,,,,,,,,,,,,,,,,,,,,,
,,,,,,5f42eec40c24ac531d4ca24a,2024-05-13_11h33.36.364,group3.1-3.2-social-tom,2023.2.2,Win32,59.88023952,65c5074098b851296ff0b7ed,66423293130c38434d535ee1,,,,,,5.4694,12.2906,space,6.4935,,,,,,,,,,,,,,,,,,,,,,,,,,,,,,,,,,,,,,,,,,,,,,,,,,,,,,,,,,,,,,,,,,,,,,,,,,,,,,,,,,,,,,,,,,,,,,,,,
,,,,,,5f42eec40c24ac531d4ca24a,2024-05-13_11h33.36.364,group3.1-3.2-social-tom,2023.2.2,Win32,59.88023952,65c5074098b851296ff0b7ed,66423293130c38434d535ee1,,,,,,,,,,,12.3016,16.4869,space,4.155,,[],[],[],[],[],[],0,0,0,0,1,,,,,,,,,,,,,,,,,,,,,,,,,,,,,,,,,,,,,,,,,,,,,,,,,,,,,,,,,,,,,,,,,,,,,,,,,,,,,,,,
,,,,,,5f42eec40c24ac531d4ca24a,2024-05-13_11h33.36.364,group3.1-3.2-social-tom,2023.2.2,Win32,59.88023952,65c5074098b851296ff0b7ed,66423293130c38434d535ee1,,,,,,,,,,,16.4884,31.173,space,14.526,,[],[],[],[],[],[],1,0,1,0,1,,,,,,,,,,,,,,,,,,,,,,,,,,,,,,,,,,,,,,,,,,,,,,,,,,,,,,,,,,,,,,,,,,,,,,,,,,,,,,,,
,,,,,,5f42eec40c24ac531d4ca24a,2024-05-13_11h33.36.364,group3.1-3.2-social-tom,2023.2.2,Win32,59.88023952,65c5074098b851296ff0b7ed,66423293130c38434d535ee1,,,,,,,,,,,31.1913,43.0441,space,11.7786,,[],[],[],[],[],[],2,0,2,0,1,,,,,,,,,,,,,,,,,,,,,,,,,,,,,,,,,,,,,,,,,,,,,,,,,,,,,,,,,,,,,,,,,,,,,,,,,,,,,,,,
,,,,,,5f42eec40c24ac531d4ca24a,2024-05-13_11h33.36.364,group3.1-3.2-social-tom,2023.2.2,Win32,59.88023952,65c5074098b851296ff0b7ed,66423293130c38434d535ee1,,,,,,,,,,,43.0625,54.3156,space,11.2252,,[],[],[],[],[],[],3,0,3,0,1,,,,,,,,,,,,,,,,,,,,,,,,,,,,,,,,,,,,,,,,,,,,,,,,,,,,,,,,,,,,,,,,,,,,,,,,,,,,,,,,
,,,,,,5f42eec40c24ac531d4ca24a,2024-05-13_11h33.36.364,group3.1-3.2-social-tom,2023.2.2,Win32,59.88023952,65c5074098b851296ff0b7ed,66423293130c38434d535ee1,,,,,,,,,,,54.335,61.8253,space,7.4648,,[],[],[],[],[],[],4,0,4,0,1,,,,,,,,,,,,,,,,,,,,,,,,,,,,,,,,,,,,,,,,,,,,,,,,,,,,,,,,,,,,,,,,,,,,,,,,,,,,,,,,
,,,,,,5f42eec40c24ac531d4ca24a,2024-05-13_11h33.36.364,group3.1-3.2-social-tom,2023.2.2,Win32,59.88023952,65c5074098b851296ff0b7ed,66423293130c38434d535ee1,,,,,,,,,,,,,,,,,,,,,,,,,,,61.8453,64.4234,64.4816,1,audio/Narrative13Situation2.wav,66.4867,,66.487,96.2588,"[[999,1],[999,133],[999,215],[999,299],[999,383],[999,465],[999,548],[999,631],[999,714],[999,798],[999,882],[999,965],[999,1048],[999,1135],[999,1216],[999,1300],[999,1385],[999,1466],[999,1553],[999,1633],[999,1717],[999,1801],[999,1889],[999,1968],[999,2053],[999,2137],[999,2221],[16.5,2307],[12.5,2389],[10.5,2474],[8.7,2556],[7.7,2643],[5.9,2726],[4,2807],[3.1,2891],[2.7,2976],[2.4,3058],[1.5,3142],[0.4,3225],[1,19771],[1.1,19844],[2,19940],[3.1,20036],[3.7,20138],[4.2,20240],[4.2,20329],[4.3,20415],[4.3,20509],[4.3,20600],[4.3,20682],[4.3,20767],[4.3,20847],[4.3,20928],[4.3,21012],[4.3,21095],[4.3,21178],[4.3,21261],[4.3,21345],[4.3,21428],[4.3,21510],[4.3,21594],[4.3,21678],[4.3,21760],[4.3,21844],[4.3,21927],[4.3,22010],[4.3,22094],[4.3,22177],[4.3,22260],[4.3,22343],[4.3,22427],[4.3,22510],[4.3,22593],[4.3,22676],[4.3,22760],[4.3,22842],[4.3,22926],[4.3,23009],[4.3,23093],[4.9,23176],[7.5,23260],[11.1,23343],[13.1,23426],[17.2,23509],[19.1,23594],[20.4,23676],[21.2,23759],[22.3,23842],[23.2,23925],[23.2,24009],[23.2,24094],[23.2,24175],[23.2,24259],[23.2,24341],[23.6,24426],[23.8,24510],[23.8,24591],[23.8,24674],[23.8,24758],[23.8,24842],[23.8,24924],[23.8,25008],[23.8,25090],[23.8,25174],[23.8,25257],[23.8,25341],[23.8,25423],[23.8,25507],[23.8,25590],[23.8,25673],[23.8,25756],[23.8,25839],[23.8,25923],[23.8,26006],[23.8,26090],[23.8,26174],[23.8,26256],[23.8,26339],[23.8,26423],[23.8,26505],[23.8,26589],[23.8,26673],[23.8,26756],[23.8,26840],[23.8,26922],[23.8,27005],[23.8,27089],[23.8,27172],[23.8,27255],[23.8,27338],[23.8,27422],[23.8,27505],[23.8,27588],[23.8,27671],[23.8,27756],[23.8,27839],[23.8,27921],[23.8,28004],[23.8,28087],[23.8,28171],[23.8,28255],[23.8,28337],[23.8,28420],[23.8,28505],[23.8,28588],[23.8,28671],[23.8,28753],[23.8,28837],[23.8,28920],[23.8,29004],[23.8,29087],[23.8,29169],[23.8,29253],[23.8,29336],[23.8,29420],[23.8,29503],[23.8,29585],[23.8,29670],[23.8,29753]]",1,0,96.2594,104.3011,6.515373353,4.2545,"[{""rating"":6.515373352855053,""responseTime"":4.254500000000007}]",space,7.495,,104.3015,Not at all,0,104.3108,,,[],,0,0,0,0,1,audio/Narrative13Situation2.wav,audio/Narrative13Situation2.wav,audio/Narrative13Situation2.wav,audio/Narrative13Situation2.wav,2,2,2,2,,,,,,,,,,,,,,,,,,,,,,,,,,,,,,,,,,,,,,,
,,,,,,5f42eec40c24ac531d4ca24a,2024-05-13_11h33.36.364,group3.1-3.2-social-tom,2023.2.2,Win32,59.88023952,65c5074098b851296ff0b7ed,66423293130c38434d535ee1,,,,,,,,,,,,,,,,,,,,,,,,,,,,,104.3112,1,audio/Narrative7Situation1.wav,105.4319,space,105.4322,161.3255,"[[999,1],[999,82],[999,164],[999,249],[999,331],[999,414],[999,499],[999,581],[999,665],[999,748],[999,831],[999,914],[999,998],[999,1081],[999,1164],[999,1248],[999,1332],[21,1415],[21,1497],[21,1580],[21,1664],[21,1748],[21,1830],[19,1914],[7.1,1997],[0.5,2080],[2.9,12787],[22.6,12872],[34.2,12956],[38.6,13039],[39.9,13124],[42.1,13207],[44.1,13292],[47.5,13375],[49,13459],[50.1,13542],[50.3,13625],[50.3,13709],[50.3,13793],[50.3,13877],[50.3,13960],[50.3,14044],[50.3,14128],[50.3,14211],[50.3,14295],[50.3,14379],[50.3,14463],[50.3,14547],[50.3,14630],[50.3,14713],[50.3,14797],[50.3,14881],[50.3,14965],[50.3,15048],[50.4,15133],[50.7,15216],[51,15299],[51,15383],[51,15466],[51,15549],[51,15633],[51,15717],[51,15800],[51,15884],[50.9,15968],[50.7,16051],[50.4,16135],[50.4,16218],[50.4,16301],[50.4,16385],[50.4,16468],[50.4,16552],[50.4,16637],[50.4,16719],[50.4,16802],[50.4,16886],[50.4,16969],[50.4,17052],[50.4,17136],[50.4,17220],[50.4,17303],[50.4,17386],[50.4,17469],[50.4,17552],[50.4,17636],[50.4,17719],[50.4,17802],[50.4,17882],[50.4,17964],[50.4,18048],[50.4,18131],[50.4,18215],[50.4,18299],[50.4,18380],[50.4,18463],[50.4,18546],[50.4,18630],[50.4,18714],[50.4,18796],[50.4,18879],[50.4,18963],[50.4,19048],[50.4,19129],[50.4,19213],[50.4,19296],[50.4,19379],[50.4,19462],[50.4,19546],[50.4,19628],[50.4,19712],[50.4,19795],[50.4,19878],[50.4,19962],[50.4,20045],[50.4,20128],[50.4,20211],[50.4,20295],[50.4,20378],[49.6,20464],[48.5,20546],[48.1,20628],[47.1,20713],[44.6,20796],[43.1,20878],[42.1,20963],[40.9,21045],[39.5,21129],[37.8,21212],[35.4,21294],[33.9,21379],[32.7,21460],[31.6,21546],[31.4,21626],[31.4,21710],[31.4,21793],[31.4,21876],[31.4,21961],[31.4,22043],[31.4,22126],[31.4,22210],[31.4,22292],[31.4,22376],[31.4,22459],[31.4,22542],[31.4,22626],[31.4,22709],[31.4,22792],[31.4,22875],[31.4,22958],[31.4,23043],[31.4,23125],[31.4,23208],[31.4,23293],[31.4,23375],[31.4,23459],[31.4,23541],[31.4,23625],[31.4,23709],[31.4,23791],[31.4,23874],[31.4,23957],[31.4,24042],[31.4,24124],[31.4,24207],[31.4,24290],[31.4,24374],[31.4,24457],[31.4,24541],[31.4,24623],[31.4,24707],[31.4,24790],[31.4,24873],[31.4,24958],[31.4,25039],[31.4,25123],[31.4,25207],[31.4,25289],[31.4,25373],[31.4,25456],[29.8,25550],[27.6,25623],[26.3,25707],[25.1,25790],[23.9,25874],[23.6,25956],[22.5,26039],[22.3,26122],[22,26206],[22,26289],[22,26372],[22,26455],[22,26539],[22,26622],[22,26706],[22,26788],[22,26872],[22,26955],[22,27038],[22,27122],[22,27204],[22,27288],[22,27371],[22,27454],[22,27539],[22,27621],[22,27705],[22,27787],[22,27871],[22,27960],[22,28055],[22,28147],[22,28238],[22,28323],[22,28417],[22,28510],[22,28605],[22,28699],[22,28792],[22,28891],[22,28981],[22,29072],[22,29157],[22,29236],[22,29319],[22,29402],[22,29487],[22,29570],[22,29655],[22,29739],[22,29822],[22,29906],[22,29989],[22,30074],[22,30158],[22,30241],[22,30327],[22,30409],[22,30492],[22,30576],[22,30660],[22,30747],[22,30829],[22,30912],[22,30998],[22,31080],[22,31164],[22,31246],[22,31329],[22,31413],[22,31497],[22,31581],[22,31667],[22,31751],[22,31834],[22,31928],[22,32018],[22,32107],[22,32191],[22,32267],[22,32350],[22,32433],[22,32516],[22,32600],[22,32682],[22,32766],[22,32849],[22,32933],[22,33016],[22,33099],[22,33182],[22,33266],[22,33349],[22,33432],[22,33514],[22,33598],[22,33682],[22,33765],[22,33848],[22,33931],[22,34015],[22,34098],[22,34181],[22,34264],[22,34347],[32.4,34460],[40.8,34540],[43,34617],[45.6,34700],[48.8,34783],[49.6,34864],[49.6,34947],[50,35031],[50.3,35114],[50.3,35197],[50.3,35280],[50.3,35363],[50.3,35449],[50.3,35530],[50.3,35613],[50.3,35697],[50.3,35780],[50.3,35863],[50.3,35946],[50.3,36029],[50.3,36112],[50.3,36196],[50.3,36279],[50.3,36363],[50.3,36445],[50.3,36528],[50.3,36612],[50.3,36695],[50.3,36778],[50.3,36862],[50.3,36945],[50.3,37028],[50.3,37113],[50.3,37195],[50.3,37278],[50.3,37361],[50.3,37446],[50.3,37528],[50.3,37611],[50.3,37694],[50.3,37778],[50.3,37861],[50.3,37944],[50.3,38027],[50.3,38110],[50.3,38194],[50.3,38276],[50.3,38360],[50.3,38443],[50.3,38526],[50.3,38610],[50.3,38693],[50.3,38776],[50.3,38860],[50.3,38942],[50.3,39026],[50.3,39109],[50.3,39192],[50.3,39275],[50.3,39359],[50.3,39443],[50.3,39526],[50.3,39608],[50.3,39692],[50.3,39776],[50.3,39859],[50.3,39942],[50.3,40024],[50.3,40108],[50.3,40192],[50.3,40275],[50.3,40359],[50.3,40441],[50.3,40526],[50.3,40609],[50.3,40691],[50.3,40775],[50.3,40857],[50.3,40941],[50.3,41024],[50.3,41108],[50.3,41190],[50.3,41274],[50.3,41357],[50.3,41441],[50.3,41524],[50.3,41607],[50.3,41690],[50.3,41773],[50.3,41858],[50.3,41940],[50.3,42023],[50.3,42106],[50.3,42189],[50.3,42274],[50.3,42356],[50.3,42440],[50.3,42522],[50.3,42607],[50.3,42688],[50.3,42773],[50.3,42856],[50.3,42938],[50.3,43022],[50.3,43106],[50.3,43188],[50.3,43272],[44.9,43374],[34.2,43456],[28.2,43539],[26.7,43622],[25,43706],[23.9,43788],[22.9,43872],[22.8,43954],[22.8,44037],[22.8,44121],[22.8,44204],[22.8,44287],[22.8,44371],[22.8,44454],[22.8,44537],[22.8,44620],[22.8,44704],[22.8,44787],[22.8,44870],[22.8,44953],[22.8,45037],[22.8,45120],[22.8,45203],[22.8,45286],[22.8,45371],[22.8,45454],[22.8,45536],[22.8,45620],[22.8,45703],[22.8,45785],[22.8,45869],[22.8,45952],[22.8,46035],[22.8,46119],[22.8,46203],[22.8,46287],[22.8,46370],[22.8,46454],[22.8,46539],[22.8,46621],[22.8,46705],[22.8,46790],[22.8,46873],[22.8,46957],[22.8,47042],[22.8,47125],[22.8,47208],[22.8,47292],[22.8,47376],[22.8,47460],[22.8,47544],[22.8,47627],[22.8,47711],[22.8,47796],[22.8,47879],[22.8,47962],[22.8,48046],[22.8,48129],[22.8,48213],[22.8,48298],[22.8,48380],[22.8,48464],[22.8,48548],[22.8,48631],[22.8,48715],[22.8,48798],[22.8,48883],[22.8,48966],[22.8,49050],[22.8,49133],[22.8,49217],[22.8,49300],[22.8,49384],[22.8,49469],[22.8,49551],[22.8,49634],[22.8,49718],[22.8,49801],[22.8,49885],[22.8,49968],[22.8,50052],[22.8,50135],[22.8,50218],[22.8,50302],[22.8,50386],[22.8,50468],[22.8,50553],[22.8,50631],[22.8,50715],[22.8,50797],[22.8,50881],[22.8,50964],[22.8,51047],[22.8,51131],[22.8,51214],[22.8,51297],[22.8,51382],[22.8,51464],[22.8,51547],[22.8,51631],[22.8,51714],[22.8,51797],[22.8,51880],[22.8,51963],[22.8,52047],[22.8,52131],[22.8,52213],[22.8,52296],[22.8,52381],[22.8,52463],[22.8,52546],[22.8,52629],[22.8,52712],[22.8,52797],[22.8,52879],[22.8,52963],[22.8,53045],[22.8,53129],[22.8,53212],[22.8,53295],[22.8,53379],[22.8,53461],[22.8,53546],[22.8,53629],[22.8,53711],[22.8,53795],[22.8,53878],[22.8,53961],[22.8,54045],[22.8,54127],[22.8,54211],[22.8,54294],[22.8,54377],[22.8,54460],[22.8,54543],[22.8,54627],[22.8,54710],[22.8,54794],[22.8,54877],[22.8,54960],[22.8,55043],[22.8,55127],[22.8,55210],[22.8,55293],[22.8,55376],[22.8,55461],[22.8,55543],[22.8,55626],[22.8,55710],[22.8,55792],[22.8,55876]]",1,0,161.3261,165.188,35.0658858,1.9603,"[{""rating"":35.065885797950216,""responseTime"":1.9602999999522979}]",space,3.3142,,165.1882,All the time,100,165.196,,,[],,0,1,1,1,1,audio/Narrative7Situation1.wav,audio/Narrative8Situation1.wav,audio/Narrative5Situation1.wav,audio/Narrative6Situation1.wav,2,5,5,2,1.0997,,,,,,,,,,,,,,,,,,,,,,,,,,,,,,,,,,,,,,
,,,,,,5f42eec40c24ac531d4ca24a,2024-05-13_11h33.36.364,group3.1-3.2-social-tom,2023.2.2,Win32,59.88023952,65c5074098b851296ff0b7ed,66423293130c38434d535ee1,,,,,,,,,,,,,,,,,,,,,,,,,,,,,165.1965,1,audio/Narrative7Situation2.wav,168.2026,,168.2027,175.6782,"[[999,16],[999,82],[999,165],[999,249],[999,332],[999,416],[999,500],[999,582],[999,668],[999,751],[999,834],[999,921],[999,1002],[999,1089],[999,1172],[999,1254],[999,1339],[999,1422],[999,1505],[2.3,1591],[1.7,1672],[1.4,1757],[0.8,1840],[0.1,1925]]",1,0,175.6786,180.39,0.366032211,3.8548,"[{""rating"":0.36603221083455484,""responseTime"":3.8548000000715206}]",space,4.1762,,180.3902,All the time,100,180.395,,,[],,0,2,2,2,1,audio/Narrative7Situation2.wav,audio/Narrative8Situation2.wav,audio/Narrative5Situation2.wav,audio/Narrative6Situation2.wav,3,3,3,3,,,,,,,,,,,,,,,,,,,,,,,,,,,,,,,,,,,,,,,
,,,,,,5f42eec40c24ac531d4ca24a,2024-05-13_11h33.36.364,group3.1-3.2-social-tom,2023.2.2,Win32,59.88023952,65c5074098b851296ff0b7ed,66423293130c38434d535ee1,,,,,,,,,,,,,,,,,,,,,,,,,,,,,180.3952,1,audio/Narrative7Situation3.wav,187.7984,space,187.7985,197.04,"[[999,16],[999,82],[999,166],[999,250],[999,333],[999,417],[999,501],[999,583],[999,667],[999,750],[999,833],[999,917],[999,998],[999,1083],[999,1167],[999,1250],[999,1333],[999,1417],[999,1500],[999,1584],[999,1667],[2.1,1749],[1.1,1834],[0.1,1916],[0.1,1999]]",1,0,197.0404,198.6891,0.073206442,1.2627,"[{""rating"":0.07320644216691208,""responseTime"":1.262700000047687}]",space,1.1058,,198.6893,Not at all,0,198.6957,,,[],,0,3,3,3,1,audio/Narrative7Situation3.wav,audio/Narrative8Situation3.wav,audio/Narrative5Situation3.wav,audio/Narrative6Situation3.wav,8,4,3,5,7.3879,,,,,,,,,,,,,,,,,,,,,,,,,,,,,,,,,,,,,,
,,,,,,5f42eec40c24ac531d4ca24a,2024-05-13_11h33.36.364,group3.1-3.2-social-tom,2023.2.2,Win32,59.88023952,65c5074098b851296ff0b7ed,66423293130c38434d535ee1,,,,,,,,,,,,,,,,,,,,,,,,,,,,,198.6961,1,audio/Narrative7Situation4.wav,200.3369,space,200.3371,212.0757,"[[0.5,7854],[0.7,7926],[1.5,8008],[2.1,8092],[3.3,8175],[4.6,8260],[5.6,8343],[6.5,8427],[7.4,8510],[7.8,8591],[7.8,8674],[8.9,8758],[8.9,8841],[8.9,8924],[8.9,9008],[8.9,9090],[8.9,9174],[8.9,9257],[8.9,9340],[8.9,9424],[8.9,9507],[8.9,9589],[8.9,9673],[8.9,9756],[8.9,9839],[8.9,9924],[8.9,10006],[8.9,10090],[8.9,10172],[8.9,10255],[8.9,10339],[8.9,10421],[8.9,10505],[8.9,10588],[8.9,10671],[8.9,10755],[8.9,10838],[8.9,10921],[8.9,11004],[8.9,11087],[8.9,11171],[8.9,11254],[8.9,11338],[8.9,11420],[8.9,11504],[8.9,11587],[8.9,11671]]",1,0,212.0759,214.7065,8.857979502,1.8487,"[{""rating"":8.857979502196194,""responseTime"":1.8487000000476996}]",space,2.0823,,214.7067,Half the time,50,214.7152,,,[],,0,4,4,4,1,audio/Narrative7Situation4.wav,audio/Narrative8Situation4.wav,audio/Narrative5Situation4.wav,audio/Narrative6Situation4.wav,3,3,1,2,1.6293,,,,,,,,,,,,,,,,,,,,,,,,,,,,,,,,,,,,,,
,,,,,,5f42eec40c24ac531d4ca24a,2024-05-13_11h33.36.364,group3.1-3.2-social-tom,2023.2.2,Win32,59.88023952,65c5074098b851296ff0b7ed,66423293130c38434d535ee1,,,,,,,,,,,,,,,,,,,,,,,,,,,,,214.7156,1,audio/Narrative7Situation5.wav,215.2886,space,215.2889,223.7973,"[[8.7,748],[2.3,834],[8.7,5681],[16.8,5758],[20.6,5840],[24.2,5924],[28.2,6008],[29.5,6091],[29.5,6174],[29.5,6259],[29.5,6343],[29.8,6426],[32,6509],[32.4,6593],[32.4,6675],[32.4,6759],[32.4,6842],[32.4,6925],[32.4,7008],[32.4,7092],[32.4,7175],[32.4,7258],[32.4,7341],[32.4,7425],[32.4,7509],[32.4,7593],[32.4,7675],[32.4,7758],[32.4,7842],[32.4,7925],[32.4,8007],[32.4,8091],[32.4,8175],[32.4,8257],[32.4,8341],[32.4,8424],[32.4,8507]]",1,0,223.7976,227.2614,24.37774524,1.9744,"[{""rating"":24.377745241581263,""responseTime"":1.974400000095386}]",space,2.9143,,227.2617,All the time,100,227.2679,,,[],,0,5,5,5,1,audio/Narrative7Situation5.wav,audio/Narrative8Situation5.wav,audio/Narrative5Situation5.wav,audio/Narrative6Situation5.wav,5,2,5,2,0.5623,,,,,,,,,,,,,,,,,,,,,,,,,,,,,,,,,,,,,,
,,,,,,5f42eec40c24ac531d4ca24a,2024-05-13_11h33.36.364,group3.1-3.2-social-tom,2023.2.2,Win32,59.88023952,65c5074098b851296ff0b7ed,66423293130c38434d535ee1,,,,,,,,,,,,,,,,,,,,,,,,,,,,,227.2684,1,audio/Narrative7Situation6.wav,230.074,space,230.0744,240.0643,"[[999,18],[999,98],[999,182],[999,265],[999,348],[999,432],[999,514],[999,598],[999,682],[999,765],[999,849],[4,932],[1.8,1014],[0.8,1098],[0.2,6013],[7,6103],[15.9,6180],[23.2,6264],[29.5,6352],[34.8,6431],[38.1,6516],[42.4,6600],[46.8,6685],[48.5,6774],[49.6,6859],[50.4,6937],[50.4,7031],[50.4,7103],[50.4,7186],[50.4,7269],[50.4,7352],[50.4,7437],[50.4,7519],[50.4,7604],[50.4,7688],[50.4,7771],[50.4,7854],[50.4,7938],[50.4,8021],[50.4,8105],[50.4,8189],[50.3,8273],[50.3,8355],[50.3,8440],[50.3,8523],[50.3,8607],[50.3,8690],[50.3,8774],[50.3,8856],[50.3,8940],[50.3,9024],[50.3,9106],[50.3,9190],[50.3,9273],[50.3,9357],[50.3,9439],[50.3,9523],[50.3,9606],[50.3,9690],[50.3,9773],[50.3,9857],[50.3,9939]]",1,0,240.0646,241.8285,50.29282577,0.7613,"[{""rating"":50.29282576866765,""responseTime"":0.761299999952314}]",space,1.2162,,241.8287,Half the time,50,241.8358,,,[],,0,6,6,6,1,audio/Narrative7Situation6.wav,audio/Narrative8Situation6.wav,audio/Narrative5Situation6.wav,audio/Narrative6Situation6.wav,3,2,3,2,2.7912,,,,,,,,,,,,,,,,,,,,,,,,,,,,,,,,,,,,,,
,,,,,,5f42eec40c24ac531d4ca24a,2024-05-13_11h33.36.364,group3.1-3.2-social-tom,2023.2.2,Win32,59.88023952,65c5074098b851296ff0b7ed,66423293130c38434d535ee1,,,,,,,,,,,,,,,,,,,,,,,,,,,,,241.8363,1,audio/Narrative7Situation7.wav,242.5293,space,242.5295,259.7109,"[[41.9,665],[32.1,748],[17.6,915],[15.7,997],[15.7,1080],[15.7,1164],[15.7,1250],[12.4,1334],[19.3,14278],[28.2,14385],[40,14487],[47.5,14595],[48.4,14696],[49,14792],[49.1,14887],[49.9,14990],[50.7,15097],[50.7,15194],[50.7,15286],[50.7,15383],[50.7,15477],[50.7,15574],[50.7,15671],[50.7,15762],[49.7,15855],[49.7,15939],[49.6,16023],[49.6,16105],[49.6,16185],[49.6,16266],[49.6,16348],[49.6,16432],[49.6,16515],[49.6,16598],[49.6,16681],[49.6,16765],[49.6,16848],[49.6,16931],[49.6,17014],[49.6,17097],[49.6,17181]]",1,0,259.7111,261.9255,49.56076135,1.8069,"[{""rating"":49.56076134699854,""responseTime"":1.8068999999761672}]",space,1.6804,,261.9256,Not at all,0,261.9323,,,[],,0,7,7,7,1,audio/Narrative7Situation7.wav,audio/Narrative8Situation7.wav,audio/Narrative5Situation7.wav,audio/Narrative6Situation7.wav,5,3,4,5,0.6768,,,,,,,,,,,,,,,,,,,,,,,,,,,,,,,,,,,,,,
,,,,,,5f42eec40c24ac531d4ca24a,2024-05-13_11h33.36.364,group3.1-3.2-social-tom,2023.2.2,Win32,59.88023952,65c5074098b851296ff0b7ed,66423293130c38434d535ee1,,,,,,,,,,,,,,,,,,,,,,,,,,,,,261.9327,1,audio/Narrative7Situation8.wav,263.6571,space,263.6571,273.6647,"[[999,1],[999,83],[999,166],[999,250],[999,332],[999,415],[999,500],[999,581],[999,667],[999,751],[999,834],[999,915],[999,998],[999,1081],[999,1164],[999,1249],[999,1333],[999,1415],[999,1500],[999,1584],[999,1665],[999,1748],[999,1831],[1.2,3995],[3,4079],[5.8,4163],[7.4,4246],[7.7,4328],[8.3,4412],[8.3,4495],[8.3,4579],[8.3,4661],[8.3,4745],[8.3,4828],[8.3,4911],[8.3,4995],[8.3,5077],[8.3,5161],[8.3,5244],[8.3,5328],[8.3,5411],[8.3,5493],[8.3,5577],[8.3,5660],[8.3,5744],[8.3,5829],[8.3,5912],[8.3,5994],[8.3,6080],[8.3,6165],[8.3,6245],[8.3,6331],[8.3,6414],[8.3,6497],[8.3,6580],[8.3,6664],[8.3,6748],[8.3,6831],[8.3,6919],[8.3,7005],[8.3,7083],[8.3,7167],[8.3,7252],[8.3,7335],[8.3,7421],[8.3,7504],[8.3,7586],[8.3,7669],[8.3,7753],[8.3,7837],[8.3,7920],[8.3,8004],[8.3,8088],[8.3,8172],[8.3,8257],[8.3,8343],[8.3,8424],[8.3,8506],[8.3,8590],[8.3,8673],[8.3,8758],[8.3,8841],[8.3,8925],[8.3,9007],[8.3,9091],[8.3,9175],[8.3,9258],[8.3,9342],[8.3,9425],[8.3,9507],[8.3,9592],[8.3,9675],[8.3,9757],[8.3,9840],[8.3,9922],[8.3,10007]]",1,0,273.6649,275.5458,7.540263543,1.5761,"[{""rating"":7.5402635431917995,""responseTime"":1.576100000023871}]",space,1.3465,,275.546,All the time,100,275.5522,,,[],,0,8,8,8,1,audio/Narrative7Situation8.wav,audio/Narrative8Situation8.wav,audio/Narrative5Situation8.wav,audio/Narrative6Situation8.wav,2,3,3,5,1.7109,,,,,,,,,,,,,,,,,,,,,,,,,,,,,,,,,,,,,,
,,,,,,5f42eec40c24ac531d4ca24a,2024-05-13_11h33.36.364,group3.1-3.2-social-tom,2023.2.2,Win32,59.88023952,65c5074098b851296ff0b7ed,66423293130c38434d535ee1,,,,,,,,,,,,,,,,,,,,,,,,,,,,,275.5526,1,audio/Narrative7Situation9.wav,277.1444,space,277.1446,285.8032,"[[5.8,666],[2.9,750],[1.5,833],[1.2,916],[0.7,1000],[0.5,4579],[18.5,4663],[34.8,4745],[45,4830],[49.7,4912],[54,4995],[54.4,5076],[54.1,5162],[52.6,5244],[51,5328],[49.6,5411],[48.8,5493],[48.8,5576],[48.8,5661],[48.8,5743],[48.8,5826],[48.8,5909],[48.8,5992],[48.8,6075],[48.8,6159],[48.8,6242],[48.8,6326],[49,6408],[49.1,6493],[49.3,6575],[49.4,6660],[49.4,6742],[49.4,6825],[49.4,6909],[49.4,6992],[49.4,7075],[49.4,7158],[49.4,7241],[49.4,7325],[49.4,7409],[49.4,7491],[49.4,7574],[49.4,7658],[49.4,7741],[49.4,7824],[49.4,7907],[49.4,7990],[49.4,8074],[49.4,8157],[49.4,8240],[49.4,8324],[49.4,8408],[49.4,8490],[49.4,8573],[49.4,8657]]",1,0,285.8035,287.4272,49.56076135,1.283,"[{""rating"":49.56076134699854,""responseTime"":1.2830000000000155}]",space,1.0751,,287.4273,All the time,100,287.4313,,,[],,0,9,9,9,1,audio/Narrative7Situation9.wav,audio/Narrative8Situation9.wav,audio/Narrative5Situation9.wav,audio/Narrative6Situation9.wav,2,3,3,4,1.5754,,,,,,,,,,,,,,,,,,,,,,,,,,,,,,,,,,,,,,
,,,,,,5f42eec40c24ac531d4ca24a,2024-05-13_11h33.36.364,group3.1-3.2-social-tom,2023.2.2,Win32,59.88023952,65c5074098b851296ff0b7ed,66423293130c38434d535ee1,,,,,,,,,,,,,,,,,,,,,,,,,,,,,287.4316,1,audio/Narrative8Situation1.wav,290.1342,space,290.1344,306.0665,"[[999,0],[999,83],[999,166],[999,250],[999,333],[999,417],[999,499],[999,583],[999,661],[999,747],[999,831],[999,912],[13.1,14761],[20.9,14843],[23.1,14927],[23.1,15012],[23.1,15094],[23.1,15177],[23.1,15262],[23.1,15345],[23.1,15429],[23.1,15512],[23.1,15595],[23.1,15679],[23.1,15764],[23.1,15847],[23.1,15931]]",1,0,306.0666,307.6799,23.06002928,1.2947,"[{""rating"":23.060029282576867,""responseTime"":1.2947000000476692}]",space,1.0811,,307.68,All the time,100,307.6842,,,[],,0,10,10,10,1,audio/Narrative8Situation1.wav,audio/Narrative7Situation1.wav,audio/Narrative6Situation1.wav,audio/Narrative5Situation1.wav,5,2,2,5,2.6826,,,,,,,,,,,,,,,,,,,,,,,,,,,,,,,,,,,,,,
,,,,,,5f42eec40c24ac531d4ca24a,2024-05-13_11h33.36.364,group3.1-3.2-social-tom,2023.2.2,Win32,59.88023952,65c5074098b851296ff0b7ed,66423293130c38434d535ee1,,,,,,,,,,,,,,,,,,,,,,,,,,,,,307.6846,1,audio/Narrative8Situation2.wav,310.6938,,310.6939,320.8099,"[[999,0],[999,82],[999,166],[999,249],[999,332],[999,415],[999,498],[999,582],[999,665],[999,748],[999,833],[999,915],[3.4,998],[2.4,1085],[2,1164],[1.8,1253],[1.1,1331],[0.1,1416],[0.7,6411],[15.7,6510],[28.8,6594],[39.6,6677],[44.7,6759],[49.1,6842],[49.6,6925],[49.7,7009],[49.7,7092],[49.7,7175],[49.7,7259],[49.7,7342],[49.7,7425],[49.7,7508],[49.7,7592],[49.7,7674],[49.7,7758],[49.7,7841],[49.7,7925],[49.7,8007],[49.7,8091],[49.7,8174],[49.7,8258],[49.7,8341],[49.7,8424],[49.7,8507],[49.7,8590],[49.7,8673],[49.7,8757],[49.7,8840],[49.7,8923],[49.7,9007],[49.7,9090],[49.7,9174],[49.7,9258],[49.7,9341],[49.7,9425],[49.7,9510],[49.7,9593],[49.7,9676],[49.7,9760],[49.7,9846],[49.7,9928],[49.7,10012],[49.7,10098]]",1,0,320.8102,321.9788,49.70717423,0.8458,"[{""rating"":49.70717423133236,""responseTime"":0.8457999999523054}]",space,0.619,,321.9789,Not at all,0,321.9864,,,[],,0,11,11,11,1,audio/Narrative8Situation2.wav,audio/Narrative7Situation2.wav,audio/Narrative6Situation2.wav,audio/Narrative5Situation2.wav,3,3,3,3,,,,,,,,,,,,,,,,,,,,,,,,,,,,,,,,,,,,,,,
,,,,,,5f42eec40c24ac531d4ca24a,2024-05-13_11h33.36.364,group3.1-3.2-social-tom,2023.2.2,Win32,59.88023952,65c5074098b851296ff0b7ed,66423293130c38434d535ee1,,,,,,,,,,,,,,,,,,,,,,,,,,,,,321.987,1,audio/Narrative8Situation3.wav,325.4807,space,325.4808,347.8729,"[[999,17],[999,103],[999,186],[999,264],[999,347],[999,431],[999,514],[999,596],[999,682],[999,765],[999,848],[999,931],[999,1016],[999,1096],[999,1179],[999,1263],[999,1346],[0.5,1432],[0.7,1847],[0.8,1929],[14.6,2098],[38.6,2179],[41.9,2263],[41.9,2345],[42.4,2429],[46.3,2514],[47.1,2595],[47.7,2678],[50,2762],[50.9,2845],[50.9,2928],[50.9,3011],[50.9,3094],[50.9,3178],[50.9,3260],[50.1,3346],[50.1,3427],[50.1,3511],[50.1,3593],[50.1,3677],[50.1,3761],[50,3843],[49.1,3928],[48.5,4010],[48.5,4094],[48.5,4177],[48.5,4260],[48.5,4343],[48.5,4426],[48.5,4509],[48.5,4594],[48.5,4676],[48.5,4760],[48.5,4844],[48.5,4925],[48.5,5009],[48.5,5093],[48.5,5175],[48.5,5259],[48.5,5342],[48.5,5425],[48.5,5508],[48.5,5591],[48.5,5675],[48.5,5758],[48.5,5841],[48.5,5925],[48.5,6008],[48.5,6092],[48.5,6175],[48.5,6259],[48.5,6341],[48.5,6424],[48.5,6508],[48.5,6591],[48.5,6674],[48.5,6757],[48.5,6840],[48.5,6925],[48.5,7007],[48.5,7091],[48.5,7174],[48.5,7256],[48.5,7340],[48.5,7423],[48.5,7506],[48.5,7589],[48.5,7674],[48.5,7756],[48.5,7841],[48.5,7923],[48.5,8006],[48.5,8089],[48.5,8172],[48.5,8257],[48.5,8338],[48.5,8424],[48.5,8505],[48.5,8588],[48.5,8673],[48.5,8755],[48.5,8838],[48.5,8921],[48.5,9005],[48.5,9088],[48.5,9171],[48.5,9255],[48.5,9338],[48.5,9421],[48.5,9504],[48.5,9588],[48.5,9671],[48.5,9754],[48.5,9839],[48.5,9922],[48.5,10004],[48.5,10087],[48.5,10170],[48.5,10254],[49.1,10338],[53.7,10422],[56,10505],[58.9,10588],[59.1,10670],[59.1,10754],[59.1,10838],[59.1,10920],[59.1,11003],[59.1,11086],[59.1,11169],[59.1,11254],[59.1,11337],[59.1,11422],[59.1,11507],[59.1,11589],[59.1,11673],[59.1,11757],[59.1,11840],[59.1,11924],[59.1,12008],[59.1,12092],[59.1,12177],[59.1,12260],[59.1,12344],[59.1,12427],[59.1,12511],[59.1,12596],[59.1,12679],[59.1,12762],[59.1,12846],[59.1,12929],[59.1,13014],[59.1,13097],[59.1,13181],[59.1,13264],[59.1,13348],[59.1,13432],[59.1,13516],[59.1,13598],[59.1,13682],[59.1,13766],[59.1,13850],[59.1,13933],[59.1,14017],[59.1,14101],[59.1,14184],[59.1,14267],[59.1,14352],[59.1,14435],[59.1,14519],[59.1,14602],[59.1,14686],[59.1,14769],[59.1,14853],[59.1,14937],[59.1,15020],[59.1,15103],[59.1,15186],[59.1,15269],[59.1,15353],[59.1,15437],[59.1,15520],[59.1,15603],[59.1,15687],[59.1,15770],[59.1,15853],[59.1,15932],[59.1,16014],[59.1,16099],[59.1,16182],[59.1,16266],[59.1,16349],[59.1,16432],[59.1,16515],[59.1,16597],[59.1,16682],[59.1,16764],[59.1,16848],[59.1,16930],[59.1,17014],[59.1,17098],[59.1,17180],[59.1,17264],[59.1,17347],[59.1,17431],[59.1,17514],[59.1,17597],[59.1,17680],[59.1,17763],[59.1,17846],[59.1,17930],[59.1,18013],[59.1,18096],[59.1,18180],[59.1,18263],[59.1,18345],[59.1,18429],[59.1,18513],[59.1,18595],[59.1,18679],[59.1,18762],[59.1,18846],[59.1,18929],[59.1,19013],[59.1,19095],[59.1,19178],[59.1,19262],[59.1,19345],[59.1,19428],[59.1,19512],[59.1,19596],[59.1,19678],[59.1,19761],[59.1,19844],[59.1,19927],[59.1,20011],[59.1,20095],[59.1,20178],[59.1,20260],[59.1,20344],[59.1,20427],[59.1,20510],[59.1,20594],[59.1,20678],[59.1,20760],[59.1,20843],[59.1,20927],[59.1,21010],[59.1,21093],[59.1,21176],[59.1,21260],[59.1,21343],[59.1,21426],[59.1,21509],[59.1,21592],[59.1,21676],[59.1,21761],[59.1,21842],[59.1,21925],[59.1,22009],[59.1,22092],[59.1,22176],[59.1,22258],[59.1,22342]]",1,0,347.8732,352.6686,59.07759883,0.7266,"[{""rating"":59.07759882869692,""responseTime"":0.7266000000238364}]",space,4.2665,,352.6688,Not at all,0,352.6935,,,[],,0,12,12,12,1,audio/Narrative8Situation3.wav,audio/Narrative7Situation3.wav,audio/Narrative6Situation3.wav,audio/Narrative5Situation3.wav,4,8,5,3,3.4837,,,,,,,,,,,,,,,,,,,,,,,,,,,,,,,,,,,,,,
,,,,,,5f42eec40c24ac531d4ca24a,2024-05-13_11h33.36.364,group3.1-3.2-social-tom,2023.2.2,Win32,59.88023952,65c5074098b851296ff0b7ed,66423293130c38434d535ee1,,,,,,,,,,,,,,,,,,,,,,,,,,,,,352.694,1,audio/Narrative8Situation4.wav,353.9874,space,353.9875,368.1533,"[[999,0],[999,83],[999,168],[999,251],[999,335],[999,418],[999,503],[999,588],[999,670],[999,753],[999,838],[999,921],[999,1005],[999,1088],[999,1172],[999,1256],[999,1340],[999,1424],[999,1507],[999,1591],[999,1675],[999,1758],[999,1842],[14.9,1928],[13.4,2009],[12.8,2093],[12.8,2177],[12.8,2260],[12.8,2343],[13.8,2429],[14.7,2509],[15,2593],[15,2677],[15,2759],[15,2843],[15,2926],[15,3009],[15,3093],[15,3176],[15,3260],[15,3342],[15,3425],[15,3509],[15,3592],[15,3675],[15,3759],[15,3841],[15,3925],[15.2,4008],[15.3,4092],[15.4,4176],[15.9,4258],[16.3,4342],[16.9,4425],[17.2,4509],[17.6,4593],[18.2,4674],[19.7,4758],[20.9,4841],[21.4,4924],[21.6,5007],[22,5091],[23.5,5174],[24.5,5258],[24.8,5341],[24.8,5424],[25,5508],[25,5590],[25,5673],[25,5757],[25,5839],[25,5924],[25,6006],[25,6090],[25,6173],[25,6257],[25,6340],[25,6423],[25,6506],[25,6589],[25,6672],[25,6755],[25,6839],[25,6922],[25,7005],[25,7089],[27.5,7174],[36.7,7256],[41.8,7339],[44.4,7423],[48,7507],[50.9,7590],[51.6,7671],[51.6,7754],[51.3,7839],[50.3,7922],[49.9,8006],[49.9,8087],[49.9,8171],[49.9,8253],[49.9,8338],[49.9,8420],[49.9,8504],[49.9,8588],[49.9,8670],[49.9,8753],[49.9,8837],[49.9,8920],[49.9,9003],[49.9,9087],[49.9,9169],[49.9,9254],[49.9,9336],[49.9,9419],[49.9,9503],[49.9,9586],[49.9,9670],[49.9,9754],[49.9,9836],[49.9,9919],[49.9,10002],[49.9,10085],[49.9,10168],[49.9,10252],[49.9,10336],[49.9,10419],[49.9,10502],[49.9,10584],[49.9,10668],[49.9,10752],[49.9,10834],[49.9,10918],[49.9,11001],[49.9,11084],[49.9,11168],[49.9,11251],[49.9,11334],[49.9,11418],[49.9,11501],[49.9,11585],[49.9,11667],[49.9,11751],[54,11834],[59.2,11919],[63.8,12002],[66.7,12085],[69.9,12168],[73,12251],[74,12333],[74.3,12417],[74.3,12500],[74.3,12583],[74.3,12666],[74.3,12749],[74.3,12833],[74.3,12916],[74.3,12999],[74.3,13083],[74.3,13165],[74.3,13249],[74.3,13332],[74.3,13415],[74.3,13499],[74.3,13582],[74.3,13665],[74.3,13748],[74.3,13832],[74.3,13914],[74.3,13998],[74.3,14081],[74.3,14165]]",1,0,368.1538,370.352,74.3045388,1.6091,"[{""rating"":74.30453879941435,""responseTime"":1.6091000000238296}]",space,1.6523,,370.3521,All the time,100,370.3587,,,[],,0,13,13,13,1,audio/Narrative8Situation4.wav,audio/Narrative7Situation4.wav,audio/Narrative6Situation4.wav,audio/Narrative5Situation4.wav,3,3,2,1,1.2774,,,,,,,,,,,,,,,,,,,,,,,,,,,,,,,,,,,,,,
,,,,,,5f42eec40c24ac531d4ca24a,2024-05-13_11h33.36.364,group3.1-3.2-social-tom,2023.2.2,Win32,59.88023952,65c5074098b851296ff0b7ed,66423293130c38434d535ee1,,,,,,,,,,,,,,,,,,,,,,,,,,,,,370.359,1,audio/Narrative8Situation5.wav,372.3631,,372.3631,380.6081,"[[999,0],[999,82],[999,166],[999,249],[999,333],[999,417],[999,501],[999,585],[999,667],[999,751],[999,836],[999,918],[999,1003],[999,1085],[999,1170],[999,1252],[999,1336],[999,1419],[999,1504],[999,1587],[999,1670],[999,1754],[999,1835],[999,1918],[999,2001],[999,2085],[999,2167],[999,2250],[16.8,2335],[20.6,2417],[24.8,2501],[33.2,3255],[32.7,3333],[32.7,3416],[32.6,3499],[32.6,3583],[32.6,3666],[32.6,3749],[32.6,3831],[32.6,3915],[32.6,3998],[32.6,4082],[32.6,4166],[32.6,4248],[32.6,4331],[32.6,4415],[32.6,4497],[32.6,4581],[33.3,4665],[34.5,4748],[34.5,4830],[34.5,4914],[34.5,4997],[34.5,5080],[34.5,5165],[36.4,5248],[42.4,5331],[47.2,5414],[49.7,5498],[49.9,5580],[49.9,5663],[49.9,5748],[49.9,5830],[49.9,5913],[49.9,5996],[49.9,6080],[49.9,6163],[49.9,6246],[49.9,6329],[49.9,6412],[49.9,6495],[49.9,6579],[49.9,6661],[49.9,6745],[49.9,6829],[49.9,6912],[49.9,6996],[49.9,7078],[49.9,7161],[49.9,7246],[49.9,7327],[49.9,7411],[49.9,7495],[49.9,7578],[49.9,7660],[49.9,7744],[49.9,7828],[49.9,7910],[49.9,7994],[49.9,8077],[49.9,8161],[49.9,8243]]",1,0,380.6083,382.9049,49.85358712,0.6625,"[{""rating"":49.85358711566617,""responseTime"":0.6625000000000227}]",space,1.7529,,382.905,Not at all,0,382.9146,,,[],,0,14,14,14,1,audio/Narrative8Situation5.wav,audio/Narrative7Situation5.wav,audio/Narrative6Situation5.wav,audio/Narrative5Situation5.wav,2,5,2,5,,,,,,,,,,,,,,,,,,,,,,,,,,,,,,,,,,,,,,,
,,,,,,5f42eec40c24ac531d4ca24a,2024-05-13_11h33.36.364,group3.1-3.2-social-tom,2023.2.2,Win32,59.88023952,65c5074098b851296ff0b7ed,66423293130c38434d535ee1,,,,,,,,,,,,,,,,,,,,,,,,,,,,,382.9151,1,audio/Narrative8Situation6.wav,383.5676,space,383.5678,390.0318,"[[25.5,1750],[24.5,1851],[24.4,1934],[24.4,2017],[24.4,2100],[24.4,2184],[24.4,2267],[24.4,2351],[24.4,2433],[24.4,2516],[24.4,2600],[24.4,2683],[24.4,2767],[24.4,2849],[24.4,2933],[24.4,3016],[24.4,3100],[24.4,3183],[24.4,3267],[24.4,3350],[24.4,3432],[24.4,3517],[22.8,3601],[15.4,3684],[13,3768],[12.7,3851],[12.7,3935],[12.7,4019],[12.7,4103],[12.7,4187],[11.8,4271],[10.8,4354],[10.2,4439],[9,4525],[8,4607],[7.5,4689],[7.5,4773],[7.5,4858],[7.5,4941],[7.5,5024],[7.5,5108],[7.5,5191],[7.5,5276],[7.5,5359],[7.5,5443],[7.5,5527],[7.5,5611],[7.5,5693],[7.5,5778],[7.5,5861],[7.5,5946],[7.5,6029],[7.5,6113],[7.5,6195],[7.5,6280],[7.5,6363],[7.5,6447]]",1,0,390.0321,391.0646,7.540263543,0.7463,"[{""rating"":7.5402635431917995,""responseTime"":0.7463000000715283}]",space,0.4991,,391.065,Not at all,0,391.0688,,,[],,0,15,15,15,1,audio/Narrative8Situation6.wav,audio/Narrative7Situation6.wav,audio/Narrative6Situation6.wav,audio/Narrative5Situation6.wav,2,3,2,3,0.6398,,,,,,,,,,,,,,,,,,,,,,,,,,,,,,,,,,,,,,
,,,,,,5f42eec40c24ac531d4ca24a,2024-05-13_11h33.36.364,group3.1-3.2-social-tom,2023.2.2,Win32,59.88023952,65c5074098b851296ff0b7ed,66423293130c38434d535ee1,,,,,,,,,,,,,,,,,,,,,,,,,,,,,391.0692,1,audio/Narrative8Situation7.wav,392.5958,space,392.5961,404.7073,"[[999,0],[999,82],[999,166],[999,248],[999,332],[999,414],[999,499],[999,581],[999,665],[999,750],[999,833],[999,916],[999,998],[999,1082],[999,1165],[4.2,1248],[3.6,1333],[3.1,1418],[1.5,1498]]",1,0,404.7075,407.549,0.219619327,2.3673,"[{""rating"":0.21961932650073068,""responseTime"":2.3672999999523086}]",space,2.2896,,407.5491,Not at all,0,407.5533,,,[],,0,16,16,16,1,audio/Narrative8Situation7.wav,audio/Narrative7Situation7.wav,audio/Narrative6Situation7.wav,audio/Narrative5Situation7.wav,3,5,5,4,1.5121,,,,,,,,,,,,,,,,,,,,,,,,,,,,,,,,,,,,,,
,,,,,,5f42eec40c24ac531d4ca24a,2024-05-13_11h33.36.364,group3.1-3.2-social-tom,2023.2.2,Win32,59.88023952,65c5074098b851296ff0b7ed,66423293130c38434d535ee1,,,,,,,,,,,,,,,,,,,,,,,,,,,,,407.5536,1,audio/Narrative8Situation8.wav,409.1785,space,409.1787,422.0419,"[[999,0],[999,84],[999,166],[999,251],[999,334],[999,416],[999,499],[999,583],[999,667],[999,750],[999,833],[999,916],[999,999],[999,1083],[999,1166],[999,1250],[999,1332],[999,1415],[999,1498],[999,1583],[999,1664],[999,1750],[999,1832],[999,1915],[8,2000],[6.7,2081],[6.2,2164],[6.2,2247],[6.2,2332],[6.2,2415],[6.5,2499],[7,2581],[7.4,2664],[7.8,2748],[7.8,2830],[8,2913],[8.1,2996],[8.1,3080],[8.1,3163],[8.1,3247],[8.1,3330],[8.1,3413],[8.1,3496],[8.1,3579],[8.1,3663],[8.1,3746],[8.1,3829],[8.1,3912],[8.1,3996],[8.1,4079],[8.1,4162],[8.1,4245],[8.1,4329],[8.1,4413],[8.1,4496],[8.1,4579],[8.1,4662],[8.1,4745],[8.1,4829],[8.1,4912],[8.1,4995],[8.1,5078],[8.1,5161],[10.6,5245],[22,5328],[30.7,5414],[40.6,5498],[47.4,5581],[49,5661],[49,5744],[49,5827],[49,5910],[49,5994],[49,6077],[49,6160],[49,6247],[49,6341],[49,6450],[49,6562],[49.1,6665],[49.6,6766],[49.9,6863],[50,6943],[50,7027],[50,7109],[50,7194],[50,7276],[50,7359],[50,7442],[50,7526],[50,7609],[50,7692],[50,7775],[50,7858],[50,7942],[50,8026],[50,8108],[50,8191],[50,8274],[50,8358],[50,8442],[50,8524],[50,8607],[50,8692],[50,8775],[50,8858],[50,8940],[50,9024],[50,9108],[50,9191],[50,9273],[50,9357],[50,9439],[50,9523],[50,9606],[50,9690],[50,9775],[50,9856],[50,9939],[50,10023],[50,10106],[50,10191],[50,10273],[50,10357],[50,10439],[50.4,10523],[51.9,10607],[55.1,10689],[56.7,10772],[58.1,10856],[59.4,10940],[60.4,11024],[61.1,11105],[61.3,11188],[61.3,11272],[61.3,11355],[61.3,11439],[61.3,11522],[61.3,11606],[61.3,11690],[61.3,11773],[61.3,11856],[61.3,11941],[61.3,12025],[61.3,12109],[61.3,12193],[61.3,12276],[61.3,12360],[61.3,12444],[61.3,12527],[61.3,12611],[61.3,12695],[61.3,12779],[61.3,12862]]",1,0,422.042,423.7311,61.27379209,0.8145,"[{""rating"":61.27379209370425,""responseTime"":0.8145000000000095}]",space,1.1603,,423.7313,Not at all,0,423.7378,,,[],,0,17,17,17,1,audio/Narrative8Situation8.wav,audio/Narrative7Situation8.wav,audio/Narrative6Situation8.wav,audio/Narrative5Situation8.wav,3,2,5,3,1.6143,,,,,,,,,,,,,,,,,,,,,,,,,,,,,,,,,,,,,,
,,,,,,5f42eec40c24ac531d4ca24a,2024-05-13_11h33.36.364,group3.1-3.2-social-tom,2023.2.2,Win32,59.88023952,65c5074098b851296ff0b7ed,66423293130c38434d535ee1,,,,,,,,,,,,,,,,,,,,,,,,,,,,,423.7386,1,audio/Narrative8Situation9.wav,425.7121,space,425.7122,437.0188,"[[999,0],[999,83],[999,166],[999,249],[999,332],[999,416],[999,499],[999,582],[999,667],[999,748],[999,832],[999,916],[999,999],[999,1083],[999,1167],[999,1248],[999,1332],[999,1415],[999,1498],[999,1581],[999,1666],[999,1750],[999,1832],[999,1915],[999,1999],[999,2081],[999,2164],[999,2247],[999,2332],[999,2415],[999,2497],[999,2581],[999,2663],[999,2748],[999,2830],[999,2914],[999,2997],[49.6,3081],[49.6,3164],[49.6,3247],[49.6,3330],[49.6,3414],[49.6,3497],[49.6,3579],[49.6,3664],[49.6,3746],[49.6,3829],[49.6,3912],[49.6,3996],[49.6,4078],[49.6,4161],[49.6,4246],[49.6,4328],[49.6,4412],[49.6,4495],[49.6,4578],[49.6,4661],[49.6,4745],[49.6,4828],[49.6,4911],[49.6,4994],[49.6,5077],[49.6,5161],[49.6,5244],[49.6,5328],[49.6,5410],[49.6,5494],[49.6,5577],[49.6,5661],[49.6,5744],[49.6,5828],[49.6,5910],[49.6,5993],[49.6,6077],[49.6,6160],[49.6,6243],[49.6,6326],[49.6,6410],[49.6,6493],[49.6,6576],[49.6,6660],[49.6,6743],[49.6,6826],[49.6,6909],[49.6,6993],[49.6,7077],[43,7171],[37.8,7243],[34.5,7326],[31.7,7411],[28.5,7493],[25.5,7577],[23.8,7661],[22.8,7742],[22.2,7827],[21.3,7909],[21.3,7991],[21.3,8074],[21.3,8158],[21.3,8241],[21.3,8325],[21.3,8408],[21.3,8491],[21.3,8574],[21.3,8657],[21.3,8740],[21.3,8825],[21.3,8907],[21.3,8991],[21.3,9073],[21.3,9157],[21.3,9241],[21.3,9323],[21.3,9407],[21.3,9490],[21.3,9573],[21.3,9656],[21.3,9740],[21.3,9823],[21.3,9907],[21.3,9989],[21.3,10073],[21.3,10156],[21.3,10240],[21.3,10322],[21.3,10406],[21.3,10489],[21.3,10572],[21.3,10656],[21.3,10739],[21.3,10822],[21.3,10906],[21.3,10989],[21.3,11072],[21.3,11155],[21.3,11238]]",1,0,437.019,446.3917,21.30307467,1.7706,"[{""rating"":21.30307467057101,""responseTime"":1.7705999999046185}]",space,8.8249,,446.3918,All the time,100,450.1052,99.78038067,2.9716,"[{""rating"":99.78038067349927,""responseTime"":2.971600000023841}]",space,0,18,18,18,1,audio/Narrative8Situation9.wav,audio/Narrative7Situation9.wav,audio/Narrative6Situation9.wav,audio/Narrative5Situation9.wav,3,2,4,3,1.9539,,3.1757,,,,,,,,,,,,,,,,,,,,,,,,,,,,,,,,,,,,
,,,,,,5f42eec40c24ac531d4ca24a,2024-05-13_11h33.36.364,group3.1-3.2-social-tom,2023.2.2,Win32,59.88023952,65c5074098b851296ff0b7ed,66423293130c38434d535ee1,,,,,,,,,,,,,,,,,,,,,,,,,,,454.0243,456.5968,456.6159,2,audio/Narrative13Situation2.wav,456.616,,456.616,486.3691,"[[99,915],[0.2,2165],[3.1,13168],[4,13253],[4.3,13336],[6.5,13418],[7.1,13502],[7.2,13585],[7.2,13668],[7.2,13752],[7.2,13834],[7.2,13919],[7.2,14001],[7.2,14084],[7.2,14168],[7.2,14250],[7.2,14333],[7.2,14417],[7.2,14501],[7.2,14584],[7.2,14669],[7.2,14753],[7.2,14836],[7.2,14920],[7.2,15003],[7.2,15088],[7.2,15171],[7.2,15255],[7.2,15340],[7.2,15423],[7.2,15506],[7.2,15590],[7.2,15674],[7.2,15758],[7.2,15842],[7.2,15928],[7.2,16010],[7.2,16093],[7.2,16177],[7.2,16261],[7.2,16343],[7.2,16428],[7.2,16511],[7.2,16595],[7.2,16679],[7.2,16762],[7.2,16846],[7.2,16930],[7.2,17013],[7.2,17097],[7.2,17180],[7.2,17266],[7.2,17348],[7.2,17432],[7.2,17515],[7.2,17598],[7.2,17681],[7.2,17766],[7.2,17849],[7.2,17933],[7.2,18016],[7.2,18099],[7.2,18183],[7.2,18267],[7.2,18350],[7.2,18433],[7.2,18516],[7.2,18602],[7.2,18683],[7.2,18768],[7.2,18850],[7.2,18934],[7.2,19018],[7.2,19101],[7.2,19180],[7.2,19262],[7.2,19346],[7.2,19429],[7.2,19512],[7.2,19596],[7.2,19679],[7.2,19762],[7.2,19846],[7.2,19930],[7.2,20012],[7.2,20095],[7.2,20178],[7.2,20262],[7.2,20344],[7.2,20428],[7.2,20511],[7.2,20595],[7.2,20679],[7.2,20761],[7.2,20845],[7.2,20928],[7.2,21011],[7.2,21094],[7.2,21177],[7.2,21261],[7.2,21346],[7.2,21427],[7.2,21511],[10.2,21603],[14.1,21681],[16.9,21766],[18.2,21848],[19,21931],[19.7,22015],[20,22096],[20.1,22180],[20.6,22263],[20.7,22346],[20.7,22429],[20.7,22511],[20.7,22595],[20.7,22677],[20.7,22760],[20.7,22843],[20.7,22926],[20.7,23009],[20.7,23092],[20.7,23175],[20.7,23258],[20.7,23342],[20.7,23425],[20.7,23508],[20.7,23592],[20.7,23675],[20.7,23758],[20.7,23841],[20.7,23925],[20.7,24008],[20.7,24091],[20.7,24175],[20.7,24258],[20.7,24342],[20.7,24424],[20.7,24507],[20.7,24590],[20.7,24675],[20.7,24756],[20.7,24841],[20.7,24924],[20.7,25007],[20.7,25090],[20.7,25174],[20.7,25256],[20.7,25340],[20.7,25423],[20.7,25506],[20.7,25590],[20.7,25674],[20.7,25756],[20.7,25839],[20.7,25923],[20.7,26005],[20.7,26089],[20.7,26172],[20.7,26256],[20.7,26339],[20.7,26423],[20.7,26505],[20.7,26589],[20.7,26672],[20.7,26755],[20.7,26839],[20.7,26921],[20.7,27005],[20.7,27088],[20.7,27172],[20.7,27255],[20.7,27339],[20.7,27421],[20.7,27505],[20.7,27588],[20.7,27671],[20.7,27754],[20.7,27837],[20.7,27920],[20.7,28004],[20.7,28088],[20.7,28171],[20.7,28254],[20.7,28337],[20.7,28420],[20.7,28503],[20.7,28586],[20.7,28670],[20.7,28753],[20.7,28837],[20.7,28920],[20.7,29004],[20.7,29086],[20.7,29169],[20.7,29253],[20.7,29336],[20.7,29420],[20.7,29502],[20.7,29586],[20.7,29669],[20.7,29752]]",1,0,486.3694,486.3869,,,[],,,,486.387,Not at all,0,486.3928,,,[],,0,0,0,0,1,audio/Narrative13Situation2.wav,audio/Narrative13Situation2.wav,audio/Narrative13Situation2.wav,audio/Narrative13Situation2.wav,2,2,2,2,,,,,450.1061,454.0027,space,3.3698,,,,,,,,,,,,,,,,,,,,,,,,,,,,,,,
,,,,,,5f42eec40c24ac531d4ca24a,2024-05-13_11h33.36.364,group3.1-3.2-social-tom,2023.2.2,Win32,59.88023952,65c5074098b851296ff0b7ed,66423293130c38434d535ee1,,,,,,,,,,,,,,,,,,,,,,,,,,,,,486.3932,2,audio/Narrative5Situation1.wav,491.3988,,491.3988,504.6836,"[[999,18],[999,83],[999,165],[999,247],[999,331],[999,414],[999,497],[999,581],[999,664],[999,747],[999,831],[999,913],[999,996],[999,1080],[999,1163],[999,1246],[999,1329],[999,1413],[999,1496],[999,1579],[999,1663],[999,1747],[999,1828],[999,1912],[999,1997],[999,2078],[999,2162],[999,2246],[999,2329],[999,2412],[999,2497],[999,2579],[999,2662],[999,2746],[999,2830],[999,2912],[999,2995],[999,3078],[999,3161],[999,3245],[999,3329],[999,3413],[0.5,3510],[0.5,3600],[0.5,3683],[0.5,3764],[0.5,3847],[0.5,3930],[0.5,4013],[0.5,4097],[0.5,4180],[0.5,4262],[0.5,4345],[0.5,4429],[0.5,4511],[0.1,4596],[11.6,12173],[19.4,12253],[23.5,12336],[23.9,12419],[23.9,12502],[23.9,12585],[23.9,12668],[23.9,12751],[23.9,12835],[23.9,12918],[23.9,13001],[23.9,13084],[23.9,13167],[23.9,13251]]",1,0,504.6839,506.6594,23.93850659,1.0879,"[{""rating"":23.938506588579795,""responseTime"":1.0878999999761163}]",space,1.4456,,506.6595,Not at all,0,506.6632,,,[],,0,1,1,1,1,audio/Narrative7Situation1.wav,audio/Narrative8Situation1.wav,audio/Narrative5Situation1.wav,audio/Narrative6Situation1.wav,2,5,5,2,,,,,,,,,,,,,,,,,,,,,,,,,,,,,,,,,,,,,,,
,,,,,,5f42eec40c24ac531d4ca24a,2024-05-13_11h33.36.364,group3.1-3.2-social-tom,2023.2.2,Win32,59.88023952,65c5074098b851296ff0b7ed,66423293130c38434d535ee1,,,,,,,,,,,,,,,,,,,,,,,,,,,,,506.6636,2,audio/Narrative5Situation2.wav,508.4301,space,508.4302,537.9008,"[[17.9,668],[6.1,751],[0.8,834],[1.2,5261],[2.7,5345],[4.8,5427],[5.8,5511],[6.4,5595],[6.8,5678],[7.2,5760],[7.4,5843],[7.7,5926],[8.1,6011],[8.3,6093],[8.3,6177],[8.3,6259],[8.3,6343],[8.3,6426],[8.3,6509],[8.3,6593],[8.3,6676],[8.3,6759],[8.3,6843],[8.3,6925],[8.3,7009],[8.3,7092],[8.3,7175],[8.3,7259],[8.3,7341],[8.3,7425],[8.3,7508],[8.3,7592],[8.3,7675],[8.3,7758],[8.3,7841],[8.3,7926],[8.3,8007],[8.3,8092],[8.3,8174],[8.3,8258],[8.3,8341],[8.3,8424],[8.3,8507],[8.3,8590],[8.3,8674],[8.3,8757],[8.3,8840],[8.3,8923],[8.3,9008],[8.3,9090],[8.3,9173],[8.3,9257],[8.3,9340],[8.3,9424],[8.3,9506],[8.3,9590],[8.3,9673],[8.3,9757],[8.3,9840],[8.3,9923],[8.3,10006],[8.3,10089],[8.3,10173],[8.3,10257],[8.3,10339],[8.3,10422],[8.3,10506],[8.3,10589],[8.3,10672],[8.3,10755],[8.3,10839],[8.3,10922],[8.3,11005],[8.3,11088],[8.3,11171],[8.3,11254],[8.3,11338],[8.3,11421],[8.3,11504],[8.3,11587],[8.3,11671],[8.3,11754],[8.3,11839],[8.3,11920],[8.3,12004],[8.3,12087],[8.3,12170],[8.3,12254],[8.3,12337],[8.3,12420],[8.3,12503],[8.3,12587],[8.3,12670],[8.3,12753],[8.3,12836],[8.3,12920],[8.3,13003],[8.3,13086],[8.3,13169],[8.3,13253],[8.3,13338],[8.3,13422],[8.3,13505],[8.3,13589],[8.3,13673],[8.3,13757],[8.3,13841],[8.3,13924],[8.3,14009],[8.3,14092],[8.3,14175],[8.3,14260],[8.3,14343],[8.3,14426],[8.3,14510],[8.3,14594],[8.3,14677],[8.3,14762],[8.3,14845],[8.3,14929],[8.3,15014],[8.3,15096],[8.3,15180],[8.3,15264],[8.3,15347],[8.3,15432],[8.3,15515],[8.3,15599],[8.3,15683],[8.3,15766],[8.3,15849],[8.3,15933],[8.3,16017],[20.4,16100],[32.1,16185],[38,16273],[43.4,16355],[48.4,16434],[50,16516],[50.6,16599],[50.6,16683],[50.6,16766],[50.6,16849],[50.6,16934],[50.6,17016],[50.6,17100],[50.6,17182],[50.6,17266],[50.6,17349],[50.6,17432],[50.6,17516],[50.6,17600],[50.6,17682],[50.6,17765],[50.6,17849],[50.6,17932],[50.6,18016],[50.6,18098],[50.6,18182],[50.6,18264],[50.6,18348],[50.6,18432],[50.6,18514],[50.6,18599],[50.6,18681],[50.6,18764],[50.6,18847],[50.6,18931],[50.6,19014],[50.6,19098],[50.6,19181],[50.6,19265],[50.6,19347],[50.6,19430],[50.6,19514],[50.6,19597],[50.6,19681],[50.6,19763],[50.6,19846],[50.6,19929],[50.6,20014],[50.6,20096],[50.6,20179],[50.6,20263],[50.6,20347],[50.6,20430],[50.6,20514],[50.6,20597],[50.6,20679],[50.6,20762],[50.6,20846],[50.6,20928],[50.6,21011],[50.6,21095],[50.6,21178],[50.6,21261],[50.6,21345],[50.6,21429],[50.6,21511],[50.6,21595],[50.6,21677],[50.6,21761],[50.6,21844],[50.6,21928],[50.6,22011],[50.6,22094],[50.6,22177],[50.6,22260],[50.6,22345],[50.6,22427],[50.6,22510],[50.6,22594],[50.6,22677],[50.6,22760],[50.6,22843],[50.6,22926],[50.6,23009],[50.6,23093],[50.6,23176],[50.6,23259],[50.6,23342],[50.6,23425],[50.6,23509],[50.6,23592],[50.6,23676],[50.6,23759],[50.6,23842],[50.6,23925],[50.6,24009],[50.6,24092],[50.6,24175],[50.6,24259],[50.6,24341],[50.6,24425],[50.6,24508],[50.6,24592],[50.6,24675],[50.6,24759],[50.6,24841],[50.6,24925],[50.6,25007],[50.6,25091],[50.6,25174],[50.6,25258],[50.6,25341],[50.6,25424],[50.6,25507],[50.6,25591],[50.6,25674],[50.6,25757],[50.6,25839],[50.6,25923],[50.6,26006],[50.6,26089],[50.6,26173],[50.6,26257],[50.6,26340],[50.6,26422],[50.6,26506],[50.6,26589],[50.6,26673],[50.6,26756],[50.6,26839],[50.6,26923],[50.6,27006],[50.6,27089],[50.6,27172],[50.6,27255],[50.6,27339],[50.6,27421],[50.6,27505],[50.6,27588],[50.6,27671],[50.6,27755],[50.6,27838],[50.6,27922],[50.6,28004],[50.6,28087],[50.6,28171],[50.6,28254],[50.6,28337],[50.6,28420],[50.6,28504],[50.6,28587],[50.6,28670],[50.6,28754],[50.6,28837],[50.6,28921],[50.6,29004],[50.6,29087],[50.6,29170],[50.6,29253],[50.6,29337],[50.6,29420]]",1,0,537.9013,539.19,50.43923865,0.8987,"[{""rating"":50.43923865300146,""responseTime"":0.898700000047711}]",space,0.743,,539.1902,All the time,100,539.1963,,,[],,0,2,2,2,1,audio/Narrative7Situation2.wav,audio/Narrative8Situation2.wav,audio/Narrative5Situation2.wav,audio/Narrative6Situation2.wav,3,3,3,3,1.7523,,,,,,,,,,,,,,,,,,,,,,,,,,,,,,,,,,,,,,
,,,,,,5f42eec40c24ac531d4ca24a,2024-05-13_11h33.36.364,group3.1-3.2-social-tom,2023.2.2,Win32,59.88023952,65c5074098b851296ff0b7ed,66423293130c38434d535ee1,,,,,,,,,,,,,,,,,,,,,,,,,,,,,539.1967,2,audio/Narrative5Situation3.wav,540.8126,space,540.8127,554.7173,"[[999,1],[999,82],[999,167],[999,251],[999,334],[999,416],[999,501],[999,585],[999,667],[999,751],[999,835],[999,918],[999,1002],[999,1086],[999,1168],[999,1251],[999,1334],[999,1417],[999,1500],[999,1584],[999,1667],[999,1750],[999,1833],[0.1,1917],[4.2,9608],[12.5,9695],[21,9784],[22.5,9865],[22.5,9941],[22.5,10025],[22.5,10107],[22.5,10192],[22.5,10274],[22.5,10361],[22.5,10464],[22.5,10579],[22.5,10699],[22.5,10817],[22.5,10934],[22.5,11029],[22.5,11120],[22.5,11198],[22.5,11281],[22.5,11358],[22.5,11440],[22.5,11523],[22.5,11606],[22.5,11690],[22.5,11772],[22.5,11856],[22.5,11939],[22.5,12023],[22.5,12106],[22.5,12189],[22.5,12275],[22.5,12355],[22.5,12439],[22.5,12522],[22.5,12605],[22.5,12688],[22.5,12771],[22.5,12855],[22.5,12938],[22.5,13021],[22.5,13105],[22.5,13188],[22.5,13271],[22.5,13354],[22.5,13438],[22.5,13522],[22.5,13605],[22.5,13687],[22.5,13773],[22.5,13854]]",1,0,554.7176,555.8714,22.47437775,0.7133,"[{""rating"":22.47437774524158,""responseTime"":0.7133000000715128}]",space,0.609,,555.8716,Half the time,50,555.8779,,,[],,0,3,3,3,1,audio/Narrative7Situation3.wav,audio/Narrative8Situation3.wav,audio/Narrative5Situation3.wav,audio/Narrative6Situation3.wav,8,4,3,5,1.6006,,,,,,,,,,,,,,,,,,,,,,,,,,,,,,,,,,,,,,
,,,,,,5f42eec40c24ac531d4ca24a,2024-05-13_11h33.36.364,group3.1-3.2-social-tom,2023.2.2,Win32,59.88023952,65c5074098b851296ff0b7ed,66423293130c38434d535ee1,,,,,,,,,,,,,,,,,,,,,,,,,,,,,555.8783,2,audio/Narrative5Situation4.wav,556.256,space,556.2561,576.6338,"[[21.3,756],[12.2,837],[5.8,923],[2.3,1004],[5.2,5437],[15.3,5504],[30.5,5588],[36.8,5671],[39.6,5755],[43.1,5837],[45,5921],[45.3,6003],[45.3,6087],[45.3,6170],[45.3,6254],[45.3,6336],[45.3,6421],[45.3,6502],[45.3,6586],[45.3,6669],[45.3,6753],[45.3,6837],[45.3,6919],[45.3,7003],[45.3,7085],[45.3,7170],[45.3,7253],[45.6,7337],[46,7419],[46,7502],[46.2,7585],[46.6,7669],[46.6,7751],[46.6,7835],[46.6,7918],[46.6,8001],[46.6,8085],[46.8,8168],[47.1,8252],[47.1,8334],[47.1,8417],[47.1,8500],[47.1,8585],[47.1,8668],[47.2,8750],[47.2,8834],[47.2,8916],[47.2,9000],[47.2,9084],[47.2,9167],[47.2,9250],[47.2,9333],[47.2,9416],[47.2,9499],[47.2,9583],[47.2,9666],[47.2,9750],[47.2,9832],[47.2,9916],[47.2,9999],[47.2,10083],[47.2,10166],[47.2,10249],[47.2,10332],[47.2,10415],[47.2,10499],[47.2,10582],[47.2,10665],[47.2,10748],[47.2,10831],[47.2,10916],[47.2,10999],[47.2,11082],[47.2,11164],[47.2,11247],[47.2,11332],[47.2,11414],[47.2,11498],[47.2,11581],[47.2,11664],[7.8,11748]]",1,0,576.6341,580.8422,0.219619327,3.9352,"[{""rating"":0.21961932650073068,""responseTime"":3.9352000000476437}]",space,3.6704,,580.8423,All the time,100,580.8487,,,[],,0,4,4,4,1,audio/Narrative7Situation4.wav,audio/Narrative8Situation4.wav,audio/Narrative5Situation4.wav,audio/Narrative6Situation4.wav,3,3,1,2,0.3613,,,,,,,,,,,,,,,,,,,,,,,,,,,,,,,,,,,,,,
,,,,,,5f42eec40c24ac531d4ca24a,2024-05-13_11h33.36.364,group3.1-3.2-social-tom,2023.2.2,Win32,59.88023952,65c5074098b851296ff0b7ed,66423293130c38434d535ee1,,,,,,,,,,,,,,,,,,,,,,,,,,,,,580.8492,2,audio/Narrative5Situation5.wav,583.9717,space,583.9719,599.4074,"[[999,0],[999,82],[999,166],[999,249],[999,332],[999,415],[999,498],[999,582],[999,665],[999,749],[999,831],[999,915],[999,998],[999,1081],[999,1164],[999,1248],[999,1331],[999,1416],[999,1499],[999,1581],[999,1664],[999,1748],[999,1831],[999,1915],[999,1996],[999,2080],[999,2164],[999,2247],[999,2331],[999,2414],[999,2497],[999,2580],[0.2,2677],[3.7,12264],[11.5,12338],[16.2,12420],[18.5,12505],[21,12588],[22.2,12670],[22.6,12754],[22.6,12836],[22.6,12920],[22.6,13003],[22.6,13087],[22.6,13169],[22.6,13254],[22.6,13336],[22.6,13419],[22.6,13504],[22.6,13586],[22.6,13670],[22.6,13752],[22.6,13835],[22.6,13918],[22.6,14002],[22.6,14086],[22.6,14168],[22.6,14251],[22.6,14335],[22.6,14418],[22.6,14502],[22.6,14585],[22.6,14668],[22.6,14751],[22.6,14834],[22.6,14918],[22.6,15001],[22.6,15084],[22.6,15167],[22.6,15251],[22.6,15334],[22.6,15417]]",1,0,599.4076,600.2733,22.62079063,0.5609,"[{""rating"":22.620790629575403,""responseTime"":0.5609000000954438}]",space,0.317,,600.2734,Half the time,50,600.28,,,[],,0,5,5,5,1,audio/Narrative7Situation5.wav,audio/Narrative8Situation5.wav,audio/Narrative5Situation5.wav,audio/Narrative6Situation5.wav,5,2,5,2,3.1053,,,,,,,,,,,,,,,,,,,,,,,,,,,,,,,,,,,,,,
,,,,,,5f42eec40c24ac531d4ca24a,2024-05-13_11h33.36.364,group3.1-3.2-social-tom,2023.2.2,Win32,59.88023952,65c5074098b851296ff0b7ed,66423293130c38434d535ee1,,,,,,,,,,,,,,,,,,,,,,,,,,,,,600.2803,2,audio/Narrative5Situation6.wav,601.8707,space,601.8707,607.5604,"[[20.9,1833],[10.6,1934],[5.2,2026],[1.4,2119]]",1,0,607.5605,609.8796,0.951683748,1.0868,"[{""rating"":0.9516837481698404,""responseTime"":1.0867999999522908}]",space,1.7842,,609.8798,All the time,100,609.8857,,,[],,0,6,6,6,1,audio/Narrative7Situation6.wav,audio/Narrative8Situation6.wav,audio/Narrative5Situation6.wav,audio/Narrative6Situation6.wav,3,2,3,2,1.5753,,,,,,,,,,,,,,,,,,,,,,,,,,,,,,,,,,,,,,
,,,,,,5f42eec40c24ac531d4ca24a,2024-05-13_11h33.36.364,group3.1-3.2-social-tom,2023.2.2,Win32,59.88023952,65c5074098b851296ff0b7ed,66423293130c38434d535ee1,,,,,,,,,,,,,,,,,,,,,,,,,,,,,609.8861,2,audio/Narrative5Situation7.wav,611.6605,space,611.6606,632.7072,"[[999,1],[999,83],[999,167],[999,249],[999,332],[999,416],[999,500],[999,583],[999,666],[999,750],[999,832],[999,917],[999,1001],[0.1,1082],[0.1,1166],[0.1,1249],[5.6,4329],[15.4,4413],[25.4,4496],[26.7,4578],[26.7,4661],[26.7,4744],[26.7,4828],[26.7,4912],[26.7,4994],[26.6,5077],[26.6,5161],[26.6,5245],[26.6,5328],[26.6,5410],[26.6,5495],[26.6,5577],[26.6,5661],[26.6,5743],[26.6,5827],[26.6,5909],[26.6,5995],[26.6,6077],[26.6,6159],[26.6,6243],[26.6,6327],[26.6,6410],[26.6,6493],[26.6,6576],[26.6,6660],[26.6,6742],[26.6,6826],[26.6,6909],[26.6,6992],[26.6,7076],[26.6,7159],[26.6,7242],[26.6,7326],[26.6,7408],[26.6,7492],[26.6,7575],[26.6,7659],[26.6,7741],[26.6,7825],[26.6,7909],[26.6,7992],[26.6,8075],[26.6,8158],[26.6,8242],[26.6,8324],[26.6,8408],[26.6,8490],[26.6,8574],[26.6,8658],[26.6,8740],[26.6,8824],[26.6,8907],[26.6,8990],[26.6,9074],[26.6,9157],[26.6,9240],[26.6,9323],[26.6,9407],[26.6,9490],[26.6,9573],[26.6,9656],[26.6,9740],[26.6,9823],[26.6,9907],[26.6,9989],[26.6,10073],[26.6,10156],[26.6,10240],[26.6,10322],[26.6,10407],[26.6,10489],[26.6,10572],[26.6,10655],[26.6,10738],[26.6,10827],[26.6,10907],[26.6,10990],[26.6,11074],[26.6,11157],[26.6,11241],[26.6,11326],[26.6,11409],[26.6,11492],[26.6,11577],[26.6,11661],[26.6,11744],[26.6,11827],[26.6,11912],[26.6,11996],[26.6,12080],[26.6,12165],[26.6,12247],[31.1,12347],[35.2,12433],[40.2,12515],[44.6,12600],[45.9,12683],[46.9,12767],[46.9,12849],[46.9,12933],[46.9,13017],[46.9,13101],[46.9,13184],[46.9,13269],[46.9,13351],[46.9,13436],[46.9,13518],[46.9,13602],[46.9,13686],[46.9,13769],[46.9,13853],[46.9,13938],[46.9,14020],[46.9,14103],[46.9,14188],[46.9,14271],[46.9,14353],[46.9,14437],[46.9,14521],[46.9,14605],[46.9,14688],[46.9,14771],[46.9,14856],[46.9,14940],[46.9,15023],[46.9,15105],[46.9,15188],[46.9,15272],[46.9,15355],[46.9,15438],[46.9,15522],[46.9,15606],[46.9,15689],[46.9,15767],[46.9,15850],[46.9,15934],[46.9,16018],[46.9,16100],[46.9,16183],[46.9,16267],[46.9,16350],[46.9,16433],[46.9,16517],[46.9,16601],[46.9,16683],[46.9,16766],[46.9,16849],[46.9,16933],[46.9,17017],[46.9,17099],[46.9,17182],[46.9,17266],[46.9,17349],[46.9,17432],[46.9,17515],[46.9,17598],[46.9,17682],[46.9,17765],[46.9,17848],[46.9,17932],[46.9,18015],[46.9,18098],[46.9,18182],[46.9,18264],[46.9,18348],[46.9,18431],[46.9,18514],[46.9,18599],[46.9,18681],[46.9,18764],[46.9,18847],[46.9,18930],[46.9,19014],[46.9,19097],[46.9,19180],[46.9,19264],[46.9,19347],[46.9,19430],[46.9,19514],[46.9,19596],[46.9,19679],[46.9,19762],[46.9,19846],[46.9,19929],[46.9,20013],[46.9,20097],[46.9,20180],[46.9,20264],[46.9,20346],[46.9,20429],[46.9,20512],[46.9,20595],[46.9,20678],[46.9,20762],[46.9,20846],[46.9,20928],[46.9,21012]]",1,0,632.7075,635.8034,46.63250366,2.7912,"[{""rating"":46.63250366032211,""responseTime"":2.791200000047752}]",space,2.5492,,635.8035,Half the time,50,635.8105,,,[],,0,7,7,7,1,audio/Narrative7Situation7.wav,audio/Narrative8Situation7.wav,audio/Narrative5Situation7.wav,audio/Narrative6Situation7.wav,5,3,4,5,1.7616,,,,,,,,,,,,,,,,,,,,,,,,,,,,,,,,,,,,,,
,,,,,,5f42eec40c24ac531d4ca24a,2024-05-13_11h33.36.364,group3.1-3.2-social-tom,2023.2.2,Win32,59.88023952,65c5074098b851296ff0b7ed,66423293130c38434d535ee1,,,,,,,,,,,,,,,,,,,,,,,,,,,,,635.8108,2,audio/Narrative5Situation8.wav,637.9018,space,637.9019,646.7259,"[[46.5,4095],[39,4179],[31.1,4264],[28,4345],[26.3,4429],[25.1,4511],[25.1,4594],[25.1,4677],[25.1,4761],[25.1,4844],[25.1,4927],[25.1,5011],[25.1,5094],[25.1,5177],[25.1,5261],[25.1,5344],[25.1,5427],[25.1,5512],[25.1,5593],[25.1,5676],[25.1,5759],[25.1,5843],[25.1,5927],[25.1,6009],[25.1,6093],[25.1,6176],[25.1,6259],[25.1,6342],[25.1,6427],[25.1,6509],[25.1,6592],[25.1,6676],[25.1,6758],[25.1,6843],[25.1,6926],[25.1,7008],[25.1,7092],[25.1,7175],[25.1,7259],[25.1,7341],[25.1,7424],[25.1,7508],[25.1,7592],[25.1,7674],[25.1,7758],[25.1,7841],[25.1,7924],[25.1,8007],[25.1,8092],[25.1,8175],[25.1,8258],[25.1,8340],[25.1,8423],[25.1,8507],[25.1,8590],[25.1,8674],[25.1,8757]]",1,0,646.7262,647.858,25.10980966,0.8803,"[{""rating"":25.109809663250367,""responseTime"":0.8803000000715429}]",space,0.5857,,647.8583,All the time,100,647.8647,,,[],,0,8,8,8,1,audio/Narrative7Situation8.wav,audio/Narrative8Situation8.wav,audio/Narrative5Situation8.wav,audio/Narrative6Situation8.wav,2,3,3,5,2.0759,,,,,,,,,,,,,,,,,,,,,,,,,,,,,,,,,,,,,,
,,,,,,5f42eec40c24ac531d4ca24a,2024-05-13_11h33.36.364,group3.1-3.2-social-tom,2023.2.2,Win32,59.88023952,65c5074098b851296ff0b7ed,66423293130c38434d535ee1,,,,,,,,,,,,,,,,,,,,,,,,,,,,,647.8651,2,audio/Narrative5Situation9.wav,648.6743,space,648.6747,688.2184,"[[25,1831],[24.2,1914],[24.1,1998],[4.3,6671],[13,6743],[24.4,6827],[32.3,6909],[37.7,6994],[41.7,7076],[43.9,7159],[46,7241],[47.2,7324],[47.2,7408],[47.2,7492],[47.2,7576],[47.2,7659],[47.2,7743],[47.2,7827],[47.2,7911],[47.2,7995],[47.2,8078],[47.2,8163],[47.2,8246],[47.2,8330],[47.2,8413],[47.2,8498],[47.2,8581],[47.2,8665],[47.2,8749],[47.2,8833],[50.1,8916],[53.5,9000],[56.1,9085],[56.4,9167],[56.4,9251],[56.4,9335],[56.4,9418],[56.4,9502],[56.4,9586],[56.4,9670],[56.4,9753],[56.4,9837],[56.4,9920],[56.4,10004],[56.4,10087],[56.4,10172],[56.4,10255],[56.4,10338],[56.4,10423],[56.4,10505],[56.4,10589],[57,10673],[59.1,10756],[60.4,10840],[60.5,10924],[61.6,11007],[62,11091],[62,11174],[62,11258],[62,11340],[62,11424],[62,11508],[62,11591],[62,11675],[62,11758],[62,11842],[62,11925],[62,12008],[62,12092],[62,12174],[62,12258],[62,12341],[62,12425],[62,12508],[62,12587],[62,12670],[62,12752],[62,12836],[62,12919],[62,13003],[62,13086],[62,13170],[62,13252],[62,13336],[62,13419],[62,13502],[62,13585],[62,13668],[62,13752],[62,13835],[62,13918],[62,14001],[62,14084],[62,14169],[62,14251],[62,14335],[62,14418],[62,14502],[62,14584],[62,14668],[62,14751],[62,14833],[62,14917],[62,15001],[62,15086],[62,15167],[62,15251],[62,15334],[62,15417],[62,15500],[62,15584],[62,15666],[62,15751],[62,15833],[62,15915],[62,15999],[62,16083],[62,16165],[62,16248],[62,16333],[62,16416],[62,16499],[62,16582],[62,16666],[62,16748],[62,16832],[62,16915],[62,16998],[62,17082],[62,17165],[64.5,17259],[67.4,17332],[69.9,17416],[71.1,17499],[72.7,17582],[75.2,17665],[75.5,17748],[75.5,17831],[75.9,17915],[76.2,17998],[76.2,18081],[76.2,18165],[76.2,18247],[76.2,18330],[76.2,18413],[76.2,18497],[76.2,18580],[76.2,18663],[76.2,18746],[76.2,18829],[76.2,18913],[76.2,18996],[76.2,19080],[76.2,19164],[76.2,19246],[76.2,19329],[76.2,19413],[76.2,19496],[76.2,19580],[76.2,19662],[76.2,19745],[76.2,19829],[76.2,19912],[76.2,19996],[76.2,20078],[76.2,20161],[76.2,20245],[76.2,20328],[76.2,20411],[76.2,20495],[76.2,20578],[76.2,20662],[76.2,20745],[76.2,20828],[76.2,20911],[76.2,20995],[76.2,21078],[76.2,21161],[76.2,21244],[76.2,21327],[76.2,21411],[76.2,21494],[76.2,21577],[76.2,21661],[76.2,21743],[76.2,21827],[76.2,21910],[76.2,21993],[76.2,22077],[76.2,22160],[76.2,22243],[76.2,22326],[76.2,22409],[76.2,22493],[76.2,22577],[76.2,22659],[76.2,22742],[76.2,22826],[76.2,22909],[76.2,22992],[76.2,23076],[76.2,23159],[76.2,23242],[76.2,23325],[76.2,23408],[76.2,23492],[76.2,23576],[76.2,23658],[76.2,23741],[76.2,23825],[76.2,23908],[76.2,23991],[76.2,24075],[76.2,24157],[76.2,24241],[76.2,24326],[76.2,24410],[76.2,24493],[76.2,24576],[76.2,24660],[76.2,24743],[76.2,24830],[78.1,24914],[79,24994],[80.3,25078],[81.8,25163],[82.8,25246],[83.7,25333],[85.1,25414],[86.2,25497],[86.7,25581],[86.9,25667],[86.9,25750],[86.9,25833],[86.9,25916],[86.9,26000],[86.9,26084],[86.9,26170],[86.9,26251],[86.9,26336],[86.9,26418],[86.9,26502],[86.9,26586],[86.9,26671],[86.9,26754],[86.9,26837],[86.9,26920],[86.9,27006],[86.9,27087],[86.9,27171],[86.9,27255],[86.9,27338],[86.9,27422],[86.9,27507],[86.9,27591],[86.9,27672],[86.9,27756],[86.9,27839],[86.9,27923],[86.9,28008],[86.9,28090],[86.9,28173],[86.9,28256],[86.9,28341],[86.9,28424],[86.9,28508],[86.9,28590],[86.9,28674],[86.9,28757],[86.9,28842],[86.9,28925],[86.9,29007],[86.9,29092],[86.9,29174],[86.9,29257],[86.9,29336],[86.9,29420],[86.9,29502],[86.9,29586],[86.9,29671],[86.9,29753],[86.9,29837],[86.9,29920],[86.9,30003],[86.9,30086],[86.9,30169],[86.9,30252],[86.9,30335],[86.9,30419],[86.9,30502],[86.9,30585],[86.9,30668],[86.9,30751],[86.9,30835],[86.9,30919],[86.9,31002],[86.9,31086],[86.9,31168],[86.9,31251],[86.9,31335],[86.9,31417],[86.9,31501],[86.9,31583],[86.9,31666],[86.9,31751],[86.9,31833],[86.9,31917],[86.9,32000],[86.9,32083],[86.9,32168],[86.9,32250],[86.9,32333],[86.9,32416],[86.9,32499],[86.9,32583],[86.9,32667],[86.9,32749],[86.9,32833],[86.9,32916],[86.9,32999],[86.9,33082],[86.9,33166],[86.9,33248],[86.9,33332],[86.9,33416],[86.9,33500],[86.9,33582],[86.9,33665],[86.9,33748],[86.9,33832],[86.9,33914],[86.9,33998],[86.9,34082],[86.9,34165],[86.9,34248],[86.9,34335],[86.9,34414],[86.9,34498],[86.9,34581],[86.9,34664],[86.9,34747],[86.9,34831],[86.9,34914],[86.9,35000],[86.9,35103],[86.9,35218],[86.9,35339],[86.9,35468],[86.9,35648],[86.9,35760],[86.9,35867],[86.9,35969],[86.9,36070],[86.9,36165],[86.9,36264],[86.9,36364],[86.9,36463],[86.9,36558],[86.9,36655],[86.9,36750],[86.9,36842],[86.9,36931],[86.9,37026],[86.9,37114],[86.9,37209],[86.9,37298],[86.9,37387],[86.9,37481],[86.9,37578],[86.9,37667],[86.9,37754],[86.9,37835],[86.9,37917],[86.9,37994],[86.9,38077],[86.9,38161],[86.9,38245],[86.9,38327],[86.9,38411],[86.9,38494],[86.9,38577],[86.9,38659],[86.9,38743],[86.9,38827],[86.9,38910],[86.9,38993],[86.9,39076],[86.9,39160],[86.9,39243],[86.9,39326],[86.9,39409],[86.9,39494]]",1,0,688.2193,689.5497,86.89604685,0.9055,"[{""rating"":86.89604685212299,""responseTime"":0.9054999999999609}]",space,0.7851,,689.5499,All the time,100,689.5544,,,[],,0,9,9,9,1,audio/Narrative7Situation9.wav,audio/Narrative8Situation9.wav,audio/Narrative5Situation9.wav,audio/Narrative6Situation9.wav,2,3,3,4,0.7939,,,,,,,,,,,,,,,,,,,,,,,,,,,,,,,,,,,,,,
,,,,,,5f42eec40c24ac531d4ca24a,2024-05-13_11h33.36.364,group3.1-3.2-social-tom,2023.2.2,Win32,59.88023952,65c5074098b851296ff0b7ed,66423293130c38434d535ee1,,,,,,,,,,,,,,,,,,,,,,,,,,,,,689.5547,2,audio/Narrative6Situation1.wav,691.5621,,691.5622,718.1386,"[[999,0],[999,82],[999,166],[999,249],[999,332],[999,416],[999,501],[999,585],[999,668],[999,751],[999,836],[8.1,920],[7.4,1001],[7.4,1084],[7.4,1168],[7.4,1251],[5.1,1336],[2.3,13423],[3.3,13505],[3.9,13588],[3.9,13672],[3.9,13754],[3.9,13837],[3.9,13921],[3.9,14005],[3.9,14087],[3.9,14171],[3.9,14254],[3.9,14337],[3.9,14421],[3.9,14504],[3.9,14587],[3.9,14670],[3.9,14754],[3.9,14836],[3.9,14920],[3.9,15003],[3.9,15087],[3.9,15172],[3.9,15254],[3.9,15340],[3.9,15422],[3.9,15505],[3.9,15589],[3.9,15673],[3.9,15757],[3.9,15841],[3.9,15925],[3.9,16012],[3.9,16092],[3.9,16176],[3.9,16260],[3.9,16343],[3.9,16427],[3.9,16514],[3.9,16594],[3.9,16681],[3.9,16763],[3.9,16846],[3.9,16929],[3.9,17015],[3.9,17097],[3.9,17181],[3.9,17264],[3.9,17351],[3.9,17432],[3.9,17516],[3.9,17600],[3.9,17683],[3.9,17766],[3.9,17853],[3.9,17934],[3.9,18020],[3.4,18136],[3.4,18201],[3.4,18283],[3.4,18368],[3.4,18450],[3.4,18533],[3.4,18616],[3.4,18701],[3.4,18783],[3.4,18867],[3.4,18949],[3.4,19033],[3.4,19117],[3.4,19201],[3.4,19282],[3.4,19367],[3.4,19449],[3.4,19532],[3.7,19616],[3.7,19700],[3.7,19782],[3.7,19866],[3.7,19948],[3.7,20032],[3.7,20115],[3.7,20198],[3.7,20282],[3.7,20365],[3.7,20447],[3.7,20532],[3.7,20614],[3.7,20699],[3.7,20781],[3.7,20865],[3.7,20948],[3.7,21032],[3.7,21115],[3.7,21197],[3.7,21281],[3.7,21365],[3.7,21447],[3.7,21530],[3.7,21613],[3.7,21696],[3.7,21780],[3.7,21863],[3.7,21946],[3.7,22031],[3.7,22115],[3.7,22197],[3.7,22279],[3.7,22363],[3.7,22447],[3.7,22529],[3.7,22613],[3.7,22696],[3.7,22779],[3.7,22862],[3.7,22945],[3.7,23028],[3.7,23112],[3.7,23195],[3.7,23279],[3.7,23362],[3.7,23445],[3.7,23528],[3.7,23612],[3.7,23695],[3.7,23778],[3.7,23862],[3.7,23944],[3.7,24028],[3.7,24111],[3.7,24195],[3.7,24278],[3.7,24362],[3.7,24444],[3.7,24528],[3.7,24610],[3.7,24694],[3.7,24777],[3.7,24860],[3.7,24943],[3.7,25027],[3.7,25111],[3.7,25194],[3.7,25276],[3.7,25360],[3.7,25442],[3.7,25527],[3.7,25610],[3.7,25692],[3.7,25776],[3.7,25859],[3.7,25943],[3.7,26026],[3.7,26109],[3.7,26192],[3.7,26276],[3.7,26359],[3.7,26442],[3.7,26526]]",1,0,718.1391,719.021,3.733528551,0.5924,"[{""rating"":3.733528550512444,""responseTime"":0.5923999999761236}]",space,0.3343,,719.0213,All the time,100,719.0258,,,[],,0,10,10,10,1,audio/Narrative8Situation1.wav,audio/Narrative7Situation1.wav,audio/Narrative6Situation1.wav,audio/Narrative5Situation1.wav,5,2,2,5,,,,,,,,,,,,,,,,,,,,,,,,,,,,,,,,,,,,,,,
,,,,,,5f42eec40c24ac531d4ca24a,2024-05-13_11h33.36.364,group3.1-3.2-social-tom,2023.2.2,Win32,59.88023952,65c5074098b851296ff0b7ed,66423293130c38434d535ee1,,,,,,,,,,,,,,,,,,,,,,,,,,,,,719.0265,2,audio/Narrative6Situation2.wav,720.6853,space,720.6856,749.1905,"[[2,834]]",1,0,749.1907,750.4067,0.219619327,0.8938,"[{""rating"":0.21961932650073068,""responseTime"":0.8938000000715647}]",space,0.6666,,750.407,Half the time,50,750.4142,,,[],,0,11,11,11,1,audio/Narrative8Situation2.wav,audio/Narrative7Situation2.wav,audio/Narrative6Situation2.wav,audio/Narrative5Situation2.wav,3,3,3,3,1.6434,,,,,,,,,,,,,,,,,,,,,,,,,,,,,,,,,,,,,,
,,,,,,5f42eec40c24ac531d4ca24a,2024-05-13_11h33.36.364,group3.1-3.2-social-tom,2023.2.2,Win32,59.88023952,65c5074098b851296ff0b7ed,66423293130c38434d535ee1,,,,,,,,,,,,,,,,,,,,,,,,,,,,,750.4147,2,audio/Narrative6Situation3.wav,752.272,space,752.2721,764.892,"[[999,0],[999,81],[999,165],[999,248],[999,331],[999,414],[999,497],[999,581],[999,666],[999,749],[1.5,831],[1.5,914],[1.1,998],[0.4,1081],[0.4,1164],[0.4,1248],[0.4,1330],[0.4,1413],[0.4,1496],[0.4,1582],[0.4,1662],[0.4,1746],[0.4,1829],[0.4,1913],[0.4,1996],[0.4,2079],[0.2,2163],[0.2,2246],[0.2,2329],[0.2,2412],[0.2,2495],[0.2,2578],[0.2,2662],[0.2,2745],[0.2,2829],[0.2,2911],[0.2,2995],[0.2,3078],[0.2,3162],[0.2,3246],[0.2,3328],[0.2,3411],[0.2,3494],[0.2,3577],[0.2,3662],[0.2,3745],[0.2,3827],[0.2,3911],[0.2,3994],[0.2,4077],[0.2,4162],[0.2,4243],[0.2,4327],[0.2,4410],[0.2,4493],[0.2,4576],[0.2,4660],[0.2,4743],[0.2,4827],[0.2,4910],[0.2,4996],[0.2,5079],[0.2,5162],[0.2,5247],[0.2,5331],[0.2,5414],[0.2,5498],[0.2,5582],[0.2,5665],[0.2,5749],[0.2,5833],[0.2,5917],[0.2,6001],[0.2,6084],[0.2,6168],[0.2,6251],[0.2,6335],[0.2,6418],[0.2,6503],[0.2,6586],[0.2,6670],[0.2,6754],[0.2,6839],[0.2,6922],[0.2,7005],[0.2,7088],[0.2,7173],[0.2,7257],[1.5,11687],[8.4,11772],[13,11853],[15.7,11937],[17.1,12019],[20.9,12104],[21.2,12186],[21.2,12269],[21.2,12353],[21.2,12436],[21.2,12519],[21.2,12602]]",1,0,764.8922,765.9073,21.15666179,0.5925,"[{""rating"":21.15666178623719,""responseTime"":0.5924999999999727}]",space,0.4685,,765.9074,All the time,100,765.9133,,,[],,0,12,12,12,1,audio/Narrative8Situation3.wav,audio/Narrative7Situation3.wav,audio/Narrative6Situation3.wav,audio/Narrative5Situation3.wav,4,8,5,3,1.8457,,,,,,,,,,,,,,,,,,,,,,,,,,,,,,,,,,,,,,
,,,,,,5f42eec40c24ac531d4ca24a,2024-05-13_11h33.36.364,group3.1-3.2-social-tom,2023.2.2,Win32,59.88023952,65c5074098b851296ff0b7ed,66423293130c38434d535ee1,,,,,,,,,,,,,,,,,,,,,,,,,,,,,765.9137,2,audio/Narrative6Situation4.wav,767.6391,space,767.6393,780.26,"[[9,916],[3.1,999],[1.1,1082],[9,7602],[15.3,7685],[20.9,7769],[24.8,7855],[27.6,7935],[28.2,8020],[31.3,8104],[32.9,8188],[36.5,8270],[36.8,8353],[36.8,8437],[36.8,8522],[36.8,8605],[36.8,8689],[36.8,8772],[36.8,8856],[36.8,8941],[36.8,9023],[36.8,9106],[36.8,9190],[36.8,9274],[36.8,9358],[36.8,9439],[36.8,9523],[36.8,9606],[36.8,9689],[36.8,9773],[36.8,9856],[36.8,9939],[36.8,10023],[36.8,10105],[36.8,10189],[36.8,10273],[36.8,10355],[36.8,10439],[36.8,10522],[36.8,10605],[36.8,10688],[36.8,10772],[36.8,10855],[36.8,10938],[36.8,11021],[36.8,11105],[36.8,11187],[36.8,11272],[36.8,11354],[36.8,11438],[36.8,11521],[36.8,11606],[36.8,11687],[36.8,11771],[36.8,11854],[36.8,11938],[36.8,12020],[36.8,12104],[36.8,12187],[36.8,12271],[36.8,12353],[36.8,12436],[36.8,12520],[36.8,12603]]",1,0,780.2605,781.3085,36.82284041,0.7594,"[{""rating"":36.82284040995608,""responseTime"":0.7594000000952974}]",space,0.5016,,781.3087,Not at all,0,781.3164,,,[],,0,13,13,13,1,audio/Narrative8Situation4.wav,audio/Narrative7Situation4.wav,audio/Narrative6Situation4.wav,audio/Narrative5Situation4.wav,3,3,2,1,1.7133,,,,,,,,,,,,,,,,,,,,,,,,,,,,,,,,,,,,,,
,,,,,,5f42eec40c24ac531d4ca24a,2024-05-13_11h33.36.364,group3.1-3.2-social-tom,2023.2.2,Win32,59.88023952,65c5074098b851296ff0b7ed,66423293130c38434d535ee1,,,,,,,,,,,,,,,,,,,,,,,,,,,,,781.3168,2,audio/Narrative6Situation5.wav,782.8073,space,782.8078,790.7668,"[[35.2,665],[15.2,748],[4,832],[1,922]]",1,0,790.7671,794.7951,0.073206442,3.6876,"[{""rating"":0.07320644216691208,""responseTime"":3.687600000023849}]",space,3.4933,,794.7951,All the time,100,794.8017,,,[],,0,14,14,14,1,audio/Narrative8Situation5.wav,audio/Narrative7Situation5.wav,audio/Narrative6Situation5.wav,audio/Narrative5Situation5.wav,2,5,2,5,1.4731,,,,,,,,,,,,,,,,,,,,,,,,,,,,,,,,,,,,,,
,,,,,,5f42eec40c24ac531d4ca24a,2024-05-13_11h33.36.364,group3.1-3.2-social-tom,2023.2.2,Win32,59.88023952,65c5074098b851296ff0b7ed,66423293130c38434d535ee1,,,,,,,,,,,,,,,,,,,,,,,,,,,,,794.802,2,audio/Narrative6Situation6.wav,796.3108,space,796.3109,807.3998,"[[999,0],[999,83],[999,165],[999,248],[999,332],[999,415],[999,499],[999,581],[999,665],[999,750],[999,832],[999,915],[999,998],[999,1082],[7.4,6093],[13.5,6177],[18.5,6260],[20.7,6344],[22.9,6426],[25.7,6510],[26.3,6592],[26.3,6676],[26.3,6759],[26.3,6842],[26.3,6925],[26.3,7009],[26.3,7091],[26.3,7176],[26.3,7258],[26.3,7341],[26.3,7425],[26.3,7508],[26.3,7591],[26.3,7674],[26.3,7757],[26.3,7841],[26.3,7924],[26.3,8008],[26.3,8091],[26.3,8173],[26.3,8258],[26.3,8340],[26.3,8424],[26.3,8507],[26.3,8591],[26.3,8673],[26.3,8756],[26.3,8840],[26.3,8924],[26.3,9006],[26.3,9090],[26.3,9173],[26.3,9256],[26.3,9340],[26.3,9422],[26.3,9505],[26.3,9590],[26.3,9673],[26.3,9756],[26.3,9838],[26.3,9923],[26.3,10006],[26.3,10089],[26.3,10173],[26.3,10255],[26.3,10338],[37,10442],[43,10522],[45,10605],[45.5,10688],[45.5,10772],[48.1,10856],[49,10938],[49,11021]]",1,0,807.4002,808.8249,49.26793558,0.8677,"[{""rating"":49.26793557833089,""responseTime"":0.8677000000476482}]",space,0.8922,,808.8251,All the time,100,808.8296,,,[],,0,15,15,15,1,audio/Narrative8Situation6.wav,audio/Narrative7Situation6.wav,audio/Narrative6Situation6.wav,audio/Narrative5Situation6.wav,2,3,2,3,1.4928,,,,,,,,,,,,,,,,,,,,,,,,,,,,,,,,,,,,,,
,,,,,,5f42eec40c24ac531d4ca24a,2024-05-13_11h33.36.364,group3.1-3.2-social-tom,2023.2.2,Win32,59.88023952,65c5074098b851296ff0b7ed,66423293130c38434d535ee1,,,,,,,,,,,,,,,,,,,,,,,,,,,,,808.8306,2,audio/Narrative6Situation7.wav,812.0278,space,812.028,836.8696,"[[48.8,2598],[44.7,2683],[39.8,2767],[36.1,2847],[33.9,2932],[31.6,3014],[28.8,3098],[26.6,3181],[26.1,3263],[26.1,3346],[26.1,3430],[26.1,3514],[26.1,3596],[26.1,3679],[26.1,3763],[26.1,3846],[26.1,3929],[26.1,4011],[26.1,4095],[26.1,4179],[26.1,4262],[26.1,4345],[26.1,4428],[26.1,4511],[26.1,4594],[26.1,4678],[26.1,4761],[26.1,4844],[26.1,4927],[26.1,5011],[26.1,5094],[26.1,5177],[26.1,5261],[26.1,5345],[26.1,5427],[26.1,5510],[26.1,5594],[26.1,5677],[26.1,5760],[26.1,5844],[26.1,5927],[26.1,6010],[26.1,6093],[26.1,6176],[26.1,6260],[26.1,6343],[26.1,6426],[26.1,6510],[26.1,6594],[26.1,6676],[26.1,6759],[26.1,6843],[26.1,6925],[26.1,7008],[26.1,7092],[26.1,7175],[26.1,7259],[26.1,7342],[26.1,7425],[26.1,7509],[26.1,7592],[26.1,7675],[26.1,7759],[26.1,7841],[26.1,7925],[26.1,8008],[26.1,8091],[26.1,8174],[26.1,8258],[27.9,8358],[29.2,8442],[30.8,8525],[31.7,8607],[31.7,8691],[31.7,8775],[31.7,8857],[37.8,8942],[43.6,9025],[46.6,9109],[49.9,9191],[49.9,9273],[49.9,9357],[49.9,9440],[49.9,9523],[49.9,9607],[49.9,9691],[49.9,9773],[49.9,9856],[49.9,9940],[49.9,10023],[49.9,10106],[49.9,10189],[49.9,10278],[49.9,10373],[49.9,10483],[49.9,10603],[49.9,10723],[49.9,10834],[49.9,10944],[49.9,11050],[49.9,11159],[49.9,11266],[49.9,11366],[49.9,11473],[49.9,11574],[49.9,11671],[49.9,11769],[49.9,11872],[49.9,11973],[49.9,12069],[49.9,12160],[49.9,12263],[49.9,12361],[49.9,12464],[49.9,12559],[49.9,12657],[49.9,12756],[49.9,12858],[49.9,12955],[49.9,13055],[49.9,13148],[49.9,13248],[49.9,13354],[49.9,13457],[49.9,13557],[49.9,13665],[49.9,13766],[49.9,13865],[49.9,13967],[49.9,14064],[49.9,14163],[49.9,14263],[49.9,14366],[49.9,14469],[49.9,14572],[49.9,14672],[49.9,14771],[49.9,14865],[49.9,14967],[49.9,15065],[49.9,15158],[49.9,15257],[49.9,15355],[49.9,15452],[49.9,15555],[49.9,15652],[49.9,15750],[49.9,15851],[49.9,15946],[49.9,16043],[49.9,16141],[49.9,16241],[49.9,16339],[49.9,16435],[49.9,16538],[49.9,16634],[49.9,16734],[49.9,16840],[49.9,16937],[49.9,17030],[49.9,17138],[49.9,17249],[49.9,17350],[49.9,17459],[53.1,17563],[68.4,17731],[71.4,17845],[72.8,17955],[72.8,18052],[72.8,18144],[72.8,18245],[73.1,18353],[73.1,18454],[73.1,18552],[73.1,18654],[73.1,18755],[73.1,18843],[73.1,18919],[73.1,19003],[73.1,19083],[73.1,19163],[73.1,19247],[73.1,19330],[73.1,19414],[73.1,19497],[73.1,19580],[73.1,19664],[73.1,19747],[73.1,19830],[73.1,19913],[73.1,19997],[73.1,20080],[73.1,20162],[73.1,20247],[73.1,20330],[73.1,20412],[73.1,20495],[73.1,20579],[73.1,20662],[73.1,20746],[73.1,20829],[73.1,20912],[73.1,20995],[73.1,21079],[73.1,21162],[73.1,21245],[73.1,21328],[73.1,21412],[73.1,21494],[73.1,21577],[73.1,21661],[73.1,21744],[73.1,21828],[73.1,21911],[73.1,21994],[73.1,22078],[73.1,22161],[73.1,22244],[73.1,22327],[73.1,22410],[73.1,22494],[73.1,22577],[73.1,22660],[73.1,22744],[73.1,22826],[73.1,22910],[73.1,22993],[73.1,23077],[73.1,23160],[73.1,23243],[73.1,23326],[73.1,23409],[73.1,23493],[73.1,23576],[73.1,23659],[73.1,23743],[73.1,23825],[73.1,23909],[73.1,23992],[73.1,24076],[73.1,24158],[73.1,24242],[73.1,24325],[73.1,24408],[73.1,24491],[73.1,24574],[73.1,24658],[73.1,24742],[73.1,24825]]",1,0,836.8701,838.5517,73.13323572,0.9583,"[{""rating"":73.13323572474377,""responseTime"":0.9583000000715174}]",space,1.1327,,838.552,All the time,100,838.5564,,,[],,0,16,16,16,1,audio/Narrative8Situation7.wav,audio/Narrative7Situation7.wav,audio/Narrative6Situation7.wav,audio/Narrative5Situation7.wav,3,5,5,4,3.1823,,,,,,,,,,,,,,,,,,,,,,,,,,,,,,,,,,,,,,
,,,,,,5f42eec40c24ac531d4ca24a,2024-05-13_11h33.36.364,group3.1-3.2-social-tom,2023.2.2,Win32,59.88023952,65c5074098b851296ff0b7ed,66423293130c38434d535ee1,,,,,,,,,,,,,,,,,,,,,,,,,,,,,838.5568,2,audio/Narrative6Situation8.wav,840.8654,space,840.8655,847.7105,"[[68.4,2430],[59.1,2512],[55,2596],[53.4,2678],[52.5,2762],[51.9,2845],[51.5,2935],[51.3,3032],[51.3,3115],[51.3,3197],[51.3,3282],[51.3,3364],[51.3,3447],[51.3,3529],[51.3,3613],[51.3,3696],[51.3,3779],[51.3,3863],[51.3,3947],[51.3,4029],[51.3,4114],[51.3,4196],[51.3,4280],[51.3,4362],[50,4446],[49.1,4531],[49.1,4613],[49.1,4695],[49.1,4778],[49.1,4863],[49.1,4946],[49.1,5028],[49.1,5112],[49.1,5195],[49.1,5279],[49.1,5362],[49.1,5445],[49.1,5528],[49.1,5612],[49.1,5694],[49.1,5778],[49.1,5861],[49.1,5944],[49.1,6027],[49.1,6110],[49.1,6195],[49.1,6277],[49.1,6360],[49.1,6443],[49.1,6527],[49.1,6611],[49.1,6694],[49.1,6777]]",1,0,847.7108,851.5057,50.43923865,0.9427,"[{""rating"":50.43923865300146,""responseTime"":0.9426999999284362}]",space,3.2483,,851.5058,All the time,100,851.5114,,,[],,0,17,17,17,1,audio/Narrative8Situation8.wav,audio/Narrative7Situation8.wav,audio/Narrative6Situation8.wav,audio/Narrative5Situation8.wav,3,2,5,3,2.299,,,,,,,,,,,,,,,,,,,,,,,,,,,,,,,,,,,,,,
,,,,,,5f42eec40c24ac531d4ca24a,2024-05-13_11h33.36.364,group3.1-3.2-social-tom,2023.2.2,Win32,59.88023952,65c5074098b851296ff0b7ed,66423293130c38434d535ee1,,,,,,,,,,,,,,,,,,,,,,,,,,,,,851.512,2,audio/Narrative6Situation9.wav,852.855,space,852.8553,862.8042,"[[50.3,1828],[49.6,1948],[49.1,2061],[49.1,2160],[49.1,2261],[49.1,2370],[49.1,2480],[49.1,2586],[49.6,2699],[50.1,2809],[50.1,2910],[50.1,3013],[50,3112],[50,3214],[49.9,3308],[49.6,3402],[49.3,3491],[49.3,3576],[49.1,3658],[49.1,3736],[49.1,3825],[49.1,3911],[49.1,3994],[49.1,4078],[49.1,4164],[49.1,4245],[49.1,4328],[49.1,4410],[49.1,4495],[49.1,4577],[49.1,4660],[49.1,4744],[49.1,4827],[49.1,4913],[49.1,4993],[49.1,5076],[49.1,5160],[49.1,5245],[49.1,5328],[49.1,5413],[49.1,5499],[49.1,5589],[49.1,5678],[49.1,5759],[51.9,5852],[63.2,5960],[71.5,6069],[75.5,6182],[76.6,6289],[76.6,6386],[76.6,6483],[76.6,6577],[76.6,6675],[76.6,6775],[76.6,6878],[76.6,6974],[76.6,7081],[76.6,7185],[76.6,7287],[76.6,7387],[76.6,7483],[76.6,7577],[76.6,7675],[76.6,7776],[76.6,7861],[76.6,7946],[76.6,8041],[76.6,8124],[76.6,8208],[76.6,8292],[76.9,8381],[76.9,8468],[76.9,8558],[76.9,8644],[76.9,8736],[76.9,8825],[76.9,8915],[76.9,9002],[76.9,9086],[76.9,9161],[76.9,9242],[76.9,9323],[76.9,9405],[76.9,9490],[76.9,9579],[76.9,9661],[76.9,9741],[76.9,9827],[76.9,9914]]",1,0,862.8046,864.4275,76.93997072,0.6465,"[{""rating"":76.93997071742314,""responseTime"":0.6464999999999463}]",space,1.0738,,864.4281,Not at all,0,869.7037,0.219619327,4.7856,"[{""rating"":0.21961932650073068,""responseTime"":4.7856000000238055}]",space,0,18,18,18,1,audio/Narrative8Situation9.wav,audio/Narrative7Situation9.wav,audio/Narrative6Situation9.wav,audio/Narrative5Situation9.wav,3,2,4,3,1.3303,,4.7307,,,,,,,,,,,,,,,,,,,,,,,,,,,,,,,,,,,,
,,,,,,5f42eec40c24ac531d4ca24a,2024-05-13_11h33.36.364,group3.1-3.2-social-tom,2023.2.2,Win32,59.88023952,65c5074098b851296ff0b7ed,66423293130c38434d535ee1,,,,,,,,,,,,,,,,,,,,,,,,,,,,,,,,,,,,,,,,,,,,,,,,,,,,,,,,,,,,,,,,,,,,,,,,869.7041,913.5604,space,43.3257,,913.5622,918.091,space,4.1967,,,,,,,,,,,,,,,,,,,,,,,,,,
,,,,,,5f42eec40c24ac531d4ca24a,2024-05-13_11h33.36.364,group3.1-3.2-social-tom,2023.2.2,Win32,59.88023952,65c5074098b851296ff0b7ed,66423293130c38434d535ee1,,,,,,,,,,,,,,,,,,,,,,,,,,,,,920.7086,1,audio/Narrative8Situation9.wav,922.1845,space,,,,,,954.1428,956.8845,3.587115666,2.1692,"[{""rating"":3.587115666178625,""responseTime"":2.169200000047681}]",space,2.1988,,954.1386,Not at all,0,954.1426,,,[],,,,,,,,,,,2,2,2,2,1.4661,,,,,,,,,,,,,,918.1072,920.6874,922.1852,3,954.1384,"[[999,1],[999,82],[999,166],[999,249],[999,332],[999,415],[999,498],[999,582],[999,666],[999,748],[999,831],[999,915],[999,998],[999,1082],[999,1165],[999,1248],[999,1331],[999,1414],[999,1498],[999,1581],[999,1664],[999,1747],[999,1831],[999,1915],[999,1997],[999,2081],[999,2165],[999,2248],[999,2331],[4.5,2414],[2.7,2498],[1.5,2581],[0.7,2664],[0.7,2747],[0.1,2831],[0.8,18265],[7.5,18349],[14.3,18431],[17.2,18514],[18.8,18597],[19.8,18682],[20.1,18765],[20.1,18847],[20.1,18930],[20.1,19014],[20.1,19097],[20.1,19180],[20.1,19263],[20.1,19347],[20.1,19431],[20.1,19513],[20.1,19596],[20.1,19680],[20.1,19763],[20.1,19847],[20.1,19930],[20.1,20014],[20.1,20097],[20.1,20181],[20.1,20265],[20.1,20350],[20.1,20432],[20.1,20517],[20.1,20601],[20.1,20684],[20.1,20768],[20.1,20852],[20.1,20936],[20.1,21019],[20.1,21104],[11.3,21188],[1.8,21271]]",0,0,0,0,1,"Larry had recently lost his family, job and home, and was now living on his own in the park. He had most of his belongings, including some clothes, a blanket, and his mother’s special necklace. His family had been very important to him and he felt as though he did not have much going for him. One of his first days in the park he came across a family that did not have much food and looked very cold. He decided to give them some of his food and his blanket.","Larry had recently lost his family, job and home, and was now living on his own in the park. He had most of his belongings, including some clothes, a blanket, and his mother’s special necklace. His family had been very important to him and he felt as though he did not have much going for him. One of his first days in the park he came across a family that did not have much food and looked very cold. He decided to give them some of his food and his blanket.","Larry had recently lost his family, job and home, and was now living on his own in the park. He had most of his belongings, including some clothes, a blanket, and his mother’s special necklace. His family had been very important to him and he felt as though he did not have much going for him. One of his first days in the park he came across a family that did not have much food and looked very cold. He decided to give them some of his food and his blanket.","Larry had recently lost his family, job and home, and was now living on his own in the park. He had most of his belongings, including some clothes, a blanket, and his mother’s special necklace. His family had been very important to him and he felt as though he did not have much going for him. One of his first days in the park he came across a family that did not have much food and looked very cold. He decided to give them some of his food and his blanket.",,,,,,,,,,
,,,,,,5f42eec40c24ac531d4ca24a,2024-05-13_11h33.36.364,group3.1-3.2-social-tom,2023.2.2,Win32,59.88023952,65c5074098b851296ff0b7ed,66423293130c38434d535ee1,,,,,,,,,,,,,,,,,,,,,,,,,,,,,956.8853,1,audio/Narrative8Situation9.wav,958.0993,space,,,,,,991.7319,996.2948,1.244509517,3.8583,"[{""rating"":1.2445095168374831,""responseTime"":3.858299999952351}]",space,4.0296,,991.7165,Not at all,0,991.7319,,,[],,,,,,,,,,,6,2,3,9,1.1956,,,,,,,,,,,,,,,,958.0993,3,991.716,"[[2.9,1587],[2.3,1670],[1.5,1756],[1.5,1838],[0.8,1922],[0.8,2005],[0.8,2089],[0.8,2173],[0.8,2257],[0.8,2341],[0.8,2425],[0.8,2508],[0.8,2592],[0.8,2678],[0.8,2759],[0.8,2843],[0.8,2927],[0.8,3010],[0.8,3094],[0.8,3177],[0.8,3261],[0.8,3345],[0.8,3429],[0.8,3512],[0.8,3595],[0.8,3678],[0.8,3763],[0.8,3846],[0.8,3930],[0.8,4015],[0.8,4098],[0.8,4180],[0.8,4265],[0.8,4347],[0.8,4431],[0.8,4514],[0.8,4598],[0.8,4681],[0.8,4764],[0.8,4848],[0.8,4932],[0.8,5015],[0.8,5098],[0.8,5182],[0.8,5266],[0.8,5350],[0.8,5432],[0.8,5515],[0.8,5599],[0.8,5683],[0.8,5765],[0.8,5850],[0.8,5932],[0.8,6010],[0.8,6094],[0.8,6177],[0.8,6259],[0.8,6343],[0.8,6426],[0.8,6509],[0.8,6594],[0.8,6676],[0.8,6760],[0.8,6843],[0.8,6926],[0.8,7009],[0.8,7093],[0.8,7176],[0.8,7259],[0.8,7342],[0.8,7425],[0.8,7509],[0.8,7591],[0.8,7676],[0.8,7759],[0.8,7842],[0.8,7924],[0.8,8009],[0.8,8091],[0.8,8175],[0.8,8257],[0.8,8341],[0.8,8425],[0.8,8508],[0.8,8591],[0.8,8674],[0.8,8758],[0.8,8841],[0.8,8925],[0.8,9007],[0.8,9090],[0.8,9173],[0.8,9257],[0.8,9341],[0.8,9423],[0.8,9507],[0.8,9590],[0.8,9673],[0.8,9756],[0.8,9840],[0.8,9924],[0.8,10007],[0.8,10103],[0.8,10174],[0.8,10256],[0.8,10339],[0.8,10422],[0.8,10506],[0.8,10589],[0.8,10673],[0.8,10755],[0.8,10839],[0.8,10922],[0.8,11005],[0.8,11088],[0.8,11172],[0.8,11255],[0.8,11338],[0.8,11421],[0.8,11504],[0.8,11588],[0.8,11671],[0.8,11755],[0.8,11837],[0.8,11921],[0.8,12004],[0.8,12088],[0.8,12170],[0.8,12254],[0.8,12337],[0.8,12420],[0.8,12504],[0.8,12586],[0.8,12670],[0.8,12753],[0.8,12836],[0.8,12920],[0.8,13003],[0.8,13086],[0.8,13169],[0.8,13253],[0.8,13336],[0.8,13419],[0.8,13502],[0.8,13586],[0.8,13669],[0.8,13753],[0.8,13836],[0.8,13919],[0.8,14002],[0.8,14085],[0.8,14169],[0.8,14252],[0.8,14335],[0.8,14418],[0.8,14502],[0.8,14585],[0.8,14668],[0.8,14751],[0.8,14834],[0.8,14918],[0.8,15001],[0.8,15084],[0.8,15168],[0.8,15251],[0.8,15334],[0.8,15418],[0.8,15500],[0.8,15584],[0.8,15667],[0.8,15750],[0.8,15833],[0.8,15917],[0.8,16000],[0.8,16084],[0.8,16166],[0.8,16250],[0.8,16333],[0.8,16417],[0.8,16500],[0.8,16582],[0.8,16666],[0.8,16749],[0.8,16833],[1,16916],[1,16999],[1,17082],[1,17166],[1,17249],[1,17332],[1,17416],[1,17499],[1,17582],[1,17665],[1,17750],[1,17833],[1,17917],[1,18001],[1,18085],[1,18168],[1,18252],[1,18336],[1,18420],[1,18507],[1,18588],[6.8,18674],[13.8,18756],[15.2,18842],[15.2,18923],[15.2,19006],[15.2,19090],[10.8,19174],[7.2,19259],[4.3,19341],[3,19427],[1.5,19509],[0.7,19594],[0.7,19676],[0.7,19760],[0.7,19845],[0.7,19927],[0.7,20013],[0.7,20097],[0.7,20180],[0.7,20262],[0.7,20345],[0.7,20429],[0.7,20512],[0.7,20596],[0.7,20679],[0.7,20763],[0.7,20846],[0.7,20930],[0.7,21014],[0.7,21097],[0.5,21184],[0.4,21267],[0.4,21349],[0.4,21431],[0.4,21511],[0.4,21595],[0.4,21678],[0.4,21761],[0.4,21844],[0.4,21927],[0.4,22011],[0.4,22094],[0.4,22178],[0.4,22260],[0.4,22344],[0.4,22427],[0.4,22512],[0.4,22594],[0.4,22678],[0.4,22761],[0.4,22844],[0.4,22927],[0.4,23009],[0.4,23094],[0.4,23176],[0.4,23259],[0.4,23344],[0.4,23426],[0.4,23509],[0.4,23593],[0.4,23677],[0.4,23759],[0.4,23842],[0.4,23926],[0.4,24010],[0.4,24092],[0.4,24176],[0.4,24258],[0.4,24341],[0.4,24425],[0.4,24510],[0.4,24591],[0.4,24677],[0.4,24759],[0.4,24841],[0.4,24925],[0.4,25008],[0.4,25092],[0.4,25177],[0.4,25258],[0.4,25361],[0.4,25444],[0.4,25526],[0.4,25611],[0.4,25709],[0.4,25824],[0.4,25930],[0.4,26042],[0.4,26143],[0.4,26245],[0.4,26340],[0.4,26424],[0.4,26506],[0.4,26591],[0.4,26673],[0.4,26756],[0.4,26839],[0.4,26922],[0.4,27006],[0.4,27089],[0.4,27172],[0.4,27256],[0.4,27339],[0.4,27422],[0.4,27506],[0.4,27588],[0.4,27671],[0.4,27755],[0.4,27838],[0.4,27921],[0.4,28005],[0.4,28088],[0.4,28171],[0.4,28254],[0.4,28337],[0.4,28421],[0.4,28505],[0.4,28587],[0.4,28671],[0.4,28754],[0.4,28837],[0.4,28920],[0.4,29004],[0.4,29088],[0.4,29170],[0.4,29253],[0.4,29336],[0.4,29420],[0.4,29503],[0.4,29586],[0.4,29670],[0.4,29753],[0.4,29836],[0.4,29919],[0.4,30003],[0.4,30086],[0.4,30169],[0.4,30252],[0.4,30337],[0.4,30420],[0.4,30503],[0.4,30585],[0.4,30669],[0.4,30752],[0.4,30835],[0.4,30918],[0.4,31003],[0.4,31085],[0.4,31169],[0.4,31252],[0.4,31335],[0.4,31419],[0.4,31502],[0.4,31585],[0.4,31668],[0.4,31751],[0.4,31834],[0.4,31918],[0.4,32001],[0.4,32084],[0.4,32168],[0.4,32250],[0.4,32334],[0.4,32417],[0.4,32502],[0.4,32584],[0.4,32667],[0.4,32750],[0.4,32833],[0.4,32916],[0.4,33000],[0.4,33083],[0.4,33166],[0.4,33250],[0.4,33334],[0.4,33416],[0.4,33499],[0.4,33583]]",0,1,1,1,1,"It was just another Sunday afternoon for Lucy, she was on her way to the farmer's market to pick up some produce. When she arrived at the old train depot that housed the market, she noticed two men fighting on the steps. Before she could call for help, one of the men crumpled to his knees. The other man dropped an object that appeared to be a knife and ran off. When Lucy approached the crime scene she realized that the man who had been murdered was the Mayor and that he had a gunshot wound.","One day at work, Margaret walked up to her partner, Al, to ask him to talk to the chief of staff at the local hospital where she worked as a nurse.","Luke always thought of himself as an honest man. That's why during his evening jog around the swamp, he pondered his recent affair with the receptionist at work. Luke looked up at the sky and asked God why he was so weak and unfaithful. He thought of the impact this would have on his family and told God of his conflicted feelings toward telling his wife Marta.","Linda and Amy had been best friends since kindergarten, they even found homes on the same street in the forest on the edge of town. Their biggest fight had been over who gets the bigger slice of cake, until Amy married Dan. Linda loathed Dan, she thought he was manipulative and had a violent temper. She only put up with him because Amy loved him. ",,,,,,,,,,
,,,,,,5f42eec40c24ac531d4ca24a,2024-05-13_11h33.36.364,group3.1-3.2-social-tom,2023.2.2,Win32,59.88023952,65c5074098b851296ff0b7ed,66423293130c38434d535ee1,,,,,,,,,,,,,,,,,,,,,,,,,,,,,996.2956,1,audio/Narrative8Situation9.wav,997.2946,space,,,,,,1015.8652,1019.1892,0.65885798,2.9167,"[{""rating"":0.6588579795021976,""responseTime"":2.91670000004774}]",space,2.7837,,1015.8593,All the time,100,1015.8652,,,[],,,,,,,,,,,4,5,2,2,0.9813,,,,,,,,,,,,,,,,997.2947,3,1015.8592,"[[1.5,1747],[1.5,1830],[1.5,1913],[1.5,1997],[1.5,2079],[1.5,2163],[1.2,2246],[1,2330],[0.2,2414]]",0,2,2,2,1,On the ground beside him was a pen that she had mistaken for a knife. Lucy looked for the gunman and saw a suspicious man in black with distinct pointy features darting into an alley across the street. Cops who were nearby chased the man who had fled and arrested him.,"While waiting outside the chief of staff's office, Al heard nondescript shouting and yelling, there was a loud clatter in the room and then an eerie silence. An unfamiliar employee ran hastily out of the office with a terrified look on their face.","Suddenly, Luke heard a woman call out his name and when he turned around he saw Carly, his receptionist, across the road with a gun in her hand. Carly ran to him and explained how she had followed him here to confess her love. She exclaimed if Luke didn't love her back that she would kill him and his family. Carly explained that the only way they could be together is to kill Marta.","This feeling of hate between Amy and Dan was mutual, Dan didn't like how much time his wife spent with her and thought Amy was creating distance between their marriage. That's why Dan decided to try and tarnish Linda's reputation with his wife, in hopes it would get rid of her. He came home one afternoon and exclaimed that Linda had tried to kiss him. Amy was taken aback and immediately called Linda to confront her about these accusations. When Linda arrived she denied having made a move on Dan, but discovered Dan had enlisted the help of his friend Will who said he witnessed it all happen.",,,,,,,,,,
,,,,,,5f42eec40c24ac531d4ca24a,2024-05-13_11h33.36.364,group3.1-3.2-social-tom,2023.2.2,Win32,59.88023952,65c5074098b851296ff0b7ed,66423293130c38434d535ee1,,,,,,,,,,,,,,,,,,,,,,,,,,,,,1019.1902,1,audio/Narrative8Situation9.wav,1020.8295,space,,,,,,1032.7144,1034.4063,0.073206442,1.2546,"[{""rating"":0.07320644216691208,""responseTime"":1.2545999999047126}]",space,1.1534,,1032.7087,Half the time,50,1032.7144,,,[],,,,,,,,,,,2,2,1,4,1.6253,,,,,,,,,,,,,,,,1020.8296,3,1032.7085,"[[0.2,2554],[0.1,3057],[0.1,3137],[0.1,3220],[0.1,3304],[0.1,3386],[0.1,3471],[0.1,3553],[0.1,3636],[0.1,3720],[0.1,3802],[0.1,3886],[0.1,3969],[0.1,4053],[0.1,4137],[0.1,4219],[0.1,4303],[0.1,4385],[0.1,4469],[0.1,4552],[0.1,4635],[0.1,4720],[0.1,4803],[0.1,4885],[0.1,4969],[0.1,5051],[0.1,5135],[0.1,5218],[0.1,5302],[0.1,5385],[0.1,5468],[0.1,5552],[0.1,5636],[0.1,5721],[0.1,5804],[0.1,5890],[0.1,5971],[0.1,6055],[0.1,6139],[0.1,6223],[0.1,6308],[0.1,6390],[0.1,6474],[0.1,6561],[0.1,6642],[0.1,6725],[0.1,6809],[0.1,6893],[0.1,6976],[0.1,7060],[0.1,7145],[0.1,7229],[0.1,7311],[0.1,7394],[0.1,7479],[0.1,7565],[0.1,7646],[0.1,7729],[0.1,7813],[0.1,7898],[0.1,7981],[0.1,8064],[0.1,8147],[0.1,8232],[0.1,8315],[0.1,8399],[0.1,8482],[0.1,8566],[0.1,8648],[0.1,8732],[0.1,8815],[0.1,8898],[0.1,8981],[0.1,9064],[0.1,9148],[0.1,9231],[0.1,9314],[0.1,9397],[0.1,9480],[0.1,9565],[0.1,9647],[0.1,9730],[0.1,9813],[0.1,9897],[0.1,9980],[0.1,10064],[0.1,10147],[0.1,10232],[0.1,10314],[0.1,10396],[0.1,10479],[0.1,10564],[0.1,10646],[0.1,10729],[0.1,10813],[0.1,10897],[0.1,10980],[0.1,11062],[0.1,11146],[0.1,11229],[0.1,11312],[0.1,11395],[0.1,11479],[0.1,11563],[0.1,11645],[0.1,11729],[0.1,11812]]",0,3,3,3,1,"But Lucy knew the charged man was innocent, which meant the killer was free. Lucy vowed to find out who the real murderer was and to stop him at all costs.","Al explained to the chief of staff that Margaret wanted to be excused from her absences last week. The chief of staff, Susan, revealed that she wanted to fire Margaret and never see her again. Susan and Al had been having an affair and she wanted Margaret ""out of the picture"". Al was conflicted, but agreed it would be for the best.","Luke thought of his child and felt like this was his only option. He agreed to the plan and called his wife to meet him at the swamp to watch the sunset with him. When she arrived, Marta called out for her husband, but found Carly waiting for her. She immediately drew her gun and shot her in the chest, knocking her unconscious.","Since it was their word against her own, she decided to go home and admit defeat. She knew how much it would hurt Amy to know the truth.",,,,,,,,,,
