exp_question,consent.started,consent.stopped,consentResponse.keys,consentResponse.rt,consentResponse.duration,participantID,date,expName,psychopyVersion,OS,frameRate,STUDY_ID,SESSION_ID,opening1.started,opening1.stopped,keyEndingOpening1.keys,keyEndingOpening1.rt,keyEndingOpening1.duration,volumeAdjust.started,volumeAdjust.stopped,endingAdjust.keys,endingAdjust.rt,endingAdjust.duration,opening2.started,opening2.stopped,keyEndingOpening.keys,keyEndingOpening.rt,keyEndingOpening.duration,mouse.x,mouse.y,mouse.leftButton,mouse.midButton,mouse.rightButton,mouse.time,instructionLoop.thisRepN,instructionLoop.thisTrialN,instructionLoop.thisN,instructionLoop.thisIndex,instructionLoop.ran,readyForAudio.started,readyForAudio.stopped,fixation.started,run,audio_played,fixation.stopped,endPractice.keys,audioPre.started,audioPre.stopped,continuousResponses_audio,continuousSlider.response,continuousSlider.rt,intRating.started,intRating.stopped,intQuestionSlider.response,intQuestionSlider.rt,intQuestionSlider.history,confirmResponse.keys,confirmResponse.rt,confirmResponse.duration,catchQuestion.started,catch_label,catch_value,catchQuestion.stopped,catchQuestionSlider.response,catchQuestionSlider.rt,catchQuestionSlider.history,confirmResponse_2.keys,audioRunLoop.thisRepN,audioRunLoop.thisTrialN,audioRunLoop.thisN,audioRunLoop.thisIndex,audioRunLoop.ran,conditions1_1,conditions2_1,conditions1_2,conditions2_2,dur1_1,dur2_1,dur1_2,dur2_2,endPractice.rt,endPractice.duration,confirmResponse_2.rt,confirmResponse_2.duration,runIntervalBreak.started,runIntervalBreak.stopped,endingBreakKey.keys,endingBreakKey.rt,endingBreakKey.duration,connection.started,connection.stopped,connectionEnding.keys,connectionEnding.rt,connectionEnding.duration,readyForText.started,readyForText.stopped,textPre.started,run_dup,textPre.stopped,continuousResponses_text,textRunLoop.thisRepN,textRunLoop.thisTrialN,textRunLoop.thisN,textRunLoop.thisIndex,textRunLoop.ran,text1_1,text1_2,text2_1,text2_2,runBreakText.started,runBreakText.stopped,endingBreakKey_2.keys,endingBreakKey_2.rt,endingBreakKey_2.duration,ending.started,ending.stopped,endingEnding.keys,endingEnding.rt,endingEnding.duration
tom,0.0004,3.8869,y,3.5696,,5fc8a956800c80232e0b7a32,2024-02-08_13h04.42.398,group3.1-3.2-social-tom,2023.2.2,Win32,59.52380952,65c5074098b851296ff0b7ed,65c5417c98b851296ff0c942,,,,,,,,,,,,,,,,,,,,,,,,,,,,,,,,,,,,,,,,,,,,,,,,,,,,,,,,,,,,,,,,,,,,,,,,,,,,,,,,,,,,,,,,,,,,,,,,,,,,,,,,,,
,,,,,,5fc8a956800c80232e0b7a32,2024-02-08_13h04.42.398,group3.1-3.2-social-tom,2023.2.2,Win32,59.52380952,65c5074098b851296ff0b7ed,65c5417c98b851296ff0c942,3.887,5.2411,space,1.3288,,,,,,,,,,,,,,,,,,,,,,,,,,,,,,,,,,,,,,,,,,,,,,,,,,,,,,,,,,,,,,,,,,,,,,,,,,,,,,,,,,,,,,,,,,,,,,,,,,,,,,
,,,,,,5fc8a956800c80232e0b7a32,2024-02-08_13h04.42.398,group3.1-3.2-social-tom,2023.2.2,Win32,59.52380952,65c5074098b851296ff0b7ed,65c5417c98b851296ff0c942,,,,,,5.2412,9.2043,space,3.62,,,,,,,,,,,,,,,,,,,,,,,,,,,,,,,,,,,,,,,,,,,,,,,,,,,,,,,,,,,,,,,,,,,,,,,,,,,,,,,,,,,,,,,,,,,,,,,,,
,,,,,,5fc8a956800c80232e0b7a32,2024-02-08_13h04.42.398,group3.1-3.2-social-tom,2023.2.2,Win32,59.52380952,65c5074098b851296ff0b7ed,65c5417c98b851296ff0c942,,,,,,,,,,,9.2072,15.9125,space,6.6835,,[],[],[],[],[],[],0,0,0,0,1,,,,,,,,,,,,,,,,,,,,,,,,,,,,,,,,,,,,,,,,,,,,,,,,,,,,,,,,,,,,,,,,,,,,,,,,,,,,,,,,
,,,,,,5fc8a956800c80232e0b7a32,2024-02-08_13h04.42.398,group3.1-3.2-social-tom,2023.2.2,Win32,59.52380952,65c5074098b851296ff0b7ed,65c5417c98b851296ff0c942,,,,,,,,,,,15.9171,27.5886,space,11.6006,,[],[],[],[],[],[],1,0,1,0,1,,,,,,,,,,,,,,,,,,,,,,,,,,,,,,,,,,,,,,,,,,,,,,,,,,,,,,,,,,,,,,,,,,,,,,,,,,,,,,,,
,,,,,,5fc8a956800c80232e0b7a32,2024-02-08_13h04.42.398,group3.1-3.2-social-tom,2023.2.2,Win32,59.52380952,65c5074098b851296ff0b7ed,65c5417c98b851296ff0c942,,,,,,,,,,,27.5935,39.9395,space,12.3096,,[],[],[],[],[],[],2,0,2,0,1,,,,,,,,,,,,,,,,,,,,,,,,,,,,,,,,,,,,,,,,,,,,,,,,,,,,,,,,,,,,,,,,,,,,,,,,,,,,,,,,
,,,,,,5fc8a956800c80232e0b7a32,2024-02-08_13h04.42.398,group3.1-3.2-social-tom,2023.2.2,Win32,59.52380952,65c5074098b851296ff0b7ed,65c5417c98b851296ff0c942,,,,,,,,,,,39.9443,64.758,space,24.7833,,[],[],[],[],[],[],3,0,3,0,1,,,,,,,,,,,,,,,,,,,,,,,,,,,,,,,,,,,,,,,,,,,,,,,,,,,,,,,,,,,,,,,,,,,,,,,,,,,,,,,,
,,,,,,5fc8a956800c80232e0b7a32,2024-02-08_13h04.42.398,group3.1-3.2-social-tom,2023.2.2,Win32,59.52380952,65c5074098b851296ff0b7ed,65c5417c98b851296ff0c942,,,,,,,,,,,64.7629,70.1251,space,5.3322,,[],[],[],[],[],[],4,0,4,0,1,,,,,,,,,,,,,,,,,,,,,,,,,,,,,,,,,,,,,,,,,,,,,,,,,,,,,,,,,,,,,,,,,,,,,,,,,,,,,,,,
,,,,,,5fc8a956800c80232e0b7a32,2024-02-08_13h04.42.398,group3.1-3.2-social-tom,2023.2.2,Win32,59.52380952,65c5074098b851296ff0b7ed,65c5417c98b851296ff0c942,,,,,,,,,,,,,,,,,,,,,,,,,,,70.1309,72.6994,72.711,1,audio/Narrative13Situation2.wav,74.7254,,74.7255,104.478,"[[999,0],[999,116],[999,200],[999,283],[999,366],[999,449],[999,533],[999,616],[999,699],[999,783],[999,866],[999,949],[999,1033],[999,1116],[999,1199],[999,1283],[999,1366],[999,1449],[999,1533],[999,1616],[999,1699],[999,1783],[999,1866],[999,1950],[999,2033],[999,2116],[999,2200],[999,2283],[999,2366],[999,2450],[999,2533],[999,2616],[999,2699],[999,2783],[999,2866],[999,2950],[999,3033],[999,3116],[999,3200],[999,3283],[999,3366],[999,3450],[999,3533],[999,3616],[999,3700],[999,3783],[999,3866],[999,3950],[999,4033],[999,4116],[999,4200],[999,4283],[999,4366],[999,4450],[999,4533],[999,4616],[999,4700],[999,4783],[999,4866],[999,4950],[999,5033],[999,5116],[999,5200],[999,5283],[999,5366],[999,5450],[999,5533],[999,5616],[999,5700],[999,5783],[999,5866],[999,5950],[999,6033],[999,6116],[999,6200],[999,6283],[999,6366],[999,6450],[999,6533],[999,6617],[999,6700],[999,6783],[999,6866],[999,6950],[999,7033],[999,7116],[999,7200],[999,7283],[999,7367],[999,7450],[999,7533],[999,7617],[999,7700],[999,7783],[999,7867],[999,7950],[999,8033],[999,8117],[999,8200],[999,8283],[999,8367],[999,8450],[999,8533],[999,8617],[999,8700],[999,8783],[999,8867],[999,8950],[999,9033],[999,9117],[999,9200],[999,9283],[999,9367],[999,9450],[999,9533],[999,9617],[999,9700],[999,9783],[999,9867],[999,9950],[999,10033],[999,10117],[999,10200],[999,10283],[999,10367],[999,10450],[999,10533],[999,10617],[999,10700],[999,10783],[999,10867],[999,10950],[999,11034],[999,11117],[999,11200],[999,11283],[999,11367],[999,11450],[999,11533],[999,11617],[999,11700],[999,11783],[999,11867],[999,11950],[999,12034],[999,12117],[999,12200],[999,12284],[999,12367],[999,12450],[999,12533],[999,12617],[999,12700],[999,12784],[999,12867],[999,12950],[999,13034],[999,13117],[999,13201],[999,13284],[999,13367],[999,13450],[999,13534],[999,13617],[999,13700],[999,13784],[999,13867],[999,13950],[999,14034],[999,14117],[999,14200],[999,14284],[999,14367],[999,14450],[999,14534],[999,14617],[999,14700],[999,14784],[999,14867],[999,14950],[999,15034],[999,15117],[999,15200],[999,15284],[999,15367],[999,15450],[999,15534],[999,15617],[999,15701],[999,15784],[999,15867],[999,15951],[999,16034],[999,16117],[999,16201],[999,16284],[999,16367],[999,16450],[999,16534],[999,16617],[999,16701],[999,16784],[999,16867],[999,16951],[999,17034],[999,17117],[999,17201],[999,17284],[999,17367],[999,17451],[999,17534],[999,17617],[999,17701],[999,17784],[999,17867],[999,17951],[999,18034],[999,18117],[999,18201],[999,18284],[999,18367],[999,18451],[999,18534],[999,18617],[999,18701],[999,18784],[999,18867],[999,18951],[999,19034],[999,19117],[999,19201],[999,19284],[999,19367],[999,19451],[999,19534],[999,19617],[999,19701],[999,19784],[999,19867],[999,19951],[999,20034],[999,20117],[999,20201],[999,20284],[999,20367],[999,20451],[999,20534],[999,20618],[999,20701],[999,20784],[999,20868],[999,20951],[999,21034],[999,21118],[999,21201],[999,21284],[999,21368],[999,21451],[999,21534],[999,21618],[999,21701],[999,21784],[999,21868],[999,21951],[999,22034],[999,22118],[999,22201],[999,22284],[999,22368],[999,22451],[999,22534],[999,22618],[999,22701],[999,22784],[999,22868],[999,22951],[999,23034],[999,23118],[999,23201],[999,23284],[999,23368],[999,23451],[999,23534],[999,23618],[999,23701],[999,23784],[999,23868],[999,23951],[999,24034],[999,24118],[999,24201],[999,24284],[999,24368],[999,24451],[999,24535],[999,24618],[999,24701],[999,24785],[999,24868],[999,24951],[999,25034],[999,25118],[999,25201],[999,25284],[999,25368],[999,25451],[999,25535],[999,25618],[999,25701],[999,25785],[999,25868],[999,25951],[999,26035],[999,26118],[999,26201],[999,26285],[999,26368],[999,26451],[999,26535],[999,26618],[999,26701],[999,26785],[999,26868],[999,26951],[999,27035],[999,27118],[999,27202],[999,27285],[999,27368],[999,27451],[999,27535],[999,27618],[999,27701],[999,27785],[999,27868],[999,27952],[999,28040],[47.3,28118],[47.7,28201],[47.7,28285],[47.7,28368],[48.1,28452],[48.6,28535],[49.4,28618],[49.7,28701],[49.7,28785],[49.7,28868],[49.7,28952],[49.7,29035],[49.7,29118],[49.7,29202],[49.7,29285],[49.7,29368],[49.7,29452],[49.7,29535],[49.7,29618],[49.7,29702]]",1,0,104.4782,110.8949,50.20833969,5.3257,"[{""rating"":50.20833969116211,""responseTime"":5.325699999988075}]",space,5.871,,110.8952,Not at all,0,110.8976,,,[],,0,0,0,0,1,audio/Narrative13Situation2.wav,audio/Narrative13Situation2.wav,audio/Narrative13Situation2.wav,audio/Narrative13Situation2.wav,2,2,2,2,,,,,,,,,,,,,,,,,,,,,,,,,,,,,,,,,,,,,,,
,,,,,,5fc8a956800c80232e0b7a32,2024-02-08_13h04.42.398,group3.1-3.2-social-tom,2023.2.2,Win32,59.52380952,65c5074098b851296ff0b7ed,65c5417c98b851296ff0c942,,,,,,,,,,,,,,,,,,,,,,,,,,,,,110.8978,1,audio/Narrative7Situation1.wav,119.0953,space,119.0953,174.9828,"[[50.1,2583],[49.7,2667],[48.8,2750],[47.9,2833],[47.6,2916],[46.9,3000],[46.1,3083],[45.1,3166],[44.9,3250],[44.9,3333],[44.4,3416],[44.4,3500],[44.4,3583],[45.9,3667],[46.4,3750],[46.9,3833],[47.3,3916],[47.3,4000],[47.3,4083],[47.3,4166],[47.3,4250],[47.3,4333],[47.3,4417],[47.3,4500],[47.3,4583],[44.8,4667],[32.7,4750],[24.9,4833],[17.5,4917],[14.2,5000],[13.6,5083],[13.5,5166],[13.5,5250],[13.5,5334],[13.5,5417],[13.5,5500],[13.5,5583],[13.5,5667],[13.5,5750],[13.5,5833],[13.5,5917],[13.5,6000],[13.5,6083],[13.5,6167],[13.5,6250],[13.5,6333],[13.5,6417],[13.5,6500],[13.5,6584],[13.5,6667],[13.5,6750],[13.5,6833],[13.5,6917],[13.5,7000],[13.5,7083],[13.5,7167],[13.5,7250],[13.5,7333],[13.5,7417],[13.5,7500],[13.5,7583],[13.5,7667],[13.5,7750],[13.5,7833],[13.5,7917],[13.5,8000],[13.5,8084],[13.5,8167],[13.5,8250],[13.5,8333],[13.5,8417],[13.5,8500],[13.5,8584],[13.5,8667],[13.5,8750],[13.5,8833],[13.5,8917],[13.5,9000],[13.5,9083],[13.5,9167],[13.5,9250],[13.5,9333],[13.5,9417],[13.5,9500],[13.5,9584],[13.5,9667],[13.5,9750],[13.5,9833],[13.5,9917],[13.5,10000],[13.5,10083],[13.5,10167],[13.5,10250],[13.5,10334],[13.5,10417],[13.5,10500],[13.5,10584],[13.5,10667],[13.5,10750],[13.5,10834],[13.5,10917],[13.5,11000],[13.5,11084],[13.5,11167],[13.5,11250],[13.5,11334],[13.5,11417],[13.5,11500],[13.5,11584],[13.5,11667],[13.5,11750],[13.5,11834],[13.5,11917],[13.5,12000],[13.5,12084],[13.5,12167],[13.5,12251],[13.5,12334],[13.5,12417],[13.5,12500],[13.5,12584],[13.5,12667],[13.5,12750],[13.5,12834],[13.5,12917],[13.5,13000],[13.5,13084],[13.5,13167],[13.5,13250],[13.5,13334],[13.5,13417],[13.5,13500],[13.5,13584],[13.5,13667],[13.5,13750],[13.5,13834],[13.5,13917],[13.5,14000],[13.5,14084],[13.5,14167],[13.5,14251],[13.5,14334],[13.5,14417],[13.5,14501],[13.5,14584],[13.5,14667],[13.5,14751],[13.5,14834],[13.5,14917],[13.5,15001],[13.5,15084],[13.5,15167],[13.5,15251],[13.5,15334],[13.5,15417],[13.5,15501],[13.5,15584],[13.5,15667],[13.5,15751],[13.5,15834],[13.5,15917],[13.5,16001],[13.5,16084],[13.5,16167],[13.5,16251],[13.5,16334],[13.5,16417],[13.5,16501],[13.5,16584],[13.5,16667],[13.5,16751],[13.5,16834],[13.5,16917],[13.5,17001],[13.5,17084],[13.5,17167],[13.5,17251],[13.5,17334],[13.5,17417],[13.5,17501],[13.5,17584],[13.5,17667],[13.5,17751],[13.5,17834],[13.5,17917],[13.5,18001],[13.5,18084],[13.5,18168],[13.5,18251],[13.5,18334],[13.5,18418],[13.5,18501],[13.5,18584],[13.5,18668],[13.5,18751],[13.5,18834],[13.5,18918],[13.5,19001],[13.5,19084],[13.5,19167],[13.5,19251],[13.5,19334],[13.5,19418],[13.5,19501],[13.5,19584],[13.5,19668],[13.5,19751],[13.5,19834],[13.5,19918],[13.5,20001],[13.5,20084],[13.5,20168],[13.5,20251],[13.5,20334],[13.5,20418],[13.5,20501],[13.5,20584],[13.5,20668],[13.5,20751],[13.5,20834],[13.5,20918],[13.5,21001],[13.5,21084],[13.5,21168],[13.5,21251],[13.5,21334],[13.5,21418],[13.5,21501],[13.5,21584],[13.5,21668],[13.5,21751],[13.5,21834],[13.5,21918],[13.5,22001],[13.5,22084],[13.5,22168],[13.5,22251],[13.5,22334],[13.5,22418],[13.5,22501],[13.5,22584],[13.5,22668],[13.5,22751],[13.5,22834],[13.5,22918],[13.5,23001],[13.5,23084],[13.5,23168],[13.5,23251],[13.5,23334],[13.5,23418],[13.5,23501],[13.5,23585],[13.5,23668],[13.5,23751],[13.5,23834],[13.5,23918],[13.5,24001],[13.5,24085],[13.5,24168],[13.5,24252],[13.5,24335],[13.5,24418],[13.5,24501],[13.5,24585],[13.5,24668],[13.5,24751],[13.5,24835],[13.5,24918],[13.5,25001],[13.5,25085],[13.5,25168],[13.5,25251],[13.5,25335],[13.5,25418],[13.5,25501],[13.5,25585],[13.5,25668],[13.5,25751],[13.5,25835],[13.5,25918],[13.5,26001],[13.5,26085],[13.5,26168],[13.5,26251],[13.5,26335],[13.5,26418],[13.5,26501],[13.5,26585],[13.5,26668],[13.5,26751],[13.5,26835],[13.5,26918],[13.5,27001],[13.5,27085],[13.5,27168],[13.5,27251],[13.5,27335],[13.5,27418],[13.5,27502],[13.5,27585],[13.5,27668],[13.5,27752],[13.5,27835],[13.5,27918],[13.5,28001],[13.5,28085],[13.5,28168],[13.5,28252],[13.5,28335],[13.5,28418],[13.5,28501],[13.5,28585],[13.5,28668],[13.5,28752],[13.5,28835],[13.5,28918],[13.5,29002],[13.5,29085],[13.5,29168],[13.5,29252],[13.5,29335],[13.5,29418],[13.5,29502],[13.5,29585],[13.5,29668],[13.5,29752],[13.5,29835],[13.5,29918],[13.5,30002],[13.5,30085],[13.5,30168],[13.5,30252],[13.5,30335],[13.5,30418],[13.5,30502],[13.5,30585],[13.5,30668],[13.5,30752],[13.5,30835],[13.5,30918],[13.5,31002],[13.5,31085],[13.5,31168],[13.5,31252],[13.5,31335],[13.5,31418],[13.5,31502],[13.5,31585],[13.5,31669],[13.5,31752],[13.5,31835],[13.5,31919],[13.5,32002],[13.5,32085],[13.5,32169],[13.5,32252],[13.5,32335],[13.5,32418],[13.5,32502],[13.5,32585],[13.5,32668],[13.5,32752],[13.5,32835],[13.5,32919],[13.5,33002],[13.5,33085],[13.5,33168],[13.5,33252],[13.5,33335],[13.5,33419],[13.5,33502],[13.5,33585],[13.5,33669],[13.5,33752],[13.5,33835],[13.5,33919],[13.5,34002],[13.5,34085],[13.5,34169],[13.5,34252],[13.5,34335],[13.5,34419],[13.5,34502],[13.5,34585],[13.5,34669],[13.5,34752],[13.5,34835],[13.9,34919],[14.3,35002],[14.3,35085],[14.3,35169],[14.3,35252],[14.3,35335],[14.3,35419],[14.3,35502],[14.3,35585],[14.3,35669],[14.3,35752],[14.3,35835],[14.3,35919],[14.3,36002],[14.3,36085],[14.3,36169],[14.3,36252],[14.3,36335],[14.3,36419],[14.3,36502],[14.3,36586],[14.3,36669],[14.3,36752],[14.3,36836],[14.3,36919],[14.3,37002],[14.3,37086],[14.3,37169],[14.3,37252],[14.3,37336],[14.3,37419],[14.3,37502],[14.3,37586],[14.3,37669],[14.3,37752],[14.3,37836],[14.3,37919],[14.3,38002],[14.3,38086],[14.3,38169],[14.3,38252],[14.3,38336],[14.3,38419],[14.3,38502],[14.3,38586],[14.3,38669],[14.3,38752],[14.3,38836],[14.3,38919],[14.3,39002],[14.3,39086],[14.3,39169],[14.3,39252],[14.3,39336],[14.3,39419],[14.3,39502],[14.3,39586],[14.3,39669],[14.3,39752],[14.3,39836],[14.3,39919],[14.3,40002],[14.3,40086],[14.3,40169],[14.3,40252],[14.3,40336],[14.3,40419],[14.3,40502],[14.3,40586],[14.3,40669],[14.3,40753],[14.3,40836],[14.3,40919],[14.3,41002],[14.3,41086],[14.3,41169],[14.3,41252],[14.3,41336],[14.3,41419],[14.3,41503],[14.3,41586],[14.3,41669],[14.3,41752],[14.3,41836],[14.3,41919],[15.8,42003],[45.5,42169],[45.5,42253],[47.1,42336],[47.2,42419],[48.9,42503],[49.5,42586],[49.5,42669],[49.5,42753],[49.5,42836],[49.5,42919],[49.5,43003],[49.5,43086],[49.5,43169],[49.5,43253],[49.5,43336],[49.5,43419],[49.5,43503],[49.5,43586],[49.5,43669],[49.5,43753],[49.5,43836],[49.5,43919],[49.5,44003],[49.5,44086],[49.5,44169],[49.5,44253],[49.5,44336],[49.5,44419],[49.5,44503],[49.5,44586],[49.5,44669],[49.5,44753],[49.5,44836],[49.5,44919],[49.5,45003],[49.5,45086],[49.5,45169],[49.5,45253],[49.5,45336],[49.5,45419],[49.5,45503],[49.5,45586],[49.5,45669],[49.5,45753],[49.5,45836],[49.5,45920],[49.5,46003],[49.5,46086],[49.5,46169],[49.5,46253],[49.5,46336],[49.5,46420],[49.5,46503],[49.5,46586],[49.5,46670],[49.5,46753],[49.5,46836],[49.5,46920],[49.5,47003],[49.5,47086],[49.5,47170],[49.5,47253],[49.5,47336],[49.5,47420],[49.5,47503],[49.5,47586],[49.5,47670],[49.5,47753],[49.5,47836],[49.5,47920],[49.5,48003],[49.5,48086],[49.5,48170],[49.5,48253],[49.5,48336],[49.5,48420],[49.5,48503],[49.5,48586],[49.5,48670],[49.5,48753],[49.5,48836],[49.5,48920],[49.5,49003],[49.5,49086],[49.5,49170],[49.5,49253],[49.5,49336],[49.5,49420],[49.5,49503],[49.5,49586],[49.5,49670],[49.5,49753],[49.5,49836],[49.5,49920],[49.5,50003],[49.5,50087],[49.5,50170],[49.5,50253],[49.5,50337],[49.5,50420],[49.5,50503],[49.5,50586],[49.5,50670],[49.5,50753],[49.5,50837],[49.5,50920],[49.5,51003],[49.5,51087],[49.5,51170],[49.5,51253],[49.5,51337],[49.5,51420],[49.5,51503],[49.5,51587],[49.5,51670],[49.5,51753],[49.5,51837],[49.5,51920],[49.5,52003],[49.5,52087],[49.5,52170],[49.5,52253],[49.5,52337],[49.5,52420],[49.5,52503],[49.5,52587],[49.5,52670],[49.5,52753],[49.5,52837],[49.5,52920],[49.5,53003],[49.5,53087],[49.5,53170],[49.5,53253],[49.5,53337],[49.5,53420],[49.5,53503],[49.5,53587],[49.5,53671],[49.5,53753],[49.5,53837],[49.5,53920],[49.5,54004],[49.5,54087],[49.5,54170],[49.5,54253],[49.5,54337],[49.5,54420],[49.5,54503],[49.5,54587],[49.5,54670],[49.5,54754],[49.5,54837],[49.5,54920],[49.5,55004],[49.5,55087],[49.5,55170],[49.5,55254],[49.5,55337],[49.5,55420],[49.5,55504],[49.5,55587],[49.5,55670],[49.5,55754],[49.5,55837]]",1,0,174.9831,177.2662,50,1.3847,"[{""rating"":50,""responseTime"":1.3846999999880722}]",space,1.7387,,177.2662,Half the time,50,177.2682,,,[],,0,1,1,1,1,audio/Narrative7Situation1.wav,audio/Narrative8Situation1.wav,audio/Narrative5Situation1.wav,audio/Narrative6Situation1.wav,2,5,5,2,8.176,,,,,,,,,,,,,,,,,,,,,,,,,,,,,,,,,,,,,,
,,,,,,5fc8a956800c80232e0b7a32,2024-02-08_13h04.42.398,group3.1-3.2-social-tom,2023.2.2,Win32,59.52380952,65c5074098b851296ff0b7ed,65c5417c98b851296ff0c942,,,,,,,,,,,,,,,,,,,,,,,,,,,,,177.2684,1,audio/Narrative7Situation2.wav,180.2831,,180.2831,187.767,[],1,0,187.7671,192.5007,18.28125,3.5071,"[{""rating"":18.28125,""responseTime"":3.507100000023854}]",space,4.1961,,192.5008,All the time,100,192.5026,,,[],,0,2,2,2,1,audio/Narrative7Situation2.wav,audio/Narrative8Situation2.wav,audio/Narrative5Situation2.wav,audio/Narrative6Situation2.wav,3,3,3,3,,,,,,,,,,,,,,,,,,,,,,,,,,,,,,,,,,,,,,,
,,,,,,5fc8a956800c80232e0b7a32,2024-02-08_13h04.42.398,group3.1-3.2-social-tom,2023.2.2,Win32,59.52380952,65c5074098b851296ff0b7ed,65c5417c98b851296ff0c942,,,,,,,,,,,,,,,,,,,,,,,,,,,,,192.5028,1,audio/Narrative7Situation3.wav,200.5179,,200.5179,209.7686,"[[34.4,3917],[29.6,4000],[25.5,4083],[24.2,4167],[24.2,4250],[24.2,4333],[24.2,4417],[24.2,4500],[24.2,4583],[24.2,4667],[24.2,4750],[24.2,4833],[24.2,4916],[24.2,5000],[24.2,5083],[24.2,5167],[24.2,5250],[24.2,5333],[24.2,5417],[24.2,5500],[24.2,5583],[24.2,5667],[24.2,5750],[24.2,5833],[24.2,5917],[24.2,6000],[24.2,6083],[24.2,6167],[24.2,6250],[24.2,6333],[24.2,6417],[24.2,6500],[24.2,6583],[24.2,6667],[24.2,6750],[24.2,6833],[24.2,6917],[24.2,7000],[24.2,7083],[24.2,7167],[24.2,7250],[24.2,7333],[24.2,7417],[24.2,7500],[24.2,7583],[24.2,7667],[24.2,7750],[24.2,7833],[24.2,7917],[24.2,8000],[24.2,8083],[24.2,8167],[24.2,8250],[24.2,8333],[24.2,8417],[24.2,8500],[24.2,8584],[24.2,8667],[24.2,8750],[24.2,8833],[24.2,8917],[24.2,9000],[24.2,9084],[24.2,9167],[24.2,9250]]",1,0,209.7687,214.6358,1.5625,3.6103,"[{""rating"":1.5625,""responseTime"":3.6103000000118755}]",space,4.322,,214.6358,Not at all,0,214.6376,,,[],,0,3,3,3,1,audio/Narrative7Situation3.wav,audio/Narrative8Situation3.wav,audio/Narrative5Situation3.wav,audio/Narrative6Situation3.wav,8,4,3,5,,,,,,,,,,,,,,,,,,,,,,,,,,,,,,,,,,,,,,,
,,,,,,5fc8a956800c80232e0b7a32,2024-02-08_13h04.42.398,group3.1-3.2-social-tom,2023.2.2,Win32,59.52380952,65c5074098b851296ff0b7ed,65c5417c98b851296ff0c942,,,,,,,,,,,,,,,,,,,,,,,,,,,,,214.6377,1,audio/Narrative7Situation4.wav,217.6524,,217.6526,229.3867,[],1,0,229.3869,231.8035,48.69791985,1.3201,"[{""rating"":48.697919845581055,""responseTime"":1.3201000000238423}]",space,1.8684,,231.8036,Half the time,50,231.8053,,,[],,0,4,4,4,1,audio/Narrative7Situation4.wav,audio/Narrative8Situation4.wav,audio/Narrative5Situation4.wav,audio/Narrative6Situation4.wav,3,3,1,2,,,,,,,,,,,,,,,,,,,,,,,,,,,,,,,,,,,,,,,
,,,,,,5fc8a956800c80232e0b7a32,2024-02-08_13h04.42.398,group3.1-3.2-social-tom,2023.2.2,Win32,59.52380952,65c5074098b851296ff0b7ed,65c5417c98b851296ff0c942,,,,,,,,,,,,,,,,,,,,,,,,,,,,,231.8055,1,audio/Narrative7Situation5.wav,236.8206,,236.8206,245.3046,"[[48.9,3833],[50,3916],[50,4000],[50.5,4083],[50.5,4167],[50.4,4250],[48.6,4333],[48.6,4417],[48.6,4501],[48.6,4583],[48.6,4667],[48.6,4750],[48.6,4833],[48.6,4917],[48.6,5000],[48.6,5083],[48.6,5166],[48.6,5250],[48.6,5333],[48.6,5417],[48.6,5500],[48.6,5583],[48.6,5667],[48.6,5750],[48.6,5833],[48.6,5917],[48.6,6000],[48.6,6083],[48.6,6167],[48.6,6250],[48.6,6333],[48.6,6417],[48.6,6500],[48.6,6583],[48.6,6667],[48.6,6750],[48.6,6833],[48.6,6917],[48.6,7000],[48.6,7083],[48.6,7167],[48.6,7250],[48.6,7333],[48.6,7417],[48.6,7500],[48.6,7583],[48.6,7667],[48.6,7750],[48.6,7833],[48.6,7917],[48.6,8000],[48.6,8083],[48.6,8167],[48.6,8250],[48.6,8334],[48.6,8417]]",1,0,245.3047,252.3218,48.59375,6.4194,"[{""rating"":48.59375,""responseTime"":6.4194000000357505}]",space,6.4789,,252.3218,All the time,100,252.3233,,,[],,0,5,5,5,1,audio/Narrative7Situation5.wav,audio/Narrative8Situation5.wav,audio/Narrative5Situation5.wav,audio/Narrative6Situation5.wav,5,2,5,2,,,,,,,,,,,,,,,,,,,,,,,,,,,,,,,,,,,,,,,
,,,,,,5fc8a956800c80232e0b7a32,2024-02-08_13h04.42.398,group3.1-3.2-social-tom,2023.2.2,Win32,59.52380952,65c5074098b851296ff0b7ed,65c5417c98b851296ff0c942,,,,,,,,,,,,,,,,,,,,,,,,,,,,,252.3234,1,audio/Narrative7Situation6.wav,255.3388,,255.3388,265.3229,[],1,0,265.3229,269.1231,23.17708492,3.1196,"[{""rating"":23.177084922790524,""responseTime"":3.1196000000238655}]",space,3.2632,,269.1231,Half the time,50,269.1247,,,[],,0,6,6,6,1,audio/Narrative7Situation6.wav,audio/Narrative8Situation6.wav,audio/Narrative5Situation6.wav,audio/Narrative6Situation6.wav,3,2,3,2,,,,,,,,,,,,,,,,,,,,,,,,,,,,,,,,,,,,,,,
,,,,,,5fc8a956800c80232e0b7a32,2024-02-08_13h04.42.398,group3.1-3.2-social-tom,2023.2.2,Win32,59.52380952,65c5074098b851296ff0b7ed,65c5417c98b851296ff0c942,,,,,,,,,,,,,,,,,,,,,,,,,,,,,269.1249,1,audio/Narrative7Situation7.wav,274.14,,274.14,291.308,"[[25.2,3674],[26.8,3757],[30.5,3841],[40.2,3924],[57.4,4174],[55.2,4257],[53.2,4341],[53,4424],[51.9,4508],[51.2,4593],[51,4667],[50.7,4757],[50.7,4833],[50.7,4917],[50.7,5007],[50.7,5083],[50.7,5167],[50.7,5250],[50.7,5333],[50.7,5417],[50.7,5500],[50.7,5583],[50.7,5674],[50.7,5750],[50.7,5833],[50.7,5917],[50.7,6000],[50.7,6083],[50.7,6167],[50.7,6250],[50.7,6333],[50.7,6417],[50.7,6508],[50.7,6583],[50.7,6667],[50.7,6750],[50.7,6841],[50.7,6917],[50.7,7000],[50.7,7083],[50.7,7167],[50.7,7250],[50.7,7334],[50.7,7417],[50.7,7500],[50.7,7583],[50.7,7667],[50.7,7750],[50.7,7834],[50.7,7917],[50.7,8000],[50.7,8083],[50.7,8167],[50.7,8250],[50.7,8334],[50.7,8417],[50.7,8500],[50.7,8583],[50.7,8667],[50.7,8750],[50.7,8833],[50.7,8917],[50.7,9000],[50.7,9091],[50.7,9167],[50.7,9250],[50.7,9333],[50.7,9417],[50.7,9500],[50.7,9584],[50.7,9667],[50.7,9750],[50.7,9834],[50.7,9917],[50.7,10000],[50.7,10091],[50.7,10167],[50.7,10250],[50.7,10334],[50.7,10417],[50.7,10500],[50.7,10584],[50.7,10667],[50.7,10750],[50.7,10834],[50.7,10917],[50.7,11008],[50.7,11084],[50.7,11172],[50.7,11250],[50.7,11334],[50.7,11417],[50.7,11500],[50.7,11584],[50.7,11667],[50.7,11750],[50.7,11834],[50.7,11917],[50.7,12000],[50.7,12084],[50.7,12167],[50.7,12250],[50.7,12334],[50.7,12417],[50.7,12501],[50.7,12584],[50.7,12674],[50.7,12750],[50.7,12834],[50.7,12917],[50.7,13000],[50.7,13084],[50.7,13167],[50.7,13250],[50.7,13334],[50.7,13417],[50.7,13501],[50.7,13591],[50.7,13667],[50.7,13751],[50.7,13834],[50.7,13917],[50.7,14008],[50.7,14084],[50.7,14167],[50.7,14251],[50.7,14341],[50.7,14417],[50.7,14508],[50.7,14584],[50.7,14667],[50.7,14750],[50.7,14834],[50.7,14917],[50.7,15001],[50.7,15084],[50.7,15167],[50.7,15251],[50.7,15341],[50.7,15417],[50.7,15501],[50.7,15584],[50.7,15667],[50.7,15758],[50.7,15834],[50.7,15917],[50.7,16001],[50.7,16084],[50.7,16167],[50.7,16258],[50.7,16334],[50.7,16417],[50.7,16501],[50.7,16591],[50.7,16667],[50.7,16751],[50.7,16834],[50.7,16917],[50.7,17009],[50.7,17092],[50.7,17168]]",1,0,291.3082,292.3746,28.28125,0.6513,"[{""rating"":28.281250000000004,""responseTime"":0.6513000000119291}]",space,0.5259,,292.3747,All the time,100,292.3762,,,[],,0,7,7,7,1,audio/Narrative7Situation7.wav,audio/Narrative8Situation7.wav,audio/Narrative5Situation7.wav,audio/Narrative6Situation7.wav,5,3,4,5,,,,,,,,,,,,,,,,,,,,,,,,,,,,,,,,,,,,,,,
,,,,,,5fc8a956800c80232e0b7a32,2024-02-08_13h04.42.398,group3.1-3.2-social-tom,2023.2.2,Win32,59.52380952,65c5074098b851296ff0b7ed,65c5417c98b851296ff0c942,,,,,,,,,,,,,,,,,,,,,,,,,,,,,292.3763,1,audio/Narrative7Situation8.wav,294.3915,,294.3916,304.4336,"[[28.4,5841],[28.4,5916],[28.4,6000],[28.4,6083],[28.4,6166],[28.4,6250],[28.4,6333],[28.4,6416],[28.3,6506],[26.8,6591],[26.2,6667],[26.2,6750],[26.2,6833],[26.2,6917],[26.2,7000],[26.2,7083],[26.2,7167],[26.2,7250],[26.2,7333],[26.2,7424],[26.2,7500],[31.4,7591],[33.7,7674],[36.5,7758],[36.7,7841],[37.3,7924],[37.4,8000],[37.4,8083],[37.4,8167],[37.4,8257],[37.4,8333],[37.4,8424],[37.4,8500],[37.4,8583],[37.4,8667],[37.4,8756],[37.4,8833],[37.4,8917],[37.4,9000],[37.4,9083],[37.4,9167],[37.4,9250],[37.4,9333],[37.4,9417],[37.4,9500],[37.4,9583],[37.4,9667],[37.4,9750],[37.4,9834],[37.4,9917],[37.1,10008]]",1,0,304.4337,305.6756,47.1875,0.7981,"[{""rating"":47.1875,""responseTime"":0.7980999999642222}]",space,0.6828,,305.6757,All the time,100,305.677,,,[],,0,8,8,8,1,audio/Narrative7Situation8.wav,audio/Narrative8Situation8.wav,audio/Narrative5Situation8.wav,audio/Narrative6Situation8.wav,2,3,3,5,,,,,,,,,,,,,,,,,,,,,,,,,,,,,,,,,,,,,,,
,,,,,,5fc8a956800c80232e0b7a32,2024-02-08_13h04.42.398,group3.1-3.2-social-tom,2023.2.2,Win32,59.52380952,65c5074098b851296ff0b7ed,65c5417c98b851296ff0c942,,,,,,,,,,,,,,,,,,,,,,,,,,,,,305.6771,1,audio/Narrative7Situation9.wav,307.6925,,307.6925,316.3339,"[[48.9,5333],[50.6,5424],[54.4,5508],[56.7,5591],[57.3,5674],[57.7,5758],[58.2,5841],[59.1,5924],[59.2,6000],[63.5,6091],[64.5,6174],[64.5,6250],[64.8,6333],[64.8,6417],[64.8,6500],[64.8,6583],[64.8,6667],[64.8,6750],[64.8,6833],[64.8,6917],[64.8,7000],[64.8,7090],[64.8,7167],[64.8,7250],[64.8,7333],[64.8,7417],[64.8,7500],[64.8,7583],[64.8,7667],[64.8,7750],[64.8,7833],[64.8,7917],[64.8,8000],[64.8,8083],[64.8,8167],[64.8,8250],[64.8,8334],[64.8,8417],[64.8,8500],[64.8,8583]]",1,0,316.3339,317.0599,64.89583969,0.3489,"[{""rating"":64.89583969116211,""responseTime"":0.34890000003576915}]",space,0.1889,,317.0599,Half the time,50,317.0613,,,[],,0,9,9,9,1,audio/Narrative7Situation9.wav,audio/Narrative8Situation9.wav,audio/Narrative5Situation9.wav,audio/Narrative6Situation9.wav,2,3,3,4,,,,,,,,,,,,,,,,,,,,,,,,,,,,,,,,,,,,,,,
,,,,,,5fc8a956800c80232e0b7a32,2024-02-08_13h04.42.398,group3.1-3.2-social-tom,2023.2.2,Win32,59.52380952,65c5074098b851296ff0b7ed,65c5417c98b851296ff0c942,,,,,,,,,,,,,,,,,,,,,,,,,,,,,317.0614,1,audio/Narrative8Situation1.wav,322.0768,,322.0769,338.0191,"[[52.9,424],[52.8,500],[52.6,591],[52.1,674],[51.5,757],[51,840],[50.7,924],[50.4,1007],[50.1,1083],[50.1,1174],[50.3,1257],[50.4,1341],[50.6,1424],[50.8,1507],[51.1,1590],[51.3,1674],[48.4,2841],[46.5,2924],[45.5,3007],[44.6,3090],[44.3,3173],[44.3,3250],[44.3,3333],[44.3,3416],[44.3,3507],[45,3591],[47.6,3674],[48.2,3757],[48.7,3841],[49.2,3926],[49.2,4000],[49.2,4083],[49.2,4167],[49.2,4257],[49.2,4333],[49.2,4424],[49.2,4500],[49.2,4583],[49.2,4666],[49.2,4750],[49.2,4833],[49.2,4916],[49.2,5000],[49.2,5083],[49.2,5166],[49.2,5257],[49.2,5333],[49.2,5416],[49.2,5500],[49.2,5583],[49.2,5674],[49.2,5750],[49.2,5833],[49.2,5917],[49.2,6007],[49.2,6083],[49.2,6166],[49.2,6257],[49.2,6333],[49.2,6417],[49.2,6500],[49.2,6583],[49.2,6667],[49.2,6750],[49.2,6833],[49.2,6917],[49.2,7000],[49.2,7083],[49.2,7167],[49.2,7250],[49.2,7333],[49.2,7424],[49.2,7507],[49.2,7583],[49.2,7667],[49.2,7750],[49.2,7833],[49.2,7924],[49.2,8000],[49.2,8083],[49.2,8172],[49.2,8250],[49.2,8333],[49.2,8417],[49.2,8510],[49.2,8591],[49.2,8667],[49.2,8750],[49.2,8841],[49.2,8917],[49.2,9000],[49.2,9083],[49.2,9167],[49.2,9250],[49.2,9333],[49.2,9417],[49.2,9508],[49.2,9583],[49.2,9667],[49.2,9750],[49.2,9834],[49.2,9917],[49.2,10000],[49.2,10084],[49.2,10167],[49.2,10250],[49.2,10334],[49.2,10417],[49.2,10500],[49.2,10591],[49.2,10674],[49.2,10750],[49.2,10834],[49.2,10917],[49.2,11000],[49.2,11084],[49.2,11167],[49.2,11250],[49.2,11334],[49.2,11417],[49.2,11500],[49.2,11591],[49.2,11667],[47.9,11758],[47.6,11841],[47.6,11917],[47.6,12000],[47.7,12091],[47.7,12174],[47.7,12250],[47.7,12341],[47.7,12417],[47.8,12508],[46.6,12591],[41,12675],[37.7,12758],[36.9,12841],[32.9,12925],[29.7,13008],[27.4,13091],[27.4,13174],[27.4,13250],[27.4,13334],[27.4,13417],[27.4,13500],[44.4,13591],[57.1,13675],[56.7,13758],[51.3,13841],[48.1,13925],[48.1,14000],[48.1,14084],[48.1,14167],[48,14251],[47.9,14334],[47.9,14424],[47.9,14500],[47.9,14591],[47.9,14667],[47.9,14751],[47.9,14841],[47.9,14917],[47.9,15000],[47.9,15084],[47.9,15167],[48,15250],[48.3,15341],[49.2,15425],[49.6,15508],[49.7,15591],[49.7,15675],[49.7,15751],[49.6,15834],[48,15925]]",1,0,338.0192,339.2949,49.84375,0.4828,"[{""rating"":49.84375,""responseTime"":0.4827999999523058}]",space,0.7295,,339.2949,All the time,100,349.9365,100,9.324,"[{""rating"":96.61458969116211,""responseTime"":3.0444000000357505},{""rating"":98.17708969116211,""responseTime"":3.240400000035777},{""rating"":100,""responseTime"":3.890400000035754},{""rating"":100,""responseTime"":4.260400000035759},{""rating"":100,""responseTime"":5.057000000000016},{""rating"":100,""responseTime"":9.324000000000012}]",space,0,10,10,10,1,audio/Narrative8Situation1.wav,audio/Narrative7Situation1.wav,audio/Narrative6Situation1.wav,audio/Narrative5Situation1.wav,5,2,2,5,,,10.1175,,,,,,,,,,,,,,,,,,,,,,,,,,,,,,,,,,,,
,,,,,,5fc8a956800c80232e0b7a32,2024-02-08_13h04.42.398,group3.1-3.2-social-tom,2023.2.2,Win32,59.52380952,65c5074098b851296ff0b7ed,65c5417c98b851296ff0c942,,,,,,,,,,,,,,,,,,,,,,,,,,,,,349.9367,1,audio/Narrative8Situation2.wav,352.9458,,352.9458,363.0541,"[[999,0],[999,83],[999,166],[999,249],[999,333],[999,416],[999,507],[999,583],[999,666],[999,749],[999,833],[999,916],[999,1000],[999,1083],[999,1166],[999,1250],[999,1333],[999,1416],[999,1500],[999,1583],[999,1674],[999,1750],[999,1833],[999,1916],[999,2000],[999,2090],[999,2166],[999,2250],[999,2340],[999,2416],[999,2500],[999,2583],[999,2666],[999,2750],[999,2833],[999,2916],[999,3000],[999,3088],[999,3166],[999,3250],[999,3333],[999,3416],[999,3500],[999,3583],[999,3666],[999,3750],[999,3833],[999,3916],[999,4000],[999,4083],[999,4167],[999,4250],[999,4333],[999,4417],[999,4500],[999,4583],[999,4667],[999,4757],[999,4833],[999,4917],[999,5000],[999,5091],[999,5167],[999,5250],[999,5333],[999,5417],[999,5500],[999,5583],[999,5667],[999,5750],[999,5833],[999,5917],[999,6007],[999,6083],[999,6167],[999,6257],[999,6333],[999,6417],[999,6500],[999,6583],[999,6667],[999,6757],[999,6833],[999,6917],[999,7000],[999,7083],[999,7167],[999,7250],[999,7334],[999,7417],[999,7500],[999,7583],[999,7667],[999,7750],[999,7834],[999,7917],[999,8000],[999,8083],[999,8167],[999,8250],[999,8334],[999,8417],[999,8500],[999,8589],[999,8667],[999,8750],[999,8841],[81.2,8930],[80.4,9008],[79.2,9091],[79.2,9175],[79.3,9250],[79.3,9334],[79.3,9417],[79.3,9500],[79.3,9584],[79.3,9667],[79.3,9750],[79.3,9834],[79.3,9917],[79.3,10001],[79.3,10090]]",1,0,363.0542,364.5967,79.32291985,1.0491,"[{""rating"":79.32291984558105,""responseTime"":1.0491000000238841}]",space,1.0002,,364.5967,All the time,100,364.5975,,,[],,0,11,11,11,1,audio/Narrative8Situation2.wav,audio/Narrative7Situation2.wav,audio/Narrative6Situation2.wav,audio/Narrative5Situation2.wav,3,3,3,3,,,,,,,,,,,,,,,,,,,,,,,,,,,,,,,,,,,,,,,
,,,,,,5fc8a956800c80232e0b7a32,2024-02-08_13h04.42.398,group3.1-3.2-social-tom,2023.2.2,Win32,59.52380952,65c5074098b851296ff0b7ed,65c5417c98b851296ff0c942,,,,,,,,,,,,,,,,,,,,,,,,,,,,,364.5977,1,audio/Narrative8Situation3.wav,368.6136,,368.6136,391.0063,"[[77.1,9175],[77.1,9250],[77.1,9334],[77.1,9424],[77.1,9500],[77.1,9584],[77.1,9674],[77.1,9750],[77.1,9834],[77.1,9917],[77.1,10000],[77.1,10084],[77.1,10174],[77.1,10250],[77.1,10334],[77.1,10424],[77.1,10508],[77.1,10584],[77.1,10667],[77.1,10750],[77.1,10834],[77.1,10917],[77.1,11001],[77.1,11084],[77.1,11167],[77.1,11250],[77.1,11334],[77.1,11417],[77.1,11500],[77.1,11584],[77.1,11675],[76.7,11750],[71.1,11841],[69.3,11925],[66.8,12008],[64,12091],[60.5,12175],[58.3,12258],[56.7,12341],[55.2,12425],[54,12508],[53,12591],[51.8,12675],[51.5,12750],[51.5,12834],[51.5,12917],[51.5,13001],[54.7,13091],[59.4,13175],[61.1,13258],[62.6,13341],[62.8,13417],[62.8,13501],[62.8,13584],[62.8,13667],[62.8,13750],[62.8,13834],[62.8,13917],[62.8,14001],[62.8,14084],[62.8,14167],[62.8,14251],[62.8,14334],[62.8,14417],[62.8,14500],[62.8,14584],[62.8,14667],[62.8,14758],[62.8,14834],[62.8,14917],[62.8,15001],[62.8,15084],[62.8,15167],[62.8,15251],[62.8,15334],[62.8,15417],[62.8,15501],[62.8,15584],[62.8,15667],[62.8,15751],[62.8,15839],[62.8,15917],[62.8,16001],[62.8,16084],[62.8,16168],[62.8,16251],[62.8,16334],[62.8,16425],[62.8,16501],[62.8,16584],[62.8,16667],[62.8,16751],[62.8,16834],[62.8,16918],[62.8,17001],[62.8,17091],[62.8,17168],[62.8,17251],[62.8,17342],[62.8,17418],[62.8,17501],[62.8,17584],[62.8,17673],[62.8,17751],[62.8,17834],[62.8,17918],[62.8,18001],[62.8,18091],[62.8,18168],[62.8,18251],[62.8,18334],[62.8,18418],[62.8,18501],[62.8,18591],[62.8,18668],[62.8,18751],[62.8,18834],[62.8,18925],[62.8,19008],[62.8,19084],[62.8,19168],[62.8,19251],[62.8,19334],[62.8,19418],[62.8,19501],[62.8,19584],[62.8,19668],[62.8,19751],[62.8,19834],[62.8,19918],[62.8,20001],[62.8,20084],[62.8,20168],[62.8,20251],[62.8,20334],[62.8,20425],[62.8,20501],[62.8,20592],[62.8,20668],[62.8,20751],[62.8,20842],[62.8,20918],[62.8,21001],[62.8,21084],[62.8,21175],[62.8,21251],[62.8,21334],[62.8,21418],[62.8,21501],[62.8,21584],[62.8,21668],[62.8,21751],[62.8,21842],[62.8,21918],[62.8,22009],[62.8,22090],[62.8,22168],[62.8,22251],[62.8,22334]]",1,0,391.0063,392.3154,62.86458969,0.4163,"[{""rating"":62.86458969116211,""responseTime"":0.41629999995234357}]",space,0.7741,,392.3154,Half the time,50,392.3172,,,[],,0,12,12,12,1,audio/Narrative8Situation3.wav,audio/Narrative7Situation3.wav,audio/Narrative6Situation3.wav,audio/Narrative5Situation3.wav,4,8,5,3,,,,,,,,,,,,,,,,,,,,,,,,,,,,,,,,,,,,,,,
,,,,,,5fc8a956800c80232e0b7a32,2024-02-08_13h04.42.398,group3.1-3.2-social-tom,2023.2.2,Win32,59.52380952,65c5074098b851296ff0b7ed,65c5417c98b851296ff0c942,,,,,,,,,,,,,,,,,,,,,,,,,,,,,392.3173,1,audio/Narrative8Situation4.wav,395.3322,,395.3323,409.5167,[],1,0,409.5168,410.8334,61.77083969,0.6016,"[{""rating"":61.7708396911621,""responseTime"":0.6016000000238364}]",space,0.7793,,410.8335,All the time,100,410.8349,,,[],,0,13,13,13,1,audio/Narrative8Situation4.wav,audio/Narrative7Situation4.wav,audio/Narrative6Situation4.wav,audio/Narrative5Situation4.wav,3,3,2,1,,,,,,,,,,,,,,,,,,,,,,,,,,,,,,,,,,,,,,,
,,,,,,5fc8a956800c80232e0b7a32,2024-02-08_13h04.42.398,group3.1-3.2-social-tom,2023.2.2,Win32,59.52380952,65c5074098b851296ff0b7ed,65c5417c98b851296ff0c942,,,,,,,,,,,,,,,,,,,,,,,,,,,,,410.835,1,audio/Narrative8Situation5.wav,412.8502,,412.8502,421.1008,[],1,0,421.1009,424.6012,50.26041985,2.736,"[{""rating"":50.26041984558105,""responseTime"":2.73599999999999}]",space,2.9669,,424.6012,Not at all,0,424.6026,,,[],,0,14,14,14,1,audio/Narrative8Situation5.wav,audio/Narrative7Situation5.wav,audio/Narrative6Situation5.wav,audio/Narrative5Situation5.wav,2,5,2,5,,,,,,,,,,,,,,,,,,,,,,,,,,,,,,,,,,,,,,,
,,,,,,5fc8a956800c80232e0b7a32,2024-02-08_13h04.42.398,group3.1-3.2-social-tom,2023.2.2,Win32,59.52380952,65c5074098b851296ff0b7ed,65c5417c98b851296ff0c942,,,,,,,,,,,,,,,,,,,,,,,,,,,,,424.6027,1,audio/Narrative8Situation6.wav,426.6179,,426.618,433.1018,[],1,0,433.1018,434.9524,34.16666985,1.5185,"[{""rating"":34.166669845581055,""responseTime"":1.5185000000000173}]",space,1.3236,,434.9524,All the time,100,434.9539,,,[],,0,15,15,15,1,audio/Narrative8Situation6.wav,audio/Narrative7Situation6.wav,audio/Narrative6Situation6.wav,audio/Narrative5Situation6.wav,2,3,2,3,,,,,,,,,,,,,,,,,,,,,,,,,,,,,,,,,,,,,,,
,,,,,,5fc8a956800c80232e0b7a32,2024-02-08_13h04.42.398,group3.1-3.2-social-tom,2023.2.2,Win32,59.52380952,65c5074098b851296ff0b7ed,65c5417c98b851296ff0c942,,,,,,,,,,,,,,,,,,,,,,,,,,,,,434.9541,1,audio/Narrative8Situation7.wav,437.9689,,437.9689,450.0697,"[[31.9,5257],[31.9,5333],[31.9,5417],[31.9,5507],[31.9,5583],[31.9,5666],[32.2,5750],[36.1,5841],[36.1,5916],[36.6,6008],[38.4,6091],[50.3,6166],[56,6258],[56,6333],[56,6424],[53.5,6508],[50.2,6591],[49.7,6674],[49.7,6750],[49.7,6833],[49.7,6917],[49.7,7000],[49.7,7083],[49.7,7167],[49.7,7250],[49.7,7333],[49.7,7417],[49.7,7500],[49.7,7583],[49.7,7667],[49.7,7757],[49.7,7833],[49.7,7917],[49.7,8000],[49.7,8088],[49.7,8167],[49.7,8250],[49.7,8333],[49.7,8417],[49.7,8506],[49.7,8583],[49.7,8667],[49.7,8750],[49.7,8833],[49.7,8917],[49.7,9000],[49.7,9091],[49.7,9167],[49.7,9250],[49.7,9333],[49.7,9424],[49.7,9500],[49.7,9591],[49.7,9667],[49.7,9750],[49.7,9833],[49.7,9917],[49.7,10000],[49.7,10083],[49.7,10174],[49.7,10250],[49.7,10334],[49.7,10424],[49.7,10508],[49.7,10584],[49.7,10673],[54.8,10758],[59.7,10841],[64.2,10924],[70.9,11008],[72.1,11091],[72.1,11167],[72.3,11258],[72.3,11334],[72.3,11417],[72.3,11500],[72.3,11584],[72.3,11667],[72.3,11750],[72.3,11834],[72.3,11917],[72.3,12000],[72.3,12084]]",1,0,450.0698,451.4697,72.39583969,0.9239,"[{""rating"":72.39583969116211,""responseTime"":0.9239000000358146}]",space,0.8671,,451.4697,Half the time,50,451.4713,,,[],,0,16,16,16,1,audio/Narrative8Situation7.wav,audio/Narrative7Situation7.wav,audio/Narrative6Situation7.wav,audio/Narrative5Situation7.wav,3,5,5,4,,,,,,,,,,,,,,,,,,,,,,,,,,,,,,,,,,,,,,,
,,,,,,5fc8a956800c80232e0b7a32,2024-02-08_13h04.42.398,group3.1-3.2-social-tom,2023.2.2,Win32,59.52380952,65c5074098b851296ff0b7ed,65c5417c98b851296ff0c942,,,,,,,,,,,,,,,,,,,,,,,,,,,,,451.4715,1,audio/Narrative8Situation8.wav,454.4868,,454.4869,467.3543,[],1,0,467.3544,468.0877,72.39583969,0.3861,"[{""rating"":72.39583969116211,""responseTime"":0.3861000000238164}]",space,0.1836,,468.0878,Half the time,50,468.0886,,,[],,0,17,17,17,1,audio/Narrative8Situation8.wav,audio/Narrative7Situation8.wav,audio/Narrative6Situation8.wav,audio/Narrative5Situation8.wav,3,2,5,3,,,,,,,,,,,,,,,,,,,,,,,,,,,,,,,,,,,,,,,
,,,,,,5fc8a956800c80232e0b7a32,2024-02-08_13h04.42.398,group3.1-3.2-social-tom,2023.2.2,Win32,59.52380952,65c5074098b851296ff0b7ed,65c5417c98b851296ff0c942,,,,,,,,,,,,,,,,,,,,,,,,,,,,,468.0887,1,audio/Narrative8Situation9.wav,471.1045,,471.1045,482.422,[],1,0,482.4221,483.8055,77.91666985,1.1346,"[{""rating"":86.30208969116211,""responseTime"":0.72019999998804},{""rating"":77.91666984558105,""responseTime"":1.1345999999641663}]",space,0.838,,483.8056,Not at all,0,483.8073,,,[],,0,18,18,18,1,audio/Narrative8Situation9.wav,audio/Narrative7Situation9.wav,audio/Narrative6Situation9.wav,audio/Narrative5Situation9.wav,3,2,4,3,,,,,,,,,,,,,,,,,,,,,,,,,,,,,,,,,,,,,,,
,,,,,,5fc8a956800c80232e0b7a32,2024-02-08_13h04.42.398,group3.1-3.2-social-tom,2023.2.2,Win32,59.52380952,65c5074098b851296ff0b7ed,65c5417c98b851296ff0c942,,,,,,,,,,,,,,,,,,,,,,,,,,,487.1438,489.7226,489.729,2,audio/Narrative13Situation2.wav,489.729,,489.729,519.4748,"[[78.4,8160],[78.4,8249],[78.4,8335],[78.4,8415],[78.4,8494],[79.5,8585],[80.6,8668],[80.7,8751],[80.7,8835],[80.7,8911],[80.7,9001],[80.7,9082],[80.7,9168],[80.7,9251],[80.7,9334],[80.7,9410],[80.7,9494],[80.7,9577],[80.7,9660],[80.7,9744],[80.7,9827],[80.7,9910],[80.7,10001],[80.7,10077],[80.7,10160],[80.7,10244],[80.7,10327],[80.7,10418],[80.7,10500],[80.7,10577],[80.7,10668],[80.7,10744],[80.7,10827],[80.7,10911],[80.7,10994],[80.7,11077],[80.7,11161],[80.7,11244],[80.7,11327],[80.7,11410],[80.7,11494],[80.7,11577],[79.8,11668],[74.3,11752],[73.6,11832],[70.8,11918],[60.1,12002],[57.9,12085],[55.7,12168],[53.3,12252],[53.2,12335],[53.2,12411],[53.1,12502],[52,12585],[51.1,12668],[50.6,12752],[50.4,12827],[50.4,12918],[50.4,13002],[50.4,13077],[50.4,13168],[50.4,13251],[50.4,13327],[50.4,13411],[50.4,13494],[50.4,13577],[50.4,13661],[50.4,13744],[50.4,13835],[50.4,13911],[50.4,13994],[50.4,14077],[50.4,14161],[50.4,14252],[50.4,14335],[50.4,14418],[50.4,14494],[50.4,14577],[50.4,14661],[50.4,14751],[50.4,14827],[50.4,14916],[50.4,15001],[50.4,15077],[50.4,15161],[50.4,15244],[50.4,15327],[50.4,15418],[50.4,15494],[50.4,15577],[50.4,15661],[50.4,15744],[50.4,15827],[50.4,15911],[50.4,15994],[50.4,16085],[50.5,16168],[50.5,16244],[50.5,16328],[50.5,16411],[50.5,16494],[50.5,16585],[50.5,16661],[50.5,16752],[50.4,16835],[50.4,16911],[50.4,17002],[50.4,17078],[50.4,17161],[50.4,17245],[50.4,17335],[50.4,17416],[50.4,17494],[50.4,17585],[50.4,17661],[50.4,17744],[50.4,17828],[50.4,17911],[50.4,17994],[50.4,18078],[50.4,18161],[50.4,18252],[50.4,18335],[50.4,18411],[50.4,18495],[50.4,18578],[50.4,18661],[50.4,18745],[50.4,18828],[50.4,18911],[50.4,18994],[50.4,19078],[50.4,19161],[50.4,19252],[50.4,19328],[50.4,19416],[50.4,19495],[50.4,19578],[50.4,19661],[50.4,19745],[50.4,19828],[50.4,19911],[50.4,19995],[50.4,20078],[50.4,20161],[50.4,20244],[50.4,20328],[50.4,20411],[50.4,20495],[50.4,20578],[50.4,20661],[50.4,20745],[50.4,20828],[50.4,20911],[50.4,21002],[50.4,21078],[50.4,21161],[50.4,21252],[50.4,21328],[50.4,21417],[50.4,21495],[50.4,21578],[50.4,21669],[50.4,21745],[50.4,21835],[50.4,21911],[50.4,21995],[50.4,22078],[50.4,22161],[50.4,22245],[50.4,22328],[50.4,22411],[50.4,22495],[50.4,22578],[50.4,22661],[50.4,22745],[50.4,22828],[50.4,22911],[50.4,23002],[50.4,23086],[50.4,23161],[50.4,23252],[50.4,23336],[50.4,23411],[50.4,23495],[50.4,23578],[50.4,23661],[50.5,23753],[50.5,23836],[50.6,23919],[50.7,23995],[50.7,24078],[50.7,24169],[50.7,24245],[50.7,24336],[50.7,24419],[50.7,24495],[50.7,24578],[50.7,24662],[50.7,24745],[50.7,24828],[50.7,24912],[50.7,24995],[50.7,25078],[50.7,25161],[50.7,25245],[50.7,25328],[50.7,25412],[50.7,25502],[50.7,25578],[50.7,25662],[50.7,25745],[50.7,25828],[50.7,25912],[50.7,25995],[50.7,26078],[50.7,26162],[50.7,26245],[50.7,26328],[50.7,26412],[50.7,26495],[50.7,26586],[50.7,26669],[50.7,26745],[50.7,26828],[50.7,26918],[50.7,27003],[50.7,27078],[50.7,27162],[50.7,27245],[50.7,27328],[50.7,27412],[50.7,27495],[50.7,27584],[50.7,27662],[50.7,27745],[50.7,27828],[50.7,27920],[50.7,27995],[50.7,28078],[50.7,28162],[50.7,28253],[50.7,28328],[50.7,28419],[50.7,28495],[50.7,28578],[50.7,28662],[50.7,28751],[50.7,28828],[50.7,28912],[50.7,29003],[50.7,29079],[50.7,29162],[50.7,29253],[50.7,29336],[50.7,29412],[50.7,29495],[50.7,29579],[50.7,29662],[50.7,29745]]",1,0,519.4749,519.4803,,,[],,,,519.4803,All the time,100,519.4815,,,[],,0,0,0,0,1,audio/Narrative13Situation2.wav,audio/Narrative13Situation2.wav,audio/Narrative13Situation2.wav,audio/Narrative13Situation2.wav,2,2,2,2,,,,,483.8077,487.1394,space,2.8026,,,,,,,,,,,,,,,,,,,,,,,,,,,,,,,
,,,,,,5fc8a956800c80232e0b7a32,2024-02-08_13h04.42.398,group3.1-3.2-social-tom,2023.2.2,Win32,59.52380952,65c5074098b851296ff0b7ed,65c5417c98b851296ff0c942,,,,,,,,,,,,,,,,,,,,,,,,,,,,,519.4817,2,audio/Narrative5Situation1.wav,524.4918,,524.4918,537.7762,"[[50.5,166],[50.5,256],[50.5,333],[50.5,424],[50.5,500],[50.5,583],[50.5,666],[50.5,749],[50.5,833],[50.5,916],[50.5,999],[50.5,1083],[50.5,1166],[50.5,1250],[50.5,1333],[50.5,1424],[50.5,1500],[50.5,1583],[50.5,1666],[50.5,1750],[50.5,1833],[50.5,1917],[50.5,2007],[50.5,2083],[50.5,2166],[50.5,2257],[50.5,2339],[50.5,2416],[50.5,2500],[50.5,2583],[50.5,2674],[50.5,2750],[50.5,2833],[50.5,2916],[50.5,3007],[50.5,3090],[50.5,3174],[50.5,3257],[50.5,3333],[50.5,3416],[50.5,3500],[50.5,3583],[50.5,3666],[50.5,3750],[50.5,3833],[50.5,3916],[50.5,4007],[50.5,4091],[50.5,4174],[50.5,4250],[50.5,4333],[50.5,4417],[50.5,4505],[50.5,4583],[50.5,4666],[50.5,4750],[50.5,4833],[50.5,4924],[50.5,5007],[50.5,5091],[50.5,5167],[50.5,5257],[50.5,5333],[50.5,5417],[50.5,5506],[50.5,5591],[50.5,5667],[50.5,5757],[50.5,5833],[50.5,5917],[50.5,6000],[50.5,6083],[50.5,6167],[50.5,6257],[50.5,6338],[50.5,6417],[50.5,6507],[50.5,6583],[50.5,6674],[50.5,6750],[50.5,6833],[50.5,6917],[50.5,7000],[50.5,7083],[50.5,7174],[50.5,7250],[50.5,7333],[50.5,7417],[50.5,7500],[50.5,7591],[50.5,7667],[50.5,7750],[50.5,7833],[50.5,7917],[50.5,8008],[50.5,8091],[50.5,8174],[50.5,8250],[50.5,8333],[50.5,8424],[50.5,8500],[73.4,8591],[91.1,8675],[91.3,8750],[91.2,8841],[88.6,8925],[83.3,9008],[82.4,9091],[79.2,9174],[78.2,9257],[78.2,9333],[78.2,9417],[78.2,9507],[78.2,9591],[78.2,9667],[78.2,9758],[78.2,9834],[78.2,9917],[78.2,10000],[78.2,10083],[78.2,10167],[78.2,10250],[78.2,10341],[78.2,10417],[78.2,10508],[78.2,10584],[78.2,10674],[78.2,10750],[78.2,10834],[78.2,10917],[78.2,11000],[78.2,11084],[78.2,11174],[78.2,11250],[78.2,11334],[78.2,11417],[78.2,11500],[78.2,11584],[78.2,11667],[78.2,11750],[78.2,11834],[78.2,11917],[78.2,12008],[78.2,12084],[78.2,12167],[78.2,12258],[78.2,12334],[78.2,12417],[78.2,12508],[78.2,12591],[78.2,12667],[78.2,12750],[78.2,12834],[78.2,12925],[78.2,13008],[78.2,13084],[78.2,13167],[78.2,13256]]",1,0,537.7762,539.3172,78.17708969,0.602,"[{""rating"":78.17708969116211,""responseTime"":0.6020000000000891}]",space,1.0014,,539.3173,Not at all,0,539.3187,,,[],,0,1,1,1,1,audio/Narrative7Situation1.wav,audio/Narrative8Situation1.wav,audio/Narrative5Situation1.wav,audio/Narrative6Situation1.wav,2,5,5,2,,,,,,,,,,,,,,,,,,,,,,,,,,,,,,,,,,,,,,,
,,,,,,5fc8a956800c80232e0b7a32,2024-02-08_13h04.42.398,group3.1-3.2-social-tom,2023.2.2,Win32,59.52380952,65c5074098b851296ff0b7ed,65c5417c98b851296ff0c942,,,,,,,,,,,,,,,,,,,,,,,,,,,,,539.3188,2,audio/Narrative5Situation2.wav,542.3264,,542.3264,571.812,"[[74.9,21259],[73.2,21342],[71.4,21425],[71.4,21509],[71.4,21584],[74.4,21675],[77.4,21759],[77.4,21834],[77.4,21918],[77.4,22001],[77.4,22084],[77.4,22168],[77.4,22251],[77.4,22334],[77.4,22418],[77.4,22501],[77.4,22584],[77.4,22668],[77.4,22759],[77.4,22834],[77.4,22918],[77.4,23001],[77.4,23084],[77.4,23168],[77.4,23259],[77.4,23334],[77.4,23426],[77.4,23509],[77.4,23585],[77.4,23668],[77.4,23751],[77.4,23835],[77.4,23918],[77.4,24001],[77.4,24092],[77.4,24168],[77.4,24251],[77.4,24335],[77.4,24418],[77.4,24501],[77.4,24585],[77.4,24675],[77.4,24751],[77.4,24835],[77.4,24925],[77.4,25009],[77.4,25085],[77.4,25168],[77.4,25259],[77.4,25335],[77.4,25418],[77.4,25501],[77.4,25585],[77.4,25673],[77.4,25751],[77.4,25842],[77.4,25918],[77.4,26001],[77.4,26085],[77.4,26168],[77.4,26251],[77.4,26342],[77.4,26426],[77.4,26501],[77.4,26585],[77.4,26668],[77.4,26752],[77.4,26842],[77.4,26918],[77.4,27002],[77.4,27085],[77.4,27168],[77.4,27251],[77.4,27335],[77.4,27418],[77.4,27509],[77.4,27585],[77.4,27668],[77.4,27759],[77.4,27835],[77.4,27918],[77.4,28002],[77.4,28085],[77.4,28168],[77.4,28252],[77.4,28335],[77.4,28418],[77.4,28501],[77.4,28585],[77.4,28668],[77.4,28759],[77.4,28835],[77.4,28918],[77.4,29002],[77.4,29092],[77.4,29176],[77.4,29252],[77.4,29335],[77.4,29418]]",1,0,571.8122,574.0026,78.80208969,1.2849,"[{""rating"":78.80208969116211,""responseTime"":1.2849000000358046}]",space,1.6396,,574.0026,Half the time,50,574.004,,,[],,0,2,2,2,1,audio/Narrative7Situation2.wav,audio/Narrative8Situation2.wav,audio/Narrative5Situation2.wav,audio/Narrative6Situation2.wav,3,3,3,3,,,,,,,,,,,,,,,,,,,,,,,,,,,,,,,,,,,,,,,
,,,,,,5fc8a956800c80232e0b7a32,2024-02-08_13h04.42.398,group3.1-3.2-social-tom,2023.2.2,Win32,59.52380952,65c5074098b851296ff0b7ed,65c5417c98b851296ff0c942,,,,,,,,,,,,,,,,,,,,,,,,,,,,,574.0042,2,audio/Narrative5Situation3.wav,577.0123,,577.0123,590.93,[],1,0,590.9301,593.9885,50.83333969,2.386,"[{""rating"":50.8333396911621,""responseTime"":2.3859999999999673}]",space,2.5344,,593.9885,Not at all,0,593.9897,,,[],,0,3,3,3,1,audio/Narrative7Situation3.wav,audio/Narrative8Situation3.wav,audio/Narrative5Situation3.wav,audio/Narrative6Situation3.wav,8,4,3,5,,,,,,,,,,,,,,,,,,,,,,,,,,,,,,,,,,,,,,,
,,,,,,5fc8a956800c80232e0b7a32,2024-02-08_13h04.42.398,group3.1-3.2-social-tom,2023.2.2,Win32,59.52380952,65c5074098b851296ff0b7ed,65c5417c98b851296ff0c942,,,,,,,,,,,,,,,,,,,,,,,,,,,,,593.9898,2,audio/Narrative5Situation4.wav,594.9969,,594.9969,615.3893,"[[50.7,20085],[50.7,20168],[50.7,20259],[50.7,20334]]",1,0,615.3894,616.582,50.72916985,0.1038,"[{""rating"":50.729169845581055,""responseTime"":0.10379999995234357}]",space,0.65,,616.582,All the time,100,616.5834,,,[],,0,4,4,4,1,audio/Narrative7Situation4.wav,audio/Narrative8Situation4.wav,audio/Narrative5Situation4.wav,audio/Narrative6Situation4.wav,3,3,1,2,,,,,,,,,,,,,,,,,,,,,,,,,,,,,,,,,,,,,,,
,,,,,,5fc8a956800c80232e0b7a32,2024-02-08_13h04.42.398,group3.1-3.2-social-tom,2023.2.2,Win32,59.52380952,65c5074098b851296ff0b7ed,65c5417c98b851296ff0c942,,,,,,,,,,,,,,,,,,,,,,,,,,,,,616.5835,2,audio/Narrative5Situation5.wav,621.599,,621.599,637.0405,"[[51.7,6012],[61,6091],[73.4,6174],[74.5,6258],[80.2,6341],[80.8,6421],[80.8,6500],[80.8,6583],[80.8,6674],[80.8,6757],[80.8,6833],[80.8,6917],[80.8,7006],[80.8,7083],[80.8,7167],[80.8,7250],[80.8,7333],[80.8,7417],[80.8,7500],[80.8,7583],[80.8,7674],[80.8,7750],[80.8,7841],[80.8,7924],[80.8,8000],[80.8,8083],[80.8,8174],[80.8,8250],[80.8,8341],[80.8,8417],[80.8,8500],[80.8,8583],[80.8,8667],[80.8,8750],[80.8,8834],[80.8,8917],[80.8,9000],[80.8,9091],[80.8,9167],[80.8,9250],[80.8,9333],[80.8,9417],[80.8,9500],[80.8,9584],[80.8,9667],[80.8,9750],[80.8,9834],[80.8,9924],[80.8,10000],[80.8,10084],[80.8,10167],[80.8,10250],[80.8,10334],[80.8,10417],[80.8,10508],[80.8,10584],[80.8,10667],[80.8,10758],[80.8,10839],[80.8,10918],[80.8,11008],[80.8,11091],[80.8,11167],[80.8,11250],[80.8,11341],[80.8,11424],[80.8,11500],[80.8,11591],[80.8,11667],[80.8,11750],[80.8,11834],[80.8,11917],[80.8,12008],[80.8,12084],[80.8,12167],[80.8,12250],[80.8,12334],[80.8,12425],[80.8,12501],[80.8,12584],[80.8,12678],[79.3,12758],[79.3,12834],[81.6,12925],[86.1,13008],[88.1,13091],[88.1,13173],[88.1,13258],[88.4,13341],[88.4,13417],[88.4,13500],[88.4,13584],[88.4,13667],[88.4,13750],[88.4,13841],[88.4,13924],[88.4,14000],[88.4,14091],[88.4,14167],[88.4,14250],[88.4,14334],[88.4,14424],[88.4,14508],[88.4,14591],[88.4,14667],[88.4,14750],[88.4,14839],[88.4,14917],[88.4,15001],[88.4,15084],[88.4,15167],[88.4,15258],[88.4,15334],[88.4,15425]]",1,0,637.0406,638.1002,88.38541985,0.2667,"[{""rating"":88.38541984558105,""responseTime"":0.26669999998807725}]",space,0.5204,,638.1003,All the time,100,638.1013,,,[],,0,5,5,5,1,audio/Narrative7Situation5.wav,audio/Narrative8Situation5.wav,audio/Narrative5Situation5.wav,audio/Narrative6Situation5.wav,5,2,5,2,,,,,,,,,,,,,,,,,,,,,,,,,,,,,,,,,,,,,,,
,,,,,,5fc8a956800c80232e0b7a32,2024-02-08_13h04.42.398,group3.1-3.2-social-tom,2023.2.2,Win32,59.52380952,65c5074098b851296ff0b7ed,65c5417c98b851296ff0c942,,,,,,,,,,,,,,,,,,,,,,,,,,,,,638.1016,2,audio/Narrative5Situation6.wav,641.117,,641.117,646.8082,"[[85.5,3007],[83.1,3091],[81.1,3174],[79.4,3258],[73.7,3341],[66,3424],[62.4,3508],[60.6,3591],[60.5,3667],[60.4,3750],[60.4,3840],[60.4,3917],[60.4,4000],[59.2,4090],[54.7,4174],[53.2,4257],[50.8,4341],[50.2,4424],[50.2,4500],[50.2,4583],[50.2,4667],[50.2,4757],[50.2,4840],[50.2,4924],[50.2,5007],[50.2,5091],[50.2,5167],[50.2,5250],[50.2,5341],[50.2,5417],[50.2,5500],[50.2,5591],[50.2,5667]]",1,0,646.8082,648.6419,50.15625,1.1029,"[{""rating"":50.15625,""responseTime"":1.1028999999761027}]",space,1.2935,,648.6419,Half the time,50,648.6433,,,[],,0,6,6,6,1,audio/Narrative7Situation6.wav,audio/Narrative8Situation6.wav,audio/Narrative5Situation6.wav,audio/Narrative6Situation6.wav,3,2,3,2,,,,,,,,,,,,,,,,,,,,,,,,,,,,,,,,,,,,,,,
,,,,,,5fc8a956800c80232e0b7a32,2024-02-08_13h04.42.398,group3.1-3.2-social-tom,2023.2.2,Win32,59.52380952,65c5074098b851296ff0b7ed,65c5417c98b851296ff0c942,,,,,,,,,,,,,,,,,,,,,,,,,,,,,648.6434,2,audio/Narrative5Situation7.wav,652.659,,652.659,673.7028,[],1,0,673.703,675.6271,66.77083969,1.2259,"[{""rating"":66.77083969116211,""responseTime"":1.2259000000358355}]",space,1.3753,,675.6271,Half the time,50,675.628,,,[],,0,7,7,7,1,audio/Narrative7Situation7.wav,audio/Narrative8Situation7.wav,audio/Narrative5Situation7.wav,audio/Narrative6Situation7.wav,5,3,4,5,,,,,,,,,,,,,,,,,,,,,,,,,,,,,,,,,,,,,,,
,,,,,,5fc8a956800c80232e0b7a32,2024-02-08_13h04.42.398,group3.1-3.2-social-tom,2023.2.2,Win32,59.52380952,65c5074098b851296ff0b7ed,65c5417c98b851296ff0c942,,,,,,,,,,,,,,,,,,,,,,,,,,,,,675.6281,2,audio/Narrative5Situation8.wav,678.6365,,678.6366,687.4704,[],1,0,687.4705,689.1932,75.57291985,0.8353,"[{""rating"":75.57291984558105,""responseTime"":0.8353000000118982}]",space,1.1837,,689.1932,Half the time,50,696.0619,50,4.4851,"[{""rating"":50,""responseTime"":4.485100000023863}]",space,0,8,8,8,1,audio/Narrative7Situation8.wav,audio/Narrative8Situation8.wav,audio/Narrative5Situation8.wav,audio/Narrative6Situation8.wav,2,3,3,5,,,6.3171,,,,,,,,,,,,,,,,,,,,,,,,,,,,,,,,,,,,
,,,,,,5fc8a956800c80232e0b7a32,2024-02-08_13h04.42.398,group3.1-3.2-social-tom,2023.2.2,Win32,59.52380952,65c5074098b851296ff0b7ed,65c5417c98b851296ff0c942,,,,,,,,,,,,,,,,,,,,,,,,,,,,,696.0664,2,audio/Narrative5Situation9.wav,699.0714,,699.0714,738.6316,"[[54.1,19009],[68.4,19092],[70.1,19175],[75.1,19259],[79,19342],[79,19417],[79,19501],[79,19584],[79,19675],[79,19757],[79,19841],[79,19918],[79,20008],[79,20092],[79,20168],[79,20256],[79,20342],[79.2,20425],[79.5,20509],[79.5,20584],[79.5,20668],[79.5,20751],[79.5,20841],[79.5,20918],[79.5,21001],[79.5,21091],[79.5,21175],[79.5,21251],[79.5,21334],[79.5,21425],[79.5,21501],[79.5,21592],[79.5,21668],[79.5,21758],[79.5,21834],[79.5,21918],[79.5,22001],[79.5,22084],[79.5,22168],[79.5,22258],[79.5,22334],[79.5,22418],[79.5,22501],[79.5,22584],[79.5,22668],[79.5,22751],[79.5,22834],[79.5,22925],[79.5,23009],[79.5,23092],[79.5,23175],[79.5,23258],[79.5,23334],[79.5,23418],[79.5,23501],[79.5,23584],[79.5,23675],[79.5,23759],[79.5,23841],[79.5,23918],[79.4,24014],[79.1,24092],[79,24168],[79,24251],[79,24335],[79,24418],[79,24506],[79.4,24592],[79.9,24676],[80.6,24759],[80.6,24842],[80.6,24925],[80.6,25001],[80.6,25090],[80.6,25168],[80.6,25259],[80.6,25340],[80.6,25418],[80.6,25501],[80.6,25592],[80.6,25668],[80.6,25757],[80.6,25835],[80.6,25918],[80.6,26009],[80.6,26085],[80.6,26175],[80.6,26251],[80.6,26342],[80.6,26418],[80.6,26501],[80.6,26592],[80.6,26668],[80.6,26759],[80.6,26842],[80.6,26925],[80.6,27001],[80.6,27085],[80.6,27168],[80.6,27251],[80.6,27342],[80.6,27418],[80.6,27509],[80.6,27585],[80.6,27668],[80.6,27759],[80.6,27841],[80.6,27925],[80.6,28009],[80.6,28092],[80.6,28168],[80.6,28251],[80.6,28342],[80.6,28418],[80.6,28501],[80.6,28585],[80.6,28668],[80.6,28751],[80.6,28835],[80.6,28918],[80.6,29001],[80.6,29085],[80.6,29168],[80.6,29252],[80.6,29335],[80.6,29418],[80.6,29501],[80.6,29585],[80.6,29668],[80.6,29752],[80.6,29835],[80.6,29918],[80.6,30001],[80.6,30085],[80.6,30174],[80.6,30259],[80.6,30335],[80.6,30418],[80.6,30502],[80.6,30585],[80.6,30668],[80.6,30752],[80.6,30842],[80.6,30918],[80.6,31002],[80.6,31085],[80.6,31176],[80.6,31252],[80.6,31335],[80.6,31426],[80.6,31509],[80.6,31585],[80.6,31668],[80.6,31752],[80.6,31842],[80.6,31918],[80.6,32009],[80.6,32085],[80.6,32168],[80.6,32252],[80.6,32335],[80.6,32426],[80.6,32509],[80.6,32585],[80.6,32676],[80.6,32752],[80.6,32835],[80.6,32918],[80.6,33009],[80.6,33085],[80.6,33168],[80.6,33259],[80.6,33343],[80.6,33419],[80.7,33509],[80.7,33590],[80.7,33668],[80.7,33759],[80.7,33835],[80.7,33926],[80.7,34002],[80.7,34085],[80.7,34169],[80.7,34252],[80.7,34343],[80.7,34419],[80.7,34502],[80.7,34586],[80.7,34669],[80.7,34759],[80.7,34842],[80.7,34919],[80.7,35007],[80.7,35092],[80.7,35169],[80.7,35252],[80.7,35335],[80.7,35426],[80.7,35502],[80.7,35585],[80.7,35676],[80.7,35752],[80.7,35835],[80.7,35926],[80.7,36009],[80.7,36085],[80.7,36169],[80.7,36252],[80.7,36335],[80.7,36426],[80.7,36502],[80.7,36586],[80.7,36676],[80.7,36752],[80.7,36835],[80.7,36924],[80.7,37002],[80.7,37093],[80.7,37169],[80.7,37252],[80.7,37336],[80.7,37419],[80.7,37502],[80.7,37585],[80.7,37669],[80.7,37760],[80.7,37836],[80.7,37926],[80.7,38009],[80.7,38086],[80.7,38176],[80.7,38252],[80.7,38336],[80.7,38419],[80.7,38502],[80.7,38586],[80.7,38676],[80.7,38752],[80.7,38843],[80.7,38919],[80.7,39002],[80.7,39086],[80.7,39176],[80.7,39252],[80.7,39336],[80.7,39419],[80.7,39510]]",1,0,738.6317,740.9141,80.72916985,1.2669,"[{""rating"":80.72916984558105,""responseTime"":1.26689999997609}]",space,1.7336,,740.9141,All the time,100,740.9155,,,[],,0,9,9,9,1,audio/Narrative7Situation9.wav,audio/Narrative8Situation9.wav,audio/Narrative5Situation9.wav,audio/Narrative6Situation9.wav,2,3,3,4,,,,,,,,,,,,,,,,,,,,,,,,,,,,,,,,,,,,,,,
,,,,,,5fc8a956800c80232e0b7a32,2024-02-08_13h04.42.398,group3.1-3.2-social-tom,2023.2.2,Win32,59.52380952,65c5074098b851296ff0b7ed,65c5417c98b851296ff0c942,,,,,,,,,,,,,,,,,,,,,,,,,,,,,740.9156,2,audio/Narrative6Situation1.wav,742.9246,,742.9246,769.5348,"[[82.1,7333],[82.1,7417],[82.1,7505],[82.1,7591],[69.5,7674],[61.8,7758],[61.6,7833],[55.9,7925],[53.7,8008],[51.5,8091],[50.4,8174],[49.7,8257],[49.7,8333],[49.7,8417],[49.7,8500],[49.7,8583],[49.7,8667],[49.7,8750],[49.7,8833],[49.7,8917],[49.7,9000],[49.7,9091],[49.7,9167],[49.7,9258],[49.7,9333],[49.7,9417],[49.7,9507],[49.7,9583],[49.7,9667],[49.7,9750],[49.7,9833],[49.7,9924],[49.7,10000],[49.7,10091],[49.7,10174],[49.7,10257],[49.7,10341],[49.7,10424],[49.7,10505],[49.7,10591],[49.7,10667],[49.7,10750],[49.7,10834],[49.7,10924],[49.7,11000],[49.7,11083],[49.7,11167],[49.7,11250],[49.6,11341],[49.6,11424],[49.5,11508],[49.5,11584],[49.4,11674],[49.4,11750],[49.4,11834],[49.4,11917],[49.4,12000],[49.4,12091],[49.4,12167],[49.4,12258],[49.4,12341],[49.4,12417],[49.4,12500],[49.4,12584],[49.4,12674],[49.4,12750],[49.4,12841],[49.4,12917],[49.4,13000],[49.4,13084],[49.4,13167],[49.4,13250],[49.4,13334],[49.4,13417],[49.4,13500],[49.4,13584],[49.4,13667],[49.4,13758],[49.4,13834],[49.4,13917],[49.4,14000],[49.4,14091],[49.4,14167],[49.4,14250],[49.4,14334],[49.4,14417],[49.4,14501],[49.4,14584],[49.4,14674],[49.4,14751],[49.4,14834],[49.4,14917],[49.4,15008],[49.4,15084],[49.4,15174],[49.4,15251],[49.4,15334],[49.4,15417],[49.4,15500],[49.4,15584],[49.4,15667],[49.4,15751],[49.4,15841],[49.4,15917],[49.4,16008],[49.4,16084],[49.4,16167],[49.4,16251],[49.4,16334],[49.4,16417],[49.4,16501],[49.4,16584],[49.4,16667],[49.4,16751],[49.4,16834],[49.4,16917],[49.4,17001],[49.4,17084],[49.4,17167],[49.4,17258],[49.4,17334],[49.4,17417],[49.4,17501],[49.4,17584],[49.4,17668],[49.4,17756],[49.4,17834],[49.4,17917],[49.4,18001],[49.4,18092],[49.4,18175],[49.4,18251],[49.4,18334],[49.4,18418],[49.4,18501],[49.4,18584],[49.4,18667],[49.4,18759],[49.4,18834],[49.4,18925],[49.4,19008],[49.4,19091],[49.4,19174],[49.4,19251],[49.4,19334],[49.4,19418],[49.4,19508],[49.4,19584],[49.4,19668],[49.4,19758],[49.4,19834],[49.4,19918],[49.4,20001],[49.4,20084],[49.4,20168],[49.4,20251],[49.4,20334],[49.4,20418],[49.4,20501],[49.4,20584],[49.4,20668],[49.4,20751],[49.4,20841],[49.4,20918],[49.4,21008],[49.4,21084],[49.4,21168],[49.4,21258],[49.4,21334],[49.4,21418],[49.4,21501],[49.4,21585],[49.4,21675],[49.4,21751],[49.4,21834],[49.4,21918],[49.4,22001],[49.4,22092],[49.4,22168],[49.4,22251],[49.4,22334],[49.4,22418],[49.4,22508],[49.4,22584],[49.4,22668],[49.4,22757],[49.4,22834],[49.4,22918],[49.4,23001],[49.4,23084],[49.4,23168],[49.4,23251],[49.4,23334],[49.4,23418],[49.4,23501],[49.4,23584],[49.4,23668],[49.4,23751],[49.4,23834],[49.4,23918],[49.4,24009],[49.4,24084],[49.4,24168],[49.4,24251],[49.4,24334],[49.4,24418],[49.4,24501],[49.4,24592],[49.4,24675],[49.4,24751],[49.4,24835],[49.4,24918],[49.4,25001],[49.4,25085],[49.4,25168],[49.4,25251],[49.4,25335],[49.4,25425],[49.4,25501],[49.4,25585],[49.4,25668],[49.4,25758],[49.4,25842],[49.4,25918],[49.4,26009],[49.4,26085],[49.4,26168],[49.4,26251],[49.4,26342],[49.4,26418],[49.4,26509],[49.4,26585]]",1,0,769.5349,770.6265,49.375,0.3277,"[{""rating"":49.375,""responseTime"":0.3277000000476846}]",space,0.5601,,770.6266,All the time,100,770.6274,,,[],,0,10,10,10,1,audio/Narrative8Situation1.wav,audio/Narrative7Situation1.wav,audio/Narrative6Situation1.wav,audio/Narrative5Situation1.wav,5,2,2,5,,,,,,,,,,,,,,,,,,,,,,,,,,,,,,,,,,,,,,,
,,,,,,5fc8a956800c80232e0b7a32,2024-02-08_13h04.42.398,group3.1-3.2-social-tom,2023.2.2,Win32,59.52380952,65c5074098b851296ff0b7ed,65c5417c98b851296ff0c942,,,,,,,,,,,,,,,,,,,,,,,,,,,,,770.6275,2,audio/Narrative6Situation2.wav,773.6435,,773.6436,802.1623,"[[49.3,25842],[48.2,25926],[33.2,26092],[24.6,26426],[22.7,26509],[22.6,26592],[22.6,26668],[22.6,26751],[22.6,26842],[22.6,26918],[22.6,27001],[22.6,27092],[22.6,27175],[22.4,27252],[22.1,27335],[22.1,27418],[21.6,27509],[21.3,27585],[21.3,27668],[21.3,27752],[21.1,27842],[21.1,27925],[21.1,28009],[21.6,28093],[21.7,28175],[21.7,28252]]",1,0,802.1624,803.0124,22.13541985,0.6085,"[{""rating"":22.135419845581055,""responseTime"":0.6085000000000491}]",space,0.3032,,803.0125,All the time,100,803.0133,,,[],,0,11,11,11,1,audio/Narrative8Situation2.wav,audio/Narrative7Situation2.wav,audio/Narrative6Situation2.wav,audio/Narrative5Situation2.wav,3,3,3,3,,,,,,,,,,,,,,,,,,,,,,,,,,,,,,,,,,,,,,,
,,,,,,5fc8a956800c80232e0b7a32,2024-02-08_13h04.42.398,group3.1-3.2-social-tom,2023.2.2,Win32,59.52380952,65c5074098b851296ff0b7ed,65c5417c98b851296ff0c942,,,,,,,,,,,,,,,,,,,,,,,,,,,,,803.0135,2,audio/Narrative6Situation3.wav,808.0296,,808.0296,820.6469,"[[31.6,8258],[38.1,8341],[43.8,8424],[47.3,8507],[47.3,8583],[50.3,8674],[50.3,8750],[50.3,8833],[50.3,8924],[50.3,9000],[50.3,9083],[50.3,9167],[50.3,9250],[50.3,9333],[50.3,9416],[50.3,9500],[50.3,9583],[50.3,9667],[50.3,9750],[50.3,9833],[50.3,9917],[50.3,10006],[50.3,10091],[50.3,10174],[50.3,10250],[50.3,10333],[50.3,10416],[50.3,10508],[50.3,10583],[50.3,10667],[50.3,10750],[50.3,10833],[50.3,10917],[50.3,11000],[50.3,11083],[50.3,11167],[50.3,11250],[50.3,11333],[50.3,11424],[50.3,11508],[50.3,11583],[50.3,11667],[50.3,11757],[50.3,11833],[50.3,11917],[50.3,12000],[50.3,12083],[50.3,12174],[50.3,12257],[50.3,12333],[50.3,12417],[50.3,12508],[50.3,12591]]",1,0,820.647,821.8304,50.3125,0.4354,"[{""rating"":50.31250000000001,""responseTime"":0.43539999997619816}]",space,0.6336,,821.8304,Not at all,0,821.8317,,,[],,0,12,12,12,1,audio/Narrative8Situation3.wav,audio/Narrative7Situation3.wav,audio/Narrative6Situation3.wav,audio/Narrative5Situation3.wav,4,8,5,3,,,,,,,,,,,,,,,,,,,,,,,,,,,,,,,,,,,,,,,
,,,,,,5fc8a956800c80232e0b7a32,2024-02-08_13h04.42.398,group3.1-3.2-social-tom,2023.2.2,Win32,59.52380952,65c5074098b851296ff0b7ed,65c5417c98b851296ff0c942,,,,,,,,,,,,,,,,,,,,,,,,,,,,,821.8318,2,audio/Narrative6Situation4.wav,823.8473,,823.8473,836.4725,"[[87.7,12591]]",1,0,836.4726,837.3648,76.45833969,0.6501,"[{""rating"":76.45833969116211,""responseTime"":0.6501000000238264}]",space,0.3491,,837.3649,Not at all,0,837.3658,,,[],,0,13,13,13,1,audio/Narrative8Situation4.wav,audio/Narrative7Situation4.wav,audio/Narrative6Situation4.wav,audio/Narrative5Situation4.wav,3,3,2,1,,,,,,,,,,,,,,,,,,,,,,,,,,,,,,,,,,,,,,,
,,,,,,5fc8a956800c80232e0b7a32,2024-02-08_13h04.42.398,group3.1-3.2-social-tom,2023.2.2,Win32,59.52380952,65c5074098b851296ff0b7ed,65c5417c98b851296ff0c942,,,,,,,,,,,,,,,,,,,,,,,,,,,,,837.3659,2,audio/Narrative6Situation5.wav,839.3817,,839.3817,847.3395,"[[70.4,2091],[65.3,2174],[64.5,2257],[60.5,2341],[54.4,2424],[48.7,2507],[47.7,2583],[47.6,2666],[47.6,2757],[49.5,2841],[50.4,2924],[50.4,3006],[50.4,3083],[50.4,3166],[50.4,3250],[50.4,3338],[50.4,3424],[50.4,3500],[50.4,3583],[50.4,3666],[50.4,3750],[50.4,3840],[50.4,3924],[50.4,4000],[50.4,4083],[50.4,4174],[50.4,4250],[50.4,4333],[50.4,4424],[50.4,4500],[50.4,4583],[50.4,4666],[50.4,4750],[50.4,4841],[50.4,4924],[50.4,5005],[50.4,5083],[50.4,5174],[50.4,5257],[50.4,5341],[50.4,5424],[50.4,5506],[50.4,5591],[50.4,5666],[50.4,5750],[50.4,5833],[50.4,5916],[50.4,6000],[50.4,6083],[50.4,6166],[50.4,6250],[50.4,6333],[50.4,6417],[50.4,6500],[50.4,6583],[50.4,6667],[50.4,6750],[50.4,6833],[50.4,6917],[50.4,7000],[50.4,7091],[50.4,7167],[50.4,7250],[50.4,7341],[50.4,7417],[50.4,7500],[50.4,7591],[50.4,7667],[50.4,7750],[50.4,7841],[50.4,7924]]",1,0,847.3396,848.6157,50.41666985,0.8946,"[{""rating"":50.416669845581055,""responseTime"":0.8946000000238428}]",space,0.7336,,848.6157,All the time,100,848.6175,,,[],,0,14,14,14,1,audio/Narrative8Situation5.wav,audio/Narrative7Situation5.wav,audio/Narrative6Situation5.wav,audio/Narrative5Situation5.wav,2,5,2,5,,,,,,,,,,,,,,,,,,,,,,,,,,,,,,,,,,,,,,,
,,,,,,5fc8a956800c80232e0b7a32,2024-02-08_13h04.42.398,group3.1-3.2-social-tom,2023.2.2,Win32,59.52380952,65c5074098b851296ff0b7ed,65c5417c98b851296ff0c942,,,,,,,,,,,,,,,,,,,,,,,,,,,,,848.6176,2,audio/Narrative6Situation6.wav,850.6324,,850.6324,861.7074,[],1,0,861.7075,862.9001,49.63541985,0.8111,"[{""rating"":49.635419845581055,""responseTime"":0.8111000000237709}]",space,0.6497,,862.9002,Not at all,0,862.9018,,,[],,0,15,15,15,1,audio/Narrative8Situation6.wav,audio/Narrative7Situation6.wav,audio/Narrative6Situation6.wav,audio/Narrative5Situation6.wav,2,3,2,3,,,,,,,,,,,,,,,,,,,,,,,,,,,,,,,,,,,,,,,
,,,,,,5fc8a956800c80232e0b7a32,2024-02-08_13h04.42.398,group3.1-3.2-social-tom,2023.2.2,Win32,59.52380952,65c5074098b851296ff0b7ed,65c5417c98b851296ff0c942,,,,,,,,,,,,,,,,,,,,,,,,,,,,,862.9019,2,audio/Narrative6Situation7.wav,867.9172,,867.9172,892.7764,"[[999,4],[999,83],[999,166],[999,249],[999,333],[999,416],[999,507],[999,583],[999,666],[999,749],[999,833],[999,916],[999,999],[999,1083],[999,1166],[999,1249],[999,1333],[999,1424],[999,1500],[999,1590],[999,1666],[999,1749],[999,1833],[999,1923],[999,2000],[999,2090],[999,2166],[999,2250],[999,2340],[999,2416],[999,2500],[999,2590],[999,2666],[999,2750],[999,2833],[999,2924],[999,3000],[999,3083],[999,3174],[999,3250],[999,3333],[999,3424],[999,3500],[999,3583],[999,3666],[999,3750],[999,3841],[999,3916],[999,4007],[999,4083],[999,4166],[999,4250],[999,4333],[999,4416],[999,4500],[999,4583],[999,4674],[999,4750],[999,4833],[999,4924],[999,5000],[999,5083],[999,5166],[999,5250],[999,5333],[999,5416],[999,5500],[999,5583],[999,5666],[999,5750],[999,5833],[999,5924],[999,6000],[999,6083],[999,6167],[999,6250],[999,6333],[999,6422],[999,6500],[999,6583],[999,6667],[999,6750],[999,6833],[999,6917],[999,7000],[999,7083],[999,7167],[999,7250],[999,7333],[999,7424],[999,7500],[999,7583],[999,7667],[999,7750],[999,7833],[999,7917],[999,8000],[999,8083],[999,8175],[999,8250],[999,8333],[999,8417],[999,8500],[999,8583],[999,8667],[999,8757],[999,8833],[999,8917],[999,9006],[999,9083],[999,9174],[999,9250],[999,9333],[999,9425],[999,9508],[999,9583],[999,9667],[999,9758],[60.2,9842],[58.2,9925],[55.8,10258],[53.8,10342],[52.4,10424],[52.4,10500],[52.4,10583],[52.3,10678],[52.1,10750],[51.6,10841],[51.2,10924],[50.9,11008],[50,11091],[49.7,11174],[48.9,11258],[43.6,11341],[36.4,11424],[34,11508],[33.8,11584],[33.8,11667],[33.8,11755],[36.4,11841],[42.1,11924],[45.3,12008],[48.2,12091],[48.4,12167],[48.8,12258],[49.4,12341],[49.4,12417],[49.7,12507],[49.7,12583],[49.7,12667],[49.7,12758],[49.7,12834],[49.8,12924],[49.8,13008],[49.8,13084],[49.8,13167],[49.8,13258],[49.8,13334],[49.8,13417],[49.8,13500],[49.8,13589],[49.8,13674],[49.8,13750],[49.8,13834],[49.8,13924],[49.8,14008],[49.8,14084],[49.8,14167],[49.8,14250],[49.8,14341],[49.8,14417],[49.8,14500],[49.8,14584],[49.8,14667],[49.8,14758],[49.8,14834],[49.8,14917],[49.8,15000],[49.8,15084],[49.8,15167],[49.8,15250],[49.8,15341],[49.8,15417],[49.8,15500],[49.8,15591],[49.8,15675],[49.8,15758],[49.8,15834],[49.8,15917],[49.8,16008],[49.8,16084],[49.8,16175],[49.8,16251],[49.8,16334],[49.8,16417],[49.8,16501],[49.8,16584],[49.8,16667],[49.8,16750],[49.8,16834],[49.8,16924],[49.8,17001],[49.8,17089],[49.8,17167],[49.8,17258],[49.8,17334],[49.8,17424],[49.8,17501],[49.8,17584],[49.8,17674],[49.8,17751],[49.8,17834],[49.6,17925],[44.9,18009],[40.1,18092],[36.8,18175],[29.5,18258],[20.1,18342],[16.4,18425],[15.8,18501],[15.8,18591],[15.9,18668],[20.4,18758],[23.4,18841],[24.2,18925],[25.7,19008],[25.6,19084],[25.6,19175],[25.6,19257],[32.8,19342],[44.9,19425],[45.9,19508],[46.4,19592],[48.1,19675],[49.2,19758],[49.8,19842],[49.9,19917],[49.9,20001],[49.9,20084],[49.9,20168],[49.9,20251],[49.9,20334],[49.9,20425],[49.9,20508],[49.9,20584],[49.9,20673],[49.9,20751],[50.1,20841],[50.4,20925],[50.5,21001],[50.5,21084],[50.5,21175],[50.4,21251],[50.3,21341],[50.2,21425],[50.2,21501],[50.2,21584],[50.2,21668],[50.2,21756],[50.2,21842],[50.2,21918],[50.2,22008],[50.2,22084],[50.2,22168],[50.2,22251],[50.2,22334],[50.2,22418],[50.2,22501],[50.2,22584],[50.2,22675],[50.2,22751],[50.2,22834],[50.2,22925],[50.2,23001],[50.2,23084],[50.2,23168],[50.2,23251],[50.2,23334],[50.2,23418],[50.2,23501],[50.2,23584],[50.2,23675],[50.2,23759],[50.2,23835],[50.2,23918],[50.2,24001],[50.2,24092],[50.2,24168],[50.2,24259],[50.2,24342],[50.2,24425],[50.2,24501],[50.2,24584],[50.2,24668],[50.2,24759],[50.2,24842]]",1,0,892.7764,893.4358,50.10416985,0.503,"[{""rating"":50.10416984558106,""responseTime"":0.5030000000000427}]",space,0.1186,,893.4359,Not at all,0,893.4368,,,[],,0,16,16,16,1,audio/Narrative8Situation7.wav,audio/Narrative7Situation7.wav,audio/Narrative6Situation7.wav,audio/Narrative5Situation7.wav,3,5,5,4,,,,,,,,,,,,,,,,,,,,,,,,,,,,,,,,,,,,,,,
,,,,,,5fc8a956800c80232e0b7a32,2024-02-08_13h04.42.398,group3.1-3.2-social-tom,2023.2.2,Win32,59.52380952,65c5074098b851296ff0b7ed,65c5417c98b851296ff0c942,,,,,,,,,,,,,,,,,,,,,,,,,,,,,893.437,2,audio/Narrative6Situation8.wav,898.4528,,898.4528,905.3272,"[[999,4],[999,83],[999,166],[999,257],[999,333],[999,416],[999,499],[999,583],[999,666],[999,749],[999,833],[999,916],[999,999],[999,1083],[999,1174],[999,1257],[999,1340],[999,1424],[53.4,1757],[54,1841],[52.9,1924],[52.2,2007],[51.8,2091],[51.1,2174],[51,2257],[50.8,2340],[50.8,2416],[50.8,2500],[50.8,2583],[50.8,2666],[50.8,2757],[50.8,2833],[50.8,2923],[50.8,3000],[50.8,3083],[50.8,3166],[50.8,3257],[50.8,3340],[50.8,3423],[50.8,3500],[50.8,3583],[50.8,3666],[50.8,3757],[50.8,3833],[50.8,3924],[50.8,4007],[50.8,4083],[50.8,4166],[50.8,4250],[50.8,4340],[50.8,4416],[50.8,4500],[50.8,4583],[50.8,4667],[50.8,4757],[50.8,4840],[50.8,4916],[50.8,5000],[50.8,5083],[50.8,5166],[50.8,5250],[50.8,5341],[50.8,5424],[50.8,5507],[50.8,5590],[50.8,5666],[50.8,5750],[50.8,5833],[50.8,5924],[50.8,6007],[50.8,6083],[50.8,6167],[50.8,6257],[50.8,6333],[50.8,6424],[50.8,6500],[50.8,6591],[50.8,6674],[50.8,6750],[50.8,6841]]",1,0,905.3272,907.4609,48.85416985,1.928,"[{""rating"":48.854169845581055,""responseTime"":1.9279999999999973}]",space,1.5883,,907.4609,Not at all,0,907.4617,,,[],,0,17,17,17,1,audio/Narrative8Situation8.wav,audio/Narrative7Situation8.wav,audio/Narrative6Situation8.wav,audio/Narrative5Situation8.wav,3,2,5,3,,,,,,,,,,,,,,,,,,,,,,,,,,,,,,,,,,,,,,,
,,,,,,5fc8a956800c80232e0b7a32,2024-02-08_13h04.42.398,group3.1-3.2-social-tom,2023.2.2,Win32,59.52380952,65c5074098b851296ff0b7ed,65c5417c98b851296ff0c942,,,,,,,,,,,,,,,,,,,,,,,,,,,,,907.4618,2,audio/Narrative6Situation9.wav,911.4703,,911.4703,921.4117,[],1,0,921.4118,923.0775,68.59375,1.3779,"[{""rating"":68.59375,""responseTime"":1.37789999997608}]",space,1.119,,923.0775,Half the time,50,923.0787,,,[],,0,18,18,18,1,audio/Narrative8Situation9.wav,audio/Narrative7Situation9.wav,audio/Narrative6Situation9.wav,audio/Narrative5Situation9.wav,3,2,4,3,,,,,,,,,,,,,,,,,,,,,,,,,,,,,,,,,,,,,,,
,,,,,,5fc8a956800c80232e0b7a32,2024-02-08_13h04.42.398,group3.1-3.2-social-tom,2023.2.2,Win32,59.52380952,65c5074098b851296ff0b7ed,65c5417c98b851296ff0c942,,,,,,,,,,,,,,,,,,,,,,,,,,,,,,,,,,,,,,,,,,,,,,,,,,,,,,,,,,,,,,,,,,,,,,,,923.0788,925.8624,space,2.264,,925.8625,935.9394,space,9.7366,,,,,,,,,,,,,,,,,,,,,,,,,,
,,,,,,5fc8a956800c80232e0b7a32,2024-02-08_13h04.42.398,group3.1-3.2-social-tom,2023.2.2,Win32,59.52380952,65c5074098b851296ff0b7ed,65c5417c98b851296ff0c942,,,,,,,,,,,,,,,,,,,,,,,,,,,,,938.529,1,audio/Narrative8Situation9.wav,940.5297,,,,,,,972.4312,976.9824,72.5,2.8997,"[{""rating"":72.5,""responseTime"":2.8996999999881155}]",space,3.9992,,972.4252,All the time,100,972.4312,,,[],,,,,,,,,,,2,2,2,2,,,,,,,,,,,,,,,935.9449,938.5224,940.5299,3,972.4251,"[[999,0],[999,87],[999,166],[999,250],[999,333],[999,409],[999,499],[999,583],[999,666],[999,742],[999,825],[999,909],[999,999],[999,1075],[999,1166],[999,1242],[999,1333],[999,1416],[999,1492],[999,1576],[999,1666],[999,1750],[999,1833],[999,1909],[999,1992],[999,2076],[999,2166],[999,2242],[999,2326],[999,2416],[999,2492],[999,2576],[999,2666],[999,2750],[999,2826],[999,2916],[999,3000],[999,3083],[999,3159],[999,3250],[999,3326],[999,3416],[999,3500],[999,3576],[999,3659],[999,3742],[999,3833],[999,3909],[999,3992],[999,4076],[999,4159],[999,4250],[999,4333],[999,4409],[999,4492],[999,4576],[999,4659],[999,4750],[999,4833],[999,4909],[999,4992],[999,5076],[999,5166],[999,5242],[999,5326],[999,5417],[999,5500],[999,5583],[70.8,5667],[70.5,5750],[69.3,5833],[64.8,5917],[59.3,6000],[57.3,6083],[56.9,6167],[53.3,6246],[50.8,6330],[50.8,6409],[50.8,6496],[50.8,6576],[50.8,6664],[50.8,6746],[50.8,6826],[50.8,6913],[50.8,6996],[50.8,7079],[50.8,7159],[50.8,7242],[50.8,7326],[50.8,7409],[50.8,7492],[50.8,7576],[50.8,7662],[50.8,7742],[50.8,7830],[50.9,7913],[52.1,7997],[55.3,8084],[58.3,8167],[59.1,8243],[59.1,8326],[59.1,8417],[59.1,8500],[59.1,8576],[59.1,8659],[59.1,8743],[59.1,8833],[59.2,8917],[59.2,8993],[59.2,9083],[59.2,9159],[59.2,9250],[59.2,9326],[59.2,9409],[59.2,9500],[59.2,9584],[59.2,9659],[60.4,9750],[69.7,9834],[76.7,9917],[81.5,10000],[82.9,10084],[84.2,10167],[85.5,10250],[85.5,10326],[85.5,10410],[85.5,10493],[85.5,10584],[85.5,10660],[85.5,10750],[85.5,10826],[85.5,10917],[85.5,11000],[85.5,11076],[85.5,11167],[85.5,11250],[85.5,11334],[85.5,11410],[85.5,11493],[85.5,11583],[85.5,11667],[85.5,11750],[85.5,11833],[85.5,11910],[85.5,11993],[85.5,12076],[85.5,12167],[85.5,12250],[85.5,12326],[85.5,12410],[85.5,12493],[85.5,12576],[85.5,12660],[85.5,12743],[85.5,12834],[85.5,12910],[85.5,12993],[85.5,13076],[85.5,13167],[85.5,13250],[85.5,13326],[85.5,13418],[85.5,13493],[85.5,13576],[85.5,13667],[85.5,13743],[85.5,13826],[85.5,13910],[85.5,14000],[85.5,14084],[85.5,14167],[85.5,14250],[85.5,14334],[85.5,14410],[85.5,14500],[85.5,14584],[85.5,14665],[85.5,14750],[85.5,14826],[85.5,14910],[85.5,14993],[85.5,15076],[85.5,15160],[85.5,15243],[85.5,15326],[85.5,15410],[85.5,15500],[85.5,15584],[85.5,15660],[85.5,15749],[85.5,15827],[85.5,15917],[85.5,15993],[85.5,16077],[85.5,16160],[85.5,16243],[85.5,16327],[85.5,16410],[85.5,16493],[85.5,16577],[85.5,16660],[85.5,16751],[85.5,16834],[85.5,16910],[85.5,16993],[85.5,17084],[85.5,17160],[85.5,17250],[85.5,17332],[85.5,17410],[85.5,17493],[85.5,17577],[85.5,17665],[85.5,17751],[85.5,17827],[85.5,17910],[85.5,17993],[85.5,18077],[85.5,18167],[85.5,18243],[85.5,18327],[85.5,18410],[85.5,18493],[85.5,18577],[85.5,18660],[85.5,18743],[85.5,18834],[85.5,18910],[85.5,19001],[85.5,19077],[85.5,19160],[85.4,19243],[79.3,19334],[78.5,19410],[78.5,19493],[77.2,19584],[76.9,19660],[76.9,19743],[76.9,19827],[76.9,19917],[76.9,19994],[76.9,20085],[76.9,20160],[76.9,20251],[76.9,20327],[76.9,20410],[76.9,20493],[76.9,20582],[76.9,20667],[76.9,20751],[76.9,20834],[76.9,20910],[76.9,21001],[76.9,21077],[76.9,21160],[76.9,21251],[76.9,21335],[76.9,21417],[76.9,21501],[76.9,21584],[76.9,21667],[76.9,21751],[76.9,21834],[76.9,21917],[76.9,21994],[76.9,22077],[76.9,22167],[76.9,22244],[76.9,22327],[76.9,22410],[76.9,22494],[76.9,22585],[76.9,22666],[76.9,22751],[76.9,22827],[76.9,22910],[76.9,23001],[76.9,23085],[76.9,23168],[76.9,23251],[76.9,23327],[76.9,23419],[76.9,23494],[76.9,23584],[76.8,23673],[76.6,23751],[76.5,23827],[76.3,23918],[76.3,23994],[76.3,24085],[76.2,24168],[76.1,24251],[76.1,24327],[76,24418],[75.6,24502],[75.5,24577],[75.4,24661],[75.4,24744],[75.2,24835],[75.1,24910],[75.1,24994],[75.1,25085],[74.7,25168],[74.7,25251],[74.8,25334],[74.2,25418],[74,25501],[74,25577],[74,25661],[74,25751],[74,25827],[74,25911],[73.9,26001],[74.1,26085],[74.1,26168],[74.1,26244],[74.1,26335],[74.1,26418],[74.1,26501],[74.1,26577],[74.1,26667],[74.1,26752],[74.1,26835],[74.1,26911],[74.1,27001],[74.1,27085],[74.1,27161],[74.1,27251],[74.1,27333],[74.1,27416],[74.1,27501],[74.1,27585],[74.1,27667],[74.1,27751],[74.1,27835],[74.1,27918],[74.1,27994],[74.1,28077],[74.1,28169],[74.1,28251],[74.1,28335],[74.1,28411],[74.1,28494],[74.1,28577],[74.1,28661],[74.1,28744],[74.1,28828],[74.1,28911],[74.1,28995],[74.1,29085],[74.1,29168],[74.1,29252],[74.1,29327],[74.1,29411],[74.1,29502],[74.1,29585],[74.1,29668],[74.1,29752],[74.1,29828],[74.1,29911],[74.1,29994],[74.1,30086],[74.1,30161],[74.1,30244],[74.1,30328],[74.1,30411],[74.1,30502],[74.1,30578],[74.1,30668],[74.1,30751],[74.1,30828],[74.1,30911],[74.1,30994],[74.1,31085],[74.1,31168],[74.1,31252],[74.1,31335],[74.1,31416],[74.1,31502],[74.1,31578],[74.1,31661],[74.1,31744],[74.1,31834]]",0,0,0,0,1,"Larry had recently lost his family, job and home, and was now living on his own in the park. He had most of his belongings, including some clothes, a blanket, and his mother’s special necklace. His family had been very important to him and he felt as though he did not have much going for him. One of his first days in the park he came across a family that did not have much food and looked very cold. He decided to give them some of his food and his blanket.","Larry had recently lost his family, job and home, and was now living on his own in the park. He had most of his belongings, including some clothes, a blanket, and his mother’s special necklace. His family had been very important to him and he felt as though he did not have much going for him. One of his first days in the park he came across a family that did not have much food and looked very cold. He decided to give them some of his food and his blanket.","Larry had recently lost his family, job and home, and was now living on his own in the park. He had most of his belongings, including some clothes, a blanket, and his mother’s special necklace. His family had been very important to him and he felt as though he did not have much going for him. One of his first days in the park he came across a family that did not have much food and looked very cold. He decided to give them some of his food and his blanket.","Larry had recently lost his family, job and home, and was now living on his own in the park. He had most of his belongings, including some clothes, a blanket, and his mother’s special necklace. His family had been very important to him and he felt as though he did not have much going for him. One of his first days in the park he came across a family that did not have much food and looked very cold. He decided to give them some of his food and his blanket.",,,,,,,,,,
,,,,,,5fc8a956800c80232e0b7a32,2024-02-08_13h04.42.398,group3.1-3.2-social-tom,2023.2.2,Win32,59.52380952,65c5074098b851296ff0b7ed,65c5417c98b851296ff0c942,,,,,,,,,,,,,,,,,,,,,,,,,,,,,976.9828,1,audio/Narrative8Situation9.wav,980.5254,space,,,,,,1014.091,1016.3948,78.48958969,1.3457,"[{""rating"":78.48958969116211,""responseTime"":1.3456999999880281}]",space,1.7706,,1014.0851,Half the time,50,1014.091,,,[],,,,,,,,,,,6,2,3,9,3.5198,,,,,,,,,,,,,,,,980.5255,3,1014.085,"[[72.9,333],[72.9,416],[73,507],[73,583],[73,666],[72.9,757],[71.2,840],[68.9,924],[67.4,1007],[66.5,1091],[67.8,1590],[66,1674],[66,1750],[66,1838],[66,1923],[66,2007],[66,2083],[66.3,2174],[66.9,2257],[66.6,2341],[63.2,2424],[56.5,2507],[53.3,2590],[51.1,2674],[51.1,2757],[51.1,2833],[51.1,2916],[51.1,3000],[51.1,3090],[51.1,3173],[51.1,3250],[51.1,3333],[51.1,3416],[51.1,3500],[51.1,3590],[51.1,3667],[51.1,3757],[51.1,3833],[51.1,3916],[51.1,4000],[51.1,4088],[51.1,4166],[51.1,4250],[51.3,4340],[51.3,4423],[51.3,4507],[51.3,4590],[51.1,4674],[50.8,4757],[49.6,4841],[48.8,4924],[45.4,5007],[32.8,5091],[27.1,5174],[26.4,5257],[23,5340],[20.8,5424],[20.7,5507],[20.7,5590],[20.7,5666],[20.7,5750],[20.7,5839],[20.7,5916],[20.7,6000],[20.7,6083],[20.7,6166],[20.7,6257],[20.7,6341],[20.7,6417],[20.7,6500],[20.7,6590],[20.7,6666],[20.7,6757],[20.7,6841],[20.7,6916],[20.7,7000],[20.7,7090],[20.7,7173],[20.7,7255],[20.7,7333],[20.7,7424],[20.7,7507],[20.7,7590],[20.7,7667],[20.7,7750],[20.7,7833],[20.7,7917],[20.7,8000],[20.7,8083],[20.7,8174],[20.7,8257],[20.7,8333],[20.7,8417],[20.7,8500],[20.7,8590],[20.7,8674],[20.7,8757],[20.7,8834],[20.7,8917],[20.7,9007],[20.7,9091],[20.7,9174],[20.7,9250],[20.7,9333],[20.7,9424],[20.7,9506],[20.7,9590],[20.7,9674],[20.7,9756],[20.7,9834],[20.7,9917],[20.7,10000],[20.7,10091],[20.7,10167],[20.7,10250],[20.7,10341],[20.7,10424],[20.7,10506],[20.7,10591],[20.7,10667],[20.7,10757],[20.7,10841],[20.7,10917],[20.7,11000],[20.7,11091],[20.7,11174],[20.7,11250],[20.7,11334],[20.7,11417],[20.7,11500],[20.7,11591],[20.7,11667],[20.7,11750],[20.7,11834],[20.7,11922],[20.7,12007],[20.7,12090],[20.7,12174],[20.7,12258],[20.7,12334],[20.7,12424],[20.7,12500],[20.7,12591],[20.7,12674],[20.7,12758],[20.7,12841],[20.7,12924],[20.7,13000],[20.7,13084],[20.7,13167],[20.7,13258],[20.7,13334],[20.7,13424],[20.7,13500],[20.7,13584],[20.7,13674],[20.7,13758],[20.7,13841],[20.7,13917],[20.7,14008],[20.7,14084],[20.7,14175],[20.7,14250],[20.7,14341],[20.7,14424],[20.7,14500],[20.7,14584],[20.7,14674],[20.7,14750],[20.7,14840],[20.7,14924],[20.7,15005],[20.7,15091],[20.7,15167],[20.7,15258],[20.7,15334],[20.7,15417],[20.7,15507],[20.7,15591],[20.7,15667],[20.7,15758],[20.7,15834],[20.7,15917],[20.7,16008],[20.7,16091],[20.7,16175],[20.7,16258],[27.3,16341],[27.4,16425],[27.4,16501],[27.4,16591],[27.3,16675],[27.1,16758],[26,16841],[26,16917],[26,17001],[26,17091],[26,17175],[26,17251],[26,17341],[26,17424],[26,17501],[26,17592],[26,17667],[33.3,17758],[41.7,17841],[45.4,17925],[46.1,18008],[48.5,18091],[51.1,18175],[51.1,18258],[51.1,18341],[50.4,18425],[50.1,18508],[49.9,18591],[49.9,18675],[49.9,18751],[49.9,18841],[49.9,18925],[49.9,19001],[49.9,19084],[49.9,19175],[49.9,19258],[49.9,19341],[49.9,19425],[49.9,19508],[49.9,19591],[49.9,19667],[49.9,19758],[49.9,19834],[49.9,19917],[49.9,20008],[49.9,20092],[49.9,20167],[49.9,20258],[49.9,20341],[49.9,20425],[49.9,20501],[49.9,20584],[49.9,20675],[49.9,20751],[49.9,20834],[49.9,20923],[49.9,21001],[49.9,21084],[49.9,21168],[49.9,21251],[49.9,21341],[49.9,21418],[49.9,21508],[49.9,21592],[49.9,21675],[49.9,21758],[49.9,21834],[49.9,21918],[49.9,22008],[49.9,22092],[49.9,22168],[49.9,22251],[49.9,22341],[49.9,22418],[49.9,22508],[49.9,22592],[49.9,22668],[49.9,22757],[49.9,22841],[49.9,22925],[49.9,23001],[49.9,23092],[49.9,23168],[49.9,23258],[49.9,23335],[49.9,23426],[49.9,23508],[49.9,23584],[49.9,23668],[49.9,23751],[49.9,23841],[49.9,23918],[49.9,24001],[49.9,24092],[49.9,24168],[49.9,24251],[49.9,24342],[49.9,24425],[49.9,24509],[49.9,24592],[49.9,24668],[49.9,24751],[49.9,24835],[49.9,24918],[49.9,25001],[49.9,25085],[49.9,25168],[49.9,25251],[49.9,25335],[49.9,25418],[49.9,25501],[49.9,25591],[49.9,25668],[49.9,25758],[49.9,25842],[49.9,25925],[49.9,26001],[49.9,26085],[49.9,26173],[49.9,26251],[49.9,26335],[49.9,26418],[49.9,26501],[49.9,26585],[49.9,26675],[49.9,26759],[49.9,26842],[49.9,26918],[49.9,27007],[49.9,27085],[49.9,27168],[50.5,27259],[54.5,27342],[56.3,27425],[57.5,27509],[58.7,27592],[61.1,27676],[64.8,27759],[68.3,27842],[69,27925],[69,28002],[69,28092],[69,28175],[69,28259],[69,28342],[69,28425],[69,28509],[72.2,28592],[74.5,28675],[74.9,28759],[74.9,28835],[74.9,28925],[74.9,29001],[74.9,29085],[74.9,29175],[74.9,29252],[74.9,29342],[74.9,29418],[74.9,29501],[74.9,29592],[74.9,29675],[74.9,29752],[74.9,29835],[74.9,29923],[74.9,30009],[74.9,30093],[74.9,30176],[74.9,30252],[74.9,30343],[74.9,30418],[74.9,30502],[74.9,30592],[74.9,30675],[74.9,30752],[74.9,30842],[74.9,30918],[74.9,31002],[74.9,31092],[74.9,31175],[74.9,31252],[74.9,31342],[74.9,31424],[74.9,31502],[74.9,31585],[74.9,31669],[74.9,31752],[74.9,31841],[74.9,31925],[74.9,32002],[74.9,32085],[74.9,32176],[74.9,32252],[74.9,32342],[74.9,32418],[74.9,32502],[74.9,32585],[74.9,32676],[74.9,32759],[74.9,32835],[74.9,32925],[74.9,33002],[74.9,33092],[74.9,33168],[74.9,33257],[74.9,33335],[74.9,33418],[74.9,33502]]",0,1,1,1,1,"It was just another Sunday afternoon for Lucy, she was on her way to the farmer's market to pick up some produce. When she arrived at the old train depot that housed the market, she noticed two men fighting on the steps. Before she could call for help, one of the men crumpled to his knees. The other man dropped an object that appeared to be a knife and ran off. When Lucy approached the crime scene she realized that the man who had been murdered was the Mayor and that he had a gunshot wound.","One day at work, Margaret walked up to her partner, Al, to ask him to talk to the chief of staff at the local hospital where she worked as a nurse.","Luke always thought of himself as an honest man. That's why during his evening jog around the swamp, he pondered his recent affair with the receptionist at work. Luke looked up at the sky and asked God why he was so weak and unfaithful. He thought of the impact this would have on his family and told God of his conflicted feelings toward telling his wife Marta.","Linda and Amy had been best friends since kindergarten, they even found homes on the same street in the forest on the edge of town. Their biggest fight had been over who gets the bigger slice of cake, until Amy married Dan. Linda loathed Dan, she thought he was manipulative and had a violent temper. She only put up with him because Amy loved him. ",,,,,,,,,,
,,,,,,5fc8a956800c80232e0b7a32,2024-02-08_13h04.42.398,group3.1-3.2-social-tom,2023.2.2,Win32,59.52380952,65c5074098b851296ff0b7ed,65c5417c98b851296ff0c942,,,,,,,,,,,,,,,,,,,,,,,,,,,,,1016.3951,1,audio/Narrative8Situation9.wav,1020.4117,,,,,,,1038.9482,1040.5538,49.94791985,0.6888,"[{""rating"":49.947919845581055,""responseTime"":0.6888000000119519}]",space,1.0566,,1038.9467,All the time,100,1038.9482,,,[],,,,,,,,,,,4,5,2,2,,,,,,,,,,,,,,,,,1020.4117,3,1038.9465,"[[76.5,3590],[65.6,3674],[47.7,3757],[45.4,3840],[45.6,3916],[45.1,4007],[44.3,4090],[44.3,4166],[44.3,4250],[45.6,4341],[47,4424],[47.7,4507],[47.7,4591],[47.7,4674],[47.7,4750],[47.7,4833],[47.7,4916],[47.7,5000],[47.7,5090],[47.7,5166],[47.7,5250],[47.7,5333],[47.7,5424],[47.7,5507],[47.7,5583],[47.7,5667],[47.7,5750],[47.7,5833],[47.7,5917],[47.7,6007],[47.7,6083],[47.7,6167],[47.7,6250],[47.7,6333],[47.7,6416],[47.7,6500],[47.7,6583],[47.7,6674],[47.7,6750],[47.7,6840],[47.7,6917],[47.7,7000],[47.7,7089],[47.7,7167],[47.7,7250],[47.7,7341],[47.7,7417],[47.7,7500],[47.7,7583],[47.7,7674],[47.7,7757],[47.7,7833],[47.7,7923],[47.7,8000],[47.7,8083],[47.7,8167],[47.7,8250],[47.7,8333],[47.7,8424],[47.7,8507],[47.7,8583],[47.7,8674],[47.7,8750],[47.7,8833],[47.7,8917],[47.7,9000],[47.7,9083],[47.7,9174],[47.7,9250],[47.7,9341],[47.7,9424],[47.7,9500],[47.7,9591],[47.7,9674],[47.7,9750],[47.7,9834],[47.7,9917],[47.7,10008],[47.7,10084],[47.7,10174],[47.7,10250],[47.7,10341],[47.7,10424],[47.7,10501],[47.7,10584],[47.7,10674],[47.7,10750],[47.7,10841],[47.7,10917],[47.7,11000],[47.7,11091],[47.7,11167],[47.7,11250],[47.7,11334],[47.7,11417],[47.7,11507],[47.7,11591],[47.7,11674],[47.7,11750],[47.7,11834],[47.7,11917],[47.7,12000],[47.7,12091],[47.7,12167],[47.7,12250],[47.7,12334],[47.7,12424],[47.7,12500],[47.7,12591],[47.7,12674],[47.7,12750],[47.7,12834],[47.7,12924],[47.7,13000],[47.7,13084],[47.7,13167],[47.7,13250],[47.7,13334],[47.7,13425],[47.7,13500],[47.7,13584],[47.7,13674],[47.7,13758],[47.7,13834],[47.7,13924],[47.7,14008],[47.7,14084],[47.7,14167],[47.7,14250],[47.7,14334],[47.7,14417],[47.7,14508],[47.7,14590],[47.7,14674],[47.7,14758],[47.7,14834],[47.7,14917],[47.7,15008],[47.7,15084],[47.7,15167],[47.7,15251],[47.7,15334],[47.7,15425],[47.7,15501],[47.7,15584],[47.7,15667],[47.7,15750],[47.7,15834],[47.7,15917],[47.7,16008],[47.7,16091],[47.7,16167],[47.7,16258],[47.8,16334],[48.4,16417],[48.8,16508],[49.9,16592],[50,16673],[50,16758],[49.9,16834],[49.9,16917],[49.9,17001],[49.9,17084],[49.9,17167],[49.9,17251],[49.9,17334],[49.9,17417],[49.9,17501],[49.9,17584],[49.9,17675],[49.9,17751],[49.9,17834],[49.9,17925],[49.9,18001],[49.9,18084],[49.9,18167],[49.9,18251],[49.9,18334],[49.9,18417],[49.9,18501]]",0,2,2,2,1,On the ground beside him was a pen that she had mistaken for a knife. Lucy looked for the gunman and saw a suspicious man in black with distinct pointy features darting into an alley across the street. Cops who were nearby chased the man who had fled and arrested him.,"While waiting outside the chief of staff's office, Al heard nondescript shouting and yelling, there was a loud clatter in the room and then an eerie silence. An unfamiliar employee ran hastily out of the office with a terrified look on their face.","Suddenly, Luke heard a woman call out his name and when he turned around he saw Carly, his receptionist, across the road with a gun in her hand. Carly ran to him and explained how she had followed him here to confess her love. She exclaimed if Luke didn't love her back that she would kill him and his family. Carly explained that the only way they could be together is to kill Marta.","This feeling of hate between Amy and Dan was mutual, Dan didn't like how much time his wife spent with her and thought Amy was creating distance between their marriage. That's why Dan decided to try and tarnish Linda's reputation with his wife, in hopes it would get rid of her. He came home one afternoon and exclaimed that Linda had tried to kiss him. Amy was taken aback and immediately called Linda to confront her about these accusations. When Linda arrived she denied having made a move on Dan, but discovered Dan had enlisted the help of his friend Will who said he witnessed it all happen.",,,,,,,,,,
,,,,,,5fc8a956800c80232e0b7a32,2024-02-08_13h04.42.398,group3.1-3.2-social-tom,2023.2.2,Win32,59.52380952,65c5074098b851296ff0b7ed,65c5417c98b851296ff0c942,,,,,,,,,,,,,,,,,,,,,,,,,,,,,1040.554,1,audio/Narrative8Situation9.wav,1042.5634,,,,,,,1054.4204,1056.581,76.71875,1.4063,"[{""rating"":76.71875,""responseTime"":1.4063000000119246}]",space,1.6171,,1054.4143,Half the time,50,1054.4204,,,[],,,,,,,,,,,2,2,1,4,,,,,,,,,,,,,,,,,1042.5634,3,1054.4143,[],0,3,3,3,1,"But Lucy knew the charged man was innocent, which meant the killer was free. Lucy vowed to find out who the real murderer was and to stop him at all costs.","Al explained to the chief of staff that Margaret wanted to be excused from her absences last week. The chief of staff, Susan, revealed that she wanted to fire Margaret and never see her again. Susan and Al had been having an affair and she wanted Margaret ""out of the picture"". Al was conflicted, but agreed it would be for the best.","Luke thought of his child and felt like this was his only option. He agreed to the plan and called his wife to meet him at the swamp to watch the sunset with him. When she arrived, Marta called out for her husband, but found Carly waiting for her. She immediately drew her gun and shot her in the chest, knocking her unconscious.","Since it was their word against her own, she decided to go home and admit defeat. She knew how much it would hurt Amy to know the truth.",,,,,,,,,,
,,,,,,5fc8a956800c80232e0b7a32,2024-02-08_13h04.42.398,group3.1-3.2-social-tom,2023.2.2,Win32,59.52380952,65c5074098b851296ff0b7ed,65c5417c98b851296ff0c942,,,,,,,,,,,,,,,,,,,,,,,,,,,,,1056.5813,1,audio/Narrative8Situation9.wav,1057.5816,,,,,,,1087.1633,1088.9834,76.51041985,1.3939,"[{""rating"":76.51041984558105,""responseTime"":1.3938999999761563}]",space,1.2837,,1087.1575,Not at all,0,1087.1633,,,[],,,,,,,,,,,1,1,3,3,,,,,,,,,,,,,,,,,1057.5818,3,1087.1574,"[[77,590],[77,673],[77,749],[77,832],[77.1,923],[77.2,1006],[77.2,1082],[77.2,1166],[77.2,1249],[77.2,1332],[77.2,1423],[77.2,1499],[77.2,1588],[77.2,1666],[77.2,1756],[77.2,1837],[77.1,1923],[77.1,1999],[77.1,2082],[77.1,2173],[77.1,2257],[77.1,2341],[77.1,2423],[77.1,2499],[77.1,2582],[77.1,2666],[77.1,2756],[77.1,2832],[77.1,2921],[77.1,2999],[77.1,3089],[77.1,3173],[77.1,3249],[77.1,3332],[77.1,3416],[77.1,3506],[77.1,3582],[77.1,3673],[77.1,3756],[77.1,3840],[77.1,3923],[77.1,4004],[77.1,4082],[77.1,4166],[77.1,4254],[77.1,4332],[77.1,4416],[77.1,4506],[77.1,4582],[77.1,4673],[77.1,4749],[77.1,4832],[77.1,4923],[77.1,4999],[77.1,5089],[77.1,5166],[77.1,5249],[77.1,5340],[77.1,5423],[77.1,5499],[77.1,5590],[77.1,5666],[77.1,5754],[77.1,5833],[77.1,5916],[77.1,5999],[77.1,6082],[77.1,6173],[77.1,6249],[77.1,6332],[77.1,6416],[77.1,6499],[77.1,6583],[77.1,6673],[77.1,6749],[77.1,6833],[77.1,6916],[77.1,6999],[77.1,7083],[77.1,7166],[77.1,7249],[77.1,7340],[77.1,7424],[77.1,7507],[77.1,7590],[77.1,7674],[77.1,7749],[77.1,7840],[77.1,7916],[77.1,8007],[77.1,8090],[77.1,8166],[77.1,8256],[77.1,8333],[77.1,8423],[77.1,8507],[77.1,8583],[77.1,8666],[77.1,8749],[77.1,8839],[77.1,8923],[77.1,9007],[77.1,9083],[77.1,9173],[77.1,9250],[77.1,9340],[77.1,9424],[77.1,9500],[77.1,9583],[77.1,9666],[77.1,9749],[77.1,9840],[77.1,9924],[77.1,10007],[77.1,10090],[77.1,10166],[77.1,10250],[77.1,10333],[77.1,10416],[77.1,10500],[77.1,10590],[77.1,10667],[77.1,10750],[77.1,10833],[77.1,10916],[77.1,11007],[77.1,11092],[77.1,11174],[77.1,11250],[77.1,11333],[77.1,11424],[77.1,11500],[77.1,11583],[77.1,11666],[77.1,11757],[77.1,11833],[77.1,11916],[77.1,12007],[77.1,12083],[77.1,12166],[77.1,12250],[77.1,12341],[77.1,12416],[77.1,12500],[77.1,12590],[77.1,12666],[77.1,12750],[77.1,12840],[77.1,12916],[77.1,13000],[77.1,13083],[77.1,13167],[77.1,13257],[77.1,13340],[77.1,13424],[77.1,13508],[77.1,13583],[77.1,13666],[77.1,13757],[77.1,13833],[77.1,13917],[77.1,14000],[77.1,14090],[77.1,14167],[77.1,14250],[77.1,14333],[77.1,14417],[77.1,14500],[77.1,14590],[77.1,14674],[77.1,14757],[77.1,14841],[77.1,14917],[77.1,15000],[77.1,15083],[77.1,15167],[77.1,15250],[77.1,15334],[77.1,15417],[77.1,15500],[77.1,15591],[77.1,15667],[77.1,15755],[77.1,15833],[77.1,15917],[77.1,16007],[77.1,16083],[77.1,16167],[77.1,16250],[77.1,16333],[77.1,16417],[77.1,16500],[77.1,16591],[77.1,16674],[77.1,16757],[77.1,16833],[77.1,16924],[77.1,17007],[77.1,17089],[77.1,17174],[77.1,17250],[77.1,17339],[77.1,17417],[77.1,17507],[77.1,17583],[77.1,17667],[77.1,17750],[77.1,17833],[77.1,17917],[77.1,18008],[77.1,18091],[77.1,18174],[77.1,18250],[77.1,18334],[77.1,18417],[77.1,18500],[77.1,18583],[77.1,18674],[77.1,18750],[77.1,18841],[77.1,18924],[77.1,19000],[77.1,19084],[77.1,19167],[77.1,19250],[77.1,19334],[77.1,19423],[77.1,19500],[77.1,19584],[77.1,19667],[77.1,19750],[77.1,19834],[77.1,19924],[77.1,20008],[77.1,20092],[77.1,20174],[77.1,20258],[77.1,20334],[77.1,20417],[77.1,20501],[77.1,20591],[77.1,20672],[77.1,20750],[77.1,20834],[77.1,20924],[77.1,21008],[77.1,21091],[77.1,21167],[77.1,21250],[77.1,21341],[77.1,21417],[77.1,21500],[77.1,21591],[77.1,21667],[77.1,21758],[77.1,21841],[77.1,21917],[77.1,22008],[77.1,22084],[77.1,22167],[77.1,22258],[77.1,22341],[77.1,22417],[77.1,22506],[77.1,22584],[77.1,22667],[77.1,22758],[77.1,22834],[77.1,22917],[77.1,23000],[77.1,23084],[77.1,23167],[77.1,23251],[77.1,23334],[77.1,23425],[77.1,23500],[77.1,23591],[77.1,23675],[77.1,23751],[77.1,23834],[77.1,23917],[77.1,24000],[77.1,24091],[77.1,24175],[77.1,24251],[77.1,24341],[77.1,24418],[77.1,24501],[77.1,24591],[77.1,24667],[77.1,24751],[77.1,24841],[77.1,24925],[77.1,25001],[77.1,25091],[77.1,25167],[77.1,25251],[77.1,25334],[77.1,25418],[77.1,25508],[77.1,25584],[77.1,25675],[77.1,25758],[77.1,25834],[77.1,25917],[77.1,26001],[77.1,26084],[77.1,26167],[77.1,26251],[77.1,26334],[77.1,26417],[77.1,26508],[77.1,26584],[77.1,26668],[77.1,26759],[77.1,26834],[77.1,26917],[77.1,27001],[77.1,27084],[77.1,27168],[77.1,27258],[77.1,27341],[77.1,27425],[77.1,27507],[77.1,27584],[77.1,27667],[77.1,27758],[77.1,27842],[77.1,27918],[77.1,28001],[77.1,28084],[77.1,28168],[77.1,28258],[77.1,28334],[77.1,28425],[77.1,28501],[77.1,28584],[77.1,28667],[77.1,28758],[77.1,28835],[77.1,28925],[77.1,29008],[77.1,29084],[77.1,29175],[77.1,29251],[77.1,29341],[77.1,29418],[77.1,29508]]",0,4,4,4,1,"The next day the mayors successor, Mr. Smith, a man who was very unpopular due to his strong ties to the oil companies, took office. After a long day of brainstorming about the mysterious killer, Lucy decided to attend his welcome ceremony in the city. During the mayor's speech, she noticed one of the security guards looked strangely familiar. It dawned on her that this new mayor had motive to kill and that the man in black could've been the guard working for him.","Weeks passed and nobody had seen Margaret. Coworkers and friends searched the nearby city looking for her. One day on patrol in a nearby town, a police officer heard someone crying for help in the basement of a house and went in to investigate. Margaret yelled that she was being held captive and needed help.","Luke ran to Marta, and filled with regret over his decision to go along with Carly's plan, picked her up and rushed her to the hospital. The doctors tried to help Marta by taking her into emergency surgery but failed to save her life. Once the doctor called the time of death, Luke fell to his knees and sobbed over his rash decision.","Months later Dan had taken up a mistress, he was growing bored with his marriage ever since he got rid of Linda and was only still with Amy for her family's money. In a hotel room in a nearby town, Dan and his mistress, Nicole, conspired to secretly kill Amy while still obtaining her fortune.",,,,,,,,,,
