exp_question,consent.started,consent.stopped,consentResponse.keys,consentResponse.rt,consentResponse.duration,participantID,date,expName,psychopyVersion,OS,frameRate,STUDY_ID,SESSION_ID,opening1.started,opening1.stopped,keyEndingOpening1.keys,keyEndingOpening1.rt,keyEndingOpening1.duration,volumeAdjust.started,volumeAdjust.stopped,endingAdjust.keys,endingAdjust.rt,endingAdjust.duration,opening2.started,opening2.stopped,keyEndingOpening.keys,keyEndingOpening.rt,keyEndingOpening.duration,mouse.x,mouse.y,mouse.leftButton,mouse.midButton,mouse.rightButton,mouse.time,instructionLoop.thisRepN,instructionLoop.thisTrialN,instructionLoop.thisN,instructionLoop.thisIndex,instructionLoop.ran,readyForAudio.started,readyForAudio.stopped,fixation.started,run,audio_played,fixation.stopped,endPractice.keys,audioPre.started,audioPre.stopped,continuousResponses_audio,continuousSlider.response,continuousSlider.rt,intRating.started,intRating.stopped,intQuestionSlider.response,intQuestionSlider.rt,intQuestionSlider.history,confirmResponse.keys,confirmResponse.rt,confirmResponse.duration,catchQuestion.started,catch_label,catch_value,catchQuestion.stopped,catchQuestionSlider.response,catchQuestionSlider.rt,catchQuestionSlider.history,confirmResponse_2.keys,audioRunLoop.thisRepN,audioRunLoop.thisTrialN,audioRunLoop.thisN,audioRunLoop.thisIndex,audioRunLoop.ran,conditions1_1,conditions2_1,conditions1_2,conditions2_2,dur1_1,dur2_1,dur1_2,dur2_2,endPractice.rt,endPractice.duration,confirmResponse_2.rt,confirmResponse_2.duration,runIntervalBreak.started,runIntervalBreak.stopped,endingBreakKey.keys,endingBreakKey.rt,endingBreakKey.duration,connection.started,connection.stopped,connectionEnding.keys,connectionEnding.rt,connectionEnding.duration,readyForText.started,readyForText.stopped,textPre.started,run_dup,textPre.stopped,continuousResponses_text,textRunLoop.thisRepN,textRunLoop.thisTrialN,textRunLoop.thisN,textRunLoop.thisIndex,textRunLoop.ran,text1_1,text1_2,text2_1,text2_2,runBreakText.started,runBreakText.stopped,endingBreakKey_2.keys,endingBreakKey_2.rt,endingBreakKey_2.duration,ending.started,ending.stopped,endingEnding.keys,endingEnding.rt,endingEnding.duration
social,0.0009,10.6711,y,10.3461,,5ffe235ea848b74a3b3ccd07,2024-05-13_10h21.54.771,group3.1-3.2-social-tom,2023.2.2,Win32,59.88023952,65c5074098b851296ff0b7ed,66422fbc50a16f631f72d5be,,,,,,,,,,,,,,,,,,,,,,,,,,,,,,,,,,,,,,,,,,,,,,,,,,,,,,,,,,,,,,,,,,,,,,,,,,,,,,,,,,,,,,,,,,,,,,,,,,,,,,,,,,
,,,,,,5ffe235ea848b74a3b3ccd07,2024-05-13_10h21.54.771,group3.1-3.2-social-tom,2023.2.2,Win32,59.88023952,65c5074098b851296ff0b7ed,66422fbc50a16f631f72d5be,10.6712,176.8505,space,166.1491,,,,,,,,,,,,,,,,,,,,,,,,,,,,,,,,,,,,,,,,,,,,,,,,,,,,,,,,,,,,,,,,,,,,,,,,,,,,,,,,,,,,,,,,,,,,,,,,,,,,,,
,,,,,,5ffe235ea848b74a3b3ccd07,2024-05-13_10h21.54.771,group3.1-3.2-social-tom,2023.2.2,Win32,59.88023952,65c5074098b851296ff0b7ed,66422fbc50a16f631f72d5be,,,,,,176.8507,199.6893,space,22.5132,,,,,,,,,,,,,,,,,,,,,,,,,,,,,,,,,,,,,,,,,,,,,,,,,,,,,,,,,,,,,,,,,,,,,,,,,,,,,,,,,,,,,,,,,,,,,,,,,
,,,,,,5ffe235ea848b74a3b3ccd07,2024-05-13_10h21.54.771,group3.1-3.2-social-tom,2023.2.2,Win32,59.88023952,65c5074098b851296ff0b7ed,66422fbc50a16f631f72d5be,,,,,,,,,,,199.6983,274.6291,space,74.9097,,[],[],[],[],[],[],0,0,0,0,1,,,,,,,,,,,,,,,,,,,,,,,,,,,,,,,,,,,,,,,,,,,,,,,,,,,,,,,,,,,,,,,,,,,,,,,,,,,,,,,,
,,,,,,5ffe235ea848b74a3b3ccd07,2024-05-13_10h21.54.771,group3.1-3.2-social-tom,2023.2.2,Win32,59.88023952,65c5074098b851296ff0b7ed,66422fbc50a16f631f72d5be,,,,,,,,,,,274.6349,300.6711,space,25.9526,,[],[],[],[],[],[],1,0,1,0,1,,,,,,,,,,,,,,,,,,,,,,,,,,,,,,,,,,,,,,,,,,,,,,,,,,,,,,,,,,,,,,,,,,,,,,,,,,,,,,,,
,,,,,,5ffe235ea848b74a3b3ccd07,2024-05-13_10h21.54.771,group3.1-3.2-social-tom,2023.2.2,Win32,59.88023952,65c5074098b851296ff0b7ed,66422fbc50a16f631f72d5be,,,,,,,,,,,300.6776,342.3784,space,41.6652,,[],[],[],[],[],[],2,0,2,0,1,,,,,,,,,,,,,,,,,,,,,,,,,,,,,,,,,,,,,,,,,,,,,,,,,,,,,,,,,,,,,,,,,,,,,,,,,,,,,,,,
,,,,,,5ffe235ea848b74a3b3ccd07,2024-05-13_10h21.54.771,group3.1-3.2-social-tom,2023.2.2,Win32,59.88023952,65c5074098b851296ff0b7ed,66422fbc50a16f631f72d5be,,,,,,,,,,,342.3846,368.6375,space,26.2295,,[],[],[],[],[],[],3,0,3,0,1,,,,,,,,,,,,,,,,,,,,,,,,,,,,,,,,,,,,,,,,,,,,,,,,,,,,,,,,,,,,,,,,,,,,,,,,,,,,,,,,
,,,,,,5ffe235ea848b74a3b3ccd07,2024-05-13_10h21.54.771,group3.1-3.2-social-tom,2023.2.2,Win32,59.88023952,65c5074098b851296ff0b7ed,66422fbc50a16f631f72d5be,,,,,,,,,,,368.6436,383.2684,space,14.6059,,[],[],[],[],[],[],4,0,4,0,1,,,,,,,,,,,,,,,,,,,,,,,,,,,,,,,,,,,,,,,,,,,,,,,,,,,,,,,,,,,,,,,,,,,,,,,,,,,,,,,,
,,,,,,5ffe235ea848b74a3b3ccd07,2024-05-13_10h21.54.771,group3.1-3.2-social-tom,2023.2.2,Win32,59.88023952,65c5074098b851296ff0b7ed,66422fbc50a16f631f72d5be,,,,,,,,,,,,,,,,,,,,,,,,,,,383.276,385.8545,385.8694,1,audio/Narrative13Situation2.wav,387.873,,387.8732,417.6361,"[[50.8,500],[41.9,583],[27.2,667],[26,750],[26,833],[28.1,917],[35,1000],[35.6,1084],[37.5,1167],[47,1250],[47.2,1334],[49,1417],[49.4,1500],[49.4,1584],[49.4,1667],[47.8,1751],[30.8,1834],[6.4,1918],[4,2001],[0.8,2085],[1.6,2668],[10.3,2752],[21.3,2835],[40.7,2919],[53.6,3002],[55.2,3086],[58.4,3169],[67.4,3252],[67.5,3336],[67.5,3419],[67.5,3502],[67.5,3586],[67.5,3669],[67.5,3753],[67.5,3836],[72.1,3920],[79.9,4003],[84.6,4087],[86.1,4170],[91.8,4253],[91.9,4337],[91.9,4420],[91.9,4504],[91.9,4587],[91.9,4670],[91.9,4754],[91.9,4837],[91.9,4921],[91.9,5004],[91.9,5087],[91.9,5171],[91.9,5254],[91.9,5338],[91.9,5421],[91.9,5504],[91.9,5588],[91.9,5671],[91.9,5755],[91.9,5838],[91.9,5922],[91.9,6005],[91.9,6088],[91.9,6172],[91.9,6255],[91.9,6339],[91.9,6422],[91.9,6505],[91.9,6589],[91.9,6672],[91.9,6756],[91.9,6839],[91.9,6922],[91.9,7006],[91.9,7089],[91.9,7173],[91.9,7256],[91.9,7340],[91.9,7423],[91.9,7506],[91.9,7590],[91.9,7673],[91.9,7757],[91.9,7840],[91.9,7924],[91.9,8007],[91.9,8091],[91.9,8174],[91.9,8257],[91.9,8341],[91.9,8424],[91.9,8507],[91.9,8591],[91.9,8674],[91.9,8758],[91.9,8841],[91.9,8925],[91.9,9008],[91.9,9091],[91.9,9175],[91.9,9258],[91.9,9342],[91.9,9425],[91.9,9508],[91.9,9592],[91.9,9675],[91.9,9759],[91.9,9842],[91.9,9925],[91.9,10009],[91.9,10092],[91.9,10176],[91.9,10259],[91.9,10343],[91.9,10426],[91.9,10509],[91.9,10593],[91.9,10676],[91.9,10760],[91.9,10843],[91.9,10926],[91.9,11010],[91.9,11093],[91.9,11177],[91.9,11260],[91.9,11344],[91.9,11427],[91.9,11511],[91.9,11594],[91.9,11677],[91.9,11761],[91.9,11844],[91.9,11927],[91.9,12011],[91.9,12094],[91.9,12178],[91.9,12261],[91.9,12345],[91.9,12428],[91.9,12512],[91.9,12595],[91.9,12678],[91.9,12762],[91.9,12845],[91.9,12928],[91.9,13012],[91.9,13095],[91.9,13179],[91.9,13262],[91.9,13346],[91.9,13429],[91.9,13512],[91.9,13596],[91.9,13679],[91.9,13762],[91.9,13846],[90.6,13930],[87.6,14013],[83.4,14096],[77.7,14180],[76.3,14263],[76.3,14347],[76.3,14430],[76.3,14513],[76.3,14597],[76.3,14680],[76.3,14764],[76.3,14847],[76.3,14930],[76.3,15014],[76.3,15097],[76.3,15181],[76.3,15264],[76.3,15348],[76.3,15431],[76.3,15514],[76.3,15598],[76.3,15681],[76.3,15765],[76.3,15848],[76.3,15931],[76.3,16015],[76.3,16098],[76.3,16182],[74.7,16265],[71.8,16348],[70.6,16432],[70.6,16515],[70.6,16599],[70.6,16682],[70.6,16766],[70.6,16849],[70.6,16932],[70.6,17016],[69.7,17099],[65.5,17183],[63.9,17266],[63.3,17350],[63,17433],[63,17516],[63,17600],[63,17683],[63,17767],[63,17850],[63,17933],[66.8,18017],[67.2,18100],[67.2,18184],[67.2,18267],[64.8,18351],[61.9,18434],[59.3,18517],[59.2,18601],[59.2,18684],[59.2,18767],[59.2,18851],[59.2,18934],[59.2,19018],[59.2,19101],[59.2,19185],[59.2,19268],[59.2,19351],[59.2,19435],[59.2,19518],[59.2,19602],[59.2,19685],[59.2,19769],[59.2,19852],[59.2,19935],[59.2,20019],[59.2,20102],[59.2,20185],[59.2,20269],[59.2,20352],[59.2,20436],[59.2,20519],[59.2,20603],[59.2,20686],[59.2,20769],[56.7,20853],[48.1,20936],[40.3,21020],[40.1,21103],[40.1,21187],[40.1,21270],[40.1,21353],[39.2,21437],[31,21520],[30,21604],[30,21687],[27.5,21771],[23.3,21854],[20.1,21937],[19.9,22021],[19.7,22104],[19.7,22188],[19.7,22271],[19.1,22355],[17.9,22438],[17.6,22521],[17.6,22605],[17.6,22688],[17.6,22771],[17.6,22855],[17.6,22938],[17.6,23022],[17.6,23105],[17.6,23188],[17.3,23272],[16.4,23355],[16.4,23439],[16.4,23522],[16.4,23605],[16.4,23689],[16.4,23772],[16.4,23856],[16.4,23939],[16.4,24023],[16.4,24106],[16.4,24189],[16.4,24273],[16.4,24356],[16.4,24440],[16.4,24523],[16.4,24607],[29,24690],[29.1,24773],[29.1,24857],[29.1,24940],[29.1,25024],[29.1,25107],[29.1,25190],[38.4,25274],[75.3,25691],[73.1,25774],[72.6,25858],[72.5,25941],[72.5,26025],[72.5,26108],[72.5,26192],[72.5,26275],[72.5,26358],[72.5,26442],[72.5,26525],[72.5,26608],[72.5,26692],[72.8,26775],[79.7,26859],[81.7,26942],[81.7,27026],[81.7,27109],[81.7,27192],[81.7,27276],[81.7,27359],[81.6,27443],[81.6,27526],[81.6,27610],[81.6,27693],[81.6,27776],[81.6,27860],[81.6,27943],[81.6,28027],[81.6,28110],[81.6,28193],[81.6,28277],[81.6,28360],[81.6,28444],[81.6,28527],[81.6,28610],[81.6,28694],[81.6,28777],[81.6,28861],[81.6,28944],[81.6,29028],[81.6,29111],[81.6,29194],[81.6,29278],[81.6,29361],[81.6,29445],[81.6,29528],[81.6,29611],[81.6,29695]]",1,0,417.6363,427.4622,64.37500318,8.1464,"[{""rating"":64.3750031789144,""responseTime"":8.146399999999858}]",space,9.2867,,427.4624,Not at all,0,427.4649,,,[],,0,0,0,0,1,audio/Narrative13Situation2.wav,audio/Narrative13Situation2.wav,audio/Narrative13Situation2.wav,audio/Narrative13Situation2.wav,2,2,2,2,,,,,,,,,,,,,,,,,,,,,,,,,,,,,,,,,,,,,,,
,,,,,,5ffe235ea848b74a3b3ccd07,2024-05-13_10h21.54.771,group3.1-3.2-social-tom,2023.2.2,Win32,59.88023952,65c5074098b851296ff0b7ed,66422fbc50a16f631f72d5be,,,,,,,,,,,,,,,,,,,,,,,,,,,,,427.4652,1,audio/Narrative8Situation1.wav,442.3261,space,442.3262,458.2419,"[[999,6],[999,83],[999,166],[999,250],[999,333],[999,416],[999,500],[999,583],[999,667],[999,750],[999,834],[999,917],[999,1000],[999,1084],[999,1167],[999,1251],[999,1334],[999,1418],[999,1501],[999,1584],[999,1668],[999,1751],[999,1835],[51.6,1918],[52.7,2001],[51.1,2085],[50,2168],[47.8,2252],[47.8,2335],[47.8,2419],[48.8,2502],[50.1,2586],[50.8,2669],[53.5,2752],[56.1,2836],[56.6,2919],[56.6,3002],[56.6,3086],[56.6,3169],[56.6,3253],[56.6,3336],[56.6,3419],[56.6,3503],[56.6,3586],[56.6,3670],[56.6,3753],[56.6,3837],[56.6,3920],[56.5,4003],[56.5,4087],[56.5,4170],[56.5,4254],[56.5,4337],[56.5,4420],[56.5,4504],[56.5,4587],[56.5,4671],[56.3,4754],[56.3,4838],[56.3,4921],[55.5,5004],[50.6,5088],[44.5,5171],[34.4,5255],[31.6,5338],[31.6,5421],[31.6,5505],[31.6,5588],[31.6,5672],[31.6,5755],[31.6,5838],[31.6,5922],[31.6,6005],[31.6,6089],[31.6,6172],[31.6,6256],[31.6,6339],[31.6,6422],[31.6,6506],[31.6,6589],[31.6,6673],[31.6,6756],[31.6,6839],[31.6,6923],[31.6,7006],[31.6,7090],[31.6,7173],[31.6,7257],[31.6,7340],[31.6,7423],[31.6,7507],[31.6,7590],[31.6,7674],[31.6,7757],[31.6,7841],[31.6,7924],[31.6,8008],[31.6,8091],[31.6,8174],[32.8,8258],[35.5,8341],[35.9,8424],[35.9,8508],[35.9,8591],[35.9,8675],[36,8758],[36.3,8842],[36.3,8925],[36.4,9009],[36.9,9092],[44.1,9175],[49.7,9259],[57.2,9342],[61.7,9426],[63.9,9509],[69.4,9592],[69.4,9676],[69.4,9759],[69.4,9842],[70.4,9926],[72.3,10009],[73.1,10093],[73.1,10176],[73.1,10259],[73.1,10343],[73.1,10426],[73.1,10510],[73.1,10593],[73.1,10677],[73.1,10760],[75,10843],[79.3,10927],[80,11010],[80.2,11094],[82.3,11177],[82.3,11260],[83.2,11344],[85.5,11427],[85.5,11511],[85.5,11594],[85.5,11678],[85.5,11761],[85.5,11845],[85.5,11928],[85.5,12011],[85.5,12095],[85.5,12178],[85.5,12261],[85.5,12345],[85.5,12428],[85.5,12512],[85.5,12595],[85.5,12679],[85.5,12762],[85.5,12845],[85.5,12929],[85.5,13012],[85.5,13096],[85.5,13179],[85.5,13263],[85.5,13346],[85.5,13429],[85.5,13513],[85.5,13596],[85.5,13679],[85.5,13763],[85.5,13846],[85.5,13930],[85.5,14013],[85.6,14097],[86.3,14180],[87.5,14263],[87.9,14347],[88.4,14430],[88.6,14514],[88.6,14597],[88.6,14680],[88.6,14764],[88.6,14847],[88.6,14931],[88.6,15014],[88.6,15098],[88.6,15181],[88.6,15264],[88.6,15348],[88.6,15431],[88.6,15515],[88.6,15598],[88.6,15681],[88.6,15765],[88.6,15848]]",1,0,458.2421,466.967,61.1458381,3.9946,"[{""rating"":61.14583810170492,""responseTime"":3.9945999999998776}]",space,8.1933,,466.9671,Not at all,0,466.9746,,,[],,0,1,1,1,1,audio/Narrative7Situation1.wav,audio/Narrative8Situation1.wav,audio/Narrative5Situation1.wav,audio/Narrative6Situation1.wav,2,5,5,2,14.8377,,,,,,,,,,,,,,,,,,,,,,,,,,,,,,,,,,,,,,
,,,,,,5ffe235ea848b74a3b3ccd07,2024-05-13_10h21.54.771,group3.1-3.2-social-tom,2023.2.2,Win32,59.88023952,65c5074098b851296ff0b7ed,66422fbc50a16f631f72d5be,,,,,,,,,,,,,,,,,,,,,,,,,,,,,466.9747,1,audio/Narrative8Situation2.wav,469.9865,,469.9865,480.0965,"[[999,0],[999,83],[999,166],[999,250],[999,333],[999,417],[999,500],[999,583],[999,667],[999,750],[999,834],[999,917],[999,1001],[999,1084],[999,1167],[0.6,7424],[11.6,7507],[23.4,7590],[33.2,7674],[37.6,7757],[44.8,7841],[45,7924],[45,8007],[45,8091],[45,8174],[45,8258],[45,8341],[45,8425],[45,8508],[45,8591],[45,8675],[45,8758],[45,8842],[45,8925],[45,9008],[45,9092],[45,9175],[45,9259],[45,9342],[45.6,9426],[46.1,9509],[46.1,9592],[46.1,9676],[46.1,9759],[46.1,9843],[46.1,9926],[46.1,10009],[46.1,10093]]",1,0,480.0966,488.0876,14.47916826,6.4847,"[{""rating"":14.47916825612386,""responseTime"":6.484699999999975}]",space,7.4666,,488.0877,Definitely yes,100,488.0906,,,[],,0,2,2,2,1,audio/Narrative7Situation2.wav,audio/Narrative8Situation2.wav,audio/Narrative5Situation2.wav,audio/Narrative6Situation2.wav,3,3,3,3,,,,,,,,,,,,,,,,,,,,,,,,,,,,,,,,,,,,,,,
,,,,,,5ffe235ea848b74a3b3ccd07,2024-05-13_10h21.54.771,group3.1-3.2-social-tom,2023.2.2,Win32,59.88023952,65c5074098b851296ff0b7ed,66422fbc50a16f631f72d5be,,,,,,,,,,,,,,,,,,,,,,,,,,,,,488.0907,1,audio/Narrative8Situation3.wav,492.0916,,492.0917,514.4636,"[[999,6],[999,83],[999,166],[999,250],[999,333],[999,416],[999,500],[999,583],[999,666],[999,750],[999,833],[999,917],[999,1000],[999,1084],[999,1167],[999,1250],[999,1334],[999,1417],[999,1501],[999,1584],[999,1668],[999,1751],[999,1834],[999,1918],[999,2001],[999,2085],[999,2168],[999,2251],[999,2335],[999,2418],[999,2502],[999,2585],[999,2669],[999,2752],[999,2835],[999,2919],[999,3002],[999,3086],[999,3169],[999,3253],[17.8,3336],[32.2,3419],[39.6,3503],[50.6,3586],[52.1,3670],[61.5,3753],[63.1,3836],[63.1,3920],[63.1,4003],[63.2,4087],[69.7,4170],[73.1,4254],[73.2,4337],[73.2,4420],[73.2,4504],[73.2,4587],[73.2,4670],[73.2,4754],[73.2,4837],[73.2,4921],[73.2,5004],[73.2,5088],[72.2,5171],[72.2,5254],[72.2,5338],[72.2,5421],[72.2,5505],[72.2,5588],[72.2,5671],[72.2,5755],[75.1,5838],[77.8,5921],[78.7,6005],[78.7,6088],[78.7,6172],[78.7,6255],[78.7,6339],[78.7,6422],[82.8,6506],[86.9,6589],[87,6672],[87,6756],[87,6839],[87,6923],[87,7006],[87,7090],[86.8,7173],[86.6,7257],[86.6,7340],[86.6,7423],[86.6,7507],[86.6,7590],[86.6,7673],[86.6,7757],[86.6,7840],[86.6,7924],[86.6,8007],[86.6,8091],[86.6,8174],[86.6,8257],[86.6,8341],[86.6,8424],[86.6,8508],[86.3,8591],[83.2,8675],[81.3,8758],[81.3,8841],[81.3,8925],[81.3,9008],[81.3,9092],[81.3,9175],[81.3,9258],[80.6,9342],[80.2,9425],[79.8,9509],[77,9592],[74.5,9676],[74.4,9759],[74.4,9842],[73.4,9926],[73.2,10009],[73,10093],[72.4,10176],[72.4,10259],[72.4,10343],[72.4,10426],[72.4,10509],[72.4,10593],[71.5,10677],[70.8,10760],[70.8,10843],[70.8,10927],[70.8,11010],[70.8,11093],[70.8,11177],[70.8,11260],[70.8,11344],[70.8,11427],[70.8,11510],[70.8,11594],[70.8,11677],[70.6,11761],[70.6,11844],[70.3,11928],[69.2,12011],[68.8,12095],[68.6,12178],[68.6,12261],[68.6,12345],[70.7,12428],[72,12512],[72.2,12595],[72.5,12679],[73.8,12762],[74.6,12846],[74.7,12929],[74.7,13012],[74.7,13095],[76.6,13179],[82.2,13262],[85.6,13346],[88.7,13429],[89.3,13513],[89.3,13596],[89.3,13679],[89.3,13763],[87.8,13846],[83.2,13930],[82.8,14013],[82.8,14096],[82.8,14180],[82.8,14263],[82.8,14347],[82.8,14430],[82.8,14513],[80.9,14597],[78.1,14680],[78.1,14764],[78.1,14847],[78.1,14930],[78.1,15014],[78.1,15097],[78.1,15181],[78.1,15264],[78.1,15348],[78.1,15431],[78.1,15515],[78.1,15598],[78.1,15681],[78.1,15765],[78.1,15848],[78.1,15931],[78.1,16015],[78.1,16098],[78.1,16182],[78.1,16265],[78.1,16349],[78.1,16432],[78.1,16515],[78.1,16599],[78.1,16682],[78.1,16766],[78.1,16849],[78.1,16932],[78.1,17016],[76.5,17099],[74.1,17183],[72.5,17266],[71.8,17350],[70.6,17433],[70.6,17516],[70.6,17600],[70.6,17683],[70.6,17767],[70.6,17850],[69.9,17934],[69.7,18017],[69.7,18100],[69.7,18184],[69.7,18267],[69.7,18350],[69.7,18434],[70.3,18517],[74.1,18601],[76.3,18684],[76.9,18768],[76.9,18851],[76.9,18934],[76.9,19018],[76.9,19101],[76.9,19185],[74.7,19268],[72.9,19352],[70,19435],[69.2,19518],[68.4,19602],[68.4,19685],[68.4,19769],[68.1,19852],[66.6,19935],[65.6,20019],[65.4,20102],[65.4,20186],[65.4,20269],[65.4,20353],[65.4,20436],[65.4,20519],[65.4,20603],[65.4,20686],[65.4,20770],[65.4,20853],[65.4,20936],[65.4,21020],[65.4,21103],[65.4,21187],[65.4,21270],[65.4,21353],[67.6,21437],[69.2,21521],[69.4,21604],[69.4,21687],[69.4,21771],[69.4,21854],[69.4,21937],[69.4,22021],[69.4,22104],[69.4,22188],[69.4,22271],[69.4,22355]]",1,0,514.4638,526.2415,50.10416508,10.1739,"[{""rating"":50.10416507720947,""responseTime"":10.173900000000117}]",space,11.2596,,526.2416,Not at all,0,526.2437,,,[],,0,3,3,3,1,audio/Narrative7Situation3.wav,audio/Narrative8Situation3.wav,audio/Narrative5Situation3.wav,audio/Narrative6Situation3.wav,8,4,3,5,,,,,,,,,,,,,,,,,,,,,,,,,,,,,,,,,,,,,,,
,,,,,,5ffe235ea848b74a3b3ccd07,2024-05-13_10h21.54.771,group3.1-3.2-social-tom,2023.2.2,Win32,59.88023952,65c5074098b851296ff0b7ed,66422fbc50a16f631f72d5be,,,,,,,,,,,,,,,,,,,,,,,,,,,,,526.2438,1,audio/Narrative8Situation4.wav,529.2447,,529.2447,543.4086,"[[999,6],[999,83],[999,166],[999,250],[999,333],[999,417],[999,500],[1,583],[1.8,667],[1.9,750],[1.9,833],[1.5,917],[0.5,1000],[0.5,1084],[0.5,1167],[0.4,1251],[0.4,1334],[0.4,1417],[0.4,1501],[0.4,1584],[0.2,1668],[0.2,1751],[0.2,1834],[0.2,1918],[0.2,2001],[0.2,2085],[0.2,2168],[0.2,2252],[0.2,2335],[0.2,2418],[0.2,2502],[0.2,2585],[0.2,2669],[0.2,2752],[0.2,2835],[0.2,2919],[0.2,3002],[0.2,3086],[0.2,3169],[0.2,3253],[0.2,3336],[0.2,3420],[0.9,3503],[9,3586],[29,3670],[32.5,3753],[39.4,3836],[62.6,3920],[65.6,4003],[65.6,4087],[65.6,4170],[65.6,4253],[65.6,4337],[65.6,4420],[65.6,4504],[65.6,4587],[65.6,4671],[65.6,4754],[65.6,4837],[65.6,4921],[65.6,5004],[65.6,5088],[65.6,5171],[65.6,5254],[65.6,5338],[65.6,5421],[65.6,5505],[65.6,5588],[65.6,5672],[65.6,5755],[65.6,5838],[65.6,5922],[65.6,6005],[65.6,6089],[65.6,6172],[65.6,6255],[65.6,6339],[65.6,6422],[65.6,6506],[65.6,6589],[65.6,6673],[65.6,6756],[65.6,6839],[68,6923],[71.5,7006],[76.6,7090],[80.8,7173],[86.5,7256],[92.2,7340],[94.5,7423],[95.2,7507],[97.5,7590],[99.9,7674],[100,7757],[100,7840],[100,7924],[100,8007],[100,8091],[100,8174],[100,8257],[100,8341],[100,8424],[100,8508],[100,8591],[100,8674],[100,8758],[100,8841],[100,8925],[100,9008],[100,9092],[100,9175],[100,9258],[100,9342],[100,9425],[100,9509],[100,9592],[100,9676],[100,9759],[99.8,9842],[99.6,9926],[99.6,10009],[98.8,10093],[98.5,10176],[97.9,10259],[97.8,10343],[97.8,10426],[97.8,10510],[97.4,10593],[97,10676],[97,10760],[96.7,10843],[96,10927],[96,11010],[96,11093],[96,11177],[96,11260],[96,11344],[96,11427],[96,11510],[96,11594],[96,11677],[96,11761],[96,11844],[96,11928],[96,12011],[96,12095],[96,12178],[96,12261],[96,12345],[96,12428],[96,12512],[96,12595],[96,12678],[96,12762],[96,12845],[96,12929],[96,13012],[96,13096],[96,13179],[96,13262],[96,13346],[96,13429],[96,13513],[96,13596],[96,13679],[96,13763],[96,13846],[96,13930],[96,14013],[96,14096]]",1,0,543.4087,557.3054,94.68750954,2.3651,"[{""rating"":94.68750953674316,""responseTime"":2.3651000000000977}]",space,13.3644,,557.3055,Not at all,0,569.6174,0,11.1602,"[{""rating"":0,""responseTime"":11.160200000000032}]",space,0,4,4,4,1,audio/Narrative7Situation4.wav,audio/Narrative8Situation4.wav,audio/Narrative5Situation4.wav,audio/Narrative6Situation4.wav,3,3,1,2,,,11.7781,,,,,,,,,,,,,,,,,,,,,,,,,,,,,,,,,,,,
,,,,,,5ffe235ea848b74a3b3ccd07,2024-05-13_10h21.54.771,group3.1-3.2-social-tom,2023.2.2,Win32,59.88023952,65c5074098b851296ff0b7ed,66422fbc50a16f631f72d5be,,,,,,,,,,,,,,,,,,,,,,,,,,,,,569.6177,1,audio/Narrative8Situation5.wav,571.6194,,571.6194,579.8608,"[[47.1,83],[1.6,750],[7.1,834],[6.9,917],[7,1000],[7,1084],[5.1,1167],[3.2,1251],[2.8,1334],[2.8,1418],[1.9,1501],[1.6,1584],[1.6,1668],[5.7,1751],[22.9,1835],[44.9,1918],[55.6,2001],[65.6,2085],[82.5,2168],[87.1,2252],[87.1,2335],[87.1,2419],[87.2,2502],[88.1,2585],[90,2669],[94.1,2752],[95.6,2835],[95.6,2919],[95.6,3002],[95.6,3086],[95.6,3169],[95.6,3253],[95.6,3336],[95.6,3419],[95.6,3503],[95.6,3586],[95.6,3670],[95.6,3753],[95.6,3836],[95.6,3920],[95.6,4003],[95.6,4087],[95.6,4170],[95.6,4254],[95.6,4337],[95.6,4420],[95.6,4504],[95.6,4587],[95.6,4671],[95.6,4754],[95.3,4837],[95.3,4921],[95.3,5004],[93.5,5088],[93.3,5171],[93.3,5255],[93.1,5338],[92.5,5421],[91.8,5505],[90.3,5588],[90.1,5672],[90.1,5755],[90.1,5839],[92.9,5922],[97.9,6005],[97.9,6089],[97.9,6172],[97.5,6255],[95.8,6339],[95.5,6423],[95.5,6506],[95.5,6589],[95.5,6673],[95.5,6756],[95.5,6839],[95.5,6923],[95.5,7006],[95.5,7090],[95.5,7173],[95.5,7257],[95.5,7340],[95.4,7423],[93.8,7507],[93.8,7590],[93.4,7673],[93.4,7757],[93.4,7840],[94.5,7924],[94.7,8007],[94.1,8091],[91.5,8174]]",1,0,579.8609,592.9903,94.99999682,2.9208,"[{""rating"":94.99999682108562,""responseTime"":2.9208000000000993}]",space,12.6062,,592.9904,Definitely yes,100,592.9988,,,[],,0,5,5,5,1,audio/Narrative7Situation5.wav,audio/Narrative8Situation5.wav,audio/Narrative5Situation5.wav,audio/Narrative6Situation5.wav,5,2,5,2,,,,,,,,,,,,,,,,,,,,,,,,,,,,,,,,,,,,,,,
,,,,,,5ffe235ea848b74a3b3ccd07,2024-05-13_10h21.54.771,group3.1-3.2-social-tom,2023.2.2,Win32,59.88023952,65c5074098b851296ff0b7ed,66422fbc50a16f631f72d5be,,,,,,,,,,,,,,,,,,,,,,,,,,,,,592.9991,1,audio/Narrative8Situation6.wav,595.0089,,595.0089,601.4652,"[[87.5,3086],[87.5,3169],[87.4,3253],[87.4,3336],[87.4,3419],[87.4,3503],[87.4,3586],[87.4,3670],[87.4,3753],[87.4,3836],[87.4,3920],[87.4,4003],[87.4,4087],[87.4,4170],[87.4,4254],[87.4,4337],[87.2,4421],[87.1,4504],[86.7,4587],[86.6,4671],[86.6,4754],[86.6,4838],[86.6,4921],[86.6,5004],[86.6,5088],[86.6,5171],[86.9,5255],[89,5338],[90.8,5422],[92.2,5505],[92.4,5588],[92.4,5672],[92.4,5755],[92.4,5838],[92.4,5922],[92.4,6005],[92.4,6089],[92.4,6172],[92.4,6256],[92.4,6339],[92.4,6423]]",1,0,601.4653,612.7261,88.02083333,10.817,"[{""rating"":92.08334287007649,""responseTime"":3.589399999999955},{""rating"":88.02083333333333,""responseTime"":10.817000000000007}]",space,10.7377,,612.7262,Not at all,0,612.7282,,,[],,0,6,6,6,1,audio/Narrative7Situation6.wav,audio/Narrative8Situation6.wav,audio/Narrative5Situation6.wav,audio/Narrative6Situation6.wav,3,2,3,2,,,,,,,,,,,,,,,,,,,,,,,,,,,,,,,,,,,,,,,
,,,,,,5ffe235ea848b74a3b3ccd07,2024-05-13_10h21.54.771,group3.1-3.2-social-tom,2023.2.2,Win32,59.88023952,65c5074098b851296ff0b7ed,66422fbc50a16f631f72d5be,,,,,,,,,,,,,,,,,,,,,,,,,,,,,612.7284,1,audio/Narrative8Situation7.wav,615.7292,,615.7293,627.8077,"[[999,5],[999,83],[999,166],[999,250],[999,333],[999,416],[0.8,500],[0.5,583],[0.2,667],[0.2,750],[0.2,834],[0.2,917],[0.2,1000],[0.1,1084],[0.1,1167],[0.1,1250],[0.1,1334],[0.1,1417],[0.1,1501],[0.1,1584],[0.1,1668],[0.1,1751],[0.1,1834],[0.1,1918],[0.1,2001],[0.1,2085],[0.1,2168],[0.1,2252],[0.1,2335],[0.1,2418],[0.1,2502],[0.1,2585],[0.1,2669],[0.1,2752],[0.1,2836],[0.1,2919],[0.1,3002],[0.1,3086],[0.1,3169],[0.1,3253],[0.1,3336],[0.1,3419],[0.1,3503],[0.1,3586],[0.1,3670],[0.1,3753],[0.1,3837],[0.1,3920],[0.1,4003],[0.1,4087],[8.4,4170],[30,4254],[31,4337],[32.5,4420],[39.1,4504],[51.1,4587],[51.3,4671],[51.3,4754],[53.1,4837],[54,4921],[54.1,5004],[54.1,5088],[54.1,5171],[54.1,5254],[54.1,5338],[54.1,5421],[54.1,5505],[54.1,5588],[55.1,5672],[55.5,5755],[55.5,5838],[55.5,5922],[55.5,6005],[55.5,6089],[55.5,6172],[55.5,6255],[55.5,6339],[55.5,6422],[55.5,6505],[55.5,6589],[55.5,6672],[55.6,6756],[57.9,6839],[60.6,6923],[64.8,7006],[65.3,7090],[67,7173],[67.9,7256],[68.3,7340],[68.8,7423],[69.5,7507],[69.7,7590],[70.5,7674],[71,7757],[71.1,7840],[71.1,7924],[71.3,8007],[71.3,8091],[71.3,8174],[71.7,8258],[71.8,8341],[71.8,8424],[72.6,8508],[72.8,8591],[72.8,8674],[73.8,8758],[74.5,8842],[75.6,8925],[76.9,9008],[78.5,9092],[81.1,9175],[82.7,9258],[83.8,9342],[85.3,9426],[86.3,9509],[87.9,9592],[88.4,9675],[89,9759],[89.5,9842],[90,9926],[90,10009],[90,10093],[90,10176],[90.1,10259],[90.3,10343],[90.3,10426],[90.3,10509],[90.3,10593],[90.3,10676],[90.3,10760],[90.3,10843],[90.3,10927],[90.3,11010],[90.3,11094],[90.4,11177],[90.6,11260],[90.9,11344],[91.3,11427],[91.4,11511],[91.4,11594],[91.4,11677],[91.4,11761],[91.4,11844],[91.4,11928],[91.4,12011]]",1,0,627.8078,697.4925,86.77083651,4.4287,"[{""rating"":86.77083651224773,""responseTime"":4.428700000000049}]",space,69.1636,,697.4925,Not at all,0,697.4997,,,[],,0,7,7,7,1,audio/Narrative7Situation7.wav,audio/Narrative8Situation7.wav,audio/Narrative5Situation7.wav,audio/Narrative6Situation7.wav,5,3,4,5,,,,,,,,,,,,,,,,,,,,,,,,,,,,,,,,,,,,,,,
,,,,,,5ffe235ea848b74a3b3ccd07,2024-05-13_10h21.54.771,group3.1-3.2-social-tom,2023.2.2,Win32,59.88023952,65c5074098b851296ff0b7ed,66422fbc50a16f631f72d5be,,,,,,,,,,,,,,,,,,,,,,,,,,,,,697.4998,1,audio/Narrative8Situation8.wav,700.5121,,700.5122,713.3581,"[[999,0],[999,83],[999,166],[999,250],[999,333],[999,417],[999,500],[999,583],[999,667],[999,750],[999,834],[999,917],[999,1000],[999,1084],[999,1167],[999,1251],[15.2,1334],[15,1418],[6.4,1501],[3,1584],[2.8,1668],[1.6,1751],[1.6,1834],[1.4,1918],[1.3,2001],[1.3,2085],[1.3,2168],[1.3,2251],[1.3,2335],[1.3,2418],[1.3,2502],[1.3,2585],[1.3,2669],[1.3,2752],[1.3,2836],[1.3,2919],[1.3,3002],[1.3,3086],[1.3,3169],[1.3,3253],[1.3,3336],[3.1,3419],[4.4,3503],[5.2,3586],[5.6,3670],[5.7,3753],[6,3837],[12,3920],[21.4,4003],[26.6,4087],[33.2,4170],[36.1,4254],[36.3,4337],[38.4,4421],[39.5,4504],[39.5,4587],[39.5,4671],[39.5,4754],[39.5,4837],[39.5,4921],[39.5,5004],[39.5,5088],[39.5,5171],[39.5,5254],[39.5,5338],[39.5,5421],[39.5,5505],[39.5,5588],[44.3,5672],[56.3,5755],[70.9,5838],[80.6,5922],[85.9,6005],[90,6089],[92.9,6172],[93,6255],[93,6339],[93,6422],[93,6506],[93.5,6589],[93.8,6673],[93.8,6756],[93.8,6840],[93.8,6923],[93.8,7006],[93.8,7090],[93.8,7173],[93.8,7256],[93.8,7340],[93.8,7423],[93.8,7507],[93.8,7590],[93.8,7674],[93.8,7757],[93.8,7841],[94.1,7924],[94.2,8007],[94.4,8091],[94.4,8174],[94.4,8257],[94.4,8341],[94.4,8424],[94.4,8508],[94.4,8591],[94.4,8675],[94.4,8758],[94.4,8841],[94.4,8925],[94.4,9008],[94.4,9092],[94.4,9175],[94.4,9259],[94.4,9342],[94.4,9425],[94.4,9509],[94.4,9592],[94.4,9676],[94.4,9759],[94.4,9842],[94.4,9926],[94.4,10009],[94.4,10093],[94.4,10176],[94.4,10259],[94.4,10343],[95.3,10426],[96.6,10510],[97.2,10593],[97.2,10677],[97.2,10760],[97.2,10843],[97.2,10927],[97.2,11010],[97.2,11094],[97.2,11177],[97.2,11260],[97.2,11344],[97.2,11427],[97.2,11511],[97.2,11594],[97.2,11678],[97.2,11761],[97.2,11844],[97.2,11928],[97.2,12011],[97.2,12095],[97.2,12178],[97.2,12261],[97.2,12345],[97.2,12428],[97.2,12511],[97.2,12595],[97.2,12678],[97.2,12762],[97.2,12845]]",1,0,713.3582,716.5112,99.37500954,2.3369,"[{""rating"":99.37500953674316,""responseTime"":2.336900000000128}]",space,2.6286,,716.5112,Not at all,0,716.5126,,,[],,0,8,8,8,1,audio/Narrative7Situation8.wav,audio/Narrative8Situation8.wav,audio/Narrative5Situation8.wav,audio/Narrative6Situation8.wav,2,3,3,5,,,,,,,,,,,,,,,,,,,,,,,,,,,,,,,,,,,,,,,
,,,,,,5ffe235ea848b74a3b3ccd07,2024-05-13_10h21.54.771,group3.1-3.2-social-tom,2023.2.2,Win32,59.88023952,65c5074098b851296ff0b7ed,66422fbc50a16f631f72d5be,,,,,,,,,,,,,,,,,,,,,,,,,,,,,716.5127,1,audio/Narrative8Situation9.wav,719.514,,719.5141,730.8251,"[[999,5],[999,83],[999,166],[999,250],[999,333],[999,417],[999,500],[999,583],[999,667],[999,750],[1.9,2335],[4.1,2418],[4.9,2502],[5.4,2585],[5.5,2669],[5.6,2752],[6.9,2836],[10.6,2919],[15,3003],[19.4,3086],[22.6,3169],[24.9,3253],[28.4,3336],[33.3,3419],[37.8,3503],[43.5,3586],[50.2,3670],[56.3,3753],[58.8,3837],[62.5,3920],[65.8,4004],[67.1,4087],[69.1,4170],[69.4,4254],[69.4,4337],[69.4,4420],[69.4,4504],[71.1,4587],[75.1,4671],[82.4,4754],[89.4,4838],[91.6,4921],[91.6,5004],[91.6,5088],[91.6,5171],[92.2,5255],[93.5,5338],[93.8,5422],[94.4,5505],[95.4,5588],[95.4,5672],[95.4,5755],[95.4,5839],[95.4,5922],[95.4,6005],[95.4,6089],[95.4,6172],[95.4,6256],[95.4,6339],[95.4,6422],[95.4,6506],[95.4,6589],[95.4,6673],[95.4,6756],[95.4,6840],[96.9,6923],[97.1,7006],[97.1,7090],[97.1,7173],[97.1,7257],[97,7340],[96.9,7423],[96.9,7507],[96.9,7590],[96.9,7674],[96.9,7757],[96.9,7841],[96.9,7924],[96.9,8007],[96.9,8091],[96.9,8174],[96.9,8257],[96.9,8341],[96.9,8424],[96.9,8508],[96.9,8591],[96.9,8675],[96.9,8758],[96.9,8841],[96.9,8925],[96.9,9008],[96.9,9092],[96.9,9175],[96.9,9259],[96.9,9342],[96.9,9426],[96.9,9509],[96.9,9592],[96.9,9676],[96.9,9759],[96.9,9842],[96.9,9926],[96.9,10009],[96.9,10093],[96.9,10176],[96.9,10259],[96.8,10343],[96.8,10426],[96.8,10510],[96.8,10593],[96.8,10677],[96.8,10760],[96.8,10843],[96.8,10927],[96.8,11010],[96.8,11094],[96.8,11177],[96.8,11260]]",1,0,730.8253,735.4463,96.04166349,4.1281,"[{""rating"":95.20834287007649,""responseTime"":3.237799999999879},{""rating"":96.04166348775227,""responseTime"":4.128099999999904}]",space,4.0885,,735.4464,Not at all,0,735.4477,,,[],,0,9,9,9,1,audio/Narrative7Situation9.wav,audio/Narrative8Situation9.wav,audio/Narrative5Situation9.wav,audio/Narrative6Situation9.wav,2,3,3,4,,,,,,,,,,,,,,,,,,,,,,,,,,,,,,,,,,,,,,,
,,,,,,5ffe235ea848b74a3b3ccd07,2024-05-13_10h21.54.771,group3.1-3.2-social-tom,2023.2.2,Win32,59.88023952,65c5074098b851296ff0b7ed,66422fbc50a16f631f72d5be,,,,,,,,,,,,,,,,,,,,,,,,,,,,,735.4478,1,audio/Narrative7Situation1.wav,737.4483,,737.4483,793.3197,"[[92.5,250],[3.8,1000],[4.2,1084],[4.2,1167],[4,1251],[5.3,1668],[30.7,1751],[74.2,1835],[88.6,1918],[87.1,2001],[86.6,2085],[86.6,2168],[86.6,2252],[86.6,2335],[84.5,2419],[82.3,2502],[82,2585],[74.5,2669],[54.5,2752],[31.9,2835],[19.6,2919],[19.6,3002],[19.6,3086],[26.4,3169],[46.4,3253],[47.8,3336],[47.8,3419],[47.8,3503],[47.8,3586],[47.8,3670],[44.9,3753],[39.3,3837],[38.8,3920],[38.8,4003],[35.9,4087],[34.9,4170],[34.9,4254],[34.9,4337],[34.5,4420],[31.7,4504],[30.1,4587],[30.1,4671],[30.1,4754],[28.9,4837],[22.2,4921],[20.8,5004],[20.8,5088],[20.4,5171],[17.8,5255],[12.4,5338],[11.8,5422],[10.9,5505],[9.7,5588],[9.2,5672],[9.2,5755],[9.2,5838],[11.1,5922],[13.2,6005],[20,6089],[24.5,6172],[30.3,6256],[37.7,6339],[41.9,6423],[41.9,6506],[43.6,6589],[44.4,6673],[44.4,6756],[45.3,6840],[45.5,6923],[45.5,7006],[45.5,7090],[45.5,7173],[45.5,7257],[45.5,7340],[45.5,7423],[45.5,7507],[45.5,7590],[45.6,7674],[47.8,7757],[48.4,7841],[48.4,7924],[49.7,8007],[53.7,8091],[56,8174],[58.1,8258],[61.3,8341],[66.5,8424],[68.3,8508],[68.3,8591],[68.3,8675],[68.3,8758],[67,8841],[58.2,8925],[54.5,9008],[54.5,9092],[54.5,9175],[54.5,9259],[54.5,9342],[54.5,9425],[57.1,9509],[59.1,9592],[60.3,9675],[60.3,9759],[60.3,9842],[60.3,9926],[60.3,10009],[59.5,10093],[56.7,10176],[56.6,10259],[55.8,10343],[54.7,10426],[51.9,10510],[47.8,10593],[47.5,10676],[47.5,10760],[47.1,10844],[47.1,10927],[47.4,11010],[48.5,11094],[50.6,11177],[53.2,11260],[54.9,11344],[54.9,11427],[54.9,11511],[54.9,11594],[54.9,11678],[54.9,11761],[58,11844],[64.1,11928],[65.3,12011],[65.3,12094],[65.3,12178],[67.7,12261],[71.8,12345],[71.9,12428],[71.9,12512],[71.9,12595],[71.9,12679],[72.4,12762],[74,12845],[75.3,12929],[75.9,13012],[75.9,13096],[75.9,13179],[75.9,13262],[75.9,13346],[75.5,13429],[75.4,13513],[75.4,13596],[75.3,13679],[75.1,13763],[75,13846],[75,13929],[75,14013],[74.7,14097],[74.7,14180],[74.7,14263],[74.7,14347],[74.7,14430],[74.1,14514],[73.8,14597],[73.8,14680],[73.8,14764],[73.8,14847],[73.8,14931],[73.8,15014],[73.8,15098],[73.8,15181],[73.8,15264],[73.8,15348],[73.8,15431],[73.8,15514],[73.8,15598],[73.8,15682],[73.8,15765],[73.8,15848],[73.8,15932],[73.8,16015],[73.8,16099],[73.8,16182],[73.8,16265],[73.8,16349],[73.8,16432],[73.8,16515],[73.8,16599],[73.8,16682],[73.8,16766],[73.8,16849],[73.8,16933],[73.8,17016],[75,17099],[78,17183],[81.4,17266],[81.6,17350],[81.6,17433],[81.6,17516],[81.6,17600],[81.6,17683],[81.6,17767],[81.6,17850],[81.6,17934],[81.6,18017],[81.5,18101],[81.1,18184],[80.9,18267],[80.5,18351],[80.3,18434],[80.1,18518],[79.9,18601],[79.9,18684],[79.9,18768],[79.9,18851],[79.9,18935],[79.9,19018],[79.9,19101],[79.9,19185],[80,19269],[80,19352],[80,19435],[79,19519],[77.4,19602],[73.5,19685],[72.2,19769],[72.2,19852],[76.6,19936],[81.5,20019],[86.4,20102],[86.9,20186],[86.9,20269],[86.9,20353],[86.9,20436],[86.9,20519],[86.9,20603],[86.9,20686],[86.9,20770],[86.9,20853],[88.4,20937],[89.7,21020],[89.9,21103],[89.9,21187],[89.9,21270],[90.6,21354],[93.6,21437],[94.6,21520],[94.6,21604],[94.6,21687],[94.4,21771],[94.3,21854],[94.3,21938],[94.3,22021],[94.3,22104],[94.3,22188],[94.3,22271],[94.2,22355],[94.2,22438],[94.2,22521],[94.2,22605],[94.2,22688],[94.2,22772],[94.2,22855],[93,22939],[91.6,23022],[91.6,23105],[91.6,23189],[93.9,23272],[95,23356],[93.9,23439],[90.6,23523],[90.6,23606],[92.2,23689],[92.7,23773],[92.8,23856],[92.8,23939],[92.8,24023],[92.8,24106],[92.8,24190],[92.8,24273],[92.8,24357],[92.8,24440],[92.8,24524],[92.8,24607],[92.8,24690],[92.8,24774],[92.8,24857],[92.8,24940],[92.7,25024],[92.5,25107],[92.5,25191],[92.2,25274],[92,25358],[91.3,25441],[90.9,25525],[90.9,25608],[90.9,25691],[90.9,25775],[90.9,25858],[90.9,25942],[90.9,26025],[90.9,26108],[90.9,26192],[90.9,26275],[90.9,26359],[90.9,26442],[90.9,26525],[90.9,26609],[90.9,26692],[90.9,26776],[90.9,26859],[90.9,26942],[90.9,27026],[90.9,27109],[90.9,27193],[90.9,27276],[90.9,27360],[90.9,27443],[90.9,27526],[90.9,27610],[90.9,27693],[90.9,27776],[90.9,27860],[90.9,27943],[90.9,28027],[90.9,28110],[90.9,28194],[90.9,28277],[90.9,28360],[90.8,28444],[90.8,28527],[90.8,28611],[90.8,28694],[90.8,28777],[90.8,28861],[90.8,28944],[90.8,29028],[90.8,29111],[90.5,29195],[90.1,29278],[89.4,29361],[88.6,29445],[88.6,29528],[88.6,29612],[88.6,29695],[88.6,29779],[88.6,29862],[88.6,29945],[89.1,30029],[90,30112],[90,30195],[90.3,30279],[91.3,30363],[91.9,30446],[92.2,30529],[92.2,30613],[92.2,30696],[92.2,30780],[92.2,30863],[92.2,30946],[92.2,31030],[92.2,31113],[92.2,31197],[92.2,31280],[92.2,31363],[92.2,31447],[92.2,31530],[92.2,31614],[92.2,31697],[92.2,31780],[92.2,31864],[92,31947],[91.4,32031],[90.9,32114],[90.9,32198],[90.9,32281],[90.9,32364],[90.9,32448],[90.9,32531],[92.2,32615],[95,32698],[95.6,32781],[95.9,32865],[95.9,32948],[95.9,33032],[95.9,33115],[95.9,33198],[95.9,33282],[95.9,33365],[95.9,33449],[95.9,33532],[95.9,33616],[95.6,33699],[95.5,33782],[95.3,33866],[95.1,33949],[95.1,34033],[95.1,34116],[95,34200],[95,34283],[94.9,34366],[94.8,34450],[94.8,34533],[94.8,34616],[94.8,34700],[94.8,34783],[94.8,34867],[94.8,34950],[94.8,35034],[94.8,35117],[94.8,35200],[94.8,35284],[94.8,35367],[94.8,35451],[94.8,35534],[94.8,35617],[94.8,35701],[94.8,35784],[94.8,35868],[94.8,35951],[94.8,36035],[94.8,36118],[94.8,36202],[94.8,36285],[94.8,36368],[94.8,36452],[94.8,36535],[94.8,36619],[94.8,36702],[94.8,36785],[94.8,36869],[94.8,36952],[94.8,37036],[94.8,37119],[94.8,37202],[94.8,37286],[94.8,37369],[94.8,37453],[94.8,37536],[94.8,37620],[94.9,37703],[95,37787],[95,37870],[95,37953],[95,38037],[95,38120],[95,38203],[95,38287],[95,38370],[95,38454],[95,38537],[95,38620],[95,38704],[95,38787],[95,38871],[95,38954],[95,39038],[95,39121],[94.7,39205],[94.7,39288],[94.7,39371],[94.7,39455],[94.7,39538],[94.6,39622],[94.4,39705],[94.4,39788],[94.4,39872],[94.4,39955],[94.4,40039],[94.4,40122],[94.4,40205],[93.9,40289],[93.2,40372],[92.3,40456],[91.4,40539],[91.4,40622],[93.1,40706],[94.9,40789],[95.4,40873],[96,40956],[96.6,41040],[96.9,41123],[97,41206],[97.2,41290],[97.2,41373],[97.2,41457],[97.2,41540],[97.2,41623],[97.2,41707],[97.4,41790],[97.6,41874],[97.6,41957],[97.6,42040],[97.6,42124],[98.3,42208],[98.4,42291],[98.4,42374],[98.5,42458],[98.5,42541],[98.5,42625],[98.8,42708],[98.8,42791],[98.8,42875],[98.8,42958],[98.8,43042],[98.8,43125],[98.8,43208],[98.8,43292],[98.8,43375],[99,43459],[99.1,43542],[99.1,43625],[99.1,43709],[99.1,43792],[99.1,43876],[99.1,43959],[99,44043],[98.9,44126],[98.9,44209],[98.9,44293],[98.9,44376],[98.9,44460],[98.9,44543],[98.9,44626],[98.9,44710],[98.9,44793],[98.9,44877],[98.9,44960],[98.9,45043],[98.9,45127],[98.9,45210],[98.9,45294],[98.9,45377],[98.9,45461],[98.9,45544],[98.9,45627],[98.9,45711],[98.9,45794],[98.9,45878],[98.9,45961],[98.9,46044],[98.9,46128],[98.9,46211],[98.9,46295],[98.9,46378],[98.9,46461],[98.9,46545],[98.9,46628],[98.9,46712],[98.9,46795],[98.9,46879],[98.9,46962],[98.9,47045],[98.9,47129],[98.9,47212],[98.9,47296],[98.9,47379],[98.9,47463],[98.9,47546],[98.9,47629],[98.9,47713],[98.9,47796],[98.8,47880],[98.6,47963],[98.4,48046],[98.4,48130],[98.4,48213],[98.4,48297],[98.4,48380],[98.4,48463],[98.4,48547],[98.4,48630],[98.4,48714],[98.4,48797],[98.4,48881],[98.4,48964],[98.4,49048],[98.4,49131],[98.4,49214],[98.4,49298],[98.4,49381],[98.4,49464],[98.4,49548],[98.4,49631],[98.4,49715],[98.4,49798],[98.4,49882],[98.4,49965],[98.4,50048],[98.4,50132],[98.4,50215],[98.4,50299],[98.4,50382],[98.4,50465],[98.4,50549],[98.4,50632],[98.4,50716],[98.4,50799],[98.4,50882],[98.4,50966],[98.4,51049],[98.4,51133],[98.4,51216],[98.4,51300],[98.4,51383],[98.4,51466],[98.4,51550],[98.4,51633],[98.2,51717],[98.2,51800],[98.2,51883],[98.1,51967],[98.1,52050],[98.1,52134],[98.1,52217],[98.1,52301],[98.1,52384],[98.1,52467],[98.1,52551],[98.1,52634],[98.1,52718],[98.1,52801],[98.1,52885],[98.1,52968],[98.1,53051],[98.1,53135],[98.1,53218],[98.1,53302],[98.1,53385],[98.1,53468],[98.1,53552],[98.3,53635],[98.4,53719],[99.3,53802],[99.8,53886],[99.9,53969],[99.9,54052],[99.9,54136],[99.9,54219],[99.9,54303],[99.9,54386],[99.9,54469],[99.9,54553],[99.9,54636],[99.9,54719],[99.9,54803],[99.9,54886],[99.9,54970],[99.9,55053],[99.9,55137],[99.9,55220],[99.9,55304],[99.9,55387],[99.9,55470],[99.9,55554],[99.9,55637],[99.9,55721],[99.9,55804]]",1,0,793.32,801.2107,88.64583969,6.4632,"[{""rating"":88.64583969116211,""responseTime"":6.463199999999915}]",space,7.3703,,801.2107,Partially,50,801.2133,,,[],,0,10,10,10,1,audio/Narrative8Situation1.wav,audio/Narrative7Situation1.wav,audio/Narrative6Situation1.wav,audio/Narrative5Situation1.wav,5,2,2,5,,,,,,,,,,,,,,,,,,,,,,,,,,,,,,,,,,,,,,,
,,,,,,5ffe235ea848b74a3b3ccd07,2024-05-13_10h21.54.771,group3.1-3.2-social-tom,2023.2.2,Win32,59.88023952,65c5074098b851296ff0b7ed,66422fbc50a16f631f72d5be,,,,,,,,,,,,,,,,,,,,,,,,,,,,,801.2134,1,audio/Narrative7Situation2.wav,804.2135,,804.2136,811.6877,"[[999,5],[999,83],[999,166],[999,250],[999,333],[1.3,1751],[10.2,1835],[29,1918],[44,2001],[51.5,2085],[65.1,2168],[86.3,2252],[89.3,2335],[89.3,2419],[89.6,2502],[89.6,2585],[89.6,2669],[89.7,2752],[89.7,2836],[89.7,2919],[89.7,3003],[89.7,3086],[89.7,3169],[89.7,3253],[89.7,3336],[89.7,3419],[89.7,3503],[90.5,3587],[93.3,3670],[93.5,3753],[93.5,3837],[94.3,3920],[94.5,4004],[94.5,4087],[94.7,4170],[95.2,4254],[95.6,4337],[95.9,4421],[96.3,4504],[96.3,4587],[96.3,4671],[96.3,4754],[96.3,4837],[97,4921],[97.2,5004],[97.2,5088],[97.2,5171],[97.2,5255],[96.9,5338],[96.8,5422],[96.8,5505],[96.8,5588],[96.8,5672],[96.8,5755],[96.8,5838],[96.8,5922],[96.8,6005],[96.8,6089],[96.8,6172],[96.8,6256],[96.8,6339],[96.8,6423],[96.8,6506],[96.8,6589],[96.8,6673],[96.8,6756],[96.8,6840],[96.8,6923],[96.8,7006],[96.8,7090],[96.8,7173],[96.8,7257],[96.8,7340],[96.8,7424]]",1,0,811.6877,832.3244,97.18750318,1.497,"[{""rating"":97.18750317891438,""responseTime"":1.497000000000071}]",space,20.1148,,832.3244,Not at all,0,832.3326,,,[],,0,11,11,11,1,audio/Narrative8Situation2.wav,audio/Narrative7Situation2.wav,audio/Narrative6Situation2.wav,audio/Narrative5Situation2.wav,3,3,3,3,,,,,,,,,,,,,,,,,,,,,,,,,,,,,,,,,,,,,,,
,,,,,,5ffe235ea848b74a3b3ccd07,2024-05-13_10h21.54.771,group3.1-3.2-social-tom,2023.2.2,Win32,59.88023952,65c5074098b851296ff0b7ed,66422fbc50a16f631f72d5be,,,,,,,,,,,,,,,,,,,,,,,,,,,,,832.3328,1,audio/Narrative7Situation3.wav,840.3491,,840.3491,849.5913,"[[93.3,1501],[0.1,2252],[2.5,2752],[11.8,2836],[23.1,2919],[35.2,3002],[44.4,3086],[45.9,3169],[45.9,3253],[45.9,3336],[45.9,3419],[45.9,3503],[45.9,3586],[46.8,3670],[51.5,3753],[59.7,3836],[61.1,3920],[61.1,4003],[61.1,4086],[61.1,4170],[61.1,4254],[61.1,4337],[62.8,4420],[74.2,4504],[80.3,4587],[80.3,4671],[80.3,4754],[80.3,4838],[80.3,4921],[80.3,5004],[80.3,5088],[80.3,5171],[80.3,5254],[80.3,5338],[80.3,5421],[80.3,5505],[80.3,5588],[80.3,5672],[80.3,5755],[80.3,5838],[80.3,5922],[80.3,6005],[80.3,6089],[80.3,6172],[80.3,6255],[80.3,6339],[80.3,6422],[80.9,6506],[81.7,6589],[83.5,6673],[86,6756],[87.1,6839],[88.1,6923],[89.6,7006],[91.9,7090],[93,7173],[93.1,7256],[93.1,7340],[93.1,7423],[93.1,7507],[93.3,7590],[93.6,7673],[93.6,7757],[93.6,7841],[93.6,7924],[93.6,8007],[93.6,8091],[93.6,8174],[93.6,8257],[93.6,8341],[93.6,8424],[93.6,8508],[93.6,8591],[93.6,8675],[93.6,8758],[93.6,8841],[93.6,8925],[93.6,9008],[93.6,9091],[93.6,9175]]",1,0,849.5914,854.0456,78.64583333,4.0279,"[{""rating"":72.81250158945718,""responseTime"":2.493400000000179},{""rating"":83.33333333333333,""responseTime"":3.4064000000001897},{""rating"":78.64583333333333,""responseTime"":4.027900000000159}]",space,3.9226,,854.0456,Not at all,0,854.0466,,,[],,0,12,12,12,1,audio/Narrative8Situation3.wav,audio/Narrative7Situation3.wav,audio/Narrative6Situation3.wav,audio/Narrative5Situation3.wav,4,8,5,3,,,,,,,,,,,,,,,,,,,,,,,,,,,,,,,,,,,,,,,
,,,,,,5ffe235ea848b74a3b3ccd07,2024-05-13_10h21.54.771,group3.1-3.2-social-tom,2023.2.2,Win32,59.88023952,65c5074098b851296ff0b7ed,66422fbc50a16f631f72d5be,,,,,,,,,,,,,,,,,,,,,,,,,,,,,854.0467,1,audio/Narrative7Situation4.wav,857.0485,,857.0485,868.7601,"[[9.4,6256],[40.3,6339],[67,6423],[71.1,6506],[71.1,6589],[71.1,6673],[71.1,6756],[71.1,6840],[71.1,6923],[70.5,7006],[64.7,7090],[52.8,7173],[45.6,7257],[45.2,7340],[44,7424],[29.9,7507],[12.8,7591],[12.8,7674],[12.8,7757],[12.5,7840],[12,7924],[10.2,8008],[9.8,8091],[9.8,8174],[9.8,8258],[9.8,8341],[9.8,8425],[9.8,8508],[9.8,8591],[9.8,8675],[9.8,8758],[9.8,8842],[9.8,8925],[9.8,9009],[9.8,9092],[9.8,9175],[9.8,9259],[8.8,9342],[6.3,9426],[6.3,9509],[6.1,9592],[1.4,9676]]",1,0,868.7603,884.342,0.625002384,3.3473,"[{""rating"":0.625002384185791,""responseTime"":3.347299999999791}]",space,15.0582,,884.342,Partially,50,884.3505,,,[],,0,13,13,13,1,audio/Narrative8Situation4.wav,audio/Narrative7Situation4.wav,audio/Narrative6Situation4.wav,audio/Narrative5Situation4.wav,3,3,2,1,,,,,,,,,,,,,,,,,,,,,,,,,,,,,,,,,,,,,,,
,,,,,,5ffe235ea848b74a3b3ccd07,2024-05-13_10h21.54.771,group3.1-3.2-social-tom,2023.2.2,Win32,59.88023952,65c5074098b851296ff0b7ed,66422fbc50a16f631f72d5be,,,,,,,,,,,,,,,,,,,,,,,,,,,,,884.3507,1,audio/Narrative7Situation5.wav,889.3636,,889.3636,897.8385,"[[999,6],[999,83],[999,166],[999,250],[999,333],[999,417],[999,500],[0.9,2585],[2.5,2669],[3.8,2752],[5.6,2836],[8.9,2919],[19,3002],[34.8,3086],[39.7,3169],[39.7,3253],[39.7,3336],[39.7,3419],[39.7,3503],[39.7,3586],[39.7,3670],[39.7,3753],[32.4,3836],[29.6,3920],[29.6,4003],[29.6,4087],[29.6,4170],[29.6,4254],[31.6,4337],[32.4,4420],[32.4,4504],[32.4,4587],[30.3,4671],[27.2,4754],[24.9,4838],[24.4,4921],[24.4,5004],[24.4,5088],[27.6,5171],[30,5255],[31.3,5338],[31.5,5421],[31.5,5505],[31.5,5588],[31.5,5671],[30.5,5755],[29.3,5838],[25.1,5922],[21.9,6005],[19.7,6089],[16.1,6172],[13.5,6256],[10.9,6339],[9.6,6423],[9.6,6506],[9.6,6589],[9.6,6673],[9.6,6756],[9.6,6840],[9.6,6923],[9.6,7006],[9.6,7090],[9.6,7173],[9.6,7256],[9.6,7340],[9.6,7423],[9.6,7507],[9.6,7590],[9.6,7673],[9.6,7757],[9.6,7841],[9.6,7924],[9.6,8007],[9.6,8091],[9.6,8174],[9.6,8257],[9.6,8341],[9.6,8424]]",1,0,897.8386,901.7589,9.270834923,2.5872,"[{""rating"":9.270834922790527,""responseTime"":2.5872000000001663}]",space,3.395,,901.759,Definitely yes,100,901.7613,,,[],,0,14,14,14,1,audio/Narrative8Situation5.wav,audio/Narrative7Situation5.wav,audio/Narrative6Situation5.wav,audio/Narrative5Situation5.wav,2,5,2,5,,,,,,,,,,,,,,,,,,,,,,,,,,,,,,,,,,,,,,,
,,,,,,5ffe235ea848b74a3b3ccd07,2024-05-13_10h21.54.771,group3.1-3.2-social-tom,2023.2.2,Win32,59.88023952,65c5074098b851296ff0b7ed,66422fbc50a16f631f72d5be,,,,,,,,,,,,,,,,,,,,,,,,,,,,,901.7614,1,audio/Narrative7Situation6.wav,904.762,,904.762,914.7219,"[[999,6],[999,83],[999,166],[10.3,250],[9.1,333],[7.2,417],[5.4,500],[2.5,583],[1.6,667],[1.6,750],[1.6,833],[1.6,917],[1.6,1001],[1.6,1084],[1.6,1167],[1.6,1251],[1.6,1334],[1.6,1417],[2.1,1501],[2.2,1584],[2.2,1668],[2.2,1751],[2.2,1835],[2.8,1918],[8.6,2001],[23.8,2085],[43.8,2168],[70.7,2752],[72.1,2836],[84.1,2919],[85.5,3002],[85.5,3086],[92.3,3169],[93.1,3253],[93.1,3336],[93.1,3419],[93.1,3503],[95,3586],[99,3670],[100,3753],[100,3837],[100,3920],[100,4003],[100,4087],[100,4170],[100,4254],[100,4337],[100,4420],[100,4504],[100,4587],[100,4671],[100,4754],[100,4838],[100,4921],[100,5004],[100,5088],[100,5171],[100,5254],[100,5338],[100,5421],[100,5505],[100,5588],[100,5672],[100,5755],[100,5838],[100,5922],[100,6005],[100,6089],[100,6172],[100,6256],[100,6339],[100,6422],[100,6506],[100,6589],[100,6673],[100,6756],[100,6840],[100,6923],[100,7006],[100,7090],[99.2,7173],[99.1,7256],[99.1,7340],[99.1,7423],[100,7507],[100,7590],[100,7674],[100,7757],[100,7841],[99.7,7924],[99.7,8007],[98.8,8091],[98.5,8174],[98.5,8258],[98.5,8341],[98.5,8424],[98.5,8508],[98.5,8591],[98.5,8675],[98.5,8758],[98.5,8841],[98.5,8925],[98.5,9008],[98.5,9092],[97.5,9175],[95.6,9259],[95.1,9342],[95.1,9425],[95.1,9509],[95.1,9592],[95.1,9676],[95.1,9759],[95.1,9842],[95.1,9926]]",1,0,914.722,918.075,96.66666985,1.8629,"[{""rating"":96.66666984558105,""responseTime"":1.8629000000000815}]",space,2.8316,,918.075,Not at all,0,918.0771,,,[],,0,15,15,15,1,audio/Narrative8Situation6.wav,audio/Narrative7Situation6.wav,audio/Narrative6Situation6.wav,audio/Narrative5Situation6.wav,2,3,2,3,,,,,,,,,,,,,,,,,,,,,,,,,,,,,,,,,,,,,,,
,,,,,,5ffe235ea848b74a3b3ccd07,2024-05-13_10h21.54.771,group3.1-3.2-social-tom,2023.2.2,Win32,59.88023952,65c5074098b851296ff0b7ed,66422fbc50a16f631f72d5be,,,,,,,,,,,,,,,,,,,,,,,,,,,,,918.0772,1,audio/Narrative7Situation7.wav,923.0801,,923.0801,940.2467,"[[0.6,166],[0.9,250],[1.7,333],[1.9,417],[1.9,500],[1.9,583],[1.9,667],[1.5,750],[0.8,833],[0.6,917],[0.5,1000],[1.6,1084],[6.5,1167],[8.8,1250],[12.1,1334],[19.6,1418],[31.7,1501],[39.7,1584],[52.8,1668],[66.2,1751],[88.4,2168],[82.5,2252],[82.5,2335],[81.9,2418],[85.2,2502],[90.3,2585],[92.5,2669],[94.9,2752],[95.5,2835],[95.5,2919],[95.5,3002],[96.8,3086],[100,3169],[100,3252],[99.3,3336],[98.1,3419],[98.1,3503],[98.1,3586],[98.1,3669],[97.8,3753],[95.6,3836],[95,3920],[95.1,4003],[97.8,4087],[98.9,4170],[98.9,4254],[98.8,4337],[97.5,4420],[96.5,4504],[96.4,4587],[95.3,4671],[94.1,4754],[94.1,4837],[94.4,4921],[95.6,5004],[96.1,5088],[97.1,5171],[97.3,5254],[97.4,5338],[97.4,5421],[97.1,5505],[94.9,5588],[93.1,5672],[92.9,5755],[96,5838],[96.9,5922],[97.1,6005],[97.5,6089],[98.1,6172],[98.1,6255],[98.1,6339],[98.1,6422],[98,6505],[97.7,6589],[97.7,6673],[97.7,6756],[97.7,6839],[97.7,6923],[97.5,7006],[97.2,7090],[97.2,7173],[97.2,7256],[97.2,7340],[97.2,7423],[97.2,7507],[97.2,7590],[97.2,7673],[97.2,7757],[97.2,7840],[97.2,7924],[97.2,8007],[97.2,8091],[97.2,8174],[97.2,8257],[97.2,8341],[97.2,8424],[97.2,8508],[97.2,8591],[97.2,8674],[97.2,8758],[97.2,8841],[97.2,8925],[97.2,9008],[97.2,9091],[97.2,9175],[97.2,9258],[97.2,9342],[97.2,9425],[97.2,9509],[97.2,9592],[97.2,9675],[97.2,9759],[97.2,9842],[97.2,9926],[97.2,10009],[97.2,10093],[97.2,10176],[97.2,10259],[97.2,10343],[97.2,10426],[97.2,10510],[97.2,10593],[97.2,10676],[97.2,10760],[97.2,10843],[97.2,10927],[97.2,11010],[97.2,11093],[97.2,11177],[97.2,11260],[97.2,11344],[97.2,11427],[97.2,11510],[97.2,11594],[97.2,11677],[97.2,11761],[97.2,11844],[97.2,11927],[97.2,12011],[97.2,12094],[97.2,12178],[97.2,12261],[97.2,12345],[97.2,12428],[97.8,12512],[98.8,12595],[99.1,12678],[99.1,12762],[99.1,12845],[99.1,12928],[99.1,13012],[99.2,13095],[99.2,13179],[99.2,13262],[99.2,13346],[99.2,13429],[99.2,13513],[99.2,13596],[99.2,13679],[99,13763],[98.6,13846],[98.1,13929],[97.7,14013],[97.7,14096],[97.7,14180],[97.5,14263],[97.1,14347],[96.9,14430],[96.6,14514],[96.6,14597],[96.3,14680],[95.6,14764],[95.3,14847],[94.7,14931],[94.4,15014],[94,15097],[93.3,15181],[93.3,15264],[93,15348],[91.9,15431],[91.7,15515],[91.7,15598],[91.7,15681],[91.7,15765],[91.7,15848],[91.7,15932],[91.7,16015],[91.7,16099],[91.7,16182],[91.7,16265],[91.7,16349],[91.7,16432],[91.7,16515],[91.7,16599],[91.7,16682],[91.7,16766],[91.7,16849],[91.7,16932],[91.7,17016],[91.7,17099]]",1,0,940.2468,946.3194,95.10416985,4.0256,"[{""rating"":95.10416984558105,""responseTime"":4.025599999999827}]",space,5.5473,,946.3194,Partially,50,946.3214,,,[],,0,16,16,16,1,audio/Narrative8Situation7.wav,audio/Narrative7Situation7.wav,audio/Narrative6Situation7.wav,audio/Narrative5Situation7.wav,3,5,5,4,,,,,,,,,,,,,,,,,,,,,,,,,,,,,,,,,,,,,,,
,,,,,,5ffe235ea848b74a3b3ccd07,2024-05-13_10h21.54.771,group3.1-3.2-social-tom,2023.2.2,Win32,59.88023952,65c5074098b851296ff0b7ed,66422fbc50a16f631f72d5be,,,,,,,,,,,,,,,,,,,,,,,,,,,,,946.3215,1,audio/Narrative7Situation8.wav,948.338,,948.3381,958.3645,"[[999,0],[999,83],[999,166],[999,250],[999,333],[999,416],[999,500],[999,583],[3.8,5671],[16.9,5755],[29.7,5838],[44,5922],[57.2,6005],[69.1,6089],[75.3,6172],[77.4,6256],[79.7,6339],[85,6422],[87.2,6506],[88.2,6589],[89.6,6673],[89.6,6756],[89.6,6839],[89.6,6923],[89.6,7006],[89.6,7089],[89.6,7173],[89.6,7256],[89.6,7340],[89.6,7423],[89.6,7507],[89.6,7590],[89.6,7673],[89.6,7757],[89.6,7840],[89.6,7924],[89.6,8007],[88.4,8091],[85.6,8174],[84.3,8257],[81.9,8341],[80.2,8424],[80.2,8508],[80.2,8591],[80.2,8674],[80.2,8758],[80,8841],[77.7,8925],[73.9,9008],[72.2,9092],[71.9,9175],[70.9,9259],[70.9,9342],[70.9,9425],[70.9,9509],[70.9,9592],[71,9676],[71.3,9759],[71.7,9842],[72.2,9926],[72.6,10009]]",1,0,958.3645,963.4693,62.91666826,1.751,"[{""rating"":62.91666825612386,""responseTime"":1.7509999999999764}]",space,4.5731,,963.4693,Partially,50,963.4765,,,[],,0,17,17,17,1,audio/Narrative8Situation8.wav,audio/Narrative7Situation8.wav,audio/Narrative6Situation8.wav,audio/Narrative5Situation8.wav,3,2,5,3,,,,,,,,,,,,,,,,,,,,,,,,,,,,,,,,,,,,,,,
,,,,,,5ffe235ea848b74a3b3ccd07,2024-05-13_10h21.54.771,group3.1-3.2-social-tom,2023.2.2,Win32,59.88023952,65c5074098b851296ff0b7ed,66422fbc50a16f631f72d5be,,,,,,,,,,,,,,,,,,,,,,,,,,,,,963.4766,1,audio/Narrative7Situation9.wav,965.488,,965.4881,974.1131,"[[999,0],[999,83],[999,166],[999,250],[999,333],[999,417],[999,500],[2.3,583],[4.7,1418],[31.8,1501],[57.6,1584],[68.4,1668],[68.4,1751],[77.2,1835],[90.6,1918],[94.4,2001],[100,2085],[100,2168],[100,2252],[100,2335],[100,2418],[100,2502],[100,2585],[100,2669],[100,2752],[100,2836],[100,2919],[100,3002],[100,3086],[100,3169],[100,3252],[100,3336],[100,3420],[100,3503],[100,3586],[100,3670],[100,3753],[100,3836],[100,3920],[100,4003],[100,4087],[100,4170],[100,4254],[100,4337],[100,4420],[100,4504],[100,4587],[100,4671],[100,4754],[100,4837],[100,4921],[100,5004],[100,5088],[100,5171],[100,5254],[100,5338],[100,5421],[100,5505],[100,5588],[100,5672],[100,5755],[100,5838],[100,5922],[100,6005],[100,6089],[100,6172],[100,6256],[100,6339],[100,6422],[100,6506],[100,6589],[100,6673],[100,6756],[100,6840],[100,6923],[100,7006],[99.3,7090],[96.6,7173],[94.5,7257],[94.4,7340],[94.4,7423],[95.2,7507],[96.3,7590],[96.9,7674],[97.2,7757],[97.2,7840],[97.2,7924],[97.2,8007],[97.2,8091],[97.2,8174],[97.2,8257],[97.2,8341],[97.4,8425],[97.5,8508],[97.8,8591]]",1,0,974.1132,975.8316,98.12499682,0.6087,"[{""rating"":98.12499682108562,""responseTime"":0.6086999999999989}]",space,1.1929,,975.8317,Not at all,0,975.834,,,[],,0,18,18,18,1,audio/Narrative8Situation9.wav,audio/Narrative7Situation9.wav,audio/Narrative6Situation9.wav,audio/Narrative5Situation9.wav,3,2,4,3,,,,,,,,,,,,,,,,,,,,,,,,,,,,,,,,,,,,,,,
,,,,,,5ffe235ea848b74a3b3ccd07,2024-05-13_10h21.54.771,group3.1-3.2-social-tom,2023.2.2,Win32,59.88023952,65c5074098b851296ff0b7ed,66422fbc50a16f631f72d5be,,,,,,,,,,,,,,,,,,,,,,,,,,,991.7706,994.3498,994.3589,2,audio/Narrative13Situation2.wav,994.3591,,994.3591,1024.1122,"[[999,0],[999,73],[999,157],[999,240],[999,324],[999,407],[999,491],[999,574],[999,657],[999,741],[0.1,1742],[0.1,1825],[0.1,1908],[0.1,1992],[0.1,2075],[0.1,2159],[0.1,2242],[0.1,2326],[0.1,2409],[0.1,2493],[0.1,2576],[0.1,2659],[0.1,2743],[0.1,2826],[0.1,2909],[0.1,2993],[0.1,3076],[0.1,3160],[0.1,3243],[0.1,3326],[0.1,3410],[0.1,3494],[0.1,3577],[0.1,3660],[0.1,3744],[0.1,3827],[0.1,3910],[0.1,3994],[0.1,4077],[0.1,4161],[0.1,4244],[0.1,4328],[0.1,4411],[0.1,4494],[0.1,4578],[0.1,4661],[0.1,4745],[0.1,4828],[0.1,4912],[0.1,4995],[0.1,5078],[0.1,5162],[0.1,5245],[0.1,5329],[0.1,5412],[0.1,5495],[0.1,5579],[0.1,5662],[0.1,5746],[0.1,5829],[0.1,5912],[0.1,5996],[0.1,6079],[0.1,6163],[0.1,6246],[0.1,6329],[0.1,6413],[0.1,6496],[0.1,6580],[0.1,6663],[0.1,6746],[0.1,6830],[0.1,6913],[0.1,6997],[0.1,7080],[0.1,7164],[0.1,7247],[0.1,7331],[0.1,7414],[0.1,7497],[0.1,7581],[0.1,7664],[0.1,7748],[0.6,7831],[20.8,7914],[69.7,7998],[81.3,8081],[82,8165],[83.9,8248],[91.6,8331],[93.2,8415],[93.2,8498],[94,8582],[96.1,8665],[96.6,8748],[96.6,8832],[96.6,8916],[96.6,8999],[96.6,9082],[96.6,9166],[96.6,9249],[96.6,9332],[96.6,9416],[96.6,9499],[97.4,9583],[98.5,9666],[98.8,9749],[98.8,9833],[98.8,9916],[98.8,10000],[98.8,10083],[98.8,10167],[98.8,10250],[98.8,10333],[98.8,10417],[98.8,10500],[98.8,10584],[98.8,10667],[98.8,10751],[98.8,10834],[98.8,10917],[98.8,11001],[98.8,11084],[98.8,11168],[98.8,11251],[98.8,11334],[98.8,11418],[98.8,11501],[98.8,11585],[98.8,11668],[98.8,11752],[98.8,11835],[98.8,11918],[98.8,12002],[98.8,12085],[98.8,12169],[98.8,12252],[98.8,12335],[98.8,12419],[98.8,12502],[98.8,12586],[98.8,12669],[98.8,12753],[98.8,12836],[98.8,12919],[98,13003],[96.5,13086],[95.3,13169],[95,13253],[95,13336],[95.6,13420],[97.8,13503],[98.6,13586],[98.6,13670],[98.6,13754],[97.1,13837],[97.1,13920],[98.1,14004],[98.4,14087],[97.7,14171],[97.5,14254],[98.5,14337],[98.5,14421],[98,14504],[97.8,14588],[97.3,14671],[97.3,14754],[97.3,14838],[95.1,14922],[92.8,15005],[89.5,15088],[85.9,15172],[75.4,15255],[63.2,15338],[55.6,15422],[46.3,15505],[35.1,15589],[23.1,15672],[17.2,15755],[13.1,15839],[9.6,15922],[7.8,16006],[5.6,16089],[5.4,16172],[5.4,16256],[5.4,16339],[5.4,16423],[5.4,16506],[5.4,16590],[5.4,16673],[5.4,16757],[5.4,16840],[5.4,16923],[5.4,17006],[5.4,17090],[5.4,17173],[5,17257],[4.7,17341],[3.8,17424],[3.1,17507],[2.4,17591],[2.3,17674],[2.3,17757],[1.9,17841],[1.7,17924],[1.6,18008],[1.6,18091],[1.6,18174],[1.6,18258],[1.6,18341],[1.6,18425],[1.6,18508],[1.6,18592],[1.6,18675],[1.6,18758],[1.6,18842],[1.6,18925],[1.6,19009],[1.6,19092],[1.6,19176],[1.6,19259],[1.6,19342],[1.6,19426],[1.6,19509],[1.6,19593],[1.6,19676],[1.6,19759],[1.6,19843],[1.6,19926],[1.6,20009],[1.6,20093],[1.6,20176],[1.6,20260],[1.6,20343],[1.6,20427],[1.6,20510],[1.6,20594],[1.6,20677],[1.6,20760],[1.6,20844],[1.6,20927],[1.6,21010],[2.3,21094],[2.4,21177],[2.4,21261],[2.4,21344],[2.4,21428],[3.6,21511],[5,21595],[7.1,21678],[14.4,21761],[23.6,21845],[32.3,21928],[37.2,22012],[37.7,22095],[44.8,22178],[58.9,22262],[64.8,22345],[66.4,22429],[70.6,22512],[72.2,22595],[72.3,22679],[72.5,22762],[72.5,22846],[72.5,22929],[72.5,23013],[72.5,23096],[72.5,23179],[72.5,23263],[71.3,23346],[70,23429],[69.7,23513],[69.5,23596],[69.5,23680],[73.4,23763],[76.4,23847],[76.4,23930],[76.4,24014],[76.4,24097],[76.3,24181],[74.7,24264],[72.2,24347],[68.2,24431],[66.6,24514],[66.6,24597],[66.2,24681],[63.4,24764],[66.8,24848],[68.1,24931],[70.1,25014],[70.8,25098],[70.8,25181],[76.3,25265],[76.6,25348],[75.9,25432],[71.4,25515],[67.9,25598],[68.5,25682],[75.9,25765],[77.8,25849],[77.8,25932],[78.2,26015],[80.6,26099],[80.6,26182],[80.6,26266],[80.6,26349],[80.4,26432],[80.3,26516],[79.1,26600],[77.8,26683],[73.4,26766],[69,26850],[63.8,26933],[63,27016],[62,27100],[58.4,27183],[57.2,27267],[57.2,27350],[57.2,27434],[61.6,27517],[68.4,27600],[73.8,27684],[74.9,27767],[77.7,27851],[77.8,27934],[77.8,28017],[77.8,28101],[77.8,28184],[77.8,28268],[77.8,28351],[77.8,28435],[77.8,28518],[77.8,28601],[77.8,28685],[77.8,28768],[77.8,28852],[77.8,28935],[77.8,29018],[77.8,29102],[77.8,29185],[77.8,29269],[77.8,29352],[77.8,29435],[75.9,29519],[73.9,29602],[72.4,29686]]",1,0,1024.1123,1024.1141,,,[],,,,1024.1141,Not at all,0,1024.115,,,[],,0,0,0,0,1,audio/Narrative13Situation2.wav,audio/Narrative13Situation2.wav,audio/Narrative13Situation2.wav,audio/Narrative13Situation2.wav,2,2,2,2,,,,,975.8345,991.7644,space,15.4092,,,,,,,,,,,,,,,,,,,,,,,,,,,,,,,
,,,,,,5ffe235ea848b74a3b3ccd07,2024-05-13_10h21.54.771,group3.1-3.2-social-tom,2023.2.2,Win32,59.88023952,65c5074098b851296ff0b7ed,66422fbc50a16f631f72d5be,,,,,,,,,,,,,,,,,,,,,,,,,,,,,1024.1151,2,audio/Narrative6Situation1.wav,1026.1308,,1026.1309,1052.7069,"[[68.4,250],[65.8,333],[60.1,416],[5,1584],[17,1668],[17.7,1751],[17.8,1835],[21.8,1918],[25.2,2001],[24.1,2085],[13.3,2168],[4.4,2252],[4,2335],[2.7,2418],[1.7,2502],[1.3,2585],[1.3,2669],[1.3,2752],[1.3,2835],[1.3,2919],[1.4,3002],[1.8,3086],[2.2,3169],[2.4,3252],[2.4,3336],[2.4,3419],[2.8,3503],[4,3586],[4.3,3669],[4.3,3753],[4.4,3836],[4.4,3920],[4.4,4003],[4.4,4087],[4.4,4170],[4.4,4253],[4,4337],[3.6,4420],[3.5,4504],[3.1,4587],[2.8,4671],[2.8,4754],[2.8,4837],[2.8,4921],[2.8,5004],[2.8,5087],[2.9,5171],[4.2,5254],[4.4,5338],[4.4,5421],[4.4,5505],[4.4,5588],[4.3,5672],[3.2,5755],[2.6,5839],[2.4,5922],[2.4,6005],[2.4,6089],[2.4,6172],[2.4,6255],[2.4,6339],[2.4,6422],[2.4,6506],[2.4,6589],[2.4,6673],[2.4,6756],[2.8,6839],[8.4,6923],[50.7,7006],[74,7089],[74.4,7173],[74.4,7257],[74.7,7340],[79.6,7423],[86.1,7507],[86.4,7590],[86.4,7673],[86.4,7757],[86.4,7840],[87.3,7924],[89.1,8007],[89.3,8091],[89.3,8174],[89.3,8257],[89.3,8341],[89.4,8424],[89.4,8508],[89.7,8591],[89.7,8674],[89.8,8758],[89.8,8841],[89.8,8924],[89.8,9008],[89.8,9092],[94.7,9175],[94.7,9258],[87.4,9342],[75.3,9425],[69.7,9509],[73.2,9592],[79.8,9676],[79.8,9759],[83.4,9842],[89.4,9926],[89.4,10009],[89.1,10093],[83.8,10176],[82.5,10259],[87,10343],[90.3,10426],[87.5,10510],[85.9,10593],[87.5,10676],[78.7,10760],[73.4,10843],[74.4,10927],[66.9,11010],[65.6,11093],[61.3,11177],[60.5,11260],[58.8,11344],[42.2,11427],[28.9,11511],[2.2,12261],[2.2,12345],[2.2,12428],[2.2,12511],[4.7,12595],[8.4,12678],[8.4,12762],[8.4,12845],[8.3,12929],[7.5,13012],[7.3,13095],[7.3,13179],[7.3,13262],[7.3,13346],[7.7,13429],[7.8,13512],[7.8,13596],[7.8,13679],[7.8,13763],[6.9,13846],[6.7,13930],[6.7,14013],[5,14096],[4.4,14180],[3.8,14263],[3.6,14347],[3.2,14430],[2.8,14513],[2.7,14597],[2.7,14680],[2.7,14764],[3,14847],[3,14931],[3,15014],[3,15097],[3,15181],[2.2,15264],[2,15348],[3.4,15431],[4.3,15514],[3.1,15598],[1.1,15681],[1.1,15765],[3.5,15848],[2.5,15932],[1.3,16015],[2.5,16098],[2.2,16182],[1.6,16265],[1.6,16349],[1.1,16432],[1.1,16515],[2.7,16599],[4,16682],[3.5,16766],[2.1,16849],[2.1,16932],[4.1,17016],[3.5,17099],[2.6,17183],[2.6,17266],[2.6,17350],[2.6,17433],[2.6,17516],[2.6,17600],[4.8,17683],[5,17767],[4.4,17850],[2,17933],[1.6,18017],[2.8,18100],[3,18184],[2.1,18267],[2,18351],[2,18434],[2.8,18517],[2.8,18601],[3.1,18684],[3.5,18768],[3.5,18851],[2.7,18934],[2.6,19018],[3.4,19101],[3.4,19185],[2.8,19269],[2.5,19352],[3.2,19435],[3.5,19518],[2.6,19602],[2.6,19685],[4.6,19769],[4.3,19852],[1.9,19936],[1.8,20019],[2.4,20103],[2.5,20186],[2.5,20269],[2.6,20353],[5.1,20436],[11.6,20519],[16.3,20603],[16.3,20686],[21.8,20770],[30.2,20853],[30,20937],[29.8,21020],[29.6,21103],[29.6,21187],[29.6,21270],[29.6,21353],[29.2,21437],[30.4,21520],[34.4,21604],[39.7,21687],[52.8,21771],[58.4,21854],[67.9,21938],[71.6,22021],[76.3,22104],[77.5,22188],[83.4,22271],[84.1,22354],[85.5,22438],[89.9,22522],[89.9,22605],[89.9,22688],[89.9,22772],[91.7,22855],[92.2,22939],[92.1,23022],[91.9,23105],[91.8,23189],[91.8,23272],[91.7,23355],[92.9,23439],[93.1,23522],[91.5,23606],[87.7,23689],[86.7,23773],[86.7,23856],[86.5,23940],[87.2,24023],[91.4,24106],[91.5,24190],[87.1,24273],[87.2,24356],[90.9,24440],[88.4,24523],[88.1,24607],[90.5,24690],[90.6,24774],[87.2,24857],[87.6,24940],[89.4,25024],[87.4,25107],[84.3,25191],[83.5,25274],[84.5,25357],[84.7,25441],[85,25524],[89.6,25608],[91.7,25691],[91.7,25774],[91.7,25858],[88.4,25942],[87.9,26025],[87.1,26108],[86.6,26192],[86.5,26275],[86.5,26359],[88.4,26442],[89.6,26526]]",1,0,1052.707,1064.5684,49.79166985,5.0191,"[{""rating"":49.791669845581055,""responseTime"":5.01909999999998}]",space,11.3283,,1064.5684,Definitely yes,100,1064.5766,,,[],,0,1,1,1,1,audio/Narrative7Situation1.wav,audio/Narrative8Situation1.wav,audio/Narrative5Situation1.wav,audio/Narrative6Situation1.wav,2,5,5,2,,,,,,,,,,,,,,,,,,,,,,,,,,,,,,,,,,,,,,,
,,,,,,5ffe235ea848b74a3b3ccd07,2024-05-13_10h21.54.771,group3.1-3.2-social-tom,2023.2.2,Win32,59.88023952,65c5074098b851296ff0b7ed,66422fbc50a16f631f72d5be,,,,,,,,,,,,,,,,,,,,,,,,,,,,,1064.5768,2,audio/Narrative6Situation2.wav,1067.5881,,1067.5882,1096.0827,"[[999,0],[999,83],[999,166],[999,250],[999,333],[999,416],[999,500],[999,583],[999,667],[999,750],[999,833],[999,917],[0.3,1167],[1.3,1250],[1.3,1334],[1.3,1417],[1,1501],[0.7,1584],[0.3,1668],[0.3,1751],[0.2,1835],[0.2,1918],[0.2,2001],[0.2,2085],[0.2,2168],[0.2,2251],[0.2,2335],[0.2,2418],[0.2,2502],[1.5,2585],[3.4,2669],[4.8,2752],[6.5,2835],[6.8,2919],[6.8,3002],[6.8,3086],[6.8,3169],[6.8,3252],[6.7,3336],[6.7,3419],[7.1,3503],[9,3586],[9.3,3669],[9.3,3753],[9.4,3836],[9.5,3920],[9.8,4003],[10.3,4086],[10.3,4170],[10.3,4253],[10.3,4337],[13.6,4420],[22.5,4504],[29.9,4587],[37.3,4670],[40.1,4754],[43.5,4837],[44.7,4921],[45.7,5004],[49.1,5088],[50.6,5171],[52.9,5254],[54.9,5338],[55.2,5421],[55.2,5505],[55.3,5588],[56.7,5672],[57.5,5755],[58.1,5838],[58.2,5922],[58.4,6005],[58.6,6088],[58.9,6172],[61.3,6255],[65.3,6339],[68.2,6422],[69.1,6506],[70.2,6589],[70.6,6672],[70.6,6756],[70.7,6839],[71.6,6923],[74.3,7256],[74.3,7340],[74.3,7423],[74.3,7507],[74.3,7590],[74.3,7673],[74.3,7757],[74.3,7840],[74.3,7923],[74.3,8007],[74.3,8090],[74.4,8174],[74.6,8258],[75,8341],[75,8424],[75,8508],[75.2,8591],[75.5,8674],[77.3,8758],[78.6,8841],[80.7,8925],[81.3,9008],[81.3,9092],[81.3,9175],[81.3,9258],[81.3,9342],[80.9,9425],[80.9,9509],[80.9,9592],[80.9,9675],[80.9,9759],[80.9,9842],[80.9,9926],[80.9,10009],[81.4,10093],[84,10176],[87.5,10259],[89.2,10343],[89.5,10426],[90.4,10510],[92.3,10593],[92.4,10676],[92.6,10760],[92.6,10843],[92.6,10927],[92.6,11010],[92.2,11093],[90.2,11177],[90.2,11260],[90.5,11344],[90.8,11427],[91.3,11510],[92.5,11594],[92.8,11677],[92.8,11761],[88.3,11844],[82.3,11928],[81.9,12011],[85.4,12094],[87.8,12178],[88.4,12261],[88.4,12345],[87.6,12428],[87.6,12512],[89.4,12595],[89.8,12678],[89.8,12762],[89.8,12845],[89.8,12929],[89.5,13012],[88.6,13095],[84.8,13179],[84.7,13262],[90.9,13346],[95.2,13429],[95.2,13513],[95.2,13596],[93.4,13679],[92.4,13763],[94.3,13846],[100,13930],[100,14013],[98.8,14096],[96.3,14180],[96.6,14263],[98.4,14346],[98.4,14430],[97.4,14514],[97.3,14597],[97.2,14681],[97.5,14764],[97.5,14847],[97,14931],[95.6,15014],[95.2,15098],[95.2,15181],[95.6,15264],[96.6,15348],[96.9,15431],[96.9,15514],[96.9,15598],[96.9,15681],[96.9,15765],[96.9,15848],[96.9,15932],[96.7,16015],[96.7,16098],[96.7,16182],[96.7,16265],[96.7,16349],[96.7,16432],[96.7,16515],[96.7,16599],[96.7,16682],[96.7,16766],[96.7,16849],[96.7,16932],[96.7,17016],[96.7,17099],[96.7,17183],[96.7,17266],[96.7,17350],[96.7,17433],[96.7,17516],[96.7,17600],[96.7,17683],[96.7,17767],[96.7,17850],[96.7,17933],[96.7,18017],[96.7,18100],[96.7,18184],[96.7,18267],[96.7,18351],[96.7,18434],[96.7,18517],[96.7,18601],[96.7,18684],[96.7,18768],[96.7,18851],[96.7,18934],[96.7,19018],[96.7,19101],[96.7,19185],[96.7,19268],[96.7,19351],[96.7,19435],[96.7,19518],[96.7,19602],[96.7,19685],[96.7,19769],[96.7,19852],[96.7,19935],[96.7,20019],[96.7,20102],[96.7,20186],[96.7,20269],[96.7,20352],[96.7,20436],[96.7,20519],[96.7,20603],[96.7,20686],[96.5,20770],[96.4,20853],[96.3,20937],[96,21020],[95.6,21103],[95.6,21187],[95.3,21270],[95.2,21354],[97,21437],[97.5,21520],[98,21604],[98,21687],[98,21770],[95.6,21854],[94.2,21938],[94.1,22021],[95.9,22104],[98.8,22188],[98.9,22271],[98.9,22355],[97.6,22438],[96.6,22521],[96.6,22605],[96.9,22688],[97.4,22772],[97.4,22855],[97.4,22938],[97.4,23022],[95.6,23105],[93.8,23189],[90.9,23272],[90.3,23355],[91.3,23439],[94.7,23522],[96.6,23606],[96.6,23689],[96.6,23772],[94.4,23856],[93.4,23939],[93.4,24023],[94.5,24106],[95.4,24190],[96.9,24273],[96.9,24356],[96.5,24440],[93.8,24523],[93.4,24606],[94.9,24690],[96.9,24774],[97.9,24857],[97.9,24940],[97.9,25024],[97.9,25107],[97.4,25191],[97.1,25274],[96.9,25357],[96.8,25441],[96.8,25524],[96.8,25608],[96.8,25691],[96.8,25774],[96.8,25858],[96.8,25941],[96.8,26025],[96.8,26108],[96.8,26192],[96.8,26275],[96.8,26358],[96.7,26442],[96.6,26525],[96.1,26609],[96,26692],[95.9,26775],[95.9,26859],[95.9,26942],[95.9,27026],[95.9,27109],[96.1,27193],[96.3,27276],[96.4,27359],[96.4,27443],[96.5,27526],[96.5,27610],[96.5,27693],[96.5,27776],[96.5,27860],[96.5,27943],[96.5,28027],[96.5,28110],[96.5,28193],[96.5,28277],[96.5,28360],[96.5,28444]]",1,0,1096.0829,1102.0217,92.50000318,4.0559,"[{""rating"":92.50000317891438,""responseTime"":4.05590000000052}]",space,5.4146,,1102.0218,Partially,50,1102.0244,,,[],,0,2,2,2,1,audio/Narrative7Situation2.wav,audio/Narrative8Situation2.wav,audio/Narrative5Situation2.wav,audio/Narrative6Situation2.wav,3,3,3,3,,,,,,,,,,,,,,,,,,,,,,,,,,,,,,,,,,,,,,,
,,,,,,5ffe235ea848b74a3b3ccd07,2024-05-13_10h21.54.771,group3.1-3.2-social-tom,2023.2.2,Win32,59.88023952,65c5074098b851296ff0b7ed,66422fbc50a16f631f72d5be,,,,,,,,,,,,,,,,,,,,,,,,,,,,,1102.0246,2,audio/Narrative6Situation3.wav,1107.0266,,1107.0266,1119.639,"[[999,6],[999,83],[999,166],[999,250],[999,333],[999,416],[999,500],[999,583],[999,667],[25.1,6756],[55.2,6840],[78.9,6923],[89.8,7257],[93.3,7340],[93.3,7423],[93.3,7507],[93.3,7590],[93.3,7674],[93.3,7757],[93.3,7840],[93.3,7924],[93.3,8007],[93.5,8091],[94.1,8174],[94.3,8258],[94.4,8341],[94.4,8424],[94.4,8508],[94.4,8591],[94.4,8674],[94.4,8758],[94.4,8841],[94.4,8925],[94.1,9008],[94.1,9092],[94.1,9175],[93.8,9259],[93.8,9342],[93.6,9425],[93.6,9509],[93.3,9592],[92.8,9676],[92.5,9759],[92.4,9842],[92.4,9926],[92.4,10009],[92.4,10093],[92.4,10176],[92.4,10259],[92.4,10343],[92.4,10426],[92.4,10510],[92.4,10593],[92.4,10677],[92.4,10760],[92.4,10843],[92.4,10927],[91.1,11010],[91,11094],[91,11177],[91,11260],[91,11344],[91,11427],[91,11511],[91,11594],[91,11677],[91,11761],[91,11844],[91,11928],[91,12011],[91,12095],[91,12178],[91,12261],[91,12345],[91,12428],[91,12512],[91,12595]]",1,0,1119.6391,1146.2817,78.43750318,4.2555,"[{""rating"":78.43750317891438,""responseTime"":4.255499999999984}]",space,26.1145,,1146.2818,Not at all,0,1146.29,,,[],,0,3,3,3,1,audio/Narrative7Situation3.wav,audio/Narrative8Situation3.wav,audio/Narrative5Situation3.wav,audio/Narrative6Situation3.wav,8,4,3,5,,,,,,,,,,,,,,,,,,,,,,,,,,,,,,,,,,,,,,,
,,,,,,5ffe235ea848b74a3b3ccd07,2024-05-13_10h21.54.771,group3.1-3.2-social-tom,2023.2.2,Win32,59.88023952,65c5074098b851296ff0b7ed,66422fbc50a16f631f72d5be,,,,,,,,,,,,,,,,,,,,,,,,,,,,,1146.2903,2,audio/Narrative6Situation4.wav,1148.3003,,1148.3003,1160.9128,"[[999,0],[999,83],[999,166],[999,250],[999,333],[999,416],[999,500],[999,583],[999,667],[999,750],[999,834],[999,917],[999,1000],[999,1084],[999,1167],[999,1251],[999,1334],[999,1417],[999,1501],[999,1584],[999,1668],[999,1751],[999,1835],[999,1918],[999,2001],[999,2085],[0.7,2669],[0.7,2752],[0.7,2835],[0.7,2919],[0.7,3002],[0.7,3086],[0.7,3169],[0.7,3253],[0.7,3336],[0.7,3420],[1.6,3503],[1.8,3586],[1.9,3670],[2.8,3753],[4.1,3837],[5.6,3920],[6.9,4003],[9.6,4087],[13.8,4170],[14.4,4254],[14.4,4337],[14.7,4421],[14.7,4504],[14.8,4587],[14.7,4671],[12.5,4754],[9.7,4838],[7.5,4921],[5,5004],[3.5,5088],[3.1,5171],[4.4,5255],[7.2,5338],[7.8,5421],[7.8,5505],[7.8,5588],[7.8,5672],[7.2,5755],[6.9,5839],[6.1,5922],[5.7,6006],[5.6,6089],[5.7,6172],[6.6,6256],[7.9,6339],[8.4,6422],[8.4,6506],[7.8,6589],[5.8,6673],[4.7,6756],[4.7,6840],[6.6,6923],[7.9,7006],[8.4,7090],[8.4,7173],[7.9,7257],[6.5,7340],[5.7,7423],[5.4,7507],[5.2,7590],[5,7674],[5,7757],[4.8,7840],[4.8,7924],[6.9,8007],[7.8,8091],[9.1,8174],[9.3,8258],[9.3,8341],[7.6,8424],[6,8508],[5.3,8591],[5.2,8674],[7,8758],[7.1,8841],[8.5,8925],[8.8,9008],[8.8,9092],[8.8,9175],[7.2,9258],[6.5,9342],[6.3,9425],[6.3,9509],[7.2,9592],[8.8,9675],[9.3,9759],[9.3,9842],[9.3,9926],[9.1,10009],[7.5,10093],[6.6,10176],[6.6,10259],[6.6,10343],[7.9,10426],[9.6,10510],[11.7,10593],[14.7,10677],[15.7,10760],[28.2,10843],[61.9,10927],[81.6,11010],[87,11094],[87.3,11177],[87.3,11260],[88.3,11344],[89,11427],[88.4,11511],[87.9,11594],[87.9,11677],[87.9,11761],[87.9,11844],[87.9,11928],[87.9,12011],[87.9,12095],[86.8,12178],[85.2,12262],[84.4,12345],[84.4,12428],[84.4,12512],[84.5,12595]]",1,0,1160.9129,1165.1166,60.20833651,3.0436,"[{""rating"":60.20833651224772,""responseTime"":3.043600000000197}]",space,3.6721,,1165.1168,Definitely yes,100,1165.1188,,,[],,0,4,4,4,1,audio/Narrative7Situation4.wav,audio/Narrative8Situation4.wav,audio/Narrative5Situation4.wav,audio/Narrative6Situation4.wav,3,3,1,2,,,,,,,,,,,,,,,,,,,,,,,,,,,,,,,,,,,,,,,
,,,,,,5ffe235ea848b74a3b3ccd07,2024-05-13_10h21.54.771,group3.1-3.2-social-tom,2023.2.2,Win32,59.88023952,65c5074098b851296ff0b7ed,66422fbc50a16f631f72d5be,,,,,,,,,,,,,,,,,,,,,,,,,,,,,1165.1189,2,audio/Narrative6Situation5.wav,1167.1355,,1167.1355,1175.0933,"[[999,0],[999,83],[999,166],[999,250],[999,333],[999,416],[999,500],[1.5,583],[1.3,667],[0.9,750],[0.9,833],[0.9,917],[0.9,1000],[0.9,1084],[0.9,1167],[0.9,1250],[2.3,1334],[2.8,1418],[2.8,1501],[2.8,1584],[3.1,1668],[6.4,1751],[12,1835],[16.9,1918],[37.4,2001],[83.6,2502],[81.9,2585],[80.2,2669],[79.1,2752],[79.1,2836],[81.5,2919],[84.2,3002],[86.3,3086],[86.8,3169],[87.5,3253],[87.8,3336],[89.9,3419],[91.3,3503],[91.7,3586],[91.7,3669],[91.7,3753],[91.7,3836],[91.7,3920],[91.7,4003],[92.2,4087],[92.8,4170],[94,4254],[94,4337],[94,4420],[94,4504],[94,4587],[94,4671],[94,4754],[94,4838],[93.2,4921],[92.7,5004],[92.7,5088],[93.3,5171],[93.5,5254],[93.8,5338],[94.3,5421],[94.6,5505],[94.7,5588],[94.7,5672],[93.4,5755],[91.9,5839],[91.3,5922],[90.8,6005],[91.1,6089],[92.5,6172],[93.3,6255],[93.8,6339],[94.2,6422],[94.2,6506],[94.1,6589],[93.4,6672],[92.8,6756],[92.2,6840],[90.9,6923],[89.8,7006],[89.1,7090],[89.1,7173],[89.4,7257],[90.9,7340],[91.7,7423],[92.5,7507],[93.1,7590],[93.6,7674],[93.8,7757],[93.8,7840],[93.8,7924]]",1,0,1175.0934,1182.2168,95.20834287,5.7605,"[{""rating"":95.20834287007649,""responseTime"":5.760499999999865}]",space,6.5956,,1182.2169,Partially,50,1182.219,,,[],,0,5,5,5,1,audio/Narrative7Situation5.wav,audio/Narrative8Situation5.wav,audio/Narrative5Situation5.wav,audio/Narrative6Situation5.wav,5,2,5,2,,,,,,,,,,,,,,,,,,,,,,,,,,,,,,,,,,,,,,,
,,,,,,5ffe235ea848b74a3b3ccd07,2024-05-13_10h21.54.771,group3.1-3.2-social-tom,2023.2.2,Win32,59.88023952,65c5074098b851296ff0b7ed,66422fbc50a16f631f72d5be,,,,,,,,,,,,,,,,,,,,,,,,,,,,,1182.2191,2,audio/Narrative6Situation6.wav,1184.2356,,1184.2357,1195.313,"[[999,0],[999,83],[999,166],[999,250],[999,333],[0.2,1668],[0.3,1751],[0.3,1834],[0.3,1918],[0.5,2001],[2.8,2085],[9.2,2168],[22.4,2251],[47,2335],[69.4,2418],[84.3,2502],[91.3,2585],[92.7,2669],[96.1,2752],[96.4,2835],[98.1,2919],[98.8,3002],[99.4,3086],[100,3169],[100,3252],[100,3336],[100,3419],[100,3503],[100,3586],[100,3670],[100,3753],[100,3836],[100,3920],[100,4003],[100,4087],[100,4170],[100,4254],[100,4337],[100,4420],[100,4504],[100,4587],[100,4671],[100,4754],[99.7,4837],[99.7,4921],[99.7,5004],[99.6,5088],[99.3,5171],[99.3,5254],[99.3,5338],[99.7,5421],[100,5505],[100,5588],[100,5672],[100,5755],[100,5838],[100,5922],[100,6005],[100,6089],[100,6172],[100,6255],[100,6339],[100,6422],[100,6506],[100,6589],[100,6672],[100,6756],[100,6839],[100,6923],[100,7006],[100,7090],[100,7173],[100,7256],[100,7340],[99.6,7423],[98.1,7507],[96.9,7590],[96.3,7673],[96.3,7757],[96.6,7840],[98.1,7924],[98.6,8007],[98.6,8090],[98.6,8174],[98.6,8257],[98.6,8341],[98.6,8424],[98.6,8508],[98.6,8591],[98.6,8674],[98.4,8758],[98.1,8841],[98.1,8925],[98.1,9008],[98.1,9092],[98.1,9175],[98.1,9258],[98.1,9342],[98.1,9425],[98.1,9509],[98.1,9592],[98.1,9675],[98.1,9759],[98.1,9842],[98.1,9925],[98,10009],[97.7,10093],[97.7,10176],[97.7,10259],[97.5,10343],[97.5,10426],[97.5,10510],[97.5,10593],[97.5,10676],[97.5,10760],[97.5,10843],[97.5,10927],[97.3,11010]]",1,0,1195.3131,1200.4846,96.77084287,3.1234,"[{""rating"":96.77084287007649,""responseTime"":3.123399999999947}]",space,4.6398,,1200.4846,Definitely yes,100,1200.4867,,,[],,0,6,6,6,1,audio/Narrative7Situation6.wav,audio/Narrative8Situation6.wav,audio/Narrative5Situation6.wav,audio/Narrative6Situation6.wav,3,2,3,2,,,,,,,,,,,,,,,,,,,,,,,,,,,,,,,,,,,,,,,
,,,,,,5ffe235ea848b74a3b3ccd07,2024-05-13_10h21.54.771,group3.1-3.2-social-tom,2023.2.2,Win32,59.88023952,65c5074098b851296ff0b7ed,66422fbc50a16f631f72d5be,,,,,,,,,,,,,,,,,,,,,,,,,,,,,1200.4869,2,audio/Narrative6Situation7.wav,1205.4897,,1205.4897,1230.3306,"[[0.2,416],[2.2,1000],[3.5,1084],[5,1167],[5.9,1251],[5.9,1334],[7.1,1417],[10,1501],[10,1584],[11.2,1668],[12.7,1751],[14.3,1835],[22.6,1918],[30.5,2001],[45.5,2085],[76.4,2168],[93,2251],[93.4,2335],[93.6,2418],[93.8,2502],[93.8,2585],[93.9,2668],[93.9,2752],[81.9,2835],[60.3,2919],[49.1,3002],[46.9,3086],[35.8,3169],[23.8,3252],[17.8,3336],[11.6,3419],[10.9,3503],[10.8,3586],[10.3,3669],[10.3,3753],[10,3836],[9.9,3920],[9.7,4003],[9.6,4087],[9.4,4170],[9.3,4253],[9.2,4337],[9.1,4420],[9.1,4504],[9.1,4587],[9.1,4671],[9.1,4754],[9.1,4837],[9.1,4921],[8.9,5004],[8.5,5088],[8.4,5171],[8.1,5255],[7.8,5338],[7.2,5421],[6.9,5505],[6.5,5588],[6.5,5672],[6.1,5755],[5.9,5838],[5.8,5922],[5.8,6005],[5.8,6088],[5.8,6172],[5.8,6255],[5.8,6339],[5.8,6422],[5.8,6506],[5.8,6589],[5.8,6673],[5.8,6756],[5.8,6839],[11.6,6923],[35.1,7006],[66.2,7090],[85.4,7173],[88.1,7256],[89.5,7340],[94.5,7423],[97.5,7506],[97.8,7590],[97.8,7674],[97.8,7757],[97.8,7840],[97.8,7924],[97.8,8007],[97.8,8091],[97.8,8174],[97.8,8257],[97.8,8341],[97.8,8424],[97.8,8508],[97.8,8591],[97.8,8674],[97.8,8758],[97.8,8841],[97.8,8925],[97.8,9008],[97.8,9091],[97.8,9175],[97.8,9258],[97.8,9342],[97.8,9425],[97.8,9509],[97.8,9592],[97.8,9675],[97.8,9759],[97.8,9842],[97.6,9926],[96.8,10009],[96,10093],[95.7,10176],[95.7,10259],[95.7,10343],[96.3,10426],[97.1,10510],[98.8,10593],[99.1,10676],[99.1,10760],[99.1,10843],[99.1,10927],[99.2,11010],[99.7,11094],[99.7,11177],[99.8,11260],[99.8,11344],[99.8,11427],[99.8,11511],[99.8,11594],[99.8,11677],[99.8,11761],[99.8,11844],[99.8,11928],[99.8,12011],[99.8,12094],[99.8,12178],[99.8,12261],[99.8,12345],[99.8,12428],[99.8,12512],[99.8,12595],[99.8,12678],[100,12762],[100,12845],[100,12928],[100,13012],[100,13096],[100,13179],[100,13262],[100,13346],[100,13429],[100,13512],[100,13596],[100,13679],[100,13763],[100,13846],[100,13930],[100,14013],[100,14096],[100,14180],[100,14263],[100,14347],[100,14430],[100,14513],[100,14597],[100,14680],[100,14764],[100,14847],[100,14931],[100,15014],[100,15097],[100,15181],[100,15264],[100,15348],[100,15431],[100,15514],[100,15598],[100,15682],[100,15765],[100,15848],[100,15932],[100,16015],[100,16098],[100,16182],[100,16265],[100,16348],[100,16432],[100,16515],[100,16599],[100,16682],[98.4,16766],[95.4,16849],[95.3,16932],[95.3,17016],[97.7,17099],[99.5,17183],[99.7,17266],[99.7,17349],[99.3,17433],[98.9,17516],[98.1,17600],[97.9,17683],[97.9,17766],[97.9,17850],[94.7,17934],[94.5,18017],[94.5,18100],[94.5,18184],[96.7,18267],[97,18351],[97.5,18434],[97.8,18517],[98,18601],[98,18684],[98,18768],[98,18851],[97.9,18935],[97.6,19018],[97.5,19101],[97.3,19185],[97,19268],[96.5,19352],[96.4,19435],[96.4,19518],[96.4,19602],[96.4,19685],[96.4,19769],[96.4,19852],[96.4,19935],[96.4,20019],[96.4,20102],[96.4,20186],[96.4,20269],[96.4,20353],[96.9,20436],[96.9,20519],[96.9,20603],[97.2,20686],[97.8,20770],[97.9,20853],[97.9,20936],[97.9,21020],[97.9,21103],[97.9,21187],[97.9,21270],[97.9,21354],[97.9,21437],[97.9,21520],[97.9,21604],[97.9,21687],[97.9,21771],[97.9,21854],[97.9,21937],[97.9,22021],[97.9,22104],[97.9,22188],[97.9,22271],[97.9,22355],[97.9,22438],[97.9,22521],[97.9,22605],[97.9,22688],[97.9,22771],[97.9,22855],[97.9,22938],[97.9,23022],[97.9,23105],[97.9,23189],[97.9,23272],[97.9,23355],[96.9,23439],[95.4,23522],[95.2,23606],[95,23689],[96.1,23773],[98.4,23856],[98.4,23939],[98.4,24023],[98.4,24106],[98.3,24190],[98.1,24273],[98.1,24356],[98.1,24440],[97.9,24524],[97.8,24607],[97.6,24690],[97.6,24774]]",1,0,1230.3307,1261.0272,81.04166985,2.6754,"[{""rating"":81.04166984558105,""responseTime"":2.675399999999854}]",space,30.1742,,1261.0273,Definitely yes,100,1261.0287,,,[],,0,7,7,7,1,audio/Narrative7Situation7.wav,audio/Narrative8Situation7.wav,audio/Narrative5Situation7.wav,audio/Narrative6Situation7.wav,5,3,4,5,,,,,,,,,,,,,,,,,,,,,,,,,,,,,,,,,,,,,,,
,,,,,,5ffe235ea848b74a3b3ccd07,2024-05-13_10h21.54.771,group3.1-3.2-social-tom,2023.2.2,Win32,59.88023952,65c5074098b851296ff0b7ed,66422fbc50a16f631f72d5be,,,,,,,,,,,,,,,,,,,,,,,,,,,,,1261.0288,2,audio/Narrative6Situation8.wav,1266.0322,,1266.0322,1272.8722,"[[92.3,166],[92,250],[92,333],[77.8,416],[3,750],[5.8,834],[1,1417],[0.6,2001],[0.6,2085],[0.6,2168],[0.6,2252],[0.5,2335],[1.1,2418],[3.6,2502],[3.8,2585],[0.9,2669],[0.8,4087],[0.8,4170],[0.8,4253],[3.9,4337],[4.6,4420],[4.5,4504],[2.5,4587],[0.3,4671]]",1,0,1272.8724,1276.1419,0.104169051,1.7363,"[{""rating"":0.10416905085245953,""responseTime"":1.736299999999801}]",space,2.7444,,1276.1419,Partially,50,1276.1442,,,[],,0,8,8,8,1,audio/Narrative7Situation8.wav,audio/Narrative8Situation8.wav,audio/Narrative5Situation8.wav,audio/Narrative6Situation8.wav,2,3,3,5,,,,,,,,,,,,,,,,,,,,,,,,,,,,,,,,,,,,,,,
,,,,,,5ffe235ea848b74a3b3ccd07,2024-05-13_10h21.54.771,group3.1-3.2-social-tom,2023.2.2,Win32,59.88023952,65c5074098b851296ff0b7ed,66422fbc50a16f631f72d5be,,,,,,,,,,,,,,,,,,,,,,,,,,,,,1276.1444,2,audio/Narrative6Situation9.wav,1280.1461,,1280.1461,1290.089,"[[1.5,2251],[1.6,2335],[1.6,2418],[1.6,2502],[1.5,2585],[1.6,2669],[1,2752],[0.9,2836],[0.4,2919],[0.3,3002],[0.3,3086],[0.3,3169],[0.3,3253],[0.3,3336],[0.3,3419],[0.3,3503],[0.3,3586],[0.3,3670],[0.3,3753],[0.3,3836],[0.3,3920],[0.3,4003],[0.3,4087],[0.3,4170],[0.3,4253],[0.3,4337],[0.3,4420],[0.3,4504],[0.3,4587],[0.3,4671],[0.3,4754],[0.3,4837],[0.3,4921],[0.3,5004],[0.3,5088],[0.3,5171],[0.3,5254],[0.3,5338],[0.3,5421],[0.3,5505],[0.3,5588],[0.3,5672],[0.3,5755],[0.3,5838],[0.3,5922],[0.3,6005],[0.3,6088],[0.3,6172],[0.3,6255],[0.3,6339],[0.3,6422],[0.3,6506],[0.3,6589],[0.3,6673],[0.3,6756],[0.3,6839],[0.3,6923],[0.3,7006],[0.3,7090],[0.3,7173],[0.3,7256],[0.3,7340],[0.3,7423],[0.3,7507],[0.3,7590],[0.3,7673],[0.3,7757],[0.3,7840],[0.3,7924],[0.3,8007],[0.3,8091],[0.3,8174],[0.3,8257],[0.3,8341],[0.3,8424],[0.3,8508],[0.3,8591],[0.3,8674],[0.3,8758],[0.3,8841],[0.3,8925],[0.3,9008],[0.3,9092],[0.3,9175],[0.3,9258],[0.3,9342],[0.3,9425],[0.3,9509],[0.3,9592],[0.3,9675],[0.3,9759],[0.3,9842],[0.3,9926]]",1,0,1290.0891,1291.8074,0.312499205,0.5169,"[{""rating"":0.31249920527140485,""responseTime"":0.5168999999998505}]",space,1.2001,,1291.8075,Not at all,0,1291.8096,,,[],,0,9,9,9,1,audio/Narrative7Situation9.wav,audio/Narrative8Situation9.wav,audio/Narrative5Situation9.wav,audio/Narrative6Situation9.wav,2,3,3,4,,,,,,,,,,,,,,,,,,,,,,,,,,,,,,,,,,,,,,,
,,,,,,5ffe235ea848b74a3b3ccd07,2024-05-13_10h21.54.771,group3.1-3.2-social-tom,2023.2.2,Win32,59.88023952,65c5074098b851296ff0b7ed,66422fbc50a16f631f72d5be,,,,,,,,,,,,,,,,,,,,,,,,,,,,,1291.8096,2,audio/Narrative5Situation1.wav,1296.8123,,1296.8123,1310.092,"[[0.8,7590],[1.6,7674],[1.7,7757],[1.7,7841],[1.1,7924],[0.3,8675],[0.6,8758],[0.6,8841],[1.1,8925],[1.4,9008],[1.4,9092],[1.4,9175],[1.4,9259],[1.4,9342],[1.4,9425],[1.4,9509],[1.3,9592],[1.5,9676],[1.9,9759],[1.9,9842],[1.9,9926],[2,10009],[1.9,10093],[1.5,10176],[1.5,10259],[3.1,10343],[21.9,10426],[31.9,10510],[31.9,10593],[31.9,10677],[31.7,10760],[21.3,10843],[8.3,10927],[7.8,11010],[7.8,11094],[7.8,11177],[7.8,11260],[7.8,11344],[7.8,11427],[7.8,11511],[7.6,11594],[7.5,11677],[7.5,11761],[7.5,11844],[7.5,11928],[7.5,12011],[7.5,12095],[7.5,12178],[7.6,12261],[9.9,12345],[10.1,12428],[10.1,12511],[10.7,12595],[12.3,12679],[15.1,12762],[16.7,12845],[16.7,12929],[16.7,13012],[16.7,13096],[17,13179],[18.9,13263]]",1,0,1310.0921,1317.8328,33.22916826,6.6876,"[{""rating"":12.083335717519123,""responseTime"":1.901399999999967},{""rating"":33.22916825612386,""responseTime"":6.687600000000202}]",space,7.2127,,1317.8329,Definitely yes,100,1317.8349,,,[],,0,10,10,10,1,audio/Narrative8Situation1.wav,audio/Narrative7Situation1.wav,audio/Narrative6Situation1.wav,audio/Narrative5Situation1.wav,5,2,2,5,,,,,,,,,,,,,,,,,,,,,,,,,,,,,,,,,,,,,,,
,,,,,,5ffe235ea848b74a3b3ccd07,2024-05-13_10h21.54.771,group3.1-3.2-social-tom,2023.2.2,Win32,59.88023952,65c5074098b851296ff0b7ed,66422fbc50a16f631f72d5be,,,,,,,,,,,,,,,,,,,,,,,,,,,,,1317.835,2,audio/Narrative5Situation2.wav,1320.8359,,1320.8359,1350.2815,"[[999,6],[999,83],[999,166],[999,250],[999,333],[4.2,416],[2,500],[0.4,583],[6.6,2669],[10.2,2752],[10.9,2835],[10.9,2919],[11.2,3002],[11.2,3086],[11.2,3169],[11.2,3252],[12.2,3336],[12.5,3419],[12.5,3503],[12.5,3586],[14.7,3670],[20.6,3753],[26,3836],[26.3,3920],[26.3,4003],[26.3,4087],[26.3,4170],[26.3,4253],[28.1,4337],[32.5,4420],[35.6,4504],[37.5,4587],[39.9,4671],[41.1,4754],[51.9,5422],[51.9,5505],[52.1,5588],[52.3,5672],[53.7,5755],[56.7,5838],[57.5,5922],[57.5,6005],[57.5,6088],[57.5,6172],[57.2,6256],[56,6339],[54.7,6422],[54.2,6506],[54.2,6589],[54.2,6672],[54.2,6756],[54.2,6839],[54.2,6923],[54.2,7006],[54.1,7089],[54.1,7173],[54.1,7256],[54.1,7340],[54.1,7423],[54.1,7507],[53.3,7590],[52.8,7673],[52.8,7757],[52.8,7840],[52.8,7924],[52.8,8007],[52.8,8090],[52.8,8174],[52.8,8257],[52.8,8341],[52.8,8424],[52.8,8507],[52.8,8591],[52.8,8675],[51.9,8758],[56.4,8841],[66.2,8925],[71,9008],[75.4,9092],[75.7,9175],[75.9,9258],[76.8,9342],[78,9425],[79,9509],[80.4,9592],[80.4,9675],[80.4,9759],[80.5,9842],[82.7,9926],[84.1,10009],[84.5,10092],[84.5,10176],[84.5,10259],[85,10343],[85.3,10426],[87.6,10510],[88.7,10593],[88.9,10676],[89,10760],[89.1,10843],[89.3,10927],[89.3,11010],[89.3,11094],[89.3,11177],[89.3,11260],[89.6,11344],[92.1,11427],[93,11511],[93,11594],[93,11677],[93,11761],[93,11844],[93,11928],[93,12011],[93,12094],[93,12178],[93,12261],[93,12345],[93,12428],[93,12511],[93,12595],[93,12678],[93,12762],[93.4,12846],[95,12929],[95,13012],[95,13095],[95,13179],[95,13262],[95,13346],[95,13429],[95,13512],[95,13596],[95,13679],[95,13763],[95,13846],[95,13930],[95,14013],[95,14096],[95,14180],[95,14263],[95,14347],[95,14430],[95,14513],[95,14597],[95,14680],[95,14764],[95,14847],[95,14930],[95,15014],[95,15097],[95,15181],[95,15264],[95,15347],[95,15431],[95,15514],[95,15598],[95,15681],[95,15765],[95,15848],[95,15932],[95,16015],[95,16098],[95,16182],[95,16265],[95,16349],[95,16432],[95,16515],[95,16599],[95,16682],[96,16766],[97.3,16849],[97.7,16932],[97.7,17016],[97.7,17099],[97.7,17183],[97.7,17266],[97.7,17350],[97.7,17433],[97.1,17517],[96.1,17600],[95.5,17683],[95.4,17767],[95.4,17850],[95.4,17933],[95.4,18017],[95.4,18100],[95.4,18184],[95.4,18267],[95.4,18351],[95,18434],[94.5,18518],[94.1,18601],[93.4,18684],[92.2,18768],[91.3,18851],[90.2,18935],[89.6,19018],[89.1,19101],[88.1,19185],[87.9,19268],[87.9,19351],[87.9,19435],[87.9,19518],[87.9,19602],[87.9,19685],[87.9,19769],[87.9,19852],[87.9,19935],[87.9,20019],[87.9,20102],[88.4,20186],[89.1,20269],[89.3,20352],[89.4,20436],[89.4,20519],[89.4,20603],[89.4,20686],[89.4,20770],[89.4,20853],[89.4,20936],[89.4,21020],[89.4,21103],[89.4,21187],[89.4,21270],[89.4,21353],[89.4,21437],[89.4,21520],[89.4,21604],[89.4,21687],[89.4,21771],[89.4,21854],[89.4,21937],[89.4,22021],[89.4,22104],[89.4,22187],[89.4,22271],[89.4,22355],[89.4,22438],[89.4,22521],[89.4,22605],[89.4,22688],[89.4,22771],[89.4,22855],[89.4,22938],[89.4,23022],[89.4,23105],[89.4,23189],[89.4,23272],[89.4,23355],[89.4,23439],[89.4,23522],[89.4,23606],[89.4,23689],[89.4,23772],[89.4,23856],[89.4,23939],[89.4,24023],[89.4,24106],[89.4,24189],[89.4,24273],[89.4,24356],[89.4,24440],[89.4,24523],[89.4,24607],[89.4,24690],[89.6,24774],[90.8,24857],[92,24940],[93,25024],[93.3,25107],[93.6,25191],[94.5,25274],[95.3,25357],[95.3,25441],[95.3,25524],[95.3,25608],[95.3,25691],[95.3,25774],[95.3,25858],[95.3,25941],[95.3,26025],[95.3,26108],[95.3,26192],[95.3,26275],[95.3,26358],[95.3,26442],[95.3,26525],[95.3,26608],[95.3,26692],[95.3,26775],[95.3,26859],[95.3,26942],[95.3,27026],[95.3,27109],[95.3,27192],[95.3,27276],[95.3,27359],[95.3,27443],[95.3,27526],[95.5,27610],[95.5,27693],[95.5,27776],[95.5,27860],[95.6,27944],[95.6,28027],[95.6,28110],[95.6,28194],[95.6,28277],[95.6,28360],[95.5,28444],[95.5,28527],[95.5,28611],[95.4,28694],[95.3,28778],[94.8,28861],[93.8,28944],[93.6,29028],[93.6,29111],[93.6,29194],[93.6,29278],[93.6,29361],[94.6,29445]]",1,0,1350.2816,1355.5032,87.9166762,3.9904,"[{""rating"":94.37500635782878,""responseTime"":1.6501000000002932},{""rating"":87.91667620340984,""responseTime"":3.9903999999999087}]",space,4.6952,,1355.5032,Definitely yes,100,1355.5042,,,[],,0,11,11,11,1,audio/Narrative8Situation2.wav,audio/Narrative7Situation2.wav,audio/Narrative6Situation2.wav,audio/Narrative5Situation2.wav,3,3,3,3,,,,,,,,,,,,,,,,,,,,,,,,,,,,,,,,,,,,,,,
,,,,,,5ffe235ea848b74a3b3ccd07,2024-05-13_10h21.54.771,group3.1-3.2-social-tom,2023.2.2,Win32,59.88023952,65c5074098b851296ff0b7ed,66422fbc50a16f631f72d5be,,,,,,,,,,,,,,,,,,,,,,,,,,,,,1355.5044,2,audio/Narrative5Situation3.wav,1358.5061,,1358.5061,1372.403,"[[999,6],[999,83],[999,166],[999,250],[999,333],[0.3,834],[0.3,917],[0.3,1000],[0.3,1084],[0.3,1167],[0.3,1250],[0.3,1334],[0.3,1417],[0.3,1501],[0.5,1584],[0.5,1668],[0.5,1751],[0.7,1835],[1.3,1918],[1.3,2001],[1.4,2085],[1.6,2168],[1.6,2251],[1.6,2335],[1.6,2418],[1.6,2502],[1.4,2585],[1.3,2669],[1.3,2752],[1.3,2835],[1.3,2919],[2.8,3002],[4.1,3086],[5.2,3169],[7.5,3253],[23.8,3336],[94.4,3836],[97,3920],[97.7,4003],[97.7,4086],[97.7,4170],[97.7,4254],[97.7,4337],[97.7,4420],[97.7,4504],[97.5,4587],[97.1,4671],[96.4,4754],[96.4,4837],[96.4,4921],[97.3,5004],[98.3,5087],[98.3,5171],[98.3,5254],[98.1,5338],[97.5,5421],[95.8,5505],[95.4,5588],[94.9,5672],[94.9,5755],[96.9,5838],[97.9,5922],[98.5,6005],[98.5,6089],[98.4,6172],[97.8,6256],[97.5,6339],[97.4,6422],[97.4,6506],[97.4,6589],[97.4,6672],[97.4,6756],[97.2,6839],[97.2,6923],[96.9,7006],[96.9,7090],[96.9,7173],[96.9,7256],[96.9,7340],[97.1,7423],[97.2,7507],[97.5,7590],[97.5,7673],[97.9,7757],[98.8,7840],[99,7924],[99.4,8007],[99.5,8091],[99.5,8174],[99.5,8257],[100,8341],[100,8424],[100,8508],[100,8591],[100,8674],[100,8758],[100,8842],[100,8925],[100,9008],[99.4,9092],[98,9175],[96.8,9259],[96.3,9342],[96.3,9425],[96.4,9509],[97.9,9592],[99.1,9675],[100,9759],[100,9842],[100,9926],[100,10009],[99.8,10093],[98.1,10176],[97.1,10259],[96.1,10343],[95,10426],[94.8,10510],[94.8,10593],[95.9,10677],[97.4,10760],[98.9,10843],[99.8,10927],[100,11010],[99.1,11094],[98,11177],[97.5,11260],[97,11344],[97,11427],[97.5,11511],[98.2,11594],[98.4,11677],[98.4,11761],[97.8,11844],[97.4,11928],[97.3,12011],[97.2,12094],[97.2,12178],[96.9,12261],[96.9,12345],[96.9,12428],[96.9,12512],[96.9,12595],[96.9,12678],[96.9,12762],[96.9,12845],[96.9,12929],[96.9,13012],[96.9,13095],[96.9,13179],[96.9,13262],[97,13346],[97,13429],[97,13513],[97,13596],[97,13679],[96.6,13763],[96.5,13846]]",1,0,1372.4032,1381.1614,94.68750954,7.0247,"[{""rating"":94.68750953674316,""responseTime"":7.0246999999997115}]",space,8.2377,,1381.1615,Definitely yes,100,1381.1628,,,[],,0,12,12,12,1,audio/Narrative8Situation3.wav,audio/Narrative7Situation3.wav,audio/Narrative6Situation3.wav,audio/Narrative5Situation3.wav,4,8,5,3,,,,,,,,,,,,,,,,,,,,,,,,,,,,,,,,,,,,,,,
,,,,,,5ffe235ea848b74a3b3ccd07,2024-05-13_10h21.54.771,group3.1-3.2-social-tom,2023.2.2,Win32,59.88023952,65c5074098b851296ff0b7ed,66422fbc50a16f631f72d5be,,,,,,,,,,,,,,,,,,,,,,,,,,,,,1381.1629,2,audio/Narrative5Situation4.wav,1382.1791,,1382.1792,1402.5658,"[[83.3,500],[83.3,583],[83.3,667],[83.3,750],[83.3,834],[82.2,917],[20.9,1334],[13.8,1417],[8.1,1501],[8,1584],[7.8,1668],[1.6,1751],[0.4,1834],[0.4,1918],[0.4,2001],[4,2085],[15.9,2168],[29,2252],[27.9,2335],[19.4,2418],[6.9,2502],[4.3,2585],[4.3,2669],[19.7,2752],[44,2835],[57.4,2919],[71.3,3002],[72.3,3086],[72.4,3169],[60.2,3253],[32.2,3336],[26.6,3419],[26.6,3503],[26.6,3586],[26.6,3670],[26.6,3753],[26.6,3836],[26.6,3920],[26.6,4003],[26.6,4087],[26.6,4170],[26.6,4254],[24,4337],[17.9,4421],[16.5,4504],[14.2,4587],[8.8,4671],[6.5,4754],[6.5,4837],[6.3,4921],[6,5004],[6,5088],[6,5171],[6,5254],[6,5338],[6,5421],[6,5505],[6,5588],[6,5672],[6,5755],[6,5838],[6.3,5922],[6.7,6005],[6.7,6089],[6.7,6172],[6.7,6255],[6.7,6339],[6.7,6422],[6.7,6506],[6.7,6589],[6.7,6673],[6.7,6756],[6.7,6839],[6.7,6923],[6.7,7006],[6.7,7090],[6.7,7173],[6.7,7256],[6.7,7340],[6.7,7423],[6.7,7507],[6.7,7590],[6.7,7674],[6.7,7757],[6.7,7840],[6.7,7924],[6.7,8007],[6.7,8091],[6.7,8174],[6.7,8257],[6.7,8341],[6.7,8424],[6.7,8508],[6.7,8591],[6.7,8674],[6.7,8758],[6.7,8841],[6.7,8925],[6.7,9008],[6.7,9092],[6.5,9175],[6,9258],[6,9342],[12.2,9425],[24.1,9509],[44.2,9592],[62.8,9675],[66.6,9759],[70.2,9842],[82.7,9926],[89.5,10009],[90.3,10093],[90.6,10176],[90.6,10259],[90.6,10343],[91.3,10426],[91.3,10510],[91.1,10593],[88.6,10677],[87.8,10760],[87.8,10843],[87.8,10927],[87.8,11010],[86.5,11094],[85.4,11177],[85.4,11260],[89.9,11344],[92.1,11427],[93.2,11511],[94.6,11594],[95.6,11677],[95.6,11761],[94.7,11844],[93.4,11928],[92.7,12011],[92.7,12094],[92.6,12178],[92.4,12261],[92.2,12345],[92.2,12428],[92.2,12512],[92.2,12595],[92.2,12678],[92.2,12762],[92.2,12845],[92.2,12929],[92.2,13012],[92.2,13095],[92.2,13179],[92.2,13262],[92.2,13346],[92.2,13429],[92.2,13513],[92.2,13596],[92.2,13680],[92.2,13763],[92.2,13846],[92.2,13930],[92.2,14013],[92.2,14096],[92.2,14180],[92.2,14263],[92.2,14347],[92.2,14430],[92.2,14514],[92.2,14597],[92.2,14681],[90.6,14764],[87.3,14847],[85.3,14931],[85.2,15014],[89,15097],[92.2,15181],[92.5,15264],[92.5,15348],[92.5,15431],[93.5,15515],[93.8,15598],[94.2,15682],[94.4,15765],[94.4,15848],[94.4,15932],[94.4,16015],[93.3,16098],[92.2,16182],[91,16265],[89.6,16349],[88.5,16432],[87.6,16515],[86.5,16599],[85.7,16682],[85.6,16766],[85.6,16849],[85.6,16932],[85.6,17016],[85.6,17099],[85.6,17183],[86.7,17266],[88.9,17350],[90.4,17433],[90.6,17517],[90.6,17600],[88.4,17683],[86.9,17767],[85.3,17850],[84.6,17934],[84.1,18017],[84.1,18100],[85.4,18184],[88.7,18267],[90.9,18351],[91.9,18434],[93,18518],[93.8,18601],[94.4,18684],[94.4,18768],[94,18851],[92.6,18934],[91.4,19018],[90.9,19101],[90.9,19185],[89.6,19268],[89.4,19352],[89.4,19435],[90.5,19519],[91.8,19602],[92.6,19685],[92.6,19769],[92.7,19852],[92.8,19936],[93.1,20019],[93.6,20102],[94.4,20186],[94.4,20269],[94.4,20353]]",1,0,1402.566,1443.5725,86.66666349,2.007,"[{""rating"":86.66666348775227,""responseTime"":2.007000000000062}]",space,40.4827,,1443.5726,Not at all,0,1443.5811,,,[],,0,13,13,13,1,audio/Narrative8Situation4.wav,audio/Narrative7Situation4.wav,audio/Narrative6Situation4.wav,audio/Narrative5Situation4.wav,3,3,2,1,,,,,,,,,,,,,,,,,,,,,,,,,,,,,,,,,,,,,,,
,,,,,,5ffe235ea848b74a3b3ccd07,2024-05-13_10h21.54.771,group3.1-3.2-social-tom,2023.2.2,Win32,59.88023952,65c5074098b851296ff0b7ed,66422fbc50a16f631f72d5be,,,,,,,,,,,,,,,,,,,,,,,,,,,,,1443.5812,2,audio/Narrative5Situation5.wav,1448.5941,,1448.5942,1464.0091,"[[999,5],[999,83],[999,166],[999,250],[999,333],[999,416],[999,500],[1.9,6172],[2.1,6256],[2.1,6339],[2.1,6422],[2.1,6506],[3,6589],[4,6673],[4,6756],[4,6839],[4,6923],[4,7006],[4,7089],[4,7173],[4,7256],[4,7340],[4,7423],[4,7507],[4,7590],[3.6,7674],[3,7757],[2.8,7840],[2.8,7924],[2.8,8007],[2.8,8091],[2.8,8174],[4.1,8258],[4.7,8341],[5.2,8424],[5.2,8508],[5.2,8591],[5.1,8675],[4.6,8758],[3.9,8841],[3.1,8925],[3,9008],[3,9092],[3,9175],[3,9258],[4.4,9342],[5.6,9425],[5.8,9509],[5.8,9592],[5.8,9675],[4.7,9759],[3.4,9842],[3.4,9926],[3.3,10009],[3.3,10093],[3.3,10176],[3.3,10259],[3.3,10343],[3.3,10426],[3.3,10510],[4.1,10593],[5.3,10676],[5.5,10760],[5.5,10843],[4.9,10927],[4.3,11010],[4.2,11094],[4.2,11177],[4.2,11260],[4.2,11344],[4.2,11427],[4.2,11511],[5,11594],[5.5,11677],[5.9,11761],[5.9,11844],[5.9,11928],[5.9,12011],[5.9,12094],[5.3,12178],[4.9,12261],[4.3,12345],[3.5,12428],[3.4,12511],[3.4,12595],[3.4,12678],[3.4,12762],[3.4,12845],[3.4,12929],[3.4,13012],[3.4,13095],[3.4,13179],[3.4,13262],[3.4,13346],[3.4,13429],[3.4,13512],[3.4,13596],[3.4,13679],[3.4,13763],[3.4,13846],[3.4,13930],[3.4,14013],[3.4,14096],[3.4,14180],[3.4,14263],[3.4,14347],[3.4,14430],[3.4,14513],[3.4,14597],[3.4,14680],[3.4,14764],[3.4,14847],[3.4,14931],[3.4,15014],[3.4,15097],[3.4,15181],[3.4,15264],[3.4,15348]]",1,0,1464.0092,1466.8119,1.250000795,1.223,"[{""rating"":1.2500007947285952,""responseTime"":1.2229999999999563}]",space,2.2708,,1466.812,Definitely yes,100,1466.8142,,,[],,0,14,14,14,1,audio/Narrative8Situation5.wav,audio/Narrative7Situation5.wav,audio/Narrative6Situation5.wav,audio/Narrative5Situation5.wav,2,5,2,5,,,,,,,,,,,,,,,,,,,,,,,,,,,,,,,,,,,,,,,
,,,,,,5ffe235ea848b74a3b3ccd07,2024-05-13_10h21.54.771,group3.1-3.2-social-tom,2023.2.2,Win32,59.88023952,65c5074098b851296ff0b7ed,66422fbc50a16f631f72d5be,,,,,,,,,,,,,,,,,,,,,,,,,,,,,1466.8143,2,audio/Narrative5Situation6.wav,1469.8147,,1469.8147,1475.4871,"[[0.9,417],[0.6,500],[0.6,584],[0.4,667],[0.4,750],[0.4,834],[0.4,917],[0.4,1001],[0.4,1084],[0.4,1167],[0.4,1251],[0.4,1334],[0.4,1418],[0.4,1501],[0.4,1584],[0.4,1668],[0.4,1751],[0.4,1835],[0.4,1918],[0.4,2002],[0.4,2085],[0.4,2168],[0.4,2252],[0.4,2335],[0.4,2419],[0.4,2502],[0.4,2585],[0.4,2669],[0.4,2752],[0.4,2836],[2.7,2919],[4.5,3003],[11.5,3086],[30,3169],[50.1,3253],[56.6,3336],[61.4,3420],[66.7,3503],[68.8,3586],[68.8,3670],[68.8,3753],[68.8,3837],[68.8,3920],[68.8,4004],[68.8,4087],[68.8,4170],[68.8,4254],[68.8,4337],[68.8,4421],[70,4504],[72.2,4587],[73,4671],[73.1,4754],[74.2,4838],[74.3,4921],[74.3,5005],[74.3,5088],[74.3,5171],[74.3,5255],[74.3,5338],[74.3,5422],[74.3,5505],[74.3,5588],[74.3,5672]]",1,0,1475.4871,1485.0798,35.31250159,8.4973,"[{""rating"":35.31250158945719,""responseTime"":8.49730000000045}]",space,9.073,,1485.0798,Not at all,0,1485.0817,,,[],,0,15,15,15,1,audio/Narrative8Situation6.wav,audio/Narrative7Situation6.wav,audio/Narrative6Situation6.wav,audio/Narrative5Situation6.wav,2,3,2,3,,,,,,,,,,,,,,,,,,,,,,,,,,,,,,,,,,,,,,,
,,,,,,5ffe235ea848b74a3b3ccd07,2024-05-13_10h21.54.771,group3.1-3.2-social-tom,2023.2.2,Win32,59.88023952,65c5074098b851296ff0b7ed,66422fbc50a16f631f72d5be,,,,,,,,,,,,,,,,,,,,,,,,,,,,,1485.0819,2,audio/Narrative5Situation7.wav,1489.0836,,1489.0836,1510.1211,"[[999,6],[999,83],[999,166],[999,250],[999,333],[999,417],[0.3,3002],[0.3,3086],[0.3,3169],[0.3,3253],[0.3,3336],[0.3,3420],[0.3,3503],[0.5,3587],[2.5,3670],[3.5,3753],[4.1,3837],[4.1,3920],[4.1,4003],[4.1,4087],[4.1,4170],[4.1,4254],[3.8,4337],[3.2,4421],[2.8,4504],[2.5,4587],[2.2,4671],[2.2,4754],[2.2,4838],[2.2,4921],[2.2,5004],[2.2,5088],[2.2,5171],[2.2,5255],[2.2,5338],[2.2,5422],[2.2,5505],[2.2,5588],[2.2,5672],[2.2,5755],[2.2,5839],[2.2,5922],[2.2,6005],[2.2,6089],[2.2,6172],[2.2,6256],[2.2,6339],[2.2,6422],[2.2,6506],[2.2,6589],[2.2,6673],[2.2,6756],[2.2,6840],[2.2,6923],[2.2,7006],[2.2,7090],[2.1,7173],[2.2,7257],[3,7340],[3.6,7424],[4.4,7507],[4.8,7590],[5.1,7674],[5.2,7757],[5.4,7841],[6,7924],[6.6,8007],[6.6,8091],[5.4,8174],[4.7,8258],[4.1,8341],[4.1,8424],[4.1,8508],[5.6,8591],[8.4,8675],[9.2,8758],[8.8,8841],[7.3,8925],[5.9,9009],[5.1,9092],[4.7,9175],[5.3,9259],[7.8,9342],[9.7,9425],[10.3,9509],[10.6,9592],[10.6,9676],[9,9759],[6.9,9843],[5.9,9926],[5.4,10009],[5.4,10093],[7.2,10176],[7.5,10260],[7.5,10343],[7.4,10426],[6.3,10510],[6.1,10593],[6.3,10677],[7.3,10760],[7.3,10843],[5.4,10927],[4.8,11010],[4.8,11094],[4.8,11177],[6.6,11261],[8.5,11344],[8.5,11427],[8.5,11511],[7.8,11594],[6.8,11678],[6.3,11761],[6.3,11844],[6.3,11928],[6.3,12011],[6.3,12095],[6.3,12178],[6.3,12261],[6.3,12345],[6.3,12428],[8.1,12512],[9,12595],[9.1,12679],[9.1,12762],[9.4,12845],[9.5,12929],[9.5,13012],[9.5,13096],[9.5,13179],[9.5,13262],[9.5,13346],[9.5,13429],[9.5,13513],[9.5,13596],[9.5,13680],[9.5,13763],[9.6,13847],[10.1,13930],[10.9,14013],[12.3,14097],[12.8,14180],[12.8,14264],[12.8,14347],[12.8,14430],[13.8,14514],[15.9,14597],[16.1,14681],[16.1,14764],[16.1,14847],[16.6,14931],[16.6,15014],[16.6,15098],[16.6,15181],[16.1,15264],[16.1,15348],[16.6,15432],[17.2,15515],[17.5,15598],[18.1,15682],[18.6,15765],[18.8,15848],[19,15932],[19.3,16015],[19.4,16099],[19.4,16182],[19.5,16265],[19.5,16349],[19.5,16432],[19.5,16516],[19.5,16599],[19.5,16682],[19.5,16766],[19.3,16849],[18.1,16933],[16.1,17016],[15.4,17100],[15.4,17183],[15.4,17267],[15.9,17350],[16.6,17434],[16.6,17517],[16.6,17600],[16.6,17684],[16.6,17767],[16.9,17850],[17.4,17934],[18.3,18017],[18.8,18100],[18.8,18184],[15.5,18268],[11.2,18351],[8.8,18434],[7.4,18518],[7.3,18601],[7.3,18684],[7.3,18768],[7.3,18851],[7.3,18935],[7.3,19018],[6.9,19102],[6,19185],[5.8,19269],[5.3,19352],[5.2,19435],[5,19519],[5,19602],[5,19685],[5,19769],[5,19852],[5,19936],[5,20019],[5,20103],[5,20186],[5,20269],[5,20353],[4.3,20436],[4.1,20520],[4.1,20603],[4.1,20686],[4.1,20770],[4.1,20853],[4.1,20937],[4.1,21020]]",1,0,1510.1212,1511.806,4.999999205,0.7724,"[{""rating"":4.999999205271405,""responseTime"":0.7723999999998341}]",space,1.1583,,1511.806,Definitely yes,100,1511.8084,,,[],,0,16,16,16,1,audio/Narrative8Situation7.wav,audio/Narrative7Situation7.wav,audio/Narrative6Situation7.wav,audio/Narrative5Situation7.wav,3,5,5,4,,,,,,,,,,,,,,,,,,,,,,,,,,,,,,,,,,,,,,,
,,,,,,5ffe235ea848b74a3b3ccd07,2024-05-13_10h21.54.771,group3.1-3.2-social-tom,2023.2.2,Win32,59.88023952,65c5074098b851296ff0b7ed,66422fbc50a16f631f72d5be,,,,,,,,,,,,,,,,,,,,,,,,,,,,,1511.8086,2,audio/Narrative5Situation8.wav,1514.8089,,1514.8089,1523.6174,"[[6.9,83],[7.2,166],[7.7,250],[7.7,333],[7.2,417],[5.9,500],[4.5,584],[2.6,667],[2.1,750],[1.9,834],[1.9,917],[1.9,1000],[1.9,1084],[1.9,1167],[1.9,1250],[1.9,1334],[1.9,1417],[1.9,1501],[1.9,1584],[2.3,1668],[2.4,1751],[2.4,1835],[2.4,1918],[2.5,2002],[2.6,2085],[2.6,2168],[2.7,2252],[2.9,2335],[3.1,2419],[3.1,2502],[3.1,2585],[3.1,2669],[3.1,2752],[3.1,2836],[3.1,2919],[3.1,3002],[3.1,3086],[3.1,3169],[3.1,3253],[3.1,3336],[3.1,3419],[3.1,3503],[3.1,3586],[3.1,3670],[3.1,3753],[3.1,3836],[3.1,3920],[3.8,4003],[4.6,4087],[4.9,4170],[4.9,4254],[4.9,4337],[4.9,4420],[4.8,4504],[4.1,4587],[3.4,4671],[3,4754],[3,4837],[3,4921],[3,5004],[3,5088],[3,5171],[3,5254],[3,5338],[3,5421],[3,5505],[3,5588],[3,5672],[3,5755],[3,5838],[3,5922],[3,6005],[3,6089],[3,6172],[3,6255],[3,6339],[3,6422],[3,6506],[3,6589],[3,6672],[3,6756],[3,6839],[3,6923],[3,7006],[3,7090],[3,7173],[3,7257],[3,7340],[3,7423],[3,7507],[3,7590],[3,7673],[3,7757],[3,7840],[3,7924],[3,8007],[3,8091],[3,8174],[3,8257],[3,8341],[3,8424],[3,8508],[3,8591],[3,8675],[3,8758]]",1,0,1523.6176,1525.8864,2.395832539,0.7503,"[{""rating"":2.3958325386047363,""responseTime"":0.7503000000001521}]",space,1.7356,,1525.8864,Definitely yes,100,1525.8877,,,[],,0,17,17,17,1,audio/Narrative8Situation8.wav,audio/Narrative7Situation8.wav,audio/Narrative6Situation8.wav,audio/Narrative5Situation8.wav,3,2,5,3,,,,,,,,,,,,,,,,,,,,,,,,,,,,,,,,,,,,,,,
