exp_question,consent.started,consent.stopped,consentResponse.keys,consentResponse.rt,consentResponse.duration,participantID,date,expName,psychopyVersion,OS,frameRate,STUDY_ID,SESSION_ID,opening1.started,opening1.stopped,keyEndingOpening1.keys,keyEndingOpening1.rt,keyEndingOpening1.duration,volumeAdjust.started,volumeAdjust.stopped,endingAdjust.keys,endingAdjust.rt,endingAdjust.duration,opening2.started,opening2.stopped,keyEndingOpening.keys,keyEndingOpening.rt,keyEndingOpening.duration,mouse.x,mouse.y,mouse.leftButton,mouse.midButton,mouse.rightButton,mouse.time,instructionLoop.thisRepN,instructionLoop.thisTrialN,instructionLoop.thisN,instructionLoop.thisIndex,instructionLoop.ran,readyForAudio.started,readyForAudio.stopped,fixation.started,run,audio_played,fixation.stopped,endPractice.keys,audioPre.started,audioPre.stopped,continuousResponses_audio,continuousSlider.response,continuousSlider.rt,intRating.started,intRating.stopped,intQuestionSlider.response,intQuestionSlider.rt,intQuestionSlider.history,confirmResponse.keys,confirmResponse.rt,confirmResponse.duration,catchQuestion.started,catch_label,catch_value,catchQuestion.stopped,catchQuestionSlider.response,catchQuestionSlider.rt,catchQuestionSlider.history,confirmResponse_2.keys,audioRunLoop.thisRepN,audioRunLoop.thisTrialN,audioRunLoop.thisN,audioRunLoop.thisIndex,audioRunLoop.ran,conditions1_1,conditions2_1,conditions1_2,conditions2_2,dur1_1,dur2_1,dur1_2,dur2_2,endPractice.rt,endPractice.duration,confirmResponse_2.rt,confirmResponse_2.duration,runIntervalBreak.started,runIntervalBreak.stopped,endingBreakKey.keys,endingBreakKey.rt,endingBreakKey.duration,connection.started,connection.stopped,connectionEnding.keys,connectionEnding.rt,connectionEnding.duration,readyForText.started,readyForText.stopped,textPre.started,run_dup,textPre.stopped,continuousResponses_text,textRunLoop.thisRepN,textRunLoop.thisTrialN,textRunLoop.thisN,textRunLoop.thisIndex,textRunLoop.ran,text1_1,text1_2,text2_1,text2_2,runBreakText.started,runBreakText.stopped,endingBreakKey_2.keys,endingBreakKey_2.rt,endingBreakKey_2.duration,ending.started,ending.stopped,endingEnding.keys,endingEnding.rt,endingEnding.duration
tom,0.001,14.674,y,14.348,,60a48adfe091e410f4eaba34,2024-05-13_11h27.33.535,group3.1-3.2-social-tom,2023.2.2,Win32,58.82352941,65c5074098b851296ff0b7ed,664231517f18d23ce3bc9dda,,,,,,,,,,,,,,,,,,,,,,,,,,,,,,,,,,,,,,,,,,,,,,,,,,,,,,,,,,,,,,,,,,,,,,,,,,,,,,,,,,,,,,,,,,,,,,,,,,,,,,,,,,
,,,,,,60a48adfe091e410f4eaba34,2024-05-13_11h27.33.535,group3.1-3.2-social-tom,2023.2.2,Win32,58.82352941,65c5074098b851296ff0b7ed,664231517f18d23ce3bc9dda,14.674,27.475,space,12.759,,,,,,,,,,,,,,,,,,,,,,,,,,,,,,,,,,,,,,,,,,,,,,,,,,,,,,,,,,,,,,,,,,,,,,,,,,,,,,,,,,,,,,,,,,,,,,,,,,,,,,
,,,,,,60a48adfe091e410f4eaba34,2024-05-13_11h27.33.535,group3.1-3.2-social-tom,2023.2.2,Win32,58.82352941,65c5074098b851296ff0b7ed,664231517f18d23ce3bc9dda,,,,,,27.475,71.341,space,43.544,,,,,,,,,,,,,,,,,,,,,,,,,,,,,,,,,,,,,,,,,,,,,,,,,,,,,,,,,,,,,,,,,,,,,,,,,,,,,,,,,,,,,,,,,,,,,,,,,
,,,,,,60a48adfe091e410f4eaba34,2024-05-13_11h27.33.535,group3.1-3.2-social-tom,2023.2.2,Win32,58.82352941,65c5074098b851296ff0b7ed,664231517f18d23ce3bc9dda,,,,,,,,,,,71.347,108.374,space,37.005,,[-0.31875],[0.3277777777777778],[1],[0],[0],[35.96300000000001],0,0,0,0,1,,,,,,,,,,,,,,,,,,,,,,,,,,,,,,,,,,,,,,,,,,,,,,,,,,,,,,,,,,,,,,,,,,,,,,,,,,,,,,,,
,,,,,,60a48adfe091e410f4eaba34,2024-05-13_11h27.33.535,group3.1-3.2-social-tom,2023.2.2,Win32,58.82352941,65c5074098b851296ff0b7ed,664231517f18d23ce3bc9dda,,,,,,,,,,,108.375,144.224,space,35.789,,[-0.275],[-0.6703703703703704],[1],[0],[0],[33.29600000000001],1,0,1,0,1,,,,,,,,,,,,,,,,,,,,,,,,,,,,,,,,,,,,,,,,,,,,,,,,,,,,,,,,,,,,,,,,,,,,,,,,,,,,,,,,
,,,,,,60a48adfe091e410f4eaba34,2024-05-13_11h27.33.535,group3.1-3.2-social-tom,2023.2.2,Win32,58.82352941,65c5074098b851296ff0b7ed,664231517f18d23ce3bc9dda,,,,,,,,,,,144.228,149.474,space,5.216,,[],[],[],[],[],[],2,0,2,0,1,,,,,,,,,,,,,,,,,,,,,,,,,,,,,,,,,,,,,,,,,,,,,,,,,,,,,,,,,,,,,,,,,,,,,,,,,,,,,,,,
,,,,,,60a48adfe091e410f4eaba34,2024-05-13_11h27.33.535,group3.1-3.2-social-tom,2023.2.2,Win32,58.82352941,65c5074098b851296ff0b7ed,664231517f18d23ce3bc9dda,,,,,,,,,,,149.479,173.691,space,24.204,,[],[],[],[],[],[],3,0,3,0,1,,,,,,,,,,,,,,,,,,,,,,,,,,,,,,,,,,,,,,,,,,,,,,,,,,,,,,,,,,,,,,,,,,,,,,,,,,,,,,,,
,,,,,,60a48adfe091e410f4eaba34,2024-05-13_11h27.33.535,group3.1-3.2-social-tom,2023.2.2,Win32,58.82352941,65c5074098b851296ff0b7ed,664231517f18d23ce3bc9dda,,,,,,,,,,,173.695,201.524,space,27.818,,[],[],[],[],[],[],4,0,4,0,1,,,,,,,,,,,,,,,,,,,,,,,,,,,,,,,,,,,,,,,,,,,,,,,,,,,,,,,,,,,,,,,,,,,,,,,,,,,,,,,,
,,,,,,60a48adfe091e410f4eaba34,2024-05-13_11h27.33.535,group3.1-3.2-social-tom,2023.2.2,Win32,58.82352941,65c5074098b851296ff0b7ed,664231517f18d23ce3bc9dda,,,,,,,,,,,,,,,,,,,,,,,,,,,201.529,204.108,204.118,1,audio/Narrative13Situation2.wav,206.125,,206.125,235.875,"[[999,0],[999,82],[999,166],[999,249],[999,332],[999,416],[999,499],[999,582],[999,665],[999,749],[999,832],[999,916],[999,999],[999,1082],[999,1165],[999,1249],[999,1332],[999,1416],[999,1499],[999,1582],[999,1666],[999,1748],[999,1832],[999,1916],[999,1999],[999,2082],[999,2165],[999,2249],[999,2332],[999,2416],[999,2500],[999,2582],[999,2665],[999,2748],[999,2832],[999,2915],[999,3000],[999,3082],[999,3165],[999,3249],[999,3332],[999,3416],[999,3499],[999,3582],[999,3666],[999,3749],[999,3832],[999,3916],[999,4000],[999,4082],[999,4166],[999,4249],[999,4332],[999,4415],[999,4500],[999,4582],[63.9,4666],[64.9,4749],[59.3,4832],[52.2,4915],[52.9,4999],[53.3,5082],[53.3,5165],[51.5,5249],[46.6,5332],[45.1,5416],[44.9,5499],[46.9,5582],[49.1,5665],[49.2,5750],[49.9,5832],[51.1,5916],[59.8,5999],[67.2,6082],[70.8,6165],[72.1,6248],[72.1,6332],[72.1,6416],[72.1,6499],[72.6,6582],[76.9,6666],[80.2,6749],[81.3,6832],[81.3,6916],[81.3,6999],[81.3,7082],[81.3,7166],[81.3,7249],[81.3,7332],[81.3,7415],[81.3,7499],[81.4,7582],[82,7665],[82.4,7749],[82.5,7832],[82.8,7916],[83.1,7999],[83.1,8082],[83.1,8165],[83.2,8249],[83.4,8332],[84,8416],[84.6,8499],[84.9,8582],[84.9,8666],[84.9,8749],[84.9,8832],[84.9,8916],[84.9,8999],[84.9,9082],[84.9,9165],[84.9,9249],[84.9,9332],[84.9,9416],[84.9,9499],[84.2,9582],[83.3,9666],[82.7,9749],[82.3,9832],[82.2,9916],[82.2,9999],[82.1,10082],[82.1,10166],[82.1,10249],[82.1,10332],[82.1,10416],[82.1,10498],[82.1,10582],[82.1,10665],[82.1,10749],[82.1,10832],[82.1,10915],[82.1,11000],[82.1,11082],[82.1,11165],[82.1,11249],[82.1,11332],[82.1,11416],[82.1,11499],[82.1,11582],[82.1,11666],[82.1,11748],[82.1,11832],[82.1,11916],[82.1,11999],[82.1,12082],[82.1,12165],[82.4,12249],[82.4,12332],[82.5,12415],[82.5,12499],[82.5,12582],[82.5,12666],[82.5,12749],[82.5,12832],[82.5,12916],[82.5,12999],[82.5,13082],[82.5,13166],[82.5,13249],[82.5,13332],[82.5,13416],[82.5,13499],[82.5,13582],[82.5,13666],[82.3,13749],[81.7,13832],[81,13915],[81,13999],[81,14082],[81,14165],[81,14250],[80.9,14332],[80.1,14416],[80,14499],[80,14582],[80,14666],[80,14749],[80,14832],[80,14915],[80,14999],[80,15082],[80,15166],[80,15249],[80,15332],[80,15416],[80,15500],[80,15582],[80,15666],[80,15749],[80,15832],[80,15916],[80,16000],[80,16082],[80,16165],[80,16249],[80,16332],[80,16415],[80,16499],[80,16583],[80,16666],[80,16749],[80,16832],[80,16915],[80,16999],[80,17083],[80,17166],[80,17249],[80,17332],[80,17415],[80,17499],[80,17582],[80,17665],[80,17749],[80,17833],[80,17916],[80,18000],[80,18083],[80,18165],[80,18249],[80,18332],[80,18415],[80,18499],[80,18582],[80,18666],[80,18749],[80,18832],[80,18915],[80,18999],[80,19082],[80,19165],[79.2,19249],[78,19333],[77.8,19416],[77.8,19498],[77.8,19583],[77.8,19666],[77.8,19749],[77.8,19832],[77.8,19915],[77.8,19999],[77.8,20082],[77.8,20165],[77.8,20249],[77.8,20333],[77.8,20415],[77.8,20499],[77.8,20582],[77.8,20666],[77.8,20749],[77.8,20833],[77.8,20915],[77.8,20999],[77.8,21082],[77.8,21166],[77.8,21249],[77.8,21332],[77.8,21415],[77.8,21499],[77.8,21582],[77.8,21665],[77.8,21749],[77.8,21833],[77.8,21916],[77.8,21999],[77.8,22083],[77.8,22166],[77.8,22249],[77.8,22332],[77.8,22416],[77.8,22499],[77.8,22583],[77.8,22666],[77.8,22750],[77.8,22832],[77.8,22916],[77.8,23000],[77.8,23082],[77.8,23166],[77.8,23249],[77.4,23332],[75.9,23415],[74.1,23499],[72.3,23582],[70.8,23665],[70.3,23749],[70.1,23832],[70.1,23915],[70.1,23999],[69.5,24083],[67.9,24166],[65.9,24249],[65,24332],[65,24415],[65,24499],[65,24582],[64.9,24666],[62.9,24749],[62.7,24832],[62.7,24916],[62.7,24998],[62.7,25082],[62.7,25166],[62.7,25249],[62.7,25333],[62.7,25415],[62.7,25499],[62.7,25582],[62.7,25665],[62.7,25749],[62.7,25832],[62.7,25916],[62.7,25999],[62.7,26082],[62.7,26166],[62.7,26249],[62.7,26332],[62.7,26416],[62.7,26499],[62.7,26582],[62.7,26666],[62.7,26749],[62.7,26832],[62.7,26915],[62.7,26999],[62.7,27083],[62.7,27166],[62.7,27249],[62.7,27333],[62.7,27416],[62.7,27499],[62.7,27583],[62.7,27666],[62.7,27749],[62.7,27832],[62.7,27915],[62.7,27999],[62.7,28083],[62.7,28166],[62.7,28249],[62.7,28332],[62.7,28415],[62.7,28500],[62.7,28582],[62.7,28666],[62.7,28749],[62.7,28833],[62.7,28916],[62.7,28999],[62.7,29082],[62.7,29166],[62.7,29248],[62.7,29332],[62.7,29416],[62.7,29499],[62.7,29582],[62.7,29666],[63.6,29748]]",1,0,235.875,242.874,75.41666667,4.105,"[{""rating"":75.41666666666667,""responseTime"":4.105000000000018}]",space,6.462,,242.875,Half the time,50,242.876,,,[],,0,0,0,0,1,audio/Narrative13Situation2.wav,audio/Narrative13Situation2.wav,audio/Narrative13Situation2.wav,audio/Narrative13Situation2.wav,2,2,2,2,,,,,,,,,,,,,,,,,,,,,,,,,,,,,,,,,,,,,,,
,,,,,,60a48adfe091e410f4eaba34,2024-05-13_11h27.33.535,group3.1-3.2-social-tom,2023.2.2,Win32,58.82352941,65c5074098b851296ff0b7ed,664231517f18d23ce3bc9dda,,,,,,,,,,,,,,,,,,,,,,,,,,,,,242.876,1,audio/Narrative7Situation1.wav,278.057,space,278.057,333.94,"[[999,4],[999,84],[999,168],[999,250],[999,334],[999,417],[999,501],[999,584],[999,667],[999,751],[999,834],[999,917],[999,1000],[61.8,1083],[56.4,1167],[56.6,1250],[57.5,1333],[57.5,1417],[61.7,1501],[64.4,1583],[64.4,1667],[64.4,1750],[64.4,1833],[63.8,1917],[63.2,2001],[63.2,2083],[63.2,2167],[63.2,2251],[62.4,2334],[61.3,2417],[60.1,2500],[58.3,2583],[57.9,2667],[57.9,2750],[57.9,2834],[57.9,2917],[58.1,3000],[70.4,3084],[82.5,3167],[82.5,3250],[82.5,3333],[82.5,3417],[82.4,3500],[81.8,3584],[81.8,3665],[81.8,3750],[81.8,3834],[81.8,3917],[81.8,4000],[81.8,4084],[81.8,4167],[81.8,4250],[81.8,4334],[81.8,4417],[81.8,4500],[81.8,4583],[81.8,4667],[81.8,4750],[81.8,4834],[81.8,4917],[81.8,5001],[84.6,5083],[87.8,5167],[91.3,5250],[91.4,5333],[91.4,5417],[91.4,5500],[91.4,5584],[91.4,5667],[90.8,5750],[90.8,5834],[90.6,5917],[90.3,6001],[90.1,6084],[90,6167],[90,6250],[90,6334],[90,6417],[90,6500],[90,6584],[90,6667],[90,6751],[90,6834],[90,6917],[90,7000],[90,7084],[90,7167],[90,7250],[90,7333],[90,7417],[90,7500],[90,7584],[90,7667],[90,7751],[90,7833],[90,7917],[90,8001],[90,8084],[90,8167],[90,8250],[90,8333],[90,8417],[90,8500],[90,8584],[90,8667],[90,8750],[90,8834],[90,8917],[90,9001],[90,9084],[90,9165],[90,9251],[90,9334],[90,9417],[90,9500],[90,9583],[90,9667],[90,9750],[90,9833],[90,9917],[90,10000],[90,10084],[90,10167],[90,10250],[90,10334],[88.8,10417],[84.9,10500],[83.5,10583],[83.2,10667],[83.2,10751],[83.2,10833],[83.2,10917],[83.2,11000],[83.2,11084],[83.2,11167],[83.2,11250],[83.2,11334],[83.2,11417],[83.2,11500],[83.2,11583],[83.2,11667],[83.2,11750],[83.2,11834],[83.2,11917],[83.2,12000],[83.2,12083],[83.2,12167],[83.2,12250],[83.2,12334],[83.2,12417],[83.2,12501],[83.2,12583],[83.2,12667],[83.2,12750],[84.5,12834],[85.7,12917],[86,13000],[88.3,13083],[89.4,13167],[89.5,13251],[89.5,13333],[89.5,13417],[89.5,13501],[89.5,13584],[89.5,13665],[89.5,13751],[89.5,13834],[89.5,13917],[89.5,14000],[89.5,14084],[89.5,14167],[89.5,14250],[89.5,14333],[89.5,14417],[89.5,14500],[89.5,14584],[89.5,14668],[89.5,14750],[89.5,14833],[89.5,14917],[89.5,15000],[89.5,15084],[89.5,15167],[89.5,15250],[89.5,15334],[89.5,15417],[89.5,15500],[89.5,15584],[89.5,15667],[89.5,15750],[89.5,15834],[89.5,15917],[89.5,16000],[89.5,16084],[89.5,16168],[89.5,16250],[89.5,16334],[89.5,16417],[89.5,16500],[89.5,16583],[89.5,16667],[89.5,16751],[89.5,16834],[89.5,16917],[89.5,17000],[89.5,17084],[89.5,17167],[89.5,17250],[89.5,17333],[89.5,17417],[89.5,17500],[89.5,17583],[89.5,17665],[89.5,17750],[89.5,17834],[89.5,17917],[89.5,18001],[89.5,18083],[89.5,18167],[89.5,18250],[89.5,18334],[89.5,18418],[89.5,18500],[89.5,18583],[89.5,18667],[89.5,18750],[89.5,18834],[89.5,18917],[89.2,19000],[85.8,19084],[84.3,19167],[84,19251],[83.9,19334],[83.9,19417],[83.9,19501],[83.9,19584],[83.9,19667],[83.9,19750],[83.9,19834],[83.9,19917],[83.9,20000],[83.9,20084],[83.9,20168],[83.9,20250],[83.9,20334],[83.9,20417],[83.9,20501],[83.9,20583],[83.9,20668],[83.9,20750],[83.9,20834],[83.9,20917],[83.9,21001],[83.9,21084],[83.9,21165],[83.9,21251],[83.9,21333],[83.9,21417],[83.9,21500],[83.9,21584],[83.9,21667],[83.9,21750],[83.9,21834],[83.9,21917],[83.9,22000],[83.9,22084],[83.9,22167],[83.9,22251],[83.9,22333],[83.9,22418],[83.9,22500],[83.9,22583],[83.9,22667],[83.9,22750],[83.9,22834],[83.9,22917],[83.9,23000],[83.9,23084],[83.9,23165],[83.9,23250],[83.9,23334],[83.9,23417],[83.9,23500],[83.9,23584],[83.9,23667],[83.9,23750],[83.9,23833],[82.8,23917],[82,24001],[81.9,24084],[81.9,24167],[81.9,24251],[81.9,24333],[81.9,24417],[81.9,24500],[81.9,24583],[81.9,24667],[81.9,24750],[81.9,24834],[81.9,24918],[81.9,25000],[81.9,25084],[81.9,25167],[81.9,25251],[81.9,25333],[81.9,25417],[81.9,25500],[81.9,25583],[81.9,25667],[81.5,25750],[79.7,25833],[78.8,25917],[78.8,26000],[78.8,26083],[78.8,26167],[78.8,26250],[78.8,26334],[78.8,26417],[78.8,26500],[78.8,26584],[78.8,26667],[78.8,26750],[78.8,26834],[78.8,26917],[78.8,27001],[78.8,27083],[78.8,27165],[78.8,27250],[78.8,27333],[78.8,27418],[78.8,27500],[78.8,27584],[78.8,27667],[78.8,27750],[78.8,27834],[78.8,27917],[78.8,28000],[78.8,28084],[78.8,28167],[78.8,28250],[78.8,28333],[78.8,28417],[78.8,28500],[78.8,28584],[78.8,28665],[78.8,28750],[78.8,28834],[78.8,28917],[78.8,29000],[78.8,29084],[78.8,29165],[78.8,29251],[78.8,29333],[78.8,29417],[78.8,29500],[78.8,29584],[78.8,29667],[78.8,29751],[78.8,29833],[78.8,29917],[78.8,30001],[78.8,30084],[78.8,30168],[78.8,30250],[78.8,30333],[78.8,30418],[78.8,30501],[78.8,30584],[78.8,30667],[78.8,30751],[78.8,30833],[78.8,30917],[78.8,31000],[78.8,31084],[78.8,31167],[78.8,31250],[78.8,31334],[78.8,31418],[78.8,31501],[78.8,31584],[78.8,31667],[78.8,31751],[78.8,31834],[78.8,31917],[78.8,32000],[78.8,32084],[78.8,32167],[78.8,32251],[78.8,32334],[78.8,32415],[78.8,32500],[78.8,32584],[78.8,32667],[78.8,32750],[78.8,32834],[78.8,32917],[78.8,33000],[78.8,33084],[78.8,33167],[78.8,33251],[78.8,33334],[78.8,33416],[78.8,33500],[78.8,33584],[78.8,33667],[78.8,33750],[78.8,33834],[78.8,33916],[78.8,34000],[78.8,34084],[78.8,34168],[78.8,34250],[78.8,34334],[78.8,34417],[78.8,34500],[78.8,34584],[78.8,34667],[78.8,34750],[78.8,34834],[78.8,34917],[78.8,35000],[78.8,35084],[78.8,35167],[78.8,35251],[78.8,35334],[78.8,35417],[78.8,35500],[78.8,35583],[78.8,35668],[78.8,35751],[78.8,35834],[78.8,35917],[78.8,36000],[78.8,36084],[78.8,36167],[78.8,36250],[77.8,36334],[77.6,36416],[77.5,36500],[77.1,36583],[76.6,36667],[76,36750],[75.7,36834],[75.2,36917],[74.4,37001],[74,37084],[73.8,37167],[73.8,37250],[73.8,37334],[73.8,37417],[73.8,37500],[73.8,37583],[72.8,37667],[72.8,37750],[72.8,37833],[72.8,37917],[72.8,38000],[71.7,38084],[70.7,38167],[70.2,38250],[70,38334],[69.7,38417],[69.2,38501],[68.5,38584],[68.1,38667],[67.7,38750],[67.3,38833],[67.2,38917],[67.2,39000],[67.2,39084],[67,39167],[66.9,39250],[66.8,39334],[66.7,39417],[66.6,39500],[66.5,39583],[66.4,39667],[66.3,39751],[66.1,39834],[66.1,39917],[66,40000],[65.6,40084],[64.8,40167],[63.2,40251],[61.6,40334],[59.4,40417],[58.2,40500],[57.8,40583],[57.7,40667],[57.7,40750],[57.7,40833],[57.7,40917],[57.7,41001],[57.7,41083],[57.7,41167],[57.7,41250],[57.7,41334],[57.7,41417],[57.1,41500],[57.1,41584],[57.1,41667],[57.1,41750],[56.7,41834],[56.7,41917],[56.7,42000],[56.7,42084],[56.6,42167],[56.6,42250],[56.6,42334],[56.6,42417],[56.6,42501],[56.6,42583],[56.6,42667],[56.6,42750],[56.6,42833],[56.6,42917],[56.6,43000],[56.6,43083],[56.6,43167],[56.6,43250],[56.6,43334],[56.6,43417],[56.6,43500],[56.6,43584],[56.6,43668],[56.6,43751],[56.6,43834],[56.6,43918],[56.6,44000],[56.6,44083],[56.6,44168],[56.6,44251],[56.6,44334],[56.6,44417],[56.6,44500],[56.6,44584],[56.6,44667],[56.6,44750],[56.6,44833],[56.6,44917],[56.6,45001],[56.6,45084],[56.6,45168],[56.6,45250],[56.6,45334],[56.6,45417],[56.6,45501],[56.6,45584],[56.6,45667],[56.6,45750],[56.6,45834],[56.6,45916],[56.6,46000],[56.6,46084],[56.6,46167],[56.6,46250],[56.6,46334],[56.6,46417],[56.6,46500],[56.6,46584],[56.6,46667],[56.6,46750],[56.6,46834],[56.6,46917],[56.6,47000],[56.6,47083],[56.6,47167],[56.6,47250],[56.6,47334],[56.6,47417],[56.6,47501],[56.6,47584],[56.6,47667],[56.6,47750],[56.6,47834],[56.6,47917],[56.6,48000],[56.6,48084],[56.6,48167],[56.6,48250],[56.6,48334],[56.6,48417],[56.6,48500],[56.6,48583],[56.5,48666],[55.2,48750],[54.6,48833],[54.5,48917],[54.5,49000],[54.5,49083],[54.5,49167],[54.5,49250],[54.5,49333],[54.5,49417],[54.5,49501],[54.5,49583],[54.5,49667],[54.5,49750],[54.5,49834],[54.5,49918],[54.5,50000],[54.5,50084],[54.5,50168],[54.5,50251],[53.2,50334],[51.7,50417],[50.5,50500],[49.5,50584],[49,50667],[48.9,50750],[48.9,50834],[48.9,50916],[48.9,51001],[48.9,51084],[48.9,51167],[48.9,51250],[48.2,51334],[47.5,51417],[47.5,51500],[47.5,51584],[47.5,51666],[47.5,51750],[47.5,51834],[47.5,51917],[47.5,52000],[47.5,52083],[47.5,52166],[47.5,52250],[47.5,52333],[47.5,52417],[47.5,52500],[47.5,52584],[47.5,52667],[47.5,52750],[47.5,52834],[47.5,52917],[47.5,53000],[47.5,53083],[47.5,53167],[47.5,53250],[47.5,53334],[47.5,53417],[47.5,53500],[47.5,53583],[47.5,53667],[47.5,53750],[47.5,53834],[47.5,53916],[47.5,54000],[47.5,54083],[47.5,54167],[47.5,54251],[47.5,54333],[47.5,54417],[47.5,54500],[47.5,54584],[47.5,54668],[47.5,54750],[47.5,54834],[47.5,54918],[47.5,55000],[47.5,55084],[47.5,55167],[47.5,55250],[47.5,55334],[47.5,55417],[47.5,55500],[47.5,55584],[47.5,55668],[47.5,55751],[47.5,55834]]",1,0,333.941,337.99,49.375,1.743,"[{""rating"":49.375,""responseTime"":1.742999999999995}]",space,3.507,,337.99,Half the time,50,337.992,,,[],,0,1,1,1,1,audio/Narrative7Situation1.wav,audio/Narrative8Situation1.wav,audio/Narrative5Situation1.wav,audio/Narrative6Situation1.wav,2,5,5,2,35.158,,,,,,,,,,,,,,,,,,,,,,,,,,,,,,,,,,,,,,
,,,,,,60a48adfe091e410f4eaba34,2024-05-13_11h27.33.535,group3.1-3.2-social-tom,2023.2.2,Win32,58.82352941,65c5074098b851296ff0b7ed,664231517f18d23ce3bc9dda,,,,,,,,,,,,,,,,,,,,,,,,,,,,,337.992,1,audio/Narrative7Situation2.wav,341.007,,341.007,348.49,"[[50.9,334],[50.9,416],[52.6,500],[53,584],[53,666],[53.1,750],[53.5,834],[53.5,916],[53.4,1000],[54.5,1082],[58.3,1166],[59,1250],[59,1332],[59,1416],[59,1500],[59,1582],[56.3,1666],[53,1750],[52.4,1832],[51.9,1916],[51.4,2000],[51.1,2082],[51.1,2166],[51.1,2250],[51.1,2332],[51.1,2416],[51,2500],[50.8,2584],[50.6,2666],[50.6,2750],[50.6,2834],[50.6,2915],[50.6,3000],[50.6,3082],[50.6,3168],[50.6,3250],[50.6,3332],[50.6,3416],[50.5,3500],[49.4,3584],[48.4,3666],[48.2,3750],[48.1,3834],[48.1,3916],[48.1,4000],[48.1,4084],[48.1,4166],[48.1,4250],[48.1,4332],[48.1,4416],[48.1,4500],[48.1,4582],[48.1,4666],[48.1,4750],[48.1,4834],[48.1,4915],[48.1,5000],[48.1,5084],[48.1,5166],[48.1,5250],[48.1,5334],[48.1,5415],[48.1,5500],[48.1,5584],[48,5666],[48,5750],[47.9,5832],[46.9,5916],[46.9,6000],[46.9,6084],[46.9,6165],[45.7,6250],[45.7,6334],[45.7,6416],[45.7,6500],[45.7,6582],[45.7,6665],[45.7,6750],[45.7,6834],[45.7,6916],[45.7,7000],[45.7,7084],[45.7,7166],[45.7,7250],[45.7,7332],[45.7,7416]]",1,0,348.49,351.924,51.04166667,3.433,"[{""rating"":51.041666666666664,""responseTime"":3.4329999999999927}]",space,1.901,,351.924,Not at all,0,351.925,,,[],,0,2,2,2,1,audio/Narrative7Situation2.wav,audio/Narrative8Situation2.wav,audio/Narrative5Situation2.wav,audio/Narrative6Situation2.wav,3,3,3,3,,,,,,,,,,,,,,,,,,,,,,,,,,,,,,,,,,,,,,,
,,,,,,60a48adfe091e410f4eaba34,2024-05-13_11h27.33.535,group3.1-3.2-social-tom,2023.2.2,Win32,58.82352941,65c5074098b851296ff0b7ed,664231517f18d23ce3bc9dda,,,,,,,,,,,,,,,,,,,,,,,,,,,,,351.925,1,audio/Narrative7Situation3.wav,359.94,,359.941,369.207,"[[43.8,81],[46.7,167],[51.1,250],[51.3,333],[51.3,415],[51.3,500],[50.9,583],[50.9,665],[50.9,750],[49.6,833],[47.9,915],[47.7,1000],[47.7,1083],[47.7,1165],[47.7,1250],[47.9,1333],[49.1,1415],[50.1,1500],[50.6,1583],[50.6,1665],[50.6,1749],[50.6,1833],[50.6,1915],[50.6,1999],[50.6,2083],[50.6,2165],[50.6,2249],[50.6,2331],[50.6,2417],[50.6,2500],[50.6,2583],[50.6,2665],[50.6,2749],[50.6,2831],[50.6,2915],[50.6,2999],[50.6,3083],[50.6,3165],[50.6,3249],[50.6,3333],[50.6,3415],[50.6,3499],[50.6,3583],[50.6,3665],[50.6,3749],[50.6,3833],[50.6,3915],[50.3,3999],[49.8,4083],[49.8,4165],[49.7,4250],[49.3,4333],[49.2,4415],[49.2,4500],[49.2,4583],[49.2,4665],[49.2,4750],[49.2,4831],[49.2,4917],[49.2,4999],[49.2,5083],[49.2,5165],[49.2,5249],[49.2,5333],[49.2,5415],[49.2,5500],[49.2,5583],[49.2,5665],[49.2,5749],[49.2,5831],[49.2,5915],[49.2,5999],[50.1,6083],[57,6165],[59.5,6249],[59.8,6333],[60,6415],[60.2,6500],[60.9,6583],[64.6,6667],[65.9,6750],[65.9,6833],[65.9,6915],[65.9,7000],[66.1,7083],[66.1,7165],[66.1,7249],[66.1,7333],[72.2,7415],[73.9,7500],[74,7583],[74.1,7665],[74.1,7750],[74.1,7833],[74.1,7915],[74.1,7999],[74.1,8083],[74.1,8165],[74.1,8250],[74.1,8333],[74.1,8415],[74.4,8499],[75,8583],[75.8,8665],[76.4,8750],[76.9,8833],[76.9,8915],[76.9,9000],[76.9,9083],[76.9,9165],[76.9,9250]]",1,0,369.207,371.49,70.72916667,1.105,"[{""rating"":70.72916666666667,""responseTime"":1.1050000000000182}]",space,1.75,,371.49,All the time,100,371.493,,,[],,0,3,3,3,1,audio/Narrative7Situation3.wav,audio/Narrative8Situation3.wav,audio/Narrative5Situation3.wav,audio/Narrative6Situation3.wav,8,4,3,5,,,,,,,,,,,,,,,,,,,,,,,,,,,,,,,,,,,,,,,
,,,,,,60a48adfe091e410f4eaba34,2024-05-13_11h27.33.535,group3.1-3.2-social-tom,2023.2.2,Win32,58.82352941,65c5074098b851296ff0b7ed,664231517f18d23ce3bc9dda,,,,,,,,,,,,,,,,,,,,,,,,,,,,,371.493,1,audio/Narrative7Situation4.wav,374.507,,374.507,386.24,"[[68.3,7832],[68.2,7915],[68.2,8000],[68.2,8084],[69.7,8165],[72.6,8250],[73.8,8334],[74,8416],[74,8500],[74,8582],[74.3,8666],[74.3,8750],[74.3,8834],[74.3,8916],[74.3,9000],[74.3,9082],[74.3,9166],[74.3,9250],[74.3,9334],[74.3,9415],[74.3,9500],[74.3,9582],[74.3,9665],[74.3,9750],[74.3,9834],[74.3,9918],[74.3,10000],[74.3,10082],[74.3,10166],[74.3,10250],[74.3,10334],[74.3,10416],[74.3,10500],[74.3,10582],[74.3,10666],[74.3,10750],[74.3,10834],[74.3,10916],[74.3,11000],[74.3,11082],[74.3,11166],[74.3,11250],[74.3,11334],[74.3,11415],[74.3,11500],[74.3,11584],[74.3,11666]]",1,0,386.24,389.357,75.20833333,1.854,"[{""rating"":75.20833333333333,""responseTime"":1.853999999999985}]",space,2.588,,389.357,Not at all,0,389.359,,,[],,0,4,4,4,1,audio/Narrative7Situation4.wav,audio/Narrative8Situation4.wav,audio/Narrative5Situation4.wav,audio/Narrative6Situation4.wav,3,3,1,2,,,,,,,,,,,,,,,,,,,,,,,,,,,,,,,,,,,,,,,
,,,,,,60a48adfe091e410f4eaba34,2024-05-13_11h27.33.535,group3.1-3.2-social-tom,2023.2.2,Win32,58.82352941,65c5074098b851296ff0b7ed,664231517f18d23ce3bc9dda,,,,,,,,,,,,,,,,,,,,,,,,,,,,,389.359,1,audio/Narrative7Situation5.wav,394.374,,394.374,402.857,"[[72.5,83],[61.4,165],[59.4,250],[59.4,333],[59.4,415],[59.4,500],[59.4,583],[59.4,665],[59.4,750],[62.6,1083],[64,1165],[68.5,1250],[69.1,1334],[69.2,1417],[69.5,1500],[69.5,1583],[69.5,1665],[68.1,1750],[68.1,1833],[68.1,1917],[68.1,2000],[68,2083],[67.8,2167],[67.8,2250],[67.8,2333],[67.8,2415],[67.8,2500],[67.8,2584],[67.8,2665],[68.3,2750],[69.4,2833],[69.5,2915],[69.5,3000],[69.5,3083],[69.5,3167],[69.5,3249],[69.5,3333],[69.5,3417],[69.5,3500],[69.5,3583],[69.5,3667],[69.5,3750],[69.5,3833],[69.5,3915],[69.5,4000],[69.5,4083],[69.5,4167],[69.5,4249],[69.5,4333],[69.5,4417],[69.5,4499],[69.5,4583],[69.5,4667],[69.5,4749],[69.5,4833],[69.5,4915],[69.5,5000],[69.6,5083],[70.2,5165],[70.5,5250],[70.6,5333],[70.7,5417],[70.8,5500],[70.8,5583],[70.8,5665],[70.8,5750],[70.8,5833],[70.8,5915],[70.8,6000],[70.8,6083],[70.8,6165],[70.8,6250],[70.8,6333],[70.8,6415],[70.8,6500],[70.8,6583],[70.8,6665],[70.8,6750],[70.8,6833],[70.8,6915],[70.8,7000],[70.8,7084],[70.8,7165],[70.8,7250],[70.8,7333],[70.8,7415],[70.8,7500],[70.8,7583],[70.8,7667],[70.8,7750],[70.8,7833],[70.8,7917],[70.8,8000],[70.8,8083],[70.8,8167],[70.8,8250],[70.8,8333],[70.8,8417]]",1,0,402.857,404.941,70.41666667,2.066,"[{""rating"":70.41666666666666,""responseTime"":2.065999999999974}]",space,0.735,,404.941,All the time,100,404.942,,,[],,0,5,5,5,1,audio/Narrative7Situation5.wav,audio/Narrative8Situation5.wav,audio/Narrative5Situation5.wav,audio/Narrative6Situation5.wav,5,2,5,2,,,,,,,,,,,,,,,,,,,,,,,,,,,,,,,,,,,,,,,
,,,,,,60a48adfe091e410f4eaba34,2024-05-13_11h27.33.535,group3.1-3.2-social-tom,2023.2.2,Win32,58.82352941,65c5074098b851296ff0b7ed,664231517f18d23ce3bc9dda,,,,,,,,,,,,,,,,,,,,,,,,,,,,,404.942,1,audio/Narrative7Situation6.wav,407.957,,407.957,417.924,"[[999,0],[999,82],[999,166],[999,250],[999,334],[999,416],[999,500],[999,582],[999,665],[999,750],[999,834],[999,916],[999,1000],[999,1084],[999,1166],[999,1250],[999,1334],[999,1416],[999,1500],[999,1582],[999,1665],[999,1750],[999,1834],[999,1916],[999,2000],[999,2084],[999,2166],[999,2250],[999,2332],[999,2416],[999,2500],[999,2582],[999,2666],[999,2750],[999,2834],[999,2915],[999,3000],[999,3082],[999,3166],[999,3250],[999,3332],[999,3416],[999,3500],[999,3584],[999,3666],[999,3750],[999,3832],[999,3916],[999,4000],[999,4084],[999,4168],[999,4250],[999,4332],[999,4416],[999,4500],[999,4584],[999,4666],[999,4750],[999,4832],[999,4916],[999,5000],[999,5084],[999,5166],[999,5250],[999,5334],[999,5416],[999,5500],[999,5582],[999,5666],[999,5750],[999,5832],[999,5918],[999,6000],[999,6082],[999,6168],[999,6250],[999,6332],[999,6416],[999,6500],[999,6584],[999,6666],[999,6750],[999,6832],[999,6916],[999,7000],[999,7084],[999,7166],[999,7250],[999,7332],[999,7416],[999,7502],[999,7582],[999,7666],[999,7750],[999,7832],[999,7915],[999,8000],[999,8084],[66.6,8166],[69.8,8250],[72.7,8334],[74.4,8416],[74.5,8500],[74.5,8584],[74.5,8666],[74.5,8750],[74.5,8834],[74.5,8916],[74.5,9000],[74.5,9084],[74.9,9166],[75.8,9250],[79.6,9332],[80.9,9416],[81,9500],[81,9582],[81,9666],[81,9750],[81,9832],[81,9916]]",1,0,417.924,419.524,76.25,0.742,"[{""rating"":76.25,""responseTime"":0.7419999999999618}]",space,1.08,,419.524,Half the time,50,419.526,,,[],,0,6,6,6,1,audio/Narrative7Situation6.wav,audio/Narrative8Situation6.wav,audio/Narrative5Situation6.wav,audio/Narrative6Situation6.wav,3,2,3,2,,,,,,,,,,,,,,,,,,,,,,,,,,,,,,,,,,,,,,,
,,,,,,60a48adfe091e410f4eaba34,2024-05-13_11h27.33.535,group3.1-3.2-social-tom,2023.2.2,Win32,58.82352941,65c5074098b851296ff0b7ed,664231517f18d23ce3bc9dda,,,,,,,,,,,,,,,,,,,,,,,,,,,,,419.526,1,audio/Narrative7Situation7.wav,424.374,space,424.374,441.557,"[[76,1833],[76.4,1915],[76.5,2000],[76.5,2083],[76.5,2167],[76.5,2249],[76.5,2333],[76.5,2415],[76.5,2500],[76.5,2584],[76.5,2665],[76.5,2750],[76.5,2834],[76.5,2915],[76.5,3000],[77.1,3083],[80.7,3167],[81,3250],[81,3333],[81,3415],[81,3500],[81,3583],[81,3667],[81,3749],[81,3833],[81,3917],[81,3999],[81,4083],[81,4167],[81,4250],[81,4333],[81.1,4415],[82,4499],[83.5,4583],[84.5,4665],[84.5,4750],[84.6,4834],[84.6,4915],[84.6,4999],[84.6,5083],[84.6,5167],[84.6,5251],[85.8,5333],[87.5,5417],[87.5,5500],[87.5,5584],[87.5,5667],[87.4,5750],[87.3,5833],[87.3,5917],[87.3,6000],[87.3,6083],[87.3,6165],[87.3,6250],[87.3,6333],[87.3,6415],[87.3,6500],[87.3,6583],[87.3,6667],[87.3,6750],[87.3,6833],[87.3,6915],[87.3,7000],[87.3,7083],[87.3,7167],[87.3,7250],[87.3,7333],[87.3,7415],[87.3,7499],[87.3,7583],[87.3,7667],[87.3,7749],[87.3,7833],[87.3,7915],[87.4,7999],[87.4,8083],[87.5,8167],[88,8250],[89.6,8333],[90.6,8415],[90.8,8500],[90.9,8584],[90.9,8667],[90.9,8750],[90.9,8834],[90.9,8917],[90.4,9000],[90.4,9083],[90.4,9167],[90.4,9250],[90.4,9334],[90.4,9417],[90.4,9500],[90.4,9583],[90.2,9665],[89.9,9750],[89.4,9833],[88.5,9917],[88,10000],[87.5,10083],[87.5,10167],[87.5,10250],[87.5,10333],[87.5,10417],[87.5,10500],[87.5,10583],[87.5,10665],[87.5,10750],[87.5,10834],[87.5,10917],[87.5,11000],[87.5,11084],[87.5,11167],[87.8,11250],[88.2,11333],[88.2,11415],[88.2,11500],[88.2,11583],[87.9,11665],[86.6,11750],[86.5,11833],[86.5,11917],[87.1,12000],[88.3,12083],[88.3,12165],[88.3,12250],[88.3,12333],[87.8,12417],[87,12499],[87,12583],[87,12665],[87.1,12750],[88,12833],[88.3,12915],[88.3,13000],[88.3,13083],[88.2,13165],[87.9,13250],[87.6,13333],[87.2,13415],[87,13500],[86.7,13583],[86.6,13667],[87,13750],[88.2,13833],[88.3,13915],[88.3,13999],[88.3,14083],[88.3,14167],[87.9,14250],[87.5,14333],[87.1,14417],[87,14500],[87,14583],[87,14667],[87,14750],[87,14833],[87,14915],[87,15000],[87,15084],[87,15165],[87,15250],[87,15333],[87,15417],[87,15500],[87,15583],[87,15667],[87,15750],[87,15833],[87,15915],[87,16000],[87,16083],[87,16167],[87,16250],[87,16333],[87,16415],[87,16499],[87,16583],[87,16667],[87,16750],[87,16833],[87,16915],[87,17000],[87,17083],[87.4,17165]]",1,0,441.557,443.457,88.75,0.736,"[{""rating"":88.75,""responseTime"":0.7360000000000468}]",space,1.371,,443.457,Half the time,50,443.459,,,[],,0,7,7,7,1,audio/Narrative7Situation7.wav,audio/Narrative8Situation7.wav,audio/Narrative5Situation7.wav,audio/Narrative6Situation7.wav,5,3,4,5,4.833,,,,,,,,,,,,,,,,,,,,,,,,,,,,,,,,,,,,,,
,,,,,,60a48adfe091e410f4eaba34,2024-05-13_11h27.33.535,group3.1-3.2-social-tom,2023.2.2,Win32,58.82352941,65c5074098b851296ff0b7ed,664231517f18d23ce3bc9dda,,,,,,,,,,,,,,,,,,,,,,,,,,,,,443.459,1,audio/Narrative7Situation8.wav,445.473,,445.474,455.491,"[[999,0],[999,82],[999,166],[999,250],[999,332],[999,416],[999,500],[999,582],[999,666],[999,750],[999,832],[999,915],[999,1000],[999,1082],[75.6,1166],[76.3,1250],[76.3,1332],[76.3,1416],[76.8,1500],[77,1584],[77,1665],[77.1,1750],[77.9,1832],[78.3,1916],[78.5,2000],[78.5,2082],[78.5,2166],[78.5,2250],[78.5,2332],[79.9,2416],[81.7,2500],[81.7,2582],[81.7,2665],[81.7,2750],[81.7,2832],[81.7,2916],[81.7,3000],[81.7,3082],[81.7,3165],[81.7,3250],[81.7,3334],[81.7,3415],[81.7,3500],[81.7,3582],[81.7,3666],[81.7,3750],[81.7,3832],[81.7,3916],[81.7,4000],[81.7,4084],[81.8,4165],[82.5,4250],[84,4332],[84.9,4415],[86,4500],[87.2,4582],[89.2,4665],[89.4,4750],[89.4,4832],[89.4,4915],[89.4,5000],[89.4,5082],[89.4,5165],[89.4,5250],[89.4,5332],[89.4,5415],[89.4,5500],[89.4,5582],[89.4,5665],[89.4,5750],[89.4,5832],[89.4,5915],[89.4,6000],[89.4,6082],[89.4,6165],[89.4,6248],[89.4,6332],[89.4,6415],[89.4,6500],[89.4,6584],[89.4,6665],[89.4,6750],[89.4,6832],[89.4,6916],[89.4,7000],[89.4,7082],[89.4,7165],[89.4,7250],[89.4,7332],[89.4,7416],[89.4,7500],[89.4,7582],[89.4,7665],[89.4,7748],[89.4,7832],[89.4,7916],[89.4,7998],[89.4,8082],[89.4,8165],[89.4,8250],[89.4,8332],[89.4,8415],[89.4,8500],[89.4,8582],[89.4,8665],[89.4,8748],[89.4,8832],[89.4,8916],[89.4,9000],[89.4,9082],[89.4,9165],[89.4,9250],[89.4,9332],[89.4,9416],[89.4,9500],[89.4,9582],[89.4,9666],[89.4,9750],[89.4,9832],[89.4,9915],[89.4,10000]]",1,0,455.491,467.907,87.1875,1.864,"[{""rating"":87.1875,""responseTime"":1.863999999999976}]",space,11.873,,467.907,Half the time,50,467.913,,,[],,0,8,8,8,1,audio/Narrative7Situation8.wav,audio/Narrative8Situation8.wav,audio/Narrative5Situation8.wav,audio/Narrative6Situation8.wav,2,3,3,5,,,,,,,,,,,,,,,,,,,,,,,,,,,,,,,,,,,,,,,
,,,,,,60a48adfe091e410f4eaba34,2024-05-13_11h27.33.535,group3.1-3.2-social-tom,2023.2.2,Win32,58.82352941,65c5074098b851296ff0b7ed,664231517f18d23ce3bc9dda,,,,,,,,,,,,,,,,,,,,,,,,,,,,,467.913,1,audio/Narrative7Situation9.wav,469.924,,469.924,478.54,"[[87.1,2417],[85.2,2500],[84.6,2583],[84.6,2667],[84.9,2749],[85.4,2833],[85.9,2917],[85.9,2999],[85.9,3083],[85.9,3165],[85.9,3250],[85.9,3333],[85.9,3417],[85.9,3500],[85.9,3583],[85.9,3667],[85.9,3750],[85.9,3833],[85.9,3917],[85.9,4000],[85.9,4083],[85.9,4167],[85.9,4250],[85.9,4334],[85.9,4417],[85.9,4499],[85.9,4583],[85.9,4667],[85.8,4750],[84.5,4833],[82.5,4915],[81.8,5000],[80.9,5084],[80.4,5165],[80,5250],[79.6,5334],[79.1,5417],[78.9,5500],[79.2,5583],[80.4,5665],[80.5,5749],[80.5,5833],[80.5,5917],[80.5,6000],[80.5,6083],[80.1,6165],[80,6250],[80,6333],[80,6417],[79.6,6500],[79.1,6583],[79,6665],[79,6750],[79,6833],[79,6915],[79,6999],[79,7083],[79,7165],[79,7250],[79,7333],[79,7415],[79,7500],[79,7583],[79,7665],[78.5,7750],[78.2,7833],[78.2,7917],[78.2,8000],[78.2,8083],[78.2,8165],[78.2,8250],[78.2,8333],[78.2,8417],[78.2,8500],[78.2,8583]]",1,0,478.54,481.507,80.10416667,2.233,"[{""rating"":80.10416666666667,""responseTime"":2.233000000000004}]",space,2.441,,481.507,All the time,100,481.509,,,[],,0,9,9,9,1,audio/Narrative7Situation9.wav,audio/Narrative8Situation9.wav,audio/Narrative5Situation9.wav,audio/Narrative6Situation9.wav,2,3,3,4,,,,,,,,,,,,,,,,,,,,,,,,,,,,,,,,,,,,,,,
,,,,,,60a48adfe091e410f4eaba34,2024-05-13_11h27.33.535,group3.1-3.2-social-tom,2023.2.2,Win32,58.82352941,65c5074098b851296ff0b7ed,664231517f18d23ce3bc9dda,,,,,,,,,,,,,,,,,,,,,,,,,,,,,481.509,1,audio/Narrative8Situation1.wav,486.524,,486.524,502.457,"[[79.2,332],[78.4,415],[77.9,500],[77.3,582],[77.1,666],[75.9,750],[67.9,832],[64.6,916],[65.1,998],[66.7,1082],[66.8,1166],[66.8,1250],[63.9,1332],[59.1,1416],[55.8,1500],[54.4,1582],[53.9,1666],[52.6,1748],[52,1832],[51.9,1915],[51.5,2000],[51.3,2082],[51.3,2166],[51.3,2248],[51.3,2332],[51.3,2415],[51.3,2498],[51.3,2582],[51.3,2665],[51.3,2750],[51.3,2832],[51.3,2915],[51.3,2998],[51.3,3084],[51.3,3165],[51.3,3248],[51.3,3332],[51.3,3415],[51.3,3500],[51.3,3582],[51.3,3665],[51.3,3748],[51.3,3834],[51.3,3916],[51.3,3998],[51.3,4084],[51.3,4166],[51.3,4248],[51.3,4332],[51.3,4416],[51.3,4498],[51.3,4582],[51.3,4666],[51.3,4750],[51.3,4832],[51.3,4916],[51.3,5000],[51.3,5084],[51.3,5165],[51.3,5250],[51.3,5332],[51.3,5416],[51.3,5498],[51.3,5584],[51.3,5665],[51.3,5750],[51.3,5832],[51.3,5915],[51.3,5998],[51.3,6082],[51.3,6166],[51.3,6250],[51.3,6332],[51.3,6415],[51.3,6500],[51.3,6582],[51.3,6665],[51.3,6750],[51.3,6832],[51.3,6916],[51.3,7000],[51.3,7084],[51.3,7166],[51.3,7248],[51.3,7332],[51.3,7415],[51.3,7500],[51.3,7582],[51.3,7665],[51.3,7748],[51.3,7832],[51.3,7916],[51.3,7998],[51.3,8082],[51.3,8166],[51.3,8250],[51.3,8332],[51.3,8416],[51.3,8500],[51.3,8582],[51.3,8666],[51.3,8750],[51.3,8832],[51.3,8916],[51.3,9000],[51.3,9084],[51.3,9165],[51.3,9250],[51.3,9332],[51.3,9415],[51.3,9500],[51.3,9582],[51.3,9666],[51.3,9748],[51.3,9832],[51.3,9916],[51.3,9998],[51.3,10082],[51.3,10165],[51.3,10248],[51.3,10334],[51.3,10415],[51.3,10500],[51.3,10582],[51.3,10666],[51.3,10750],[51.3,10832],[51.3,10916],[51.3,10998],[51.3,11082],[51.3,11166],[51.3,11250],[51.3,11332],[51.3,11415],[51.3,11500],[51.3,11582],[51.3,11665],[51.3,11750],[51.3,11832],[51.3,11916],[51.3,12000],[51.3,12082],[51.3,12166],[51.3,12248],[51.3,12332],[51.4,12415],[52.2,12500],[52.2,12582],[52.2,12665],[52.2,12750],[51.5,12832],[50.9,12916],[50.9,13000],[50.9,13084],[50.9,13165],[52.8,13250],[55.8,13332],[56.1,13416],[56.1,13500],[56.1,13582],[56.1,13666],[56.1,13750],[56.6,13834],[57.9,13915],[59.5,14000],[60.6,14082],[60.7,14165],[60.8,14250],[61,14333],[61,14416],[61,14499],[61,14583],[61,14665],[61,14749],[61,14833],[61,14915],[61,14998],[61,15083],[62.2,15165],[63.1,15248],[63.5,15333],[63.6,15416],[63.6,15499],[63.6,15583],[63.6,15665],[63.6,15749],[63.6,15833],[61.8,15915]]",1,0,502.457,504.191,60.41666667,0.696,"[{""rating"":60.416666666666664,""responseTime"":0.6959999999999695}]",space,1.208,,504.191,All the time,100,504.192,,,[],,0,10,10,10,1,audio/Narrative8Situation1.wav,audio/Narrative7Situation1.wav,audio/Narrative6Situation1.wav,audio/Narrative5Situation1.wav,5,2,2,5,,,,,,,,,,,,,,,,,,,,,,,,,,,,,,,,,,,,,,,
,,,,,,60a48adfe091e410f4eaba34,2024-05-13_11h27.33.535,group3.1-3.2-social-tom,2023.2.2,Win32,58.82352941,65c5074098b851296ff0b7ed,664231517f18d23ce3bc9dda,,,,,,,,,,,,,,,,,,,,,,,,,,,,,504.192,1,audio/Narrative8Situation2.wav,507.208,,507.208,517.34,"[[60.3,498],[60.5,582],[60.5,665],[60.5,748],[60.6,831],[60.6,915],[60.6,998],[60.6,1081],[60.6,1165],[60.6,1248],[60.6,1332],[60.6,1415],[60.6,1498],[60.6,1582],[60.6,1665],[60.6,1748],[60.6,1831],[60.6,1914],[61.4,1998],[63,2081],[64.2,2165],[64.3,2248],[64.3,2331],[64.3,2415],[64.3,2498],[64.3,2582],[64.3,2665],[64.1,2748],[62.6,2831],[61.8,2915],[61.7,2998],[61.6,3082],[61.6,3165],[61.9,3248],[62.2,3332],[62.3,3415],[62.4,3498],[62.4,3581],[62.4,3665],[62.4,3748],[62.4,3831],[62.4,3915],[62.3,4000],[62.2,4082],[62.2,4165],[62.2,4248],[62.2,4331],[62.2,4415],[62.2,4498],[62.2,4581],[62.2,4665],[62.2,4748],[62.1,4832],[62.1,4915],[62.1,4998],[62.1,5081],[62.1,5165],[62.1,5248],[62.1,5331],[62.1,5415],[62.1,5500],[62.1,5582],[62.1,5664],[62.1,5748],[62.1,5832],[62.1,5915],[62.1,5998],[62.1,6081],[62.1,6165],[62.1,6248],[62.1,6332],[62.1,6415],[62.1,6498],[62.1,6581],[62.1,6665],[62.1,6748],[62.1,6832],[62.1,6915],[62.1,6998],[62.1,7082],[62.1,7164],[62.1,7248],[62.1,7331],[62.1,7414],[62.1,7498],[62.1,7581],[62.1,7665],[62.1,7748],[62.1,7831],[62.1,7914],[62.1,7998],[62.1,8082],[62.1,8165],[62.1,8250],[62.1,8332],[62.1,8414],[62.1,8498],[62.1,8582],[62.1,8665],[62.1,8750],[62.1,8832],[62.1,8915],[62.1,8998],[62.1,9082],[62.1,9165],[61.9,9248],[59.5,9331],[58.9,9415],[58.8,9498],[58.8,9581],[58.8,9665],[58.8,9748],[58.8,9832],[59.1,9915],[59.5,9998],[59.7,10081]]",1,0,517.34,519.507,52.70833333,1.595,"[{""rating"":52.708333333333336,""responseTime"":1.5950000000000273}]",space,1.634,,519.507,Half the time,50,519.509,,,[],,0,11,11,11,1,audio/Narrative8Situation2.wav,audio/Narrative7Situation2.wav,audio/Narrative6Situation2.wav,audio/Narrative5Situation2.wav,3,3,3,3,,,,,,,,,,,,,,,,,,,,,,,,,,,,,,,,,,,,,,,
,,,,,,60a48adfe091e410f4eaba34,2024-05-13_11h27.33.535,group3.1-3.2-social-tom,2023.2.2,Win32,58.82352941,65c5074098b851296ff0b7ed,664231517f18d23ce3bc9dda,,,,,,,,,,,,,,,,,,,,,,,,,,,,,519.509,1,audio/Narrative8Situation3.wav,523.524,,523.524,545.907,"[[52.9,250],[52.9,333],[52.9,417],[52.9,500],[52.9,583],[52.9,667],[52.9,750],[52.9,833],[52.9,917],[52.9,1000],[52.4,1083],[51,1166],[49.4,1249],[48.9,1333],[48.9,1417],[49.4,1499],[50,1583],[50.2,1666],[50.2,1750],[50.2,1833],[50.2,1916],[50.9,1999],[53.1,2083],[54.9,2166],[55,2250],[55,2333],[55,2416],[55,2500],[55,2583],[55,2666],[55,2750],[55,2833],[55.3,2916],[55.6,3000],[55.7,3084],[55.7,3167],[56.7,3249],[59,3333],[59.5,3416],[60.3,3500],[62.7,3583],[65.1,3666],[65.5,3750],[65.5,3833],[66.4,3916],[69.2,4000],[70.6,4083],[70.6,4166],[71.4,4250],[71.5,4333],[71.5,4416],[71.5,4499],[71.5,4583],[71.5,4666],[71.5,4750],[71.5,4833],[71.5,4916],[71.5,4999],[71.5,5083],[71.5,5167],[71.5,5250],[71.5,5333],[71.5,5417],[71.5,5500],[71.5,5583],[71.5,5667],[71.5,5750],[71.5,5833],[71.5,5917],[71.5,6000],[71.5,6084],[71.5,6167],[71.5,6250],[71.5,6333],[71.5,6416],[71.5,6500],[71.5,6583],[71.5,6666],[71.5,6749],[71.5,6833],[71.5,6916],[71.5,6999],[71.5,7083],[71.5,7167],[71.5,7249],[71.5,7334],[71.5,7417],[71.5,7500],[71.5,7584],[71.5,7666],[71.5,7750],[71.5,7833],[71.5,7917],[71.5,8000],[71.5,8083],[71.5,8166],[71.5,8250],[71.5,8333],[71.5,8416],[71.5,8499],[71.5,8583],[71.5,8666],[71.5,8749],[71.5,8833],[71.5,8916],[71.5,9000],[71.5,9083],[71.5,9166],[72.9,9250],[73.8,9333],[74.3,9416],[74.3,9499],[74.3,9583],[74.3,9666],[74.3,9749],[74.3,9833],[74.3,9916],[74.3,10000],[74.3,10083],[74.3,10166],[74.3,10249],[74.3,10333],[74.3,10416],[74.3,10500],[74.3,10583],[74.3,10666],[74.3,10750],[74.3,10833],[74.3,10916],[74.3,10999],[74.3,11084],[74.3,11166],[74.3,11249],[74.3,11333],[74.3,11417],[74.3,11500],[74.3,11583],[74.3,11667],[74.3,11749],[74.3,11833],[74.3,11917],[74.3,11999],[74.3,12083],[74.3,12167],[74.3,12249],[74.3,12333],[74.3,12416],[74.3,12501],[74.3,12583],[74.3,12666],[74.3,12749],[74.3,12834],[74.3,12916],[74.3,12999],[74.3,13083],[74.3,13166],[74.3,13250],[74.3,13333],[74.3,13417],[74.3,13500],[74.3,13583],[74.3,13666],[74.3,13750],[74.3,13833],[74.3,13916],[74.3,14000],[74.3,14083],[74.3,14166],[74.3,14250],[74.3,14333],[74.3,14417],[74.3,14500],[74.3,14583],[74.3,14667],[74.3,14750],[74.3,14833],[74.3,14916],[74.3,14999],[74.3,15083],[74.3,15166],[74.3,15250],[74.3,15333],[74.3,15417],[74.3,15500],[74.3,15583],[74.3,15666],[74.3,15749],[74.3,15834],[74.3,15916],[74.3,15999],[74.3,16084],[74.3,16167],[74.3,16249],[74.3,16334],[74.3,16417],[74.3,16499],[74.3,16583],[74.3,16666],[74.3,16749],[74.3,16833],[74.3,16917],[74.3,17000],[74.3,17083],[74.3,17167],[74.3,17249],[74.3,17331],[74.3,17416],[74.3,17499],[74.3,17583],[74.3,17666],[74.3,17749],[74.3,17833],[74.3,17916],[74.3,18000],[74.3,18083],[74.3,18166],[74.3,18249],[74.3,18333],[74.3,18416],[74.3,18499],[74.3,18583],[74.3,18666],[74.3,18750],[74.3,18833],[74.3,18916],[74.3,18999],[74.3,19083],[74.3,19166],[74.3,19250],[74.3,19333],[74.3,19417],[74.3,19499],[74.3,19583],[74.3,19666],[74.3,19750],[74.3,19833],[74.3,19916],[74.3,20000],[74.3,20083],[74.3,20167],[74.3,20249],[74.3,20333],[74.3,20416],[74.3,20499],[74.3,20583],[74.3,20667],[74.3,20750],[74.3,20833],[74.3,20917],[74.4,20999],[76,21083],[77.3,21166],[77.8,21250],[77.9,21333],[77.9,21416],[77.9,21500],[77.9,21583],[77.8,21667],[76.8,21750],[76,21831],[76,21916],[76,21999],[76,22083],[76,22166],[76,22250],[76,22333]]",1,0,545.907,547.857,75.3125,1.06,"[{""rating"":75.3125,""responseTime"":1.0599999999999454}]",space,1.422,,547.857,All the time,100,547.859,,,[],,0,12,12,12,1,audio/Narrative8Situation3.wav,audio/Narrative7Situation3.wav,audio/Narrative6Situation3.wav,audio/Narrative5Situation3.wav,4,8,5,3,,,,,,,,,,,,,,,,,,,,,,,,,,,,,,,,,,,,,,,
,,,,,,60a48adfe091e410f4eaba34,2024-05-13_11h27.33.535,group3.1-3.2-social-tom,2023.2.2,Win32,58.82352941,65c5074098b851296ff0b7ed,664231517f18d23ce3bc9dda,,,,,,,,,,,,,,,,,,,,,,,,,,,,,547.859,1,audio/Narrative8Situation4.wav,550.874,,550.874,565.041,"[[76.1,250],[76.9,332],[77.1,416],[77.2,500],[75.7,582],[73.9,666],[73.9,750],[73.9,832],[73.9,917],[73.9,1000],[73.9,1082],[73.9,1167],[73.9,1250],[73.9,1332],[73.9,1416],[73.9,1500],[73.9,1582],[73.9,1666],[73.9,1749],[73.9,1832],[73.9,1917],[73.9,1999],[73.9,2082],[73.9,2167],[73.9,2250],[73.9,2334],[73.9,2416],[73.9,2500],[73.9,2582],[73.9,2666],[73.9,2750],[73.9,2832],[73.9,2916],[73.9,3000],[73.9,3082],[73.9,3166],[73.9,3250],[73.9,3332],[73.9,3416],[73.9,3500],[73.9,3582],[73.9,3667],[73.9,3749],[73.9,3834],[73.9,3916],[73.9,3999],[73.9,4082],[73.9,4167],[73.9,4249],[73.9,4332],[73.9,4416],[73.9,4499],[73.9,4582],[73.9,4666],[73.9,4750],[73.9,4832],[73.9,4916],[75.8,5000],[79.5,5082],[79.7,5166],[79.7,5250],[79.7,5332],[79.7,5416],[79.7,5500],[79.5,5582],[79.2,5667],[79.2,5749],[79.2,5832],[79.2,5916],[79.2,6000],[79.2,6082],[79.5,6167],[80.2,6250],[81.7,6332],[82.7,6417],[83.3,6499],[84.3,6582],[84.7,6666],[84.7,6750],[84.7,6832],[84.7,6917],[84.9,7000],[84.9,7082],[84.9,7166],[84.9,7249],[84.8,7332],[84.6,7417],[84.6,7500],[84.6,7582],[84.5,7667],[84.5,7750],[84.4,7832],[84.4,7916],[84.2,7999],[84.1,8082],[84,8166],[84,8249],[84.1,8334],[84.6,8416],[84.7,8500],[84.7,8582],[84.4,8666],[83.6,8749],[83.1,8832],[82.4,8916],[82.1,9000],[82.1,9082],[82.2,9166],[82.5,9249],[82.8,9332],[83.1,9416],[83.6,9500],[84,9582],[84,9667],[84,9749],[83.5,9832],[83,9916],[82.5,9999],[82.3,10082],[82.3,10166],[82.3,10249],[82.3,10332],[82.5,10416],[82.7,10499],[83,10582],[83.2,10667],[83.3,10750],[83.3,10832],[83.3,10916],[83.3,11000],[83.3,11082],[83.3,11167],[83.3,11250],[83.3,11332],[83.2,11416],[83,11500],[82.8,11582],[82.8,11666],[82.8,11750],[82.8,11832],[82.8,11916],[82.8,12000],[82.8,12082],[82.8,12167],[82.8,12250],[82.8,12332],[82.8,12417],[82.8,12500],[82.8,12582],[82.8,12666],[82.8,12749],[82.8,12832],[82.8,12917],[82.8,13000],[82.8,13082],[82.8,13166],[82.8,13250],[82.8,13332],[82.7,13417],[82.7,13500],[82.6,13582],[82.6,13666],[82.6,13750],[84.4,13832],[84.7,13916],[84.7,14000],[84.7,14082],[82.7,14167]]",1,0,565.041,567.374,83.33333333,1.565,"[{""rating"":77.91666666666667,""responseTime"":0.8260000000000218},{""rating"":80.41666666666667,""responseTime"":1.125},{""rating"":83.33333333333333,""responseTime"":1.5649999999999409}]",space,1.813,,567.374,Half the time,50,567.376,,,[],,0,13,13,13,1,audio/Narrative8Situation4.wav,audio/Narrative7Situation4.wav,audio/Narrative6Situation4.wav,audio/Narrative5Situation4.wav,3,3,2,1,,,,,,,,,,,,,,,,,,,,,,,,,,,,,,,,,,,,,,,
,,,,,,60a48adfe091e410f4eaba34,2024-05-13_11h27.33.535,group3.1-3.2-social-tom,2023.2.2,Win32,58.82352941,65c5074098b851296ff0b7ed,664231517f18d23ce3bc9dda,,,,,,,,,,,,,,,,,,,,,,,,,,,,,567.376,1,audio/Narrative8Situation5.wav,569.39,,569.39,577.624,"[[82.4,1751],[81.4,1834],[81.4,1917],[81.4,2000],[81.4,2084],[81.4,2168],[81.4,2250],[81.4,2334],[81.4,2417],[81.4,2500],[81.6,2584],[81.6,2667],[81.5,2750],[81.3,2834],[81.3,2917],[81.3,3001],[81.3,3084],[81.3,3167],[81.3,3250],[81.3,3334],[81.3,3417],[81,3500],[80.8,3584],[80.7,3667],[80.7,3751],[80.7,3834],[80.7,3916],[80.7,4000],[80.7,4084],[80.7,4167],[80.7,4251],[80.7,4334],[80.7,4417],[80.7,4500],[80.7,4584],[79.8,4667],[79.7,4751],[79.7,4834],[79.7,4917],[79.7,5000],[79.7,5083],[79.7,5167],[79.4,5250],[78.6,5334],[78.6,5416],[78.5,5500],[77.7,5584],[76.7,5667],[76.6,5750],[76,5834],[75.5,5917],[75.4,6000],[78.6,6084],[80.7,6167],[80.7,6251],[80.7,6334],[80.2,6417],[79.1,6500],[78.5,6584],[78.2,6667],[78.1,6750],[78.1,6834],[78.3,6917],[78.5,7001],[78.5,7084],[78.5,7167],[78.5,7251],[78.5,7333],[78.5,7417],[78.5,7500],[78.5,7583],[78.5,7667],[78.2,7751],[77.9,7834],[77.5,7917],[77,8001],[76.5,8084],[75.8,8167]]",1,0,577.624,579.057,73.95833333,0.662,"[{""rating"":73.95833333333334,""responseTime"":0.6620000000000346}]",space,0.908,,579.057,Not at all,0,579.059,,,[],,0,14,14,14,1,audio/Narrative8Situation5.wav,audio/Narrative7Situation5.wav,audio/Narrative6Situation5.wav,audio/Narrative5Situation5.wav,2,5,2,5,,,,,,,,,,,,,,,,,,,,,,,,,,,,,,,,,,,,,,,
,,,,,,60a48adfe091e410f4eaba34,2024-05-13_11h27.33.535,group3.1-3.2-social-tom,2023.2.2,Win32,58.82352941,65c5074098b851296ff0b7ed,664231517f18d23ce3bc9dda,,,,,,,,,,,,,,,,,,,,,,,,,,,,,579.059,1,audio/Narrative8Situation6.wav,581.074,,581.074,587.558,"[[73,165],[73,250],[73,332],[73,415],[73,499],[73.2,582],[73.4,665],[74,749],[74.3,832],[74.3,915],[74.3,1000],[74.3,1082],[74.3,1165],[74.3,1250],[74.3,1332],[74.3,1416],[74.3,1499],[74.3,1581],[74.3,1665],[74.3,1750],[74.3,1832],[74.3,1916],[74.3,1999],[74.3,2082],[74.3,2165],[74.3,2249],[74.3,2332],[74.3,2415],[74.3,2500],[74.3,2583],[74.3,2665],[74.3,2750],[74.3,2832],[74.3,2916],[74.3,3000],[74.3,3082],[74.3,3166],[74.3,3249],[74.3,3332],[74.3,3416],[74.3,3499],[74.3,3582],[74.3,3666],[74.3,3750],[74.3,3833],[74.3,3916],[74.3,4000],[74.3,4082],[74.3,4166],[74.3,4250],[74.3,4332],[74.3,4416],[74.3,4500],[74.3,4582],[74.3,4666],[74.3,4750],[74.3,4832],[74.3,4916],[74.3,5000],[74.3,5082],[74.3,5166],[74.3,5250],[74.3,5332],[74.3,5415],[74.3,5499],[74.3,5582],[74.3,5665],[74,5750],[73.3,5832],[72.9,5915],[72.7,5999],[72.6,6082],[72.6,6166],[72.6,6250],[72.8,6332],[72.9,6415]]",1,0,587.558,588.607,72.91666667,0.373,"[{""rating"":72.91666666666666,""responseTime"":0.3730000000000473}]",space,0.502,,588.607,Not at all,0,588.608,,,[],,0,15,15,15,1,audio/Narrative8Situation6.wav,audio/Narrative7Situation6.wav,audio/Narrative6Situation6.wav,audio/Narrative5Situation6.wav,2,3,2,3,,,,,,,,,,,,,,,,,,,,,,,,,,,,,,,,,,,,,,,
,,,,,,60a48adfe091e410f4eaba34,2024-05-13_11h27.33.535,group3.1-3.2-social-tom,2023.2.2,Win32,58.82352941,65c5074098b851296ff0b7ed,664231517f18d23ce3bc9dda,,,,,,,,,,,,,,,,,,,,,,,,,,,,,588.608,1,audio/Narrative8Situation7.wav,591.624,,591.624,603.708,"[[73,332],[73,416],[73,499],[73,582],[73,666],[73.4,749],[73.4,832],[73.4,916],[73.4,1000],[73.4,1082],[73.4,1167],[73.4,1250],[73.4,1332],[73.4,1416],[73.4,1499],[73.4,1582],[73.4,1667],[73.4,1750],[73.4,1832],[73.4,1916],[73.4,1999],[73.4,2082],[73.4,2166],[73.4,2249],[73.4,2331],[73.4,2416],[73.4,2499],[73.4,2582],[73.4,2666],[73.4,2749],[73.4,2832],[73.4,2916],[73.4,3000],[73.4,3082],[73.4,3166],[73.4,3250],[73.4,3332],[73.4,3416],[73.4,3499],[73.4,3582],[73.4,3666],[73.4,3750],[73.4,3832],[73.4,3916],[73.4,4000],[73.4,4084],[73.4,4167],[73.4,4249],[73.4,4332],[73.4,4416],[73.4,4500],[73.4,4582],[73.4,4666],[73.4,4750],[73.4,4832],[73.4,4916],[73.4,5000],[73.4,5082],[73.4,5166],[73.4,5250],[73.4,5332],[73.4,5416],[73.4,5499],[73.4,5582],[73.4,5666],[73.4,5750],[73.4,5832],[73.8,5916],[74.2,6000],[74.6,6082],[74.8,6166],[74.5,6250],[72.6,6332],[71.3,6416],[70.7,6500],[70.1,6582],[69.1,6667],[67.8,6749],[67,6832],[67,6917],[67,6999],[67.4,7082],[67.8,7167],[67.8,7250],[67.8,7332],[67.8,7416],[67.8,7499],[67.8,7582],[67.8,7666],[67.8,7750],[67.8,7832],[67.8,7916],[67.8,7999],[67.8,8082],[67.8,8167],[67.8,8249],[67.8,8332],[67.8,8417],[67.8,8500],[67.8,8582],[67.8,8666],[67.8,8750],[67.8,8832],[67.8,8916],[67.8,9000],[67.8,9082],[67.8,9166],[67.8,9250],[67.8,9332],[67.8,9416],[67.8,9500],[67.8,9582],[67.8,9666],[67.8,9750],[67.8,9832],[67.8,9916],[67.8,9999],[67.8,10084],[67.8,10166],[67.8,10249],[67.8,10332],[67.8,10417],[67.8,10500],[67.8,10582],[67.8,10666],[67.8,10749],[67.8,10832],[67.8,10917],[67.8,11000],[67.8,11082],[67.8,11167],[67.8,11249],[67.8,11332],[67.8,11416],[67.8,11499],[67.8,11582],[67.8,11667],[67.1,11749],[65.8,11832],[65.6,11917],[65.5,12000],[65.5,12084]]",1,0,603.708,605.291,71.35416667,0.931,"[{""rating"":65.3125,""responseTime"":0.5469999999999118},{""rating"":71.35416666666666,""responseTime"":0.9309999999999263}]",space,1.038,,605.291,Not at all,0,605.292,,,[],,0,16,16,16,1,audio/Narrative8Situation7.wav,audio/Narrative7Situation7.wav,audio/Narrative6Situation7.wav,audio/Narrative5Situation7.wav,3,5,5,4,,,,,,,,,,,,,,,,,,,,,,,,,,,,,,,,,,,,,,,
,,,,,,60a48adfe091e410f4eaba34,2024-05-13_11h27.33.535,group3.1-3.2-social-tom,2023.2.2,Win32,58.82352941,65c5074098b851296ff0b7ed,664231517f18d23ce3bc9dda,,,,,,,,,,,,,,,,,,,,,,,,,,,,,605.292,1,audio/Narrative8Situation8.wav,608.307,,608.307,621.157,"[[71.4,1082],[71.4,1167],[71.4,1250],[71.4,1332],[71.4,1417],[71.4,1500],[71.4,1582],[71.4,1666],[71.4,1750],[71.4,1832],[71.4,1916],[71.4,1999],[71.4,2084],[71.4,2167],[71.4,2250],[71.4,2332],[71.4,2417],[71.4,2500],[71.4,2582],[71.4,2667],[71.4,2750],[71.4,2834],[71.4,2917],[71.4,3000],[71.4,3082],[71.4,3167],[71.4,3250],[71.4,3332],[71.4,3417],[71.4,3500],[71.4,3584],[71.4,3667],[71.4,3750],[71.4,3834],[71.4,3916],[71.4,4000],[71.4,4084],[71.4,4167],[71.4,4250],[71.4,4332],[71.4,4417],[71.4,4500],[71.4,4582],[71.4,4667],[71.4,4750],[71.4,4832],[71.4,4916],[71.4,5000],[71.4,5082],[71.4,5167],[71.4,5250],[71.4,5332],[71.4,5417],[71.4,5500],[71.4,5584],[71.4,5667],[71.4,5750],[71.4,5832],[71.4,5916],[71.4,6000],[71.4,6082],[71.4,6167],[71.4,6250],[71.4,6332],[71.4,6417],[71.4,6500],[71.4,6582],[71.4,6666],[71.4,6750],[71.4,6832],[71.4,6916],[71.4,7000],[71.4,7082],[71.4,7166],[71.4,7250],[71.4,7334],[71.4,7416],[71.4,7500],[71.4,7582],[71.4,7666],[71.4,7750],[71.4,7832],[71.4,7917],[71.4,8000],[71.4,8082],[71.4,8167],[71.4,8250],[71.4,8332],[71.4,8417],[71.4,8500],[71.4,8582],[71.4,8667],[71.4,8750],[71.4,8832],[71.4,8917],[71.4,9000],[71.4,9084],[71.4,9166],[71.4,9250],[71.4,9334],[71.4,9417],[71.4,9500],[71.4,9584],[71.4,9667],[71.4,9749],[71.4,9834],[71.4,9917],[71.4,10000],[71.4,10082],[71.4,10167],[71.4,10250],[71.4,10332],[71.4,10417],[71.4,10500],[71.4,10584],[71.4,10666],[71.4,10750],[71.4,10832],[71.4,10917],[71.4,11000],[71.4,11082],[71.4,11167],[71.4,11250],[71.4,11334],[71.4,11416],[71.4,11500],[71.4,11584],[71.4,11667],[71.4,11750],[71.4,11832],[71.4,11917],[71.4,12000],[71.4,12084],[71.4,12167],[71.4,12250],[71.4,12334],[71.4,12417],[71.4,12500],[71.4,12584],[71.3,12666],[70.7,12750],[70.6,12832]]",1,0,621.157,625.807,77.1875,1.085,"[{""rating"":77.1875,""responseTime"":1.0850000000000364}]",space,4.124,,625.807,All the time,100,625.813,,,[],,0,17,17,17,1,audio/Narrative8Situation8.wav,audio/Narrative7Situation8.wav,audio/Narrative6Situation8.wav,audio/Narrative5Situation8.wav,3,2,5,3,,,,,,,,,,,,,,,,,,,,,,,,,,,,,,,,,,,,,,,
,,,,,,60a48adfe091e410f4eaba34,2024-05-13_11h27.33.535,group3.1-3.2-social-tom,2023.2.2,Win32,58.82352941,65c5074098b851296ff0b7ed,664231517f18d23ce3bc9dda,,,,,,,,,,,,,,,,,,,,,,,,,,,,,625.813,1,audio/Narrative8Situation9.wav,628.824,,628.824,640.14,"[[999,0],[999,82],[999,165],[999,250],[999,332],[999,416],[999,500],[999,582],[63.9,665],[64.2,750],[64.2,832],[64.2,915],[64.2,999],[64.2,1082],[64.2,1166],[64.2,1249],[64.2,1332],[64.2,1415],[64.2,1500],[64.2,1582],[64.2,1665],[64.2,1750],[64.2,1832],[64.2,1915],[64.2,2000],[64.2,2082],[64.2,2165],[64.2,2250],[64.3,2332],[65.4,2415],[67.9,2499],[77.9,2582],[76.8,2832],[75.9,2916],[75.8,3000],[75.8,3082],[75.8,3165],[75.6,3250],[75.4,3332],[75.2,3415],[75.1,3500],[74.9,3582],[74.8,3665],[74.7,3750],[74.7,3832],[74.7,3916],[74.6,4000],[74.6,4082],[74.6,4166],[74.6,4249],[74.6,4332],[74.6,4416],[74.6,4500],[74.6,4582],[74.6,4666],[74.6,4749],[74.6,4832],[74.6,4916],[74.6,5000],[74.6,5082],[74.6,5165],[74.6,5250],[74.6,5331],[74.6,5415],[74.6,5500],[74.6,5582],[74.6,5665],[74.6,5750],[74.6,5832],[74.6,5915],[74.6,5999],[74.6,6082],[74.6,6165],[74.6,6249],[74.6,6332],[74.6,6415],[74.6,6499],[74.7,6582],[75.2,6666],[75.4,6750],[75.4,6832],[75.4,6916],[75.4,6999],[76.1,7082],[77,7165],[77.3,7250],[77.7,7332],[78.1,7416],[78.1,7500],[78.1,7582],[78.1,7665],[78.1,7749],[78.1,7832],[78.1,7915],[78.1,7999],[78.1,8082],[78.1,8165],[78.1,8250],[78.1,8332],[78,8416],[77.8,8500],[77.8,8582],[77.8,8666],[77.8,8749],[77.7,8832],[77.3,8915],[77.2,8999],[77.1,9082],[77.1,9165],[77.1,9250],[77.1,9332],[76.8,9416],[76.8,9500],[77.8,9582],[79.4,9665],[80.3,9750],[80.8,9832],[80.8,9915],[80.8,9999],[80.8,10082],[80.5,10165],[80.1,10250],[80.1,10332],[80.1,10415],[80.1,10500],[80.1,10582],[80.1,10665],[80.1,10750],[80.1,10832],[80.1,10916],[79.7,11000],[79.1,11082],[78.6,11165],[78.4,11250]]",1,0,640.141,641.323,77.70833333,0.568,"[{""rating"":77.70833333333333,""responseTime"":0.5679999999999836}]",space,0.644,,641.323,Half the time,50,646.424,50.20833333,3.622,"[{""rating"":50.208333333333336,""responseTime"":3.6219999999999573}]",space,0,18,18,18,1,audio/Narrative8Situation9.wav,audio/Narrative7Situation9.wav,audio/Narrative6Situation9.wav,audio/Narrative5Situation9.wav,3,2,4,3,,,4.58,,,,,,,,,,,,,,,,,,,,,,,,,,,,,,,,,,,,
,,,,,,60a48adfe091e410f4eaba34,2024-05-13_11h27.33.535,group3.1-3.2-social-tom,2023.2.2,Win32,58.82352941,65c5074098b851296ff0b7ed,664231517f18d23ce3bc9dda,,,,,,,,,,,,,,,,,,,,,,,,,,,665.645,668.224,668.229,2,audio/Narrative13Situation2.wav,668.229,,668.229,697.973,"[[52,910],[49.6,1244],[49.4,1327],[49.1,1410],[49.1,1495],[49.1,1576],[48.3,1660],[44.5,1744],[44,1827],[44,1912],[45.3,1994],[49.6,2077],[49.9,2160],[49.9,2245],[49.9,2327],[49.9,2412],[49.8,3662],[49.8,3745],[49.8,3827],[49.8,3912],[49.8,3995],[49.8,4077],[48.8,4162],[48.8,4245],[48.8,4328],[48.8,4410],[48.9,4494],[49.3,4577],[49.3,4662],[49.3,4744],[49.3,4827],[49.3,4910],[49.3,4995],[49.3,5077],[49.3,5160],[49.3,5245],[49.3,5327],[49.3,5410],[49.3,5494],[49.3,5578],[49.3,5662],[49.3,5745],[49.3,5826],[49.3,5910],[49.3,5995],[49.3,6077],[49.3,6162],[49.3,6245],[49.3,6327],[49.3,6410],[49.3,6495],[49.3,6577],[49.3,6662],[49.3,6744],[49.3,6827],[49.3,6910],[49.3,6995],[49.3,7077],[49.3,7162],[49.3,7244],[49.3,7327],[49.3,7410],[49.3,7495],[49.3,7577],[49.3,7660],[49.3,7745],[49.3,7827],[49.3,7910],[49.3,7994],[49.3,8077],[49.3,8160],[49.3,8245],[49.3,8327],[48.6,8410],[47.3,8494],[47.2,8577],[47.4,8660],[48.6,8745],[49.1,8827],[49.3,8910],[49.3,8995],[49.3,9077],[49.3,9160],[49.3,9245],[49.7,9327],[51.7,9410],[53.5,9494],[54.3,9576],[54.3,9660],[53.6,9744],[52,9827],[51.6,9910],[51.4,9995],[51.3,10077],[51.3,10162],[51.1,10244],[51.1,10327],[51.1,10410],[51.1,10495],[51.1,10577],[51.1,10660],[51.1,10744],[51.4,10827],[51.8,10910],[52,10995],[52.3,11077],[52.7,11160],[53.1,11245],[53.1,11328],[53.1,11410],[53.1,11494],[53.1,11576],[53.1,11660],[53.1,11745],[52.6,11827],[52.1,11910],[51.7,11995],[51.5,12077],[51.5,12160],[51.5,12244],[51.5,12327],[51.8,12410],[52.5,12495],[53.2,12577],[53.8,12662],[53.8,12745],[52.9,12827],[52.4,12910],[52.1,12995],[51.6,13077],[51.6,13162],[51.6,13245],[53,13327],[54.9,13410],[55.2,13494],[55.3,13577],[55.4,13660],[55.4,13745],[55.6,13827],[55.9,13910],[55.9,13995],[55.9,14077],[55.9,14162],[55.9,14244],[55.9,14328],[55.9,14412],[55.9,14494],[55.9,14577],[55.9,14662],[55.9,14745],[55.9,14827],[55.9,14910],[55.9,14994],[56.1,15077],[56.1,15160],[56.1,15245],[56.1,15327],[56.1,15412],[56.1,15494],[56.1,15577],[56.1,15660],[56.1,15744],[56.1,15827],[56.1,15910],[56.1,15994],[56.1,16076],[56.1,16160],[56.1,16245],[56.1,16327],[56.1,16410],[56.3,16495],[56.4,16577],[56.5,16660],[56.7,16745],[56.8,16827],[56.9,16910],[57,16994],[57.1,17077],[57.1,17162],[57.1,17245],[57.1,17327],[57.1,17410],[57.1,17495],[57.1,17577],[57.1,17660],[57.1,17745],[57.1,17827],[57.2,17910],[57.2,17995],[57.3,18077],[57.3,18160],[57.4,18244],[57.5,18327],[57.5,18410],[57.5,18494],[57.6,18578],[57.7,18660],[57.8,18745],[57.8,18827],[57.9,18910],[58,18995],[58.1,19077],[58.1,19162],[58.1,19244],[58.1,19327],[58.1,19410],[58.1,19494],[58.1,19577],[58.1,19660],[58.1,19745],[58.1,19827],[58.1,19910],[58.1,19994],[58.1,20077],[58.2,20160],[58.3,20244],[58.5,20327],[58.6,20410],[58.8,20495],[59,20577],[59,20662],[59.1,20745],[59.1,20827],[59.1,20910],[59.1,20994],[59.1,21077],[59.1,21160],[59.1,21244],[59.1,21327],[59.1,21412],[59.1,21495],[59.1,21577],[59.1,21662],[59.1,21745],[59.3,21827],[59.5,21910],[59.6,21995],[59.7,22077],[59.7,22162],[59.7,22244],[59.7,22327],[59.7,22410],[59.7,22494],[59.7,22577],[59.7,22662],[59.7,22745],[59.7,22827],[59.7,22910],[59.7,22994],[59.7,23077],[59.7,23162],[59.7,23245],[59.7,23327],[59.7,23410],[59.7,23494],[59.7,23580],[59.7,23660],[59.7,23744],[59.7,23827],[59.8,23910],[59.9,23994],[60,24077],[60,24160],[60.1,24245],[60.1,24327],[60.1,24410],[60.1,24495],[60.1,24577],[60.1,24660],[60.1,24745],[60.1,24827],[60.1,24910],[60.1,24995],[60.1,25077],[60.1,25160],[60.1,25245],[60.1,25327],[60.1,25410],[60.1,25494],[60.1,25577],[60.1,25662],[60.1,25745],[60.1,25827],[60.2,25910],[60.3,25995],[60.4,26077],[60.5,26162],[60.5,26244],[60.5,26327],[60.5,26410],[60.5,26494],[60.5,26577],[60.5,26660],[60.5,26745],[60.5,26827],[60.5,26910],[60.5,26995],[60.5,27077],[60.5,27162],[60.5,27244],[60.5,27327],[60.5,27410],[60.5,27495],[60.5,27577],[60.5,27662],[60.6,27745],[60.8,27827],[60.9,27910],[61.1,27995],[61.3,28077],[61.3,28160],[61.3,28245],[61.3,28327],[61.3,28410],[61.3,28494],[61.3,28577],[61.3,28660],[61.3,28745],[61.3,28827],[61.3,28912],[61.3,28995],[61.3,29077],[61.3,29160],[61.3,29245],[61.3,29327],[61.3,29412],[61.3,29495],[61.3,29577],[61.3,29660],[61.3,29744]]",1,0,697.973,697.974,,,[],,,,697.974,Not at all,0,697.976,,,[],,0,0,0,0,1,audio/Narrative13Situation2.wav,audio/Narrative13Situation2.wav,audio/Narrative13Situation2.wav,audio/Narrative13Situation2.wav,2,2,2,2,,,,,646.424,665.64,space,18.697,,,,,,,,,,,,,,,,,,,,,,,,,,,,,,,
,,,,,,60a48adfe091e410f4eaba34,2024-05-13_11h27.33.535,group3.1-3.2-social-tom,2023.2.2,Win32,58.82352941,65c5074098b851296ff0b7ed,664231517f18d23ce3bc9dda,,,,,,,,,,,,,,,,,,,,,,,,,,,,,697.976,2,audio/Narrative5Situation1.wav,702.991,,702.991,716.291,"[[62.7,1999],[64.1,2083],[65.4,2166],[65.5,2249],[63.9,2333],[56,2416],[54.6,2499],[53.6,2582],[52.5,2666],[49.7,2749],[49.7,2833],[49.7,2916],[49.7,2999],[49.7,3083],[49.7,3166],[49.7,3249],[49.7,3333],[49.7,3416],[49.7,3500],[49.7,3582],[49.7,3665],[49.7,3749],[49.7,3832],[49.7,3916],[49.7,3999],[49.7,4082],[49.7,4166],[49.7,4250],[49.7,4333],[49.7,4415],[49.7,4499],[49.7,4583],[49.7,4666],[49.7,4749],[49.7,4833],[49.7,4916],[49.7,4999],[49.7,5083],[49.7,5166],[49.7,5249],[49.7,5332],[49.7,5416],[49.7,5500],[49.7,5582],[49.7,5665],[49.7,5750],[49.7,5833],[49.7,5916],[49.7,5999],[49.7,6083],[49.7,6166],[49.7,6250],[49.7,6332],[49.7,6416],[49.7,6499],[49.7,6583],[49.7,6666],[49.7,6750],[49.7,6832],[49.7,6916],[49.7,7000],[49.7,7083],[49.7,7166],[49.7,7250],[49.7,7333],[49.7,7416],[49.7,7499],[49.7,7583],[49.7,7666],[49.7,7749],[49.7,7832],[49.7,7916],[49.7,7999],[49.7,8082],[49.7,8166],[49.7,8250],[49.7,8333],[49.7,8416],[49.7,8500],[49.7,8582],[49.7,8666],[49.7,8750],[49.7,8833],[49.7,8916],[49.7,8999],[49.7,9083],[49.7,9166],[49.7,9249],[49.7,9333],[49.7,9416],[49.7,9500],[49.7,9583],[49.7,9666],[49.7,9750],[49.7,9832],[49.7,9916],[49.7,9999],[49.7,10083],[49.7,10166],[49.7,10249],[49.7,10333],[49.7,10415],[49.7,10499],[49.7,10583],[49.7,10666],[49.7,10749],[49.7,10833],[49.7,10915],[49.7,11000],[49.7,11082],[49.7,11166],[49.7,11249],[49.7,11332],[49.7,11416],[49.7,11499],[49.7,11583],[49.7,11666],[49.7,11749],[49.7,11832],[49.7,11916],[49.7,12000],[49.7,12083],[49.7,12166],[49.7,12249],[49.7,12333],[49.7,12416],[49.7,12499],[49.7,12583],[49.7,12666],[49.7,12749],[49.7,12833],[49.7,12916],[49.7,12999],[49.7,13083],[49.7,13166],[49.7,13250]]",1,0,716.291,720.957,50.20833333,0.798,"[{""rating"":50.208333333333336,""responseTime"":0.7980000000000018}]",space,4.126,,720.957,All the time,100,720.962,,,[],,0,1,1,1,1,audio/Narrative7Situation1.wav,audio/Narrative8Situation1.wav,audio/Narrative5Situation1.wav,audio/Narrative6Situation1.wav,2,5,5,2,,,,,,,,,,,,,,,,,,,,,,,,,,,,,,,,,,,,,,,
,,,,,,60a48adfe091e410f4eaba34,2024-05-13_11h27.33.535,group3.1-3.2-social-tom,2023.2.2,Win32,58.82352941,65c5074098b851296ff0b7ed,664231517f18d23ce3bc9dda,,,,,,,,,,,,,,,,,,,,,,,,,,,,,720.962,2,audio/Narrative5Situation2.wav,723.974,,723.974,753.44,"[[47.7,582],[48,665],[48.1,749],[48.8,832],[50.1,915],[51.6,999],[51.6,1081],[51.3,1165],[50.3,1250],[50,1332],[50,1415],[50,1500],[50,1582],[50,1665],[50,1750],[50,1832],[50,1915],[50,2000],[50,2082],[50,2165],[50,2249],[50,2331],[50,2415],[50,2500],[50,2582],[50,2665],[50,2750],[50,2831],[50,2917],[50,3000],[50,3082],[50,3165],[50,3249],[50,3332],[50,3417],[50,3499],[50,3581],[50,3665],[50,3750],[50,3831],[50,3915],[50,4000],[50,4082],[50,4165],[50,4249],[50,4332],[50,4417],[50,4500],[50,4582],[50,4665],[50,4749],[50,4831],[50,4917],[50,5000],[50,5082],[50,5165],[50,5249],[50,5332],[50,5417],[50,5500],[50,5582],[50,5665],[50,5750],[50,5831],[50,5915],[50,6000],[50,6082],[50,6165],[50,6250],[50,6332],[50,6415],[50,6500],[50,6582],[50,6667],[50,6750],[50,6832],[50,6917],[50,7000],[50,7082],[50,7165],[50,7249],[50,7332],[50,7417],[50,7500],[50,7582],[50,7665],[50,7750],[50,7832],[50,7915],[50,8000],[50,8082],[50,8167],[50,8250],[50,8331],[50,8415],[50,8500],[50,8582],[50.7,8665],[54,8750],[55.4,8832],[55.9,8915],[58.9,8999],[59.2,9082],[59.2,9165],[59.2,9250],[59.2,9332],[59.2,9415],[59.2,9499],[59.2,9582],[59.2,9667],[59.2,9750],[59.2,9832],[59.2,9915],[59.2,9999],[59.2,10081],[59.2,10165],[59.2,10250],[58.9,10332],[58.8,10415],[58.8,10500],[58.8,10582],[58.8,10665],[58.8,10750],[58.8,10833],[58.8,10915],[58.6,10999],[58.6,11082],[58.6,11165],[58.6,11250],[58.6,11332],[58.6,11415],[58.6,11500],[58.6,11582],[58.6,11667],[58.6,11750],[58.6,11832],[58.6,11915],[58.6,11999],[58.6,12081],[58.6,12165],[58.6,12250],[58.6,12331],[58.6,12415],[58.6,12500],[58.6,12582],[58.6,12667],[58.6,12750],[58.6,12832],[58.6,12915],[58.6,13000],[58.6,13082],[58.6,13165],[58.6,13250],[58.6,13332],[58.6,13415],[58.6,13500],[58.6,13581],[58.6,13665],[58.6,13750],[58.6,13832],[58.6,13915],[58.6,14000],[58.6,14082],[58.6,14165],[58.4,14250],[58.1,14332],[57.9,14415],[57.9,14499],[57.9,14582],[57.7,14667],[57.7,14750],[57.7,14832],[57.7,14915],[57.7,15000],[57.7,15082],[57.7,15165],[57.7,15249],[57.7,15332],[57.7,15415],[57.7,15500],[57.7,15582],[57.7,15665],[57.7,15750],[57.7,15832],[57.7,15915],[57.7,16000],[57.7,16082],[57.7,16165],[57.7,16250],[57.7,16332],[57.7,16415],[57.7,16499],[57.7,16582],[57.7,16665],[57.7,16749],[57.7,16832],[57.7,16915],[57.7,17000],[57.7,17082],[57.7,17165],[57.7,17250],[57.7,17332],[57.7,17415],[57.7,17499],[57.7,17582],[57.7,17665],[57.7,17749],[57.7,17831],[57.7,17915],[57.7,18000],[57.7,18082],[57.7,18167],[57.7,18249],[57.7,18333],[57.7,18417],[57.7,18500],[57.7,18581],[57.7,18665],[57.7,18750],[57.7,18832],[57.7,18915],[57.7,19000],[57.7,19082],[57.7,19165],[57.7,19250],[57.7,19332],[57.7,19417],[57.7,19500],[57.7,19581],[57.7,19665],[57.7,19750],[57.7,19832],[57.7,19917],[57.7,20000],[57.7,20081],[57.7,20165],[57.7,20250],[57.7,20332],[57.7,20415],[57.7,20500],[57.7,20581],[57.7,20665],[57.7,20749],[57.7,20831],[57.7,20915],[57.7,21000],[57.7,21082],[57.7,21165],[57.7,21249],[57.7,21332],[57.7,21417],[57.7,21499],[57.7,21582],[57.7,21665],[57.7,21750],[57.7,21832],[57.7,21915],[57.7,21999],[57.7,22081],[57.7,22167],[57.7,22249],[57.7,22332],[57.7,22415],[57.7,22499],[57.7,22582],[57.7,22665],[57.8,22749],[58.2,22832],[59.5,22915],[60.6,23000],[63.3,23082],[63.3,23165],[63.3,23250],[63.3,23332],[63.3,23415],[63.3,23499],[63.3,23582],[63.3,23665],[64.3,23750],[65.3,23832],[65.5,23915],[65.5,24000],[65.5,24082],[65.5,24167],[65.5,24250],[65.5,24331],[65.5,24415],[65.5,24500],[65.5,24581],[65.5,24665],[65.5,24749],[65.9,24831],[66.1,24915],[66.5,24999],[66.7,25081],[66.9,25165],[67,25250],[67,25332],[67,25415],[67,25499],[67,25582],[67,25665],[67,25750],[67,25832],[67,25915],[67,26000],[67,26082],[67,26167],[67,26250],[67,26332],[67,26415],[67,26499],[67,26582],[67,26665],[67,26750],[67,26832],[67,26915],[67,27000],[67,27082],[67,27165],[67,27249],[67,27331],[67,27415],[67,27500],[67,27581],[67,27665],[67,27750],[67,27832],[67,27915],[67,27999],[67,28082],[67,28165],[67,28250],[67,28332],[67,28417],[67,28499],[67,28582],[67,28665],[67,28749],[67,28833],[67,28915],[67,29000],[67,29082],[67,29165],[67,29250],[67,29332],[67,29417]]",1,0,753.44,758.44,70.625,3.467,"[{""rating"":70.625,""responseTime"":3.4669999999999845}]",space,4.474,,758.44,Half the time,50,758.442,,,[],,0,2,2,2,1,audio/Narrative7Situation2.wav,audio/Narrative8Situation2.wav,audio/Narrative5Situation2.wav,audio/Narrative6Situation2.wav,3,3,3,3,,,,,,,,,,,,,,,,,,,,,,,,,,,,,,,,,,,,,,,
,,,,,,60a48adfe091e410f4eaba34,2024-05-13_11h27.33.535,group3.1-3.2-social-tom,2023.2.2,Win32,58.82352941,65c5074098b851296ff0b7ed,664231517f18d23ce3bc9dda,,,,,,,,,,,,,,,,,,,,,,,,,,,,,758.442,2,audio/Narrative5Situation3.wav,761.457,,761.457,775.357,"[[56.9,666],[56.9,750],[56.9,833],[56.9,916],[56.9,1000],[56.3,1083],[56.3,1167],[56.3,1251],[56.3,1333],[56.3,1416],[56.3,1499],[56.3,1583],[56.3,1667],[56.3,1749],[56.3,1833],[56.3,1916],[56.3,2000],[56.3,2084],[56.3,2167],[56.3,2250],[56.3,2333],[56.3,2416],[56.3,2500],[56.3,2583],[56.3,2667],[56.3,2750],[56.3,2833],[56.3,2916],[56.3,3000],[56.3,3083],[56.3,3168],[56.3,3250],[56.3,3334],[56.3,3417],[56.3,3500],[56.3,3583],[56.3,3667],[56.3,3750],[56.3,3833],[56.3,3916],[56.3,4000],[56.3,4083],[56.3,4167],[56.3,4250],[56.3,4333],[56.3,4416],[56.3,4500],[56.3,4583],[56.3,4666],[56.3,4750],[56.3,4833],[56.3,4916],[56.3,5000],[56.3,5083],[56.3,5167],[56.3,5250],[56.3,5333],[56.3,5417],[56.3,5501],[56.3,5583],[56.3,5666],[56.3,5749],[56.3,5833],[56.3,5917],[55.2,5999],[52.9,6084],[52.6,6166],[52.5,6250],[52.2,6333],[51.7,6416],[51.5,6500],[51.4,6583],[51.4,6666],[51.4,6750],[52.6,6833],[58.1,6917],[59.8,7000],[59.8,7083],[59.2,7166],[55.8,7250],[52.1,7333],[50.6,7417],[50.5,7500],[49.6,7583],[48.1,7666],[47.8,7750],[51.9,7833],[59.4,7916],[59.6,8000],[57.9,8083],[54.2,8167],[53.6,8250],[55.9,8333],[64.3,8416],[68.8,8500],[73.8,8584],[74.8,8666],[74.8,8749],[74.8,8833],[74.8,8916],[74.8,8999],[74.8,9083],[75.2,9166],[76.3,9250],[76.5,9334],[76.5,9417],[76.5,9500],[75.8,9583],[75.4,9666],[77.7,9750],[79.8,9833],[79.8,9916],[79.9,10000],[80.4,10084],[80.7,10166],[80.9,10250],[80.9,10334],[80.9,10416],[81,10500],[81.1,10583],[81.1,10667],[81.1,10750],[81.1,10833],[81.3,10917],[81.3,11000],[81.3,11084],[81.3,11166],[81.3,11250],[81.3,11333],[81.3,11417],[81.3,11500],[81.3,11583],[81.3,11667],[81.3,11749],[81.3,11833],[81.3,11917],[81.3,12000],[81.3,12084],[81.3,12167],[81.3,12250],[81.3,12333],[81.3,12416],[81.3,12500],[81.3,12583],[81.3,12667],[81.3,12750],[81.3,12833],[81.3,12917],[81.3,13000],[81.3,13083],[81.3,13167],[81.3,13249],[81.3,13334],[81.3,13417],[81.3,13500],[81.3,13583],[81.3,13666],[81.3,13750],[81.4,13833]]",1,0,775.357,777.023,81.97916667,0.464,"[{""rating"":81.97916666666667,""responseTime"":0.4639999999999418}]",space,1.136,,777.023,All the time,100,777.026,,,[],,0,3,3,3,1,audio/Narrative7Situation3.wav,audio/Narrative8Situation3.wav,audio/Narrative5Situation3.wav,audio/Narrative6Situation3.wav,8,4,3,5,,,,,,,,,,,,,,,,,,,,,,,,,,,,,,,,,,,,,,,
,,,,,,60a48adfe091e410f4eaba34,2024-05-13_11h27.33.535,group3.1-3.2-social-tom,2023.2.2,Win32,58.82352941,65c5074098b851296ff0b7ed,664231517f18d23ce3bc9dda,,,,,,,,,,,,,,,,,,,,,,,,,,,,,777.026,2,audio/Narrative5Situation4.wav,778.04,,778.04,798.44,"[[82,82],[82,166],[82,250],[82,332],[82,416],[82,500],[82,582],[81.7,666],[75.8,750],[69.9,833],[64.1,916],[57.5,1000],[51.3,1083],[50.9,1168],[50.8,1250],[50.8,1332],[52.8,1416],[54.3,1500],[54.3,1583],[54.3,1665],[54.8,1750],[59.6,1832],[61.4,1916],[61.8,2000],[67.6,2083],[73.6,2166],[75.1,2250],[75.3,2332],[75.7,2416],[76.3,2500],[77.5,2582],[78.3,2666],[78.4,2750],[78.4,2833],[78.4,2915],[78.4,3000],[78.4,3083],[78.4,3165],[78.4,3250],[78.4,3333],[78.4,3416],[78.4,3500],[78.4,3582],[78.4,3666],[78.4,3750],[78.4,3832],[78.4,3916],[78.4,4000],[78.4,4082],[78.4,4166],[78.4,4250],[78.4,4333],[78.4,4416],[78.4,4500],[78.4,4582],[78.4,4666],[78.4,4750],[78.4,4833],[78.4,4916],[78.4,5000],[78.4,5082],[78.4,5166],[78.4,5250],[78.4,5333],[78.4,5416],[78.4,5500],[78.4,5583],[78.4,5666],[78.4,5750],[78.4,5833],[78.4,5916],[78.4,6000],[78.4,6083],[78.4,6166],[78.4,6250],[78.4,6332],[78.4,6416],[78.4,6500],[78.4,6582],[78.4,6665],[78.4,6750],[78.4,6833],[78.4,6916],[78.4,7000],[78.4,7082],[78.4,7166],[78.4,7250],[78.4,7333],[78.4,7416],[78.4,7500],[78.4,7582],[78.4,7666],[78.4,7750],[78.4,7833],[78.4,7916],[78.4,8000],[78.4,8083],[78.4,8166],[78.4,8250],[78.4,8332],[78.4,8416],[78.4,8500],[78.4,8582],[78.4,8666],[78.4,8750],[78.4,8832],[78.4,8916],[78.4,9000],[78.4,9083],[78.4,9166],[78.4,9250],[78.4,9332],[78.4,9416],[78.4,9500],[78.4,9583],[78.4,9666],[78.4,9750],[78.4,9832],[78.4,9916],[78.4,10000],[78.4,10082],[78.4,10166],[78.4,10250],[78.4,10332],[78.4,10415],[78.4,10500],[78.4,10583],[78.4,10666],[78.4,10750],[78.4,10833],[78.4,10916],[78.4,11000],[78.4,11082],[78.4,11166],[78.4,11250],[78.4,11332],[78.4,11416],[78.4,11500],[78.4,11583],[78.4,11666],[78.4,11750],[78.4,11833],[78.4,11915],[78.4,12000],[78.4,12083],[78.4,12166],[78.4,12250],[78.4,12333],[78.4,12416],[78.4,12500],[78.4,12582],[78.4,12666],[78.4,12750],[78.4,12832],[78.4,12916],[78.4,13000],[78.4,13083],[78.4,13165],[78.4,13250],[78.4,13333],[78.4,13416],[78.4,13500],[78.4,13582],[78.4,13666],[78.4,13750],[78.4,13833],[78.4,13916],[78.4,14000],[78.4,14082],[78.4,14166],[75.6,14250],[73.9,14333],[73.9,14416],[73.9,14500],[75,14583],[78.5,14666],[79.9,14750],[79.9,14832],[79.9,14915],[79.9,15000],[79.9,15082],[79.9,15166],[79.9,15250],[79.9,15332],[83.1,15416],[84.2,15500],[84.4,15582],[84.4,15666],[85,15750],[85.2,15832],[85.2,15916],[85.2,16000],[85.2,16083],[85.5,16166],[85.6,16250],[85.6,16332],[85.6,16416],[85.6,16500],[85.7,16583],[86,16665],[86.3,16750],[86.4,16832],[86.4,16916],[86.4,17000],[86.4,17083],[86.4,17165],[86.4,17250],[86.4,17333],[86.4,17416],[86.4,17500],[86.4,17583],[86.4,17665],[86.4,17750],[86.4,17832],[86.4,17916],[86.4,18000],[86.4,18083],[86.4,18166],[86.4,18250],[86.5,18332],[86.5,18416],[86.5,18500],[86.5,18583],[86.5,18666],[86.5,18750],[86.5,18833],[86.5,18916],[86.5,19000],[86.5,19082],[86.5,19166],[86.5,19250],[86.5,19333],[86.5,19415],[86.5,19500],[86.5,19582],[86.5,19666],[86.5,19750],[86.5,19833],[86.5,19916],[86.5,20000],[86.7,20082],[87.2,20165],[87.9,20250],[88.3,20333]]",1,0,798.44,799.773,87.39583333,0.554,"[{""rating"":87.39583333333334,""responseTime"":0.5539999999999736}]",space,0.801,,799.774,Not at all,0,799.775,,,[],,0,4,4,4,1,audio/Narrative7Situation4.wav,audio/Narrative8Situation4.wav,audio/Narrative5Situation4.wav,audio/Narrative6Situation4.wav,3,3,1,2,,,,,,,,,,,,,,,,,,,,,,,,,,,,,,,,,,,,,,,
,,,,,,60a48adfe091e410f4eaba34,2024-05-13_11h27.33.535,group3.1-3.2-social-tom,2023.2.2,Win32,58.82352941,65c5074098b851296ff0b7ed,664231517f18d23ce3bc9dda,,,,,,,,,,,,,,,,,,,,,,,,,,,,,799.775,2,audio/Narrative5Situation5.wav,800.906,space,800.906,816.324,"[[87.2,833],[86.3,918],[85.1,1000],[85,1083],[85,1168],[85,1251],[84.9,1333],[84.8,1417],[84.8,1500],[84.8,1583],[85.2,1668],[85.3,1750],[85.3,1833],[85.3,1917],[85.3,2000],[85.3,2083],[85.3,2167],[85.3,2250],[85.3,2333],[85.3,2418],[85.3,2500],[85.3,2583],[85.3,2668],[85.3,2750],[85.3,2833],[85.3,2918],[85.3,3000],[85.3,3083],[85.3,3168],[85.3,3250],[85.3,3334],[85.3,3417],[85.3,3500],[85.3,3583],[85.3,3668],[85.3,3750],[85.3,3833],[85.3,3918],[85.3,4000],[85.3,4083],[85.3,4168],[85.3,4250],[85.3,4334],[85.3,4417],[85.3,4500],[85.3,4583],[85.3,4668],[85.3,4751],[85.3,4834],[85.3,4917],[85.3,5000],[85.3,5083],[85.3,5168],[85.3,5250],[85.3,5333],[85.3,5417],[85.3,5500],[85.3,5583],[85.3,5668],[85.3,5750],[85.3,5833],[85.3,5918],[85.3,6000],[85.3,6083],[85.3,6168],[85.3,6250],[85.3,6333],[85.3,6418],[85.3,6500],[85.3,6583],[85.3,6667],[85.3,6750],[85.3,6833],[85.3,6918],[85.3,7000],[85.3,7083],[85.3,7168],[85.5,7250],[86.3,7333],[87,7417],[87.2,7500],[87.2,7583],[87.2,7668],[86.9,7750],[86.9,7833],[86.9,7917],[86.9,8000],[86.9,8083],[86.7,8167],[86.7,8250],[86.7,8333],[86.7,8418],[86.7,8500],[86.7,8584],[86.7,8667],[86.7,8750],[86.7,8833],[86.7,8917],[86.7,9000],[86.7,9083],[86.7,9168],[86.7,9250],[86.3,9333],[85.4,9417],[85.2,9500],[85.2,9583],[85.7,9667],[87.1,9750],[88.2,9834],[88.3,9918],[88.3,10000],[88.3,10083],[88.3,10167],[88.3,10250],[88.3,10333],[88.3,10417],[88.3,10500],[88.3,10583],[88.3,10668],[88.3,10750],[88.3,10833],[88.3,10917],[88.3,11000],[88.3,11083],[88.3,11168],[88.3,11250],[88.3,11333],[88.3,11418],[88.3,11500],[88.3,11583],[88,11667],[88,11750],[88,11833],[88.1,11918],[88.3,12000],[89,12083],[89.6,12168],[90,12250],[90,12333],[90,12418],[89.6,12500],[88.9,12583],[88.2,12668],[88,12750],[88,12833],[88.2,12917],[88.6,13000],[89,13084],[89.2,13168],[89.2,13250],[89.3,13333],[89.3,13418],[89.3,13500],[89.3,13583],[89.2,13668],[89,13750],[88.8,13834],[88.6,13917],[88.6,14000],[88.6,14083],[89.1,14167],[90.3,14250],[91.8,14333],[92.6,14418],[92.9,14500],[92.9,14583],[92.9,14668],[92.9,14750],[92.9,14834],[92.8,14917],[92.8,15000],[92.8,15083],[92.8,15167],[92.8,15250],[92.7,15333],[92.7,15417]]",1,0,816.324,818.19,92.1875,0.438,"[{""rating"":92.1875,""responseTime"":0.4379999999999882}]",space,1.317,,818.19,Not at all,0,818.192,,,[],,0,5,5,5,1,audio/Narrative7Situation5.wav,audio/Narrative8Situation5.wav,audio/Narrative5Situation5.wav,audio/Narrative6Situation5.wav,5,2,5,2,1.126,,,,,,,,,,,,,,,,,,,,,,,,,,,,,,,,,,,,,,
,,,,,,60a48adfe091e410f4eaba34,2024-05-13_11h27.33.535,group3.1-3.2-social-tom,2023.2.2,Win32,58.82352941,65c5074098b851296ff0b7ed,664231517f18d23ce3bc9dda,,,,,,,,,,,,,,,,,,,,,,,,,,,,,818.192,2,audio/Narrative5Situation6.wav,821.207,,821.207,826.873,"[[91.1,500],[90.6,584],[90.5,666],[90.5,750],[90.5,833],[90.5,917],[90.5,1000],[90.5,1083],[90.5,1166],[90.5,1250],[90.5,1333],[90.5,1417],[90.5,1500],[90.5,1583],[90.5,1666],[90.5,1750],[90.5,1833],[90.5,1916],[90.5,2000],[90.5,2083],[90.5,2167],[90.5,2249],[90.5,2333],[90.5,2416],[90.5,2499],[90.5,2583],[90.5,2666],[90.5,2750],[90.5,2833],[90.5,2917],[90.5,3000],[90.5,3083],[90.5,3166],[90.5,3249],[90.5,3333],[90.5,3416],[90.5,3500],[90.5,3583],[90.5,3666],[90.5,3750],[90.5,3834],[90.5,3917],[90.5,4000],[90.5,4083],[90.5,4166],[90.5,4250],[90.5,4333],[90.5,4416],[90.5,4500],[90.5,4583],[90.5,4666],[90.5,4750],[90.5,4833],[90.5,4916],[91.7,5000],[92.1,5083],[92.2,5166],[92.4,5250],[92.7,5334],[93,5417],[93,5500],[93,5583],[93,5666]]",1,0,826.874,828.373,92.08333333,0.758,"[{""rating"":92.08333333333334,""responseTime"":0.7580000000000382}]",space,0.948,,828.373,Not at all,0,828.374,,,[],,0,6,6,6,1,audio/Narrative7Situation6.wav,audio/Narrative8Situation6.wav,audio/Narrative5Situation6.wav,audio/Narrative6Situation6.wav,3,2,3,2,,,,,,,,,,,,,,,,,,,,,,,,,,,,,,,,,,,,,,,
,,,,,,60a48adfe091e410f4eaba34,2024-05-13_11h27.33.535,group3.1-3.2-social-tom,2023.2.2,Win32,58.82352941,65c5074098b851296ff0b7ed,664231517f18d23ce3bc9dda,,,,,,,,,,,,,,,,,,,,,,,,,,,,,828.375,2,audio/Narrative5Situation7.wav,829.256,space,829.257,850.307,"[[91.9,2582],[91.6,2665],[91.4,2750],[91.3,2832],[91.3,2917],[91.3,3000],[91.5,3082],[91.5,3165],[91.5,3250],[91.5,3332],[91,3417],[90.7,3500],[90.7,3582],[90.7,3667],[90.7,3750],[90.7,3832],[90.7,3917],[91.3,4000],[91.7,4082],[92.2,4167],[92.7,4249],[92.8,4332],[92,4415],[91,4500],[90.4,4582],[90.1,4665],[90.1,4750],[90.5,4832],[91.1,4917],[91.3,5000],[91.3,5082],[91.3,5165],[91.3,5250],[91.3,5332],[91.3,5417],[91.3,5499],[91.3,5583],[91.3,5667],[91.3,5750],[91.3,5832],[91.3,5915],[91.3,6000],[91.3,6082],[91.3,6165],[91.3,6250],[91.3,6332],[91.3,6417],[91.3,6500],[91.3,6582],[91.3,6665],[91.3,6750],[91.3,6832],[91.3,6917],[91.3,6999],[91.3,7082],[91.3,7165],[91.3,7250],[91.3,7332],[91.3,7415],[91.3,7500],[91.3,7582],[91.3,7665],[91.3,7750],[91.3,7832],[91.3,7915],[91.3,8000],[91.3,8083],[91.3,8167],[91.3,8250],[91.3,8332],[91.3,8417],[91.3,8500],[91.3,8582],[91.3,8665],[91.3,8749],[91.3,8832],[91.3,8915],[91.3,9000],[91.3,9082],[91.3,9167],[91.3,9249],[91.3,9332],[91.3,9417],[91.3,9500],[91.3,9582],[91.3,9667],[91.3,9749],[91.3,9832],[91.3,9915],[91.3,10000],[91.3,10082],[91.3,10165],[91.3,10250],[91.3,10333],[91.3,10415],[91.3,10500],[91.3,10582],[91.3,10665],[91.3,10750],[91.3,10832],[91.3,10915],[91.3,10999],[91.3,11082],[91.3,11167],[91.3,11250],[91.3,11332],[91.3,11415],[91.3,11500],[91.3,11582],[91.3,11667],[91.3,11750],[91.3,11832],[91.3,11917],[91.3,12000],[91.3,12082],[91.3,12167],[91.3,12250],[91.3,12332],[91.3,12415],[91.3,12499],[91.3,12582],[91.3,12667],[91.3,12749],[91.3,12832],[91.3,12915],[91.3,13000],[91.3,13082],[91.3,13165],[91.3,13249],[91.3,13332],[91.3,13417],[91.3,13500],[91.3,13582],[91.3,13667],[91.3,13750],[91.3,13832],[91.3,13917],[91.3,13999],[91.3,14082],[91.3,14165],[91.3,14250],[91.3,14332],[91.3,14415],[91.3,14500],[91.3,14583],[91.3,14667],[91.3,14750],[91.3,14832],[91.3,14915],[91.3,14999],[91.3,15082],[91.3,15167],[91.3,15250],[91.3,15332],[91.3,15417],[91.3,15500],[91.3,15582],[91.3,15667],[91.3,15750],[91.3,15833],[91.3,15915],[91.3,16000],[91.3,16082],[91.3,16167],[91.3,16250],[92.2,16332],[92.5,16415],[91.3,16500],[90.5,16582],[90.5,16665],[89.8,16750],[89.3,16832],[89.8,16917],[90.4,17000],[90,17082],[89.6,17167],[90,17250],[90.2,17332],[90.2,17417],[91.4,17500],[92.4,17582],[93.2,17667],[93.9,17750],[94.4,17833],[95.1,17915],[95.9,18000],[97.1,18082],[98.1,18167],[98.8,18250],[98.8,18332],[98.8,18417],[97.7,18500],[96.6,18582],[95.7,18665],[95.5,18750],[95.5,18832],[95.9,18917],[97.7,19000],[98.9,19082],[98.9,19165],[98.9,19250],[98.9,19332],[98.6,19417],[98.6,19500],[98.6,19582],[98.6,19665],[98.6,19749],[98.6,19832],[99.4,19917],[99.6,19999],[99.6,20082],[99.6,20165],[99.6,20249],[99.6,20332],[99.6,20417],[99.6,20500],[99.6,20582],[99.6,20665],[99.6,20750],[99.6,20832],[99.6,20915],[99.6,20999]]",1,0,850.307,851.791,99.79166667,0.453,"[{""rating"":99.79166666666667,""responseTime"":0.45299999999997453}]",space,0.948,,851.791,Half the time,50,851.792,,,[],,0,7,7,7,1,audio/Narrative7Situation7.wav,audio/Narrative8Situation7.wav,audio/Narrative5Situation7.wav,audio/Narrative6Situation7.wav,5,3,4,5,0.876,,,,,,,,,,,,,,,,,,,,,,,,,,,,,,,,,,,,,,
,,,,,,60a48adfe091e410f4eaba34,2024-05-13_11h27.33.535,group3.1-3.2-social-tom,2023.2.2,Win32,58.82352941,65c5074098b851296ff0b7ed,664231517f18d23ce3bc9dda,,,,,,,,,,,,,,,,,,,,,,,,,,,,,851.792,2,audio/Narrative5Situation8.wav,854.807,,854.807,863.623,"[[98.3,82],[98.3,167],[98.3,250],[98.3,332],[98.3,416],[98.3,499],[98.3,582],[98.3,667],[98.3,750],[98.3,832],[98.3,917],[98.3,1000],[98.3,1082],[98.3,1167],[98.3,1250],[98.3,1332],[98.3,1417],[98.3,1500],[98.3,1582],[98.3,1667],[98.3,1749],[98.3,1832],[98.3,1917],[98.3,1999],[98.3,2082],[98.3,2167],[98.3,2250],[98.3,2332],[98.3,2416],[98.3,2500],[98.3,2582],[98.3,2666],[98.3,2750],[98.3,2832],[98.3,2917],[98.3,3000],[98.3,3082],[98.5,3167],[99.1,3250],[99.1,3332],[99.1,3416],[99.1,3500],[99.3,3582],[100,3666],[100,3750],[100,3832],[100,3916],[99.5,4000],[99,4082],[98.8,4167],[98.2,4249],[98,4332],[98.1,4416],[98.9,4500],[99,4584],[98.1,4666],[97.5,4750],[97.5,4832],[98.4,4916],[99.1,4999],[99.1,5082],[99.1,5167],[98.1,5250],[97,5332],[96.6,5416],[96.4,5500],[96.6,5582],[98.1,5666],[99.1,5750],[99.2,5834],[98.4,5916],[95.9,6000],[94.3,6082],[94,6166],[94.1,6250],[95.3,6332],[97.3,6416],[97.8,6500],[97.8,6582],[97.8,6667],[97.4,6750],[96.8,6832],[96.8,6917],[97.9,6999],[99,7082],[99.3,7166],[99.1,7250],[97.4,7332],[95,7416],[94.4,7500],[94.6,7582],[96.6,7667],[97.6,7750],[97.7,7832],[97.6,7917],[96.4,7999],[95.8,8084],[95.6,8167],[95.5,8250],[95.5,8332],[95.8,8417],[95.9,8500],[95.9,8582],[95.7,8666],[95.6,8750]]",1,0,863.623,866.007,94.6875,0.627,"[{""rating"":94.6875,""responseTime"":0.6270000000000664}]",space,1.862,,866.007,Half the time,50,866.008,,,[],,0,8,8,8,1,audio/Narrative7Situation8.wav,audio/Narrative8Situation8.wav,audio/Narrative5Situation8.wav,audio/Narrative6Situation8.wav,2,3,3,5,,,,,,,,,,,,,,,,,,,,,,,,,,,,,,,,,,,,,,,
,,,,,,60a48adfe091e410f4eaba34,2024-05-13_11h27.33.535,group3.1-3.2-social-tom,2023.2.2,Win32,58.82352941,65c5074098b851296ff0b7ed,664231517f18d23ce3bc9dda,,,,,,,,,,,,,,,,,,,,,,,,,,,,,866.008,2,audio/Narrative5Situation9.wav,869.023,,869.023,908.557,"[[95,667],[97,750],[100,834],[100,917],[98.5,1000],[93.8,1084],[93.3,1167],[93.4,1250],[94.2,1332],[94.4,1417],[94.8,1500],[97.2,1584],[97.7,1667],[97.7,1750],[96.1,1834],[94.7,1917],[94.4,2000],[94.4,2084],[95.9,2167],[97.6,2250],[97.6,2334],[96.4,2418],[94.3,2500],[94,2582],[94,2667],[95.2,2750],[97.2,2834],[97.8,2917],[97.9,3000],[96.9,3084],[96.1,3167],[96.5,3250],[99.1,3334],[99.1,3417],[97.5,3500],[96,3582],[95.9,3667],[96.1,3750],[97.7,3834],[98.3,3917],[98.3,4000],[95.8,4084],[94.7,4167],[94.7,4250],[97.9,4334],[99.9,4417],[99.9,4500],[98.4,4582],[97.5,4667],[97.5,4750],[97.9,4832],[98.4,4917],[98.4,5000],[97.3,5084],[96.4,5168],[96.4,5250],[96.6,5334],[96.7,5417],[95,5500],[94.4,5584],[95,5667],[96.6,5750],[96.6,5834],[95.3,5917],[94.8,6000],[94.8,6084],[95.8,6168],[96.5,6250],[95.7,6332],[94.5,6417],[94,6500],[94,6584],[94,6667],[94.4,6750],[94.4,6834],[94.1,6917],[93,7000],[92.5,7084],[93,7167],[96.6,7250],[97.4,7334],[95,7417],[94.2,7500],[94.2,7584],[94.8,7667],[96.1,7750],[96.3,7834],[95.8,7917],[96.7,8000],[99.5,8084],[98.9,8167],[95.8,8250],[94.8,8334],[94.8,8417],[97.4,8500],[98.2,8584],[98,8668],[96.1,8750],[95.6,8834],[96.4,8917],[98.5,9000],[98.3,9084],[95.8,9167],[95.3,9250],[96.3,9334],[97.4,9417],[97.4,9500],[97.4,9584],[97.4,9667],[97.4,9750],[97.4,9834],[97.4,9917],[97.4,10000],[97.4,10082],[97.4,10167],[97.4,10250],[97.4,10334],[97.4,10417],[97.4,10500],[97.4,10582],[97.4,10668],[97.4,10750],[97.4,10834],[97.4,10917],[97.4,11000],[91.8,11084],[88.3,11167],[93.8,11250],[95.7,11334],[94.8,11417],[96.6,11500],[97.7,11584],[93.9,11667],[95.2,11750],[96.3,11832],[95.3,11917],[96.8,12000],[99.3,12084],[97.8,12167],[98,12250],[98,12332],[96.6,12417],[97.1,12500],[97.9,12584],[97.4,12668],[97.3,12750],[97.3,12834],[97.3,12917],[97.3,13000],[97.3,13084],[97.9,13167],[97.2,13250],[97.1,13332],[97.1,13417],[97.2,13500],[97.2,13584],[97.2,13668],[97,13750],[96.8,13834],[96.8,13917],[96.8,14000],[96.8,14084],[96.8,14167],[97.4,14250],[98,14334],[95.5,14417],[96,14500],[97.7,14584],[97,14667],[97.2,14750],[97.5,14834],[96.1,14917],[96.6,15000],[97.4,15084],[97.4,15167],[97.4,15250],[97.4,15334],[97.4,15418],[97.4,15500],[97.4,15584],[97.4,15667],[97.4,15750],[97.4,15832],[97.4,15917],[97.4,16000],[97.4,16082],[97.4,16168],[97.4,16250],[97.4,16334],[97.4,16417],[96.3,16500],[96,16582],[97.8,16668],[97.1,16750],[95.7,16834],[99.1,16917],[100,17000],[96.5,17082],[97.1,17167],[99.4,17250],[99.5,17334],[99.5,17417],[99.5,17500],[99.5,17584],[99.5,17667],[99.5,17750],[99.5,17834],[99.5,17917],[99.5,18000],[99.5,18084],[99.5,18167],[99.5,18250],[99.5,18334],[99.5,18417],[99.5,18500],[99.5,18584],[99.5,18667],[99.5,18750],[99.5,18832],[99.5,18918],[97,19000],[94.9,19082],[100,19168],[98.8,19250],[97.4,19334],[98.8,19417],[95.5,19500],[92.3,19582],[92.7,19667],[92.9,19750],[92.8,19832],[94.5,19917],[95.2,20000],[94.8,20084],[98.8,20167],[98.5,20250],[95.9,20332],[97.4,20417],[99.4,20500],[97.7,20584],[96.9,20667],[98.3,20750],[98.8,20834],[98.8,20917],[98.8,21000],[99.1,21082],[98.5,21167],[97,21250],[97.6,21334],[97.1,21417],[96.7,21500],[97.7,21582],[95.9,21667],[93.3,21750],[95.9,21834],[97.4,21917],[95.2,22000],[96.7,22084],[98.3,22167],[95.8,22250],[96.7,22334],[97.8,22417],[97.3,22500],[96.7,22584],[96.7,22667],[96.7,22750],[96.7,22834],[96.7,22917],[96.7,23000],[96.8,23082],[96.8,23167],[96.8,23250],[96.8,23334],[96.8,23418],[96.8,23500],[96.8,23582],[96.8,23667],[96.8,23750],[96.8,23834],[96.8,23918],[96.8,24000],[96.8,24082],[96.8,24167],[96.8,24250],[96.8,24332],[96.8,24417],[96.8,24500],[96.8,24584],[96.8,24667],[96.8,24750],[96.8,24834],[96.8,24917],[96.8,25000],[96.8,25084],[96.8,25168],[96.8,25250],[96.8,25334],[96.8,25417],[96.8,25500],[96.8,25584],[96.8,25667],[96.8,25750],[96.8,25834],[96.8,25917],[96.8,26000],[96.8,26084],[96.8,26167],[96.8,26250],[96.8,26332],[96.8,26417],[98.3,26500],[99,26584],[97.6,26667],[97.5,26750],[97.1,26834],[96.3,26918],[96.4,27000],[95.8,27084],[96.5,27167],[97.2,27250],[96.8,27334],[98.5,27417],[98.6,27500],[97.9,27584],[97.9,27667],[97.9,27750],[97.8,27834],[97.8,27917],[97.8,28000],[97.8,28082],[97.8,28167],[97.8,28250],[97.8,28332],[97.8,28417],[97.8,28500],[97.8,28584],[97.8,28667],[97.3,28750],[97.2,28834],[97.2,28917],[94.6,29000],[94.3,29084],[94.7,29167],[95.6,29250],[95.4,29334],[95.4,29417],[96.3,29500],[93.9,29584],[93.6,29667],[94.8,29750],[94.8,29832],[94.8,29917],[94.8,30000],[94.6,30084],[93.6,30167],[95.7,30250],[95.4,30334],[95,30417],[96.7,30500],[96.6,30584],[96.5,30667],[96.5,30750],[95.8,30834],[95.8,30918],[96.9,31000],[95.9,31084],[95.9,31167],[95.9,31250],[95.9,31332],[95.9,31417],[95.9,31500],[95.8,31584],[95.7,31667],[100,31750],[99.3,31834],[97.6,31917],[100,32000],[97.8,32082],[96.6,32167],[99.7,32250],[98.3,32334],[96.9,32417],[96.9,32500],[96.9,32584],[96.6,32667],[97,32750],[97.8,32834],[97.7,32917],[97.7,33000],[98.1,33084],[98.1,33167],[98.1,33250],[98.1,33334],[98.5,33417],[98.6,33500],[98.2,33584],[99.7,33668],[99.5,33750],[99.2,33832],[100,33917],[100,34000],[99.5,34084],[99.5,34167],[99.6,34250],[99.6,34334],[100,34417],[100,34500],[99.7,34584],[99.9,34667],[100,34750],[99.4,34834],[99.2,34917],[100,35000],[99,35084],[99.8,35167],[100,35250],[99,35332],[100,35417],[100,35500],[99.7,35584],[99.7,35667],[99.7,35750],[99.7,35832],[99.7,35917],[99.7,36000],[99.7,36084],[99.5,36167],[99.8,36250],[97.6,36334],[98.4,36417],[100,36500],[100,36584],[100,36667],[100,36750],[100,36834],[100,36917],[100,37000],[100,37084],[100,37167],[100,37250],[98.4,37334],[97.1,37417],[97.7,37500],[97.5,37582],[97.2,37667],[99,37750],[97.5,37832],[96.5,37917],[98.4,38000],[97.1,38084],[97.1,38167],[98.8,38250],[97.6,38334],[98.2,38417],[100,38500],[98.6,38584],[98.3,38667],[97.6,38750],[95.9,38834],[96.3,38918],[95.4,39000],[95.7,39084],[97.5,39167],[97.5,39250],[97.2,39332],[97.3,39417],[97.1,39500]]",1,0,908.557,909.99,99.375,0.737,"[{""rating"":99.375,""responseTime"":0.73700000000008}]",space,0.912,,909.99,All the time,100,909.992,,,[],,0,9,9,9,1,audio/Narrative7Situation9.wav,audio/Narrative8Situation9.wav,audio/Narrative5Situation9.wav,audio/Narrative6Situation9.wav,2,3,3,4,,,,,,,,,,,,,,,,,,,,,,,,,,,,,,,,,,,,,,,
,,,,,,60a48adfe091e410f4eaba34,2024-05-13_11h27.33.535,group3.1-3.2-social-tom,2023.2.2,Win32,58.82352941,65c5074098b851296ff0b7ed,664231517f18d23ce3bc9dda,,,,,,,,,,,,,,,,,,,,,,,,,,,,,909.992,2,audio/Narrative6Situation1.wav,912.007,,912.007,938.59,"[[83.2,22082],[71.1,22165],[69.6,22250],[69.4,22332],[69.6,22415],[69.7,22500],[70.4,22582],[70.4,22667],[70.4,22750],[70.4,22832],[71,22915],[72.2,23000],[72.2,23082],[70.1,23165],[67.5,23250],[70.9,23332],[75.9,23417],[73.9,23500],[72.5,23581],[75.3,23665],[75.9,23749],[75.8,23832],[75.6,23915],[75.4,24000],[75.2,24082],[74.5,24165],[73.8,24250],[73.2,24332],[72.6,24415],[72.3,24500],[72.2,24581],[72.2,24667],[72.1,24750],[71.8,24832],[71.8,24917],[71.8,25000],[71.9,25083],[72.7,25165],[73.2,25249],[73.2,25332],[75.9,25415],[82.4,25499],[80,25582],[75.9,25665],[76.3,25749],[76.6,25832],[76.6,25915],[76.6,26000],[76.3,26082],[76.1,26167],[76.1,26250],[75.7,26332],[74.8,26415],[74.7,26500],[74.8,26582]]",1,0,938.59,940.557,76.45833333,0.917,"[{""rating"":76.45833333333334,""responseTime"":0.91700000000003}]",space,1.432,,940.557,All the time,100,940.558,,,[],,0,10,10,10,1,audio/Narrative8Situation1.wav,audio/Narrative7Situation1.wav,audio/Narrative6Situation1.wav,audio/Narrative5Situation1.wav,5,2,2,5,,,,,,,,,,,,,,,,,,,,,,,,,,,,,,,,,,,,,,,
,,,,,,60a48adfe091e410f4eaba34,2024-05-13_11h27.33.535,group3.1-3.2-social-tom,2023.2.2,Win32,58.82352941,65c5074098b851296ff0b7ed,664231517f18d23ce3bc9dda,,,,,,,,,,,,,,,,,,,,,,,,,,,,,940.558,2,audio/Narrative6Situation2.wav,941.49,space,941.49,969.99,"[[76.7,1834],[76.8,1917],[76.8,2000],[76.8,2083],[76.8,2167],[76.8,2250],[76.8,2333],[76.8,2417],[76.8,2500],[76.8,2583],[76.5,2667],[76.3,2750],[76.3,2834],[76.3,2917],[76.3,3000],[76.3,3084],[76.3,3167],[76.3,3250],[76.3,3333],[76.3,3417],[76.3,3500],[76.3,3583],[76.3,3667],[76.3,3750],[76.3,3833],[76.3,3916],[76.3,4000],[76.3,4083],[76.3,4166],[76.3,4250],[76.3,4333],[76.3,4417],[76.3,4500],[76.3,4583],[76.3,4667],[76.3,4750],[76.3,4833],[76.3,4917],[76.3,5000],[76.3,5084],[76.3,5166],[76.3,5250],[76.3,5334],[76.3,5417],[76.3,5500],[76.3,5583],[76.3,5667],[76.3,5750],[76.3,5833],[76.3,5917],[76.3,6000],[76.3,6083],[76.3,6166],[76.3,6250],[76.3,6334],[76.3,6417],[76.4,6500],[76.6,6584],[76.7,6667],[76.7,6750],[77,6833],[77,6916],[77,7000],[77,7084],[76.8,7167],[76.8,7249],[76.8,7334],[76.8,7416],[77,7500],[77.3,7583],[77.6,7666],[77.6,7750],[77.6,7833],[77.6,7917],[77.7,8000],[77.9,8084],[78.1,8167],[78.1,8250],[78.1,8333],[78.2,8417],[78.2,8500],[78.2,8584],[78.2,8667],[78.2,8750],[78.2,8834],[78.2,8917],[78.4,9000],[79,9083],[79.2,9166],[79.2,9250],[79.2,9334],[79.2,9416],[79.2,9500],[79.2,9583],[79.2,9666],[79.2,9750],[79.2,9833],[79.2,9917],[79.2,9999],[79.2,10084],[79.2,10166],[79.2,10250],[79.2,10333],[79.2,10417],[79.2,10500],[79.2,10583],[79.2,10666],[79.2,10750],[79.2,10833],[79.2,10917],[79.1,11000],[79.1,11084],[79.1,11167],[79.1,11250],[78.9,11334],[78.5,11417],[78.4,11500],[78.1,11583],[77.8,11667],[77.6,11750],[77.4,11834],[77.2,11916],[77.1,12000],[77.1,12084],[77.1,12167],[77.1,12250],[77.1,12333],[77.1,12417],[77.1,12500],[77.1,12584],[77.1,12668],[77.1,12750],[77.1,12833],[77.1,12917],[77.1,13000],[77.1,13083],[77.1,13166],[77.1,13250],[77.1,13333],[77.1,13417],[77.1,13500],[77.1,13583],[77.1,13666],[77.1,13750],[77.1,13834],[77.1,13917],[77.1,14000],[77.1,14084],[77.1,14166],[77.1,14250],[77.1,14333],[77.1,14417],[77.1,14500],[77.1,14583],[77.1,14667],[77.1,14750],[77.1,14834],[77.1,14916],[77.1,15000],[77.1,15083],[77.1,15167],[77.1,15250],[77.1,15334],[77.1,15416],[77.1,15500],[77.1,15583],[77.1,15667],[77.1,15750],[77.1,15833],[77.1,15917],[77.1,16000],[77.1,16084],[77.1,16167],[77.1,16250],[77.1,16333],[77.1,16417],[77.1,16500],[77.1,16583],[77.1,16667],[77.1,16750],[77.1,16833],[77.1,16917],[76.8,17000],[75.9,17084],[75.4,17167],[75,17250],[74.8,17333],[74.8,17416],[74.8,17500],[74.8,17583],[74.8,17667],[74.8,17750],[74.8,17833],[74.8,17916],[74.8,18000],[74.8,18083],[75,18167],[75.2,18250],[75.3,18333],[75.4,18416],[75.4,18500],[75.4,18583],[75.5,18666],[75.5,18750],[75.5,18834],[75.5,18917],[75.4,19000],[74.9,19083],[74.5,19167],[74.4,19250],[74.4,19333],[74.4,19416],[74.7,19500],[74.9,19583],[75,19666],[75,19750],[75,19833],[75,19918],[75.1,20000],[75.1,20083],[75.1,20167],[75.1,20250],[74.9,20334],[74.5,20417],[74.3,20500],[74.1,20583],[73.9,20666],[73.8,20750],[73.8,20834],[73.8,20916],[73.9,21000],[74.1,21083],[74.2,21167],[74.3,21250],[74.3,21333],[74.3,21417],[74.3,21500],[74.3,21584],[74.3,21666],[74.1,21750],[73.8,21834],[73.4,21917],[73.3,22000],[73.2,22083],[73.2,22166],[73.2,22250],[73.2,22334],[73.3,22416],[73.8,22500],[74.1,22584],[74.2,22667],[74.2,22750],[74.4,22834],[74.5,22917],[74.7,23000],[74.7,23083],[74.7,23167],[74.7,23250],[74.5,23333],[74.1,23417],[73.8,23500],[73.4,23583],[73.2,23667],[73,23750],[72.8,23834],[72.8,23917],[72.8,24000],[72.8,24084],[72.9,24167],[73.2,24250],[73.6,24334],[74.1,24416],[74.3,24500],[74.5,24583],[74.6,24667],[74.6,24750],[74.6,24834],[74.4,24916],[74.2,25000],[74.2,25083],[74.3,25167],[74.6,25250],[75,25333],[75.2,25416],[75.2,25500],[75.2,25583],[75.2,25667],[74.8,25750],[74.1,25834],[73.9,25917],[73.9,26000],[73.9,26083],[74,26167],[74.2,26250],[74.4,26333],[74.5,26417],[74.5,26500],[74.5,26584],[74.5,26667],[74.5,26750],[74.5,26834],[74.5,26917],[74.5,27000],[74.5,27083],[74.5,27167],[74.5,27250],[74.5,27333],[74.5,27417],[74.5,27500],[74.5,27583],[74.5,27667],[74.5,27750],[74.5,27833],[74.5,27917],[74.5,28000],[74.5,28084],[74.5,28166],[74.5,28250],[74.9,28333],[75.6,28417],[75.8,28500]]",1,0,969.99,971.24,74.89583333,0.577,"[{""rating"":74.89583333333334,""responseTime"":0.5769999999999982}]",space,0.729,,971.24,All the time,100,971.241,,,[],,0,11,11,11,1,audio/Narrative8Situation2.wav,audio/Narrative7Situation2.wav,audio/Narrative6Situation2.wav,audio/Narrative5Situation2.wav,3,3,3,3,0.928,,,,,,,,,,,,,,,,,,,,,,,,,,,,,,,,,,,,,,
,,,,,,60a48adfe091e410f4eaba34,2024-05-13_11h27.33.535,group3.1-3.2-social-tom,2023.2.2,Win32,58.82352941,65c5074098b851296ff0b7ed,664231517f18d23ce3bc9dda,,,,,,,,,,,,,,,,,,,,,,,,,,,,,971.241,2,audio/Narrative6Situation3.wav,972.557,space,972.557,985.157,"[[74.8,1416],[75.1,1500],[75.3,1582],[75.3,1666],[75.1,1750],[74.9,1832],[74.8,1916],[74.8,1999],[74.8,2084],[74.8,2166],[74.8,2249],[74.8,2332],[74.8,2416],[74.8,2499],[74.8,2582],[74.8,2666],[74.8,2749],[74.8,2832],[74.8,2916],[74.8,3000],[74.8,3082],[74.8,3166],[74.8,3249],[74.8,3332],[74.8,3416],[74.8,3499],[74.8,3584],[74.8,3667],[74.8,3750],[74.8,3832],[74.8,3917],[74.8,3999],[74.8,4082],[74.8,4166],[74.8,4249],[74.8,4332],[74.8,4416],[74.8,4500],[74.8,4582],[74.8,4667],[74.8,4749],[74.8,4832],[74.8,4916],[74.8,4999],[74.8,5082],[74.8,5167],[74.8,5249],[74.8,5332],[74.8,5416],[74.8,5500],[74.8,5582],[74.8,5666],[74.4,5750],[74.2,5832],[74.2,5916],[73.8,6000],[73.3,6082],[73.3,6166],[73.5,6250],[73.8,6332],[74.2,6417],[74.2,6500],[73.6,6582],[72.8,6666],[72.6,6750],[73.8,6832],[74.3,6916],[74.7,6999],[74.9,7082],[74.9,7167],[74.8,7249],[75.4,7332],[76.3,7417],[76.3,7500],[75.8,7582],[76.3,7666],[78.3,7750],[78.4,7832],[77.5,7917],[75.9,8000],[75.1,8082],[75.2,8167],[75.5,8250],[75.5,8332],[75,8416],[74.6,8500],[74.3,8582],[73.4,8666],[73.2,8750],[73.2,8832],[73.2,8917],[73.8,9000],[74.1,9082],[74.2,9166],[74.2,9250],[74.2,9332],[74.2,9417],[74.2,9500],[74.2,9582],[74.2,9667],[74.2,9749],[74.2,9832],[74.2,9916],[73.9,10000],[73.3,10082],[72.6,10166],[72.3,10250],[72.2,10332],[72.2,10416],[72.6,10500],[73.2,10582],[73.9,10667],[74.4,10750],[75,10832],[75,10916],[74.8,10999],[74.3,11082],[74,11166],[73.9,11250],[73.8,11332],[73.6,11416],[73.6,11500],[73.6,11584],[73.6,11667],[73.6,11749],[73.6,11832],[73.6,11917],[73.6,12000],[73.6,12082],[73.6,12167],[73.6,12250],[73.6,12332],[73.6,12416],[73.6,12500],[73.6,12582]]",1,0,985.157,988.607,75.72916667,1.497,"[{""rating"":75.72916666666667,""responseTime"":1.4969999999999573}]",space,2.919,,988.607,All the time,100,988.608,,,[],,0,12,12,12,1,audio/Narrative8Situation3.wav,audio/Narrative7Situation3.wav,audio/Narrative6Situation3.wav,audio/Narrative5Situation3.wav,4,8,5,3,1.307,,,,,,,,,,,,,,,,,,,,,,,,,,,,,,,,,,,,,,
,,,,,,60a48adfe091e410f4eaba34,2024-05-13_11h27.33.535,group3.1-3.2-social-tom,2023.2.2,Win32,58.82352941,65c5074098b851296ff0b7ed,664231517f18d23ce3bc9dda,,,,,,,,,,,,,,,,,,,,,,,,,,,,,988.608,2,audio/Narrative6Situation4.wav,989.256,space,989.256,1001.857,"[[76.1,1083],[76.5,1168],[76.5,1250],[76.5,1333],[76.1,1418],[75.9,1500],[75.9,1583],[75.9,1666],[75.9,1750],[75.9,1833],[75.8,1916],[75.7,2000],[75.6,2083],[75.6,2166],[75.6,2250],[75.6,2333],[75.6,2418],[75.6,2500],[75.6,2583],[75.6,2666],[75.6,2750],[75.6,2833],[75.6,2916],[75.6,3000],[75.6,3083],[75.6,3168],[75.6,3250],[75.6,3333],[75.6,3418],[75.6,3500],[75.6,3583],[75.6,3668],[75.6,3750],[75.6,3833],[75.6,3916],[75.6,4000],[75.6,4083],[75.6,4166],[75.6,4250],[75.6,4333],[75.6,4418],[75.6,4500],[75.6,4583],[75.6,4668],[75.6,4750],[75.6,4833],[75.6,4916],[75.6,5000],[75.6,5083],[75.6,5168],[75.6,5250],[75.6,5333],[75.6,5418],[75.6,5500],[75.6,5583],[75.6,5666],[75.6,5751],[75.6,5833],[75.6,5916],[75.6,6000],[75.6,6083],[75.6,6168],[76.1,6250],[76.1,6333],[76.1,6416],[75.9,6500],[75.9,6583],[75.9,6668],[76.6,6750],[77.1,6833],[77.8,6918],[78.1,7000],[78.1,7083],[78,7168],[77.5,7250],[77.2,7333],[77.2,7416],[77.2,7500],[77.4,7583],[77.4,7666],[77.4,7750],[77.4,7833],[77.4,7918],[77.4,8000],[77.3,8083],[76.1,8168],[74.9,8250],[74.3,8333],[74.9,8416],[75.8,8500],[76.4,8583],[76.8,8666],[76.8,8750],[76.6,8833],[75.9,8916],[75.8,9000],[75.8,9082],[76.5,9168],[76.9,9250],[77,9333],[77,9416],[76,9500],[74.7,9583],[74.3,9666],[75.1,9750],[76.1,9834],[76.1,9916],[75.9,10000],[75.4,10083],[74.8,10168],[74.4,10250],[74.6,10333],[75.6,10416],[76,10500],[76,10582],[74.8,10666],[73.6,10750],[73.3,10833],[73.6,10918],[74.5,11000],[74.8,11083],[74.8,11168],[73.9,11250],[72.9,11333],[72.1,11418],[72,11500],[73.1,11583],[74,11666],[74.2,11750],[73.9,11833],[72.8,11916],[71.9,12000],[71.6,12082],[71.8,12168],[73.1,12250],[73.3,12333],[73.3,12416],[73.2,12500],[72.3,12583]]",1,0,1001.857,1003.557,74.6875,0.624,"[{""rating"":74.6875,""responseTime"":0.62399999999991}]",space,1.159,,1003.557,Half the time,50,1003.558,,,[],,0,13,13,13,1,audio/Narrative8Situation4.wav,audio/Narrative7Situation4.wav,audio/Narrative6Situation4.wav,audio/Narrative5Situation4.wav,3,3,2,1,0.644,,,,,,,,,,,,,,,,,,,,,,,,,,,,,,,,,,,,,,
