exp_question,consent.started,consent.stopped,consentResponse.keys,consentResponse.rt,consentResponse.duration,participantID,date,expName,psychopyVersion,OS,frameRate,STUDY_ID,SESSION_ID,opening1.started,opening1.stopped,keyEndingOpening1.keys,keyEndingOpening1.rt,keyEndingOpening1.duration,volumeAdjust.started,volumeAdjust.stopped,endingAdjust.keys,endingAdjust.rt,endingAdjust.duration,opening2.started,opening2.stopped,keyEndingOpening.keys,keyEndingOpening.rt,keyEndingOpening.duration,mouse.x,mouse.y,mouse.leftButton,mouse.midButton,mouse.rightButton,mouse.time,instructionLoop.thisRepN,instructionLoop.thisTrialN,instructionLoop.thisN,instructionLoop.thisIndex,instructionLoop.ran,readyForAudio.started,readyForAudio.stopped,fixation.started,run,audio_played,fixation.stopped,endPractice.keys,audioPre.started,audioPre.stopped,continuousResponses_audio,continuousSlider.response,continuousSlider.rt,intRating.started,intRating.stopped,intQuestionSlider.response,intQuestionSlider.rt,intQuestionSlider.history,confirmResponse.keys,confirmResponse.rt,confirmResponse.duration,catchQuestion.started,catch_label,catch_value,catchQuestion.stopped,catchQuestionSlider.response,catchQuestionSlider.rt,catchQuestionSlider.history,confirmResponse_2.keys,audioRunLoop.thisRepN,audioRunLoop.thisTrialN,audioRunLoop.thisN,audioRunLoop.thisIndex,audioRunLoop.ran,conditions1_1,conditions2_1,conditions1_2,conditions2_2,dur1_1,dur2_1,dur1_2,dur2_2,endPractice.rt,endPractice.duration,confirmResponse_2.rt,confirmResponse_2.duration,runIntervalBreak.started,runIntervalBreak.stopped,endingBreakKey.keys,endingBreakKey.rt,endingBreakKey.duration,connection.started,connection.stopped,connectionEnding.keys,connectionEnding.rt,connectionEnding.duration,readyForText.started,readyForText.stopped,textPre.started,run_dup,textPre.stopped,continuousResponses_text,textRunLoop.thisRepN,textRunLoop.thisTrialN,textRunLoop.thisN,textRunLoop.thisIndex,textRunLoop.ran,text1_1,text1_2,text2_1,text2_2,runBreakText.started,runBreakText.stopped,endingBreakKey_2.keys,endingBreakKey_2.rt,endingBreakKey_2.duration,ending.started,ending.stopped,endingEnding.keys,endingEnding.rt,endingEnding.duration
social,0.0006,16.9506,y,16.6242,,60ca4cfb5c287146cad0695a,2024-05-13_11h38.17.097,group3.1-3.2-social-tom,2023.2.2,Linux x86_64,59.52380952,65c5074098b851296ff0b7ed,664233a7bbe63c919b584546,,,,,,,,,,,,,,,,,,,,,,,,,,,,,,,,,,,,,,,,,,,,,,,,,,,,,,,,,,,,,,,,,,,,,,,,,,,,,,,,,,,,,,,,,,,,,,,,,,,,,,,,,,
,,,,,,60ca4cfb5c287146cad0695a,2024-05-13_11h38.17.097,group3.1-3.2-social-tom,2023.2.2,Linux x86_64,59.52380952,65c5074098b851296ff0b7ed,664233a7bbe63c919b584546,16.9509,26.5719,space,9.5968,,,,,,,,,,,,,,,,,,,,,,,,,,,,,,,,,,,,,,,,,,,,,,,,,,,,,,,,,,,,,,,,,,,,,,,,,,,,,,,,,,,,,,,,,,,,,,,,,,,,,,
,,,,,,60ca4cfb5c287146cad0695a,2024-05-13_11h38.17.097,group3.1-3.2-social-tom,2023.2.2,Linux x86_64,59.52380952,65c5074098b851296ff0b7ed,664233a7bbe63c919b584546,,,,,,26.5722,57.7373,space,30.83,,,,,,,,,,,,,,,,,,,,,,,,,,,,,,,,,,,,,,,,,,,,,,,,,,,,,,,,,,,,,,,,,,,,,,,,,,,,,,,,,,,,,,,,,,,,,,,,,
,,,,,,60ca4cfb5c287146cad0695a,2024-05-13_11h38.17.097,group3.1-3.2-social-tom,2023.2.2,Linux x86_64,59.52380952,65c5074098b851296ff0b7ed,664233a7bbe63c919b584546,,,,,,,,,,,57.7614,73.4947,space,15.7017,,[],[],[],[],[],[],0,0,0,0,1,,,,,,,,,,,,,,,,,,,,,,,,,,,,,,,,,,,,,,,,,,,,,,,,,,,,,,,,,,,,,,,,,,,,,,,,,,,,,,,,
,,,,,,60ca4cfb5c287146cad0695a,2024-05-13_11h38.17.097,group3.1-3.2-social-tom,2023.2.2,Linux x86_64,59.52380952,65c5074098b851296ff0b7ed,664233a7bbe63c919b584546,,,,,,,,,,,73.5099,100.8723,space,27.1986,,[],[],[],[],[],[],1,0,1,0,1,,,,,,,,,,,,,,,,,,,,,,,,,,,,,,,,,,,,,,,,,,,,,,,,,,,,,,,,,,,,,,,,,,,,,,,,,,,,,,,,
,,,,,,60ca4cfb5c287146cad0695a,2024-05-13_11h38.17.097,group3.1-3.2-social-tom,2023.2.2,Linux x86_64,59.52380952,65c5074098b851296ff0b7ed,664233a7bbe63c919b584546,,,,,,,,,,,100.9,117.9625,space,16.9792,,[],[],[],[],[],[],2,0,2,0,1,,,,,,,,,,,,,,,,,,,,,,,,,,,,,,,,,,,,,,,,,,,,,,,,,,,,,,,,,,,,,,,,,,,,,,,,,,,,,,,,
,,,,,,60ca4cfb5c287146cad0695a,2024-05-13_11h38.17.097,group3.1-3.2-social-tom,2023.2.2,Linux x86_64,59.52380952,65c5074098b851296ff0b7ed,664233a7bbe63c919b584546,,,,,,,,,,,117.9772,148.3266,space,30.3128,,[],[],[],[],[],[],3,0,3,0,1,,,,,,,,,,,,,,,,,,,,,,,,,,,,,,,,,,,,,,,,,,,,,,,,,,,,,,,,,,,,,,,,,,,,,,,,,,,,,,,,
,,,,,,60ca4cfb5c287146cad0695a,2024-05-13_11h38.17.097,group3.1-3.2-social-tom,2023.2.2,Linux x86_64,59.52380952,65c5074098b851296ff0b7ed,664233a7bbe63c919b584546,,,,,,,,,,,148.3411,166.3845,space,18.0139,,[],[],[],[],[],[],4,0,4,0,1,,,,,,,,,,,,,,,,,,,,,,,,,,,,,,,,,,,,,,,,,,,,,,,,,,,,,,,,,,,,,,,,,,,,,,,,,,,,,,,,
,,,,,,60ca4cfb5c287146cad0695a,2024-05-13_11h38.17.097,group3.1-3.2-social-tom,2023.2.2,Linux x86_64,59.52380952,65c5074098b851296ff0b7ed,664233a7bbe63c919b584546,,,,,,,,,,,,,,,,,,,,,,,,,,,166.4014,168.9702,169.0074,1,audio/Narrative13Situation2.wav,171.0202,,171.0204,200.8024,"[[999,1],[999,116],[999,199],[999,282],[999,366],[999,449],[999,532],[999,616],[999,699],[999,783],[999,866],[999,950],[999,1033],[999,1116],[999,1199],[999,1283],[999,1366],[999,1450],[999,1533],[999,1616],[999,1700],[999,1783],[999,1866],[999,1950],[999,2033],[999,2116],[999,2200],[999,2283],[999,2367],[999,2450],[999,2533],[999,2617],[999,2700],[999,2784],[999,2867],[999,2950],[999,3034],[999,3117],[999,3200],[999,3284],[999,3367],[999,3451],[999,3534],[999,3617],[999,3701],[999,3784],[999,3867],[999,3951],[999,4034],[999,4117],[999,4201],[999,4284],[999,4368],[999,4451],[999,4534],[999,4626],[999,4702],[999,4800],[999,4868],[999,4966],[999,5048],[999,5122],[999,5215],[999,5286],[999,5372],[999,5458],[999,5537],[999,5619],[999,5719],[999,5801],[999,5886],[999,5969],[999,6052],[999,6135],[999,6218],[999,6304],[999,6385],[999,6469],[999,6552],[999,6635],[999,6719],[999,6802],[999,6885],[999,6969],[999,7052],[999,7136],[999,7219],[999,7302],[999,7386],[999,7469],[999,7552],[999,7636],[999,7719],[999,7802],[999,7887],[999,7969],[999,8052],[999,8136],[999,8219],[999,8302],[999,8386],[999,8469],[999,8553],[999,8636],[999,8720],[999,8803],[999,8887],[999,8970],[999,9053],[999,9136],[999,9220],[999,9304],[999,9387],[999,9470],[999,9554],[999,9637],[999,9721],[999,9804],[999,9887],[999,9970],[999,10054],[999,10137],[999,10221],[999,10303],[999,10387],[999,10472],[999,10554],[999,10637],[999,10721],[999,10804],[999,10888],[999,10971],[999,11054],[999,11137],[999,11221],[999,11305],[999,11388],[999,11471],[999,11555],[999,11638],[999,11721],[999,11811],[999,11888],[999,11972],[999,12055],[999,12138],[999,12222],[999,12305],[999,12388],[999,12471],[999,12555],[999,12638],[999,12721],[999,12805],[999,12889],[999,12972],[999,13057],[999,13139],[999,13222],[999,13305],[999,13388],[999,13472],[999,13555],[999,13638],[999,13722],[999,13805],[999,13888],[999,13972],[999,14055],[999,14139],[999,14222],[999,14306],[999,14389],[999,14473],[999,14557],[999,14639],[999,14722],[999,14806],[999,14889],[999,14973],[999,15056],[999,15139],[999,15223],[999,15306],[999,15391],[999,15475],[999,15556],[999,15639],[999,15723],[999,15813],[999,15890],[999,15973],[999,16056],[999,16140],[999,16223],[999,16307],[999,16390],[999,16480],[999,16556],[999,16640],[999,16723],[999,16806],[999,16890],[999,16973],[999,17058],[999,17141],[999,17224],[999,17308],[999,17391],[999,17473],[999,17557],[999,17640],[999,17724],[999,17808],[999,17891],[999,17974],[999,18057],[999,18140],[999,18224],[999,18307],[999,18391],[999,18474],[999,18557],[999,18641],[999,18725],[999,18810],[999,18892],[999,18975],[999,19058],[999,19141],[999,19224],[999,19308],[999,19391],[999,19475],[999,19559],[999,19641],[999,19725],[999,19808],[999,19891],[999,19975],[999,20058],[999,20141],[999,20225],[999,20309],[999,20393],[999,20476],[999,20558],[999,20642],[999,20725],[999,20809],[999,20892],[999,20975],[999,21059],[999,21142],[999,21226],[999,21309],[999,21392],[999,21476],[999,21560],[999,21643],[999,21726],[999,21810],[999,21893],[999,21976],[999,22059],[999,22142],[999,22226],[999,22309],[999,22392],[999,22477],[999,22560],[999,22643],[999,22726],[999,22810],[999,22894],[999,22976],[999,23060],[999,23143],[999,23226],[999,23310],[999,23393],[999,23477],[999,23560],[999,23643],[999,23726],[999,23810],[999,23893],[999,23977],[999,24060],[999,24144],[999,24229],[999,24310],[999,24393],[999,24477],[999,24561],[999,24643],[999,24727],[999,24811],[999,24894],[999,24978],[999,25060],[999,25144],[999,25227],[999,25310],[999,25394],[999,25477],[999,25560],[999,25644],[999,25728],[999,25811],[999,25895],[999,25978],[999,26061],[999,26144],[999,26228],[999,26311],[999,26394],[999,26494],[999,26578],[999,26662],[999,26744],[999,26828],[999,26911],[999,26995],[999,27078],[999,27161],[999,27244],[999,27328],[999,27411],[999,27495],[999,27578],[999,27661],[999,27745],[999,27828],[999,27911],[999,27995],[999,28078],[999,28162],[999,28245],[999,28329],[999,28412],[999,28495],[999,28579],[999,28663],[999,28745],[999,28829],[999,28912],[999,28995],[999,29079],[999,29162],[999,29246],[999,29329],[999,29412],[999,29496],[999,29579],[999,29671],[999,29746]]",1,0,200.803,209.9051,49.84191366,6.4944,"[{""rating"":49.84191366386458,""responseTime"":6.494399999998507}]",space,8.5587,,209.9055,Partially,50,209.9119,,,[],,0,0,0,0,1,audio/Narrative13Situation2.wav,audio/Narrative13Situation2.wav,audio/Narrative13Situation2.wav,audio/Narrative13Situation2.wav,2,2,2,2,,,,,,,,,,,,,,,,,,,,,,,,,,,,,,,,,,,,,,,
,,,,,,60ca4cfb5c287146cad0695a,2024-05-13_11h38.17.097,group3.1-3.2-social-tom,2023.2.2,Linux x86_64,59.52380952,65c5074098b851296ff0b7ed,664233a7bbe63c919b584546,,,,,,,,,,,,,,,,,,,,,,,,,,,,,209.9125,1,audio/Narrative8Situation1.wav,213.3397,space,213.3398,229.28,"[[999,15],[999,99],[999,182],[999,265],[999,349],[999,432],[999,516],[999,599],[999,682],[999,766],[999,849],[999,932],[999,1016],[999,1099],[999,1182],[999,1266],[999,1349],[999,1433],[999,1516],[999,1599],[999,1683],[999,1766],[999,1849],[999,1933],[999,2017],[999,2100],[999,2183],[999,2266],[999,2350],[999,2433],[999,2516],[999,2600],[999,2683],[999,2766],[999,2850],[999,2933],[999,3016],[999,3100],[999,3183],[999,3267],[999,3350],[999,3434],[999,3517],[999,3600],[999,3684],[999,3767],[999,3850],[999,3934],[999,4017],[999,4101],[999,4184],[999,4268],[999,4350],[999,4434],[999,4518],[999,4601],[999,4684],[999,4767],[999,4851],[999,4934],[999,5017],[999,5101],[999,5185],[999,5268],[999,5351],[999,5434],[999,5518],[999,5601],[999,5685],[999,5768],[999,5851],[999,5935],[999,6018],[999,6101],[999,6186],[999,6274],[999,6352],[999,6435],[999,6518],[999,6602],[999,6685],[999,6769],[999,6852],[999,6935],[999,7019],[999,7102],[999,7186],[999,7269],[999,7352],[999,7435],[999,7519],[999,7602],[999,7686],[999,7769],[999,7853],[999,7935],[999,8019],[999,8102],[999,8186],[999,8269],[999,8353],[999,8436],[999,8519],[999,8602],[999,8686],[999,8769],[999,8853],[999,8936],[999,9020],[999,9103],[999,9186],[999,9270],[999,9354],[999,9436],[999,9520],[999,9603],[999,9686],[999,9770],[999,9853],[999,9936],[999,10020],[999,10103],[999,10187],[999,10270],[999,10353],[999,10437],[999,10520],[999,10604],[999,10687],[999,10770],[999,10854],[999,10937],[999,11020],[999,11104],[999,11187],[999,11271],[999,11354],[999,11437],[999,11521],[999,11604],[999,11687],[999,11770],[999,11854],[999,11938],[999,12021],[999,12105],[999,12188],[999,12271],[999,12354],[999,12438],[999,12522],[999,12605],[999,12688],[999,12772],[999,12855],[999,12939],[999,13022],[999,13105],[999,13189],[999,13271],[999,13355],[999,13438],[999,13522],[999,13604],[999,13690],[999,13771],[999,13855],[999,13938],[999,14022],[999,14106],[999,14189],[999,14272],[999,14355],[999,14439],[999,14522],[999,14605],[999,14688],[999,14772],[999,14856],[999,14939],[999,15022],[999,15106],[999,15189],[999,15272],[999,15356],[999,15439],[999,15523],[999,15606],[999,15689],[999,15772],[999,15856],[999,15939]]",1,0,229.2802,240.7182,94.86793662,8.2208,"[{""rating"":94.86793661906361,""responseTime"":8.22080000000446}]",space,10.8899,,240.7184,Not at all,0,240.7249,,,[],,0,1,1,1,1,audio/Narrative7Situation1.wav,audio/Narrative8Situation1.wav,audio/Narrative5Situation1.wav,audio/Narrative6Situation1.wav,2,5,5,2,3.4117,,,,,,,,,,,,,,,,,,,,,,,,,,,,,,,,,,,,,,
,,,,,,60ca4cfb5c287146cad0695a,2024-05-13_11h38.17.097,group3.1-3.2-social-tom,2023.2.2,Linux x86_64,59.52380952,65c5074098b851296ff0b7ed,664233a7bbe63c919b584546,,,,,,,,,,,,,,,,,,,,,,,,,,,,,240.7254,1,audio/Narrative8Situation2.wav,243.7363,,243.7364,253.8576,"[[999,13],[999,82],[999,166],[999,249],[999,333],[999,416],[999,500],[999,583],[999,667],[999,749],[999,833],[999,916],[999,1000],[999,1083],[999,1166],[999,1250],[999,1333],[999,1416],[999,1500],[999,1583],[999,1667],[999,1750],[999,1833],[999,1917],[999,2000],[999,2083],[999,2167],[999,2250],[999,2333],[999,2417],[999,2500],[999,2584],[999,2667],[999,2750],[999,2834],[999,2917],[999,3001],[999,3084],[999,3167],[999,3251],[999,3334],[999,3417],[999,3501],[999,3584],[999,3668],[999,3751],[999,3834],[999,3918],[999,4001],[999,4084],[999,4168],[999,4251],[999,4334],[999,4418],[999,4501],[999,4585],[999,4669],[999,4751],[999,4835],[999,4918],[999,5002],[999,5085],[999,5168],[999,5252],[999,5335],[999,5418],[999,5501],[999,5585],[999,5669],[999,5752],[999,5835],[999,5918],[999,6002],[999,6087],[999,6169],[999,6252],[999,6335],[999,6419],[999,6502],[999,6586],[999,6669],[999,6752],[999,6836],[999,6919],[999,7002],[999,7086],[999,7170],[999,7252],[999,7336],[999,7419],[999,7502],[999,7586],[999,7670],[999,7753],[999,7837],[999,7919],[999,8003],[999,8087],[999,8170],[999,8253],[999,8336],[999,8420],[999,8503],[999,8586],[999,8670],[999,8753],[999,8837],[999,8920],[999,9003],[999,9087],[999,9170],[999,9253],[999,9337],[999,9420],[999,9503],[999,9587],[999,9671],[999,9754],[999,9837],[999,9920],[999,10004],[999,10087]]",1,0,253.8579,260.4605,0.239771773,3.1459,"[{""rating"":0.23977177344967626,""responseTime"":3.1458999999985053}]",space,6.072,,260.4606,Not at all,0,260.4767,,,[],,0,2,2,2,1,audio/Narrative7Situation2.wav,audio/Narrative8Situation2.wav,audio/Narrative5Situation2.wav,audio/Narrative6Situation2.wav,3,3,3,3,,,,,,,,,,,,,,,,,,,,,,,,,,,,,,,,,,,,,,,
,,,,,,60ca4cfb5c287146cad0695a,2024-05-13_11h38.17.097,group3.1-3.2-social-tom,2023.2.2,Linux x86_64,59.52380952,65c5074098b851296ff0b7ed,664233a7bbe63c919b584546,,,,,,,,,,,,,,,,,,,,,,,,,,,,,260.4771,1,audio/Narrative8Situation3.wav,264.4791,,264.4798,286.8727,"[[999,13],[999,98],[999,182],[999,265],[999,349],[999,432],[999,515],[999,599],[999,682],[999,768],[999,849],[999,932],[999,1016],[999,1099],[999,1182],[999,1266],[999,1349],[999,1432],[999,1516],[999,1599],[999,1682],[999,1766],[999,1849],[999,1933],[999,2016],[999,2100],[999,2183],[999,2266],[999,2350],[999,2433],[999,2516],[999,2600],[999,2683],[999,2766],[999,2850],[999,2933],[999,3017],[999,3100],[999,3183],[999,3267],[999,3350],[999,3433],[999,3517],[999,3600],[999,3683],[999,3767],[999,3850],[999,3934],[999,4017],[999,4100],[999,4184],[999,4267],[999,4351],[999,4434],[999,4518],[999,4601],[999,4684],[999,4768],[999,4850],[999,4934],[999,5018],[999,5101],[999,5184],[999,5268],[999,5351],[999,5435],[999,5518],[999,5601],[999,5684],[999,5768],[999,5851],[999,5935],[999,6018],[999,6101],[999,6185],[999,6268],[999,6352],[999,6435],[999,6518],[999,6601],[999,6685],[999,6768],[999,6852],[999,6935],[999,7019],[999,7102],[999,7185],[999,7268],[999,7352],[999,7435],[999,7519],[999,7602],[999,7686],[999,7769],[999,7852],[999,7936],[999,8019],[999,8102],[999,8186],[999,8269],[999,8352],[999,8436],[999,8519],[999,8603],[999,8686],[999,8769],[999,8853],[999,8936],[999,9019],[999,9103],[999,9186],[999,9270],[999,9353],[999,9436],[999,9519],[999,9602],[999,9686],[999,9769],[999,9853],[999,9936],[999,10020],[999,10103],[999,10187],[999,10270],[999,10353],[999,10437],[999,10520],[999,10603],[999,10686],[999,10770],[999,10853],[999,10937],[999,11020],[999,11104],[999,11187],[999,11270],[999,11354],[999,11437],[999,11520],[999,11603],[999,11687],[999,11770],[999,11854],[999,11937],[999,12021],[999,12104],[999,12187],[999,12271],[999,12354],[999,12438],[999,12521],[999,12604],[999,12687],[999,12771],[999,12854],[999,12938],[999,13021],[999,13105],[999,13188],[999,13271],[999,13355],[999,13438],[999,13521],[999,13605],[999,13688],[999,13771],[999,13855],[999,13938],[999,14022],[999,14105],[999,14188],[999,14272],[999,14355],[999,14439],[999,14522],[999,14605],[999,14689],[999,14772],[999,14855],[999,14939],[999,15022],[999,15105],[999,15190],[999,15272],[999,15355],[999,15439],[999,15522],[999,15605],[999,15689],[999,15773],[999,15856],[999,15940],[999,16022],[999,16106],[999,16189],[999,16273],[999,16356],[999,16439],[999,16523],[999,16606],[999,16689],[999,16773],[999,16856],[999,16939],[999,17023],[999,17107],[999,17189],[999,17273],[999,17356],[999,17440],[999,17523],[999,17606],[999,17690],[999,17773],[999,17857],[999,17940],[999,18023],[999,18107],[999,18190],[999,18273],[999,18357],[999,18440],[999,18524],[999,18607],[999,18690],[999,18774],[999,18857],[999,18940],[999,19024],[999,19107],[999,19190],[999,19274],[999,19357],[999,19441],[999,19524],[999,19607],[999,19691],[999,19774],[999,19858],[999,19941],[999,20024],[999,20107],[999,20192],[999,20275],[999,20358],[999,20441],[999,20525],[999,20608],[999,20691],[999,20775],[999,20858],[999,20941],[999,21025],[999,21108],[999,21192],[999,21275],[999,21359],[999,21442],[999,21525],[999,21608],[999,21692],[999,21775],[999,21858],[999,21942],[999,22025],[999,22108],[999,22192],[999,22275],[999,22359]]",1,0,286.8729,290.7911,15.88247364,2.2817,"[{""rating"":15.88247363702443,""responseTime"":2.28169999999551}]",space,3.37,,290.7911,Definitely yes,100,290.7972,,,[],,0,3,3,3,1,audio/Narrative7Situation3.wav,audio/Narrative8Situation3.wav,audio/Narrative5Situation3.wav,audio/Narrative6Situation3.wav,8,4,3,5,,,,,,,,,,,,,,,,,,,,,,,,,,,,,,,,,,,,,,,
,,,,,,60ca4cfb5c287146cad0695a,2024-05-13_11h38.17.097,group3.1-3.2-social-tom,2023.2.2,Linux x86_64,59.52380952,65c5074098b851296ff0b7ed,664233a7bbe63c919b584546,,,,,,,,,,,,,,,,,,,,,,,,,,,,,290.7976,1,audio/Narrative8Situation4.wav,293.8086,,293.8087,307.9827,"[[999,13],[999,83],[999,166],[999,250],[999,333],[999,417],[999,500],[999,583],[999,666],[999,750],[999,833],[999,917],[999,1000],[999,1083],[999,1167],[999,1250],[999,1334],[999,1417],[999,1500],[999,1583],[999,1667],[999,1750],[999,1834],[999,1917],[999,2001],[999,2084],[999,2167],[999,2251],[999,2334],[999,2418],[999,2501],[999,2584],[999,2668],[999,2751],[999,2834],[999,2918],[999,3002],[999,3085],[999,3168],[999,3251],[999,3334],[999,3418],[999,3501],[999,3585],[999,3668],[999,3751],[999,3835],[999,3918],[999,4001],[999,4085],[999,4168],[999,4252],[999,4335],[999,4418],[999,4502],[999,4585],[999,4668],[999,4752],[999,4835],[999,4919],[999,5002],[999,5085],[999,5168],[999,5252],[999,5336],[999,5419],[999,5502],[999,5585],[999,5669],[999,5752],[999,5836],[999,5919],[999,6002],[999,6086],[999,6169],[999,6253],[999,6336],[999,6419],[999,6503],[999,6586],[999,6669],[999,6753],[999,6836],[999,6919],[999,7003],[999,7087],[999,7170],[999,7253],[999,7336],[999,7419],[999,7503],[999,7586],[999,7670],[999,7753],[999,7836],[999,7920],[999,8004],[999,8087],[999,8170],[999,8253],[999,8336],[999,8421],[999,8504],[999,8587],[999,8670],[999,8754],[999,8837],[999,8920],[999,9004],[999,9087],[999,9170],[999,9254],[999,9337],[999,9420],[999,9504],[999,9588],[999,9671],[999,9754],[999,9837],[999,9921],[999,10004],[999,10087],[999,10171],[999,10255],[999,10338],[999,10421],[999,10504],[999,10588],[999,10671],[999,10754],[999,10838],[999,10921],[999,11004],[999,11088],[999,11171],[999,11255],[999,11338],[999,11422],[999,11504],[999,11588],[999,11672],[999,11755],[999,11839],[999,11922],[999,12005],[999,12088],[999,12172],[999,12256],[999,12339],[999,12422],[999,12506],[999,12588],[999,12672],[999,12755],[999,12839],[999,12922],[999,13006],[999,13089],[999,13172],[999,13255],[999,13339],[999,13423],[999,13506],[99.7,13595],[100,13673],[100,13756],[100,13840],[100,13923],[100,14007],[100,14090],[99.8,14173]]",1,0,307.9829,310.4005,98.71425246,1.1453,"[{""rating"":98.61932120772306,""responseTime"":0.443800000004444},{""rating"":98.71425245944579,""responseTime"":1.145300000004454}]",space,1.8688,,310.4007,Partially,50,310.407,,,[],,0,4,4,4,1,audio/Narrative7Situation4.wav,audio/Narrative8Situation4.wav,audio/Narrative5Situation4.wav,audio/Narrative6Situation4.wav,3,3,1,2,,,,,,,,,,,,,,,,,,,,,,,,,,,,,,,,,,,,,,,
,,,,,,60ca4cfb5c287146cad0695a,2024-05-13_11h38.17.097,group3.1-3.2-social-tom,2023.2.2,Linux x86_64,59.52380952,65c5074098b851296ff0b7ed,664233a7bbe63c919b584546,,,,,,,,,,,,,,,,,,,,,,,,,,,,,310.4075,1,audio/Narrative8Situation5.wav,312.4174,,312.4175,320.6649,"[[999,0],[999,83],[999,166],[999,250],[999,333],[999,416],[999,500],[999,583],[999,669],[999,752],[999,836],[999,917],[999,1000],[999,1083],[999,1167],[999,1250],[999,1333],[999,1417],[999,1501],[999,1585],[999,1667],[999,1750],[999,1834],[999,1917],[999,2000],[999,2083],[999,2167],[999,2250],[999,2334],[999,2417],[999,2500],[999,2584],[999,2667],[999,2751],[999,2836],[999,2917],[999,3002],[999,3084],[999,3168],[999,3251],[999,3334],[999,3417],[999,3501],[999,3585],[999,3668],[999,3751],[999,3834],[999,3918],[999,4001],[999,4084],[999,4168],[999,4251],[999,4335],[999,4418],[999,4502],[999,4585],[999,4668],[999,4751],[999,4835],[999,4918],[999,5002],[999,5085],[999,5168],[999,5252],[999,5335],[999,5418],[999,5502],[999,5586],[999,5669],[999,5752],[999,5835],[999,5919],[999,6002],[999,6086],[999,6169],[999,6252],[999,6335],[999,6420],[999,6502],[999,6586],[999,6669],[999,6753],[999,6836],[999,6919],[999,7009],[999,7102],[999,7186],[999,7269],[999,7353],[999,7436],[999,7519],[999,7603],[999,7686],[999,7769],[999,7853],[999,7936],[999,8020],[999,8103],[999,8186]]",1,0,320.665,323.2559,91.19607686,1.6198,"[{""rating"":91.19607685503038,""responseTime"":1.619799999997042}]",space,2.0551,,323.256,Definitely yes,100,323.2637,,,[],,0,5,5,5,1,audio/Narrative7Situation5.wav,audio/Narrative8Situation5.wav,audio/Narrative5Situation5.wav,audio/Narrative6Situation5.wav,5,2,5,2,,,,,,,,,,,,,,,,,,,,,,,,,,,,,,,,,,,,,,,
,,,,,,60ca4cfb5c287146cad0695a,2024-05-13_11h38.17.097,group3.1-3.2-social-tom,2023.2.2,Linux x86_64,59.52380952,65c5074098b851296ff0b7ed,664233a7bbe63c919b584546,,,,,,,,,,,,,,,,,,,,,,,,,,,,,323.2645,1,audio/Narrative8Situation6.wav,325.2732,,325.2732,331.7425,[],1,0,331.7427,334.8276,77.86562561,2.2181,"[{""rating"":77.86562560515947,""responseTime"":2.2181000000014706}]",space,2.553,,334.8277,Definitely yes,100,361.2069,99.96233387,23.9072,"[{""rating"":99.96233387291306,""responseTime"":23.907200000002945}]",space,0,6,6,6,1,audio/Narrative7Situation6.wav,audio/Narrative8Situation6.wav,audio/Narrative5Situation6.wav,audio/Narrative6Situation6.wav,3,2,3,2,,,25.8518,,,,,,,,,,,,,,,,,,,,,,,,,,,,,,,,,,,,
,,,,,,60ca4cfb5c287146cad0695a,2024-05-13_11h38.17.097,group3.1-3.2-social-tom,2023.2.2,Linux x86_64,59.52380952,65c5074098b851296ff0b7ed,664233a7bbe63c919b584546,,,,,,,,,,,,,,,,,,,,,,,,,,,,,361.2073,1,audio/Narrative8Situation7.wav,364.2082,,364.2084,376.2964,[],1,0,376.2966,382.4322,0.22982514,4.6119,"[{""rating"":0.22982513967185758,""responseTime"":4.6118999999985135}]",space,5.5884,,382.4324,Not at all,0,382.4391,,,[],,0,7,7,7,1,audio/Narrative7Situation7.wav,audio/Narrative8Situation7.wav,audio/Narrative5Situation7.wav,audio/Narrative6Situation7.wav,5,3,4,5,,,,,,,,,,,,,,,,,,,,,,,,,,,,,,,,,,,,,,,
,,,,,,60ca4cfb5c287146cad0695a,2024-05-13_11h38.17.097,group3.1-3.2-social-tom,2023.2.2,Linux x86_64,59.52380952,65c5074098b851296ff0b7ed,664233a7bbe63c919b584546,,,,,,,,,,,,,,,,,,,,,,,,,,,,,382.4396,1,audio/Narrative8Situation8.wav,385.4504,,385.4504,398.3065,"[[999,0],[999,83],[999,166],[999,249],[999,333],[999,416],[999,499],[999,583],[999,666],[999,749],[999,833],[999,917],[999,1000],[999,1083],[999,1167],[999,1250],[999,1334],[999,1417],[999,1500],[999,1583],[999,1667],[999,1750],[999,1834],[999,1917],[999,2000],[999,2084],[999,2168],[999,2250],[999,2334],[999,2417],[999,2500],[999,2584],[999,2667],[999,2750],[999,2834],[999,2917],[999,3000],[999,3084],[999,3167],[999,3251],[999,3334],[999,3417],[999,3501],[999,3584],[999,3667],[999,3751],[999,3834],[999,3918],[999,4001],[999,4084],[999,4168],[999,4251],[999,4335],[999,4418],[999,4501],[999,4585],[999,4668],[999,4751],[999,4835],[999,4918],[999,5001],[999,5085],[999,5168],[999,5252],[999,5335],[999,5418],[999,5502],[999,5585],[999,5668],[999,5752],[999,5835],[999,5919],[999,6002],[999,6086],[999,6169],[999,6252],[999,6336],[999,6419],[999,6502],[999,6585],[999,6669],[999,6752],[999,6836],[999,6919],[999,7002],[999,7086],[999,7169],[999,7252],[999,7336],[999,7419],[999,7503],[999,7586],[999,7670],[999,7753],[999,7836],[999,7920],[999,8003],[999,8087],[999,8170],[999,8253],[999,8337],[999,8420],[999,8504],[999,8587],[999,8670],[999,8753],[999,8837],[999,8920],[999,9003],[999,9087],[999,9170],[999,9254],[999,9337],[999,9421],[999,9504],[999,9587],[999,9671],[999,9754],[999,9837],[999,9921],[999,10003],[999,10087],[999,10171],[999,10254],[999,10338],[999,10420],[999,10504],[999,10587],[999,10671],[999,10755],[999,10837],[999,10921],[999,11004],[999,11088],[999,11171],[999,11255],[999,11338],[999,11421],[999,11504],[999,11588],[999,11671],[999,11755],[999,11838],[999,11921],[999,12005],[999,12088],[999,12171],[999,12255],[999,12338],[999,12422],[999,12505],[999,12588],[999,12672],[999,12755],[999,12838]]",1,0,398.3069,405.4926,6.676936444,5.8141,"[{""rating"":6.676936444041109,""responseTime"":5.814100000001474}]",space,6.6393,,405.4927,Definitely yes,100,405.499,,,[],,0,8,8,8,1,audio/Narrative7Situation8.wav,audio/Narrative8Situation8.wav,audio/Narrative5Situation8.wav,audio/Narrative6Situation8.wav,2,3,3,5,,,,,,,,,,,,,,,,,,,,,,,,,,,,,,,,,,,,,,,
,,,,,,60ca4cfb5c287146cad0695a,2024-05-13_11h38.17.097,group3.1-3.2-social-tom,2023.2.2,Linux x86_64,59.52380952,65c5074098b851296ff0b7ed,664233a7bbe63c919b584546,,,,,,,,,,,,,,,,,,,,,,,,,,,,,405.4995,1,audio/Narrative8Situation9.wav,408.5108,,408.5109,419.8159,[],1,0,419.8161,422.7338,8.749181298,1.4602,"[{""rating"":8.749181297841474,""responseTime"":1.4601999999954955}]",space,2.3851,,422.7339,Partially,50,422.7398,,,[],,0,9,9,9,1,audio/Narrative7Situation9.wav,audio/Narrative8Situation9.wav,audio/Narrative5Situation9.wav,audio/Narrative6Situation9.wav,2,3,3,4,,,,,,,,,,,,,,,,,,,,,,,,,,,,,,,,,,,,,,,
,,,,,,60ca4cfb5c287146cad0695a,2024-05-13_11h38.17.097,group3.1-3.2-social-tom,2023.2.2,Linux x86_64,59.52380952,65c5074098b851296ff0b7ed,664233a7bbe63c919b584546,,,,,,,,,,,,,,,,,,,,,,,,,,,,,422.7403,1,audio/Narrative7Situation1.wav,424.7521,,424.7521,480.6436,"[[9.1,15506],[10.2,15589],[6.2,17090],[4.1,17174],[3.6,17257],[3.4,17340],[3.4,17423],[3.4,17507],[3.4,17591],[3.4,17673],[3.4,17757],[3.4,17840],[3.4,17923],[3.4,18007],[3.4,18090],[3.4,18174],[3.4,18257],[3.4,18340],[3.4,18424],[3.4,18507],[3.5,18591],[5.2,18674],[5.8,18757],[6.1,18841],[6.3,18924],[6.3,19008],[6.3,19091],[6.3,19174],[6.3,19257],[6.3,19341],[6.3,19424],[6.3,19508],[6.3,19591],[6.3,19675],[6.4,19758],[6.4,19842],[6.4,19925],[6.4,20008],[6.4,20091],[6.4,20175],[6.4,20258],[6.4,20341],[6.4,20425],[6.4,20509],[6.4,20591],[6.4,20675],[6.4,20759],[6.4,20841],[6.4,20925],[6.4,21008],[6.5,21092],[6.5,21175],[6.5,21258],[6.5,21342],[6.5,21425],[6.5,21508],[6.5,21592],[6.5,21675],[6.5,21759],[6.5,21842],[6.5,21925],[6.5,22009],[6.5,22092],[6.5,22175],[6.5,22259],[6.5,22342],[6.5,22425],[6.5,22509],[6.5,22592],[6.5,22676],[6.5,22759],[6.5,22843],[6.5,22926],[6.5,23009],[6.5,23093],[6.5,23176],[6.5,23261],[6.5,23342],[6.5,23426],[6.5,23509],[6.5,23593],[6.5,23676],[6.5,23760],[6.5,23843],[6.5,23926],[6.5,24009],[6.5,24093],[6.5,24176],[6.5,24259],[6.5,24343],[6.5,24426],[6.5,24510],[6.5,24594],[6.5,24677],[6.5,24760],[6.5,24843],[6.5,24927],[6.5,25010],[6.5,25093],[6.5,25177],[6.5,25260],[6.5,25343],[6.5,25427],[6.5,25511],[6.5,25593],[6.5,25677],[6.5,25761],[6.5,25844],[6.5,25927],[6.5,26011],[6.5,26094],[6.5,26177],[6.5,26260],[6.5,26344],[6.5,26427],[6.5,26511],[6.5,26594],[6.5,26678],[6.5,26761],[6.5,26845],[6.5,26928],[6.5,27011],[6.5,27095],[6.5,27177],[6.5,27261],[6.5,27344],[6.5,27428],[6.5,27511],[6.5,27595],[6.5,27678],[6.5,27761],[6.5,27845],[6.5,27928],[6.5,28011],[6.5,28095],[6.5,28178],[6.5,28261],[6.5,28345],[6.5,28428],[6.5,28512],[6.5,28595],[6.5,28679],[6.5,28762],[6.5,28845],[6.5,28928],[6.5,29012],[6.5,29096],[6.5,29178],[6.5,29262],[6.5,29345],[6.5,29429],[6.5,29512],[6.5,29595],[6.5,29679],[6.5,29762],[6.5,29846],[6.5,29929],[6.5,30013],[6.5,30095],[6.5,30179],[6.5,30262],[6.5,30346],[6.5,30430],[6.5,30512],[6.5,30596],[6.5,30679],[6.5,30763],[6.5,30846],[6.5,30930],[6.5,31013],[6.5,31096],[6.5,31180],[6.5,31263],[6.5,31346],[6.5,31429],[6.5,31513],[6.5,31596],[6.5,31680],[6.5,31763],[6.5,31848],[6.5,31931],[6.7,32013],[8.1,32097],[9.6,32180],[10.1,32263],[10.3,32348],[10.3,32430],[10.3,32513],[10.3,32597],[10.3,32680],[10.3,32763],[10.3,32847],[10.3,32930],[10.3,33014],[10.3,33097],[10.3,33181],[10.3,33264],[10.3,33347],[10.3,33431],[10.3,33514],[10.3,33597],[10.3,33681],[10.4,33764],[10.4,33847],[10.4,33931],[10.5,34015],[10.5,34098],[10.5,34181],[10.5,34264],[10.5,34348],[10.6,34431],[10.6,34514],[10.6,34597],[10.6,34681],[10.6,34764],[10.6,34848],[10.6,34931],[10.6,35015],[10.6,35098],[10.6,35181],[10.6,35264],[10.6,35348],[10.6,35431],[10.6,35514],[10.6,35598],[10.6,35681],[10.6,35765],[10.6,35848],[10.6,35932],[10.6,36015],[10.6,36098],[10.6,36182],[10.6,36265],[10.6,36348],[10.6,36432],[10.6,36515],[10.6,36599],[10.6,36682],[10.6,36766],[10.6,36849],[10.6,36932],[10.6,37015],[10.6,37099],[10.6,37182],[10.6,37266],[10.6,37349],[10.6,37432],[10.6,37516],[10.6,37599],[10.6,37682],[10.6,37766],[10.6,37849],[10.6,37932],[10.6,38016],[10.6,38100],[10.6,38183],[10.6,38266],[10.6,38349],[10.6,38433],[10.6,38516],[10.6,38599],[10.6,38683],[10.6,38766],[10.6,38850],[10.7,38933],[10.7,39016],[10.7,39100],[10.7,39183],[10.7,39267],[10.7,39350],[10.7,39433],[10.7,39516],[10.7,39600],[10.7,39683],[10.7,39766],[10.7,39850],[10.7,39934],[10.7,40017],[10.7,40101],[10.7,40184],[10.7,40267],[10.7,40350],[10.7,40434],[10.7,40517],[10.7,40600],[10.7,40684],[10.7,40767],[10.7,40850],[10.7,40934],[10.7,41017],[10.7,41101],[10.7,41184],[10.7,41268],[10.7,41351],[10.7,41434],[10.7,41518],[10.7,41601],[10.7,41684],[10.7,41768],[10.7,41851],[10.7,41934],[10.7,42018],[10.7,42101],[10.7,42184],[10.7,42268],[10.7,42351],[10.7,42435],[10.7,42518],[10.7,42601],[10.7,42685],[10.7,42768],[10.7,42852],[10.7,42935],[10.7,43018],[10.7,43101],[10.7,43185],[10.7,43268],[10.7,43354],[10.7,43435],[10.7,43518],[11,43609],[20.9,43686],[38.1,43769],[42.1,43853],[42.2,43935],[42.2,44019],[42.2,44102],[42.2,44185],[42.2,44269],[85.2,44352],[89.9,44436],[90,44519],[90,44602],[90,44686],[90,44769],[90,44852],[90,44936],[90,45019],[90,45102],[90,45186],[90,45269],[90,45352],[90,45436],[90,45520],[90,45603],[90,45686],[90,45769],[90,45853],[90,45936],[90,46019],[90,46103],[90,46186],[90,46270],[90,46353],[90,46436],[90,46520],[90,46603],[90,46687],[90,46770],[90,46853],[90,46937],[90,47020],[90,47104],[90,47187],[90,47270],[90,47353],[90,47437],[90,47520],[90,47603],[90,47687],[90,47770],[90,47854],[90,47937],[90,48020],[90,48104],[90,48187],[90,48270],[90,48354],[90,48437],[90,48521],[90,48604],[90,48688],[90,48771],[90,48854],[90,48937],[90,49021],[90,49104],[90,49187],[90,49271],[90,49355],[90,49438],[90,49521],[90,49604],[90,49688],[90,49771],[90,49855],[90,49938],[90,50021],[90,50105],[90,50188],[90,50271],[90,50355],[90,50438],[90,50521],[90,50605],[90,50688],[90,50772],[90,50855],[90,50938],[90,51022],[90,51105],[90,51189],[90,51272],[90,51355],[90,51438],[90,51522],[90,51605],[90,51689],[90,51772],[90,51855],[90,51939],[90,52023],[90,52105],[90,52189],[90,52272],[88.1,52360],[82.3,52439],[72.4,52523],[69.1,52606],[67.8,52690],[67.4,52774],[67.3,52856],[67.3,52939],[67.3,53023],[67.3,53106],[67.3,53189],[67.3,53273],[66.7,53357],[65.4,53440],[64.9,53523],[64.4,53607],[63.8,53690],[63.4,53774],[63.2,53857],[63.1,53940],[63.1,54023],[63.1,54107],[63.1,54190],[63.1,54274],[63.1,54357],[63.1,54440],[63.1,54523],[63.1,54607],[63.1,54690],[63.1,54773],[63.1,54857],[63.1,54940],[63.1,55024],[63.1,55107],[63.1,55190],[63.1,55274],[63.1,55357],[63.1,55440],[63.1,55524],[63.1,55607],[63.1,55690],[63.1,55774],[63.1,55858]]",1,0,480.6441,490.932,42.62225769,8.1987,"[{""rating"":42.62225768677479,""responseTime"":8.19870000000293}]",space,9.7379,,490.9321,Not at all,0,490.9381,,,[],,0,10,10,10,1,audio/Narrative8Situation1.wav,audio/Narrative7Situation1.wav,audio/Narrative6Situation1.wav,audio/Narrative5Situation1.wav,5,2,2,5,,,,,,,,,,,,,,,,,,,,,,,,,,,,,,,,,,,,,,,
,,,,,,60ca4cfb5c287146cad0695a,2024-05-13_11h38.17.097,group3.1-3.2-social-tom,2023.2.2,Linux x86_64,59.52380952,65c5074098b851296ff0b7ed,664233a7bbe63c919b584546,,,,,,,,,,,,,,,,,,,,,,,,,,,,,490.9385,1,audio/Narrative7Situation2.wav,493.9493,,493.9494,501.4195,[],1,0,501.4197,507.072,98.54216042,2.8646,"[{""rating"":98.54216041731722,""responseTime"":2.8646000000014737}]",space,5.1178,,507.0721,Definitely yes,100,507.0783,,,[],,0,11,11,11,1,audio/Narrative8Situation2.wav,audio/Narrative7Situation2.wav,audio/Narrative6Situation2.wav,audio/Narrative5Situation2.wav,3,3,3,3,,,,,,,,,,,,,,,,,,,,,,,,,,,,,,,,,,,,,,,
,,,,,,60ca4cfb5c287146cad0695a,2024-05-13_11h38.17.097,group3.1-3.2-social-tom,2023.2.2,Linux x86_64,59.52380952,65c5074098b851296ff0b7ed,664233a7bbe63c919b584546,,,,,,,,,,,,,,,,,,,,,,,,,,,,,507.079,1,audio/Narrative7Situation3.wav,515.0923,,515.0923,524.33,[],1,0,524.3302,528.566,6.216874478,2.8315,"[{""rating"":6.216874478318951,""responseTime"":2.8315000000000055}]",space,3.7044,,528.5661,Partially,50,528.5717,,,[],,0,12,12,12,1,audio/Narrative8Situation3.wav,audio/Narrative7Situation3.wav,audio/Narrative6Situation3.wav,audio/Narrative5Situation3.wav,4,8,5,3,,,,,,,,,,,,,,,,,,,,,,,,,,,,,,,,,,,,,,,
,,,,,,60ca4cfb5c287146cad0695a,2024-05-13_11h38.17.097,group3.1-3.2-social-tom,2023.2.2,Linux x86_64,59.52380952,65c5074098b851296ff0b7ed,664233a7bbe63c919b584546,,,,,,,,,,,,,,,,,,,,,,,,,,,,,528.5723,1,audio/Narrative7Situation4.wav,531.5832,,531.5833,543.307,[],1,0,543.3072,547.1238,35.33456738,2.3298,"[{""rating"":35.334567377919306,""responseTime"":2.3297999999970216}]",space,3.27,,547.1239,Not at all,0,547.1308,,,[],,0,13,13,13,1,audio/Narrative8Situation4.wav,audio/Narrative7Situation4.wav,audio/Narrative6Situation4.wav,audio/Narrative5Situation4.wav,3,3,2,1,,,,,,,,,,,,,,,,,,,,,,,,,,,,,,,,,,,,,,,
,,,,,,60ca4cfb5c287146cad0695a,2024-05-13_11h38.17.097,group3.1-3.2-social-tom,2023.2.2,Linux x86_64,59.52380952,65c5074098b851296ff0b7ed,664233a7bbe63c919b584546,,,,,,,,,,,,,,,,,,,,,,,,,,,,,547.1312,1,audio/Narrative7Situation5.wav,552.1426,,552.1426,560.6297,[],1,0,560.6299,564.5392,34.36615765,2.9134,"[{""rating"":34.36615764547592,""responseTime"":2.279600000001551},{""rating"":34.36615764547592,""responseTime"":2.9133999999985463}]",space,3.3703,,564.5393,Definitely yes,100,564.5452,,,[],,0,14,14,14,1,audio/Narrative8Situation5.wav,audio/Narrative7Situation5.wav,audio/Narrative6Situation5.wav,audio/Narrative5Situation5.wav,2,5,2,5,,,,,,,,,,,,,,,,,,,,,,,,,,,,,,,,,,,,,,,
,,,,,,60ca4cfb5c287146cad0695a,2024-05-13_11h38.17.097,group3.1-3.2-social-tom,2023.2.2,Linux x86_64,59.52380952,65c5074098b851296ff0b7ed,664233a7bbe63c919b584546,,,,,,,,,,,,,,,,,,,,,,,,,,,,,564.5461,1,audio/Narrative7Situation6.wav,567.5519,,567.552,577.5375,[],1,0,577.5379,580.9389,10.29454001,2.0636,"[{""rating"":10.294540014528724,""responseTime"":2.063600000001429}]",space,2.8522,,580.939,Definitely yes,100,580.9424,,,[],,0,15,15,15,1,audio/Narrative8Situation6.wav,audio/Narrative7Situation6.wav,audio/Narrative6Situation6.wav,audio/Narrative5Situation6.wav,2,3,2,3,,,,,,,,,,,,,,,,,,,,,,,,,,,,,,,,,,,,,,,
,,,,,,60ca4cfb5c287146cad0695a,2024-05-13_11h38.17.097,group3.1-3.2-social-tom,2023.2.2,Linux x86_64,59.52380952,65c5074098b851296ff0b7ed,664233a7bbe63c919b584546,,,,,,,,,,,,,,,,,,,,,,,,,,,,,580.943,1,audio/Narrative7Situation7.wav,585.9579,,585.958,603.1322,"[[11.2,16517]]",1,0,603.1323,613.6202,69.63515202,9.3334,"[{""rating"":62.57802741247909,""responseTime"":7.480600000001459},{""rating"":69.63515201644744,""responseTime"":9.333399999998505}]",space,9.9586,,613.6204,Partially,50,613.6262,,,[],,0,16,16,16,1,audio/Narrative8Situation7.wav,audio/Narrative7Situation7.wav,audio/Narrative6Situation7.wav,audio/Narrative5Situation7.wav,3,5,5,4,,,,,,,,,,,,,,,,,,,,,,,,,,,,,,,,,,,,,,,
,,,,,,60ca4cfb5c287146cad0695a,2024-05-13_11h38.17.097,group3.1-3.2-social-tom,2023.2.2,Linux x86_64,59.52380952,65c5074098b851296ff0b7ed,664233a7bbe63c919b584546,,,,,,,,,,,,,,,,,,,,,,,,,,,,,613.6267,1,audio/Narrative7Situation8.wav,615.6379,,615.6386,625.6757,"[[63.6,9753],[68.9,9839]]",1,0,625.676,629.2941,84.54210049,2.3435,"[{""rating"":84.54210049497381,""responseTime"":2.3435000000000628}]",space,3.0877,,629.2941,Not at all,0,629.2995,,,[],,0,17,17,17,1,audio/Narrative8Situation8.wav,audio/Narrative7Situation8.wav,audio/Narrative6Situation8.wav,audio/Narrative5Situation8.wav,3,2,5,3,,,,,,,,,,,,,,,,,,,,,,,,,,,,,,,,,,,,,,,
,,,,,,60ca4cfb5c287146cad0695a,2024-05-13_11h38.17.097,group3.1-3.2-social-tom,2023.2.2,Linux x86_64,59.52380952,65c5074098b851296ff0b7ed,664233a7bbe63c919b584546,,,,,,,,,,,,,,,,,,,,,,,,,,,,,629.3,1,audio/Narrative7Situation9.wav,631.3114,,631.3115,639.9329,"[[87.3,8192],[97,8271],[100,8354]]",1,0,639.9331,643.1836,99.53569806,1.8807,"[{""rating"":99.53569806451866,""responseTime"":1.880700000003003}]",space,2.7014,,643.1837,Definitely yes,100,643.1893,,,[],,0,18,18,18,1,audio/Narrative8Situation9.wav,audio/Narrative7Situation9.wav,audio/Narrative6Situation9.wav,audio/Narrative5Situation9.wav,3,2,4,3,,,,,,,,,,,,,,,,,,,,,,,,,,,,,,,,,,,,,,,
,,,,,,60ca4cfb5c287146cad0695a,2024-05-13_11h38.17.097,group3.1-3.2-social-tom,2023.2.2,Linux x86_64,59.52380952,65c5074098b851296ff0b7ed,664233a7bbe63c919b584546,,,,,,,,,,,,,,,,,,,,,,,,,,,647.0823,649.6532,649.6904,2,audio/Narrative13Situation2.wav,649.6907,,649.6907,679.4678,"[[999,0],[999,79],[999,162],[999,245],[999,329],[999,412],[999,495],[999,579],[999,662],[999,746],[999,829],[999,912],[999,996],[999,1079],[999,1163],[999,1246],[999,1329],[999,1413],[999,1496],[999,1579],[999,1663],[999,1746],[999,1829],[999,1913],[999,1996],[999,2080],[999,2163],[999,2246],[999,2330],[999,2413],[999,2496],[999,2580],[999,2663],[999,2746],[999,2830],[999,2913],[999,2997],[999,3080],[999,3163],[999,3247],[999,3330],[999,3414],[999,3497],[999,3581],[999,3663],[999,3747],[999,3830],[999,3914],[999,3997],[999,4081],[999,4164],[999,4247],[999,4331],[999,4414],[999,4498],[999,4581],[999,4664],[999,4748],[999,4831],[999,4914],[999,4998],[999,5081],[999,5165],[999,5248],[999,5331],[999,5415],[999,5498],[999,5581],[999,5664],[999,5748],[999,5831],[999,5915],[999,5999],[999,6081],[999,6165],[999,6248],[999,6332],[999,6415],[999,6498],[999,6582],[999,6666],[999,6748],[999,6832],[999,6915],[999,6998],[999,7082],[999,7165],[999,7248],[999,7332],[999,7415],[999,7499],[999,7582],[999,7666],[999,7749],[999,7832],[999,7916],[999,7999],[999,8082],[999,8166],[999,8249],[999,8332],[999,8416],[999,8499],[999,8582],[999,8666],[999,8749],[999,8833],[999,8916],[999,9000],[999,9082],[999,9166],[999,9250],[999,9333],[999,9416],[999,9500],[999,9583],[999,9666],[999,9750],[999,9833],[999,9917],[999,10000],[999,10083],[999,10166],[999,10250],[999,10334],[999,10417],[999,10500],[999,10584],[999,10667],[999,10750],[999,10834],[999,10917],[999,11000],[999,11084],[999,11167],[999,11250],[999,11334],[999,11417],[999,11500],[999,11584],[999,11667],[999,11751],[999,11834],[999,11917],[999,12001],[999,12084],[999,12168],[999,12251],[999,12334],[999,12418],[999,12501],[999,12584],[999,12668],[999,12751],[999,12835],[999,12918],[999,13001],[999,13085],[999,13168],[999,13251],[999,13335],[999,13418],[999,13501],[999,13585],[999,13668],[999,13752],[999,13835],[999,13918],[999,14002],[999,14086],[999,14168],[999,14252],[999,14335],[999,14419],[999,14502],[999,14585],[999,14669],[999,14752],[999,14835],[999,14919],[999,15002],[999,15086],[999,15169],[999,15252],[999,15336],[999,15419],[999,15502],[999,15586],[999,15669],[999,15752],[999,15836],[999,15919],[999,16003],[999,16086],[999,16170],[999,16253],[999,16336],[999,16419],[999,16504],[999,16586],[999,16670],[999,16753],[999,16837],[999,16920],[999,17003],[999,17086],[999,17170],[999,17253],[999,17337],[999,17420],[999,17504],[999,17586],[999,17670],[999,17753],[999,17837],[999,17920],[999,18004],[999,18087],[999,18170],[999,18254],[999,18337],[999,18421],[999,18504],[999,18587],[999,18670],[999,18754],[999,18837],[999,18921],[999,19004],[999,19087],[999,19172],[999,19254],[999,19337],[999,19421],[999,19504],[999,19588],[999,19671],[999,19754],[999,19837],[999,19921],[999,20004],[999,20088],[999,20172],[999,20254],[999,20338],[999,20421],[999,20504],[999,20588],[999,20671],[999,20755],[999,20838],[999,20921],[999,21005],[999,21088],[999,21171],[999,21255],[999,21338],[999,21422],[999,21505],[999,21588],[999,21672],[999,21755],[999,21838],[999,21922],[999,22005],[999,22089],[999,22172],[999,22255],[999,22339],[999,22422],[999,22506],[999,22589],[999,22673],[999,22756],[999,22839],[999,22923],[999,23006],[83.2,23090],[83.5,23173],[83.5,23256],[83.6,23339],[83.6,23423],[83.6,23507],[83.7,23589],[83.7,23672],[83.7,23756],[83.7,23839],[83.7,23923],[83.7,24006],[83.8,24089],[83.8,24173],[83.8,24256],[83.8,24340],[83.8,24423],[83.8,24507],[83.8,24590],[83.8,24673],[83.8,24756],[83.8,24840],[83.8,24923],[83.8,25007],[83.8,25090],[83.8,25173],[83.8,25257],[83.8,25341],[83.8,25423],[83.8,25507],[83.8,25590],[83.8,25673],[83.8,25757],[83.8,25840],[83.8,25924],[83.8,26007],[83.8,26091],[83.8,26174],[83.8,26258],[83.8,26341],[83.8,26424],[83.8,26507],[83.8,26590],[83.8,26674],[83.8,26758],[83.8,26841],[83.8,26924],[83.8,27008],[83.8,27091],[83.8,27174],[83.8,27258],[83.8,27341],[83.8,27424],[83.8,27508],[83.8,27591],[83.8,27674],[83.8,27758],[83.8,27841],[83.8,27925],[83.8,28008],[83.8,28091],[83.8,28175],[83.8,28258],[83.8,28342],[83.8,28425],[83.8,28508],[83.8,28591],[83.8,28675],[83.8,28759],[83.8,28841],[83.8,28925],[83.8,29009],[83.8,29092],[83.8,29176],[83.8,29259],[83.8,29342],[83.8,29426],[83.8,29509],[83.8,29592],[84.2,29676],[84.9,29760]]",1,0,679.468,679.4724,,,[],,,,679.4726,Not at all,0,679.478,,,[],,0,0,0,0,1,audio/Narrative13Situation2.wav,audio/Narrative13Situation2.wav,audio/Narrative13Situation2.wav,audio/Narrative13Situation2.wav,2,2,2,2,,,,,643.1905,647.0692,space,3.3525,,,,,,,,,,,,,,,,,,,,,,,,,,,,,,,
,,,,,,60ca4cfb5c287146cad0695a,2024-05-13_11h38.17.097,group3.1-3.2-social-tom,2023.2.2,Linux x86_64,59.52380952,65c5074098b851296ff0b7ed,664233a7bbe63c919b584546,,,,,,,,,,,,,,,,,,,,,,,,,,,,,679.4785,2,audio/Narrative6Situation1.wav,681.4845,,681.4846,708.0811,"[[87.1,1250],[83,1333],[79.7,23263],[79,23344],[75.4,23427],[72.9,23513],[72.1,23596],[70.1,23677],[66,23760],[64.7,23843],[63.2,23927],[63,24010],[62.8,24094],[62.8,24177],[62.8,24260],[62.9,24345],[63.3,24429],[65.3,24511],[71.1,24596],[77.1,24677],[82.9,24761],[87.3,24845],[78.7,25178],[61.6,25261],[51.7,25346],[50.9,25428],[50.7,25511],[50.7,25594],[54.7,25678],[57.4,25761],[60,25845],[61.8,25928],[65.6,26012],[66.9,26094],[68.3,26178],[70.3,26262],[72.1,26345],[74.4,26428],[74.9,26511],[75.6,26596]]",1,0,708.0813,716.05,76.5834426,6.647,"[{""rating"":72.48915243140203,""responseTime"":5.815899999998578},{""rating"":76.58344259601574,""responseTime"":6.647000000000048}]",space,7.4212,,716.0501,Definitely yes,100,716.0558,,,[],,0,1,1,1,1,audio/Narrative7Situation1.wav,audio/Narrative8Situation1.wav,audio/Narrative5Situation1.wav,audio/Narrative6Situation1.wav,2,5,5,2,,,,,,,,,,,,,,,,,,,,,,,,,,,,,,,,,,,,,,,
,,,,,,60ca4cfb5c287146cad0695a,2024-05-13_11h38.17.097,group3.1-3.2-social-tom,2023.2.2,Linux x86_64,59.52380952,65c5074098b851296ff0b7ed,664233a7bbe63c919b584546,,,,,,,,,,,,,,,,,,,,,,,,,,,,,716.0564,2,audio/Narrative6Situation2.wav,719.0682,,719.0682,747.5814,"[[999,14],[57.8,1433],[57.9,2017],[73.5,3934],[73.1,4018],[73,4101],[73,4184],[73,4268],[73,4351],[73,4434],[72.9,4518],[72.8,4601],[61.7,4685],[57,5436],[53.9,5519],[48.3,5602],[48,5685],[47.9,5774],[47.9,5852],[48.7,5938],[49,6019],[50.5,6102],[53.4,6186],[60.6,6276],[64.6,6365],[68,6442],[70.2,6523],[71.1,6605],[73.3,6688],[73.6,6769],[73.7,6852],[73.5,6936],[71.7,7020],[70.4,7103],[67.9,7187],[64.9,7270],[50.1,7353],[44.7,7436],[43.8,7604],[66.7,12698],[66.8,12772],[67,12855],[67,12939],[67,13022],[67,13105],[67,13188],[67,13272],[67,13355],[67,13438],[67,13522],[67,13606],[67,13689],[67,13772],[67,13855],[67,13939],[67,14022],[67,14105],[67,14189],[67,14274],[67,14356],[67,14440],[67,14523],[67,14606],[67,14689],[67.5,14773],[68.3,14856],[67,16525],[63.6,16607],[60.3,16691],[58.9,16774],[57,16903],[56.8,16991],[56.8,17074],[56.8,17157],[56.8,17240],[56.7,17324],[56.3,17407],[52.2,17491],[51.7,17574],[51.5,17658],[51.5,17740],[51.5,17824],[52.1,17908],[61.6,17991],[62.9,18074],[65.5,18158],[66.2,18242],[67.4,18324],[68.7,18408],[69.3,18491],[69.2,18574],[69.2,18658],[69.2,18742],[69.2,18824],[69.2,18908],[69.2,18991],[69.2,19074],[69.4,19158],[69.8,19241],[69.9,19325],[70,19408],[70,19491],[70,19574],[70,19658],[70,19741],[70,19825],[70,19908],[70,19991],[70,20075],[70,20158],[70,20242],[70,20325],[70,20408],[70,20492],[70,20575],[70,20658],[70,20742],[70,20825],[70,20909],[70,20992],[70,21075],[70,21159],[70,21243],[70,21325],[70,21409],[70,21492],[70,21575],[70,21659],[70,21742],[70,21826],[70,21909],[70,21993],[70,22075],[70,22159],[70,22242],[70,22326],[70,22409],[70,22492],[70,22576],[70,22659],[70,22743],[70,22826],[70,22909],[70,22993],[70,23076],[70,23160],[70,23243],[70,23326],[70,23409],[70,23493],[70,23576],[70,23660],[70,23743],[70,23827],[70,23910],[70,23993],[70,24077],[70,24161],[70,24243],[70,24327],[70,24410],[70,24493],[70,24577],[70,24660],[70,24743],[70,24827],[70,24910],[70,24994],[70,25077],[70,25160],[70,25244],[70,25328],[70,25411],[70,25494],[70,25577],[70,25661],[70,25745],[70,25828],[70,25911],[70,25994],[70,26077],[70,26161],[70,26245],[70,26329],[70,26411],[70,26495],[70,26578],[70,26661],[70,26745],[70,26828],[70,26911],[70,26995],[70,27078],[70,27162],[70,27245],[70,27329],[70,27412],[70,27495],[70,27579],[90.8,28080],[90.9,28162],[90.9,28245],[90.9,28329],[90.9,28412],[90.9,28496]]",1,0,747.5816,752.4505,99.15105201,4.1782,"[{""rating"":99.15105200680154,""responseTime"":2.5276000000014847},{""rating"":99.15105200680154,""responseTime"":4.178200000002903}]",space,4.3196,,752.4506,Definitely yes,100,752.454,,,[],,0,2,2,2,1,audio/Narrative7Situation2.wav,audio/Narrative8Situation2.wav,audio/Narrative5Situation2.wav,audio/Narrative6Situation2.wav,3,3,3,3,,,,,,,,,,,,,,,,,,,,,,,,,,,,,,,,,,,,,,,
,,,,,,60ca4cfb5c287146cad0695a,2024-05-13_11h38.17.097,group3.1-3.2-social-tom,2023.2.2,Linux x86_64,59.52380952,65c5074098b851296ff0b7ed,664233a7bbe63c919b584546,,,,,,,,,,,,,,,,,,,,,,,,,,,,,752.4544,2,audio/Narrative6Situation3.wav,757.4686,,757.4687,770.0925,"[[100,12523]]",1,0,770.0927,773.5595,99.62520973,2.194,"[{""rating"":99.62520972758637,""responseTime"":2.19399999999996}]",space,2.9224,,773.5597,Definitely yes,100,773.5625,,,[],,0,3,3,3,1,audio/Narrative7Situation3.wav,audio/Narrative8Situation3.wav,audio/Narrative5Situation3.wav,audio/Narrative6Situation3.wav,8,4,3,5,,,,,,,,,,,,,,,,,,,,,,,,,,,,,,,,,,,,,,,
,,,,,,60ca4cfb5c287146cad0695a,2024-05-13_11h38.17.097,group3.1-3.2-social-tom,2023.2.2,Linux x86_64,59.52380952,65c5074098b851296ff0b7ed,664233a7bbe63c919b584546,,,,,,,,,,,,,,,,,,,,,,,,,,,,,773.563,2,audio/Narrative6Situation4.wav,775.5769,,775.5769,788.1993,[],1,0,788.1995,793.9853,35.81034937,4.116,"[{""rating"":35.8103493671141,""responseTime"":4.1159999999999854}]",space,5.2521,,793.9853,Partially,50,809.0925,49.64671198,7.9791,"[{""rating"":49.64671198109132,""responseTime"":7.979099999993991}]",space,0,4,4,4,1,audio/Narrative7Situation4.wav,audio/Narrative8Situation4.wav,audio/Narrative5Situation4.wav,audio/Narrative6Situation4.wav,3,3,1,2,,,14.5743,,,,,,,,,,,,,,,,,,,,,,,,,,,,,,,,,,,,
,,,,,,60ca4cfb5c287146cad0695a,2024-05-13_11h38.17.097,group3.1-3.2-social-tom,2023.2.2,Linux x86_64,59.52380952,65c5074098b851296ff0b7ed,664233a7bbe63c919b584546,,,,,,,,,,,,,,,,,,,,,,,,,,,,,809.1069,2,audio/Narrative6Situation5.wav,811.1098,,811.1099,819.08,"[[999,1],[999,82],[999,166],[999,249],[999,332],[999,416],[999,499],[999,583],[999,666],[999,750],[999,833],[999,916],[999,1000],[999,1083],[999,1167],[999,1250],[999,1333],[999,1417],[999,1500],[999,1583],[999,1666],[999,1750],[999,1833],[999,1917],[999,2000],[999,2083],[999,2167],[999,2250],[999,2333],[999,2417],[999,2500],[999,2584],[999,2667],[999,2750],[999,2834],[999,2917],[999,3000],[999,3084],[999,3167],[999,3251],[999,3334],[999,3417],[999,3501],[999,3584],[999,3667],[999,3751],[999,3834],[999,3918],[999,4001],[999,4084],[999,4168],[999,4251],[999,4334],[999,4418],[999,4501],[999,4585],[999,4668],[999,4751],[999,4835],[999,4918],[999,5002],[999,5085],[999,5168],[999,5252],[999,5335],[999,5418],[999,5502],[999,5586],[999,5668],[999,5752],[999,5835],[999,5918],[999,6002],[999,6085],[999,6168],[999,6252],[999,6336],[999,6419],[999,6502],[999,6585],[999,6669],[999,6752],[999,6836],[999,6919],[999,7002],[999,7086],[999,7169],[999,7252],[999,7336],[999,7419],[999,7503],[999,7586],[999,7669],[999,7753],[999,7836],[999,7919]]",1,0,819.0802,828.0174,16.05758907,6.2367,"[{""rating"":16.057589069856675,""responseTime"":6.2367000000029975}]",space,8.4029,,828.0175,Partially,50,828.0206,,,[],,0,5,5,5,1,audio/Narrative7Situation5.wav,audio/Narrative8Situation5.wav,audio/Narrative5Situation5.wav,audio/Narrative6Situation5.wav,5,2,5,2,,,,,,,,,,,,,,,,,,,,,,,,,,,,,,,,,,,,,,,
,,,,,,60ca4cfb5c287146cad0695a,2024-05-13_11h38.17.097,group3.1-3.2-social-tom,2023.2.2,Linux x86_64,59.52380952,65c5074098b851296ff0b7ed,664233a7bbe63c919b584546,,,,,,,,,,,,,,,,,,,,,,,,,,,,,828.0211,2,audio/Narrative6Situation6.wav,830.0348,,830.0349,841.1235,"[[17.4,10171],[18.6,10255],[18.8,10338],[19,10421],[21.4,10504],[25.7,10588],[34.6,10672],[36.9,10754],[38,10838],[38.1,10921],[38.1,11006],[37.1,11088]]",1,0,841.1237,844.508,38.98165303,2.4114,"[{""rating"":32.69361951638208,""responseTime"":1.562699999995516},{""rating"":38.981653028234255,""responseTime"":2.41139999999848}]",space,2.852,,844.5081,Partially,50,844.5111,,,[],,0,6,6,6,1,audio/Narrative7Situation6.wav,audio/Narrative8Situation6.wav,audio/Narrative5Situation6.wav,audio/Narrative6Situation6.wav,3,2,3,2,,,,,,,,,,,,,,,,,,,,,,,,,,,,,,,,,,,,,,,
,,,,,,60ca4cfb5c287146cad0695a,2024-05-13_11h38.17.097,group3.1-3.2-social-tom,2023.2.2,Linux x86_64,59.52380952,65c5074098b851296ff0b7ed,664233a7bbe63c919b584546,,,,,,,,,,,,,,,,,,,,,,,,,,,,,844.5117,2,audio/Narrative6Situation7.wav,849.5273,,849.5274,874.3887,"[[41.8,24700]]",1,0,874.3889,876.9894,50.48645875,1.4294,"[{""rating"":50.486458749040764,""responseTime"":1.429399999998509}]",space,2.0524,,876.9895,Definitely yes,100,876.996,,,[],,0,7,7,7,1,audio/Narrative7Situation7.wav,audio/Narrative8Situation7.wav,audio/Narrative5Situation7.wav,audio/Narrative6Situation7.wav,5,3,4,5,,,,,,,,,,,,,,,,,,,,,,,,,,,,,,,,,,,,,,,
,,,,,,60ca4cfb5c287146cad0695a,2024-05-13_11h38.17.097,group3.1-3.2-social-tom,2023.2.2,Linux x86_64,59.52380952,65c5074098b851296ff0b7ed,664233a7bbe63c919b584546,,,,,,,,,,,,,,,,,,,,,,,,,,,,,876.9966,2,audio/Narrative6Situation8.wav,882.0084,,882.0086,888.8781,[],1,0,888.8783,894.0971,0.371795848,3.7644,"[{""rating"":0.3717958478216543,""responseTime"":3.7643999999985454}]",space,4.6938,,894.0972,Definitely yes,100,894.1003,,,[],,0,8,8,8,1,audio/Narrative7Situation8.wav,audio/Narrative8Situation8.wav,audio/Narrative5Situation8.wav,audio/Narrative6Situation8.wav,2,3,3,5,,,,,,,,,,,,,,,,,,,,,,,,,,,,,,,,,,,,,,,
,,,,,,60ca4cfb5c287146cad0695a,2024-05-13_11h38.17.097,group3.1-3.2-social-tom,2023.2.2,Linux x86_64,59.52380952,65c5074098b851296ff0b7ed,664233a7bbe63c919b584546,,,,,,,,,,,,,,,,,,,,,,,,,,,,,894.1007,2,audio/Narrative6Situation9.wav,898.1161,,898.1162,908.0705,"[[999,13],[999,82],[999,166],[999,249],[999,332],[999,416],[999,499],[999,583],[999,666],[999,749],[999,833],[999,916],[999,999],[999,1083],[999,1166],[999,1249],[999,1333],[999,1417],[999,1500],[999,1583],[999,1667],[999,1750],[999,1833],[999,1916],[999,2000],[999,2083],[999,2167],[999,2250],[999,2333],[999,2417],[999,2500],[999,2583],[999,2667],[999,2750],[999,2833],[999,2917],[999,3000],[999,3084],[999,3167],[999,3251],[999,3333],[999,3417],[999,3501],[999,3584],[999,3667],[999,3751],[999,3834],[999,3917],[999,4001],[999,4084],[999,4168],[999,4251],[999,4334],[999,4418],[999,4501],[999,4584],[999,4668],[999,4751],[999,4834],[999,4918],[999,5001],[999,5085],[999,5168],[999,5251],[999,5335],[999,5418],[999,5502],[999,5585],[999,5668],[999,5752],[999,5835],[999,5918],[999,6002],[999,6085],[999,6168],[999,6252],[999,6335],[999,6419],[999,6502],[999,6585],[999,6669],[999,6752],[999,6835],[999,6919],[999,7003],[999,7086],[999,7169],[999,7253],[999,7336],[999,7419],[999,7502],[999,7586],[999,7669],[999,7752],[999,7836],[999,7919],[999,8002],[999,8086],[999,8169],[999,8252],[999,8336],[999,8419],[999,8503],[999,8586],[999,8670],[999,8753],[999,8836],[999,8919],[999,9003],[999,9087],[999,9170],[999,9253],[999,9336],[999,9420],[999,9503],[999,9587],[999,9670],[999,9753],[999,9837],[999,9920]]",1,0,908.0707,916.4744,0.257176372,6.6824,"[{""rating"":0.25717637232768875,""responseTime"":6.682400000005941}]",space,7.8595,,916.4745,Partially,50,916.4809,,,[],,0,9,9,9,1,audio/Narrative7Situation9.wav,audio/Narrative8Situation9.wav,audio/Narrative5Situation9.wav,audio/Narrative6Situation9.wav,2,3,3,4,,,,,,,,,,,,,,,,,,,,,,,,,,,,,,,,,,,,,,,
,,,,,,60ca4cfb5c287146cad0695a,2024-05-13_11h38.17.097,group3.1-3.2-social-tom,2023.2.2,Linux x86_64,59.52380952,65c5074098b851296ff0b7ed,664233a7bbe63c919b584546,,,,,,,,,,,,,,,,,,,,,,,,,,,,,916.4813,2,audio/Narrative5Situation1.wav,921.4941,,921.4942,934.7834,"[[999,13],[999,98],[999,182],[999,265],[999,348],[999,432],[999,515],[999,598],[999,682],[999,765],[999,849],[999,932],[999,1015],[999,1099],[999,1182],[999,1265],[999,1349],[999,1433],[999,1516],[999,1599],[999,1682],[999,1766],[999,1849],[999,1932],[999,2016],[999,2099],[999,2182],[999,2266],[999,2349],[999,2433],[999,2516],[999,2599],[999,2683],[999,2766],[999,2849],[999,2933],[999,3016],[999,3100],[999,3183],[999,3267],[999,3350],[999,3433],[999,3516],[999,3600],[999,3683],[999,3767],[999,3850],[999,3933],[999,4017],[999,4100],[999,4184],[999,4267],[999,4350],[999,4434],[999,4517],[999,4600],[999,4684],[999,4767],[999,4850],[999,4934],[999,5017],[999,5100],[999,5184],[999,5267],[999,5351],[999,5434],[999,5517],[999,5601],[999,5684],[999,5767],[999,5851],[999,5934],[999,6018],[999,6101],[999,6184],[999,6268],[999,6351],[999,6434],[999,6518],[999,6601],[999,6685],[999,6768],[999,6851],[999,6935],[999,7018],[999,7101],[999,7185],[999,7268],[999,7351],[999,7435],[999,7518],[999,7602],[999,7685],[999,7768],[999,7852],[999,7936],[999,8019],[999,8102],[999,8185],[999,8269],[999,8352],[999,8435],[999,8519],[999,8602],[999,8686],[999,8769],[999,8852],[999,8935],[999,9019],[999,9102],[999,9186],[999,9270],[999,9353],[999,9436],[999,9519],[999,9603],[999,9686],[999,9769],[999,9853],[999,9936],[999,10020],[999,10103],[999,10186],[999,10270],[999,10353],[999,10437],[999,10520],[999,10603],[999,10686],[999,10770],[999,10853],[999,10936],[999,11020],[999,11103],[999,11187],[999,11270],[999,11354],[999,11437],[999,11520],[999,11604],[999,11687],[999,11770],[999,11854],[999,11937],[999,12021],[999,12104],[999,12187],[999,12271],[999,12354],[999,12437],[999,12521],[999,12604],[999,12687],[999,12773],[999,12855],[999,12937],[999,13021],[999,13104],[999,13187],[999,13271]]",1,0,934.7837,940.018,41.00170419,3.9967,"[{""rating"":41.00170418773237,""responseTime"":3.9967000000029884}]",space,4.6905,,940.0182,Partially,50,940.0215,,,[],,0,10,10,10,1,audio/Narrative8Situation1.wav,audio/Narrative7Situation1.wav,audio/Narrative6Situation1.wav,audio/Narrative5Situation1.wav,5,2,2,5,,,,,,,,,,,,,,,,,,,,,,,,,,,,,,,,,,,,,,,
,,,,,,60ca4cfb5c287146cad0695a,2024-05-13_11h38.17.097,group3.1-3.2-social-tom,2023.2.2,Linux x86_64,59.52380952,65c5074098b851296ff0b7ed,664233a7bbe63c919b584546,,,,,,,,,,,,,,,,,,,,,,,,,,,,,940.0221,2,audio/Narrative5Situation2.wav,943.036,,943.0361,972.5005,"[[41.1,15424],[43.1,15507],[44.1,15590],[44.3,15674],[44.5,15757],[44.7,15840],[44.9,15923],[44.9,16007],[45,16090],[45,16173],[45,16258],[45.1,16341],[45.1,16423],[45.1,16507],[45.2,16591],[45.2,16673],[45.2,16757],[45.2,16840],[45.2,16924],[45.2,17008],[45.2,17090],[45.2,17173],[45.2,17257],[44.8,17341],[42.3,17424],[36.3,17509],[34.8,17591],[30.1,17674],[28.9,17757],[28.4,17841],[28.4,17924],[28.4,18008],[28.4,18091],[28.4,18174],[28.4,18258],[28.4,18341],[28,18424],[26.7,18508],[26,18592],[25.8,18674],[25.7,18758],[25.7,18841],[25.7,18925],[25.7,19008],[25.7,19091],[25.7,19175],[25.7,19258],[25.7,19341],[25.7,19425],[25.7,19508],[25.7,19591],[25.7,19675],[25.7,19759],[25.7,19841],[25.8,19925],[25.9,20009],[25.9,20092],[26,20175],[26.1,20258],[26.1,20342],[26.2,20425],[26.4,20509],[26.4,20592],[26.4,20676],[26.6,20759],[26.8,20842],[26.8,20926],[26.9,21009],[26.9,21092],[26.9,21176],[27,21259],[27,21342],[27,21426],[27,21509],[27,21592],[27,21676],[27,21759],[27,21842],[27,21926],[27,22009],[27,22093],[26.9,22176],[26.7,22260],[26.6,22343],[26.4,22427],[26.3,22509],[26.3,22593],[26.2,22676],[26.2,22759],[26.2,22844],[26.2,22926],[26.2,23010],[26.2,23093],[26.1,23177],[26.1,23260],[26.1,23343],[26,23427],[26,23510],[26,23593],[26,23677],[26,23760],[26,23843],[26,23927],[26,24010],[26,24094],[26,24177],[26,24260],[26,24344],[26,24427],[26,24510],[26,24594],[26,24677],[26,24760],[26,24844],[26,24927],[26,25011],[26,25094],[26,25177],[26,25261],[26,25344],[26,25427],[26,25511],[26,25594],[26,25677],[26,25761],[26,25844],[26,25928],[26,26012],[26,26095],[26.1,26178],[26.1,26261],[26.1,26344],[26.1,26428],[26.1,26512],[26.1,26595],[26.1,26679],[26.1,26761],[26.1,26845],[26.1,26928],[26.1,27012],[26.1,27095],[26.1,27178],[26.1,27262],[26.1,27345],[26.1,27428],[26.1,27512],[26.1,27595],[26.1,27679],[26.1,27762],[26.1,27845],[26.1,27928],[26.1,28012],[26.1,28095],[26.1,28179],[26.1,28262],[26.1,28345],[26.1,28429],[26.1,28513],[26.1,28596],[26.1,28679],[26.1,28763],[26.2,28846],[26.2,28929],[26.5,29013],[27.3,29096],[27.9,29180],[28.4,29263],[28.7,29346],[29,29430]]",1,0,972.5009,975.8175,29.14999655,1.4456,"[{""rating"":29.149996547408495,""responseTime"":1.445600000001491}]",space,2.7702,,975.8177,Not at all,0,975.8236,,,[],,0,11,11,11,1,audio/Narrative8Situation2.wav,audio/Narrative7Situation2.wav,audio/Narrative6Situation2.wav,audio/Narrative5Situation2.wav,3,3,3,3,,,,,,,,,,,,,,,,,,,,,,,,,,,,,,,,,,,,,,,
,,,,,,60ca4cfb5c287146cad0695a,2024-05-13_11h38.17.097,group3.1-3.2-social-tom,2023.2.2,Linux x86_64,59.52380952,65c5074098b851296ff0b7ed,664233a7bbe63c919b584546,,,,,,,,,,,,,,,,,,,,,,,,,,,,,975.8243,2,audio/Narrative5Situation3.wav,978.8359,,978.836,992.7587,"[[999,14],[999,83],[999,166],[999,249],[999,333],[999,416],[999,499],[999,583],[999,666],[999,750],[999,833],[999,916],[999,1000],[999,1083],[999,1166],[999,1250],[999,1333],[999,1416],[999,1500],[999,1583],[999,1667],[999,1750],[999,1833],[999,1917],[999,2000],[999,2083],[999,2167],[999,2250],[999,2333],[999,2417],[999,2500],[999,2584],[999,2667],[999,2750],[999,2834],[999,2917],[999,3001],[999,3084],[999,3167],[999,3250],[999,3334],[999,3417],[999,3501],[999,3584],[999,3668],[999,3751],[999,3834],[999,3918],[999,4001],[999,4084],[999,4168],[999,4251],[999,4334],[999,4418],[999,4501],[999,4584],[999,4668],[999,4751],[999,4835],[999,4918],[999,5001],[999,5085],[999,5168],[999,5252],[999,5335],[999,5418],[999,5502],[999,5585],[999,5668],[999,5752],[999,5835],[999,5918],[999,6002],[999,6085],[999,6169],[999,6252],[999,6335],[999,6419],[999,6502],[999,6585],[999,6668],[999,6752],[999,6835],[999,6919],[999,7002],[999,7086],[999,7169],[999,7252],[999,7336],[999,7419],[999,7502],[999,7586],[999,7669],[999,7752],[999,7836],[999,7919],[999,8003],[999,8086],[999,8169],[999,8253],[999,8336],[999,8420],[999,8503],[999,8586],[999,8670],[999,8753],[999,8836],[999,8920],[999,9003],[999,9086],[999,9170],[999,9253],[999,9338],[999,9420],[999,9503],[999,9587],[999,9670],[999,9753],[999,9837],[999,9920],[999,10004],[999,10087],[999,10170],[999,10254],[999,10337],[999,10420],[999,10504],[999,10587],[999,10670],[999,10754],[999,10837],[999,10920],[999,11004],[999,11087],[999,11171],[999,11254],[999,11337],[999,11421],[999,11504],[999,11588],[999,11678],[999,11754],[999,11838],[999,11921],[999,12004],[999,12088],[999,12171],[999,12254],[999,12338],[999,12421],[999,12505],[999,12588],[999,12671],[999,12755],[999,12838],[999,12922],[999,13005],[999,13088],[999,13172],[999,13256],[999,13338],[999,13422],[999,13505],[999,13589],[999,13672],[999,13755],[999,13839],[999,13922]]",1,0,992.7591,996.677,29.45680638,2.0695,"[{""rating"":29.45680637637109,""responseTime"":2.069500000000062}]",space,3.3829,,996.6771,Definitely yes,100,996.6827,,,[],,0,12,12,12,1,audio/Narrative8Situation3.wav,audio/Narrative7Situation3.wav,audio/Narrative6Situation3.wav,audio/Narrative5Situation3.wav,4,8,5,3,,,,,,,,,,,,,,,,,,,,,,,,,,,,,,,,,,,,,,,
,,,,,,60ca4cfb5c287146cad0695a,2024-05-13_11h38.17.097,group3.1-3.2-social-tom,2023.2.2,Linux x86_64,59.52380952,65c5074098b851296ff0b7ed,664233a7bbe63c919b584546,,,,,,,,,,,,,,,,,,,,,,,,,,,,,996.6834,2,audio/Narrative5Situation4.wav,997.6943,,997.6943,1018.0871,"[[30,13422],[30.6,13505],[30.8,13589],[31.4,13673],[32.4,13756],[67.6,17091],[70.5,17174],[70.8,17257],[70.8,17340],[70.8,17424],[70.8,17508],[70.8,17591],[70.8,17674],[72.4,17758],[83.7,17841],[85.6,17924],[86.7,18008],[88.5,18091],[92.2,18174],[92.5,18258],[92.5,18341],[92.5,18424],[92.5,18508],[92.5,18591],[92.5,18674],[92.5,18758],[92.5,18841],[92.5,18924],[92.5,19008],[92.5,19091],[92.5,19174],[92.5,19258],[92.5,19341],[92.5,19425],[92.5,19508],[92.5,19592],[92.5,19675],[92.5,19758],[92.5,19842],[92.5,19926],[92.5,20008],[92.5,20092],[92.5,20175],[92.5,20259],[92.7,20342]]",1,0,1018.0873,1021.2549,98.30804062,1.6317,"[{""rating"":98.30804062016674,""responseTime"":1.6316999999955897}]",space,2.6209,,1021.2549,Partially,50,1021.2608,,,[],,0,13,13,13,1,audio/Narrative8Situation4.wav,audio/Narrative7Situation4.wav,audio/Narrative6Situation4.wav,audio/Narrative5Situation4.wav,3,3,2,1,,,,,,,,,,,,,,,,,,,,,,,,,,,,,,,,,,,,,,,
,,,,,,60ca4cfb5c287146cad0695a,2024-05-13_11h38.17.097,group3.1-3.2-social-tom,2023.2.2,Linux x86_64,59.52380952,65c5074098b851296ff0b7ed,664233a7bbe63c919b584546,,,,,,,,,,,,,,,,,,,,,,,,,,,,,1021.2612,2,audio/Narrative5Situation5.wav,1026.2739,,1026.2739,1041.6809,"[[97.9,12110],[97.5,12189],[97.2,12272],[97.2,12355],[97.2,12438],[97.2,12522],[97.6,12605],[98.1,12689],[98.4,12772],[99,12855],[99.2,12939],[99.4,13022],[99.5,13106],[99.6,13188],[99.6,13272],[99.6,13355],[99.6,13439],[99.6,13522],[99.6,13605],[99.6,13689],[99.6,13772],[99.6,13856],[99.6,13939],[99.6,14022],[99.6,14105],[99.6,14189],[99.6,14272],[99.6,14356],[99.6,14440],[99.6,14523],[99.6,14606],[99.6,14689],[99.6,14773],[99.6,14857],[99.6,14940],[99.6,15023],[99.6,15106],[99.6,15189],[99.6,15273],[99.6,15356]]",1,0,1041.6811,1045.1325,99.54219514,1.932,"[{""rating"":99.54219513815852,""responseTime"":1.9320000000000164}]",space,2.9032,,1045.1326,Partially,50,1045.1366,,,[],,0,14,14,14,1,audio/Narrative8Situation5.wav,audio/Narrative7Situation5.wav,audio/Narrative6Situation5.wav,audio/Narrative5Situation5.wav,2,5,2,5,,,,,,,,,,,,,,,,,,,,,,,,,,,,,,,,,,,,,,,
,,,,,,60ca4cfb5c287146cad0695a,2024-05-13_11h38.17.097,group3.1-3.2-social-tom,2023.2.2,Linux x86_64,59.52380952,65c5074098b851296ff0b7ed,664233a7bbe63c919b584546,,,,,,,,,,,,,,,,,,,,,,,,,,,,,1045.137,2,audio/Narrative5Situation6.wav,1048.1503,,1048.1504,1053.8194,"[[999,0],[999,83],[999,166],[999,249],[999,333],[999,416],[999,499],[999,583],[999,666],[999,750],[999,833],[999,916],[999,1000],[999,1083],[999,1166],[999,1250],[999,1333],[999,1417],[999,1500],[999,1583],[999,1667],[999,1750],[999,1833],[999,1917],[999,2000],[999,2084],[999,2167],[999,2250],[999,2334],[999,2417],[999,2500],[999,2584],[999,2667],[999,2750],[999,2834],[999,2917],[999,3001],[999,3084],[999,3168],[999,3251],[999,3334],[999,3417],[999,3501],[999,3585],[999,3667],[999,3751],[999,3834],[999,3918],[999,4001],[999,4084],[999,4168],[999,4251],[999,4334],[999,4418],[999,4501],[999,4585],[999,4668],[999,4751],[999,4835],[999,4918],[999,5002],[999,5085],[999,5168],[999,5252],[999,5335],[999,5419],[999,5502],[999,5585],[999,5668]]",1,0,1053.8196,1058.722,49.72536838,3.3002,"[{""rating"":49.72536838498357,""responseTime"":3.3002000000030876}]",space,4.3741,,1058.722,Partially,50,1058.7247,,,[],,0,15,15,15,1,audio/Narrative8Situation6.wav,audio/Narrative7Situation6.wav,audio/Narrative6Situation6.wav,audio/Narrative5Situation6.wav,2,3,2,3,,,,,,,,,,,,,,,,,,,,,,,,,,,,,,,,,,,,,,,
,,,,,,60ca4cfb5c287146cad0695a,2024-05-13_11h38.17.097,group3.1-3.2-social-tom,2023.2.2,Linux x86_64,59.52380952,65c5074098b851296ff0b7ed,664233a7bbe63c919b584546,,,,,,,,,,,,,,,,,,,,,,,,,,,,,1058.7254,2,audio/Narrative5Situation7.wav,1062.7461,,1062.7463,1083.784,"[[999,13],[999,109],[999,177],[999,260],[999,344],[999,427],[999,510],[999,597],[999,680],[999,763],[999,844],[999,927],[999,1011],[999,1094],[999,1177],[999,1261],[999,1344],[999,1427],[999,1511],[999,1594],[999,1678],[999,1761],[999,1844],[999,1928],[999,2011],[999,2094],[999,2178],[999,2261],[999,2361],[999,2445],[999,2528],[999,2611],[999,2694],[999,2778],[999,2861],[999,2945],[999,3028],[999,3111],[999,3195],[999,3278],[999,3361],[999,3445],[999,3528],[999,3612],[999,3695],[999,3778],[999,3862],[999,3945],[999,4029],[999,4112],[999,4195],[999,4278],[999,4362],[999,4445],[999,4529],[999,4612],[999,4695],[999,4779],[999,4862],[999,4946],[999,5029],[999,5112],[999,5196],[999,5279],[999,5362],[999,5446],[999,5529],[999,5612],[999,5696],[999,5779],[999,5863],[999,5946],[999,6029],[999,6113],[999,6196],[999,6280],[999,6363],[999,6446],[999,6530],[999,6613],[999,6696],[999,6780],[999,6863],[999,6946],[999,7030],[999,7113],[999,7197],[999,7280],[999,7363],[999,7447],[999,7532],[999,7613],[999,7697],[999,7780],[999,7863],[999,7947],[999,8030],[999,8114],[999,8197],[999,8280],[999,8364],[999,8447],[999,8530],[999,8614],[999,8697],[999,8780],[999,8864],[999,8947],[999,9031],[999,9114],[999,9197],[999,9281],[999,9364],[999,9448],[999,9531],[999,9614],[999,9698],[999,9781],[999,9864],[999,9948],[999,10031],[999,10114],[999,10198],[999,10282],[999,10365],[999,10448],[999,10531],[999,10615],[999,10698],[999,10781],[999,10865],[999,10948],[999,11031],[999,11115],[999,11198],[999,11282],[999,11365],[999,11448],[999,11532],[999,11615],[999,11698],[999,11782],[999,11865],[999,11949],[999,12032],[999,12116],[999,12199],[999,12282],[999,12366],[999,12449],[999,12532],[999,12616],[999,12699],[999,12782],[999,12866],[999,12949],[999,13033],[999,13116],[999,13199],[999,13283],[999,13366],[999,13449],[999,13533],[999,13616],[999,13699],[999,13783],[999,13866],[999,13950],[999,14033],[999,14116],[999,14200],[999,14283],[999,14366],[999,14450],[999,14534],[999,14617],[999,14700],[999,14783],[999,14866],[999,14950],[999,15033],[999,15117],[999,15200],[999,15284],[999,15367],[999,15450],[999,15534],[999,15617],[999,15700],[999,15784],[999,15867],[999,15950],[999,16034],[999,16117],[999,16201],[999,16284],[999,16367],[999,16451],[999,16534],[999,16618],[999,16701],[999,16784],[999,16868],[999,16951],[999,17035],[999,17118],[999,17201],[999,17285],[999,17368],[999,17451],[999,17535],[999,17618],[999,17701],[999,17785],[999,17868],[999,17952],[999,18035],[999,18118],[999,18201],[999,18285],[999,18368],[999,18452],[999,18536],[999,18618],[999,18702],[999,18785],[999,18869],[999,18952],[999,19035],[999,19118],[999,19202],[999,19285],[999,19369],[999,19452],[999,19535],[999,19619],[999,19702],[999,19786],[999,19869],[999,19952],[999,20036],[999,20119],[999,20204],[999,20286],[999,20369],[999,20452],[999,20536],[999,20619],[999,20704],[999,20787],[999,20870],[999,20954],[999,21037]]",1,0,1083.7843,1087.0348,36.57794485,1.6153,"[{""rating"":36.577944845743886,""responseTime"":1.6153000000044813}]",space,2.7009,,1087.0349,Partially,50,1087.0378,,,[],,0,16,16,16,1,audio/Narrative8Situation7.wav,audio/Narrative7Situation7.wav,audio/Narrative6Situation7.wav,audio/Narrative5Situation7.wav,3,5,5,4,,,,,,,,,,,,,,,,,,,,,,,,,,,,,,,,,,,,,,,
,,,,,,60ca4cfb5c287146cad0695a,2024-05-13_11h38.17.097,group3.1-3.2-social-tom,2023.2.2,Linux x86_64,59.52380952,65c5074098b851296ff0b7ed,664233a7bbe63c919b584546,,,,,,,,,,,,,,,,,,,,,,,,,,,,,1087.0383,2,audio/Narrative5Situation8.wav,1090.0528,,1090.0528,1098.8902,"[[999,14],[999,82],[999,166],[999,249],[999,333],[999,416],[999,499],[999,583],[999,666],[999,750],[999,833],[999,916],[999,1000],[999,1083],[999,1166],[999,1250],[999,1333],[999,1416],[999,1500],[999,1583],[999,1667],[999,1750],[999,1834],[999,1917],[999,2000],[999,2084],[999,2167],[999,2250],[999,2334],[999,2417],[999,2501],[999,2584],[999,2667],[999,2750],[999,2834],[999,2917],[999,3001],[999,3084],[999,3167],[999,3251],[999,3334],[999,3418],[999,3501],[999,3584],[999,3667],[999,3751],[999,3834],[999,3917],[999,4001],[999,4085],[999,4168],[999,4251],[999,4334],[999,4418],[999,4502],[999,4585],[999,4668],[999,4752],[999,4835],[999,4918],[999,5001],[999,5085],[999,5168],[999,5252],[999,5335],[999,5418],[999,5502],[999,5585],[999,5668],[999,5752],[999,5836],[999,5919],[999,6002],[999,6085],[999,6169],[999,6252],[999,6335],[999,6419],[999,6502],[999,6586],[999,6669],[999,6752],[999,6836],[999,6919],[999,7002],[999,7086],[999,7169],[999,7252],[999,7336],[999,7420],[999,7502],[999,7586],[999,7669],[999,7752],[999,7836],[999,7920],[999,8003],[999,8086],[999,8170],[999,8253],[999,8336],[999,8420],[999,8503],[999,8587],[999,8670],[999,8753],[999,8837]]",1,0,1098.8904,1104.3762,0.013214474,3.8802,"[{""rating"":0.013214473524753023,""responseTime"":3.8801999999955115}]",space,4.9367,,1104.3763,Definitely yes,100,1104.3838,,,[],,0,17,17,17,1,audio/Narrative8Situation8.wav,audio/Narrative7Situation8.wav,audio/Narrative6Situation8.wav,audio/Narrative5Situation8.wav,3,2,5,3,,,,,,,,,,,,,,,,,,,,,,,,,,,,,,,,,,,,,,,
,,,,,,60ca4cfb5c287146cad0695a,2024-05-13_11h38.17.097,group3.1-3.2-social-tom,2023.2.2,Linux x86_64,59.52380952,65c5074098b851296ff0b7ed,664233a7bbe63c919b584546,,,,,,,,,,,,,,,,,,,,,,,,,,,,,1104.3842,2,audio/Narrative5Situation9.wav,1107.3943,,1107.3944,1146.9452,"[[3.7,17524],[42.7,17607],[52.8,17690],[55.2,17774],[55.2,17857],[55.2,17940],[55.2,18023],[55.2,18107],[55.2,18191],[55.9,18274],[57.1,18357],[60.8,18441],[62.5,18524],[63,18607],[63.1,18690],[63.1,18774],[62.8,18858],[60,18941],[58.6,19024],[57.7,19108],[57.4,19191],[56.9,19275],[56.6,19358],[56.4,19441],[59,19524],[61.1,19608],[62,19692],[62.1,19775],[62.2,19858],[62.2,19941],[62.2,20024],[62.2,20108],[62.2,20191],[62.2,20275],[62.2,20358],[62.2,20442],[62.2,20525],[62.2,20608],[62.2,20692],[62.2,20775],[62.2,20858],[62.2,20942],[62.2,21025],[62.2,21109],[62.2,21192],[62.3,21281],[62.3,21358],[62.3,21442],[62.3,21525],[62.3,21608],[62.3,21692],[62.3,21775],[62.3,21859],[62.3,21942],[62.3,22026],[62.3,22109],[62.3,22192],[62.3,22275],[62.3,22359],[62.3,22442],[62.3,22525],[62.3,22609],[62.3,22693],[62.3,22776],[62.3,22859],[62.3,22942],[62.3,23026],[62.3,23109],[62.3,23192],[62.3,23276],[62.3,23359],[62.3,23443],[62.3,23526],[62.3,23609],[62.3,23693],[62.3,23784],[62.2,23859],[62.1,23943],[62,24027],[61.8,24110],[61.6,24193],[61.4,24277],[61.2,24360],[61.2,24443],[61.1,24526],[61.1,24610],[61.1,24693],[61.1,24776],[61.1,24860],[61.1,24943],[61.1,25026],[61.1,25110],[61.1,25194],[61.1,25277],[61.1,25360],[61.1,25444],[61.1,25527],[61.1,25610],[61.2,25694],[61.4,25777],[62.1,25861],[62.6,25944],[62.9,26027],[62.9,26111],[62.9,26194],[62.9,26277],[62.9,26361],[62.9,26444],[62.9,26527],[62.9,26611],[62.9,26694],[62.9,26778],[62.9,26861],[62.9,26944],[62.9,27028],[62.9,27111],[62.9,27194],[62.9,27278],[62.9,27361],[62.9,27445],[62.9,27528],[62.9,27611],[62.9,27695],[62.9,27779],[62.9,27861],[64.3,27945],[66.2,28028],[67.3,28112],[69.3,28195],[69.7,28278],[70.5,28362],[71.9,28445],[72.1,28529],[72.2,28611],[72.3,28695],[72.4,28779],[72.5,28862],[72.5,28945],[72.5,29029],[72.6,29112],[72.8,29196],[73,29279],[73.2,29362],[73.3,29446],[73.3,29529],[73.3,29612],[73.3,29696],[73.3,29779],[73.3,29862],[73.3,29946],[73.3,30029],[73.3,30112],[73.3,30196],[73.3,30279],[73.3,30362],[73.2,30446],[73.2,30529],[73.2,30613],[73.1,30696],[73.1,30780],[73.1,30863],[73.1,30946],[73.1,31030],[73.1,31113],[73.1,31196],[73.1,31280],[73.1,31363],[75.4,31447],[83.8,31530],[92.5,31613],[94.3,31697],[94.4,31780],[94.7,31863],[96.1,31947],[96.6,32030],[96.8,32114],[97,32197],[97.2,32280],[97.5,32364],[97.9,32447],[98.4,32530],[98.7,32614],[98.9,32697],[99.1,32780],[99.3,32864],[99.3,32947],[99.5,33030],[99.5,33113],[99.5,33197],[99.5,33280],[99.5,33365],[99.5,33447],[99.6,33531],[99.7,33614],[99.9,33698],[100,33781],[100,33864],[100,33948],[100,34031],[100,34114],[100,34198],[100,34282],[100,34364],[100,34448],[100,34531],[100,34615],[100,34698],[100,34781],[100,34864],[100,34948],[100,35031],[100,35115],[100,35198],[100,35281],[100,35365],[100,35448],[100,35531],[100,35615],[100,35699],[100,35782],[100,35865],[100,35948],[100,36031],[100,36115],[100,36198],[100,36282],[100,36365],[100,36449],[100,36532],[100,36615],[100,36699],[100,36782],[100,36865],[100,36949],[100,37032],[100,37116],[100,37199],[100,37282],[100,37366],[100,37449],[100,37533],[100,37616],[100,37699],[100,37783],[100,37866],[100,37949],[100,38033],[100,38116],[100,38200],[100,38283],[100,38366],[100,38449],[100,38533],[100,38616],[100,38700],[100,38784],[100,38866],[100,38950],[100,39033],[100,39117],[100,39200],[100,39284],[100,39367],[100,39450],[100,39533]]",1,0,1146.9458,1150.0965,99.98079585,1.7134,"[{""rating"":99.98079585444411,""responseTime"":1.7134000000060041}]",space,2.6094,,1150.0966,Definitely yes,100,1150.0994,,,[],,0,18,18,18,1,audio/Narrative8Situation9.wav,audio/Narrative7Situation9.wav,audio/Narrative6Situation9.wav,audio/Narrative5Situation9.wav,3,2,4,3,,,,,,,,,,,,,,,,,,,,,,,,,,,,,,,,,,,,,,,
,,,,,,60ca4cfb5c287146cad0695a,2024-05-13_11h38.17.097,group3.1-3.2-social-tom,2023.2.2,Linux x86_64,59.52380952,65c5074098b851296ff0b7ed,664233a7bbe63c919b584546,,,,,,,,,,,,,,,,,,,,,,,,,,,,,,,,,,,,,,,,,,,,,,,,,,,,,,,,,,,,,,,,,,,,,,,,1150.0997,1154.3315,space,3.706,,1154.332,1167.8721,space,13.2081,,,,,,,,,,,,,,,,,,,,,,,,,,
,,,,,,60ca4cfb5c287146cad0695a,2024-05-13_11h38.17.097,group3.1-3.2-social-tom,2023.2.2,Linux x86_64,59.52380952,65c5074098b851296ff0b7ed,664233a7bbe63c919b584546,,,,,,,,,,,,,,,,,,,,,,,,,,,,,1170.4836,1,audio/Narrative7Situation9.wav,1172.49,,,,,,,1204.3633,1211.291,75.87793116,4.2522,"[{""rating"":70.58005810254274,""responseTime"":1.5834999999999582},{""rating"":73.17591241337176,""responseTime"":2.820500000000038},{""rating"":75.87793115893696,""responseTime"":4.252200000003086}]",space,6.3865,,1204.3561,Partially,50,1204.3632,,,[],,,,,,,,,,,2,2,2,2,,,,,,,,,,,,,,,1167.889,1170.4562,1172.4904,3,1204.3558,"[[999,1],[999,82],[999,166],[999,249],[999,332],[999,416],[999,499],[999,582],[999,666],[999,749],[999,833],[999,916],[999,1000],[999,1083],[999,1166],[999,1250],[999,1333],[999,1416],[999,1500],[999,1583],[999,1666],[999,1750],[999,1834],[999,1916],[999,2000],[999,2083],[999,2166],[999,2250],[999,2333],[999,2417],[999,2500],[999,2583],[999,2682],[999,2751],[999,2835],[999,2917],[999,3000],[999,3084],[999,3167],[999,3250],[999,3334],[999,3417],[999,3501],[999,3584],[999,3667],[999,3751],[999,3835],[999,3917],[999,4001],[999,4084],[999,4168],[999,4251],[999,4335],[999,4418],[999,4501],[999,4585],[999,4668],[999,4751],[999,4834],[999,4918],[999,5001],[999,5084],[999,5168],[999,5252],[999,5335],[999,5418],[999,5501],[999,5585],[999,5669],[999,5751],[999,5835],[999,5919],[999,6002],[999,6085],[999,6168],[999,6252],[999,6335],[999,6419],[999,6502],[999,6585],[999,6669],[20.5,6753],[14.4,6836],[8.5,6919],[1,7003],[0.9,7085],[0.9,7169],[0.9,7252],[0.9,7336],[0.9,7419],[0.9,7502],[0.9,7585],[0.9,7669],[0.9,7752],[0.9,7836],[0.9,7919],[0.9,8002],[0.9,8086],[0.9,8169],[0.9,8252],[0.9,8336],[0.9,8421],[0.9,8503],[0.9,8586],[0.9,8669],[0.9,8753],[0.9,8836],[0.9,8920],[0.9,9003],[0.9,9086],[0.9,9170],[1,9253],[1,9337],[1,9420],[1,9503],[1,9587],[2.7,9670],[10.3,9754],[12.3,9839],[12.3,9921],[12.3,10003],[12.3,10087],[11.4,10170],[9.7,10254],[8.6,10338],[8.5,10420],[8.3,10504],[8.2,10587],[8.2,10670],[8.2,10754],[8.2,10837],[8.2,10923],[7.7,11004],[6.6,11087],[6.4,11171],[6.3,11254],[6.3,11337],[6.3,11421],[6.3,11504],[6.3,11588],[6.3,11671],[6.3,11755],[6.3,11838],[6.3,11921],[6.3,12005],[6.3,12087],[6.3,12171],[6.3,12254],[6.3,12338],[6.3,12421],[6.3,12505],[6.3,12588],[6.3,12671],[6.3,12755],[6.3,12838],[6.3,12921],[6.3,13005],[6.3,13088],[6.3,13171],[6.3,13255],[6.3,13338],[6.3,13422],[6.3,13505],[6.3,13588],[6.3,13672],[6.3,13755],[6.3,13839],[6.3,13922],[6.3,14005],[6.3,14089],[6.3,14172],[6.3,14255],[6.3,14339],[6.3,14423],[6.3,14506],[6.3,14589],[6.3,14672],[6.3,14756],[6.3,14839],[6.3,14928],[6.3,15006],[6.3,15089],[6.3,15173],[6.3,15256],[6.3,15339],[6.3,15423],[6.3,15506],[6.3,15589],[6.3,15673],[6.3,15756],[6.3,15840],[6.3,15923],[6.3,16006],[6.3,16090],[6.3,16173],[6.3,16257],[6.3,16340],[6.3,16423],[6.3,16506],[6.3,16590],[6.3,16673],[6.3,16756],[6.3,16840],[6.3,16923],[6.3,17007],[6.3,17090],[6.3,17173],[6.3,17257],[6.3,17340],[6.3,17423],[6.3,17507],[6.3,17590],[6.3,17674],[6.3,17757],[6.3,17840],[6.3,17924],[6.3,18007],[6.3,18090],[6.3,18174],[6.3,18257],[6.3,18341],[6.3,18424],[6.3,18507],[6.3,18590],[6.3,18674],[6.3,18757],[6.3,18841],[6.3,18926],[6.3,19007],[6.3,19091],[6.3,19174],[6.3,19258],[6.3,19341],[6.3,19425],[6.3,19508],[6.3,19591],[6.3,19675],[6.3,19758],[6.3,19841],[6.3,19925],[6.3,20008],[6.3,20091],[6.3,20175],[6.3,20258],[6.3,20341],[6.3,20425],[6.3,20508],[6.3,20592],[6.3,20675],[6.3,20758],[6.3,20842],[6.3,20925],[6.3,21008],[6.3,21092],[6.3,21175],[6.3,21258],[6.3,21342],[6.3,21426],[6.3,21509],[6.3,21592],[6.3,21676],[6.3,21759],[6.3,21842],[6.3,21926],[6.3,22009],[6.3,22092],[6.3,22176],[6.3,22259],[6.3,22342],[6.3,22426],[6.3,22509],[6.3,22592],[6.3,22676],[6.3,22759],[6.3,22843],[6.3,22927],[6.3,23009],[6.3,23093],[6.3,23176],[6.3,23259],[6.3,23343],[6.3,23426],[6.3,23509],[6.3,23593],[6.3,23676],[6.3,23760],[6.3,23843],[6.3,23926],[6.3,24010],[6.3,24093],[6.3,24176],[6.3,24260],[6.3,24343],[6.3,24427],[6.3,24510],[6.3,24593],[6.3,24677],[6.3,24760],[6.3,24844],[6.3,24927],[6.3,25010],[6.3,25094],[6.3,25177],[6.3,25261],[6.3,25344],[6.3,25427],[6.3,25511],[6.3,25594],[6.6,25677],[8.6,25761],[10.7,25845],[15,25928],[28.4,26011],[29.9,26094],[29.9,26177],[29.9,26261],[29.9,26344],[56.8,27429],[56.7,27512],[56.6,27595],[56.6,27678],[56.6,27761],[56.6,27845],[56.6,27928],[56.6,28012],[56.6,28095],[56.6,28178],[56.6,28262],[56.6,28345],[56.6,28428],[56.6,28512],[56.6,28596],[56.6,28678],[56.6,28762],[56.6,28845],[56.6,28929],[62.3,29012],[62.6,29095],[62.6,29179],[62.6,29262],[62.6,29346],[62.6,29429],[62.6,29512],[62.6,29596],[62.6,29679],[62.6,29762],[62.6,29846],[62.6,29929],[62.6,30012],[62.6,30096],[62.6,30180],[62.6,30263],[62.6,30346],[62.6,30429],[62.6,30513],[62.6,30596],[62.6,30679],[62.6,30763],[62.6,30846],[62.6,30930],[62.6,31014],[62.6,31096],[62.6,31180],[62.6,31263],[62.6,31347],[62.6,31430],[63.5,31514],[64.6,31597],[65,31681],[65.2,31764],[65.3,31847]]",0,0,0,0,1,"Larry had recently lost his family, job and home, and was now living on his own in the park. He had most of his belongings, including some clothes, a blanket, and his mother’s special necklace. His family had been very important to him and he felt as though he did not have much going for him. One of his first days in the park he came across a family that did not have much food and looked very cold. He decided to give them some of his food and his blanket.","Larry had recently lost his family, job and home, and was now living on his own in the park. He had most of his belongings, including some clothes, a blanket, and his mother’s special necklace. His family had been very important to him and he felt as though he did not have much going for him. One of his first days in the park he came across a family that did not have much food and looked very cold. He decided to give them some of his food and his blanket.","Larry had recently lost his family, job and home, and was now living on his own in the park. He had most of his belongings, including some clothes, a blanket, and his mother’s special necklace. His family had been very important to him and he felt as though he did not have much going for him. One of his first days in the park he came across a family that did not have much food and looked very cold. He decided to give them some of his food and his blanket.","Larry had recently lost his family, job and home, and was now living on his own in the park. He had most of his belongings, including some clothes, a blanket, and his mother’s special necklace. His family had been very important to him and he felt as though he did not have much going for him. One of his first days in the park he came across a family that did not have much food and looked very cold. He decided to give them some of his food and his blanket.",,,,,,,,,,
,,,,,,60ca4cfb5c287146cad0695a,2024-05-13_11h38.17.097,group3.1-3.2-social-tom,2023.2.2,Linux x86_64,59.52380952,65c5074098b851296ff0b7ed,664233a7bbe63c919b584546,,,,,,,,,,,,,,,,,,,,,,,,,,,,,1211.2924,1,audio/Narrative7Situation9.wav,1217.0269,space,,,,,,1240.8935,1246.7382,84.79333944,5.2281,"[{""rating"":90.7747802259638,""responseTime"":2.339399999998477},{""rating"":87.33787651608425,""responseTime"":3.4927000000029693},{""rating"":84.79333943789068,""responseTime"":4.27150000000006},{""rating"":84.79333943789068,""responseTime"":5.228100000001632}]",space,5.3002,,1240.8878,Definitely yes,100,1240.8934,,,[],,,,,,,,,,,6,2,3,9,5.7169,,,,,,,,,,,,,,,,1217.0271,3,1240.8877,"[[74.2,934],[71.8,1017],[71.1,1100],[70.7,1184],[70.3,1267],[70.1,1350],[69.8,1433],[69.5,1517],[69,1600],[68.7,1683],[68.5,1767],[68.3,1850],[68.1,1934],[67.9,2017],[67.9,2100],[67.9,2183],[67.8,2266],[67.8,2350],[67.8,2434],[67.8,2517],[67.8,2600],[67.7,2684],[67.7,2767],[67.7,2850],[67.7,2934],[67.7,3017],[67.7,3100],[67.7,3184],[67.7,3267],[67.7,3351],[67.7,3434],[67.7,3517],[67.7,3601],[67.7,3684],[67.7,3767],[67.7,3851],[67.7,3934],[67.7,4018],[67.7,4101],[67.7,4184],[67.7,4268],[67.7,4351],[67.7,4434],[67.7,4518],[67.7,4601],[67.7,4684],[67.7,4768],[67.7,4858],[67.7,4936],[67.7,5018],[67.7,5102],[67.7,5185],[67.7,5268],[67.7,5351],[67.7,5438],[67.7,5518],[67.7,5602],[67.7,5685],[67.7,5769],[67.7,5852],[67.7,5935],[67.7,6018],[67.7,6102],[67.7,6185],[67.7,6268],[67.7,6352],[67.7,6435],[67.7,6519],[67.7,6602],[67.7,6685],[67.7,6769],[67.7,6852],[67.7,6936],[67.7,7019],[67.7,7102],[67.7,7186],[67.7,7269],[67.7,7353],[67.7,7436],[67.7,7519],[67.7,7602],[67.7,7686],[67.7,7769],[67.7,7853],[67.7,7936],[67.7,8026],[67.7,8103],[67.7,8186],[67.7,8270],[67.7,8353],[67.7,8436],[67.7,8520],[67.7,8603],[67.7,8686],[67.7,8770],[67.7,8853],[67.7,8937],[67.7,9020],[67.7,9103],[67.7,9187],[67.7,9270],[67.7,9353],[67.7,9437],[67.7,9520],[67.7,9603],[67.7,9687],[67.7,9770],[67.7,9854],[67.7,9937],[67.7,10020],[67.7,10104],[67.7,10189],[67.7,10272],[67.7,10355],[67.7,10438],[67.7,10521],[67.7,10604],[67.7,10689],[67.7,10771],[67.7,10855],[67.7,10937],[67.7,11021],[67.7,11104],[67.7,11187],[67.7,11271],[67.7,11354],[67.7,11438],[67.7,11521],[67.7,11604],[67.7,11688],[67.7,11771],[67.7,11854],[67.7,11938],[67.7,12021],[67.7,12105],[67.7,12189],[67.7,12272],[67.7,12355],[67.7,12438],[67.7,12522],[67.7,12605],[67.7,12688],[67.7,12772],[67.7,12855],[67.7,12938],[67.7,13022],[67.7,13105],[67.7,13189],[67.7,13272],[67.7,13355],[67.7,13439],[67.7,13522],[67.7,13606],[67.7,13689],[67.7,13772],[67.7,13855],[67.7,13939],[67.7,14022],[67.6,14106],[64,16023],[64,16107],[64,16190],[64,16273],[64,16357],[64,16440],[64,16523],[64,16606],[64,16690],[64,16774],[64,16857],[64,16940],[64,17024],[64,17107],[64,17190],[64,17274],[64,17357],[64,17440],[64,17523],[64,17607],[64,17690],[64,17774],[64,17857],[64,17941],[64,18024],[64,18107],[64,18191],[64,18274],[64,18358],[64,18441],[64,18524],[64,18617],[64,18691],[64,18774],[64,18858],[64,18941],[64,19024],[64,19108],[64,19192],[64,19274],[64,19358],[64,19441],[64,19525],[64,19608],[64,19691],[64,19775],[64,19858],[64,19941],[64,20025],[64,20108],[64,20192],[64,20275],[64,20358],[64,20442],[64,20525],[64,20609],[64,20692],[64,20775],[64,20859],[64,20942],[64,21025],[64,21109],[64,21192],[64,21275],[64,21359],[64,21442],[64,21526],[64,21609],[64,21692],[64,21775],[64,21859],[64,21943],[64,22026],[64,22109],[64,22192],[64,22276],[64,22359],[64,22443],[64,22526],[64,22644],[64,22726],[64,22810],[64,22893],[64,22976],[64,23059],[64,23143],[64,23226],[64,23310],[64,23393],[64,23476],[64,23560],[64,23643],[64,23726],[64,23810]]",0,1,1,1,1,"It was just another Sunday afternoon for Lucy, she was on her way to the farmer's market to pick up some produce. When she arrived at the old train depot that housed the market, she noticed two men fighting on the steps. Before she could call for help, one of the men crumpled to his knees. The other man dropped an object that appeared to be a knife and ran off. When Lucy approached the crime scene she realized that the man who had been murdered was the Mayor and that he had a gunshot wound.","One day at work, Margaret walked up to her partner, Al, to ask him to talk to the chief of staff at the local hospital where she worked as a nurse.","Luke always thought of himself as an honest man. That's why during his evening jog around the swamp, he pondered his recent affair with the receptionist at work. Luke looked up at the sky and asked God why he was so weak and unfaithful. He thought of the impact this would have on his family and told God of his conflicted feelings toward telling his wife Marta.","Linda and Amy had been best friends since kindergarten, they even found homes on the same street in the forest on the edge of town. Their biggest fight had been over who gets the bigger slice of cake, until Amy married Dan. Linda loathed Dan, she thought he was manipulative and had a violent temper. She only put up with him because Amy loved him. ",,,,,,,,,,
,,,,,,60ca4cfb5c287146cad0695a,2024-05-13_11h38.17.097,group3.1-3.2-social-tom,2023.2.2,Linux x86_64,59.52380952,65c5074098b851296ff0b7ed,664233a7bbe63c919b584546,,,,,,,,,,,,,,,,,,,,,,,,,,,,,1246.7389,1,audio/Narrative7Situation9.wav,1251.749,,,,,,,1277.9547,1281.9728,99.94695961,2.4953,"[{""rating"":99.94695960954746,""responseTime"":2.495300000004363}]",space,3.4675,,1277.9379,Definitely yes,100,1277.9546,,,[],,,,,,,,,,,4,5,2,2,,,,,,,,,,,,,,,,,1251.7492,3,1277.9378,"[[88.3,11949]]",0,2,2,2,1,On the ground beside him was a pen that she had mistaken for a knife. Lucy looked for the gunman and saw a suspicious man in black with distinct pointy features darting into an alley across the street. Cops who were nearby chased the man who had fled and arrested him.,"While waiting outside the chief of staff's office, Al heard nondescript shouting and yelling, there was a loud clatter in the room and then an eerie silence. An unfamiliar employee ran hastily out of the office with a terrified look on their face.","Suddenly, Luke heard a woman call out his name and when he turned around he saw Carly, his receptionist, across the road with a gun in her hand. Carly ran to him and explained how she had followed him here to confess her love. She exclaimed if Luke didn't love her back that she would kill him and his family. Carly explained that the only way they could be together is to kill Marta.","This feeling of hate between Amy and Dan was mutual, Dan didn't like how much time his wife spent with her and thought Amy was creating distance between their marriage. That's why Dan decided to try and tarnish Linda's reputation with his wife, in hopes it would get rid of her. He came home one afternoon and exclaimed that Linda had tried to kiss him. Amy was taken aback and immediately called Linda to confront her about these accusations. When Linda arrived she denied having made a move on Dan, but discovered Dan had enlisted the help of his friend Will who said he witnessed it all happen.",,,,,,,,,,
,,,,,,60ca4cfb5c287146cad0695a,2024-05-13_11h38.17.097,group3.1-3.2-social-tom,2023.2.2,Linux x86_64,59.52380952,65c5074098b851296ff0b7ed,664233a7bbe63c919b584546,,,,,,,,,,,,,,,,,,,,,,,,,,,,,1281.9733,1,audio/Narrative7Situation9.wav,1283.9736,,,,,,,1306.5242,1311.3862,67.2493912,4.306,"[{""rating"":63.86076524598066,""responseTime"":1.9243000000044503},{""rating"":67.24939119579385,""responseTime"":4.30600000000004}]",space,4.3192,,1306.5012,Partially,50,1306.5241,,,[],,,,,,,,,,,2,2,1,4,,,,,,,,,,,,,,,,,1283.9737,3,1306.5011,"[[999,0],[999,83],[999,166],[999,249],[999,333],[999,416],[999,499],[999,583],[999,666],[999,750],[999,833],[999,916],[999,1000],[999,1083],[999,1166],[999,1250],[999,1334],[999,1417],[999,1500],[999,1584],[999,1667],[999,1750],[999,1834],[999,1917],[999,2000],[999,2084],[999,2167],[999,2250],[999,2334],[999,2417],[999,2500],[999,2584],[999,2667],[999,2751],[999,2834],[999,2917],[999,3001],[999,3084],[999,3168],[999,3251],[999,3334],[999,3417],[999,3501],[999,3584],[999,3668],[999,3751],[999,3835],[999,3917],[999,4001],[999,4085],[999,4168],[999,4251],[999,4335],[999,4418],[999,4502],[999,4586],[999,4669],[999,4752],[999,4835],[999,4918],[999,5001],[999,5085],[999,5168],[999,5252],[999,5335],[999,5419],[999,5502],[999,5586],[999,5669],[999,5752],[999,5836],[999,5919],[999,6003],[999,6086],[999,6169],[999,6252],[999,6336],[999,6419],[999,6502],[999,6586],[999,6669],[999,6753],[999,6836],[999,6919],[999,7003],[999,7086],[999,7170],[999,7254],[999,7337],[999,7420],[999,7503],[999,7587],[999,7670],[999,7753],[999,7837],[999,7920],[999,8005],[999,8086],[999,8170],[999,8253],[999,8337],[999,8420],[999,8508],[999,8587],[999,8670],[999,8753],[999,8837],[999,8920],[999,9003],[999,9087],[999,9170],[999,9254],[999,9337],[999,9421],[999,9504],[999,9587],[999,9671],[999,9754],[999,9837],[999,9937],[999,10021],[999,10104],[999,10187],[999,10271],[999,10354],[999,10438],[999,10520],[999,10605],[999,10687],[999,10771],[999,10854],[999,10938],[999,11021],[999,11105],[999,11188],[999,11271],[999,11354],[999,11438],[999,11521],[999,11605],[999,11688],[999,11772],[999,11855],[999,11938],[999,12021],[999,12105],[999,12188],[999,12272],[999,12355],[999,12438],[999,12522],[999,12605],[999,12689],[999,12772],[999,12855],[999,12939],[999,13022],[999,13106],[999,13189],[999,13272],[999,13356],[999,13439],[999,13522],[999,13606],[999,13689],[999,13772],[999,13856],[999,13939],[999,14022],[999,14106],[999,14189],[999,14273],[999,14356],[999,14439],[999,14522],[999,14606],[999,14689],[999,14773],[999,14856],[999,14940],[999,15023],[999,15106],[999,15190],[999,15273],[999,15356],[999,15440],[999,15523],[999,15606],[999,15690],[999,15773],[999,15856],[999,15940],[999,16023],[999,16107],[999,16190],[999,16273],[999,16357],[999,16440],[999,16524],[999,16607],[999,16690],[999,16774],[999,16857],[999,16940],[999,17024],[999,17107],[999,17190],[999,17274],[999,17357],[999,17441],[999,17524],[999,17607],[999,17691],[999,17774],[999,17857],[999,17941],[999,18024],[999,18107],[999,18191],[999,18274],[999,18358],[999,18441],[999,18525],[999,18608],[999,18691],[999,18775],[999,18858],[999,18941],[999,19025],[999,19108],[999,19191],[999,19275],[999,19358],[999,19442],[999,19525],[999,19608],[999,19692],[999,19775],[999,19858],[999,19942],[999,20025],[999,20108],[999,20192],[999,20276],[999,20359],[999,20442],[999,20525],[999,20608],[999,20692],[999,20775],[999,20859],[999,20942],[999,21025],[999,21109],[999,21193],[999,21276],[999,21359],[999,21443],[999,21526],[999,21610],[999,21692],[999,21776],[999,21859],[999,21943],[999,22026],[999,22110],[999,22193],[999,22277],[999,22359],[999,22443],[999,22526]]",0,3,3,3,1,"But Lucy knew the charged man was innocent, which meant the killer was free. Lucy vowed to find out who the real murderer was and to stop him at all costs.","Al explained to the chief of staff that Margaret wanted to be excused from her absences last week. The chief of staff, Susan, revealed that she wanted to fire Margaret and never see her again. Susan and Al had been having an affair and she wanted Margaret ""out of the picture"". Al was conflicted, but agreed it would be for the best.","Luke thought of his child and felt like this was his only option. He agreed to the plan and called his wife to meet him at the swamp to watch the sunset with him. When she arrived, Marta called out for her husband, but found Carly waiting for her. She immediately drew her gun and shot her in the chest, knocking her unconscious.","Since it was their word against her own, she decided to go home and admit defeat. She knew how much it would hurt Amy to know the truth.",,,,,,,,,,
,,,,,,60ca4cfb5c287146cad0695a,2024-05-13_11h38.17.097,group3.1-3.2-social-tom,2023.2.2,Linux x86_64,59.52380952,65c5074098b851296ff0b7ed,664233a7bbe63c919b584546,,,,,,,,,,,,,,,,,,,,,,,,,,,,,1311.3869,1,audio/Narrative7Situation9.wav,1312.4032,,,,,,,1334.9495,1338.0484,57.92921845,1.8582,"[{""rating"":57.929218445451134,""responseTime"":1.8582000000030803}]",space,2.5559,,1334.9302,Definitely yes,100,1334.9495,,,[],,,,,,,,,,,1,1,3,3,,,,,,,,,,,,,,,,,1312.4033,3,1334.9301,"[[67.2,12088]]",0,4,4,4,1,"The next day the mayors successor, Mr. Smith, a man who was very unpopular due to his strong ties to the oil companies, took office. After a long day of brainstorming about the mysterious killer, Lucy decided to attend his welcome ceremony in the city. During the mayor's speech, she noticed one of the security guards looked strangely familiar. It dawned on her that this new mayor had motive to kill and that the man in black could've been the guard working for him.","Weeks passed and nobody had seen Margaret. Coworkers and friends searched the nearby city looking for her. One day on patrol in a nearby town, a police officer heard someone crying for help in the basement of a house and went in to investigate. Margaret yelled that she was being held captive and needed help.","Luke ran to Marta, and filled with regret over his decision to go along with Carly's plan, picked her up and rushed her to the hospital. The doctors tried to help Marta by taking her into emergency surgery but failed to save her life. Once the doctor called the time of death, Luke fell to his knees and sobbed over his rash decision.","Months later Dan had taken up a mistress, he was growing bored with his marriage ever since he got rid of Linda and was only still with Amy for her family's money. In a hotel room in a nearby town, Dan and his mistress, Nicole, conspired to secretly kill Amy while still obtaining her fortune.",,,,,,,,,,
