exp_question,consent.started,consent.stopped,consentResponse.keys,consentResponse.rt,consentResponse.duration,participantID,date,expName,psychopyVersion,OS,frameRate,STUDY_ID,SESSION_ID,opening1.started,opening1.stopped,keyEndingOpening1.keys,keyEndingOpening1.rt,keyEndingOpening1.duration,volumeAdjust.started,volumeAdjust.stopped,endingAdjust.keys,endingAdjust.rt,endingAdjust.duration,opening2.started,opening2.stopped,keyEndingOpening.keys,keyEndingOpening.rt,keyEndingOpening.duration,mouse.x,mouse.y,mouse.leftButton,mouse.midButton,mouse.rightButton,mouse.time,instructionLoop.thisRepN,instructionLoop.thisTrialN,instructionLoop.thisN,instructionLoop.thisIndex,instructionLoop.ran,readyForAudio.started,readyForAudio.stopped,fixation.started,run,audio_played,fixation.stopped,endPractice.keys,audioPre.started,audioPre.stopped,continuousResponses_audio,continuousSlider.response,continuousSlider.rt,intRating.started,intRating.stopped,intQuestionSlider.response,intQuestionSlider.rt,intQuestionSlider.history,confirmResponse.keys,confirmResponse.rt,confirmResponse.duration,catchQuestion.started,catch_label,catch_value,catchQuestion.stopped,catchQuestionSlider.response,catchQuestionSlider.rt,catchQuestionSlider.history,confirmResponse_2.keys,audioRunLoop.thisRepN,audioRunLoop.thisTrialN,audioRunLoop.thisN,audioRunLoop.thisIndex,audioRunLoop.ran,conditions1_1,conditions2_1,conditions1_2,conditions2_2,dur1_1,dur2_1,dur1_2,dur2_2,endPractice.rt,endPractice.duration,confirmResponse_2.rt,confirmResponse_2.duration,runIntervalBreak.started,runIntervalBreak.stopped,endingBreakKey.keys,endingBreakKey.rt,endingBreakKey.duration,connection.started,connection.stopped,connectionEnding.keys,connectionEnding.rt,connectionEnding.duration,readyForText.started,readyForText.stopped,textPre.started,run_dup,textPre.stopped,continuousResponses_text,textRunLoop.thisRepN,textRunLoop.thisTrialN,textRunLoop.thisN,textRunLoop.thisIndex,textRunLoop.ran,text1_1,text1_2,text2_1,text2_2,runBreakText.started,runBreakText.stopped,endingBreakKey_2.keys,endingBreakKey_2.rt,endingBreakKey_2.duration,ending.started,ending.stopped,endingEnding.keys,endingEnding.rt,endingEnding.duration
social,0.0127,15.4274,y,15.0955,,60dbf4d94a3b5564b68881e8,2024-05-13_11h46.23.883,group3.1-3.2-social-tom,2023.2.2,MacIntel,60.24096386,65c5074098b851296ff0b7ed,664235605606d215c5f038c0,,,,,,,,,,,,,,,,,,,,,,,,,,,,,,,,,,,,,,,,,,,,,,,,,,,,,,,,,,,,,,,,,,,,,,,,,,,,,,,,,,,,,,,,,,,,,,,,,,,,,,,,,,
,,,,,,60dbf4d94a3b5564b68881e8,2024-05-13_11h46.23.883,group3.1-3.2-social-tom,2023.2.2,MacIntel,60.24096386,65c5074098b851296ff0b7ed,664235605606d215c5f038c0,15.4276,19.8194,space,4.3715,,,,,,,,,,,,,,,,,,,,,,,,,,,,,,,,,,,,,,,,,,,,,,,,,,,,,,,,,,,,,,,,,,,,,,,,,,,,,,,,,,,,,,,,,,,,,,,,,,,,,,
,,,,,,60dbf4d94a3b5564b68881e8,2024-05-13_11h46.23.883,group3.1-3.2-social-tom,2023.2.2,MacIntel,60.24096386,65c5074098b851296ff0b7ed,664235605606d215c5f038c0,,,,,,19.8196,27.862,space,7.7188,,,,,,,,,,,,,,,,,,,,,,,,,,,,,,,,,,,,,,,,,,,,,,,,,,,,,,,,,,,,,,,,,,,,,,,,,,,,,,,,,,,,,,,,,,,,,,,,,
,,,,,,60dbf4d94a3b5564b68881e8,2024-05-13_11h46.23.883,group3.1-3.2-social-tom,2023.2.2,MacIntel,60.24096386,65c5074098b851296ff0b7ed,664235605606d215c5f038c0,,,,,,,,,,,27.8809,36.5634,space,8.6588,,[],[],[],[],[],[],0,0,0,0,1,,,,,,,,,,,,,,,,,,,,,,,,,,,,,,,,,,,,,,,,,,,,,,,,,,,,,,,,,,,,,,,,,,,,,,,,,,,,,,,,
,,,,,,60dbf4d94a3b5564b68881e8,2024-05-13_11h46.23.883,group3.1-3.2-social-tom,2023.2.2,MacIntel,60.24096386,65c5074098b851296ff0b7ed,664235605606d215c5f038c0,,,,,,,,,,,36.5742,58.2001,space,21.5382,,[],[],[],[],[],[],1,0,1,0,1,,,,,,,,,,,,,,,,,,,,,,,,,,,,,,,,,,,,,,,,,,,,,,,,,,,,,,,,,,,,,,,,,,,,,,,,,,,,,,,,
,,,,,,60dbf4d94a3b5564b68881e8,2024-05-13_11h46.23.883,group3.1-3.2-social-tom,2023.2.2,MacIntel,60.24096386,65c5074098b851296ff0b7ed,664235605606d215c5f038c0,,,,,,,,,,,58.2105,71.4017,space,13.1484,,[],[],[],[],[],[],2,0,2,0,1,,,,,,,,,,,,,,,,,,,,,,,,,,,,,,,,,,,,,,,,,,,,,,,,,,,,,,,,,,,,,,,,,,,,,,,,,,,,,,,,
,,,,,,60dbf4d94a3b5564b68881e8,2024-05-13_11h46.23.883,group3.1-3.2-social-tom,2023.2.2,MacIntel,60.24096386,65c5074098b851296ff0b7ed,664235605606d215c5f038c0,,,,,,,,,,,71.4132,96.0059,space,24.5759,,[],[],[],[],[],[],3,0,3,0,1,,,,,,,,,,,,,,,,,,,,,,,,,,,,,,,,,,,,,,,,,,,,,,,,,,,,,,,,,,,,,,,,,,,,,,,,,,,,,,,,
,,,,,,60dbf4d94a3b5564b68881e8,2024-05-13_11h46.23.883,group3.1-3.2-social-tom,2023.2.2,MacIntel,60.24096386,65c5074098b851296ff0b7ed,664235605606d215c5f038c0,,,,,,,,,,,96.0176,109.8583,space,13.8157,,[],[],[],[],[],[],4,0,4,0,1,,,,,,,,,,,,,,,,,,,,,,,,,,,,,,,,,,,,,,,,,,,,,,,,,,,,,,,,,,,,,,,,,,,,,,,,,,,,,,,,
,,,,,,60dbf4d94a3b5564b68881e8,2024-05-13_11h46.23.883,group3.1-3.2-social-tom,2023.2.2,MacIntel,60.24096386,65c5074098b851296ff0b7ed,664235605606d215c5f038c0,,,,,,,,,,,,,,,,,,,,,,,,,,,109.8713,112.4421,112.4652,1,audio/Narrative13Situation2.wav,114.4765,,114.4767,144.2316,"[[999,2],[999,116],[999,198],[999,282],[999,366],[999,449],[999,532],[999,616],[999,699],[999,783],[999,866],[999,948],[999,1032],[999,1116],[999,1199],[999,1282],[999,1365],[999,1449],[999,1532],[999,1616],[999,1698],[999,1782],[999,1865],[999,1949],[999,2032],[999,2115],[999,2199],[999,2282],[999,2366],[999,2449],[999,2533],[999,2616],[999,2699],[999,2783],[999,2865],[999,2949],[999,3032],[999,3116],[999,3199],[999,3283],[999,3366],[999,3449],[999,3533],[999,3615],[999,3699],[999,3782],[999,3866],[999,3949],[999,4032],[999,4116],[999,4199],[999,4283],[999,4366],[999,4449],[999,4533],[999,4616],[999,4699],[999,4783],[999,4866],[999,4949],[999,5033],[999,5116],[999,5199],[999,5282],[999,5366],[999,5450],[999,5533],[999,5616],[999,5700],[999,5783],[999,5877],[999,5950],[97.7,6033],[100,6116],[100,6200],[97.7,6283],[94.3,6366],[94.2,6450],[94.2,6532],[94.2,6616],[94.2,6700],[94.2,6783],[94.2,6866],[94.2,6950],[94.2,7033],[94.2,7117],[94.2,7199],[94.2,7283],[94.2,7367],[94.2,7450],[94.2,7532],[94.2,7617],[94.2,7700],[90.9,7784],[88.3,7866],[88,7950],[88,8033],[88,8117],[87.9,8200],[87.9,8283],[87.9,8366],[87.9,8450],[87.9,8533],[87.9,8616],[88,8699],[88.2,8784],[92.4,8867],[95,8950],[95.1,9034],[95.1,9117],[95.1,9200],[95.1,9284],[95.1,9367],[95.1,9450],[95.1,9533],[97.2,9616],[100,9700],[100,9784],[100,9866],[100,9951],[100,10034],[100,10117],[100,10200],[100,10284],[100,10367],[100,10451],[100,10534],[100,10617],[100,10700],[100,10783],[100,10867],[100,10950],[100,11033],[100,11117],[100,11201],[100,11284],[100,11367],[100,11451],[100,11533],[100,11617],[100,11700],[100,11783],[100,11866],[100,11950],[100,12034],[100,12117],[100,12200],[100,12284],[100,12367],[98.6,12451],[91.2,12534],[89.9,12618],[89.9,12701],[89.9,12784],[90.2,12867],[91.5,12951],[94.2,13034],[96.1,13117],[96.2,13201],[96.2,13283],[96.1,13368],[96.9,13451],[100,13534],[100,13618],[100,13701],[100,13785],[100,13868],[100,13950],[100,14034],[100,14118],[100,14200],[100,14284],[100,14368],[100,14451],[100,14534],[100,14618],[100,14701],[100,14784],[100,14868],[100,14952],[100,15036],[100,15117],[100,15201],[100,15284],[100,15367],[100,15450],[100,15535],[100,15618],[100,15701],[100,15784],[100,15868],[99.5,15952],[99.1,16034],[98.7,16118],[98.4,16202],[98.1,16285],[97.7,16368],[97.5,16452],[97.1,16534],[95.9,16617],[92.3,16702],[90.8,16785],[90.4,16868],[90.4,16952],[90.4,17034],[90.4,17118],[90.4,17201],[90.4,17285],[90.4,17367],[89.4,17451],[88.8,17535],[88.5,17618],[88.4,17702],[88.3,17784],[88.1,17869],[87.6,17951],[86.4,18035],[83.6,18119],[78.9,18201],[70.2,18285],[58,19118],[57,19202],[57,19285],[57,19368],[55.9,19452],[54.9,19535],[50.3,19619],[45.2,19701],[44.5,19785],[44.5,19868],[44.5,19952],[44.5,20034],[44.5,20118],[44.5,20202],[44.5,20285],[44.5,20369],[44.5,20452],[44.5,20535],[44.5,20618],[44.5,20702],[44.5,20785],[44.5,20869],[44.5,20952],[44.5,21035],[43.5,21118],[34.5,21202],[31.1,21286],[30.8,21369],[30.2,21452],[19.5,21535],[13.1,21619],[12.8,21702],[12.8,21786],[12.8,21869],[12.8,21952],[12.8,22036],[12.8,22119],[12.8,22202],[11.9,22286],[11.8,22369],[11.8,22452],[11.8,22536],[11.8,22619],[11.8,22702],[12.3,22785],[19.6,22869],[26.8,22952],[28.6,23035],[28.6,23119],[28.6,23203],[28.6,23286],[28.6,23368],[28.6,23453],[28.6,23536],[32,23618],[54.3,23703],[56.5,23786],[56.2,23869],[55.4,23953],[54.5,24036],[54.5,24119],[54.5,24202],[54.5,24286],[54.5,24369],[54.5,24452],[54.5,24535],[54.5,24620],[54.5,24702],[55.7,24785],[64.5,24870],[65.1,24953],[65.1,25036],[65.1,25119],[65.1,25203],[65,25286],[65,25370],[65,25452],[64.9,25536],[64.5,25619],[63.3,25702],[60.3,25786],[59.1,25870],[58.6,25952],[58.6,26036],[58.6,26120],[58.6,26203],[58.2,26287],[51.1,26369],[48,26453],[47.5,26536],[47.5,26619],[47.5,26703],[47.5,26786],[47.5,26869],[47.5,26953],[47.5,27036],[45.9,27120],[34.5,27203],[31.8,27288],[31.3,27369],[31.2,27453],[31.2,27536],[31.1,27620],[26,27703],[15.7,27786],[14.5,27870],[14.5,27962],[14.5,28045],[13.9,28119],[6.5,28203],[1.9,28286],[1.5,28370],[1.5,28453],[1.5,28537],[1.5,28620],[1.6,28703],[1.6,28787],[1.6,28870],[1.6,28953],[1.7,29037],[1.9,29120],[2,29203],[2.1,29287],[2.2,29370],[2.2,29453],[2.2,29536],[2.2,29620],[2.3,29703]]",1,0,144.2319,151.2996,89.66245015,4.6087,"[{""rating"":89.66245015462239,""responseTime"":4.6087000000476905}]",space,6.5168,,151.3,Not at all,0,151.305,,,[],,0,0,0,0,1,audio/Narrative13Situation2.wav,audio/Narrative13Situation2.wav,audio/Narrative13Situation2.wav,audio/Narrative13Situation2.wav,2,2,2,2,,,,,,,,,,,,,,,,,,,,,,,,,,,,,,,,,,,,,,,
,,,,,,60dbf4d94a3b5564b68881e8,2024-05-13_11h46.23.883,group3.1-3.2-social-tom,2023.2.2,MacIntel,60.24096386,65c5074098b851296ff0b7ed,664235605606d215c5f038c0,,,,,,,,,,,,,,,,,,,,,,,,,,,,,151.3053,1,audio/Narrative7Situation1.wav,153.3649,space,153.3649,209.2415,"[[89.2,1917],[88.5,2001],[87.7,2084],[87.4,2167],[87.4,2251],[87.4,2334],[88.2,2416],[94.6,2501],[96.3,2584],[96.3,2667],[96.3,2751],[96.3,2833],[96.3,2917],[96.3,3001],[96.3,3083],[96.3,3167],[96.3,3251],[96.2,3334],[94.6,3418],[85.1,3501],[82.6,3584],[82.6,3667],[82.6,3751],[82.6,3834],[82.6,3918],[82.6,4001],[82.6,4084],[82.6,4168],[82.6,4251],[82.6,4333],[82.6,4418],[82.6,4501],[82.6,4584],[82.6,4668],[82.6,4751],[82.6,4834],[82.6,4917],[82.6,5001],[82.6,5084],[82.6,5167],[82.6,5251],[82.6,5334],[82.6,5417],[82.6,5500],[82.6,5584],[82.6,5667],[82.6,5751],[82.1,5834],[80.7,5918],[80.4,6001],[80.2,6084],[79.8,6168],[79.4,6251],[79.1,6334],[78.7,6418],[77.8,6501],[76.7,6584],[75.4,6667],[72,6752],[67.1,6835],[66.5,6918],[66.5,7001],[66.5,7085],[66.5,7168],[66.5,7250],[66.5,7334],[66.5,7418],[66.5,7501],[66.5,7585],[68.8,7668],[78.1,7751],[82.7,7834],[82.8,7918],[82.8,8001],[82.8,8085],[82.8,8168],[82.8,8252],[83.4,8335],[84.1,8418],[84.1,8501],[84.1,8584],[84.1,8668],[84.1,8751],[84.1,8835],[84.1,8918],[84.2,9002],[86.9,9084],[88.7,9168],[88.8,9252],[88.8,9334],[88.8,9418],[88.8,9502],[88.8,9585],[88.8,9668],[88.8,9752],[88.8,9835],[88.8,9918],[89,10002],[89.2,10085],[89.5,10169],[89.6,10251],[89.6,10335],[89.6,10419],[89.6,10501],[89.6,10585],[89.6,10669],[89.6,10752],[89.6,10834],[89.6,10919],[89.6,11001],[89.6,11085],[89.6,11168],[89.6,11252],[89.6,11335],[89.6,11419],[89.6,11502],[89.6,11585],[89.6,11669],[89.6,11752],[89.6,11836],[90,11919],[99,12001],[100,12086],[100,12169],[100,12251],[100,12336],[100,12419],[100,12502],[100,12586],[100,12669],[100,12752],[100,12836],[100,12919],[100,13002],[100,13086],[100,13168],[100,13252],[100,13336],[100,13418],[100,13502],[100,13586],[100,13669],[100,13752],[100,13835],[100,13919],[100,14003],[100,14086],[100,14169],[100,14253],[100,14335],[99.8,14419],[99.6,14502],[99.4,14585],[99.3,14669],[99.2,14753],[99.1,14835],[99.1,14919],[99.1,15003],[99.1,15086],[99.1,15168],[99.1,15252],[99.2,15336],[99.2,15419],[99.2,15502],[99.2,15586],[99.2,15669],[99.2,15752],[99.2,15836],[99.2,15919],[99.2,16003],[99.2,16086],[99.2,16170],[99.2,16253],[99.2,16335],[99.2,16419],[99.2,16503],[99.2,16586],[99.2,16670],[99.2,16752],[99.2,16836],[99.2,16919],[99.2,17003],[99.2,17086],[98.7,17170],[96.7,17252],[95.7,17337],[95.6,17420],[95.6,17502],[91.1,17586],[84,17669],[82.8,17753],[82.8,17836],[82.9,17919],[82.9,18003],[82.9,18086],[82.9,18170],[82,18253],[70.9,18336],[66.7,18420],[66.4,18503],[66.2,18586],[66,18670],[66,18753],[66,18836],[66,18919],[66,19002],[65.4,19086],[60.5,19170],[58.2,19253],[57.2,19337],[57.1,19420],[57.1,19503],[57.1,19587],[57.1,19670],[57.1,19753],[57.1,19836],[57.1,19920],[57.2,20003],[62.9,20087],[67.9,20169],[68.2,20253],[68.2,20337],[68.2,20420],[68.2,20504],[68.2,20587],[68.1,20670],[68.1,20754],[68.1,20837],[68.1,20920],[68.1,21003],[68.1,21086],[68.1,21169],[68.1,21253],[68.1,21336],[68.1,21420],[68.1,21503],[68.1,21587],[68.1,21671],[68.1,21754],[68.1,21837],[68.1,21920],[68.1,22004],[68.1,22087],[68.1,22170],[68.1,22254],[68.1,22336],[68.1,22420],[68.1,22503],[68.1,22587],[68.1,22671],[68.1,22754],[68.1,22837],[67.3,22920],[63.3,23004],[61.7,23087],[61.7,23170],[61.7,23254],[60.9,23337],[56.2,23420],[54.4,23503],[54.4,23587],[54.4,23670],[54.4,23754],[54.4,23837],[51,23920],[47.7,24004],[46.4,24088],[46.1,24171],[46.1,24254],[46.1,24337],[46.1,24421],[43.8,24504],[39.8,24587],[39.2,24671],[39.2,24753],[39.2,24838],[39.2,24921],[39.2,25004],[39.2,25087],[39.2,25171],[39,25254],[35.6,25338],[33.1,25420],[33,25504],[33,25588],[33,25671],[33,25754],[33,25837],[33,25921],[33,26003],[33,26088],[33,26171],[33,26253],[33,26338],[33,26421],[33,26504],[33.2,26587],[35.6,26671],[36.5,26755],[36.5,26837],[36.5,26920],[36.5,27005],[36.5,27088],[36.5,27170],[36.5,27255],[36.5,27338],[36.5,27421],[36.5,27505],[36.5,27588],[36.6,27672],[37.3,27754],[38.7,27838],[38.9,27922],[38.9,28004],[38.9,28088],[38.9,28171],[38.9,28255],[38.9,28338],[38.9,28422],[39.9,28505],[45.6,28588],[49.7,28671],[50.7,28755],[50.9,28838],[52.6,28921],[56.2,29005],[56.9,29088],[56.9,29172],[56.9,29254],[56.9,29337],[56.9,29422],[56.9,29505],[56.9,29589],[56.9,29672],[56.9,29755],[56.9,29838],[56.9,29922],[56.9,30004],[60,30089],[62,30172],[62.1,30254],[62.1,30338],[62.1,30421],[62.1,30505],[62.1,30590],[62.1,30672],[62.1,30755],[62.3,30838],[63.4,30922],[63.9,31005],[63.9,31089],[63.9,31172],[63.9,31255],[63.9,31338],[64.1,31421],[66.2,31506],[67.6,31588],[67.8,31671],[67.9,31755],[68,31838],[70,31922],[73,32005],[74.4,32089],[74.5,32172],[74.5,32255],[74.5,32338],[74.5,32422],[74.5,32505],[74.5,32588],[74.7,32672],[80.2,32755],[82.2,32839],[82.3,32922],[82.3,33005],[82.3,33089],[82.3,33171],[82.3,33255],[82.3,33338],[82.3,33422],[82.3,33505],[82.7,33589],[83.7,33672],[84,33755],[85.8,33839],[91.6,33922],[100,34006],[100,34088],[100,34172],[100,34255],[100,34338],[100,34422],[100,34505],[100,34589],[100,34672],[100,34755],[100,34839],[100,34922],[100,35005],[100,35089],[100,35173],[100,35255],[100,35339],[100,35423],[100,35506],[100,35590],[99.9,35673],[99.7,35756],[99.6,35839],[99.5,35923],[99.4,36006],[99.3,36089],[99.2,36172],[99.2,36255],[99.2,36339],[99.3,36422],[100,36505],[100,36590],[100,36672],[100,36756],[100,36839],[100,36923],[100,37006],[100,37090],[100,37172],[100,37255],[100,37339],[100,37422],[100,37506],[100,37590],[100,37673],[100,37756],[100,37840],[100,37923],[100,38006],[100,38089],[100,38173],[100,38256],[100,38339],[100,38423],[100,38506],[100,38590],[100,38673],[100,38757],[100,38840],[100,38923],[100,39007],[100,39090],[100,39173],[100,39256],[100,39339],[100,39423],[100,39506],[100,39589],[100,39673],[100,39757],[100,39840],[100,39923],[100,40007],[100,40090],[100,40173],[100,40257],[100,40339],[100,40423],[100,40507],[100,40589],[100,40673],[100,40756],[100,40840],[100,40924],[100,41007],[100,41090],[100,41174],[100,41257],[100,41340],[100,41424],[100,41507],[100,41590],[100,41674],[100,41756],[100,41839],[100,41923],[100,42007],[100,42090],[100,42174],[100,42257],[100,42340],[100,42424],[100,42507],[100,42590],[100,42674],[100,42756],[100,42840],[100,42923],[100,43006],[100,43090],[100,43174],[100,43257],[100,43341],[100,43424],[100,43507],[100,43591],[100,43674],[100,43756],[100,43840],[100,43923],[100,44006],[100,44091],[100,44173],[100,44257],[100,44341],[100,44424],[100,44508],[100,44591],[100,44674],[100,44757],[100,44841],[100,44924],[100,45007],[100,45091],[99.5,45174],[99.2,45257],[99.2,45341],[99.2,45424],[99.2,45508],[99.2,45590],[99.2,45674],[99.2,45758],[99.2,45840],[99.2,45924],[99.2,46007],[99.2,46090],[99.2,46174],[99.2,46257],[99.2,46340],[99.2,46424],[99.2,46508],[99.2,46591],[99.2,46675],[99.2,46758],[99.2,46841],[99.2,46924],[99.2,47008],[99.2,47091],[99.2,47174],[99.2,47258],[99.2,47341],[99.2,47424],[99.2,47507],[99.2,47591],[99.2,47675],[99.2,47758],[99.2,47841],[99.2,47924],[99.2,48008],[99.2,48091],[99.2,48175],[99.2,48258],[99.2,48341],[99.2,48425],[99.2,48507],[99.2,48591],[99.2,48674],[99.2,48758],[99.2,48842],[99.2,48925],[99.2,49008],[99.2,49092],[99.2,49175],[99.2,49257],[99.2,49341],[99.2,49425],[99.2,49508],[99.2,49592],[99.2,49675],[99.2,49758],[99.2,49841],[99.2,49925],[99.2,50008],[99.2,50092],[99.2,50175],[99.2,50258],[99.2,50342],[99.2,50425],[99.2,50509],[99.2,50591],[99.2,50675],[99.2,50759],[99.2,50841],[99.2,50925],[99.2,51008],[99.2,51092],[99.2,51174],[99.2,51259],[99,51346],[98.1,51426],[97.3,51508],[97.2,51592],[97.2,51674],[97.2,51758],[97.2,51842],[97.5,51925],[98.4,52009],[98.9,52091],[99.2,52176],[99.2,52258],[99.2,52342],[99.2,52426],[99.2,52509],[99.2,52591],[99.2,52675],[99.2,52758],[99.2,52842],[99.2,52925],[99.2,53008],[99.2,53091],[99.2,53175],[99.2,53258],[99.2,53341],[99.2,53425],[99.2,53509],[99.2,53592],[99.2,53676],[99.2,53759],[99.2,53842],[99.2,53926],[99.2,54008],[99.2,54092],[99.2,54175],[99.2,54258],[99.2,54342],[99.2,54425],[99.2,54509],[99.2,54592],[99.2,54676],[99.2,54759],[99.2,54842],[99.2,54926],[99.2,55009],[99.2,55093],[99.2,55176],[99.2,55259],[99.2,55342],[99.2,55425],[99.2,55510],[99.2,55592],[99.2,55676],[99.2,55759],[99.2,55843]]",1,0,209.2418,214.8915,98.17248874,3.2272,"[{""rating"":98.17248874240451,""responseTime"":3.227199999928473}]",space,5.0946,,214.8917,Not at all,0,214.9092,,,[],,0,1,1,1,1,audio/Narrative7Situation1.wav,audio/Narrative8Situation1.wav,audio/Narrative5Situation1.wav,audio/Narrative6Situation1.wav,2,5,5,2,2.0423,,,,,,,,,,,,,,,,,,,,,,,,,,,,,,,,,,,,,,
,,,,,,60dbf4d94a3b5564b68881e8,2024-05-13_11h46.23.883,group3.1-3.2-social-tom,2023.2.2,MacIntel,60.24096386,65c5074098b851296ff0b7ed,664235605606d215c5f038c0,,,,,,,,,,,,,,,,,,,,,,,,,,,,,214.9095,1,audio/Narrative7Situation2.wav,217.9101,,217.9102,225.3943,"[[999,0],[999,83],[999,166],[999,249],[999,331],[999,415],[999,499],[999,582],[999,666],[999,750],[999,833],[999,915],[999,999],[999,1082],[999,1166],[999,1249],[999,1332],[999,1416],[999,1499],[999,1582],[999,1666],[999,1748],[999,1832],[999,1916],[999,2000],[999,2082],[999,2166],[999,2250],[78.5,2332],[78.6,2415],[78.6,2500],[78.6,2583],[78.6,2666],[78.6,2749],[78.6,2833],[78.6,2916],[78.6,2999],[78.6,3083],[78.8,3165],[80,3249],[84,3333],[86.6,3416],[87.3,3499],[87.5,3583],[87.7,3666],[87.8,3749],[87.9,3832],[91.6,3916],[100,4000],[100,4083],[100,4166],[100,4250],[100,4333],[100,4415],[100,4500],[100,4583],[100,4666],[100,4749],[100,4833],[100,4916],[100,5000],[100,5083],[100,5166],[100,5249],[100,5332],[100,5417],[100,5500],[100,5582],[100,5666],[100,5750],[100,5833],[100,5917],[100,6000],[100,6083],[100,6166],[100,6250],[100,6333],[100,6416],[100,6499],[100,6583],[100,6667],[100,6749],[100,6834],[100,6917],[100,7000],[100,7083],[100,7167],[100,7249],[100,7333],[100,7416]]",1,0,225.3945,229.2438,99.61642795,2.2601,"[{""rating"":99.61642795138889,""responseTime"":2.26010000002384}]",space,3.307,,229.244,Partially,50,229.2495,,,[],,0,2,2,2,1,audio/Narrative7Situation2.wav,audio/Narrative8Situation2.wav,audio/Narrative5Situation2.wav,audio/Narrative6Situation2.wav,3,3,3,3,,,,,,,,,,,,,,,,,,,,,,,,,,,,,,,,,,,,,,,
,,,,,,60dbf4d94a3b5564b68881e8,2024-05-13_11h46.23.883,group3.1-3.2-social-tom,2023.2.2,MacIntel,60.24096386,65c5074098b851296ff0b7ed,664235605606d215c5f038c0,,,,,,,,,,,,,,,,,,,,,,,,,,,,,229.2505,1,audio/Narrative7Situation3.wav,237.2624,,237.2624,246.5303,"[[999,14],[999,83],[999,167],[999,249],[999,333],[999,416],[999,500],[999,583],[999,666],[999,750],[999,833],[999,917],[999,1000],[999,1083],[999,1167],[999,1250],[999,1332],[999,1416],[999,1500],[999,1584],[79.6,1666],[78.8,1749],[78.3,1834],[77.8,1917],[77.6,1999],[77.6,2083],[77.6,2167],[77.6,2250],[77.6,2333],[77.6,2417],[77.6,2500],[71.2,2583],[67.8,2667],[66.9,2750],[66.9,2834],[66.9,2917],[66.9,2999],[64.6,3084],[57.3,3167],[54.8,3250],[54.2,3334],[54.2,3417],[54.2,3500],[53.1,3583],[44.8,3667],[42,3750],[40.8,3833],[37.7,3916],[27.1,4001],[26.2,4084],[26.2,4167],[26.2,4251],[26.2,4334],[23,4417],[13.6,4500],[11.7,4583],[11.6,4670],[11.5,4751],[11.2,4833],[11.2,4917],[11.2,5000],[11.2,5084],[11.2,5167],[11.2,5251],[11.2,5334],[11.2,5417],[11.2,5500],[11.2,5583],[11.2,5667],[11.5,5750],[14.1,5834],[18.5,5917],[18.9,6001],[18.8,6083],[18.7,6167],[18.7,6251],[18.7,6334],[18.7,6417],[18.7,6501],[18.7,6584],[19.8,6667],[32.1,6751],[37.8,6834],[38,6917],[38,7000],[38,7084],[38,7168],[38,7251],[38,7334],[38,7417],[38,7501],[38,7584],[38,7668],[38,7751],[38,7834],[38,7917],[38,8001],[38,8084],[38,8167],[38,8251],[38,8335],[38.2,8417],[38.6,8501],[39.1,8585],[39.1,8667],[39.1,8751],[39.1,8834],[39.1,8918],[39.1,9001],[39.1,9084],[38.8,9167],[36.7,9251]]",1,0,246.5304,249.5147,8.181970384,2.3929,"[{""rating"":8.181970384385851,""responseTime"":2.39289999997618}]",space,2.4523,,249.5147,Definitely yes,100,249.5195,,,[],,0,3,3,3,1,audio/Narrative7Situation3.wav,audio/Narrative8Situation3.wav,audio/Narrative5Situation3.wav,audio/Narrative6Situation3.wav,8,4,3,5,,,,,,,,,,,,,,,,,,,,,,,,,,,,,,,,,,,,,,,
,,,,,,60dbf4d94a3b5564b68881e8,2024-05-13_11h46.23.883,group3.1-3.2-social-tom,2023.2.2,MacIntel,60.24096386,65c5074098b851296ff0b7ed,664235605606d215c5f038c0,,,,,,,,,,,,,,,,,,,,,,,,,,,,,249.5198,1,audio/Narrative7Situation4.wav,252.532,,252.5322,264.25,"[[21.4,986],[44.3,1101],[51.5,3217],[49.6,3344],[49.4,3465],[49.4,3561],[49.4,3661],[49.4,3780],[49.4,3879],[49.4,3980],[49.4,4081],[49.4,4210],[47.5,4316],[25.1,4411],[21.7,4533],[21.1,4650],[21.1,4741],[21.1,4841],[21.1,4970],[21.1,5059],[20.7,5189],[14.2,5298],[8.6,6916],[5,7001],[4.6,7083],[4.6,7167],[4.6,7250],[4.6,7334],[4.6,7416],[4.6,7500],[4.5,7584],[3.2,7668],[1.6,7750],[1.1,7834],[1.1,7917],[1,8000],[1,8083],[1,8167],[1,8250],[1,8334],[1,8417],[1,8501],[1,8583],[1,8667],[1,8750],[1,8834],[1,8917],[0.4,9001]]",1,0,264.2502,266.0676,0.23791843,0.901,"[{""rating"":0.23791842990451562,""responseTime"":0.9010000000000105}]",space,1.2725,,266.0677,Not at all,0,266.074,,,[],,0,4,4,4,1,audio/Narrative7Situation4.wav,audio/Narrative8Situation4.wav,audio/Narrative5Situation4.wav,audio/Narrative6Situation4.wav,3,3,1,2,,,,,,,,,,,,,,,,,,,,,,,,,,,,,,,,,,,,,,,
,,,,,,60dbf4d94a3b5564b68881e8,2024-05-13_11h46.23.883,group3.1-3.2-social-tom,2023.2.2,MacIntel,60.24096386,65c5074098b851296ff0b7ed,664235605606d215c5f038c0,,,,,,,,,,,,,,,,,,,,,,,,,,,,,266.0751,1,audio/Narrative7Situation5.wav,271.0808,,271.081,279.5697,"[[0.8,1603],[1,1687],[0.2,1770],[0.3,3604],[0.8,3688],[1.5,3771],[2.6,3854],[3.5,3938],[3.6,4021],[3.6,4104],[3.6,4187],[3.6,4271],[3.6,4354],[3.6,4437],[3.6,4521],[3.6,4604],[3.6,4688],[3.6,4771],[3.6,4854],[3.6,4937],[3.6,5021],[3.6,5103],[3.8,5187],[4.2,5271],[5.1,5354],[7.7,5437],[8.8,5521],[8.9,5604],[8.9,5687],[8.9,5771],[8.9,5854],[8.9,5937],[8.9,6020],[8.9,6105],[8.9,6188],[8.9,6270],[8.9,6354],[8.9,6437],[8.9,6521],[8.9,6604],[9,6688],[12.1,6772],[15.8,6855],[16.8,6940],[16.9,7021],[16.9,7104],[16.9,7187],[16.9,7271],[16.9,7355],[16.9,7438],[16.9,7521],[16.9,7605],[16.9,7687],[16.9,7771],[16.9,7855],[16.9,7938],[16.9,8021],[16.9,8105],[16.9,8188],[16.9,8271],[16.9,8354],[16.9,8438]]",1,0,279.5698,282.1274,0.731807285,1.9121,"[{""rating"":0.7318072848849833,""responseTime"":1.9121000000238269}]",space,1.9932,,282.1275,Not at all,0,282.1348,,,[],,0,5,5,5,1,audio/Narrative7Situation5.wav,audio/Narrative8Situation5.wav,audio/Narrative5Situation5.wav,audio/Narrative6Situation5.wav,5,2,5,2,,,,,,,,,,,,,,,,,,,,,,,,,,,,,,,,,,,,,,,
,,,,,,60dbf4d94a3b5564b68881e8,2024-05-13_11h46.23.883,group3.1-3.2-social-tom,2023.2.2,MacIntel,60.24096386,65c5074098b851296ff0b7ed,664235605606d215c5f038c0,,,,,,,,,,,,,,,,,,,,,,,,,,,,,282.1358,1,audio/Narrative7Situation6.wav,285.1405,,285.1406,295.1183,"[[0.9,1315],[3.3,1414],[2.9,1550],[2.3,1665],[2.3,1766],[2.4,1873],[10.3,1997],[16.7,2117],[16.7,2230],[16.7,2330],[16.8,2418],[43.2,2536],[45.9,2649],[45.9,2749],[45.9,2847],[46.3,2979],[52.5,3076],[53.2,3200],[57.5,3335],[58.1,3458],[58.8,3579],[71.4,3703],[72,3796],[72,3889],[72,4015],[72,4113],[80.5,4234],[81.6,4350],[81.6,4436],[81.6,4557],[81.6,4665],[81.6,4764],[84.3,4878],[89.7,4967],[89.8,5064],[89.8,5148],[89.8,5259],[89.8,5362],[89.8,5461],[89.8,5574],[89.8,5663],[90.9,5783],[91.3,5880],[92,5980],[92.1,6076],[92.1,6205],[92.1,6309],[92.1,6401],[92.1,6498],[93.9,6627],[94.2,6737],[94.2,6830],[94.2,6914],[94.2,7044],[94.2,7150],[94.2,7270],[94.2,7359],[94.2,7485],[94.2,7613],[94.2,7732],[94.2,7828],[94.2,7927],[94.1,8046],[94.1,8145],[94.1,8247],[94.1,8362],[94.1,8477],[94.1,8578],[94.1,8680],[94.1,8794],[94.1,8910],[94.1,8997],[94.1,9112],[94.1,9225],[94.1,9312],[94.1,9442],[94.1,9542],[94.1,9657],[94.1,9762],[94.1,9864],[94.1,9977]]",1,0,295.1185,297.6716,87.95399136,1.513,"[{""rating"":87.95399136013455,""responseTime"":1.5129999999999768}]",space,2.0215,,297.6718,Not at all,0,297.6747,,,[],,0,6,6,6,1,audio/Narrative7Situation6.wav,audio/Narrative8Situation6.wav,audio/Narrative5Situation6.wav,audio/Narrative6Situation6.wav,3,2,3,2,,,,,,,,,,,,,,,,,,,,,,,,,,,,,,,,,,,,,,,
,,,,,,60dbf4d94a3b5564b68881e8,2024-05-13_11h46.23.883,group3.1-3.2-social-tom,2023.2.2,MacIntel,60.24096386,65c5074098b851296ff0b7ed,664235605606d215c5f038c0,,,,,,,,,,,,,,,,,,,,,,,,,,,,,297.675,1,audio/Narrative7Situation7.wav,302.6885,,302.6886,319.8591,"[[89.4,1135],[91.2,1218],[91.4,1301],[91.4,1384],[91.4,1468],[91.4,1551],[91.4,1634],[91.4,1717],[91.4,1801],[91.5,1884],[98.9,1968],[100,2050],[100,2135],[100,2218],[100,2302],[100,2385],[100,2468],[100,2552],[100,2635],[100,2718],[100,2801],[99.9,2885],[99.8,2967],[99.7,3052],[99.7,3134],[99.6,3217],[99.6,3302],[99.5,3385],[99.5,3468],[99.5,3551],[99.5,3634],[99.5,3718],[99.4,3802],[99.4,3885],[99.4,3968],[99.4,4051],[99.4,4134],[99.4,4218],[99.4,4301],[99.4,4385],[99.4,4467],[99.4,4552],[99.4,4634],[99.4,4718],[99.4,4801],[99.4,4885],[99.4,4968],[99.4,5051],[99.4,5135],[99.4,5218],[99.4,5301],[99.4,5385],[99.4,5468],[99.4,5552],[99.4,5634],[99.4,5718],[99.4,5802],[99.4,5885],[99.4,5968],[99.4,6052],[99.4,6135],[99.4,6218],[99.4,6301],[99.4,6384],[99.4,6468],[99.4,6552],[99.4,6635],[99.4,6718],[99.4,6802],[99.4,6884],[99.4,6969],[99.4,7052],[99.4,7135],[99.4,7218],[99.4,7302],[99.4,7385],[99.4,7470],[99.4,7551],[99.4,7635],[99.4,7719],[99.4,7801],[99.4,7886],[99.4,7969],[99.4,8052],[99.4,8136],[99.4,8219],[99.4,8302],[99.4,8387],[99.4,8504],[99.4,8603],[99.4,8710],[99.4,8803],[99.4,8933],[99.4,9037],[99.4,9147],[99.4,9251],[99.4,9354],[99.4,9456],[99.4,9559],[99.4,9693],[99.4,9807],[99.4,9927],[99.4,10020],[99.4,10120],[99.4,10241],[99.4,10337],[99.4,10461],[99.4,10566],[99.4,10655],[99.4,10770],[99.4,10880],[99.4,10984],[99.4,11099],[99.4,11185],[99.4,11307],[99.5,11436],[99.5,11529],[99.5,11660],[99.5,11739],[100,11880],[100,11981],[100,12117],[100,12236],[100,12320],[100,12448],[100,12554],[100,12670],[100,12762],[100,12879],[100,12986],[100,13105],[100,13223],[100,13305],[100,13386],[100,13469],[100,13552],[100,13636],[100,13719],[100,13803],[100,13887],[100,13969],[100,14053],[100,14136],[100,14219],[100,14303],[100,14387],[100,14470],[100,14552],[100,14636],[100,14719],[100,14803],[100,14887],[100,14969],[100,15053],[100,15137],[100,15219],[100,15303],[100,15387],[100,15473],[100,15553],[100,15637],[100,15719],[100,15803],[100,15887],[100,15970],[100,16054],[100,16137],[100,16220],[100,16304],[100,16387],[100,16470],[100,16554],[100,16637],[100,16720],[100,16803],[100,16887],[100,16970],[100,17054],[100,17137]]",1,0,319.8594,322.1591,99.40634833,1.5597,"[{""rating"":99.40634833441841,""responseTime"":1.5597000000476555}]",space,1.7656,,322.1592,Not at all,0,330.0945,0.199135674,6.278,"[{""rating"":0.1991356743706596,""responseTime"":6.27800000000002}]",space,0,7,7,7,1,audio/Narrative7Situation7.wav,audio/Narrative8Situation7.wav,audio/Narrative5Situation7.wav,audio/Narrative6Situation7.wav,5,3,4,5,,,7.4029,,,,,,,,,,,,,,,,,,,,,,,,,,,,,,,,,,,,
,,,,,,60dbf4d94a3b5564b68881e8,2024-05-13_11h46.23.883,group3.1-3.2-social-tom,2023.2.2,MacIntel,60.24096386,65c5074098b851296ff0b7ed,664235605606d215c5f038c0,,,,,,,,,,,,,,,,,,,,,,,,,,,,,330.0949,1,audio/Narrative7Situation8.wav,332.1115,,332.1115,342.1293,"[[0.2,833],[0.3,1000],[54.8,1583],[57.5,1667],[62.8,1749],[67.2,1833],[67.5,1916],[67.4,1999],[67.3,2083],[67.3,2167],[67.3,2250],[67.3,2333],[67.3,2415],[67.3,2500],[67.3,2583],[67.3,2667],[67.3,2750],[67.3,2833],[67.3,2917],[67.3,2999],[67.3,3082],[67.3,3166],[67.3,3250],[67.3,3333],[67.3,3417],[67.3,3500],[67.3,3583],[67.3,3666],[67.3,3750],[67.3,3833],[67.3,3916],[67.3,4000],[67.3,4083],[67.3,4166],[67.3,4250],[67.3,4334],[67.3,4417],[67.3,4500],[67.3,4584],[67.3,4667],[67.3,4750],[67.3,4833],[67.3,4916],[67.3,5000],[67.3,5083],[67.3,5167],[70.8,5250],[77.5,5334],[80.4,5417],[80.5,5500],[80.5,5584],[80.5,5667],[80.5,5750],[80.5,5834],[80.5,5917],[80.5,6000],[80.5,6084],[80.5,6167],[80.5,6250],[80.5,6333],[80.5,6416],[80.5,6500],[80.7,6583],[89.3,6667],[91.7,6750],[91.8,6834],[91.8,6916],[91.8,7001],[91.8,7084],[91.8,7167],[91.8,7251],[91.8,7334],[91.8,7417],[91.8,7501],[91.8,7584],[91.8,7666],[91.8,7751],[91.8,7834],[91.8,7917],[91.8,8001],[91.9,8085],[92.4,8168],[92.8,8251],[93,8334],[93.4,8417],[93.5,8500],[93.5,8583],[93.5,8668],[93.5,8750],[93.5,8833],[93.5,8918],[93.5,9001],[93.5,9084],[93.5,9168],[93.5,9250],[93.5,9334],[93.3,9417],[93.3,9501],[93.3,9585],[93.3,9667],[93.3,9750],[93.3,9834],[93.3,9917],[93.3,10001]]",1,0,342.1295,344.4255,81.36898465,1.5446,"[{""rating"":81.36898464626736,""responseTime"":1.5446000000238769}]",space,1.7638,,344.4257,Not at all,0,344.435,,,[],,0,8,8,8,1,audio/Narrative7Situation8.wav,audio/Narrative8Situation8.wav,audio/Narrative5Situation8.wav,audio/Narrative6Situation8.wav,2,3,3,5,,,,,,,,,,,,,,,,,,,,,,,,,,,,,,,,,,,,,,,
,,,,,,60dbf4d94a3b5564b68881e8,2024-05-13_11h46.23.883,group3.1-3.2-social-tom,2023.2.2,MacIntel,60.24096386,65c5074098b851296ff0b7ed,664235605606d215c5f038c0,,,,,,,,,,,,,,,,,,,,,,,,,,,,,344.4361,1,audio/Narrative7Situation9.wav,346.4522,,346.4524,355.0819,"[[82,1745],[83.6,1827],[84.1,1911],[84.2,1995],[88.5,2078],[100,2161],[100,2246],[100,2328],[100,2411],[100,2494],[100,2577],[100,2662],[100,2745],[100,2828],[100,2911],[100,2995],[100,3078],[100,3162],[100,3244],[100,3327],[100,3412],[100,3494],[100,3578],[100,3662],[100,3744],[100,3828],[100,3912],[100,3995],[100,4078],[100,4161],[100,4245],[100,4328],[100,4411],[100,4494],[100,4578],[100,4662],[100,4745],[100,4828],[100,4912],[100,4995],[100,5079],[100,5162],[100,5245],[100,5328],[100,5411],[100,5495],[100,5578],[100,5661],[100,5744],[100,5829],[100,5912],[100,5995],[100,6079],[100,6162],[100,6245],[100,6328],[100,6412],[100,6495],[100,6578],[100,6662],[100,6744],[100,6828],[100,6912],[100,6994],[100,7079],[100,7162],[100,7246],[100,7329],[100,7411],[100,7495],[100,7579],[100,7661],[100,7745],[100,7829],[100,7911],[100,7996],[100,8079],[100,8162],[100,8245],[100,8329],[100,8412],[100,8495],[100,8579]]",1,0,355.082,356.9319,99.92570665,0.8275,"[{""rating"":99.92570665147569,""responseTime"":0.8274999999999864}]",space,1.318,,356.9319,Not at all,0,356.9346,,,[],,0,9,9,9,1,audio/Narrative7Situation9.wav,audio/Narrative8Situation9.wav,audio/Narrative5Situation9.wav,audio/Narrative6Situation9.wav,2,3,3,4,,,,,,,,,,,,,,,,,,,,,,,,,,,,,,,,,,,,,,,
,,,,,,60dbf4d94a3b5564b68881e8,2024-05-13_11h46.23.883,group3.1-3.2-social-tom,2023.2.2,MacIntel,60.24096386,65c5074098b851296ff0b7ed,664235605606d215c5f038c0,,,,,,,,,,,,,,,,,,,,,,,,,,,,,356.935,1,audio/Narrative8Situation1.wav,361.9498,,361.9499,377.9025,"[[86.6,2408],[80.3,2536],[80,2662],[79.8,2788],[79.8,2904],[79.8,3049],[79.8,3176],[79.8,3268],[79.8,3366],[79.8,3476],[79.8,3577],[79.8,3701],[79.8,3793],[79.8,3916],[79.8,4022],[79.8,4156],[79.8,4267],[80.8,4373],[83.9,4503],[84.4,4632],[84.4,4733],[84.4,4843],[84.4,4965],[84.4,5051],[84.4,5136],[84.4,5217],[84.4,5347],[84.4,5474],[84.3,5574],[84.3,5696],[84.3,5785],[84.3,5910],[84.3,6028],[84.3,6138],[84.3,6228],[84.3,6300],[84.3,6383],[84.3,6467],[84.3,6550],[84.3,6634],[84.3,6717],[84.3,6801],[84.3,6884],[84.3,6966],[84.3,7050],[84.3,7133],[84.3,7217],[84.3,7300],[84.3,7383],[84.3,7466],[84.3,7551],[84.3,7633],[84.3,7717],[84.3,7801],[84.3,7884],[84.3,7967],[84.3,8050],[84.3,8134],[84.3,8217],[84.3,8301],[84.3,8383],[84.3,8467],[84.3,8551],[84.3,8633],[84.3,8717],[84.3,8800],[84.3,8884],[84.3,8967],[84.3,9051],[84.3,9134],[84.3,9217],[84.3,9301],[84.3,9384],[84.3,9467],[84.3,9550],[84.3,9633],[87,9717],[92.4,9800],[96.5,9883],[97.2,9968],[97.5,10051],[97.5,10133],[98.2,10218],[100,10301],[100,10384],[100,10467],[100,10550],[100,10633],[100,10717],[100,10800],[100,10884],[100,10967],[100,11050],[100,11134],[100,11217],[100,11301],[100,11384],[100,11468],[100,11550],[100,11634],[100,11717],[100,11801],[100,11884],[100,11967],[100,12051],[100,12134],[100,12217],[100,12300],[100,12385],[100,12468],[100,12550],[100,12634],[100,12718],[100,12801],[100,12884],[100,12968],[100,13051],[100,13134],[100,13218],[100,13300],[100,13385],[100,13467],[100,13551],[100,13634],[100,13718],[100,13801],[100,13884],[100,13968],[100,14051],[100,14135],[100,14218],[100,14301],[100,14384],[100,14468],[100,14552],[100,14635],[100,14718],[100,14802],[100,14885],[100,14968],[100,15052],[100,15135],[100,15218],[100,15302],[100,15384],[100,15468],[100,15552],[100,15635],[100,15718],[100,15802],[100,15885]]",1,0,377.9027,379.3021,99.67108832,0.6921,"[{""rating"":99.67108832465279,""responseTime"":0.6921000000237996}]",space,0.8498,,379.3022,Partially,50,379.3064,,,[],,0,10,10,10,1,audio/Narrative8Situation1.wav,audio/Narrative7Situation1.wav,audio/Narrative6Situation1.wav,audio/Narrative5Situation1.wav,5,2,2,5,,,,,,,,,,,,,,,,,,,,,,,,,,,,,,,,,,,,,,,
,,,,,,60dbf4d94a3b5564b68881e8,2024-05-13_11h46.23.883,group3.1-3.2-social-tom,2023.2.2,MacIntel,60.24096386,65c5074098b851296ff0b7ed,664235605606d215c5f038c0,,,,,,,,,,,,,,,,,,,,,,,,,,,,,379.307,1,audio/Narrative8Situation2.wav,382.3197,,382.3197,392.4381,"[[94.8,916],[88.7,999],[87.7,1083],[87.8,1167],[89.7,1250],[93.8,1332],[98.6,1417],[100,1499],[100,1583],[100,1665],[100,1750],[100,1833],[100,1916],[100,2000],[100,2082],[100,2166],[100,2249],[100,2333],[100,2416],[100,2499],[100,2583],[100,2667],[100,2750],[100,2833],[100,2917],[100,2999],[100,3083],[100,3167],[100,3250],[99.9,3333],[99.9,3416],[99.8,3500],[99.6,3583],[99.6,3666],[99.6,3749],[99.6,3833],[99.6,3916],[99.6,4000],[99.1,4084],[95.3,4167],[92.1,4249],[91.3,4334],[91.3,4418],[91.3,4500],[91.3,4583],[90.7,4667],[81.2,4750],[76.9,4833],[75.5,4917],[75.5,5000],[75.5,5084],[75.5,5167],[75.5,5250],[69.8,5333],[56.3,5417],[52.9,5500],[52.9,5584],[52.9,5667],[52.9,5750],[47.1,5834],[31.2,5916],[27.9,6000],[27.9,6084],[27.9,6167],[27.9,6250],[19.1,6333],[12,6418],[9.9,6500],[9.3,6583],[9.3,6667],[9.3,6750],[9.3,6833],[9.2,6917],[9.1,7001],[9.1,7084],[9,7166],[8.9,7251],[8.9,7334],[8.8,7417],[8.7,7501],[8.2,7583],[7.3,7667],[6.7,7751],[6.4,7834],[6.2,7917],[6.2,8001],[6.2,8083],[6.2,8167],[6.2,8251],[6.2,8333],[6.2,8418],[6.2,8500],[6.1,8584],[4.4,8668],[4,8750],[3.8,8834],[3.6,8918],[3.5,9001],[3.3,9083],[2.8,9168],[2.6,9250],[2.5,9334],[2.5,9418],[2.5,9500],[2.5,9584],[2.5,9667],[2.5,9751],[2.5,9834],[2.5,9918],[2.5,10000],[2.5,10084]]",1,0,392.4383,393.6546,0.503094991,0.7088,"[{""rating"":0.5030949910481752,""responseTime"":0.7088000000715056}]",space,0.6773,,393.6546,Not at all,0,393.6589,,,[],,0,11,11,11,1,audio/Narrative8Situation2.wav,audio/Narrative7Situation2.wav,audio/Narrative6Situation2.wav,audio/Narrative5Situation2.wav,3,3,3,3,,,,,,,,,,,,,,,,,,,,,,,,,,,,,,,,,,,,,,,
,,,,,,60dbf4d94a3b5564b68881e8,2024-05-13_11h46.23.883,group3.1-3.2-social-tom,2023.2.2,MacIntel,60.24096386,65c5074098b851296ff0b7ed,664235605606d215c5f038c0,,,,,,,,,,,,,,,,,,,,,,,,,,,,,393.6593,1,audio/Narrative8Situation3.wav,397.6713,,397.6713,420.0426,"[[1.9,1017],[3.5,1101],[2.5,1184],[1.1,1267],[1,1350],[1,1433],[1,1517],[1,1600],[1,1684],[1,1767],[1,1851],[1,1933],[1,2017],[1,2101],[1,2184],[1,2266],[1,2350],[1,2434],[1,2517],[1,2600],[1,2684],[1,2766],[1,2851],[1,2933],[1,3017],[5.8,3101],[10.5,3183],[12,3268],[12.3,3351],[12.3,3433],[12.3,3517],[12.3,3601],[12.3,3684],[15,3767],[22.4,3851],[23.7,3934],[23.7,4017],[23.7,4100],[23.7,4184],[23.7,4268],[29.6,4350],[41,4435],[41.7,4517],[41.7,4600],[41.7,4684],[41.7,4768],[41.7,4851],[42.2,4934],[53.6,5018],[56,5101],[56,5185],[54.9,5267],[52.8,5350],[52.1,5434],[52.1,5518],[52.1,5601],[52.1,5684],[52.1,5768],[52.1,5851],[52.1,5934],[52.1,6017],[52.1,6101],[52.1,6185],[52.1,6268],[52.1,6350],[52.1,6434],[52.1,6518],[52.1,6601],[52.1,6685],[52.1,6768],[52.1,6851],[52.1,6934],[52.1,7018],[52.1,7100],[52.1,7184],[52.1,7267],[52.1,7351],[52.1,7434],[52.1,7523],[52.1,7601],[52.1,7685],[52.1,7767],[52.1,7851],[52.1,7935],[52.1,8018],[52.1,8102],[52.1,8185],[56.8,8268],[65.6,8351],[67.2,8435],[67.2,8518],[67.2,8601],[67.2,8684],[67.2,8768],[67.2,8852],[67.2,8935],[67.2,9018],[67.2,9102],[67.2,9185],[67.2,9268],[69,9352],[80.7,9434],[82.4,9519],[82.4,9602],[82.4,9685],[82.4,9768],[82.4,9852],[82.4,9935],[82.4,10018],[82.4,10101],[82.4,10185],[82.4,10268],[82.4,10351],[82.4,10435],[82.4,10518],[82.4,10602],[82.4,10685],[80.2,10768],[77.6,10851],[77.1,10935],[77,11019],[77,11101],[76.9,11186],[76.9,11269],[76.9,11352],[76.3,11435],[73.3,11519],[72.1,11602],[72,11685],[72,11769],[72,11852],[72,11935],[72,12018],[73.2,12101],[82.9,12186],[84.1,12269],[84.1,12352],[84.1,12436],[84.2,12519],[84.3,12602],[84.3,12686],[84.3,12769],[84.3,12852],[85.5,12935],[95,13019],[96.2,13101],[96.1,13185],[96,13269],[96.1,13353],[100,13435],[100,13519],[100,13602],[100,13686],[100,13769],[100,13853],[100,13936],[100,14018],[100,14102],[100,14185],[100,14268],[100,14352],[100,14435],[100,14519],[100,14603],[100,14686],[100,14769],[100,14853],[100,14936],[100,15019],[100,15103],[100,15185],[100,15270],[100,15353],[100,15436],[100,15519],[100,15602],[100,15686],[100,15769],[100,15853],[100,15936],[100,16019],[100,16103],[100,16186],[100,16269],[100,16353],[100,16436],[100,16519],[100,16602],[100,16686],[100,16770],[100,16853],[100,16936],[100,17020],[100,17103],[100,17186],[100,17269],[100,17353],[100,17436],[100,17520],[100,17603],[100,17686],[100,17769],[100,17853],[100,17936],[100,18019],[100,18103],[100,18186],[100,18270],[100,18353],[100,18436],[100,18520],[100,18603],[100,18686],[100,18770],[100,18853],[100,18936],[100,19020],[100,19103],[100,19186],[100,19270],[100,19353],[100,19436],[100,19520],[100,19603],[100,19686],[100,19769],[100,19853],[100,19937],[100,20020],[100,20103],[100,20186],[100,20269],[100,20353],[100,20436],[100,20520],[100,20603],[100,20686],[100,20770],[100,20853],[100,20936],[100,21019],[100,21103],[100,21186],[100,21270],[100,21353],[100,21437],[100,21520],[100,21603],[100,21687],[100,21770],[100,21853],[100,21936],[100,22020],[100,22103],[100,22186],[100,22271],[100,22354]]",1,0,420.0427,423.5932,99.42501492,1.725,"[{""rating"":99.42501491970486,""responseTime"":1.724999999999909}]",space,3.0165,,423.5932,Partially,50,423.598,,,[],,0,12,12,12,1,audio/Narrative8Situation3.wav,audio/Narrative7Situation3.wav,audio/Narrative6Situation3.wav,audio/Narrative5Situation3.wav,4,8,5,3,,,,,,,,,,,,,,,,,,,,,,,,,,,,,,,,,,,,,,,
,,,,,,60dbf4d94a3b5564b68881e8,2024-05-13_11h46.23.883,group3.1-3.2-social-tom,2023.2.2,MacIntel,60.24096386,65c5074098b851296ff0b7ed,664235605606d215c5f038c0,,,,,,,,,,,,,,,,,,,,,,,,,,,,,423.5984,1,audio/Narrative8Situation4.wav,426.6093,,426.6094,440.7951,"[[97,1266],[87.8,1350],[85.1,1434],[84.2,1517],[83.8,1600],[83.7,1684],[83.6,1767],[83.6,1850],[83.6,1934],[83.6,2017],[83.6,2101],[83.6,2183],[83.6,2267],[83.6,2350],[83.6,2434],[83.6,2517],[83.6,2600],[83.6,2684],[83.6,2767],[83.6,2851],[83.6,2934],[83.6,3017],[83.6,3101],[83.6,3184],[83.6,3267],[85.9,3350],[95,3434],[95.4,3517],[95.4,3601],[95.3,3683],[95.2,3767],[95,3851],[93,3934],[87.2,4017],[83.6,4101],[83.3,4184],[83.3,4268],[83.3,4350],[83.3,4434],[83.3,4517],[83.3,4601],[83.3,4684],[83.3,4767],[83.3,4851],[83.3,4934],[83.3,5018],[83.3,5100],[83.3,5184],[83.3,5267],[83.3,5351],[83.3,5434],[83.3,5518],[83.3,5601],[83.3,5684],[83.3,5768],[83.3,5851],[83.3,5934],[83.3,6018],[83.3,6100],[83.3,6184],[83.3,6268],[83.5,6351],[93,6434],[95.1,6518],[95.1,6601],[97.8,6684],[100,6768],[100,6851],[100,6935],[100,7017],[100,7101],[100,7185],[100,7267],[100,7351],[100,7435],[100,7518],[100,7602],[100,7685],[100,7768],[100,7851],[100,7935],[100,8018],[100,8101],[100,8184],[100,8268],[100,8351],[100,8434],[100,8518],[100,8602],[100,8685],[100,8768],[100,8852],[100,8935],[100,9018],[100,9102],[100,9185],[100,9268],[100,9351],[100,9435],[100,9518],[100,9601],[100,9685],[100,9768],[100,9852],[100,9935],[100,10019],[100,10101],[100,10185],[100,10268],[100,10352],[100,10435],[100,10518],[100,10602],[100,10684],[100,10769],[100,10852],[100,10934],[100,11019],[100,11101],[100,11185],[100,11269],[100,11352],[100,11435],[100,11518],[100,11602],[100,11685],[100,11772],[100,11852],[100,11934],[100,12019],[100,12102],[100,12184],[100,12268],[100,12351],[100,12436],[100,12519],[100,12602],[100,12686],[100,12768],[100,12851],[100,12936],[100,13019],[100,13101],[100,13185],[100,13269],[100,13352],[100,13435],[100,13519],[100,13602],[100,13685],[100,13769],[100,13852],[100,13935],[100,14018],[100,14102],[100,14185]]",1,0,440.7953,442.9295,98.95070394,1.3428,"[{""rating"":98.95070393880208,""responseTime"":1.3427999999523763}]",space,1.6008,,442.9295,Not at all,0,442.9337,,,[],,0,13,13,13,1,audio/Narrative8Situation4.wav,audio/Narrative7Situation4.wav,audio/Narrative6Situation4.wav,audio/Narrative5Situation4.wav,3,3,2,1,,,,,,,,,,,,,,,,,,,,,,,,,,,,,,,,,,,,,,,
,,,,,,60dbf4d94a3b5564b68881e8,2024-05-13_11h46.23.883,group3.1-3.2-social-tom,2023.2.2,MacIntel,60.24096386,65c5074098b851296ff0b7ed,664235605606d215c5f038c0,,,,,,,,,,,,,,,,,,,,,,,,,,,,,442.9339,1,audio/Narrative8Situation5.wav,444.9465,,444.9465,453.1978,"[[98.1,1832],[96.5,1917],[97.3,1999],[99.3,2082],[99.6,2166],[99.9,2250],[100,2333],[100,2417],[100,2500],[100,2582],[100,2667],[100,2750],[100,2833],[100,2916],[100,3000],[100,3082],[100,3167],[100,3250],[100,3333],[100,3417],[100,3499],[100,3583],[100,3666],[100,3750],[100,3833],[100,3917],[100,4000],[100,4083],[100,4166],[100,4249],[100,4333],[100,4417],[100,4500],[100,4583],[100,4666],[100,4749],[100,4833],[100,4917],[100,5000],[100,5083],[100,5166],[100,5250],[100,5333],[100,5416],[100,5500],[100,5584],[100,5667],[100,5750],[100,5834],[100,5917],[100,6000],[100,6084],[100,6167],[100,6250],[100,6333],[100,6417],[100,6500],[100,6583],[100,6667],[100,6750],[100,6833],[100,6916],[100,7000],[100,7084],[100,7167],[100,7250],[100,7334],[100,7417],[100,7500],[100,7584],[100,7666],[100,7750],[100,7834],[100,7917],[100,8001],[100,8084],[100,8167],[100,8251]]",1,0,453.1979,455.0815,99.49674818,1.3424,"[{""rating"":99.49674818250868,""responseTime"":1.342400000095381}]",space,1.3337,,455.0816,Partially,50,455.0884,,,[],,0,14,14,14,1,audio/Narrative8Situation5.wav,audio/Narrative7Situation5.wav,audio/Narrative6Situation5.wav,audio/Narrative5Situation5.wav,2,5,2,5,,,,,,,,,,,,,,,,,,,,,,,,,,,,,,,,,,,,,,,
,,,,,,60dbf4d94a3b5564b68881e8,2024-05-13_11h46.23.883,group3.1-3.2-social-tom,2023.2.2,MacIntel,60.24096386,65c5074098b851296ff0b7ed,664235605606d215c5f038c0,,,,,,,,,,,,,,,,,,,,,,,,,,,,,455.0894,1,audio/Narrative8Situation6.wav,457.0986,,457.0986,463.5821,"[[94.2,1166],[87.5,1250],[87.2,1332],[87.2,1416],[87.2,1500],[88.5,1583],[100,1668],[100,1749],[100,1832],[100,1916],[100,1999],[100,2082],[100,2167],[100,2250],[100,2333],[100,2417],[100,2500],[100,2583],[100,2666],[100,2750],[100,2833],[100,2916],[100,2999],[100,3083],[100,3167],[100,3249],[100,3333],[100,3416],[100,3500],[100,3583],[100,3667],[100,3750],[100,3833],[100,3917],[100,4000],[100,4083],[100,4166],[100,4250],[100,4333],[100,4417],[100,4499],[100,4583],[100,4666],[100,4750],[100,4834],[100,4916],[100,5000],[100,5083],[100,5167],[100,5250],[100,5333],[100,5417],[100,5499],[100,5583],[100,5667],[100,5750],[100,5834],[100,5917],[100,6000],[100,6084],[100,6167],[100,6250],[100,6334],[100,6417]]",1,0,463.5822,464.7153,99.45946587,0.6435,"[{""rating"":99.45946587456598,""responseTime"":0.6435000000000173}]",space,0.5996,,464.7154,Not at all,0,464.7197,,,[],,0,15,15,15,1,audio/Narrative8Situation6.wav,audio/Narrative7Situation6.wav,audio/Narrative6Situation6.wav,audio/Narrative5Situation6.wav,2,3,2,3,,,,,,,,,,,,,,,,,,,,,,,,,,,,,,,,,,,,,,,
,,,,,,60dbf4d94a3b5564b68881e8,2024-05-13_11h46.23.883,group3.1-3.2-social-tom,2023.2.2,MacIntel,60.24096386,65c5074098b851296ff0b7ed,664235605606d215c5f038c0,,,,,,,,,,,,,,,,,,,,,,,,,,,,,464.7201,1,audio/Narrative8Situation7.wav,467.7335,,467.7335,479.819,"[[96.1,1832],[89.4,1917],[87,1999],[86.9,2083],[86.9,2167],[86.9,2250],[86.9,2333],[86.9,2416],[86.4,2500],[85.3,2583],[84.3,2667],[83.7,2750],[83.6,2833],[83.2,2916],[83,2999],[82.9,3082],[82.9,3166],[82.9,3250],[82.9,3333],[82.9,3417],[76.6,3500],[71,3582],[70.8,3666],[70.8,3750],[70.8,3833],[70.8,3916],[70.8,4000],[70.8,4083],[70.7,4166],[67.9,4249],[63.9,4333],[60.7,4416],[59.2,4500],[59.1,4583],[59.1,4667],[59.1,4749],[59.1,4833],[59.1,4916],[59.1,4999],[59.1,5083],[59.1,5167],[59.1,5250],[57.4,5333],[55.4,5417],[55,5500],[54.8,5583],[54.5,5667],[53.9,5750],[52.9,5833],[52.1,5916],[50.8,6000],[50.1,6083],[49.9,6167],[49.8,6250],[49.8,6334],[49.8,6416],[49.8,6500],[49.8,6583],[49.8,6667],[49.8,6750],[49.8,6834],[49.8,6917],[49.8,7001],[49.8,7083],[49.8,7167],[49.8,7250],[49.8,7333],[49.8,7417],[49.8,7501],[49.8,7584],[49.8,7667],[49.8,7751],[49.8,7834],[49.8,7917],[49.8,8001],[49.8,8084],[49.8,8167],[49.8,8251],[49.8,8333],[48,8418],[45.5,8500],[45.2,8584],[45.1,8667],[45.1,8751],[45.1,8834],[45.1,8918],[45.1,9001],[45.1,9083],[44.9,9167],[40.9,9250],[35.3,9918],[35.8,10001],[35.8,10085],[35.8,10168],[35.8,10251],[35.8,10333],[35.8,10418],[35.8,10501],[35.8,10584],[35.8,10667],[34.6,10751],[22.9,10834],[20.2,10918],[20.1,11001],[20.1,11085],[20.1,11168],[20.1,11251],[20.1,11335],[20.1,11417],[20.1,11501],[20.1,11585],[18.2,11668],[17.4,11751],[17.4,11834],[17.3,11918],[17.2,12001],[13.1,12085]]",1,0,479.8191,481.3515,0.233306885,0.708,"[{""rating"":0.23330688476562722,""responseTime"":0.70799999999997}]",space,0.9842,,481.3515,Definitely yes,100,481.3554,,,[],,0,16,16,16,1,audio/Narrative8Situation7.wav,audio/Narrative7Situation7.wav,audio/Narrative6Situation7.wav,audio/Narrative5Situation7.wav,3,5,5,4,,,,,,,,,,,,,,,,,,,,,,,,,,,,,,,,,,,,,,,
,,,,,,60dbf4d94a3b5564b68881e8,2024-05-13_11h46.23.883,group3.1-3.2-social-tom,2023.2.2,MacIntel,60.24096386,65c5074098b851296ff0b7ed,664235605606d215c5f038c0,,,,,,,,,,,,,,,,,,,,,,,,,,,,,481.3558,1,audio/Narrative8Situation8.wav,484.3695,,484.3697,497.2386,"[[0.9,1266],[2.1,1349],[2.2,1432],[1.9,1516],[1.6,1599],[1.4,1682],[1,1766],[0.2,1849],[0.7,9526],[5.9,9604],[14.3,9684],[18.2,9767],[18.7,9851],[18.7,9933],[18.7,10017],[18.7,10102],[18.7,10184],[18.7,10268],[18.7,10351],[24.7,10434],[30.5,10518],[31.9,10601],[32.1,10684],[32.1,10768],[32.1,10851],[32.1,10934],[32.1,11017],[32.1,11101],[32.1,11184],[32.1,11267],[32.1,11350],[32.1,11434],[32.1,11517],[32.1,11600],[32.1,11684],[32.1,11768],[32.1,11850],[32.1,11934],[32.1,12018],[32.1,12100],[32.1,12185],[32.1,12268],[32.1,12351],[32.1,12435],[32.1,12518],[32.1,12601],[32.1,12684],[36.3,12768],[42,12851]]",1,0,497.2387,499.8553,43.71983846,2.0748,"[{""rating"":43.71983846028646,""responseTime"":2.074800000071491}]",space,2.0755,,499.8554,Not at all,0,499.8596,,,[],,0,17,17,17,1,audio/Narrative8Situation8.wav,audio/Narrative7Situation8.wav,audio/Narrative6Situation8.wav,audio/Narrative5Situation8.wav,3,2,5,3,,,,,,,,,,,,,,,,,,,,,,,,,,,,,,,,,,,,,,,
,,,,,,60dbf4d94a3b5564b68881e8,2024-05-13_11h46.23.883,group3.1-3.2-social-tom,2023.2.2,MacIntel,60.24096386,65c5074098b851296ff0b7ed,664235605606d215c5f038c0,,,,,,,,,,,,,,,,,,,,,,,,,,,,,499.8602,1,audio/Narrative8Situation9.wav,502.8726,,502.8727,514.1914,"[[44.3,3016],[44.5,3099],[44.5,3183],[44.5,3265],[44.5,3349],[44.5,3432],[44.5,3517],[44.5,3599],[44.5,3682],[44.5,3767],[44.4,3850],[44.4,3933],[44.4,4016],[44.3,4100],[44.2,4183],[44.2,4266],[44.2,4350],[44.2,4433],[44.2,4516],[44.2,4599],[44.2,4683],[44.2,4767],[44.2,4849],[44.2,4933],[44.2,5017],[44.2,5100],[44.2,5184],[44.2,5266],[44.2,5350],[44.2,5432],[44.2,5516],[44.2,5600],[44.2,5683],[46,5767],[50.1,5850],[50.7,5933],[50.7,6016],[50.7,6100],[50.7,6183],[50.7,6266],[50.7,6350],[50.7,6434],[50.7,6516],[50.7,6600],[50.7,6683],[50.7,6766],[50.7,6850],[50.7,6933],[50.7,7016],[50.7,7100],[50.7,7184],[50.7,7266],[50.7,7349],[50.7,7434],[50.7,7517],[50.7,7600],[50.7,7683],[50.7,7766],[50.7,7850],[50.7,7934],[50.7,8017],[50.7,8100],[50.7,8183],[50.7,8266],[50.7,8350],[50.7,8433],[50.7,8517],[50.7,8601],[50.7,8684],[50.7,8767],[50.7,8850],[50.7,8934],[50.7,9017],[50.7,9101],[50.7,9184],[50.7,9267],[50.7,9351],[50.7,9433],[50.7,9517],[50.7,9601],[50.7,9684],[50.7,9767],[50.8,9851],[50.8,9934],[50.8,10017],[50.8,10101],[50.9,10184],[51,10268],[51.1,10350],[51.2,10434],[51.2,10518],[51.2,10601],[51.2,10683],[51.2,10768],[51.2,10851],[51.2,10934],[51.2,11018],[51.2,11101],[51.2,11184],[53.3,11267]]",1,0,514.1915,515.557,66.65027195,0.9906,"[{""rating"":66.65027194552951,""responseTime"":0.9906000000238464}]",space,0.823,,515.5571,Definitely yes,100,515.5613,,,[],,0,18,18,18,1,audio/Narrative8Situation9.wav,audio/Narrative7Situation9.wav,audio/Narrative6Situation9.wav,audio/Narrative5Situation9.wav,3,2,4,3,,,,,,,,,,,,,,,,,,,,,,,,,,,,,,,,,,,,,,,
,,,,,,60dbf4d94a3b5564b68881e8,2024-05-13_11h46.23.883,group3.1-3.2-social-tom,2023.2.2,MacIntel,60.24096386,65c5074098b851296ff0b7ed,664235605606d215c5f038c0,,,,,,,,,,,,,,,,,,,,,,,,,,,532.7423,535.3111,535.33,2,audio/Narrative13Situation2.wav,535.3301,,535.3301,565.0817,"[[66.9,2164],[67.4,2247],[67.5,2331],[67.5,2414],[67.2,2497],[67.1,2580],[67.1,2664],[67.1,2748],[67.1,2830],[65.2,2914],[53.8,2998],[50.8,3081],[50.3,3164],[50.3,3247],[50.3,3331],[50.3,3414],[50.3,3498],[46.5,3581],[41.1,3664],[40.5,3747],[40.4,3831],[40.4,3914],[40.4,3997],[40.4,4081],[42.4,4165],[51.9,4248],[52.9,4331],[52.6,4414],[52.4,4497],[52.4,4581],[52.4,4663],[52.4,4748],[52.4,4830],[52.4,4915],[58.5,4998],[64.2,5081],[64.7,5165],[65.1,5248],[67.1,5331],[67.4,5415],[67.4,5498],[67.4,5581],[67.4,5665],[67.4,5747],[67.4,5831],[67.4,5914],[67.4,5998],[67.4,6081],[67.4,6164],[67.4,6248],[67.4,6331],[67.4,6415],[67.4,6498],[67.4,6581],[67.4,6664],[67.4,6748],[67.4,6831],[67.4,6914],[67.4,6998],[67.4,7082],[67.4,7165],[67.4,7248],[67.4,7332],[67.4,7415],[67.4,7497],[67.4,7581],[67.4,7664],[67.4,7748],[67.4,7831],[67.4,7915],[67.4,7998],[67.4,8081],[67.4,8165],[67.4,8249],[67.4,8332],[67.4,8415],[67.4,8499],[67.4,8582],[67.4,8665],[69.8,8748],[83.5,8831],[88.1,8914],[88,8998],[88,9082],[88,9165],[95,9248],[100,9331],[100,9415],[100,9498],[100,9581],[100,9666],[100,9749],[100,9832],[100,9915],[100,9999],[100,10082],[100,10165],[100,10249],[100,10332],[100,10414],[100,10499],[100,10582],[100,10666],[100,10748],[100,10832],[100,10915],[100,10999],[100,11082],[100,11164],[100,11249],[100,11331],[100,11416],[100,11499],[100,11582],[100,11665],[100,11749],[100,11832],[100,11915],[100,11999],[100,12082],[100,12166],[100,12249],[100,12332],[100,12416],[100,12499],[100,12582],[100,12666],[100,12749],[100,12831],[100,12915],[100,12999],[100,13082],[100,13166],[100,13249],[100,13332],[100,13416],[100,13499],[100,13582],[100,13665],[100,13749],[100,13832],[100,13915],[100,13999],[100,14083],[100,14166],[100,14249],[100,14333],[100,14416],[100,14499],[100,14582],[100,14666],[100,14749],[100,14832],[100,14915],[100,15000],[100,15082],[100,15166],[100,15250],[100,15333],[100,15416],[100,15500],[100,15583],[100,15666],[100,15749],[100,15833],[100,15915],[100,15999],[100,16083],[100,16166],[100,16250],[100,16333],[100,16417],[100,16500],[100,16583],[100,16667],[100,16750],[100,16833],[100,16916],[100,17000],[100,17083],[100,17166],[100,17249],[100,17333],[100,17417],[100,17500],[100,17583],[100,17667],[100,17750],[94.9,17833],[91.2,17917],[91,18000],[91,18083],[91,18167],[91,18249],[91,18333],[91,18416],[91,18500],[91,18582],[91,18667],[91,18750],[82.2,18833],[77.7,18917],[77.5,19000],[77.5,19083],[77.5,19166],[77.5,19249],[77.5,19333],[77.5,19417],[77.5,19500],[77.5,19584],[77.5,19666],[77.5,19750],[77.5,19834],[68.4,19917],[65.8,20000],[65.8,20084],[65.8,20167],[65.8,20250],[65.8,20333],[65.8,20416],[65.8,20500],[65.8,20584],[65.8,20666],[65.8,20750],[65.8,20834],[65.8,20917],[65.8,21000],[65.8,21084],[59.7,21167],[57,21250],[56.9,21333],[56.9,21417],[56.9,21500],[47.6,21583],[42.3,21668],[42.2,21751],[42.2,21834],[42.2,21917],[42.2,22001],[42.2,22084],[42.2,22167],[42.2,22250],[40.6,22334],[34.7,22417],[33.4,22501],[33.4,22584],[33.4,22666],[33.4,22750],[33.4,22834],[33.4,22918],[33.4,23000],[33.4,23084],[27.5,23167],[23.8,23251],[23.7,23334],[23.7,23417],[23.7,23501],[23.7,23584],[23.7,23667],[23.7,23750],[23.7,23834],[23.7,23917],[23.7,24001],[23.7,24084],[23.7,24168],[23.7,24251],[23.7,24334],[23.7,24418],[23.7,24501],[23.7,24584],[23.6,24667],[23.5,24750],[23.3,24834],[23.3,24918],[23.3,25001],[23.3,25084],[23.3,25168],[23.3,25251],[23.3,25335],[23.3,25418],[23.3,25500],[23.3,25585],[23.3,25668],[23.3,25751],[26.6,25835],[30.4,25918],[30.6,26001],[30.6,26084],[30.6,26168],[30.6,26251],[30.6,26335],[30.6,26418],[30.6,26500],[30.6,26585],[30.6,26668],[30.6,26751],[30.6,26834],[30.6,26918],[30.6,27001],[30.6,27084],[30.6,27168],[30.6,27251],[30.6,27335],[30.6,27418],[30.6,27502],[30.6,27584],[30.6,27668],[30.6,27752],[30.6,27835],[30.6,27918],[30.6,28001],[30.6,28085],[30.6,28168],[30.6,28251],[30.6,28334],[30.6,28418],[30.6,28502],[30.6,28584],[30.6,28668],[30.6,28751],[30.6,28835],[30.6,28918],[30.6,29002],[30.6,29085],[30.6,29169],[30.6,29252],[30.6,29335],[30.6,29419],[30.6,29501],[30.6,29585],[30.6,29668],[30.6,29751]]",1,0,565.0818,565.084,,,[],,,,565.0841,Partially,50,565.0877,,,[],,0,0,0,0,1,audio/Narrative13Situation2.wav,audio/Narrative13Situation2.wav,audio/Narrative13Situation2.wav,audio/Narrative13Situation2.wav,2,2,2,2,,,,,515.5628,532.7273,space,16.6444,,,,,,,,,,,,,,,,,,,,,,,,,,,,,,,
,,,,,,60dbf4d94a3b5564b68881e8,2024-05-13_11h46.23.883,group3.1-3.2-social-tom,2023.2.2,MacIntel,60.24096386,65c5074098b851296ff0b7ed,664235605606d215c5f038c0,,,,,,,,,,,,,,,,,,,,,,,,,,,,,565.0882,2,audio/Narrative5Situation1.wav,570.1001,,570.1001,583.402,"[[31.2,1516],[31.5,1599],[31.5,1683],[31.5,1766],[31.5,1849],[33.2,1933],[37,2017],[38.1,2099],[38.1,2183],[38.1,2266],[38.1,2350],[38.1,2432],[38.1,2516],[38,2600],[38,2683],[38,2765],[38,2850],[38,2933],[38,3016],[38,3100],[38,3183],[38,3267],[38,3350],[38,3433],[38,3517],[38,3600],[38,3683],[38,3767],[38,3849],[38,3933],[38,4017],[38,4100],[38,4183],[38,4266],[38,4350],[38,4433],[38,4516],[38,4600],[38,4684],[38,4766],[38,4850],[38,4933],[38,5017],[39.5,5105],[41.8,5184],[42,5267],[42,5349],[42,5433],[42,5517],[42,5600],[42.9,5683],[47.5,5767],[48.8,5851],[48.8,5933],[48.8,6017],[48.8,6100],[48.8,6184],[48.8,6267],[48.8,6350],[48.8,6434],[48.8,6517],[48.8,6600],[48.8,6683],[48.8,6767],[48.8,6850],[48.8,6933],[48.8,7017],[48.8,7101],[48.8,7183],[48.8,7267],[48.8,7351],[48.8,7434],[48.8,7517],[48.8,7601],[48.8,7684],[48.8,7767],[48.8,7850],[48.8,7933],[48.8,8017],[48.8,8100],[48.8,8184],[48.8,8267],[48.8,8350],[48.8,8434],[48.8,8518],[48.8,8601],[48.8,8684],[48.8,8767],[48.8,8850],[48.8,8934],[48.8,9017],[48.8,9101],[48.8,9183],[48.8,9267],[48.8,9351],[48.8,9433],[48.8,9517],[48.8,9600],[48.8,9684],[48.8,9768],[48.8,9851],[48.8,9934],[48.8,10018],[48.8,10101],[48.8,10184],[48.8,10268],[48.8,10350],[48.8,10434],[48.8,10517],[48.8,10600],[48.8,10685],[48.8,10768],[48.8,10851],[48.8,10935],[48.8,11018],[48.8,11101],[48.8,11185],[48.8,11267],[48.8,11351],[48.8,11434],[48.8,11517],[48.8,11600],[48.8,11685],[48.8,11768],[48.8,11851],[48.8,11935],[48.8,12018],[48.8,12100],[48.8,12185],[48.8,12268],[48.8,12351],[48.8,12434],[56.6,12518],[61.2,12601],[61.4,12685],[61.4,12767],[61.4,12851],[61.4,12935],[61.4,13018],[61.4,13101],[61.4,13185],[61.4,13268]]",1,0,583.4021,584.8185,62.12531196,0.8429,"[{""rating"":62.12531195746528,""responseTime"":0.8429000000953693}]",space,0.8681,,584.8186,Partially,50,588.7522,50.09235806,3.3763,"[{""rating"":50.0923580593533,""responseTime"":3.37629999995238}]",space,0,1,1,1,1,audio/Narrative7Situation1.wav,audio/Narrative8Situation1.wav,audio/Narrative5Situation1.wav,audio/Narrative6Situation1.wav,2,5,5,2,,,3.4055,,,,,,,,,,,,,,,,,,,,,,,,,,,,,,,,,,,,
,,,,,,60dbf4d94a3b5564b68881e8,2024-05-13_11h46.23.883,group3.1-3.2-social-tom,2023.2.2,MacIntel,60.24096386,65c5074098b851296ff0b7ed,664235605606d215c5f038c0,,,,,,,,,,,,,,,,,,,,,,,,,,,,,588.7527,2,audio/Narrative5Situation2.wav,591.7533,,591.7534,621.2085,"[[50.4,2000],[51.2,2083],[51.5,2167],[51.5,2250],[51.5,2333],[51.5,2417],[51.5,2500],[51.5,2583],[51.5,2666],[51.5,2750],[51.5,2833],[51.5,2916],[53.2,3000],[55.1,3084],[55.2,3167],[55.2,3250],[55.2,3334],[55.2,3417],[55.2,3500],[55.2,3583],[55.2,3667],[55.2,3750],[55.2,3833],[55.2,3917],[55.2,4000],[56.6,4084],[59.2,4166],[59.3,4251],[59.3,4334],[59.3,4417],[59.3,4500],[59.3,4584],[59.3,4667],[59.3,4750],[59.3,4834],[59.3,4917],[59.3,5000],[59.3,5083],[59.3,5166],[59.3,5251],[59.3,5334],[59.3,5418],[62.5,5500],[69.4,5584],[69.7,5667],[69.7,5750],[69.7,5834],[69.7,5917],[69.7,6001],[69.7,6083],[69.7,6167],[69.7,6250],[69.7,6334],[69.7,6417],[69.7,6501],[69.7,6584],[69.7,6667],[69.7,6750],[69.7,6834],[69.7,6918],[69.7,7001],[69.9,7084],[77.4,7168],[79.8,7251],[79.8,7334],[79.8,7418],[79.8,7501],[79.8,7583],[79.8,7668],[79.8,7751],[79.8,7834],[79.8,7917],[79.8,8001],[79.8,8084],[79.8,8167],[79.8,8250],[79.8,8334],[79.8,8417],[79.8,8501],[79.8,8584],[79.8,8667],[79.8,8751],[79.8,8834],[79.8,8918],[79.8,9000],[79.8,9084],[79.8,9167],[79.8,9251],[79.8,9335],[79.8,9417],[79.8,9501],[79.8,9585],[79.8,9668],[79.8,9750],[79.8,9835],[79.8,9917],[79.8,10001],[79.8,10085],[79.8,10167],[79.8,10250],[79.8,10334],[79.8,10417],[79.8,10500],[79.8,10584],[79.8,10668],[79.8,10751],[79.8,10834],[79.8,10918],[79.8,11002],[79.8,11084],[79.8,11168],[79.8,11252],[79.8,11335],[79.8,11418],[79.8,11501],[79.8,11585],[79.8,11667],[79.8,11751],[79.8,11834],[79.8,11918],[79.8,12001],[79.8,12085],[79.8,12168],[79.8,12252],[79.8,12335],[79.8,12418],[79.8,12501],[79.8,12585],[79.8,12668],[79.8,12751],[79.8,12835],[79.8,12919],[79.8,13002],[79.8,13085],[79.8,13168],[79.8,13252],[79.8,13335],[79.8,13419],[79.8,13502],[79.8,13585],[79.8,13669],[79.8,13752],[79.8,13834],[79.8,13919],[79.8,14001],[79.8,14085],[79.8,14169],[79.8,14252],[79.8,14336],[79.8,14419],[79.8,14502],[79.8,14585],[79.8,14668],[79.8,14752],[79.8,14835],[79.8,14918],[79.8,15002],[79.8,15086],[79.8,15168],[79.8,15251],[79.8,15336],[79.8,15419],[79.8,15501],[79.8,15586],[79.8,15669],[79.8,15751],[79.8,15836],[79.8,15919],[79.8,16002],[79.8,16085],[79.8,16168],[79.8,16252],[79.8,16336],[79.8,16418],[79.8,16502],[79.8,16586],[79.8,16669],[79.8,16752],[79.8,16836],[79.8,16919],[79.8,17002],[79.8,17086],[79.8,17169],[79.8,17252],[79.8,17336],[79.8,17419],[79.8,17503],[79.8,17585],[79.8,17669],[79.8,17753],[79.8,17836],[79.8,17919],[79.8,18003],[79.8,18086],[79.8,18169],[79.8,18252],[79.8,18335],[79.8,18419],[79.8,18502],[79.8,18586],[79.8,18669],[79.8,18752],[79.8,18835],[79.8,18919],[79.8,19003],[79.8,19086],[79.8,19168],[79.8,19253],[79.8,19336],[79.8,19419],[79.8,19503],[79.8,19586],[79.8,19669],[79.8,19753],[79.8,19835],[79.8,19920],[79.8,20002],[79.2,20098],[77.9,20170],[76.7,20253],[76.3,20337],[76.3,20420],[76.3,20503],[76.3,20586],[76.3,20670],[76.3,20753],[76.3,20836],[76.3,20919],[76.3,21002],[76.3,21086],[76.3,21170],[76.3,21253],[76.3,21336],[76.3,21420],[76.3,21503],[76.3,21587],[76.3,21670],[76.3,21752],[76.3,21837],[76.3,21920],[76.3,22003],[76.3,22087],[76.3,22169],[76.3,22253],[76.3,22337],[76.3,22420],[76.3,22503],[76.3,22587],[76.3,22670],[76.3,22753],[76.3,22836],[76.3,22920],[76.3,23004],[76.3,23086],[76.3,23170],[76.3,23253],[76.3,23336],[76.3,23419],[76.3,23504],[76.3,23587],[76.3,23670],[76.3,23753],[76.3,23837],[76.3,23920],[76.3,24003],[76.9,24086],[77,24170],[77,24253],[77,24337],[77,24420],[77,24504],[77,24586],[77,24670],[77,24754],[77,24837],[77,24919],[77,25004],[77,25087],[77,25170],[77,25253],[77,25337],[77,25420],[77,25503],[77,25587],[77,25671],[77,25753],[77.2,25837],[78,25921],[78.4,26003],[78.5,26086],[78.6,26171],[78.8,26254],[78.9,26337],[78.9,26421],[79,26504],[79,26587],[79,26671],[79,26753],[79,26837],[79,26921],[79,27003],[79,27087],[79,27171],[79,27253],[79,27337],[79.5,27421],[79.7,27503],[79.8,27588],[79.8,27671],[80,27753],[80,27837],[80,27921],[80,28005],[80,28088],[80,28171],[80,28254],[80,28338],[80,28421],[80,28504],[80,28588],[80,28671],[80,28754],[80,28838],[80,28921],[80,29003],[80,29088],[80,29171],[79.8,29254],[79.7,29338],[79.6,29421]]",1,0,621.2087,624.1084,67.26958381,2.4436,"[{""rating"":67.26958380805121,""responseTime"":2.4435999999045634}]",space,2.3507,,624.1084,Not at all,0,624.1134,,,[],,0,2,2,2,1,audio/Narrative7Situation2.wav,audio/Narrative8Situation2.wav,audio/Narrative5Situation2.wav,audio/Narrative6Situation2.wav,3,3,3,3,,,,,,,,,,,,,,,,,,,,,,,,,,,,,,,,,,,,,,,
,,,,,,60dbf4d94a3b5564b68881e8,2024-05-13_11h46.23.883,group3.1-3.2-social-tom,2023.2.2,MacIntel,60.24096386,65c5074098b851296ff0b7ed,664235605606d215c5f038c0,,,,,,,,,,,,,,,,,,,,,,,,,,,,,624.1139,2,audio/Narrative5Situation3.wav,627.126,,627.1261,641.045,"[[67.2,3166],[67.6,3250],[69.2,3333],[74.1,3417],[76.3,3499],[76.5,3583],[76.5,3667],[76.5,3749],[76.5,3833],[78,3917],[83.4,3999],[84.7,4082],[84.7,4166],[84.7,4250],[84.7,4333],[84.7,4416],[84.7,4500],[84.7,4583],[84.7,4667],[84.7,4750],[84.9,4833],[89,4917],[92.7,5000],[92.9,5084],[92.9,5167],[94.8,5249],[100,5333],[100,5417],[100,5499],[100,5583],[100,5667],[100,5750],[100,5833],[100,5917],[100,6000],[100,6084],[100,6167],[100,6250],[100,6334],[100,6416],[100,6500],[100,6583],[100,6667],[100,6750],[100,6833],[100,6917],[100,7000],[100,7084],[100,7166],[100,7250],[100,7334],[100,7417],[100,7500],[100,7584],[100,7667],[100,7751],[100,7834],[100,7917],[100,8001],[100,8084],[100,8167],[100,8251],[100,8333],[100,8417],[100,8501],[100,8584],[100,8667],[100,8750],[100,8834],[100,8916],[100,9001],[100,9083],[100,9167],[100,9251],[100,9334],[100,9417],[100,9500],[100,9584],[100,9667],[100,9751],[100,9833],[100,9917],[100,10000],[100,10084],[100,10167],[100,10251],[100,10334],[100,10417],[100,10501],[100,10584],[100,10667],[100,10751],[100,10833],[100,10917],[100,11000],[100,11084],[100,11167],[100,11251],[100,11333],[100,11417],[100,11500],[100,11584],[100,11668],[100,11751],[100,11834],[100,11918],[100,12001],[100,12085],[100,12167],[100,12251],[100,12334],[100,12418],[100,12501],[100,12585],[100,12668],[100,12751],[100,12834],[100,12918],[100,13001],[100,13085],[100,13167],[100,13251],[100,13334],[100,13418],[100,13501],[100,13585],[100,13668],[100,13750],[100,13835],[100,13918]]",1,0,641.0452,642.6121,99.34921265,0.9762,"[{""rating"":99.34921264648438,""responseTime"":0.9762000000476974}]",space,1.0196,,642.6121,Partially,50,642.6178,,,[],,0,3,3,3,1,audio/Narrative7Situation3.wav,audio/Narrative8Situation3.wav,audio/Narrative5Situation3.wav,audio/Narrative6Situation3.wav,8,4,3,5,,,,,,,,,,,,,,,,,,,,,,,,,,,,,,,,,,,,,,,
,,,,,,60dbf4d94a3b5564b68881e8,2024-05-13_11h46.23.883,group3.1-3.2-social-tom,2023.2.2,MacIntel,60.24096386,65c5074098b851296ff0b7ed,664235605606d215c5f038c0,,,,,,,,,,,,,,,,,,,,,,,,,,,,,642.6187,2,audio/Narrative5Situation4.wav,643.6287,,643.6288,664.0313,"[[99.3,1332],[99.3,1415],[99.3,1499],[99.3,1583],[99.2,1666],[99.1,1749],[99,1832],[98.9,1917],[98.7,1999],[98.6,2083],[98.5,2166],[98.4,2249],[98.4,2333],[98.4,2416],[98.4,2500],[98.4,2582],[98.4,2667],[98.4,2750],[98.4,2832],[98.4,2916],[98.4,3000],[98.4,3083],[98.4,3166],[98.4,3250],[98.4,3333],[98.4,3416],[98.4,3500],[98.2,3582],[97.3,3667],[96.4,3750],[96,3832],[96,3916],[96,3999],[96,4082],[96,4167],[95.1,4250],[83.9,4333],[81.5,4417],[81.5,4500],[81.5,4584],[81.5,4667],[62.5,4750],[43,4834],[42.8,4917],[42.8,5000],[42.8,5083],[42.8,5167],[33.9,5250],[12.9,5333],[11.1,5417],[11.1,5500],[11.1,5584],[11.1,5666],[11.1,5749],[11.1,5832],[11.1,5917],[10.5,6000],[7.6,6084],[7.1,6166],[7.1,6250],[7.1,6333],[7.1,6417],[6.3,6500],[1.2,6584],[0.2,6667],[0,6751],[1.6,9084],[24.5,9167],[34.3,9251],[34.6,9334],[34.6,9418],[34.6,9500],[42.2,9584],[63.1,9667],[67.6,9751],[67.6,9833],[67.6,9917],[67.7,10001],[73.5,10085],[75.8,10168],[75.8,10251],[75.7,10334],[75.7,10417],[81.2,10501],[84.8,10584],[84.7,10667],[84.6,10750],[84.5,10835],[84.5,10918],[84.5,11001],[84.5,11084],[84.5,11167],[88.2,11251],[97.9,11335],[99.1,11418],[99,11500],[98.8,11585],[98.7,11668],[98.6,11751],[98.5,11835],[98.6,11918],[100,12001],[100,12085],[100,12168],[100,12251],[100,12334],[100,12417],[100,12501],[100,12584],[100,12668],[100,12750],[100,12834],[100,12918],[100,13001],[100,13085],[100,13168],[100,13251],[100,13335],[100,13418],[100,13501],[100,13585],[100,13667],[100,13751],[100,13835],[100,13918],[100,14001],[100,14085],[100,14168],[100,14251],[100,14335],[100,14417],[100,14502],[100,14585],[100,14668],[100,14752],[100,14835],[100,14918],[100,15001],[100,15084],[100,15168],[100,15251],[100,15334],[100,15417],[100,15502],[100,15585],[100,15668],[100,15752],[100,15835],[100,15918],[100,16002],[100,16085],[100,16168],[100,16251],[100,16335],[100,16419],[100,16502],[100,16584],[100,16669],[100,16752],[100,16835],[100,16918],[100,17002],[100,17085],[100,17168],[100,17252],[100,17335],[100,17419],[100,17501],[100,17586],[100,17669],[100,17751],[100,17836],[100,17919],[100,18002],[100,18086],[100,18169],[100,18252],[100,18336],[100,18418],[100,18502],[100,18586],[100,18668],[100,18753],[100,18836],[100,18918],[100,19002],[100,19086],[100,19169],[100,19252],[100,19336],[100,19419],[100,19503],[100,19585],[100,19669],[100,19752],[100,19835],[100,19918],[100,20002],[100,20085],[100,20169],[100,20253],[100,20336]]",1,0,664.0315,666.0649,99.56115723,1.5108,"[{""rating"":99.5611572265625,""responseTime"":1.510799999952269}]",space,1.5001,,666.0649,Definitely yes,100,666.0685,,,[],,0,4,4,4,1,audio/Narrative7Situation4.wav,audio/Narrative8Situation4.wav,audio/Narrative5Situation4.wav,audio/Narrative6Situation4.wav,3,3,1,2,,,,,,,,,,,,,,,,,,,,,,,,,,,,,,,,,,,,,,,
,,,,,,60dbf4d94a3b5564b68881e8,2024-05-13_11h46.23.883,group3.1-3.2-social-tom,2023.2.2,MacIntel,60.24096386,65c5074098b851296ff0b7ed,664235605606d215c5f038c0,,,,,,,,,,,,,,,,,,,,,,,,,,,,,666.0689,2,audio/Narrative5Situation5.wav,671.0821,,671.0822,686.5014,"[[98.6,933],[92.4,1017],[89.9,1101],[89.1,1184],[89,1267],[88.9,1350],[88.9,1433],[88.9,1517],[88.9,1600],[88.9,1683],[88.9,1766],[88.9,1850],[88.9,1933],[88.9,2017],[88.9,2101],[88.9,2183],[88.9,2267],[88.9,2351],[88.9,2434],[88.9,2517],[88.9,2601],[88.9,2683],[88.9,2767],[80.2,2851],[62.9,2933],[61.1,3017],[61.1,3101],[61.1,3184],[61.1,3268],[56.3,3351],[44.5,3434],[43.2,3517],[43.2,3601],[43.2,3684],[43.2,3768],[43.2,3850],[43.2,3934],[43.2,4017],[43.2,4101],[43.2,4183],[43.2,4268],[43.2,4351],[43.2,4434],[43.2,4518],[43.2,4601],[40.9,4684],[29.3,4768],[27.7,4851],[27.6,4934],[27.6,5018],[27.6,5100],[27.6,5184],[25.5,5268],[16.5,5350],[15.5,5435],[15.5,5517],[15.5,5601],[15.5,5685],[15.5,5768],[15.5,5850],[15.5,5935],[15.5,6018],[15.5,6101],[15.5,6184],[15.5,6267],[15.5,6352],[15.5,6435],[15.5,6518],[15.5,6601],[15.5,6685],[15.5,6768],[15.5,6852],[15.5,6935],[15.5,7018],[15.5,7102],[15.5,7184],[15.5,7268],[15.5,7351],[15.5,7434],[15.5,7518],[15.5,7601],[15.5,7687],[15.5,7768],[15.5,7852],[15.5,7935],[15.5,8018],[15.5,8102],[15.5,8185],[15.5,8267],[15.5,8351],[15.5,8435],[15.5,8518],[15.5,8601],[15.5,8685],[15.5,8768],[15.5,8852],[15.5,8935],[15.5,9019],[15.5,9102],[15.5,9185],[15.5,9268],[15.5,9352],[15.5,9435],[15.5,9518],[15.5,9602],[15.5,9685],[15.5,9768],[15.5,9852],[15.5,9935],[15.5,10018],[15.5,10101],[15.5,10186],[15.5,10269],[15.5,10352],[15.5,10435],[15.5,10518],[15.5,10602],[15.5,10686],[15.5,10769],[15.5,10852],[15.5,10935],[15.5,11019],[15.5,11102],[15.5,11185],[15.5,11269],[15.5,11352],[15.5,11436],[15.5,11519],[15.5,11602],[15.5,11685],[15.5,11769],[15.5,11852],[15.5,11936],[15.5,12018],[15.5,12101],[15.5,12186],[15.5,12269],[15.5,12352],[15.5,12436],[15.5,12518],[15.5,12602],[15.5,12685],[15.5,12769],[15.5,12852],[15.5,12936],[15.5,13018],[15.5,13103],[15.5,13186],[15.5,13269],[15.5,13353],[15.5,13436],[15.5,13519],[15.5,13603],[15.5,13686],[15.5,13769],[15.5,13852],[15.5,13936],[15.5,14018],[15.5,14103],[15.5,14185],[15.5,14269],[15.5,14353],[15.5,14436],[15.5,14519],[15.5,14603],[15.5,14686],[15.5,14769],[15.5,14853],[15.5,14936],[15.5,15019],[15.5,15102],[15.5,15186],[15.5,15269],[15.5,15352]]",1,0,686.5016,688.1355,21.74464756,1.1276,"[{""rating"":21.744647555881073,""responseTime"":1.12760000002379}]",space,1.1018,,688.1356,Partially,50,688.1402,,,[],,0,5,5,5,1,audio/Narrative7Situation5.wav,audio/Narrative8Situation5.wav,audio/Narrative5Situation5.wav,audio/Narrative6Situation5.wav,5,2,5,2,,,,,,,,,,,,,,,,,,,,,,,,,,,,,,,,,,,,,,,
,,,,,,60dbf4d94a3b5564b68881e8,2024-05-13_11h46.23.883,group3.1-3.2-social-tom,2023.2.2,MacIntel,60.24096386,65c5074098b851296ff0b7ed,664235605606d215c5f038c0,,,,,,,,,,,,,,,,,,,,,,,,,,,,,688.1409,2,audio/Narrative5Situation6.wav,691.1521,,691.1522,696.8203,"[[22.5,1167],[23.2,1250],[23.3,1334],[23.3,1417],[23.3,1500],[23.3,1584],[23.3,1668],[23.3,1750],[23.3,1833],[23.3,1917],[23.3,2001],[23.3,2083],[23.3,2167],[23.3,2250],[23.3,2333],[23.3,2417],[23.3,2500],[25.2,2584],[56.9,2668],[69,2750],[69.5,2834],[69.5,2917],[69.5,3000],[69.5,3084],[71.5,3168],[100,3250],[100,3334],[100,3418],[100,3500],[100,3584],[100,3667],[100,3750],[100,3834],[100,3917],[100,4001],[100,4084],[100,4168],[100,4251],[100,4335],[100,4418],[100,4500],[100,4585],[100,4668],[100,4750],[100,4835],[100,4918],[100,5001],[100,5084],[100,5168],[100,5251],[99.9,5334],[99.9,5418],[99.9,5501],[99.9,5584],[99.9,5667]]",1,0,696.8204,697.8542,99.93252224,0.608,"[{""rating"":99.93252224392361,""responseTime"":0.6079999999999472}]",space,0.4997,,697.8543,Partially,50,697.8567,,,[],,0,6,6,6,1,audio/Narrative7Situation6.wav,audio/Narrative8Situation6.wav,audio/Narrative5Situation6.wav,audio/Narrative6Situation6.wav,3,2,3,2,,,,,,,,,,,,,,,,,,,,,,,,,,,,,,,,,,,,,,,
,,,,,,60dbf4d94a3b5564b68881e8,2024-05-13_11h46.23.883,group3.1-3.2-social-tom,2023.2.2,MacIntel,60.24096386,65c5074098b851296ff0b7ed,664235605606d215c5f038c0,,,,,,,,,,,,,,,,,,,,,,,,,,,,,697.857,2,audio/Narrative5Situation7.wav,701.8715,,701.8715,722.9251,"[[99.1,1849],[96.8,1932],[96.3,2016],[96.2,2099],[96.1,2182],[96,2266],[95.9,2350],[93.2,2432],[88,2516],[87.4,2599],[87.4,2683],[87.4,2766],[87.4,2850],[87.4,2933],[87.3,3017],[78.8,3099],[74,3183],[73.6,3267],[73.6,3350],[73.6,3433],[73.6,3516],[73.6,3600],[73.6,3682],[73.6,3766],[73.5,3850],[54.6,3933],[46.5,4016],[46.4,4100],[46.4,4183],[46.4,4267],[46.4,4349],[46.4,4433],[46.4,4517],[46.4,4599],[46.4,4683],[46.4,4767],[46.4,4850],[44.9,4933],[35.3,5017],[33.7,5100],[33.6,5184],[32.4,5266],[28.2,5350],[27.8,5434],[27.8,5516],[27.8,5600],[27.8,5684],[27.8,5766],[27.8,5849],[27.8,5934],[27.8,6016],[27.8,6100],[27.8,6184],[27.8,6267],[27.8,6350],[27.8,6433],[27.8,6517],[27.8,6600],[27.8,6683],[27.8,6766],[27.8,6850],[27.8,6934],[27.8,7017],[27.8,7100],[27.9,7184],[33.3,7267],[36.7,7350],[40.8,7434],[51.4,7517],[52.6,7600],[51.6,7684],[50.7,7767],[50.6,7850],[50.6,7933],[50.6,8017],[50.6,8100],[50.6,8183],[50.6,8267],[50.6,8351],[50.6,8434],[50.6,8517],[50.6,8601],[50.6,8684],[50.6,8766],[50.6,8851],[50.6,8936],[50.6,9017],[50.6,9100],[50.6,9184],[50.6,9268],[50.6,9350],[50.6,9434],[50.6,9518],[50.6,9601],[50.6,9684],[50.6,9767],[50.6,9851],[50.6,9933],[50.6,10017],[50.6,10101],[50.6,10184],[53.7,10267],[57.2,10350],[57.8,10433],[57.8,10517],[57.8,10600],[57.8,10684],[57.8,10768],[57.8,10851],[57.8,10934],[57.7,11018],[57.7,11101],[57.7,11184],[57.7,11268],[57.7,11351],[57.7,11434],[57.9,11517],[65,11601],[67.7,11684],[67.8,11768],[67.8,11851],[67.8,11934],[67.8,12017],[67.8,12101],[67.7,12185],[67.7,12268],[67.7,12351],[67.7,12435],[67.7,12517],[67.7,12601],[67.7,12685],[67.7,12768],[67.7,12851],[67.7,12935],[67.7,13018],[67.7,13101],[67.7,13184],[67.7,13268],[67.7,13351],[67.7,13434],[67.7,13518],[67.7,13601],[67.7,13684],[67.7,13768],[67.7,13852],[67.7,13934],[67.7,14017],[67.7,14102],[67.7,14185],[67.7,14268],[67.7,14352],[67.7,14435],[67.7,14518],[67.7,14601],[67.7,14685],[67.7,14768],[67.7,14851],[67.7,14934],[67.7,15019],[67.7,15101],[67.7,15185],[67.7,15269],[67.7,15352],[67.7,15435],[67.7,15519],[67.7,15602],[67.7,15685],[67.7,15769],[67.7,15852],[67.7,15935],[67.7,16018],[67.7,16101],[67.7,16185],[67.7,16269],[67.7,16352],[67.7,16435],[67.7,16519],[67.7,16601],[67.7,16685],[67.7,16769],[67.7,16852],[67.7,16935],[67.7,17018],[67.7,17102],[67.7,17184],[67.7,17268],[67.7,17352],[67.7,17435],[67.7,17518],[67.7,17602],[67.7,17686],[68.7,17775],[70.5,17852],[70.8,17935],[70.8,18019],[70.8,18101],[70.8,18185],[70.8,18269],[70.8,18351],[70.8,18435],[70.8,18519],[70.8,18602],[70.8,18685],[70.8,18769],[70.8,18852],[70.8,18936],[70.8,19019],[70.8,19102],[70.8,19186],[70.8,19268],[70.8,19352],[70.6,19435],[67,19519],[66,19603],[66,19685],[66,19769],[66,19853],[66,19936],[66,20019],[66,20103],[66,20186],[66,20269],[66,20353],[66,20435],[66,20519],[66,20603],[66,20685],[64,20769],[61.2,20853],[60.5,20936],[60.2,21019]]",1,0,722.9253,724.2583,56.76269531,0.7086,"[{""rating"":56.7626953125,""responseTime"":0.7086000000238073}]",space,0.7838,,724.2583,Partially,50,724.2605,,,[],,0,7,7,7,1,audio/Narrative7Situation7.wav,audio/Narrative8Situation7.wav,audio/Narrative5Situation7.wav,audio/Narrative6Situation7.wav,5,3,4,5,,,,,,,,,,,,,,,,,,,,,,,,,,,,,,,,,,,,,,,
,,,,,,60dbf4d94a3b5564b68881e8,2024-05-13_11h46.23.883,group3.1-3.2-social-tom,2023.2.2,MacIntel,60.24096386,65c5074098b851296ff0b7ed,664235605606d215c5f038c0,,,,,,,,,,,,,,,,,,,,,,,,,,,,,724.2608,2,audio/Narrative5Situation8.wav,727.2756,,727.2757,736.1105,"[[55,2433],[52.9,2516],[52.6,2600],[52.6,2683],[52.6,2766],[52.5,2850],[52.4,2933],[52.4,3017],[52.3,3100],[52.3,3183],[52.4,3266],[52.9,3350],[53.1,3433],[53.1,3517],[53.5,3600],[54.6,3683],[55.5,3766],[55.6,3849],[55.6,3932],[55.6,4016],[55.6,4099],[55.6,4183],[55.6,4267],[55.6,4350],[55.6,4433],[55.6,4517],[55.6,4600],[55.6,4683],[55.6,4766],[55.6,4849],[55.6,4933],[55.6,5017],[55.6,5099],[55.6,5183],[55.6,5266],[55.6,5350],[55.6,5434],[55.6,5517],[55.6,5600],[55.6,5683],[55.6,5767],[55.6,5850],[55.6,5933],[55.6,6017],[55.6,6100],[55.6,6184],[55.6,6266],[55.6,6350],[54.6,6433],[47.6,6517],[45.8,6601],[45.8,6684],[45.8,6766],[45.8,6850],[45.8,6933],[45.8,7016],[37.4,7100],[22.4,7183],[21.2,7267],[21.2,7350],[21.2,7433],[21.1,7517],[12.2,7600],[9.2,7684],[9.2,7767],[9.2,7851],[9.2,7934],[9.2,8017],[9.2,8100],[9.2,8184],[9.2,8267],[9.2,8350],[9.2,8434],[9.2,8517],[9.2,8601],[9.2,8684],[9.1,8767]]",1,0,736.1106,738.4099,3.77890269,1.9759,"[{""rating"":3.7789026896158875,""responseTime"":1.97589999997615}]",space,1.7707,,738.4099,Not at all,0,738.414,,,[],,0,8,8,8,1,audio/Narrative7Situation8.wav,audio/Narrative8Situation8.wav,audio/Narrative5Situation8.wav,audio/Narrative6Situation8.wav,2,3,3,5,,,,,,,,,,,,,,,,,,,,,,,,,,,,,,,,,,,,,,,
,,,,,,60dbf4d94a3b5564b68881e8,2024-05-13_11h46.23.883,group3.1-3.2-social-tom,2023.2.2,MacIntel,60.24096386,65c5074098b851296ff0b7ed,664235605606d215c5f038c0,,,,,,,,,,,,,,,,,,,,,,,,,,,,,738.4143,2,audio/Narrative5Situation9.wav,741.4279,,741.4279,780.9844,"[[4.6,1267],[5.1,1350],[4.6,1435],[4.2,1516],[4.1,1599],[4.1,1682],[8,1766],[24.6,1849],[28.1,1933],[28.1,2016],[28.1,2100],[28.1,2183],[28.1,2266],[28.1,2349],[28.1,2433],[28.1,2516],[28.1,2600],[28.1,2683],[28.1,2766],[28.1,2849],[28.1,2933],[28.1,3016],[28.2,3100],[29,3183],[36.6,3266],[45.5,3350],[46.6,3433],[46.6,3517],[46.6,3599],[46.6,3683],[54.5,3766],[57.3,3850],[57.3,3933],[57.3,4017],[57.3,4100],[57.3,4182],[57.3,4267],[57.3,4350],[63.8,4433],[74.8,4517],[75.3,4600],[75.3,4683],[75.3,4767],[75.3,4850],[75.3,4933],[75.3,5016],[75.3,5100],[75.3,5183],[75.3,5267],[75.3,5350],[75.3,5434],[75.3,5517],[75.3,5600],[75.3,5684],[75.3,5767],[75.3,5850],[75.3,5933],[75.3,6017],[75.3,6100],[75.3,6183],[75.3,6266],[75.3,6350],[75.3,6434],[75.3,6516],[75.3,6600],[75.3,6684],[75.3,6766],[75.3,6850],[75.3,6934],[74.9,7017],[73.8,7101],[73.7,7183],[73.7,7267],[73.7,7350],[73.7,7433],[73.7,7516],[73.7,7600],[73.7,7683],[73.7,7767],[73.7,7851],[73.7,7934],[73.7,8017],[73.7,8101],[73.7,8184],[73.7,8268],[73.7,8350],[73.7,8433],[73.7,8517],[73.7,8600],[73.7,8684],[73.7,8768],[73.7,8851],[73.7,8934],[73.7,9017],[73.7,9101],[75.4,9184],[76.2,9267],[76.2,9351],[76.2,9434],[76.2,9517],[76.2,9601],[76.2,9684],[76.2,9768],[76.2,9851],[76.2,9934],[76.2,10018],[76.2,10101],[76.2,10184],[76.2,10267],[76.2,10351],[75.9,10434],[75.4,10518],[75.2,10601],[75.1,10683],[75.1,10768],[75.1,10851],[75.1,10933],[75.1,11018],[75.1,11101],[75.1,11185],[75.1,11268],[75.1,11351],[75.1,11435],[75.1,11518],[75.1,11601],[75.1,11685],[75.1,11768],[75.1,11851],[75.1,11935],[75.1,12017],[75.1,12100],[75.1,12184],[75.1,12268],[75.1,12351],[75.1,12434],[75.1,12518],[75.1,12601],[75.1,12685],[75.1,12768],[75.1,12851],[75.1,12934],[75.1,13018],[75.1,13102],[75.4,13185],[75.8,13268],[75.8,13351],[75.8,13435],[75.8,13518],[75.8,13602],[75.8,13685],[75.8,13768],[75.8,13851],[75.8,13935],[75.8,14018],[75.8,14101],[75.8,14185],[75.8,14268],[75.8,14351],[75.8,14434],[75.8,14519],[75.8,14602],[75.8,14685],[75.8,14769],[75.8,14851],[75.8,14935],[75.8,15018],[75.8,15101],[75.8,15185],[75.8,15268],[75.8,15351],[75.8,15435],[75.8,15518],[75.8,15601],[75.8,15685],[75.8,15769],[75.8,15852],[75.8,15935],[75.8,16018],[75.8,16101],[75.8,16185],[75.8,16269],[75.8,16352],[75.8,16435],[75.8,16518],[75.8,16602],[75.8,16685],[75.8,16768],[76.1,16852],[78.6,16935],[81.4,17018],[82.1,17102],[82.6,17185],[84.3,17268],[85.6,17352],[86.8,17435],[87.1,17518],[87.1,17602],[87.1,17685],[87.1,17769],[87.1,17852],[87.1,17935],[87.1,18019],[87.5,18102],[89.6,18185],[90.3,18268],[90.6,18352],[90.7,18436],[90.8,18519],[91.2,18602],[91.6,18686],[91.7,18768],[91.7,18852],[91.7,18936],[91.7,19019],[91.7,19102],[91.7,19186],[91.7,19269],[91.7,19352],[91.7,19435],[92.6,19519],[93.1,19603],[93.3,19686],[93.3,19769],[93.3,19853],[93.3,19936],[93.3,20019],[93.4,20103],[93.5,20186],[93.5,20269],[93.6,20353],[93.6,20436],[93.6,20519],[93.6,20602],[93.7,20686],[93.7,20769],[93.7,20852],[93.7,20935],[93.7,21019],[93.7,21102],[93.7,21185],[93.7,21270],[93.7,21353],[93.7,21436],[93.7,21519],[93.7,21603],[93.7,21686],[93.7,21769],[93.7,21852],[93.7,21936],[93.7,22019],[93.7,22103],[93.7,22186],[93.7,22270],[93.7,22352],[93.7,22436],[93.7,22520],[93.7,22603],[93.7,22687],[93.7,22770],[93.7,22852],[93.7,22936],[93.7,23019],[93.7,23103],[93.7,23186],[93.7,23269],[93.7,23353],[93.7,23437],[93.7,23520],[93.8,23602],[93.9,23687],[93.9,23770],[94,23853],[94.1,23937],[94.1,24019],[94.2,24102],[94.2,24186],[94.2,24270],[94.2,24353],[94.2,24436],[94.2,24519],[94.2,24603],[94.2,24686],[94.2,24769],[94.2,24853],[94.2,24937],[94.2,25020],[94.2,25104],[94.2,25187],[94.2,25270],[94.2,25353],[94.2,25437],[94.2,25520],[94.2,25603],[94.2,25686],[94.2,25770],[94.2,25854],[94.2,25937],[94.2,26020],[94.2,26104],[94.2,26187],[94.2,26270],[94.2,26354],[94.2,26436],[94.2,26520],[94.2,26604],[94.2,26686],[94.2,26770],[94.2,26854],[94.2,26937],[94.2,27020],[94.2,27104],[94.2,27187],[94.8,27271],[95.3,27354],[95.6,27436],[95.6,27521],[95.6,27604],[95.7,27686],[95.9,27771],[96.3,27854],[97,27937],[97.2,28021],[97.2,28103],[97.2,28187],[97.4,28270],[99,28354],[99.3,28437],[99.4,28520],[99.4,28604],[99.4,28687],[99.9,28770],[100,28854],[100,28937],[100,29020],[100,29104],[100,29187],[100,29270],[100,29354],[100,29437],[100,29521],[100,29604],[100,29687],[100,29770],[100,29854],[100,29937],[100,30020],[100,30104],[100,30187],[100,30270],[100,30354],[100,30437],[100,30521],[100,30605],[100,30688],[100,30770],[100,30854],[100,30938],[100,31021],[100,31104],[100,31187],[100,31271],[100,31354],[100,31437],[100,31520],[100,31605],[100,31688],[100,31771],[100,31855],[100,31938],[100,32021],[100,32104],[100,32188],[100,32271],[100,32354],[100,32438],[100,32521],[100,32605],[100,32688],[100,32771],[100,32855],[100,32938],[100,33021],[100,33105],[100,33188],[100,33271],[100,33355],[100,33438],[100,33522],[100,33604],[100,33688],[100,33770],[100,33855],[100,33938],[100,34022],[100,34104],[100,34188],[100,34272],[100,34355],[100,34438],[100,34522],[100,34605],[100,34688],[100,34772],[100,34855],[100,34938],[100,35022],[100,35104],[100,35187],[100,35272],[100,35355],[100,35438],[100,35521],[100,35605],[100,35688],[100,35772],[100,35855],[100,35938],[100,36022],[100,36104],[100,36188],[100,36272],[100,36355],[100,36439],[100,36522],[100,36605],[100,36688],[100,36772],[100,36855],[100,36938],[100,37021],[100,37105],[100,37189],[100,37271],[100,37355],[100,37439],[100,37521],[100,37605],[100,37689],[100,37788],[100,37872],[100,37956],[100,38039],[100,38122],[100,38205],[100,38288],[100,38372],[100,38455],[100,38539],[100,38621],[100,38705],[100,38789],[100,38872],[100,38956],[100,39039],[100,39122],[100,39206],[100,39289],[100,39372],[100,39455],[100,39538]]",1,0,780.9846,782.1669,99.75494385,0.777,"[{""rating"":99.75494384765625,""responseTime"":0.7770000000000437}]",space,0.6415,,782.1671,Not at all,0,782.1696,,,[],,0,9,9,9,1,audio/Narrative7Situation9.wav,audio/Narrative8Situation9.wav,audio/Narrative5Situation9.wav,audio/Narrative6Situation9.wav,2,3,3,4,,,,,,,,,,,,,,,,,,,,,,,,,,,,,,,,,,,,,,,
,,,,,,60dbf4d94a3b5564b68881e8,2024-05-13_11h46.23.883,group3.1-3.2-social-tom,2023.2.2,MacIntel,60.24096386,65c5074098b851296ff0b7ed,664235605606d215c5f038c0,,,,,,,,,,,,,,,,,,,,,,,,,,,,,782.17,2,audio/Narrative6Situation1.wav,784.1849,,784.185,810.772,"[[99.7,1166],[88.3,1249],[75.6,1332],[73.1,1416],[72.9,1500],[72.9,1583],[72.9,1665],[72.9,1750],[72.9,1832],[72.9,1915],[72.9,1999],[72.9,2082],[72.9,2166],[72.9,2250],[72.9,2333],[72.9,2416],[72.9,2500],[69.4,2583],[42.9,2667],[38,2749],[37.9,2832],[38,2915],[38,2999],[38,3083],[38,3166],[37.9,3250],[14.6,3333],[0.5,3916],[1,5000],[12.2,5083],[16.3,5166],[16.5,5250],[16.5,5333],[18.1,5416],[54.2,5667],[52.6,5749],[52.1,5833],[52,5916],[52,6000],[52.1,6083],[99,6333],[97.7,6416],[97.4,6500],[96.8,6583],[98.5,6666],[100,6751],[100,6836],[100,6917],[100,7000],[100,7085],[100,7169],[100,7250],[100,7333],[100,7416],[100,7500],[100,7584],[100,7667],[100,7750],[100,7834],[100,7917],[100,8001],[100,8084],[100,8167],[100,8251],[100,8333],[100,8417],[100,8501],[100,8584],[100,8667],[100,8751],[100,8834],[100,8917],[100,9001],[100,9084],[100,9167],[100,9251],[100,9334],[100,9418],[100,9500],[100,9583],[100,9667],[100,9751],[100,9833],[100,9918],[100,10001],[100,10084],[100,10168],[100,10251],[100,10334],[100,10418],[100,10501],[100,10583],[100,10667],[100,10750],[100,10834],[100,10917],[100,11001],[100,11084],[100,11168],[100,11251],[100,11334],[100,11417],[100,11501],[100,11584],[100,11668],[100,11751],[100,11834],[100,11917],[100,12000],[100,12085],[100,12168],[100,12251],[100,12334],[100,12418],[100,12501],[100,12585],[100,12668],[100,12751],[100,12834],[100,12918],[100,13001],[100,13084],[100,13168],[100,13250],[100,13335],[100,13418],[100,13501],[100,13584],[100,13668],[100,13751],[100,13835],[100,13918],[100,14001],[100,14085],[100,14168],[100,14251],[100,14335],[100,14417],[100,14502],[100,14585],[100,14668],[100,14751],[100,14835],[100,14918],[100,15002],[100,15084],[100,15168],[100,15252],[100,15334],[100,15418],[100,15502],[100,15585],[100,15668],[100,15752],[100,15834],[100,15918],[100,16002],[100,16085],[100,16168],[100,16251],[100,16335],[100,16418],[100,16501],[100,16584],[100,16668],[100,16752],[100,16835],[100,16919],[100,17002],[100,17085],[100,17168],[100,17252],[100,17335],[100,17418],[100,17501],[100,17585],[100,17668],[100,17751],[100,17836],[100,17919],[100,18002],[100,18086],[100,18169],[100,18252],[100,18336],[100,18419],[100,18502],[100,18586],[100,18668],[100,18751],[100,18835],[100,18918],[100,19002],[100,19086],[100,19169],[100,19253],[100,19336],[100,19418],[100,19502],[100,19586],[100,19669],[100,19752],[100,19835],[100,19918],[95.4,20003],[89.1,20086],[85.8,20168],[84.6,20253],[84.5,20336],[84.5,20419],[84.5,20503],[84.5,20586],[84.5,20669],[84.5,20752],[84.5,20835],[86.9,20918],[100,21002],[100,21086],[100,21169],[100,21253],[100,21336],[100,21419],[100,21503],[100,21585],[100,21669],[100,21753],[100,21836],[100,21919],[100,22003],[100,22085],[100,22169],[100,22253],[100,22336],[100,22419],[100,22502],[100,22586],[100,22668],[100,22753],[100,22836],[100,22919],[100,23003],[100,23086],[100,23170],[100,23253],[100,23336],[100,23420],[100,23503],[100,23586],[100,23670],[100,23753],[100,23836],[100,23920],[100,24003],[100,24086],[100,24169],[100,24252],[100,24337],[100,24419],[100,24503],[100,24586],[100,24669],[100,24752],[100,24837],[100,24920],[100,25003],[100,25087],[100,25174],[100,25272],[100,25381],[100,25487],[100,25623],[100,25725],[100,25839],[100,25950],[100,26038],[100,26168],[100,26267],[100,26370],[100,26470],[100,26554]]",1,0,810.7722,814.8064,99.36243693,1.4923,"[{""rating"":99.36243693033855,""responseTime"":1.4922999999522517}]",space,3.4849,,814.8065,Not at all,0,814.8087,,,[],,0,10,10,10,1,audio/Narrative8Situation1.wav,audio/Narrative7Situation1.wav,audio/Narrative6Situation1.wav,audio/Narrative5Situation1.wav,5,2,2,5,,,,,,,,,,,,,,,,,,,,,,,,,,,,,,,,,,,,,,,
,,,,,,60dbf4d94a3b5564b68881e8,2024-05-13_11h46.23.883,group3.1-3.2-social-tom,2023.2.2,MacIntel,60.24096386,65c5074098b851296ff0b7ed,664235605606d215c5f038c0,,,,,,,,,,,,,,,,,,,,,,,,,,,,,814.8091,2,audio/Narrative6Situation2.wav,817.8231,,817.8232,846.3116,"[[99.2,1416],[84.4,1499],[76.6,1583],[76.3,1667],[76.3,1750],[76.3,1833],[76.3,1916],[76.3,2000],[76.3,2083],[76.3,2166],[76.3,2250],[76.3,2333],[76.3,2417],[76.3,2500],[76.3,2584],[76.3,2667],[76.3,2750],[76.3,2834],[76.3,2917],[74.7,3000],[72.3,3084],[68.4,3167],[65.5,3250],[64.9,3333],[64.8,3417],[64.8,3500],[64.8,3584],[64.8,3667],[64.8,3750],[64.8,3833],[64.8,3917],[64.8,4001],[64.8,4083],[64.8,4167],[64.8,4250],[64.8,4334],[64.8,4417],[64.8,4500],[65.4,4584],[76.7,4667],[80.3,4751],[80.7,4833],[80,4917],[80,5000],[80,5083],[80,5167],[80,5251],[80,5334],[80,5417],[80,5501],[80,5584],[80,5668],[80,5751],[80,5833],[80,5917],[80,6001],[80,6084],[80,6168],[80,6251],[80,6334],[81.4,6417],[89.5,6501],[91.9,6584],[91.6,6667],[91.3,6751],[91.2,6834],[91.2,6917],[91.2,7001],[91.2,7083],[91.2,7168],[91.2,7251],[91.2,7334],[91.2,7418],[91.2,7501],[91.2,7584],[91.2,7667],[91.2,7751],[91.2,7834],[91.2,7917],[91.2,8001],[91.2,8084],[91.2,8168],[91.2,8251],[91.2,8335],[91.2,8418],[91.2,8501],[91.2,8584],[91.2,8668],[91.2,8751],[91.2,8834],[91.2,8918],[91.2,9001],[91.2,9084],[91.2,9167],[91.2,9251],[91.2,9334],[91.2,9418],[91.2,9501],[91.2,9585],[91.2,9668],[88.5,9752],[84.1,9835],[83.1,9917],[83,10001],[83,10084],[82.7,10168],[80.9,10251],[79.5,10335],[79.3,10418],[79.3,10501],[79.3,10584],[79.3,10668],[79.3,10751],[79.3,10834],[79.3,10918],[80.7,11002],[83.8,11085],[84.5,11168],[84.5,11251],[84.1,11335],[83.7,11418],[83.5,11501],[83.4,11585],[83.3,11668],[83.3,11751],[83.2,11835],[82.9,11919],[82.3,12001],[81.1,12084],[80.9,12168],[80.8,12251],[80.8,12335],[80.8,12418],[80.8,12501],[80.8,12585],[80.8,12668],[80.8,12751],[80.8,12835],[81.8,12918],[94.3,13001],[99.5,13085],[100,13169],[100,13252],[100,13335],[100,13419],[100,13502],[100,13585],[100,13669],[100,13751],[100,13835],[100,13925],[100,14001],[100,14085],[100,14168],[100,14252],[100,14336],[100,14419],[100,14502],[100,14586],[100,14668],[100,14752],[100,14836],[100,14919],[100,15001],[100,15086],[100,15169],[100,15252],[100,15336],[100,15419],[100,15502],[100,15586],[100,15669],[100,15752],[100,15836],[100,15918],[100,16003],[100,16086],[100,16168],[100,16252],[100,16336],[100,16418],[100,16503],[100,16586],[100,16669],[100,16752],[100,16836],[100,16918],[100,17002],[100,17085],[100,17169],[100,17252],[100,17335],[100,17419],[100,17502],[100,17586],[100,17669],[100,17753],[100,17836],[100,17918],[100,18002],[100,18085],[100,18169],[100,18252],[100,18336],[100,18419],[100,18503],[100,18586],[100,18670],[100,18752],[100,18836],[100,18920],[100,19003],[100,19085],[100,19169],[100,19253],[100,19335],[100,19420],[100,19503],[100,19586],[100,19670],[100,19753],[100,19837],[100,19920],[100,20003],[100,20087],[100,20170],[100,20253],[100,20336],[100,20427],[99.9,20503],[99.9,20586],[99.9,20670],[99.9,20753],[99.9,20837],[99.8,20919],[99.8,21003],[99.8,21087],[99.8,21170],[99.8,21253],[99.8,21337],[99.8,21419],[99.8,21503],[99.8,21587],[99.8,21670],[99.8,21753],[99.8,21836],[99.8,21920],[99.8,22003],[99.8,22086],[99.8,22170],[99.8,22253],[99.8,22337],[99.8,22420],[99.8,22504],[99.8,22587],[99.8,22670],[99.8,22754],[99.8,22837],[99.8,22920],[99.8,23004],[99.8,23087],[99.8,23170],[99.8,23253],[99.8,23337],[99.8,23420],[99.8,23503],[99.8,23587],[99.8,23670],[99.8,23753],[99.8,23836],[99.8,23920],[99.8,24003],[99.8,24086],[99.8,24170],[99.8,24254],[99.8,24337],[99.8,24420],[99.8,24504],[99.8,24594],[99.8,24670],[99.8,24753],[99.8,24837],[99.8,24920],[99.7,25003],[99.7,25087],[99.7,25171],[99.7,25253],[99.7,25336],[99.7,25420],[99.7,25504],[99.7,25587],[99.7,25671],[99.7,25754],[99.7,25836],[99.7,25920],[99.7,26004],[99.7,26087],[99.7,26170],[99.7,26253],[99.7,26338],[99.7,26421],[99.7,26504],[99.7,26587],[99.7,26671],[99.7,26754],[99.7,26837],[99.7,26921],[99.7,27004],[99.7,27087],[99.7,27171],[99.7,27254],[99.7,27337],[99.7,27421],[99.7,27503],[99.7,27588],[99.7,27671],[99.7,27754],[99.7,27838],[99.7,27921],[99.7,28004],[99.7,28088],[99.7,28171],[99.5,28254],[99.4,28338],[99.4,28421]]",1,0,846.3118,848.2451,99.17775472,1.2087,"[{""rating"":99.17775472005208,""responseTime"":1.2087000000477701}]",space,1.3872,,848.2451,Partially,50,848.2499,,,[],,0,11,11,11,1,audio/Narrative8Situation2.wav,audio/Narrative7Situation2.wav,audio/Narrative6Situation2.wav,audio/Narrative5Situation2.wav,3,3,3,3,,,,,,,,,,,,,,,,,,,,,,,,,,,,,,,,,,,,,,,
,,,,,,60dbf4d94a3b5564b68881e8,2024-05-13_11h46.23.883,group3.1-3.2-social-tom,2023.2.2,MacIntel,60.24096386,65c5074098b851296ff0b7ed,664235605606d215c5f038c0,,,,,,,,,,,,,,,,,,,,,,,,,,,,,848.2503,2,audio/Narrative6Situation3.wav,853.2622,,853.2623,865.8815,"[[95.7,1267],[84.6,1349],[81.4,1433],[80.6,1517],[80.5,1600],[80.4,1682],[80.3,1767],[80.3,1856],[80.1,1933],[80.1,2016],[80,2099],[80,2183],[84.1,2267],[96.5,2350],[97.6,2433],[96.4,2517],[95.6,2600],[95.1,2683],[94.7,2766],[94.6,2850],[94.5,2933],[94.5,3017],[94.5,3100],[93.9,3183],[93.2,3266],[92.9,3351],[92.8,3434],[92.8,3517],[92.8,3600],[92.8,3683],[92.8,3766],[92.8,3850],[92.8,3934],[92.8,4016],[92.8,4100],[92.8,4184],[92.8,4266],[92.8,4350],[92.8,4434],[92.8,4516],[92.8,4600],[92.7,4683],[92.6,4767],[92.6,4850],[92.6,4933],[92.5,5017],[92.5,5101],[92.4,5184],[92.4,5266],[92.4,5350],[92.4,5433],[92.4,5516],[92.4,5600],[92.4,5684],[92.4,5767],[92.4,5850],[92.4,5934],[92.4,6017],[92.4,6100],[92.4,6184],[92.4,6268],[92.4,6351],[92.4,6434],[92.4,6518],[92.4,6601],[93,6683],[95.3,6767],[98.2,6851],[99.9,6934],[100,7017],[100,7101],[100,7184],[100,7268],[100,7351],[100,7433],[100,7517],[100,7600],[100,7684],[100,7768],[100,7851],[100,7934],[100,8018],[100,8101],[100,8184],[100,8267],[100,8351],[100,8434],[100,8517],[100,8601],[100,8683],[100,8767],[100,8850],[100,8934],[100,9018],[100,9101],[100,9184],[100,9268],[100,9351],[100,9434],[100,9518],[100,9601],[100,9684],[100,9768],[100,9851],[100,9935],[100,10018],[100,10101],[100,10185],[100,10268],[100,10351],[100,10435],[100,10518],[100,10601],[100,10684],[100,10768],[100,10851],[100,10935],[100,11017],[100,11101],[100,11185],[100,11267],[100,11352],[100,11435],[100,11518],[100,11602],[100,11685],[100,11768],[100,11852],[100,11934],[100,12017],[100,12101],[100,12185],[100,12267],[100,12352],[100,12435],[100,12518],[100,12602]]",1,0,865.8817,867.1483,99.52060276,0.8917,"[{""rating"":99.52060275607639,""responseTime"":0.8917000000476492}]",space,0.7167,,867.1483,Partially,50,867.1507,,,[],,0,12,12,12,1,audio/Narrative8Situation3.wav,audio/Narrative7Situation3.wav,audio/Narrative6Situation3.wav,audio/Narrative5Situation3.wav,4,8,5,3,,,,,,,,,,,,,,,,,,,,,,,,,,,,,,,,,,,,,,,
,,,,,,60dbf4d94a3b5564b68881e8,2024-05-13_11h46.23.883,group3.1-3.2-social-tom,2023.2.2,MacIntel,60.24096386,65c5074098b851296ff0b7ed,664235605606d215c5f038c0,,,,,,,,,,,,,,,,,,,,,,,,,,,,,867.151,2,audio/Narrative6Situation4.wav,869.1642,,869.1643,881.7669,"[[100,2334],[100,2417],[100,2500],[98.9,2584],[96.5,2668],[90.5,2751],[88.6,2834],[88.6,2917],[88.6,3001],[88.6,3084],[88.6,3168],[88.6,3250],[87.8,3334],[83.4,3418],[82.2,3501],[82.2,3584],[82.2,3668],[82.2,3750],[82.2,3834],[82.2,3918],[82.2,4000],[82.2,4084],[82.2,4167],[82.2,4251],[82.2,4334],[82.2,4417],[82.2,4501],[82.2,4584],[82.2,4668],[82.2,4750],[82.2,4835],[82.2,4918],[82.2,5001],[82.2,5084],[82.2,5168],[82.2,5251],[82.2,5334],[82.2,5418],[82.2,5501],[82.2,5584],[82.2,5667],[82.2,5750],[82.2,5835],[72.6,5917],[57.8,6001],[57.3,6085],[57.3,6168],[57.3,6250],[37,6335],[30.3,6418],[30.2,6501],[30.2,6585],[30.2,6668],[26.4,6751],[21.8,6834],[21.5,6917],[21.5,7001],[21.5,7084],[21.5,7168],[21.4,7251],[21.3,7335],[21.3,7418],[21.2,7501],[21.1,7585],[21.1,7667],[21.1,7752],[21.1,7834],[21.1,7918],[21.1,8002],[21.1,8085],[21.1,8168],[21.1,8251],[21.1,8335],[21.1,8418],[21.1,8502],[21.1,8585],[21.1,8668],[21.1,8751],[21.1,8834],[21.1,8918],[21.1,9002],[21.1,9084],[21.1,9169],[21.1,9252],[21.1,9335],[21.1,9418],[21.1,9502],[21.1,9585],[21.1,9668],[21.1,9752],[21.1,9835],[21.1,9918],[21.1,10001],[21.1,10085],[23,10169],[33.5,10251],[44.5,10335],[45.8,10419],[45.8,10502],[45.8,10586],[45.8,10669],[48.2,10752],[50,10835],[50,10918],[50,11002],[49.8,11085],[49.7,11168],[49.6,11252],[49.6,11335],[49.6,11418],[49.5,11502],[49.3,11586],[49.1,11668],[49,11753],[48.9,11836],[48.9,11919],[48.9,12002],[48.9,12085],[48.9,12169],[48.9,12252],[48.9,12335],[48.9,12419],[48.9,12502],[48.9,12586]]",1,0,881.7671,884.8502,13.24992286,2.7774,"[{""rating"":13.249922858344181,""responseTime"":2.7773999999761827}]",space,2.5563,,884.8502,Partially,50,884.8521,,,[],,0,13,13,13,1,audio/Narrative8Situation4.wav,audio/Narrative7Situation4.wav,audio/Narrative6Situation4.wav,audio/Narrative5Situation4.wav,3,3,2,1,,,,,,,,,,,,,,,,,,,,,,,,,,,,,,,,,,,,,,,
,,,,,,60dbf4d94a3b5564b68881e8,2024-05-13_11h46.23.883,group3.1-3.2-social-tom,2023.2.2,MacIntel,60.24096386,65c5074098b851296ff0b7ed,664235605606d215c5f038c0,,,,,,,,,,,,,,,,,,,,,,,,,,,,,884.8524,2,audio/Narrative6Situation5.wav,886.8681,,886.8682,894.8361,"[[16.8,1083],[53.2,2166],[42,2250],[40.5,2332],[40.5,2416],[40.5,2500],[43.2,2583],[51.8,2666],[52.4,2750],[52.5,2832],[52.5,2917],[52.5,2999],[57.4,3083],[67.9,3167],[70.1,3249],[70.1,3333],[70.1,3416],[79.7,3500],[87.8,3583],[88.2,3667],[96,3749],[100,3833],[100,3917],[100,4000],[100,4083],[100,4167],[100,4251],[100,4333],[100,4416],[100,4500],[100,4583],[100,4666],[100,4749],[100,4832],[100,4917],[100,4999],[100,5084],[100,5167],[100,5250],[100,5333],[100,5417],[100,5500],[100,5583],[100,5666],[100,5750],[100,5833],[100,5917],[100,6000],[100,6084],[100,6167],[100,6250],[100,6334],[100,6417],[100,6500],[100,6583],[100,6667],[100,6750],[100,6833],[100,6917],[100,7000],[100,7083],[100,7167],[100,7251],[100,7333],[100,7417],[100,7501],[100,7584],[100,7666],[100,7751],[100,7834],[100,7917]]",1,0,894.8363,896.5356,84.15390862,1.245,"[{""rating"":84.1539086235894,""responseTime"":1.2450000000000045}]",space,1.1678,,896.5356,Not at all,0,896.5398,,,[],,0,14,14,14,1,audio/Narrative8Situation5.wav,audio/Narrative7Situation5.wav,audio/Narrative6Situation5.wav,audio/Narrative5Situation5.wav,2,5,2,5,,,,,,,,,,,,,,,,,,,,,,,,,,,,,,,,,,,,,,,
,,,,,,60dbf4d94a3b5564b68881e8,2024-05-13_11h46.23.883,group3.1-3.2-social-tom,2023.2.2,MacIntel,60.24096386,65c5074098b851296ff0b7ed,664235605606d215c5f038c0,,,,,,,,,,,,,,,,,,,,,,,,,,,,,896.5402,2,audio/Narrative6Situation6.wav,898.5528,,898.5529,909.6222,"[[82.2,1084],[78.3,1167],[76.6,1250],[75.9,1334],[75.6,1416],[75.2,1499],[74.9,1583],[74.8,1667],[74.8,1750],[74.8,1833],[74.8,1917],[74.8,2000],[75,2084],[75,2166],[75,2250],[75,2333],[75,2416],[75,2500],[75,2584],[75,2667],[75,2750],[75,2834],[75,2916],[76.2,3000],[80.1,3084],[81,3173],[81,3250],[81,3333],[81,3416],[80.9,3500],[80.8,3583],[80.7,3667],[80.7,3750],[80.7,3833],[80.7,3917],[80.7,4000],[80.7,4084],[80.7,4167],[80.6,4250],[80.6,4334],[80.6,4417],[80.6,4500],[80.6,4584],[80.6,4667],[80.6,4750],[80.6,4833],[80.6,4917],[80.6,5000],[80.6,5083],[80.6,5167],[80.6,5250],[80.6,5334],[80.6,5418],[80.6,5500],[80.6,5584],[80.6,5667],[80.6,5750],[80.6,5833],[80.6,5917],[80.6,6001],[80.6,6084],[80.6,6168],[80.6,6251],[80.6,6334],[80.6,6417],[80.6,6501],[80.6,6584],[80.6,6668],[80.6,6750],[80.6,6834],[80.6,6918],[80.6,7001],[80.6,7084],[80.6,7168],[80.6,7251],[80.6,7334],[80.6,7418],[80.6,7501],[80.5,7584],[80.5,7667],[80.4,7751],[80.4,7835],[80.1,7917],[79.2,8001],[78.4,8085],[78.1,8167],[78,8251],[78,8335],[78,8418],[78,8501],[78,8584],[70.8,8667],[65.4,8751],[64.2,8835],[64.1,8918],[64.1,9001],[64.1,9084],[64.1,9168],[64.1,9250],[64.1,9335],[60.2,9417],[56.9,9501],[54.7,9584],[52.3,9667],[50.2,9751],[49.8,9834],[49.8,9918],[49.8,10001],[49.8,10085],[49.8,10168],[49.8,10251],[49.8,10335],[49.8,10418],[49.4,10502],[48.9,10584],[48.8,10668],[48.8,10751],[48.7,10835],[48.6,10918],[48.3,11002]]",1,0,909.6223,911.1721,37.20167372,0.9915,"[{""rating"":37.20167371961806,""responseTime"":0.9914999999999736}]",space,1.0069,,911.1722,Partially,50,911.1762,,,[],,0,15,15,15,1,audio/Narrative8Situation6.wav,audio/Narrative7Situation6.wav,audio/Narrative6Situation6.wav,audio/Narrative5Situation6.wav,2,3,2,3,,,,,,,,,,,,,,,,,,,,,,,,,,,,,,,,,,,,,,,
