exp_question,consent.started,consent.stopped,consentResponse.keys,consentResponse.rt,consentResponse.duration,participantID,date,expName,psychopyVersion,OS,frameRate,STUDY_ID,SESSION_ID,opening1.started,opening1.stopped,keyEndingOpening1.keys,keyEndingOpening1.rt,keyEndingOpening1.duration,volumeAdjust.started,volumeAdjust.stopped,endingAdjust.keys,endingAdjust.rt,endingAdjust.duration,opening2.started,opening2.stopped,keyEndingOpening.keys,keyEndingOpening.rt,keyEndingOpening.duration,mouse.x,mouse.y,mouse.leftButton,mouse.midButton,mouse.rightButton,mouse.time,instructionLoop.thisRepN,instructionLoop.thisTrialN,instructionLoop.thisN,instructionLoop.thisIndex,instructionLoop.ran,readyForAudio.started,readyForAudio.stopped,fixation.started,run,audio_played,fixation.stopped,endPractice.keys,audioPre.started,audioPre.stopped,continuousResponses_audio,continuousSlider.response,continuousSlider.rt,intRating.started,intRating.stopped,intQuestionSlider.response,intQuestionSlider.rt,intQuestionSlider.history,confirmResponse.keys,confirmResponse.rt,confirmResponse.duration,catchQuestion.started,catch_label,catch_value,catchQuestion.stopped,catchQuestionSlider.response,catchQuestionSlider.rt,catchQuestionSlider.history,confirmResponse_2.keys,audioRunLoop.thisRepN,audioRunLoop.thisTrialN,audioRunLoop.thisN,audioRunLoop.thisIndex,audioRunLoop.ran,conditions1_1,conditions2_1,conditions1_2,conditions2_2,dur1_1,dur2_1,dur1_2,dur2_2,endPractice.rt,endPractice.duration,confirmResponse_2.rt,confirmResponse_2.duration,runIntervalBreak.started,runIntervalBreak.stopped,endingBreakKey.keys,endingBreakKey.rt,endingBreakKey.duration,connection.started,connection.stopped,connectionEnding.keys,connectionEnding.rt,connectionEnding.duration,readyForText.started,readyForText.stopped,textPre.started,run_dup,textPre.stopped,continuousResponses_text,textRunLoop.thisRepN,textRunLoop.thisTrialN,textRunLoop.thisN,textRunLoop.thisIndex,textRunLoop.ran,text1_1,text1_2,text2_1,text2_2,runBreakText.started,runBreakText.stopped,endingBreakKey_2.keys,endingBreakKey_2.rt,endingBreakKey_2.duration,ending.started,ending.stopped,endingEnding.keys,endingEnding.rt,endingEnding.duration
tom,0.0002,3.805,y,3.4665,,60fee1a0234ddea6fd998ba0,2024-05-13_11h45.30.553,group3.1-3.2-social-tom,2023.2.2,Win32,59.88023952,65c5074098b851296ff0b7ed,6642357d7594bbf225d39318,,,,,,,,,,,,,,,,,,,,,,,,,,,,,,,,,,,,,,,,,,,,,,,,,,,,,,,,,,,,,,,,,,,,,,,,,,,,,,,,,,,,,,,,,,,,,,,,,,,,,,,,,,
,,,,,,60fee1a0234ddea6fd998ba0,2024-05-13_11h45.30.553,group3.1-3.2-social-tom,2023.2.2,Win32,59.88023952,65c5074098b851296ff0b7ed,6642357d7594bbf225d39318,3.8057,13.3375,space,9.4976,,,,,,,,,,,,,,,,,,,,,,,,,,,,,,,,,,,,,,,,,,,,,,,,,,,,,,,,,,,,,,,,,,,,,,,,,,,,,,,,,,,,,,,,,,,,,,,,,,,,,,
,,,,,,60fee1a0234ddea6fd998ba0,2024-05-13_11h45.30.553,group3.1-3.2-social-tom,2023.2.2,Win32,59.88023952,65c5074098b851296ff0b7ed,6642357d7594bbf225d39318,,,,,,13.3379,24.4349,space,10.7638,,,,,,,,,,,,,,,,,,,,,,,,,,,,,,,,,,,,,,,,,,,,,,,,,,,,,,,,,,,,,,,,,,,,,,,,,,,,,,,,,,,,,,,,,,,,,,,,,
,,,,,,60fee1a0234ddea6fd998ba0,2024-05-13_11h45.30.553,group3.1-3.2-social-tom,2023.2.2,Win32,59.88023952,65c5074098b851296ff0b7ed,6642357d7594bbf225d39318,,,,,,,,,,,24.4442,34.3161,space,9.8378,,[],[],[],[],[],[],0,0,0,0,1,,,,,,,,,,,,,,,,,,,,,,,,,,,,,,,,,,,,,,,,,,,,,,,,,,,,,,,,,,,,,,,,,,,,,,,,,,,,,,,,
,,,,,,60fee1a0234ddea6fd998ba0,2024-05-13_11h45.30.553,group3.1-3.2-social-tom,2023.2.2,Win32,59.88023952,65c5074098b851296ff0b7ed,6642357d7594bbf225d39318,,,,,,,,,,,34.3164,51.9136,space,17.5241,,[],[],[],[],[],[],1,0,1,0,1,,,,,,,,,,,,,,,,,,,,,,,,,,,,,,,,,,,,,,,,,,,,,,,,,,,,,,,,,,,,,,,,,,,,,,,,,,,,,,,,
,,,,,,60fee1a0234ddea6fd998ba0,2024-05-13_11h45.30.553,group3.1-3.2-social-tom,2023.2.2,Win32,59.88023952,65c5074098b851296ff0b7ed,6642357d7594bbf225d39318,,,,,,,,,,,51.9349,67.894,space,15.9125,,[],[],[],[],[],[],2,0,2,0,1,,,,,,,,,,,,,,,,,,,,,,,,,,,,,,,,,,,,,,,,,,,,,,,,,,,,,,,,,,,,,,,,,,,,,,,,,,,,,,,,
,,,,,,60fee1a0234ddea6fd998ba0,2024-05-13_11h45.30.553,group3.1-3.2-social-tom,2023.2.2,Win32,59.88023952,65c5074098b851296ff0b7ed,6642357d7594bbf225d39318,,,,,,,,,,,67.9178,88.9573,space,21.0061,,[],[],[],[],[],[],3,0,3,0,1,,,,,,,,,,,,,,,,,,,,,,,,,,,,,,,,,,,,,,,,,,,,,,,,,,,,,,,,,,,,,,,,,,,,,,,,,,,,,,,,
,,,,,,60fee1a0234ddea6fd998ba0,2024-05-13_11h45.30.553,group3.1-3.2-social-tom,2023.2.2,Win32,59.88023952,65c5074098b851296ff0b7ed,6642357d7594bbf225d39318,,,,,,,,,,,88.9878,655.8704,space,566.8618,,[0.75],[0.4429586527188167],[0],[0],[1],[558.8285999999047],4,0,4,0,1,,,,,,,,,,,,,,,,,,,,,,,,,,,,,,,,,,,,,,,,,,,,,,,,,,,,,,,,,,,,,,,,,,,,,,,,,,,,,,,,
,,,,,,60fee1a0234ddea6fd998ba0,2024-05-13_11h45.30.553,group3.1-3.2-social-tom,2023.2.2,Win32,59.88023952,65c5074098b851296ff0b7ed,6642357d7594bbf225d39318,,,,,,,,,,,,,,,,,,,,,,,,,,,655.8751,658.4566,658.492,1,audio/Narrative13Situation2.wav,660.5063,,660.5069,690.2692,"[[999,4],[999,131],[999,214],[999,298],[999,381],[999,465],[999,548],[999,631],[999,714],[999,798],[999,881],[999,965],[999,1048],[999,1131],[999,1215],[999,1298],[999,1382],[999,1465],[999,1548],[999,1631],[999,1715],[999,1798],[999,1881],[999,1965],[999,2048],[999,2131],[999,2215],[999,2298],[999,2381],[999,2465],[999,2548],[999,2631],[999,2714],[999,2798],[999,2881],[999,2965],[999,3048],[999,3131],[999,3214],[999,3298],[999,3381],[999,3464],[999,3562],[65,3631],[64.9,3714],[64.5,3798],[64.3,3880],[63.9,3964],[59.1,4048],[50.7,4131],[50.7,4214],[50.7,4298],[50.7,4380],[50.7,4464],[50.7,4548],[50.7,4630],[50.7,4714],[49.1,4798],[43.4,4880],[28.6,4964],[23.6,5047],[23.6,5131],[23.6,5214],[23.6,5297],[22.9,5381],[19.5,5464],[19.5,5548],[19.5,5630],[19.5,5713],[19.5,5797],[19.5,5880],[19.5,5964],[19.5,6047],[19.5,6130],[19.5,6214],[19.5,6297],[19.5,6380],[19.5,6464],[19.5,6547],[19.5,6631],[19.5,6713],[19.5,6797],[19.5,6880],[19.5,6964],[19.5,7047],[19.5,7130],[19.5,7214],[19.5,7297],[19.5,7381],[19.5,7464],[19.5,7547],[19.5,7630],[19.5,7713],[19.5,7797],[19.5,7880],[19.5,7964],[19.5,8047],[19.5,8130],[19.5,8214],[19.5,8297],[19.5,8380],[19.5,8464],[19.5,8547],[19.5,8634],[19.5,8713],[19.5,8797],[19.5,8880],[19.5,8963],[19.5,9047],[19.5,9130],[19.5,9213],[19.5,9297],[19.5,9380],[19.5,9463],[19.5,9547],[19.5,9630],[19.5,9713],[19.5,9796],[19,9880],[15.3,9963],[13.3,10046],[11.8,10130],[11,10213],[11,10297],[11,10380],[11,10463],[11,10546],[11,10630],[11,10713],[11,10796],[11,10879],[11,10963],[11,11046],[11,11130],[11,11213],[11,11296],[11,11379],[11,11462],[11,11546],[11,11630],[11,11713],[11,11796],[11,11879],[11,11962],[11,12046],[11,12129],[11,12213],[11,12296],[11,12380],[11,12463],[11,12546],[11,12629],[11,12712],[11,12796],[11,12879],[11,12962],[11,13046],[11,13129],[11,13212],[11,13295],[11,13379],[11,13462],[11,13546],[11,13629],[11,13712],[11,13796],[11,13879],[11,13962],[11,14046],[11,14129],[11,14212],[11,14296],[11,14379],[11,14462],[11,14545],[11,14629],[11,14712],[11,14796],[11,14879],[11,14962],[11,15045],[11,15129],[11,15212],[11,15295],[11,15379],[11,15462],[11,15545],[11,15629],[11,15712],[11,15795],[11,15879],[11,15962],[11,16045],[11,16129],[11,16212],[11,16295],[11,16379],[11,16462],[11,16545],[11,16629],[11,16712],[11,16795],[11,16879],[11,16962],[11,17045],[11,17129],[11,17212],[11,17295],[11,17378],[11,17462],[11,17545],[11,17629],[11,17711],[11,17795],[11,17878],[11,17962],[11,18045],[11,18128],[11,18211],[11,18295],[11,18379],[11,18461],[11,18545],[11,18629],[11,18711],[11,18795],[11,18878],[11,18961],[11,19045],[11,19128],[11,19211],[11,19295],[11,19378],[11,19461],[11,19545],[11,19628],[11,19711],[11,19795],[11,19878],[11,19961],[11,20045],[11,20128],[11,20211],[11,20295],[11,20378],[11,20461],[11,20545],[11,20628],[11,20711],[11,20795],[11,20878],[11,20961],[11,21045],[11,21128],[11,21211],[11,21295],[11,21378],[11,21461],[11,21545],[11,21628],[11,21711],[11,21794],[11,21878],[11,21961],[11,22044],[11,22127],[11,22211],[11,22294],[11,22378],[11,22461],[11,22544],[11,22628],[11,22711],[11,22794],[11,22878],[11,22961],[11,23044],[11,23128],[11,23211],[11,23294],[11,23378],[11,23461],[11,23544],[11,23628],[11,23711],[11,23794],[11,23877],[11,23961],[11,24044],[11,24127],[11,24210],[11,24294],[11,24377],[11,24461],[11,24544],[11,24627],[11,24710],[11,24794],[11,24877],[11,24961],[11,25044],[11,25127],[11,25210],[11,25294],[11,25377],[11,25460],[11,25544],[11,25627],[11,25710],[11,25794],[13,25877],[23.6,25960],[27.6,26044],[34.8,26127],[37,26210],[37,26294],[37,26377],[37,26460],[38.5,26543],[39,26628],[41,26710],[44.9,26794],[48.6,26877],[59.2,26960],[61.4,27044],[61.4,27127],[61.4,27210],[61.4,27293],[65.9,27376],[69.8,27460],[71.8,27543],[73.4,27627],[77.7,27710],[79.2,27793],[79.2,27877],[79.4,27960],[79.4,28043],[79.4,28127],[79.4,28210],[79.4,28293],[79.4,28376],[79.4,28460],[79.4,28543],[79.4,28627],[79.4,28710],[79.4,28793],[79.4,28876],[79.4,28959],[79.4,29043],[79.4,29126],[79.4,29210],[79.4,29293],[79.4,29376],[79.4,29460],[79.4,29543],[79.4,29626],[79.4,29710]]",1,0,690.27,698.3666,78.54166826,5.4074,"[{""rating"":78.54166825612386,""responseTime"":5.407399999856921}]",space,7.5511,,698.3673,Half the time,50,698.3761,,,[],,0,0,0,0,1,audio/Narrative13Situation2.wav,audio/Narrative13Situation2.wav,audio/Narrative13Situation2.wav,audio/Narrative13Situation2.wav,2,2,2,2,,,,,,,,,,,,,,,,,,,,,,,,,,,,,,,,,,,,,,,
,,,,,,60fee1a0234ddea6fd998ba0,2024-05-13_11h45.30.553,group3.1-3.2-social-tom,2023.2.2,Win32,59.88023952,65c5074098b851296ff0b7ed,6642357d7594bbf225d39318,,,,,,,,,,,,,,,,,,,,,,,,,,,,,698.3766,1,audio/Narrative7Situation1.wav,701.2494,space,701.2496,757.139,"[[999,20],[999,98],[999,182],[999,265],[999,348],[999,432],[999,515],[999,598],[999,682],[999,765],[999,848],[999,931],[999,1015],[999,1098],[999,1181],[999,1265],[999,1348],[999,1431],[999,1515],[999,1598],[999,1682],[999,1764],[999,1848],[999,1931],[999,2015],[999,2098],[999,2182],[999,2265],[999,2348],[999,2431],[999,2515],[999,2598],[999,2681],[999,2765],[999,2848],[999,2931],[999,3015],[999,3097],[999,3181],[999,3264],[999,3348],[999,3431],[999,3514],[999,3598],[999,3681],[999,3764],[999,3849],[999,3931],[999,4014],[999,4098],[999,4181],[999,4264],[999,4348],[999,4431],[999,4514],[999,4597],[999,4681],[999,4764],[999,4848],[999,4931],[999,5014],[54.8,5097],[52.2,5181],[50.7,5264],[44.5,5347],[37.9,5430],[37.8,5514],[37.8,5598],[37.8,5680],[37.2,5764],[29.3,5847],[26.7,5931],[24.5,6014],[21.7,6097],[20.6,6180],[20.5,6263],[20.4,6347],[19.1,6431],[18.3,6514],[18.1,6597],[18,6680],[18,6764],[18,6847],[18,6931],[18,7014],[18,7097],[18,7181],[18,7264],[18,7347],[18,7430],[18,7514],[18,7597],[18,7680],[18,7764],[18,7847],[18,7930],[18,8014],[18,8097],[18,8180],[18,8263],[18,8347],[18,8430],[18,8514],[18,8597],[18,8680],[18,8763],[18,8846],[18,8930],[18,9013],[18,9097],[18,9180],[18,9263],[18,9347],[18,9430],[18,9513],[18,9596],[18,9680],[18,9763],[18,9846],[18,9930],[18,10013],[18,10096],[18,10180],[18,10263],[18,10346],[18,10430],[18,10513],[18,10597],[18,10680],[18,10763],[18,10847],[18,10930],[18,11013],[18,11096],[18,11180],[18,11263],[18,11347],[18,11430],[18,11513],[18,11596],[18,11679],[18,11763],[18,11846],[18,11929],[18,12013],[20.5,12096],[24.3,12179],[28.7,12263],[40.9,12346],[44.3,12429],[44.3,12513],[44.3,12596],[44.3,12679],[46.3,12763],[53.3,12847],[57.3,12930],[61.7,13013],[61.7,13096],[61.7,13179],[61.7,13263],[65.9,13346],[71.6,13429],[72.2,13513],[72.2,13596],[72.2,13679],[73.5,13762],[74.7,13847],[74.9,13929],[74.9,14013],[74.9,14096],[74.9,14179],[74.9,14263],[74.9,14346],[74.9,14429],[74.9,14512],[74.9,14596],[74.9,14679],[74.9,14763],[74.9,14846],[74.9,14929],[80.9,15012],[82.3,15096],[83.5,15179],[83.5,15262],[83.5,15345],[83.5,15428],[84.1,15513],[84.7,15595],[84.9,15678],[85.3,15762],[87,15845],[87.2,15929],[87.2,16012],[87.2,16096],[87.2,16179],[87.2,16262],[87.2,16346],[87.2,16429],[87.2,16512],[87.2,16596],[87.2,16679],[87.2,16762],[87.2,16846],[87.2,16929],[87.2,17012],[87.2,17095],[87.2,17179],[87.2,17262],[87.2,17345],[87.2,17428],[87.2,17512],[87.2,17595],[87.2,17678],[87.2,17762],[87.2,17845],[87.2,17928],[87.2,18012],[87.2,18096],[87.2,18178],[87.2,18262],[87.2,18345],[87.2,18428],[87.2,18511],[87.2,18595],[87.2,18678],[87.2,18762],[87.2,18845],[87.2,18928],[87.2,19012],[87.2,19095],[87.2,19178],[84.1,19262],[77.5,19345],[65.5,19428],[58.8,19512],[58.8,19595],[58.8,19678],[58.8,19762],[58.8,19845],[58.8,19928],[58.8,20011],[58.8,20095],[58.8,20178],[58.8,20262],[56.8,20345],[54.1,20428],[50.7,20511],[18.3,21178],[17.9,21261],[17.9,21345],[17.9,21427],[13.3,21512],[10,21594],[7.4,21678],[7.4,21761],[7.4,21844],[7.4,21928],[7.4,22011],[7.4,22095],[7.4,22177],[7.4,22261],[7.4,22344],[7.4,22427],[7.4,22511],[7.4,22594],[7.4,22678],[7.4,22761],[7.4,22845],[7.4,22928],[7.4,23011],[7.4,23094],[7.4,23177],[7.4,23261],[7.4,23344],[7.4,23427],[7.4,23511],[7.4,23594],[7.4,23678],[7.4,23761],[7.4,23844],[7.4,23927],[7.4,24011],[7.4,24094],[7.4,24177],[7.4,24261],[7.4,24344],[7.4,24427],[7.4,24511],[7.4,24594],[7.4,24677],[7.4,24761],[7.4,24844],[7.4,24927],[7.4,25011],[7.4,25094],[7.4,25177],[7.4,25261],[7.4,25344],[7.4,25427],[7.4,25511],[7.4,25594],[7.4,25677],[7.4,25760],[7.4,25844],[7.4,25927],[7.4,26011],[7.4,26094],[7.4,26177],[7.4,26260],[7.4,26344],[7.4,26427],[7.4,26510],[7.4,26594],[7.4,26677],[7.4,26760],[7.4,26843],[7.4,26927],[7.4,27010],[7.4,27094],[7.4,27176],[7.4,27260],[7.4,27343],[7.4,27427],[7.4,27510],[7.4,27594],[7.4,27677],[7.4,27760],[7.4,27843],[7.4,27927],[7.4,28010],[7.4,28094],[7.4,28177],[7.4,28260],[7.4,28343],[7.4,28426],[7.4,28510],[7.4,28593],[7.4,28677],[7.4,28760],[7.4,28843],[7.4,28926],[7.4,29010],[7.4,29093],[7.4,29177],[7.4,29260],[7.4,29343],[7.4,29426],[7.4,29510],[7.4,29593],[7.4,29676],[7.4,29760],[7.4,29843],[7.4,29926],[7.4,30010],[7.4,30093],[7.4,30176],[7.4,30260],[7.4,30343],[7.4,30426],[7.4,30509],[7.4,30593],[7.4,30676],[7.4,30759],[7.4,30843],[7.4,30926],[7.4,31009],[7.4,31094],[7.4,31176],[7.4,31259],[7.4,31343],[7.4,31426],[7.4,31509],[7.4,31593],[7.4,31676],[7.4,31760],[7.4,31843],[7.4,31926],[7.4,32011],[7.4,32093],[7.4,32176],[7.4,32259],[7.4,32343],[7.4,32426],[8.5,32512],[10.1,32592],[10.8,32676],[12,32759],[13.8,32843],[21.6,32926],[29.4,33009],[29.4,33092],[29.4,33176],[29.4,33259],[33.3,33342],[37.8,33426],[38,33509],[38,33593],[38,33676],[46.7,33759],[47.8,33842],[47.8,33926],[47.8,34009],[47.8,34092],[47.8,34176],[47.8,34259],[54.7,34343],[73.4,35175],[70.9,35259],[68.5,35342],[68.2,35425],[70.1,35509],[83.3,35593],[83.9,35675],[83.9,35759],[83.9,35842],[83.9,35925],[83.9,36009],[83.9,36092],[83.9,36175],[83.9,36259],[83.9,36341],[83.9,36425],[83.9,36509],[83.9,36592],[83.9,36675],[83.9,36758],[83.9,36842],[83.9,36925],[83.9,37008],[83.9,37092],[83.9,37175],[83.9,37258],[83.9,37342],[83.9,37425],[83.9,37508],[83.9,37592],[83.9,37675],[83.9,37758],[83.9,37841],[83.9,37925],[83.9,38008],[83.9,38092],[83.9,38174],[83.9,38258],[83.9,38341],[83.9,38425],[83.9,38508],[83.9,38591],[83.9,38675],[83.9,38758],[83.9,38841],[83.9,38924],[83.9,39008],[83.9,39091],[83.9,39175],[83.9,39258],[83.9,39341],[83.9,39424],[83.9,39508],[83.9,39591],[83.9,39674],[83.9,39758],[83.9,39841],[83.9,39924],[83.9,40008],[83.9,40091],[83.9,40175],[83.9,40258],[83.9,40341],[83.9,40424],[83.9,40508],[83.9,40591],[83.9,40674],[83.9,40758],[83.9,40841],[83.9,40924],[83.9,41007],[83.9,41091],[83.9,41174],[83.9,41257],[83.9,41341],[83.9,41424],[83.9,41508],[83.9,41591],[83.9,41675],[83.9,41757],[83.9,41841],[83.9,41924],[83.9,42008],[83.9,42091],[83.9,42174],[83.9,42258],[83.9,42341],[83.9,42424],[83.9,42507],[83.9,42591],[83.9,42674],[83.9,42758],[83.9,42841],[83.9,42924],[83.9,43007],[83.9,43091],[83.9,43174],[83.9,43257],[83.9,43341],[83.9,43424],[83.9,43507],[83.9,43591],[83.9,43674],[83.9,43757],[83.9,43841],[83.9,43924],[83.9,44008],[83.9,44090],[83.9,44173],[83.9,44257],[86.5,44341],[86.9,44424],[86.9,44507],[86.9,44590],[86.9,44674],[86.9,44757],[85.1,44841],[71,44923],[58.4,45341],[56,45424],[55.9,45507],[56,45590],[56.1,45673],[56,45758],[55.9,45840],[55.9,45923],[55.9,46007],[55.9,46091],[55.9,46173],[55.9,46257],[55.9,46340],[53.2,46423],[51.8,46506],[51.7,46590],[51.7,46673],[51.7,46757],[51.3,46840],[50.9,46923],[50.7,47007],[50.6,47090],[50.6,47173],[50.6,47257],[50.6,47340],[50.6,47423],[50.6,47507],[50.6,47590],[50.6,47673],[50.6,47757],[50.6,47840],[50.6,47923],[50.6,48007],[50.6,48090],[50.6,48173],[50.6,48257],[50.6,48340],[50.6,48423],[50.6,48506],[50.6,48590],[50.6,48673],[50.6,48756],[50.6,48840],[50.6,48923],[50.6,49006],[50.6,49090],[50.6,49173],[50.6,49256],[50.6,49339],[50.6,49423],[50.6,49506],[50.6,49590],[50.6,49673],[50.6,49756],[50.6,49840],[50.6,49923],[50.6,50006],[50.6,50089],[50.6,50173],[50.6,50256],[50.6,50339],[50.6,50423],[50.6,50506],[50.6,50589],[50.6,50673],[50.6,50756],[50.6,50840],[50.6,50922],[50.6,51006],[50.6,51090],[50.6,51173],[50.6,51256],[50.6,51339],[50.6,51423],[50.6,51506],[50.6,51589],[50.6,51673],[50.6,51756],[50.6,51839],[50.6,51923],[50.6,52006],[50.6,52089],[50.6,52173],[54.6,52257],[70.6,52339],[78.5,52422],[79.6,52506],[79.6,52589],[79.6,52672],[89.9,52755],[93.1,52839],[96.1,52923],[98.2,53006],[98.4,53089],[98.9,53172],[99.1,53257],[99.1,53339],[99.1,53422],[99.1,53505],[99.1,53590],[96.1,53672],[95.9,53755],[95.9,53839],[95.9,53922],[94.1,54005],[93.5,54088],[93.3,54172],[93.3,54255],[93.3,54338],[93.3,54422],[93.3,54505],[93.3,54589],[93.3,54671],[93.3,54756],[93.3,54839],[93.3,54922],[93.3,55005],[93.3,55089],[93.3,55172],[93.3,55255],[93.3,55338],[93.3,55422],[93.3,55505],[93.3,55589],[93.3,55672],[93.3,55755],[93.3,55838]]",1,0,757.1399,761.8717,49.89583492,2.4548,"[{""rating"":49.89583492279053,""responseTime"":2.454800000190744}]",space,4.1875,,761.8719,Half the time,50,761.8772,,,[],,0,1,1,1,1,audio/Narrative7Situation1.wav,audio/Narrative8Situation1.wav,audio/Narrative5Situation1.wav,audio/Narrative6Situation1.wav,2,5,5,2,2.8508,,,,,,,,,,,,,,,,,,,,,,,,,,,,,,,,,,,,,,
,,,,,,60fee1a0234ddea6fd998ba0,2024-05-13_11h45.30.553,group3.1-3.2-social-tom,2023.2.2,Win32,59.88023952,65c5074098b851296ff0b7ed,6642357d7594bbf225d39318,,,,,,,,,,,,,,,,,,,,,,,,,,,,,761.8779,1,audio/Narrative7Situation2.wav,764.8873,,764.8873,772.3695,"[[999,1],[999,83],[999,166],[999,249],[999,333],[999,416],[999,500],[999,583],[999,666],[999,749],[999,833],[999,916],[999,1000],[999,1082],[55.5,1166],[55.3,1250],[55,1332],[55,1416],[55,1499],[55,1582],[55,1666],[55,1749],[55,1832],[55,1916],[55,1999],[55,2083],[55,2166],[55,2249],[54,2332],[53.2,2415],[53.2,2499],[53.2,2582],[53.2,2666],[47.2,2749],[42,2832],[42,2916],[42,2999],[42,3082],[42,3165],[36.5,3249],[34.8,3332],[34.7,3415],[34.7,3498],[34.7,3582],[34.7,3665],[34.7,3749],[34.7,3832],[34.7,3915],[34.7,3999],[34.7,4082],[34.7,4165],[34.7,4248],[34.7,4332],[34.7,4415],[34.7,4498],[34.7,4581],[34.7,4665],[34.7,4748],[34.7,4831],[34.7,4915],[34.7,4998],[34.7,5081],[34.7,5165],[34.7,5248],[34.7,5332],[34.7,5415],[34.7,5498],[36.9,5582],[46.4,5666],[57.7,5748],[58.6,5831],[58.6,5915],[58.6,5998],[58.6,6082],[64.5,6165],[64.6,6248],[64.6,6331],[64.6,6415],[64.6,6498],[64.6,6581],[64.6,6665],[64.6,6748],[64.6,6831],[64.6,6914],[64.6,6999],[64.6,7082],[64.6,7165],[64.6,7248],[64.6,7331],[64.6,7415]]",1,0,772.3698,849.6724,49.89583492,2.994,"[{""rating"":49.89583492279053,""responseTime"":2.994000000000028}]",space,76.7552,,849.6725,All the time,100,849.6956,,,[],,0,2,2,2,1,audio/Narrative7Situation2.wav,audio/Narrative8Situation2.wav,audio/Narrative5Situation2.wav,audio/Narrative6Situation2.wav,3,3,3,3,,,,,,,,,,,,,,,,,,,,,,,,,,,,,,,,,,,,,,,
,,,,,,60fee1a0234ddea6fd998ba0,2024-05-13_11h45.30.553,group3.1-3.2-social-tom,2023.2.2,Win32,59.88023952,65c5074098b851296ff0b7ed,6642357d7594bbf225d39318,,,,,,,,,,,,,,,,,,,,,,,,,,,,,849.6958,1,audio/Narrative7Situation3.wav,857.7044,,857.7046,866.9695,"[[999,21],[999,99],[999,183],[999,266],[999,348],[999,432],[999,516],[999,598],[999,682],[999,766],[999,849],[999,932],[999,1016],[999,1098],[999,1182],[999,1266],[999,1349],[999,1432],[999,1515],[999,1599],[999,1682],[999,1765],[999,1849],[999,1932],[999,2015],[999,2098],[999,2182],[50.6,2266],[52.2,2348],[60.4,2432],[63.2,2515],[63.2,2598],[63.2,2682],[63.2,2765],[82.1,2848],[84.8,2932],[84.8,3015],[84.8,3098],[86.6,3182],[89.5,3266],[89.5,3348],[89.5,3432],[89.5,3515],[89.5,3598],[89.5,3682],[89.5,3765],[89.5,3848],[89.5,3932],[89.5,4015],[89.5,4098],[89.5,4182],[89.5,4265],[89.5,4348],[89.5,4432],[89.5,4515],[89.5,4598],[89.5,4682],[89.5,4765],[89.5,4848],[89.5,4931],[89.5,5015],[89.5,5098],[89.5,5181],[89.5,5265],[89.5,5348],[89.5,5431],[89.5,5515],[89.5,5598],[89.5,5681],[80.6,5765],[75.4,5849],[74.7,5931],[74.7,6015],[74.7,6098],[74.7,6182],[72.7,6265],[67.5,6348],[66.2,6432],[66.2,6515],[66.2,6598],[66.2,6681],[52.7,6764],[39.5,6848],[39.5,6931],[39.5,7014],[39.5,7098],[35.6,7182],[26.8,7265],[25.8,7348],[25.8,7431],[25.8,7514],[19.4,7598],[13.2,7681],[10.6,7764],[7.9,7848],[5.8,7931],[5.6,8014],[5.6,8098],[5.6,8181],[5.6,8264],[5.6,8348],[5.6,8431],[5.6,8515],[5.6,8598],[5.6,8681],[5.6,8764],[5.6,8847],[5.6,8931],[5.6,9015],[5.6,9097],[5.6,9180],[5.6,9264]]",1,0,866.9697,894.9816,31.04166985,1.6124,"[{""rating"":31.041669845581055,""responseTime"":1.6123999998569616}]",space,27.4648,,894.9818,All the time,100,895.0046,,,[],,0,3,3,3,1,audio/Narrative7Situation3.wav,audio/Narrative8Situation3.wav,audio/Narrative5Situation3.wav,audio/Narrative6Situation3.wav,8,4,3,5,,,,,,,,,,,,,,,,,,,,,,,,,,,,,,,,,,,,,,,
,,,,,,60fee1a0234ddea6fd998ba0,2024-05-13_11h45.30.553,group3.1-3.2-social-tom,2023.2.2,Win32,59.88023952,65c5074098b851296ff0b7ed,6642357d7594bbf225d39318,,,,,,,,,,,,,,,,,,,,,,,,,,,,,895.005,1,audio/Narrative7Situation4.wav,898.0136,,898.0137,909.7454,"[[999,1],[999,83],[999,166],[999,250],[999,332],[999,416],[999,499],[999,583],[999,666],[999,749],[999,833],[999,916],[999,999],[999,1083],[999,1166],[999,1249],[999,1333],[999,1416],[999,1499],[999,1582],[999,1665],[999,1749],[999,1833],[999,1916],[999,1999],[999,2082],[999,2166],[999,2249],[999,2332],[999,2416],[999,2499],[999,2589],[999,2666],[49.8,2755],[49.6,2832],[49.5,2922],[49.5,2998],[49.5,3082],[49.5,3165],[49.5,3249],[42.5,3333],[22.4,3421],[22,3498],[22,3582],[22,3665],[14.5,3756],[11.2,3838],[8.5,3919],[8.4,3999],[8.4,4088],[8.4,4165],[7.5,4256],[7.4,4338],[5.8,4424],[3.5,4505],[2.8,4582],[0.1,4672],[30.3,7338],[49.4,7421],[51.8,7498],[51.8,7581],[51.8,7664],[57,7748],[71.6,7838],[72,7915],[72,7998],[72,8081],[79.8,8172],[81,8255],[81.1,8332],[81.1,8414],[81.1,8498],[81.1,8581],[81.1,8664],[81.1,8748],[77.3,8837],[62.5,8921],[59.5,9004],[59.5,9081],[59.5,9164],[59.5,9248],[59.5,9331],[59.5,9414],[59.5,9498],[59.5,9587],[59.5,9664],[59.5,9748],[59.5,9831],[59.5,9914],[59.5,9998],[59.5,10081],[59.5,10164],[59.5,10255],[59.5,10331],[59.5,10414],[59.5,10505],[63.3,10581],[72.4,10670],[72.4,10748],[72.4,10831],[72.4,10914],[72.4,11003],[72.4,11081],[72.4,11164],[72.4,11253],[72.4,11331],[72.4,11414],[72.4,11498],[72.4,11581],[72.4,11664]]",1,0,909.746,912.8113,51.04166667,1.2106,"[{""rating"":51.041666666666664,""responseTime"":1.2105999999046162}]",space,2.519,,912.8113,Not at all,0,912.8201,,,[],,0,4,4,4,1,audio/Narrative7Situation4.wav,audio/Narrative8Situation4.wav,audio/Narrative5Situation4.wav,audio/Narrative6Situation4.wav,3,3,1,2,,,,,,,,,,,,,,,,,,,,,,,,,,,,,,,,,,,,,,,
,,,,,,60fee1a0234ddea6fd998ba0,2024-05-13_11h45.30.553,group3.1-3.2-social-tom,2023.2.2,Win32,59.88023952,65c5074098b851296ff0b7ed,6642357d7594bbf225d39318,,,,,,,,,,,,,,,,,,,,,,,,,,,,,912.8205,1,audio/Narrative7Situation5.wav,917.8268,,917.8269,926.309,"[[999,11],[999,83],[999,166],[999,250],[999,332],[999,416],[999,499],[999,582],[999,666],[999,750],[999,833],[999,916],[999,999],[999,1083],[999,1166],[999,1250],[999,1333],[999,1422],[999,1499],[999,1582],[999,1666],[49.8,1749],[7.5,2339],[3.4,2423],[1.1,4999],[25.2,5089],[67.4,5172],[69.4,5248],[69.4,5339],[69.4,5415],[75.1,5505],[83.5,5589],[84.6,5665],[85.2,5757],[85.3,5838],[85.4,5915],[85.4,5998],[85.4,6088],[85.4,6168],[85.4,6248],[85.4,6331],[85.4,6415],[85.4,6498],[85.4,6581],[85.4,6665],[85.4,6748],[85.4,6831],[85.4,6915],[85.4,6998],[85.4,7081],[85.4,7165],[85.4,7248],[90.3,7338],[97.2,7422],[97.4,7498],[97.4,7581],[97.4,7665],[97.4,7748],[97.4,7838],[97.4,7915],[97.4,7998],[97.4,8081],[97.4,8165],[97.4,8248],[97.4,8331],[97.4,8415]]",1,0,926.3094,929.8286,73.12500477,0.8548,"[{""rating"":73.12500476837158,""responseTime"":0.8547999999523199}]",space,2.9596,,929.8288,Half the time,50,929.8333,,,[],,0,5,5,5,1,audio/Narrative7Situation5.wav,audio/Narrative8Situation5.wav,audio/Narrative5Situation5.wav,audio/Narrative6Situation5.wav,5,2,5,2,,,,,,,,,,,,,,,,,,,,,,,,,,,,,,,,,,,,,,,
,,,,,,60fee1a0234ddea6fd998ba0,2024-05-13_11h45.30.553,group3.1-3.2-social-tom,2023.2.2,Win32,59.88023952,65c5074098b851296ff0b7ed,6642357d7594bbf225d39318,,,,,,,,,,,,,,,,,,,,,,,,,,,,,929.8337,1,audio/Narrative7Situation6.wav,932.841,,932.8411,942.8235,"[[999,0],[999,82],[999,173],[999,249],[999,332],[999,415],[999,499],[999,589],[999,667],[999,749],[999,832],[999,916],[999,999],[32.4,1090],[22.2,1172],[21.5,1249],[21.5,1332],[21.5,1416],[21.5,1505],[16.5,1582],[15.7,1665],[15.2,1749],[15.2,1832],[24.9,1922],[42.3,2005],[42.3,2082],[42.3,2166],[42.3,2249],[61.9,2339],[65.2,2423],[70,2506],[72.6,2589],[72.8,2673],[72.8,2749],[72.9,2832],[72.9,2915],[72.9,2999],[72.9,3082],[72.9,3165],[73.4,3255],[74,3332],[74.5,3422],[74.8,3505],[75.3,3582],[75.3,3665],[75.3,3748],[75.3,3832],[76.5,3922],[90.3,4005],[98.1,5081],[98,5172],[98,5254],[100,5338],[100,5421],[100,5498],[100,5582],[100,5671],[100,5748],[100,5832],[100,5915],[100,5998],[100,6081],[100,6172],[100,6248],[100,6331],[100,6414],[100,6506],[100,6581],[100,6671],[100,6756],[100,6831],[100,6915],[100,6998],[100,7081],[100,7165],[100,7248],[100,7331],[100,7415],[100,7498],[100,7581],[100,7665],[100,7748],[100,7831],[100,7915],[100,7998],[100,8081],[100,8165],[100,8253],[100,8331],[100,8421],[100,8498],[100,8581],[100,8664],[100,8747],[100,8831],[100,8915],[100,8998],[100,9081],[100,9164],[100,9254],[100,9331],[100,9414],[100,9497],[100,9581],[100,9665],[100,9747],[100,9837],[100,9914]]",1,0,942.8242,946.1555,99.68749682,2.3359,"[{""rating"":99.68749682108562,""responseTime"":2.33589999985702}]",space,2.7856,,946.1557,Half the time,50,946.1608,,,[],,0,6,6,6,1,audio/Narrative7Situation6.wav,audio/Narrative8Situation6.wav,audio/Narrative5Situation6.wav,audio/Narrative6Situation6.wav,3,2,3,2,,,,,,,,,,,,,,,,,,,,,,,,,,,,,,,,,,,,,,,
,,,,,,60fee1a0234ddea6fd998ba0,2024-05-13_11h45.30.553,group3.1-3.2-social-tom,2023.2.2,Win32,59.88023952,65c5074098b851296ff0b7ed,6642357d7594bbf225d39318,,,,,,,,,,,,,,,,,,,,,,,,,,,,,946.1614,1,audio/Narrative7Situation7.wav,951.171,,951.1711,968.3523,"[[57.6,666],[58,749],[55.6,832],[55.1,916],[55.1,999],[55.1,1083],[55.1,1171],[55.1,1257],[55.1,1332],[55.1,1423],[55.1,1506],[55.1,1583],[55.1,1666],[46.7,1749],[24.6,1839],[21.7,1916],[21.7,1999],[21.7,2082],[21.7,2165],[11.2,2255],[10.2,2332],[10.2,2415],[10.3,2499],[32.1,2589],[60.3,2672],[60.3,2749],[60.3,2832],[60.3,2923],[75.6,2999],[79.2,3088],[79.2,3166],[79.2,3249],[79.2,3332],[80.1,3415],[85.2,3505],[85.4,3588],[85.4,3665],[85.4,3749],[85.4,3838],[85.7,3915],[85.8,3999],[85.8,4082],[85.8,4165],[85.8,4249],[85.8,4332],[85.8,4415],[85.8,4498],[85.8,4588],[85.8,4665],[85.8,4749],[85.8,4832],[85.8,4916],[85.8,4998],[85.8,5082],[85.8,5165],[85.8,5249],[85.8,5331],[85.8,5421],[85.8,5498],[85.8,5581],[85.8,5665],[85.8,5748],[85.8,5831],[85.8,5915],[85.8,5998],[85.8,6081],[85.8,6165],[85.8,6248],[85.8,6331],[85.8,6415],[85.8,6498],[85.8,6581],[85.8,6665],[85.8,6748],[85.8,6831],[85.8,6915],[85.8,6998],[85.8,7084],[85.8,7165],[85.8,7248],[85.8,7332],[85.8,7421],[85.8,7498],[85.8,7581],[85.8,7665],[85.8,7748],[85.8,7831],[85.8,7923],[85.8,7998],[85.8,8081],[85.8,8164],[85.8,8248],[85.8,8331],[85.8,8414],[85.8,8497],[85.8,8581],[85.8,8664],[85.8,8748],[85.8,8831],[85.8,8915],[85.8,8998],[85.8,9081],[85.8,9164],[85.8,9247],[85.8,9331],[85.8,9414],[85.8,9498],[85.8,9581],[85.8,9665],[85.8,9747],[85.8,9831],[85.8,9914],[85.8,9997],[85.8,10081],[85.8,10164],[85.8,10247],[85.8,10331],[85.8,10417],[85.8,10497],[85.8,10581],[85.8,10664],[85.8,10747],[85.8,10830],[85.8,10914],[85.8,10997],[85.8,11081],[85.8,11164],[85.8,11253],[85.8,11331],[85.8,11414],[85.8,11497],[85.8,11581],[85.8,11664],[85.8,11747],[85.8,11838],[85.8,11914],[85.8,12003],[85.8,12081],[85.8,12164],[85.8,12254],[85.8,12331],[85.8,12414],[85.8,12497],[85.8,12581],[85.8,12664],[85.8,12747],[85.8,12830],[85.8,12914],[85.8,12997],[85.8,13080],[85.8,13164],[85.8,13247],[85.8,13330],[85.8,13413],[85.8,13497],[85.8,13580],[85.8,13664],[85.8,13747],[85.8,13830],[85.8,13914],[85.8,13997],[85.8,14081],[85.8,14163],[85.8,14247],[85.8,14330],[85.8,14413],[85.8,14497],[85.8,14588],[85.8,14663],[85.8,14747],[85.8,14830],[76.5,14920],[55.6,14996],[48.5,15080],[48,15163],[46,15247],[29.6,15330],[26.7,15414],[26.7,15497],[26.7,15580],[26.7,15663],[21.5,15747],[18.6,15830],[15.2,15913],[13.4,15996],[13.3,16080],[13.3,16164],[13.3,16246],[13.3,16330],[13.3,16413],[13.3,16497],[13.3,16580],[13.3,16663],[13.3,16747],[13.3,16831],[13.3,16913],[13.3,16997],[13.3,17079],[13.3,17163]]",1,0,968.3528,971.6173,49.89583492,1.8242,"[{""rating"":49.89583492279053,""responseTime"":1.8242000000477674}]",space,2.7167,,971.6175,Not at all,0,971.6238,,,[],,0,7,7,7,1,audio/Narrative7Situation7.wav,audio/Narrative8Situation7.wav,audio/Narrative5Situation7.wav,audio/Narrative6Situation7.wav,5,3,4,5,,,,,,,,,,,,,,,,,,,,,,,,,,,,,,,,,,,,,,,
,,,,,,60fee1a0234ddea6fd998ba0,2024-05-13_11h45.30.553,group3.1-3.2-social-tom,2023.2.2,Win32,59.88023952,65c5074098b851296ff0b7ed,6642357d7594bbf225d39318,,,,,,,,,,,,,,,,,,,,,,,,,,,,,971.6241,1,audio/Narrative7Situation8.wav,973.6338,,973.6339,983.6662,"[[999,0],[999,83],[999,166],[999,249],[999,333],[999,416],[999,499],[999,583],[999,667],[999,750],[999,834],[999,916],[999,999],[999,1083],[999,1166],[999,1249],[999,1333],[999,1416],[999,1499],[999,1582],[999,1665],[56.8,1749],[56.6,1833],[55,1916],[52.7,1999],[51.7,2082],[49.8,2165],[49.8,2248],[49.8,2332],[49.8,2415],[49.8,2499],[49.8,2583],[49.8,2665],[49.8,2749],[49.8,2832],[49.8,2915],[49.8,2999],[49.8,3082],[49.8,3165],[49.8,3248],[49.8,3332],[49.8,3415],[49.8,3499],[49.8,3582],[49.8,3665],[49.8,3748],[49.8,3832],[49.8,3915],[49.8,3998],[49.8,4081],[49.8,4165],[49.8,4249],[49.8,4331],[49.8,4415],[49.8,4498],[49.8,4582],[49.8,4665],[49.8,4748],[49.8,4832],[49.8,4915],[49.8,4998],[49.8,5081],[49.8,5165],[49.8,5248],[49.8,5332],[49.8,5415],[49.8,5498],[49.8,5582],[49.8,5665],[49.8,5748],[49.8,5831],[49.8,5915],[49.8,5999],[49.8,6081],[49.8,6165],[49.8,6248],[49.8,6332],[49.8,6415],[49.8,6499],[49.8,6581],[49.8,6665],[49.8,6748],[49.8,6831],[49.8,6915],[49.8,6998],[49.8,7081],[49.8,7165],[49.8,7248],[49.8,7331],[49.8,7415],[49.8,7499],[49.8,7582],[49.8,7664],[49.8,7748],[49.8,7832],[49.8,7914],[49.8,7998],[49.8,8082],[49.8,8164],[49.8,8248],[49.8,8331],[49.8,8414],[49.8,8498],[49.8,8582],[49.8,8664],[49.8,8748],[49.8,8831],[49.8,8914],[49.8,8998],[49.8,9081],[49.8,9164],[49.8,9248],[49.8,9331],[49.8,9414],[64.9,9497],[77.6,9581],[77.6,9664],[77.6,9748],[77.6,9831],[77.6,9914],[77.6,9997]]",1,0,983.6666,1022.0254,58.22916826,1.8221,"[{""rating"":58.22916825612386,""responseTime"":1.822099999904708}]",space,37.8099,,1022.0255,Half the time,50,1022.052,,,[],,0,8,8,8,1,audio/Narrative7Situation8.wav,audio/Narrative8Situation8.wav,audio/Narrative5Situation8.wav,audio/Narrative6Situation8.wav,2,3,3,5,,,,,,,,,,,,,,,,,,,,,,,,,,,,,,,,,,,,,,,
,,,,,,60fee1a0234ddea6fd998ba0,2024-05-13_11h45.30.553,group3.1-3.2-social-tom,2023.2.2,Win32,59.88023952,65c5074098b851296ff0b7ed,6642357d7594bbf225d39318,,,,,,,,,,,,,,,,,,,,,,,,,,,,,1022.0525,1,audio/Narrative7Situation9.wav,1024.0583,,1024.0584,1032.6905,"[[999,1],[999,82],[999,166],[999,249],[999,332],[999,416],[999,499],[999,582],[999,666],[999,749],[999,832],[999,916],[999,999],[999,1082],[999,1166],[999,1249],[999,1332],[999,1415],[999,1499],[999,1582],[999,1666],[999,1749],[999,1832],[999,1915],[999,1999],[999,2082],[999,2165],[999,2249],[999,2332],[999,2415],[999,2499],[999,2582],[999,2665],[999,2749],[50.6,2832],[48.8,2915],[47.5,2998],[47.5,3082],[48.4,3165],[49.8,3248],[49.9,3332],[50,3415],[50,3499],[50,3581],[50,3665],[50,3749],[50,3831],[50,3915],[50,3999],[50,4082],[50,4165],[50,4249],[50,4332],[50,4415],[50,4499],[50,4582],[50,4665],[50,4749],[50,4832],[50,4915],[50,4999],[50,5082],[50,5165],[50,5248],[50,5331],[50,5415],[50,5498],[50,5581],[50,5665],[50,5748],[50,5832],[50,5915],[50,5998],[50,6081],[50,6164],[50,6248],[50,6331],[50,6415],[50,6499],[50,6581],[50,6665],[50,6748],[50,6831],[50,6915],[50,6998],[50,7081],[50,7165],[50,7248],[50,7331],[50,7414],[50,7498],[50,7582],[50,7664],[50,7748],[50,7831],[50,7914],[50,7998],[50,8081],[50,8164],[50,8248],[50,8331],[50,8414],[50,8498],[50,8581]]",1,0,1032.6907,1038.3891,50,1.6898,"[{""rating"":50,""responseTime"":1.689800000190644}]",space,5.1493,,1038.3893,All the time,100,1038.4108,,,[],,0,9,9,9,1,audio/Narrative7Situation9.wav,audio/Narrative8Situation9.wav,audio/Narrative5Situation9.wav,audio/Narrative6Situation9.wav,2,3,3,4,,,,,,,,,,,,,,,,,,,,,,,,,,,,,,,,,,,,,,,
,,,,,,60fee1a0234ddea6fd998ba0,2024-05-13_11h45.30.553,group3.1-3.2-social-tom,2023.2.2,Win32,59.88023952,65c5074098b851296ff0b7ed,6642357d7594bbf225d39318,,,,,,,,,,,,,,,,,,,,,,,,,,,,,1038.411,1,audio/Narrative8Situation1.wav,1043.4215,,1043.4216,1059.3521,"[[999,26],[999,99],[999,183],[999,266],[999,349],[999,433],[999,516],[999,599],[999,683],[999,766],[999,849],[999,932],[999,1016],[999,1099],[999,1182],[999,1266],[999,1349],[999,1432],[999,1516],[999,1599],[999,1682],[999,1766],[999,1849],[999,1932],[999,2016],[999,2099],[999,2182],[999,2266],[999,2349],[0.1,10848],[13,10931],[22.3,11014],[22.9,11097],[22.9,11180],[22.9,11264],[27.4,11347],[37.6,11431],[38.5,11514],[38.5,11597],[38.5,11680],[40.9,11764],[47.7,11847],[49.5,11931],[49.5,12014],[49.5,12097],[49.5,12181],[50.2,12264],[55.4,12347],[58.5,12430],[58.5,12514],[58.5,12597],[58.5,12680],[65.8,12764],[69.3,12847],[69.3,12930],[69.3,13014],[69.3,13097],[72.7,13181],[75.8,13263],[75.9,13347],[75.9,13430],[75.9,13514],[80.4,13597],[84.4,13680],[84.7,13763],[84.7,13847],[84.7,13930],[93.4,14014],[97.1,14097],[97.1,14180],[97.1,14263],[97.1,14347],[97.1,14430],[99.9,14514],[100,14597],[100,14680],[100,14763],[100,14847],[100,14930],[100,15013],[100,15097],[100,15180],[100,15263],[100,15347],[100,15430],[100,15513],[100,15597],[100,15680],[100,15763],[100,15847],[100,15930]]",1,0,1059.3524,1061.4183,11.66666746,1.015,"[{""rating"":11.666667461395264,""responseTime"":1.0149999999998727}]",space,1.5208,,1061.4184,All the time,100,1061.4216,,,[],,0,10,10,10,1,audio/Narrative8Situation1.wav,audio/Narrative7Situation1.wav,audio/Narrative6Situation1.wav,audio/Narrative5Situation1.wav,5,2,2,5,,,,,,,,,,,,,,,,,,,,,,,,,,,,,,,,,,,,,,,
,,,,,,60fee1a0234ddea6fd998ba0,2024-05-13_11h45.30.553,group3.1-3.2-social-tom,2023.2.2,Win32,59.88023952,65c5074098b851296ff0b7ed,6642357d7594bbf225d39318,,,,,,,,,,,,,,,,,,,,,,,,,,,,,1061.4224,1,audio/Narrative8Situation2.wav,1064.4343,,1064.4344,1074.5665,"[[999,17],[999,82],[999,166],[999,249],[999,333],[999,416],[999,500],[999,583],[999,666],[999,749],[999,833],[52.3,916],[35.8,1832],[13.1,1916],[8.5,1999],[8.4,2082],[8.4,2166],[8.4,2249],[8.4,2333],[8.4,2416],[8.4,2499],[8.4,2582],[15.6,2665],[26,2750],[26.5,2833],[26.5,2916],[26.5,2999],[26.5,3082],[26.5,3165],[26.5,3249],[26.5,3332],[26.5,3415],[26.5,3499],[26.5,3582],[26.5,3665],[26.5,3749],[26.5,3832],[26.5,3915],[26.5,3998],[26.5,4082],[26.5,4165],[26.5,4248],[26.5,4332],[31.8,4415],[46.8,4498],[47.8,4582],[47.8,4665],[47.8,4748],[55.9,4832],[62.7,4915],[63.5,4998],[63.5,5082],[63.5,5165],[81.5,5248],[87,5332],[87,5415],[87,5498],[87,5582],[87,5665],[88.7,5748],[93.2,5832],[100,5915],[100,5998],[100,6082],[100,6164],[100,6248],[100,6332],[100,6415],[100,6498],[100,6582],[100,6665],[100,6748],[100,6832],[100,6914],[100,6998],[100,7082],[100,7164],[100,7248],[100,7332],[100,7415],[100,7498],[100,7582],[100,7665],[100,7748],[100,7831],[100,7915],[100,7998],[100,8081],[100,8165],[100,8248],[100,8332],[100,8415],[100,8498],[100,8581],[100,8665],[100,8748],[100,8831],[100,8914],[100,8998],[100,9081],[100,9164],[100,9247],[100,9331],[100,9414],[100,9498],[100,9581],[100,9664],[100,9748],[100,9831],[100,9914],[100,9997],[100,10081]]",1,0,1074.5667,1077.0157,99.79166985,1.2339,"[{""rating"":99.79166984558105,""responseTime"":1.2338999998569307}]",space,1.9004,,1077.0158,Not at all,0,1077.0235,,,[],,0,11,11,11,1,audio/Narrative8Situation2.wav,audio/Narrative7Situation2.wav,audio/Narrative6Situation2.wav,audio/Narrative5Situation2.wav,3,3,3,3,,,,,,,,,,,,,,,,,,,,,,,,,,,,,,,,,,,,,,,
,,,,,,60fee1a0234ddea6fd998ba0,2024-05-13_11h45.30.553,group3.1-3.2-social-tom,2023.2.2,Win32,59.88023952,65c5074098b851296ff0b7ed,6642357d7594bbf225d39318,,,,,,,,,,,,,,,,,,,,,,,,,,,,,1077.0239,1,audio/Narrative8Situation3.wav,1081.0314,,1081.0315,1103.4281,"[[52.4,850],[51.7,933],[50.6,1017],[50.4,1099],[50.4,1182],[50.4,1266],[50.4,1349],[50.4,1433],[50.4,1516],[50.4,1599],[50.4,1683],[50.4,1766],[50.4,1849],[63.3,1933],[67.8,2016],[67.8,2099],[67.8,2182],[69.6,2266],[86.3,2349],[86.4,2432],[86.4,2516],[86.4,2599],[86.4,2682],[92.3,2766],[94,2849],[94,2932],[94,3016],[99.8,3099],[100,3182],[100,3266],[100,3349],[100,3432],[100,3516],[100,3599],[100,3682],[100,3766],[100,3849],[100,3933],[100,4016],[100,4099],[100,4182],[100,4266],[100,4349],[100,4432],[100,4516],[100,4598],[100,4682],[100,4766],[100,4848],[100,4932],[100,5015],[100,5098],[100,5182],[100,5265],[100,5349],[100,5432],[100,5515],[100,5598],[100,5681],[100,5765],[100,5848],[100,5932],[100,6015],[100,6098],[100,6182],[100,6265],[100,6348],[100,6432],[100,6515],[100,6598],[100,6681],[100,6765],[100,6848],[100,6932],[100,7015],[100,7098],[100,7181],[100,7265],[100,7348],[100,7431],[100,7515],[100,7598],[100,7681],[100,7765],[100,7848],[100,7931],[100,8015],[100,8098],[100,8181],[100,8265],[100,8348],[100,8431],[100,8514],[100,8598],[100,8681],[100,8765],[100,8848],[100,8931],[100,9015],[100,9098],[100,9181],[100,9264],[100,9348],[100,9431],[100,9515],[100,9598],[100,9681],[100,9765],[100,9848],[100,9931],[100,10014],[100,10098],[100,10181],[100,10264],[100,10348],[100,10431],[100,10514],[100,10598],[100,10681],[100,10765],[100,10848],[100,10930],[100,11014],[100,11097],[100,11180],[100,11264],[100,11347],[100,11430],[100,11514],[100,11598],[100,11681],[100,11764],[100,11847],[100,11931],[100,12014],[100,12097],[100,12181],[100,12264],[100,12347],[100,12431],[100,12514],[100,12597],[100,12680],[100,12764],[100,12847],[100,12930],[100,13014],[100,13097],[100,13181],[100,13264],[100,13347],[100,13430],[100,13514],[100,13597],[100,13680],[100,13764],[100,13847],[100,13930],[100,14013],[100,14096],[100,14180],[100,14264],[100,14347],[100,14430],[100,14513],[100,14597],[100,14680],[100,14763],[100,14847],[100,14930],[100,15014],[100,15097],[100,15180],[100,15263],[100,15347],[100,15430],[100,15514],[100,15597],[100,15680],[100,15764],[100,15847],[100,15930],[100,16013],[100,16097],[100,16180],[100,16263],[100,16347],[100,16430],[100,16513],[100,16597],[100,16680],[100,16763],[100,16847],[100,16930],[100,17013],[100,17096],[100,17180],[100,17263],[100,17347],[100,17430],[100,17513],[100,17597],[100,17680],[100,17763],[100,17847],[100,17930],[100,18013],[100,18096],[100,18180],[100,18263],[100,18347],[100,18429],[100,18513],[100,18596],[100,18680],[100,18763],[100,18847],[100,18929],[100,19013],[100,19096],[100,19179],[100,19263],[100,19346],[100,19429],[100,19512],[100,19596],[100,19679],[100,19763],[100,19846],[100,19929],[100,20013],[100,20096],[100,20179],[100,20263],[100,20346],[100,20429],[100,20513],[100,20596],[100,20679],[100,20762],[100,20846],[100,20929],[100,21012],[100,21096],[100,21179],[100,21262],[100,21346],[100,21429],[100,21512],[100,21596],[100,21679],[100,21762],[100,21846],[100,21929],[100,22012],[100,22096],[100,22179],[100,22262],[100,22346]]",1,0,1103.4285,1105.8271,99.89584287,1.2571,"[{""rating"":99.89584287007649,""responseTime"":1.2571000001430548}]",space,1.8529,,1105.8272,All the time,100,1105.832,,,[],,0,12,12,12,1,audio/Narrative8Situation3.wav,audio/Narrative7Situation3.wav,audio/Narrative6Situation3.wav,audio/Narrative5Situation3.wav,4,8,5,3,,,,,,,,,,,,,,,,,,,,,,,,,,,,,,,,,,,,,,,
,,,,,,60fee1a0234ddea6fd998ba0,2024-05-13_11h45.30.553,group3.1-3.2-social-tom,2023.2.2,Win32,59.88023952,65c5074098b851296ff0b7ed,6642357d7594bbf225d39318,,,,,,,,,,,,,,,,,,,,,,,,,,,,,1105.8323,1,audio/Narrative8Situation4.wav,1108.8431,,1108.8431,1123.0239,"[[999,1],[999,83],[999,166],[999,255],[999,332],[999,416],[999,499],[999,582],[999,672],[999,749],[999,832],[999,916],[999,999],[999,1082],[999,1166],[999,1249],[999,1332],[999,1415],[999,1499],[999,1588],[999,1665],[999,1749],[999,1832],[999,1915],[999,1999],[999,2082],[999,2165],[999,2249],[999,2332],[999,2415],[999,2499],[999,2582],[999,2665],[999,2749],[999,2832],[999,2915],[999,2999],[999,3082],[999,3165],[999,3248],[999,3332],[999,3416],[999,3499],[999,3582],[999,3666],[999,3749],[999,3832],[999,3916],[999,3999],[999,4082],[65.2,4182],[60.8,4265],[58.5,4349],[56.9,4432],[52.7,4515],[52.3,4598],[52.2,4682],[52.2,4765],[51.8,4848],[51.7,4932],[51.5,5015],[51.4,5099],[51.1,5182],[50.6,5265],[50.4,5348],[50.2,5432],[50.1,5515],[50.1,5598],[50.1,5682],[50.1,5765],[50.1,5848],[50.1,5932],[50.1,6016],[50.1,6098],[50.1,6182],[50.1,6265],[50.1,6349],[50.1,6432],[50.1,6515],[50.1,6598],[50.1,6682],[50.1,6765],[50.1,6848],[50.1,6932],[50.1,7015],[50.1,7098],[50.1,7181],[50.1,7265],[50.1,7348],[50.1,7432],[50.1,7515],[50.1,7598],[50.1,7682],[50.1,7765],[50.1,7848],[50.1,7931],[50.1,8015],[50.1,8098],[50.1,8181],[50.1,8265],[50.1,8348],[50.1,8431],[50.1,8515],[50.1,8598],[50.1,8681],[50.1,8765],[50.1,8848],[50.1,8931],[50.1,9015],[50.1,9098],[50.1,9181],[50.1,9265],[50.1,9348],[50.1,9431],[50.1,9515],[50.1,9597],[51.5,9685],[52.3,9764],[58.5,9848],[62.7,9931],[65.7,10014],[68.1,10098],[72.9,10181],[74.8,10264],[75.6,10348],[76.3,10432],[76.4,10514],[77.1,10597],[77.3,10681],[77.4,10764],[77.4,10847],[77.4,10931],[77.4,11014],[77.4,11098],[77.4,11181],[77.4,11264],[77.4,11347],[77.4,11431],[77.4,11514],[77.4,11597],[77.4,11681],[77.4,11764],[77.4,11847],[77.4,11931],[77.4,12014],[77.4,12097],[77.4,12181],[77.4,12264],[77.4,12347],[77.4,12431],[77.4,12514],[77.4,12597],[77.4,12681],[77.4,12764],[77.4,12847],[77.4,12930],[77.4,13014],[77.4,13097],[77.4,13181],[77.4,13264],[77.4,13347],[77.4,13431],[77.4,13514],[77.4,13597],[77.4,13680],[77.4,13764],[77.4,13847],[77.4,13930],[77.4,14014],[77.4,14097],[77.4,14180]]",1,0,1123.0242,1125.2733,69.68750159,0.9974,"[{""rating"":69.68750158945718,""responseTime"":0.9973999998569525}]",space,1.7007,0.0057,1125.2733,Not at all,0,1125.2789,,,[],,0,13,13,13,1,audio/Narrative8Situation4.wav,audio/Narrative7Situation4.wav,audio/Narrative6Situation4.wav,audio/Narrative5Situation4.wav,3,3,2,1,,,,,,,,,,,,,,,,,,,,,,,,,,,,,,,,,,,,,,,
,,,,,,60fee1a0234ddea6fd998ba0,2024-05-13_11h45.30.553,group3.1-3.2-social-tom,2023.2.2,Win32,59.88023952,65c5074098b851296ff0b7ed,6642357d7594bbf225d39318,,,,,,,,,,,,,,,,,,,,,,,,,,,,,1125.2792,1,audio/Narrative8Situation5.wav,1127.2901,,1127.2903,1135.5391,"[[59.9,2840],[53.4,2915],[52.3,2999],[51.3,3082],[50.6,3165],[50.3,3248],[50.1,3332],[50.1,3415],[49.9,3498],[49.9,3582],[49.9,3665],[49.9,3748],[49.9,3832],[49.9,3915],[49.9,3998],[91.7,4248],[92.3,4332],[92.7,4416],[92.7,4498],[92.7,4581],[92.7,4665],[92.7,4748],[92.7,4831],[92.7,4915],[92.7,4998],[92.7,5081],[92.7,5165],[92.7,5248],[92.7,5332],[92.7,5415],[92.7,5499],[92.7,5581],[92.7,5665],[92.7,5748],[92.7,5831],[92.7,5915],[92.7,5998],[92.7,6081],[92.7,6165],[92.7,6248],[92.7,6331],[92.7,6415],[92.7,6498],[92.7,6581],[92.7,6665],[92.7,6748],[92.7,6831],[92.7,6914],[92.7,6998],[92.7,7081],[92.7,7165],[92.7,7248],[92.7,7331],[92.7,7414],[92.7,7498],[92.7,7581],[92.7,7664],[92.7,7748],[92.7,7831],[92.7,7914],[92.7,7998],[92.7,8081],[92.7,8164],[92.7,8248]]",1,0,1135.5394,1172.3154,76.7708381,0.7472,"[{""rating"":76.77083810170491,""responseTime"":0.7472000000475418}]",space,36.2357,,1172.3155,Not at all,0,1172.3372,,,[],,0,14,14,14,1,audio/Narrative8Situation5.wav,audio/Narrative7Situation5.wav,audio/Narrative6Situation5.wav,audio/Narrative5Situation5.wav,2,5,2,5,,,,,,,,,,,,,,,,,,,,,,,,,,,,,,,,,,,,,,,
,,,,,,60fee1a0234ddea6fd998ba0,2024-05-13_11h45.30.553,group3.1-3.2-social-tom,2023.2.2,Win32,59.88023952,65c5074098b851296ff0b7ed,6642357d7594bbf225d39318,,,,,,,,,,,,,,,,,,,,,,,,,,,,,1172.3375,1,audio/Narrative8Situation6.wav,1174.3479,,1174.3479,1180.8136,"[[77.6,2166],[75.8,2423],[74.6,2505],[74.6,2582],[74.6,2666],[74.6,2749],[74.6,2832],[74.6,2916],[74.6,3007],[74.6,3082],[74.6,3166],[75.5,3256],[75.9,3339],[76.8,3422],[77.4,3503],[77.8,3582],[78,3672],[78.1,3749],[79.4,3839],[80.7,3925],[82.6,4005],[84.3,4089],[86.8,4173],[87.9,4255],[88.5,4332],[89.3,4415],[89.3,4499],[89.3,4583],[89.3,4666],[89.3,4749],[89.3,4833],[89.3,4915],[89.3,4999],[89.3,5082],[89.3,5165],[89.3,5249],[89.3,5333],[89.3,5415],[89.3,5499],[89.3,5582],[89.3,5674],[89.3,5749],[89.3,5832],[89.3,5915],[89.3,5999],[89.3,6082],[89.3,6165],[89.3,6248],[89.3,6338],[89.3,6415]]",1,0,1180.8138,1184.0305,89.68750636,2.1234,"[{""rating"":89.68750635782878,""responseTime"":2.123400000095444}]",space,2.6691,,1184.0307,Not at all,0,1184.036,,,[],,0,15,15,15,1,audio/Narrative8Situation6.wav,audio/Narrative7Situation6.wav,audio/Narrative6Situation6.wav,audio/Narrative5Situation6.wav,2,3,2,3,,,,,,,,,,,,,,,,,,,,,,,,,,,,,,,,,,,,,,,
,,,,,,60fee1a0234ddea6fd998ba0,2024-05-13_11h45.30.553,group3.1-3.2-social-tom,2023.2.2,Win32,59.88023952,65c5074098b851296ff0b7ed,6642357d7594bbf225d39318,,,,,,,,,,,,,,,,,,,,,,,,,,,,,1184.0367,1,audio/Narrative8Situation7.wav,1187.0463,,1187.0464,1199.1439,"[[999,23],[999,99],[999,183],[999,266],[999,349],[999,433],[999,516],[51,600],[50.6,682],[50.5,766],[50.4,849],[50.4,933],[50.4,1015],[50.4,1099],[50.4,1182],[53.9,1266],[61.7,1349],[61.8,1432],[61.8,1515],[61.8,1599],[70.7,1682],[72.9,1766],[72.9,1849],[72.9,1932],[72.9,2015],[72.9,2099],[72.9,2182],[72.9,2265],[72.9,2349],[72.9,2432],[72.9,2515],[76.3,2598],[78.1,2682],[79.7,2765],[81,2848],[81.3,2932],[81.3,3017],[84.4,3099],[86.7,3182],[88.2,3265],[88.9,3348],[88.9,3432],[88.9,3515],[88.9,3598],[88.9,3681],[88.9,3765],[88.9,3848],[88.9,3932],[88.9,4015],[88.9,4098],[95.3,4182],[100,4265],[100,4348],[100,4432],[100,4515],[100,4598],[100,4682],[100,4765],[100,4848],[100,4932],[100,5015],[100,5098],[100,5182],[100,5265],[100,5348],[100,5431],[100,5515],[100,5598],[100,5682],[100,5765],[100,5848],[100,5931],[100,6015],[100,6098],[100,6182],[100,6265],[100,6348],[100,6431],[100,6514],[100,6598],[100,6681],[100,6765],[100,6848],[100,6931],[100,7015],[100,7098],[100,7181],[100,7265],[100,7348],[100,7431],[100,7515],[100,7597],[100,7681],[100,7764],[100,7848],[100,7931],[100,8015],[100,8097],[100,8180],[100,8264],[100,8347],[100,8431],[100,8514],[100,8597],[100,8681],[100,8764],[100,8847],[100,8931],[100,9014],[100,9097],[100,9180],[100,9264],[100,9347],[100,9430],[100,9514],[100,9597],[100,9680],[100,9764],[100,9847],[100,9930],[100,10014],[100,10097],[100,10180],[100,10263],[100,10347],[100,10430],[100,10514],[100,10597],[100,10680],[100,10763],[100,10847],[100,10930],[100,11013],[100,11096],[100,11180],[100,11264],[100,11347],[100,11430],[100,11514],[100,11597],[100,11681],[100,11764],[100,11846],[100,11930],[100,12013],[100,12097]]",1,0,1199.1441,1201.577,99.58333969,1.4042,"[{""rating"":99.58333969116211,""responseTime"":1.4042000000476946}]",space,1.8883,,1201.5771,Not at all,0,1201.5831,,,[],,0,16,16,16,1,audio/Narrative8Situation7.wav,audio/Narrative7Situation7.wav,audio/Narrative6Situation7.wav,audio/Narrative5Situation7.wav,3,5,5,4,,,,,,,,,,,,,,,,,,,,,,,,,,,,,,,,,,,,,,,
,,,,,,60fee1a0234ddea6fd998ba0,2024-05-13_11h45.30.553,group3.1-3.2-social-tom,2023.2.2,Win32,59.88023952,65c5074098b851296ff0b7ed,6642357d7594bbf225d39318,,,,,,,,,,,,,,,,,,,,,,,,,,,,,1201.5836,1,audio/Narrative8Situation8.wav,1204.5931,,1204.5931,1217.4571,"[[67.7,1082],[52.6,1166],[52.2,1249],[52.2,1332],[52.2,1415],[51.7,1499],[50.6,1582],[50.3,1665],[50.3,1749],[50.3,1832],[50.3,1915],[50.3,1999],[50.3,2082],[50.3,2166],[50.3,2249],[50.3,2332],[50.3,2415],[50.3,2498],[50.3,2582],[50.3,2666],[50.3,2749],[50.3,2832],[50.3,2915],[50.3,2999],[50.3,3082],[50.3,3165],[50.3,3249],[50.3,3332],[50.3,3415],[50.3,3498],[50.3,3581],[50.3,3665],[50.3,3748],[50.3,3832],[50.3,3915],[50.3,3998],[50.3,4081],[50.3,4165],[50.3,4248],[50.3,4331],[50.3,4415],[50.3,4498],[50.3,4581],[50.3,4665],[50.6,4748],[53.1,4831],[55.5,4915],[58.8,4998],[62.6,5081],[64.1,5165],[64.1,5248],[64.1,5331],[64.1,5414],[64.1,5499],[64.1,5581],[64.1,5664],[64.1,5748],[64.1,5831],[64.1,5915],[56.6,5998],[52.2,6081],[50.8,6164],[50.6,6248],[50.6,6331],[50.6,6414],[50.6,6499],[50.6,6581],[50.6,6664],[50.6,6748],[50.6,6831],[50.6,6915],[50.6,6999],[50.6,7081],[50.6,7165],[50.6,7249],[50.6,7331],[50.6,7415],[58.1,7498],[71.7,7581],[73.8,7665],[73.8,7748],[73.8,7831],[73.8,7915],[83,7998],[84.5,8081],[84.5,8165],[84.5,8248],[90.9,8331],[95.9,8414],[97.2,8497],[97.6,8581],[97.9,8664],[99,8748],[99.5,8831],[100,8915],[100,8998],[100,9081],[100,9164],[100,9247],[100,9331],[100,9414],[100,9498],[100,9581],[100,9664],[100,9747],[100,9830],[100,9914],[100,9998],[100,10081],[100,10164],[100,10248],[100,10331],[100,10414],[100,10497],[100,10580],[100,10663],[100,10747],[100,10830],[100,10914],[100,10998],[100,11080],[100,11164],[100,11247],[100,11330],[100,11414],[100,11498],[100,11580],[100,11664],[100,11747],[100,11830],[100,11914],[100,11998],[100,12080],[100,12164],[100,12248],[100,12330],[100,12414],[100,12498],[100,12580],[100,12664],[100,12747],[100,12830]]",1,0,1217.4573,1219.3569,84.27084287,0.8809,"[{""rating"":84.27084287007649,""responseTime"":0.8809000000953802}]",space,1.3634,,1219.3569,Not at all,0,1219.3607,,,[],,0,17,17,17,1,audio/Narrative8Situation8.wav,audio/Narrative7Situation8.wav,audio/Narrative6Situation8.wav,audio/Narrative5Situation8.wav,3,2,5,3,,,,,,,,,,,,,,,,,,,,,,,,,,,,,,,,,,,,,,,
,,,,,,60fee1a0234ddea6fd998ba0,2024-05-13_11h45.30.553,group3.1-3.2-social-tom,2023.2.2,Win32,59.88023952,65c5074098b851296ff0b7ed,6642357d7594bbf225d39318,,,,,,,,,,,,,,,,,,,,,,,,,,,,,1219.3617,1,audio/Narrative8Situation9.wav,1222.3731,,1222.3731,1233.7045,"[[999,1],[999,83],[999,166],[999,249],[999,333],[999,416],[999,500],[999,583],[999,666],[999,749],[999,832],[999,916],[999,999],[63,1083],[63.8,1166],[64.9,1249],[65.3,1333],[65.8,1416],[65.8,1499],[65.8,1583],[65.8,1666],[65.9,1749],[72.7,1833],[77,1916],[77,1999],[77,2083],[77,2166],[77,2249],[80.4,2333],[85.9,2416],[86.4,2499],[86.4,2582],[86.4,2666],[86.4,2749],[86.4,2832],[86.4,2916],[86.4,2999],[93.8,3082],[95,3166],[95,3249],[95,3332],[95,3416],[95,3499],[95,3582],[95,3665],[99.4,3749],[100,3832],[100,3916],[100,3999],[100,4082],[100,4165],[100,4249],[100,4332],[100,4416],[100,4499],[100,4582],[100,4665],[100,4748],[100,4832],[100,4915],[100,4999],[100,5082],[100,5165],[100,5248],[100,5331],[100,5415],[100,5499],[100,5582],[100,5665],[100,5749],[100,5832],[100,5915],[100,5999],[100,6082],[100,6165],[100,6249],[100,6331],[100,6415],[100,6499],[100,6581],[100,6665],[100,6748],[100,6832],[100,6915],[100,6998],[100,7082],[100,7165],[100,7248],[100,7331],[100,7415],[100,7498],[100,7581],[100,7665],[100,7750],[100,7831],[100,7915],[100,7998],[100,8081],[100,8165],[100,8248],[100,8331],[100,8415],[100,8498],[100,8581],[100,8664],[100,8748],[100,8831],[100,8915],[100,8998],[100,9081],[100,9165],[100,9248],[100,9331],[100,9414],[100,9498],[100,9581],[100,9665],[100,9748],[100,9831],[100,9915],[100,9998],[100,10081],[100,10165],[100,10248],[100,10331],[100,10415],[100,10498],[100,10581],[100,10664],[100,10748],[100,10831],[100,10914],[100,10998],[100,11081],[100,11164],[100,11247],[100,11331]]",1,0,1233.7047,1237.1538,98.95833333,2.7347,"[{""rating"":98.95833333333333,""responseTime"":2.7347000000477237}]",space,2.8985,,1237.1539,Not at all,0,1245.8356,0.104169051,7.2142,"[{""rating"":0.10416905085245953,""responseTime"":7.21420000004764}]",space,0,18,18,18,1,audio/Narrative8Situation9.wav,audio/Narrative7Situation9.wav,audio/Narrative6Situation9.wav,audio/Narrative5Situation9.wav,3,2,4,3,,,8.1315,,,,,,,,,,,,,,,,,,,,,,,,,,,,,,,,,,,,
,,,,,,60fee1a0234ddea6fd998ba0,2024-05-13_11h45.30.553,group3.1-3.2-social-tom,2023.2.2,Win32,59.88023952,65c5074098b851296ff0b7ed,6642357d7594bbf225d39318,,,,,,,,,,,,,,,,,,,,,,,,,,,1288.8408,1291.411,1291.4325,2,audio/Narrative13Situation2.wav,1291.4326,,1291.4327,1321.1889,"[[999,0],[999,78],[999,161],[999,245],[999,327],[999,411],[999,494],[999,577],[999,660],[999,744],[999,828],[999,911],[999,994],[52.7,1077],[52.8,1161],[52.8,1244],[52.8,1328],[52.8,1411],[52.8,1494],[52.8,1578],[52.8,1660],[52.8,1744],[52.8,1828],[52.8,1911],[52.9,1994],[52.9,2077],[52.9,2161],[52.9,2244],[52.9,2327],[52.9,2410],[52.9,2493],[52.9,2577],[52.9,2661],[52.9,2744],[52.9,2827],[52.9,2910],[52.9,2994],[52.9,3077],[52.9,3160],[52.9,3243],[52.9,3327],[52.9,3410],[52.9,3494],[52.9,3577],[52.9,3660],[52.9,3744],[52.9,3827],[52.9,3911],[58.3,3993],[64.5,4077],[67.9,4160],[67.9,4244],[67.9,4327],[67.9,4410],[67.9,4493],[76.3,4577],[78,4660],[78.1,4743],[79.2,4827],[82.1,4910],[87.3,4993],[89,5076],[90.1,5160],[90.1,5244],[90.1,5327],[90.1,5410],[90.1,5493],[90.1,5577],[90.1,5660],[90.1,5743],[90.1,5827],[90.1,5910],[90.1,5993],[90.1,6077],[90.1,6160],[90.1,6244],[90.1,6327],[90.1,6409],[90.1,6493],[90.1,6576],[90.1,6660],[90.1,6743],[90.1,6827],[90.1,6910],[90.1,6993],[90.1,7076],[90.1,7160],[90.1,7243],[90.1,7326],[90.1,7410],[90.1,7493],[90.1,7576],[90.1,7660],[90.1,7743],[90.1,7826],[90.1,7910],[90.1,7992],[90.1,8076],[90.1,8160],[90.1,8243],[90.1,8326],[90.1,8410],[90.1,8493],[90.1,8576],[90.1,8660],[90.1,8743],[90.1,8826],[90.1,8910],[90.1,8993],[90.1,9076],[90.1,9159],[90.1,9243],[90.1,9326],[90.1,9409],[90.1,9492],[90.1,9576],[90.1,9659],[90.1,9743],[90.1,9826],[90.1,9909],[90.1,9993],[90.1,10076],[90.1,10159],[90.1,10242],[90.1,10326],[90.1,10409],[90.1,10493],[90.1,10576],[90.1,10659],[90.1,10742],[90.1,10826],[90.1,10909],[90.1,10992],[90.1,11076],[90.1,11159],[90.1,11243],[90.1,11326],[90.1,11409],[90.1,11492],[90.1,11576],[90.1,11658],[90.1,11742],[90.1,11826],[90.1,11909],[90.1,11992],[90.1,12075],[90.1,12159],[90.1,12242],[90.1,12325],[90.1,12409],[90.1,12492],[90.1,12575],[90.1,12659],[84.3,12742],[73,12825],[70,12908],[63.6,12992],[59.2,13076],[56.3,13159],[53,13242],[51.9,13325],[51.4,13409],[51.1,13492],[50.7,13575],[50.6,13659],[50.1,13742],[50.1,13825],[50.1,13908],[50.1,13992],[50.1,14075],[50.1,14158],[50.1,14242],[50.1,14325],[50.1,14409],[50.1,14491],[50.1,14575],[50.1,14659],[50.1,14741],[50.1,14825],[50.1,14908],[50.1,14992],[50.1,15075],[50.1,15158],[40.2,15242],[28.5,15325],[24.4,15408],[24.2,15491],[24.2,15575],[24.2,15658],[24.2,15741],[24.2,15824],[24.2,15908],[24.2,15991],[24.2,16074],[24.2,16158],[24.2,16241],[24.2,16325],[24.2,16408],[24.2,16491],[24.2,16575],[24.2,16658],[24.2,16741],[24.2,16825],[24.2,16908],[24.2,16992],[24.2,17074],[24.2,17158],[24.2,17241],[24.2,17325],[24.2,17408],[24.2,17491],[24.2,17574],[24.2,17658],[24.2,17741],[24.2,17824],[24.2,17908],[24.2,17991],[24.2,18074],[24.2,18157],[24.2,18241],[24.2,18324],[24.2,18408],[24.2,18491],[24.2,18574],[24.2,18658],[24.2,18741],[24.2,18824],[24.2,18907],[24.2,18991],[24.2,19074],[24.2,19157],[24.2,19241],[24.2,19324],[24.2,19408],[24.2,19491],[24.2,19574],[24.2,19658],[24.2,19741],[24.2,19824],[24.2,19908],[24.2,19991],[24.2,20074],[24.2,20158],[24.2,20240],[24.2,20324],[24.2,20408],[24.2,20491],[24.2,20574],[24.2,20658],[24.2,20741],[24.2,20824],[24.2,20907],[24.2,20991],[24.2,21074],[24.2,21157],[24.2,21240],[24.2,21324],[24.2,21408],[24.2,21491],[34.3,21574],[35.9,21657],[40.6,21740],[43.5,21824],[47.4,21908],[48.4,21990],[50.3,22073],[50.5,22157],[50.9,22241],[50.9,22324],[50.9,22407],[50.9,22490],[50.9,22574],[50.9,22657],[50.9,22740],[50.9,22824],[50.9,22907],[50.9,22990],[50.9,23074],[50.9,23157],[50.9,23240],[50.9,23323],[50.9,23407],[50.9,23490],[50.9,23574],[50.9,23657],[50.9,23740],[50.9,23824],[50.9,23906],[50.9,23990],[50.9,24073],[50.9,24157],[50.9,24240],[50.9,24324],[50.9,24406],[50.9,24490],[50.9,24574],[50.9,24657],[50.9,24740],[50.9,24824],[50.9,24907],[50.9,24990],[50.9,25073],[61.9,25156],[73.1,25240],[78.3,25323],[81.6,25406],[83.6,25490],[83.6,25573],[83.6,25657],[83.6,25740],[85,25823],[87.5,25907],[87.8,25989],[88,26073],[88.5,26156],[88.5,26240],[88.5,26323],[88.5,26406],[88.5,26490],[88.5,26573],[88.5,26656],[88.5,26740],[88.5,26823],[88.5,26906],[88.5,26989],[88.5,27073],[88.5,27156],[88.5,27240],[88.5,27323],[88.5,27406],[88.5,27490],[88.5,27573],[88.5,27656],[88.5,27740],[88.5,27823],[88.5,27906],[88.5,27990],[88.5,28072],[88.5,28156],[88.5,28239],[88.5,28322],[88.5,28405],[88.5,28489],[88.5,28572],[88.5,28656],[88.5,28741],[88.5,28822],[88.5,28905],[88.5,28989],[88.5,29072],[88.5,29156],[88.5,29239],[88.5,29322],[88.5,29405],[88.5,29489],[88.5,29572],[88.5,29655],[88.5,29739]]",1,0,1321.1892,1321.2107,,,[],,,,1321.2108,Not at all,0,1321.2121,,,[],,0,0,0,0,1,audio/Narrative13Situation2.wav,audio/Narrative13Situation2.wav,audio/Narrative13Situation2.wav,audio/Narrative13Situation2.wav,2,2,2,2,,,,,1245.8383,1288.8143,space,42.4524,,,,,,,,,,,,,,,,,,,,,,,,,,,,,,,
,,,,,,60fee1a0234ddea6fd998ba0,2024-05-13_11h45.30.553,group3.1-3.2-social-tom,2023.2.2,Win32,59.88023952,65c5074098b851296ff0b7ed,6642357d7594bbf225d39318,,,,,,,,,,,,,,,,,,,,,,,,,,,,,1321.2123,2,audio/Narrative5Situation1.wav,1326.2215,,1326.2216,1339.5193,"[[87.1,1433],[86.9,1515],[86.3,1599],[82,1682],[65.5,1766],[58,1850],[58,1932],[58,2015],[58,2099],[58,2182],[55,2266],[54.3,2350],[52.5,2432],[52.2,2515],[51.9,2598],[51.5,2682],[51.1,2765],[50.8,2849],[50.8,2932],[50.7,3015],[50.5,3098],[50.5,3182],[50.5,3265],[50.5,3349],[50.5,3432],[50.5,3515],[50.5,3598],[50.5,3682],[50.5,3765],[50.5,3848],[50.5,3932],[50.5,4015],[50.5,4099],[50.5,4182],[50.5,4265],[50.5,4348],[50.5,4432],[50.5,4515],[50.5,4598],[50.5,4682],[50.5,4765],[50.5,4848],[50.5,4932],[50.5,5015],[50.5,5098],[50.5,5182],[50.5,5265],[50.5,5348],[50.5,5432],[50.5,5515],[50.5,5598],[50.5,5681],[50.5,5765],[50.5,5848],[50.5,5932],[50.5,6015],[50.5,6098],[50.5,6181],[50.5,6265],[50.5,6348],[50.5,6431],[50.5,6515],[50.5,6598],[50.5,6681],[50.5,6765],[50.5,6848],[50.5,6931],[50.5,7014],[50.5,7098],[50.5,7181],[50.5,7265],[50.5,7348],[50.5,7431],[50.5,7514],[50.5,7598],[50.5,7681],[50.5,7765],[50.5,7848],[50.5,7931],[50.5,8015],[50.5,8097],[50.5,8181],[50.5,8264],[50.5,8348],[50.5,8431],[50.5,8514],[50.5,8598],[50.5,8681],[50.5,8764],[50.5,8848],[50.5,8931],[50.5,9014],[50.5,9098],[50.5,9181],[50.5,9264],[50.5,9347],[50.5,9431],[50.5,9514],[50.5,9598],[50.5,9681],[50.5,9764],[50.5,9848],[50.5,9931],[50.5,10014],[50.5,10098],[50.5,10181],[50.5,10264],[50.5,10347],[50.5,10431],[50.5,10514],[50.5,10597],[50.5,10681],[50.5,10764],[50.5,10847],[50.5,10931],[60.6,11020],[62.7,11103],[65.7,11187],[69.3,11270],[72.1,11347],[75.5,11437],[79,11521],[79.7,11605],[79.9,11687],[79.9,11770],[79.9,11847],[79.9,11931],[79.9,12014],[79.9,12097],[79.9,12181],[79.9,12264],[79.9,12347],[79.9,12430],[79.9,12513],[79.9,12597],[79.9,12680],[79.9,12764],[79.9,12847],[79.9,12931],[79.9,13013],[79.9,13097],[79.9,13181],[79.9,13268]]",1,0,1339.5199,1342.1686,67.70833333,1.1377,"[{""rating"":67.70833333333334,""responseTime"":1.1377000000475164}]",space,2.1013,,1342.1688,Not at all,0,1342.1737,,,[],,0,1,1,1,1,audio/Narrative7Situation1.wav,audio/Narrative8Situation1.wav,audio/Narrative5Situation1.wav,audio/Narrative6Situation1.wav,2,5,5,2,,,,,,,,,,,,,,,,,,,,,,,,,,,,,,,,,,,,,,,
,,,,,,60fee1a0234ddea6fd998ba0,2024-05-13_11h45.30.553,group3.1-3.2-social-tom,2023.2.2,Win32,59.88023952,65c5074098b851296ff0b7ed,6642357d7594bbf225d39318,,,,,,,,,,,,,,,,,,,,,,,,,,,,,1342.1743,2,audio/Narrative5Situation2.wav,1345.1848,,1345.1848,1374.6299,"[[64.7,1589],[59.5,1672],[55.7,1749],[54,1838],[49.8,1923],[49.3,1999],[49.2,2082],[49.2,2166],[49.2,2249],[49.2,2332],[49.2,2415],[49.2,2498],[49.2,2582],[49.2,2668],[49.2,2749],[49.2,2832],[49.2,2916],[49.2,2999],[49.2,3082],[49.2,3166],[49.4,3255],[49.5,3332],[49.7,3421],[49.7,3503],[49.7,3582],[49.7,3673],[49.7,3755],[49.7,3832],[49.7,3915],[49.7,3999],[49.7,4082],[49.7,4165],[49.7,4248],[49.7,4331],[49.7,4415],[49.7,4498],[49.7,4586],[49.7,4665],[49.7,4753],[49.7,4831],[49.7,4915],[49.7,4998],[49.7,5086],[49.7,5165],[49.7,5248],[49.7,5332],[49.7,5415],[49.7,5498],[49.7,5582],[49.7,5665],[49.7,5748],[49.7,5832],[49.7,5915],[49.7,5998],[49.7,6082],[49.7,6165],[49.7,6248],[49.7,6332],[49.7,6420],[49.7,6498],[49.7,6581],[49.7,6665],[49.7,6748],[49.7,6837],[49.7,6915],[49.7,7003],[49.7,7082],[49.7,7165],[49.7,7248],[49.7,7331],[49.8,7419],[49.8,7498],[49.8,7581],[49.9,7669],[49.9,7753],[49.9,7831],[49.9,7914],[49.9,8004],[49.9,8081],[49.9,8170],[49.9,8248],[49.9,8331],[49.9,8414],[49.9,8503],[49.9,8581],[49.9,8665],[49.9,8752],[49.9,8831],[49.9,8915],[49.9,8998],[49.9,9081],[49.9,9164],[49.9,9248],[49.9,9331],[49.9,9414],[49.9,9498],[49.9,9581],[49.9,9664],[49.9,9748],[49.9,9830],[49.9,9914],[49.9,9998],[49.9,10081],[49.9,10164],[49.9,10247],[49.9,10331],[49.9,10414],[49.9,10497],[49.9,10581],[49.9,10664],[49.9,10747],[49.9,10831],[49.9,10914],[49.9,10997],[49.9,11081],[49.9,11171],[49.9,11251],[49.9,11330],[49.9,11414],[49.9,11497],[49.9,11581],[49.9,11664],[49.9,11748],[49.9,11837],[49.9,11914],[49.9,12004],[49.9,12081],[49.9,12164],[49.9,12247],[49.9,12331],[49.9,12414],[49.9,12498],[49.9,12580],[49.9,12664],[49.9,12748],[49.9,12830],[49.9,12914],[49.9,12997],[49.9,13080],[49.9,13164],[49.9,13247],[49.9,13330],[49.9,13420],[49.9,13497],[49.9,13580],[51.8,13689],[54.7,13764],[57.4,13847],[60.9,13931],[64.2,14013],[67.7,14098],[68.8,14180],[68.8,14264],[68.8,14347],[68.8,14430],[69.1,14514],[69.3,14597],[69.7,14680],[69.8,14763],[69.8,14847],[69.8,14930],[69.8,15013],[69.8,15097],[69.8,15180],[72.4,15263],[73.2,15347],[73.3,15430],[73.4,15513],[73.4,15598],[73.4,15680],[73.4,15763],[73.4,15847],[73.4,15930],[73.4,16013],[73.4,16097],[73.4,16180],[73.4,16263],[73.4,16346],[73.4,16430],[73.4,16513],[73.4,16597],[73.4,16680],[73.4,16763],[73.4,16847],[73.4,16930],[73.4,17013],[73.4,17097],[73.4,17180],[73.4,17263],[73.4,17346],[73.4,17430],[73.4,17513],[73.4,17596],[73.4,17680],[73.4,17763],[73.4,17846],[73.4,17930],[73.4,18013],[73.4,18096],[73.4,18180],[73.4,18263],[73.4,18346],[73.4,18430],[73.4,18513],[73.4,18596],[73.4,18679],[73.4,18763],[73.4,18846],[73.4,18929],[73.4,19012],[73.4,19096],[73.4,19179],[73.4,19262],[73.4,19346],[73.4,19429],[73.4,19512],[73.4,19596],[73.4,19679],[73.4,19762],[73.4,19846],[73.4,19929],[73.4,20012],[73.4,20096],[73.4,20179],[73.4,20262],[73.4,20346],[73.4,20429],[73.4,20512],[73.4,20595],[73.4,20679],[73.4,20762],[73.4,20846],[73.4,20929],[73.4,21012],[73.4,21096],[73.4,21179],[73.4,21262],[73.4,21346],[73.4,21429],[73.4,21512],[73.4,21595],[73.4,21679],[73.4,21762],[73.4,21846],[73.4,21929],[73.4,22012],[73.4,22095],[73.4,22179],[73.4,22262],[73.4,22346],[73.4,22429],[73.4,22512],[73.4,22595],[73.4,22679],[73.4,22762],[73.4,22845],[73.4,22929],[73.4,23012],[73.4,23095],[73.4,23179],[73.4,23262],[74,23346],[78.9,23428],[79.4,23512],[79.5,23595],[80.4,23678],[93.3,23762],[100,23846],[100,23928],[100,24012],[100,24095],[100,24178],[100,24262],[100,24345],[100,24428],[100,24512],[100,24595],[100,24678],[100,24762],[100,24845],[100,24928],[100,25012],[100,25095],[100,25178],[100,25261],[100,25345],[100,25428],[100,25511],[100,25595],[100,25678],[100,25761],[100,25845],[100,25928],[100,26012],[100,26095],[100,26178],[100,26262],[100,26345],[100,26428],[100,26511],[100,26595],[100,26678],[100,26761],[100,26845],[100,26928],[100,27011],[100,27095],[100,27178],[100,27261],[100,27345],[100,27428],[100,27511],[100,27595],[100,27678],[100,27761],[100,27845],[100,27928],[100,28011],[100,28095],[100,28178],[100,28261],[100,28345],[100,28428],[100,28511],[100,28594],[100,28678],[100,28761],[100,28845],[100,28928],[100,29011],[100,29094],[100,29177],[100,29261],[100,29344],[100,29428]]",1,0,1374.6304,1378.7127,80.52083651,0.8758,"[{""rating"":80.52083651224773,""responseTime"":0.8757999999522781}]",space,3.5336,,1378.7129,Half the time,50,1378.7364,,,[],,0,2,2,2,1,audio/Narrative7Situation2.wav,audio/Narrative8Situation2.wav,audio/Narrative5Situation2.wav,audio/Narrative6Situation2.wav,3,3,3,3,,,,,,,,,,,,,,,,,,,,,,,,,,,,,,,,,,,,,,,
,,,,,,60fee1a0234ddea6fd998ba0,2024-05-13_11h45.30.553,group3.1-3.2-social-tom,2023.2.2,Win32,59.88023952,65c5074098b851296ff0b7ed,6642357d7594bbf225d39318,,,,,,,,,,,,,,,,,,,,,,,,,,,,,1378.7367,2,audio/Narrative5Situation3.wav,1381.7451,,1381.7453,1395.6592,"[[79.7,1332],[70.8,1423],[61.8,1507],[58.2,1582],[53.5,1674],[47.8,1756],[46.1,1839],[45.9,1916],[45.9,1998],[45.9,2082],[45.9,2165],[37.7,2255],[27.5,2338],[24.7,2415],[24.6,2498],[24.6,2582],[24.6,2665],[24.6,2749],[24.6,2832],[24.6,2915],[24.6,2998],[24.6,3082],[24.6,3165],[24.6,3254],[24.6,3332],[24.6,3415],[24.6,3499],[24.6,3582],[24.6,3665],[24.6,3748],[24.6,3839],[24.6,3914],[24.6,3998],[24.6,4082],[24.6,4165],[24.6,4248],[24.6,4332],[24.6,4415],[24.6,4498],[24.6,4581],[24.6,4665],[24.6,4748],[24.6,4831],[24.6,4915],[24.6,4998],[24.6,5081],[24.6,5165],[24.6,5248],[24.6,5331],[24.6,5415],[37.6,5681],[41.1,5764],[43.2,5847],[43.2,5931],[43.2,6015],[43.2,6097],[43.2,6181],[45.2,6264],[46.3,6348],[47.1,6431],[47.8,6514],[48.4,6598],[48.9,6681],[49,6764],[49.3,6848],[49.5,6931],[49.8,7014],[49.8,7097],[49.8,7181],[49.8,7264],[49.8,7347],[49.8,7430],[49.8,7514],[49.8,7597],[49.8,7680],[49.8,7764],[49.8,7847],[49.8,7930],[49.8,8014],[49.8,8097],[49.8,8181],[49.8,8264],[49.8,8347],[49.8,8430],[49.8,8514],[49.8,8597],[49.8,8680],[49.8,8764],[49.8,8847],[49.8,8930],[49.8,9014],[49.8,9097],[49.8,9181],[49.8,9264],[49.8,9347],[49.8,9431],[49.8,9514],[49.8,9597],[49.8,9681],[49.8,9764],[49.8,9847],[49.8,9931],[49.8,10013],[49.8,10097],[49.8,10180],[49.8,10264],[49.8,10347],[49.8,10431],[49.8,10514],[49.8,10597],[49.8,10681],[49.8,10764],[49.8,10847],[56.8,10930],[66.7,11014],[72.6,11097],[73.9,11180],[73.9,11264],[73.9,11347],[73.9,11431],[85.7,11513],[89.6,11597],[90.5,11680],[90.5,11763],[90.5,11847],[90.5,11930],[93.8,12014],[99.2,12763],[96.8,12847],[96.5,12930],[96.8,13014],[100,13096],[100,13180],[100,13263],[100,13347],[100,13430],[100,13513],[100,13597],[100,13680],[100,13763],[100,13847]]",1,0,1395.6595,1397.5422,57.70833492,0.7269,"[{""rating"":57.70833492279053,""responseTime"":0.7268999998568688}]",space,1.3354,,1397.5423,All the time,100,1397.5497,,,[],,0,3,3,3,1,audio/Narrative7Situation3.wav,audio/Narrative8Situation3.wav,audio/Narrative5Situation3.wav,audio/Narrative6Situation3.wav,8,4,3,5,,,,,,,,,,,,,,,,,,,,,,,,,,,,,,,,,,,,,,,
,,,,,,60fee1a0234ddea6fd998ba0,2024-05-13_11h45.30.553,group3.1-3.2-social-tom,2023.2.2,Win32,59.88023952,65c5074098b851296ff0b7ed,6642357d7594bbf225d39318,,,,,,,,,,,,,,,,,,,,,,,,,,,,,1397.5502,2,audio/Narrative5Situation4.wav,1398.5586,,1398.5586,1418.9554,"[[57.2,1166],[52,1249],[14.2,1333],[5.6,1999],[11.4,2082],[11.6,2166],[11.6,2249],[11.6,2333],[11.6,2415],[18.6,2499],[18.8,2582],[18.8,2666],[18.8,2749],[18.8,2832],[18.8,2916],[18.8,2999],[18.8,3082],[18.8,3165],[18.8,3249],[18.8,3332],[18.8,3415],[18.8,3499],[18.8,3582],[18.8,3665],[22.9,3749],[26.8,3832],[32,3916],[38.2,3999],[39.6,4082],[39.6,4165],[39.6,4249],[39.6,4333],[43.1,4415],[46.1,4499],[48.6,4582],[50.5,4665],[54.2,4749],[54.2,4832],[54.2,4915],[54.2,4999],[64.7,5082],[76.8,5165],[77.9,5248],[77.9,5332],[77.9,5415],[88.3,5499],[96,5582],[96.4,5665],[96.4,5749],[96.4,5832],[96.4,5915],[100,5999],[100,6082],[100,6165],[100,6248],[100,6332],[100,6415],[100,6498],[100,6582],[100,6665],[100,6748],[100,6832],[100,6915],[100,6998],[100,7082],[100,7165],[100,7248],[100,7332],[100,7415],[100,7498],[100,7582],[100,7665],[100,7748],[100,7832],[100,7915],[100,7998],[100,8081],[100,8164],[100,8248],[100,8331],[100,8415],[100,8498],[100,8581],[100,8665],[100,8748],[100,8832],[100,8915],[100,8998],[100,9081],[100,9165],[100,9248],[100,9331],[100,9414],[100,9497],[100,9582],[100,9664],[100,9748],[100,9831],[100,9914],[100,9998],[100,10081],[100,10164],[100,10247],[100,10331],[100,10414],[100,10498],[100,10581],[100,10664],[100,10748],[100,10830],[100,10914],[100,10997],[100,11081],[100,11164],[100,11247],[100,11331],[100,11414],[100,11497],[100,11581],[100,11664],[100,11747],[100,11831],[100,11914],[100,11997],[100,12080],[100,12164],[99.6,12247],[98.5,12331],[97.7,12414],[97.5,12497],[97.5,12580],[97.5,12664],[97.5,12747],[97.5,12831],[97.5,12914],[97.5,12997],[97.5,13081],[97.5,13164],[97.5,13247],[97.5,13330],[97.5,13413],[97.5,13497],[97.5,13580],[97.5,13664],[97.5,13747],[97.5,13830],[97.5,13914],[97.5,13997],[97.5,14080],[97.5,14164],[97.5,14247],[97.5,14330],[97.5,14413],[97.5,14497],[97.5,14580],[97.5,14663],[97.5,14747],[97.5,14830],[97.5,14913],[97.5,14996],[97.5,15080],[97.5,15163],[97.5,15247],[97.5,15330],[97.5,15413],[97.5,15497],[97.5,15580],[97.5,15663],[97.5,15747],[97.5,15830],[97.5,15913],[97.5,15996],[97.5,16080],[97.5,16164],[97.5,16247],[97.5,16330],[97.5,16413],[97.5,16496],[97.5,16580],[97.5,16663],[97.5,16747],[97.5,16830],[97.5,16913],[97.5,16997],[97.5,17080],[97.5,17163],[97.5,17247],[97.5,17330],[97.5,17413],[97.5,17496],[97.5,17580],[97.5,17663],[97.5,17746],[97.5,17829],[97.5,17913],[97.5,17996],[97.5,18079],[97.5,18163],[97.5,18246],[97.5,18329],[97.5,18413],[97.5,18496],[97.5,18579],[97.5,18663],[97.5,18746],[97.5,18829],[97.5,18913],[97.5,18996],[97.5,19079],[97.5,19163],[97.5,19246],[97.5,19329],[97.5,19413],[97.5,19496],[97.5,19579],[97.5,19663],[97.5,19746],[97.5,19829],[97.5,19913],[97.5,19996],[97.5,20079],[97.5,20163],[97.5,20246],[97.5,20329]]",1,0,1418.9558,1452.0497,86.3541762,14.5521,"[{""rating"":60.729169845581055,""responseTime"":13.635600000142858},{""rating"":86.35417620340984,""responseTime"":14.5521000001429}]",space,32.5468,,1452.0499,Half the time,50,1452.0774,,,[],,0,4,4,4,1,audio/Narrative7Situation4.wav,audio/Narrative8Situation4.wav,audio/Narrative5Situation4.wav,audio/Narrative6Situation4.wav,3,3,1,2,,,,,,,,,,,,,,,,,,,,,,,,,,,,,,,,,,,,,,,
,,,,,,60fee1a0234ddea6fd998ba0,2024-05-13_11h45.30.553,group3.1-3.2-social-tom,2023.2.2,Win32,59.88023952,65c5074098b851296ff0b7ed,6642357d7594bbf225d39318,,,,,,,,,,,,,,,,,,,,,,,,,,,,,1452.0777,2,audio/Narrative5Situation5.wav,1457.0819,,1457.082,1472.5203,"[[999,20],[999,99],[999,182],[999,266],[999,348],[999,432],[999,516],[999,599],[999,682],[999,766],[999,849],[999,932],[999,1016],[999,1099],[999,1182],[999,1266],[999,1348],[999,1433],[66.7,1515],[62.6,1599],[62.1,1682],[59.5,1766],[54.9,1849],[53.9,1932],[53.7,2015],[52.8,2098],[52.4,2182],[52.4,2265],[52.4,2349],[52.2,2432],[51.3,2515],[51,2599],[51,2682],[51,2765],[51,2849],[51,2932],[51,3015],[51,3098],[51,3182],[51,3265],[51,3348],[51,3432],[51,3515],[51,3598],[51,3682],[51,3765],[51,3848],[51,3932],[51,4015],[51,4098],[51,4182],[51,4265],[51,4348],[51,4432],[51,4515],[51,4598],[51,4682],[51,4765],[53.3,4848],[54.4,4932],[54.9,5015],[55,5098],[55.1,5181],[55.1,5265],[60.3,5348],[77.3,5433],[78.2,5515],[78.2,5598],[78.2,5681],[78.2,5765],[78.2,5848],[83,5931],[83.5,6015],[84.6,6098],[84.8,6181],[86.8,6265],[91.1,6348],[91.1,6431],[91.1,6515],[91.1,6598],[91.1,6681],[91.1,6765],[91.1,6848],[91.1,6931],[91.1,7014],[91.1,7098],[91.1,7181],[91.1,7265],[91.1,7348],[91.1,7431],[91.1,7515],[91.1,7597],[91.1,7681],[91.1,7764],[91.1,7848],[91.1,7931],[91.1,8014],[91.1,8097],[91.1,8181],[91.1,8264],[91.1,8348],[91.1,8431],[91.1,8514],[91.1,8597],[91.1,8681],[91.1,8764],[91.1,8848],[91.1,8931],[91.1,9014],[91.1,9098],[91.1,9181],[91.1,9264],[91.1,9348],[91.1,9431],[91.1,9514],[91.1,9598],[91.1,9681],[91.1,9764],[91.1,9847],[91.1,9931],[91.1,10014],[91.1,10098],[91.1,10180],[91.1,10264],[91.1,10347],[91.1,10431],[91.1,10514],[91.1,10597],[91.1,10680],[91.1,10764],[91.1,10847],[91.1,10931],[91.1,11014],[91.1,11097],[91.1,11180],[91.1,11263],[91.1,11347],[91.1,11431],[91.1,11513],[91.1,11597],[91.1,11681],[91.1,11763],[91.1,11847],[91.1,11931],[91.1,12013],[91.1,12097],[91.1,12180],[91.1,12263],[91.1,12347],[91.1,12431],[91.1,12513],[91.1,12597],[91.1,12680],[91.1,12763],[100,12847],[100,12936],[100,13013],[100,13097],[100,13180],[100,13263],[100,13347],[100,13430],[100,13513],[100,13597],[100,13680],[100,13763],[100,13847],[100,13930],[100,14013],[100,14097],[100,14180],[100,14263],[100,14347],[100,14430],[100,14513],[100,14596],[100,14686],[100,14763],[100,14846],[100,14935],[100,15013],[100,15096],[100,15180],[100,15263],[100,15347],[100,15437]]",1,0,1472.5206,1474.4281,98.02083969,0.9528,"[{""rating"":98.02083969116211,""responseTime"":0.9527999999522763}]",space,1.3734,,1474.4282,Half the time,50,1474.4305,,,[],,0,5,5,5,1,audio/Narrative7Situation5.wav,audio/Narrative8Situation5.wav,audio/Narrative5Situation5.wav,audio/Narrative6Situation5.wav,5,2,5,2,,,,,,,,,,,,,,,,,,,,,,,,,,,,,,,,,,,,,,,
,,,,,,60fee1a0234ddea6fd998ba0,2024-05-13_11h45.30.553,group3.1-3.2-social-tom,2023.2.2,Win32,59.88023952,65c5074098b851296ff0b7ed,6642357d7594bbf225d39318,,,,,,,,,,,,,,,,,,,,,,,,,,,,,1474.4311,2,audio/Narrative5Situation6.wav,1477.4442,,1477.4443,1483.1108,"[[84.3,1333],[65.3,1416],[57.7,1500],[52.9,1584],[52.9,1666],[52.9,1750],[52.9,1833],[52.7,1917],[52,2000],[51.7,2083],[51.1,2166],[50.6,2249],[50.3,2332],[50.2,2416],[50.2,2500],[50.2,2583],[50.2,2667],[50.2,2750],[50.2,2833],[50.2,2916],[50.2,3000],[50.2,3083],[50.2,3166],[50.2,3249],[50.2,3333],[50.4,3416],[56.1,3500],[63.3,3583],[68.5,3666],[68.5,3749],[68.5,3833],[68.5,3916],[68.5,3999],[68.5,4083],[68.5,4166],[68.5,4249],[68.5,4332],[68.5,4416],[68.5,4499],[68.5,4582],[68.5,4666],[68.5,4749],[68.5,4832],[68.5,4916],[68.5,4999],[68.5,5082],[68.5,5165],[68.5,5249],[68.5,5332],[68.5,5416],[68.5,5499],[68.5,5582],[68.5,5666]]",1,0,1483.111,1484.827,58.0208381,0.8947,"[{""rating"":58.02083810170492,""responseTime"":0.8947000000478056}]",space,1.1706,,1484.8271,Not at all,0,1484.8329,,,[],,0,6,6,6,1,audio/Narrative7Situation6.wav,audio/Narrative8Situation6.wav,audio/Narrative5Situation6.wav,audio/Narrative6Situation6.wav,3,2,3,2,,,,,,,,,,,,,,,,,,,,,,,,,,,,,,,,,,,,,,,
,,,,,,60fee1a0234ddea6fd998ba0,2024-05-13_11h45.30.553,group3.1-3.2-social-tom,2023.2.2,Win32,59.88023952,65c5074098b851296ff0b7ed,6642357d7594bbf225d39318,,,,,,,,,,,,,,,,,,,,,,,,,,,,,1484.8331,2,audio/Narrative5Situation7.wav,1488.8429,,1488.843,1509.8896,"[[54.5,1016],[53.7,1100],[53.3,1183],[53,1265],[52.2,1349],[51.8,1432],[50.9,1517],[50.8,1599],[50.6,1682],[50.4,1766],[50.2,1849],[50.1,1932],[50.2,2016],[50.2,2099],[50.2,2182],[50.2,2265],[50.2,2349],[50.2,2432],[50.2,2515],[50.2,2599],[50.2,2682],[50.2,2765],[50.2,2849],[50.2,2932],[50.2,3016],[50.2,3099],[50.2,3182],[50.2,3266],[50.2,3349],[50.2,3432],[50.2,3515],[50.2,3599],[50.2,3682],[50.2,3765],[50.2,3848],[50.2,3931],[50.2,4015],[50.2,4099],[50.2,4182],[50.2,4265],[50.2,4348],[50.2,4432],[50.2,4515],[50.2,4598],[40.1,4682],[20.7,4765],[16.9,4848],[9.5,4932],[2.7,5015],[5,8598],[8.8,8681],[13.1,8764],[15.7,8848],[15.7,8931],[15.7,9014],[15.7,9098],[26.6,9181],[42.7,9264],[44.5,9348],[44.5,9431],[44.5,9514],[44.5,9597],[48,9680],[48.3,9765],[48.3,9847],[50.8,9931],[52.8,10014],[52.9,10097],[57.6,10181],[60.9,10264],[61.3,10347],[61.3,10431],[61.3,10514],[61.3,10598],[61.3,10681],[61.3,10764],[61.3,10847],[61.3,10931],[61.3,11014],[61.3,11098],[61.3,11180],[61.3,11264],[61.3,11347],[61.3,11431],[61.3,11514],[61.3,11597],[61.3,11680],[61.3,11764],[61.3,11847],[61.3,11930],[61.3,12014],[61.3,12097],[61.3,12180],[61.3,12264],[61.3,12347],[61.3,12430],[67.6,12514],[71.6,12597],[72.6,12680],[72.6,12763],[72.6,12847],[72.6,12931],[75.5,13014],[75.8,13096],[75.8,13180],[75.8,13264],[75.8,13347],[75.8,13430],[75.8,13514],[75.8,13597],[75.8,13680],[75.8,13763],[75.8,13847],[75.8,13930],[75.8,14013],[75.8,14097],[75.8,14180],[75.8,14263],[75.8,14347],[75.8,14430],[75.8,14513],[75.8,14597],[75.8,14680],[75.8,14763],[75.8,14847],[75.8,14930],[75.8,15013],[75.8,15097],[75.8,15180],[75.8,15263],[75.8,15346],[75.8,15430],[75.8,15513],[75.8,15596],[75.8,15679],[84.9,16263],[84.5,16346],[84.5,16429],[84.8,16513],[84.8,16596],[84.8,16680],[84.8,16763],[84.8,16846],[87.3,16930],[94.1,17013],[98,17096],[100,17179],[100,17262],[100,17346],[100,17430],[100,17512],[100,17596],[100,17679],[100,17762],[100,17846],[100,17929],[100,18012],[100,18096],[100,18179],[100,18262],[100,18346],[100,18429],[100,18512],[100,18596],[100,18680],[100,18762],[100,18846],[100,18930],[100,19012],[100,19096],[100,19179],[100,19262],[100,19346],[100,19429],[100,19512],[100,19596],[100,19679],[100,19762],[100,19846],[100,19929],[100,20012],[100,20096],[100,20179],[100,20262],[100,20346],[100,20429],[100,20512],[100,20596],[100,20679],[100,20762],[100,20845],[100,20929],[100,21012]]",1,0,1509.8899,1511.9391,52.39583651,1.0367,"[{""rating"":52.39583651224772,""responseTime"":1.036700000047631}]",space,1.5069,,1511.9393,Not at all,0,1511.9457,,,[],,0,7,7,7,1,audio/Narrative7Situation7.wav,audio/Narrative8Situation7.wav,audio/Narrative5Situation7.wav,audio/Narrative6Situation7.wav,5,3,4,5,,,,,,,,,,,,,,,,,,,,,,,,,,,,,,,,,,,,,,,
,,,,,,60fee1a0234ddea6fd998ba0,2024-05-13_11h45.30.553,group3.1-3.2-social-tom,2023.2.2,Win32,59.88023952,65c5074098b851296ff0b7ed,6642357d7594bbf225d39318,,,,,,,,,,,,,,,,,,,,,,,,,,,,,1511.9467,2,audio/Narrative5Situation8.wav,1514.9553,,1514.9554,1523.7863,"[[51.3,1432],[50.8,1515],[49.9,1598],[33.5,1682],[16.1,1765],[14.5,1848],[14.5,1932],[14.5,2015],[14.5,2099],[14.5,2181],[14.5,2265],[14.5,2349],[14.5,2432],[14.5,2515],[14.5,2598],[14.5,2682],[14.5,2765],[14.5,2848],[14.5,2932],[14.5,3015],[14.5,3098],[14.5,3182],[14.5,3265],[14.5,3348],[14.5,3432],[14.5,3515],[20.3,3598],[27.9,3681],[33.8,3765],[38.3,3848],[45.5,3931],[45.5,4015],[45.5,4098],[45.5,4182],[47.6,4265],[57.3,4348],[61.4,4432],[61.8,4515],[61.8,4598],[61.8,4681],[61.8,4765],[71.4,4848],[71.8,4932],[71.9,5015],[71.9,5098],[71.9,5181],[71.9,5264],[71.9,5348],[71.9,5431],[71.9,5515],[71.9,5598],[71.9,5681],[71.9,5765],[71.9,5848],[71.9,5931],[71.9,6015],[71.9,6098],[71.9,6181],[71.9,6265],[71.9,6347],[71.9,6431],[71.9,6515],[71.9,6597],[71.9,6681],[71.9,6764],[71.9,6847],[81,6932],[83.9,7014],[83.9,7097],[83.9,7181],[83.9,7265],[83.9,7347],[83.9,7431],[83.9,7514],[83.9,7598],[83.9,7681],[83.9,7765],[83.9,7847],[83.9,7931],[83.9,8014],[83.9,8097],[83.9,8181],[83.9,8264],[83.9,8347],[83.9,8431],[83.9,8514],[83.9,8597],[83.9,8681],[83.9,8764]]",1,0,1523.7864,1525.52,71.66666985,0.7245,"[{""rating"":71.66666984558105,""responseTime"":0.7245000000000346}]",space,1.1843,,1525.5202,Half the time,50,1525.5287,,,[],,0,8,8,8,1,audio/Narrative7Situation8.wav,audio/Narrative8Situation8.wav,audio/Narrative5Situation8.wav,audio/Narrative6Situation8.wav,2,3,3,5,,,,,,,,,,,,,,,,,,,,,,,,,,,,,,,,,,,,,,,
,,,,,,60fee1a0234ddea6fd998ba0,2024-05-13_11h45.30.553,group3.1-3.2-social-tom,2023.2.2,Win32,59.88023952,65c5074098b851296ff0b7ed,6642357d7594bbf225d39318,,,,,,,,,,,,,,,,,,,,,,,,,,,,,1525.5291,2,audio/Narrative5Situation9.wav,1528.5358,,1528.5358,1568.0791,"[[65.9,591],[57.6,673],[41,755],[23,838],[23,915],[23,1005],[23,1083],[23,1166],[23,1249],[23,1333],[23,1416],[23,1499],[23,1583],[15.9,1666],[0.7,5254],[12.7,5337],[23.6,5422],[29.7,5505],[35.9,5587],[35.9,5665],[35.9,5748],[35.9,5839],[52.4,5922],[58.5,6004],[60.2,6089],[64.3,6171],[64.5,6248],[64.5,6332],[64.5,6415],[64.5,6498],[64.5,6582],[64.5,6665],[64.5,6748],[64.5,6832],[64.5,6915],[64.5,6998],[64.5,7085],[64.5,7165],[64.5,7248],[64.5,7332],[64.5,7415],[64.5,7498],[64.5,7582],[66.4,7671],[75.3,7756],[76.6,7837],[76.6,7915],[76.6,7998],[76.6,8081],[76.6,8165],[76.6,8248],[76.6,8331],[80.3,8421],[84.6,8504],[87.8,8589],[87.9,8670],[87.9,8748],[87.9,8831],[87.9,8915],[87.9,8998],[87.9,9081],[87.9,9165],[87.9,9248],[87.9,9338],[87.9,9415],[87.9,9498],[87.9,9581],[87.9,9664],[87.9,9748],[87.9,9831],[87.9,9914],[87.9,9997],[87.9,10081],[87.9,10172],[87.9,10247],[87.9,10338],[87.9,10414],[87.9,10497],[87.9,10581],[87.9,10664],[87.9,10747],[87.9,10831],[87.9,10914],[87.9,10997],[87.9,11081],[87.9,11164],[87.9,11247],[87.9,11330],[87.9,11414],[87.9,11497],[87.9,11581],[87.9,11664],[87.9,11747],[87.9,11836],[87.9,11914],[87.9,11997],[87.9,12080],[87.9,12164],[87.9,12247],[87.9,12330],[87.9,12414],[87.9,12497],[87.9,12580],[87.9,12667],[87.9,12747],[90.1,12838],[92.2,12920],[93.6,12997],[94,13080],[94,13163],[94,13247],[94,13331],[94,13414],[94,13504],[94,13580],[94,13664],[94,13747],[94,13830],[94,13913],[94,13997],[94,14080],[94,14164],[94,14246],[94,14330],[94,14413],[94,14497],[94,14580],[94,14664],[94,14747],[94,14830],[94,14913],[94,14997],[94,15080],[94,15164],[94,15247],[94,15330],[94,15417],[94,15497],[94,15580],[94,15663],[94,15747],[94,15830],[94,15913],[97.1,16013],[97.2,16096],[97.2,16180],[97.2,16264],[97.2,16347],[97.2,16430],[97.2,16513],[100,16596],[100,16680],[100,16763],[100,16847],[100,16929],[100,17013],[100,17096],[100,17180],[100,17263],[100,17347],[100,17429],[100,17513],[100,17596],[100,17680],[100,17763],[100,17847],[100,17929],[100,18013],[100,18097],[100,18179],[100,18263],[100,18346],[100,18429],[100,18513],[100,18596],[100,18679],[100,18763],[100,18846],[100,18929],[100,19012],[100,19096],[100,19179],[100,19263],[100,19346],[100,19429],[100,19512],[100,19596],[100,19679],[100,19762],[100,19846],[100,19929],[100,20012],[100,20096],[100,20179],[100,20263],[100,20346],[100,20429],[100,20512],[100,20596],[100,20679],[100,20762],[100,20846],[100,20929],[100,21012],[100,21096],[100,21179],[100,21262],[100,21346],[100,21429],[100,21512],[100,21596],[100,21679],[100,21762],[100,21846],[100,21929],[100,22012],[100,22096],[100,22179],[100,22262],[100,22346],[100,22429],[100,22512],[100,22596],[100,22679],[100,22762],[100,22845],[100,22929],[100,23012],[100,23095],[100,23178],[100,23262],[100,23345],[100,23428],[100,23512],[100,23595],[100,23678],[100,23762],[100,23845],[100,23929],[100,24012],[100,24096],[100,24178],[100,24261],[100,24345],[100,24428],[100,24512],[100,24595],[100,24679],[100,24761],[100,24845],[100,24928],[100,25012],[100,25096],[100,25178],[100,25262],[100,25345],[100,25428],[100,25511],[100,25595],[100,25678],[100,25762],[100,25845],[100,25928],[100,26011],[100,26095],[100,26178],[100,26261],[100,26345],[100,26428],[100,26512],[100,26594],[100,26678],[100,26761],[100,26845],[100,26928],[100,27011],[100,27095],[100,27178],[100,27261],[100,27345],[100,27428],[100,27511],[100,27594],[100,27678],[100,27761],[100,27844],[100,27928],[100,28011],[100,28095],[100,28177],[100,28261],[100,28345],[100,28427],[100,28511],[100,28594],[100,28678],[100,28760],[100,28844],[100,28927],[100,29010],[100,29094],[100,29177],[100,29261],[100,29344],[100,29427],[100,29511],[100,29594],[100,29678],[100,29761],[100,29844],[99.8,29928],[89.7,30010],[83.3,30094],[82.9,30177],[82.9,30261],[82.9,30344],[82.9,30428],[82.9,30511],[74.7,30594],[68.2,30677],[67.9,30761],[67.9,30844],[67.9,30927],[67.9,31011],[67.9,31094],[62.9,31177],[59.8,31260],[56.4,31344],[56,31427],[56,31510],[56,31594],[56,31677],[56,31760],[56,31844],[56,31927],[56,32010],[56,32094],[56,32177],[56,32260],[56,32344],[56,32427],[56,32510],[56,32594],[56,32677],[56,32760],[56,32844],[56,32927],[56,33010],[56,33094],[56,33177],[56,33260],[56,33344],[56,33427],[56,33510],[56,33594],[56,33677],[56,33760],[56,33844],[56,33926],[56,34010],[56,34094],[56,34177],[56,34260],[56,34343],[56,34427],[56,34509],[56,34593],[56,34677],[56,34760],[56,34843],[56,34926],[56,35009],[56,35093],[56,35177],[56,35260],[56,35343],[56,35426],[56,35509],[60.3,35593],[62,35677],[66.7,35760],[69.5,35843],[71.4,35926],[71.4,36009],[71.4,36093],[71.4,36176],[71.4,36259],[81.1,36343],[83.5,36427],[83.5,36509],[83.5,36593],[83.5,36676],[83.5,36759],[85,36844],[89.1,36927],[89.4,37009],[89.4,37093],[89.4,37176],[89.4,37259],[89.4,37343],[89.4,37427],[89.4,37509],[89.4,37592],[89.4,37676],[89.4,37759],[89.4,37843],[89.4,37926],[89.4,38010],[89.4,38093],[89.4,38176],[89.4,38259],[89.4,38343],[89.4,38426],[89.4,38509],[89.4,38593],[89.4,38676],[89.4,38759],[89.4,38843],[89.4,38927],[89.4,39009],[89.4,39093],[89.4,39176],[89.4,39259],[89.4,39342],[89.4,39426],[89.4,39509]]",1,0,1568.0796,1569.3951,91.97916985,0.6375,"[{""rating"":91.97916984558105,""responseTime"":0.6374999999998181}]",space,0.7684,,1569.3952,All the time,100,1569.4021,,,[],,0,9,9,9,1,audio/Narrative7Situation9.wav,audio/Narrative8Situation9.wav,audio/Narrative5Situation9.wav,audio/Narrative6Situation9.wav,2,3,3,4,,,,,,,,,,,,,,,,,,,,,,,,,,,,,,,,,,,,,,,
,,,,,,60fee1a0234ddea6fd998ba0,2024-05-13_11h45.30.553,group3.1-3.2-social-tom,2023.2.2,Win32,59.88023952,65c5074098b851296ff0b7ed,6642357d7594bbf225d39318,,,,,,,,,,,,,,,,,,,,,,,,,,,,,1569.4026,2,audio/Narrative6Situation1.wav,1571.4118,,1571.4119,1598.0068,"[[76,1832],[14.5,1915],[13.4,1999],[13.4,2082],[13.4,2165],[13.2,2249],[8,2332],[3.9,2415],[1.5,2499],[1.1,2582],[1.1,2665],[1.1,2749],[1.1,2832],[1.1,2915],[1.1,2998],[1.1,3082],[1.1,3165],[1.1,3249],[1.1,3332],[12.8,3415],[24.5,3498],[24.5,3582],[24.5,3665],[24.5,3748],[71.7,3832],[74.5,3915],[74.5,3999],[74.5,4082],[74.5,4165],[74.5,4248],[76.9,4331],[79.5,4415],[79.7,4498],[79.7,4581],[79.7,4664],[79.7,4748],[79.7,4832],[79.7,4915],[79.7,4999],[79.7,5081],[79.7,5165],[79.7,5249],[79.7,5331],[79.7,5414],[79.7,5498],[79.7,5581],[79.7,5665],[79.7,5748],[79.7,5831],[79.7,5915],[79.7,5998],[79.7,6081],[79.7,6164],[79.7,6248],[79.7,6331],[79.7,6415],[79.7,6498],[79.7,6581],[79.7,6664],[79.7,6748],[79.7,6831],[79.7,6914],[79.7,6998],[79.7,7082],[79.7,7164],[79.7,7248],[79.7,7331],[79.7,7414],[79.7,7498],[79.7,7581],[79.7,7664],[79.7,7748],[79.7,7830],[79.7,7914],[79.7,7998],[79.7,8081],[79.7,8164],[79.7,8248],[79.7,8331],[79.7,8414],[79.7,8497],[79.7,8581],[79.7,8664],[79.7,8748],[79.7,8830],[79.7,8914],[79.7,8998],[79.7,9081],[79.7,9164],[79.7,9248],[79.7,9330],[79.7,9414],[79.7,9498],[79.7,9581],[79.7,9664],[79.7,9747],[79.7,9831],[79.7,9914],[79.7,9997],[79.7,10081],[79.7,10164],[79.7,10247],[80.7,10338],[81.7,10413],[83.9,10497],[84.1,10580],[84.3,10664],[84.3,10748],[84.3,10830],[84.3,10913],[84.3,10997],[84.3,11081],[84.3,11163],[84.3,11247],[84.3,11330],[84.3,11413],[84.3,11497],[84.6,11580],[86.7,11664],[86.9,11747],[86.9,11830],[86.9,11913],[86.9,11997],[86.9,12080],[86.9,12163],[86.9,12247],[86.9,12330],[86.9,12414],[86.9,12497],[86.9,12580],[86.9,12663],[86.9,12747],[86.9,12830],[86.9,12913],[86.9,12997],[86.9,13080],[86.9,13163],[86.9,13247],[86.9,13330],[86.9,13413],[87.4,13497],[87.7,13580],[87.7,13663],[87.8,13746],[87.8,13829],[87.8,13913],[87.8,13996],[87.8,14080],[87.8,14163],[87.8,14247],[87.8,14330],[87.8,14413],[87.8,14496],[87.8,14580],[87.8,14663],[87.8,14746],[87.8,14829],[87.8,14913],[87.8,14996],[87.8,15080],[87.8,15163],[87.8,15246],[87.8,15330],[87.8,15413],[87.8,15496],[87.8,15579],[87.8,15663],[87.8,15746],[87.8,15829],[87.8,15913],[87.8,15996],[87.8,16079],[87.8,16162],[87.8,16246],[87.8,16329],[87.8,16412],[87.8,16496],[87.8,16579],[87.8,16662],[87.8,16746],[87.8,16829],[87.8,16912],[87.8,16996],[87.8,17079],[87.8,17162],[87.8,17246],[87.8,17329],[87.8,17412],[87.8,17495],[87.8,17579],[87.8,17662],[87.8,17746],[87.8,17829],[87.8,17912],[87.8,17995],[87.4,18079],[77.9,18162],[70.5,18246],[60.5,18329],[34.3,18829],[21.6,18912],[14.8,18996],[9.6,19079],[3.3,19163],[0.7,19245],[0.8,20829],[2.6,20912],[3.8,20995],[10.4,21078],[24.5,21162],[33.5,21245],[34.9,21329],[34.9,21412],[34.9,21495],[34.9,21578],[50.9,21662],[60.7,21745],[63.3,21829],[63.3,21912],[63.3,21995],[63.3,22078],[68,22163],[69.8,22245],[72.3,22328],[72.7,22412],[76.8,22495],[80.4,22579],[80.7,22661],[80.7,22745],[80.7,22828],[80.7,22912],[84.4,22995],[85.4,23078],[86.3,23162],[89.7,23245],[92.3,23328],[97.4,23412],[100,23495],[100,23578],[100,23662],[100,23745],[100,23828],[100,23911],[100,23995],[100,24078],[100,24162],[100,24245],[100,24328],[100,24412],[100,24495],[100,24577],[100,24661],[100,24745],[100,24828],[100,24911],[100,24995],[100,25078],[100,25161],[100,25244],[100,25328],[100,25411],[100,25494],[100,25578],[100,25661],[100,25744],[100,25828],[100,25911],[100,25994],[100,26078],[100,26161],[100,26244],[100,26328],[100,26411],[100,26494],[100,26578]]",1,0,1598.0072,1600.2063,84.58333015,1.6309,"[{""rating"":64.58333333333334,""responseTime"":0.741399999856867},{""rating"":84.58333015441895,""responseTime"":1.6308999998568652}]",space,1.6555,,1600.2064,All the time,100,1600.2106,,,[],,0,10,10,10,1,audio/Narrative8Situation1.wav,audio/Narrative7Situation1.wav,audio/Narrative6Situation1.wav,audio/Narrative5Situation1.wav,5,2,2,5,,,,,,,,,,,,,,,,,,,,,,,,,,,,,,,,,,,,,,,
,,,,,,60fee1a0234ddea6fd998ba0,2024-05-13_11h45.30.553,group3.1-3.2-social-tom,2023.2.2,Win32,59.88023952,65c5074098b851296ff0b7ed,6642357d7594bbf225d39318,,,,,,,,,,,,,,,,,,,,,,,,,,,,,1600.2114,2,audio/Narrative6Situation2.wav,1603.2226,,1603.2226,1631.7346,"[[73.1,1090],[58.6,1172],[56,1249],[56,1332],[56,1423],[56,1499],[53,1590],[51.7,1673],[51.7,1749],[51.7,1832],[51.7,1916],[51.7,1999],[51.7,2082],[51.7,2165],[51.7,2252],[51.7,2332],[51.7,2422],[51.7,2504],[44.5,2582],[13.9,2672],[7.6,2756],[7.6,2832],[7.6,2915],[7.6,2999],[2.9,3089],[0.9,3165],[0.9,3249],[0.9,3339],[0.9,3415],[0.9,3499],[0.9,3581],[0.9,3665],[0.9,3749],[0.9,3832],[0.9,3916],[0.9,3999],[0.9,4081],[0.9,4165],[0.9,4249],[0.9,4332],[0.9,4415],[0.9,4498],[0.6,4582],[0.2,5000],[20.3,5088],[21.7,5171],[21.7,5248],[21.7,5331],[41.1,5423],[73.4,5919],[73.4,5998],[73.4,6081],[73.4,6165],[73.4,6249],[74.2,6331],[74.5,6422],[74.5,6498],[74.5,6581],[74.5,6665],[74.5,6748],[74.5,6832],[74.5,6915],[74.5,6998],[74.5,7081],[74.5,7165],[74.5,7254],[74.5,7338],[74.5,7415],[74.5,7498],[74.5,7581],[74.5,7664],[74.5,7748],[74.5,7831],[74.5,7915],[74.5,7998],[74.5,8086],[74.5,8172],[74.5,8248],[74.5,8331],[74.5,8414],[74.5,8498],[74.5,8581],[74.5,8664],[74.5,8747],[74.5,8831],[74.5,8921],[74.5,8998],[74.5,9087],[74.5,9164],[74.5,9248],[74.5,9331],[74.5,9415],[74.5,9498],[74.5,9587],[74.5,9664],[74.5,9747],[74.5,9831],[74.5,9914],[74.5,9998],[74.5,10081],[74.5,10164],[74.5,10248],[74.5,10331],[74.5,10414],[74.5,10497],[74.5,10587],[74.5,10664],[74.5,10747],[74.5,10837],[80,10931],[85,11014],[86.7,11097],[86.7,11181],[86.7,11263],[86.7,11348],[86.7,11431],[86.7,11514],[86.7,11598],[86.7,11680],[86.7,11763],[86.7,11847],[86.7,11931],[86.7,12014],[86.7,12097],[86.7,12180],[86.7,12264],[86.7,12348],[86.7,12430],[86.7,12514],[86.7,12597],[86.7,12680],[86.7,12764],[86.7,12847],[86.7,12931],[86.7,13014],[86.7,13097],[86.7,13180],[86.7,13264],[86.7,13347],[86.7,13430],[86.7,13514],[86.7,13597],[86.7,13680],[86.7,13763],[86.7,13847],[86.7,13930],[86.7,14013],[86.7,14097],[86.7,14180],[86.7,14263],[86.7,14347],[86.7,14430],[86.7,14513],[86.7,14597],[86.7,14680],[86.7,14763],[86.7,14846],[86.7,14930],[86.7,15013],[86.7,15097],[86.7,15180],[86.7,15263],[86.7,15347],[86.7,15430],[86.7,15513],[86.7,15597],[86.7,15680],[86.7,15763],[86.7,15846],[86.7,15930],[86.7,16013],[86.7,16096],[86.7,16180],[86.7,16263],[86.7,16346],[86.7,16430],[86.7,16512],[86.7,16596],[86.7,16680],[86.7,16763],[86.7,16846],[86.7,16930],[87.9,17019],[90.9,17103],[91.1,17180],[91.5,17269],[91.5,17346],[91.5,17429],[91.5,17520],[91.5,17596],[91.5,17679],[91.5,17763],[91.5,17851],[91.5,17929],[91.5,18013],[91.5,18096],[91.5,18179],[91.5,18263],[91.5,18352],[91.5,18429],[91.5,18512],[91.5,18596],[91.5,18679],[91.5,18762],[91.5,18846],[91.5,18936],[91.5,19012],[91.5,19096],[91.5,19185],[91.5,19262],[91.5,19346],[91.5,19429],[91.5,19512],[91.5,19596],[91.5,19679],[91.5,19771],[91.5,19846],[91.5,19929],[91.5,20012],[91.5,20096],[91.5,20179],[91.5,20262],[91.5,20346],[91.5,20429],[91.5,20512],[91.7,20601],[92.3,20679],[92.6,20762],[94.8,20852],[95.5,20929],[96,21018],[96.3,21095],[96.4,21185],[96.4,21262],[96.4,21345],[96.4,21437],[96.4,21512],[96.4,21595],[96.4,21685],[96.4,21762],[96.4,21845],[96.4,21929],[96.4,22012],[96.4,22095],[96.4,22179],[96.4,22262],[96.4,22346],[96.4,22429],[96.4,22518],[96.4,22596],[96.4,22679],[96.4,22762],[96.4,22845],[96.4,22928],[96.4,23012],[96.4,23101],[96.4,23179],[96.4,23262],[96.4,23355],[96.4,23429],[96.4,23512],[96.4,23595],[96.4,23679],[96.4,23762],[96.4,23845],[96.4,23934],[96.4,24011],[96.4,24095],[96.4,24179],[96.4,24261],[96.4,24345],[96.4,24429],[96.4,24512],[96.4,24595],[96.4,24679],[96.4,24768],[96.4,24845],[96.4,24929],[96.4,25014],[96.4,25095],[96.4,25178],[96.4,25261],[96.4,25345],[96.4,25428],[96.4,25511],[96.4,25594],[96.4,25678],[100,25778],[100,25861],[100,25945],[100,26028],[100,26111],[100,26195],[100,26278],[100,26361],[100,26445],[100,26528],[100,26612],[100,26694],[100,26778],[100,26861],[100,26944],[100,27027],[100,27111],[100,27195],[100,27278],[100,27361],[100,27444],[100,27528],[100,27611],[100,27695],[100,27777],[100,27861],[100,27944],[100,28028],[100,28111],[100,28194],[100,28278],[100,28361],[100,28444]]",1,0,1631.735,1633.2339,80.00000318,0.892,"[{""rating"":80.00000317891438,""responseTime"":0.8920000000000528}]",space,0.9518,,1633.2341,Not at all,0,1633.2413,,,[],,0,11,11,11,1,audio/Narrative8Situation2.wav,audio/Narrative7Situation2.wav,audio/Narrative6Situation2.wav,audio/Narrative5Situation2.wav,3,3,3,3,,,,,,,,,,,,,,,,,,,,,,,,,,,,,,,,,,,,,,,
,,,,,,60fee1a0234ddea6fd998ba0,2024-05-13_11h45.30.553,group3.1-3.2-social-tom,2023.2.2,Win32,59.88023952,65c5074098b851296ff0b7ed,6642357d7594bbf225d39318,,,,,,,,,,,,,,,,,,,,,,,,,,,,,1633.2417,2,audio/Narrative6Situation3.wav,1638.2497,,1638.2497,1650.8479,"[[58.4,924],[24.8,1006],[23.1,1083],[23.1,1170],[23.1,1249],[9.7,1339],[1.5,1423],[15.1,3422],[25.1,3505],[27.8,3582],[27.8,3665],[27.8,3754],[53.5,3840],[64.4,3915],[64.8,3999],[64.8,4082],[64.8,4165],[74.2,4254],[80.7,4338],[80.9,4415],[81,4499],[81,4582],[81,4665],[81,4755],[81,4832],[81,4921],[81,4999],[81,5082],[81,5165],[82.2,5248],[86.6,5339],[87.5,5415],[87.5,5499],[87.5,5582],[87.5,5665],[87.5,5748],[87.5,5831],[87.5,5915],[87.5,5999],[87.5,6082],[87.5,6165],[87.5,6248],[87.5,6332],[87.5,6414],[87.5,6498],[87.5,6582],[87.5,6665],[87.5,6748],[87.5,6832],[87.5,6914],[87.5,7006],[87.5,7082],[87.5,7165],[87.5,7248],[87.5,7331],[87.5,7415],[87.5,7498],[87.5,7581],[87.5,7664],[87.5,7748],[87.5,7838],[87.5,7914],[87.5,7998],[87.5,8082],[87.5,8164],[87.5,8255],[87.5,8331],[87.5,8414],[87.5,8498],[87.5,8581],[87.5,8670],[87.5,8748],[87.5,8831],[87.5,8914],[87.5,8998],[87.5,9081],[87.5,9164],[87.5,9248],[87.5,9331],[87.5,9414],[87.5,9502],[87.5,9581],[87.5,9671],[87.5,9748],[87.5,9831],[87.5,9914],[87.5,9998],[87.5,10081],[87.5,10165],[87.5,10247],[100,10348],[100,10431],[100,10514],[100,10597],[100,10681],[100,10764],[100,10848],[100,10931],[100,11014],[100,11097],[100,11181],[100,11264],[100,11348],[100,11431],[100,11514],[100,11597],[100,11681],[100,11764],[100,11847],[100,11931],[100,12014],[100,12097],[100,12181],[100,12264],[100,12347],[100,12431],[100,12514],[100,12597]]",1,0,1650.8482,1651.9135,88.74999682,0.5228,"[{""rating"":88.74999682108562,""responseTime"":0.5227999999522126}]",space,0.5078,,1651.9136,All the time,100,1651.9191,,,[],,0,12,12,12,1,audio/Narrative8Situation3.wav,audio/Narrative7Situation3.wav,audio/Narrative6Situation3.wav,audio/Narrative5Situation3.wav,4,8,5,3,,,,,,,,,,,,,,,,,,,,,,,,,,,,,,,,,,,,,,,
,,,,,,60fee1a0234ddea6fd998ba0,2024-05-13_11h45.30.553,group3.1-3.2-social-tom,2023.2.2,Win32,59.88023952,65c5074098b851296ff0b7ed,6642357d7594bbf225d39318,,,,,,,,,,,,,,,,,,,,,,,,,,,,,1651.9194,2,audio/Narrative6Situation4.wav,1653.9304,,1653.9305,1666.5447,"[[67.4,672],[23.2,755],[22.5,832],[22.5,923],[22.5,999],[3.5,1838],[4.5,1915],[4.5,1999],[4.5,2088],[4.5,2165],[4.5,2249],[4.5,2332],[4.5,2415],[4.5,2499],[4.5,2590],[4.5,2665],[4.5,2749],[4.5,2832],[4.5,2921],[4.5,2999],[4.5,3082],[4.5,3165],[4.5,3249],[4.5,3332],[4.5,3415],[4.5,3506],[4.5,3582],[12.6,3669],[21.1,3755],[22.1,3838],[22.1,3915],[22.1,3998],[22.1,4082],[40.3,4171],[46.6,4255],[46.6,4332],[46.6,4415],[46.6,4499],[46.6,4587],[53.3,4671],[56.8,4755],[57.6,4832],[57.6,4914],[57.6,4998],[57.6,5082],[62,5171],[63.6,5254],[64.3,5332],[64.4,5419],[69.3,5504],[71.8,5589],[72.8,5665],[72.8,5748],[72.8,5831],[72.8,5914],[72.8,5999],[72.8,6081],[72.8,6170],[72.8,6248],[72.8,6332],[72.8,6421],[72.8,6498],[72.8,6582],[72.8,6664],[72.8,6748],[72.8,6831],[72.8,6914],[72.8,6998],[72.8,7081],[72.8,7164],[72.8,7248],[72.8,7331],[72.8,7414],[72.8,7498],[72.8,7581],[72.8,7664],[72.8,7748],[72.8,7839],[72.8,7920],[72.8,7998],[72.8,8081],[72.8,8164],[72.8,8248],[72.8,8331],[72.8,8414],[72.8,8498],[72.8,8581],[72.8,8671],[72.8,8748],[72.8,8831],[72.8,8914],[72.8,8997],[72.8,9081],[72.8,9164],[72.8,9255],[72.8,9331],[72.8,9414],[72.8,9497],[72.8,9581],[72.8,9664],[72.8,9747],[72.8,9831],[72.8,9914],[72.8,9997],[72.8,10081],[72.8,10164],[72.8,10248],[72.8,10330],[72.8,10414],[72.8,10506],[72.8,10581],[72.8,10664],[72.8,10748],[72.8,10830],[72.8,10914],[78.9,11013],[84.5,11097],[86.4,11181],[86.5,11263],[86.5,11347],[86.5,11431],[86.5,11514],[86.7,11597],[88.1,11680],[90.1,11764],[90.1,11847],[90.1,11930],[90.1,12013],[90.1,12097],[90.1,12181],[90.1,12264],[90.1,12347],[90.1,12431],[90.1,12513],[90.1,12597]]",1,0,1666.5449,1667.961,74.16667144,0.8246,"[{""rating"":74.16667143503824,""responseTime"":0.8246000001429366}]",space,0.8676,,1667.9612,Half the time,50,1667.9701,,,[],,0,13,13,13,1,audio/Narrative8Situation4.wav,audio/Narrative7Situation4.wav,audio/Narrative6Situation4.wav,audio/Narrative5Situation4.wav,3,3,2,1,,,,,,,,,,,,,,,,,,,,,,,,,,,,,,,,,,,,,,,
,,,,,,60fee1a0234ddea6fd998ba0,2024-05-13_11h45.30.553,group3.1-3.2-social-tom,2023.2.2,Win32,59.88023952,65c5074098b851296ff0b7ed,6642357d7594bbf225d39318,,,,,,,,,,,,,,,,,,,,,,,,,,,,,1667.9705,2,audio/Narrative6Situation5.wav,1669.9773,,1669.9773,1677.9426,"[[68.9,583],[62.9,666],[62.9,750],[62.9,833],[62.9,920],[62.9,999],[62.9,1083],[62.9,1166],[62.9,1250],[62.9,1333],[62.9,1416],[62.9,1500],[30.9,1583],[0.8,2249],[3.8,2333],[26.1,2416],[38.1,2499],[39.1,2582],[39.1,2666],[39.1,2749],[67.4,2832],[67.6,2916],[67.6,2999],[67.6,3082],[79.3,3166],[85.9,3249],[85.9,3332],[85.9,3415],[89.4,3499],[92,3582],[92.1,3665],[92.1,3748],[92.1,3832],[92.1,3915],[92.1,3999],[92.1,4082],[92.1,4165],[92.1,4249],[92.1,4332],[92.1,4416],[92.1,4499],[92.1,4582],[92.1,4665],[92.1,4749],[92.1,4832],[92.1,4915],[92.1,4998],[92.1,5082],[92.1,5165],[92.1,5248],[92.1,5332],[92.1,5415],[92.1,5499],[92.1,5582],[92.1,5665],[92.1,5748],[92.1,5832],[92.1,5915],[92.1,5998],[92.1,6081],[92.1,6165],[92.1,6248],[92.1,6331],[92.1,6415],[92.1,6498],[92.1,6582],[92.1,6665],[92.1,6748],[92.1,6832],[92.1,6915],[92.1,6998],[92.1,7082],[92.1,7165],[92.1,7248],[92.1,7332],[92.1,7415],[92.1,7498],[92.1,7582],[92.1,7665],[92.1,7748],[92.1,7832],[92.1,7915]]",1,0,1677.9428,1678.9258,80.93750477,0.488,"[{""rating"":80.93750476837158,""responseTime"":0.487999999999829}]",space,0.435,,1678.9259,Not at all,0,1688.0245,0.416668256,4.7674,"[{""rating"":0.4166682561238588,""responseTime"":4.767399999856934}]",space,0,14,14,14,1,audio/Narrative8Situation5.wav,audio/Narrative7Situation5.wav,audio/Narrative6Situation5.wav,audio/Narrative5Situation5.wav,2,5,2,5,,,8.5559,,,,,,,,,,,,,,,,,,,,,,,,,,,,,,,,,,,,
