exp_question,consent.started,consent.stopped,consentResponse.keys,consentResponse.rt,consentResponse.duration,participantID,date,expName,psychopyVersion,OS,frameRate,STUDY_ID,SESSION_ID,opening1.started,opening1.stopped,keyEndingOpening1.keys,keyEndingOpening1.rt,keyEndingOpening1.duration,volumeAdjust.started,volumeAdjust.stopped,endingAdjust.keys,endingAdjust.rt,endingAdjust.duration,opening2.started,opening2.stopped,keyEndingOpening.keys,keyEndingOpening.rt,keyEndingOpening.duration,mouse.x,mouse.y,mouse.leftButton,mouse.midButton,mouse.rightButton,mouse.time,instructionLoop.thisRepN,instructionLoop.thisTrialN,instructionLoop.thisN,instructionLoop.thisIndex,instructionLoop.ran,readyForAudio.started,readyForAudio.stopped,fixation.started,run,audio_played,fixation.stopped,endPractice.keys,audioPre.started,audioPre.stopped,continuousResponses_audio,continuousSlider.response,continuousSlider.rt,intRating.started,intRating.stopped,intQuestionSlider.response,intQuestionSlider.rt,intQuestionSlider.history,confirmResponse.keys,confirmResponse.rt,confirmResponse.duration,catchQuestion.started,catch_label,catch_value,catchQuestion.stopped,catchQuestionSlider.response,catchQuestionSlider.rt,catchQuestionSlider.history,confirmResponse_2.keys,audioRunLoop.thisRepN,audioRunLoop.thisTrialN,audioRunLoop.thisN,audioRunLoop.thisIndex,audioRunLoop.ran,conditions1_1,conditions2_1,conditions1_2,conditions2_2,dur1_1,dur2_1,dur1_2,dur2_2,endPractice.rt,endPractice.duration,confirmResponse_2.rt,confirmResponse_2.duration,runIntervalBreak.started,runIntervalBreak.stopped,endingBreakKey.keys,connection.started,connection.stopped,connectionEnding.keys,connectionEnding.rt,connectionEnding.duration,readyForText.started,readyForText.stopped,textPre.started,run_dup,textPre.stopped,continuousResponses_text,textRunLoop.thisRepN,textRunLoop.thisTrialN,textRunLoop.thisN,textRunLoop.thisIndex,textRunLoop.ran,text1_1,text1_2,text2_1,text2_2,runBreakText.started,runBreakText.stopped,endingBreakKey_2.keys,ending.started,ending.stopped,endingEnding.keys,endingEnding.rt,endingEnding.duration
social,0.0004,5.235,y,4.928,,60fee712cac724d08d2d8858,2024-02-08_16h04.31.501,group3.1-3.2-social-tom,2023.2.2,MacIntel,117.6470588,65c5074098b851296ff0b7ed,65c5419152c4ab9205c43f7f,,,,,,,,,,,,,,,,,,,,,,,,,,,,,,,,,,,,,,,,,,,,,,,,,,,,,,,,,,,,,,,,,,,,,,,,,,,,,,,,,,,,,,,,,,,,,,,,,,,,,,
,,,,,,60fee712cac724d08d2d8858,2024-02-08_16h04.31.501,group3.1-3.2-social-tom,2023.2.2,MacIntel,117.6470588,65c5074098b851296ff0b7ed,65c5419152c4ab9205c43f7f,5.2352,10.9686,space,5.7126,,,,,,,,,,,,,,,,,,,,,,,,,,,,,,,,,,,,,,,,,,,,,,,,,,,,,,,,,,,,,,,,,,,,,,,,,,,,,,,,,,,,,,,,,,,,,,,,,,
,,,,,,60fee712cac724d08d2d8858,2024-02-08_16h04.31.501,group3.1-3.2-social-tom,2023.2.2,MacIntel,117.6470588,65c5074098b851296ff0b7ed,65c5419152c4ab9205c43f7f,,,,,,10.9687,25.6762,space,14.3916,,,,,,,,,,,,,,,,,,,,,,,,,,,,,,,,,,,,,,,,,,,,,,,,,,,,,,,,,,,,,,,,,,,,,,,,,,,,,,,,,,,,,,,,,,,,,
,,,,,,60fee712cac724d08d2d8858,2024-02-08_16h04.31.501,group3.1-3.2-social-tom,2023.2.2,MacIntel,117.6470588,65c5074098b851296ff0b7ed,65c5419152c4ab9205c43f7f,,,,,,,,,,,25.6795,44.8933,space,19.1966,,[],[],[],[],[],[],0,0,0,0,1,,,,,,,,,,,,,,,,,,,,,,,,,,,,,,,,,,,,,,,,,,,,,,,,,,,,,,,,,,,,,,,,,,,,,,,,,,,,
,,,,,,60fee712cac724d08d2d8858,2024-02-08_16h04.31.501,group3.1-3.2-social-tom,2023.2.2,MacIntel,117.6470588,65c5074098b851296ff0b7ed,65c5419152c4ab9205c43f7f,,,,,,,,,,,44.8937,75.093,space,30.1566,,[],[],[],[],[],[],1,0,1,0,1,,,,,,,,,,,,,,,,,,,,,,,,,,,,,,,,,,,,,,,,,,,,,,,,,,,,,,,,,,,,,,,,,,,,,,,,,,,,
,,,,,,60fee712cac724d08d2d8858,2024-02-08_16h04.31.501,group3.1-3.2-social-tom,2023.2.2,MacIntel,117.6470588,65c5074098b851296ff0b7ed,65c5419152c4ab9205c43f7f,,,,,,,,,,,75.1032,99.7509,space,24.6255,,[],[],[],[],[],[],2,0,2,0,1,,,,,,,,,,,,,,,,,,,,,,,,,,,,,,,,,,,,,,,,,,,,,,,,,,,,,,,,,,,,,,,,,,,,,,,,,,,,
,,,,,,60fee712cac724d08d2d8858,2024-02-08_16h04.31.501,group3.1-3.2-social-tom,2023.2.2,MacIntel,117.6470588,65c5074098b851296ff0b7ed,65c5419152c4ab9205c43f7f,,,,,,,,,,,99.7619,126.7088,space,26.9314,,[],[],[],[],[],[],3,0,3,0,1,,,,,,,,,,,,,,,,,,,,,,,,,,,,,,,,,,,,,,,,,,,,,,,,,,,,,,,,,,,,,,,,,,,,,,,,,,,,
,,,,,,60fee712cac724d08d2d8858,2024-02-08_16h04.31.501,group3.1-3.2-social-tom,2023.2.2,MacIntel,117.6470588,65c5074098b851296ff0b7ed,65c5419152c4ab9205c43f7f,,,,,,,,,,,126.7206,152.5016,space,25.7643,,[],[],[],[],[],[],4,0,4,0,1,,,,,,,,,,,,,,,,,,,,,,,,,,,,,,,,,,,,,,,,,,,,,,,,,,,,,,,,,,,,,,,,,,,,,,,,,,,,
,,,,,,60fee712cac724d08d2d8858,2024-02-08_16h04.31.501,group3.1-3.2-social-tom,2023.2.2,MacIntel,117.6470588,65c5074098b851296ff0b7ed,65c5419152c4ab9205c43f7f,,,,,,,,,,,,,,,,,,,,,,,,,,,152.514,155.0928,155.1121,1,audio/Narrative13Situation2.wav,157.1177,,157.1179,186.8601,"[[999,1],[999,106],[999,190],[999,275],[999,358],[999,442],[999,524],[999,608],[999,691],[999,773],[999,858],[999,940],[999,1024],[999,1108],[999,1191],[999,1274],[999,1357],[999,1444],[999,1524],[38.3,1608],[39.2,1690],[39.4,1774],[39.4,1857],[39.4,1940],[39.4,2024],[39.5,2108],[40.6,2191],[43.6,2274],[46.5,2358],[50.2,2441],[56.4,2523],[64.8,2608],[70.4,2691],[71.8,2775],[72.6,2858],[73,2940],[73,3025],[73,3106],[73,3190],[77.7,3274],[82.6,3357],[86.6,3441],[89.5,3525],[90.1,3608],[90.1,3690],[90.1,3774],[90.1,3857],[90.1,3941],[90.1,4025],[90.4,4108],[91,4194],[91.1,4273],[91.1,4357],[91.1,4440],[91.1,4523],[91.1,4608],[91.1,4691],[91.1,4774],[91.1,4857],[91.1,4941],[91.2,5026],[91.2,5107],[91.3,5190],[91.3,5274],[91.3,5358],[91.3,5441],[91.3,5524],[91.3,5608],[91.3,5690],[91.3,5775],[91.3,5858],[91.3,5941],[91.3,6025],[91.3,6106],[93.3,6191],[94.2,6274],[94.7,6358],[95.7,6441],[97.1,6524],[97.4,6606],[97.4,6691],[97.4,6773],[97.4,6858],[96.1,6940],[92.8,7024],[89.4,7108],[87.8,7191],[85.4,7274],[82.1,7358],[78.8,7445],[74.4,7524],[68.5,7607],[62.6,7691],[60,7775],[59.6,7858],[59.6,7944],[59.7,8024],[59.9,8109],[61.2,8191],[65.9,8274],[72.1,8357],[78.9,8441],[82.9,8525],[85.6,8608],[86.9,8691],[88.4,8774],[91.4,8859],[94.2,8941],[96.4,9024],[96.9,9108],[96.9,9194],[96.8,9275],[96.7,9357],[96.7,9441],[96.7,9523],[96.7,9607],[96.7,9691],[96.7,9776],[96.7,9857],[96.7,9941],[96.7,10024],[96.7,10107],[96.7,10191],[96.7,10276],[96.7,10358],[97.1,10441],[97.7,10524],[97.8,10607],[97.8,10691],[97.8,10775],[97.8,10857],[97.8,10941],[97.7,11024],[97.7,11107],[97.7,11191],[97.7,11275],[97.5,11358],[97.5,11440],[97.5,11525],[97.5,11607],[97.5,11691],[97.5,11774],[97.5,11859],[97.5,11943],[97.9,12024],[99.2,12108],[99.3,12191],[99.3,12275],[99.3,12357],[99.3,12441],[99.3,12524],[99.3,12607],[99.3,12691],[99.3,12774],[99.3,12859],[99.3,12943],[99.3,13024],[99.3,13107],[99.3,13191],[99.3,13276],[99.3,13357],[99.1,13441],[98.8,13524],[98.9,13608],[99.2,13691],[99.5,13774],[99.5,13858],[99.9,13941],[100,14024],[100,14108],[100,14191],[100,14274],[100,14358],[100,14440],[100,14525],[100,14608],[100,14691],[100,14774],[100,14858],[99.3,14940],[98.5,15024],[98.5,15107],[98.5,15191],[98.5,15276],[98.5,15357],[98.1,15441],[96.8,15524],[92.8,15608],[84.3,15691],[46.5,16274],[46.5,16358],[46.9,16441],[47.3,16526],[47,16607],[45.7,16695],[44.1,16774],[42.6,16859],[41.5,16940],[39.6,17026],[37.7,17108],[36.1,17191],[36.1,17273],[36.1,17358],[36.1,17441],[33.4,17523],[19.7,17609],[14.3,17696],[14,17774],[14,17857],[14,17941],[14,18023],[14,18108],[14,18190],[14,18274],[14,18358],[14,18440],[12.6,18524],[12.3,18607],[12.3,18691],[10.1,18776],[9.1,18857],[9.1,18940],[9.1,19024],[9.1,19107],[9.1,19190],[9.1,19275],[9.1,19357],[9.1,19440],[9.1,19524],[9.1,19608],[9.1,19691],[9.1,19773],[9.1,19857],[9.1,19940],[9.1,20024],[9.1,20108],[9.1,20192],[9.1,20273],[9.1,20359],[9.1,20440],[9.1,20524],[9.1,20607],[9.1,20691],[9.1,20775],[9.1,20857],[9.1,20940],[9.1,21024],[9.1,21107],[9.1,21192],[9.1,21274],[9.1,21357],[9.1,21441],[14.3,21523],[22.5,21607],[29.1,21691],[35.2,21773],[42.4,21857],[47.5,21941],[53.3,22023],[59.9,22107],[76.3,22524],[78.3,22607],[80.1,22691],[80.6,22774],[80.7,22857],[80.7,22940],[80.7,23024],[80.7,23107],[80.7,23192],[80.7,23274],[80.7,23358],[80.7,23441],[80.7,23525],[80.7,23608],[80.7,23693],[80.7,23774],[80.7,23858],[80.7,23941],[80.7,24024],[80.7,24107],[80.7,24190],[80.7,24274],[80.7,24357],[80.7,24441],[80.7,24524],[80.7,24608],[80.7,24690],[80.7,24774],[72,24858],[61.1,24941],[54,25024],[25.7,25441],[20.4,25524],[20.2,25607],[20.2,25691],[20.2,25774],[13.2,25857],[3.3,25940],[2.2,26024],[2.2,26107],[2.2,26191],[2.2,26274],[2.2,26358],[2.2,26441],[2.2,26524],[2.2,26607],[2.2,26691],[2.2,26773],[2.2,26857],[2.2,26941],[2.2,27024],[2.2,27108],[2.2,27191],[2.2,27274],[2.2,27358],[2.2,27440],[2.2,27523],[2.2,27610],[2.2,27691],[2.2,27775],[2.2,27857],[2.2,27941],[2.2,28024],[2.2,28108],[2.2,28190],[2.2,28274],[2.2,28357],[2.2,28441],[2.2,28524],[2.2,28607],[2.2,28691],[2.2,28774],[2.2,28857],[2.2,28941],[2.2,29023],[2.2,29107],[2.2,29191],[2.2,29277],[2.2,29357],[2.2,29441],[2.2,29524],[2.2,29610],[2.2,29699]]",1,0,186.8608,198.8117,56.72536376,9.7076,"[{""rating"":56.72536375661375,""responseTime"":9.70759999990463}]",space,11.4266,,198.8119,Partially,50,198.8146,,,[],,0,0,0,0,1,audio/Narrative13Situation2.wav,audio/Narrative13Situation2.wav,audio/Narrative13Situation2.wav,audio/Narrative13Situation2.wav,2,2,2,2,,,,,,,,,,,,,,,,,,,,,,,,,,,,,,,,,,,
,,,,,,60fee712cac724d08d2d8858,2024-02-08_16h04.31.501,group3.1-3.2-social-tom,2023.2.2,MacIntel,117.6470588,65c5074098b851296ff0b7ed,65c5419152c4ab9205c43f7f,,,,,,,,,,,,,,,,,,,,,,,,,,,,,198.8148,1,audio/Narrative7Situation1.wav,201.9007,space,201.9007,257.7675,"[[999,1],[999,82],[999,166],[999,250],[999,332],[999,415],[999,500],[999,583],[999,666],[999,749],[999,833],[999,916],[999,1002],[52.8,1083],[50.8,1166],[50.3,1249],[50.2,1332],[50.3,1416],[50.4,1500],[50.4,1583],[50.4,1666],[50.4,1749],[54.1,1833],[62.2,1916],[66.3,2000],[71.7,2082],[78,2166],[83.5,2250],[84,2333],[84,2416],[84,2500],[84.5,2583],[87.8,2666],[89.5,2749],[90.4,2832],[91.7,2919],[93,3000],[93.2,3082],[93.2,3166],[93.2,3249],[93.2,3332],[93.2,3416],[93.2,3500],[93.2,3582],[93.2,3667],[93.2,3749],[93.2,3832],[93.5,3916],[94.3,3999],[94.3,4082],[94.3,4166],[94.3,4249],[94.3,4334],[94.1,4418],[92.1,4499],[88.5,4583],[86.3,4666],[84.3,4750],[82.4,4833],[79.6,4916],[79.3,4999],[79.3,5083],[79.3,5165],[79.3,5250],[79.3,5332],[78.6,5416],[66.1,5500],[58.5,5585],[58.4,5667],[58.6,5750],[59.1,5833],[60.4,5915],[60.5,6000],[58.4,6082],[56.3,6166],[55.2,6250],[54.1,6333],[53.1,6416],[52.4,6500],[51.8,6585],[51.5,6665],[50.9,6750],[50.8,6832],[51,6917],[51.7,6999],[53.8,7082],[56.5,7166],[60.2,7250],[64.2,7332],[67,7416],[68.4,7500],[69.1,7583],[69.7,7666],[70.4,7750],[71.2,7832],[72.4,7916],[73.5,8000],[74,8083],[74.3,8166],[74.3,8250],[74.3,8332],[74.3,8416],[77.7,8500],[84.4,8582],[90.1,8666],[95,8749],[98.8,8832],[100,8916],[100,9000],[100,9083],[100,9166],[100,9250],[100,9332],[100,9416],[100,9499],[100,9586],[100,9668],[100,9750],[100,9833],[100,9916],[95.4,9999],[85.8,10083],[79.5,10166],[74.6,10250],[66.8,10333],[61.2,10419],[58.6,10500],[57.7,10583],[57.7,10665],[57.7,10750],[57.8,10833],[57.9,10915],[58,11000],[59,11083],[62.5,11166],[67.5,11252],[77.7,11332],[86.1,11416],[90.1,11500],[91.5,11583],[92.6,11665],[93.9,11750],[95.3,11832],[96.6,11916],[98.1,12000],[99.5,12083],[100,12166],[100,12250],[100,12332],[100,12416],[100,12499],[100,12583],[100,12666],[100,12750],[100,12833],[100,12916],[100,12999],[100,13083],[100,13168],[100,13251],[100,13333],[100,13416],[100,13500],[100,13583],[100,13666],[100,13750],[100,13832],[100,13917],[100,14000],[100,14082],[100,14166],[100,14249],[100,14333],[100,14415],[100,14498],[100,14582],[100,14666],[100,14750],[100,14833],[100,14916],[100,14999],[100,15083],[100,15173],[100,15258],[100,15344],[100,15425],[100,15511],[100,15591],[100,15674],[100,15758],[100,15840],[100,15924],[100,16008],[100,16091],[93.9,16175],[82.8,16258],[73.8,16341],[64.8,16424],[60.6,16508],[60.6,16591],[60.6,16674],[60.5,16758],[39.1,16841],[11.1,16927],[7.7,17008],[7.7,17091],[7.3,17179],[4.5,17258],[3.8,17342],[3.8,17424],[3.8,17508],[3.8,17591],[3.8,17674],[3.8,17757],[3.8,17840],[3.8,17924],[3.8,18007],[3.8,18091],[3.8,18174],[3.8,18258],[3.8,18342],[3.8,18424],[3.8,18508],[3.8,18591],[3.8,18674],[3.8,18757],[3.9,18840],[3.9,18925],[3.9,19008],[4,19091],[4.1,19175],[4.9,19258],[5.6,19340],[6.2,19425],[8.8,19508],[11.8,19591],[13.6,19675],[16.5,19757],[20.7,19840],[24.3,19924],[27.2,20008],[28.4,20091],[29.6,20174],[30.4,20258],[30.9,20341],[31.6,20424],[32.5,20508],[32.9,20590],[32.9,20673],[32.9,20759],[32.9,20841],[32.9,20925],[32.9,21009],[33.4,21091],[38.2,21175],[41.7,21258],[43.5,21342],[44.5,21425],[46.2,21508],[46.6,21592],[47,21674],[48.3,21758],[49.3,21841],[50.1,21925],[50.1,22007],[50.1,22091],[50.1,22174],[50.1,22257],[50.1,22341],[50.1,22424],[50.1,22508],[50.1,22592],[50.1,22674],[50.1,22757],[50.1,22841],[50.1,22925],[50.1,23008],[50.1,23091],[50.1,23174],[50.1,23258],[50.1,23342],[50.1,23424],[50.1,23508],[50.1,23591],[50.1,23673],[50.1,23757],[50.1,23842],[50.1,23926],[50.1,24008],[50.1,24090],[50.1,24174],[50.1,24257],[50.1,24340],[50.1,24424],[50.1,24508],[50.1,24590],[50.1,24674],[50.1,24759],[50.1,24840],[50.1,24925],[50.1,25007],[50.1,25091],[50.1,25176],[50.1,25267],[50.1,25349],[50.1,25432],[50.1,25516],[50.1,25599],[50.1,25682],[50.1,25766],[50.1,25849],[50.1,25933],[50.1,26016],[49.6,26098],[43.4,26183],[38.1,26266],[35.5,26349],[33.3,26433],[31.4,26516],[30.9,26599],[30.9,26683],[30.9,26766],[30.2,26849],[29.5,26933],[29.5,27016],[29.5,27099],[28.9,27183],[27.3,27266],[24.9,27352],[21.3,27433],[18.9,27516],[18.6,27600],[18.6,27683],[18.6,27766],[17,27850],[12.1,27933],[10.2,28016],[10.2,28099],[10.2,28183],[10.2,28265],[10.2,28349],[10.2,28433],[10.2,28518],[10.3,28600],[10.3,28683],[10.3,28766],[10.4,28849],[10.4,28933],[10.4,29016],[10.4,29099],[10.4,29182],[10.4,29265],[10.5,29349],[10.7,29433],[11,29516],[11.1,29598],[11.3,29683],[11.6,29766],[12.2,29849],[12.5,29933],[12.6,30016],[12.6,30099],[12.7,30182],[13,30266],[13.2,30349],[13.3,30432],[13.3,30516],[13.3,30600],[13.3,30683],[13.3,30765],[13.3,30849],[13.3,30933],[13.3,31015],[13.3,31099],[13.3,31182],[13.3,31265],[13.3,31350],[13.3,31433],[13.3,31515],[13.3,31599],[13.3,31683],[13.3,31766],[13.3,31849],[13.3,31935],[13.3,32016],[13.3,32098],[13.3,32183],[18.9,32266],[24.3,32349],[26.3,32433],[29.2,32515],[31.7,32600],[33,32683],[34.4,32766],[35.8,32848],[36.4,32932],[36.4,33016],[36.4,33099],[36.4,33183],[36.4,33265],[36.8,33349],[37.1,33433],[37.3,33516],[37.5,33600],[37.8,33682],[38.2,33766],[42.4,33850],[49.2,33937],[51.8,34016],[55.9,34100],[64,34183],[71.2,34266],[74,34349],[74.1,34433],[73.9,34515],[74,34600],[74.3,34683],[74.3,34766],[74.3,34849],[74.3,34933],[77.2,35016],[80.5,35099],[81.5,35183],[82.5,35269],[82.6,35350],[82.6,35433],[82.6,35516],[82.6,35600],[82.6,35683],[82.6,35765],[82.6,35850],[82.6,35933],[82.6,36016],[82.6,36099],[82.6,36183],[82.6,36266],[82.6,36349],[82.6,36433],[82.6,36516],[82.6,36599],[82.6,36683],[82.6,36766],[82.6,36849],[82.6,36933],[82.6,37016],[82.6,37099],[82.6,37182],[82.6,37266],[82.6,37349],[82.6,37433],[82.6,37516],[85.1,37600],[89.1,37685],[93,37766],[95.9,37849],[99.9,37935],[100,38016],[100,38099],[100,38183],[100,38266],[100,38349],[100,38433],[100,38516],[100,38599],[100,38683],[100,38766],[100,38850],[100,38933],[100,39016],[100,39099],[100,39183],[100,39266],[100,39349],[100,39433],[100,39516],[100,39600],[100,39682],[100,39766],[100,39849],[100,39933],[100,40016],[100,40099],[100,40183],[100,40266],[100,40349],[100,40433],[100,40516],[100,40599],[100,40683],[100,40765],[100,40849],[100,40933],[100,41016],[100,41100],[100,41183],[100,41267],[100,41350],[100,41433],[100,41516],[99.2,41600],[97.9,41683],[97.8,41766],[97.8,41850],[98,41933],[98.2,42016],[98.4,42100],[98.5,42182],[98.6,42266],[98.6,42350],[98.6,42432],[98.7,42516],[98.8,42599],[99.2,42683],[99.9,42766],[100,42850],[100,42933],[100,43016],[100,43099],[100,43183],[100,43269],[100,43349],[100,43432],[100,43515],[100,43600],[100,43682],[100,43767],[100,43849],[100,43932],[100,44016],[100,44099],[100,44183],[100,44266],[100,44350],[100,44433],[100,44516],[100,44601],[100,44682],[100,44767],[100,44849],[100,44932],[100,45015],[100,45099],[100,45182],[100,45266],[100,45350],[100,45434],[100,45516],[100,45599],[100,45682],[100,45765],[100,45850],[100,45934],[100,46016],[100,46099],[100,46183],[100,46266],[100,46350],[100,46432],[100,46515],[100,46598],[100,46683],[100,46766],[100,46849],[100,46933],[100,47016],[100,47101],[100,47182],[100,47266],[100,47349],[100,47432],[100,47516],[100,47599],[100,47683],[100,47768],[100,47850],[100,47934],[100,48016],[100,48099],[100,48182],[100,48266],[100,48349],[100,48432],[100,48516],[100,48600],[100,48682],[100,48766],[100,48850],[100,48934],[100,49016],[100,49099],[100,49185],[100,49265],[100,49349],[100,49434],[100,49516],[100,49599],[100,49683],[100,49768],[100,49849],[100,49932],[100,50016],[100,50099],[100,50183],[100,50265],[100,50349],[100,50433],[100,50519],[100,50598],[100,50683],[100,50766],[100,50850],[100,50933],[100,51016],[100,51100],[100,51183],[100,51266],[100,51352],[100,51432],[100,51516],[100,51599],[100,51682],[100,51768],[100,51850],[100,51933],[100,52016],[100,52100],[100,52183],[100,52266],[100,52349],[100,52433],[100,52516],[100,52600],[100,52683],[100,52766],[100,52849],[100,52932],[100,53016],[100,53100],[100,53185],[100,53266],[100,53349],[100,53433],[100,53518],[100,53599],[100,53682],[100,53766],[100,53850],[100,53933],[100,54016],[100,54102],[100,54184],[100,54266],[100,54358],[100,54440],[100,54524],[100,54607],[100,54691],[100,54774],[100,54857],[100,54941],[100,55024],[100,55108],[100,55191],[100,55274],[100,55357],[100,55440],[100,55524],[100,55607],[100,55691],[100,55774],[100,55857]]",1,0,257.7679,262.2923,74.14589534,3.1375,"[{""rating"":74.14589533730158,""responseTime"":3.1374999999999886}]",space,4.0005,,262.2923,Definitely yes,100,262.2944,,,[],,0,1,1,1,1,audio/Narrative7Situation1.wav,audio/Narrative8Situation1.wav,audio/Narrative5Situation1.wav,audio/Narrative6Situation1.wav,2,5,5,2,3.0714,,,,,,,,,,,,,,,,,,,,,,,,,,,,,,,,,,
,,,,,,60fee712cac724d08d2d8858,2024-02-08_16h04.31.501,group3.1-3.2-social-tom,2023.2.2,MacIntel,117.6470588,65c5074098b851296ff0b7ed,65c5419152c4ab9205c43f7f,,,,,,,,,,,,,,,,,,,,,,,,,,,,,262.2945,1,audio/Narrative7Situation2.wav,265.3001,,265.3003,272.7588,"[[73.7,1333],[71.7,1417],[70,1499],[66.7,1583],[61.6,1666],[57.6,1750],[56.1,1832],[56.1,1916],[56.1,2000],[56.1,2083],[59.1,2166],[65.1,2249],[71.2,2333],[75.7,2422],[79.3,2500],[80.1,2583],[80.1,2666],[80.1,2750],[80.1,2833],[82.2,2916],[83.2,3000],[83.4,3082],[83.4,3172],[83.4,3249],[85.8,3333],[89.8,3415],[91,3500],[91,3583],[91,3666],[91,3750],[91,3834],[93.4,3916],[95.6,4000],[97,4082],[98.2,4168],[98.9,4250],[99.3,4335],[99.6,4417],[99.6,4500],[99.6,4582],[99.6,4666],[99.6,4749],[99.6,4833],[99.6,4917],[99.6,5000],[99.6,5083],[99.6,5165],[99.6,5250],[99.6,5333],[99.6,5416],[99.6,5500],[99.6,5583],[99.6,5666],[99.6,5750],[99.6,5834],[99.6,5916],[99.6,5999],[99.6,6083],[99.6,6166],[99.6,6249],[99.6,6332],[99.6,6416],[99.6,6500],[99.6,6582],[99.6,6665],[99.6,6750],[99.6,6833],[99.6,6915],[99.6,6999],[99.6,7083],[99.6,7165],[99.6,7250],[99.6,7333],[99.6,7418]]",1,0,272.7588,279.7923,98.91234706,5.652,"[{""rating"":98.9123470568783,""responseTime"":5.652000000000044}]",space,6.5167,,279.7923,Partially,50,279.7942,,,[],,0,2,2,2,1,audio/Narrative7Situation2.wav,audio/Narrative8Situation2.wav,audio/Narrative5Situation2.wav,audio/Narrative6Situation2.wav,3,3,3,3,,,,,,,,,,,,,,,,,,,,,,,,,,,,,,,,,,,
,,,,,,60fee712cac724d08d2d8858,2024-02-08_16h04.31.501,group3.1-3.2-social-tom,2023.2.2,MacIntel,117.6470588,65c5074098b851296ff0b7ed,65c5419152c4ab9205c43f7f,,,,,,,,,,,,,,,,,,,,,,,,,,,,,279.7944,1,audio/Narrative7Situation3.wav,287.8002,,287.8002,297.0332,"[[49.7,750],[50.2,832],[50.2,916],[50.2,1000],[50.2,1084],[50.2,1166],[50.2,1249],[50.2,1335],[50.2,1416],[50.2,1500],[50.2,1583],[50.2,1667],[50.4,1750],[50.7,1834],[51.2,1918],[51.6,2000],[52.2,2083],[53.8,2169],[57.6,2249],[58.4,2332],[58.4,2416],[56.3,2500],[48.4,2587],[39.2,2670],[32.6,2750],[31.7,2833],[31.7,2917],[31.7,2999],[30,3083],[25.3,3166],[24.5,3250],[22.6,3333],[19.7,3416],[18.2,3500],[17.9,3583],[17.7,3667],[14.7,3754],[13.8,3833],[13.8,3916],[13.9,4000],[13.9,4083],[13.8,4166],[13.8,4250],[13.8,4333],[13.8,4417],[13.8,4501],[13.8,4583],[13.8,4666],[13.8,4750],[13.8,4833],[13.8,4916],[13.8,4999],[13.8,5084],[13.8,5167],[13.8,5250],[13.8,5334],[13.8,5416],[14.8,5500],[19.3,5583],[26.9,5666],[31.7,5750],[34.4,5833],[37.4,5916],[41.6,6000],[48,6083],[54.3,6168],[55.4,6250],[55.4,6333],[55.4,6418],[55.4,6499],[55.4,6583],[54.8,6667],[52.2,6750],[48.6,6833],[44.4,6916],[39.9,6999],[39.9,7082],[39.9,7167],[39.9,7249],[37.7,7333],[35.4,7417],[35.3,7500],[35.3,7583],[35.3,7667],[35.1,7750],[33.3,7833],[31.5,7917],[31.3,8000],[30.5,8083],[27.8,8167],[26.9,8251],[26.8,8333],[26.8,8418],[26.8,8500],[26.8,8583],[26.8,8666],[26.8,8750],[26.8,8832],[26.8,8916],[26.8,9000],[26.8,9084],[26.8,9166]]",1,0,297.0334,301.9419,10.43113426,3.6949,"[{""rating"":10.431134259259261,""responseTime"":3.6949000000954015}]",space,4.395,,301.942,Partially,50,301.9436,,,[],,0,3,3,3,1,audio/Narrative7Situation3.wav,audio/Narrative8Situation3.wav,audio/Narrative5Situation3.wav,audio/Narrative6Situation3.wav,8,4,3,5,,,,,,,,,,,,,,,,,,,,,,,,,,,,,,,,,,,
,,,,,,60fee712cac724d08d2d8858,2024-02-08_16h04.31.501,group3.1-3.2-social-tom,2023.2.2,MacIntel,117.6470588,65c5074098b851296ff0b7ed,65c5419152c4ab9205c43f7f,,,,,,,,,,,,,,,,,,,,,,,,,,,,,301.9437,1,audio/Narrative7Situation4.wav,304.9454,,304.9454,316.66,"[[38.8,79],[39.9,163],[41.5,246],[43.1,329],[45.6,413],[47.8,498],[48.5,580],[48.5,663],[48.5,747],[48.5,831],[48.5,913],[48.5,996],[48.5,1079],[48.8,1163],[49.2,1246],[49.2,1330],[44.4,1413],[32,1496],[24.5,1579],[23.2,1662],[23.2,1746],[23.2,1829],[23.2,1913],[23.2,1996],[22.7,2079],[21.4,2163],[19.8,2247],[18.5,2329],[18.3,2413],[18.3,2496],[17.9,2579],[17.6,2663],[17.6,2745],[17.5,2829],[16,2913],[14.1,2996],[13.2,3080],[11.8,3164],[10.9,3246],[10.8,3329],[10.5,3413],[9.6,3496],[9.2,3580],[9.2,3663],[9.2,3746],[9.2,3830],[9.2,3913],[8.6,3996],[7.2,4080],[6.7,4163],[6.7,4246],[6.7,4329],[6.7,4412],[6.7,4496],[6.3,4579],[5.2,4663],[5,4746],[5,4829],[5,4913],[5.1,4996],[5.1,5079],[5.1,5163],[5.1,5246],[5.1,5330],[5.1,5412],[5.2,5495],[5.2,5579],[5.2,5665],[5.1,5746],[4,5829],[3.2,5913],[2.7,5996],[1.9,6079],[1.3,6163],[0.8,6246],[0.5,6333],[0.2,6412]]",1,0,316.6603,320.8588,0.090422454,2.1007,"[{""rating"":0.0904224537037035,""responseTime"":2.1007000002861105}]",space,3.674,,320.8588,Definitely yes,100,320.8603,,,[],,0,4,4,4,1,audio/Narrative7Situation4.wav,audio/Narrative8Situation4.wav,audio/Narrative5Situation4.wav,audio/Narrative6Situation4.wav,3,3,1,2,,,,,,,,,,,,,,,,,,,,,,,,,,,,,,,,,,,
,,,,,,60fee712cac724d08d2d8858,2024-02-08_16h04.31.501,group3.1-3.2-social-tom,2023.2.2,MacIntel,117.6470588,65c5074098b851296ff0b7ed,65c5419152c4ab9205c43f7f,,,,,,,,,,,,,,,,,,,,,,,,,,,,,320.8605,1,audio/Narrative7Situation5.wav,325.867,,325.867,334.3417,"[[47.3,2260],[47.6,2341],[48.1,2425],[48.3,2508],[42.5,2596],[34.8,2674],[31.4,2758],[31.2,2841],[31.2,2925],[31.2,3007],[31.2,3091],[31.2,3175],[31.2,3258],[23.5,3341],[19.8,3425],[19.7,3508],[19.7,3591],[19.7,3674],[17.8,3757],[15.7,3841],[15.7,3925],[15.7,4008],[16.2,4092],[16.4,4175],[16.4,4257],[16.4,4341],[16.4,4425],[16.4,4508],[16.4,4591],[16.4,4674],[16.4,4757],[16.4,4841],[16.4,4924],[16.4,5008],[16.4,5091],[16.4,5175],[16.4,5258],[16.4,5340],[16.4,5424],[16.4,5507],[16.4,5590],[16.4,5673],[16.4,5758],[16.4,5841],[16.4,5925],[15.7,6007],[15.1,6091],[14.9,6175],[13.8,6258],[12.6,6340],[12.3,6424],[12,6508],[11.4,6591],[10.9,6675],[10.5,6758],[10.4,6841],[10,6926],[8.8,7008],[8.4,7091],[8.1,7175],[8.1,7257],[8.1,7340],[8.1,7424],[8.1,7508],[8.1,7593],[8.1,7674],[8.1,7758],[8.1,7842],[8.1,7925],[8.1,8007],[8.1,8091],[8.1,8175],[8.1,8258],[8.1,8341],[8.1,8424]]",1,0,334.3418,339.4004,6.100157077,3.9222,"[{""rating"":6.100157076719576,""responseTime"":3.9221999998092656}]",space,4.5463,,339.4005,Partially,50,339.4026,,,[],,0,5,5,5,1,audio/Narrative7Situation5.wav,audio/Narrative8Situation5.wav,audio/Narrative5Situation5.wav,audio/Narrative6Situation5.wav,5,2,5,2,,,,,,,,,,,,,,,,,,,,,,,,,,,,,,,,,,,
,,,,,,60fee712cac724d08d2d8858,2024-02-08_16h04.31.501,group3.1-3.2-social-tom,2023.2.2,MacIntel,117.6470588,65c5074098b851296ff0b7ed,65c5419152c4ab9205c43f7f,,,,,,,,,,,,,,,,,,,,,,,,,,,,,339.4028,1,audio/Narrative7Situation6.wav,342.4087,,342.4089,352.3677,"[[9.2,840],[8.3,927],[7.7,1008],[7.4,1091],[6.8,1173],[6,1257],[5.6,1341],[5.5,1423],[5.5,1507],[5.5,1591],[5.5,1674],[5.5,1758],[5.5,1841],[5.5,1924],[5.5,2008],[5.5,2090],[5.5,2174],[5.5,2257],[5.5,2340],[5.5,2423],[5.5,2507],[5.5,2591],[5.6,2674],[13.7,2757],[31.7,2841],[38.7,2924],[39.4,3007],[39.4,3092],[39.4,3174],[40.6,3258],[51.7,3341],[59.2,3424],[62.2,3507],[62.2,3591],[62.2,3674],[62.2,3757],[64.3,3840],[69.6,3927],[73,4007],[77.6,4092],[79.3,4174],[79.3,4257],[79.3,4340],[79.3,4424],[81.7,4507],[86.9,4591],[91.6,4674],[95.6,4757],[98.8,4841],[100,4925],[100,5008],[100,5095],[100,5174],[100,5257],[100,5341],[100,5424],[100,5507],[100,5591],[100,5674],[100,5758],[100,5840],[100,5924],[100,6007],[100,6091],[100,6174],[100,6257],[100,6341],[100,6423],[100,6507],[100,6590],[100,6673],[100,6758],[100,6841],[100,6924],[100,7008],[100,7090],[100,7174],[100,7257],[100,7341],[100,7424],[100,7508],[100,7591],[100,7674],[100,7757],[100,7841],[100,7924],[100,8007],[100,8091],[100,8174],[100,8258],[100,8341],[100,8425],[100,8508],[100,8590],[100,8674],[100,8757],[100,8841],[100,8924],[100,9007],[100,9091],[100,9174],[100,9258],[100,9342],[100,9424],[100,9507],[100,9591],[100,9675],[100,9757],[100,9841],[100,9924]]",1,0,352.368,356.6086,81.08155589,1.9346,"[{""rating"":81.08155588624338,""responseTime"":1.9345999999046057}]",space,3.7216,,356.6088,Not at all,0,356.612,,,[],,0,6,6,6,1,audio/Narrative7Situation6.wav,audio/Narrative8Situation6.wav,audio/Narrative5Situation6.wav,audio/Narrative6Situation6.wav,3,2,3,2,,,,,,,,,,,,,,,,,,,,,,,,,,,,,,,,,,,
,,,,,,60fee712cac724d08d2d8858,2024-02-08_16h04.31.501,group3.1-3.2-social-tom,2023.2.2,MacIntel,117.6470588,65c5074098b851296ff0b7ed,65c5419152c4ab9205c43f7f,,,,,,,,,,,,,,,,,,,,,,,,,,,,,356.6122,1,audio/Narrative7Situation7.wav,361.6162,,361.6163,378.7664,"[[49.3,667],[49.4,750],[49.5,834],[49.6,917],[50.1,1000],[51.5,1083],[52.1,1167],[52.2,1250],[52.2,1334],[52.2,1417],[52.2,1500],[52.2,1583],[52.2,1667],[52.2,1750],[52.2,1833],[51.7,1917],[49.4,2001],[46.2,2085],[44.9,2167],[44.9,2250],[44.9,2333],[41.6,2417],[20.2,2503],[14.1,2583],[11.9,2666],[10.5,2750],[9,2834],[8.3,2917],[8.3,3000],[8.3,3083],[8.3,3167],[8.3,3250],[8.3,3334],[8.3,3416],[8.3,3500],[8.3,3583],[8.3,3667],[8,3750],[7.9,3832],[7.9,3916],[7.9,4000],[7.9,4084],[7.9,4167],[7.9,4250],[7.9,4333],[7.9,4417],[7.9,4499],[7.9,4583],[7.9,4667],[7.9,4750],[7.9,4832],[7.9,4917],[7.9,5000],[7.9,5084],[7.9,5167],[7.9,5250],[7.9,5334],[7.9,5417],[7.9,5500],[7.9,5583],[7.9,5666],[7.9,5750],[7.9,5833],[7.7,5917],[6.9,6000],[6.6,6083],[6.5,6166],[6.1,6250],[5.8,6334],[5.8,6417],[5.8,6499],[5.9,6584],[6.1,6667],[11.5,6750],[26.8,6833],[39.2,6918],[39.2,7000],[39.2,7083],[39.2,7167],[41.1,7251],[53.9,7333],[68.5,7417],[80.1,7500],[80.8,7582],[80.8,7667],[80.8,7749],[83.7,7834],[88.6,7918],[90.4,8000],[90.6,8087],[92,8167],[92.4,8250],[92.4,8334],[92.4,8416],[92.4,8500],[92.4,8583],[92.4,8666],[92.4,8750],[92.4,8834],[92.4,8916],[92.4,9000],[92.4,9083],[92.4,9167],[92,9249],[87.5,9333],[76.5,9417],[62.9,9500],[58.2,9583],[57.9,9667],[57.9,9750],[57.9,9834],[57.7,9917],[53.2,10000],[51.2,10084],[50.2,10167],[50,10250],[50,10333],[50,10416],[50,10500],[50,10584],[50,10666],[50,10750],[49.9,10834],[49.1,10916],[48.8,11000],[48.6,11084],[48.4,11167],[48.4,11250],[48.7,11333],[52.7,11417],[64.7,11500],[72,11582],[73.3,11667],[74.1,11749],[75.4,11832],[77.3,11917],[78.3,11999],[79,12083],[80.4,12167],[80.8,12250],[80.8,12334],[80.8,12417],[80.8,12499],[80.8,12584],[80.8,12667],[80.8,12749],[80.3,12834],[79,12916],[78.4,13004],[78.3,13083],[78.2,13167],[78.2,13250],[78.2,13333],[78.2,13417],[78.1,13500],[77.6,13583],[77.2,13667],[77.2,13750],[77.2,13834],[77.2,13917],[77.2,14000],[77.2,14083],[77.2,14167],[77.2,14250],[77.2,14333],[77.2,14416],[77.2,14500],[77.2,14584],[77.2,14667],[77.2,14750],[77.2,14833],[77.2,14917],[77.2,15000],[77.2,15083],[77.6,15166],[78.8,15250],[79,15334],[79.3,15417],[79.6,15500],[79.9,15583],[80.4,15667],[80.5,15750],[80.5,15834],[80.5,15917],[80.5,16000],[80.5,16083],[80.5,16166],[80.5,16251],[80.5,16333],[80.5,16417],[80.5,16500],[80.5,16583],[80.5,16667],[80.5,16750],[80.5,16834],[80.3,16920],[79.6,17000],[78.9,17084]]",1,0,378.7665,382.9002,73.2390873,3.0434,"[{""rating"":73.2390873015873,""responseTime"":3.043400000095346}]",space,3.6121,,382.9002,Partially,50,382.9024,,,[],,0,7,7,7,1,audio/Narrative7Situation7.wav,audio/Narrative8Situation7.wav,audio/Narrative5Situation7.wav,audio/Narrative6Situation7.wav,5,3,4,5,,,,,,,,,,,,,,,,,,,,,,,,,,,,,,,,,,,
,,,,,,60fee712cac724d08d2d8858,2024-02-08_16h04.31.501,group3.1-3.2-social-tom,2023.2.2,MacIntel,117.6470588,65c5074098b851296ff0b7ed,65c5419152c4ab9205c43f7f,,,,,,,,,,,,,,,,,,,,,,,,,,,,,382.9026,1,audio/Narrative7Situation8.wav,384.9094,,384.9094,394.9169,"[[60.9,1331],[54.8,1415],[53.1,1499],[52.2,1582],[51.5,1665],[50.7,1753],[50.4,1831],[50.3,1915],[49.8,1999],[49.6,2082],[49.6,2166],[49.6,2248],[49.6,2331],[49.6,2415],[45.6,2499],[34.1,2584],[29,2665],[27.1,2747],[27.1,2832],[27.1,2915],[27.1,2998],[19.5,3082],[14.1,3165],[12.5,3248],[12.1,3332],[12.1,3415],[12.1,3498],[12.2,3581],[12.3,3665],[12.3,3748],[12.3,3832],[12.3,3915],[12.3,3998],[12.3,4081],[12.3,4165],[12.3,4249],[12.3,4332],[12.3,4415],[12.3,4499],[12.3,4581],[12.3,4665],[12.3,4749],[12.3,4832],[12.3,4915],[12.3,4999],[12.3,5081],[12.3,5168],[12.3,5249],[12.3,5332],[12.3,5415],[12.3,5499],[12.8,5582],[19.3,5665],[25.2,5751],[30.3,5832],[36.4,5915],[41.8,5998],[47.5,6082],[49.7,6165],[49.7,6248],[49.7,6332],[49.7,6414],[51.7,6499],[59.7,6582],[65.3,6665],[70.6,6749],[73.7,6831],[76.6,6915],[78.9,6999],[79,7082],[79,7165],[79,7248],[79,7332],[80.2,7415],[83,7499],[86.3,7581],[88.3,7665],[90.1,7749],[90.9,7833],[92.9,7915],[94.4,7998],[94.6,8082],[94.6,8164],[94.6,8249],[94.6,8332],[94.6,8415],[94.6,8498],[94.6,8582],[94.6,8665],[94.6,8749],[94.6,8831],[94.6,8915],[94.6,8998],[94.6,9082],[94.6,9165],[94.6,9248],[94.6,9332],[94.6,9415],[94.6,9499],[94.6,9582],[94.6,9665],[94.6,9748],[94.6,9831],[94.6,9915],[94.6,9998]]",1,0,394.917,397.4502,50.1865286,1.4693,"[{""rating"":50.18652860449735,""responseTime"":1.4693000001907421}]",space,2.016,,397.4502,Partially,50,397.4517,,,[],,0,8,8,8,1,audio/Narrative7Situation8.wav,audio/Narrative8Situation8.wav,audio/Narrative5Situation8.wav,audio/Narrative6Situation8.wav,2,3,3,5,,,,,,,,,,,,,,,,,,,,,,,,,,,,,,,,,,,
,,,,,,60fee712cac724d08d2d8858,2024-02-08_16h04.31.501,group3.1-3.2-social-tom,2023.2.2,MacIntel,117.6470588,65c5074098b851296ff0b7ed,65c5419152c4ab9205c43f7f,,,,,,,,,,,,,,,,,,,,,,,,,,,,,397.4518,1,audio/Narrative7Situation9.wav,399.4521,,399.4522,408.0668,"[[49.1,1081],[48.3,1165],[48.3,1247],[48.6,1330],[49.1,1413],[49.5,1497],[50,1581],[53.1,1664],[60.9,1749],[70.7,1831],[70.7,1914],[70.7,1997],[70.7,2081],[75.8,2164],[91.1,2247],[96.5,2330],[98.4,2414],[98.8,2499],[98.9,2581],[98.9,2664],[98.9,2748],[98.9,2831],[98.9,2913],[98.9,2998],[98.9,3081],[98.9,3164],[98.9,3246],[98.9,3331],[98.9,3414],[98.9,3497],[98.9,3580],[98.9,3665],[98.9,3747],[98.9,3831],[98.9,3914],[98.9,3997],[98.9,4080],[98.9,4164],[98.9,4255],[98.9,4339],[98.9,4422],[98.9,4505],[98.9,4588],[98.9,4672],[98.9,4757],[98.9,4839],[98.9,4922],[98.9,5005],[98.9,5089],[98.9,5172],[98.9,5255],[98.9,5338],[98.9,5422],[98.5,5506],[98.1,5588],[97.7,5680],[97.2,5757],[97.2,5839],[97.2,5921],[97.3,6005],[97.4,6088],[97.5,6173],[97.8,6255],[98.2,6339],[98.4,6426],[98.7,6505],[98.7,6588],[98.7,6672],[98.7,6758],[98.7,6839],[99.2,6922],[100,7006],[100,7091],[100,7173],[100,7256],[100,7339],[100,7422],[100,7506],[100,7589],[100,7673],[100,7756],[100,7839],[100,7921],[100,8006],[100,8089],[100,8172],[100,8257],[100,8338],[100,8422],[100,8505],[100,8588]]",1,0,408.0669,411.3246,99.30142196,2.0447,"[{""rating"":99.30142195767195,""responseTime"":2.044699999809211}]",space,2.7316,,411.3246,Not at all,0,411.3266,,,[],,0,9,9,9,1,audio/Narrative7Situation9.wav,audio/Narrative8Situation9.wav,audio/Narrative5Situation9.wav,audio/Narrative6Situation9.wav,2,3,3,4,,,,,,,,,,,,,,,,,,,,,,,,,,,,,,,,,,,
,,,,,,60fee712cac724d08d2d8858,2024-02-08_16h04.31.501,group3.1-3.2-social-tom,2023.2.2,MacIntel,117.6470588,65c5074098b851296ff0b7ed,65c5419152c4ab9205c43f7f,,,,,,,,,,,,,,,,,,,,,,,,,,,,,411.3268,1,audio/Narrative8Situation1.wav,416.3337,,416.3337,432.2327,"[[56.7,1758],[55.2,1841],[53.8,1924],[51.3,2009],[50.9,2091],[50.4,2174],[50.2,2257],[53.1,2341],[56.1,2424],[57.5,2508],[58.5,2591],[58.5,2674],[58.5,2757],[53.7,2841],[49.2,2924],[48.6,3007],[48.3,3090],[47.6,3174],[46.7,3258],[32.6,3340],[24.4,3424],[21.6,3507],[17.5,3590],[16.5,3674],[16.4,3758],[16.4,3840],[16.4,3924],[16.4,4007],[16.4,4090],[16.4,4174],[16.4,4257],[16.4,4341],[15,4424],[13.5,4508],[13.5,4591],[13.5,4674],[13.5,4757],[13.5,4840],[13.5,4923],[13.5,5008],[13.5,5091],[13.5,5173],[13.5,5257],[13.5,5341],[13.5,5424],[14.3,5507],[17.8,5590],[19.7,5674],[20.6,5757],[22.4,5844],[24.3,5924],[25.5,6007],[26.6,6095],[27.7,6180],[28,6258],[28,6340],[28,6424],[28,6509],[28,6590],[28,6674],[28,6758],[28.3,6841],[28.5,6923],[28.5,7007],[28.5,7091],[28.5,7175],[28.5,7257],[28.5,7341],[28.5,7428],[28.5,7507],[28.5,7591],[28.5,7674],[28.5,7757],[27.7,7840],[26.8,7924],[26.6,8007],[26.6,8090],[26.6,8174],[26.6,8257],[26.6,8340],[26.6,8424],[26.6,8508],[26.6,8591],[26.6,8673],[26.6,8757],[26.6,8841],[26.6,8923],[26.6,9007],[26.6,9091],[26.6,9175],[26.6,9257],[26.6,9341],[26.6,9424],[26.6,9508],[26.6,9590],[26.6,9674],[30.2,9757],[39.7,9841],[48.6,9925],[58,10007],[69.4,10091],[69.9,10175],[69.9,10258],[69.9,10341],[75,10424],[83.2,10507],[86.5,10590],[89.2,10674],[90,10758],[90.4,10842],[90.4,10924],[90.4,11007],[90.4,11091],[90.4,11175],[90.4,11257],[90.4,11340],[90.4,11426],[90.6,11508],[91,11590],[91.1,11675],[91.1,11758],[91.1,11842],[91.6,11924],[92.6,12007],[93.7,12091],[95.4,12174],[96.3,12262],[96.3,12340],[96.3,12424],[96.3,12507],[96.3,12591],[96.3,12674],[96.3,12759],[96.1,12844],[95.5,12924],[93.8,13009],[89.2,13091],[79.9,13174],[75.4,13258],[75.2,13341],[75.2,13425],[75.2,13507],[75.2,13591],[75.2,13674],[75.2,13758],[75.2,13841],[75.2,13923],[75.2,14008],[75.2,14093],[75.2,14175],[71,14257],[66.3,14341],[66,14425],[66,14508],[66,14590],[66,14674],[62.7,14758],[56.5,14841],[55.4,14924],[55.4,15007],[55.4,15090],[55.4,15174],[55.5,15257],[55.5,15340],[55.5,15424],[55.5,15507],[55.5,15590],[55.5,15675],[55.5,15757],[55.5,15840]]",1,0,432.2328,434.4166,50.3999256,1.2328,"[{""rating"":50.399925595238095,""responseTime"":1.2327999997139045}]",space,1.6677,,434.4168,Not at all,0,444.4916,0.008267196,6.0309,"[{""rating"":0.008267195767197588,""responseTime"":6.030900000095357}]",space,0,10,10,10,1,audio/Narrative8Situation1.wav,audio/Narrative7Situation1.wav,audio/Narrative6Situation1.wav,audio/Narrative5Situation1.wav,5,2,2,5,,,9.5588,,,,,,,,,,,,,,,,,,,,,,,,,,,,,,,,
,,,,,,60fee712cac724d08d2d8858,2024-02-08_16h04.31.501,group3.1-3.2-social-tom,2023.2.2,MacIntel,117.6470588,65c5074098b851296ff0b7ed,65c5419152c4ab9205c43f7f,,,,,,,,,,,,,,,,,,,,,,,,,,,,,444.4977,1,audio/Narrative8Situation2.wav,447.5004,,447.5007,457.6166,"[[51.5,999],[51.3,1082],[50.9,1170],[50.5,1249],[50.4,1333],[50.3,1415],[50.2,1499],[50.2,1581],[50.3,1665],[50.5,1749],[50.5,1832],[50.4,1915],[49.4,2002],[46,2082],[40.3,2166],[34.5,2248],[34.2,2333],[34.2,2415],[34.2,2499],[25.4,2585],[13.8,2670],[10.1,2748],[8.5,2831],[7.9,2915],[7.7,3000],[7.7,3082],[7.7,3165],[7.7,3249],[7.7,3333],[7.7,3415],[7.7,3498],[7.7,3582],[7.7,3666],[7.7,3749],[7.7,3831],[7.7,3914],[7.7,3998],[7.7,4081],[7.7,4165],[7.7,4250],[7.7,4331],[7.7,4415],[7.7,4499],[7.7,4582],[6.4,4665],[3.3,4748],[0.6,4832]]",1,0,457.6167,460.309,0.188078704,1.5984,"[{""rating"":0.1880787037037035,""responseTime"":1.5984000000953529}]",space,2.1728,,460.309,Partially,50,460.3123,,,[],,0,11,11,11,1,audio/Narrative8Situation2.wav,audio/Narrative7Situation2.wav,audio/Narrative6Situation2.wav,audio/Narrative5Situation2.wav,3,3,3,3,,,,,,,,,,,,,,,,,,,,,,,,,,,,,,,,,,,
,,,,,,60fee712cac724d08d2d8858,2024-02-08_16h04.31.501,group3.1-3.2-social-tom,2023.2.2,MacIntel,117.6470588,65c5074098b851296ff0b7ed,65c5419152c4ab9205c43f7f,,,,,,,,,,,,,,,,,,,,,,,,,,,,,460.3125,1,audio/Narrative8Situation3.wav,464.3169,,464.317,486.6834,"[[0.6,591],[4.2,674],[6.9,761],[10.4,841],[13.5,924],[19.4,1007],[28.3,1091],[28.9,1174],[28.9,1257],[28.9,1340],[28.9,1424],[30.2,1506],[31.5,1590],[31.5,1674],[31.5,1757],[31.5,1841],[32,1924],[32.1,2007],[31.1,2091],[24.4,2174],[17,2257],[14.7,2341],[14.6,2424],[14.6,2507],[14.6,2592],[14,2674],[11.1,2757],[9.6,2841],[9.4,2924],[10.2,3007],[30.2,3090],[57.2,3175],[60.1,3257],[60.1,3341],[60.1,3424],[60.1,3507],[63.5,3591],[64.7,3674],[64.8,3757],[64.8,3841],[64.8,3924],[64.8,4008],[64.8,4091],[64.8,4174],[64.8,4257],[64.8,4340],[64.8,4424],[64.8,4508],[64.8,4591],[64.8,4674],[64.8,4757],[64.8,4841],[64.8,4924],[64.8,5007],[64.8,5090],[64.8,5173],[64.8,5257],[64.8,5341],[64.8,5424],[64.8,5507],[64.8,5591],[64.8,5674],[64.8,5757],[64.8,5841],[64.8,5924],[64,6007],[52.6,6091],[41.6,6173],[38.4,6258],[38.4,6341],[38.4,6423],[38.3,6507],[30.9,6591],[26.8,6674],[26.7,6757],[26.4,6841],[25.9,6924],[25.9,7008],[25.9,7091],[25.9,7173],[25.9,7258],[25.9,7340],[25.9,7424],[25.9,7507],[25.9,7590],[25.9,7674],[25.9,7757],[25.9,7840],[25.9,7923],[25.9,8007],[25.9,8091],[25.9,8173],[25.9,8257],[25.9,8341],[31.9,8425],[44.8,8507],[63.1,8591],[73,8676],[74.6,8757],[74.6,8841],[74.6,8923],[74.6,9007],[75.7,9091],[77.9,9174],[78.2,9257],[78.4,9341],[79.3,9424],[81,9507],[82.2,9591],[82.3,9674],[82.3,9757],[82.3,9841],[82.3,9924],[82.3,10007],[82.3,10091],[82.3,10173],[82.3,10257],[82.3,10341],[82.3,10424],[82.3,10507],[82.3,10590],[82.3,10674],[82.3,10757],[82.3,10841],[82.3,10924],[82.3,11006],[82.2,11090],[82.2,11174],[82.2,11257],[82.2,11341],[82.2,11423],[82.2,11506],[82.2,11591],[82.2,11674],[82.2,11757],[82.2,11841],[82.2,11924],[82.2,12008],[82.2,12091],[82.2,12173],[82.2,12257],[82.2,12341],[82.3,12424],[83.9,12507],[84.6,12591],[84.7,12673],[85.5,12757],[86.1,12840],[86.1,12924],[86.1,13007],[86.1,13091],[86.1,13174],[89.3,13257],[94.7,13341],[97,13424],[98.4,13507],[98.9,13591],[99.1,13676],[99.1,13757],[99.1,13841],[99.1,13924],[99.1,14007],[99.1,14091],[99.1,14174],[99.1,14257],[99.1,14341],[99.1,14424],[99.1,14507],[99.1,14593],[99.1,14674],[99.1,14757],[99.1,14840],[99.1,14924],[99.1,15008],[99.1,15093],[99.1,15174],[99.1,15257],[99.1,15341],[99.1,15424],[99.1,15509],[99.8,15594],[100,15677],[100,15757],[100,15841],[100,15924],[100,16008],[100,16093],[100,16174],[100,16258],[100,16341],[100,16425],[100,16507],[100,16591],[100,16673],[100,16757],[100,16841],[100,16924],[100,17007],[100,17091],[100,17173],[100,17257],[100,17340],[100,17423],[100,17507],[100,17590],[100,17674],[100,17757],[100,17841],[100,17925],[100,18007],[100,18094],[100,18174],[100,18257],[100,18340],[100,18424],[100,18507],[100,18590],[100,18673],[100,18758],[100,18840],[100,18924],[100,19007],[100,19092],[100,19173],[100,19257],[100,19340],[100,19423],[100,19506],[100,19591],[100,19674],[100,19757],[100,19840],[100,19924],[100,20007],[100,20091],[100,20173],[100,20257],[100,20342],[100,20426],[100,20508],[100,20590],[100,20673],[100,20758],[100,20841],[100,20924],[100,21007],[100,21090],[100,21173],[100,21258],[100,21340],[100,21425],[100,21506],[100,21590],[100,21673],[100,21757],[100,21841],[100,21923],[100,22007],[100,22091],[100,22173],[100,22258],[100,22341]]",1,0,486.6835,490.1572,71.4828249,2.2469,"[{""rating"":64.1239872685185,""responseTime"":1.2271999998092156},{""rating"":71.48282490079364,""responseTime"":2.2469000000953656}]",space,2.9535,,490.1573,Not at all,0,490.1591,,,[],,0,12,12,12,1,audio/Narrative8Situation3.wav,audio/Narrative7Situation3.wav,audio/Narrative6Situation3.wav,audio/Narrative5Situation3.wav,4,8,5,3,,,,,,,,,,,,,,,,,,,,,,,,,,,,,,,,,,,
,,,,,,60fee712cac724d08d2d8858,2024-02-08_16h04.31.501,group3.1-3.2-social-tom,2023.2.2,MacIntel,117.6470588,65c5074098b851296ff0b7ed,65c5419152c4ab9205c43f7f,,,,,,,,,,,,,,,,,,,,,,,,,,,,,490.1592,1,audio/Narrative8Situation4.wav,493.1668,,493.167,507.3239,"[[50.6,999],[50.1,1082],[50.1,1165],[50.1,1250],[50.1,1334],[50.1,1415],[50.1,1499],[50.1,1581],[50.1,1666],[50.1,1748],[50.1,1832],[40.2,1915],[25.3,1999],[24.9,2081],[24.9,2166],[24.9,2248],[24.9,2334],[24.9,2416],[23.3,2499],[18.5,2582],[15.1,2667],[14.6,2748],[14.6,2839],[14.8,2915],[15,2999],[15.2,3082],[22,3165],[32,3248],[39.9,3332],[45.9,3416],[45.9,3498],[45.9,3582],[45.9,3666],[54.7,3749],[65.5,3832],[70.3,3915],[71.5,3999],[71.5,4082],[71.9,4166],[83.4,4249],[87.4,4333],[87.4,4416],[87.4,4498],[87.8,4582],[91.2,4665],[91.5,4749],[91.5,4831],[91.5,4924],[91.5,5007],[91.5,5090],[91.5,5174],[91.5,5257],[92.1,5341],[93.2,5424],[94.1,5506],[94.4,5592],[94.4,5674],[94.4,5758],[94.4,5840],[94.4,5924],[94.4,6008],[99,6090],[100,6174],[100,6258],[100,6340],[100,6425],[100,6507],[100,6590],[100,6674],[100,6757],[100,6840],[100,6924],[100,7008],[100,7090],[100,7174],[100,7257],[100,7340],[100,7425],[100,7507],[100,7591],[100,7673],[100,7757],[100,7840],[100,7924],[100,8007],[100,8090],[100,8176],[100,8257],[100,8340],[100,8423],[100,8507],[100,8591],[100,8674],[100,8757],[100,8840],[100,8924],[100,9007],[100,9090],[100,9174],[100,9257],[100,9340],[100,9424],[100,9506],[100,9590],[100,9673],[100,9757],[100,9841],[100,9924],[100,10008],[100,10090],[100,10176],[100,10257],[100,10340],[100,10424],[100,10508],[100,10591],[100,10673],[100,10757],[100,10840],[100,10924],[100,11007],[100,11090],[100,11173],[100,11257],[100,11341],[100,11424],[100,11507],[100,11591],[100,11676],[100,11757],[100,11840],[100,11924],[100,12008],[100,12092],[100,12175],[100,12257],[100,12341],[100,12424],[100,12507],[100,12591],[100,12674],[100,12757],[100,12840],[100,12924],[100,13007],[100,13091],[100,13174],[100,13257],[100,13342],[100,13424],[100,13507],[100,13592],[100,13676],[100,13757],[100,13841],[100,13924],[100,14009],[100,14090]]",1,0,507.3241,509.7239,98.34036045,1.5822,"[{""rating"":98.34036044973544,""responseTime"":1.5822000002860932}]",space,1.883,,509.724,Partially,50,509.726,,,[],,0,13,13,13,1,audio/Narrative8Situation4.wav,audio/Narrative7Situation4.wav,audio/Narrative6Situation4.wav,audio/Narrative5Situation4.wav,3,3,2,1,,,,,,,,,,,,,,,,,,,,,,,,,,,,,,,,,,,
,,,,,,60fee712cac724d08d2d8858,2024-02-08_16h04.31.501,group3.1-3.2-social-tom,2023.2.2,MacIntel,117.6470588,65c5074098b851296ff0b7ed,65c5419152c4ab9205c43f7f,,,,,,,,,,,,,,,,,,,,,,,,,,,,,509.7262,1,audio/Narrative8Situation5.wav,511.7328,,511.7328,519.9597,"[[79.1,666],[65.6,750],[56.9,834],[53.5,916],[50.3,1003],[48.6,1083],[48.5,1166],[48.8,1250],[49,1334],[49.2,1416],[49.3,1499],[49.4,1584],[49.5,1666],[49.6,1749],[49.6,1833],[49.6,1916],[49.6,2002],[49.6,2083],[49.6,2165],[52,2250],[60,2333],[72.8,2416],[82.1,2500],[90.6,2583],[92.4,2666],[92.4,2749],[92.4,2834],[92.4,2917],[94,3000],[98,3083],[99.4,3165],[99.6,3249],[99.6,3334],[99.6,3417],[99.6,3500],[99.6,3583],[99.6,3667],[99.6,3750],[99.6,3833],[99.6,3916],[99.6,3999],[99.6,4082],[99.6,4167],[99.6,4249],[99.6,4333],[99.6,4417],[99.6,4500],[99.6,4586],[99.6,4666],[99.6,4750],[99.6,4833],[99.6,4917],[99.6,5000],[99.6,5083],[99.6,5166],[99.6,5250],[99.6,5333],[99.6,5416],[99.6,5499],[99.6,5583],[99.6,5666],[99.6,5751],[99.6,5834],[99.6,5916],[99.6,6000],[99.6,6082],[99.6,6166],[99.6,6250],[99.6,6332],[99.6,6417],[99.6,6502],[99.6,6585],[99.6,6666],[99.6,6750],[99.6,6833],[99.6,6918],[99.6,6999],[99.6,7083],[99.6,7168],[99.6,7250],[99.6,7333],[99.6,7416],[99.6,7499],[99.6,7582],[99.6,7666],[99.6,7750],[99.6,7833],[99.6,7917],[99.6,8000],[99.6,8082],[99.6,8167]]",1,0,519.9598,521.6748,99.16346313,0.9185,"[{""rating"":99.16346312830689,""responseTime"":0.9184999999999945}]",space,1.1925,,521.675,Partially,50,521.6764,,,[],,0,14,14,14,1,audio/Narrative8Situation5.wav,audio/Narrative7Situation5.wav,audio/Narrative6Situation5.wav,audio/Narrative5Situation5.wav,2,5,2,5,,,,,,,,,,,,,,,,,,,,,,,,,,,,,,,,,,,
,,,,,,60fee712cac724d08d2d8858,2024-02-08_16h04.31.501,group3.1-3.2-social-tom,2023.2.2,MacIntel,117.6470588,65c5074098b851296ff0b7ed,65c5419152c4ab9205c43f7f,,,,,,,,,,,,,,,,,,,,,,,,,,,,,521.6765,1,audio/Narrative8Situation6.wav,523.6829,,523.6829,530.1321,"[[99,1000],[98.8,1083],[98.6,1166],[98.5,1249],[98.5,1332],[98.5,1416],[98.5,1500],[98.5,1583],[98.5,1667],[98.5,1749],[98.5,1832],[98.5,1916],[98.5,2000],[98.5,2083],[98.5,2166],[98.5,2250],[98.5,2333],[98.5,2416],[98.5,2500],[98.5,2583],[98.5,2666],[98.5,2750],[98.5,2833],[98.5,2916],[98.5,2999],[98.5,3083],[98.6,3166],[98.8,3250],[98.8,3333],[98.9,3416],[99,3499],[99,3582],[99,3666],[99.1,3750],[99.2,3833],[99.2,3916],[99.3,4000],[99.3,4083],[99.3,4166],[99.3,4250],[99.3,4332],[99.3,4416],[99.3,4500],[99.3,4583],[99.3,4666],[99.3,4749],[99.3,4832],[99.3,4916],[99.3,5000],[99.3,5083],[99.3,5166],[99.3,5249],[99.3,5333],[99.3,5417],[99.3,5499],[99.3,5583],[99.3,5665],[99.3,5749],[99.3,5833],[99.3,5916],[99.3,6000],[99.3,6083],[99.3,6165],[99.3,6249],[99.3,6333],[99.3,6416]]",1,0,530.1324,535.7079,88.41559193,4.8549,"[{""rating"":98.96608382936508,""responseTime"":1.1205999999045844},{""rating"":88.41559193121694,""responseTime"":4.85489999961851}]",space,5.0592,,535.708,Not at all,0,535.7095,,,[],,0,15,15,15,1,audio/Narrative8Situation6.wav,audio/Narrative7Situation6.wav,audio/Narrative6Situation6.wav,audio/Narrative5Situation6.wav,2,3,2,3,,,,,,,,,,,,,,,,,,,,,,,,,,,,,,,,,,,
,,,,,,60fee712cac724d08d2d8858,2024-02-08_16h04.31.501,group3.1-3.2-social-tom,2023.2.2,MacIntel,117.6470588,65c5074098b851296ff0b7ed,65c5419152c4ab9205c43f7f,,,,,,,,,,,,,,,,,,,,,,,,,,,,,535.7096,1,audio/Narrative8Situation7.wav,538.7158,,538.7158,550.7843,"[[87.2,1592],[76.4,1675],[71.5,1758],[71.8,1841],[68,1925],[53.7,2008],[49.5,2093],[49.5,2176],[49.5,2258],[49.5,2342],[49.5,2425],[49.5,2508],[49.6,2591],[49.8,2675],[50,2758],[50,2841],[50,2925],[50.3,3008],[51.5,3091],[54.2,3175],[56,3257],[57.5,3344],[58.1,3424],[58.6,3508],[59.4,3591],[60.1,3678],[60.2,3757],[60.3,3842],[60.3,3924],[60.3,4008],[59.7,4094],[59.5,4174],[59.5,4258],[58.6,4342],[47.4,4425],[35.8,4508],[26.1,4593],[20,4676],[19.2,4758],[19.2,4842],[19.2,4924],[17.9,5007],[15.7,5091],[13.4,5178],[11.1,5258],[9.6,5342],[9.4,5425],[9.4,5508],[9.4,5592],[9.4,5675],[9.4,5758],[9.4,5842],[9.4,5925],[9.4,6009],[9.4,6091],[9.4,6175],[8.4,6259],[8,6341],[8,6424],[8,6508],[8,6592],[8,6674],[8,6759],[8,6841],[8,6925],[8,7008],[8,7091],[8,7174],[8,7257],[8,7342],[8,7425],[8,7508],[8,7592],[8,7674],[8,7760],[8,7842],[8,7924],[8,8008],[8,8092],[8,8175],[8,8257],[8,8342],[8,8427],[8,8510],[8,8593],[8,8678],[8,8765],[8,8841],[8,8925],[8,9008],[8,9092],[8,9174],[8,9258],[8,9341],[8,9425],[8,9508],[8,9593],[8,9675],[8,9760],[8,9842],[8,9925],[8,10008],[8,10091],[8,10175],[8,10261],[8,10341],[8,10425],[8,10510],[8,10592],[8,10675],[8,10758],[8,10842],[8,10926],[8,11009],[8,11091],[8,11177],[8,11258],[8,11342],[8,11425],[8,11508],[8,11593],[8,11675],[8,11759],[8,11841],[8,11925],[8,12009]]",1,0,550.7846,553.6072,14.42987351,1.7952,"[{""rating"":14.429873511904761,""responseTime"":1.795199999809256}]",space,2.2978,,553.6074,Partially,50,553.6096,,,[],,0,16,16,16,1,audio/Narrative8Situation7.wav,audio/Narrative7Situation7.wav,audio/Narrative6Situation7.wav,audio/Narrative5Situation7.wav,3,5,5,4,,,,,,,,,,,,,,,,,,,,,,,,,,,,,,,,,,,
,,,,,,60fee712cac724d08d2d8858,2024-02-08_16h04.31.501,group3.1-3.2-social-tom,2023.2.2,MacIntel,117.6470588,65c5074098b851296ff0b7ed,65c5419152c4ab9205c43f7f,,,,,,,,,,,,,,,,,,,,,,,,,,,,,553.6098,1,audio/Narrative8Situation8.wav,556.6162,,556.6163,569.4496,"[[14.5,1833],[15,1916],[15.1,2000],[15.1,2082],[15.1,2167],[15.1,2249],[14.9,2333],[14.6,2416],[14.3,2499],[13.9,2582],[13.5,2666],[12.9,2749],[12,2833],[11.4,2916],[11.3,2999],[11.3,3082],[11.3,3165],[11.3,3250],[10.9,3333],[9,3419],[8.4,3500],[8,3583],[7.5,3666],[7,3749],[6.7,3834],[6.4,3916],[6.1,3999],[6.1,4082],[6.1,4166],[6.1,4250],[6.1,4332],[6.1,4416],[6.1,4500],[6.1,4582],[6.1,4666],[6.1,4750],[6.1,4833],[6.1,4916],[6.1,4999],[6.1,5083],[6.1,5166],[6.1,5250],[5.9,5333],[5.9,5416],[5.9,5499],[5.9,5583],[5.9,5666],[5.9,5750],[9.6,5833],[24.3,5916],[32.6,6000],[39.6,6083],[48.4,6166],[52.6,6249],[53.1,6333],[53.1,6416],[53.1,6500],[54.2,6583],[58.5,6666],[63.6,6750],[71.5,6842],[77.8,6928],[80.6,7008],[81.5,7091],[82,7174],[83,7258],[83.1,7341],[83.1,7424],[83.1,7507],[83.2,7591],[83.9,7675],[84.1,7758],[84.2,7841],[84.2,7924],[84,8007],[83.9,8091],[83.9,8174],[83.9,8258],[83.9,8341],[83.7,8424],[83.5,8508],[83.4,8591],[83.4,8674],[83.4,8758],[83.4,8840],[83.4,8923],[83.4,9008],[83.4,9091],[83.3,9174],[83.3,9257],[83.3,9341],[83.3,9424],[83.3,9507],[83.2,9590],[83.2,9674],[83.1,9758],[83.1,9842],[83,9923],[83,10007],[83,10091],[83,10174],[83,10259],[83,10341],[83.1,10424],[83.3,10508],[84.1,10591],[85.9,10676],[87.2,10758],[88.7,10841],[91.3,10929],[94.9,11009],[98.5,11090],[100,11179],[100,11260],[100,11341],[100,11424],[100,11507],[100,11592],[100,11674],[100,11757],[100,11841],[100,11926],[100,12008],[100,12093],[100,12174],[100,12258],[100,12340],[100,12424],[100,12508],[100,12590],[100,12673],[100,12757]]",1,0,569.4497,574.7496,83.2088087,4.7827,"[{""rating"":83.20880869708995,""responseTime"":4.782699999809324}]",space,4.7828,,574.7496,Definitely yes,100,574.7521,,,[],,0,17,17,17,1,audio/Narrative8Situation8.wav,audio/Narrative7Situation8.wav,audio/Narrative6Situation8.wav,audio/Narrative5Situation8.wav,3,2,5,3,,,,,,,,,,,,,,,,,,,,,,,,,,,,,,,,,,,
,,,,,,60fee712cac724d08d2d8858,2024-02-08_16h04.31.501,group3.1-3.2-social-tom,2023.2.2,MacIntel,117.6470588,65c5074098b851296ff0b7ed,65c5419152c4ab9205c43f7f,,,,,,,,,,,,,,,,,,,,,,,,,,,,,574.7524,1,audio/Narrative8Situation9.wav,577.7573,,577.7573,589.0572,"[[82.5,999],[80.2,1083],[75.9,1167],[73.1,1250],[68.4,1335],[63.9,1417],[60.8,1500],[59.1,1583],[58.6,1667],[58.6,1750],[58.6,1833],[57.7,1917],[54.9,2002],[54.3,2083],[53.2,2166],[51.8,2250],[51.1,2334],[50.5,2418],[49.9,2499],[49.5,2583],[49.5,2667],[49.5,2750],[49.5,2832],[49.5,2917],[49.5,3000],[49.5,3082],[49.5,3166],[49.5,3250],[52,3333],[54.1,3417],[58.5,3501],[63.2,3585],[65.3,3666],[65.5,3751],[65.5,3833],[65.5,3917],[65.5,4000],[65.5,4084],[65.5,4167],[65.3,4250],[65.2,4333],[65.2,4417],[66,4500],[69.6,4582],[73.6,4667],[75.2,4749],[75.7,4833],[75.7,4916],[75.7,5000],[75.8,5082],[83.9,5167],[89.5,5250],[91.4,5333],[93.9,5417],[95.7,5499],[97,5583],[97.7,5666],[97.9,5754],[98.4,5833],[99,5918],[99.5,5999],[99.8,6083],[99.9,6167],[99.9,6249],[99.9,6333],[99.9,6417],[99.9,6499],[99.9,6582],[99.9,6666],[99.9,6750],[99.9,6833],[99.9,6916],[99.9,7000],[99.9,7085],[99.9,7166],[99.9,7249],[99.9,7334],[99.9,7417],[99.9,7500],[99.9,7584],[99.9,7667],[99.9,7750],[99.9,7833],[99.9,7917],[99.9,8000],[99.9,8083],[99.9,8167],[99.9,8251],[99.9,8334],[99.9,8416],[99.9,8500],[99.9,8583],[99.9,8667],[99.9,8750],[99.9,8834],[99.9,8916],[99.9,9000],[99.9,9082],[99.9,9166],[99.9,9250],[99.9,9334],[99.9,9417],[99.9,9500],[99.9,9584],[99.9,9666],[99.9,9751],[99.9,9833],[99.9,9916],[99.9,10000],[99.9,10083],[99.9,10167],[99.9,10249],[99.9,10332],[99.9,10417],[99.9,10500],[99.9,10583],[99.9,10667],[99.9,10749],[99.9,10833],[100,10917],[100,11000],[100,11083],[100,11167],[100,11249]]",1,0,589.0573,594.0745,93.51593502,1.2672,"[{""rating"":93.51593501984127,""responseTime"":1.2672000002860386}]",space,4.5092,,594.0745,Definitely yes,100,594.0819,,,[],,0,18,18,18,1,audio/Narrative8Situation9.wav,audio/Narrative7Situation9.wav,audio/Narrative6Situation9.wav,audio/Narrative5Situation9.wav,3,2,4,3,,,,,,,,,,,,,,,,,,,,,,,,,,,,,,,,,,,
,,,,,,60fee712cac724d08d2d8858,2024-02-08_16h04.31.501,group3.1-3.2-social-tom,2023.2.2,MacIntel,117.6470588,65c5074098b851296ff0b7ed,65c5419152c4ab9205c43f7f,,,,,,,,,,,,,,,,,,,,,,,,,,,654.097,656.6665,656.6776,2,audio/Narrative13Situation2.wav,656.6777,,656.6777,686.4072,"[[75.7,3079],[75.1,3163],[75.1,3246],[75.1,3329],[63.4,3413],[54.3,3495],[53.6,3578],[53.6,3663],[53.6,3747],[52.9,3830],[51.4,3914],[49.7,3996],[47,4079],[43.9,4162],[43.8,4245],[43.8,4329],[43.8,4413],[41.2,4496],[32.4,4580],[31.2,4662],[31.2,4745],[31.2,4830],[31.2,4913],[31.2,4997],[31.2,5079],[31.2,5163],[31.2,5246],[31.2,5329],[31.2,5413],[31.2,5497],[31.2,5579],[31.2,5663],[31.2,5746],[31.2,5828],[31.2,5919],[31.2,5996],[31.2,6079],[31.2,6162],[31.2,6246],[31.2,6329],[31.2,6413],[31.2,6496],[31.2,6579],[31.2,6662],[31.2,6746],[31.8,6829],[34.3,6913],[34.7,6996],[34.7,7079],[34.7,7163],[34.7,7248],[34.7,7330],[34.7,7413],[38.9,7496],[42.7,7579],[44.3,7663],[46.3,7745],[46.9,7829],[46.9,7913],[46.9,7996],[46.9,8080],[46.9,8163],[46.9,8246],[46.9,8328],[46.9,8412],[46.9,8496],[46.9,8582],[46.9,8663],[46.9,8746],[47,8829],[51.6,8912],[68.3,8996],[77.3,9079],[77.3,9163],[77.3,9245],[77.5,9329],[83,9413],[87,9495],[87.5,9579],[87.9,9663],[87.9,9745],[87.9,9829],[87.9,9914],[87.9,9996],[87.9,10079],[87.9,10163],[87.9,10247],[87.9,10328],[87.9,10412],[87.9,10498],[87.9,10579],[87.9,10663],[87.9,10745],[87.9,10829],[87.9,10912],[87.9,10996],[87.9,11079],[87.9,11163],[87.9,11248],[87.9,11329],[87.9,11413],[87.9,11496],[87.9,11581],[87.9,11662],[87.9,11745],[87.9,11829],[87.9,11913],[87.4,11996],[77.5,12079],[63.4,12163],[62,12245],[62,12330],[62,12412],[62,12496],[62,12580],[62,12663],[62,12746],[62,12831],[62,12913],[62,12996],[62,13079],[62,13162],[62,13246],[62,13329],[62,13413],[62,13496],[62,13579],[62.2,13663],[63,13747],[63.3,13830],[63.3,13913],[63.3,13996],[63.3,14079],[63.3,14163],[63.3,14246],[63.6,14332],[63.9,14413],[64.1,14496],[64.1,14579],[64.1,14663],[64.1,14747],[64.1,14830],[64.2,14913],[65.9,14996],[67.7,15079],[68.5,15163],[70.3,15246],[71.5,15329],[72.1,15412],[72.1,15497],[64.1,15581],[47.4,15663],[38.7,15745],[36.8,15829],[36.8,15912],[36.8,15996],[34.6,16079],[22.4,16163],[19.6,16246],[19.7,16329],[19.7,16412],[19.7,16496],[19.7,16580],[19.7,16663],[19.7,16746],[19.7,16829],[19.7,16913],[19.4,16996],[19.3,17079],[19.3,17162],[19.3,17248],[18.7,17329],[18.4,17412],[18.4,17497],[18.4,17579],[17,17663],[13.5,17745],[12.5,17829],[9.2,17912],[7.8,17995],[7.6,18080],[6.2,18163],[4.4,18245],[2.9,18329],[2.4,18414],[2.4,18495],[1.8,18583],[1.3,18663],[1.2,18745],[0.7,18831],[0.3,18913],[0.2,18996],[0.2,19080],[0.2,19162],[0.2,19246],[0.2,19331],[0.2,19413],[0.2,19495],[0.4,19581],[0.4,19663],[0.4,19746],[0.4,19830],[0.4,19913],[0.4,19995],[0.4,20078],[0.4,20163],[0.4,20246],[0.4,20329],[0.4,20412],[0.4,20497],[0.4,20579],[0.4,20663],[0.4,20745],[0.4,20829],[0.4,20913],[0.4,20995],[0.4,21079],[0.4,21163],[0.4,21247],[0.4,21331],[0.5,21413],[11.9,21496],[32.9,21579],[50.6,21663],[57.7,21745],[58,21829],[58,21913],[58,21995],[66.3,22079],[75.3,22165],[80.3,22246],[81.6,22329],[82,22413],[83.2,22495],[84.3,22579],[84.5,22664],[84.4,22745],[84.4,22829],[84.4,22913],[84.4,22995],[84.4,23078],[84.4,23163],[84.4,23246],[84.4,23330],[84.4,23412],[84.4,23496],[84.4,23581],[84.4,23662],[84.4,23746],[84.4,23829],[84.4,23913],[84.4,23995],[84.4,24079],[84.4,24162],[84.4,24246],[84.4,24329],[84.4,24412],[84.4,24496],[84.4,24579],[84.4,24663],[84.4,24748],[84.4,24829],[84.4,24914],[84.4,24996],[84.4,25079],[84.4,25163],[84.4,25247],[84.4,25329],[84.4,25413],[84.4,25496],[84.4,25579],[84.4,25663],[84.4,25746],[84.4,25829],[84.4,25913],[84.4,25996],[84.4,26079],[84.4,26163],[80.9,26246],[59.9,26329],[39.1,26413],[35.7,26496],[35.7,26579],[35.7,26663],[23.3,26746],[12,26829],[10.3,26913],[8.2,26995],[6.6,27081],[6.4,27163],[6.3,27245],[5.6,27331],[4.5,27413],[4.3,27499],[4.3,27579],[4.3,27663],[4.3,27746],[4.3,27830],[4.3,27913],[4.3,27998],[4.3,28079],[4.3,28163],[4.3,28247],[4.3,28331],[4.3,28412],[4.3,28495],[4.3,28580],[4.3,28663],[4.3,28745],[4.3,28828],[4.3,28913],[4.3,28995],[4.3,29078],[4.3,29163],[4.3,29246],[4.3,29328],[4.3,29412],[4.3,29496],[4.3,29580],[4.3,29662]]",1,0,686.4074,686.4095,,,[],,,,686.4096,Not at all,0,686.4114,,,[],,0,0,0,0,1,audio/Narrative13Situation2.wav,audio/Narrative13Situation2.wav,audio/Narrative13Situation2.wav,audio/Narrative13Situation2.wav,2,2,2,2,,,,,594.0824,654.0861,,,,,,,,,,,,,,,,,,,,,,,,,,,,,
,,,,,,60fee712cac724d08d2d8858,2024-02-08_16h04.31.501,group3.1-3.2-social-tom,2023.2.2,MacIntel,117.6470588,65c5074098b851296ff0b7ed,65c5419152c4ab9205c43f7f,,,,,,,,,,,,,,,,,,,,,,,,,,,,,686.4116,2,audio/Narrative5Situation1.wav,691.4158,,691.4158,704.6983,"[[44.2,841],[46,924],[47.8,1007],[48.8,1091],[49,1175],[49,1258],[49.5,1341],[50.4,1424],[50.5,1508],[50.5,1591],[50.5,1674],[50.5,1758],[50.5,1841],[50.5,1924],[50.5,2007],[50.5,2090],[50.5,2174],[50.5,2258],[50.5,2341],[50.5,2424],[50.5,2508],[49.4,2593],[38.6,2675],[32.4,2758],[30.7,2842],[25.5,2924],[5.3,3424],[3.1,3508],[3.1,3591],[3.1,3675],[3.1,3758],[3.1,3841],[3.1,3924],[3.1,4008],[3.1,4093],[3.1,4175],[3.1,4257],[3.1,4341],[3.1,4424],[3.1,4508],[3.1,4592],[3.1,4674],[3.1,4758],[3.1,4843],[3.1,4924],[3.1,5007],[3.1,5091],[3.1,5175],[3.1,5258],[3.1,5341],[3.1,5424],[3.1,5508],[3.1,5591],[3.1,5674],[3.1,5758],[3.1,5841],[3.1,5925],[3.1,6008],[3.1,6090],[3.1,6174],[3.1,6258],[3.1,6342],[3.1,6424],[3.1,6507],[3.1,6593],[3.1,6674],[3.1,6758],[3.1,6841],[3.1,6924],[3.1,7007],[3.1,7091],[3.1,7175],[3.1,7258],[3.1,7341],[3.1,7425],[3.1,7508],[3.1,7590],[3.1,7675],[3.1,7758],[3.1,7843],[3.1,7924],[2.2,8008],[1.4,8091],[1.1,8174],[1,8258],[1,8341],[0.7,8426],[0.5,8510],[0.4,8590],[0.4,8674],[0.3,8758],[0.1,8840],[5.3,9758],[26.3,9841],[37.6,9925],[40.7,10008],[40.7,10091],[40.7,10175],[43.8,10258],[53.5,10340],[58.1,10427],[60.9,10508],[64.4,10591],[67,10675],[67.2,10758],[67.2,10842],[67.2,10925],[67.3,11007],[68.8,11095],[70.4,11174],[71.4,11258],[71.7,11341],[71.7,11425],[71.7,11510],[71.7,11590],[71.7,11675],[71.7,11758],[71.8,11841],[72.2,11925],[72.4,12007],[72.4,12091],[72.7,12173],[73.4,12258],[73.5,12341],[73.5,12425],[73.5,12507],[73.4,12591],[73.4,12674],[73.3,12758],[73.3,12840],[73.3,12924],[73.3,13007],[73.3,13091],[73.3,13175],[73.3,13258]]",1,0,704.6985,707.6657,34.60958168,1.8532,"[{""rating"":34.60958167989418,""responseTime"":1.8531999998092488}]",space,2.4535,,707.6657,Not at all,0,707.6672,,,[],,0,1,1,1,1,audio/Narrative7Situation1.wav,audio/Narrative8Situation1.wav,audio/Narrative5Situation1.wav,audio/Narrative6Situation1.wav,2,5,5,2,,,,,,,,,,,,,,,,,,,,,,,,,,,,,,,,,,,
,,,,,,60fee712cac724d08d2d8858,2024-02-08_16h04.31.501,group3.1-3.2-social-tom,2023.2.2,MacIntel,117.6470588,65c5074098b851296ff0b7ed,65c5419152c4ab9205c43f7f,,,,,,,,,,,,,,,,,,,,,,,,,,,,,707.6676,2,audio/Narrative5Situation2.wav,710.6742,,710.6743,740.1241,"[[34.9,1341],[34.4,1424],[30.8,1508],[26.3,1591],[21.6,1674],[21.4,1758],[21.4,1841],[21.4,1923],[9.7,2007],[3.9,2090],[2.8,2175],[2.4,2258],[0.5,2341],[0.4,2424],[0.4,2507],[0.4,2590],[0.4,2674],[0.4,2757],[0.4,2841],[0.4,2924],[0.4,3007],[0.4,3091],[0.4,3174],[0.4,3258],[0.4,3341],[0.4,3424],[0.4,3508],[0.4,3591],[0.4,3674],[0.4,3758],[0.4,3841],[0.4,3926],[0.4,4007],[0.4,4097],[0.4,4174],[0.4,4258],[0.4,4342],[0.4,4424],[0.4,4507],[0.4,4592],[0.4,4674],[0.4,4758],[0.4,4841],[0.4,4924],[0.4,5008],[0.4,5091],[0.4,5175],[0.4,5259],[0.4,5340],[0.4,5424],[0.4,5507],[0.4,5592],[0.4,5674],[0.4,5758],[0.4,5841],[0.4,5926],[0.4,6008],[0.4,6093],[0.4,6174],[0.4,6258],[0.4,6340],[0.4,6424],[0.4,6508],[0.4,6591],[0.4,6674],[0.4,6758],[0.4,6841],[0.4,6925],[0.4,7007],[0.4,7091],[0.4,7174],[0.4,7257],[0.4,7341],[0.4,7423],[2.4,7508],[10.9,7591],[23.9,7673],[27.2,7757],[27.2,7841],[27.2,7925],[29,8010],[43.9,8093],[50.7,8173],[52.6,8256],[56.4,8341],[58.2,8424],[59,8508],[59.1,8590],[59.1,8674],[59.1,8757],[59.1,8840],[59.1,8923],[59.1,9007],[59.1,9091],[59.1,9174],[59.1,9259],[59.1,9341],[59.1,9424],[59.1,9507],[59.1,9590],[59.1,9674],[59.1,9758],[59.1,9841],[59.1,9924],[59.1,10007],[59.1,10090],[59.1,10174],[59.1,10258],[59.1,10340],[59.1,10425],[59,10510],[58.9,10590],[58.8,10677],[58.8,10758],[58.8,10841],[57.7,10924],[52.3,11008],[49.4,11091],[49.4,11174],[49.4,11257],[49.4,11341],[46.3,11424],[34.2,11508],[29.8,11591],[29.5,11675],[29.5,11757],[29.5,11841],[24.5,11924],[15.3,12008],[14.3,12090],[14.3,12174],[14.3,12257],[14.3,12341],[15.2,12424],[42,12508],[64.8,13007],[67.3,13091],[67.6,13176],[67.1,13258],[59,13341],[56.2,13424],[56,13507],[56.1,13591],[56.2,13674],[56.2,13758],[57.8,13841],[63.6,13928],[66.8,14007],[68.2,14091],[68.4,14174],[68.4,14257],[68.4,14340],[68.4,14425],[68.4,14509],[69.6,14591],[69.7,14675],[69.7,14756],[69.7,14842],[69.7,14924],[69.7,15007],[69.7,15091],[68.9,15174],[67.1,15257],[66.9,15340],[66.9,15423],[66.9,15509],[66.9,15591],[66.9,15674],[67,15757],[67.1,15843],[67.1,15924],[67.1,16008],[67.1,16091],[67.1,16174],[67.1,16257],[67.1,16340],[67.1,16424],[67.1,16509],[67.1,16591],[67.1,16674],[67.1,16759],[65.7,16841],[54.9,16924],[49.5,17007],[49.3,17091],[49.3,17175],[49,17258],[25.3,17341],[13,17424],[13,17509],[13,17591],[8.8,17677],[3,17758],[2.5,17842],[2.5,17925],[2.5,18007],[2.4,18091],[2.4,18176],[2.4,18258],[2.4,18341],[2.4,18424],[2.4,18509],[2.4,18591],[2.4,18676],[2.4,18756],[2.4,18843],[2.4,18925],[2.4,19009],[2.4,19090],[2.4,19175],[2.4,19257],[2.4,19340],[2.4,19424],[2.4,19508],[2.4,19591],[2.4,19673],[2.4,19757],[2.4,19843],[2.4,19925],[2.4,20008],[2.4,20091],[2.4,20174],[2.4,20257],[2.4,20341],[2.4,20427],[2.4,20508],[2.4,20591],[2.4,20673],[2.4,20757],[2.4,20841],[2.4,20924],[2.4,21006],[2.4,21091],[2.4,21175],[2.4,21260],[2.4,21341],[2.4,21424],[2.4,21507],[2.4,21590],[2.4,21674],[2.4,21757],[2.4,21841],[2.4,21924],[2.4,22007],[2.4,22090],[2.4,22173],[4.7,22257],[20,22341],[39.8,22424],[48.2,22508],[48.4,22591],[48.4,22674],[48.4,22757],[94.5,23257],[96.6,23341],[99.9,23424],[100,23508],[100,23591],[100,23674],[100,23757],[100,23841],[100,23924],[100,24007],[100,24092],[100,24177],[100,24258],[100,24341],[100,24423],[100,24507],[100,24591],[100,24674],[100,24758],[100,24840],[100,24924],[100,25008],[100,25091],[100,25174],[100,25257],[100,25341],[100,25426],[100,25508],[100,25590],[100,25674],[100,25759],[100,25841],[100,25924],[100,26008],[100,26093],[100,26182],[100,26266],[97.1,26349],[81.7,26432],[74.3,26516],[69.8,26599],[69.8,26682],[69.8,26766],[68.4,26849],[39.6,26935],[31.9,27016],[31.9,27099],[31.9,27182],[30.7,27265],[13.2,27349],[6.6,27433],[6.3,27516],[6.3,27599],[6.3,27683],[5,27766],[3.1,27849],[2.7,27932],[2.7,28016],[2.7,28099],[2.7,28183],[2.7,28265],[2.7,28349],[2.7,28432],[2.7,28516],[2.7,28599],[2.7,28682],[2.7,28765],[2.7,28850],[2.7,28932],[2.7,29016],[2.7,29099],[2.7,29182],[2.7,29265],[2.7,29348],[2.7,29432]]",1,0,740.1242,742.8235,49.28437087,1.4725,"[{""rating"":49.284370866402114,""responseTime"":1.4724999999999682}]",space,2.1761,,742.8235,Partially,50,742.8257,,,[],,0,2,2,2,1,audio/Narrative7Situation2.wav,audio/Narrative8Situation2.wav,audio/Narrative5Situation2.wav,audio/Narrative6Situation2.wav,3,3,3,3,,,,,,,,,,,,,,,,,,,,,,,,,,,,,,,,,,,
,,,,,,60fee712cac724d08d2d8858,2024-02-08_16h04.31.501,group3.1-3.2-social-tom,2023.2.2,MacIntel,117.6470588,65c5074098b851296ff0b7ed,65c5419152c4ab9205c43f7f,,,,,,,,,,,,,,,,,,,,,,,,,,,,,742.8259,2,audio/Narrative5Situation3.wav,745.8317,,745.8317,759.7236,"[[49.1,1083],[47.8,1167],[46.7,1250],[45.4,1333],[44.1,1417],[43.3,1502],[43.2,1583],[43.2,1667],[43.2,1750],[43.2,1833],[43.2,1917],[43.2,2000],[42.6,2083],[31.1,2169],[20.3,2250],[20.3,2333],[20.3,2416],[20.3,2500],[14.2,2583],[8.8,2666],[7,2750],[5.9,2833],[5.6,2921],[5.6,3000],[6,3083],[35.4,3167],[65.6,3250],[69.1,3333],[69.1,3417],[69.1,3500],[76.6,3584],[87.5,3667],[90.3,3750],[92.5,3833],[94,3917],[94.9,4000],[95.2,4083],[95.2,4167],[95.2,4252],[95.2,4334],[95.2,4417],[95.2,4500],[95.2,4584],[95.2,4667],[95.2,4750],[95.2,4834],[95.2,4916],[95.2,5000],[95.2,5083],[95.2,5167],[95.2,5252],[95.2,5333],[95.2,5417],[95.2,5500],[95.2,5582],[95.2,5666],[95.2,5750],[96.5,5834],[97.9,5917],[98.2,6000],[98.3,6084],[98.4,6166],[98.4,6249],[98.8,6333],[99.8,6417],[100,6499],[100,6583],[100,6667],[100,6754],[100,6833],[100,6917],[100,7000],[100,7086],[100,7167],[100,7250],[100,7333],[100,7416],[100,7500],[100,7583],[100,7667],[100,7750],[100,7833],[100,7919],[100,8000],[100,8083],[100,8167],[100,8250],[100,8334],[100,8416],[100,8500],[100,8583],[100,8667],[100,8750],[100,8832],[100,8916],[100,9001],[99.5,9089],[99.1,9167],[98.1,9250],[97.2,9333],[97.2,9417],[97.2,9500],[97.2,9584],[97.2,9667],[97.2,9750],[97.2,9833],[97.2,9917],[97.2,10000],[97.2,10083],[97.2,10167],[95.8,10250],[85.9,10333],[82.6,10417],[77.7,10500],[76.2,10583],[76.2,10667],[76.2,10750],[74,10833],[60,10917],[54,11000],[54,11084],[54,11167],[52.6,11250],[31.4,11333],[20.7,11416],[20.7,11500],[20.7,11583],[20.5,11666],[15,11750],[13.4,11834],[13.4,11917],[12.4,12000],[11.4,12083],[11.2,12166],[10.8,12250],[9.9,12335],[9.2,12417],[9.1,12500],[9.1,12583],[9.1,12666],[9.1,12750],[9.1,12833],[9.1,12917],[9.1,13000],[9.1,13084],[9.1,13167],[9.1,13250],[9.1,13332],[9.1,13416],[9.1,13499],[9.1,13584],[9.1,13666],[9.1,13750],[9.1,13833]]",1,0,759.7237,763.4238,50.49448165,2.9198,"[{""rating"":50.49448164682539,""responseTime"":2.919800000190776}]",space,3.1884,,763.4238,Not at all,0,763.4254,,,[],,0,3,3,3,1,audio/Narrative7Situation3.wav,audio/Narrative8Situation3.wav,audio/Narrative5Situation3.wav,audio/Narrative6Situation3.wav,8,4,3,5,,,,,,,,,,,,,,,,,,,,,,,,,,,,,,,,,,,
,,,,,,60fee712cac724d08d2d8858,2024-02-08_16h04.31.501,group3.1-3.2-social-tom,2023.2.2,MacIntel,117.6470588,65c5074098b851296ff0b7ed,65c5419152c4ab9205c43f7f,,,,,,,,,,,,,,,,,,,,,,,,,,,,,763.4256,2,audio/Narrative5Situation4.wav,764.4321,,764.4322,784.7988,"[[49.6,1416],[49.3,1999],[44.6,2083],[26.8,2166],[21.1,2250],[21.1,2332],[21.1,2417],[14.1,2499],[2.7,2591],[2.2,2674],[2.2,2758],[2.2,2841],[2.2,2924],[2.2,3008],[2.2,3091],[2.2,3174],[2.2,3258],[2.2,3340],[2.2,3424],[2.2,3508],[2.2,3590],[2.2,3674],[2.2,3757],[2.2,3841],[2.2,3923],[2.2,4008],[2.2,4091],[2.2,4173],[2.2,4258],[0.6,4341],[20.7,9174],[49.9,9258],[61.4,9341],[61.4,9424],[61.4,9508],[61.5,9591],[81.3,9674],[94.4,10092],[90.4,10174],[86,10259],[85.4,10340],[85.4,10425],[85.4,10508],[85.4,10590],[85.4,10674],[85.4,10758],[85.4,10840],[85.4,10923],[85.4,11007],[85.4,11091],[85.4,11174],[85.4,11258],[85.4,11341],[85.4,11424],[85.4,11508],[85.4,11591],[85.4,11673],[85.4,11757],[85.4,11840],[85.4,11924],[85.4,12007],[85.4,12091],[85.4,12175],[85.4,12258],[85.4,12341],[85.4,12425],[85.4,12508],[85.4,12591],[85.4,12675],[85.4,12757],[85.4,12841],[85.4,12924],[85.4,13008],[85.4,13091],[85.4,13174],[85.4,13257],[85.4,13341],[85.4,13424],[85.4,13508],[85.4,13591],[85.4,13675],[85.4,13757],[85.4,13841],[85.4,13925],[85.4,14007],[85.4,14091],[85.4,14174],[85.4,14258],[85.4,14341],[85.4,14425],[85.4,14508],[85.4,14591],[85.4,14674],[85.4,14758],[85.4,14841],[85.4,14924],[85.4,15007],[85.4,15091],[85.4,15174],[85.4,15258],[85.4,15341],[85.4,15424],[85.4,15507],[87.1,15591],[88.5,15676],[90.7,15758],[92.7,15841],[95.4,15925],[97.4,16009],[98.4,16091],[98.6,16174],[99.2,16258],[100,16341],[100,16424],[100,16508],[100,16591],[100,16674],[100,16758],[100,16841],[100,16923],[100,17008],[100,17093],[100,17174],[100,17258],[100,17343],[100,17425],[100,17508],[100,17591],[100,17675],[100,17758],[100,17841],[100,17925],[100,18007],[100,18091],[100,18175],[100,18258],[100,18341],[100,18426],[100,18507],[100,18591],[100,18674],[100,18759],[100,18841],[100,18927],[100,19008],[100,19091],[100,19174],[100,19258],[100,19341],[100,19426],[100,19508],[100,19591],[100,19674],[100,19760],[100,19841],[100,19925],[100,20008],[100,20091],[100,20174],[100,20257],[100,20341]]",1,0,784.7989,787.5498,85.28232474,1.9865,"[{""rating"":85.28232473544973,""responseTime"":1.9864999999999782}]",space,2.2292,,787.55,Partially,50,787.5533,,,[],,0,4,4,4,1,audio/Narrative7Situation4.wav,audio/Narrative8Situation4.wav,audio/Narrative5Situation4.wav,audio/Narrative6Situation4.wav,3,3,1,2,,,,,,,,,,,,,,,,,,,,,,,,,,,,,,,,,,,
,,,,,,60fee712cac724d08d2d8858,2024-02-08_16h04.31.501,group3.1-3.2-social-tom,2023.2.2,MacIntel,117.6470588,65c5074098b851296ff0b7ed,65c5419152c4ab9205c43f7f,,,,,,,,,,,,,,,,,,,,,,,,,,,,,787.5535,2,audio/Narrative5Situation5.wav,792.5576,,792.5577,807.9651,"[[85.2,843],[80.5,924],[74,1009],[69.8,1090],[68,1174],[67.9,1257],[67.9,1340],[67.9,1423],[64,1507],[56.8,1591],[51.2,1674],[46.7,1756],[46.7,1841],[46.7,1924],[46.7,2009],[36.4,2091],[19.7,2174],[18.4,2257],[18.4,2341],[18.4,2425],[14.6,2507],[7.4,2591],[5.5,2674],[4.6,2757],[4,2841],[3.8,2924],[2.5,3007],[1.8,3092],[1.3,3174],[1.1,3257],[0.5,3340]]",1,0,807.9654,810.7152,4.210069444,1.7772,"[{""rating"":4.210069444444442,""responseTime"":1.7772000002861432}]",space,2.2371,,810.7153,Partially,50,810.7164,,,[],,0,5,5,5,1,audio/Narrative7Situation5.wav,audio/Narrative8Situation5.wav,audio/Narrative5Situation5.wav,audio/Narrative6Situation5.wav,5,2,5,2,,,,,,,,,,,,,,,,,,,,,,,,,,,,,,,,,,,
,,,,,,60fee712cac724d08d2d8858,2024-02-08_16h04.31.501,group3.1-3.2-social-tom,2023.2.2,MacIntel,117.6470588,65c5074098b851296ff0b7ed,65c5419152c4ab9205c43f7f,,,,,,,,,,,,,,,,,,,,,,,,,,,,,810.7165,2,audio/Narrative5Situation6.wav,813.7242,,813.7243,819.39,"[[4.6,1416],[5.1,1499],[5.2,1581],[5.2,1665],[4.9,1748],[1.9,1833],[0.5,1916],[0.1,1999],[63.8,3082],[69.6,3165],[70.1,3249],[70.1,3332],[66.3,3416],[64.2,3499],[64.1,3581],[64.1,3665],[64.1,3749],[64.1,3831],[64.1,3915],[64.1,3999],[64.1,4082],[64.1,4165],[64.1,4249],[64.1,4332],[64.1,4416],[64.1,4498],[64.1,4582],[64.1,4666],[64.1,4748],[64.1,4831],[64.1,4915],[64.1,4999],[64.1,5082],[64.1,5165],[64.1,5249],[64.1,5331],[64.1,5423],[64.1,5498],[64.1,5581],[64.1,5665]]",1,0,819.3904,821.5242,49.46934937,1.598,"[{""rating"":49.46934937169312,""responseTime"":1.5979999999999563}]",space,1.6157,,821.5243,Not at all,0,821.5275,,,[],,0,6,6,6,1,audio/Narrative7Situation6.wav,audio/Narrative8Situation6.wav,audio/Narrative5Situation6.wav,audio/Narrative6Situation6.wav,3,2,3,2,,,,,,,,,,,,,,,,,,,,,,,,,,,,,,,,,,,
,,,,,,60fee712cac724d08d2d8858,2024-02-08_16h04.31.501,group3.1-3.2-social-tom,2023.2.2,MacIntel,117.6470588,65c5074098b851296ff0b7ed,65c5419152c4ab9205c43f7f,,,,,,,,,,,,,,,,,,,,,,,,,,,,,821.5277,2,audio/Narrative5Situation7.wav,825.5325,,825.5326,846.5594,"[[44.7,1676],[30.2,1758],[27.8,1840],[27.8,1924],[27.8,2007],[26.4,2091],[14.1,2174],[9.6,2256],[9.6,2340],[9.6,2423],[8.5,2507],[3.8,2591],[0.7,2674],[0.2,5842],[1.7,5923],[3.1,6007],[4.3,6090],[6,6176],[7.4,6257],[8.9,6341],[10.3,6424],[11,6507],[11.6,6590],[12.2,6674],[12.5,6757],[12.9,6841],[13,6923],[13,7006],[13,7091],[13,7174],[13,7257],[13,7341],[13,7424],[13,7507],[13,7591],[13,7674],[13,7757],[13,7840],[13,7924],[13,8006],[13,8091],[13,8174],[13,8257],[13,8341],[13,8424],[13,8507],[13,8590],[13,8674],[13,8757],[13,8840],[13,8923],[13,9007],[13,9091],[13,9174],[13,9257],[13,9340],[13,9424],[13,9507],[13,9591],[13,9677],[13,9757],[13,9841],[13,9924],[13,10007],[13,10091],[13,10175],[13,10257],[11.4,10341],[3.2,10424],[0,11507],[0.1,11591],[0.1,11674],[0.1,11756],[0.1,11840],[0.1,11924],[0.1,12007],[0.1,12091],[0.1,12174],[0.1,12257],[0.1,12340],[0.1,12423],[0.1,12507],[0.1,12590],[0.1,12674],[0.1,12757],[0.1,12841],[0.1,12924],[0.1,13007],[0.1,13090],[0.1,13174],[0.1,13257],[0.1,13342],[0.1,13424],[0.1,13506],[0.1,13590],[0.1,13674],[0.1,13756],[0.1,13841],[0.1,13923],[0.1,14007],[0.1,14091],[0.1,14175],[0.1,14257],[0.1,14340],[0.1,14424],[0.1,14506],[0.1,14591],[0.1,14674],[0.1,14758],[0.1,14840],[0.1,14923],[0.1,15007],[0.1,15090],[0.1,15173],[0.1,15257],[0.1,15341],[0.1,15423],[0.1,15507],[0.1,15591],[0.1,15674],[0.1,15757],[0.1,15840],[0.1,15923],[0.1,16007],[0.1,16091],[0.1,16174],[0.1,16257],[0.1,16340],[0.1,16423],[0.1,16507],[0.1,16591],[0.1,16674],[0.1,16756],[0.1,16840],[0.1,16924],[0.1,17007],[0.1,17090],[0.1,17173],[0.1,17257],[0.1,17340],[0.1,17426],[0.1,17507],[0.1,17590],[0.1,17674],[0.1,17756],[0.1,17840],[0.1,17924],[0.1,18006],[0.1,18092],[0.1,18174],[0.1,18257],[0.1,18342],[0.1,18423],[0.1,18506],[0.1,18590],[0.1,18674],[0.1,18759],[0.1,18841],[0.1,18924],[0.1,19007],[0.1,19091],[0.1,19174],[0.1,19260],[0.1,19341],[0.1,19423],[0.1,19506],[0.1,19590],[0.1,19674],[0.1,19757],[0.1,19840],[0.1,19923],[0.1,20008],[0.1,20092],[0.1,20173],[0.1,20258],[0.1,20340],[0.1,20423],[0.1,20507],[0.1,20590],[0.1,20674],[0.1,20758],[0.1,20840],[0.1,20923],[0.1,21007]]",1,0,846.5597,848.3491,2.952938988,1.1878,"[{""rating"":2.952938988095238,""responseTime"":1.187800000190805}]",space,1.2688,,848.3492,Partially,50,848.3528,,,[],,0,7,7,7,1,audio/Narrative7Situation7.wav,audio/Narrative8Situation7.wav,audio/Narrative5Situation7.wav,audio/Narrative6Situation7.wav,5,3,4,5,,,,,,,,,,,,,,,,,,,,,,,,,,,,,,,,,,,
,,,,,,60fee712cac724d08d2d8858,2024-02-08_16h04.31.501,group3.1-3.2-social-tom,2023.2.2,MacIntel,117.6470588,65c5074098b851296ff0b7ed,65c5419152c4ab9205c43f7f,,,,,,,,,,,,,,,,,,,,,,,,,,,,,848.3531,2,audio/Narrative5Situation8.wav,851.3568,,851.3569,860.1646,"[[2.7,1424],[2,1508],[1.9,1590],[2.1,1675],[2.5,1758],[1.5,1841]]",1,0,860.1648,866.2569,0.07905506,1.2182,"[{""rating"":0.0790550595238082,""responseTime"":1.2182000002861741}]",space,5.5792,,866.2571,Definitely yes,100,866.2656,,,[],,0,8,8,8,1,audio/Narrative7Situation8.wav,audio/Narrative8Situation8.wav,audio/Narrative5Situation8.wav,audio/Narrative6Situation8.wav,2,3,3,5,,,,,,,,,,,,,,,,,,,,,,,,,,,,,,,,,,,
,,,,,,60fee712cac724d08d2d8858,2024-02-08_16h04.31.501,group3.1-3.2-social-tom,2023.2.2,MacIntel,117.6470588,65c5074098b851296ff0b7ed,65c5419152c4ab9205c43f7f,,,,,,,,,,,,,,,,,,,,,,,,,,,,,866.2658,2,audio/Narrative5Situation9.wav,869.2735,,869.2735,908.7978,"[[5.5,925],[5,1009],[4.5,1091],[4.1,1174],[4,1258],[3.2,1340],[1.5,1424],[0.2,3675],[0.6,3758],[0.8,3841],[0.8,3925],[0.8,4008],[0.9,4091],[0.9,4174],[0.9,4258],[0.9,4341],[0.9,4424],[0.9,4507],[0.9,4591],[0.9,4674],[0.9,4759],[0.9,4841],[0.9,4925],[0.9,5008],[0.9,5091],[0.9,5174],[1.5,5258],[2.9,5341],[4.8,5425],[6.3,5508],[7.8,5590],[8.3,5675],[8.3,5758],[8.3,5842],[8.3,5925],[8.3,6008],[8.3,6091],[8.3,6175],[8.2,6257],[8.2,6342],[8.2,6425],[8.2,6508],[8.2,6591],[8.2,6674],[8.2,6758],[8.2,6841],[8.2,6925],[8.2,7008],[8.2,7091],[9.2,7174],[16.8,7258],[30.5,7341],[37.2,7424],[37.2,7507],[37.2,7591],[37.3,7675],[41.6,7757],[49.8,7841],[55.9,7925],[55.9,8007],[55.9,8091],[55.9,8174],[56.3,8263],[60.4,8341],[63.8,8425],[64.5,8507],[64.5,8591],[64.5,8675],[64.5,8757],[64.5,8840],[68.8,8925],[73.7,9008],[76,9091],[78.2,9175],[79,9258],[79,9341],[79,9424],[79.5,9509],[81.9,9591],[82.4,9674],[82.4,9757],[82.4,9841],[82.4,9924],[82.4,10008],[82.4,10091],[82.4,10175],[82.4,10258],[82.4,10341],[82.4,10424],[82.4,10507],[82.4,10591],[82.4,10674],[82.4,10758],[82.4,10841],[82.4,10924],[82.4,11008],[82.4,11091],[82.4,11174],[82.4,11258],[82.4,11340],[82.4,11424],[82.4,11508],[82.4,11591],[82.4,11674],[82.4,11757],[82.4,11842],[82.4,11924],[82.4,12008],[82.4,12090],[82.4,12174],[82.5,12258],[82.5,12342],[82.5,12425],[82.5,12507],[82.5,12591],[82.5,12674],[82.5,12757],[82.5,12841],[82.5,12924],[82.5,13007],[82.5,13091],[82.5,13174],[82.5,13258],[82.5,13341],[82.5,13425],[82.5,13507],[82.5,13590],[82.5,13675],[82.5,13758],[82.5,13842],[82.5,13924],[82.5,14008],[82.5,14093],[82.5,14174],[82.5,14257],[82.5,14341],[82.5,14424],[82.5,14508],[82.5,14591],[82.5,14674],[82.5,14758],[82.5,14841],[82.5,14924],[82.5,15007],[82.5,15091],[82.5,15174],[82.5,15258],[82.5,15341],[82.5,15424],[82.5,15508],[82.5,15591],[82.5,15674],[82.5,15759],[82.5,15841],[82.5,15924],[82.5,16008],[82.5,16098],[82.5,16175],[81.5,16258],[80.7,16341],[80.7,16424],[80.4,16510],[80,16591],[79.9,16670],[79.5,16754],[79.4,16837],[79.3,16920],[79,17003],[78.8,17086],[78.8,17170],[78.7,17254],[78.7,17336],[78.7,17420],[78.7,17504],[78.7,17587],[78.7,17670],[78.7,17754],[78.7,17837],[78.7,17919],[78.7,18004],[78.7,18086],[78.7,18170],[78.7,18253],[78.7,18337],[78.7,18420],[78.7,18504],[78.7,18587],[78.7,18670],[78.7,18754],[78.7,18837],[78.7,18921],[78.7,19005],[78.7,19087],[78.7,19170],[78.7,19254],[78.7,19337],[78.7,19420],[67.4,19503],[40.3,19587],[37.8,19670],[37.8,19753],[37.8,19837],[25.9,19920],[10.1,20004],[9.2,20087],[9.4,20170],[9.4,20254],[10.2,20337],[8.6,20420],[7.7,20504],[7.7,20587],[7.7,20670],[7.7,20754],[7.7,20837],[7.7,20919],[7.7,21004],[7.7,21087],[7.7,21170],[7.3,21254],[7.2,21337],[7.2,21419],[7.2,21504],[7.2,21587],[7.2,21671],[7.2,21754],[7.2,21837],[7.2,21921],[7.2,22003],[7.2,22087],[7.2,22170],[7.2,22254],[7.2,22336],[7.2,22420],[7.2,22503],[7.2,22587],[7.2,22670],[7.2,22753],[6.9,22837],[6.3,22921],[5.8,23004],[5.3,23087],[4.7,23170],[4.4,23253],[4.4,23337],[3.6,23420],[2.3,23504],[0.7,23587],[0.6,23670],[0.4,23754],[0,23836],[0.1,25337],[0.9,25423],[2.3,25504],[2.9,25587],[3.6,25670],[4.4,25754],[5.8,25837],[7.6,25920],[8.9,26003],[8.9,26086],[8.9,26171],[8.9,26254],[8.9,26336],[8.9,26420],[9.9,26503],[10.5,26586],[10.5,26670],[10.5,26753],[10.5,26837],[10.5,26921],[10.5,27004],[10.5,27087],[10.5,27170],[10.5,27254],[10.5,27337],[22.8,27420],[47.1,27506],[49,27587],[49,27671],[49,27753],[51.2,27836],[65.2,27921],[70.5,28004],[71.3,28086],[71.3,28169],[71.3,28253],[74.7,28336],[83,28420],[85.3,28503],[85.6,28586],[85.6,28670],[85.6,28754],[85.6,28837],[88.2,28923],[91.1,29003],[91.4,29086],[91.4,29171],[91.4,29254],[91.4,29337],[91.4,29420],[91.4,29504],[91.4,29587],[91.4,29670],[91.4,29753],[91.4,29837],[91.4,29920],[91.4,30004],[91.4,30087],[91.8,30171],[95.4,30254],[100,30337],[100,30420],[100,30503],[100,30587],[100,30670],[100,30754],[100,30836],[100,30920],[100,31004],[100,31087],[100,31170],[100,31255],[100,31337],[100,31421],[100,31505],[100,31587],[100,31669],[100,31753],[100,31836],[100,31920],[100,32004],[100,32087],[100,32170],[100,32253],[100,32337],[100,32421],[100,32504],[100,32587],[100,32670],[100,32754],[100,32838],[100,32920],[100,33003],[100,33087],[100,33171],[100,33255],[100,33336],[100,33420],[100,33505],[100,33587],[100,33670],[100,33753],[100,33837],[100,33919],[100,34003],[100,34088],[100,34169],[100,34254],[100,34337],[100,34421],[100,34505],[100,34587],[100,34670],[100,34754],[100,34836],[100,34919],[100,35005],[100,35086],[100,35170],[100,35253],[99.3,35336],[70.2,35420],[58.2,35505],[58.1,35588],[58.1,35669],[56.2,35758],[28.6,35837],[20.6,35922],[20.6,36003],[20.6,36087],[20.6,36171],[17.8,36255],[4.8,36337],[1.2,36420],[1.2,36505],[1.2,36587],[0.6,36670],[7.9,39420],[22.6,39504]]",1,0,908.798,911.8702,49.24355159,1.1899,"[{""rating"":49.24355158730159,""responseTime"":1.1899000000953492}]",space,2.551,,911.8702,Partially,50,911.8723,,,[],,0,9,9,9,1,audio/Narrative7Situation9.wav,audio/Narrative8Situation9.wav,audio/Narrative5Situation9.wav,audio/Narrative6Situation9.wav,2,3,3,4,,,,,,,,,,,,,,,,,,,,,,,,,,,,,,,,,,,
,,,,,,60fee712cac724d08d2d8858,2024-02-08_16h04.31.501,group3.1-3.2-social-tom,2023.2.2,MacIntel,117.6470588,65c5074098b851296ff0b7ed,65c5419152c4ab9205c43f7f,,,,,,,,,,,,,,,,,,,,,,,,,,,,,911.8725,2,audio/Narrative6Situation1.wav,913.8776,,913.8776,940.4353,"[[49.1,1085],[49.2,1166],[49.3,1250],[49.6,1333],[49.6,1416],[49.6,1500],[49.6,1584],[49.6,1667],[49.6,1749],[49.6,1834],[49.6,1916],[49.6,2000],[49.6,2084],[49.6,2166],[49.6,2250],[49.6,2333],[49.6,2418],[49.6,2500],[49.6,2583],[49.6,2666],[49.6,2749],[49.6,2833],[49.6,2916],[49.6,3000],[49.6,3085],[49.6,3166],[49.6,3250],[33.1,3333],[17.2,3415],[15.6,3499],[15.6,3583],[15.6,3666],[14.5,3750],[6.5,3833],[3.2,3916],[1.2,3999],[0.3,4082],[0.2,4167],[0.2,4249],[0.2,4333],[0.2,4416],[0.2,4499],[0.2,4583],[0.2,4666],[0.2,4749],[0.2,4832],[0.2,4917],[0.2,5000],[0.2,5083],[0.2,5166],[0.2,5249],[0.2,5332],[0.2,5417],[0.2,5500],[0.2,5582],[13.9,5666],[41.1,5749],[43.5,5833],[43.5,5916],[43.5,5999],[56.2,6083],[65.3,6166],[65.6,6249],[65.6,6333],[65.6,6416],[65.6,6499],[65.6,6583],[65.6,6667],[65.6,6749],[65.6,6833],[70.9,6915],[74,6999],[74.1,7083],[74.1,7165],[74.1,7250],[74.1,7332],[74.1,7416],[74.1,7499],[74.1,7584],[74.1,7665],[74.1,7749],[74.1,7832],[74.1,7915],[74.1,8002],[74.1,8083],[74.1,8165],[74.1,8250],[74.1,8333],[74.1,8415],[74.1,8499],[74.1,8583],[74.1,8665],[74.1,8749],[74.1,8832],[74.1,8915],[74.1,8999],[74.1,9082],[74.1,9166],[74.1,9250],[74.1,9335],[74.1,9416],[74.1,9499],[74.1,9582],[74.1,9668],[74.1,9751],[74.1,9833],[74.1,9916],[74.1,9999],[74.1,10083],[74.1,10165],[74.1,10249],[74.1,10333],[74.1,10415],[74.1,10501],[74.1,10583],[74.1,10668],[74.1,10749],[74.1,10832],[74.1,10916],[70.7,10999],[58.2,11082],[54.1,11166],[54,11249],[54,11335],[50.1,11415],[37.7,11499],[33.3,11584],[33.3,11667],[33.3,11750],[33.3,11833],[14.1,11916],[1.7,11999],[1.7,12082],[1.7,12166],[1.6,12250],[1.5,21416],[8,21499],[16,21583],[23.2,21667],[26.6,21749],[26.6,21834],[26.6,21916],[26.6,21999],[26.9,22083],[36.1,22166],[45.6,22249],[47.5,22333],[47.5,22416],[47.5,22500],[48.5,22583],[54,22666],[56.1,22749],[56.3,22832],[56.3,22916],[56.3,23001],[56.3,23082],[56.3,23165],[56.3,23250],[56.3,23332],[56.3,23416],[56.3,23498],[56.3,23583],[56.3,23665],[56.3,23749],[56.3,23833],[56.3,23916],[56.3,23998],[56.3,24082],[56.3,24166],[56.7,24249],[60.3,24332],[62.5,24416],[62.6,24499],[62.6,24583],[62.6,24666],[62.6,24749],[62.6,24833],[63.1,24915],[63.2,24999],[63.2,25083],[63.4,25166],[66.6,25249],[73.5,25333],[74.6,25415],[74.6,25500],[74.6,25583],[74.6,25666],[74.6,25750],[74.6,25833],[74.6,25916],[74.6,25999],[74.6,26083],[74.6,26166],[74.6,26250],[74.6,26333],[74.6,26416],[74.6,26500]]",1,0,940.4354,943.2771,43.11445933,1.6688,"[{""rating"":43.11445932539682,""responseTime"":1.6688000001906858}]",space,2.3262,,943.2772,Partially,50,943.2785,,,[],,0,10,10,10,1,audio/Narrative8Situation1.wav,audio/Narrative7Situation1.wav,audio/Narrative6Situation1.wav,audio/Narrative5Situation1.wav,5,2,2,5,,,,,,,,,,,,,,,,,,,,,,,,,,,,,,,,,,,
,,,,,,60fee712cac724d08d2d8858,2024-02-08_16h04.31.501,group3.1-3.2-social-tom,2023.2.2,MacIntel,117.6470588,65c5074098b851296ff0b7ed,65c5419152c4ab9205c43f7f,,,,,,,,,,,,,,,,,,,,,,,,,,,,,943.2787,2,audio/Narrative6Situation2.wav,946.286,,946.2861,974.782,"[[43.3,841],[43.8,924],[44.4,1008],[44.6,1091],[44.9,1174],[44.9,1258],[44.9,1341],[44.9,1423],[44.7,1510],[39.4,1591],[26.3,1674],[24.3,1757],[24.3,1841],[24.3,1924],[23.5,2007],[9.5,2091],[5.5,2174],[5.4,2258],[5.4,2340],[5.4,2424],[5.4,2507],[4.1,2591],[0.9,2674],[7.1,4924],[28.2,5008],[33.4,5091],[33.4,5174],[33.4,5257],[37.1,5341],[52.9,5424],[58.1,5507],[58.1,5590],[58.1,5673],[69.7,5757],[78.7,5841],[78.7,5924],[78.7,6008],[78.7,6091],[80,6174],[81.4,6257],[81.7,6340],[83.6,6424],[85.6,6507],[87.3,6591],[88.6,6674],[89.2,6757],[89.6,6841],[89.6,6924],[89.6,7007],[89.6,7090],[89.6,7174],[89.6,7257],[89.6,7341],[89.6,7423],[89.6,7507],[90.2,7591],[90.6,7674],[90.6,7757],[90.6,7840],[90.6,7924],[92.1,8008],[94.8,8093],[95.7,8174],[95.7,8257],[95.7,8340],[95.7,8424],[95.7,8507],[95.7,8591],[95.7,8674],[95.7,8757],[95.7,8841],[95.7,8924],[95.7,9007],[95.7,9091],[95.7,9174],[95.7,9257],[95.7,9341],[95.7,9424],[95.7,9507],[95.7,9591],[95.7,9673],[95.7,9757],[95.7,9840],[95.7,9924],[95.7,10007],[95.7,10091],[95.7,10173],[95.7,10257],[93.3,10341],[73.4,10424],[53.6,10920],[50.1,11003],[50.1,11087],[50.1,11169],[50.1,11254],[50.1,11336],[58.7,11420],[75.5,11502],[77.4,11586],[77.4,11670],[77.4,11753],[77.4,11836],[77.4,11920],[77.4,12003],[77.3,12086],[63.8,12171],[58.5,12253],[58.3,12337],[58.3,12420],[58.3,12503],[58.3,12587],[58.3,12670],[58.3,12753],[67.2,12837],[76.3,12919],[76.3,13003],[76.3,13086],[77.7,13170],[85.2,13253],[86,13337],[86,13422],[86,13503],[87.3,13591],[88.5,13670],[88.8,13753],[89.1,13839],[89.1,13920],[89.1,14004],[89.1,14087],[89.1,14170],[89.1,14253],[89.1,14337],[89.1,14420],[89.1,14503],[89.1,14587],[89.1,14670],[89.1,14755],[89.1,14836],[89.1,14920],[89.1,15004],[89.1,15087],[89.1,15171],[89.1,15253],[89.1,15336],[89.1,15420],[89.1,15503],[89.1,15587],[89.1,15670],[89.1,15753],[89.1,15837],[89.1,15919],[89.1,16002],[89.1,16086],[89.1,16169],[89.1,16253],[88.7,16337],[70.3,16420],[52.6,16503],[51.9,16587],[51.9,16670],[51.3,16754],[8.4,17253],[7.7,17337],[7.8,17420],[7.8,17504],[7.8,17587],[7.8,17671],[7.8,17753],[7.8,17837],[7.8,17920],[7.8,18004],[7.8,18086],[7.8,18170],[7.8,18253],[7.8,18338],[7.8,18420],[7.8,18503],[20.9,18587],[46.5,18670],[50.2,18753],[50.2,18836],[50.2,18919],[53.4,19003],[59,19088],[60.1,19170],[60.1,19253],[60.1,19338],[60.1,19420],[60.1,19504],[60.1,19587],[60.1,19670],[60.1,19753],[60.1,19837],[60.1,19921],[60.1,20003],[60.1,20087],[60.1,20170],[60.1,20253],[60.1,20337],[60.1,20420],[60.1,20503],[60.1,20587],[60.1,20669],[60.1,20753],[60.1,20836],[60.1,20920],[60.1,21005],[60.1,21087],[60.1,21171],[60.1,21253],[60.1,21338],[60.1,21420],[60.1,21503],[60.1,21589],[60.1,21671],[60.1,21752],[60.1,21837],[60.1,21919],[60.1,22003],[60.1,22086],[60.1,22169],[60.1,22253],[60.1,22338],[60.1,22420],[60.1,22505],[60.1,22586],[60.1,22671],[60.1,22754],[60.1,22837],[60.1,22921],[60.1,23005],[60.1,23087],[60.1,23169],[60.1,23254],[60.1,23336],[61.3,23420],[62.5,23503],[62.7,23587],[62.7,23670],[62.7,23753],[62.7,23837],[62.7,23921],[62.7,24004],[62.7,24087],[62.7,24170],[62.4,24253],[61.1,24337],[61,24419],[61,24504],[61.1,24587],[62,24670],[63.9,24753],[68.2,24836],[68.7,24920],[68.7,25004],[68.7,25087],[68.7,25170],[69.1,25253],[70.6,25337],[71.4,25420],[72,25503],[72.4,25586],[72.5,25671],[72.5,25754],[72.5,25836],[72.5,25920],[72.5,26003],[72.5,26087],[72.5,26170],[72.5,26254],[72.5,26337],[72.5,26419],[72.5,26503],[72.5,26588],[72.5,26670],[72.5,26753],[72.5,26837],[72.5,26920],[72.5,27003],[72.5,27086],[72.5,27170],[72.5,27253],[72.5,27337],[72.5,27420],[72.5,27503],[72.5,27587],[72.5,27670],[72.5,27753],[72.5,27837],[72.5,27919],[72.5,28003],[72.5,28086],[72.5,28170],[72.5,28253],[72.5,28337],[72.5,28419]]",1,0,974.7822,977.5473,57.32421875,1.9511,"[{""rating"":57.32421875,""responseTime"":1.9510999999047272}]",space,2.2424,,977.5474,Not at all,0,977.5492,,,[],,0,11,11,11,1,audio/Narrative8Situation2.wav,audio/Narrative7Situation2.wav,audio/Narrative6Situation2.wav,audio/Narrative5Situation2.wav,3,3,3,3,,,,,,,,,,,,,,,,,,,,,,,,,,,,,,,,,,,
,,,,,,60fee712cac724d08d2d8858,2024-02-08_16h04.31.501,group3.1-3.2-social-tom,2023.2.2,MacIntel,117.6470588,65c5074098b851296ff0b7ed,65c5419152c4ab9205c43f7f,,,,,,,,,,,,,,,,,,,,,,,,,,,,,977.5494,2,audio/Narrative6Situation3.wav,982.5564,,982.5564,995.1575,"[[55.3,1004],[54.1,1087],[53.9,1170],[53.8,1254],[53.4,1337],[51.3,1422],[49.8,1504],[48.2,1587],[48.1,1670],[48.1,1754],[48.1,1837],[9.7,7091],[24.2,7174],[32.2,7258],[32.2,7341],[32.2,7424],[32.4,7508],[45.9,7595],[53.2,7674],[56,7758],[58.6,7841],[59.5,7925],[59.5,8007],[59.5,8091],[59.5,8175],[59.5,8258],[59.8,8341],[60.8,8427],[60.9,8508],[61.1,8591],[61.7,8675],[62.2,8757],[62.8,8841],[63.4,8925],[63.8,9008],[64.6,9091],[65,9174],[65,9258],[65,9340],[65,9425],[65,9508],[65,9591],[65,9673],[65,9758],[65,9841],[65,9924],[65,10007],[65,10091],[65,10174],[65,10258],[65,10341],[65,10424],[65,10508],[65,10591],[65,10675],[65,10758],[65,10841],[65,10925],[65,11008],[65,11091],[65,11174],[65,11258],[65,11341],[65,11424],[65,11508],[65,11591],[65,11675],[65,11758],[65,11841],[65,11925],[64.6,12008],[63.8,12091],[63.5,12175],[63.4,12258],[62,12341],[60.5,12424],[59.9,12508],[59,12591]]",1,0,995.1578,997.7742,42.04127397,1.5269,"[{""rating"":42.04127397486773,""responseTime"":1.5269000000953383}]",space,2.0916,,997.7742,Definitely yes,100,997.7755,,,[],,0,12,12,12,1,audio/Narrative8Situation3.wav,audio/Narrative7Situation3.wav,audio/Narrative6Situation3.wav,audio/Narrative5Situation3.wav,4,8,5,3,,,,,,,,,,,,,,,,,,,,,,,,,,,,,,,,,,,
,,,,,,60fee712cac724d08d2d8858,2024-02-08_16h04.31.501,group3.1-3.2-social-tom,2023.2.2,MacIntel,117.6470588,65c5074098b851296ff0b7ed,65c5419152c4ab9205c43f7f,,,,,,,,,,,,,,,,,,,,,,,,,,,,,997.7757,2,audio/Narrative6Situation4.wav,999.7776,,999.7777,1012.3753,"[[39.1,1328],[35.6,1412],[34.9,1495],[34.9,1578],[34.9,1662],[34.9,1745],[34.9,1829],[33.3,1912],[32.5,1998],[25,2079],[4,2161],[1.7,2245],[1.7,2328],[1.7,2413],[1.3,2494],[0.1,2578],[1.2,5328],[3.3,5412],[4.6,5495],[6,5578],[7.3,5662],[8,5745],[8.5,5828],[8.5,5911],[8.5,5995],[8.5,6078],[8.5,6161],[8.5,6246],[8.7,6327],[9.8,6413],[10.2,6494],[10.2,6578],[10.3,6660],[10.3,6745],[10.3,6828],[10.3,6911],[10.3,6995],[10.3,7078],[10.3,7161],[10.3,7244],[10.3,7329],[10.3,7412],[10.3,7495],[10.3,7578],[10.3,7661],[10.3,7745],[10.3,7828],[10.3,7911],[10.3,7994],[10.3,8078],[10.3,8161],[10.3,8245],[10.3,8328],[10.3,8411],[10.3,8494],[10.3,8579],[10.3,8661],[10.3,8744],[10.3,8828],[10.3,8914],[10.3,8995],[10.3,9077],[10.3,9161],[10.3,9245],[11.5,9328],[38.9,9412],[65.1,9828],[71,9911],[76.1,9995],[80.2,10078],[80.2,10161],[80.2,10244],[80.7,10328],[87.3,10413],[89.8,10495],[90.2,10578],[91,10661],[94.2,10745],[98.2,10828],[99.6,10912],[99.6,10994],[99.6,11078],[99.8,11164],[100,11245],[100,11328],[100,11411],[100,11496],[100,11578],[100,11661],[100,11745],[100,11828],[100,11912],[100,11995],[100,12078],[100,12161],[100,12245],[100,12328],[100,12411],[100,12496],[100,12578]]",1,0,1012.3761,1014.4562,50.36272321,1.5305,"[{""rating"":50.36272321428571,""responseTime"":1.5305000000000746}]",space,1.5576,,1014.4563,Definitely yes,100,1014.457,,,[],,0,13,13,13,1,audio/Narrative8Situation4.wav,audio/Narrative7Situation4.wav,audio/Narrative6Situation4.wav,audio/Narrative5Situation4.wav,3,3,2,1,,,,,,,,,,,,,,,,,,,,,,,,,,,,,,,,,,,
,,,,,,60fee712cac724d08d2d8858,2024-02-08_16h04.31.501,group3.1-3.2-social-tom,2023.2.2,MacIntel,117.6470588,65c5074098b851296ff0b7ed,65c5419152c4ab9205c43f7f,,,,,,,,,,,,,,,,,,,,,,,,,,,,,1014.4572,2,audio/Narrative6Situation5.wav,1016.4647,,1016.4648,1024.4106,"[[49.7,999],[49.6,1083],[49.6,1165],[49.6,1250],[49.6,1333],[49.6,1416],[49.6,1500],[49.6,1583],[49.6,1666],[49.6,1749],[52.5,1833],[64,1916],[74.5,1999],[77.9,2082],[77.9,2166],[77.9,2249],[85.3,2335],[97.6,2416],[100,2508],[100,2591],[100,2674],[100,2758],[100,2840],[100,2924],[100,3008],[100,3091],[100,3174],[100,3258],[100,3341],[100,3424],[100,3508],[100,3591],[100,3674],[100,3757],[100,3841],[100,3925],[100,4008],[100,4091],[100,4174],[100,4257],[100,4341],[100,4424],[100,4508],[100,4591],[100,4674],[100,4757],[100,4841],[100,4924],[100,5008],[100,5091],[100,5174],[100,5258],[100,5341],[100,5423],[100,5507],[100,5591],[100,5675],[100,5757],[100,5841],[100,5924],[100,6008],[100,6091],[100,6174],[100,6258],[100,6341],[100,6425],[100,6507],[100,6591],[100,6672],[100,6754],[100,6837],[100,6919],[100,7003],[100,7087],[100,7169],[100,7253],[100,7337],[100,7420],[100,7503],[100,7586],[100,7670],[100,7753],[100,7837],[100,7920]]",1,0,1024.4107,1026.8356,99.86307457,1.4365,"[{""rating"":99.86307457010581,""responseTime"":1.4365000000000236}]",space,1.9004,,1026.8356,Partially,50,1026.8377,,,[],,0,14,14,14,1,audio/Narrative8Situation5.wav,audio/Narrative7Situation5.wav,audio/Narrative6Situation5.wav,audio/Narrative5Situation5.wav,2,5,2,5,,,,,,,,,,,,,,,,,,,,,,,,,,,,,,,,,,,
,,,,,,60fee712cac724d08d2d8858,2024-02-08_16h04.31.501,group3.1-3.2-social-tom,2023.2.2,MacIntel,117.6470588,65c5074098b851296ff0b7ed,65c5419152c4ab9205c43f7f,,,,,,,,,,,,,,,,,,,,,,,,,,,,,1026.8378,2,audio/Narrative6Situation6.wav,1028.8438,,1028.8439,1039.912,"[[99.7,1425],[99.5,1508],[99.4,1591],[99.4,1674],[99.4,1758],[99.4,1841],[99.4,1924],[99.4,2008],[99.4,2091],[96.5,2174],[71.5,2258],[61.5,2341],[61.3,2425],[61.3,2507],[61.3,2591],[61.3,2674],[61.3,2759],[64.8,2841],[76.3,2924],[77.9,3008],[77.9,3100],[77.9,3187],[81,3266],[93.4,3349],[97.4,3433],[100,3516],[100,3599],[100,3683],[100,3765],[100,3850],[100,3933],[100,4016],[100,4099],[100,4182],[100,4268],[100,4349],[100,4433],[100,4515],[100,4599],[100,4683],[100,4766],[100,4849],[100,4932],[100,5016],[100,5099],[100,5183],[100,5266],[100,5349],[100,5432],[100,5515],[100,5599],[100,5682],[100,5766],[100,5849],[100,5932],[100,6016],[100,6100],[100,6182],[100,6266],[100,6349],[100,6432],[100,6516],[100,6599],[100,6683],[100,6766],[100,6849],[100,6933],[100,7015],[100,7099],[100,7183],[100,7266],[100,7349],[100,7433],[100,7515],[100,7600],[100,7683],[100,7766],[100,7849],[100,7932],[100,8016],[100,8099],[100,8182],[100,8266],[100,8349],[100,8433],[100,8516],[100,8599],[100,8682],[100,8765],[100,8849],[100,8933],[100,9016],[100,9100],[100,9184],[100,9267],[100,9348],[100,9433],[100,9517],[100,9600],[100,9682],[100,9766],[100,9849],[100,9932],[100,10016],[100,10100],[100,10183],[100,10266],[100,10348],[100,10433],[100,10517],[100,10599],[100,10682],[100,10766],[100,10849],[100,10932],[100,11016]]",1,0,1039.912,1042.4181,99.35567543,1.5176,"[{""rating"":99.35567542989419,""responseTime"":1.5175999999046326}]",space,1.9836,,1042.4182,Definitely yes,100,1042.4205,,,[],,0,15,15,15,1,audio/Narrative8Situation6.wav,audio/Narrative7Situation6.wav,audio/Narrative6Situation6.wav,audio/Narrative5Situation6.wav,2,3,2,3,,,,,,,,,,,,,,,,,,,,,,,,,,,,,,,,,,,
,,,,,,60fee712cac724d08d2d8858,2024-02-08_16h04.31.501,group3.1-3.2-social-tom,2023.2.2,MacIntel,117.6470588,65c5074098b851296ff0b7ed,65c5419152c4ab9205c43f7f,,,,,,,,,,,,,,,,,,,,,,,,,,,,,1042.4207,2,audio/Narrative6Situation7.wav,1047.4275,,1047.4277,1072.2691,"[[98,1007],[88.2,1091],[85.1,1174],[80.6,1257],[70.3,1341],[66.4,1424],[62.5,1507],[58.1,1590],[57.2,1674],[57.2,1757],[57.2,1840],[57.2,1923],[48.6,2007],[41.2,2090],[38.8,2174],[38.6,2256],[38.6,2340],[38.6,2424],[38.6,2507],[38.6,2590],[38.6,2673],[34.3,2757],[19.7,2841],[11.9,2924],[8.4,3010],[7.2,3090],[7.2,3174],[7.2,3256],[5.9,3340],[0.6,3424],[3.9,7844],[35.3,7924],[51.8,8007],[51.8,8090],[51.8,8173],[51.8,8256],[54.5,8341],[55.7,8424],[56.4,8507],[57.6,8591],[57.9,8673],[57.9,8757],[57.9,8840],[57.9,8924],[57.9,9008],[57.9,9090],[60.4,9175],[65.2,9257],[66.5,9340],[66.5,9424],[66.5,9507],[66.5,9590],[66.5,9673],[66.5,9756],[66.5,9841],[66.5,9924],[66.5,10007],[66.5,10090],[66.5,10175],[66.5,10257],[66.5,10340],[67.6,10424],[69.7,10506],[71.5,10590],[73.8,10673],[75.1,10758],[76.7,10840],[77.3,10924],[77.4,11006],[77.4,11090],[77.4,11174],[77.4,11256],[77.4,11340],[77.4,11424],[77.4,11507],[77.4,11590],[77.4,11673],[77.4,11757],[77.4,11840],[77.4,11924],[77.4,12007],[77.4,12089],[77.4,12174],[77.4,12257],[77.4,12340],[77.4,12423],[77.4,12507],[77.4,12590],[77.4,12673],[77.4,12756],[77.4,12841],[77.4,12924],[77.4,13006],[77.4,13090],[77.4,13174],[77.4,13257],[77.4,13340],[77.4,13424],[77.4,13507],[77.4,13590],[77.4,13673],[77.4,13756],[77.4,13839],[77.4,13924],[77.4,14007],[77.4,14091],[77.4,14173],[77.4,14256],[77.4,14341],[77.4,14424],[77.4,14507],[77.4,14590],[77.4,14674],[77.4,14758],[77.4,14840],[77.4,14924],[77.4,15007],[77.4,15091],[77.4,15174],[77.4,15259],[77.4,15339],[77.4,15423],[77.4,15507],[77.4,15593],[77.4,15673],[77.4,15757],[77.4,15841],[77.4,15923],[77.4,16007],[77.4,16091],[77.4,16174],[77.4,16257],[77.4,16340],[77.4,16424],[77.4,16507],[77.4,16590],[77.4,16674],[77.3,16757],[72.9,16840],[61.7,16924],[53.4,17007],[49.3,17091],[45.6,17174],[40.6,17257],[27.8,17340],[18.2,17424],[17.1,17507],[17.1,17590],[17.1,17674],[16.4,17757],[13.7,17840],[12.9,17924],[12.8,18006],[12.8,18090],[12.8,18174],[12.8,18257],[12.8,18340],[12.4,18424],[5,18507],[0.1,18590],[2,19257],[2.9,19341],[3.6,19423],[4.1,19507],[4.1,19591],[4.1,19673],[4,19756],[3.3,19840],[0.9,19924]]",1,0,1072.2693,1075.4015,29.17183366,1.7941,"[{""rating"":29.171833664021165,""responseTime"":1.7940999999045744}]",space,2.6138,,1075.4015,Definitely yes,100,1075.4021,,,[],,0,16,16,16,1,audio/Narrative8Situation7.wav,audio/Narrative7Situation7.wav,audio/Narrative6Situation7.wav,audio/Narrative5Situation7.wav,3,5,5,4,,,,,,,,,,,,,,,,,,,,,,,,,,,,,,,,,,,
,,,,,,60fee712cac724d08d2d8858,2024-02-08_16h04.31.501,group3.1-3.2-social-tom,2023.2.2,MacIntel,117.6470588,65c5074098b851296ff0b7ed,65c5419152c4ab9205c43f7f,,,,,,,,,,,,,,,,,,,,,,,,,,,,,1075.4023,2,audio/Narrative6Situation8.wav,1080.4033,,1080.4033,1087.245,"[[999,11],[999,89],[999,173],[999,257],[999,340],[999,423],[999,506],[999,590],[999,673],[999,757],[999,840],[999,923],[999,1006],[999,1090],[999,1172],[999,1256],[999,1340],[999,1423],[48.6,1507],[49.4,1590],[49.6,1673],[49.7,1757],[49.7,1840],[49.7,1922],[49.7,2006],[49.7,2089],[49.7,2173],[49.7,2257],[49.7,2340],[49.7,2425],[49.7,2506],[49.7,2590],[49.7,2673],[49.7,2757],[49.7,2839],[49.7,2923],[30,3007],[14.1,3090],[12.6,3173],[12.6,3257],[12.6,3339],[12,3423],[9,3507],[8,3590],[7.4,3673],[5.4,3757],[2.6,3840]]",1,0,1087.2453,1090.8439,0.559069114,2.473,"[{""rating"":0.5590691137566162,""responseTime"":2.4729999999999563}]",space,3.0756,,1090.8442,Definitely yes,100,1090.8471,,,[],,0,17,17,17,1,audio/Narrative8Situation8.wav,audio/Narrative7Situation8.wav,audio/Narrative6Situation8.wav,audio/Narrative5Situation8.wav,3,2,5,3,,,,,,,,,,,,,,,,,,,,,,,,,,,,,,,,,,,
,,,,,,60fee712cac724d08d2d8858,2024-02-08_16h04.31.501,group3.1-3.2-social-tom,2023.2.2,MacIntel,117.6470588,65c5074098b851296ff0b7ed,65c5419152c4ab9205c43f7f,,,,,,,,,,,,,,,,,,,,,,,,,,,,,1090.8475,2,audio/Narrative6Situation9.wav,1094.8513,,1094.8514,1104.777,"[[1,758],[3,841],[3.8,925],[3.8,1008],[3.8,1092],[3.1,1175],[2.3,1258],[2,1342],[1.2,1425],[0.8,1508],[0.3,1592]]",1,0,1104.7771,1108.6352,0.093005952,2.3127,"[{""rating"":0.09300595238095344,""responseTime"":2.3126999998091833}]",space,3.3357,,1108.6352,Not at all,0,1113.8597,0.011884094,4.178,"[{""rating"":0.011884093915343064,""responseTime"":4.177999999999884}]",space,0,18,18,18,1,audio/Narrative8Situation9.wav,audio/Narrative7Situation9.wav,audio/Narrative6Situation9.wav,audio/Narrative5Situation9.wav,3,2,4,3,,,4.6976,,,,,,,,,,,,,,,,,,,,,,,,,,,,,,,,
,,,,,,60fee712cac724d08d2d8858,2024-02-08_16h04.31.501,group3.1-3.2-social-tom,2023.2.2,MacIntel,117.6470588,65c5074098b851296ff0b7ed,65c5419152c4ab9205c43f7f,,,,,,,,,,,,,,,,,,,,,,,,,,,,,,,,,,,,,,,,,,,,,,,,,,,,,,,,,,,,,,,,,,,,,,,,1113.8599,1173.8605,,1173.8614,1424.7436,space,250.5706,,,,,,,,,,,,,,,,,,,,,,,,
