exp_question,consent.started,consent.stopped,consentResponse.keys,consentResponse.rt,consentResponse.duration,participantID,date,expName,psychopyVersion,OS,frameRate,STUDY_ID,SESSION_ID,opening1.started,opening1.stopped,keyEndingOpening1.keys,keyEndingOpening1.rt,keyEndingOpening1.duration,volumeAdjust.started,volumeAdjust.stopped,endingAdjust.keys,endingAdjust.rt,endingAdjust.duration,opening2.started,opening2.stopped,keyEndingOpening.keys,keyEndingOpening.rt,keyEndingOpening.duration,mouse.x,mouse.y,mouse.leftButton,mouse.midButton,mouse.rightButton,mouse.time,instructionLoop.thisRepN,instructionLoop.thisTrialN,instructionLoop.thisN,instructionLoop.thisIndex,instructionLoop.ran,readyForAudio.started,readyForAudio.stopped,fixation.started,fixation.stopped,endPractice.keys,audioPre.started,audioPre.stopped,continuousResponses_audio,continuousSlider.response,continuousSlider.rt,catchQuestion.started,catch_label,catch_value,catchQuestion.stopped,catchQuestionSlider.response,catchQuestionSlider.rt,catchQuestionSlider.history,confirmResponse_2.keys,intRating.started,intRating.stopped,intQuestionSlider.response,intQuestionSlider.rt,intQuestionSlider.history,confirmResponse.keys,confirmResponse.rt,confirmResponse.duration,audioRunLoop.thisRepN,audioRunLoop.thisTrialN,audioRunLoop.thisN,audioRunLoop.thisIndex,audioRunLoop.ran,conditions1_1,conditions2_1,conditions1_2,conditions2_2,dur1_1,dur2_1,dur1_2,dur2_2,endPractice.rt,endPractice.duration,confirmResponse_2.rt,confirmResponse_2.duration,runIntervalBreak.started,runIntervalBreak.stopped,endingBreakKey.keys,endingBreakKey.rt,endingBreakKey.duration,connection.started,connection.stopped,connectionEnding.keys,connectionEnding.rt,connectionEnding.duration,readyForText.started,readyForText.stopped,textPre.started,textPre.stopped,continuousResponses_text,textRunLoop.thisRepN,textRunLoop.thisTrialN,textRunLoop.thisN,textRunLoop.thisIndex,textRunLoop.ran,text1_1,text1_2,text2_1,text2_2,runBreakText.started,runBreakText.stopped,endingBreakKey_2.keys,endingBreakKey_2.rt,endingBreakKey_2.duration,ending.started,ending.stopped,endingEnding.keys,endingEnding.rt,endingEnding.duration
tom,0.0003,5.1149,y,4.8024,,61202b6be797314915cb1bd7,2024-02-05_10h15.17.224,group3.1-3.2-social-tom,2023.2.2,MacIntel,133.3333333,65b1b24e3a500fd6b5dc9abd,65c109556c65fd9357ae3391,,,,,,,,,,,,,,,,,,,,,,,,,,,,,,,,,,,,,,,,,,,,,,,,,,,,,,,,,,,,,,,,,,,,,,,,,,,,,,,,,,,,,,,,,,,,,,,,,,,,,,,
,,,,,,61202b6be797314915cb1bd7,2024-02-05_10h15.17.224,group3.1-3.2-social-tom,2023.2.2,MacIntel,133.3333333,65b1b24e3a500fd6b5dc9abd,65c109556c65fd9357ae3391,5.1152,29.6426,space,24.508,,,,,,,,,,,,,,,,,,,,,,,,,,,,,,,,,,,,,,,,,,,,,,,,,,,,,,,,,,,,,,,,,,,,,,,,,,,,,,,,,,,,,,,,,,,,,,,,,,,
,,,,,,61202b6be797314915cb1bd7,2024-02-05_10h15.17.224,group3.1-3.2-social-tom,2023.2.2,MacIntel,133.3333333,65b1b24e3a500fd6b5dc9abd,65c109556c65fd9357ae3391,,,,,,29.6429,37.2007,space,7.2491,,,,,,,,,,,,,,,,,,,,,,,,,,,,,,,,,,,,,,,,,,,,,,,,,,,,,,,,,,,,,,,,,,,,,,,,,,,,,,,,,,,,,,,,,,,,,,
,,,,,,61202b6be797314915cb1bd7,2024-02-05_10h15.17.224,group3.1-3.2-social-tom,2023.2.2,MacIntel,133.3333333,65b1b24e3a500fd6b5dc9abd,65c109556c65fd9357ae3391,,,,,,,,,,,37.2052,44.3802,space,7.1596,,[],[],[],[],[],[],0,0,0,0,1,,,,,,,,,,,,,,,,,,,,,,,,,,,,,,,,,,,,,,,,,,,,,,,,,,,,,,,,,,,,,,,,,,,,,,,,,,,,,
,,,,,,61202b6be797314915cb1bd7,2024-02-05_10h15.17.224,group3.1-3.2-social-tom,2023.2.2,MacIntel,133.3333333,65b1b24e3a500fd6b5dc9abd,65c109556c65fd9357ae3391,,,,,,,,,,,44.3808,64.4126,space,19.9845,,[],[],[],[],[],[],1,0,1,0,1,,,,,,,,,,,,,,,,,,,,,,,,,,,,,,,,,,,,,,,,,,,,,,,,,,,,,,,,,,,,,,,,,,,,,,,,,,,,,
,,,,,,61202b6be797314915cb1bd7,2024-02-05_10h15.17.224,group3.1-3.2-social-tom,2023.2.2,MacIntel,133.3333333,65b1b24e3a500fd6b5dc9abd,65c109556c65fd9357ae3391,,,,,,,,,,,64.4239,101.0667,space,36.615,,[],[],[],[],[],[],2,0,2,0,1,,,,,,,,,,,,,,,,,,,,,,,,,,,,,,,,,,,,,,,,,,,,,,,,,,,,,,,,,,,,,,,,,,,,,,,,,,,,,
,,,,,,61202b6be797314915cb1bd7,2024-02-05_10h15.17.224,group3.1-3.2-social-tom,2023.2.2,MacIntel,133.3333333,65b1b24e3a500fd6b5dc9abd,65c109556c65fd9357ae3391,,,,,,,,,,,101.0779,130.0317,space,28.9395,,[],[],[],[],[],[],3,0,3,0,1,,,,,,,,,,,,,,,,,,,,,,,,,,,,,,,,,,,,,,,,,,,,,,,,,,,,,,,,,,,,,,,,,,,,,,,,,,,,,
,,,,,,61202b6be797314915cb1bd7,2024-02-05_10h15.17.224,group3.1-3.2-social-tom,2023.2.2,MacIntel,133.3333333,65b1b24e3a500fd6b5dc9abd,65c109556c65fd9357ae3391,,,,,,,,,,,130.0437,145.9192,space,15.8629,,[],[],[],[],[],[],4,0,4,0,1,,,,,,,,,,,,,,,,,,,,,,,,,,,,,,,,,,,,,,,,,,,,,,,,,,,,,,,,,,,,,,,,,,,,,,,,,,,,,
,,,,,,61202b6be797314915cb1bd7,2024-02-05_10h15.17.224,group3.1-3.2-social-tom,2023.2.2,MacIntel,133.3333333,65b1b24e3a500fd6b5dc9abd,65c109556c65fd9357ae3391,,,,,,,,,,,,,,,,,,,,,,,,,,,145.9339,148.5139,148.535,150.543,,150.5434,180.2848,"[[73.2,1319],[47.2,1419],[46.4,1520],[46.4,1619],[48,1718],[50,1821],[50.3,1919],[50.4,2020],[50.4,2119],[50.4,2219],[50.4,2319],[50.4,2419],[50.4,2519],[50.4,2620],[50.4,2719],[50.4,2819],[50.4,2919],[50.4,3020],[50.4,3119],[50.4,3219],[50.4,3319],[50.4,3419],[50.4,3519],[50.4,3619],[50.4,3718],[50.4,3821],[50.4,3918],[50.4,4019],[50.4,4120],[50.4,4219],[50.4,4319],[50.4,4420],[50.4,4519],[50.4,4620],[50.4,4720],[50.4,4819],[50.4,4919],[50.4,5019],[50.4,5119],[50.4,5219],[50.4,5319],[50.4,5419],[50.4,5519],[50.4,5619],[50.4,5719],[50.4,5819],[50.4,5919],[50.4,6019],[50.4,6118],[50.4,6219],[50.4,6319],[50.4,6420],[50.4,6519],[50.4,6619],[50.4,6719],[50.4,6820],[50.4,6919],[50.4,7020],[50.4,7120],[50.4,7219],[50.4,7319],[50.4,7419],[50.4,7519],[50.4,7619],[50.4,7719],[50.4,7819],[50.4,7921],[50.4,8019],[50.4,8120],[50.4,8219],[50.4,8319],[50.4,8419],[50.4,8519],[50.4,8620],[50.4,8719],[50.4,8819],[50.4,8919],[50.4,9019],[50.4,9120],[50.4,9219],[50.4,9319],[50.4,9420],[50.4,9520],[50.4,9620],[50.4,9718],[50.4,9819],[50.4,9919],[50.4,10019],[50.4,10119],[50.4,10219],[50.4,10319],[50.4,10419],[50.4,10520],[50.4,10619],[50.4,10718],[50.4,10840],[50.4,10940],[50.4,11040],[50.4,11140],[50.4,11240],[50.4,11340],[50.4,11440],[50.4,11540],[50.4,11640],[50.4,11740],[50.4,11840],[50.4,11941],[50.4,12040],[50.4,12140],[50.4,12248],[50.4,12348],[50.4,12449],[50.4,12549],[50.4,12648],[50.4,12749],[50.4,12849],[50.4,12948],[50.7,13056],[52.5,13149],[55.3,13250],[60,13350],[62.9,13449],[63.2,13549],[63.2,13657],[63.2,13757],[63.2,13857],[63.2,13956],[63.2,14057],[63.2,14157],[63.2,14257],[63.2,14357],[63.2,14457],[63.2,14557],[63.2,14657],[63.2,14757],[63.2,14857],[63.2,14957],[63.2,15057],[63.2,15156],[63.2,15256],[63.2,15356],[63.2,15458],[63.2,15556],[63.2,15656],[63.2,15757],[63.2,15857],[63.2,15956],[63.2,16057],[63.2,16157],[63.2,16257],[63.2,16356],[63.2,16457],[63.2,16557],[63.2,16657],[63.2,16757],[63.2,16856],[63.2,16956],[63.2,17056],[63.2,17157],[63.2,17256],[63.2,17356],[63.2,17457],[63.2,17556],[63.2,17657],[63.2,17756],[63.2,17857],[63.2,17957],[63.2,18057],[63.2,18156],[63.2,18257],[63.2,18356],[63.2,18457],[63.2,18556],[63.2,18657],[63.2,18757],[63.2,18857],[63.2,18957],[63.2,19057],[63.2,19157],[63.2,19257],[63.2,19356],[63.2,19457],[63.2,19556],[63.2,19656],[63.2,19757],[63.2,19856],[63.2,19957],[63.2,20057],[63.2,20157],[63.2,20257],[63.2,20357],[63.2,20457],[65.5,20557],[68.3,20657],[68.6,20756],[68.6,20857],[68.6,20956],[68.6,21057],[68.6,21156],[68.6,21257],[68.6,21356],[68.6,21457],[68.6,21557],[68.6,21658],[68.6,21758],[68.6,21857],[68.6,21957],[68.6,22057],[68.6,22157],[68.6,22257],[68.6,22356],[68.6,22457],[68.6,22556],[68.6,22656],[68.6,22757],[68.6,22857],[68.6,22957],[68.6,23057],[68.6,23157],[68.6,23257],[68.6,23356],[68.6,23457],[68.6,23557],[68.6,23657],[68.6,23757],[68.6,23857],[76.2,23957],[84.9,24057],[87.4,24158],[89.5,24258],[89.5,24358],[89.5,24457],[89.5,24558],[89.5,24657],[89.5,24757],[89.5,24856],[89.5,24957],[89.5,25056],[89.5,25157],[89.5,25256],[89.5,25357],[89.5,25456],[89.5,25556],[89.5,25656],[89.5,25757],[89.5,25857],[89.5,25958],[89.5,26056],[89.5,26157],[89.5,26258],[89.5,26357],[89.5,26457],[89.5,26557],[89.5,26657],[89.5,26757],[89.5,26856],[89.5,26957],[89.5,27056],[89.5,27157],[89.5,27256],[89.5,27356],[89.5,27457],[89.5,27557],[89.5,27656],[89.5,27756],[89.5,27858],[89.5,27957],[89.5,28056],[89.5,28157],[89.5,28257],[89.5,28357],[89.5,28456],[89.5,28557],[89.5,28657],[89.5,28757],[89.5,28857],[89.5,28957],[89.5,29057],[89.5,29156],[89.5,29257],[89.5,29356],[89.5,29457],[89.5,29557],[89.5,29657]]",1,0,180.2855,Half the time,50,180.2898,,,[],,180.29,184.1517,77.55456349,2.5796,"[{""rating"":77.5545634920635,""responseTime"":2.5795999999999992}]",space,3.3471,,0,0,0,0,1,audio/Narrative13Situation2.wav,audio/Narrative13Situation2.wav,audio/Narrative13Situation2.wav,audio/Narrative13Situation2.wav,2,2,2,2,,,,,,,,,,,,,,,,,,,,,,,,,,,,,,,,,,,,,,
,,,,,,61202b6be797314915cb1bd7,2024-02-05_10h15.17.224,group3.1-3.2-social-tom,2023.2.2,MacIntel,133.3333333,65b1b24e3a500fd6b5dc9abd,65c109556c65fd9357ae3391,,,,,,,,,,,,,,,,,,,,,,,,,,,,,184.1522,187.1592,space,187.1593,203.0719,"[[77.5,999],[63.9,1099],[57.4,1200],[52.5,1299],[49.6,1399],[48.5,1500],[48.5,1599],[48.5,1698],[48.5,1800],[48.5,1899],[48.5,1999],[49,2099],[49.5,2199],[49.9,2299],[49.9,2399],[49.9,2498],[49.9,2598],[49.9,2699],[49.9,2799],[49.9,2899],[49.9,2999],[49.9,3101],[49.9,3199],[49.9,3299],[49.9,3400],[49.9,3498],[49.9,3599],[49.9,3699],[49.9,3799],[49.9,3899],[49.9,3999],[49.9,4100],[49.9,4199],[49.9,4301],[49.9,4400],[49.9,4498],[49.9,4598],[49.9,4700],[49.9,4799],[49.9,4900],[49.9,4999],[49.9,5099],[49.9,5199],[49.9,5300],[49.9,5398],[49.9,5498],[49.9,5600],[49.9,5700],[49.9,5799],[49.9,5902],[49.9,5999],[49.9,6100],[49.9,6199],[49.9,6299],[49.9,6399],[49.9,6498],[49.9,6598],[49.9,6699],[49.9,6800],[49.9,6900],[49.9,7006],[49.9,7112],[49.9,7208],[49.9,7308],[49.9,7407],[49.9,7507],[49.9,7608],[49.9,7708],[49.9,7807],[49.9,7908],[49.9,8007],[49.9,8108],[49.9,8208],[49.9,8308],[49.9,8408],[49.9,8507],[49.9,8607],[49.9,8708],[49.9,8807],[49.9,8907],[49.9,9007],[49.9,9108],[49.9,9208],[49.9,9307],[49.9,9407],[49.9,9507],[49.9,9607],[49.9,9707],[49.9,9807],[49.9,9908],[49.9,10008],[49.9,10111],[49.9,10208],[49.9,10307],[49.9,10409],[49.9,10507],[49.9,10607],[49.9,10708],[49.9,10807],[49.9,10908],[50.1,11008],[54.3,11116],[56.7,11219],[56.9,11316],[56.9,11416],[56.9,11515],[56.9,11616],[56.9,11716],[56.9,11815],[56.9,11916],[56.9,12016],[56.9,12116],[56.9,12215],[56.9,12316],[56.9,12421],[56.9,12520],[56.9,12620],[56.9,12720],[56.9,12820],[56.9,12920],[56.9,13019],[56.9,13122],[56.9,13220],[56.9,13320],[56.9,13420],[56.9,13520],[56.9,13620],[56.9,13720],[56.9,13820],[56.9,13920],[56.9,14020],[56.9,14119],[56.9,14220],[56.9,14319],[56.9,14420],[56.9,14521],[56.9,14620],[56.9,14720],[56.9,14819],[56.9,14920],[56.9,15020],[56.9,15120],[56.9,15220],[56.9,15320],[56.9,15420],[56.9,15520],[56.9,15620],[56.9,15719],[56.9,15820]]",1,0,203.0722,Not at all,0,203.0839,,,[],,203.0839,206.0372,53.74762318,2.1539,"[{""rating"":53.74762318121693,""responseTime"":2.1538999999999078}]",space,2.4369,,0,1,1,1,1,audio/Narrative7Situation1.wav,audio/Narrative8Situation1.wav,audio/Narrative5Situation1.wav,audio/Narrative6Situation1.wav,2,5,5,2,2.9948,,,,,,,,,,,,,,,,,,,,,,,,,,,,,,,,,,,,,
,,,,,,61202b6be797314915cb1bd7,2024-02-05_10h15.17.224,group3.1-3.2-social-tom,2023.2.2,MacIntel,133.3333333,65b1b24e3a500fd6b5dc9abd,65c109556c65fd9357ae3391,,,,,,,,,,,,,,,,,,,,,,,,,,,,,206.0375,209.0387,,209.0387,219.1471,"[[51.4,507],[50.2,607],[49.7,707],[49.3,807],[49.3,908],[49.3,1007],[49.3,1107],[49.3,1208],[49.3,1309],[49.3,1408],[49.3,1507],[49.3,1608],[49.3,1707],[49.3,1807],[48.7,1907],[48.7,2007],[48.7,2107],[48.7,2207],[48.7,2307],[48.7,2407],[48.7,2507],[48.7,2607],[48.7,2707],[48.7,2808],[48.7,2907],[48.7,3007],[48.7,3107],[48.7,3208],[48.7,3307],[48.7,3408],[48.7,3507],[48.7,3606],[48.7,3709],[48.7,3807],[48.7,3907],[48.7,4007],[48.7,4106],[48.7,4208],[48.7,4308],[50.5,4408],[62.4,4509],[71,4606],[75.3,4708],[76,4807],[76,4908],[75,5008],[74.5,5109],[74.5,5207],[74.5,5307],[74.5,5408],[74.5,5507],[74.5,5608],[74.5,5708],[74.5,5807],[74.5,5907],[74.5,6008],[74.5,6108],[74.5,6207],[74.5,6307],[74.5,6408],[74.5,6508],[74.5,6608],[74.5,6708],[79.6,6808],[88.9,6907],[93.2,7007],[94.7,7108],[96.1,7207],[96.1,7307],[96.1,7407],[96.1,7507],[96.1,7607],[96.1,7706],[96.1,7807],[96.1,7907],[96.1,8007],[96.1,8106],[96.1,8207],[96.1,8308],[96.1,8407],[96.1,8510],[96.1,8607],[96.1,8708],[96.1,8807],[96.1,8908],[96.1,9007],[96.1,9107],[96.1,9207],[96.1,9307],[96.1,9407],[96.1,9507],[92.8,9607],[88.1,9707],[87.4,9808],[86.5,9908],[86.5,10008],[86.5,10107]]",1,0,219.1473,Not at all,0,219.1503,,,[],,219.1504,221.8131,75.1885954,1.1581,"[{""rating"":75.18859540343915,""responseTime"":1.158100000000104}]",space,2.1479,,0,2,2,2,1,audio/Narrative7Situation2.wav,audio/Narrative8Situation2.wav,audio/Narrative5Situation2.wav,audio/Narrative6Situation2.wav,3,3,3,3,,,,,,,,,,,,,,,,,,,,,,,,,,,,,,,,,,,,,,
,,,,,,61202b6be797314915cb1bd7,2024-02-05_10h15.17.224,group3.1-3.2-social-tom,2023.2.2,MacIntel,133.3333333,65b1b24e3a500fd6b5dc9abd,65c109556c65fd9357ae3391,,,,,,,,,,,,,,,,,,,,,,,,,,,,,221.814,225.8218,,225.8219,248.1887,"[[999,11],[999,108],[999,208],[999,306],[999,407],[999,508],[999,607],[999,707],[47.3,807],[45.3,907],[43.6,1007],[43.6,1108],[43.6,1207],[43.6,1307],[43.6,1407],[27.6,1508],[16.7,1607],[14.9,1707],[13.9,1807],[13.8,1908],[14.7,2007],[15.5,2108],[15.5,2207],[15.5,2307],[15.5,2407],[15.5,2508],[15.5,2607],[15.5,2713],[15.5,2807],[15.5,2906],[15.5,3007],[15.5,3107],[15.5,3207],[15.5,3308],[15.5,3408],[15.5,3507],[15.5,3607],[15.5,3707],[15.5,3807],[15.5,3907],[15.5,4008],[15.5,4108],[15.5,4208],[15.5,4308],[15.5,4407],[15.5,4507],[15.5,4607],[15.5,4708],[15.5,4808],[15.5,4907],[15.5,5008],[15.5,5107],[15.5,5207],[15.5,5308],[15.5,5406],[16.9,5507],[26.5,5608],[34.8,5708],[39.3,5809],[40.5,5907],[40.5,6007],[40.5,6108],[40.5,6207],[40.5,6307],[40.5,6408],[40.5,6508],[40.5,6608],[40.5,6707],[41.9,6808],[43.2,6908],[46.5,7007],[47.8,7106],[48.4,7209],[48.7,7308],[49.2,7408],[49.9,7508],[51.3,7608],[52.9,7708],[53,7807],[53,7907],[53,8008],[53,8107],[53,8208],[53,8307],[53,8407],[53,8506],[53,8608],[53,8709],[53,8807],[53,8906],[53.8,9007],[64.1,9107],[78.2,9207],[84.4,9308],[88.1,9408],[90.5,9506],[90.7,9608],[90.7,9707],[90.7,9806],[90.7,9908],[90.7,10007],[90.7,10107],[90.7,10206],[90.7,10307],[90.7,10407],[90.7,10507],[90.7,10607],[90.7,10707],[90.7,10808],[90.7,10907],[90.7,11008],[90.7,11107],[90.7,11207],[90.7,11307],[90.7,11408],[90.7,11508],[90.7,11607],[86.9,11708],[83.9,11808],[81.1,11907],[80.4,12007],[80.3,12107],[80.3,12207],[80.3,12307],[80.3,12407],[80.3,12507],[80.3,12607],[80.3,12707],[80.3,12807],[80.3,12906],[80.3,13007],[80.3,13107],[80.3,13207],[80.3,13307],[80.3,13408],[80.3,13508],[80.3,13607],[80.3,13707],[80.3,13807],[80.3,13908],[80.3,14007],[80.3,14107],[80.3,14207],[80.3,14306],[80.3,14408],[80.3,14507],[80.3,14606],[80.3,14707],[80.3,14807],[80.3,14908],[80.3,15007],[80.3,15107],[80.3,15207],[80.5,15307],[82.6,15408],[85.9,15507],[86.5,15608],[87,15708],[87,15807],[87,15908],[87,16008],[87,16111],[88.2,16206],[88.5,16307],[88.6,16408],[88.6,16508],[88.6,16608],[88.6,16707],[88.6,16807],[88.6,16907],[88.6,17007],[88.6,17107],[88.6,17207],[88.6,17308],[88.6,17407],[88.6,17507],[88.6,17607],[88.6,17708],[88.6,17809],[88.6,17907],[88.6,18007],[88.6,18107],[88.6,18207],[88.6,18310],[88.6,18407],[88.6,18510],[88.6,18607],[88.6,18708],[88.6,18807],[88.6,18907],[88.6,19008],[88.6,19109],[88.6,19207],[88.6,19307],[88.6,19407],[88.6,19507],[88.6,19607],[88.6,19707],[88.6,19808],[88.6,19907],[88.6,20007],[88.6,20107],[88.6,20208],[88.6,20308],[88.6,20408],[88.6,20507],[88.6,20607],[88.6,20707],[88.6,20807],[88.6,20908],[88.6,21007],[88.6,21108],[88.6,21208],[88.6,21307],[88.6,21407],[88.6,21508],[88.6,21608],[88.6,21708],[88.6,21807],[91.1,21906],[96,22008],[97.5,22107],[97.6,22207],[97.6,22308]]",1,0,248.1895,Not at all,0,248.1915,,,[],,248.1915,249.696,74.71839864,0.9576,"[{""rating"":74.7183986441799,""responseTime"":0.9576000000000136}]",space,0.9858,,0,3,3,3,1,audio/Narrative7Situation3.wav,audio/Narrative8Situation3.wav,audio/Narrative5Situation3.wav,audio/Narrative6Situation3.wav,8,4,3,5,,,,,,,,,,,,,,,,,,,,,,,,,,,,,,,,,,,,,,
,,,,,,61202b6be797314915cb1bd7,2024-02-05_10h15.17.224,group3.1-3.2-social-tom,2023.2.2,MacIntel,133.3333333,65b1b24e3a500fd6b5dc9abd,65c109556c65fd9357ae3391,,,,,,,,,,,,,,,,,,,,,,,,,,,,,249.6964,252.697,,252.697,266.8559,"[[34,709],[18.2,808],[15.3,908],[15.3,1008],[15.3,1108],[15.3,1207],[15.3,1306],[18.8,1407],[20.5,1507],[20.4,1607],[19.8,1707],[19.8,1807],[19.8,1908],[19.8,2007],[19.8,2107],[19.8,2207],[19.8,2307],[19.8,2408],[19.8,2508],[19.8,2607],[19.8,2708],[19.8,2807],[19.8,2907],[19.8,3007],[19.8,3107],[19.8,3208],[19.8,3308],[19.8,3408],[19.8,3507],[19.8,3607],[19.8,3707],[19.8,3807],[19.8,3908],[19.8,4007],[19.8,4108],[19.8,4208],[19.8,4307],[19.8,4407],[19.8,4508],[19.8,4608],[19.8,4707],[19.8,4807],[19.8,4908],[19.8,5007],[19.8,5107],[19.8,5208],[19.8,5307],[19.8,5407],[19.8,5507],[19.8,5607],[19.8,5707],[19.8,5807],[19.8,5907],[19.8,6007],[19.8,6107],[19.8,6207],[19.8,6307],[19.8,6407],[19.8,6506],[19.8,6607],[19.8,6707],[19.8,6807],[19.8,6907],[19.8,7007],[19.8,7107],[19.8,7207],[19.8,7307],[19.8,7407],[19.8,7507],[21.2,7608],[27,7707],[36.5,7807],[44.5,7908],[46,8007],[46,8107],[46,8208],[46,8308],[53.8,8407],[67.1,8509],[71.4,8608],[71.5,8710],[71.5,8807],[71.5,8908],[73.3,9008],[77.1,9107],[81.8,9211],[83.8,9307],[84.6,9411],[84.6,9507],[84.6,9608],[84.6,9707],[84.6,9807],[84.6,9907],[84.6,10007],[84.6,10108],[84.6,10207],[84.6,10306],[84.6,10407],[84.6,10507],[84.6,10608],[84.6,10709],[84.6,10808],[84.6,10908],[84.6,11007],[84.6,11107],[84.6,11207],[84.6,11307],[84.6,11408],[84.6,11507],[84.6,11607],[84.6,11707],[84.6,11808],[84.6,11908],[84.6,12008],[84.6,12107],[84.6,12208],[84.6,12308],[84.6,12408],[84.6,12507],[84.6,12607],[84.6,12707],[84.6,12809],[84.6,12908],[84.6,13007],[84.6,13107],[84.6,13208],[84.6,13308],[84.6,13408],[84.6,13507],[82.3,13616],[74.8,13716],[70.8,13817],[68.7,13916],[68.5,14016],[68.5,14115]]",1,0,266.8564,Half the time,50,266.8597,,,[],,266.8598,269.1893,63.53288277,1.8349,"[{""rating"":63.532882771164026,""responseTime"":1.8349000000000615}]",space,1.8057,,0,4,4,4,1,audio/Narrative7Situation4.wav,audio/Narrative8Situation4.wav,audio/Narrative5Situation4.wav,audio/Narrative6Situation4.wav,3,3,1,2,,,,,,,,,,,,,,,,,,,,,,,,,,,,,,,,,,,,,,
,,,,,,61202b6be797314915cb1bd7,2024-02-05_10h15.17.224,group3.1-3.2-social-tom,2023.2.2,MacIntel,133.3333333,65b1b24e3a500fd6b5dc9abd,65c109556c65fd9357ae3391,,,,,,,,,,,,,,,,,,,,,,,,,,,,,269.1899,271.1964,,271.1965,279.4215,"[[25.4,400],[21.8,499],[18.6,601],[16.2,701],[15.1,800],[15,899],[15,998],[15,1102],[15,1201],[15,1300],[15,1399],[15,1500],[15,1600],[15,1699],[15,1799],[15,1899],[15,1999],[15,2101],[15,2199],[15,2300],[15,2400],[15,2499],[15,2599],[15,2699],[15,2800],[15,2900],[15,3000],[15,3100],[15,3199],[15,3300],[15,3399],[15,3501],[15,3599],[15,3701],[15,3800],[15,3900],[15,3999],[16.2,4108],[22,4208],[27,4308],[32.2,4408],[39.7,4508],[43.6,4607],[46.1,4707],[48.1,4807],[49.6,4907],[50.2,5008],[50.4,5108],[50.4,5207],[50.4,5307],[50.4,5408],[50.4,5508],[50.4,5608],[50.4,5707],[50.4,5807],[50.4,5907],[50.4,6008],[50.4,6108],[50.4,6210],[50.4,6307],[50.4,6409],[50.4,6509],[50.4,6608],[50.4,6707],[50.4,6808],[50.4,6909],[50.4,7007],[50.4,7108],[50.4,7209],[50.4,7308],[50.4,7408],[50.4,7508],[50.4,7607],[50.4,7708],[50.4,7807],[50.4,7907],[50.4,8008],[50.4,8107],[50.4,8208]]",1,0,279.4218,Half the time,50,279.4348,,,[],,279.4348,281.3294,35.37894759,1.325,"[{""rating"":35.378947585978835,""responseTime"":1.3250000000000455}]",space,1.3754,,0,5,5,5,1,audio/Narrative7Situation5.wav,audio/Narrative8Situation5.wav,audio/Narrative5Situation5.wav,audio/Narrative6Situation5.wav,5,2,5,2,,,,,,,,,,,,,,,,,,,,,,,,,,,,,,,,,,,,,,
,,,,,,61202b6be797314915cb1bd7,2024-02-05_10h15.17.224,group3.1-3.2-social-tom,2023.2.2,MacIntel,133.3333333,65b1b24e3a500fd6b5dc9abd,65c109556c65fd9357ae3391,,,,,,,,,,,,,,,,,,,,,,,,,,,,,281.3297,283.33,,283.3301,289.7895,"[[34.5,498],[25.4,598],[21,701],[19,799],[17.1,909],[17.1,1008],[17.7,1109],[17.7,1208],[17.7,1308],[17.7,1408],[17.7,1508],[17.7,1607],[17.7,1708],[17.7,1807],[17.7,1907],[17.7,2009],[17.7,2107],[17.7,2208],[17.7,2310],[17.7,2408],[17.7,2508],[17.7,2608],[17.7,2707],[17.7,2808],[17.7,2908],[17.7,3007],[17.7,3108],[17.7,3208],[17.7,3308],[17.7,3409],[17.7,3508],[17.7,3608],[17.7,3708],[17.7,3807],[17.7,3907],[17.7,4007],[17.7,4107],[17.7,4208],[17.7,4306],[17.7,4410],[17.7,4507],[17.7,4607],[17.7,4707],[17.7,4807],[17.7,4909],[17.7,5008],[17.7,5108],[17.7,5207],[17.7,5308],[17.7,5408],[17.7,5508],[17.7,5607],[17.7,5707],[17.7,5808],[17.7,5907],[17.7,6008],[17.7,6107],[17.7,6208],[17.7,6307],[17.7,6408]]",1,0,289.7898,All the time,100,289.8011,,,[],,289.8011,291.6138,26.10212054,1.4391,"[{""rating"":26.102120535714285,""responseTime"":1.4390999999999394}]",space,1.2918,,0,6,6,6,1,audio/Narrative7Situation6.wav,audio/Narrative8Situation6.wav,audio/Narrative5Situation6.wav,audio/Narrative6Situation6.wav,3,2,3,2,,,,,,,,,,,,,,,,,,,,,,,,,,,,,,,,,,,,,,
,,,,,,61202b6be797314915cb1bd7,2024-02-05_10h15.17.224,group3.1-3.2-social-tom,2023.2.2,MacIntel,133.3333333,65b1b24e3a500fd6b5dc9abd,65c109556c65fd9357ae3391,,,,,,,,,,,,,,,,,,,,,,,,,,,,,291.6147,294.6163,,294.6165,306.6882,"[[23,105],[21.8,204],[20.4,305],[18.9,405],[18.2,504],[17.6,603],[17.6,705],[17.6,804],[17.6,905],[17.6,1005],[17.6,1104],[17.6,1204],[17.6,1304],[17.6,1405],[17.6,1504],[17.6,1605],[17.6,1704],[17.6,1805],[17.6,1904],[17.6,2004],[17.6,2105],[17.6,2204],[17.6,2304],[17.6,2405],[17.6,2504],[17.6,2605],[17.6,2705],[17.6,2804],[17.6,2904],[17.6,3004],[17.6,3104],[17.6,3204],[17.6,3304],[17.6,3405],[17.6,3504],[17.6,3604],[17.6,3704],[17.6,3804],[17.6,3904],[17.6,4005],[17.6,4105],[17.6,4204],[17.6,4305],[17.6,4404],[17.6,4504],[17.6,4604],[17.6,4705],[17.6,4804],[17.6,4904],[17.6,5004],[17.6,5105],[17.6,5203],[17.6,5304],[17.6,5404],[17.6,5504],[17.6,5604],[17.6,5704],[17.6,5804],[17.6,5905],[17.6,6004],[17.6,6105],[17.6,6204],[17.6,6304],[17.6,6404],[17.6,6504],[17.6,6604],[17.6,6705],[17.6,6804],[17.6,6905],[17.6,7004],[17.6,7105],[17.6,7204],[17.6,7304],[17.6,7405],[17.6,7505],[17.6,7605],[17.6,7704],[17.6,7806],[17.6,7904],[17.6,8004],[17.6,8104],[17.6,8205],[17.6,8303],[17.6,8404],[17.6,8505],[17.6,8604],[17.6,8704],[17.6,8805],[17.6,8904],[17.6,9005],[17.6,9105],[17.6,9205],[17.6,9305],[17.6,9405],[17.6,9504],[17.6,9604],[17.6,9705],[17.6,9805],[17.6,9904],[17.6,10005],[17.6,10105],[17.6,10205],[17.6,10305],[18.8,10405],[23.2,10506],[29.4,10605],[36.1,10705],[42.5,10805],[50.6,10906],[53.3,11005],[53.4,11104],[53.4,11205],[53.4,11304],[52.6,11404],[51.1,11505],[51,11606],[51,11704],[51,11804],[51,11905],[51,12004]]",1,0,306.6884,Half the time,50,306.6914,,,[],,306.6915,309.322,34.25512566,2.2872,"[{""rating"":34.255125661375665,""responseTime"":2.2871999999999844}]",space,2.1147,,0,7,7,7,1,audio/Narrative7Situation7.wav,audio/Narrative8Situation7.wav,audio/Narrative5Situation7.wav,audio/Narrative6Situation7.wav,5,3,4,5,,,,,,,,,,,,,,,,,,,,,,,,,,,,,,,,,,,,,,
,,,,,,61202b6be797314915cb1bd7,2024-02-05_10h15.17.224,group3.1-3.2-social-tom,2023.2.2,MacIntel,133.3333333,65b1b24e3a500fd6b5dc9abd,65c109556c65fd9357ae3391,,,,,,,,,,,,,,,,,,,,,,,,,,,,,309.3226,312.3294,,312.3295,325.1629,"[[31,500],[23.8,600],[20.2,702],[16.9,802],[16.4,900],[15.9,1000],[15.4,1100],[15.7,1199],[16.6,1299],[18.4,1399],[18.4,1499],[18.4,1600],[18.4,1699],[18.4,1800],[18.4,1907],[18.4,2007],[18.4,2108],[18.4,2207],[18.4,2309],[18.4,2408],[18.4,2508],[18.4,2608],[18.4,2708],[18.4,2808],[18.4,2909],[18.4,3008],[18.4,3108],[18.4,3208],[18.4,3308],[18.4,3407],[18.4,3508],[18.4,3612],[18.4,3707],[18.4,3807],[18.4,3908],[18.4,4008],[18.4,4108],[18.4,4207],[18.4,4308],[18.4,4408],[18.4,4507],[18.4,4616],[18.4,4716],[18.4,4816],[18.4,4916],[18.4,5016],[18.4,5117],[18.4,5216],[18.4,5316],[18.4,5416],[18.4,5517],[18.4,5617],[18.4,5716],[18.4,5816],[18.4,5916],[18.4,6016],[31.3,6116],[48.7,6217],[52.5,6316],[52.6,6417],[52.6,6517],[52.6,6616],[52.6,6717],[52.6,6817],[52.6,6917],[52.6,7016],[52.6,7116],[52.6,7224],[55.4,7325],[62.4,7425],[65.9,7525],[67.2,7625],[67.3,7725],[67.3,7825],[67.3,7924],[67.3,8025],[67.3,8125],[67.3,8225],[67.3,8325],[67.3,8425],[67.3,8525],[67.3,8624],[67.3,8724],[67.3,8825],[67.3,8924],[67.3,9025],[67.3,9125],[67.3,9224],[67.3,9324],[67.3,9424],[67.3,9525],[67.3,9624],[67.3,9725],[67.3,9827],[67.3,9925],[67.3,10024],[67.3,10125],[67.3,10225],[67.3,10324],[67.3,10425],[67.3,10524],[67.3,10625],[67.3,10725],[67.3,10825],[67.3,10924],[67.3,11025],[67.3,11126],[71.3,11224],[82.7,11326],[85.6,11424],[85.7,11525],[85.7,11624],[85.7,11724],[85.7,11824],[85.7,11924],[85.7,12024],[85.7,12125],[85.7,12225],[85.7,12325],[85.7,12425],[85.7,12525],[85.7,12625],[85.7,12725],[85.7,12824]]",1,0,325.1632,Not at all,0,325.1683,,,[],,325.1683,329.5128,49.53083664,3.9939,"[{""rating"":49.53083664021164,""responseTime"":3.9938999999999965}]",space,3.8271,,0,8,8,8,1,audio/Narrative7Situation8.wav,audio/Narrative8Situation8.wav,audio/Narrative5Situation8.wav,audio/Narrative6Situation8.wav,2,3,3,5,,,,,,,,,,,,,,,,,,,,,,,,,,,,,,,,,,,,,,
,,,,,,61202b6be797314915cb1bd7,2024-02-05_10h15.17.224,group3.1-3.2-social-tom,2023.2.2,MacIntel,133.3333333,65b1b24e3a500fd6b5dc9abd,65c109556c65fd9357ae3391,,,,,,,,,,,,,,,,,,,,,,,,,,,,,329.5138,332.5211,,332.5213,343.8301,"[[38.4,900],[38.5,1000],[38.5,1100],[38.5,1200],[38.5,1300],[38.5,1399],[38.5,1499],[38.5,1600],[38.5,1699],[38.5,1800],[38.5,1899],[38.5,1999],[38.5,2100],[38.5,2200],[38.5,2300],[38.5,2399],[38.5,2500],[38.5,2599],[38.5,2699],[38.5,2800],[38.5,2900],[38.5,3000],[38.5,3099],[38.5,3199],[38.5,3300],[38.5,3399],[38.5,3500],[38.5,3600],[38.5,3699],[38.5,3799],[38.5,3900],[38.5,4000],[38.5,4100],[38.5,4200],[38.5,4300],[38.5,4399],[38.5,4500],[38.5,4600],[38.5,4700],[38.5,4800],[38.5,4899],[38.5,5000],[38.5,5100],[38.5,5200],[38.5,5299],[38.5,5400],[38.5,5500],[38.5,5600],[38.5,5700],[38.5,5800],[38.5,5900],[38.5,6000],[38.5,6100],[38.5,6200],[38.5,6300],[38.5,6400],[38.5,6500],[38.5,6599],[38.5,6699],[38.5,6799],[38.5,6900],[38.5,7000],[38.5,7099],[38.5,7200],[38.5,7300],[38.5,7400],[38.5,7500],[38.5,7599],[38.5,7700],[40.1,7800],[45.2,7899],[48.6,8000],[52.4,8099],[53.3,8200],[53.6,8300],[53.6,8400],[53.6,8499],[53.7,8599],[53.8,8699],[53.8,8799],[53.8,8901],[53.8,9000],[53.8,9100],[53.8,9200],[53.8,9300],[53.8,9400],[53.8,9500],[53.8,9599],[53.8,9700],[53.8,9800],[54.2,9900],[62.2,10001],[68.5,10099],[72.1,10200],[72.4,10300],[72.3,10400],[72.3,10499],[72.3,10599],[72.3,10699],[72.3,10800],[72.3,10900],[72.3,11000],[72.3,11100],[72.3,11200],[72.3,11300]]",1,0,343.8304,Not at all,0,343.8334,,,[],,343.8335,346.2388,46.56808036,2.0099,"[{""rating"":46.568080357142854,""responseTime"":2.0098999999999023}]",space,1.8849,,0,9,9,9,1,audio/Narrative7Situation9.wav,audio/Narrative8Situation9.wav,audio/Narrative5Situation9.wav,audio/Narrative6Situation9.wav,2,3,3,4,,,,,,,,,,,,,,,,,,,,,,,,,,,,,,,,,,,,,,
,,,,,,61202b6be797314915cb1bd7,2024-02-05_10h15.17.224,group3.1-3.2-social-tom,2023.2.2,MacIntel,133.3333333,65b1b24e3a500fd6b5dc9abd,65c109556c65fd9357ae3391,,,,,,,,,,,,,,,,,,,,,,,,,,,,,346.2396,348.2457,,348.2457,404.1147,"[[43.9,1400],[42.3,1500],[41.4,1600],[40.9,1701],[28.7,1800],[24.5,1900],[22.7,2000],[18.8,2101],[17.1,2201],[16.9,2300],[16.9,2400],[16.9,2500],[15.1,2600],[11.2,2702],[9.4,2801],[9.4,2900],[9.4,3000],[9.4,3100],[9.4,3200],[9.4,3300],[9.4,3400],[9.4,3500],[9.4,3600],[9.4,3700],[9.4,3800],[9.4,3901],[9.4,4000],[9.4,4101],[10.1,4200],[10.3,4300],[10.4,4400],[10.4,4500],[10.4,4600],[10.4,4700],[10.4,4801],[10.4,4899],[10.4,5000],[15.4,5102],[33.8,5201],[37.4,5300],[37.4,5401],[37.4,5500],[37.4,5600],[37.4,5701],[38.2,5803],[44.2,5900],[45.6,5999],[45.6,6101],[45.6,6200],[45.4,6301],[42.4,6401],[41.4,6501],[41.4,6601],[41.4,6701],[41.4,6800],[41.4,6901],[41.4,7000],[41.4,7100],[41.4,7200],[41.4,7300],[41.4,7401],[41.4,7500],[41.4,7600],[41.4,7700],[41.4,7800],[41.4,7901],[41.4,8000],[41.4,8099],[41.4,8200],[41.4,8300],[41.4,8400],[41.4,8500],[41.4,8600],[41.4,8700],[41.4,8800],[41.4,8900],[41.4,9000],[41.4,9100],[41.4,9199],[41.4,9300],[41.4,9400],[41.4,9500],[41.4,9600],[41.4,9700],[41.4,9801],[41.4,9899],[41.4,10000],[41.4,10100],[41.4,10200],[41.4,10300],[41.4,10400],[41.4,10500],[41.4,10600],[41.4,10700],[41.4,10800],[41.4,10900],[41.4,11000],[41.4,11100],[41.4,11199],[41.4,11299],[41.4,11400],[41.4,11500],[41.4,11601],[41.4,11700],[41.4,11800],[41.4,11900],[41.4,12000],[41.4,12099],[41.4,12200],[41.4,12300],[41.4,12400],[41.4,12500],[41.4,12600],[41.4,12700],[41.4,12800],[41.4,12900],[41.4,13000],[41.4,13100],[41.4,13200],[41.4,13299],[41.4,13400],[41.4,13500],[41.4,13600],[41.4,13700],[41.4,13801],[41.4,13900],[41.4,14001],[41.4,14100],[41.4,14199],[41.4,14300],[41.4,14401],[41.4,14499],[41.4,14601],[41.4,14700],[41.4,14799],[41.4,14900],[41.4,15000],[41.4,15100],[41.4,15200],[41.4,15300],[44.2,15409],[51.2,15509],[54.9,15610],[57.3,15709],[58.3,15809],[58.3,15909],[58.3,16008],[58.3,16108],[58.3,16209],[58.3,16309],[58.3,16409],[58.3,16509],[58.3,16609],[58.3,16709],[58.3,16809],[58.3,16909],[58.3,17008],[58.3,17108],[58.3,17208],[58.3,17309],[58.3,17409],[58.3,17508],[58.3,17608],[58.3,17709],[58.3,17809],[58.3,17908],[58.3,18008],[58.3,18109],[58.3,18209],[58.3,18308],[58.3,18408],[58.3,18508],[58.3,18609],[58.3,18709],[58.3,18808],[58.3,18909],[58.3,19008],[58.3,19108],[58.3,19208],[58.3,19308],[58.3,19408],[58.3,19508],[58.3,19609],[58.3,19708],[58.3,19808],[58.3,19909],[58.3,20008],[58.3,20108],[58.3,20209],[58.3,20308],[58.3,20409],[58.3,20509],[58.3,20608],[58.3,20709],[58.3,20808],[58.3,20908],[58.3,21008],[58.3,21109],[58.3,21217],[58.3,21317],[58.3,21416],[58.3,21517],[58.3,21617],[58.3,21716],[58.3,21816],[58.3,21925],[58.3,22025],[58.3,22125],[58.3,22224],[58.3,22326],[58.3,22425],[58.3,22525],[58.3,22625],[58.3,22727],[58.3,22824],[58.3,22925],[58.3,23025],[58.3,23125],[58.3,23225],[58.3,23324],[58.3,23425],[58.3,23525],[58.3,23625],[58.3,23727],[58.3,23825],[58.3,23924],[58.3,24025],[58.3,24125],[58.3,24224],[58.3,24326],[58.3,24426],[58.3,24526],[58.3,24625],[58.3,24726],[58.3,24825],[58.3,24925],[58.3,25025],[58.3,25126],[58.3,25226],[58.3,25325],[58.3,25425],[58.3,25525],[58.3,25626],[58.3,25726],[58.3,25826],[58.3,25926],[58.3,26031],[58.3,26130],[58.3,26230],[58.3,26329],[58.3,26429],[58.3,26530],[58.3,26630],[58.3,26729],[58.3,26829],[58.3,26929],[58.3,27029],[58.3,27130],[58.3,27229],[58.3,27330],[58.3,27430],[58.3,27529],[58.3,27630],[58.3,27730],[58.3,27830],[58.3,27929],[58.3,28031],[58.3,28129],[58.3,28229],[58.3,28329],[58.3,28429],[58.3,28529],[58.3,28629],[58.3,28731],[58.3,28830],[58.3,28930],[58.3,29032],[58.3,29129],[58.3,29228],[58.3,29330],[58.3,29429],[58.3,29530],[58.3,29629],[58.3,29730],[58.3,29830],[58.3,29929],[58.3,30029],[58.3,30129],[58.3,30229],[58.3,30330],[58.3,30430],[58.3,30529],[58.3,30629],[58.3,30730],[58.3,30829],[58.3,30930],[58.3,31029],[58.3,31130],[58.3,31238],[58.3,31338],[58.3,31437],[58.3,31538],[58.3,31638],[58.3,31738],[58.3,31837],[58.3,31938],[58.3,32038],[58.3,32138],[58.3,32237],[58.3,32338],[58.3,32438],[58.3,32537],[58.3,32638],[58.3,32737],[58.3,32838],[58.3,32938],[58.3,33037],[58.3,33138],[58.3,33238],[58.3,33338],[58.3,33437],[58.3,33538],[58.3,33637],[58.3,33737],[58.3,33838],[58.3,33938],[58.3,34037],[58.3,34138],[58.3,34238],[58.3,34338],[58.3,34438],[58.3,34538],[58.3,34637],[58.3,34737],[58.3,34838],[58.3,34938],[58.3,35037],[58.3,35137],[58.3,35237],[58.3,35338],[58.3,35438],[58.3,35537],[58.3,35637],[58.3,35737],[58.3,35837],[58.3,35937],[58.3,36037],[58.3,36137],[58.3,36237],[58.3,36337],[58.3,36438],[58.3,36537],[58.3,36638],[58.3,36738],[58.3,36838],[58.3,36937],[58.3,37037],[58.3,37138],[58.3,37238],[58.3,37338],[58.3,37438],[58.3,37538],[58.3,37638],[58.3,37738],[58.3,37837],[58.3,37937],[58.3,38038],[58.3,38138],[58.3,38237],[58.3,38338],[58.3,38438],[58.3,38538],[58.3,38638],[58.3,38738],[58.3,38838],[58.3,38938],[58.3,39037],[58.3,39137],[58.3,39238],[58.3,39338],[58.3,39437],[58.3,39537],[58.3,39637],[58.3,39738],[58.3,39837],[58.3,39938],[58.3,40037],[58.3,40137],[58.3,40238],[58.3,40338],[58.3,40437],[58.3,40538],[58.3,40638],[58.3,40738],[58.3,40838],[58.3,40937],[58.3,41037],[58.3,41137],[58.3,41237],[58.3,41338],[58.3,41438],[58.3,41538],[58.3,41638],[58.3,41738],[58.3,41837],[58.3,41937],[58.3,42037],[58.3,42138],[58.3,42237],[58.3,42337],[58.3,42438],[58.3,42537],[58.3,42637],[58.3,42738],[58.3,42837],[58.3,42938],[58.3,43038],[58.3,43137],[58.3,43238],[58.3,43339],[58.3,43438],[58.3,43538],[58.3,43637],[58.3,43737],[58.3,43837],[58.3,43938],[58.3,44039],[58.3,44138],[58.3,44237],[58.3,44337],[59.1,44446],[63.3,44546],[66,44646],[67.9,44747],[69.7,44847],[70.4,44946],[70.4,45045],[70.4,45146],[70.4,45246],[70.4,45348],[70.4,45445],[70.4,45546],[70.4,45646],[70.4,45746],[70.4,45846],[70.4,45946],[70.4,46046],[70.4,46147],[70.4,46247],[70.4,46345],[70.4,46445],[70.4,46546],[70.4,46646],[70.7,46746],[70.8,46846],[70.8,46946],[70.8,47046],[70.8,47145],[70.8,47247],[70.8,47352],[70.8,47445],[70.8,47545],[70.8,47645],[70.8,47746],[70.8,47845],[70.8,47947],[70.8,48046],[72.4,48146],[79.3,48246],[83.3,48346],[84.4,48446],[84,48546],[83.4,48645],[83.3,48747],[83.3,48846],[83.3,48946],[83.3,49045],[83.3,49146],[83.3,49246],[83.3,49346],[83.3,49446],[83.3,49547],[83.3,49646],[83.3,49747],[83.3,49847],[83.3,49946],[83.3,50047],[83.3,50146],[83.3,50247],[83.3,50347],[83.3,50446],[83.3,50546],[83.3,50646],[83.3,50746],[83.3,50846],[83.3,50946],[83.3,51046],[83.3,51146],[83.3,51246],[83.3,51347],[83.3,51447],[83.3,51546],[83.3,51646],[83.3,51746],[83.3,51846],[83.3,51946],[83.3,52046],[83.3,52146],[83.3,52246],[83.3,52346],[83.3,52446],[83.3,52546],[83.3,52647],[83.3,52746],[83.3,52846],[83.3,52945],[83.3,53054],[83.3,53150],[83.3,53249],[83.3,53350],[83.3,53450],[83.3,53550],[83.3,53650],[83.3,53750],[83.3,53851],[83.3,53950],[83.3,54050],[83.3,54150],[83.3,54250],[83.3,54351],[83.3,54450],[83.3,54549],[83.3,54651],[83.3,54750],[83.3,54851],[83.3,54950],[83.3,55050],[83.3,55150],[83.3,55250],[83.3,55351],[83.3,55452],[83.3,55551],[83.3,55650],[83.3,55751],[83.3,55850]]",1,0,404.1151,Half the time,50,404.1289,,,[],,404.129,406.1797,64.42677331,1.7076,"[{""rating"":64.42677331349206,""responseTime"":1.7076000000001272}]",space,1.5342,,0,10,10,10,1,audio/Narrative8Situation1.wav,audio/Narrative7Situation1.wav,audio/Narrative6Situation1.wav,audio/Narrative5Situation1.wav,5,2,2,5,,,,,,,,,,,,,,,,,,,,,,,,,,,,,,,,,,,,,,
,,,,,,61202b6be797314915cb1bd7,2024-02-05_10h15.17.224,group3.1-3.2-social-tom,2023.2.2,MacIntel,133.3333333,65b1b24e3a500fd6b5dc9abd,65c109556c65fd9357ae3391,,,,,,,,,,,,,,,,,,,,,,,,,,,,,406.18,409.1887,,409.1888,416.6549,"[[999,12],[999,107],[999,207],[999,308],[999,408],[999,507],[999,607],[999,708],[999,806],[999,908],[999,1007],[999,1106],[999,1207],[999,1306],[999,1407],[999,1508],[999,1608],[999,1707],[999,1806],[999,1907],[999,2007],[999,2108],[999,2207],[999,2307],[999,2408],[999,2507],[999,2607],[999,2707],[999,2809],[999,2908],[999,3008],[45.6,3108],[48,3207],[49,3308],[49,3407],[49,3507],[49,3607],[51.2,3708],[58.9,3808],[61.8,3908],[62,4007],[62,4107],[62,4206],[62,4307],[62,4408],[62,4507],[62,4607],[62,4706],[61.6,4807],[55.9,4909],[53,5007],[51.2,5107],[50.6,5209],[50.3,5307],[50.3,5407],[50.3,5506],[50.3,5607],[50.3,5707],[50.3,5808],[50.3,5907],[50.3,6008],[50.3,6107],[50.3,6207],[50.3,6307],[50.3,6408],[50.3,6507],[50.3,6607],[50.3,6707],[50.3,6807],[50.3,6906],[50.3,7007],[50.3,7107],[50.4,7208],[51.5,7308],[52.8,7407]]",1,0,416.655,Not at all,0,416.657,,,[],,416.657,418.1718,54.41261574,1.1749,"[{""rating"":54.41261574074075,""responseTime"":1.1748999999999228}]",space,0.9911,,0,11,11,11,1,audio/Narrative8Situation2.wav,audio/Narrative7Situation2.wav,audio/Narrative6Situation2.wav,audio/Narrative5Situation2.wav,3,3,3,3,,,,,,,,,,,,,,,,,,,,,,,,,,,,,,,,,,,,,,
,,,,,,61202b6be797314915cb1bd7,2024-02-05_10h15.17.224,group3.1-3.2-social-tom,2023.2.2,MacIntel,133.3333333,65b1b24e3a500fd6b5dc9abd,65c109556c65fd9357ae3391,,,,,,,,,,,,,,,,,,,,,,,,,,,,,418.1727,426.1801,,426.1802,435.4213,"[[999,9],[999,108],[999,208],[999,307],[999,408],[999,507],[999,607],[35,709],[35,809],[35.2,908],[35.2,1007],[34.1,1107],[29.5,1207],[27,1308],[26.6,1408],[26.6,1507],[26.6,1607],[26.6,1708],[26.6,1807],[26.6,1907],[26.6,2007],[26.6,2106],[26.6,2207],[26.6,2307],[26.6,2407],[26.6,2508],[26.6,2608],[26.6,2707],[26.6,2808],[26.6,2907],[26.6,3007],[26.6,3107],[26.6,3207],[26.6,3307],[26.6,3407],[26.6,3508],[26.6,3607],[26.6,3708],[26.6,3808],[26.6,3907],[26.6,4007],[26.6,4108],[27.9,4208],[36.2,4310],[41.7,4408],[42.1,4507],[42.1,4607],[42.1,4707],[52.5,4810],[64.7,4909],[68,5008],[69.6,5108],[69.9,5208],[69.9,5309],[69.9,5408],[69.9,5508],[70.3,5607],[71.1,5707],[72.1,5807],[73.1,5907],[73.2,6007],[73.2,6107],[73.2,6207],[73.2,6308],[73.2,6407],[73.2,6507],[73.2,6649],[73.2,6740],[73.2,6840],[73.2,6941],[73.2,7041],[73.2,7141],[73.2,7240],[73.2,7341],[73.2,7441],[73.2,7540],[73.2,7641],[73.2,7740],[73.2,7840],[73.2,7941],[73.2,8040],[73.2,8149],[73.2,8249],[73.2,8349],[73.2,8449],[73.2,8549],[73.2,8649],[73.2,8749],[73.2,8849],[73.2,8949],[73.2,9048],[73.2,9149]]",1,0,435.4213,Half the time,50,435.4306,,,[],,435.4306,437.0704,56.92325976,1.1997,"[{""rating"":56.923259755291,""responseTime"":1.199700000000064}]",space,1.1187,,0,12,12,12,1,audio/Narrative8Situation3.wav,audio/Narrative7Situation3.wav,audio/Narrative6Situation3.wav,audio/Narrative5Situation3.wav,4,8,5,3,,,,,,,,,,,,,,,,,,,,,,,,,,,,,,,,,,,,,,
,,,,,,61202b6be797314915cb1bd7,2024-02-05_10h15.17.224,group3.1-3.2-social-tom,2023.2.2,MacIntel,133.3333333,65b1b24e3a500fd6b5dc9abd,65c109556c65fd9357ae3391,,,,,,,,,,,,,,,,,,,,,,,,,,,,,437.0708,440.0737,,440.0739,451.7885,"[[999,0],[999,97],[999,197],[999,297],[999,400],[999,496],[999,597],[999,698],[26.4,798],[24,897],[22.9,998],[22.2,1099],[20.7,1199],[20.3,1300],[20.3,1398],[20.3,1497],[20.3,1598],[20.3,1697],[20.3,1799],[20.3,1897],[20.3,1997],[20.3,2098],[20.3,2197],[20.3,2297],[20.3,2398],[20.3,2497],[20.3,2597],[20.3,2697],[20.3,2797],[20.3,2899],[20.3,2997],[20.3,3098],[20.3,3197],[20.3,3297],[20.3,3397],[20.3,3497],[20.3,3597],[20.3,3698],[20.3,3797],[20.3,3898],[20.3,3997],[20.3,4096],[20.3,4196],[20.3,4297],[20.3,4397],[20.3,4497],[20.3,4597],[20.3,4697],[20.3,4797],[20.3,4898],[20.3,4997],[20.3,5097],[20.3,5198],[20.3,5296],[20.3,5397],[20.3,5497],[20.3,5597],[20.3,5697],[20.3,5797],[20.3,5899],[20.3,5998],[20.3,6097],[20.3,6197],[20.3,6297],[20.3,6398],[20.3,6497],[20.3,6597],[20.3,6697],[20.3,6797],[20.3,6898],[20.3,6997],[20.3,7097],[20.3,7198],[20.3,7297],[20.3,7398],[20.3,7498],[20.3,7598],[20.3,7698],[20.3,7797],[20.3,7899],[20.3,7996],[20.3,8098],[20.3,8197],[20.3,8297],[20.3,8398],[20.3,8497],[20.3,8597],[20.3,8698],[20.3,8796],[20.3,8898],[20.3,8997],[20.3,9096],[20.3,9198],[20.3,9297],[20.3,9398],[20.3,9497],[20.3,9598],[22.8,9697],[48.5,9799],[78.5,10398],[78.8,10497],[80.6,10597],[81,10697],[81,10798],[80.4,10896],[78.6,10998],[78.5,11097],[78.5,11198],[78.5,11297],[78.5,11398],[78.5,11497],[78.5,11597],[78.5,11698]]",1,0,451.7886,All the time,100,451.7905,,,[],,451.7905,453.3053,66.05489418,1.1862,"[{""rating"":66.05489417989419,""responseTime"":1.186200000000099}]",space,0.9926,,0,13,13,13,1,audio/Narrative8Situation4.wav,audio/Narrative7Situation4.wav,audio/Narrative6Situation4.wav,audio/Narrative5Situation4.wav,3,3,2,1,,,,,,,,,,,,,,,,,,,,,,,,,,,,,,,,,,,,,,
,,,,,,61202b6be797314915cb1bd7,2024-02-05_10h15.17.224,group3.1-3.2-social-tom,2023.2.2,MacIntel,133.3333333,65b1b24e3a500fd6b5dc9abd,65c109556c65fd9357ae3391,,,,,,,,,,,,,,,,,,,,,,,,,,,,,453.3065,458.3147,,458.3148,466.7884,"[[65.1,808],[43.3,906],[37,1007],[37,1107],[37,1206],[36.9,1305],[30.2,1407],[25.4,1508],[24.9,1606],[24.1,1708],[23.9,1807],[24.9,1907],[25.5,2007],[25.6,2106],[25.6,2205],[25.6,2306],[25.6,2406],[25.6,2506],[25.6,2608],[25.9,2707],[33.2,2805],[38.2,2907],[38.6,3005],[38.6,3107],[38.6,3208],[38.6,3307],[38.6,3405],[38.6,3505],[38.6,3606],[38.6,3706],[38.6,3807],[38.6,3906],[38.6,4006],[38.6,4107],[38.6,4205],[38.6,4306],[38.6,4406],[38.6,4507],[47.7,4606],[56.2,4707],[57,4805],[57,4905],[57,5007],[57,5106],[61.3,5207],[64.2,5306],[64.7,5406],[64.7,5506],[64.7,5606],[64.7,5706],[64.7,5806],[64.7,5906],[64.7,6015],[64.7,6114],[64.7,6215],[64.7,6314],[64.7,6414],[64.7,6514],[64.7,6615],[64.7,6715],[64.7,6814],[64.7,6914],[64.7,7014],[64.7,7115],[64.7,7214],[64.7,7315],[64.7,7415],[64.7,7514],[64.7,7614],[64.7,7714],[64.7,7815],[64.7,7915],[64.7,8014],[64.7,8115],[64.7,8214],[64.7,8315],[64.7,8414]]",1,0,466.7887,Half the time,50,466.8003,,,[],,466.8003,467.9465,53.25830853,0.7855,"[{""rating"":53.25830853174603,""responseTime"":0.7855000000000132}]",space,0.6244,,0,14,14,14,1,audio/Narrative8Situation5.wav,audio/Narrative7Situation5.wav,audio/Narrative6Situation5.wav,audio/Narrative5Situation5.wav,2,5,2,5,,,,,,,,,,,,,,,,,,,,,,,,,,,,,,,,,,,,,,
,,,,,,61202b6be797314915cb1bd7,2024-02-05_10h15.17.224,group3.1-3.2-social-tom,2023.2.2,MacIntel,133.3333333,65b1b24e3a500fd6b5dc9abd,65c109556c65fd9357ae3391,,,,,,,,,,,,,,,,,,,,,,,,,,,,,467.9469,470.9486,,470.9486,480.9057,"[[53,905],[47.4,1007],[36.4,1107],[33.3,1206],[33.3,1305],[33.3,1405],[33.3,1507],[33.3,1606],[30.6,1706],[25.8,1807],[25.7,1906],[25.7,2006],[25.7,2105],[25.7,2205],[25.7,2305],[25.7,2406],[25.7,2506],[25.7,2605],[25.7,2706],[25.7,2805],[25.7,2906],[25.7,3005],[30.4,3106],[46.1,3207],[58.5,3306],[66.1,3406],[66.1,3506],[66.1,3605],[68.5,3706],[75.8,3805],[77.3,3906],[77.3,4006],[77.3,4107],[77.3,4206],[77.3,4306],[77.3,4406],[77.3,4505],[77.3,4606],[77.3,4705],[77.3,4805],[77.3,4906],[77.3,5005],[77.3,5105],[77.3,5206],[77.3,5306],[77.3,5405],[75.1,5505],[73,5605],[68.5,5706],[65.7,5806],[65.3,5906],[65.3,6005],[65.3,6106],[65.3,6206],[65.3,6305],[65.3,6406],[65.3,6506],[65.3,6605],[65.3,6706],[65.3,6806],[65.3,6906],[65.3,7006],[65.3,7106],[65.3,7206],[65.3,7305],[65.3,7406],[65.3,7507],[65.3,7606],[65.3,7706],[65.3,7805],[65.3,7906],[65.3,8006],[65.3,8105],[65.3,8206],[65.3,8307],[65.3,8405],[65.3,8506],[65.3,8607],[65.3,8705],[65.3,8806],[65.3,8906],[65.3,9005],[65.3,9107],[65.3,9206],[65.3,9305],[65.3,9405],[65.3,9506],[65.3,9606],[65.3,9706],[65.3,9806],[65.3,9906]]",1,0,480.906,Half the time,50,481.9389,56.8442047,0.6167,"[{""rating"":56.844204695767196,""responseTime"":0.6167000000000371}]",space,481.9389,488.8135,58.10546875,6.6059,"[{""rating"":58.10546875,""responseTime"":6.60590000000002}]",space,6.3568,,0,15,15,15,1,audio/Narrative8Situation6.wav,audio/Narrative7Situation6.wav,audio/Narrative6Situation6.wav,audio/Narrative5Situation6.wav,2,3,2,3,,,0.5135,,,,,,,,,,,,,,,,,,,,,,,,,,,,,,,,,,,
,,,,,,61202b6be797314915cb1bd7,2024-02-05_10h15.17.224,group3.1-3.2-social-tom,2023.2.2,MacIntel,133.3333333,65b1b24e3a500fd6b5dc9abd,65c109556c65fd9357ae3391,,,,,,,,,,,,,,,,,,,,,,,,,,,,,488.8143,493.8217,,493.8218,510.9802,"[[31.9,1016],[31.4,1117],[30.9,1217],[30.8,1317],[30.5,1417],[30.2,1517],[30.1,1616],[29.2,1716],[28.2,1815],[28.1,1916],[28.1,2016],[28.1,2116],[28.1,2216],[28.1,2316],[28.1,2415],[28.1,2516],[28.1,2616],[28.1,2715],[28.1,2816],[28.1,2915],[28.1,3015],[28.1,3116],[28.1,3216],[28.1,3319],[27.7,3416],[26.7,3516],[26.3,3616],[26.2,3715],[26.2,3816],[26.2,3916],[26.2,4015],[26.2,4115],[26.2,4216],[26.2,4316],[26.2,4417],[26.2,4516],[26.2,4616],[26.2,4716],[26.2,4816],[26.2,4916],[26.2,5015],[26.2,5115],[26.2,5215],[26.2,5316],[26.2,5416],[26.2,5516],[26.2,5624],[26.2,5725],[26.2,5824],[26.2,5924],[26.2,6024],[26.2,6124],[26.2,6225],[26.2,6325],[26.2,6425],[29,6525],[43.7,6624],[53.3,6724],[55,6824],[55,6924],[55,7024],[56.1,7124],[62.6,7224],[64.9,7327],[66.4,7423],[67.4,7525],[67.5,7624],[67.5,7724],[67.5,7824],[67.5,7925],[67.5,8024],[67.5,8124],[67.5,8224],[67.5,8325],[67.5,8425],[67.5,8524],[67.5,8624],[67.5,8723],[67.5,8824],[67.5,8924],[67.5,9025],[67.5,9123],[67.5,9224],[67.5,9324],[67.5,9424],[67.5,9524],[67.5,9623],[67.5,9725],[67.5,9823],[67.5,9924],[67.5,10025],[67.5,10124],[67.5,10224],[67.5,10324],[67.5,10424],[67.5,10525],[67.5,10624],[67.5,10725],[67.5,10824],[67.5,10924],[67.5,11024],[67.5,11124],[67.5,11223],[67.5,11324],[67.5,11424],[67.5,11524],[67.5,11624],[67.5,11724],[67.5,11824],[67.5,11925],[67.5,12024],[67.5,12123],[67.5,12224],[67.5,12324],[67.5,12424],[67.5,12524],[67.5,12624],[67.5,12723],[67.5,12823],[67.5,12924],[67.5,13024],[67.5,13125],[67.5,13224],[67.5,13324],[67.5,13424],[67.5,13524],[67.5,13624],[67.5,13724],[67.5,13824],[67.5,13924],[67.5,14023],[67.5,14123],[67.5,14223],[67.5,14324],[67.5,14423],[67.5,14525],[67.5,14624],[67.5,14724],[67.5,14824],[67.5,14924],[67.5,15024],[67.5,15124],[67.5,15224],[67.5,15325],[67.5,15425],[67.5,15524],[67.5,15624],[67.5,15724],[67.5,15824],[67.5,15925],[67.5,16023],[67.5,16124],[67.5,16224],[67.5,16325],[67.5,16424],[67.5,16524],[67.5,16623],[67.5,16724],[67.5,16824],[67.5,16924],[67.5,17024],[67.5,17124]]",1,0,510.9805,All the time,100,510.9927,,,[],,510.9927,514.2719,55.31580688,3.001,"[{""rating"":55.31580687830689,""responseTime"":3.0009999999999764}]",space,2.7603,,0,16,16,16,1,audio/Narrative8Situation7.wav,audio/Narrative7Situation7.wav,audio/Narrative6Situation7.wav,audio/Narrative5Situation7.wav,3,5,5,4,,,,,,,,,,,,,,,,,,,,,,,,,,,,,,,,,,,,,,
,,,,,,61202b6be797314915cb1bd7,2024-02-05_10h15.17.224,group3.1-3.2-social-tom,2023.2.2,MacIntel,133.3333333,65b1b24e3a500fd6b5dc9abd,65c109556c65fd9357ae3391,,,,,,,,,,,,,,,,,,,,,,,,,,,,,514.2729,516.2792,,516.2792,526.281,"[[51.3,799],[42.2,901],[36.7,1000],[33.3,1100],[33.1,1201],[33.1,1303],[33.1,1399],[29.8,1501],[28.1,1601],[27.9,1700],[27.9,1800],[27.9,1901],[27.9,1999],[27.9,2100],[27.9,2200],[27.9,2300],[27.9,2399],[27.9,2500],[49.6,2599],[57.3,2701],[57.3,2800],[57.3,2901],[58.8,3000],[71.3,3100],[76.3,3200],[76.4,3301],[76.4,3400],[76.4,3500],[76.4,3599],[76.4,3700],[76.4,3800],[76.4,3900],[76.4,4000],[76.4,4100],[76.4,4200],[76.4,4300],[76.4,4400],[76.4,4500],[76.4,4599],[76.4,4701],[76.4,4800],[76.4,4899],[76.4,5014],[76.4,5099],[76.4,5200],[76.4,5301],[76.4,5401],[76.4,5500],[76.4,5600],[76.4,5700],[76.4,5800],[76.4,5900],[76.4,6000],[76.4,6100],[76.4,6200],[76.4,6303],[76.4,6400],[76.4,6501],[76.4,6600],[76.4,6700],[76.4,6800],[76.4,6901],[76.4,7001],[76.4,7100],[76.4,7200],[76.4,7302],[76.4,7400],[76.4,7500],[76.4,7600],[76.4,7700],[76.4,7800],[76.4,7901],[76.4,8003],[76.4,8099],[76.4,8200],[76.4,8299],[76.4,8400],[76.4,8500],[76.4,8600],[76.4,8700],[76.4,8800],[76.4,8900],[76.4,8999],[76.4,9100],[76.4,9201],[76.4,9301],[76.4,9402],[76.4,9502],[76.4,9599],[76.4,9701],[76.4,9801],[76.4,9900],[76.4,10001]]",1,0,526.2812,Not at all,0,526.2937,,,[],,526.2937,527.5377,68.13977761,0.9401,"[{""rating"":68.13977761243386,""responseTime"":0.9401000000001432}]",space,0.7236,,0,17,17,17,1,audio/Narrative8Situation8.wav,audio/Narrative7Situation8.wav,audio/Narrative6Situation8.wav,audio/Narrative5Situation8.wav,3,2,5,3,,,,,,,,,,,,,,,,,,,,,,,,,,,,,,,,,,,,,,
,,,,,,61202b6be797314915cb1bd7,2024-02-05_10h15.17.224,group3.1-3.2-social-tom,2023.2.2,MacIntel,133.3333333,65b1b24e3a500fd6b5dc9abd,65c109556c65fd9357ae3391,,,,,,,,,,,,,,,,,,,,,,,,,,,,,527.5386,529.5478,,529.5478,538.1638,"[[69.7,1598],[70.9,1697],[71.8,1800],[71.9,1897],[71.9,1999],[71.9,2098],[71.9,2198],[71.9,2298],[71.9,2399],[71.9,2498],[71.9,2598],[71.9,2698],[71.9,2799],[71.9,2898],[71.9,2999],[71.9,3098],[71.9,3197],[71.9,3298],[71.9,3398],[71.9,3498],[71.9,3598],[71.9,3698],[71.9,3799],[71.9,3898],[71.9,3998],[71.9,4097],[71.9,4197],[71.9,4298],[71.9,4398],[71.9,4498],[71.9,4598],[71.9,4698],[71.9,4798],[71.9,4898],[71.9,4998],[71.9,5099],[71.9,5199],[71.9,5299],[71.9,5399],[71.9,5498],[71.9,5598],[71.9,5698],[71.9,5798],[71.9,5898],[71.9,5999],[71.9,6098],[71.9,6197],[71.9,6298],[71.9,6398],[71.9,6498],[71.9,6599],[71.9,6698],[71.9,6798],[71.9,6899],[71.9,6998],[71.9,7098],[71.9,7198],[71.9,7297],[71.9,7399],[71.9,7499],[71.9,7598],[71.9,7699],[71.9,7798],[71.9,7899],[71.9,7998],[71.9,8099],[71.9,8198],[71.9,8298],[71.9,8398],[71.9,8498],[71.9,8598]]",1,0,538.1642,Not at all,0,538.1759,,,[],,538.176,539.4298,71.50090939,0.9439,"[{""rating"":71.50090939153439,""responseTime"":0.9439000000000988}]",space,0.7343,,0,18,18,18,1,audio/Narrative8Situation9.wav,audio/Narrative7Situation9.wav,audio/Narrative6Situation9.wav,audio/Narrative5Situation9.wav,3,2,4,3,,,,,,,,,,,,,,,,,,,,,,,,,,,,,,,,,,,,,,
,,,,,,61202b6be797314915cb1bd7,2024-02-05_10h15.17.224,group3.1-3.2-social-tom,2023.2.2,MacIntel,133.3333333,65b1b24e3a500fd6b5dc9abd,65c109556c65fd9357ae3391,,,,,,,,,,,,,,,,,,,,,,,,,,,541.7057,544.2821,544.2905,544.2905,,544.2906,574.0305,"[[67.1,3197],[62.3,3296],[61.1,3397],[61.1,3497],[61.3,3596],[64.6,3697],[66.2,3798],[67.1,3897],[67.1,3997],[67.1,4098],[67.1,4197],[67.1,4297],[67.1,4398],[67.1,4497],[67.1,4597],[67.1,4697],[67.1,4797],[65.3,4896],[31.9,4997],[23.9,5098],[21.8,5197],[19.3,5297],[19,5397],[20.3,5497],[22.1,5597],[22.4,5697],[22.4,5797],[22.4,5896],[22.4,5997],[22.4,6097],[22.4,6198],[22.4,6296],[22.4,6396],[22.4,6496],[22.4,6597],[22.4,6697],[22.4,6796],[22.4,6896],[22.4,6997],[22.4,7096],[22.4,7197],[22.4,7296],[22.4,7397],[22.4,7496],[22.4,7597],[22.4,7697],[22.4,7796],[22.4,7897],[22.4,7996],[22.4,8097],[22.4,8197],[22.4,8297],[22.4,8396],[22.4,8497],[22.4,8597],[22.4,8696],[22.4,8796],[22.4,8897],[22.4,8997],[22.4,9097],[22.4,9196],[22.4,9299],[22.4,9397],[22.4,9497],[22.4,9597],[22.4,9697],[22.4,9797],[22.4,9897],[22.4,9997],[22.4,10104],[22.4,10205],[22.4,10304],[22.4,10405],[22.4,10505],[22.4,10606],[22.4,10705],[22.4,10805],[22.4,10905],[22.4,11006],[22.4,11105],[22.4,11205],[22.4,11305],[22.4,11406],[22.4,11505],[22.4,11605],[22.4,11705],[22.4,11805],[22.4,11905],[22.4,12005],[22.4,12106],[22.4,12206],[22.4,12306],[22.4,12405],[22.4,12505],[22.4,12606],[22.4,12706],[22.4,12805],[22.4,12905],[22.4,13005],[22.4,13105],[22.4,13205],[22.4,13305],[22.4,13404],[22.4,13505],[22.4,13605],[22.4,13705],[22.4,13806],[22.4,13906],[22.4,14005],[22.4,14105],[22.4,14205],[22.4,14305],[22.4,14406],[22.4,14505],[22.4,14606],[22.4,14705],[22.4,14805],[22.4,14905],[22.4,15005],[22.4,15105],[22.4,15205],[22.4,15313],[22.4,15414],[22.4,15513],[22.4,15613],[22.4,15713],[22.4,15813],[22.4,15913],[22.4,16013],[22.4,16113],[22.4,16213],[22.4,16313],[22.4,16413],[22.4,16513],[22.4,16613],[22.4,16714],[22.4,16814],[22.4,16914],[22.4,17014],[22.4,17115],[22.4,17214],[22.4,17314],[22.4,17413],[22.4,17513],[22.4,17614],[22.4,17713],[22.4,17814],[22.4,17914],[22.4,18013],[22.4,18114],[22.4,18213],[22.4,18314],[22.4,18413],[22.4,18513],[22.4,18614],[22.4,18713],[22.4,18813],[22.4,18913],[22.4,19013],[22.4,19113],[22.4,19214],[22.4,19313],[22.4,19413],[22.4,19514],[22.4,19613],[22.4,19713],[22.4,19814],[22.4,19913],[22.4,20013],[22.4,20115],[22.4,20213],[22.4,20314],[22.4,20414],[22.4,20514],[22.4,20614],[22.4,20714],[22.4,20813],[22.4,20913],[22.4,21013],[22.4,21114],[22.4,21214],[22.4,21313],[22.4,21413],[22.4,21514],[22.4,21613],[22.4,21713],[22.4,21814],[22.4,21914],[22.4,22014],[22.4,22114],[22.4,22215],[22.4,22313],[22.4,22414],[22.4,22513],[22.4,22614],[22.4,22714],[22.4,22813],[22.4,22913],[22.4,23014],[22.4,23113],[22.4,23214],[22.4,23314],[22.4,23413],[24.3,23514],[38.9,23614],[49.5,23714],[50.2,23813],[50.2,23913],[50.2,24013],[58.4,24114],[60.9,24214],[60.9,24314],[60.9,24413],[60.9,24513],[60.9,24613],[60.9,24713],[60.9,24813],[60.9,24914],[60.9,25013],[60.9,25113],[60.9,25212],[60.9,25313],[60.9,25413],[60.9,25513],[60.9,25614],[60.9,25714],[60.9,25813],[60.9,25913],[60.9,26013],[60.9,26114],[60.9,26213],[60.9,26313],[60.9,26413],[60.9,26514],[60.9,26614],[60.9,26713],[60.9,26813],[60.9,26914],[60.9,27014],[60.9,27114],[60.9,27213],[60.9,27314],[60.9,27414],[60.9,27514],[60.9,27614],[60.9,27714],[60.9,27814],[60.9,27913],[60.9,28013],[60.9,28114],[60.9,28214],[60.9,28313],[60.9,28414],[60.9,28514],[60.9,28613],[60.9,28713],[60.9,28813],[60.9,28914],[60.9,29013],[60.9,29113],[60.9,29213],[60.9,29313],[60.9,29413],[60.9,29514],[60.9,29613],[60.9,29713]]",1,0,574.0309,Half the time,50,574.0442,,,[],,574.0443,574.0449,,,[],,,,0,0,0,0,1,audio/Narrative13Situation2.wav,audio/Narrative13Situation2.wav,audio/Narrative13Situation2.wav,audio/Narrative13Situation2.wav,2,2,2,2,,,,,539.4306,541.705,space,1.7593,,,,,,,,,,,,,,,,,,,,,,,,,,,,,,
,,,,,,61202b6be797314915cb1bd7,2024-02-05_10h15.17.224,group3.1-3.2-social-tom,2023.2.2,MacIntel,133.3333333,65b1b24e3a500fd6b5dc9abd,65c109556c65fd9357ae3391,,,,,,,,,,,,,,,,,,,,,,,,,,,,,574.0451,576.0459,,576.0461,602.6133,"[[59.2,1199],[57.1,1300],[55.3,1400],[54.8,1499],[54.8,1599],[54.8,1702],[54.7,1799],[44.4,1900],[39.7,2000],[39.1,2100],[39.1,2200],[39.1,2300],[39.1,2400],[39.1,2499],[39.1,2599],[39.1,2700],[39.1,2800],[39.1,2900],[39.1,3000],[39.1,3099],[39.1,3199],[39.1,3299],[39.1,3399],[39.1,3499],[39.1,3599],[39.1,3700],[39.1,3799],[39.1,3901],[39.1,3999],[39.1,4100],[39.1,4200],[39.1,4300],[50,4401],[56.4,4600],[56.4,4700],[56.4,4800],[56.7,4900],[57,5000],[56.5,5100],[56.5,5200],[56.5,5300],[56.5,5400],[56.5,5501],[56.5,5600],[56.5,5699],[56.5,5799],[56.5,5900],[56.5,6000],[56.5,6100],[56.5,6199],[56.5,6300],[56.5,6399],[56.5,6500],[56.5,6599],[56.5,6699],[56.5,6800],[56.5,6900],[56.5,7000],[56.5,7100],[56.5,7199],[56.5,7299],[56.5,7400],[56.5,7499],[56.5,7600],[56.5,7700],[56.5,7799],[56.5,7900],[56.5,7999],[56.5,8100],[56.5,8199],[56.5,8312],[56.5,8407],[56.5,8509],[56.5,8608],[56.5,8708],[56.5,8807],[56.5,8908],[56.5,9008],[56.5,9108],[56.5,9208],[56.5,9309],[56.5,9408],[56.5,9508],[56.5,9608],[56.5,9708],[56.5,9808],[56.5,9908],[56.5,10007],[56.5,10108],[56.5,10208],[56.5,10308],[56.5,10408],[56.5,10508],[56.5,10608],[56.5,10708],[56.5,10807],[56.5,10908],[56.5,11008],[56.5,11110],[56.5,11207],[56.5,11307],[56.5,11408],[56.5,11508],[56.5,11608],[56.5,11708],[56.5,11808],[56.5,11908],[56.5,12007],[56.5,12109],[56.5,12208],[56.5,12309],[56.5,12408],[56.5,12509],[56.5,12607],[56.5,12709],[56.5,12808],[56.5,12908],[56.5,13008],[56.5,13108],[56.5,13207],[56.5,13308],[56.5,13409],[56.5,13508],[56.5,13607],[56.5,13707],[56.5,13809],[56.5,13908],[56.5,14010],[56.5,14107],[56.5,14207],[56.5,14308],[56.5,14408],[56.5,14509],[56.5,14608],[56.5,14708],[56.5,14808],[56.5,14907],[56.5,15008],[56.5,15108],[56.5,15207],[56.5,15308],[56.5,15408],[56.5,15515],[56.5,15609],[58.1,15708],[63.2,15810],[67,15910],[70.2,16008],[74,16110],[75.2,16208],[75.2,16308],[75.2,16408],[75.2,16507],[75.2,16608],[75.2,16708],[75.2,16808],[75.2,16907],[75.2,17008],[75.2,17108],[75.2,17207],[75.2,17308],[75.2,17407],[75.2,17511],[75.2,17608],[75.2,17708],[75.2,17808],[75.2,17909],[75.2,18007],[75.2,18108],[75.2,18208],[75.2,18308],[75.2,18409],[75.2,18508],[75.2,18610],[75.2,18709],[75.2,18808],[75.2,18908],[75.2,19008],[75.2,19109],[75.2,19208],[75.2,19309],[75.2,19409],[75.2,19512],[75.2,19608],[75.2,19709],[75.2,19808],[75.2,19908],[75.2,20008],[75.2,20108],[75.2,20208],[75.2,20308],[75.2,20408],[75.2,20507],[75.2,20609],[75.2,20709],[75.2,20807],[75.2,20907],[75.2,21009],[75.2,21109],[75.2,21208],[75.2,21308],[75.2,21409],[75.2,21509],[75.2,21610],[75.2,21709],[75.2,21808],[75.2,21908],[75.2,22008],[75.2,22109],[75.2,22208],[75.2,22309],[75.2,22408],[75.2,22508],[75.2,22613],[75.2,22708],[75.2,22808],[75.2,22908],[75.2,23008],[75.2,23108],[75.2,23208],[75.2,23309],[75.2,23408],[75.2,23508],[75.2,23610],[75.2,23709],[75.2,23809],[75.2,23908],[75.2,24010],[75.2,24107],[75.2,24208],[75.2,24308],[75.2,24408],[75.2,24507],[75.2,24608],[75.2,24709],[75.2,24808],[75.2,24909],[75.2,25009],[75.2,25107],[75.2,25209],[75.2,25308],[75.2,25408],[75.2,25508],[75.2,25610],[75.2,25708],[75.2,25808],[75.2,25908],[75.2,26009],[75.2,26110],[75.2,26209],[75.2,26309],[75.2,26409],[75.2,26507]]",1,0,602.6139,Not at all,0,602.6274,,,[],,602.6274,605.4305,71.00849454,2.5242,"[{""rating"":71.00849454365078,""responseTime"":2.5241999999999507}]",space,2.2822,,0,1,1,1,1,audio/Narrative7Situation1.wav,audio/Narrative8Situation1.wav,audio/Narrative5Situation1.wav,audio/Narrative6Situation1.wav,2,5,5,2,,,,,,,,,,,,,,,,,,,,,,,,,,,,,,,,,,,,,,
,,,,,,61202b6be797314915cb1bd7,2024-02-05_10h15.17.224,group3.1-3.2-social-tom,2023.2.2,MacIntel,133.3333333,65b1b24e3a500fd6b5dc9abd,65c109556c65fd9357ae3391,,,,,,,,,,,,,,,,,,,,,,,,,,,,,605.4313,608.4378,,608.4379,636.922,"[[69.7,1099],[61.5,1200],[48.5,1299],[46.9,1400],[46.9,1500],[46.9,1600],[46.9,1699],[46.9,1800],[50.2,1900],[56.4,2001],[57.5,2107],[57.5,2207],[57.5,2307],[57.5,2407],[57.5,2507],[57.5,2607],[57.5,2707],[57.5,2808],[57.5,2907],[57.5,3008],[57.5,3108],[57.5,3208],[57.5,3308],[57.5,3407],[57.5,3508],[57.5,3608],[57.5,3708],[57.5,3807],[57.5,3908],[57.5,4008],[57.5,4108],[57.5,4208],[57.5,4308],[63.9,4408],[72,4507],[75,4608],[75.9,4708],[75.9,4808],[75.9,4908],[75.9,5008],[78.3,5108],[81.1,5209],[83,5308],[83.3,5408],[81.3,5509],[80,5608],[79.9,5708],[79.2,5808],[78.4,5909],[78.4,6008],[78.4,6108],[78.4,6208],[78.4,6308],[78.4,6407],[78.4,6508],[78.4,6608],[78.4,6709],[78.4,6808],[78.4,6908],[78.4,7009],[78.4,7107],[78.4,7207],[78.4,7309],[78.4,7408],[78.4,7508],[78.4,7607],[78.4,7708],[78.4,7807],[78.4,7908],[78.4,8008],[78.4,8108],[78.4,8208],[78.4,8307],[78.4,8408],[78.4,8508],[78.4,8607],[78.4,8708],[78.4,8808],[78.4,8907],[78.4,9008],[78.4,9108],[78.4,9207],[78.4,9308],[78.4,9408],[78.4,9508],[78.4,9608],[78.4,9707],[78.4,9808],[78.4,9908],[78.4,10008],[78.4,10108],[78.4,10207],[78.4,10307],[78.4,10408],[78.4,10507],[78.4,10609],[78.4,10709],[78.4,10808],[78.4,10908],[78.4,11016],[78.4,11116],[78.4,11217],[78.4,11316],[78.4,11416],[78.4,11516],[78.4,11617],[78.4,11716],[78.4,11816],[78.4,11916],[78.4,12016],[78.4,12117],[78.4,12216],[78.4,12316],[78.4,12417],[78.4,12516],[78.4,12616],[78.4,12719],[78.4,12816],[78.4,12917],[78.4,13016],[78.4,13118],[78.4,13217],[78.4,13317],[78.4,13417],[78.4,13516],[78.4,13616],[78.4,13717],[78.4,13816],[78.4,13917],[78.4,14016],[78.4,14117],[78.4,14215],[78.4,14317],[78.4,14416],[78.4,14517],[78.4,14617],[78.4,14716],[78.4,14816],[78.4,14917],[78.4,15017],[78.4,15116],[78.4,15217],[78.4,15317],[72,15417],[63.9,15517],[58.6,15617],[56.8,15717],[56.9,15816],[56.9,15916],[56.9,16016],[56.9,16116],[56.9,16216],[56.9,16316],[56.9,16417],[56.9,16518],[56.9,16616],[56.9,16716],[56.9,16816],[56.9,16917],[56.9,17015],[56.9,17116],[56.9,17216],[56.9,17317],[56.9,17416],[56.9,17516],[56.9,17616],[56.9,17716],[56.9,17816],[56.9,17916],[56.9,18016],[56.9,18117],[56.9,18216],[56.9,18317],[56.9,18415],[56.9,18516],[56.9,18616],[56.9,18717],[56.9,18816],[56.9,18917],[56.9,19017],[56.9,19117],[56.9,19216],[56.9,19317],[56.9,19415],[56.9,19516],[56.9,19617],[56.9,19717],[56.9,19817],[56.9,19917],[56.9,20017],[56.9,20117],[56.9,20216],[56.9,20317],[56.9,20416],[56.9,20516],[56.9,20616],[56.9,20715],[56.9,20816],[56.9,20916],[56.9,21016],[56.9,21117],[56.9,21217],[56.9,21316],[56.9,21417],[56.9,21516],[56.9,21616],[56.9,21716],[56.9,21817],[56.9,21917],[56.9,22016],[56.9,22116],[56.9,22216],[56.9,22317],[56.9,22416],[56.9,22516],[56.9,22617],[56.9,22718],[56.9,22816],[56.9,22916],[56.9,23016],[56.9,23116],[56.9,23216],[56.9,23316],[56.9,23416],[56.9,23516],[56.9,23616],[56.9,23717],[56.9,23817],[56.9,23916],[56.9,24016],[56.9,24115],[56.9,24217],[56.9,24317],[60.4,24416],[64.6,24517],[65.2,24616],[65.4,24716],[65.4,24816],[65.4,24916],[65.4,25016],[65.4,25117],[65.4,25216],[65.4,25316],[65.4,25416],[65.4,25516],[65.4,25616],[65.4,25716],[65.4,25816],[65.4,25916],[65.4,26016],[65.4,26117],[65.4,26216],[65.4,26316],[65.4,26416],[65.4,26517],[65.4,26615],[65.4,26716],[65.4,26816],[65.4,26917],[65.4,27016],[65.4,27118],[65.4,27216],[65.4,27317],[65.4,27417],[65.4,27517],[65.4,27616],[65.4,27717],[65.4,27816],[65.4,27916],[65.4,28017],[65.4,28117],[65.4,28216],[65.4,28316],[65.4,28415]]",1,0,636.9223,All the time,100,636.9366,,,[],,636.9367,638.9092,64.0707672,1.5827,"[{""rating"":64.0707671957672,""responseTime"":1.5826999999999316}]",space,1.4573,,0,2,2,2,1,audio/Narrative7Situation2.wav,audio/Narrative8Situation2.wav,audio/Narrative5Situation2.wav,audio/Narrative6Situation2.wav,3,3,3,3,,,,,,,,,,,,,,,,,,,,,,,,,,,,,,,,,,,,,,
,,,,,,61202b6be797314915cb1bd7,2024-02-05_10h15.17.224,group3.1-3.2-social-tom,2023.2.2,MacIntel,133.3333333,65b1b24e3a500fd6b5dc9abd,65c109556c65fd9357ae3391,,,,,,,,,,,,,,,,,,,,,,,,,,,,,638.9095,643.917,,643.9171,656.5126,"[[63.6,1021],[61.4,1120],[60.7,1221],[60.6,1321],[60.6,1421],[60.6,1521],[60.6,1620],[60.6,1720],[60.6,1821],[60.6,1920],[60.6,2020],[60.6,2120],[60.6,2220],[60.6,2321],[60.6,2421],[60.6,2521],[60.6,2621],[60.6,2721],[60.6,2820],[60.9,2921],[68.8,3021],[72.2,3119],[73.6,3220],[76.4,3322],[79,3420],[80.8,3521],[81.1,3620],[81.1,3720],[81.1,3821],[81.1,3920],[81.1,4020],[81.1,4120],[81.1,4221],[81.1,4320],[81.1,4419],[81.1,4520],[81.1,4621],[81.1,4721],[81.1,4820],[81.1,4921],[81.1,5021],[81.1,5121],[80.8,5221],[80.6,5320],[80.6,5419],[80.6,5520],[80.6,5621],[80.6,5720],[80.6,5820],[80.6,5920],[80.6,6020],[80.6,6121],[80.6,6220],[80.6,6320],[80.6,6421],[80.6,6521],[80.6,6621],[80.6,6721],[80.6,6821],[80.6,6921],[80.6,7020],[80.6,7120],[80.6,7220],[80.6,7320],[80.6,7421],[80.6,7520],[80.6,7620],[80.6,7721],[80.6,7820],[80.6,7921],[80.6,8020],[80.6,8121],[80.6,8220],[80.6,8320],[80.6,8420],[80.6,8520],[80.6,8621],[80.6,8721],[80.6,8821],[80.6,8921],[80.6,9020],[80.6,9120],[80.6,9221],[80.6,9320],[80.6,9420],[80.6,9520],[80.6,9620],[80.6,9720],[80.6,9820],[80.6,9921],[80.6,10021],[80.6,10120],[80.6,10221],[80.6,10320],[80.6,10420],[80.6,10521],[80.6,10620],[80.6,10720],[80.6,10821],[80.6,10920],[80.6,11021],[80.6,11121],[80.6,11220],[80.6,11320],[80.6,11420],[80.6,11520],[80.6,11620],[80.6,11720],[80.6,11820],[80.6,11920],[80.6,12020],[80.6,12120],[80.6,12220],[80.6,12321],[80.6,12422],[80.6,12520]]",1,0,656.5127,Half the time,50,656.5263,,,[],,656.5264,657.973,74.44351438,1.1225,"[{""rating"":74.44351438492063,""responseTime"":1.1224999999999454}]",space,0.9295,,0,3,3,3,1,audio/Narrative7Situation3.wav,audio/Narrative8Situation3.wav,audio/Narrative5Situation3.wav,audio/Narrative6Situation3.wav,8,4,3,5,,,,,,,,,,,,,,,,,,,,,,,,,,,,,,,,,,,,,,
,,,,,,61202b6be797314915cb1bd7,2024-02-05_10h15.17.224,group3.1-3.2-social-tom,2023.2.2,MacIntel,133.3333333,65b1b24e3a500fd6b5dc9abd,65c109556c65fd9357ae3391,,,,,,,,,,,,,,,,,,,,,,,,,,,,,657.9733,659.9737,,659.9737,672.5721,"[[70.9,1098],[68.4,1198],[67.9,1297],[67.9,1397],[67.9,1497],[67.9,1598],[67.9,1697],[67.9,1798],[67.9,1898],[67.9,1997],[67.9,2098],[67.9,2199],[67.9,2297],[67.9,2399],[67.9,2497],[67.9,2597],[67.9,2697],[67.9,2797],[67.9,2898],[67.9,2998],[67.9,3097],[67.9,3197],[67.9,3297],[67.9,3398],[67.9,3496],[67.9,3598],[67.9,3698],[67.9,3797],[67.9,3897],[67.9,3998],[67.9,4097],[67.9,4197],[67.9,4297],[67.9,4398],[67.9,4496],[67.9,4597],[67.9,4698],[67.9,4798],[67.9,4897],[67.9,4998],[67.9,5097],[67.9,5197],[67.9,5297],[67.9,5397],[67.9,5497],[67.9,5598],[67.9,5697],[67.9,5798],[67.9,5896],[67.9,5998],[67.9,6097],[67.9,6197],[67.9,6297],[67.9,6397],[67.9,6498],[67.9,6597],[67.9,6697],[67.9,6797],[67.9,6898],[67.9,6999],[67.9,7097],[67.9,7197],[67.9,7298],[67.9,7398],[67.9,7497],[67.9,7597],[67.9,7698],[67.9,7798],[67.9,7899],[67.9,7997],[67.9,8097],[67.9,8199],[67.9,8297],[67.9,8398],[67.9,8497],[67.9,8598],[67.9,8697],[67.9,8798],[67.9,8897],[67.9,8998],[67.9,9097],[67.9,9197],[67.9,9299],[67.9,9397],[67.9,9497],[67.9,9597],[67.9,9697],[67.9,9797],[67.9,9897],[67.9,9999],[67.9,10097],[67.9,10197],[67.9,10297],[67.9,10398],[67.9,10497],[67.9,10597],[67.9,10697],[67.9,10798],[67.9,10899],[67.9,11000],[67.9,11097],[67.9,11197],[67.9,11297],[67.9,11396],[67.9,11499],[69.2,11597],[70,11697],[70,11796],[70,11898],[69.9,11998],[69.9,12098],[69.9,12198],[69.9,12297],[69.9,12397],[69.9,12497],[69.9,12598]]",1,0,672.5722,All the time,100,672.575,,,[],,672.575,673.5229,72.79317543,0.661,"[{""rating"":72.79317542989419,""responseTime"":0.6609999999999445}]",space,0.426,,0,4,4,4,1,audio/Narrative7Situation4.wav,audio/Narrative8Situation4.wav,audio/Narrative5Situation4.wav,audio/Narrative6Situation4.wav,3,3,1,2,,,,,,,,,,,,,,,,,,,,,,,,,,,,,,,,,,,,,,
,,,,,,61202b6be797314915cb1bd7,2024-02-05_10h15.17.224,group3.1-3.2-social-tom,2023.2.2,MacIntel,133.3333333,65b1b24e3a500fd6b5dc9abd,65c109556c65fd9357ae3391,,,,,,,,,,,,,,,,,,,,,,,,,,,,,673.5234,675.5298,,675.5298,683.4718,"[[72.9,1700],[74.6,1799],[75.3,1899],[75.3,1999],[75.3,2099],[75.3,2199],[75.3,2299],[75.3,2400],[75.3,2499],[75.3,2599],[75.3,2699],[75.3,2799],[75.3,2899],[75.3,2999],[75.3,3099],[75.3,3199],[75.3,3299],[77.4,3400],[81.9,3501],[84.9,3599],[88,3699],[90.4,3799],[91.2,3900],[91.5,4008],[91.5,4108],[91.5,4208],[91.5,4307],[91.5,4407],[91.5,4508],[91.5,4608],[91.5,4707],[91.5,4807],[91.5,4908],[91.5,5008],[91.5,5108],[91.5,5208],[91.5,5308],[91.5,5408],[91.5,5508],[91.5,5608],[91.5,5707],[91.5,5807],[91.5,5907],[91.5,6008],[91.5,6107],[91.5,6208],[91.5,6308],[91.5,6408],[91.5,6508],[91.5,6607],[91.5,6707],[91.5,6807],[91.5,6908],[91.5,7008],[91.5,7109],[91.5,7208],[91.5,7308],[91.5,7407],[91.5,7507],[91.5,7609],[91.5,7707],[91.5,7808],[91.5,7907]]",1,0,683.472,Half the time,50,688.7499,50.2025463,4.3041,"[{""rating"":50.20254629629629,""responseTime"":4.304099999999835}]",space,688.75,693.1423,79.81874173,4.1281,"[{""rating"":79.81874173280423,""responseTime"":4.128099999999904}]",space,3.8763,,0,5,5,5,1,audio/Narrative7Situation5.wav,audio/Narrative8Situation5.wav,audio/Narrative5Situation5.wav,audio/Narrative6Situation5.wav,5,2,5,2,,,4.7626,,,,,,,,,,,,,,,,,,,,,,,,,,,,,,,,,,,
,,,,,,61202b6be797314915cb1bd7,2024-02-05_10h15.17.224,group3.1-3.2-social-tom,2023.2.2,MacIntel,133.3333333,65b1b24e3a500fd6b5dc9abd,65c109556c65fd9357ae3391,,,,,,,,,,,,,,,,,,,,,,,,,,,,,693.1431,695.1509,,695.1509,706.2178,"[[999,0],[999,99],[999,199],[999,299],[999,399],[999,498],[999,599],[999,700],[999,798],[999,899],[999,999],[999,1100],[999,1199],[74.4,1300],[73.8,1399],[73.8,1498],[73.8,1599],[73.8,1700],[73.8,1799],[72.9,1900],[67.8,2000],[64.1,2099],[63.8,2199],[63.8,2300],[63.8,2398],[63.8,2499],[63.8,2598],[63.8,2699],[63.8,2799],[63.8,2899],[62.5,2999],[60.2,3099],[59.9,3199],[59.9,3298],[59.9,3399],[59.9,3498],[59.2,4401],[59.9,4499],[59.6,4599],[58.9,4700],[58.8,4799],[58.8,4899],[58.8,5000],[60.4,5099],[61.1,5199],[61.1,5300],[61.1,5399],[61.1,5500],[61.1,5602],[61.7,5699],[65,5799],[65.7,5900],[65.7,6000],[65.7,6099],[65.7,6199],[65.7,6300],[65.7,6399],[65.7,6499],[65.7,6599],[65.7,6699],[65.7,6799],[65.7,6899],[65.7,6999],[65.7,7099],[65.7,7198],[65.7,7299],[65.7,7399],[65.7,7500],[65.7,7598],[65.7,7700],[65.7,7799],[65.7,7899],[65.7,7998],[65.7,8099],[65.7,8199],[65.7,8299],[65.7,8399],[70.7,8499],[75.6,8599],[79,8698],[81.1,8800],[82.9,8901],[84,8998],[84.1,9099],[84.1,9199],[84.1,9307],[84.1,9407],[84.1,9508],[84.1,9608],[84.1,9708],[84.1,9807],[84.1,9907],[84.1,10008],[84.1,10107],[84.1,10208],[84.1,10307],[84.1,10408],[84.1,10508],[84.1,10607],[84.1,10707],[84.1,10807],[84.1,10907],[84.1,11007]]",1,0,706.2182,Half the time,50,706.221,,,[],,706.2211,707.4674,79.69731729,0.9182,"[{""rating"":79.69731729497354,""responseTime"":0.9181999999999562}]",space,0.7243,,0,6,6,6,1,audio/Narrative7Situation6.wav,audio/Narrative8Situation6.wav,audio/Narrative5Situation6.wav,audio/Narrative6Situation6.wav,3,2,3,2,,,,,,,,,,,,,,,,,,,,,,,,,,,,,,,,,,,,,,
,,,,,,61202b6be797314915cb1bd7,2024-02-05_10h15.17.224,group3.1-3.2-social-tom,2023.2.2,MacIntel,133.3333333,65b1b24e3a500fd6b5dc9abd,65c109556c65fd9357ae3391,,,,,,,,,,,,,,,,,,,,,,,,,,,,,707.4677,712.4757,,712.4757,737.3149,"[[79.6,1308],[66.2,1407],[59.3,1507],[58.9,1607],[58.9,1707],[58.9,1808],[58.9,1908],[58.9,2008],[58.9,2108],[58.9,2207],[58.9,2307],[58.9,2408],[58.9,2507],[58.9,2607],[58.9,2707],[58.9,2807],[58.9,2907],[58.9,3007],[58.9,3108],[55.9,3210],[44.3,3308],[42.1,3408],[41.9,3507],[42.5,3608],[45.9,3707],[48.6,3807],[49.5,3908],[49.9,4007],[49.9,4107],[49.9,4208],[49.9,4307],[49.9,4407],[49.9,4508],[49.9,4607],[49.9,4707],[49.9,4807],[50.4,4909],[59.2,5010],[63.4,5107],[63.7,5207],[63.7,5308],[63.7,5407],[63.7,5509],[63.7,5608],[63.7,5708],[63.7,5808],[63.7,5907],[63.7,6007],[63.7,6107],[63.7,6208],[63.7,6308],[63.7,6408],[63.7,6508],[63.7,6607],[63.7,6707],[63.7,6807],[63.7,6908],[63.7,7008],[63.7,7107],[63.7,7208],[63.7,7310],[63.7,7407],[63.7,7507],[63.7,7608],[63.7,7707],[63.7,7807],[63.7,7907],[63.7,8008],[63.7,8107],[63.7,8208],[63.7,8308],[63.7,8407],[63.7,8507],[63.7,8607],[63.7,8709],[63.7,8807],[63.7,8907],[63.7,9008],[63.7,9108],[63.7,9208],[63.7,9308],[63.7,9408],[63.7,9507],[63.7,9607],[63.7,9707],[63.7,9809],[63.7,9909],[63.7,10008],[63.7,10108],[63.7,10208],[63.7,10307],[63.7,10407],[63.7,10507],[63.7,10607],[63.7,10707],[63.7,10808],[63.7,10910],[63.7,11007],[63.7,11110],[63.7,11208],[63.7,11309],[63.7,11409],[63.7,11507],[63.7,11607],[63.7,11708],[63.7,11808],[63.7,11907],[63.7,12007],[63.7,12108],[63.7,12208],[63.7,12307],[63.7,12408],[63.7,12508],[63.7,12608],[63.7,12708],[63.7,12810],[63.7,12908],[63.7,13009],[63.7,13108],[63.7,13207],[63.7,13307],[63.7,13408],[63.7,13507],[63.7,13608],[63.7,13707],[63.7,13808],[63.7,13907],[63.7,14008],[63.7,14109],[63.7,14207],[63.7,14307],[63.7,14407],[63.7,14509],[65.4,14608],[66.1,14709],[67.5,14807],[69.2,14908],[72,15009],[73.9,15108],[75.7,15209],[76.9,15307],[76.9,15408],[76.9,15508],[76.9,15607],[76.9,15707],[76.9,15807],[76.9,15909],[76.9,16008],[76.9,16110],[76.9,16208],[76.9,16307],[76.9,16407],[76.9,16508],[76.9,16608],[76.9,16707],[76.9,16807],[76.9,16907],[76.9,17009],[76.9,17108],[76.9,17207],[76.9,17310],[76.9,17407],[76.9,17507],[76.9,17608],[76.9,17708],[76.9,17808],[76.9,17908],[76.9,18008],[76.9,18108],[76.9,18208],[76.9,18310],[76.9,18408],[76.9,18508],[76.9,18608],[76.9,18707],[76.9,18808],[76.9,18907],[76.9,19007],[76.9,19107],[76.9,19207],[76.9,19307],[76.9,19408],[76.9,19511],[76.9,19607],[76.9,19707],[76.9,19808],[76.9,19907],[76.9,20010],[76.9,20108],[76.9,20207],[76.9,20308],[76.9,20408],[76.9,20508],[76.9,20607],[76.9,20708],[76.9,20808],[76.9,20908],[76.9,21022],[76.9,21116],[76.9,21216],[76.9,21315],[76.9,21417],[76.9,21517],[76.9,21617],[76.9,21718],[76.9,21815],[76.9,21916],[76.9,22021],[76.9,22120],[76.9,22220],[76.9,22320],[76.9,22421],[76.9,22521],[76.9,22620],[76.9,22719],[76.9,22820],[76.9,22923],[76.9,23021],[76.9,23120],[76.9,23220],[76.9,23323],[76.9,23420],[76.9,23519],[76.9,23621],[76.9,23720],[76.9,23821],[76.9,23922],[76.9,24020],[76.9,24120],[76.9,24220],[76.9,24320],[76.9,24421],[76.9,24520],[77.5,24627],[82.7,24721],[84.3,24820]]",1,0,737.3151,All the time,100,737.3177,,,[],,737.3177,738.706,76.91953952,1.052,"[{""rating"":76.91953951719577,""responseTime"":1.052000000000021}]",space,0.8681,,0,7,7,7,1,audio/Narrative7Situation7.wav,audio/Narrative8Situation7.wav,audio/Narrative5Situation7.wav,audio/Narrative6Situation7.wav,5,3,4,5,,,,,,,,,,,,,,,,,,,,,,,,,,,,,,,,,,,,,,
,,,,,,61202b6be797314915cb1bd7,2024-02-05_10h15.17.224,group3.1-3.2-social-tom,2023.2.2,MacIntel,133.3333333,65b1b24e3a500fd6b5dc9abd,65c109556c65fd9357ae3391,,,,,,,,,,,,,,,,,,,,,,,,,,,,,738.7067,743.7134,,743.7135,750.5548,"[[64.6,1607],[53.1,1708],[52.7,1808],[52.7,1906],[52.7,2006],[50.4,2108],[42.5,2207],[42.1,2307],[42.1,2407],[42.1,2508],[42.1,2607],[34.5,2708],[31.9,2808],[31.7,2908],[32,3007],[32,3107],[32,3207],[32,3308],[32,3407],[35,3507],[39.7,3608],[41.4,3707],[41.5,3807],[41.5,3907],[41.5,4007],[41.5,4107],[41.5,4207],[41.5,4308],[41.5,4407],[41.5,4508],[41.5,4608],[41.5,4706],[41.5,4807],[41.5,4906],[41.5,5007],[41.5,5107],[50.7,5208],[60.6,5307],[63.5,5407],[63.8,5507],[63.8,5607],[63.8,5707],[63.8,5808],[66.1,5907],[69.4,6007],[69.9,6106],[69.9,6208],[69.9,6307],[69.9,6407],[69.9,6506],[69.9,6608],[69.9,6707],[69.9,6807]]",1,0,750.5549,All the time,100,750.5561,,,[],,750.5562,752.7386,65.78672702,1.7727,"[{""rating"":65.78672701719577,""responseTime"":1.7726999999999862}]",space,1.6619,,0,8,8,8,1,audio/Narrative7Situation8.wav,audio/Narrative8Situation8.wav,audio/Narrative5Situation8.wav,audio/Narrative6Situation8.wav,2,3,3,5,,,,,,,,,,,,,,,,,,,,,,,,,,,,,,,,,,,,,,
,,,,,,61202b6be797314915cb1bd7,2024-02-05_10h15.17.224,group3.1-3.2-social-tom,2023.2.2,MacIntel,133.3333333,65b1b24e3a500fd6b5dc9abd,65c109556c65fd9357ae3391,,,,,,,,,,,,,,,,,,,,,,,,,,,,,752.7394,756.7461,,756.7462,766.68,"[[64,1208],[61.4,1308],[61.2,1409],[61.3,1508],[61.3,1608],[59.1,1708],[52.3,1807],[50.5,1908],[49.8,2007],[49.8,2107],[49.8,2209],[49.8,2308],[49.8,2409],[49.8,2508],[49.8,2608],[49.8,2708],[49.8,2809],[49.8,2909],[49.8,3008],[49.8,3108],[49.8,3208],[49.8,3308],[49.8,3407],[49.8,3508],[49.8,3609],[49.8,3709],[49.8,3809],[49.8,3908],[49.8,4008],[49.8,4108],[49.8,4208],[49.8,4308],[49.8,4412],[49.8,4508],[49.8,4621],[49.8,4721],[49.8,4821],[49.8,4920],[49.8,5021],[49.8,5121],[49.8,5220],[49.8,5321],[49.8,5421],[49.8,5521],[49.8,5621],[49.8,5720],[49.8,5821],[49.8,5921],[49.8,6021],[50.9,6121],[55.3,6221],[64.1,6321],[67.1,6422],[68.7,6522],[68.8,6621],[68.8,6720],[68.8,6820],[68.8,6920],[68.8,7020],[68.8,7120],[68.8,7221],[68.8,7320],[71.3,7421],[82.3,7521],[88.5,7622],[89.2,7737],[89.2,7834],[89,7932],[89,8032],[89,8133],[89,8233],[89,8332],[89,8433],[89,8533],[89,8632],[89,8733],[89,8832],[89,8933],[89,9033],[89,9133],[89,9233],[89,9333],[89,9433],[89,9533],[89,9633],[89,9733],[89,9833],[89,9933]]",1,0,766.6802,Not at all,0,766.6832,,,[],,766.6832,767.6712,82.25084739,0.6098,"[{""rating"":82.25084738756614,""responseTime"":0.6098000000000638}]",space,0.4725,,0,9,9,9,1,audio/Narrative7Situation9.wav,audio/Narrative8Situation9.wav,audio/Narrative5Situation9.wav,audio/Narrative6Situation9.wav,2,3,3,4,,,,,,,,,,,,,,,,,,,,,,,,,,,,,,,,,,,,,,
,,,,,,61202b6be797314915cb1bd7,2024-02-05_10h15.17.224,group3.1-3.2-social-tom,2023.2.2,MacIntel,133.3333333,65b1b24e3a500fd6b5dc9abd,65c109556c65fd9357ae3391,,,,,,,,,,,,,,,,,,,,,,,,,,,,,767.6717,772.6805,,772.6807,785.9553,"[[56.9,1008],[43.7,1107],[42.6,1207],[42.6,1307],[42.6,1407],[42.6,1507],[42.6,1606],[46.1,1707],[48.8,1807],[49.2,1907],[49.4,2007],[49.4,2107],[49.4,2207],[49.4,2306],[49.4,2406],[49.4,2506],[49.4,2607],[49.4,2707],[49.4,2807],[49.4,2907],[49.4,3007],[49.4,3106],[49.4,3206],[49.4,3307],[49.4,3407],[49.4,3507],[49.4,3607],[49.4,3706],[49.4,3807],[49.4,3906],[49.4,4006],[49.4,4106],[49.4,4207],[49.4,4307],[49.2,4406],[46.9,4508],[41.8,4606],[38.4,4707],[36.2,4809],[35.5,4907],[35.1,5006],[35.1,5107],[35.1,5207],[35.1,5307],[35.1,5406],[35.1,5506],[35.1,5606],[35.1,5706],[35.1,5807],[35.1,5906],[35.1,6008],[35.1,6106],[35.1,6206],[35.1,6307],[35.1,6408],[35.1,6507],[35.1,6607],[35.1,6707],[35.1,6807],[35.1,6906],[35.1,7007],[35.1,7107],[35.1,7207],[35.1,7306],[35.1,7407],[35.1,7506],[35.1,7607],[35.1,7706],[35.1,7806],[35.1,7907],[35.1,8007],[35.1,8106],[35.1,8206],[35.1,8307],[35.1,8407],[35.1,8507],[35.1,8607],[35.1,8706],[35.1,8808],[35.1,8906],[35.1,9007],[35.1,9106],[35.1,9207],[35.1,9307],[35.1,9406],[35.1,9509],[35.1,9607],[35.1,9706],[35.1,9806],[35.1,9907],[35.1,10007],[35.1,10109],[35.1,10207],[35.1,10306],[35.1,10407],[35.1,10507],[35.1,10607],[35.1,10706],[35.1,10807],[35.1,10907],[35.1,11007],[35.1,11106],[35.1,11208],[35.1,11306],[35.1,11407],[35.1,11506],[35.1,11607],[35.1,11707],[35.1,11808],[35.1,11907],[35.1,12006],[35.1,12107],[35.1,12207],[35.1,12307],[35.1,12407],[35.1,12507],[35.1,12608],[35.1,12706],[35.1,12807],[35.1,12907],[35.1,13007],[35.1,13107],[35.1,13207]]",1,0,785.9554,All the time,100,785.9677,,,[],,785.9677,787.113,35.11491402,0.8338,"[{""rating"":35.114914021164026,""responseTime"":0.8337999999999965}]",space,0.6284,,0,10,10,10,1,audio/Narrative8Situation1.wav,audio/Narrative7Situation1.wav,audio/Narrative6Situation1.wav,audio/Narrative5Situation1.wav,5,2,2,5,,,,,,,,,,,,,,,,,,,,,,,,,,,,,,,,,,,,,,
,,,,,,61202b6be797314915cb1bd7,2024-02-05_10h15.17.224,group3.1-3.2-social-tom,2023.2.2,MacIntel,133.3333333,65b1b24e3a500fd6b5dc9abd,65c109556c65fd9357ae3391,,,,,,,,,,,,,,,,,,,,,,,,,,,,,787.1134,790.1212,,790.1212,819.5638,"[[34.5,708],[33.2,808],[32.8,908],[32.6,1008],[32.5,1108],[32.5,1208],[32.5,1309],[32.5,1407],[32.5,1509],[32.5,1608],[32.5,1708],[32.5,1808],[32.5,1910],[32.5,2008],[32.5,2108],[32.5,2208],[32.5,2308],[32.5,2408],[32.5,2508],[32.5,2608],[32.5,2708],[32.5,2808],[32.5,2908],[32.5,3007],[32.5,3108],[32.5,3208],[32.5,3308],[32.5,3408],[32.5,3508],[32.5,3607],[32.5,3708],[32.5,3807],[32.5,3908],[32.5,4008],[32.5,4108],[32.5,4208],[32.5,4308],[32.5,4416],[32.5,4515],[32.5,4616],[32.5,4716],[32.5,4815],[32.5,4916],[32.5,5016],[32.5,5117],[32.5,5217],[32.5,5315],[32.5,5416],[32.5,5517],[32.5,5617],[32.5,5716],[32.5,5816],[32.5,5916],[32.5,6016],[32.5,6122],[32.5,6216],[32.5,6316],[32.5,6417],[32.5,6516],[32.5,6617],[32.5,6716],[32.5,6816],[32.5,6916],[32.5,7016],[32.5,7117],[32.5,7217],[32.5,7317],[32.5,7416],[32.5,7516],[32.5,7616],[32.5,7717],[32.5,7816],[32.5,7917],[32.5,8017],[32.5,8116],[32.5,8216],[32.5,8316],[32.5,8416],[32.5,8516],[32.5,8616],[32.5,8717],[32.5,8817],[32.5,8917],[32.5,9016],[32.5,9116],[32.5,9216],[32.5,9316],[32.5,9440],[32.5,9529],[32.5,9629],[32.5,9729],[32.5,9830],[32.5,9928],[32.5,10030],[32.5,10128],[32.5,10229],[32.5,10329],[32.5,10430],[32.5,10528],[32.5,10629],[32.5,10729],[32.5,10829],[32.5,10929],[32.5,11030],[32.5,11128],[32.5,11229],[32.5,11328],[32.6,11430],[32.6,11529],[32.6,11629],[32.6,11729],[32.6,11829],[32.6,11929],[32.6,12029],[32.6,12129],[32.6,12228],[32.6,12328],[32.6,12429],[32.6,12529],[32.6,12629],[32.6,12730],[32.6,12829],[32.6,12929],[32.6,13028],[32.6,13129],[32.6,13237],[32.6,13337],[32.6,13436],[32.6,13537],[32.6,13637],[32.6,13737],[32.6,13837],[32.6,13936],[32.6,14037],[32.6,14137],[32.6,14237],[32.6,14338],[32.6,14437],[32.6,14537],[32.6,14646],[32.6,14746],[32.6,14845],[32.6,14945],[32.6,15046],[32.6,15147],[32.6,15246],[32.6,15345],[32.6,15448],[32.6,15545],[32.6,15645],[32.6,15746],[32.6,15845],[32.6,15946],[32.6,16045],[32.6,16145],[32.6,16246],[32.6,16346],[32.6,16445],[32.6,16546],[32.6,16646],[32.6,16746],[32.6,16846],[32.6,16945],[32.6,17045],[32.6,17145],[32.6,17245],[32.6,17345],[32.6,17445],[32.6,17546],[32.6,17646],[32.6,17746],[32.6,17846],[32.6,17946],[32.6,18045],[32.6,18145],[32.6,18246],[32.6,18345],[32.6,18445],[32.6,18546],[36.2,18646],[40.1,18745],[47.3,18845],[55.6,18945],[60,19047],[66.4,19146],[69.6,19245],[70.8,19346],[71,19445],[71,19545],[71,19646],[71,19746],[71,19845],[71,19945],[71,20045],[71,20145],[71,20246],[71,20345],[71,20446],[71,20546],[71,20646],[71,20745],[71,20845],[71,20942],[71,21041],[71,21142],[71,21241],[71,21341],[71,21442],[71,21541],[71,21641],[71,21741],[71,21842],[71,21942],[71,22041],[71,22143],[71,22241],[71,22342],[71,22441],[71,22542],[71,22641],[71,22741],[71,22841],[71,22941],[71,23042],[71,23141],[71,23241],[71,23342],[71,23442],[71,23541],[71,23641],[71,23741],[71,23841],[71,23941],[71,24042],[71,24141],[71,24241],[71,24341],[71,24442],[71,24542],[71,24641],[71,24741],[71,24841],[71,24941],[71,25042],[71,25142],[71,25242],[71,25341],[71,25447],[71,25541],[71,25642],[71,25742],[71,25842],[71,25941],[71,26041],[71,26141],[71,26241],[71,26341],[71,26441],[71,26542],[71,26641],[71,26742],[71,26842],[71,26941],[71,27042],[71,27142],[71,27241],[71,27342],[71,27442],[71,27541],[71,27641],[71,27741],[71,27840],[71,27942],[71,28041],[71,28141],[71,28240],[71,28341],[71,28441],[71,28541],[71,28642],[71,28741],[71.1,28848],[71.4,28942],[71.9,29042],[72.3,29141],[72.3,29242],[72.3,29340],[72.3,29442]]",1,0,819.5642,All the time,100,819.5668,,,[],,819.5668,820.5886,67.00768849,0.6687,"[{""rating"":67.0076884920635,""responseTime"":0.6686999999999443}]",space,0.503,,0,11,11,11,1,audio/Narrative8Situation2.wav,audio/Narrative7Situation2.wav,audio/Narrative6Situation2.wav,audio/Narrative5Situation2.wav,3,3,3,3,,,,,,,,,,,,,,,,,,,,,,,,,,,,,,,,,,,,,,
,,,,,,61202b6be797314915cb1bd7,2024-02-05_10h15.17.224,group3.1-3.2-social-tom,2023.2.2,MacIntel,133.3333333,65b1b24e3a500fd6b5dc9abd,65c109556c65fd9357ae3391,,,,,,,,,,,,,,,,,,,,,,,,,,,,,820.5894,823.597,,823.5971,837.4982,"[[66.1,707],[48.4,807],[41.3,907],[39.9,1007],[39.9,1106],[39.9,1208],[39.9,1306],[39.9,1406],[43.7,1508],[49.3,1608],[49.7,1707],[49.7,1807],[49.7,1907],[49.7,2007],[49.7,2107],[49.7,2206],[49.7,2307],[49.7,2407],[49.7,2507],[49.7,2608],[49.7,2707],[49.7,2807],[49.7,2907],[49.7,3007],[49.7,3107],[49.7,3206],[49.7,3307],[49.7,3408],[49.7,3507],[49.7,3606],[49.7,3708],[49.7,3807],[49.7,3907],[49.7,4008],[49.7,4107],[49.7,4207],[49.7,4306],[49.7,4407],[49.7,4507],[49.7,4607],[49.7,4707],[49.7,4807],[49.7,4907],[49.7,5007],[49.7,5107],[49.7,5207],[52.5,5308],[63.7,5408],[66.7,5507],[67.1,5607],[67.1,5706],[67.1,5808],[67.1,5907],[67.1,6007],[67.1,6107],[67.1,6207],[67.1,6307],[67.1,6408],[67.1,6509],[67.1,6607],[67.1,6706],[67.1,6807],[67.1,6907],[67.1,7006],[67.1,7107],[67.1,7207],[67.1,7307],[67.1,7407],[67.1,7508],[67.1,7608],[67.1,7707],[67.1,7807],[67.1,7907],[67.1,8006],[67.1,8107],[67.1,8208],[67.1,8307],[67.1,8407],[67.1,8507],[67.1,8607],[67.1,8707],[67.1,8807],[67.1,8907],[67.1,9008],[67.1,9107],[67.1,9207],[67.1,9307],[67.1,9407],[67.1,9507],[67.1,9607],[67.1,9707],[67.1,9808],[67.1,9907],[67.1,10007],[67.1,10107],[67.1,10207],[67.1,10306],[67.1,10407],[67.1,10506],[67.1,10606],[67.1,10708],[67.1,10807],[67.1,10907],[67.1,11007],[67.1,11108],[67.1,11207],[67.1,11307],[67.1,11407],[67.1,11507],[67.1,11606],[67.1,11706],[67.1,11807],[67.1,11907],[67.1,12007],[67.1,12108],[67.1,12206],[67.1,12309],[67.1,12408],[67.1,12507],[67.1,12607],[67.1,12707],[67.1,12807],[67.1,12907],[67.1,13007],[67.1,13108],[67.1,13206],[67.1,13307],[67.1,13407],[67.1,13507],[67.1,13607],[67.1,13707],[67.1,13807]]",1,0,837.4984,Half the time,50,837.5131,,,[],,837.5131,838.6378,64.60813492,0.7315,"[{""rating"":64.60813492063492,""responseTime"":0.7314999999999827}]",space,0.6084,,0,12,12,12,1,audio/Narrative8Situation3.wav,audio/Narrative7Situation3.wav,audio/Narrative6Situation3.wav,audio/Narrative5Situation3.wav,4,8,5,3,,,,,,,,,,,,,,,,,,,,,,,,,,,,,,,,,,,,,,
,,,,,,61202b6be797314915cb1bd7,2024-02-05_10h15.17.224,group3.1-3.2-social-tom,2023.2.2,MacIntel,133.3333333,65b1b24e3a500fd6b5dc9abd,65c109556c65fd9357ae3391,,,,,,,,,,,,,,,,,,,,,,,,,,,,,838.6385,839.6467,,839.6468,860.0138,"[[63.9,1600],[62.3,1700],[60.4,1798],[59.5,1899],[59.2,2001],[58.9,2099],[55.7,2202],[52.4,2299],[51.6,2402],[52.2,2499],[54.5,2599],[55.8,2699],[55.9,2799],[55.9,2900],[55.9,3000],[57.2,3099],[59.5,3199],[59.6,3299],[59.6,3400],[59.6,3500],[59.6,3598],[59.6,3700],[59.6,3799],[59.6,3898],[59.6,3999],[59.6,4099],[59.6,4198],[59.6,4299],[59.6,4399],[59.6,4499],[59.6,4599],[59.6,4700],[59.6,4799],[59.6,4898],[59.6,4999],[59.6,5100],[59.6,5200],[59.6,5299],[59.6,5398],[59.6,5499],[59.6,5599],[59.6,5698],[59.6,5799],[59.6,5902],[59.6,5999],[59.6,6098],[59.6,6200],[59.6,6299],[59.6,6399],[59.6,6498],[59.6,6600],[59.6,6699],[59.6,6799],[59.6,6899],[59.6,7000],[59.6,7099],[59.6,7199],[59.6,7298],[59.6,7399],[59.6,7498],[59.6,7599],[59.6,7699],[59.6,7799],[59.6,7902],[59.6,7999],[59.6,8099],[59.6,8200],[59.6,8299],[59.6,8399],[59.6,8499],[59.6,8599],[59.6,8699],[59.6,8799],[59.6,8900],[59.6,8999],[59.6,9098],[59.6,9200],[59.6,9299],[59.6,9400],[59.6,9499],[59.6,9600],[59.6,9700],[59.6,9799],[59.6,9903],[59.6,9999],[59.6,10099],[59.6,10198],[59.6,10300],[59.6,10399],[59.6,10502],[59.6,10602],[59.6,10703],[59.6,10803],[59.6,10903],[59.6,11003],[59.6,11103],[59.6,11204],[59.6,11303],[59.6,11404],[59.6,11503],[59.6,11603],[59.6,11703],[59.6,11803],[59.6,11903],[59.6,12003],[59.6,12103],[59.6,12203],[59.6,12303],[59.6,12403],[59.6,12503],[59.6,12603],[59.6,12704],[59.6,12802],[59.6,12903],[59.6,13003],[59.6,13103],[59.6,13203],[59.6,13302],[59.6,13403],[59.6,13503],[59.6,13602],[59.6,13703],[59.6,13803],[59.6,13905],[59.6,14004],[59.6,14103],[59.6,14204],[59.6,14302],[59.6,14403],[59.6,14503],[59.6,14604],[59.6,14703],[59.6,14804],[59.6,14902],[59.6,15003],[59.6,15102],[59.6,15203],[59.6,15303],[59.6,15404],[59.6,15504],[59.6,15603],[59.6,15702],[59.6,15804],[59.6,15906],[59.6,16003],[59.6,16103],[59.6,16204],[59.6,16304],[59.6,16402],[59.6,16503],[59.6,16603],[59.6,16702],[59.6,16803],[59.6,16906],[59.6,17003],[59.6,17103],[59.6,17202],[59.6,17303],[59.6,17403],[59.6,17503],[59.6,17603],[59.6,17703],[59.6,17804],[59.6,17904],[59.6,18004],[59.6,18104],[60.3,18207],[68.1,18306],[77.1,18404],[82.3,18503],[84.6,18603],[84.9,18704],[84.9,18804],[84.9,18905],[84.9,19002],[84.9,19102],[84.9,19206],[84.9,19303],[84.9,19403],[84.9,19503],[84.9,19608],[84.9,19703],[84.9,19802],[84.9,19911],[84.9,20007],[84.9,20108],[84.9,20208],[84.9,20307]]",1,0,860.014,Half the time,50,860.0163,,,[],,860.0164,862.8039,74.15364583,2.5049,"[{""rating"":74.15364583333334,""responseTime"":2.504899999999907}]",space,2.2693,,0,13,13,13,1,audio/Narrative8Situation4.wav,audio/Narrative7Situation4.wav,audio/Narrative6Situation4.wav,audio/Narrative5Situation4.wav,3,3,2,1,,,,,,,,,,,,,,,,,,,,,,,,,,,,,,,,,,,,,,
,,,,,,61202b6be797314915cb1bd7,2024-02-05_10h15.17.224,group3.1-3.2-social-tom,2023.2.2,MacIntel,133.3333333,65b1b24e3a500fd6b5dc9abd,65c109556c65fd9357ae3391,,,,,,,,,,,,,,,,,,,,,,,,,,,,,862.8044,867.8054,,867.8055,883.2131,"[[54.2,2007],[48.6,2107],[47.4,2206],[47.4,2306],[47.4,2406],[45.6,2507],[33.7,2608],[32,2707],[32,2807],[32,2907],[32,3006],[32,3106],[28.5,3208],[26.7,3307],[26.6,3408],[26.7,3507],[27,3606],[27.2,3707],[27.6,3808],[27.8,3907],[27.8,4007],[27.8,4107],[27.8,4206],[27.8,4306],[27.8,4408],[27.8,4508],[27.8,4607],[27.8,4707],[27.8,4807],[27.8,4908],[27.8,5006],[27.8,5107],[27.8,5208],[27.8,5306],[27.8,5407],[27.8,5507],[27.8,5607],[27.8,5707],[27.8,5807],[27.8,5907],[27.8,6006],[27.8,6107],[27.8,6207],[27.8,6307],[27.8,6407],[27.8,6506],[27.8,6606],[27.8,6706],[27.8,6807],[27.8,6907],[27.8,7007],[27.8,7106],[27.8,7207],[27.8,7307],[27.8,7407],[27.8,7507],[27.8,7607],[27.8,7706],[27.8,7807],[27.8,7907],[27.8,8007],[27.8,8106],[27.8,8207],[27.8,8307],[27.8,8406],[27.8,8507],[27.8,8606],[27.8,8706],[27.8,8807],[27.8,8906],[27.8,9007],[27.8,9107],[27.8,9207],[27.8,9307],[27.8,9406],[27.8,9506],[27.8,9606],[36.2,9715],[54.3,9815],[59,9916],[59,10015],[59,10115],[63,10216],[75.9,10315],[77.1,10415],[77.1,10516],[77.1,10615],[77.1,10715],[77.1,10815],[77.1,10915],[77.1,11016],[77.1,11115],[77.1,11216],[77.1,11315],[77.1,11415],[77.1,11516],[77.1,11615],[77.1,11715],[77.1,11816],[77.1,11915],[77.1,12015],[77.1,12119],[77.1,12215],[77.1,12316],[77.1,12416],[77.1,12515],[77.1,12615],[77.1,12715],[77.1,12815],[77.1,12915],[77.1,13015],[77.1,13116],[77.1,13216],[77.1,13316],[77.1,13415],[77.1,13524],[77.1,13624],[77.1,13723],[77.1,13823],[77.1,13923],[77.1,14023],[77.1,14123],[77.1,14223],[77.1,14324],[77.1,14423],[77.1,14523],[77.1,14623],[77.1,14724],[77.1,14824],[77.1,14923],[77.1,15024],[77.1,15123],[77.1,15224],[77.1,15323]]",1,0,883.2135,All the time,100,883.2262,,,[],,883.2262,890.3136,52.21457507,6.69,"[{""rating"":52.21457506613757,""responseTime"":6.690000000000055}]",space,6.5677,,0,14,14,14,1,audio/Narrative8Situation5.wav,audio/Narrative7Situation5.wav,audio/Narrative6Situation5.wav,audio/Narrative5Situation5.wav,2,5,2,5,,,,,,,,,,,,,,,,,,,,,,,,,,,,,,,,,,,,,,
,,,,,,61202b6be797314915cb1bd7,2024-02-05_10h15.17.224,group3.1-3.2-social-tom,2023.2.2,MacIntel,133.3333333,65b1b24e3a500fd6b5dc9abd,65c109556c65fd9357ae3391,,,,,,,,,,,,,,,,,,,,,,,,,,,,,890.3142,893.3212,,893.3212,898.9808,"[[49.2,1000],[43.4,1101],[40.2,1200],[37.5,1300],[36.1,1400],[34.8,1501],[34.5,1600],[34.8,1700],[34.8,1800],[34.8,1900],[34.8,2000],[34.6,2100],[30.9,2201],[30,2301],[29.8,2399],[29.7,2500],[29.7,2599],[29.7,2701],[29.7,2800],[29.7,2899],[29.7,3000],[29.7,3099],[29.7,3200],[29.7,3300],[29.7,3399],[29.7,3500],[29.7,3600],[29.7,3700],[29.7,3800],[29.7,3899],[29.7,4000],[29.7,4100],[29.7,4199],[29.7,4306],[29.7,4400],[29.7,4500],[29.7,4599],[29.7,4700],[29.7,4800],[29.7,4899],[29.7,4999],[29.7,5099],[29.7,5200],[29.7,5300],[29.7,5399],[29.7,5500],[29.7,5599]]",1,0,898.9811,Not at all,0,898.9951,,,[],,898.9951,900.6472,32.69159226,1.0558,"[{""rating"":32.69159226190476,""responseTime"":1.0558000000000902}]",space,1.1337,,0,15,15,15,1,audio/Narrative8Situation6.wav,audio/Narrative7Situation6.wav,audio/Narrative6Situation6.wav,audio/Narrative5Situation6.wav,2,3,2,3,,,,,,,,,,,,,,,,,,,,,,,,,,,,,,,,,,,,,,
,,,,,,61202b6be797314915cb1bd7,2024-02-05_10h15.17.224,group3.1-3.2-social-tom,2023.2.2,MacIntel,133.3333333,65b1b24e3a500fd6b5dc9abd,65c109556c65fd9357ae3391,,,,,,,,,,,,,,,,,,,,,,,,,,,,,900.6479,904.6553,,904.6553,925.6709,"[[34.3,1207],[34.3,1308],[34.3,1407],[34.4,1507],[34.5,1607],[34.5,1708],[34.5,1806],[34.5,1907],[34.5,2007],[34.5,2107],[34.5,2207],[34.5,2308],[34.5,2407],[34.5,2508],[34.5,2607],[34.5,2707],[34.5,2807],[34.5,2908],[34.4,3010],[28.2,3107],[25.4,3207],[23.8,3307],[23.8,3407],[26.1,3507],[27.9,3607],[28.1,3707],[28.1,3807],[28.1,3906],[28.1,4008],[28.1,4106],[28.1,4207],[28.1,4309],[28.1,4407],[28.1,4508],[28.1,4607],[28.1,4707],[28.1,4807],[28.1,4908],[28.1,5007],[28.1,5108],[28.1,5206],[28.1,5310],[28.1,5407],[28.1,5507],[28.1,5606],[28.1,5707],[28.1,5808],[28.1,5907],[28.1,6009],[28.1,6107],[28.1,6207],[28.1,6307],[28.1,6406],[28.1,6507],[28.1,6607],[28.1,6707],[28.1,6807],[28.1,6909],[28.1,7007],[28.1,7107],[28.1,7207],[28.1,7308],[28.1,7408],[28.1,7507],[28.1,7607],[28.1,7708],[28.1,7808],[28.1,7907],[28.1,8007],[28.1,8107],[28.1,8207],[28.1,8308],[28.1,8408],[28.1,8507],[28.1,8607],[28.1,8707],[28.1,8807],[28.1,8908],[28.1,9007],[28.1,9106],[28.1,9207],[28.1,9311],[28.1,9408],[28.1,9507],[28.1,9606],[28.1,9708],[28.1,9807],[28.1,9907],[28.1,10008],[28.1,10107],[28.1,10207],[28.1,10307],[28.1,10406],[28.1,10507],[28.1,10607],[28.1,10707],[28.1,10807],[28.1,10908],[28.1,11007],[28.1,11107],[28.1,11207],[28.1,11307],[28.1,11407],[28.1,11507],[28.1,11608],[28.1,11707],[28.1,11808],[28.1,11907],[28.1,12007],[28.1,12107],[28.1,12207],[28.1,12308],[28.1,12408],[28.1,12507],[28.1,12607],[28.1,12707],[28.1,12807],[28.1,12907],[28.1,13007],[28.1,13107],[28.1,13208],[28.1,13308],[28.1,13407],[28.1,13507],[28.1,13608],[28.1,13708],[28.1,13807],[28.1,13907],[28.1,14008],[28.1,14107],[28.1,14207],[28.1,14307],[28.1,14408],[28.1,14507],[28.1,14607],[28.1,14708],[28.1,14808],[28.1,14917],[28.1,15015],[28.1,15116],[28.1,15217],[28.1,15318],[28.1,15415],[28.1,15515],[28.1,15615],[28.1,15716],[28.1,15815],[28.1,15915],[28.1,16016],[28.1,16115],[28.1,16216],[28.1,16319],[28.1,16416],[28.1,16516],[28.1,16616],[28.1,16715],[28.1,16815],[28.1,16917],[28.1,17016],[28.1,17117],[28.1,17215],[28.1,17319],[28.1,17416],[28.1,17516],[28.1,17615],[28.1,17715],[28.1,17815],[28.1,17916],[28.1,18016],[28.1,18117],[28.1,18216],[28.1,18320],[28.1,18415],[28.1,18516],[28.1,18615],[28.1,18716],[28.1,18816],[28.1,18916],[28.1,19016],[28.1,19116],[28.1,19215],[28.1,19315],[28.1,19415],[28.1,19515],[28.1,19615],[28.1,19716],[28.1,19815],[28.1,19916],[28.1,20015],[28.1,20116],[28.1,20215],[28.1,20315],[28.1,20415],[28.1,20516],[28.1,20616],[28.4,20723],[28.7,20824],[28.8,20925]]",1,0,925.6711,All the time,100,925.6728,,,[],,925.6728,927.0037,29.37231316,0.6024,"[{""rating"":29.37231316137566,""responseTime"":0.6023999999999887}]",space,0.8121,,0,16,16,16,1,audio/Narrative8Situation7.wav,audio/Narrative7Situation7.wav,audio/Narrative6Situation7.wav,audio/Narrative5Situation7.wav,3,5,5,4,,,,,,,,,,,,,,,,,,,,,,,,,,,,,,,,,,,,,,
,,,,,,61202b6be797314915cb1bd7,2024-02-05_10h15.17.224,group3.1-3.2-social-tom,2023.2.2,MacIntel,133.3333333,65b1b24e3a500fd6b5dc9abd,65c109556c65fd9357ae3391,,,,,,,,,,,,,,,,,,,,,,,,,,,,,927.0042,930.0047,,930.0047,938.8045,"[[28.8,1210],[28.2,1307],[28,1408],[27.8,1507],[27.7,1608],[27.7,1709],[27.7,1807],[27.7,1908],[27.7,2008],[27.7,2108],[27.7,2209],[27.7,2309],[27.7,2408],[27.7,2508],[27.7,2610],[27.7,2707],[27.7,2808],[27.7,2908],[27.7,3008],[27.7,3108],[27.7,3208],[27.7,3309],[27.7,3408],[27.7,3507],[27.7,3608],[27.7,3708],[27.7,3808],[27.7,3908],[27.7,4008],[27.7,4109],[27.7,4208],[27.7,4308],[27.7,4408],[27.7,4508],[27.7,4608],[27.7,4707],[27.7,4808],[27.7,4907],[27.7,5010],[27.7,5108],[27.7,5207],[27.7,5307],[27.7,5407],[27.7,5507],[27.7,5607],[27.7,5708],[27.7,5807],[27.7,5908],[27.7,6007],[27.7,6108],[27.7,6208],[27.7,6307],[27.7,6408],[28.1,6507],[28.1,6607],[28.1,6708],[31.3,6809],[35.6,6907],[38.8,7009],[40.4,7108],[40.4,7208],[40.4,7307],[47.1,7410],[60.9,7509],[67.7,7610],[71.8,7708],[75,7808],[76.2,7908],[76.5,8009],[76.5,8108],[76.5,8207],[76.5,8308],[76.5,8408],[76.5,8508],[76.5,8608],[76.5,8708]]",1,0,938.8047,All the time,100,938.8078,,,[],,938.8079,939.8477,72.40771743,0.6699,"[{""rating"":72.40771742724867,""responseTime"":0.6699000000002115}]",space,0.5199,,0,17,17,17,1,audio/Narrative8Situation8.wav,audio/Narrative7Situation8.wav,audio/Narrative6Situation8.wav,audio/Narrative5Situation8.wav,3,2,5,3,,,,,,,,,,,,,,,,,,,,,,,,,,,,,,,,,,,,,,
,,,,,,61202b6be797314915cb1bd7,2024-02-05_10h15.17.224,group3.1-3.2-social-tom,2023.2.2,MacIntel,133.3333333,65b1b24e3a500fd6b5dc9abd,65c109556c65fd9357ae3391,,,,,,,,,,,,,,,,,,,,,,,,,,,,,939.8487,942.8547,,942.8548,982.3834,"[[51.8,1001],[50.9,1099],[49.6,1200],[49.5,1300],[49.5,1398],[49.5,1499],[49.5,1599],[49.5,1711],[49.5,1807],[49.5,1907],[49.5,2008],[49.5,2107],[49.5,2207],[49.5,2307],[49.5,2407],[49.5,2508],[49.5,2607],[49.5,2708],[52.1,2808],[62.2,2907],[69.9,3008],[74.1,3108],[74.6,3208],[75.1,3308],[75.1,3408],[75.1,3508],[75.1,3608],[75.1,3710],[75.1,3807],[75.1,3908],[75.1,4007],[75,4107],[75,4207],[75,4308],[75,4407],[75,4507],[75,4608],[75,4708],[75,4808],[75,4907],[75,5008],[75,5108],[75,5207],[75,5307],[75,5409],[75,5508],[75,5607],[75,5709],[75,5807],[75,5908],[75,6008],[75,6107],[75,6208],[76,6308],[81.5,6409],[83.3,6508],[83.3,6608],[83.3,6707],[83.3,6807],[83.3,6908],[83.3,7007],[83.3,7108],[83.3,7208],[83.3,7308],[83.3,7407],[83.3,7508],[83.3,7608],[83.3,7707],[83.3,7807],[83.3,7908],[83.3,8008],[83.3,8108],[83.3,8207],[83.3,8308],[83.3,8408],[83.3,8507],[83.3,8607],[83.3,8708],[83.3,8807],[83.3,8908],[83.3,9007],[83.3,9108],[83.3,9208],[83.3,9307],[83.3,9407],[83.3,9507],[83.3,9608],[83.3,9707],[83.3,9808],[83.3,9908],[83.3,10008],[83.3,10108],[83.3,10207],[83.3,10307],[83.3,10408],[83.3,10508],[83.3,10607],[83.3,10707],[83.3,10809],[83.3,10908],[83.3,11007],[83.3,11107],[83.3,11207],[83.3,11307],[83.3,11407],[83.3,11508],[83.3,11608],[83.3,11707],[83.3,11808],[83.3,11908],[83.3,12008],[83.3,12108],[83.3,12208],[83.3,12308],[83.3,12408],[83.3,12508],[83.3,12607],[83.3,12708],[83.3,12808],[83.3,12908],[83.3,13008],[83.3,13108],[83.3,13207],[83.3,13307],[83.3,13407],[83.3,13508],[83.3,13608],[83.3,13707],[83.3,13808],[83.3,13908],[83.3,14007],[83.3,14107],[83.3,14207],[83.3,14307],[83.3,14408],[83.3,14508],[83.3,14608],[83.3,14708],[83.3,14808],[83.3,14908],[83.3,15007],[83.3,15107],[83.3,15207],[83.3,15308],[83.3,15408],[83.3,15507],[83.3,15607],[83.3,15708],[83.3,15808],[83.3,15908],[83.3,16007],[83.3,16108],[83.3,16208],[83.3,16308],[83.3,16408],[83.3,16508],[83.3,16608],[83.3,16708],[83.3,16808],[83.3,16907],[83.3,17008],[83.3,17108],[83.3,17208],[83.3,17307],[83.3,17408],[83.3,17507],[83.3,17607],[83.3,17707],[83.3,17808],[83.3,17907],[83.3,18008],[83.3,18108],[83.3,18207],[83.3,18307],[83.3,18407],[83.3,18507],[83.3,18607],[83.3,18708],[83.3,18808],[83.3,18908],[83.3,19008],[83.3,19108],[83.3,19208],[83.3,19308],[83.3,19408],[83.3,19508],[83.3,19608],[83.3,19707],[83.3,19807],[83.3,19909],[83.3,20008],[83.3,20107],[83.3,20208],[83.3,20308],[83.3,20407],[83.3,20508],[83.3,20607],[83.3,20708],[83.3,20808],[83.3,20908],[83.3,21007],[83.3,21107],[83.3,21207],[83.3,21308],[83.3,21407],[83.3,21508],[83.3,21607],[83.3,21707],[83.3,21808],[83.3,21908],[83.3,22008],[83.3,22107],[83.3,22207],[83.3,22308],[83.3,22407],[83.3,22507],[83.3,22608],[83.3,22707],[83.3,22807],[83.3,22907],[83.3,23008],[83.3,23108],[83.3,23207],[83.3,23307],[83.3,23408],[83.3,23508],[83.3,23607],[83.3,23708],[83.3,23807],[83.3,23908],[83.3,24007],[83.3,24108],[83.3,24207],[83.3,24307],[83.3,24407],[83.3,24507],[83.3,24607],[83.3,24708],[83.3,24808],[83.3,24908],[83.3,25007],[83.3,25107],[83.3,25207],[83.3,25307],[83.3,25407],[83.3,25508],[83.3,25607],[83.3,25708],[83.3,25808],[83.3,25908],[83.3,26007],[83.3,26108],[83.3,26208],[83.3,26307],[83.3,26407],[83.3,26507],[83.3,26607],[83.3,26709],[83.3,26815],[83.3,26916],[83.3,27015],[83.3,27116],[83.3,27216],[83.3,27329],[83.3,27428],[83.3,27529],[83.3,27629],[83.3,27728],[83.3,27829],[83.3,27928],[83.3,28029],[83.3,28129],[83.3,28228],[83.3,28328],[83.3,28429],[83.3,28529],[83.3,28629],[83.3,28729],[83.3,28829],[83.3,28928],[83.3,29027],[83.3,29128],[83.3,29228],[83.3,29329],[83.3,29428],[83.3,29528],[83.3,29629],[83.3,29728],[83.3,29828],[83.3,29929],[83.3,30029],[83.3,30129],[83.3,30228],[83.3,30328],[83.3,30429],[83.3,30528],[83.3,30628],[83.3,30731],[83.3,30829],[83.3,30928],[83.3,31028],[83.3,31128],[83.3,31228],[83.3,31328],[83.3,31428],[83.3,31528],[83.3,31628],[83.3,31728],[83.3,31828],[83.3,31929],[83.3,32028],[83.3,32128],[83.3,32228],[83.3,32328],[83.3,32429],[83.3,32528],[83.3,32629],[83.3,32729],[83.3,32828],[83.3,32928],[83.3,33029],[83.3,33128],[83.3,33228],[83.3,33328],[83.3,33429],[83.3,33528],[83.3,33628],[83.3,33729],[83.3,33828],[83.3,33928],[83.3,34029],[83.3,34128],[83.3,34228],[83.3,34328],[83.3,34428],[83.3,34528],[83.3,34629],[83.3,34729],[83.3,34828],[83.3,34928],[83.3,35028],[83.3,35128],[83.3,35230],[83.3,35329],[83.3,35429],[83.3,35528],[83.3,35628],[83.3,35729],[83.3,35828],[83.3,35929],[83.3,36029],[83.3,36128],[83.3,36229],[83.3,36329],[83.3,36429],[83.3,36529],[83.3,36637],[83.3,36737],[83.3,36836],[83.3,36936],[83.3,37037],[83.3,37136],[83.3,37237],[83.3,37336],[83.3,37437],[83.3,37537],[83.3,37636],[83.3,37737],[83.3,37837],[83.3,37936],[83.3,38037],[83.3,38137],[83.3,38236],[83.3,38337],[83.3,38437],[83.3,38536],[83.3,38637],[83.3,38737],[83.3,38837],[83.3,38937],[83.3,39037],[83.3,39136],[83.3,39236],[83.3,39337],[83.3,39437]]",1,0,982.3838,Not at all,0,982.3964,,,[],,982.3965,983.8339,83.32403274,0.7113,"[{""rating"":83.32403273809523,""responseTime"":0.7113000000000511}]",space,0.9181,,0,18,18,18,1,audio/Narrative8Situation9.wav,audio/Narrative7Situation9.wav,audio/Narrative6Situation9.wav,audio/Narrative5Situation9.wav,3,2,4,3,,,,,,,,,,,,,,,,,,,,,,,,,,,,,,,,,,,,,,
,,,,,,61202b6be797314915cb1bd7,2024-02-05_10h15.17.224,group3.1-3.2-social-tom,2023.2.2,MacIntel,133.3333333,65b1b24e3a500fd6b5dc9abd,65c109556c65fd9357ae3391,,,,,,,,,,,,,,,,,,,,,,,,,,,,,,,,,,,,,,,,,,,,,,,,,,,,,,,,,,,,,,,,,,,,,,983.8343,1008.8756,space,24.5235,,1008.8762,1019.5346,space,10.3455,,,,,,,,,,,,,,,,,,,,,,,,,
