exp_question,consent.started,consent.stopped,consentResponse.keys,consentResponse.rt,consentResponse.duration,participantID,date,expName,psychopyVersion,OS,frameRate,STUDY_ID,SESSION_ID,opening1.started,opening1.stopped,keyEndingOpening1.keys,keyEndingOpening1.rt,keyEndingOpening1.duration,volumeAdjust.started,volumeAdjust.stopped,endingAdjust.keys,endingAdjust.rt,endingAdjust.duration,opening2.started,opening2.stopped,keyEndingOpening.keys,keyEndingOpening.rt,keyEndingOpening.duration,mouse.x,mouse.y,mouse.leftButton,mouse.midButton,mouse.rightButton,mouse.time,instructionLoop.thisRepN,instructionLoop.thisTrialN,instructionLoop.thisN,instructionLoop.thisIndex,instructionLoop.ran,readyForAudio.started,readyForAudio.stopped,fixation.started,run,audio_played,fixation.stopped,endPractice.keys,audioPre.started,audioPre.stopped,continuousResponses_audio,continuousSlider.response,continuousSlider.rt,intRating.started,intRating.stopped,intQuestionSlider.response,intQuestionSlider.rt,intQuestionSlider.history,confirmResponse.keys,confirmResponse.rt,confirmResponse.duration,catchQuestion.started,catch_label,catch_value,catchQuestion.stopped,catchQuestionSlider.response,catchQuestionSlider.rt,catchQuestionSlider.history,confirmResponse_2.keys,audioRunLoop.thisRepN,audioRunLoop.thisTrialN,audioRunLoop.thisN,audioRunLoop.thisIndex,audioRunLoop.ran,conditions1_1,conditions2_1,conditions1_2,conditions2_2,dur1_1,dur2_1,dur1_2,dur2_2,endPractice.rt,endPractice.duration,confirmResponse_2.rt,confirmResponse_2.duration,runIntervalBreak.started,runIntervalBreak.stopped,endingBreakKey.keys,endingBreakKey.rt,endingBreakKey.duration,connection.started,connection.stopped,connectionEnding.keys,connectionEnding.rt,connectionEnding.duration,readyForText.started,readyForText.stopped,textPre.started,run_dup,textPre.stopped,continuousResponses_text,textRunLoop.thisRepN,textRunLoop.thisTrialN,textRunLoop.thisN,textRunLoop.thisIndex,textRunLoop.ran,text1_1,text1_2,text2_1,text2_2,runBreakText.started,runBreakText.stopped,endingBreakKey_2.keys,endingBreakKey_2.rt,endingBreakKey_2.duration,ending.started,ending.stopped,endingEnding.keys,endingEnding.rt,endingEnding.duration
tom,0.0008,10.6706,y,10.2726,,62c84ca82b03c9aedbca4a2a,2024-05-13_11h49.07.728,group3.1-3.2-social-tom,2023.2.2,MacIntel,59.88023952,65c5074098b851296ff0b7ed,6642359d241076e68d03d65c,,,,,,,,,,,,,,,,,,,,,,,,,,,,,,,,,,,,,,,,,,,,,,,,,,,,,,,,,,,,,,,,,,,,,,,,,,,,,,,,,,,,,,,,,,,,,,,,,,,,,,,,,,
,,,,,,62c84ca82b03c9aedbca4a2a,2024-05-13_11h49.07.728,group3.1-3.2-social-tom,2023.2.2,MacIntel,59.88023952,65c5074098b851296ff0b7ed,6642359d241076e68d03d65c,10.671,21.8615,space,11.1391,,,,,,,,,,,,,,,,,,,,,,,,,,,,,,,,,,,,,,,,,,,,,,,,,,,,,,,,,,,,,,,,,,,,,,,,,,,,,,,,,,,,,,,,,,,,,,,,,,,,,,
,,,,,,62c84ca82b03c9aedbca4a2a,2024-05-13_11h49.07.728,group3.1-3.2-social-tom,2023.2.2,MacIntel,59.88023952,65c5074098b851296ff0b7ed,6642359d241076e68d03d65c,,,,,,21.8617,39.6242,space,17.4386,,,,,,,,,,,,,,,,,,,,,,,,,,,,,,,,,,,,,,,,,,,,,,,,,,,,,,,,,,,,,,,,,,,,,,,,,,,,,,,,,,,,,,,,,,,,,,,,,
,,,,,,62c84ca82b03c9aedbca4a2a,2024-05-13_11h49.07.728,group3.1-3.2-social-tom,2023.2.2,MacIntel,59.88023952,65c5074098b851296ff0b7ed,6642359d241076e68d03d65c,,,,,,,,,,,39.6547,51.702,space,12.0091,,[],[],[],[],[],[],0,0,0,0,1,,,,,,,,,,,,,,,,,,,,,,,,,,,,,,,,,,,,,,,,,,,,,,,,,,,,,,,,,,,,,,,,,,,,,,,,,,,,,,,,
,,,,,,62c84ca82b03c9aedbca4a2a,2024-05-13_11h49.07.728,group3.1-3.2-social-tom,2023.2.2,MacIntel,59.88023952,65c5074098b851296ff0b7ed,6642359d241076e68d03d65c,,,,,,,,,,,51.7235,88.9754,space,37.0388,,[],[],[],[],[],[],1,0,1,0,1,,,,,,,,,,,,,,,,,,,,,,,,,,,,,,,,,,,,,,,,,,,,,,,,,,,,,,,,,,,,,,,,,,,,,,,,,,,,,,,,
,,,,,,62c84ca82b03c9aedbca4a2a,2024-05-13_11h49.07.728,group3.1-3.2-social-tom,2023.2.2,MacIntel,59.88023952,65c5074098b851296ff0b7ed,6642359d241076e68d03d65c,,,,,,,,,,,88.9987,105.8119,space,16.7396,,[],[],[],[],[],[],2,0,2,0,1,,,,,,,,,,,,,,,,,,,,,,,,,,,,,,,,,,,,,,,,,,,,,,,,,,,,,,,,,,,,,,,,,,,,,,,,,,,,,,,,
,,,,,,62c84ca82b03c9aedbca4a2a,2024-05-13_11h49.07.728,group3.1-3.2-social-tom,2023.2.2,MacIntel,59.88023952,65c5074098b851296ff0b7ed,6642359d241076e68d03d65c,,,,,,,,,,,105.8319,132.9909,space,27.121,,[],[],[],[],[],[],3,0,3,0,1,,,,,,,,,,,,,,,,,,,,,,,,,,,,,,,,,,,,,,,,,,,,,,,,,,,,,,,,,,,,,,,,,,,,,,,,,,,,,,,,
,,,,,,62c84ca82b03c9aedbca4a2a,2024-05-13_11h49.07.728,group3.1-3.2-social-tom,2023.2.2,MacIntel,59.88023952,65c5074098b851296ff0b7ed,6642359d241076e68d03d65c,,,,,,,,,,,133.0112,142.5607,space,9.5197,,[],[],[],[],[],[],4,0,4,0,1,,,,,,,,,,,,,,,,,,,,,,,,,,,,,,,,,,,,,,,,,,,,,,,,,,,,,,,,,,,,,,,,,,,,,,,,,,,,,,,,
,,,,,,62c84ca82b03c9aedbca4a2a,2024-05-13_11h49.07.728,group3.1-3.2-social-tom,2023.2.2,MacIntel,59.88023952,65c5074098b851296ff0b7ed,6642359d241076e68d03d65c,,,,,,,,,,,,,,,,,,,,,,,,,,,142.5842,145.1585,145.2201,1,audio/Narrative13Situation2.wav,147.2291,,147.2294,176.9946,"[[999,2],[999,199],[999,288],[999,383],[999,474],[999,566],[999,663],[999,750],[999,832],[999,915],[999,998],[999,1083],[999,1172],[999,1262],[999,1347],[999,1432],[999,1517],[999,1601],[999,1690],[999,1782],[999,1866],[999,1948],[999,2032],[999,2116],[999,2201],[999,2283],[999,2370],[999,2465],[999,2549],[999,2633],[999,2717],[999,2805],[999,2888],[999,2973],[999,3056],[999,3140],[999,3224],[999,3308],[999,3394],[999,3480],[999,3567],[999,3648],[999,3733],[999,3818],[999,3901],[999,3984],[999,4069],[999,4152],[999,4234],[999,4317],[999,4400],[999,4484],[999,4568],[999,4650],[999,4750],[999,4849],[999,4936],[999,5028],[999,5121],[999,5216],[999,5304],[999,5401],[999,5487],[999,5577],[999,5672],[999,5765],[999,5858],[999,5952],[999,6041],[999,6137],[999,6224],[999,6325],[999,6422],[999,6509],[999,6603],[999,6683],[999,6770],[999,6854],[999,6945],[999,7033],[999,7120],[999,7200],[999,7285],[999,7369],[999,7451],[999,7536],[999,7619],[999,7710],[999,7801],[999,7887],[999,7973],[999,8062],[999,8148],[999,8237],[999,8333],[50.9,8459],[50.9,8555],[50.9,8647],[50.8,8743],[50.5,8842],[50.3,8936],[50.2,9027],[50.2,9122],[50.2,9218],[50.2,9303],[50.2,9388],[50.2,9474],[50.2,9567],[50.2,9653],[50.2,9743],[50.2,9831],[50.2,9921],[50.2,10016],[50.2,10103],[50.2,10188],[50.2,10276],[50.2,10369],[50.2,10452],[50.2,10534],[50.2,10620],[50.2,10711],[50.2,10805],[50.2,10894],[50.2,10986],[50.2,11071],[50.2,11155],[51.1,11254],[56.6,11350],[63.9,11452],[70,11552],[74.3,11649],[79.3,11745],[80.9,11844],[80.9,11937],[80.9,12021],[80.9,12111],[87,12204],[94.7,12295],[97.9,12390],[100,12480],[100,12572],[100,12664],[100,12761],[100,12859],[100,12951],[100,13046],[100,13140],[100,13236],[100,13322],[100,13413],[100,13505],[100,13587],[100,13680],[100,13775],[100,13863],[100,13956],[100,14040],[100,14124],[100,14205],[100,14296],[100,14388],[100,14473],[100,14565],[100,14658],[100,14752],[100,14838],[100,14922],[100,15013],[100,15105],[100,15189],[100,15275],[100,15369],[100,15455],[100,15542],[100,15638],[100,15730],[100,15822],[100,15908],[100,15997],[100,16091],[100,16183],[100,16273],[100,16362],[100,16455],[100,16542],[100,16631],[100,16724],[100,16808],[100,16901],[100,16993],[100,17088],[100,17183],[100,17275],[100,17369],[100,17457],[100,17544],[100,17641],[100,17729],[100,17821],[100,17908],[100,17992],[100,18080],[100,18173],[100,18258],[100,18353],[100,18444],[100,18539],[100,18628],[100,18721],[100,18810],[100,18905],[100,18992],[100,19078],[100,19162],[100,19255],[100,19342],[100,19432],[100,19521],[100,19609],[100,19695],[100,19790],[100,19876],[100,19971],[100,20057],[100,20141],[100,20237],[100,20325],[100,20408],[100,20504],[100,20592],[100,20675],[100,20758],[100,20843],[100,20938],[100,21026],[100,21110],[100,21205],[100,21294],[100,21387],[100,21473],[100,21560],[100,21643],[100,21732],[100,21827],[100,21922],[100,22009],[100,22105],[100,22193],[100,22277],[100,22370],[100,22460],[100,22545],[100,22640],[100,22728],[100,22817],[100,22909],[100,23000],[100,23092],[100,23177],[100,23273],[100,23360],[100,23448],[100,23541],[100,23634],[100,23726],[100,23809],[100,23894],[100,23976],[100,24061],[100,24141],[100,24226],[100,24309],[100,24395],[100,24492],[100,24575],[100,24661],[100,24746],[100,24842],[100,24927],[100,25010],[100,25095],[100,25179],[100,25261],[100,25342],[100,25430],[100,25512],[100,25597],[100,25679],[100,25775],[100,25858],[100,25949],[100,26039],[100,26126],[100,26211],[100,26306],[100,26395],[100,26479],[100,26569],[100,26663],[100,26757],[100,26845],[100,26929],[100,27025],[100,27111],[100,27198],[100,27286],[100,27378],[100,27464],[100,27558],[100,27649],[100,27743],[100,27829],[100,27913],[100,28006],[100,28095],[100,28179],[100,28262],[100,28347],[100,28442],[100,28534],[100,28626],[100,28712],[100,28796],[100,28894],[100,28978],[100,29069],[100,29164],[100,29247],[100,29338],[100,29429],[100,29512],[100,29597],[100,29696]]",1,0,176.9951,186.3889,99.23480988,6.239,"[{""rating"":99.23480987548828,""responseTime"":6.239000000000004}]",space,8.8458,,186.3898,Half the time,50,186.4002,,,[],,0,0,0,0,1,audio/Narrative13Situation2.wav,audio/Narrative13Situation2.wav,audio/Narrative13Situation2.wav,audio/Narrative13Situation2.wav,2,2,2,2,,,,,,,,,,,,,,,,,,,,,,,,,,,,,,,,,,,,,,,
,,,,,,62c84ca82b03c9aedbca4a2a,2024-05-13_11h49.07.728,group3.1-3.2-social-tom,2023.2.2,MacIntel,59.88023952,65c5074098b851296ff0b7ed,6642359d241076e68d03d65c,,,,,,,,,,,,,,,,,,,,,,,,,,,,,186.401,1,audio/Narrative7Situation1.wav,189.3661,space,189.3663,245.2592,"[[99.7,1656],[100,1941],[100,2037],[100,2131],[100,2225],[100,2307],[100,2389],[100,2475],[100,2556],[100,2641],[100,2722],[100,2803],[100,2888],[100,2971],[100,3054],[100,3138],[100,3236],[100,3318],[100,3401],[100,3483],[100,3567],[100,3648],[100,3735],[100,3816],[100,3900],[100,3984],[100,4068],[100,4160],[100,4240],[100,4323],[100,4417],[100,4500],[100,4584],[100,4668],[100,4750],[100,4838],[100,4932],[100,5015],[100,5101],[100,5185],[100,5268],[100,5351],[100,5435],[100,5518],[100,5604],[100,5686],[100,5771],[100,5853],[100,5937],[100,6021],[100,6104],[100,6199],[100,6291],[100,6376],[100,6469],[100,6557],[100,6640],[100,6725],[100,6808],[100,6892],[100,6980],[100,7060],[100,7148],[100,7235],[100,7322],[100,7404],[100,7496],[100,7583],[100,7670],[100,7759],[100,7850],[100,7936],[100,8018],[100,8102],[100,8189],[100,8280],[100,8370],[100,8459],[100,8543],[100,8629],[100,8717],[100,8802],[100,8885],[100,8971],[100,9063],[100,9142],[100,9234],[100,9316],[100,9402],[100,9487],[100,9570],[100,9654],[100,9750],[100,9837],[100,9927],[100,10020],[100,10108],[100,10202],[100,10288],[100,10371],[100,10454],[100,10538],[100,10631],[100,10720],[100,10807],[100,10900],[100,10993],[100,11087],[100,11171],[100,11254],[100,11337],[100,11420],[100,11508],[100,11600],[100,11687],[100,11770],[100,11855],[100,11945],[100,12038],[100,12120],[100,12205],[100,12288],[100,12374],[100,12470],[100,12556],[100,12652],[100,12736],[100,12821],[100,12904],[100,12995],[100,13085],[100,13171],[100,13256],[100,13338],[100,13423],[100,13513],[100,13604],[100,13688],[100,13772],[100,13855],[100,13939],[100,14021],[100,14105],[100,14189],[100,14272],[100,14355],[100,14436],[100,14522],[100,14604],[100,14688],[100,14772],[100,14855],[100,14940],[100,15022],[100,15106],[100,15189],[100,15272],[100,15355],[100,15439],[100,15523],[100,15617],[100,15706],[100,15789],[100,15873],[100,15956],[100,16039],[100,16123],[100,16213],[100,16305],[100,16386],[100,16473],[100,16556],[100,16639],[100,16730],[100,16821],[100,16906],[100,16989],[100,17074],[100,17164],[100,17256],[100,17342],[100,17422],[100,17507],[100,17590],[100,17673],[100,17757],[100,17838],[100,17924],[100,18008],[100,18087],[100,18174],[100,18256],[100,18342],[100,18424],[100,18508],[100,18591],[100,18673],[100,18771],[100,18857],[100,18941],[100,19032],[100,19123],[100,19207],[100,19292],[100,19374],[100,19457],[100,19542],[100,19624],[100,19708],[100,19792],[100,19874],[100,19959],[100,20051],[100,20141],[100,20225],[100,20316],[100,20407],[100,20491],[100,20574],[100,20658],[100,20743],[100,20833],[100,20926],[100,21015],[100,21107],[100,21192],[100,21275],[100,21358],[100,21441],[100,21525],[100,21609],[100,21702],[100,21792],[100,21876],[100,21957],[100,22040],[100,22126],[100,22215],[100,22307],[100,22392],[100,22475],[100,22559],[100,22643],[100,22736],[100,22827],[100,22909],[100,22997],[100,23090],[100,23176],[100,23259],[100,23340],[100,23427],[100,23509],[100,23595],[100,23686],[100,23775],[100,23860],[100,23941],[100,24026],[100,24110],[100,24192],[100,24276],[100,24357],[100,24443],[100,24529],[100,24624],[100,24710],[100,24795],[100,24877],[100,24959],[100,25051],[100,25140],[100,25226],[100,25308],[100,25393],[100,25476],[100,25561],[100,25644],[100,25728],[100,25820],[100,25910],[100,25994],[100,26077],[100,26162],[100,26247],[100,26341],[100,26428],[100,26524],[100,26611],[100,26694],[100,26780],[100,26873],[100,26961],[100,27048],[100,27142],[100,27235],[100,27326],[100,27409],[100,27496],[100,27579],[100,27666],[100,27761],[100,27845],[100,27931],[100,28018],[100,28110],[100,28195],[100,28279],[100,28363],[100,28446],[100,28528],[100,28611],[100,28696],[100,28778],[100,28861],[100,28946],[100,29028],[100,29113],[100,29195],[100,29278],[100,29363],[100,29445],[100,29529],[100,29610],[100,29697],[100,29778],[100,29863],[100,29946],[100,30030],[100,30121],[100,30212],[100,30297],[100,30388],[100,30480],[100,30563],[100,30646],[100,30729],[100,30813],[100,30896],[100,30980],[100,31075],[100,31163],[100,31246],[100,31329],[100,31413],[100,31497],[100,31582],[100,31677],[100,31770],[100,31863],[100,31948],[100,32029],[100,32115],[100,32198],[100,32280],[100,32365],[100,32447],[100,32530],[100,32614],[100,32697],[100,32782],[100,32872],[100,32964],[100,33048],[100,33129],[100,33214],[100,33299],[100,33390],[100,33481],[100,33565],[100,33655],[100,33747],[100,33830],[100,33914],[100,33997],[100,34089],[100,34179],[100,34264],[100,34348],[100,34432],[100,34514],[100,34598],[100,34680],[100,34765],[100,34849],[100,34932],[100,35025],[100,35115],[100,35199],[100,35285],[100,35383],[100,35472],[100,35564],[100,35649],[100,35733],[100,35826],[100,35915],[100,35997],[100,36082],[100,36168],[100,36263],[100,36348],[100,36433],[100,36517],[100,36599],[100,36682],[100,36766],[100,36848],[100,36931],[100,37016],[100,37099],[100,37180],[100,37265],[100,37348],[100,37434],[100,37517],[100,37599],[100,37684],[100,37772],[100,37867],[100,37955],[100,38048],[100,38133],[100,38217],[100,38302],[100,38397],[100,38483],[100,38567],[100,38650],[100,38734],[100,38817],[100,38900],[100,38984],[100,39067],[100,39158],[100,39251],[100,39332],[100,39417],[100,39501],[100,39589],[100,39674],[100,39758],[100,39848],[100,39934],[100,40020],[100,40114],[100,40201],[100,40284],[100,40369],[100,40464],[100,40550],[100,40635],[100,40718],[100,40801],[100,40883],[100,40967],[100,41051],[100,41134],[100,41218],[100,41302],[100,41385],[100,41467],[100,41552],[100,41635],[100,41720],[100,41816],[100,41902],[100,41985],[100,42082],[100,42168],[100,42252],[100,42335],[100,42418],[100,42500],[100,42588],[100,42678],[100,42767],[100,42852],[100,42933],[100,43019],[100,43103],[100,43183],[100,43274],[100,43367],[100,43452],[100,43539],[100,43632],[100,43717],[100,43806],[100,43901],[100,43987],[100,44070],[100,44152],[100,44237],[100,44319],[100,44407],[100,44499],[100,44590],[100,44684],[100,44768],[100,44852],[100,44935],[100,45020],[100,45103],[100,45188],[100,45282],[100,45369],[100,45450],[100,45536],[100,45622],[100,45719],[100,45802],[100,45887],[100,45970],[100,46053],[100,46137],[100,46220],[100,46304],[100,46386],[100,46471],[100,46555],[100,46651],[100,46737],[100,46821],[100,46911],[100,47002],[100,47086],[100,47170],[100,47254],[100,47337],[100,47421],[100,47503],[100,47587],[100,47672],[100,47756],[100,47847],[100,47937],[100,48022],[100,48104],[100,48188],[100,48270],[100,48355],[100,48438],[100,48528],[100,48621],[100,48704],[100,48787],[100,48873],[100,48966],[100,49055],[100,49138],[100,49222],[100,49305],[100,49388],[100,49473],[100,49557],[100,49649],[100,49739],[100,49822],[100,49906],[100,49990],[100,50082],[100,50172],[100,50257],[100,50339],[100,50425],[100,50520],[100,50606],[100,50688],[100,50769],[100,50859],[100,50951],[100,51040],[100,51123],[100,51217],[100,51303],[100,51390],[100,51471],[100,51556],[100,51639],[100,51723],[100,51813],[100,51904],[100,51988],[100,52074],[100,52165],[100,52256],[100,52340],[100,52423],[100,52507],[100,52590],[100,52672],[100,52757],[100,52841],[100,52923],[100,53007],[100,53103],[100,53189],[100,53274],[100,53363],[100,53456],[100,53541],[100,53624],[100,53709],[100,53802],[100,53891],[100,53987],[100,54074],[100,54160],[100,54253],[100,54340],[100,54423],[100,54508],[100,54591],[100,54674],[100,54757],[100,54842],[100,54924],[100,55007],[100,55092],[100,55175],[100,55256],[100,55340],[100,55424],[100,55508],[100,55593],[100,55681],[100,55775],[100,55858]]",1,0,245.26,252.6198,99.86059189,4.6756,"[{""rating"":99.86059188842773,""responseTime"":4.675600000000543}]",space,6.8092,,252.6199,Half the time,50,252.6273,,,[],,0,1,1,1,1,audio/Narrative7Situation1.wav,audio/Narrative8Situation1.wav,audio/Narrative5Situation1.wav,audio/Narrative6Situation1.wav,2,5,5,2,2.9373,,,,,,,,,,,,,,,,,,,,,,,,,,,,,,,,,,,,,,
,,,,,,62c84ca82b03c9aedbca4a2a,2024-05-13_11h49.07.728,group3.1-3.2-social-tom,2023.2.2,MacIntel,59.88023952,65c5074098b851296ff0b7ed,6642359d241076e68d03d65c,,,,,,,,,,,,,,,,,,,,,,,,,,,,,252.6277,1,audio/Narrative7Situation2.wav,255.6289,,255.6291,263.1164,"[[99.8,1380],[99.7,1472],[99.9,1567],[99.5,1663],[99.5,1752],[99.5,1837],[99.5,1926],[99.6,2019],[99.9,2111],[100,2206],[100,2292],[100,2385],[100,2471],[100,2560],[100,2649],[100,2735],[100,2825],[100,2918],[100,3001],[100,3083],[100,3169],[100,3251],[100,3338],[100,3431],[100,3518],[100,3602],[100,3686],[100,3767],[100,3852],[100,3939],[100,4020],[100,4108],[100,4192],[100,4284],[100,4370],[100,4451],[100,4536],[100,4620],[100,4701],[100,4784],[100,4868],[100,4951],[100,5037],[100,5118],[100,5204],[100,5287],[100,5370],[100,5452],[100,5535],[100,5619],[100,5700],[100,5786],[100,5871],[100,5955],[100,6036],[100,6119],[100,6203],[100,6287],[100,6382],[100,6470],[100,6553],[100,6638],[100,6717],[100,6803],[100,6888],[100,6973],[100,7067],[100,7150],[100,7237],[100,7322],[100,7415]]",1,0,263.1166,266.9092,99.25362587,2.3416,"[{""rating"":99.25362586975098,""responseTime"":2.3416000000005397}]",space,3.2403,,266.9093,All the time,100,266.9211,,,[],,0,2,2,2,1,audio/Narrative7Situation2.wav,audio/Narrative8Situation2.wav,audio/Narrative5Situation2.wav,audio/Narrative6Situation2.wav,3,3,3,3,,,,,,,,,,,,,,,,,,,,,,,,,,,,,,,,,,,,,,,
,,,,,,62c84ca82b03c9aedbca4a2a,2024-05-13_11h49.07.728,group3.1-3.2-social-tom,2023.2.2,MacIntel,59.88023952,65c5074098b851296ff0b7ed,6642359d241076e68d03d65c,,,,,,,,,,,,,,,,,,,,,,,,,,,,,266.9218,1,audio/Narrative7Situation3.wav,274.9371,,274.9372,284.1777,"[[99.9,1313],[100,1403],[100,1488],[100,1582],[100,1665],[100,1753],[100,1845],[100,1936],[100,2018],[100,2108],[100,2199],[100,2288],[100,2384],[100,2467],[100,2551],[100,2635],[100,2719],[100,2802],[100,2888],[100,2970],[100,3053],[100,3138],[100,3223],[100,3305],[100,3388],[100,3482],[100,3570],[100,3654],[100,3735],[100,3820],[100,3905],[100,3998],[100,4086],[100,4170],[100,4254],[100,4336],[100,4420],[100,4504],[100,4587],[100,4671],[100,4754],[100,4837],[100,4920],[100,5004],[100,5088],[100,5170],[100,5253],[100,5337],[100,5421],[100,5505],[100,5588],[100,5670],[100,5755],[100,5838],[100,5920],[100,6004],[100,6087],[100,6172],[100,6257],[100,6337],[100,6422],[100,6505],[100,6588],[100,6671],[100,6754],[100,6839],[100,6923],[100,7004],[100,7090],[100,7185],[100,7271],[100,7355],[100,7439],[100,7521],[100,7604],[100,7689],[100,7772],[100,7855],[100,7944],[100,8038],[100,8122],[100,8206],[100,8289],[100,8374],[100,8468],[100,8555],[100,8639],[100,8722],[100,8807],[100,8891],[100,8980],[100,9072],[100,9157],[100,9240]]",1,0,284.1779,290.713,99.8118782,3.7705,"[{""rating"":99.8118782043457,""responseTime"":3.770500000000027}]",space,6.0001,,290.7132,Half the time,50,290.719,,,[],,0,3,3,3,1,audio/Narrative7Situation3.wav,audio/Narrative8Situation3.wav,audio/Narrative5Situation3.wav,audio/Narrative6Situation3.wav,8,4,3,5,,,,,,,,,,,,,,,,,,,,,,,,,,,,,,,,,,,,,,,
,,,,,,62c84ca82b03c9aedbca4a2a,2024-05-13_11h49.07.728,group3.1-3.2-social-tom,2023.2.2,MacIntel,59.88023952,65c5074098b851296ff0b7ed,6642359d241076e68d03d65c,,,,,,,,,,,,,,,,,,,,,,,,,,,,,290.7194,1,audio/Narrative7Situation4.wav,293.7291,,293.7292,305.4542,"[[99.7,1307],[99.5,1402],[99.5,1487],[99.5,1575],[99.5,1663],[99.6,1755],[100,1857],[100,1949],[100,2036],[100,2121],[100,2207],[100,2300],[100,2387],[100,2483],[100,2568],[100,2654],[100,2748],[100,2836],[100,2921],[100,3003],[100,3088],[100,3183],[100,3269],[100,3354],[100,3437],[100,3526],[100,3617],[100,3704],[100,3788],[100,3875],[100,3964],[100,4052],[100,4136],[100,4221],[100,4304],[100,4387],[100,4470],[100,4554],[100,4637],[100,4721],[100,4804],[100,4886],[100,4971],[100,5054],[100,5139],[100,5233],[100,5320],[100,5405],[100,5486],[100,5570],[100,5652],[100,5742],[100,5836],[100,5919],[100,6009],[100,6104],[100,6187],[100,6273],[100,6354],[100,6439],[100,6522],[100,6604],[100,6688],[100,6771],[100,6853],[100,6939],[100,7021],[100,7102],[100,7191],[100,7284],[100,7371],[100,7462],[100,7554],[100,7638],[100,7718],[100,7805],[100,7886],[100,7972],[100,8058],[100,8151],[100,8239],[100,8322],[100,8406],[100,8488],[100,8573],[100,8653],[100,8739],[100,8822],[100,8903],[100,8989],[100,9071],[100,9157],[100,9240],[100,9336],[100,9420],[100,9505],[100,9589],[100,9674],[100,9762],[100,9855],[100,9940],[100,10023],[100,10106],[100,10193],[100,10284],[100,10372],[100,10457],[100,10545],[100,10637],[100,10732],[100,10823],[100,10905],[100,10989],[100,11073],[100,11157],[100,11241],[100,11324],[100,11407],[100,11489],[100,11573],[100,11657]]",1,0,305.4544,309.278,99.93070602,2.4421,"[{""rating"":99.93070602416992,""responseTime"":2.4421000000005506}]",space,3.2766,,309.278,All the time,100,309.2877,,,[],,0,4,4,4,1,audio/Narrative7Situation4.wav,audio/Narrative8Situation4.wav,audio/Narrative5Situation4.wav,audio/Narrative6Situation4.wav,3,3,1,2,,,,,,,,,,,,,,,,,,,,,,,,,,,,,,,,,,,,,,,
,,,,,,62c84ca82b03c9aedbca4a2a,2024-05-13_11h49.07.728,group3.1-3.2-social-tom,2023.2.2,MacIntel,59.88023952,65c5074098b851296ff0b7ed,6642359d241076e68d03d65c,,,,,,,,,,,,,,,,,,,,,,,,,,,,,309.2881,1,audio/Narrative7Situation5.wav,314.3069,,314.3071,322.7945,"[[99.8,1670],[99.8,1761],[99.8,1857],[99.8,1949],[99.8,2041],[99.8,2131],[99.8,2219],[99.8,2303],[99.8,2388],[99.8,2482],[99.8,2567],[99.8,2651],[99.8,2733],[99.8,2817],[99.8,2901],[99.8,2985],[99.8,3068],[99.8,3153],[99.8,3235],[99.8,3323],[99.8,3418],[99.8,3502],[99.8,3586],[99.8,3670],[99.8,3751],[99.8,3836],[99.8,3924],[99.8,4016],[99.8,4102],[99.8,4185],[99.8,4269],[99.8,4356],[99.8,4449],[99.8,4533],[99.8,4619],[99.8,4703],[99.8,4786],[99.8,4869],[99.8,4953],[99.8,5035],[99.8,5123],[99.8,5217],[99.8,5301],[99.8,5387],[99.8,5467],[99.8,5552],[99.8,5635],[99.8,5717],[99.8,5804],[99.8,5887],[99.8,5980],[99.8,6069],[99.8,6154],[99.8,6237],[99.8,6320],[99.8,6404],[99.8,6485],[99.8,6569],[99.8,6655],[99.8,6736],[99.8,6821],[99.8,6905],[99.8,6997],[99.8,7086],[99.8,7171],[99.8,7254],[99.8,7340],[99.8,7435],[99.8,7520],[99.8,7603],[99.8,7687],[99.8,7770],[99.8,7854],[99.8,7934],[99.8,8020],[99.8,8104],[99.8,8188],[99.8,8271],[99.8,8356],[99.8,8452]]",1,0,322.7951,328.1918,99.80107307,1.2858,"[{""rating"":99.80107307434082,""responseTime"":1.2857999999998242}]",space,4.8466,,328.1921,All the time,100,328.2173,,,[],,0,5,5,5,1,audio/Narrative7Situation5.wav,audio/Narrative8Situation5.wav,audio/Narrative5Situation5.wav,audio/Narrative6Situation5.wav,5,2,5,2,,,,,,,,,,,,,,,,,,,,,,,,,,,,,,,,,,,,,,,
,,,,,,62c84ca82b03c9aedbca4a2a,2024-05-13_11h49.07.728,group3.1-3.2-social-tom,2023.2.2,MacIntel,59.88023952,65c5074098b851296ff0b7ed,6642359d241076e68d03d65c,,,,,,,,,,,,,,,,,,,,,,,,,,,,,328.2177,1,audio/Narrative7Situation6.wav,331.2334,,331.2335,341.2173,"[[99.7,714],[99.5,817],[99.5,904],[99.5,997],[99.6,1088],[99.6,1182],[99.6,1268],[99.6,1350],[99.6,1433],[99.6,1517],[99.6,1596],[99.6,1682],[99.6,1765],[99.6,1849],[99.6,1932],[99.6,2017],[99.6,2107],[99.6,2200],[99.6,2283],[99.6,2367],[99.6,2449],[99.6,2533],[99.6,2617],[99.6,2700],[99.6,2784],[99.6,2868],[99.6,2963],[99.6,3048],[99.6,3133],[99.6,3218],[99.6,3311],[99.6,3398],[99.6,3484],[99.6,3564],[99.6,3650],[99.6,3741],[99.6,3831],[99.6,3917],[99.6,3999],[99.6,4085],[99.6,4180],[99.6,4268],[99.6,4351],[99.6,4436],[99.6,4533],[99.6,4615],[99.6,4700],[99.6,4782],[99.6,4868],[99.6,4954],[99.6,5049],[99.6,5131],[99.6,5218],[99.6,5300],[99.6,5389],[99.6,5482],[99.6,5568],[99.6,5652],[99.6,5734],[99.6,5819],[99.6,5901],[99.6,5985],[99.6,6067],[99.6,6152],[99.6,6235],[99.6,6318],[99.6,6401],[99.6,6485],[99.6,6569],[99.6,6651],[99.6,6736],[99.6,6819],[99.6,6902],[99.6,6986],[99.6,7068],[99.6,7152],[99.6,7236],[99.6,7319],[99.6,7402],[99.6,7487],[99.6,7568],[99.6,7651],[99.6,7735],[99.6,7818],[99.6,7903],[99.6,7985],[99.6,8069],[99.6,8150],[99.6,8236],[99.6,8318],[99.6,8402],[99.6,8486],[99.6,8569],[99.6,8650],[99.6,8743],[99.6,8837],[99.6,8919],[99.6,9001],[99.6,9085],[99.6,9168],[99.6,9253],[99.6,9336],[99.6,9416],[99.6,9501],[99.6,9586],[99.6,9670],[99.6,9756],[99.6,9850],[99.6,9931]]",1,0,341.2179,345.7267,99.56089973,1.1458,"[{""rating"":99.56089973449707,""responseTime"":1.145799999999781}]",space,3.9532,,345.7268,Not at all,0,345.7385,,,[],,0,6,6,6,1,audio/Narrative7Situation6.wav,audio/Narrative8Situation6.wav,audio/Narrative5Situation6.wav,audio/Narrative6Situation6.wav,3,2,3,2,,,,,,,,,,,,,,,,,,,,,,,,,,,,,,,,,,,,,,,
,,,,,,62c84ca82b03c9aedbca4a2a,2024-05-13_11h49.07.728,group3.1-3.2-social-tom,2023.2.2,MacIntel,59.88023952,65c5074098b851296ff0b7ed,6642359d241076e68d03d65c,,,,,,,,,,,,,,,,,,,,,,,,,,,,,345.7389,1,audio/Narrative7Situation7.wav,350.745,,350.7451,367.9361,"[[99.6,826],[99.8,928],[100,1025],[100,1117],[100,1211],[100,1300],[100,1398],[100,1486],[100,1575],[100,1664],[100,1752],[100,1843],[100,1931],[100,2013],[100,2097],[100,2185],[100,2271],[100,2354],[100,2443],[100,2532],[100,2615],[100,2703],[100,2794],[100,2881],[100,2964],[100,3047],[100,3136],[100,3230],[100,3313],[100,3397],[100,3481],[100,3563],[100,3647],[100,3732],[100,3817],[100,3912],[100,3997],[100,4082],[100,4164],[100,4248],[100,4332],[100,4416],[100,4497],[100,4580],[100,4669],[100,4759],[100,4848],[100,4932],[100,5018],[100,5100],[100,5181],[100,5267],[100,5355],[100,5441],[100,5533],[100,5617],[100,5699],[100,5784],[100,5872],[100,5965],[100,6049],[100,6132],[100,6216],[100,6301],[100,6389],[100,6483],[100,6578],[100,6666],[100,6748],[100,6832],[100,6921],[100,7010],[100,7100],[100,7180],[100,7273],[100,7365],[100,7450],[100,7533],[100,7617],[100,7700],[100,7783],[100,7867],[100,7949],[100,8033],[100,8114],[100,8199],[100,8285],[100,8366],[100,8456],[100,8550],[100,8634],[100,8730],[100,8817],[100,8900],[100,8984],[100,9065],[100,9151],[100,9244],[100,9334],[100,9426],[100,9518],[100,9610],[100,9701],[100,9797],[100,9884],[100,9970],[100,10051],[100,10134],[100,10219],[100,10307],[100,10393],[100,10482],[100,10570],[100,10659],[100,10748],[100,10838],[100,10930],[100,11017],[100,11102],[100,11188],[100,11270],[100,11352],[100,11445],[100,11535],[100,11617],[100,11708],[100,11800],[100,11885],[100,11968],[100,12053],[100,12142],[100,12235],[100,12319],[100,12409],[100,12500],[100,12585],[100,12670],[100,12766],[100,12852],[100,12936],[100,13018],[100,13103],[100,13197],[100,13285],[100,13368],[100,13453],[100,13536],[100,13619],[100,13701],[100,13786],[100,13882],[100,13969],[100,14055],[100,14150],[100,14234],[100,14320],[100,14400],[100,14486],[100,14571],[100,14665],[100,14752],[100,14836],[100,14920],[100,15004],[100,15086],[100,15172],[100,15254],[100,15336],[100,15421],[100,15510],[100,15603],[100,15687],[100,15779],[100,15870],[100,15955],[100,16044],[100,16138],[100,16221],[100,16303],[100,16389],[100,16471],[100,16559],[100,16651],[100,16737],[100,16821],[100,16903],[100,16987],[100,17072],[100,17156]]",1,0,367.9363,372.6366,99.38836098,3.4796,"[{""rating"":99.38836097717285,""responseTime"":3.4796000000005733}]",space,4.1517,,372.6367,Not at all,0,372.6398,,,[],,0,7,7,7,1,audio/Narrative7Situation7.wav,audio/Narrative8Situation7.wav,audio/Narrative5Situation7.wav,audio/Narrative6Situation7.wav,5,3,4,5,,,,,,,,,,,,,,,,,,,,,,,,,,,,,,,,,,,,,,,
,,,,,,62c84ca82b03c9aedbca4a2a,2024-05-13_11h49.07.728,group3.1-3.2-social-tom,2023.2.2,MacIntel,59.88023952,65c5074098b851296ff0b7ed,6642359d241076e68d03d65c,,,,,,,,,,,,,,,,,,,,,,,,,,,,,372.6402,1,audio/Narrative7Situation8.wav,374.6513,,374.6514,384.676,"[[99.6,721],[99.8,824],[99.9,919],[100,1014],[100,1102],[100,1182],[100,1271],[100,1363],[100,1454],[100,1542],[100,1635],[100,1719],[100,1804],[100,1898],[100,1986],[100,2069],[100,2152],[100,2235],[100,2321],[100,2414],[100,2504],[100,2585],[100,2669],[100,2758],[100,2848],[100,2937],[100,3021],[100,3111],[100,3202],[100,3287],[100,3372],[100,3454],[100,3535],[100,3620],[100,3705],[100,3787],[100,3872],[100,3961],[100,4053],[100,4138],[100,4220],[100,4315],[100,4403],[100,4484],[100,4571],[100,4664],[100,4754],[100,4837],[100,4930],[100,5019],[100,5104],[100,5187],[100,5275],[100,5366],[100,5454],[100,5538],[100,5625],[100,5719],[100,5802],[100,5894],[100,5987],[100,6069],[100,6155],[100,6237],[100,6323],[100,6411],[100,6504],[100,6589],[100,6671],[100,6759],[100,6852],[100,6938],[100,7021],[100,7105],[100,7192],[100,7285],[100,7371],[100,7454],[100,7538],[100,7622],[100,7705],[100,7788],[100,7874],[100,7955],[100,8038],[100,8121],[100,8205],[100,8289],[100,8371],[100,8456],[100,8547],[100,8638],[100,8722],[100,8808],[100,8900],[100,8989],[100,9073],[100,9156],[100,9239],[100,9321],[100,9404],[100,9490],[100,9573],[100,9654],[100,9741],[100,9829],[100,9917],[100,10004]]",1,0,384.6762,387.0312,99.61093903,1.2999,"[{""rating"":99.6109390258789,""responseTime"":1.2999000000003775}]",space,1.8125,,387.0313,All the time,100,387.0415,,,[],,0,8,8,8,1,audio/Narrative7Situation8.wav,audio/Narrative8Situation8.wav,audio/Narrative5Situation8.wav,audio/Narrative6Situation8.wav,2,3,3,5,,,,,,,,,,,,,,,,,,,,,,,,,,,,,,,,,,,,,,,
,,,,,,62c84ca82b03c9aedbca4a2a,2024-05-13_11h49.07.728,group3.1-3.2-social-tom,2023.2.2,MacIntel,59.88023952,65c5074098b851296ff0b7ed,6642359d241076e68d03d65c,,,,,,,,,,,,,,,,,,,,,,,,,,,,,387.0418,1,audio/Narrative7Situation9.wav,389.0581,,389.0592,397.6898,"[[99.6,2003],[99.4,2092],[98.6,2197],[98.6,2285],[98.6,2370],[99.9,2467],[100,2562],[100,2652],[100,2734],[100,2819],[100,2908],[100,2996],[100,3091],[100,3183],[100,3267],[100,3352],[100,3441],[100,3532],[100,3619],[100,3702],[100,3788],[100,3879],[100,3968],[100,4055],[100,4145],[100,4233],[100,4320],[100,4413],[100,4502],[100,4586],[100,4675],[100,4764],[100,4850],[100,4937],[100,5030],[100,5118],[100,5202],[100,5290],[100,5379],[100,5469],[100,5553],[100,5637],[100,5724],[100,5819],[100,5906],[100,5998],[100,6085],[100,6171],[100,6262],[100,6353],[100,6438],[100,6525],[100,6618],[100,6704],[100,6787],[100,6877],[100,6968],[100,7050],[100,7137],[100,7220],[100,7304],[100,7387],[100,7480],[100,7568],[100,7654],[100,7739],[100,7834],[100,7920],[100,8003],[100,8087],[100,8171],[100,8258],[100,8349],[100,8438],[100,8522],[100,8610]]",1,0,397.6901,401.411,99.76423264,2.6516,"[{""rating"":99.76423263549805,""responseTime"":2.651600000000542}]",space,3.1706,,401.412,All the time,100,401.4178,,,[],,0,9,9,9,1,audio/Narrative7Situation9.wav,audio/Narrative8Situation9.wav,audio/Narrative5Situation9.wav,audio/Narrative6Situation9.wav,2,3,3,4,,,,,,,,,,,,,,,,,,,,,,,,,,,,,,,,,,,,,,,
,,,,,,62c84ca82b03c9aedbca4a2a,2024-05-13_11h49.07.728,group3.1-3.2-social-tom,2023.2.2,MacIntel,59.88023952,65c5074098b851296ff0b7ed,6642359d241076e68d03d65c,,,,,,,,,,,,,,,,,,,,,,,,,,,,,401.4182,1,audio/Narrative8Situation1.wav,406.4357,,406.4358,422.3934,"[[99.9,1299],[100,1388],[100,1486],[100,1574],[100,1662],[100,1753],[100,1846],[100,1934],[100,2023],[100,2117],[100,2198],[100,2285],[100,2368],[100,2457],[100,2550],[100,2633],[100,2717],[100,2800],[100,2884],[100,2973],[100,3063],[100,3151],[100,3233],[100,3317],[100,3401],[100,3482],[100,3568],[100,3660],[100,3744],[100,3833],[100,3918],[100,4006],[100,4100],[100,4183],[100,4270],[100,4364],[100,4450],[100,4535],[100,4624],[100,4715],[100,4801],[100,4884],[100,4968],[100,5051],[100,5135],[100,5219],[100,5309],[100,5402],[100,5486],[100,5577],[100,5667],[100,5757],[100,5846],[100,5935],[100,6017],[100,6102],[100,6194],[100,6281],[100,6369],[100,6451],[100,6533],[100,6616],[100,6699],[100,6785],[100,6868],[100,6953],[100,7041],[100,7133],[100,7216],[100,7302],[100,7384],[100,7467],[100,7553],[100,7634],[100,7719],[100,7805],[100,7895],[100,7986],[100,8069],[100,8152],[100,8235],[100,8318],[100,8402],[100,8487],[100,8569],[100,8653],[100,8736],[100,8819],[100,8903],[100,8986],[100,9069],[100,9153],[100,9236],[100,9321],[100,9415],[100,9503],[100,9586],[100,9669],[100,9753],[100,9836],[100,9920],[100,10004],[100,10087],[100,10176],[100,10269],[100,10354],[100,10436],[100,10520],[100,10604],[100,10688],[100,10770],[100,10851],[100,10936],[100,11025],[100,11120],[100,11204],[100,11288],[100,11369],[100,11453],[100,11536],[100,11621],[100,11704],[100,11788],[100,11871],[100,11954],[100,12038],[100,12119],[100,12205],[100,12287],[100,12371],[100,12454],[100,12545],[100,12637],[100,12720],[100,12802],[100,12889],[100,12978],[100,13071],[100,13162],[100,13254],[100,13338],[100,13426],[100,13568],[100,13652],[100,13738],[100,13829],[100,13921],[100,14004],[100,14088],[100,14171],[100,14260],[100,14343],[100,14437],[100,14519],[100,14607],[100,14698],[100,14787],[100,14877],[100,14968],[100,15055],[100,15139],[100,15222],[100,15306],[100,15389],[100,15475],[100,15569],[100,15656],[100,15739],[100,15823],[100,15905]]",1,0,422.3937,425.5223,99.47626114,1.4233,"[{""rating"":99.47626113891602,""responseTime"":1.4233000000007792}]",space,2.5911,,425.5226,Not at all,0,425.5318,,,[],,0,10,10,10,1,audio/Narrative8Situation1.wav,audio/Narrative7Situation1.wav,audio/Narrative6Situation1.wav,audio/Narrative5Situation1.wav,5,2,2,5,,,,,,,,,,,,,,,,,,,,,,,,,,,,,,,,,,,,,,,
,,,,,,62c84ca82b03c9aedbca4a2a,2024-05-13_11h49.07.728,group3.1-3.2-social-tom,2023.2.2,MacIntel,59.88023952,65c5074098b851296ff0b7ed,6642359d241076e68d03d65c,,,,,,,,,,,,,,,,,,,,,,,,,,,,,425.5322,1,audio/Narrative8Situation2.wav,428.5434,,428.5436,438.6536,"[[99.4,805],[99.4,898],[99.4,1000],[99.4,1092],[99.5,1183],[99.5,1269],[99.5,1351],[99.5,1437],[99.5,1522],[99.5,1615],[99.5,1702],[99.5,1792],[99.5,1884],[99.5,1969],[99.5,2052],[99.5,2136],[99.5,2219],[99.5,2305],[99.5,2398],[99.5,2486],[99.5,2569],[99.5,2654],[99.5,2736],[99.5,2819],[99.5,2901],[99.5,2986],[99.5,3069],[99.5,3153],[99.5,3236],[99.5,3318],[99.5,3409],[99.5,3501],[99.5,3585],[99.5,3669],[99.5,3753],[99.5,3836],[99.5,3920],[99.5,4004],[99.5,4085],[99.5,4178],[99.5,4270],[99.5,4352],[99.5,4434],[99.5,4519],[99.5,4602],[99.5,4687],[99.5,4770],[99.5,4854],[99.5,4939],[99.5,5020],[99.5,5105],[99.5,5187],[99.5,5270],[99.5,5351],[99.5,5436],[99.5,5520],[99.5,5604],[99.5,5687],[99.5,5771],[99.5,5854],[99.5,5936],[99.5,6021],[99.5,6103],[99.5,6187],[99.5,6267],[99.5,6354],[99.5,6437],[99.5,6518],[99.5,6607],[99.5,6702],[99.5,6788],[99.5,6871],[99.5,6954],[99.5,7037],[99.5,7122],[99.5,7203],[99.5,7288],[99.5,7374],[99.5,7470],[99.5,7560],[99.5,7649],[99.5,7737],[99.5,7822],[99.5,7910],[99.5,7999],[99.5,8088],[99.5,8177],[99.5,8267],[99.5,8356],[99.5,8445],[99.5,8535],[99.5,8622],[99.5,8705],[99.5,8788],[99.5,8873],[99.5,8959],[99.5,9053],[99.5,9138],[99.5,9223],[99.5,9306],[99.5,9389],[99.5,9473],[99.5,9557],[99.5,9639],[99.5,9724],[99.5,9817],[99.5,9904],[99.5,9989],[99.5,10075]]",1,0,438.6539,440.7833,99.47853088,1.0029,"[{""rating"":99.47853088378906,""responseTime"":1.0028999999994426}]",space,1.5794,,440.7834,Half the time,50,440.7888,,,[],,0,11,11,11,1,audio/Narrative8Situation2.wav,audio/Narrative7Situation2.wav,audio/Narrative6Situation2.wav,audio/Narrative5Situation2.wav,3,3,3,3,,,,,,,,,,,,,,,,,,,,,,,,,,,,,,,,,,,,,,,
,,,,,,62c84ca82b03c9aedbca4a2a,2024-05-13_11h49.07.728,group3.1-3.2-social-tom,2023.2.2,MacIntel,59.88023952,65c5074098b851296ff0b7ed,6642359d241076e68d03d65c,,,,,,,,,,,,,,,,,,,,,,,,,,,,,440.7892,1,audio/Narrative8Situation3.wav,444.8019,,444.802,467.1902,"[[99.3,713],[99.3,801],[99.3,890],[99.3,983],[99.3,1077],[99.5,1166],[99.7,1260],[99.8,1347],[99.8,1434],[99.8,1518],[99.8,1607],[99.8,1700],[100,1798],[100,1892],[100,1985],[100,2068],[100,2158],[100,2250],[100,2334],[100,2421],[100,2514],[100,2601],[100,2685],[100,2767],[100,2854],[100,2943],[100,3035],[100,3119],[100,3200],[100,3285],[100,3369],[100,3451],[100,3535],[100,3618],[100,3702],[100,3786],[100,3870],[100,3954],[100,4048],[100,4136],[100,4218],[100,4302],[100,4382],[100,4469],[100,4553],[100,4636],[100,4720],[100,4803],[100,4887],[100,4969],[100,5065],[100,5153],[100,5236],[100,5320],[100,5403],[100,5486],[100,5579],[100,5670],[100,5759],[100,5853],[100,5936],[100,6021],[100,6105],[100,6197],[100,6286],[100,6371],[100,6460],[100,6553],[100,6638],[100,6721],[100,6803],[100,6887],[100,6971],[100,7053],[100,7134],[100,7220],[100,7305],[100,7387],[100,7471],[100,7554],[100,7637],[100,7724],[100,7815],[100,7904],[100,7987],[100,8072],[100,8151],[100,8236],[100,8322],[100,8403],[100,8485],[100,8570],[100,8654],[100,8739],[100,8829],[100,8921],[100,9003],[100,9089],[100,9171],[100,9256],[100,9339],[100,9422],[100,9508],[100,9595],[100,9685],[100,9769],[100,9854],[100,9939],[100,10022],[100,10105],[100,10187],[100,10273],[100,10355],[100,10439],[100,10523],[100,10605],[100,10686],[100,10772],[100,10854],[100,10939],[100,11022],[100,11105],[100,11190],[100,11273],[100,11355],[100,11439],[100,11523],[100,11605],[100,11691],[100,11783],[100,11871],[100,11956],[100,12040],[100,12122],[100,12207],[100,12288],[100,12374],[100,12456],[100,12539],[100,12623],[100,12706],[100,12800],[100,12888],[100,12973],[100,13058],[100,13147],[100,13236],[100,13323],[100,13406],[100,13490],[100,13575],[100,13663],[100,13755],[100,13840],[100,13924],[100,14007],[100,14091],[100,14175],[100,14257],[100,14340],[100,14424],[100,14508],[100,14591],[100,14674],[100,14760],[100,14855],[100,14941],[100,15023],[100,15105],[100,15191],[100,15274],[100,15358],[100,15441],[100,15531],[100,15622],[100,15707],[100,15792],[100,15875],[100,15959],[100,16050],[100,16141],[100,16229],[100,16322],[100,16405],[100,16496],[100,16589],[100,16678],[100,16774],[100,16860],[100,16947],[100,17038],[100,17125],[100,17214],[100,17303],[100,17392],[100,17477],[100,17565],[100,17656],[100,17743],[100,17836],[100,17923],[100,18008],[100,18099],[100,18190],[100,18275],[100,18358],[100,18444],[100,18535],[100,18623],[100,18713],[100,18805],[100,18893],[100,18976],[100,19063],[100,19155],[100,19241],[100,19325],[100,19414],[100,19494],[100,19582],[100,19666],[100,19752],[100,19841],[100,19926],[100,20011],[100,20094],[100,20176],[100,20262],[100,20354],[100,20440],[100,20527],[100,20609],[100,20695],[100,20781],[100,20867],[100,20960],[100,21044],[100,21128],[100,21211],[100,21293],[100,21378],[100,21460],[100,21545],[100,21632],[100,21719],[100,21810],[100,21896],[100,21988],[100,22077],[100,22162],[100,22243],[100,22330]]",1,0,467.1904,469.4668,99.56046104,1.2522,"[{""rating"":99.56046104431152,""responseTime"":1.2522000000001299}]",space,1.7389,,469.4669,Half the time,50,469.4702,,,[],,0,12,12,12,1,audio/Narrative8Situation3.wav,audio/Narrative7Situation3.wav,audio/Narrative6Situation3.wav,audio/Narrative5Situation3.wav,4,8,5,3,,,,,,,,,,,,,,,,,,,,,,,,,,,,,,,,,,,,,,,
,,,,,,62c84ca82b03c9aedbca4a2a,2024-05-13_11h49.07.728,group3.1-3.2-social-tom,2023.2.2,MacIntel,59.88023952,65c5074098b851296ff0b7ed,6642359d241076e68d03d65c,,,,,,,,,,,,,,,,,,,,,,,,,,,,,469.4705,1,audio/Narrative8Situation4.wav,472.4805,,472.4806,486.6526,"[[99.6,1293],[99.6,1387],[99.6,1473],[99.6,1570],[99.6,1653],[99.6,1741],[99.7,1828],[100,1933],[100,2022],[100,2111],[100,2197],[100,2281],[100,2371],[100,2455],[100,2540],[100,2622],[100,2705],[100,2785],[100,2870],[100,2953],[100,3036],[100,3117],[100,3203],[100,3286],[100,3369],[100,3452],[100,3537],[100,3619],[100,3703],[100,3787],[100,3870],[100,3952],[100,4038],[100,4120],[100,4202],[100,4287],[100,4370],[100,4455],[100,4549],[100,4636],[100,4722],[100,4806],[100,4901],[100,4986],[100,5081],[100,5171],[100,5254],[100,5337],[100,5423],[100,5516],[100,5604],[100,5693],[100,5785],[100,5871],[100,5954],[100,6041],[100,6135],[100,6221],[100,6304],[100,6387],[100,6471],[100,6555],[100,6641],[100,6733],[100,6823],[100,6904],[100,6987],[100,7070],[100,7152],[100,7239],[100,7322],[100,7409],[100,7505],[100,7589],[100,7671],[100,7754],[100,7839],[100,7922],[100,8005],[100,8088],[100,8172],[100,8256],[100,8340],[100,8423],[100,8505],[100,8590],[100,8672],[100,8756],[100,8840],[100,8922],[100,9006],[100,9089],[100,9172],[100,9256],[100,9338],[100,9424],[100,9510],[100,9597],[100,9689],[100,9772],[100,9856],[100,9940],[100,10024],[100,10120],[100,10207],[100,10297],[100,10390],[100,10472],[100,10556],[100,10640],[100,10724],[100,10807],[100,10889],[100,10974],[100,11057],[100,11140],[100,11224],[100,11311],[100,11403],[100,11491],[100,11574],[100,11659],[100,11757],[100,11840],[100,11925],[100,12009],[100,12103],[100,12194],[100,12290],[100,12374],[100,12459],[100,12542],[100,12624],[100,12708],[100,12792],[100,12883],[100,12972],[100,13058],[100,13140],[100,13223],[100,13310],[100,13406],[100,13491],[100,13583],[100,13680],[100,13769],[100,13859],[100,13941],[100,14024],[100,14116]]",1,0,486.6528,492.0667,99.79290009,2.3062,"[{""rating"":99.79290008544922,""responseTime"":2.3062000000001035}]",space,4.8628,,492.0668,All the time,100,492.0742,,,[],,0,13,13,13,1,audio/Narrative8Situation4.wav,audio/Narrative7Situation4.wav,audio/Narrative6Situation4.wav,audio/Narrative5Situation4.wav,3,3,2,1,,,,,,,,,,,,,,,,,,,,,,,,,,,,,,,,,,,,,,,
,,,,,,62c84ca82b03c9aedbca4a2a,2024-05-13_11h49.07.728,group3.1-3.2-social-tom,2023.2.2,MacIntel,59.88023952,65c5074098b851296ff0b7ed,6642359d241076e68d03d65c,,,,,,,,,,,,,,,,,,,,,,,,,,,,,492.0746,1,audio/Narrative8Situation5.wav,494.0757,,494.0758,502.375,"[[99.6,616],[99.6,708],[99.6,798],[99.6,896],[99.6,984],[99.6,1073],[99.6,1160],[100,1257],[100,1343],[100,1436],[100,1524],[100,1618],[100,1703],[100,1795],[100,1885],[100,1970],[100,2053],[100,2146],[100,2236],[100,2318],[100,2401],[100,2490],[100,2581],[100,2668],[100,2752],[100,2842],[100,2934],[100,3018],[100,3102],[100,3190],[100,3280],[100,3366],[100,3453],[100,3549],[100,3636],[100,3715],[100,3802],[100,3885],[100,3967],[100,4051],[100,4138],[100,4227],[100,4318],[100,4403],[100,4489],[100,4585],[100,4675],[100,4767],[100,4852],[100,4934],[100,5019],[100,5104],[100,5186],[100,5275],[100,5366],[100,5453],[100,5537],[100,5620],[100,5708],[100,5799],[100,5885],[100,5969],[100,6054],[100,6137],[100,6219],[100,6303],[100,6388],[100,6470],[100,6552],[100,6638],[100,6727],[100,6820],[100,6904],[100,6988],[100,7077],[100,7170],[100,7259],[100,7351],[100,7438],[100,7523],[100,7618],[100,7704],[100,7789],[100,7880],[100,7971],[100,8055],[100,8185],[100,8265]]",1,0,502.3751,504.7098,99.60289955,1.3699,"[{""rating"":99.6028995513916,""responseTime"":1.3698999999994612}]",space,1.7932,,504.7101,Not at all,0,504.7202,,,[],,0,14,14,14,1,audio/Narrative8Situation5.wav,audio/Narrative7Situation5.wav,audio/Narrative6Situation5.wav,audio/Narrative5Situation5.wav,2,5,2,5,,,,,,,,,,,,,,,,,,,,,,,,,,,,,,,,,,,,,,,
,,,,,,62c84ca82b03c9aedbca4a2a,2024-05-13_11h49.07.728,group3.1-3.2-social-tom,2023.2.2,MacIntel,59.88023952,65c5074098b851296ff0b7ed,6642359d241076e68d03d65c,,,,,,,,,,,,,,,,,,,,,,,,,,,,,504.7207,1,audio/Narrative8Situation6.wav,506.7326,,506.7327,513.2173,"[[99.8,773],[99.9,867],[99.9,962],[99.9,1051],[99.9,1140],[99.9,1232],[99.9,1318],[99.9,1408],[99.9,1498],[99.9,1585],[99.9,1667],[99.9,1751],[99.9,1834],[99.9,1917],[99.9,2000],[99.9,2084],[99.9,2167],[99.9,2250],[99.9,2335],[99.9,2416],[99.9,2501],[99.9,2587],[99.9,2674],[99.9,2766],[99.9,2850],[99.9,2936],[99.9,3030],[99.9,3117],[99.9,3203],[99.9,3293],[99.9,3384],[99.9,3466],[99.9,3551],[99.9,3635],[99.9,3717],[99.9,3799],[99.9,3885],[99.9,3968],[99.9,4052],[99.9,4134],[99.9,4221],[99.9,4316],[99.9,4401],[99.9,4485],[99.9,4569],[99.9,4651],[99.9,4734],[99.9,4816],[99.9,4901],[99.9,4984],[99.9,5068],[99.9,5155],[99.9,5247],[99.9,5332],[99.9,5418],[99.9,5504],[99.9,5585],[99.9,5668],[99.9,5753],[99.9,5839],[99.9,5936],[99.9,6018],[99.9,6107],[99.9,6201],[99.9,6285],[99.9,6374],[99.9,6463]]",1,0,513.2177,515.8098,99.78536606,0.9072,"[{""rating"":99.78536605834961,""responseTime"":0.9072000000002163}]",space,2.0618,,515.8099,Half the time,50,515.8192,,,[],,0,15,15,15,1,audio/Narrative8Situation6.wav,audio/Narrative7Situation6.wav,audio/Narrative6Situation6.wav,audio/Narrative5Situation6.wav,2,3,2,3,,,,,,,,,,,,,,,,,,,,,,,,,,,,,,,,,,,,,,,
,,,,,,62c84ca82b03c9aedbca4a2a,2024-05-13_11h49.07.728,group3.1-3.2-social-tom,2023.2.2,MacIntel,59.88023952,65c5074098b851296ff0b7ed,6642359d241076e68d03d65c,,,,,,,,,,,,,,,,,,,,,,,,,,,,,515.8195,1,audio/Narrative8Situation7.wav,518.8354,,518.8356,530.9277,"[[99.5,806],[99.4,901],[99.4,989],[99.4,1084],[99.4,1172],[99.4,1257],[100,1354],[100,1448],[100,1540],[100,1629],[100,1718],[100,1804],[100,1887],[100,1974],[100,2067],[100,2151],[100,2243],[100,2335],[100,2425],[100,2515],[100,2604],[100,2687],[100,2772],[100,2863],[100,2953],[100,3035],[100,3120],[100,3206],[100,3287],[100,3369],[100,3456],[100,3541],[100,3636],[100,3722],[100,3806],[100,3887],[100,3970],[100,4060],[100,4151],[100,4238],[100,4325],[100,4415],[100,4505],[100,4588],[100,4671],[100,4754],[100,4838],[100,4920],[100,5006],[100,5091],[100,5183],[100,5271],[100,5355],[100,5441],[100,5536],[100,5620],[100,5709],[100,5797],[100,5884],[100,5968],[100,6053],[100,6139],[100,6226],[100,6307],[100,6394],[100,6484],[100,6570],[100,6659],[100,6751],[100,6838],[100,6920],[100,7005],[100,7090],[100,7171],[100,7257],[100,7340],[100,7422],[100,7506],[100,7591],[100,7681],[100,7771],[100,7857],[100,7949],[100,8039],[100,8122],[100,8205],[100,8291],[100,8372],[100,8456],[100,8537],[100,8633],[100,8724],[100,8804],[100,8895],[100,8989],[100,9074],[100,9164],[100,9258],[100,9338],[100,9423],[100,9507],[100,9598],[100,9690],[100,9771],[100,9858],[100,9941],[100,10023],[100,10108],[100,10200],[100,10290],[100,10381],[100,10473],[100,10557],[100,10641],[100,10723],[100,10807],[100,10892],[100,10984],[100,11065],[100,11154],[100,11245],[100,11337],[100,11424],[100,11509],[100,11601],[100,11692],[100,11775],[100,11861],[100,11948],[100,12037]]",1,0,530.9278,534.1088,99.68333244,1.7925,"[{""rating"":99.6833324432373,""responseTime"":1.7925000000000182}]",space,2.6327,,534.1088,Not at all,0,534.1146,,,[],,0,16,16,16,1,audio/Narrative8Situation7.wav,audio/Narrative7Situation7.wav,audio/Narrative6Situation7.wav,audio/Narrative5Situation7.wav,3,5,5,4,,,,,,,,,,,,,,,,,,,,,,,,,,,,,,,,,,,,,,,
,,,,,,62c84ca82b03c9aedbca4a2a,2024-05-13_11h49.07.728,group3.1-3.2-social-tom,2023.2.2,MacIntel,59.88023952,65c5074098b851296ff0b7ed,6642359d241076e68d03d65c,,,,,,,,,,,,,,,,,,,,,,,,,,,,,534.1151,1,audio/Narrative8Situation8.wav,537.1299,,537.13,549.9855,"[[99.8,811],[99.8,890],[99.8,975],[99.8,1067],[99.8,1153],[99.8,1244],[100,1335],[100,1423],[100,1514],[100,1600],[100,1684],[100,1766],[100,1850],[100,1934],[100,2018],[100,2100],[100,2185],[100,2267],[100,2351],[100,2433],[100,2524],[100,2617],[100,2700],[100,2785],[100,2873],[100,2964],[100,3052],[100,3134],[100,3216],[100,3302],[100,3385],[100,3473],[100,3564],[100,3650],[100,3735],[100,3818],[100,3901],[100,3983],[100,4069],[100,4153],[100,4246],[100,4335],[100,4418],[100,4502],[100,4584],[100,4672],[100,4766],[100,4851],[100,4933],[100,5019],[100,5102],[100,5185],[100,5269],[100,5354],[100,5438],[100,5529],[100,5619],[100,5701],[100,5786],[100,5871],[100,5953],[100,6037],[100,6123],[100,6216],[100,6302],[100,6386],[100,6472],[100,6564],[100,6653],[100,6734],[100,6819],[100,6903],[100,6984],[100,7074],[100,7164],[100,7258],[100,7350],[100,7437],[100,7521],[100,7602],[100,7691],[100,7782],[100,7870],[100,7953],[100,8046],[100,8137],[100,8221],[100,8303],[100,8388],[100,8470],[100,8555],[100,8644],[100,8737],[100,8822],[100,8904],[100,8992],[100,9086],[100,9169],[100,9254],[100,9339],[100,9422],[100,9508],[100,9599],[100,9687],[100,9773],[100,9867],[100,9955],[100,10049],[100,10136],[100,10222],[100,10314],[100,10403],[100,10487],[100,10573],[100,10656],[100,10737],[100,10826],[100,10915],[100,11005],[100,11093],[100,11183],[100,11272],[100,11354],[100,11439],[100,11526],[100,11614],[100,11704],[100,11791],[100,11879],[100,11971],[100,12056],[100,12143],[100,12234],[100,12322],[100,12405],[100,12489],[100,12575],[100,12668],[100,12755],[100,12839]]",1,0,549.9858,552.1928,99.8336792,1.1541,"[{""rating"":99.83367919921875,""responseTime"":1.1540999999996302}]",space,1.6568,,552.193,Half the time,50,558.8753,99.83877182,5.3491,"[{""rating"":99.83877182006836,""responseTime"":5.34909999999968}]",space,0,17,17,17,1,audio/Narrative8Situation8.wav,audio/Narrative7Situation8.wav,audio/Narrative6Situation8.wav,audio/Narrative5Situation8.wav,3,2,5,3,,,6.1362,,,,,,,,,,,,,,,,,,,,,,,,,,,,,,,,,,,,
,,,,,,62c84ca82b03c9aedbca4a2a,2024-05-13_11h49.07.728,group3.1-3.2-social-tom,2023.2.2,MacIntel,59.88023952,65c5074098b851296ff0b7ed,6642359d241076e68d03d65c,,,,,,,,,,,,,,,,,,,,,,,,,,,,,558.8758,1,audio/Narrative8Situation9.wav,561.8918,,561.892,573.197,"[[99.6,1109],[99.4,1204],[99.3,1304],[99,1398],[99,1487],[99.7,1586],[100,1678],[100,1771],[100,1859],[100,1949],[100,2034],[100,2120],[100,2206],[100,2300],[100,2382],[100,2468],[100,2557],[100,2642],[100,2731],[100,2818],[100,2900],[100,2984],[100,3067],[100,3152],[100,3234],[100,3317],[100,3402],[100,3487],[100,3585],[100,3669],[100,3762],[100,3852],[100,3944],[100,4032],[100,4119],[100,4210],[100,4300],[100,4383],[100,4468],[100,4551],[100,4638],[100,4731],[100,4818],[100,4901],[100,4986],[100,5065],[100,5149],[100,5233],[100,5317],[100,5402],[100,5483],[100,5568],[100,5653],[100,5736],[100,5819],[100,5902],[100,5985],[100,6068],[100,6151],[100,6235],[100,6318],[100,6400],[100,6487],[100,6579],[100,6667],[100,6752],[100,6834],[100,6919],[100,7006],[100,7100],[100,7186],[100,7268],[100,7352],[100,7437],[100,7520],[100,7605],[100,7692],[100,7784],[100,7869],[100,7965],[100,8052],[100,8136],[100,8220],[100,8303],[100,8387],[100,8470],[100,8552],[100,8638],[100,8720],[100,8803],[100,8888],[100,8973],[100,9065],[100,9151],[100,9237],[100,9320],[100,9404],[100,9486],[100,9571],[100,9655],[100,9737],[100,9819],[100,9901],[100,9988],[100,10082],[100,10172],[100,10263],[100,10354],[100,10438],[100,10522],[100,10604],[100,10689],[100,10770],[100,10855],[100,10937],[100,11024],[100,11119],[100,11204],[100,11287]]",1,0,573.1973,577.0406,99.93676186,1.3688,"[{""rating"":99.9367618560791,""responseTime"":1.368799999999851}]",space,3.2914,,577.0408,Half the time,50,577.0489,,,[],,0,18,18,18,1,audio/Narrative8Situation9.wav,audio/Narrative7Situation9.wav,audio/Narrative6Situation9.wav,audio/Narrative5Situation9.wav,3,2,4,3,,,,,,,,,,,,,,,,,,,,,,,,,,,,,,,,,,,,,,,
,,,,,,62c84ca82b03c9aedbca4a2a,2024-05-13_11h49.07.728,group3.1-3.2-social-tom,2023.2.2,MacIntel,59.88023952,65c5074098b851296ff0b7ed,6642359d241076e68d03d65c,,,,,,,,,,,,,,,,,,,,,,,,,,,582.9248,585.4961,585.5466,2,audio/Narrative13Situation2.wav,585.5467,,585.5467,615.3,"[[100,1208],[100,1303],[100,1391],[100,1477],[99.9,1570],[99.9,1655],[99.9,1741],[99.9,1823],[99.9,1908],[99.9,1993],[99.9,2076],[99.9,2168],[99.9,2258],[99.9,2343],[99.9,2438],[99.9,2528],[99.9,2621],[99.9,2707],[99.9,2791],[99.9,2876],[99.9,2962],[99.9,3055],[99.9,3140],[99.9,3224],[99.9,3307],[99.9,3390],[99.9,3478],[99.9,3572],[99.9,3658],[99.9,3741],[99.9,3834],[99.9,3921],[99.9,4008],[99.9,4090],[99.9,4172],[99.9,4263],[99.9,4359],[99.9,4442],[99.9,4530],[99.9,4620],[99.9,4706],[99.9,4791],[99.9,4875],[99.9,4966],[99.9,5059],[99.9,5141],[99.9,5227],[99.9,5315],[99.9,5408],[99.9,5492],[99.9,5579],[99.9,5673],[99.9,5760],[99.9,5852],[99.9,5939],[99.9,6026],[99.9,6109],[99.9,6191],[99.9,6277],[99.9,6372],[99.9,6464],[99.9,6555],[99.9,6642],[99.9,6725],[99.9,6807],[99.9,6898],[99.9,6991],[99.9,7073],[99.9,7160],[99.9,7242],[99.9,7326],[99.9,7410],[99.9,7503],[99.9,7591],[99.9,7677],[99.9,7760],[99.9,7843],[99.9,7927],[99.9,8013],[99.9,8105],[99.9,8194],[99.9,8290],[99.9,8374],[99.9,8460],[99.9,8543],[99.9,8626],[99.9,8719],[99.9,8810],[99.9,8893],[99.9,8977],[99.9,9063],[99.9,9148],[99.9,9238],[99.9,9330],[99.9,9421],[99.9,9509],[99.9,9594],[99.9,9678],[99.9,9765],[99.9,9859],[99.9,9944],[99.9,10029],[99.9,10114],[99.9,10208],[99.9,10294],[99.9,10379],[99.9,10458],[99.9,10545],[99.9,10631],[99.9,10723],[99.9,10810],[99.9,10894],[99.9,10979],[99.9,11061],[99.9,11144],[99.9,11228],[99.9,11317],[99.9,11409],[99.9,11495],[99.9,11578],[99.9,11662],[99.9,11745],[99.9,11832],[99.9,11921],[99.9,12012],[99.9,12095],[99.9,12179],[99.9,12263],[99.9,12353],[99.9,12443],[99.9,12529],[99.9,12613],[99.9,12695],[99.9,12779],[99.9,12869],[99.9,12958],[99.9,13045],[99.9,13129],[99.9,13214],[99.9,13297],[99.9,13378],[99.9,13464],[99.9,13551],[99.9,13645],[99.9,13729],[99.9,13812],[99.9,13899],[99.9,13992],[99.9,14083],[99.9,14174],[99.9,14263],[99.9,14346],[99.9,14431],[99.9,14514],[99.9,14597],[99.9,14680],[99.9,14766],[99.9,14855],[99.9,14943],[99.9,15036],[99.9,15125],[99.9,15212],[99.9,15299],[99.9,15391],[99.9,15479],[99.9,15564],[99.9,15651],[99.9,15744],[99.9,15831],[99.9,15920],[99.9,16008],[99.9,16096],[99.9,16180],[99.9,16262],[99.9,16345],[99.9,16431],[99.9,16515],[99.9,16595],[99.9,16683],[99.9,16771],[99.9,16861],[99.9,16947],[99.9,17031],[99.9,17114],[99.9,17198],[99.9,17290],[99.9,17383],[99.9,17464],[99.9,17548],[99.9,17631],[99.9,17714],[99.9,17797],[99.9,17880],[99.9,17966],[99.9,18049],[99.9,18131],[99.9,18218],[99.9,18307],[99.9,18396],[99.9,18481],[99.9,18566],[99.9,18654],[99.9,18746],[99.9,18832],[99.9,18917],[99.9,19007],[99.9,19096],[99.9,19184],[99.9,19274],[99.9,19362],[99.9,19449],[99.9,19533],[99.9,19619],[99.9,19712],[99.9,19798],[99.9,19889],[99.9,19981],[99.9,20071],[99.9,20163],[99.9,20249],[99.9,20338],[99.9,20431],[99.9,20516],[99.9,20599],[99.9,20680],[99.9,20772],[99.9,20859],[99.9,20950],[99.9,21033],[99.9,21119],[99.9,21212],[99.9,21299],[99.9,21379],[99.9,21466],[99.9,21550],[99.9,21634],[99.9,21728],[99.9,21816],[99.9,21899],[99.9,21984],[99.9,22069],[99.9,22159],[99.9,22251],[99.9,22335],[99.9,22419],[99.9,22501],[99.9,22583],[99.9,22668],[99.9,22758],[99.9,22850],[99.9,22934],[99.9,23018],[99.9,23100],[99.9,23183],[99.9,23278],[99.9,23367],[99.9,23451],[99.9,23532],[99.9,23618],[99.9,23698],[99.9,23783],[99.9,23866],[99.9,23951],[99.9,24036],[99.9,24119],[99.9,24199],[99.9,24287],[99.9,24379],[99.9,24464],[99.9,24552],[99.9,24640],[99.9,24735],[99.9,24818],[99.9,24901],[99.9,24985],[99.9,25068],[99.9,25150],[99.9,25236],[99.9,25324],[99.9,25417],[99.9,25499],[99.9,25587],[99.9,25670],[99.9,25754],[99.9,25846],[99.9,25935],[99.9,26018],[99.9,26100],[99.9,26183],[99.9,26272],[99.9,26367],[99.9,26450],[99.9,26537],[99.9,26626],[99.9,26718],[99.9,26807],[99.9,26897],[99.9,26986],[99.9,27070],[99.9,27160],[99.9,27252],[99.9,27336],[99.9,27426],[99.9,27519],[99.9,27603],[99.9,27686],[99.9,27769],[99.9,27853],[99.9,27936],[99.9,28019],[99.9,28108],[99.9,28198],[99.9,28286],[99.9,28373],[99.9,28463],[99.9,28554],[99.9,28633],[99.9,28720],[99.9,28803],[99.9,28886],[99.9,28970],[99.9,29053],[99.9,29142],[99.9,29235],[99.9,29318],[99.9,29407],[99.9,29503],[99.9,29585],[99.9,29670],[99.9,29752]]",1,0,615.3005,615.3241,,,[],,,,615.3242,Half the time,50,615.3274,,,[],,0,0,0,0,1,audio/Narrative13Situation2.wav,audio/Narrative13Situation2.wav,audio/Narrative13Situation2.wav,audio/Narrative13Situation2.wav,2,2,2,2,,,,,577.0501,582.904,space,5.3328,,,,,,,,,,,,,,,,,,,,,,,,,,,,,,,
,,,,,,62c84ca82b03c9aedbca4a2a,2024-05-13_11h49.07.728,group3.1-3.2-social-tom,2023.2.2,MacIntel,59.88023952,65c5074098b851296ff0b7ed,6642359d241076e68d03d65c,,,,,,,,,,,,,,,,,,,,,,,,,,,,,615.3279,2,audio/Narrative5Situation1.wav,620.337,,620.3371,633.6251,"[[99.7,717],[99.6,818],[99.6,908],[99.6,999],[99.6,1081],[99.7,1177],[100,1274],[100,1362],[100,1457],[100,1557],[100,1649],[100,1737],[100,1829],[100,1916],[100,1999],[100,2080],[100,2167],[100,2250],[100,2332],[100,2416],[100,2499],[100,2584],[100,2674],[100,2762],[100,2852],[100,2944],[100,3033],[100,3114],[100,3203],[100,3292],[100,3381],[100,3471],[100,3562],[100,3647],[100,3733],[100,3818],[100,3900],[100,3984],[100,4066],[100,4151],[100,4238],[100,4332],[100,4418],[100,4502],[100,4594],[100,4681],[100,4766],[100,4850],[100,4935],[100,5022],[100,5115],[100,5201],[100,5284],[100,5369],[100,5457],[100,5550],[100,5636],[100,5719],[100,5806],[100,5897],[100,5981],[100,6068],[100,6153],[100,6235],[100,6316],[100,6403],[100,6486],[100,6568],[100,6651],[100,6736],[100,6822],[100,6916],[100,7002],[100,7088],[100,7179],[100,7268],[100,7351],[100,7435],[100,7519],[100,7603],[100,7688],[100,7779],[100,7870],[100,7952],[100,8036],[100,8119],[100,8202],[100,8290],[100,8379],[100,8469],[100,8552],[100,8637],[100,8722],[100,8817],[100,8903],[100,8987],[100,9071],[100,9154],[100,9235],[100,9320],[100,9403],[100,9486],[100,9571],[100,9655],[100,9748],[100,9836],[100,9920],[100,10008],[100,10102],[100,10186],[100,10273],[100,10355],[100,10434],[100,10520],[100,10611],[100,10701],[100,10787],[100,10871],[100,10961],[100,11048],[100,11137],[100,11223],[100,11313],[100,11404],[100,11487],[100,11576],[100,11663],[100,11751],[100,11839],[100,11932],[100,12019],[100,12105],[100,12197],[100,12288],[100,12371],[100,12452],[100,12539],[100,12621],[100,12705],[100,12787],[100,12874],[100,12964],[100,13051],[100,13139],[100,13234]]",1,0,633.6258,637.4034,99.75698471,2.9869,"[{""rating"":99.75698471069336,""responseTime"":2.986900000000446}]",space,3.2276,,637.4034,Not at all,0,637.414,,,[],,0,1,1,1,1,audio/Narrative7Situation1.wav,audio/Narrative8Situation1.wav,audio/Narrative5Situation1.wav,audio/Narrative6Situation1.wav,2,5,5,2,,,,,,,,,,,,,,,,,,,,,,,,,,,,,,,,,,,,,,,
,,,,,,62c84ca82b03c9aedbca4a2a,2024-05-13_11h49.07.728,group3.1-3.2-social-tom,2023.2.2,MacIntel,59.88023952,65c5074098b851296ff0b7ed,6642359d241076e68d03d65c,,,,,,,,,,,,,,,,,,,,,,,,,,,,,637.4144,2,audio/Narrative5Situation2.wav,640.4252,,640.4253,669.8934,"[[99,1515],[98.3,1612],[98.3,1705],[98.3,1796],[98.6,1894],[99.2,1993],[100,2089],[100,2185],[100,2269],[100,2355],[100,2437],[100,2526],[100,2619],[100,2704],[100,2788],[100,2869],[100,2954],[100,3036],[100,3120],[100,3204],[100,3289],[100,3370],[100,3453],[100,3535],[100,3622],[100,3710],[100,3802],[100,3887],[100,3972],[100,4059],[100,4150],[100,4239],[100,4322],[100,4408],[100,4498],[100,4589],[100,4674],[100,4757],[100,4839],[100,4922],[100,5006],[100,5089],[100,5172],[100,5253],[100,5339],[100,5423],[100,5505],[100,5590],[100,5683],[100,5773],[100,5858],[100,5947],[100,6041],[100,6123],[100,6203],[100,6289],[100,6372],[100,6456],[100,6538],[100,6623],[100,6707],[100,6789],[100,6876],[100,6967],[100,7056],[100,7138],[100,7223],[100,7307],[100,7390],[100,7474],[100,7556],[100,7641],[100,7723],[100,7806],[100,7891],[100,7976],[100,8068],[100,8158],[100,8245],[100,8339],[100,8424],[100,8509],[100,8593],[100,8674],[100,8757],[100,8839],[100,8925],[100,9006],[100,9093],[100,9179],[100,9270],[100,9358],[100,9449],[100,9542],[100,9624],[100,9708],[100,9794],[100,9874],[100,9957],[100,10042],[100,10137],[100,10225],[100,10308],[100,10393],[100,10476],[100,10558],[100,10640],[100,10725],[100,10807],[100,10889],[100,10974],[100,11056],[100,11147],[100,11229],[100,11309],[100,11392],[100,11476],[100,11601],[100,11681],[100,11769],[100,11859],[100,11942],[100,12025],[100,12110],[100,12204],[100,12291],[100,12375],[100,12457],[100,12549],[100,12642],[100,12726],[100,12809],[100,12894],[100,12987],[100,13074],[100,13160],[100,13252],[100,13339],[100,13426],[100,13510],[100,13600],[100,13692],[100,13778],[100,13870],[100,13959],[100,14044],[100,14126],[100,14213],[100,14308],[100,14393],[100,14477],[100,14560],[100,14644],[100,14726],[100,14812],[100,14899],[100,14992],[100,15075],[100,15161],[100,15243],[100,15328],[100,15410],[100,15495],[100,15585],[100,15676],[100,15759],[100,15844],[100,15927],[100,16011],[100,16094],[100,16178],[100,16267],[100,16360],[100,16445],[100,16536],[100,16626],[100,16711],[100,16794],[100,16878],[100,16960],[100,17048],[100,17130],[100,17216],[100,17309],[100,17394],[100,17480],[100,17568],[100,17657],[100,17745],[100,17826],[100,17916],[100,18006],[100,18096],[100,18185],[100,18278],[100,18362],[100,18442],[100,18534],[100,18628],[100,18713],[100,18795],[100,18883],[100,18975],[100,19060],[100,19144],[100,19231],[100,19318],[100,19409],[100,19495],[100,19587],[100,19679],[100,19771],[100,19864],[100,19991],[100,20076],[100,20164],[100,20246],[100,20329],[100,20413],[100,20497],[100,20581],[100,20663],[100,20748],[100,20839],[100,20928],[100,21013],[100,21098],[100,21186],[100,21279],[100,21361],[100,21447],[100,21530],[100,21614],[100,21703],[100,21796],[100,21878],[100,21964],[100,22049],[100,22138],[100,22227],[100,22312],[100,22397],[100,22481],[100,22563],[100,22659],[100,22748],[100,22833],[100,22922],[100,23015],[100,23097],[100,23180],[100,23264],[100,23350],[100,23440],[100,23530],[100,23616],[100,23707],[100,23797],[100,23881],[100,23973],[100,24064],[100,24154],[100,24246],[100,24334],[100,24420],[100,24513],[100,24598],[100,24681],[100,24765],[100,24849],[100,24931],[100,25016],[100,25099],[100,25181],[100,25262],[100,25348],[100,25434],[100,25513],[100,25605],[100,25696],[100,25782],[100,25865],[100,25947],[100,26037],[100,26127],[100,26213],[100,26297],[100,26382],[100,26466],[100,26549],[100,26632],[100,26717],[100,26799],[100,26884],[100,26969],[100,27055],[100,27140],[100,27234],[100,27317],[100,27398],[100,27489],[100,27582],[100,27666],[100,27751],[100,27840],[100,27931],[100,28018],[100,28099],[100,28185],[100,28267],[100,28350],[100,28432],[100,28521],[100,28600],[100,28685],[100,28777],[100,28868],[100,28952],[100,29033],[100,29120],[100,29213],[100,29300],[100,29384],[100,29467]]",1,0,669.8936,674.1191,99.67327118,1.8615,"[{""rating"":99.67327117919922,""responseTime"":1.8614999999999782}]",space,3.6738,,674.1193,All the time,100,674.1501,,,[],,0,2,2,2,1,audio/Narrative7Situation2.wav,audio/Narrative8Situation2.wav,audio/Narrative5Situation2.wav,audio/Narrative6Situation2.wav,3,3,3,3,,,,,,,,,,,,,,,,,,,,,,,,,,,,,,,,,,,,,,,
,,,,,,62c84ca82b03c9aedbca4a2a,2024-05-13_11h49.07.728,group3.1-3.2-social-tom,2023.2.2,MacIntel,59.88023952,65c5074098b851296ff0b7ed,6642359d241076e68d03d65c,,,,,,,,,,,,,,,,,,,,,,,,,,,,,674.1505,2,audio/Narrative5Situation3.wav,677.1588,,677.1589,691.074,"[[99.6,790],[99.6,888],[99.5,974],[99.5,1069],[99.5,1154],[99.5,1237],[99.5,1321],[99.5,1404],[99.5,1488],[99.5,1573],[99.5,1655],[99.5,1739],[99.5,1822],[99.5,1908],[99.5,2001],[99.5,2093],[99.5,2185],[99.5,2273],[99.5,2361],[99.5,2446],[99.5,2535],[99.5,2621],[99.5,2705],[99.5,2789],[99.5,2881],[99.5,2970],[99.5,3055],[99.5,3137],[99.5,3220],[99.5,3305],[99.5,3388],[99.5,3473],[99.5,3562],[99.5,3655],[99.5,3740],[99.5,3834],[99.5,3923],[99.5,4008],[99.5,4091],[99.5,4179],[99.5,4271],[99.5,4356],[99.5,4439],[99.5,4525],[99.5,4614],[99.5,4704],[99.5,4788],[99.5,4875],[99.5,4956],[99.5,5040],[99.5,5124],[99.5,5205],[99.5,5289],[99.5,5372],[99.5,5458],[99.5,5548],[99.5,5636],[99.5,5723],[99.5,5815],[99.5,5906],[99.5,5991],[99.5,6086],[99.5,6173],[99.5,6257],[99.5,6340],[99.5,6427],[99.5,6519],[99.5,6607],[99.5,6691],[99.5,6776],[99.5,6859],[99.5,6953],[99.5,7041],[99.5,7123],[99.5,7207],[99.5,7290],[99.5,7380],[99.5,7470],[99.5,7556],[99.5,7642],[99.5,7734],[99.5,7822],[99.5,7906],[99.5,7991],[99.5,8075],[99.5,8158],[99.5,8241],[99.5,8325],[99.5,8409],[99.5,8491],[99.5,8572],[99.5,8659],[99.5,8742],[99.5,8826],[99.5,8914],[99.5,9006],[99.5,9091],[99.5,9175],[99.5,9259],[99.5,9346],[99.5,9439],[99.5,9526],[99.5,9616],[99.5,9703],[99.5,9792],[99.5,9874],[99.5,9959],[99.5,10041],[99.5,10122],[99.5,10208],[99.5,10292],[99.5,10375],[99.5,10459],[99.5,10542],[99.5,10628],[99.5,10718],[99.5,10808],[99.5,10892],[99.5,10976],[99.5,11063],[99.5,11154],[99.5,11244],[99.5,11324],[99.5,11410],[99.5,11495],[99.5,11589],[99.5,11674],[99.5,11764],[99.5,11854],[99.5,11943],[99.5,12024],[99.5,12109],[99.5,12193],[99.5,12276],[99.5,12359],[99.5,12442],[99.5,12527],[99.5,12610],[99.5,12694],[99.5,12779],[99.5,12871],[99.5,12960],[99.5,13042],[99.5,13127],[99.5,13209],[99.5,13293],[99.5,13375],[99.5,13461],[99.5,13543],[99.5,13627],[99.5,13708],[99.5,13795],[99.5,13882]]",1,0,691.0741,693.6812,99.39339638,1.8917,"[{""rating"":99.39339637756348,""responseTime"":1.891700000000128}]",space,2.0599,,693.6813,All the time,100,704.8824,99.15178299,3.5092,"[{""rating"":99.15178298950195,""responseTime"":3.5092000000001917}]",space,0,3,3,3,1,audio/Narrative7Situation3.wav,audio/Narrative8Situation3.wav,audio/Narrative5Situation3.wav,audio/Narrative6Situation3.wav,8,4,3,5,,,10.66,,,,,,,,,,,,,,,,,,,,,,,,,,,,,,,,,,,,
,,,,,,62c84ca82b03c9aedbca4a2a,2024-05-13_11h49.07.728,group3.1-3.2-social-tom,2023.2.2,MacIntel,59.88023952,65c5074098b851296ff0b7ed,6642359d241076e68d03d65c,,,,,,,,,,,,,,,,,,,,,,,,,,,,,704.9035,2,audio/Narrative5Situation4.wav,705.9067,,705.9068,726.3029,"[[99.9,1385],[100,1478],[100,1571],[100,1667],[100,1755],[100,1837],[100,1921],[100,2010],[100,2103],[100,2188],[100,2278],[100,2370],[100,2454],[100,2536],[100,2620],[100,2705],[100,2785],[100,2871],[100,2957],[100,3048],[100,3138],[100,3221],[100,3306],[100,3388],[100,3477],[100,3572],[100,3655],[100,3743],[100,3835],[100,3922],[100,4018],[100,4102],[100,4190],[100,4275],[100,4364],[100,4452],[100,4539],[100,4622],[100,4705],[100,4798],[100,4883],[100,4971],[100,5057],[100,5149],[100,5237],[100,5323],[100,5407],[100,5494],[100,5584],[100,5670],[100,5754],[100,5840],[100,5923],[100,6005],[100,6094],[100,6185],[100,6273],[100,6355],[100,6439],[100,6524],[100,6607],[100,6696],[100,6790],[100,6879],[100,6970],[100,7062],[100,7156],[100,7240],[100,7329],[100,7420],[100,7506],[100,7588],[100,7678],[100,7769],[100,7856],[100,7938],[100,8025],[100,8113],[100,8208],[100,8297],[100,8389],[100,8474],[100,8557],[100,8641],[100,8725],[100,8807],[100,8889],[100,8976],[100,9066],[100,9157],[100,9244],[100,9334],[100,9424],[100,9509],[100,9600],[100,9690],[100,9774],[100,9854],[100,9942],[100,10027],[100,10120],[100,10208],[100,10291],[100,10382],[100,10474],[100,10557],[100,10641],[100,10725],[100,10807],[100,10892],[100,10975],[100,11056],[100,11142],[100,11230],[100,11322],[100,11405],[100,11491],[100,11577],[100,11662],[100,11756],[100,11843],[100,11922],[100,12009],[100,12093],[100,12176],[100,12264],[100,12352],[100,12441],[100,12527],[100,12620],[100,12709],[100,12792],[100,12876],[100,12959],[100,13042],[100,13124],[100,13209],[100,13292],[100,13376],[100,13459],[100,13543],[100,13626],[100,13709],[100,13793],[100,13880],[100,13973],[100,14056],[100,14143],[100,14226],[100,14310],[100,14393],[100,14478],[100,14561],[100,14643],[100,14728],[100,14814],[100,14904],[100,14994],[100,15076],[100,15161],[100,15244],[100,15323],[100,15409],[100,15495],[100,15577],[100,15660],[100,15745],[100,15837],[100,15927],[100,16011],[100,16099],[100,16188],[100,16278],[100,16360],[100,16444],[100,16527],[100,16611],[100,16693],[100,16782],[100,16872],[100,16960],[100,17050],[100,17141],[100,17228],[100,17309],[100,17396],[100,17486],[100,17578],[100,17661],[100,17746],[100,17829],[100,17910],[100,17994],[100,18083],[100,18176],[100,18260],[100,18346],[100,18429],[100,18519],[100,18609],[100,18701],[100,18794],[100,18879],[100,18968],[100,19061],[100,19145],[100,19228],[100,19321],[100,19410],[100,19493],[100,19574],[100,19662],[100,19747],[100,19828],[100,19919],[100,20011],[100,20094],[100,20179],[100,20262],[100,20346]]",1,0,726.3031,730.7891,99.5194912,3.5187,"[{""rating"":99.51949119567871,""responseTime"":3.518699999999285}]",space,3.9392,,730.7891,Half the time,50,730.7947,,,[],,0,4,4,4,1,audio/Narrative7Situation4.wav,audio/Narrative8Situation4.wav,audio/Narrative5Situation4.wav,audio/Narrative6Situation4.wav,3,3,1,2,,,,,,,,,,,,,,,,,,,,,,,,,,,,,,,,,,,,,,,
,,,,,,62c84ca82b03c9aedbca4a2a,2024-05-13_11h49.07.728,group3.1-3.2-social-tom,2023.2.2,MacIntel,59.88023952,65c5074098b851296ff0b7ed,6642359d241076e68d03d65c,,,,,,,,,,,,,,,,,,,,,,,,,,,,,730.795,2,audio/Narrative5Situation5.wav,735.8069,,735.8071,751.2481,"[[99.8,883],[100,973],[100,1064],[100,1153],[100,1234],[100,1317],[100,1402],[100,1492],[100,1584],[100,1669],[100,1755],[100,1837],[100,1929],[100,2018],[100,2101],[100,2185],[100,2269],[100,2363],[100,2451],[100,2535],[100,2618],[100,2702],[100,2785],[100,2868],[100,2951],[100,3034],[100,3119],[100,3200],[100,3285],[100,3369],[100,3452],[100,3535],[100,3619],[100,3701],[100,3786],[100,3869],[100,3951],[100,4034],[100,4119],[100,4202],[100,4285],[100,4375],[100,4469],[100,4553],[100,4636],[100,4718],[100,4804],[100,4886],[100,4971],[100,5052],[100,5136],[100,5220],[100,5314],[100,5402],[100,5487],[100,5569],[100,5654],[100,5748],[100,5836],[100,5919],[100,6002],[100,6086],[100,6168],[100,6254],[100,6342],[100,6436],[100,6520],[100,6603],[100,6686],[100,6769],[100,6854],[100,6936],[100,7020],[100,7104],[100,7187],[100,7270],[100,7353],[100,7436],[100,7521],[100,7603],[100,7687],[100,7771],[100,7854],[100,7937],[100,8021],[100,8109],[100,8202],[100,8288],[100,8380],[100,8468],[100,8555],[100,8639],[100,8732],[100,8821],[100,8904],[100,8988],[100,9071],[100,9156],[100,9249],[100,9337],[100,9421],[100,9506],[100,9594],[100,9687],[100,9771],[100,9856],[100,9938],[100,10022],[100,10104],[100,10188],[100,10273],[100,10362],[100,10453],[100,10539],[100,10621],[100,10705],[100,10788],[100,10870],[100,10956],[100,11037],[100,11122],[100,11207],[100,11289],[100,11372],[100,11453],[100,11538],[100,11622],[100,11707],[100,11794],[100,11890],[100,11978],[100,12071],[100,12156],[100,12239],[100,12329],[100,12422],[100,12506],[100,12590],[100,12673],[100,12756],[100,12840],[100,12921],[100,13008],[100,13112],[100,13216],[100,13307],[100,13390],[100,13473],[100,13556],[100,13639],[100,13724],[100,13807],[100,13894],[100,13988],[100,14073],[100,14156],[100,14242],[100,14323],[100,14413],[100,14507],[100,14592],[100,14689],[100,14782],[100,14871],[100,14960],[100,15041],[100,15125],[100,15207],[100,15292],[100,15374]]",1,0,751.2485,754.7217,99.14409637,2.114,"[{""rating"":99.14409637451172,""responseTime"":2.1140000000000327}]",space,2.9268,,754.7217,Not at all,0,754.733,,,[],,0,5,5,5,1,audio/Narrative7Situation5.wav,audio/Narrative8Situation5.wav,audio/Narrative5Situation5.wav,audio/Narrative6Situation5.wav,5,2,5,2,,,,,,,,,,,,,,,,,,,,,,,,,,,,,,,,,,,,,,,
,,,,,,62c84ca82b03c9aedbca4a2a,2024-05-13_11h49.07.728,group3.1-3.2-social-tom,2023.2.2,MacIntel,59.88023952,65c5074098b851296ff0b7ed,6642359d241076e68d03d65c,,,,,,,,,,,,,,,,,,,,,,,,,,,,,754.7335,2,audio/Narrative5Situation6.wav,757.7486,,757.7488,763.4532,"[[98.7,1475],[98.1,1574],[98.1,1660],[98.4,1754],[100,1857],[100,1953],[100,2037],[100,2123],[100,2215],[100,2300],[100,2387],[100,2475],[100,2565],[100,2654],[100,2737],[100,2820],[100,2904],[100,2986],[100,3071],[100,3154],[100,3237],[100,3319],[100,3404],[100,3488],[100,3573],[100,3655],[100,3738],[100,3819],[100,3905],[100,3987],[100,4068],[100,4155],[100,4236],[100,4321],[100,4405],[100,4500],[100,4587],[100,4670],[100,4754],[100,4836],[100,4921],[100,5004],[100,5086],[100,5171],[100,5259],[100,5352],[100,5438],[100,5520],[100,5605],[100,5687]]",1,0,763.4533,766.7934,99.59687233,2.1513,"[{""rating"":99.59687232971191,""responseTime"":2.1512999999997646}]",space,2.8051,,766.7936,Not at all,0,766.7969,,,[],,0,6,6,6,1,audio/Narrative7Situation6.wav,audio/Narrative8Situation6.wav,audio/Narrative5Situation6.wav,audio/Narrative6Situation6.wav,3,2,3,2,,,,,,,,,,,,,,,,,,,,,,,,,,,,,,,,,,,,,,,
,,,,,,62c84ca82b03c9aedbca4a2a,2024-05-13_11h49.07.728,group3.1-3.2-social-tom,2023.2.2,MacIntel,59.88023952,65c5074098b851296ff0b7ed,6642359d241076e68d03d65c,,,,,,,,,,,,,,,,,,,,,,,,,,,,,766.7979,2,audio/Narrative5Situation7.wav,770.8044,,770.8046,791.8478,"[[99.5,875],[98.5,975],[98.3,1067],[98.3,1159],[98.4,1257],[99.7,1356],[100,1455],[100,1542],[100,1636],[100,1720],[100,1804],[100,1888],[100,1974],[100,2060],[100,2150],[100,2237],[100,2320],[100,2403],[100,2489],[100,2584],[100,2669],[100,2752],[100,2835],[100,2921],[100,3004],[100,3096],[100,3188],[100,3272],[100,3354],[100,3437],[100,3520],[100,3604],[100,3686],[100,3770],[100,3855],[100,3938],[100,4020],[100,4104],[100,4188],[100,4271],[100,4354],[100,4438],[100,4522],[100,4605],[100,4689],[100,4771],[100,4856],[100,4941],[100,5024],[100,5103],[100,5189],[100,5274],[100,5351],[100,5439],[100,5523],[100,5606],[100,5688],[100,5772],[100,5856],[100,5939],[100,6022],[100,6105],[100,6189],[100,6278],[100,6371],[100,6455],[100,6536],[100,6622],[100,6704],[100,6788],[100,6873],[100,6955],[100,7039],[100,7122],[100,7205],[100,7289],[100,7370],[100,7453],[100,7539],[100,7622],[100,7706],[100,7789],[100,7873],[100,7956],[100,8038],[100,8123],[100,8206],[100,8289],[100,8374],[100,8467],[100,8555],[100,8639],[100,8722],[100,8809],[100,8900],[100,8988],[100,9072],[100,9157],[100,9238],[100,9323],[100,9407],[100,9489],[100,9572],[100,9664],[100,9754],[100,9841],[100,9924],[100,10007],[100,10091],[100,10173],[100,10258],[100,10348],[100,10437],[100,10524],[100,10608],[100,10697],[100,10791],[100,10875],[100,10962],[100,11044],[100,11126],[100,11209],[100,11299],[100,11385],[100,11474],[100,11557],[100,11639],[100,11725],[100,11807],[100,11891],[100,11976],[100,12059],[100,12142],[100,12225],[100,12311],[100,12398],[100,12491],[100,12574],[100,12659],[100,12739],[100,12825],[100,12909],[100,12991],[100,13073],[100,13159],[100,13241],[100,13324],[100,13409],[100,13492],[100,13575],[100,13659],[100,13742],[100,13826],[100,13912],[100,13997],[100,14080],[100,14173],[100,14261],[100,14348],[100,14442],[100,14528],[100,14617],[100,14709],[100,14791],[100,14876],[100,14960],[100,15044],[100,15125],[100,15207],[100,15296],[100,15390],[100,15475],[100,15562],[100,15653],[100,15742],[100,15829],[100,15918],[100,16009],[100,16093],[100,16178],[100,16271],[100,16360],[100,16443],[100,16529],[100,16622],[100,16709],[100,16795],[100,16877],[100,16960],[100,17045],[100,17134],[100,17222],[100,17310],[100,17401],[100,17490],[100,17577],[100,17662],[100,17748],[100,17838],[100,17928],[100,18010],[100,18096],[100,18185],[100,18274],[100,18361],[100,18442],[100,18528],[100,18611],[100,18695],[100,18778],[100,18863],[100,18945],[100,19031],[100,19121],[100,19212],[100,19295],[100,19386],[100,19478],[100,19561],[100,19646],[100,19730],[100,19812],[100,19898],[100,19990],[100,20076],[100,20161],[100,20246],[100,20328],[100,20410],[100,20502],[100,20595],[100,20679],[100,20761],[100,20845],[100,20930],[100,21025]]",1,0,791.8483,795.3506,99.66348648,2.6439,"[{""rating"":99.66348648071289,""responseTime"":2.643899999999462}]",space,2.9628,,795.3507,Not at all,0,795.3541,,,[],,0,7,7,7,1,audio/Narrative7Situation7.wav,audio/Narrative8Situation7.wav,audio/Narrative5Situation7.wav,audio/Narrative6Situation7.wav,5,3,4,5,,,,,,,,,,,,,,,,,,,,,,,,,,,,,,,,,,,,,,,
,,,,,,62c84ca82b03c9aedbca4a2a,2024-05-13_11h49.07.728,group3.1-3.2-social-tom,2023.2.2,MacIntel,59.88023952,65c5074098b851296ff0b7ed,6642359d241076e68d03d65c,,,,,,,,,,,,,,,,,,,,,,,,,,,,,795.3544,2,audio/Narrative5Situation8.wav,798.3694,,798.3695,807.1923,"[[99.6,1131],[99.3,1231],[99.3,1320],[99.2,1414],[99.2,1498],[99.2,1596],[99.2,1685],[99.3,1770],[99.5,1867],[99.8,1957],[99.9,2049],[99.9,2134],[99.9,2214],[99.9,2302],[99.9,2385],[99.9,2468],[99.9,2553],[99.9,2636],[99.9,2719],[99.9,2801],[99.9,2886],[99.9,2975],[99.9,3067],[99.9,3150],[99.9,3235],[99.9,3319],[99.9,3403],[99.9,3486],[99.9,3579],[99.9,3665],[99.9,3752],[99.9,3835],[99.9,3920],[99.9,4005],[99.9,4086],[99.9,4169],[99.9,4260],[99.9,4352],[99.9,4436],[99.9,4519],[99.9,4602],[99.9,4687],[99.9,4769],[99.9,4853],[99.9,4943],[99.9,5036],[99.9,5119],[99.9,5204],[99.9,5291],[99.9,5383],[99.9,5470],[99.9,5554],[99.9,5637],[99.9,5720],[99.9,5803],[99.9,5887],[99.9,5970],[99.9,6052],[99.9,6137],[99.9,6219],[99.9,6303],[99.9,6386],[99.9,6472],[99.9,6567],[99.9,6653],[99.9,6736],[99.9,6820],[99.9,6904],[99.9,6986],[99.9,7069],[99.9,7154],[99.9,7239],[99.9,7331],[99.9,7421],[99.9,7518],[99.9,7604],[99.9,7687],[99.9,7770],[99.9,7855],[99.9,7950],[99.9,8037],[99.9,8122],[99.9,8205],[99.9,8293],[99.9,8386],[99.9,8470],[99.9,8554],[99.9,8637],[99.9,8722],[99.9,8804]]",1,0,807.1925,812.9595,99.24969673,3.0152,"[{""rating"":99.24969673156738,""responseTime"":3.015199999999254}]",space,5.2287,,812.9598,Not at all,0,812.9631,,,[],,0,8,8,8,1,audio/Narrative7Situation8.wav,audio/Narrative8Situation8.wav,audio/Narrative5Situation8.wav,audio/Narrative6Situation8.wav,2,3,3,5,,,,,,,,,,,,,,,,,,,,,,,,,,,,,,,,,,,,,,,
,,,,,,62c84ca82b03c9aedbca4a2a,2024-05-13_11h49.07.728,group3.1-3.2-social-tom,2023.2.2,MacIntel,59.88023952,65c5074098b851296ff0b7ed,6642359d241076e68d03d65c,,,,,,,,,,,,,,,,,,,,,,,,,,,,,812.9635,2,audio/Narrative5Situation9.wav,815.9791,,815.9792,855.5465,"[[98.5,896],[97.7,996],[97.7,1083],[99.6,1173],[100,1277],[100,1367],[100,1449],[100,1538],[100,1632],[100,1722],[100,1815],[100,1904],[100,1996],[100,2083],[100,2167],[100,2250],[100,2344],[100,2432],[100,2518],[100,2600],[100,2685],[100,2768],[100,2850],[100,2934],[100,3018],[100,3100],[100,3186],[100,3278],[100,3366],[100,3451],[100,3534],[100,3618],[100,3702],[100,3784],[100,3868],[100,3951],[100,4038],[100,4132],[100,4218],[100,4301],[100,4388],[100,4473],[100,4564],[100,4649],[100,4742],[100,4835],[100,4919],[100,5008],[100,5100],[100,5184],[100,5270],[100,5353],[100,5436],[100,5518],[100,5602],[100,5687],[100,5769],[100,5851],[100,5937],[100,6028],[100,6118],[100,6202],[100,6288],[100,6380],[100,6469],[100,6552],[100,6637],[100,6722],[100,6804],[100,6889],[100,6974],[100,7063],[100,7151],[100,7238],[100,7324],[100,7415],[100,7501],[100,7584],[100,7670],[100,7752],[100,7837],[100,7926],[100,8016],[100,8103],[100,8186],[100,8272],[100,8368],[100,8453],[100,8538],[100,8625],[100,8717],[100,8804],[100,8889],[100,8980],[100,9070],[100,9153],[100,9238],[100,9320],[100,9402],[100,9487],[100,9576],[100,9669],[100,9755],[100,9836],[100,9921],[100,10004],[100,10088],[100,10179],[100,10272],[100,10355],[100,10439],[100,10530],[100,10620],[100,10704],[100,10794],[100,10887],[100,10970],[100,11055],[100,11138],[100,11221],[100,11304],[100,11389],[100,11476],[100,11571],[100,11655],[100,11743],[100,11839],[100,11922],[100,12010],[100,12101],[100,12189],[100,12269],[100,12353],[100,12439],[100,12523],[100,12605],[100,12689],[100,12773],[100,12867],[100,12960],[100,13090],[100,13174],[100,13255],[100,13339],[100,13421],[100,13503],[100,13589],[100,13673],[100,13756],[100,13838],[100,13925],[100,14017],[100,14106],[100,14189],[100,14273],[100,14355],[100,14437],[100,14522],[100,14607],[100,14697],[100,14789],[100,14877],[100,14969],[100,15057],[100,15139],[100,15224],[100,15308],[100,15389],[100,15481],[100,15572],[100,15656],[100,15741],[100,15830],[100,15920],[100,16009],[100,16102],[100,16190],[100,16286],[100,16373],[100,16459],[100,16550],[100,16636],[100,16723],[100,16805],[100,16891],[100,16972],[100,17057],[100,17146],[100,17235],[100,17324],[100,17405],[100,17490],[100,17574],[100,17658],[100,17749],[100,17842],[100,17925],[100,18007],[100,18092],[100,18175],[100,18258],[100,18347],[100,18440],[100,18524],[100,18607],[100,18695],[100,18782],[100,18874],[100,18958],[100,19044],[100,19135],[100,19225],[100,19311],[100,19399],[100,19488],[100,19575],[100,19660],[100,19746],[100,19840],[100,19926],[100,20012],[100,20101],[100,20190],[100,20275],[100,20359],[100,20443],[100,20525],[100,20609],[100,20693],[100,20776],[100,20857],[100,20949],[100,21042],[100,21127],[100,21210],[100,21296],[100,21389],[100,21475],[100,21560],[100,21645],[100,21737],[100,21825],[100,21910],[100,21997],[100,22088],[100,22176],[100,22261],[100,22346],[100,22440],[100,22529],[100,22619],[100,22709],[100,22795],[100,22877],[100,22961],[100,23054],[100,23143],[100,23224],[100,23309],[100,23393],[100,23478],[100,23559],[100,23644],[100,23729],[100,23819],[100,23911],[100,23995],[100,24077],[100,24161],[100,24244],[100,24327],[100,24410],[100,24491],[100,24577],[100,24662],[100,24748],[100,24840],[100,24928],[100,25010],[100,25094],[100,25178],[100,25262],[100,25350],[100,25441],[100,25528],[100,25612],[100,25694],[100,25778],[100,25861],[100,25944],[100,26028],[100,26111],[100,26194],[100,26278],[100,26364],[100,26458],[100,26544],[100,26628],[100,26712],[100,26794],[100,26880],[100,26968],[100,27061],[100,27143],[100,27229],[100,27313],[100,27408],[100,27495],[100,27578],[100,27662],[100,27751],[100,27844],[100,27928],[100,28013],[100,28098],[100,28191],[100,28278],[100,28363],[100,28446],[100,28543],[100,28631],[100,28723],[100,28813],[100,28894],[100,28977],[100,29063],[100,29148],[100,29241],[100,29330],[100,29414],[100,29507],[100,29594],[100,29680],[100,29764],[100,29847],[100,29930],[100,30010],[100,30097],[100,30180],[100,30264],[100,30348],[100,30443],[100,30531],[100,30613],[100,30697],[100,30781],[100,30864],[100,30947],[100,31031],[100,31113],[100,31197],[100,31281],[100,31363],[100,31445],[100,31530],[100,31613],[100,31699],[100,31787],[100,31881],[100,31962],[100,32045],[100,32129],[100,32214],[100,32298],[100,32382],[100,32472],[100,32564],[100,32647],[100,32733],[100,32819],[100,32912],[100,32998],[100,33082],[100,33166],[100,33256],[100,33348],[100,33432],[100,33516],[100,33598],[100,33686],[100,33766],[100,33849],[100,33937],[100,34026],[100,34114],[100,34196],[100,34283],[100,34366],[100,34449],[100,34532],[100,34621],[100,34716],[100,34798],[100,34885],[100,34977],[100,35065],[100,35148],[100,35234],[100,35316],[100,35403],[100,35494],[100,35582],[100,35666],[100,35749],[100,35834],[100,35918],[100,36010],[100,36095],[100,36183],[100,36268],[100,36351],[100,36433],[100,36516],[100,36600],[100,36683],[100,36767],[100,36849],[100,36935],[100,37017],[100,37099],[100,37184],[100,37267],[100,37351],[100,37431],[100,37516],[100,37602],[100,37695],[100,37783],[100,37868],[100,37957],[100,38050],[100,38133],[100,38216],[100,38301],[100,38384],[100,38467],[100,38550],[100,38643],[100,38734],[100,38816],[100,38901],[100,38992],[100,39084],[100,39169],[100,39263],[100,39349],[100,39436],[100,39526]]",1,0,855.547,858.9247,99.57422256,1.7359,"[{""rating"":99.57422256469727,""responseTime"":1.7359000000003562}]",space,2.8409,,858.9249,Not at all,0,858.9288,,,[],,0,9,9,9,1,audio/Narrative7Situation9.wav,audio/Narrative8Situation9.wav,audio/Narrative5Situation9.wav,audio/Narrative6Situation9.wav,2,3,3,4,,,,,,,,,,,,,,,,,,,,,,,,,,,,,,,,,,,,,,,
,,,,,,62c84ca82b03c9aedbca4a2a,2024-05-13_11h49.07.728,group3.1-3.2-social-tom,2023.2.2,MacIntel,59.88023952,65c5074098b851296ff0b7ed,6642359d241076e68d03d65c,,,,,,,,,,,,,,,,,,,,,,,,,,,,,858.9293,2,audio/Narrative6Situation1.wav,860.9329,,860.9333,887.515,"[[99.5,1301],[99.3,1401],[99.2,1496],[99,1590],[99,1678],[99.3,1782],[99.7,1888],[99.9,1991],[100,2088],[100,2185],[100,2272],[100,2355],[100,2443],[100,2536],[100,2624],[100,2708],[100,2791],[100,2874],[100,2963],[100,3054],[100,3137],[100,3220],[100,3302],[100,3384],[100,3468],[100,3556],[100,3649],[100,3735],[100,3818],[100,3903],[100,3984],[100,4068],[100,4153],[100,4241],[100,4333],[100,4416],[100,4503],[100,4585],[100,4675],[100,4766],[100,4855],[100,4951],[100,5037],[100,5120],[100,5212],[100,5300],[100,5386],[100,5479],[100,5568],[100,5652],[100,5738],[100,5829],[100,5919],[100,6004],[100,6086],[100,6170],[100,6252],[100,6336],[100,6420],[100,6504],[100,6585],[100,6670],[100,6756],[100,6847],[100,6935],[100,7027],[100,7116],[100,7203],[100,7284],[100,7371],[100,7456],[100,7548],[100,7634],[100,7718],[100,7805],[100,7885],[100,7970],[100,8056],[100,8144],[100,8236],[100,8321],[100,8403],[100,8488],[100,8570],[100,8659],[100,8752],[100,8835],[100,8921],[100,9004],[100,9088],[100,9171],[100,9253],[100,9338],[100,9420],[100,9507],[100,9602],[100,9688],[100,9771],[100,9855],[100,9938],[100,10026],[100,10118],[100,10205],[100,10288],[100,10371],[100,10454],[100,10539],[100,10621],[100,10704],[100,10789],[100,10871],[100,10956],[100,11049],[100,11138],[100,11224],[100,11317],[100,11404],[100,11489],[100,11569],[100,11655],[100,11749],[100,11836],[100,11922],[100,12004],[100,12089],[100,12179],[100,12269],[100,12356],[100,12438],[100,12521],[100,12606],[100,12689],[100,12773],[100,12856],[100,12939],[100,13025],[100,13114],[100,13206],[100,13290],[100,13373],[100,13461],[100,13551],[100,13638],[100,13723],[100,13807],[100,13894],[100,13984],[100,14070],[100,14156],[100,14241],[100,14331],[100,14423],[100,14508],[100,14597],[100,14689],[100,14772],[100,14865],[100,14957],[100,15038],[100,15122],[100,15208],[100,15290],[100,15374],[100,15458],[100,15540],[100,15624],[100,15706],[100,15793],[100,15886],[100,15972],[100,16059],[100,16142],[100,16227],[100,16314],[100,16405],[100,16491],[100,16576],[100,16664],[100,16753],[100,16840],[100,16924],[100,17012],[100,17102],[100,17191],[100,17274],[100,17359],[100,17446],[100,17532],[100,17615],[100,17701],[100,17790],[100,17876],[100,17962],[100,18049],[100,18138],[100,18225],[100,18309],[100,18393],[100,18476],[100,18563],[100,18658],[100,18741],[100,18825],[100,18909],[100,18992],[100,19077],[100,19163],[100,19257],[100,19343],[100,19426],[100,19509],[100,19595],[100,19688],[100,19776],[100,19859],[100,19943],[100,20027],[100,20122],[100,20207],[100,20292],[100,20376],[100,20460],[100,20542],[100,20626],[100,20710],[100,20792],[100,20877],[100,20966],[100,21059],[100,21142],[100,21227],[100,21311],[100,21394],[100,21487],[100,21577],[100,21657],[100,21744],[100,21827],[100,21910],[100,21994],[100,22078],[100,22161],[100,22245],[100,22333],[100,22423],[100,22510],[100,22595],[100,22678],[100,22761],[100,22843],[100,22931],[100,23025],[100,23108],[100,23192],[100,23275],[100,23360],[100,23444],[100,23526],[100,23611],[100,23693],[100,23777],[100,23858],[100,23945],[100,24028],[100,24111],[100,24194],[100,24280],[100,24376],[100,24461],[100,24546],[100,24629],[100,24725],[100,24811],[100,24897],[100,24989],[100,25080],[100,25162],[100,25247],[100,25337],[100,25427],[100,25512],[100,25599],[100,25690],[100,25778],[100,25867],[100,25959],[100,26045],[100,26131],[100,26225],[100,26313],[100,26398],[100,26480],[100,26563]]",1,0,887.5158,891.3484,98.18202019,1.5966,"[{""rating"":98.18202018737793,""responseTime"":1.5965999999996257}]",space,3.2862,,891.3486,Not at all,0,891.3522,,,[],,0,10,10,10,1,audio/Narrative8Situation1.wav,audio/Narrative7Situation1.wav,audio/Narrative6Situation1.wav,audio/Narrative5Situation1.wav,5,2,2,5,,,,,,,,,,,,,,,,,,,,,,,,,,,,,,,,,,,,,,,
,,,,,,62c84ca82b03c9aedbca4a2a,2024-05-13_11h49.07.728,group3.1-3.2-social-tom,2023.2.2,MacIntel,59.88023952,65c5074098b851296ff0b7ed,6642359d241076e68d03d65c,,,,,,,,,,,,,,,,,,,,,,,,,,,,,891.3527,2,audio/Narrative6Situation2.wav,894.3669,,894.3671,922.8803,"[[98,908],[97.9,1000],[97.9,1082],[97.9,1172],[99.6,1269],[100,1370],[100,1458],[100,1550],[100,1633],[100,1713],[100,1804],[100,1892],[100,1981],[100,2071],[100,2158],[100,2248],[100,2333],[100,2416],[100,2501],[100,2590],[100,2679],[100,2768],[100,2850],[100,2940],[100,3032],[100,3117],[100,3201],[100,3283],[100,3366],[100,3451],[100,3546],[100,3634],[100,3717],[100,3801],[100,3883],[100,3967],[100,4052],[100,4138],[100,4221],[100,4315],[100,4403],[100,4496],[100,4585],[100,4666],[100,4754],[100,4846],[100,4933],[100,5017],[100,5102],[100,5185],[100,5269],[100,5356],[100,5450],[100,5535],[100,5613],[100,5700],[100,5785],[100,5869],[100,5952],[100,6035],[100,6118],[100,6202],[100,6284],[100,6370],[100,6452],[100,6536],[100,6625],[100,6715],[100,6801],[100,6887],[100,6977],[100,7069],[100,7149],[100,7236],[100,7325],[100,7418],[100,7501],[100,7587],[100,7679],[100,7770],[100,7853],[100,7936],[100,8018],[100,8103],[100,8185],[100,8271],[100,8362],[100,8453],[100,8538],[100,8628],[100,8720],[100,8803],[100,8899],[100,8985],[100,9070],[100,9155],[100,9247],[100,9336],[100,9423],[100,9514],[100,9603],[100,9685],[100,9778],[100,9870],[100,9953],[100,10037],[100,10119],[100,10205],[100,10287],[100,10376],[100,10466],[100,10554],[100,10639],[100,10733],[100,10817],[100,10903],[100,10988],[100,11072],[100,11158],[100,11252],[100,11338],[100,11421],[100,11505],[100,11589],[100,11677],[100,11768],[100,11854],[100,11942],[100,12032],[100,12122],[100,12203],[100,12285],[100,12373],[100,12468],[100,12554],[100,12644],[100,12738],[100,12820],[100,12904],[100,12989],[100,13072],[100,13155],[100,13237],[100,13328],[100,13422],[100,13507],[100,13600],[100,13690],[100,13771],[100,13856],[100,13946],[100,14037],[100,14122],[100,14201],[100,14290],[100,14370],[100,14455],[100,14541],[100,14634],[100,14722],[100,14808],[100,14894],[100,14985],[100,15074],[100,15167],[100,15256],[100,15339],[100,15423],[100,15506],[100,15588],[100,15674],[100,15756],[100,15840],[100,15924],[100,16006],[100,16093],[100,16180],[100,16271],[100,16356],[100,16451],[100,16540],[100,16622],[100,16706],[100,16791],[100,16876],[100,16964],[100,17056],[100,17142],[100,17224],[100,17306],[100,17391],[100,17476],[100,17567],[100,17657],[100,17742],[100,17828],[100,17918],[100,18011],[100,18103],[100,18190],[100,18275],[100,18358],[100,18441],[100,18523],[100,18607],[100,18692],[100,18776],[100,18868],[100,18959],[100,19053],[100,19141],[100,19226],[100,19314],[100,19403],[100,19492],[100,19575],[100,19662],[100,19755],[100,19839],[100,19924],[100,20015],[100,20107],[100,20192],[100,20277],[100,20360],[100,20441],[100,20531],[100,20622],[100,20708],[100,20794],[100,20883],[100,20973],[100,21059],[100,21139],[100,21226],[100,21318],[100,21408],[100,21492],[100,21574],[100,21660],[100,21742],[100,21826],[100,21912],[100,21995],[100,22077],[100,22173],[100,22258],[100,22343],[100,22427],[100,22522],[100,22609],[100,22693],[100,22775],[100,22859],[100,22942],[100,23025],[100,23108],[100,23190],[100,23275],[100,23361],[100,23447],[100,23538],[100,23625],[100,23711],[100,23794],[100,23878],[100,23961],[100,24055],[100,24144],[100,24226],[100,24310],[100,24394],[100,24478],[100,24573],[100,24656],[100,24744],[100,24834],[100,24927],[100,25010],[100,25096],[100,25187],[100,25277],[100,25363],[100,25454],[100,25543],[100,25627],[100,25717],[100,25803],[100,25893],[100,25983],[100,26075],[100,26161],[100,26246],[100,26332],[100,26423],[100,26511],[100,26595],[100,26689],[100,26778],[100,26860],[100,26945],[100,27029],[100,27117],[100,27211],[100,27296],[100,27378],[100,27462],[100,27551],[100,27643],[100,27727],[100,27809],[100,27895],[100,27976],[100,28062],[100,28148],[100,28241],[100,28328],[100,28412],[100,28496]]",1,0,922.8807,926.7712,99.8354435,1.4172,"[{""rating"":99.8354434967041,""responseTime"":1.4172000000002072}]",space,3.3491,,926.7713,Not at all,0,926.7764,,,[],,0,11,11,11,1,audio/Narrative8Situation2.wav,audio/Narrative7Situation2.wav,audio/Narrative6Situation2.wav,audio/Narrative5Situation2.wav,3,3,3,3,,,,,,,,,,,,,,,,,,,,,,,,,,,,,,,,,,,,,,,
,,,,,,62c84ca82b03c9aedbca4a2a,2024-05-13_11h49.07.728,group3.1-3.2-social-tom,2023.2.2,MacIntel,59.88023952,65c5074098b851296ff0b7ed,6642359d241076e68d03d65c,,,,,,,,,,,,,,,,,,,,,,,,,,,,,926.7776,2,audio/Narrative6Situation3.wav,931.7823,,931.7826,944.3904,"[[99.9,884],[99.9,980],[99.9,1069],[99.7,1163],[99.7,1250],[99.7,1335],[99.7,1422],[99.7,1514],[99.7,1605],[99.8,1700],[100,1794],[100,1881],[100,1972],[100,2060],[100,2145],[100,2238],[100,2327],[100,2415],[100,2502],[100,2585],[100,2668],[100,2751],[100,2836],[100,2919],[100,3011],[100,3103],[100,3186],[100,3272],[100,3355],[100,3437],[100,3522],[100,3616],[100,3701],[100,3787],[100,3882],[100,3969],[100,4052],[100,4136],[100,4219],[100,4305],[100,4398],[100,4487],[100,4569],[100,4653],[100,4739],[100,4832],[100,4919],[100,5008],[100,5101],[100,5195],[100,5286],[100,5370],[100,5454],[100,5536],[100,5621],[100,5705],[100,5794],[100,5887],[100,5968],[100,6054],[100,6138],[100,6227],[100,6310],[100,6401],[100,6492],[100,6592],[100,6668],[100,6751],[100,6837],[100,6921],[100,7009],[100,7100],[100,7189],[100,7281],[100,7370],[100,7457],[100,7546],[100,7632],[100,7723],[100,7806],[100,7889],[100,7979],[100,8072],[100,8154],[100,8237],[100,8329],[100,8420],[100,8507],[100,8600],[100,8689],[100,8772],[100,8855],[100,8944],[100,9033],[100,9120],[100,9205],[100,9291],[100,9379],[100,9463],[100,9553],[100,9640],[100,9722],[100,9805],[100,9892],[100,9984],[100,10072],[100,10157],[100,10248],[100,10339],[100,10423],[100,10511],[100,10605],[100,10688],[100,10773],[100,10866],[100,10957],[100,11039],[100,11128],[100,11222],[100,11306],[100,11387],[100,11474],[100,11556],[100,11639],[100,11723],[100,11812],[100,11906],[100,11988],[100,12074],[100,12158],[100,12247],[100,12336],[100,12429],[100,12521],[100,12607]]",1,0,944.3905,947.1964,99.87924576,1.708,"[{""rating"":99.87924575805664,""responseTime"":1.7080000000000837}]",space,2.2703,,947.1969,Half the time,50,947.2071,,,[],,0,12,12,12,1,audio/Narrative8Situation3.wav,audio/Narrative7Situation3.wav,audio/Narrative6Situation3.wav,audio/Narrative5Situation3.wav,4,8,5,3,,,,,,,,,,,,,,,,,,,,,,,,,,,,,,,,,,,,,,,
,,,,,,62c84ca82b03c9aedbca4a2a,2024-05-13_11h49.07.728,group3.1-3.2-social-tom,2023.2.2,MacIntel,59.88023952,65c5074098b851296ff0b7ed,6642359d241076e68d03d65c,,,,,,,,,,,,,,,,,,,,,,,,,,,,,947.2074,2,audio/Narrative6Situation4.wav,949.2084,,949.2085,961.8425,"[[99.8,1150],[99.9,1236],[99.9,1338],[99.8,1434],[99.8,1518],[99.8,1606],[99.9,1697],[100,1788],[100,1884],[100,1971],[100,2061],[100,2152],[100,2234],[100,2316],[100,2401],[100,2483],[100,2567],[100,2650],[100,2739],[100,2829],[100,2918],[100,3004],[100,3099],[100,3185],[100,3272],[100,3366],[100,3452],[100,3534],[100,3619],[100,3702],[100,3787],[100,3882],[100,3968],[100,4052],[100,4136],[100,4230],[100,4319],[100,4407],[100,4495],[100,4584],[100,4667],[100,4751],[100,4835],[100,4919],[100,5003],[100,5087],[100,5182],[100,5269],[100,5354],[100,5450],[100,5533],[100,5620],[100,5715],[100,5803],[100,5887],[100,5979],[100,6069],[100,6154],[100,6244],[100,6326],[100,6410],[100,6497],[100,6586],[100,6677],[100,6769],[100,6864],[100,6953],[100,7036],[100,7121],[100,7203],[100,7286],[100,7370],[100,7453],[100,7538],[100,7632],[100,7721],[100,7808],[100,7903],[100,7987],[100,8077],[100,8171],[100,8254],[100,8336],[100,8422],[100,8504],[100,8590],[100,8683],[100,8770],[100,8854],[100,8938],[100,9025],[100,9119],[100,9204],[100,9291],[100,9385],[100,9471],[100,9556],[100,9652],[100,9739],[100,9821],[100,9905],[100,9992],[100,10086],[100,10173],[100,10255],[100,10338],[100,10421],[100,10502],[100,10588],[100,10674],[100,10767],[100,10854],[100,10938],[100,11022],[100,11108],[100,11201],[100,11289],[100,11375],[100,11461],[100,11544],[100,11634],[100,11722],[100,11805],[100,11889],[100,11970],[100,12054],[100,12139],[100,12228],[100,12319],[100,12407],[100,12488],[100,12576]]",1,0,961.8426,965.1841,99.28104401,1.7155,"[{""rating"":99.28104400634766,""responseTime"":1.71550000000002}]",space,2.8026,,965.1842,All the time,100,965.1896,,,[],,0,13,13,13,1,audio/Narrative8Situation4.wav,audio/Narrative7Situation4.wav,audio/Narrative6Situation4.wav,audio/Narrative5Situation4.wav,3,3,2,1,,,,,,,,,,,,,,,,,,,,,,,,,,,,,,,,,,,,,,,
,,,,,,62c84ca82b03c9aedbca4a2a,2024-05-13_11h49.07.728,group3.1-3.2-social-tom,2023.2.2,MacIntel,59.88023952,65c5074098b851296ff0b7ed,6642359d241076e68d03d65c,,,,,,,,,,,,,,,,,,,,,,,,,,,,,965.19,2,audio/Narrative6Situation5.wav,967.1989,,967.1991,975.1559,"[[99.6,962],[99.6,1057],[99.6,1147],[99.6,1241],[99.6,1335],[99.6,1424],[99.7,1515],[100,1617],[100,1710],[100,1800],[100,1887],[100,1980],[100,2067],[100,2152],[100,2236],[100,2318],[100,2403],[100,2486],[100,2573],[100,2667],[100,2751],[100,2837],[100,2924],[100,3018],[100,3100],[100,3186],[100,3270],[100,3364],[100,3453],[100,3536],[100,3625],[100,3714],[100,3801],[100,3883],[100,3971],[100,4055],[100,4143],[100,4234],[100,4321],[100,4404],[100,4486],[100,4572],[100,4662],[100,4753],[100,4838],[100,4925],[100,5018],[100,5102],[100,5187],[100,5275],[100,5369],[100,5454],[100,5538],[100,5630],[100,5718],[100,5805],[100,5894],[100,5984],[100,6071],[100,6158],[100,6246],[100,6337],[100,6420],[100,6516],[100,6605],[100,6686],[100,6771],[100,6859],[100,6945],[100,7036],[100,7121],[100,7208],[100,7303],[100,7388],[100,7474],[100,7565],[100,7653],[100,7738],[100,7829],[100,7922]]",1,0,975.1561,978.3972,99.88754272,1.2966,"[{""rating"":99.88754272460938,""responseTime"":1.2966000000005806}]",space,2.6904,,978.3973,Not at all,0,978.4074,,,[],,0,14,14,14,1,audio/Narrative8Situation5.wav,audio/Narrative7Situation5.wav,audio/Narrative6Situation5.wav,audio/Narrative5Situation5.wav,2,5,2,5,,,,,,,,,,,,,,,,,,,,,,,,,,,,,,,,,,,,,,,
,,,,,,62c84ca82b03c9aedbca4a2a,2024-05-13_11h49.07.728,group3.1-3.2-social-tom,2023.2.2,MacIntel,59.88023952,65c5074098b851296ff0b7ed,6642359d241076e68d03d65c,,,,,,,,,,,,,,,,,,,,,,,,,,,,,978.4078,2,audio/Narrative6Situation6.wav,980.4209,,980.421,991.5072,"[[99.5,874],[99.4,964],[99.4,1053],[99.4,1137],[99.7,1232],[100,1330],[100,1417],[100,1504],[100,1585],[100,1670],[100,1753],[100,1841],[100,1928],[100,2016],[100,2102],[100,2196],[100,2287],[100,2371],[100,2454],[100,2539],[100,2636],[100,2720],[100,2803],[100,2887],[100,2971],[100,3055],[100,3136],[100,3221],[100,3303],[100,3387],[100,3470],[100,3554],[100,3637],[100,3721],[100,3804],[100,3887],[100,3971],[100,4053],[100,4138],[100,4221],[100,4305],[100,4400],[100,4488],[100,4572],[100,4654],[100,4738],[100,4820],[100,4904],[100,4992],[100,5086],[100,5171],[100,5254],[100,5340],[100,5435],[100,5521],[100,5606],[100,5694],[100,5775],[100,5861],[100,5946],[100,6038],[100,6122],[100,6207],[100,6290],[100,6379],[100,6472],[100,6554],[100,6639],[100,6726],[100,6816],[100,6906],[100,6990],[100,7071],[100,7156],[100,7239],[100,7329],[100,7419],[100,7505],[100,7590],[100,7671],[100,7754],[100,7838],[100,7923],[100,8006],[100,8090],[100,8183],[100,8272],[100,8356],[100,8439],[100,8524],[100,8620],[100,8706],[100,8789],[100,8873],[100,8956],[100,9040],[100,9124],[100,9205],[100,9290],[100,9374],[100,9456],[100,9539],[100,9623],[100,9712],[100,9805],[100,9890],[100,9975],[100,10071],[100,10163],[100,10253],[100,10341],[100,10424],[100,10509],[100,10590],[100,10682],[100,10774],[100,10857],[100,10940],[100,11031]]",1,0,991.5076,996.7779,99.19790268,3.7511,"[{""rating"":99.19790267944336,""responseTime"":3.7511000000006334}]",space,4.7277,,996.778,Half the time,50,996.783,,,[],,0,15,15,15,1,audio/Narrative8Situation6.wav,audio/Narrative7Situation6.wav,audio/Narrative6Situation6.wav,audio/Narrative5Situation6.wav,2,3,2,3,,,,,,,,,,,,,,,,,,,,,,,,,,,,,,,,,,,,,,,
