exp_question,consent.started,consent.stopped,consentResponse.keys,consentResponse.rt,consentResponse.duration,participantID,date,expName,psychopyVersion,OS,frameRate,STUDY_ID,SESSION_ID,opening1.started,opening1.stopped,keyEndingOpening1.keys,keyEndingOpening1.rt,keyEndingOpening1.duration,volumeAdjust.started,volumeAdjust.stopped,endingAdjust.keys,endingAdjust.rt,endingAdjust.duration,opening2.started,opening2.stopped,keyEndingOpening.keys,keyEndingOpening.rt,keyEndingOpening.duration,mouse.x,mouse.y,mouse.leftButton,mouse.midButton,mouse.rightButton,mouse.time,instructionLoop.thisRepN,instructionLoop.thisTrialN,instructionLoop.thisN,instructionLoop.thisIndex,instructionLoop.ran,readyForAudio.started,readyForAudio.stopped,fixation.started,run,audio_played,fixation.stopped,endPractice.keys,audioPre.started,audioPre.stopped,continuousResponses_audio,continuousSlider.response,continuousSlider.rt,intRating.started,intRating.stopped,intQuestionSlider.response,intQuestionSlider.rt,intQuestionSlider.history,confirmResponse.keys,confirmResponse.rt,confirmResponse.duration,catchQuestion.started,catch_label,catch_value,catchQuestion.stopped,catchQuestionSlider.response,catchQuestionSlider.rt,catchQuestionSlider.history,confirmResponse_2.keys,audioRunLoop.thisRepN,audioRunLoop.thisTrialN,audioRunLoop.thisN,audioRunLoop.thisIndex,audioRunLoop.ran,conditions1_1,conditions2_1,conditions1_2,conditions2_2,dur1_1,dur2_1,dur1_2,dur2_2,endPractice.rt,endPractice.duration,confirmResponse_2.rt,confirmResponse_2.duration,runIntervalBreak.started,runIntervalBreak.stopped,endingBreakKey.keys,endingBreakKey.rt,endingBreakKey.duration,connection.started,connection.stopped,connectionEnding.keys,connectionEnding.rt,connectionEnding.duration,readyForText.started,readyForText.stopped,textPre.started,run_dup,textPre.stopped,continuousResponses_text,textRunLoop.thisRepN,textRunLoop.thisTrialN,textRunLoop.thisN,textRunLoop.thisIndex,textRunLoop.ran,text1_1,text1_2,text2_1,text2_2,runBreakText.started,runBreakText.stopped,endingBreakKey_2.keys,endingBreakKey_2.rt,endingBreakKey_2.duration,ending.started,ending.stopped,endingEnding.keys,endingEnding.rt,endingEnding.duration
tom,0.0001,14.8101,y,14.4787,,62e185f1375fa71f12753c64,2024-02-08_13h03.23.607,group3.1-3.2-social-tom,2023.2.2,MacIntel,59.88023952,65c5074098b851296ff0b7ed,65c54175937cc216a4005316,,,,,,,,,,,,,,,,,,,,,,,,,,,,,,,,,,,,,,,,,,,,,,,,,,,,,,,,,,,,,,,,,,,,,,,,,,,,,,,,,,,,,,,,,,,,,,,,,,,,,,,,,,
,,,,,,62e185f1375fa71f12753c64,2024-02-08_13h03.23.607,group3.1-3.2-social-tom,2023.2.2,MacIntel,59.88023952,65c5074098b851296ff0b7ed,65c54175937cc216a4005316,14.8104,21.7757,space,6.9362,,,,,,,,,,,,,,,,,,,,,,,,,,,,,,,,,,,,,,,,,,,,,,,,,,,,,,,,,,,,,,,,,,,,,,,,,,,,,,,,,,,,,,,,,,,,,,,,,,,,,,
,,,,,,62e185f1375fa71f12753c64,2024-02-08_13h03.23.607,group3.1-3.2-social-tom,2023.2.2,MacIntel,59.88023952,65c5074098b851296ff0b7ed,65c54175937cc216a4005316,,,,,,21.776,36.2941,space,14.1781,,,,,,,,,,,,,,,,,,,,,,,,,,,,,,,,,,,,,,,,,,,,,,,,,,,,,,,,,,,,,,,,,,,,,,,,,,,,,,,,,,,,,,,,,,,,,,,,,
,,,,,,62e185f1375fa71f12753c64,2024-02-08_13h03.23.607,group3.1-3.2-social-tom,2023.2.2,MacIntel,59.88023952,65c5074098b851296ff0b7ed,65c54175937cc216a4005316,,,,,,,,,,,36.3015,52.8273,space,16.4992,,[],[],[],[],[],[],0,0,0,0,1,,,,,,,,,,,,,,,,,,,,,,,,,,,,,,,,,,,,,,,,,,,,,,,,,,,,,,,,,,,,,,,,,,,,,,,,,,,,,,,,
,,,,,,62e185f1375fa71f12753c64,2024-02-08_13h03.23.607,group3.1-3.2-social-tom,2023.2.2,MacIntel,59.88023952,65c5074098b851296ff0b7ed,65c54175937cc216a4005316,,,,,,,,,,,52.8411,101.1407,space,48.2075,,[],[],[],[],[],[],1,0,1,0,1,,,,,,,,,,,,,,,,,,,,,,,,,,,,,,,,,,,,,,,,,,,,,,,,,,,,,,,,,,,,,,,,,,,,,,,,,,,,,,,,
,,,,,,62e185f1375fa71f12753c64,2024-02-08_13h03.23.607,group3.1-3.2-social-tom,2023.2.2,MacIntel,59.88023952,65c5074098b851296ff0b7ed,65c54175937cc216a4005316,,,,,,,,,,,101.1538,119.3256,space,18.1349,,[],[],[],[],[],[],2,0,2,0,1,,,,,,,,,,,,,,,,,,,,,,,,,,,,,,,,,,,,,,,,,,,,,,,,,,,,,,,,,,,,,,,,,,,,,,,,,,,,,,,,
,,,,,,62e185f1375fa71f12753c64,2024-02-08_13h03.23.607,group3.1-3.2-social-tom,2023.2.2,MacIntel,59.88023952,65c5074098b851296ff0b7ed,65c54175937cc216a4005316,,,,,,,,,,,119.3368,151.3399,space,31.9786,,[],[],[],[],[],[],3,0,3,0,1,,,,,,,,,,,,,,,,,,,,,,,,,,,,,,,,,,,,,,,,,,,,,,,,,,,,,,,,,,,,,,,,,,,,,,,,,,,,,,,,
,,,,,,62e185f1375fa71f12753c64,2024-02-08_13h03.23.607,group3.1-3.2-social-tom,2023.2.2,MacIntel,59.88023952,65c5074098b851296ff0b7ed,65c54175937cc216a4005316,,,,,,,,,,,151.3519,170.8081,space,19.4234,,[],[],[],[],[],[],4,0,4,0,1,,,,,,,,,,,,,,,,,,,,,,,,,,,,,,,,,,,,,,,,,,,,,,,,,,,,,,,,,,,,,,,,,,,,,,,,,,,,,,,,
,,,,,,62e185f1375fa71f12753c64,2024-02-08_13h03.23.607,group3.1-3.2-social-tom,2023.2.2,MacIntel,59.88023952,65c5074098b851296ff0b7ed,65c54175937cc216a4005316,,,,,,,,,,,,,,,,,,,,,,,,,,,170.8266,173.4068,173.4332,1,audio/Narrative13Situation2.wav,175.4401,,175.4404,205.1905,"[[999,2],[999,119],[999,199],[999,282],[999,365],[999,450],[999,533],[999,616],[999,699],[999,783],[999,866],[999,949],[999,1035],[999,1116],[999,1202],[999,1282],[999,1366],[999,1449],[999,1533],[999,1616],[999,1699],[999,1783],[999,1868],[999,1953],[999,2032],[999,2116],[999,2200],[45.3,2285],[53.3,2367],[54.1,2450],[55.5,2536],[55.8,2615],[55.8,2698],[55.8,2784],[55.8,2866],[55.8,2951],[55.8,3032],[55.8,3116],[55.8,3202],[55.8,3282],[55.8,3367],[55.8,3452],[55.8,3533],[55.8,3618],[55.8,3699],[55.8,3782],[55.8,3866],[55.8,3949],[55.8,4032],[55.8,4117],[55.8,4199],[55.8,4282],[55.8,4365],[55.8,4450],[55.8,4533],[55.8,4616],[55.8,4700],[55.8,4786],[55.8,4866],[55.8,4949],[55.8,5034],[55.8,5116],[55.8,5202],[55.8,5282],[55.8,5365],[55.8,5449],[55.8,5533],[55.8,5618],[55.8,5699],[55.8,5782],[55.8,5865],[55.8,5948],[55.8,6033],[55.8,6116],[55.8,6199],[55.8,6282],[55.8,6365],[55.8,6450],[55.8,6533],[55.8,6615],[54.5,6700],[53.3,6783],[52.4,6866],[51.6,6951],[49.3,7036],[46.1,7117],[45.5,7199],[44.3,7283],[34.6,7367],[24.5,7452],[22.7,7532],[22.7,7617],[22.8,7700],[22.8,7783],[22.8,7868],[22.8,7948],[22.8,8034],[22.8,8116],[22.8,8199],[22.8,8284],[22.8,8366],[22.8,8450],[22.8,8532],[22.8,8615],[22.8,8700],[22.8,8782],[22.8,8866],[22.8,8951],[22.8,9031],[22.8,9116],[22.8,9200],[22.8,9282],[22.8,9367],[22.8,9452],[22.8,9533],[22.8,9618],[22.8,9700],[22.8,9783],[22.8,9868],[22.8,9949],[22.8,10032],[22.8,10119],[22.8,10200],[22.8,10283],[22.8,10369],[22.8,10450],[22.8,10532],[22.8,10619],[22.8,10700],[22.8,10783],[22.8,10867],[22.8,10949],[22.8,11032],[22.8,11116],[22.8,11201],[22.8,11283],[22.8,11369],[22.8,11449],[22.8,11533],[22.8,11616],[22.8,11700],[22.8,11783],[22.8,11866],[22.8,11949],[22.8,12033],[22.8,12116],[22.8,12199],[22.8,12284],[22.8,12365],[22.8,12450],[22.8,12532],[22.8,12618],[22.8,12699],[22.8,12783],[22.8,12868],[22.8,12949],[22.8,13033],[22.8,13116],[22.8,13199],[22.8,13283],[22.8,13366],[22.8,13450],[22.8,13532],[22.8,13617],[22.8,13699],[22.8,13782],[22.8,13865],[22.8,13949],[22.8,14032],[22.8,14115],[22.8,14201],[22.8,14283],[22.8,14365],[22.8,14449],[22.8,14532],[22.8,14615],[22.8,14699],[22.8,14782],[22.8,14865],[22.8,14949],[22.8,15033],[22.8,15116],[22.8,15200],[22.8,15283],[22.8,15375],[22.8,15449],[22.8,15533],[22.8,15615],[22.8,15699],[22.8,15782],[22.8,15867],[22.8,15948],[22.8,16032],[22.8,16116],[22.8,16200],[22.8,16284],[22.8,16366],[22.8,16449],[22.8,16531],[22.8,16615],[22.8,16700],[22.8,16782],[22.8,16866],[22.8,16948],[22.8,17032],[22.8,17115],[22.8,17199],[22.8,17282],[22.8,17366],[22.8,17449],[22.8,17533],[22.8,17616],[22.8,17699],[22.8,17783],[22.8,17868],[22.8,17950],[22.8,18035],[22.8,18115],[22.8,18199],[22.8,18283],[22.8,18368],[22.8,18449],[22.8,18535],[22.8,18616],[22.8,18700],[22.8,18782],[22.8,18865],[22.8,18951],[22.8,19032],[22.8,19116],[22.8,19198],[22.8,19282],[22.8,19367],[22.8,19450],[22.8,19533],[22.8,19617],[22.8,19699],[22.8,19782],[22.8,19868],[22.8,19950],[22.8,20033],[22.8,20118],[22.8,20199],[22.8,20282],[22.8,20366],[22.8,20450],[22.8,20534],[22.8,20615],[22.8,20700],[22.8,20782],[22.8,20866],[22.8,20948],[22.8,21033],[22.8,21116],[22.8,21201],[22.8,21283],[22.8,21366],[22.8,21449],[22.8,21532],[22.8,21617],[22.8,21700],[22.8,21783],[22.8,21866],[22.8,21951],[22.8,22034],[22.8,22115],[17.2,22202],[13.6,22284],[12.9,22365],[11.7,22449],[10.4,22532],[9.5,22615],[9.1,22700],[9.1,22782],[9.1,22865],[9.1,22948],[9.1,23031],[9.1,23115],[9.1,23201],[9.1,23283],[9.1,23366],[9.1,23449],[9.1,23532],[9.1,23616],[9.1,23701],[9.1,23783],[9.1,23867],[9.1,23950],[9.1,24033],[9.1,24115],[9.1,24198],[9.1,24284],[9.1,24366],[9.1,24449],[9.1,24532],[9.1,24615],[9.1,24698],[9.1,24785],[9.1,24866],[9.1,24951],[9.1,25031],[9.1,25116],[9.1,25201],[9.1,25283],[9.1,25366],[9.1,25449],[9.1,25533],[9.1,25616],[9.1,25699],[9.1,25783],[9.1,25867],[9.1,25950],[9.1,26032],[10,26115],[10.3,26198],[32.1,26282],[67.5,26449],[71.2,26534],[76.8,26617],[79.3,26703],[80.2,26785],[83.9,26865],[84.3,26949],[84.4,27032],[84.4,27115],[84.4,27201],[84.4,27282],[84.4,27366],[84.4,27452],[84.4,27532],[84.4,27617],[84.8,27699],[84.9,27782],[85.1,27865],[85.3,27949],[85.4,28032],[85.6,28117],[85.6,28199],[86.3,28281],[87.6,28365],[88.3,28449],[90.5,28531],[91.8,28615],[92.7,28700],[92.8,28782],[92.8,28865],[92.7,28949],[91.6,29033],[90.3,29117],[89.8,29198],[89.7,29282],[89.7,29367],[89.7,29449],[89.7,29532],[89.7,29615],[89.7,29699]]",1,0,205.1909,220.2271,20.0906033,12.8951,"[{""rating"":20.09060329861111,""responseTime"":12.895100000023831}]",space,14.4866,,220.2275,All the time,100,220.233,,,[],,0,0,0,0,1,audio/Narrative13Situation2.wav,audio/Narrative13Situation2.wav,audio/Narrative13Situation2.wav,audio/Narrative13Situation2.wav,2,2,2,2,,,,,,,,,,,,,,,,,,,,,,,,,,,,,,,,,,,,,,,
,,,,,,62e185f1375fa71f12753c64,2024-02-08_13h03.23.607,group3.1-3.2-social-tom,2023.2.2,MacIntel,59.88023952,65c5074098b851296ff0b7ed,65c54175937cc216a4005316,,,,,,,,,,,,,,,,,,,,,,,,,,,,,220.2334,1,audio/Narrative7Situation1.wav,222.9892,space,222.9893,278.873,"[[18.7,5001],[17.8,5082],[17.7,5167],[16.6,5249],[14.3,5332],[13,5417],[12.9,5499],[12.8,5583],[11.8,5666],[9.9,5751],[9.4,5832],[9.4,5918],[9.4,5999],[9.4,6082],[9.4,6165],[9.4,6250],[9.4,6333],[9.4,6416],[9.4,6501],[9.4,6583],[9.4,6666],[9.4,6750],[9.4,6833],[9.4,6916],[9.4,7001],[9.4,7084],[9.4,7166],[9.4,7252],[9.4,7334],[9.4,7418],[9.4,7500],[9.4,7582],[9.4,7666],[9.4,7751],[9.4,7833],[9.4,7917],[9.4,7999],[9.4,8082],[9.4,8168],[9.4,8249],[9.4,8335],[9.4,8419],[9.4,8501],[9.4,8583],[9.4,8669],[9.4,8752],[9.4,8833],[9.4,8916],[9.4,9001],[9.4,9083],[9.4,9167],[9.4,9249],[9.4,9336],[9.4,9415],[9.4,9502],[9.4,9584],[9.4,9666],[9.4,9749],[9.4,9832],[9.4,9915],[9.4,10000],[9.4,10085],[9.4,10166],[9.4,10250],[9.4,10333],[9.4,10417],[9.4,10500],[9.4,10583],[9.4,10666],[9.4,10749],[9.4,10833],[9.4,10917],[9.4,10999],[9.4,11085],[9.4,11166],[9.4,11250],[9.4,11332],[9.4,11417],[9.4,11500],[9.4,11584],[9.4,11665],[9.4,11750],[9.4,11833],[9.4,11916],[9.4,12003],[9.4,12084],[9.4,12169],[9.4,12249],[9.4,12333],[9.4,12417],[9.4,12500],[9.4,12585],[9.4,12668],[9.4,12749],[9.4,12833],[9.4,12919],[9.4,13001],[9.4,13082],[9.4,13167],[9.4,13252],[9.4,13333],[9.4,13416],[9.4,13499],[9.4,13582],[9.4,13668],[9.4,13750],[9.4,13833],[9.4,13918],[9.4,14000],[9.4,14082],[9.4,14169],[9.4,14250],[9.4,14335],[9.4,14416],[9.4,14499],[9.4,14585],[9.4,14665],[9.4,14749],[9.4,14836],[9.4,14917],[9.4,14999],[9.4,15084],[9.4,15166],[10.2,15259],[10.8,15333],[11.8,15417],[12.8,15499],[13.3,15583],[13.3,15665],[13,15752],[12.3,15834],[12.2,15919],[11.3,16001],[10.6,16085],[10.3,16168],[10.2,16249],[10.2,16332],[10.2,16415],[10.2,16501],[10.2,16585],[10.2,16666],[10.2,16752],[10.2,16833],[10.2,16917],[11.1,17003],[41.9,17087],[67.6,17166],[68.5,17249],[70.6,17332],[79.2,17420],[79.8,17499],[80.4,17584],[80.5,17669],[80.5,17751],[79.6,17835],[82.5,17916],[83.6,17999],[83.6,18084],[83.6,18166],[83.6,18250],[83.6,18332],[83.6,18416],[83.6,18501],[83.6,18585],[83.6,18668],[83.6,18750],[83.6,18834],[83.4,18915],[83.2,18999],[83.2,19082],[83.2,19167],[82.9,19254],[77.7,19332],[53.8,19417],[49.3,19499],[48.7,19582],[48.7,19667],[48.7,19748],[48.7,19832],[48.7,19918],[45.1,20003],[37.3,20084],[34.3,20169],[28.8,20249],[22.8,20332],[19.8,20416],[16.9,20498],[15.7,20582],[14.7,20666],[14.5,20750],[14.5,20833],[14.5,20917],[14.5,20998],[14.5,21082],[14.5,21166],[14.5,21249],[14.5,21333],[14.5,21416],[14.5,21499],[14.5,21583],[14.5,21666],[14.5,21750],[14.5,21834],[14.5,21916],[14.5,22000],[14.5,22083],[14.5,22168],[14.5,22250],[14.5,22332],[14.5,22416],[14.5,22500],[14.5,22584],[14.5,22667],[14.5,22752],[14.5,22835],[14.5,22916],[14.5,23000],[14.5,23082],[14.5,23166],[14.5,23249],[14.5,23333],[14.5,23418],[14.5,23499],[14.5,23582],[14.5,23669],[14.5,23752],[14.5,23833],[14.5,23917],[14.5,23999],[14.5,24083],[14.5,24169],[14.5,24250],[14.5,24334],[14.5,24416],[14.5,24500],[14.5,24585],[14.5,24665],[14.5,24752],[14.5,24833],[14.5,24916],[14.5,25001],[14.5,25083],[14.5,25168],[14.5,25251],[14.5,25333],[14.5,25416],[14.5,25502],[14.5,25584],[14.5,25665],[14.5,25752],[14.5,25833],[14.5,25916],[14.5,25999],[14.5,26083],[14.5,26168],[14.5,26249],[14.5,26336],[14.5,26416],[14.5,26500],[14.5,26585],[14.5,26666],[14.5,26750],[14.5,26832],[14.5,26915],[14.5,27002],[14.5,27083],[14.5,27167],[14.5,27249],[14.5,27333],[14.5,27417],[14.5,27498],[14.5,27583],[14.5,27665],[14.5,27749],[14.5,27833],[14.5,27918],[14.5,27999],[14.5,28082],[14.5,28169],[14.5,28251],[14.5,28333],[14.5,28416],[14.5,28499],[14.5,28583],[14.5,28665],[14.5,28748],[14.5,28832],[14.5,28917],[14.5,28999],[14.5,29083],[14.5,29168],[14.5,29252],[14.5,29333],[14.5,29417],[14.5,29498],[14.5,29585],[14.5,29666],[14.5,29748],[14.5,29833],[14.5,29916],[14.5,29999],[14.5,30084],[14.5,30169],[14.5,30250],[14.7,30339],[15,30418],[15.3,30502],[15.7,30583],[16.4,30665],[16.7,30749],[16.7,30835],[15.6,30916],[14.7,31002],[14,31082],[13.5,31167],[13.2,31249],[13.1,31332],[13,31416],[12.7,31499],[12.6,31583],[12.6,31666],[12.6,31750],[12.6,31832],[12.8,31920],[13.9,32002],[14.3,32084],[14.4,32165],[14.4,32250],[14.4,32333],[14.4,32417],[14.4,32499],[14.4,32583],[14.4,32666],[14.4,32749],[14.4,32833],[14.4,32915],[14.4,33002],[14.4,33082],[14.5,33166],[18.8,33252],[22.8,33335],[25.4,33418],[27.3,33499],[32.2,33582],[37,33667],[39.8,33749],[40.1,33832],[40.1,33917],[40.1,34000],[40.1,34085],[40.9,34166],[53.5,34250],[72.9,34334],[79.1,34415],[79.4,34499],[79.4,34582],[80.7,34665],[81.4,34752],[81.7,34835],[81.8,34915],[81.8,34999],[81.8,35086],[81.8,35168],[81.8,35249],[81.8,35333],[81.8,35416],[81.8,35503],[81.8,35583],[81.8,35667],[81.8,35749],[81.8,35832],[81.8,35916],[81.3,36000],[80.6,36085],[80.6,36169],[76.9,36250],[65.9,36334],[64.4,36415],[62.8,36500],[54,36582],[44.7,36665],[40.4,36753],[37.6,36835],[37.4,36916],[37.4,37000],[37.4,37086],[32.7,37168],[21.1,37249],[18,37333],[17.2,37416],[15.1,37499],[14.1,37584],[14.1,37665],[14.1,37749],[14.1,37832],[14.1,37918],[14.1,37999],[14.1,38083],[14.1,38168],[14.1,38250],[14.1,38332],[14.1,38416],[14.1,38501],[14.1,38582],[14.1,38665],[14.1,38750],[14.1,38835],[14.1,38915],[14.1,39000],[14.1,39082],[14.1,39166],[14.1,39249],[14.1,39333],[14.1,39416],[14.1,39499],[14.1,39583],[14.1,39666],[14.1,39748],[14.1,39832],[14.1,39915],[14.1,39999],[14.1,40083],[14.1,40166],[14.1,40250],[14.1,40334],[14.1,40416],[14.1,40500],[14.1,40582],[14.1,40666],[14.1,40749],[14.1,40833],[14.1,40916],[14.1,40998],[14.1,41084],[14.1,41165],[14.1,41250],[14.1,41333],[14.1,41416],[14.1,41500],[14.1,41584],[14.1,41667],[14.1,41749],[14.1,41834],[14.1,41915],[14.1,41999],[11.5,42083],[9.9,42169],[8.5,42251],[6.8,42333],[5.4,42416],[5,42501],[5,42583],[4.4,42666],[4.1,42749],[4.1,42833],[4.1,42919],[4.1,42999],[4.1,43083],[4.1,43168],[4.1,43249],[4.1,43333],[4.1,43416],[4.1,43502],[4.1,43582],[4.1,43667],[4.1,43750],[4.1,43833],[4.1,43917],[4.1,43999],[4.1,44091],[4.1,44165],[4.1,44250],[4.1,44333],[4.1,44416],[4.1,44499],[4.1,44583],[4.1,44666],[4.1,44750],[4.1,44835],[4.1,44919],[4.1,44999],[4.1,45083],[4.1,45168],[4.1,45251],[4.1,45333],[4.1,45416],[4.1,45502],[4.1,45583],[4.1,45667],[4.1,45748],[4.1,45832],[4.1,45917],[4.1,45998],[4.1,46083],[4.1,46167],[4.1,46248],[4.1,46332],[4.1,46416],[4.1,46501],[4.1,46584],[4.1,46666],[4.1,46749],[4.1,46835],[4.1,46916],[4.1,46999],[4.1,47082],[4.1,47169],[4.1,47249],[4.1,47332],[4.1,47415],[4.1,47498],[4.1,47581],[4.1,47667],[4.1,47749],[4.1,47833],[4.1,47918],[4.1,48000],[4.1,48083],[4.1,48166],[4.1,48250],[4.4,48343],[4.9,48417],[5.5,48499],[6.7,48585],[7.3,48665],[7.4,48748],[7.3,48834],[7,48919],[6.6,49000],[5.8,49082],[5.2,49167],[4.6,49248],[4.2,49333],[4.2,49415],[4.2,49498],[4.2,49582],[4.2,49665],[4.2,49748],[4.2,49832],[4.2,49916],[4.2,50000],[4.2,50084],[4.2,50168],[4.3,50250],[5.3,50334],[5.6,50416],[7.6,50498],[10.3,50582],[11.5,50668],[12.7,50750],[13.8,50835],[13.8,50916],[13.8,50998],[13.8,51081],[13.8,51166],[13.8,51248],[13.8,51333],[13.8,51416],[13.8,51498],[13.8,51582],[13.8,51666],[13.8,51749],[13.8,51834],[13.8,51917],[13.8,51999],[13.8,52081],[13.8,52165],[13.8,52250],[13.8,52332],[13.8,52416],[13.8,52499],[13.8,52584],[13.8,52666],[13.8,52749],[13.8,52832],[13.8,52915],[13.8,53000],[13.8,53082],[13.8,53166],[13.8,53248],[13.8,53332],[13.8,53416],[13.8,53499],[13.8,53582],[13.8,53666],[13.8,53752],[13.8,53833],[13.8,53916],[13.8,54000],[13.8,54085],[13.8,54168],[13.8,54249],[13.8,54333],[13.8,54416],[13.8,54499],[12.5,54585],[9.5,54667],[8.1,54750],[7.3,54831],[6.9,54915],[6.9,55001],[6.9,55082],[6.9,55168],[6.9,55249],[6.9,55335],[6.9,55416],[6.9,55498],[6.9,55583],[6.9,55667],[6.9,55749],[6.9,55833]]",1,0,278.8737,286.622,17.31770833,6.5237,"[{""rating"":17.317708333333332,""responseTime"":6.523699999988082}]",space,7.1988,,286.622,Not at all,0,286.6259,,,[],,0,1,1,1,1,audio/Narrative7Situation1.wav,audio/Narrative8Situation1.wav,audio/Narrative5Situation1.wav,audio/Narrative6Situation1.wav,2,5,5,2,2.7292,,,,,,,,,,,,,,,,,,,,,,,,,,,,,,,,,,,,,,
,,,,,,62e185f1375fa71f12753c64,2024-02-08_13h03.23.607,group3.1-3.2-social-tom,2023.2.2,MacIntel,59.88023952,65c5074098b851296ff0b7ed,65c54175937cc216a4005316,,,,,,,,,,,,,,,,,,,,,,,,,,,,,286.6262,1,audio/Narrative7Situation2.wav,289.6384,,289.6385,297.1385,"[[999,15],[999,84],[999,166],[999,249],[999,332],[999,418],[999,498],[999,582],[999,665],[999,751],[999,834],[999,916],[999,1000],[999,1082],[999,1167],[999,1250],[999,1333],[999,1417],[999,1500],[999,1583],[999,1666],[999,1750],[999,1835],[999,1916],[999,2001],[999,2082],[999,2165],[999,2249],[999,2332],[999,2417],[999,2499],[999,2584],[999,2665],[999,2750],[999,2832],[999,2919],[999,2999],[999,3083],[999,3166],[999,3252],[999,3334],[999,3416],[999,3499],[999,3583],[999,3666],[999,3754],[999,3834],[999,3915],[999,3999],[999,4084],[999,4165],[999,4248],[999,4332],[999,4415],[999,4499],[999,4584],[999,4666],[999,4751],[999,4836],[999,4915],[999,4999],[999,5084],[999,5166],[999,5249],[999,5332],[999,5416],[999,5499],[999,5583],[999,5665],[999,5750],[999,5832],[999,5916],[999,6000],[25.9,6091],[21.7,6168],[19.3,6250],[16.9,6335],[16.2,6417],[14.1,6499],[12.6,6583],[12.4,6668],[12.4,6753],[12.4,6836],[12.4,6916],[11.3,7000],[9.6,7082],[9.3,7166],[9.2,7250],[9.2,7333],[9.2,7417],[9.2,7499]]",1,0,297.1386,304.1068,38.78417969,5.7631,"[{""rating"":38.7841796875,""responseTime"":5.763099999964254}]",space,6.4349,,304.1069,Half the time,50,304.1116,,,[],,0,2,2,2,1,audio/Narrative7Situation2.wav,audio/Narrative8Situation2.wav,audio/Narrative5Situation2.wav,audio/Narrative6Situation2.wav,3,3,3,3,,,,,,,,,,,,,,,,,,,,,,,,,,,,,,,,,,,,,,,
,,,,,,62e185f1375fa71f12753c64,2024-02-08_13h03.23.607,group3.1-3.2-social-tom,2023.2.2,MacIntel,59.88023952,65c5074098b851296ff0b7ed,65c54175937cc216a4005316,,,,,,,,,,,,,,,,,,,,,,,,,,,,,304.1121,1,audio/Narrative7Situation3.wav,312.1212,,312.1212,321.3924,"[[999,17],[999,86],[999,167],[999,249],[999,333],[999,416],[999,499],[999,584],[999,666],[999,749],[999,833],[999,916],[999,1001],[999,1084],[999,1166],[999,1249],[999,1333],[999,1416],[999,1500],[999,1583],[999,1666],[999,1749],[999,1836],[999,1919],[22.6,2001],[21.9,2082],[21.9,2165],[21.4,2250],[20.8,2335],[20.8,2419],[20.8,2500],[35.9,2586],[100,2670],[100,2750],[100,2832],[100,2916],[81.1,3001],[78.3,3086],[78.3,3166],[78.4,3250],[79.8,3333],[82.2,3416],[82.6,3500],[82.7,3583],[82.7,3670],[83,3750],[84.5,3836],[84.6,3917],[84.6,4002],[84.6,4084],[84.6,4166],[84.6,4249],[84.6,4333],[84.6,4417],[84.6,4500],[84.6,4582],[84.6,4667],[84.6,4750],[84.6,4833],[84.6,4917],[84.6,4999],[84.6,5084],[84.6,5166],[84.6,5249],[84.8,5334],[84.8,5417],[84.8,5500],[84.8,5583],[84.8,5668],[84.8,5750],[84.8,5834],[84.8,5917],[84.8,6001],[84.8,6083],[84.8,6166],[84.8,6252],[84.8,6334],[84.7,6417],[83.9,6501],[83.7,6585],[83.7,6667],[83.7,6750],[83.7,6833],[83.7,6916],[83.7,7000],[83.7,7082],[83.7,7168],[83.7,7250],[83.7,7333],[83.7,7417],[83.7,7499],[83.7,7584],[83.7,7667],[83.7,7751],[80.1,7833],[72.5,7920],[67.9,8000],[62.6,8082],[59.8,8169],[59.7,8252],[59.7,8332],[59.7,8416],[59.7,8499],[59.7,8584],[59.7,8666],[59.6,8749],[58.7,8833],[56.9,8916],[54.8,9000],[51.2,9083],[50,9169],[49.4,9250]]",1,0,321.3927,328.389,63.02842882,3.7745,"[{""rating"":63.028428819444436,""responseTime"":3.774499999999989}]",space,6.4581,,328.3891,All the time,100,328.4075,,,[],,0,3,3,3,1,audio/Narrative7Situation3.wav,audio/Narrative8Situation3.wav,audio/Narrative5Situation3.wav,audio/Narrative6Situation3.wav,8,4,3,5,,,,,,,,,,,,,,,,,,,,,,,,,,,,,,,,,,,,,,,
,,,,,,62e185f1375fa71f12753c64,2024-02-08_13h03.23.607,group3.1-3.2-social-tom,2023.2.2,MacIntel,59.88023952,65c5074098b851296ff0b7ed,65c54175937cc216a4005316,,,,,,,,,,,,,,,,,,,,,,,,,,,,,328.4079,1,audio/Narrative7Situation4.wav,331.4209,,331.421,343.1728,"[[999,0],[999,84],[999,166],[999,251],[999,333],[999,418],[999,500],[999,586],[999,668],[999,750],[999,832],[999,915],[999,999],[999,1083],[999,1170],[999,1250],[999,1333],[999,1419],[999,1499],[999,1586],[999,1669],[999,1749],[999,1833],[999,1916],[999,2000],[999,2083],[999,2166],[999,2251],[999,2333],[999,2418],[999,2502],[999,2588],[999,2666],[999,2750],[999,2834],[999,2917],[999,3000],[999,3082],[999,3168],[45,3250],[45,3335],[45,3419],[45,3501],[45,3584],[44,3667],[28.2,3749],[26,3834],[26,3916],[26,4000],[25.9,4083],[23.3,4167],[20.5,4251],[19.9,4336],[19.7,4418],[19.6,4500],[19.5,4584],[18.3,4669],[17.3,4753],[16.7,4834],[16.6,4916],[16.6,5000],[16.6,5083],[16.6,5168],[16.6,5250],[16.6,5333],[16.6,5417],[16.6,5499],[16.6,5584],[16.6,5668],[16.6,5753],[16.6,5834],[16.6,5916],[16.6,6000],[16.6,6083],[16.6,6167],[16.6,6250],[16.6,6333],[16.6,6418],[16.6,6499],[16.6,6583],[16.6,6666],[16.6,6750],[16.6,6832],[16.6,6917],[16.6,7003],[16.6,7082],[16.6,7166],[16.6,7250],[16.6,7333],[16.6,7416],[16.6,7500],[16.6,7587],[16.6,7668],[16.6,7749],[16.6,7837],[16.6,7917],[16.6,8001],[16.6,8083],[16.6,8166],[16.6,8250],[16.6,8333],[16.6,8417],[16.6,8501],[16.6,8583],[16.6,8668],[16.6,8750],[16.6,8833],[16.6,8916],[16.6,8999],[16.6,9083],[16.6,9167],[16.6,9250],[16.6,9333],[16.6,9417],[16.6,9501],[16.6,9584],[16.6,9666],[16.6,9749],[16.6,9833],[16.6,9917],[16.6,10000],[16.6,10085],[16.6,10167],[16.6,10251],[16.6,10333],[16.6,10417],[16.6,10501],[16.6,10584],[16.6,10666],[18,10749],[18.3,10835],[19,10916],[19.4,10999],[19.5,11082],[19.5,11170],[19.5,11249],[19.5,11333],[19.5,11416],[19.5,11501],[19.5,11584],[18.8,11667],[18.1,11751]]",1,0,343.1732,348.0564,35.18066406,3.9288,"[{""rating"":35.1806640625,""responseTime"":3.928800000011961}]",space,4.336,,348.0565,Not at all,0,348.0609,,,[],,0,4,4,4,1,audio/Narrative7Situation4.wav,audio/Narrative8Situation4.wav,audio/Narrative5Situation4.wav,audio/Narrative6Situation4.wav,3,3,1,2,,,,,,,,,,,,,,,,,,,,,,,,,,,,,,,,,,,,,,,
,,,,,,62e185f1375fa71f12753c64,2024-02-08_13h03.23.607,group3.1-3.2-social-tom,2023.2.2,MacIntel,59.88023952,65c5074098b851296ff0b7ed,65c54175937cc216a4005316,,,,,,,,,,,,,,,,,,,,,,,,,,,,,348.0613,1,audio/Narrative7Situation5.wav,353.0713,,353.0714,361.5707,"[[999,15],[999,82],[999,165],[999,248],[999,332],[999,418],[999,499],[999,587],[999,666],[999,749],[999,832],[999,917],[999,999],[999,1082],[999,1165],[999,1250],[999,1333],[999,1415],[999,1498],[999,1583],[999,1669],[999,1751],[999,1832],[999,1915],[999,1998],[999,2084],[999,2165],[999,2248],[999,2333],[999,2416],[999,2502],[999,2583],[999,2668],[999,2752],[999,2835],[999,2917],[999,2999],[19.9,3085],[17,3165],[16.7,3249],[16.1,3332],[12.8,3416],[10.6,3502],[10.1,3583],[10,3667],[9.7,3749],[9.7,3832],[9.7,3915],[9.7,3999],[9.7,4084],[9.7,4165],[9.7,4250],[9.7,4335],[9.7,4416],[9.7,4503],[9.7,4585],[9.7,4666],[9.7,4751],[9.7,4834],[9.7,4917],[9.7,5002],[9.7,5082],[9.7,5167],[9.7,5251],[9.7,5334],[9.7,5416],[9.7,5500],[9.7,5583],[9.7,5666],[9.7,5749],[9.7,5834],[9.7,5916],[9.7,5999],[9.7,6082],[9.7,6167],[9.7,6249],[9.7,6332],[9.7,6417],[9.7,6499],[9.7,6583],[9.7,6666],[9.7,6749],[9.7,6832],[9.7,6916],[9.7,6999],[9.7,7082],[9.7,7167],[9.7,7249],[9.7,7332],[9.7,7418],[9.7,7501],[9.7,7582],[9.7,7667],[9.7,7749],[9.7,7832],[9.7,7916],[9.7,7999],[9.7,8083],[9.7,8166],[9.7,8249],[9.7,8334],[9.7,8416],[9.7,8499]]",1,0,361.5708,367.5881,49.63216146,5.0666,"[{""rating"":49.632161458333336,""responseTime"":5.066600000023868}]",space,5.4762,,367.5882,Not at all,0,367.5902,,,[],,0,5,5,5,1,audio/Narrative7Situation5.wav,audio/Narrative8Situation5.wav,audio/Narrative5Situation5.wav,audio/Narrative6Situation5.wav,5,2,5,2,,,,,,,,,,,,,,,,,,,,,,,,,,,,,,,,,,,,,,,
,,,,,,62e185f1375fa71f12753c64,2024-02-08_13h03.23.607,group3.1-3.2-social-tom,2023.2.2,MacIntel,59.88023952,65c5074098b851296ff0b7ed,65c54175937cc216a4005316,,,,,,,,,,,,,,,,,,,,,,,,,,,,,367.5905,1,audio/Narrative7Situation6.wav,370.6037,,370.6039,380.5741,"[[999,15],[999,85],[999,168],[999,252],[999,333],[999,417],[999,502],[999,584],[999,669],[999,752],[999,833],[999,924],[999,1000],[999,1084],[999,1171],[999,1250],[999,1335],[999,1420],[999,1501],[999,1587],[999,1668],[999,1752],[999,1836],[999,1916],[999,2001],[999,2083],[999,2170],[999,2249],[999,2333],[999,2419],[999,2500],[999,2584],[999,2668],[999,2753],[999,2832],[999,2920],[999,3000],[999,3086],[999,3166],[999,3250],[999,3337],[23.1,3419],[20.9,3499],[19,3584],[18.1,3666],[16.8,3754],[13.3,3837],[12.1,3917],[11.9,3999],[11.9,4083],[11.9,4168],[11.9,4251],[11.9,4334],[11.9,4418],[11.9,4500],[11.9,4584],[11.9,4668],[11.9,4749],[11.9,4841],[11.9,4919],[11.9,5000],[11.9,5084],[11.9,5166],[11.9,5249],[11.9,5335],[11.9,5420],[11.9,5501],[11.9,5583],[11.9,5668],[11.9,5749],[11.9,5835],[11.9,5917],[11.9,5999],[11.9,6082],[11.9,6168],[11.9,6252],[11.9,6333],[11.9,6418],[11.9,6502],[11.9,6584],[11.9,6670],[11.9,6753],[11.9,6832],[11.9,6919],[11.9,6999],[11.9,7085],[11.9,7166],[11.9,7249],[17.2,7334],[22.6,7416],[23.1,7499],[23.2,7586],[24.6,7667],[32,7751],[41.4,7837],[50.6,7916],[53.6,8004],[53.6,8082],[53.6,8170],[57.8,8251],[64.3,8335],[66.4,8417],[68.2,8501],[71.6,8584],[74.5,8670],[75.8,8752],[77.8,8835],[79.7,8916],[80.3,9002],[80.5,9085],[80.6,9166],[80.9,9250],[80.9,9335],[80.9,9418],[80.9,9501],[80.9,9583],[80.9,9666],[80.9,9751],[80.9,9833],[80.9,9917]]",1,0,380.5745,388.0241,15.02115885,6.727,"[{""rating"":15.021158854166666,""responseTime"":6.726999999999975}]",space,6.9011,,388.0242,Half the time,50,388.0283,,,[],,0,6,6,6,1,audio/Narrative7Situation6.wav,audio/Narrative8Situation6.wav,audio/Narrative5Situation6.wav,audio/Narrative6Situation6.wav,3,2,3,2,,,,,,,,,,,,,,,,,,,,,,,,,,,,,,,,,,,,,,,
,,,,,,62e185f1375fa71f12753c64,2024-02-08_13h03.23.607,group3.1-3.2-social-tom,2023.2.2,MacIntel,59.88023952,65c5074098b851296ff0b7ed,65c54175937cc216a4005316,,,,,,,,,,,,,,,,,,,,,,,,,,,,,388.0286,1,audio/Narrative7Situation7.wav,393.0368,,393.0368,410.2048,"[[999,15],[999,82],[999,166],[999,250],[999,336],[999,416],[999,500],[999,583],[999,667],[999,754],[999,834],[999,917],[999,1003],[999,1084],[999,1166],[999,1249],[999,1335],[999,1420],[999,1500],[999,1585],[999,1666],[999,1750],[999,1837],[999,1916],[999,2001],[999,2086],[999,2169],[999,2252],[999,2337],[999,2417],[999,2499],[999,2583],[999,2668],[999,2751],[999,2837],[999,2918],[999,3004],[999,3084],[999,3166],[999,3250],[999,3334],[999,3416],[999,3500],[999,3585],[999,3671],[999,3750],[999,3836],[999,3920],[999,4001],[999,4083],[999,4166],[999,4252],[999,4333],[999,4419],[999,4502],[999,4585],[999,4666],[999,4752],[999,4833],[999,4917],[999,5003],[999,5084],[999,5169],[999,5249],[999,5334],[999,5420],[999,5502],[999,5583],[999,5671],[999,5750],[999,5832],[999,5916],[21.2,6001],[17.8,6086],[16.1,6167],[14.6,6250],[14.3,6335],[14.3,6417],[14.3,6507],[14.3,6584],[14.3,6668],[19.1,6751],[68.1,6833],[78.8,6920],[78.9,6999],[78.8,7083],[78.8,7169],[78.8,7249],[79.9,7335],[81.6,7420],[82.9,7502],[82.9,7583],[82.9,7668],[82.9,7752],[82.9,7836],[82.9,7919],[82.9,8003],[82.9,8086],[82.9,8168],[69.2,8253],[16.1,8670],[14.1,8751],[14.1,8833],[14.1,8918],[14.1,8999],[14.1,9083],[14.1,9168],[14.1,9249],[14.1,9334],[14.1,9419],[14.1,9499],[14.1,9585],[14.1,9666],[14.6,9750],[15.1,9836],[15.2,9916],[15.2,10001],[15.2,10086],[15.2,10166],[15.2,10251],[15.2,10336],[15.2,10418],[15.2,10499],[15.2,10585],[15.2,10668],[15.2,10752],[15.2,10833],[15.2,10918],[15.2,11000],[15.2,11084],[15.2,11169],[15.2,11249],[15.2,11334],[15.2,11416],[15.2,11500],[15.2,11585],[15.2,11665],[15.2,11750],[15.2,11835],[15.2,11917],[15.2,12001],[15.2,12085],[15.2,12166],[15.2,12251],[15.2,12333],[15.2,12416],[15.2,12502],[15.2,12583],[15.2,12666],[15.2,12752],[15.2,12836],[15.2,12918],[15.2,12999],[15.2,13083],[15.2,13168],[15.2,13249],[15.2,13334],[15.2,13419],[15.2,13500],[15.2,13584],[15.2,13670],[15.2,13750],[15.2,13835],[15.2,13916],[15.2,14001],[15.2,14086],[15.2,14167],[15.2,14251],[15.2,14335],[15.2,14415],[16.6,14503],[17.8,14583],[18,14667],[18,14750],[17.6,14833],[17.5,14918],[16.8,14999],[14.4,15084],[13.5,15166],[12.6,15249],[12,15334],[12,15420],[13.1,15500],[13.7,15584],[13.8,15669],[13.8,15750],[13.8,15835],[13.8,15917],[13.8,16000],[13.8,16086],[13.5,16166],[13,16251],[12.6,16337],[12.2,16417],[12,16501],[12,16583],[12.1,16667],[12.3,16750],[12.4,16832],[12.4,16918],[12.4,16999],[12.4,17083],[12.4,17167]]",1,0,410.2051,414.6867,50.8577474,3.4144,"[{""rating"":50.85774739583333,""responseTime"":3.4143999999761263}]",space,3.9355,,414.6868,All the time,100,414.6912,,,[],,0,7,7,7,1,audio/Narrative7Situation7.wav,audio/Narrative8Situation7.wav,audio/Narrative5Situation7.wav,audio/Narrative6Situation7.wav,5,3,4,5,,,,,,,,,,,,,,,,,,,,,,,,,,,,,,,,,,,,,,,
,,,,,,62e185f1375fa71f12753c64,2024-02-08_13h03.23.607,group3.1-3.2-social-tom,2023.2.2,MacIntel,59.88023952,65c5074098b851296ff0b7ed,65c54175937cc216a4005316,,,,,,,,,,,,,,,,,,,,,,,,,,,,,414.6919,1,audio/Narrative7Situation8.wav,416.7076,,416.7077,426.7405,"[[999,0],[999,82],[999,164],[999,245],[999,329],[999,412],[999,497],[999,580],[999,662],[999,747],[999,832],[999,913],[999,996],[999,1082],[999,1165],[999,1247],[999,1333],[999,1413],[999,1495],[24.7,1578],[22,1663],[19.8,1745],[19.5,1828],[19.5,1914],[19.5,1998],[19.5,2079],[19.5,2164],[19.5,2247],[19.5,2329],[19.5,2412],[22.5,2495],[36,2581],[47.1,2663],[47.5,2745],[47.5,2832],[47.5,2915],[47.5,2995],[46,3081],[23.8,3163],[15.5,3247],[15.2,3329],[15.1,3412],[15.1,3499],[15.1,3581],[15.1,3663],[15.1,3747],[15.1,3828],[15.1,3914],[15.1,3999],[15.1,4079],[15.1,4164],[15.1,4245],[15.1,4329],[15.1,4411],[15.1,4495],[15.1,4578],[15.1,4663],[15.1,4745],[15.1,4828],[15.1,4914],[15.1,4995],[15.1,5078],[15.1,5162],[15.1,5247],[15.1,5328],[15.1,5412],[15.1,5495],[15.1,5581],[15.1,5665],[15.1,5747],[15.1,5829],[15.3,5924],[15.6,5996],[15.9,6079],[16.1,6164],[16.2,6245],[16.2,6330],[16.2,6413],[16.2,6499],[17.1,6579],[18.4,6662],[18.4,6745],[18.4,6830],[18.4,6919],[18.4,6996],[18.4,7081],[18.4,7164],[18.4,7247],[18.4,7328],[18.5,7412],[18.5,7495],[18.5,7578],[18.5,7665],[18.5,7747],[18.5,7832],[18.5,7911],[18.5,7995],[18.5,8079],[18.5,8164],[18.5,8245],[18.5,8329],[18.5,8411],[18.5,8495],[18.5,8578],[18.5,8661],[18.5,8749],[18.5,8831],[18.5,8914],[18.5,8997],[18.5,9082],[18.5,9162],[18.5,9246],[15.7,9333],[14.3,9413],[13.5,9497],[12.7,9583],[12.4,9666],[12.4,9749],[12.4,9828],[12.4,9914],[12.5,9997]]",1,0,426.7408,429.0219,41.63845486,1.5944,"[{""rating"":41.638454861111114,""responseTime"":1.59439999997619}]",space,1.7326,,429.0219,Half the time,50,429.0262,,,[],,0,8,8,8,1,audio/Narrative7Situation8.wav,audio/Narrative8Situation8.wav,audio/Narrative5Situation8.wav,audio/Narrative6Situation8.wav,2,3,3,5,,,,,,,,,,,,,,,,,,,,,,,,,,,,,,,,,,,,,,,
,,,,,,62e185f1375fa71f12753c64,2024-02-08_13h03.23.607,group3.1-3.2-social-tom,2023.2.2,MacIntel,59.88023952,65c5074098b851296ff0b7ed,65c54175937cc216a4005316,,,,,,,,,,,,,,,,,,,,,,,,,,,,,429.0265,1,audio/Narrative7Situation9.wav,431.0403,,431.0403,439.6885,"[[41.9,2080],[42.8,2166],[42.2,2247],[34.3,2999],[29.7,3079],[29.3,3165],[29.3,3246],[27.5,3332],[22.8,3412],[20.7,3496],[18.9,3582],[18.3,3662],[17.5,3745],[17.4,3830],[17.4,3915],[17.4,3997],[17.4,4082],[17.4,4162],[16.6,4247],[16,4329],[16,4412],[16,4499],[16,4581],[16,4663],[16,4749],[16,4832],[16,4915],[16,4999],[16,5079],[16,5165],[16,5246],[16,5330],[16,5414],[15.9,5495],[15.9,5581],[15.9,5662],[15.9,5746],[15.9,5832],[15.9,5914],[15.9,5997],[15.9,6079],[15.9,6162],[15.9,6247],[15.9,6333],[15.9,6412],[15.9,6498],[15.9,6579],[15.9,6663],[15.9,6748],[15.9,6832],[15.9,6914],[15.9,6997],[15.9,7079],[15.9,7163],[15.9,7247],[16.8,7330],[17.5,7413],[17.5,7495],[17.5,7581],[17.5,7662],[17.5,7748],[17.5,7831],[17.5,7912],[17.5,7997],[17.5,8082],[17.5,8163],[17.5,8247],[17.5,8329],[17.5,8413],[17.5,8499],[17.5,8581]]",1,0,439.6887,445.5025,60.23817274,4.7765,"[{""rating"":49.96148003472222,""responseTime"":3.978999999999985},{""rating"":60.23817274305555,""responseTime"":4.776499999999999}]",space,5.282,,445.5025,All the time,100,445.5042,,,[],,0,9,9,9,1,audio/Narrative7Situation9.wav,audio/Narrative8Situation9.wav,audio/Narrative5Situation9.wav,audio/Narrative6Situation9.wav,2,3,3,4,,,,,,,,,,,,,,,,,,,,,,,,,,,,,,,,,,,,,,,
,,,,,,62e185f1375fa71f12753c64,2024-02-08_13h03.23.607,group3.1-3.2-social-tom,2023.2.2,MacIntel,59.88023952,65c5074098b851296ff0b7ed,65c54175937cc216a4005316,,,,,,,,,,,,,,,,,,,,,,,,,,,,,445.5045,1,audio/Narrative8Situation1.wav,450.5192,,450.5192,466.4546,"[[999,15],[999,83],[999,168],[999,250],[999,334],[999,419],[999,501],[999,587],[999,668],[999,753],[999,834],[999,919],[999,1001],[999,1083],[999,1168],[999,1253],[999,1336],[999,1419],[999,1503],[999,1584],[999,1670],[999,1753],[999,1835],[999,1916],[999,1999],[999,2086],[999,2166],[999,2251],[999,2336],[999,2420],[999,2502],[999,2583],[999,2669],[999,2752],[999,2833],[999,2918],[999,2999],[999,3083],[999,3168],[999,3250],[999,3334],[999,3416],[999,3502],[999,3584],[999,3670],[999,3750],[999,3835],[999,3920],[999,4000],[999,4083],[999,4169],[999,4251],[999,4333],[999,4416],[999,4499],[999,4586],[999,4667],[999,4750],[999,4833],[999,4916],[20.5,5002],[17.3,5084],[17.1,5168],[17.1,5249],[17.1,5336],[17,5419],[17,5502],[17,5584],[17.1,5667],[18.5,5749],[20.1,5835],[20.3,5916],[21,6000],[21.5,6086],[21.8,6166],[24.9,6251],[31.2,6335],[33.1,6420],[33.1,6501],[33.1,6585],[33,6666],[24.3,6749],[19.3,6833],[19.1,6916],[17.7,7001],[14.9,7083],[14.3,7168],[14.3,7253],[14.3,7333],[14.3,7419],[14.3,7500],[14.3,7584],[14.3,7666],[14.3,7750],[14.3,7835],[14.3,7919],[14.3,8000],[14.3,8085],[14.3,8166],[14.3,8249],[14.3,8336],[14.3,8417],[14.3,8501],[14.3,8587],[14.3,8667],[14.3,8749],[14.3,8835],[14.3,8920],[14.3,8999],[14.3,9086],[14.3,9168],[14.3,9249],[14.3,9333],[14.3,9419],[14.3,9499],[14.3,9584],[14.3,9669],[14.3,9749],[14.3,9833],[14.3,9920],[14.3,10000],[14.3,10085],[14.3,10166],[14.3,10251],[14.3,10333],[14.3,10416],[14.3,10501],[14.3,10586],[14.3,10666],[14.3,10751],[14.3,10833],[14.3,10917],[14.3,11000],[14.3,11083],[14.3,11166],[14.3,11252],[14.3,11333],[14.3,11416],[14.3,11502],[14.3,11584],[14.3,11666],[14.3,11751],[14.3,11832],[14.3,11916],[14.3,12000],[14.3,12083],[14.3,12166],[14.3,12251],[14.3,12333],[14.3,12416],[14.3,12502],[14.3,12587],[14.3,12668],[14.3,12752],[14.3,12833],[14.3,12917],[14.3,13003],[14.3,13086],[14.3,13168],[14.3,13252],[14.3,13333],[14.3,13419],[14.3,13499],[14.3,13582],[14.3,13669],[14.3,13753],[14.3,13835],[14.3,13916],[14.3,14000],[14.3,14085],[14.3,14166],[14.3,14251],[14.3,14333],[14.3,14416],[14.3,14503],[14.3,14583],[14.3,14667],[16.5,14762],[20.5,14833],[23,14916],[27,14999],[33.9,15082],[38,15168],[43.6,15252],[45.9,15335],[46.9,15419],[47.4,15502],[47.4,15584],[47.4,15668],[47.4,15752],[47.4,15835],[47.4,15917]]",1,0,466.4548,479.5022,39.99023438,12.4939,"[{""rating"":45.935872395833336,""responseTime"":12.02989999997618},{""rating"":39.990234375,""responseTime"":12.493899999976179}]",space,12.4996,,479.5023,Half the time,50,479.5064,,,[],,0,10,10,10,1,audio/Narrative8Situation1.wav,audio/Narrative7Situation1.wav,audio/Narrative6Situation1.wav,audio/Narrative5Situation1.wav,5,2,2,5,,,,,,,,,,,,,,,,,,,,,,,,,,,,,,,,,,,,,,,
,,,,,,62e185f1375fa71f12753c64,2024-02-08_13h03.23.607,group3.1-3.2-social-tom,2023.2.2,MacIntel,59.88023952,65c5074098b851296ff0b7ed,65c54175937cc216a4005316,,,,,,,,,,,,,,,,,,,,,,,,,,,,,479.5067,1,audio/Narrative8Situation2.wav,482.5195,,482.5195,492.6525,"[[37.3,3767],[34.9,3850],[34.5,3935],[33.6,4018],[24.4,4101],[21.2,4182],[21.2,4265],[21.2,4348],[21.2,4433],[15.7,4516],[12.7,4602],[12.7,4682],[12.7,4767],[12.7,4852],[12.7,4932],[12.7,5018],[12.7,5099],[12.7,5183],[12.7,5265],[12.7,5349],[12.7,5432],[12.7,5515],[12.7,5599],[12.7,5682],[12.7,5765],[12.7,5850],[12.7,5931],[12.7,6016],[12.7,6100],[12.7,6182],[12.7,6267],[12.7,6348],[12.7,6435],[12.7,6515],[12.7,6602],[12.7,6683],[12.7,6768],[12.7,6852],[12.7,6932],[15.3,7018],[20.8,7099],[24.3,7182],[24.3,7268],[24.3,7349],[24.3,7434],[24.9,7517],[29.4,7601],[31.4,7683],[31.4,7765],[31.4,7849],[32.6,7935],[35.9,8016],[38.7,8100],[39,8182],[39,8267],[40.1,8351],[48.4,8432],[52.7,8516],[53,8599],[54.2,8682],[57.9,8767],[60.1,8852],[61.3,8934],[65.8,9016],[68.3,9101],[69.1,9184],[71.4,9268],[73.9,9348],[75.8,9432],[77.1,9516],[77.7,9599],[77.8,9685],[77.8,9768],[77.8,9851],[77.8,9932],[77.8,10018],[77.8,10099]]",1,0,492.6526,497.4186,68.88075087,4.1951,"[{""rating"":68.88075086805556,""responseTime"":4.195100000023842}]",space,4.2347,,497.4187,All the time,100,497.4227,,,[],,0,11,11,11,1,audio/Narrative8Situation2.wav,audio/Narrative7Situation2.wav,audio/Narrative6Situation2.wav,audio/Narrative5Situation2.wav,3,3,3,3,,,,,,,,,,,,,,,,,,,,,,,,,,,,,,,,,,,,,,,
,,,,,,62e185f1375fa71f12753c64,2024-02-08_13h03.23.607,group3.1-3.2-social-tom,2023.2.2,MacIntel,59.88023952,65c5074098b851296ff0b7ed,65c54175937cc216a4005316,,,,,,,,,,,,,,,,,,,,,,,,,,,,,497.423,1,audio/Narrative8Situation3.wav,501.4354,,501.4354,523.8059,"[[68,1016],[67.7,1099],[67.8,1185],[66.9,1268],[66.5,1349],[65.3,1435],[47.5,2017],[49,2101],[49.1,2183],[49.1,2268],[49.8,2349],[51.1,2432],[51.6,2519],[51.6,2599],[51.6,2682],[64,2768],[70.1,2849],[70.2,2933],[70.2,3015],[72,3101],[74,3184],[74.1,3269],[74.4,3351],[75.8,3435],[76,3518],[76,3599],[76,3683],[76,3766],[76,3851],[76,3933],[76,4018],[76,4100],[76,4182],[76,4267],[76,4350],[76,4432],[76,4516],[76,4599],[76,4684],[76,4768],[76,4851],[76,4933],[76,5016],[76,5100],[76,5182],[76,5269],[76,5349],[76,5432],[76,5516],[76,5602],[76,5682],[76,5766],[76,5849],[76,5935],[76,6016],[76,6099],[76,6186],[76,6266],[76,6350],[76,6433],[76,6519],[76,6603],[76,6683],[76,6770],[76,6849],[76,6932],[76,7015],[76,7100],[76,7184],[76,7266],[76,7351],[76,7432],[76,7517],[76,7600],[76,7682],[76,7765],[76,7850],[76,7932],[76,8016],[75.8,8100],[75.4,8185],[75.4,8266],[75.4,8349],[75.4,8434],[75.4,8519],[74.9,8599],[74.4,8684],[74.4,8766],[74.4,8849],[73.9,8933],[73,9019],[72.4,9099],[70.7,9184],[69.8,9268],[68.9,9351],[67.6,9435],[67.4,9517],[67.3,9602],[66.2,9685],[65.1,9766],[64.8,9849],[64.8,9932],[65.9,10015],[66.2,10099],[66.3,10182],[66.9,10265],[67.3,10352],[67.3,10432],[67.3,10516],[67.3,10599],[67.7,10685],[68.7,10766],[70.3,10851],[71.5,10932],[72.1,11016],[72.2,11100],[72.2,11182],[72.2,11266],[72.2,11351],[72.2,11433],[72.2,11516],[72.2,11601],[72.2,11682],[72.2,11767],[72.2,11851],[72.2,11932],[72.2,12016],[72.2,12099],[72.2,12186],[72.2,12267],[72.2,12350],[72.2,12432],[72.2,12515],[72.2,12598],[72.2,12684],[72.2,12766],[72.2,12851],[72.2,12932],[72.2,13016],[72.2,13099],[72.2,13184],[72.2,13265],[72.2,13351],[72.2,13434],[72.2,13517],[72.2,13600],[72.2,13683],[72.2,13766],[72.2,13849],[72.2,13932],[72.2,14016],[72.2,14101],[73.2,14183],[76.7,14266],[77.8,14350],[78,14434],[80.2,14516],[82.5,14602],[83.7,14686],[84.6,14768],[85.7,14849],[86.3,14936],[86.5,15016],[86.8,15100],[86.8,15182],[86.8,15266],[86.8,15351],[86.8,15434],[86.8,15516],[86.8,15602],[86.8,15685],[86.8,15766],[86.8,15851],[86.8,15936],[86.8,16016],[86.8,16101],[86.8,16186],[86.8,16267],[86.8,16350],[86.8,16433],[86.8,16516],[86.8,16603],[86.8,16684],[86.8,16766],[86.8,16849],[86.7,16935],[86.3,17016],[86.3,17099],[86.3,17183],[86.3,17266],[84.8,17351],[83.2,17435],[83.1,17516],[82.8,17599],[81.5,17684],[81.4,17766],[81.4,17848],[81.4,17933],[81.4,18016],[81.7,18100],[82.5,18183],[83.2,18267],[83.4,18350],[83.4,18434],[83.4,18517],[83.7,18599],[84,18683],[84,18766],[84,18849],[84,18934],[84,19015],[84,19100],[84.5,19183],[84.7,19270],[84.7,19351],[84.7,19434],[84.7,19518],[84.7,19600],[84.7,19686],[84.7,19766],[84.7,19850],[84.7,19932],[84.7,20018],[84.7,20101],[84.7,20183],[84.7,20268],[84.7,20350],[84.7,20433],[84.7,20516],[84.7,20599],[84.7,20684],[84.7,20766],[84.7,20850],[84.7,20933],[84.7,21017],[84.7,21100],[84.7,21182],[84.7,21265],[84.7,21349],[84.7,21432],[84.7,21516],[84.7,21600],[84.7,21683],[84.7,21766],[84.7,21848],[84.7,21933],[84.7,22015],[84.7,22099],[84.3,22183],[83.7,22270],[83.7,22349]]",1,0,523.8063,525.8209,71.58420139,1.4099,"[{""rating"":71.58420138888889,""responseTime"":1.4099000000358046}]",space,1.4603,,525.821,Not at all,0,525.8251,,,[],,0,12,12,12,1,audio/Narrative8Situation3.wav,audio/Narrative7Situation3.wav,audio/Narrative6Situation3.wav,audio/Narrative5Situation3.wav,4,8,5,3,,,,,,,,,,,,,,,,,,,,,,,,,,,,,,,,,,,,,,,
,,,,,,62e185f1375fa71f12753c64,2024-02-08_13h03.23.607,group3.1-3.2-social-tom,2023.2.2,MacIntel,59.88023952,65c5074098b851296ff0b7ed,65c54175937cc216a4005316,,,,,,,,,,,,,,,,,,,,,,,,,,,,,525.8255,1,audio/Narrative8Situation4.wav,528.835,,528.8351,543.0026,"[[69.9,1100],[59.4,1350],[56.3,1433],[56.1,1517],[56,1600],[56,1682],[55.6,1766],[49,1850],[45.1,1935],[45.1,2016],[45.1,2100],[45.1,2187],[45.4,2266],[46.6,2352],[46.8,2432],[46.8,2515],[47,2601],[47.6,2686],[47.7,2766],[47.7,2853],[47.7,2935],[47.7,3016],[47.7,3103],[47.7,3186],[47.7,3267],[47.7,3350],[47.7,3432],[47.7,3516],[47.7,3600],[47.7,3684],[47.7,3766],[47.7,3850],[47.7,3933],[47.7,4019],[47.7,4099],[47.7,4183],[47.7,4267],[47.7,4349],[47.7,4432],[47.7,4516],[47.7,4602],[47.7,4685],[47.7,4765],[47.7,4850],[47.7,4933],[47.7,5017],[47.7,5103],[47.7,5184],[48.7,5268],[48.9,5349],[49.3,5434],[51.3,5518],[52.3,5599],[52.3,5682],[52.3,5766],[52.3,5849],[52.3,5932],[52.8,6016],[53.8,6099],[56.3,6184],[60.2,6265],[63.8,6350],[65.4,6432],[65.4,6519],[65.4,6599],[65.4,6682],[66.2,6767],[68.1,6850],[70.1,6932],[72,7016],[74.1,7101],[76,7185],[76.6,7266],[76.5,7350],[76.5,7433],[76.5,7517],[76.5,7602],[76.5,7685],[76.5,7766],[76.5,7849],[76.5,7933],[76.5,8016],[76.5,8101],[76.5,8183],[76.5,8269],[76.6,8350],[76.8,8432],[77.2,8521],[77.4,8600],[77.4,8683],[77.9,8767],[78.3,8852],[78.3,8933],[78.3,9017],[78.3,9100],[78.3,9183],[78.3,9266],[78.3,9350],[78.3,9435],[78.3,9516],[78.3,9601],[78.3,9683],[78.3,9766],[78.3,9850],[78.3,9933],[78.3,10017],[78.4,10100],[78.4,10184],[78.4,10269],[78.4,10350],[78.4,10433],[78.4,10516],[78.4,10602],[78.4,10683],[78.4,10769],[78.4,10850],[78.4,10933],[78.4,11016],[78.4,11100],[78.4,11182],[78.4,11266],[78.4,11349],[78.4,11433],[78.4,11516],[78.4,11602],[78.4,11683],[79.3,11768],[80.1,11849],[81.1,11933],[82,12015],[83.1,12099],[84.1,12182],[85.2,12269],[85.3,12349],[85.3,12432],[85.3,12515],[85.3,12602],[85.3,12685],[85.3,12767],[85.3,12850],[85.3,12932],[85.3,13016],[85.3,13101],[85.3,13186],[85.3,13266],[85.3,13350],[85.3,13432],[85.3,13517],[85.3,13599],[85.3,13683],[85.3,13768],[88,13850],[90.2,13934],[90.3,14016],[90.3,14101]]",1,0,543.0029,545.4011,74.71082899,1.4908,"[{""rating"":74.71082899305556,""responseTime"":1.4908000000119728}]",space,1.8547,,545.4012,Not at all,0,545.4038,,,[],,0,13,13,13,1,audio/Narrative8Situation4.wav,audio/Narrative7Situation4.wav,audio/Narrative6Situation4.wav,audio/Narrative5Situation4.wav,3,3,2,1,,,,,,,,,,,,,,,,,,,,,,,,,,,,,,,,,,,,,,,
,,,,,,62e185f1375fa71f12753c64,2024-02-08_13h03.23.607,group3.1-3.2-social-tom,2023.2.2,MacIntel,59.88023952,65c5074098b851296ff0b7ed,65c54175937cc216a4005316,,,,,,,,,,,,,,,,,,,,,,,,,,,,,545.4042,1,audio/Narrative8Situation5.wav,547.4193,,547.4193,555.6538,"[[50,1664],[48,1748],[47.7,1832],[49.2,1917],[49.8,2000],[49.9,2082],[50,2167],[50.3,2250],[50.3,2333],[50.3,2415],[50.3,2498],[50.3,2583],[50.3,2665],[50.3,2751],[50.3,2832],[50.3,2915],[50.3,2998],[50.3,3082],[50.3,3167],[50.3,3250],[50.3,3332],[50.3,3415],[50.3,3499],[50.3,3582],[50.4,3665],[50.9,3751],[51.4,3834],[51.4,3915],[51.8,4000],[54.1,4084],[55.7,4164],[57.2,4248],[57.4,4331],[58.2,4417],[61.9,4501],[66.9,4589],[67.1,4665],[67.1,4751],[67.1,4832],[72,4915],[74.3,4999],[74.4,5081],[74.4,5165],[75,5249],[76.1,5333],[76.6,5415],[77,5498],[77.3,5581],[77.4,5666],[77.4,5748],[77.4,5834],[77.4,5915],[77.4,6002],[77.8,6081],[78.1,6165],[78.4,6248],[78.6,6331],[78.6,6418],[78.6,6499],[78.6,6586],[78.7,6665],[78.7,6749],[78.6,6834],[78.6,6916],[78.6,6999],[78.6,7083],[78.6,7165],[78.6,7249],[78.6,7332],[78.6,7418],[78.6,7498],[78.6,7582],[78.6,7665],[78.6,7749],[78.6,7834],[78.6,7915],[78.6,7999],[78.6,8082],[78.6,8165]]",1,0,555.6539,561.8345,87.8765191,5.6307,"[{""rating"":87.87651909722223,""responseTime"":5.630699999987996}]",space,5.6374,,561.8345,All the time,100,561.8377,,,[],,0,14,14,14,1,audio/Narrative8Situation5.wav,audio/Narrative7Situation5.wav,audio/Narrative6Situation5.wav,audio/Narrative5Situation5.wav,2,5,2,5,,,,,,,,,,,,,,,,,,,,,,,,,,,,,,,,,,,,,,,
,,,,,,62e185f1375fa71f12753c64,2024-02-08_13h03.23.607,group3.1-3.2-social-tom,2023.2.2,MacIntel,59.88023952,65c5074098b851296ff0b7ed,65c54175937cc216a4005316,,,,,,,,,,,,,,,,,,,,,,,,,,,,,561.838,1,audio/Narrative8Situation6.wav,563.8513,,563.8514,570.3519,"[[87.3,2249],[83.7,2334],[81.5,2418],[80.4,2500],[78.4,2583],[77.5,2668],[77.5,2749],[77.5,2834],[77.5,2917],[77.5,3001],[72.7,3083],[68.6,3167],[68.6,3249],[68.4,3334],[66.8,3418],[64.1,3502],[64,3583],[64,3666],[64,3750],[64,3836],[64,3916],[63.1,4002],[62.9,4083],[62.9,4167],[62.9,4249],[62.9,4333],[62.9,4417],[62.9,4500],[62.9,4582],[62.9,4667],[62.9,4749],[62.9,4832],[62.8,4916],[62.6,5000],[62.6,5082],[62.6,5166],[62.6,5249],[62.6,5333],[62.6,5417],[67.1,5501],[79.9,5585],[81.5,5668],[81.5,5749],[85.5,5835],[91.2,5919],[91.3,5999],[91.3,6082],[91.3,6167],[91.3,6249],[91.3,6332],[91.3,6417],[91.3,6500]]",1,0,570.352,575.2511,87.3046875,4.3315,"[{""rating"":87.3046875,""responseTime"":4.3315000000000055}]",space,4.3484,,575.2511,Not at all,0,575.2557,,,[],,0,15,15,15,1,audio/Narrative8Situation6.wav,audio/Narrative7Situation6.wav,audio/Narrative6Situation6.wav,audio/Narrative5Situation6.wav,2,3,2,3,,,,,,,,,,,,,,,,,,,,,,,,,,,,,,,,,,,,,,,
,,,,,,62e185f1375fa71f12753c64,2024-02-08_13h03.23.607,group3.1-3.2-social-tom,2023.2.2,MacIntel,59.88023952,65c5074098b851296ff0b7ed,65c54175937cc216a4005316,,,,,,,,,,,,,,,,,,,,,,,,,,,,,575.2562,1,audio/Narrative8Situation7.wav,578.2694,,578.2695,590.3511,"[[82.8,1333],[80,1415],[65.7,1748],[64.8,1840],[64.8,1917],[64.8,1999],[64.8,2080],[64.8,2165],[64.7,2249],[59.3,2331],[57.3,2417],[56.9,2498],[54.5,2581],[51.5,2664],[51.4,2749],[51.4,2832],[51.2,2917],[50.7,2999],[50.7,3080],[50.6,3164],[50.3,3248],[50.1,3331],[50.1,3414],[50.1,3498],[50.1,3581],[50.1,3665],[50.1,3748],[50.1,3834],[50.1,3916],[50.1,3997],[50.1,4082],[50.1,4164],[50.1,4248],[50.1,4332],[50.1,4415],[50.1,4498],[51.2,4583],[55.2,4664],[57.8,4748],[58.9,4835],[59.8,4914],[61.3,5000],[61.5,5086],[61.5,5166],[61.5,5250],[61.5,5333],[61.5,5414],[61.5,5497],[63.2,5584],[64.2,5666],[64.3,5747],[64.3,5831],[64.9,5916],[67.4,5999],[71.4,6082],[74.6,6164],[75.1,6248],[75.5,6331],[76.2,6416],[76.9,6498],[77,6581],[77,6665],[77,6748],[77,6831],[77,6914],[77,6997],[77,7081],[77,7165],[77,7248],[77,7331],[77,7414],[77,7497],[77,7581],[77,7664],[77,7748],[77,7830],[77,7915],[77,7997],[77,8080],[77,8164],[77,8249],[77,8330],[77,8418],[77,8498],[77,8581],[77,8666],[77,8748],[77,8831],[77,8917],[77,8999],[77,9081],[77,9165],[77,9248],[77,9331],[77,9415],[77,9498],[77,9580],[77,9666],[77,9748],[77,9832],[77,9916],[77,9998],[77,10082],[77,10165],[77,10250],[77,10332],[77,10415],[77,10498],[77,10582],[77,10664],[77,10747],[77,10834],[77,10915],[77,10998],[77,11081],[77,11165],[77,11247],[77.5,11345],[81,11415],[87.8,11497],[89.7,11581],[89.7,11668],[89.7,11748],[89.7,11831],[90,11914],[90.1,11997],[90.1,12081]]",1,0,590.3514,592.3357,86.6531033,1.4166,"[{""rating"":86.65310329861111,""responseTime"":1.4166000000237773}]",space,1.4418,,592.3358,Not at all,0,592.3386,,,[],,0,16,16,16,1,audio/Narrative8Situation7.wav,audio/Narrative7Situation7.wav,audio/Narrative6Situation7.wav,audio/Narrative5Situation7.wav,3,5,5,4,,,,,,,,,,,,,,,,,,,,,,,,,,,,,,,,,,,,,,,
,,,,,,62e185f1375fa71f12753c64,2024-02-08_13h03.23.607,group3.1-3.2-social-tom,2023.2.2,MacIntel,59.88023952,65c5074098b851296ff0b7ed,65c54175937cc216a4005316,,,,,,,,,,,,,,,,,,,,,,,,,,,,,592.3391,1,audio/Narrative8Situation8.wav,595.3524,,595.3525,608.218,"[[85.7,1931],[84.6,2015],[84.4,2098],[83.7,2182],[77,2268],[71.1,2348],[71.1,2430],[71.1,2517],[71.1,2598],[71.1,2682],[71.1,2764],[71,2850],[70.7,2933],[70.5,3015],[70.5,3098],[70.5,3182],[70.5,3265],[70.5,3348],[70.5,3434],[70.5,3515],[70.5,3601],[70.5,3681],[70.5,3766],[70.5,3850],[70.3,3933],[69.7,4015],[69.1,4099],[68.2,4181],[67.2,4266],[66.6,4349],[66.2,4432],[65.5,4515],[64.3,4600],[64.2,4682],[64.2,4767],[65.3,4851],[68.6,4932],[71.5,5014],[74.3,5100],[75.7,5181],[75.7,5264],[75.2,5348],[75.2,5431],[75.2,5516],[75.2,5599],[77.2,5682],[78.6,5764],[78.8,5847],[78.8,5932],[78.8,6014],[78.8,6098],[78.8,6181],[79.1,6264],[79.2,6350],[80.3,6433],[81.1,6514],[81.3,6597],[81.3,6684],[81.3,6764],[81.3,6849],[81.3,6931],[81.3,7015],[82.1,7099],[83.3,7183],[84.8,7266],[86.2,7350],[87.3,7433],[89.2,7516],[90.3,7600],[90.3,7681],[90.2,7764],[90,7849],[89.3,7932],[88.8,8014],[88.3,8100],[87.9,8183],[87.8,8266],[87.8,8348],[87.8,8430],[87.8,8514],[87.8,8597],[87.8,8684],[87.8,8764],[87.8,8848],[87.8,8932],[87.8,9014],[87.8,9100],[87.8,9181],[87.8,9265],[87.8,9349],[87.8,9430],[87.8,9514],[87.8,9599],[87.8,9680],[87.8,9766],[87.8,9848],[87.8,9930],[87.8,10017],[87.8,10098],[87.8,10182],[87.8,10264],[87.8,10350],[87.8,10431],[87.8,10514],[87.8,10601],[87.8,10682],[87.8,10765],[87.8,10849],[87.8,10931],[87.8,11016],[87.8,11100],[87.8,11183],[87.8,11265],[87.8,11348],[87.8,11432],[87.8,11516],[87.8,11599],[87.8,11684],[87.8,11767],[87.8,11848],[87.8,11932],[87.8,12016],[87.8,12098],[87.8,12182],[87.8,12265],[87.8,12348],[87.8,12431],[87.8,12517],[87.8,12598],[87.8,12684],[87.8,12765],[87.8,12849]]",1,0,608.2182,613.5673,99.30175781,4.7663,"[{""rating"":78.13639322916667,""responseTime"":3.65119999998808},{""rating"":85.4345703125,""responseTime"":4.128099999964206},{""rating"":99.3017578125,""responseTime"":4.766299999952253}]",space,4.8186,,613.5674,Not at all,0,613.5701,,,[],,0,17,17,17,1,audio/Narrative8Situation8.wav,audio/Narrative7Situation8.wav,audio/Narrative6Situation8.wav,audio/Narrative5Situation8.wav,3,2,5,3,,,,,,,,,,,,,,,,,,,,,,,,,,,,,,,,,,,,,,,
,,,,,,62e185f1375fa71f12753c64,2024-02-08_13h03.23.607,group3.1-3.2-social-tom,2023.2.2,MacIntel,59.88023952,65c5074098b851296ff0b7ed,65c54175937cc216a4005316,,,,,,,,,,,,,,,,,,,,,,,,,,,,,613.5706,1,audio/Narrative8Situation9.wav,616.5835,,616.5836,627.9018,"[[99.2,668],[84.8,752],[76.5,4340],[76.8,4416],[77.2,4499],[78.8,4585],[80.2,4666],[80.3,4749],[80.5,4834],[81.4,4919],[81.6,5000],[81.7,5084],[81.7,5166],[81.7,5251],[81.7,5333],[81.7,5416],[81.7,5499],[81.7,5585],[81.7,5667],[81.7,5749],[81.7,5833],[81.7,5918],[81.7,6001],[81.7,6086],[83.4,6168],[84.2,6251],[84.7,6334],[85.4,6419],[85.7,6500],[85.7,6583],[85.8,6668],[85.9,6752],[86.4,6832],[86.5,6916],[86.5,6999],[86.5,7084],[86.5,7166],[86.5,7249],[89.8,7335],[91.4,7419],[91.5,7500],[92.6,7585],[92.7,7666],[93.9,7750],[96.4,7833],[96.5,7916],[96.5,8001],[96.5,8086],[96.5,8166],[96.5,8249],[96.5,8336],[96.5,8418],[96.5,8499],[96.5,8583],[96.5,8666],[96.5,8749],[96.5,8834],[96.5,8916],[96.5,9002],[96.5,9084],[96.5,9167],[96.5,9249],[96.5,9333],[96.5,9419],[96.5,9499],[96.5,9583],[96.5,9667],[96.5,9749],[96.5,9836],[96.5,9916],[96.5,10001],[96.5,10085],[96.5,10166],[96.5,10249],[96.5,10333],[96.5,10417],[96.5,10499],[96.5,10585],[96.5,10666],[96.5,10753],[96.5,10833],[96.5,10920],[96.5,11000],[96.5,11084],[96.5,11169],[96.5,11250]]",1,0,627.902,631.1998,91.50607639,2.5649,"[{""rating"":91.50607638888889,""responseTime"":2.5649000000357773}]",space,2.7514,,631.1998,Half the time,50,646.1344,49.97775608,9.1802,"[{""rating"":49.97775607638889,""responseTime"":9.180199999988076}]",space,0,18,18,18,1,audio/Narrative8Situation9.wav,audio/Narrative7Situation9.wav,audio/Narrative6Situation9.wav,audio/Narrative5Situation9.wav,3,2,4,3,,,14.408,,,,,,,,,,,,,,,,,,,,,,,,,,,,,,,,,,,,
,,,,,,62e185f1375fa71f12753c64,2024-02-08_13h03.23.607,group3.1-3.2-social-tom,2023.2.2,MacIntel,59.88023952,65c5074098b851296ff0b7ed,65c54175937cc216a4005316,,,,,,,,,,,,,,,,,,,,,,,,,,,656.7638,659.3332,659.3499,2,audio/Narrative13Situation2.wav,659.35,,659.35,689.1037,"[[999,0],[999,66],[999,151],[999,236],[999,316],[999,399],[999,485],[999,566],[999,650],[999,733],[999,816],[999,899],[999,983],[999,1066],[999,1149],[999,1232],[999,1316],[999,1399],[999,1482],[999,1568],[999,1649],[999,1733],[999,1816],[999,1900],[999,1982],[999,2066],[999,2149],[999,2232],[999,2317],[999,2399],[999,2483],[999,2566],[999,2650],[999,2732],[999,2818],[999,2899],[999,2982],[999,3066],[999,3152],[999,3234],[999,3319],[999,3402],[999,3483],[999,3568],[999,3649],[999,3733],[999,3816],[999,3901],[999,3983],[999,4066],[999,4149],[999,4234],[999,4316],[999,4400],[999,4483],[999,4565],[999,4649],[999,4735],[999,4818],[999,4900],[999,4983],[999,5066],[999,5149],[999,5235],[999,5316],[999,5401],[999,5482],[999,5567],[999,5649],[999,5732],[999,5818],[999,5901],[999,5984],[999,6066],[999,6149],[999,6233],[999,6316],[999,6399],[999,6483],[999,6567],[999,6650],[999,6735],[999,6815],[999,6900],[999,6983],[999,7066],[999,7149],[999,7233],[999,7316],[999,7400],[999,7482],[999,7566],[999,7649],[999,7735],[999,7816],[999,7899],[999,7983],[999,8066],[999,8151],[999,8233],[999,8316],[999,8399],[999,8483],[999,8566],[999,8650],[999,8735],[999,8816],[999,8899],[999,8986],[999,9066],[999,9152],[999,9233],[999,9317],[51.9,9496],[52.4,9566],[52.1,9651],[44.1,9735],[41,9817],[39.7,9899],[39.7,9984],[39.7,10066],[39.7,10149],[39.7,10233],[39,10318],[32.6,10401],[31.8,10484],[31.7,10568],[31.3,10651],[30.5,10736],[29.9,10815],[29.9,10899],[29.9,10982],[29.9,11068],[29.9,11149],[29.9,11234],[29.9,11316],[29.9,11399],[29.9,11483],[29.9,11567],[29.9,11649],[29.9,11732],[29.9,11817],[29.9,11900],[29.9,11984],[29.9,12066],[29.9,12151],[29.9,12232],[29.9,12320],[29.9,12399],[29.9,12482],[29.9,12567],[29.9,12649],[29.9,12733],[29.9,12816],[29.9,12899],[29.9,12982],[29.9,13065],[29.9,13151],[29.9,13232],[29.9,13316],[29.9,13402],[29.9,13482],[30.1,13570],[30.2,13650],[30.3,13732],[30.3,13818],[30.3,13899],[30.3,13982],[30.3,14066],[30.3,14149],[30.3,14233],[30.3,14315],[30.6,14401],[30.9,14484],[31.3,14566],[31.6,14652],[32.5,14735],[33.8,14817],[34.6,14902],[34.9,14982],[36.3,15068],[39.3,15152],[39.8,15236],[39.8,15316],[39.8,15399],[39.8,15482],[39.8,15566],[39.8,15649],[39.8,15733],[39.8,15815],[39.4,15901],[36.4,15985],[35.8,16069],[35.8,16149],[35.8,16233],[35.8,16316],[35.8,16401],[35.8,16482],[35.8,16566],[35.8,16649],[35.8,16732],[35.8,16818],[35.8,16900],[35.8,16982],[35.8,17066],[35.8,17149],[35.8,17234],[35.8,17316],[35.8,17399],[35.8,17482],[35.8,17570],[35.8,17649],[35.8,17733],[35.8,17816],[35.8,17900],[35.8,17983],[35.8,18066],[35.8,18150],[35.8,18235],[35.8,18316],[35.8,18402],[35.8,18485],[35.8,18567],[35.8,18650],[35.8,18735],[35.8,18815],[35.8,18899],[35.8,18985],[35.8,19066],[35.8,19149],[35.8,19236],[35.8,19316],[35.8,19399],[35.8,19482],[35.8,19565],[35.8,19649],[35.8,19732],[35.8,19815],[35.8,19899],[35.8,19982],[35.8,20066],[35.8,20149],[35.8,20232],[35.8,20316],[35.8,20399],[35.8,20483],[35.8,20565],[35.8,20652],[35.8,20734],[35.8,20816],[35.9,20901],[36.1,20983],[36.7,21066],[40.4,21149],[43.3,21234],[45.9,21317],[46.9,21402],[46.5,21482],[46.5,21567],[46.5,21651],[46.5,21732],[48.2,21818],[50,21899],[50.2,21983],[51.3,22065],[52.3,22151],[52.3,22234],[52.3,22315],[52.3,22399],[52.3,22485],[52.8,22567],[54,22650],[59,22732],[67.5,23649],[63.8,23735],[62.7,23818],[62.5,23900],[66,23983],[68,24067],[68.7,24149],[69.6,24234],[70.3,24318],[71.1,24399],[72,24485],[72.5,24567],[72.5,24648],[72.5,24735],[72.5,24816],[72.5,24900],[72.5,24982],[72.5,25068],[72.5,25149],[72.5,25233],[72.5,25318],[72.5,25399],[72.6,25482],[72.8,25567],[72.8,25648],[72.8,25735],[72.8,25816],[72.8,25899],[72.8,25983],[72.8,26068],[72.8,26149],[72.8,26232],[72.8,26316],[72.8,26399],[72.8,26484],[72.8,26565],[72.8,26650],[72.8,26732],[72.8,26815],[72.8,26898],[72.8,26982],[72.8,27066],[72.8,27151],[72.8,27232],[73.1,27318],[74.6,27402],[75.4,27484],[76,27567],[76.2,27652],[76.2,27733],[76.2,27816],[76.2,27899],[76.2,27986],[76.2,28068],[76.2,28149],[76.2,28234],[76.2,28316],[76.2,28399],[76.2,28484],[76.2,28566],[76.2,28649],[76.2,28732],[76.2,28816],[76.2,28900],[76.2,28982],[76.2,29073],[76.2,29149],[76.2,29233],[76.2,29317],[78.3,29401],[79.5,29483],[80.4,29568],[81.1,29648],[81.2,29733]]",1,0,689.104,689.106,,,[],,,,689.1061,Not at all,0,689.1087,,,[],,0,0,0,0,1,audio/Narrative13Situation2.wav,audio/Narrative13Situation2.wav,audio/Narrative13Situation2.wav,audio/Narrative13Situation2.wav,2,2,2,2,,,,,646.1498,656.7506,space,10.0839,,,,,,,,,,,,,,,,,,,,,,,,,,,,,,,
,,,,,,62e185f1375fa71f12753c64,2024-02-08_13h03.23.607,group3.1-3.2-social-tom,2023.2.2,MacIntel,59.88023952,65c5074098b851296ff0b7ed,65c54175937cc216a4005316,,,,,,,,,,,,,,,,,,,,,,,,,,,,,689.109,2,audio/Narrative5Situation1.wav,694.1181,,694.1182,707.4186,"[[71.8,4516],[64,4599],[60.5,4684],[59.9,4764],[59.8,4847],[59.8,4930],[59.8,5017],[59.8,5100],[58.6,5182],[54,5264],[53.5,5348],[53.5,5431],[53.5,5514],[53.5,5599],[53.5,5682],[53.5,5764],[53.5,5849],[53.5,5930],[53.5,6014],[53.5,6097],[53.5,6180],[53.5,6265],[53.5,6347],[53.5,6434],[53.5,6514],[53.5,6597],[53.5,6681],[56.6,6764],[61.1,6850],[61.1,6931],[60,7016],[58.5,7097],[65,7183],[74,7266],[75.2,7349],[75.1,7431],[75.1,7516],[75.1,7600],[75.1,7680],[75.1,7764],[75.1,7847],[75.1,7932],[75.1,8017],[75.1,8098],[75.1,8180],[75.1,8264],[75.1,8347],[75.1,8431],[75.1,8517],[75.1,8597],[75.1,8681],[75.1,8764],[75.1,8846],[75.1,8930],[75.1,9016],[75.1,9097],[75.1,9182],[75.1,9263],[75.1,9351],[75.1,9430],[75.1,9516],[75.1,9599],[75.1,9682],[75.1,9767],[75.1,9847],[75.1,9931],[75.1,10014],[75.1,10097],[75.1,10182],[75.1,10264],[75.1,10347],[75.1,10433],[75.1,10514],[75.1,10599],[75.1,10681],[75.1,10764],[75.1,10849],[75.1,10932],[75.1,11014],[75.1,11096],[75.1,11180],[75.1,11265],[75.1,11347],[75.1,11433],[75.1,11514],[75.1,11598],[75.1,11681],[75.1,11764],[75.1,11847],[75.1,11934],[75.1,12014],[75.1,12100],[75.1,12183],[75.1,12265],[75.1,12348],[75.1,12430],[75.1,12516],[75.1,12599],[75.1,12680],[75.1,12766],[75.1,12846],[75.1,12934],[75.1,13017],[75.1,13100],[75.1,13182],[75.1,13265]]",1,0,707.4189,717.2152,72.11914063,7.8977,"[{""rating"":62.31716579861111,""responseTime"":5.978199999988078},{""rating"":50.19097222222222,""responseTime"":6.930599999964215},{""rating"":55.40473090277778,""responseTime"":7.378099999964206},{""rating"":72.119140625,""responseTime"":7.897699999988049}]",space,9.2502,,717.2153,All the time,100,717.219,,,[],,0,1,1,1,1,audio/Narrative7Situation1.wav,audio/Narrative8Situation1.wav,audio/Narrative5Situation1.wav,audio/Narrative6Situation1.wav,2,5,5,2,,,,,,,,,,,,,,,,,,,,,,,,,,,,,,,,,,,,,,,
,,,,,,62e185f1375fa71f12753c64,2024-02-08_13h03.23.607,group3.1-3.2-social-tom,2023.2.2,MacIntel,59.88023952,65c5074098b851296ff0b7ed,65c54175937cc216a4005316,,,,,,,,,,,,,,,,,,,,,,,,,,,,,717.2193,2,audio/Narrative5Situation2.wav,720.2323,,720.2324,749.6848,"[[79.3,3836],[77.7,3916],[77.6,3999],[77.6,4083],[77.3,4166],[77.3,4252],[77.3,4333],[77.3,4417],[77.3,4500],[77,4583],[77,4665],[77,4749],[77,4832],[77,4919],[77,4999],[76.6,5084],[76.1,5165],[76,5249],[76,5334],[76,5416],[76,5499],[74.4,5586],[73.3,5668],[71.7,5751],[69.1,5836],[67.8,5916],[67.7,6001],[66.3,6085],[64.6,6165],[64.1,6251],[63.9,6335],[63.9,6416],[63.9,6500],[63.9,6586],[63.9,6670],[63.9,6750],[63.9,6833],[63.9,6916],[63.9,7001],[63.9,7084],[63.9,7167],[63.9,7250],[63.9,7333],[63.9,7418],[63.9,7499],[63.9,7584],[63.9,7669],[63.9,7749],[63.9,7835],[63.9,7916],[63.9,8001],[63.9,8084],[63.9,8168],[63.9,8250],[63.9,8333],[63.9,8417],[63.9,8500],[63.9,8584],[63.9,8666],[63.9,8751],[63.9,8833],[63.9,8917],[63.9,8999],[63.9,9084],[63.9,9167],[63.9,9250],[63.9,9334],[63.9,9417],[60.6,9500],[57.6,9583],[57.4,9666],[57.4,9749],[57.4,9834],[57.4,9916],[57.4,10001],[57.4,10084],[57.4,10167],[57.4,10252],[57.4,10332],[57.4,10415],[57.4,10499],[57.4,10584],[57.4,10668],[57.4,10753],[57.5,10834],[58.7,10917],[62.4,10999],[65,11084],[65.3,11166],[66,11249],[67.2,11333],[67.8,11416],[67.9,11500],[67.9,11583],[67.9,11666],[67.9,11750],[67.7,11833],[67.7,11919],[67.7,12000],[67.7,12084],[67.7,12166],[67.7,12252],[67.7,12334],[67.7,12417],[67.7,12500],[67.7,12582],[67.7,12666],[67.7,12750],[67.7,12833],[67.7,12918],[67.7,13000],[67.7,13083],[67.7,13166],[67.7,13250],[67.7,13333],[67.7,13416],[67.7,13499],[67.7,13583],[67.7,13667],[67.7,13749],[67.7,13833],[67.7,13919],[67.7,14001],[67.7,14084],[67.7,14166],[67.7,14252],[67.7,14335],[67.7,14416],[67.7,14500],[67.7,14583],[67.7,14666],[67.7,14749],[67.7,14832],[67.7,14919],[67.7,15000],[67.7,15083],[67.7,15165],[67.7,15252],[67.7,15334],[67.7,15417],[67.7,15502],[67.7,15582],[69.9,15669],[70.5,15750],[70.6,15832],[71,15917],[71.1,15999],[71.1,16083],[71.1,16169],[71.1,16249],[71.1,16335],[71.1,16416],[71.1,16501],[71.1,16583],[71.1,16666],[71.1,16749],[71.1,16835],[71.1,16916],[71.1,17000],[71.1,17083],[71.1,17166],[71.1,17250],[71.1,17333],[71.1,17420],[71.1,17500],[71.1,17585],[71.1,17669],[71.1,17750],[71.1,17834],[71.1,17916],[71.1,18001],[71.1,18083],[73.1,18168],[76.4,18250],[76.7,18335],[77.5,18417],[79.5,18499],[79.9,18583],[81.8,18668],[84.1,18751],[85.3,18837],[85.8,18919],[85.8,18999],[85.8,19082],[85.8,19169],[85.8,19250],[85.8,19333],[85.8,19416],[85.8,19500],[85.8,19585],[85.8,19666],[85.8,19750],[85.8,19834],[85.8,19917],[85.8,20000],[85.8,20084],[85.8,20167],[85.8,20250],[85.8,20333],[85.8,20417],[85.8,20502],[85.8,20582],[85.8,20668],[85.8,20753],[85.8,20833],[85.8,20916],[85.8,21000],[85.8,21085],[85.8,21166],[85.8,21249],[85.8,21333],[85.8,21416],[85.8,21499],[85.8,21583],[85.8,21666],[85.8,21750],[85.8,21833],[85.8,21916],[85.8,22001],[85.8,22084],[85.8,22166],[85.8,22250],[85.8,22335],[85.8,22417],[85.8,22499],[85.8,22583],[85.8,22668],[85.8,22750],[85.8,22833],[85.8,22916],[85.8,23000],[85.8,23082],[85.8,23169],[86.2,23250],[89.2,23334],[89.7,23418],[90.3,23500],[91.2,23582],[92,23667],[93.7,23750],[94,23832],[94,23915],[94,23999],[94,24082],[94,24166],[94,24250],[94,24332],[94,24416],[94,24501],[94,24583],[94,24667],[94,24753],[94,24833],[94,24916],[94,25001],[94,25083],[94,25166],[94,25249],[94,25333],[94,25417],[94,25500],[94,25585],[94,25668],[94,25750],[94,25833],[94,25916],[94,26001],[94,26082],[94,26166],[94,26250],[94,26334],[94,26416],[94,26499],[94,26583],[94,26668],[94,26750],[94,26833],[94,26918],[94,27000],[94,27083],[94,27169],[94,27251],[94,27333],[94,27418],[94,27499],[94,27583],[94,27665],[94,27750],[94,27832],[94,27916],[94,28001],[94,28083],[94,28166],[94,28249],[94,28333],[94,28417],[94,28499],[94,28583],[94,28668],[94,28750],[95.4,28832],[95.7,28916],[95.7,29000],[95.7,29083],[95.7,29167],[95.7,29251],[95.7,29336],[95.7,29416]]",1,0,749.6851,754.0154,67.82389323,3.3952,"[{""rating"":67.82389322916667,""responseTime"":3.39520000004768}]",space,3.7905,,754.0155,All the time,100,754.0179,,,[],,0,2,2,2,1,audio/Narrative7Situation2.wav,audio/Narrative8Situation2.wav,audio/Narrative5Situation2.wav,audio/Narrative6Situation2.wav,3,3,3,3,,,,,,,,,,,,,,,,,,,,,,,,,,,,,,,,,,,,,,,
,,,,,,62e185f1375fa71f12753c64,2024-02-08_13h03.23.607,group3.1-3.2-social-tom,2023.2.2,MacIntel,59.88023952,65c5074098b851296ff0b7ed,65c54175937cc216a4005316,,,,,,,,,,,,,,,,,,,,,,,,,,,,,754.0182,2,audio/Narrative5Situation3.wav,757.0335,,757.0335,770.9485,"[[67.3,5166],[66.9,5250],[66.8,5330],[66.8,5415],[66.7,5499],[65.5,5581],[64.4,5664],[63.4,5751],[61.5,5830],[59.4,5916],[58.2,5998],[58.2,6081],[58.2,6165],[58.2,6248],[58.2,6331],[57.3,6416],[56.7,6501],[56.7,6584],[56.7,6666],[56.8,6750],[56.8,6831],[56.8,6915],[56.8,6998],[56.8,7081],[56.9,7165],[57.2,7249],[58.6,7331],[60,7415],[61,7498],[61.8,7584],[63,7668],[64,7748],[64.3,7831],[64.3,7916],[64.3,8000],[64.3,8081],[64.9,8166],[65.5,8249],[65.5,8332],[65.5,8415],[65.5,8498],[65.5,8582],[65.5,8664],[65.5,8748],[65.5,8831],[65.5,8915],[66.1,8998],[67,9082],[67.5,9165],[69,9248],[71.4,9333],[73.3,9415],[73.6,9497],[73.6,9582],[73.6,9664],[73.9,9751],[76.6,9833],[78.1,9915],[78.2,9998],[78.2,10082],[78.2,10165],[78.2,10249],[78.2,10333],[78.2,10415],[78.2,10500],[77.4,10582],[70.2,10668],[61,10748],[56.7,10831],[53.5,10914],[49.9,11001],[49.3,11081],[49.3,11165],[49.3,11249],[49.3,11332],[49.3,11415],[49.3,11499],[49.3,11582],[49.3,11665],[49.7,11749],[51.2,11831],[51.9,11914],[51.9,11999],[51.9,12082],[51.9,12165],[51.9,12248],[51.9,12331],[51.9,12415],[52.5,12500],[55,12582],[57.1,12666],[58.8,12750],[60.6,12832],[62.4,12914],[63.2,13001],[64,13082],[64.7,13165],[64.9,13248],[64.9,13332],[64.9,13414],[64.9,13498],[64.9,13581],[64.9,13665],[64.9,13748],[64.9,13834],[64.9,13914]]",1,0,770.9487,774.5324,50.26258681,2.3661,"[{""rating"":50.26258680555556,""responseTime"":2.3660999999642627}]",space,3.0322,,774.5325,Not at all,0,774.5365,,,[],,0,3,3,3,1,audio/Narrative7Situation3.wav,audio/Narrative8Situation3.wav,audio/Narrative5Situation3.wav,audio/Narrative6Situation3.wav,8,4,3,5,,,,,,,,,,,,,,,,,,,,,,,,,,,,,,,,,,,,,,,
,,,,,,62e185f1375fa71f12753c64,2024-02-08_13h03.23.607,group3.1-3.2-social-tom,2023.2.2,MacIntel,59.88023952,65c5074098b851296ff0b7ed,65c54175937cc216a4005316,,,,,,,,,,,,,,,,,,,,,,,,,,,,,774.5371,2,audio/Narrative5Situation4.wav,775.5479,,775.548,795.9509,"[[51.8,4085],[52.4,4168],[52.5,4253],[52.5,4334],[53,4419],[54.2,4500],[55,4585],[57.1,4669],[58.7,4750],[59.4,4836],[59.6,4917],[59.6,5000],[59.6,5083],[59.6,5169],[59.6,5249],[59.6,5334],[59.6,5417],[59.6,5500],[59.6,5586],[59.6,5667],[59.6,5750],[59.6,5836],[59.6,5918],[59.6,6000],[59.6,6084],[59.6,6166],[59.6,6252],[59.6,6333],[59.6,6417],[60.1,6500],[61.1,6583],[61.4,6669],[63.5,6750],[65.9,6833],[68.9,6918],[75,6999],[78.2,7085],[79.7,7168],[82.7,7249],[83.4,7333],[83.4,7416],[83.4,7500],[83.4,7583],[83.4,7666],[83.4,7751],[83.4,7833],[83.4,7918],[83.4,8002],[83.4,8083],[83.4,8166],[83.4,8251],[83.4,8333],[83.4,8416],[83.4,8499],[83.4,8582],[83.4,8666],[83.4,8753],[83.4,8833],[83.4,8919],[83.4,9002],[83.4,9084],[83.4,9167],[83.4,9250],[83.4,9335],[83.4,9417],[83.4,9500],[83.4,9583],[83.4,9667],[83.4,9750],[83.4,9834],[83.4,9917],[83.4,10000],[83.4,10083],[83.4,10167],[83.4,10251],[83.4,10334],[83.4,10417],[83.4,10500],[83.4,10584],[83.4,10667],[83.4,10750],[83.4,10834],[83.4,10916],[83.4,11000],[83.4,11083],[83.4,11167],[83.4,11250],[83.4,11336],[83.7,11416],[83.9,11503],[83.9,11586],[84.1,11667],[84.1,11750],[84.1,11835],[84.1,11917],[84.1,12000],[84.1,12084],[84.1,12167],[84.1,12252],[84.1,12333],[84.1,12418],[84.1,12503],[84.1,12584],[84.1,12667],[84.1,12752],[84.1,12834],[84.1,12916],[84.1,13000],[84.1,13085],[84.1,13166],[84.1,13250],[84.1,13335],[83.6,13417],[83.6,13504],[83.4,13586],[82.6,13666],[81.7,13752],[81.4,13836],[81.4,13916],[81.4,14001],[81.5,14084],[81.5,14167],[81.7,14253],[82.4,14333],[82.8,14420],[82.9,14499],[83,14584],[83.2,14669],[83.2,14752],[83.2,14834],[83.2,14919],[83.2,15000],[83.2,15084],[83.2,15166],[83.2,15250],[83.2,15334],[83.2,15417],[83.2,15500],[83.2,15586],[83.2,15666],[83.2,15750],[83.2,15834],[83.2,15916],[83.2,16000],[83.2,16084],[83.2,16166],[83.2,16252],[83.2,16333],[83.2,16420],[84.2,16502],[85.3,16584],[86.2,16668],[87.2,16751],[87.4,16833],[87.4,16917],[87.4,17000],[87.4,17084],[87.4,17167],[87.4,17250],[87.4,17333],[87.4,17416],[87.4,17500],[87.4,17584],[87.4,17669],[87.4,17750],[87.4,17833],[87.4,17918],[87.4,17999],[87.4,18083],[87.4,18167],[87.4,18250],[87.4,18334],[87.4,18417],[87.4,18502],[87.4,18583],[87.4,18668],[87.4,18750],[87.4,18833],[87.4,18916],[87.4,19000],[87.4,19083],[87.4,19169],[87.4,19250],[87.4,19334],[87.4,19418],[87.4,19500],[87.4,19583],[87.4,19666],[87.4,19750],[87.4,19837],[87.4,19916],[87.4,20001],[88.8,20083],[89.4,20167],[89.4,20249],[89.4,20332]]",1,0,795.9512,801.0315,92.32801649,3.9446,"[{""rating"":92.32801649305556,""responseTime"":3.9445999999642254}]",space,4.5347,,801.0316,Not at all,0,801.0336,,,[],,0,4,4,4,1,audio/Narrative7Situation4.wav,audio/Narrative8Situation4.wav,audio/Narrative5Situation4.wav,audio/Narrative6Situation4.wav,3,3,1,2,,,,,,,,,,,,,,,,,,,,,,,,,,,,,,,,,,,,,,,
,,,,,,62e185f1375fa71f12753c64,2024-02-08_13h03.23.607,group3.1-3.2-social-tom,2023.2.2,MacIntel,59.88023952,65c5074098b851296ff0b7ed,65c54175937cc216a4005316,,,,,,,,,,,,,,,,,,,,,,,,,,,,,801.034,2,audio/Narrative5Situation5.wav,806.0477,,806.0478,821.4817,"[[92.3,3917],[92.2,4000],[92.2,4083],[92.2,4168],[92.1,4251],[92.1,4333],[92,4419],[92,4501],[92,4584],[92,4666],[92,4750],[92.1,4835],[89.6,4921],[86.1,4999],[82.1,5083],[80.1,5168],[80.1,5250],[80.1,5333],[80.1,5420],[80.1,5501],[81.9,5586],[86.1,5666],[87.2,5750],[88.2,5834],[88.7,5918],[88.7,5999],[88.7,6083],[88.7,6166],[88.7,6250],[88.7,6333],[84.8,6417],[79.7,6502],[76.7,6584],[75.1,6668],[75.1,6750],[75.1,6833],[75.1,6919],[74.5,7000],[72.6,7086],[72,7168],[72,7249],[72,7332],[72,7416],[72,7500],[72,7584],[72,7665],[72.3,7750],[74.2,7834],[75.5,7917],[76,8000],[76,8082],[76,8170],[76,8250],[76,8335],[76,8419],[76.6,8501],[77.9,8584],[78.2,8668],[78.9,8751],[80,8832],[81.8,8919],[83,9000],[82.9,9083],[82.9,9167],[82.9,9251],[82.9,9334],[82.9,9416],[82.9,9499],[84.1,9583],[85.3,9667],[86,9750],[86.9,9832],[87.5,9917],[87.7,10000],[87.8,10082],[87.8,10167],[87.8,10249],[87.8,10334],[87.8,10417],[87.8,10500],[87.9,10584],[88,10667],[88.2,10750],[88.2,10833],[88.2,10918],[88.2,11000],[88.2,11085],[88.2,11168],[88.2,11250],[88.2,11334],[87.8,11419],[86.5,11501],[85.8,11584],[85,11668],[84.8,11753],[84.8,11833],[84.8,11916],[84.8,12000],[84.8,12084],[84.8,12167],[84.8,12249],[84.8,12334],[84.8,12416],[84.8,12503],[84.9,12584],[85,12668],[85,12749],[85,12833],[85,12916],[85,13000],[81.8,13086],[79.4,13168],[79.3,13249],[79.3,13334],[79.3,13416],[79.3,13501],[79.3,13582],[79.3,13667],[80.4,13749],[83.7,13834],[85.1,13916],[85.3,14000],[85.3,14083],[85.3,14168],[85.3,14250],[85.3,14333],[85.6,14416],[85.6,14499],[85.6,14583],[85.6,14667],[85.6,14749],[85.6,14834],[85.6,14916],[85.6,15000],[85.6,15085],[85.6,15167],[85.7,15251],[86.1,15332],[86.2,15416]]",1,0,821.4819,824.0979,98.28504774,2.0497,"[{""rating"":98.28504774305556,""responseTime"":2.0496999999880927}]",space,2.0776,,824.098,All the time,100,824.1019,,,[],,0,5,5,5,1,audio/Narrative7Situation5.wav,audio/Narrative8Situation5.wav,audio/Narrative5Situation5.wav,audio/Narrative6Situation5.wav,5,2,5,2,,,,,,,,,,,,,,,,,,,,,,,,,,,,,,,,,,,,,,,
,,,,,,62e185f1375fa71f12753c64,2024-02-08_13h03.23.607,group3.1-3.2-social-tom,2023.2.2,MacIntel,59.88023952,65c5074098b851296ff0b7ed,65c54175937cc216a4005316,,,,,,,,,,,,,,,,,,,,,,,,,,,,,824.1022,2,audio/Narrative5Situation6.wav,827.1146,,827.1148,832.7816,"[[97.9,1083],[76.1,1501],[76,1583],[76,1666],[76,1748],[77.2,1832],[78.6,1917],[78.6,2002],[78.6,2082],[78.6,2167],[78.6,2250],[78,2335],[76.3,2415],[75.1,2500],[73.2,2584],[71.5,2667],[70.8,2751],[70.6,2834],[70,2917],[69.5,3000],[69.5,3084],[68.7,3167],[66.7,3250],[65.4,3332],[65.3,3415],[65.3,3499],[65.3,3582],[65.3,3668],[65.3,3751],[65.3,3834],[65.3,3916],[65.3,3999],[65.8,4083],[72.5,4167],[74.2,4250],[74.2,4333],[74.2,4418],[72.5,4502],[64.5,4583],[63.1,4665],[60.6,4750],[57.7,4834],[56.7,4917],[55.9,4999],[55.9,5082],[55.9,5165],[55.9,5252],[55.9,5332],[55.9,5416],[55.9,5500],[55.9,5583],[55.9,5666]]",1,0,832.7817,836.3656,49.96310764,2.4125,"[{""rating"":49.963107638888886,""responseTime"":2.4125000000000227}]",space,3.0342,,836.3656,Not at all,0,836.3695,,,[],,0,6,6,6,1,audio/Narrative7Situation6.wav,audio/Narrative8Situation6.wav,audio/Narrative5Situation6.wav,audio/Narrative6Situation6.wav,3,2,3,2,,,,,,,,,,,,,,,,,,,,,,,,,,,,,,,,,,,,,,,
,,,,,,62e185f1375fa71f12753c64,2024-02-08_13h03.23.607,group3.1-3.2-social-tom,2023.2.2,MacIntel,59.88023952,65c5074098b851296ff0b7ed,65c54175937cc216a4005316,,,,,,,,,,,,,,,,,,,,,,,,,,,,,836.37,2,audio/Narrative5Situation7.wav,840.381,,840.381,861.4323,"[[49.9,1516],[49.9,1600],[49.9,1682],[49.9,1766],[49.9,1850],[49.9,1934],[49.9,2016],[49.9,2100],[49.9,2184],[49.9,2266],[49.9,2352],[49.9,2433],[49.9,2516],[49.9,2599],[49.9,2682],[49.9,2766],[49.9,2853],[49.9,2933],[49.9,3018],[49.9,3100],[49.9,3183],[49.9,3269],[49.9,3350],[49.9,3433],[49.9,3519],[49.9,3600],[49.9,3682],[49.9,3766],[49.9,3850],[49.9,3933],[49.9,4016],[49.9,4098],[49.9,4183],[50.5,4266],[51.3,4349],[51.7,4433],[51.7,4526],[51.7,4599],[51.7,4682],[51.7,4767],[51.7,4849],[51.7,4933],[51.7,5016],[51.7,5099],[51.7,5182],[51.8,5266],[51.9,5351],[51.9,5434],[51.9,5516],[51.9,5602],[52,5685],[52.1,5766],[52.1,5850],[52.1,5933],[52.6,6016],[53,6099],[53.8,6183],[55,6267],[56.1,6351],[57,6433],[57.2,6515],[57.2,6601],[57.2,6683],[57.2,6767],[57.2,6851],[57.2,6933],[57.2,7018],[57.2,7099],[57.2,7183],[57.2,7269],[57.2,7351],[57.2,7432],[57.5,7517],[57.7,7600],[57.7,7682],[57.8,7766],[58.3,7850],[58.9,7934],[59.9,8018],[60.5,8101],[61,8182],[61.3,8266],[61.4,8352],[61.4,8433],[61.4,8516],[61.4,8601],[61.4,8683],[61.4,8767],[61.4,8850],[61.4,8933],[61.4,9018],[61.4,9099],[61.4,9183],[61.4,9266],[61.4,9349],[61.4,9432],[61.4,9516],[61.4,9600],[61.4,9685],[61.7,9766],[63.2,9850],[64.3,9935],[65,10017],[65.7,10101],[66.4,10187],[66.5,10267],[66.5,10352],[66.5,10433],[66.5,10515],[67.3,10599],[69.1,10683],[69.3,10768],[69.3,10850],[69.3,10933],[69.3,11017],[69.3,11099],[70.1,11183],[70.7,11270],[70.9,11351],[71.3,11434],[71.3,11520],[71.3,11599],[71.3,11685],[71.3,11765],[71.3,11851],[71.3,11932],[71.3,12016],[71.3,12099],[71.3,12184],[71.3,12266],[71.3,12349],[71.3,12433],[71.3,12516],[71.3,12598],[71.3,12682],[71.3,12767],[71.3,12850],[71.3,12934],[71.3,13016],[71.3,13100],[71.8,13183],[71.9,13266],[72.1,13349],[72.7,13434],[72.8,13515],[72.8,13599],[72.8,13682],[72.8,13765],[72.8,13849],[72.8,13934],[72.8,14016],[72.8,14100],[72.8,14182],[72.8,14266],[72.8,14350],[72.8,14433],[72.7,14517],[72.6,14600],[71.6,14684],[70.7,14766],[69.8,14850],[68.6,14932],[67.7,15016],[67.2,15101],[67,15183],[67,15265],[67,15350],[66.4,15432],[62.7,15516],[62.2,15601],[62.2,15684],[62.2,15766],[62.2,15850],[62.5,15932],[63,16016],[63.1,16101],[61.3,16182],[58.1,16265],[57.8,16349],[57.8,16433],[57.8,16517],[57.8,16599],[55.9,16683],[53.2,16767],[53.1,16849],[52.9,16933],[51.7,17016],[51.6,17099],[51.6,17183],[51.6,17266],[51.4,17353],[50.8,17434],[50.7,17516],[50.7,17600],[50.7,17682],[50.7,17768],[50.7,17850],[50.7,17932],[50.7,18017],[50.7,18101],[50.7,18186],[50.7,18266],[50.7,18350],[50.7,18432],[50.7,18517],[50.7,18599],[50.7,18682],[50.7,18767],[50.7,18850],[50.7,18933],[50.7,19017],[50.7,19100],[50.7,19184],[51.2,19266],[51.9,19351],[55.5,19434],[58.3,19518],[63.3,19601],[73.3,19685],[74.8,19766],[75.6,19850],[81.2,19932],[82.7,20019],[82.7,20100],[82.7,20182],[82.7,20265],[81.9,20351],[80.4,20435],[80.4,20517],[80.4,20599],[80.4,20682],[80.4,20766],[80.4,20849],[80.4,20932],[80.4,21016]]",1,0,861.4325,867.8314,69.77159288,5.9632,"[{""rating"":69.77159288194444,""responseTime"":5.963199999988092}]",space,5.866,,867.8314,Not at all,0,867.8342,,,[],,0,7,7,7,1,audio/Narrative7Situation7.wav,audio/Narrative8Situation7.wav,audio/Narrative5Situation7.wav,audio/Narrative6Situation7.wav,5,3,4,5,,,,,,,,,,,,,,,,,,,,,,,,,,,,,,,,,,,,,,,
,,,,,,62e185f1375fa71f12753c64,2024-02-08_13h03.23.607,group3.1-3.2-social-tom,2023.2.2,MacIntel,59.88023952,65c5074098b851296ff0b7ed,65c54175937cc216a4005316,,,,,,,,,,,,,,,,,,,,,,,,,,,,,867.8347,2,audio/Narrative5Situation8.wav,870.8488,,870.8488,879.6808,"[[69.8,2251],[69.9,2332],[69.9,2416],[69.9,2498],[69.9,2581],[69.9,2664],[69.9,2748],[69.9,2831],[69.9,2914],[69.9,2998],[69.9,3081],[69.9,3164],[69.9,3248],[69.9,3331],[69.9,3415],[69.9,3498],[69.9,3581],[69.9,3665],[69.9,3748],[69.9,3831],[69.9,3915],[69.9,4001],[69.9,4082],[69.9,4166],[69.9,4248],[69.9,4331],[69.9,4416],[69.9,4498],[69.9,4582],[69.9,4667],[69.6,4748],[69.4,4833],[69.2,4915],[68.8,4998],[68.2,5084],[67.4,5165],[66.5,5247],[65.5,5330],[64.8,5414],[63.9,5499],[63.1,5584],[62.7,5665],[62.5,5748],[62.4,5833],[62.4,5914],[62.4,5997],[62.4,6081],[62.4,6171],[62.4,6248],[62.6,6331],[63.7,6417],[64.4,6498],[65.3,6583],[66.9,6668],[68.9,6750],[70.8,6832],[72.3,6914],[72.3,6997],[72.3,7081],[72.3,7165],[73.1,7248],[76.7,7332],[80.1,7417],[83.4,7499],[87.4,7581],[90,7665],[90.8,7748],[91.6,7833],[92.8,7914],[93.2,7997],[93.2,8080],[93.2,8166],[93.2,8248],[93.2,8331],[93.2,8415],[93.2,8499],[93.2,8582],[93.2,8664],[93.2,8750],[93.2,8831]]",1,0,879.681,881.1652,86.68185764,0.9972,"[{""rating"":86.68185763888889,""responseTime"":0.9972000000476555}]",space,0.9359,,881.1653,All the time,100,881.1696,,,[],,0,8,8,8,1,audio/Narrative7Situation8.wav,audio/Narrative8Situation8.wav,audio/Narrative5Situation8.wav,audio/Narrative6Situation8.wav,2,3,3,5,,,,,,,,,,,,,,,,,,,,,,,,,,,,,,,,,,,,,,,
,,,,,,62e185f1375fa71f12753c64,2024-02-08_13h03.23.607,group3.1-3.2-social-tom,2023.2.2,MacIntel,59.88023952,65c5074098b851296ff0b7ed,65c54175937cc216a4005316,,,,,,,,,,,,,,,,,,,,,,,,,,,,,881.1699,2,audio/Narrative5Situation9.wav,884.1796,,884.1797,923.7464,"[[62.6,1587],[60.9,1666],[61.5,1752],[61.5,1833],[61.5,1917],[62.2,2000],[63.6,2083],[63.7,2167],[63.1,2250],[61.7,2333],[60.9,2420],[60.2,2500],[58.8,2583],[58.3,2666],[58,2752],[57.9,2835],[57.9,2917],[57.7,3000],[56,3083],[55.1,3170],[55.1,3251],[55.1,3333],[55.1,3417],[55.1,3503],[55.1,3584],[55.1,3668],[55.1,3750],[55.1,3833],[55.3,3919],[55.4,4002],[55.5,4086],[55.5,4168],[55.5,4252],[55.5,4333],[55.5,4419],[54.9,4502],[54.8,4583],[54.8,4666],[54.8,4750],[54.8,4833],[54.3,4916],[54.2,4999],[54.2,5085],[54.2,5167],[54.2,5252],[55.4,5337],[58,5418],[60.8,5503],[62.8,5586],[64.3,5668],[67.2,5749],[71.7,5833],[73.9,5917],[74.8,6002],[74.9,6083],[74.9,6168],[74.9,6250],[74.9,6334],[74.9,6418],[74.9,6500],[74.9,6584],[74.9,6667],[74.9,6752],[74.9,6833],[74.9,6918],[74.9,7001],[74.9,7083],[74.9,7167],[74.9,7250],[74.9,7334],[74.9,7418],[74.9,7500],[75.5,7583],[77.3,7668],[79.4,7753],[80.2,7838],[81.6,7919],[83.2,8003],[84.2,8083],[85.5,8168],[86.3,8253],[86.6,8333],[86.5,8418],[86.5,8501],[86.5,8583],[86.5,8669],[86.5,8750],[86.5,8834],[86.5,8917],[86.5,9001],[86.5,9084],[86.5,9167],[86.5,9251],[86.5,9333],[86.5,9418],[86.5,9503],[86.5,9583],[86.5,9667],[86.5,9752],[86.5,9833],[86.5,9917],[86.5,10000],[86.5,10083],[86.5,10169],[86.5,10253],[86.5,10335],[86.5,10417],[86.5,10504],[86.5,10584],[86.5,10666],[86.5,10750],[86.5,10834],[86.5,10918],[86.5,11000],[86.5,11085],[86.5,11167],[86.5,11250],[86.5,11336],[86.5,11417],[86.5,11501],[86.5,11583],[86.5,11668],[86.5,11752],[86.5,11833],[86.5,11917],[86.5,12002],[86.5,12083],[86.5,12167],[86.5,12250],[86.5,12333],[86.5,12418],[86.5,12501],[86.5,12584],[86.5,12667],[86.5,12749],[86.5,12834],[86.5,12918],[86.5,13000],[86.5,13084],[86.5,13167],[86.5,13252],[86.5,13334],[86.5,13416],[86.5,13501],[86.5,13584],[86.5,13666],[86.6,13752],[86.6,13837],[86.6,13917],[86.6,14000],[86.6,14084],[86.6,14170],[86.7,14250],[86.7,14334],[86.7,14417],[86.7,14504],[86.6,14583],[86.6,14668],[86.6,14750],[86.6,14834],[86.6,14917],[86.6,15000],[86.6,15083],[86.6,15167],[86.6,15253],[86.6,15334],[86.6,15417],[88,15500],[88.5,15583],[88.9,15668],[89,15749],[89.1,15833],[89.1,15918],[88.9,16003],[88.7,16084],[88.7,16167],[88.7,16251],[88.7,16334],[88.7,16417],[88.7,16500],[88.7,16584],[88.7,16667],[88.7,16752],[89.2,16835],[90.1,16922],[90.3,17000],[90.3,17083],[89.5,17166],[89.2,17252],[89.1,17336],[86,17416],[84.2,17503],[82.8,17584],[81.7,17666],[81.2,17753],[80.9,17833],[80.3,17919],[78.9,18000],[78.8,18083],[78.1,18169],[78.1,18249],[78.6,18335],[79.4,18416],[79.4,18501],[79.4,18585],[79.4,18668],[79.4,18752],[79.4,18834],[79.4,18920],[79.4,19000],[79.4,19084],[79.4,19167],[79.1,19252],[78.5,19333],[78.2,19416],[77.6,19500],[76.1,19585],[75.8,19666],[75.8,19750],[75.8,19835],[76.8,19917],[77.6,20001],[78.5,20085],[79.4,20168],[79.9,20251],[79.9,20333],[79.9,20418],[79.9,20499],[79.9,20583],[79.9,20667],[79.9,20750],[79.9,20834],[79.9,20917],[79.9,20999],[79.9,21082],[79.9,21168],[79.9,21252],[79.9,21333],[79.9,21416],[79.9,21501],[79.9,21584],[79.9,21666],[80.4,21749],[80.9,21833],[81.1,21919],[81.1,22000],[80.4,22086],[78.5,22168],[77.9,22251],[77.6,22335],[78.2,22418],[80,22502],[81,22585],[81.8,22669],[82.1,22752],[81.9,22833],[81.1,22919],[81,23000],[81,23083],[81,23166],[82,23251],[83.1,23336],[84.2,23417],[85,23503],[85.1,23586],[85.8,23668],[88.8,23751],[89.3,23832],[89.3,23916],[89.3,24000],[89.3,24084],[89.3,24169],[89.3,24252],[89.3,24336],[89.3,24418],[89.3,24502],[89.3,24583],[89.3,24667],[89.3,24751],[89.3,24836],[89.3,24917],[89.2,25002],[88.7,25083],[88.5,25167],[88.5,25251],[88.5,25332],[88.5,25417],[87.9,25502],[86.2,25584],[86.2,25666],[86.2,25750],[86.2,25837],[86.2,25917],[86.2,26000],[86.2,26084],[86.2,26168],[86.2,26249],[86.2,26334],[86.2,26417],[86.2,26500],[86.2,26584],[86.2,26667],[86.2,26750],[86.2,26834],[86.2,26919],[86.2,27001],[86.2,27087],[86.2,27168],[86.2,27250],[86.2,27336],[86.2,27416],[86.2,27500],[86.2,27582],[86.2,27667],[86.2,27750],[86.2,27833],[86.2,27916],[86.2,28001],[86.2,28083],[86.2,28168],[86.2,28250],[86.2,28333],[86.2,28416],[86.2,28500],[86.2,28583],[86.2,28666],[86.2,28750],[86.2,28834],[86.2,28916],[86.2,29001],[86.2,29083],[86.2,29166],[86.2,29251],[86.2,29336],[86.2,29418],[86.2,29499],[86.2,29583],[86.2,29668],[86.2,29751],[86.1,29845],[86.1,29917],[86.1,30000],[86.1,30084],[86.1,30166],[86.1,30250],[86.1,30334],[86.1,30416],[86.1,30500],[86.1,30583],[86.1,30669],[86.1,30750],[86.1,30836],[86.1,30916],[86.1,31000],[86.1,31083],[86.1,31166],[86.1,31252],[86.1,31335],[86.1,31416],[86.1,31499],[86.1,31585],[86.1,31667],[86.1,31750],[86.1,31833],[86.1,31916],[86.1,32002],[86.1,32084],[86.1,32166],[86.1,32250],[86.1,32336],[86.1,32416],[86.1,32502],[86.1,32585],[86.1,32669],[86.1,32750],[86.1,32834],[86.1,32916],[86.1,32999],[86.1,33082],[86.1,33166],[86.1,33249],[86.1,33336],[86.1,33417],[86.1,33499],[86.1,33583],[86.1,33667],[86.1,33750],[86.6,33833],[87.1,33919],[87.5,34003],[87.7,34083],[87.9,34166],[87.9,34249],[87.9,34333],[87.9,34417],[87.9,34500],[87.9,34583],[87.9,34666],[87.7,34751],[87.4,34834],[87.1,34917],[87.1,35000],[87.1,35083],[86.4,35171],[86.1,35250],[86.1,35335],[86.1,35417],[86.1,35500],[86.1,35582],[86.1,35669],[86.1,35750],[86.1,35833],[86.1,35917],[86.1,36000],[86.1,36083],[86.1,36167],[86.1,36250],[86.1,36334],[86.1,36417],[86.1,36500],[86.1,36583],[86.1,36667],[86.1,36750],[86.1,36834],[86.1,36919],[86.1,37000],[86.1,37083],[86.1,37167],[86.1,37250],[86.5,37332],[86.6,37417],[86.6,37500],[86.6,37583],[86.6,37666],[86.6,37749],[86.6,37833],[86.7,37916],[87,38000],[87.2,38083],[87.8,38166],[88.5,38254],[89.4,38335],[89.5,38416],[89.5,38499],[89.5,38583],[89.5,38668],[89.5,38750],[89.5,38835],[89.5,38918],[89.5,39000],[89.5,39082],[89.5,39167],[89.5,39250],[89.5,39333],[89.5,39416],[89.5,39500]]",1,0,923.7466,927.3807,85.30815972,2.9413,"[{""rating"":85.30815972222221,""responseTime"":2.9413000000118927}]",space,3.0774,,927.3807,All the time,100,927.3832,,,[],,0,9,9,9,1,audio/Narrative7Situation9.wav,audio/Narrative8Situation9.wav,audio/Narrative5Situation9.wav,audio/Narrative6Situation9.wav,2,3,3,4,,,,,,,,,,,,,,,,,,,,,,,,,,,,,,,,,,,,,,,
,,,,,,62e185f1375fa71f12753c64,2024-02-08_13h03.23.607,group3.1-3.2-social-tom,2023.2.2,MacIntel,59.88023952,65c5074098b851296ff0b7ed,65c54175937cc216a4005316,,,,,,,,,,,,,,,,,,,,,,,,,,,,,927.3838,2,audio/Narrative6Situation1.wav,929.3978,,929.3979,955.9955,"[[87.4,7918],[90.2,8000],[89.2,8086],[86.9,8169],[86.9,8250],[86,8334],[83.7,8416],[83.7,8501],[83.7,8581],[83.7,8664],[83.7,8749],[83.8,8832],[84,8917],[84,8997],[84,9081],[84,9165],[84,9248],[84,9331],[84,9417],[84,9498],[84,9583],[84,9664],[84,9748],[84,9832],[84,9914],[84,9999],[84,10081],[84,10164],[84,10247],[84,10331],[84,10415],[84,10498],[84,10584],[84,10667],[84,10748],[84,10832],[84,10915],[84,10998],[84,11081],[84.1,11164],[84.2,11248],[84.2,11332],[84.2,11415],[84.2,11500],[84.2,11581],[84.2,11666],[84.2,11747],[84.2,11831],[83,11916],[82.1,12000],[81.8,12083],[81.5,12164],[81.5,12250],[81.5,12332],[81.5,12415],[81.5,12501],[80.3,12582],[74.5,12666],[73.4,12750],[73.4,12831],[74.3,12914],[76.6,12997],[78.6,13081],[83.6,13164],[84.1,13250],[84.1,13331],[84.1,13415],[84.1,13498],[84.1,13583],[84.1,13664],[84.1,13752],[84.1,13834],[84.1,13914],[84.1,13998],[84.1,14082],[84.1,14164],[84.1,14248],[84.1,14333],[84.4,14417],[84.8,14501],[84.9,14580],[84.9,14666],[84.9,14748],[84.9,14833],[84.9,14915],[84.9,14999],[84.9,15084],[84.9,15165],[84.9,15248],[84.9,15330],[84.9,15418],[84.9,15501],[84.9,15583],[84.9,15666],[84.9,15749],[84.9,15831],[84.9,15914],[84.9,15998],[84.9,16081],[84.9,16164],[84.9,16250],[84.9,16332],[84.9,16415],[84.9,16500],[84.9,16580],[84.9,16665],[84.9,16748],[84.9,16832],[84.9,16914],[84.9,16998],[84.9,17081],[84.9,17164],[84.9,17248],[84.9,17333],[84.9,17415],[84.9,17498],[84.9,17583],[84.9,17666],[84.9,17748],[84.9,17832],[84.9,17917],[84.9,17998],[84.9,18081],[84.9,18167],[84.9,18250],[84.9,18333],[84.9,18415],[84.9,18497],[84.9,18581],[84.9,18664],[84.9,18748],[84.9,18832],[86.1,18921],[86.6,19001],[86.7,19082],[87.1,19165],[87.1,19248],[87.1,19331],[87.1,19418],[87.1,19498],[87,19581],[86.2,19666],[81,19749],[74.9,19831],[73.3,19914],[72.1,19997],[69.6,20082],[65.3,20165],[62.8,20251],[62.6,20331],[62.6,20415],[62.6,20498],[61.1,20584],[59.6,20666],[58.6,20748],[57,20832],[56.6,20917],[56.5,20999],[56,21084],[55.5,21167],[55.7,21248],[58.5,21330],[61.4,21415],[61.8,21498],[62.5,21584],[63,21666],[63,21748],[63,21833],[63,21915],[63,21998],[63,22081],[63,22168],[63,22248],[63,22331],[63,22415],[63,22498],[62.6,22581],[62.2,22666],[62.2,22747],[62.2,22831],[62,22914],[60.9,22998],[60.8,23084],[59.8,23164],[58.7,23249],[58.6,23332],[58.6,23414],[58.6,23498],[58.6,23582],[58.6,23664],[58.7,23748],[60.1,23831],[62.9,23917],[63.6,23999],[64.1,24081],[66.1,24166],[67.3,24247],[67.8,24332],[68.5,24415],[68.5,24497],[68.5,24583],[68.5,24666],[69.3,24751],[73.1,24834],[74.8,24914],[75.5,24999],[75.8,25085],[76.9,25168],[78.7,25250],[80.1,25334],[80.4,25414],[81.1,25497],[81.8,25581],[82.1,25666],[82.8,25748],[85.3,25833],[86.6,25914],[87,25999],[87,26080],[87.3,26164],[87.3,26247],[87.3,26330],[87.3,26418],[87.3,26498],[87.3,26581]]",1,0,955.9957,963.0292,87.31228299,4.1088,"[{""rating"":87.31228298611111,""responseTime"":4.108800000011911}]",space,6.4777,,963.0293,Not at all,0,963.0328,,,[],,0,10,10,10,1,audio/Narrative8Situation1.wav,audio/Narrative7Situation1.wav,audio/Narrative6Situation1.wav,audio/Narrative5Situation1.wav,5,2,2,5,,,,,,,,,,,,,,,,,,,,,,,,,,,,,,,,,,,,,,,
,,,,,,62e185f1375fa71f12753c64,2024-02-08_13h03.23.607,group3.1-3.2-social-tom,2023.2.2,MacIntel,59.88023952,65c5074098b851296ff0b7ed,65c54175937cc216a4005316,,,,,,,,,,,,,,,,,,,,,,,,,,,,,963.0332,2,audio/Narrative6Situation2.wav,966.0457,,966.0458,994.5649,"[[87.2,1767],[87,1852],[86.2,1934],[86.1,2018],[86.1,2101],[85.3,2183],[76.8,2267],[73.8,2351],[73.8,2434],[73.8,2516],[73.8,2600],[73.8,2683],[73.8,2768],[73.3,2852],[72.7,2933],[72.5,3018],[72.5,3102],[72.2,3186],[71.6,3266],[71.2,3351],[70.8,3432],[69.9,3516],[68,3602],[65.2,3684],[62.9,3766],[61,3853],[55.3,3932],[52.1,4017],[53.1,5934],[58,6020],[67.4,6101],[72.3,6183],[75.9,6266],[78.7,6349],[79.7,6433],[79.6,6517],[79.6,6599],[79.6,6682],[79.6,6766],[79.6,6850],[79.6,6932],[80.7,7015],[80.8,7099],[80.8,7182],[80.8,7265],[80.8,7350],[80.8,7433],[80.8,7517],[80.8,7600],[80.8,7683],[80.8,7766],[80.7,7850],[78,7936],[75.8,8016],[75.4,8101],[73.9,8183],[73.4,8265],[73.4,8349],[73.4,8433],[73.4,8519],[73.4,8599],[73.4,8683],[73.4,8767],[73.4,8850],[73.4,8935],[73.4,9017],[73.4,9099],[73.4,9183],[73.4,9268],[73.4,9349],[73.4,9434],[73.4,9515],[73.4,9600],[73.4,9683],[73.4,9767],[73.4,9849],[73.4,9933],[73.4,10016],[73.4,10099],[73.4,10183],[73.4,10268],[73.2,10351],[73.2,10435],[73.2,10516],[73.2,10600],[73.2,10683],[73.2,10767],[73.2,10850],[73.2,10933],[73.2,11019],[73.2,11100],[73.2,11186],[73.2,11266],[73.2,11350],[73.2,11433],[73.2,11517],[73.2,11600],[73.2,11683],[73.2,11766],[73.2,11849],[73.2,11932],[73.2,12017],[73.2,12102],[73.2,12183],[73.2,12268],[73.2,12351],[73.2,12433],[73.2,12516],[73.2,12600],[73.2,12684],[73.2,12767],[73.2,12850],[73.2,12933],[73.2,13016],[73.2,13100],[73.2,13186],[73.2,13267],[73.2,13350],[73.2,13433],[73.2,13517],[73.2,13600],[73.2,13683],[73.2,13767],[73.1,13849],[72.9,13933],[67.1,14019],[62.6,14101],[62.2,14183],[60.6,14265],[56.6,14350],[54.3,14433],[53.6,14519],[53.6,14600],[53.6,14682],[53.6,14766],[53.6,14850],[51.7,14937],[51.3,15018],[50.8,15100],[49.7,15186],[48.2,15268],[47.8,15351],[47.2,15433],[47.2,15519],[47.2,15599],[47.2,15685],[47.2,15767],[47.2,15850],[47.2,15933],[47.2,16016],[47.2,16099],[47.2,16182],[47.2,16267],[47.2,16349],[47.2,16433],[47.2,16516],[47.2,16600],[47.2,16684],[47.2,16767],[47.2,16850],[47.2,16935],[47.2,17016],[47.2,17099],[47.2,17182],[47.2,17268],[47.2,17351],[47.2,17435],[47.2,17516],[47.2,17600],[47.2,17682],[47.2,17766],[47.2,17850],[47.3,17933],[47.3,18017],[47.6,18100],[48.1,18182],[48.2,18268],[48.2,18350],[48.2,18433],[48.2,18519],[48.2,18599],[48.2,18683],[48.2,18766],[48.2,18849],[48.2,18933],[48.2,19016],[48.2,19099],[48.2,19183],[48.2,19266],[48.2,19350],[48.2,19433],[48.9,19520],[51.3,19599],[51.5,19682],[51.5,19767],[51.5,19850],[51.5,19932],[51.5,20017],[51.5,20100],[51.5,20183],[51.6,20267],[52,20351],[52.8,20436],[53.2,20518],[53.7,20600],[53.9,20684],[55.1,20770],[57.8,20849],[60.5,20932],[62.7,21015],[64.6,21100],[66,21186],[65,21269],[65,21349],[65,21432],[65,21516],[65,21599],[65,21683],[65,21766],[65,21849],[65.5,21936],[67.2,22017],[69.5,22102],[70.6,22187],[71.8,22267],[73.4,22353],[74.1,22433],[74.1,22516],[74.1,22599],[74.1,22683],[74.1,22765],[74.1,22849],[74.1,22933],[74.1,23015],[74.1,23100],[74.1,23183],[74.1,23266],[74.1,23351],[74.1,23433],[74.1,23516],[74.1,23601],[74.1,23682],[74.1,23766],[74.1,23852],[74.1,23935],[74.1,24016],[74.1,24101],[74.1,24183],[74.1,24267],[74.1,24350],[74.1,24432],[74.1,24516],[74.1,24599],[74.1,24684],[74.1,24767],[74.1,24849],[74.1,24935],[74.1,25016],[74.1,25100],[74.1,25182],[73.7,25269],[71.3,25350],[70.6,25435],[70.1,25516],[69.9,25599],[69.2,25685],[69.1,25768],[69.1,25849],[69.1,25932],[69.1,26017],[69.1,26101],[69.1,26182],[69,26266],[69,26349],[69,26432],[68.9,26517],[68.9,26601],[68.9,26684],[68.8,26766],[67.3,26850],[64.3,26935],[64,27018],[64,27100],[64,27182],[64,27267],[64,27349],[63.4,27434],[54.7,27516],[50,27601],[49.9,27683],[49.9,27766],[49.9,27852],[49.9,27932],[49.9,28015],[49.9,28099],[49.5,28185],[49.2,28266],[49.2,28349],[49.2,28432],[49.2,28518]]",1,0,994.5652,997.2953,50.09385851,1.7434,"[{""rating"":50.09385850694444,""responseTime"":1.7434000000357628}]",space,2.1886,,997.2953,Half the time,50,997.2983,,,[],,0,11,11,11,1,audio/Narrative8Situation2.wav,audio/Narrative7Situation2.wav,audio/Narrative6Situation2.wav,audio/Narrative5Situation2.wav,3,3,3,3,,,,,,,,,,,,,,,,,,,,,,,,,,,,,,,,,,,,,,,
,,,,,,62e185f1375fa71f12753c64,2024-02-08_13h03.23.607,group3.1-3.2-social-tom,2023.2.2,MacIntel,59.88023952,65c5074098b851296ff0b7ed,65c54175937cc216a4005316,,,,,,,,,,,,,,,,,,,,,,,,,,,,,997.2988,2,audio/Narrative6Situation3.wav,1002.3126,,1002.3127,1014.9464,"[[51.1,1100],[51.5,1183],[51.1,1269],[51.1,1349],[51.1,1436],[51.1,1516],[51.1,1598],[50.6,1684],[50.5,1766],[50.5,1851],[50.7,1932],[51.9,2017],[53.2,2103],[55.3,2185],[58.5,2270],[59.7,2349],[59.9,2433],[60,2518],[60,2599],[60,2683],[60,2766],[60,2849],[60,2934],[60,3016],[60,3099],[60,3181],[60,3267],[60.4,3352],[61.4,3434],[61.9,3515],[62,3598],[62.3,3682],[62.8,3767],[62.9,3851],[62.9,3932],[62.9,4014],[62.2,4099],[61.4,4182],[61.4,4265],[61.4,4349],[61.7,4432],[65.5,4515],[67.6,4598],[68.4,4683],[70.4,4769],[71.5,4849],[71.5,4934],[71.5,5016],[71.5,5099],[71.5,5182],[71.5,5266],[71.5,5350],[71.5,5434],[71.5,5516],[71.5,5600],[71.5,5683],[71.5,5768],[71.5,5851],[71.5,5934],[71.5,6018],[71.5,6099],[71.5,6182],[71.4,6266],[71.4,6350],[71.4,6432],[71,6516],[70.9,6598],[70.9,6682],[70.9,6765],[70.9,6849],[70.9,6932],[70.9,7016],[70.9,7107],[70.9,7184],[70.9,7266],[70.9,7348],[70.9,7433],[70.9,7516],[70.9,7599],[70.9,7684],[70.9,7766],[70.9,7848],[70.9,7932],[70.9,8017],[70.9,8100],[70.9,8182],[70.9,8266],[70.9,8349],[70.9,8432],[70.9,8516],[70.9,8598],[70.9,8683],[70.9,8765],[70.9,8849],[70.9,8932],[70.9,9016],[70.9,9099],[70.9,9182],[70.9,9266],[70.9,9350],[70.9,9434],[70.9,9516],[70.9,9601],[70.9,9686],[70.9,9766],[70.9,9848],[70.9,9934],[70.9,10016],[70.1,10100],[68.9,10185],[68.9,10267],[67.4,10351],[65.3,10432],[62.1,10515],[60.2,10601],[60.2,10681],[62.9,10767],[70.1,10848],[74,10932],[76.3,11015],[78.5,11109],[79,11181],[79,11265],[79,11350],[79,11433],[79,11516],[79,11598],[79,11682],[79,11766],[79,11849],[79,11934],[79,12015],[79,12100],[79,12183],[79,12265],[79,12353],[79,12431],[79,12515],[79,12599]]",1,0,1014.9466,1017.0964,69.30989583,1.5398,"[{""rating"":69.30989583333333,""responseTime"":1.5398000000118373}]",space,1.6033,,1017.0965,Not at all,0,1017.1005,,,[],,0,12,12,12,1,audio/Narrative8Situation3.wav,audio/Narrative7Situation3.wav,audio/Narrative6Situation3.wav,audio/Narrative5Situation3.wav,4,8,5,3,,,,,,,,,,,,,,,,,,,,,,,,,,,,,,,,,,,,,,,
,,,,,,62e185f1375fa71f12753c64,2024-02-08_13h03.23.607,group3.1-3.2-social-tom,2023.2.2,MacIntel,59.88023952,65c5074098b851296ff0b7ed,65c54175937cc216a4005316,,,,,,,,,,,,,,,,,,,,,,,,,,,,,1017.101,2,audio/Narrative6Situation4.wav,1019.1114,,1019.1115,1031.7285,"[[68.1,1335],[66,1418],[62.4,1500],[60.2,1585],[58.7,1667],[58.1,1749],[58,1833],[58,1916],[58,2001],[58,2083],[58,2166],[58,2249],[58,2334],[58,2416],[58,2500],[58,2583],[58,2667],[58,2750],[58,2833],[58,2919],[58,3000],[58,3083],[58,3166],[58,3250],[58,3334],[58,3417],[58,3500],[58,3583],[58,3670],[58,3752],[58,3835],[58,3916],[58,4000],[58,4083],[58,4167],[58,4252],[58,4333],[58,4417],[57.9,4501],[53.2,4584],[49.5,4666],[46.7,4750],[45.2,4834],[44.1,4916],[42.3,4999],[41.7,5083],[41.6,5166],[41.6,5249],[41.6,5333],[41.6,5419],[41.6,5500],[41.6,5585],[41.6,5666],[41.6,5750],[41.6,5832],[41.6,5916],[41.6,6001],[41.6,6084],[41.6,6167],[41.6,6252],[41.6,6333],[41.6,6417],[41.6,6500],[41.6,6583],[41.6,6668],[41.6,6750],[41.6,6833],[41.6,6917],[41.6,6999],[41.6,7083],[41.6,7167],[41.6,7250],[41.6,7334],[41.6,7418],[41.6,7500],[41.6,7585],[41.6,7669],[41.6,7750],[41.6,7833],[41.6,7916],[41.6,8001],[41.6,8084],[41.6,8167],[41.6,8250],[41.6,8333],[41.6,8417],[41.6,8501],[41.6,8583],[41.6,8668],[41.3,8752],[40.9,8836],[40.8,8917],[40.8,9000],[40.8,9084],[40.6,9168],[40.2,9251],[40.2,9337],[40.2,9416],[40.2,9500],[40.2,9584],[40.2,9666],[40.2,9751],[40.2,9833],[40.2,9917],[40.2,10000],[40.2,10084],[40.2,10166],[40.2,10249],[40.4,10336],[44,10417],[48.7,10501],[52.9,10584],[57.6,10667],[62.3,10752],[66.4,10832],[69.6,10916],[72.5,10999],[72.8,11083],[72.8,11168],[72.8,11250],[72.8,11333],[72.9,11417],[73.4,11502],[74,11584],[74.6,11666],[74.7,11751],[74.8,11833],[76.2,11916],[77.5,12000],[78.4,12083],[78.6,12166],[78.6,12251],[78.6,12336],[78.6,12416],[78.6,12501],[78.6,12583]]",1,0,1031.7286,1040.6449,56.24674479,8.5079,"[{""rating"":51.01616753472222,""responseTime"":7.349300000011908},{""rating"":56.24674479166667,""responseTime"":8.507899999976189}]",space,8.3899,,1040.645,Not at all,0,1040.6476,,,[],,0,13,13,13,1,audio/Narrative8Situation4.wav,audio/Narrative7Situation4.wav,audio/Narrative6Situation4.wav,audio/Narrative5Situation4.wav,3,3,2,1,,,,,,,,,,,,,,,,,,,,,,,,,,,,,,,,,,,,,,,
,,,,,,62e185f1375fa71f12753c64,2024-02-08_13h03.23.607,group3.1-3.2-social-tom,2023.2.2,MacIntel,59.88023952,65c5074098b851296ff0b7ed,65c54175937cc216a4005316,,,,,,,,,,,,,,,,,,,,,,,,,,,,,1040.648,2,audio/Narrative6Situation5.wav,1042.6615,,1042.6615,1050.6285,"[[56,668],[53.6,750],[50.2,832],[49.8,918],[49.8,1003],[47.4,1085],[45.8,1168],[45.8,1251],[45.8,1333],[45.8,1416],[45.8,1502],[45.7,1584],[45.3,1667],[45.3,1749],[45.3,1836],[45.3,1916],[45,2003],[44.6,2085],[44.5,2168],[44.5,2249],[44.5,2333],[44.5,2417],[43.3,2500],[41.1,2584],[39.9,2667],[39.7,2750],[39.6,2832],[39.6,2918],[39.6,2999],[39.6,3085],[39.6,3166],[39.6,3249],[39.6,3332],[39.6,3416],[39.6,3499],[39.6,3582],[39.6,3666],[39.6,3750],[39.6,3832],[39.6,3918],[39.6,3999],[39.6,4083],[39.6,4166],[39.6,4249],[39.6,4334],[39.6,4416],[39.6,4501],[39.6,4582],[39.6,4669],[39.6,4749],[39.9,4835],[41.3,4916],[43.3,5000],[43.7,5085],[44.5,5166],[45.7,5251],[47,5335],[48.1,5416],[49.3,5500],[50.6,5584],[52.3,5666],[54.1,5752],[56.1,5835],[58.1,5916],[58.7,6003],[58.7,6082],[58.7,6166],[58.7,6249],[59.2,6334],[61,6418],[61.2,6500],[61.3,6583],[61.3,6666],[61.3,6749],[61.3,6832],[61.3,6916],[61.3,6999],[61.3,7085],[61.3,7166],[61.3,7251],[61.3,7332],[61.3,7416],[61.3,7502],[61.3,7582],[61.3,7665],[61.3,7749],[61.3,7833],[61.3,7917]]",1,0,1050.6287,1052.8947,49.87738715,1.629,"[{""rating"":49.87738715277778,""responseTime"":1.6290000000001328}]",space,1.7244,,1052.8947,All the time,100,1052.8983,,,[],,0,14,14,14,1,audio/Narrative8Situation5.wav,audio/Narrative7Situation5.wav,audio/Narrative6Situation5.wav,audio/Narrative5Situation5.wav,2,5,2,5,,,,,,,,,,,,,,,,,,,,,,,,,,,,,,,,,,,,,,,
