exp_question,consent.started,consent.stopped,consentResponse.keys,consentResponse.rt,consentResponse.duration,participantID,date,expName,psychopyVersion,OS,frameRate,STUDY_ID,SESSION_ID,opening1.started,opening1.stopped,keyEndingOpening1.keys,keyEndingOpening1.rt,keyEndingOpening1.duration,volumeAdjust.started,volumeAdjust.stopped,endingAdjust.keys,endingAdjust.rt,endingAdjust.duration,opening2.started,opening2.stopped,keyEndingOpening.keys,keyEndingOpening.rt,keyEndingOpening.duration,mouse.x,mouse.y,mouse.leftButton,mouse.midButton,mouse.rightButton,mouse.time,instructionLoop.thisRepN,instructionLoop.thisTrialN,instructionLoop.thisN,instructionLoop.thisIndex,instructionLoop.ran,readyForAudio.started,readyForAudio.stopped,fixation.started,run,audio_played,fixation.stopped,endPractice.keys,audioPre.started,audioPre.stopped,continuousResponses_audio,continuousSlider.response,continuousSlider.rt,intRating.started,intRating.stopped,intQuestionSlider.response,intQuestionSlider.rt,intQuestionSlider.history,confirmResponse.keys,confirmResponse.rt,confirmResponse.duration,catchQuestion.started,catch_label,catch_value,catchQuestion.stopped,catchQuestionSlider.response,catchQuestionSlider.rt,catchQuestionSlider.history,confirmResponse_2.keys,audioRunLoop.thisRepN,audioRunLoop.thisTrialN,audioRunLoop.thisN,audioRunLoop.thisIndex,audioRunLoop.ran,conditions1_1,conditions2_1,conditions1_2,conditions2_2,dur1_1,dur2_1,dur1_2,dur2_2,endPractice.rt,endPractice.duration,confirmResponse_2.rt,confirmResponse_2.duration,runIntervalBreak.started,runIntervalBreak.stopped,endingBreakKey.keys,connection.started,connection.stopped,connectionEnding.keys,connectionEnding.rt,connectionEnding.duration,readyForText.started,readyForText.stopped,textPre.started,run_dup,textPre.stopped,continuousResponses_text,textRunLoop.thisRepN,textRunLoop.thisTrialN,textRunLoop.thisN,textRunLoop.thisIndex,textRunLoop.ran,text1_1,text1_2,text2_1,text2_2,runBreakText.started,runBreakText.stopped,endingBreakKey_2.keys,endingBreakKey_2.rt,endingBreakKey_2.duration,ending.started,ending.stopped,endingEnding.keys,endingEnding.rt,endingEnding.duration
tom,0.0003,4.2025,y,3.7652,,6307bd3bb93e804d22332b3e,2024-05-13_10h32.08.518,group3.1-3.2-social-tom,2023.2.2,Win32,14.38848921,65c5074098b851296ff0b7ed,6642328924a53585686eba52,,,,,,,,,,,,,,,,,,,,,,,,,,,,,,,,,,,,,,,,,,,,,,,,,,,,,,,,,,,,,,,,,,,,,,,,,,,,,,,,,,,,,,,,,,,,,,,,,,,,,,,,
,,,,,,6307bd3bb93e804d22332b3e,2024-05-13_10h32.08.518,group3.1-3.2-social-tom,2023.2.2,Win32,14.38848921,65c5074098b851296ff0b7ed,6642328924a53585686eba52,4.2026,9.2042,space,4.905,,,,,,,,,,,,,,,,,,,,,,,,,,,,,,,,,,,,,,,,,,,,,,,,,,,,,,,,,,,,,,,,,,,,,,,,,,,,,,,,,,,,,,,,,,,,,,,,,,,,
,,,,,,6307bd3bb93e804d22332b3e,2024-05-13_10h32.08.518,group3.1-3.2-social-tom,2023.2.2,Win32,14.38848921,65c5074098b851296ff0b7ed,6642328924a53585686eba52,,,,,,9.2043,14.9282,space,5.3344,,,,,,,,,,,,,,,,,,,,,,,,,,,,,,,,,,,,,,,,,,,,,,,,,,,,,,,,,,,,,,,,,,,,,,,,,,,,,,,,,,,,,,,,,,,,,,,
,,,,,,6307bd3bb93e804d22332b3e,2024-05-13_10h32.08.518,group3.1-3.2-social-tom,2023.2.2,Win32,14.38848921,65c5074098b851296ff0b7ed,6642328924a53585686eba52,,,,,,,,,,,14.9315,28.9577,space,13.925,,[0.2552083333333333],[0.23703703703703705],[1],[0],[0],[9.33759999999404],0,0,0,0,1,,,,,,,,,,,,,,,,,,,,,,,,,,,,,,,,,,,,,,,,,,,,,,,,,,,,,,,,,,,,,,,,,,,,,,,,,,,,,,
,,,,,,6307bd3bb93e804d22332b3e,2024-05-13_10h32.08.518,group3.1-3.2-social-tom,2023.2.2,Win32,14.38848921,65c5074098b851296ff0b7ed,6642328924a53585686eba52,,,,,,,,,,,28.9582,50.5555,space,21.4303,,"[-0.25729166666666664,-0.184375,-0.171875]","[-0.762962962962963,-0.7648148148148148,-0.7870370370370371]","[1,1,1]","[0,0,0]","[0,0,0]","[18.716,19.190799999997026,19.528600000001497]",1,0,1,0,1,,,,,,,,,,,,,,,,,,,,,,,,,,,,,,,,,,,,,,,,,,,,,,,,,,,,,,,,,,,,,,,,,,,,,,,,,,,,,,
,,,,,,6307bd3bb93e804d22332b3e,2024-05-13_10h32.08.518,group3.1-3.2-social-tom,2023.2.2,Win32,14.38848921,65c5074098b851296ff0b7ed,6642328924a53585686eba52,,,,,,,,,,,50.5559,61.4914,space,10.8128,,[],[],[],[],[],[],2,0,2,0,1,,,,,,,,,,,,,,,,,,,,,,,,,,,,,,,,,,,,,,,,,,,,,,,,,,,,,,,,,,,,,,,,,,,,,,,,,,,,,,
,,,,,,6307bd3bb93e804d22332b3e,2024-05-13_10h32.08.518,group3.1-3.2-social-tom,2023.2.2,Win32,14.38848921,65c5074098b851296ff0b7ed,6642328924a53585686eba52,,,,,,,,,,,61.4916,72.9181,space,11.3184,,[],[],[],[],[],[],3,0,3,0,1,,,,,,,,,,,,,,,,,,,,,,,,,,,,,,,,,,,,,,,,,,,,,,,,,,,,,,,,,,,,,,,,,,,,,,,,,,,,,,
,,,,,,6307bd3bb93e804d22332b3e,2024-05-13_10h32.08.518,group3.1-3.2-social-tom,2023.2.2,Win32,14.38848921,65c5074098b851296ff0b7ed,6642328924a53585686eba52,,,,,,,,,,,72.9234,79.6919,space,6.661,,[-0.08125],[-0.19814814814814816],[1],[0],[0],[6.540300000004464],4,0,4,0,1,,,,,,,,,,,,,,,,,,,,,,,,,,,,,,,,,,,,,,,,,,,,,,,,,,,,,,,,,,,,,,,,,,,,,,,,,,,,,,
,,,,,,6307bd3bb93e804d22332b3e,2024-05-13_10h32.08.518,group3.1-3.2-social-tom,2023.2.2,Win32,14.38848921,65c5074098b851296ff0b7ed,6642328924a53585686eba52,,,,,,,,,,,,,,,,,,,,,,,,,,,79.698,82.264,82.2764,1,audio/Narrative13Situation2.wav,84.3186,,84.3188,114.2751,"[[39,106],[38.8,193],[38.8,281],[38.5,371],[38,459],[37.7,546],[37.7,638],[37.7,725],[37.7,813],[37.7,903],[37.9,994],[39.5,1084],[43.4,1459],[40.6,1552],[39.5,1644],[40.7,1736],[42.7,1827],[44.6,1921],[45.6,2012],[45.9,2103],[46.3,2194],[46.5,2287],[46.5,2383],[46.5,2474],[46.1,2564],[45.2,2653],[44,2745],[43.6,2837],[43.5,2931],[43.5,3022],[43.3,3106],[43.1,3190],[42.9,3278],[42.7,3368],[42.5,3457],[42.4,3545],[42.4,3639],[42.4,3726],[42.2,3814],[41.8,3902],[40.5,3991],[36.6,4078],[31.6,4168],[28.5,4253],[28,4341],[27.7,4433],[27.1,4521],[25.9,4609],[23.6,4701],[22.8,4794],[22.7,4882],[22.7,4970],[22.7,5059],[22.7,5145],[22.7,5234],[22.7,5323],[22.7,5408],[22.9,5495],[26.5,5583],[32.8,5676],[39.7,5765],[40.6,5851],[41.6,5939],[42.2,6026],[43.6,6114],[45.4,6204],[46.7,6296],[47.4,6386],[47.4,6474],[47.4,6559],[47.4,6646],[47.4,6736],[47.4,6821],[47.4,6909],[47.4,6994],[47.4,7084],[47.4,7171],[47.4,7260],[47.4,7348],[47.4,7436],[47.4,7524],[47.4,7614],[47.4,7698],[47.4,7790],[47.4,7878],[47.4,7966],[47.4,8056],[47.4,8145],[47.4,8238],[47.4,8328],[47.4,8413],[47.4,8500],[47.4,8590],[47.4,8678],[47.4,8764],[47.4,8857],[47.4,8949],[47.4,9036],[47.4,9124],[47.4,9212],[47.4,9299],[47.4,9391],[47.4,9477],[47.4,9565],[47.4,9655],[47.4,9743],[47.4,9833],[47.4,9922],[47.4,10012],[47.4,10097],[47.4,10186],[47.4,10272],[47.4,10360],[47.4,10451],[47.4,10538],[61.8,10628],[61.8,10723],[61.9,10811],[61.9,10902],[61.9,10992],[61.9,11079],[61.9,11168],[61.9,11257],[61.9,11349],[61.9,11434],[61.9,11522],[61.9,11609],[61.8,11698],[36.6,12237],[34.2,12326],[32.3,12414],[30.2,12500],[28.9,12593],[28.9,12683],[28,12771],[25.8,12862],[24.5,12951],[24.3,13039],[24.1,13130],[23.8,13223],[23.8,13312],[23.8,13402],[23.8,13489],[23.8,13578],[23.8,13668],[23.8,13759],[23.8,13847],[23.8,13935],[23.8,14024],[23.8,14112],[23.8,14203],[23.8,14292],[23.8,14381],[23.8,14476],[23.8,14566],[23.8,14657],[23.8,14752],[23.8,14838],[23.8,14926],[23.8,15017],[23.5,15105],[23.3,15193],[23.3,15284],[22.7,15373],[22.4,15463],[21.9,15551],[21.8,15645],[21.6,15734],[21.4,15821],[21.3,15909],[21.3,15997],[21.3,16085],[21.3,16172],[20.6,16258],[19.8,16347],[19.3,16433],[18.5,16520],[18,16611],[17.6,16700],[17,16789],[16.8,16881],[16.6,16969],[16.5,17059],[15.9,17150],[15.9,17245],[15.9,17338],[15.9,17429],[15.9,17516],[15.9,17603],[15.9,17697],[15.9,17790],[15.9,17878],[15.9,17967],[15.9,18056],[15.3,18145],[14.8,18235],[14.8,18323],[14.7,18411],[14.6,18506],[14.6,18597],[14.6,18691],[14.6,18785],[14.6,18876],[14.6,18966],[14.6,19055],[15.9,19145],[16.9,19232],[17.4,19329],[17.6,19422],[18.2,19516],[19,19609],[19.7,19702],[19.7,19796],[19.7,19885],[19.7,19973],[19.7,20059],[19.7,20151],[19.7,20241],[19.7,20327],[20.1,20415],[21.3,20502],[21.6,20592],[21.7,20688],[21.7,20777],[21.7,20863],[21.7,20957],[21.7,21045],[21.8,21134],[21.8,21223],[21.8,21311],[21.9,21399],[21.9,21493],[21.9,21587],[23.1,21678],[30.6,21773],[38.1,21864],[44.2,21955],[47.2,22044],[51,22135],[54.1,22226],[55.5,22317],[56.5,22405],[60.4,22499],[62.1,22592],[63,22683],[64.2,22773],[67.2,22863],[70,22950],[70.2,23037],[70.3,23127],[71.4,23216],[73.1,23304],[76,23402],[78.4,23496],[79,23583],[79.6,23671],[81.3,23761],[83.4,23849],[85.3,23941],[86.3,24029],[87.7,24117],[89.3,24208],[89.7,24298],[90,24391],[90.3,24482],[90.5,24571],[90.8,24667],[91,24762],[91,24850],[91.1,24938],[91.1,25027],[91.1,25117],[91.1,25206],[91.1,25296],[91.1,25385],[91.1,25477],[91.3,25565],[91.4,25655],[91.4,25746],[91.4,25838],[91.7,25926],[92.7,26015],[93.9,26104],[95.5,26194],[97.3,26285],[98,26377],[98.6,26468],[98.9,26556],[99,26647],[99,26735],[99,26824],[99,26911],[99,26999],[99,27087],[99,27177],[99,27264],[99.1,27353],[99.1,27445],[99.1,27532],[99,27618],[98.6,27711],[97.9,27801],[97.7,27889],[97.4,27980],[96.5,28067],[94,28157],[92.1,28250],[90.5,28340],[90,28428],[89.3,28519],[88.2,28607],[87.3,28697],[86.1,28786],[85.2,28877],[84.2,28968],[83.8,29059],[83.8,29145],[83.8,29235],[83.8,29328],[83.8,29420],[83.8,29511],[83.8,29598],[83.8,29689],[83.8,29780],[83.8,29868],[83.8,29955]]",1,0,114.2753,120.8397,41.77083333,4.525,"[{""rating"":48.229166666666664,""responseTime"":3.3910000000000053},{""rating"":44.6875,""responseTime"":3.8550999999940387},{""rating"":41.770833333333336,""responseTime"":4.525000000000006}]",space,5.8203,,120.8399,Not at all,0,120.8431,,,[],,0,0,0,0,1,audio/Narrative13Situation2.wav,audio/Narrative13Situation2.wav,audio/Narrative13Situation2.wav,audio/Narrative13Situation2.wav,2,2,2,2,,,,,,,,,,,,,,,,,,,,,,,,,,,,,,,,,,,,,
,,,,,,6307bd3bb93e804d22332b3e,2024-05-13_10h32.08.518,group3.1-3.2-social-tom,2023.2.2,Win32,14.38848921,65c5074098b851296ff0b7ed,6642328924a53585686eba52,,,,,,,,,,,,,,,,,,,,,,,,,,,,,120.8433,1,audio/Narrative8Situation1.wav,123.5286,space,123.5288,139.6786,"[[50,2981],[49.5,3068],[48.4,3156],[48.3,3245],[48.8,3333],[49.9,3425],[50.7,3512],[50.8,3597],[50.8,3685],[50.9,3772],[51.7,3860],[52.1,3949],[52.1,4035],[52.1,4123],[52.1,4212],[52.1,4299],[52.1,4386],[52.1,4474],[52,4561],[51.3,4648],[49.2,4736],[47.3,4826],[43.9,4915],[41.6,5000],[40.3,5088],[38.9,5179],[36.7,5271],[34.6,5360],[33.4,5448],[32.5,5539],[32.4,5623],[32.4,5712],[32.1,5799],[31.9,5885],[31.9,5971],[31.9,6062],[31.9,6150],[32.5,6241],[34.5,6329],[36.1,6416],[36.6,6506],[36.6,6595],[36.6,6682],[36.6,6767],[36.6,6854],[36.6,6943],[36.6,7028],[36.6,7115],[36.6,7202],[36.6,7288],[36.6,7377],[36.6,7464],[36.1,7549],[35.4,7634],[34.3,7724],[32.7,7811],[32.4,7901],[31.7,7991],[31.5,8079],[31.3,8166],[31,8252],[31,8338],[31,8429],[31,8519],[31,8609],[30.7,8698],[30.3,8785],[30.2,8869],[30.2,8954],[30.2,9040],[30.2,9129],[30.2,9216],[30.2,9305],[30.2,9389],[30.2,9478],[30.2,9567],[30.2,9657],[30.2,9744],[30.2,9830],[30.2,9915],[30.2,10001],[30.2,10093],[30.2,10182],[30.2,10271],[30.2,10362],[30.2,10450],[30.2,10539],[30.2,10631],[30.2,10716],[30.2,10802],[29.9,10893],[29.8,10978],[29.8,11066],[29.7,11152],[29.6,11240],[29.5,11329],[29.4,11421],[29.4,11509],[29.4,11594],[31,11682],[32,11767],[32.9,11854],[33.4,11942],[33.4,12028],[33.8,12116],[34.4,12204],[35.1,12291],[35.3,12377],[35.4,12466],[35.7,12556],[36,12644],[36,12728],[36,12812],[36,12898],[36,12984],[36.1,13077],[36.4,13161],[36.4,13247],[36.4,13335],[36.6,13426],[36.8,13517],[36.9,13607],[36.9,13692],[36.9,13780],[36.9,13865],[37,13953],[37.2,14039],[37.9,14127],[39.4,14215],[40.6,14301],[41.5,14388],[43.2,14479],[45.4,14570],[47.9,14660],[50.4,14751],[51.3,14842],[51.3,14926],[51.3,15011],[51.3,15096],[51.3,15181],[52,15271],[53.3,15362],[54.4,15453],[55.3,15541],[55.7,15631],[56,15716],[56.9,15804],[57.3,15890],[57.4,15976],[57.5,16063],[57.8,16149]]",1,0,139.6788,142.4983,31.66666667,1.8746,"[{""rating"":31.666666666666664,""responseTime"":1.8745999999940466}]",space,2.0856,,142.4983,Half the time,50,150.185,50,5.7037,"[{""rating"":50,""responseTime"":5.703700000002982}]",space,0,1,1,1,1,audio/Narrative7Situation1.wav,audio/Narrative8Situation1.wav,audio/Narrative5Situation1.wav,audio/Narrative6Situation1.wav,2,5,5,2,2.5995,,6.9485,,,,,,,,,,,,,,,,,,,,,,,,,,,,,,,,,,
,,,,,,6307bd3bb93e804d22332b3e,2024-05-13_10h32.08.518,group3.1-3.2-social-tom,2023.2.2,Win32,14.38848921,65c5074098b851296ff0b7ed,6642328924a53585686eba52,,,,,,,,,,,,,,,,,,,,,,,,,,,,,150.1852,1,audio/Narrative8Situation2.wav,153.2425,,153.2426,163.5513,"[[44.4,886],[36.8,980],[14.1,1070],[36.1,5487],[39.4,5580],[41.9,5668],[43.3,5757],[44.7,5849],[45.9,5937],[46.5,6026],[46.8,6114],[46.8,6197],[46.8,6284],[46.8,6368],[46.8,6456],[46.7,6545],[46.4,6630],[45.5,6716],[45,6805],[44.9,6888],[44.8,6970],[44.8,7055],[44.8,7141],[44.8,7225],[44.9,7310],[44.9,7394],[44.9,7484],[44.9,7574],[45.1,7658],[45.4,7749],[45.9,7838],[46.7,7927],[47.4,8013],[47.7,8100],[47.8,8187],[48.4,8278],[49.8,8367],[52,8454],[55.5,8540],[58.4,8633],[58.8,8722],[59.1,8813],[59.2,8903],[59.6,8990],[60.5,9079],[62.5,9167],[67.1,9255],[73.5,9342],[78.1,9435],[79.3,9523],[81.3,9610],[83.2,9698],[84.5,9789],[85.3,9876],[86.7,9964],[88,10049],[88.3,10135],[88.6,10222],[88.8,10308]]",1,0,163.5514,172.9854,67.08333333,6.7554,"[{""rating"":67.08333333333334,""responseTime"":6.755400000005949}]",space,8.686,,172.9855,All the time,100,172.9889,,,[],,0,2,2,2,1,audio/Narrative7Situation2.wav,audio/Narrative8Situation2.wav,audio/Narrative5Situation2.wav,audio/Narrative6Situation2.wav,3,3,3,3,,,,,,,,,,,,,,,,,,,,,,,,,,,,,,,,,,,,,
,,,,,,6307bd3bb93e804d22332b3e,2024-05-13_10h32.08.518,group3.1-3.2-social-tom,2023.2.2,Win32,14.38848921,65c5074098b851296ff0b7ed,6642328924a53585686eba52,,,,,,,,,,,,,,,,,,,,,,,,,,,,,172.9891,1,audio/Narrative8Situation3.wav,177.0178,,177.0179,199.6683,"[[999,5],[999,92],[999,182],[999,269],[999,358],[999,443],[999,528],[999,615],[999,701],[999,787],[999,872],[999,962],[999,1048],[999,1133],[55.4,1220],[55.2,1311],[55.2,1404],[55,1493],[54.8,1581],[54.6,1668],[54.7,1756],[57.6,1843],[64.6,1936],[66.6,2024],[66.9,2110],[69.4,2196],[72.6,2285],[76.6,2375],[81,2464],[84.2,2556],[86.4,2646],[87.1,2733],[87.4,2821],[87.5,2906],[87.5,2997],[87.8,3091],[87.9,3178],[88.8,3265],[89.6,3350],[89.6,3438],[89.6,3523],[89.6,3610],[89.7,3695],[89.7,3782],[89.6,3870],[89.6,3957],[89.6,4042],[89.6,4125],[89.5,4212],[89.4,4299],[89,4384],[88.6,4472],[88.5,4559],[88.3,4648],[88.2,4738],[87.7,4827],[87.1,4911],[86.9,5001],[86.6,5087],[86.1,5175],[86.1,5258],[86,5342],[86,5427],[86,5514],[85.4,5603],[84.3,5691],[82.9,5778],[82.7,5867],[82.2,5959],[80,6047],[78.3,6135],[77,6220],[75.6,6307],[74.7,6394],[74.4,6479],[74.1,6564],[74,6651],[73.6,6740],[73,6832],[73,6920],[73,7006],[73,7093],[73.1,7178],[76.1,7263],[79.4,7352],[80.9,7438],[81,7524],[81.7,7611],[82.3,7701],[82.8,7788],[84,7873],[85,7962],[85.8,8049],[86.6,8137],[87.3,8224],[87.9,8311],[88.2,8396],[88.8,8479],[89.1,8567],[89.6,8654],[90.2,8743],[90.7,8832],[90.9,8924],[91,9014],[91.3,9101],[91.3,9190],[91.3,9276],[91.3,9358],[91.6,9444],[92.2,9529],[92.4,9616],[92.5,9702],[92.5,9789],[92.5,9874],[92.5,9962],[92.5,10049],[92.6,10134],[92.7,10222],[92.7,10306],[92.8,10390],[92.8,10479],[92.9,10563],[92.9,10647],[93.1,10735],[93.4,10822],[93.6,10912],[93.6,11001],[93.6,11083],[93.6,11168],[93.6,11252],[93.6,11337],[93.6,11423],[93.6,11506],[93.6,11590],[93.8,11678],[93.8,11769],[93.9,11854],[93.9,11943],[93.9,12033],[94,12119],[94.2,12207],[94.4,12293],[94.4,12377],[94.5,12464],[94.6,12556],[94.7,12644],[94.8,12729],[94.9,12817],[95.1,12904],[95.4,12993],[95.5,13081],[95.6,13168],[95.8,13254],[95.9,13340],[95.9,13423],[95.9,13510],[95.9,13598],[95.9,13684],[95.6,13770],[95.4,13854],[95.4,13941],[95.6,14029],[95.8,14112],[96,14199],[96.3,14285],[96.5,14372],[96.6,14460],[96.6,14544],[96.6,14631],[96.6,14715],[96.6,14802],[96.6,14890],[96.6,14975],[96.5,15060],[96.4,15145],[96.3,15232],[95.9,15317],[95.9,15405],[95.8,15490],[95.5,15576],[95.5,15664],[95.5,15749],[95.5,15834],[95.5,15920],[95.5,16008],[95.5,16093],[95.5,16179],[95.5,16264],[95.5,16348],[95.5,16433],[95.4,16520],[95.4,16605],[95.3,16695],[95.3,16782],[95.3,16868],[95.3,16955],[95.3,17046],[95.3,17135],[95.3,17225],[95.3,17306],[95.3,17391],[95.3,17477],[95.3,17561],[95.3,17647],[95.3,17740],[95.3,17824],[95.3,17912],[95.3,18003],[95.2,18090],[95.2,18177],[95.1,18268],[95.1,18355],[95.1,18440],[95.1,18527],[95.1,18614],[95.1,18697],[95.1,18785],[95.1,18870],[95.1,18956],[95.1,19046],[95.1,19130],[95.1,19216],[95.1,19303],[95.1,19388],[95.1,19476],[95.1,19564],[95.1,19648],[95.1,19730],[95.1,19818],[95.1,19904],[95.1,19990],[95.1,20081],[95.1,20169],[95.1,20258],[95.1,20344],[95.1,20432],[95.1,20519],[95.1,20607],[95.1,20695],[95.1,20784],[95.1,20873],[95.1,20961],[95.1,21051],[95.1,21145],[95.1,21230],[95.1,21318],[95.1,21408],[95.1,21494],[95.1,21581],[95.1,21679],[95.1,21769],[95.1,21857],[95.1,21951],[95.1,22042],[95.1,22127],[95.1,22214],[95.1,22301],[95.1,22385],[95.1,22473],[95.1,22561],[95.1,22650]]",1,0,199.6686,204.7393,93.33333333,3.7567,"[{""rating"":93.33333333333333,""responseTime"":3.7567000000029793}]",space,4.2923,,204.7394,Not at all,0,204.7418,,,[],,0,3,3,3,1,audio/Narrative7Situation3.wav,audio/Narrative8Situation3.wav,audio/Narrative5Situation3.wav,audio/Narrative6Situation3.wav,8,4,3,5,,,,,,,,,,,,,,,,,,,,,,,,,,,,,,,,,,,,,
,,,,,,6307bd3bb93e804d22332b3e,2024-05-13_10h32.08.518,group3.1-3.2-social-tom,2023.2.2,Win32,14.38848921,65c5074098b851296ff0b7ed,6642328924a53585686eba52,,,,,,,,,,,,,,,,,,,,,,,,,,,,,204.7419,1,audio/Narrative8Situation4.wav,207.7517,,207.7517,222.1534,"[[999,0],[999,93],[999,185],[999,279],[999,365],[999,453],[999,539],[999,630],[999,714],[999,804],[999,896],[999,990],[999,1080],[999,1176],[999,1266],[64.3,1359],[60.5,1450],[60.5,1535],[60.5,1621],[60.5,1710],[60.4,1796],[60.4,1882],[61.1,1970],[62.1,2059],[63.3,2143],[64,2235],[64,2323],[63.5,2410],[60.5,2496],[56,2584],[53.3,2674],[51,2760],[50.2,2850],[50.1,2938],[50.1,3027],[50.6,3112],[50.6,3202],[50.9,3290],[51.8,3379],[53.9,3469],[56.3,3559],[58.5,3654],[62.8,3744],[63.9,3831],[64.4,3919],[64.5,4008],[64.7,4094],[65,4180],[65.4,4273],[65.5,4359],[65.5,4446],[65.5,4535],[65.7,4619],[65.7,4705],[65.7,4791],[65.7,4876],[65.7,4962],[65.7,5049],[65.7,5137],[65.7,5227],[65.7,5317],[65.7,5405],[65.7,5493],[65.7,5580],[65.7,5671],[65.7,5756],[65.9,5844],[66,5934],[66.1,6025],[66.4,6118],[66.5,6213],[66.6,6303],[66.6,6396],[66.7,6488],[67,6577],[67.5,6667],[67.8,6755],[68,6841],[68.2,6932],[68.4,7021],[68.8,7106],[69.1,7197],[69.5,7284],[70.2,7372],[70.9,7460],[71.5,7548],[71.7,7636],[71.9,7722],[72,7810],[72.2,7898],[72.2,7986],[72.2,8074],[72.2,8166],[72.2,8254],[72.5,8342],[72.5,8426],[72.5,8513],[73.8,8597],[74.3,8685],[75.2,8773],[75.7,8859],[76,8944],[76.6,9033],[76.8,9120],[77,9210],[77.3,9297],[77.5,9383],[77.5,9469],[77.5,9559],[77.5,9646],[77.5,9731],[77.5,9820],[77.5,9907],[77.5,9998],[77.5,10089],[77.5,10177],[77.5,10266],[77.5,10360],[77.5,10449],[77.5,10537],[77.5,10626],[77.4,10720],[77.4,10811],[77.4,10904],[77.4,10994],[77.4,11086],[77.4,11177],[77.4,11267],[77.4,11357],[77.3,11445],[77.3,11530],[77.3,11618],[77.3,11706],[77.3,11789],[77.3,11876],[77.3,11964],[77.3,12050],[77.3,12136],[77.3,12226],[77.3,12313],[77.3,12399],[77.3,12485],[77.3,12571],[77.3,12655],[77.6,12740],[78,12829],[78.3,12916],[78.4,13001],[78.6,13088],[79.1,13177],[79.4,13269],[80,13357],[80.9,13444],[81.5,13532],[81.5,13620],[81.5,13704],[81.4,13790],[81.3,13879],[81.1,13969],[81.1,14052],[81.1,14136],[81,14224],[81,14312],[81,14401]]",1,0,222.1536,225.6983,73.85416667,3.1715,"[{""rating"":84.16666666666667,""responseTime"":1.5788999999985265},{""rating"":79.16666666666667,""responseTime"":2.323899999998531},{""rating"":76.66666666666666,""responseTime"":2.696700000002977},{""rating"":73.85416666666667,""responseTime"":3.171500000000009}]",space,2.8131,,225.6983,All the time,100,225.7008,,,[],,0,4,4,4,1,audio/Narrative7Situation4.wav,audio/Narrative8Situation4.wav,audio/Narrative5Situation4.wav,audio/Narrative6Situation4.wav,3,3,1,2,,,,,,,,,,,,,,,,,,,,,,,,,,,,,,,,,,,,,
,,,,,,6307bd3bb93e804d22332b3e,2024-05-13_10h32.08.518,group3.1-3.2-social-tom,2023.2.2,Win32,14.38848921,65c5074098b851296ff0b7ed,6642328924a53585686eba52,,,,,,,,,,,,,,,,,,,,,,,,,,,,,225.701,1,audio/Narrative8Situation5.wav,227.7357,,227.7358,236.2249,"[[74.7,1307],[75.3,1399],[75.4,1484],[75.6,1570],[75.6,1654],[75.6,1740],[75.6,1830],[74.8,1918],[69.2,2003],[60.6,2093],[56.5,2182],[54.2,2271],[54.1,2361],[54.1,2449],[54.1,2535],[54.1,2620],[54.1,2707],[54.1,2793],[54.1,2882],[54.1,2972],[54.1,3063],[54.1,3150],[54.1,3240],[54.1,3328],[54.1,3415],[54.1,3504],[54.1,3591],[54.1,3676],[54.1,3761],[54.1,3849],[54.1,3935],[54.1,4024],[54.1,4115],[54.4,4202],[55.7,4291],[57.4,4376],[59.1,4466],[59.5,4552],[59.5,4643],[59.5,4725],[59.5,4814],[59.5,4902],[59.5,4988],[59.5,5072],[59.5,5157],[59.5,5246],[59.5,5334],[59.5,5419],[59.8,5506],[62.8,5594],[65.4,5685],[66.1,5773],[66.6,5864],[66.9,5954],[67.7,6044],[68.9,6141],[70.2,6231],[70.6,6323],[71,6413],[71.4,6501],[71.5,6589],[71.5,6676],[71.5,6762],[71.5,6846],[71.5,6934],[71.5,7019],[71.5,7104],[71.5,7189],[71.5,7278],[71.5,7364],[71.5,7450],[71.5,7535],[71.5,7621],[71.5,7712],[71.9,7799],[71.9,7882],[71.9,7969],[71.9,8055],[71.9,8140],[71.9,8227],[71.9,8314],[71.9,8398],[71.9,8488]]",1,0,236.2251,238.0708,67.5,1.2851,"[{""rating"":67.5,""responseTime"":1.2851000000015063}]",space,1.1137,,238.0708,All the time,100,238.0723,,,[],,0,5,5,5,1,audio/Narrative7Situation5.wav,audio/Narrative8Situation5.wav,audio/Narrative5Situation5.wav,audio/Narrative6Situation5.wav,5,2,5,2,,,,,,,,,,,,,,,,,,,,,,,,,,,,,,,,,,,,,
,,,,,,6307bd3bb93e804d22332b3e,2024-05-13_10h32.08.518,group3.1-3.2-social-tom,2023.2.2,Win32,14.38848921,65c5074098b851296ff0b7ed,6642328924a53585686eba52,,,,,,,,,,,,,,,,,,,,,,,,,,,,,238.0725,1,audio/Narrative8Situation6.wav,240.0835,,240.0836,246.7714,"[[999,0],[999,88],[999,174],[999,258],[999,343],[999,432],[999,522],[999,613],[999,708],[999,795],[999,884],[999,972],[999,1061],[999,1150],[999,1240],[999,1326],[65.2,1411],[65.1,1503],[64.6,1589],[64.8,1678],[65.3,1768],[65.7,1855],[67.1,1944],[69.3,2038],[70.8,2126],[72.9,2215],[73.8,2302],[74.9,2390],[75.8,2476],[76.4,2566],[77,2653],[77.6,2743],[77.7,2831],[77.8,2921],[77.8,3008],[77.8,3094],[77.8,3179],[77.6,3267],[73.1,3357],[69.6,3445],[69.4,3532],[69.4,3628],[69.4,3717],[68.4,3804],[63,3897],[57.6,3990],[57.1,4075],[57.1,4159],[57.1,4246],[57.1,4332],[57.1,4421],[57.1,4507],[57.1,4593],[57.1,4681],[57.1,4769],[57.1,4855],[57.1,4944],[57.1,5031],[57.1,5121],[59.3,5209],[62.8,5297],[68.8,5386],[70.7,5475],[71.9,5561],[72,5647],[72,5734],[72.1,5820],[72.1,5907],[72.1,5995],[72.1,6081],[72.1,6166],[72.1,6253],[72.1,6341],[72.1,6426],[72.1,6515],[72.1,6601],[72.1,6687]]",1,0,246.7715,249.0187,62.8125,1.6758,"[{""rating"":62.81250000000001,""responseTime"":1.6758000000045001}]",space,1.5105,,249.0188,All the time,100,249.0207,,,[],,0,6,6,6,1,audio/Narrative7Situation6.wav,audio/Narrative8Situation6.wav,audio/Narrative5Situation6.wav,audio/Narrative6Situation6.wav,3,2,3,2,,,,,,,,,,,,,,,,,,,,,,,,,,,,,,,,,,,,,
,,,,,,6307bd3bb93e804d22332b3e,2024-05-13_10h32.08.518,group3.1-3.2-social-tom,2023.2.2,Win32,14.38848921,65c5074098b851296ff0b7ed,6642328924a53585686eba52,,,,,,,,,,,,,,,,,,,,,,,,,,,,,249.0209,1,audio/Narrative8Situation7.wav,252.0267,,252.0267,264.3631,"[[999,0],[999,88],[999,174],[999,261],[999,350],[999,438],[999,531],[999,627],[999,716],[999,806],[999,895],[999,985],[999,1074],[999,1165],[999,1255],[999,1342],[999,1426],[999,1512],[67.7,1604],[68.8,1693],[69.1,1781],[69.5,1870],[69.6,1961],[69.7,2050],[69.9,2138],[70.1,2223],[70.5,2312],[70.8,2402],[70.9,2490],[70.9,2577],[70.9,2662],[70.9,2749],[70.9,2837],[70.9,2924],[71.4,3010],[72.1,3095],[73,3182],[73.8,3268],[74.3,3357],[75,3442],[75.6,3530],[75.7,3619],[75.9,3706],[76.3,3790],[76.6,3877],[76.9,3969],[77,4055],[77,4140],[77.1,4225],[77.2,4311],[77.4,4399],[77.6,4484],[77.8,4570],[78.1,4657],[78.4,4742],[78.5,4826],[78.5,4911],[78.5,5002],[78.5,5088],[78.8,5172],[78.8,5257],[78.8,5344],[78.8,5428],[78.8,5515],[78.8,5602],[78.8,5684],[78.8,5772],[79,5861],[79.1,5947],[79.2,6032],[79.5,6118],[79.9,6203],[80.3,6295],[80.5,6381],[80.7,6466],[80.8,6550],[81,6636],[81.1,6726],[81.1,6817],[81.1,6903],[81.1,6994],[81.1,7082],[81.1,7169],[81.1,7255],[81.1,7347],[81.1,7433],[81,7519],[80.9,7606],[80.7,7697],[80.5,7782],[80.5,7865],[80.5,7950],[80.5,8034],[80.5,8121],[80.5,8205],[80.5,8290],[80.5,8374],[80.5,8458],[80.5,8538],[80.5,8624],[80.5,8706],[80.5,8789],[80.5,8876],[80.5,8962],[80.5,9048],[80.5,9135],[80.6,9220],[80.7,9306],[80.8,9395],[80.8,9479],[80.9,9563],[81,9651],[81.3,9738],[81.4,9825],[81.5,9914],[81.5,10002],[81.6,10090],[81.6,10180],[81.6,10265],[81.6,10349],[81.6,10436],[81.6,10522],[81.6,10609],[81.6,10696],[81.6,10782],[81.7,10868],[81.7,10955],[81.7,11044],[81.7,11130],[81.7,11216],[81.7,11306],[81.7,11390],[81.7,11475],[81.7,11561],[81.7,11647],[81.7,11732],[81.7,11819],[81.7,11903],[81.7,11993],[81.7,12082],[81.8,12168],[81.9,12252],[81.9,12336]]",1,0,264.3632,266.3796,76.5625,1.462,"[{""rating"":76.5625,""responseTime"":1.461999999999989}]",space,1.2946,,266.3798,All the time,100,266.3809,,,[],,0,7,7,7,1,audio/Narrative7Situation7.wav,audio/Narrative8Situation7.wav,audio/Narrative5Situation7.wav,audio/Narrative6Situation7.wav,5,3,4,5,,,,,,,,,,,,,,,,,,,,,,,,,,,,,,,,,,,,,
,,,,,,6307bd3bb93e804d22332b3e,2024-05-13_10h32.08.518,group3.1-3.2-social-tom,2023.2.2,Win32,14.38848921,65c5074098b851296ff0b7ed,6642328924a53585686eba52,,,,,,,,,,,,,,,,,,,,,,,,,,,,,266.3811,1,audio/Narrative8Situation8.wav,269.4433,,269.4434,282.5539,"[[999,0],[999,87],[999,174],[999,257],[51,344],[52,431],[52.2,521],[52.1,610],[54.1,700],[56.1,788],[58.5,873],[58.8,963],[59.5,1049],[59.8,1136],[60.6,1226],[62.8,1309],[64.7,1394],[66.3,1483],[66.4,1569],[66.5,1655],[66.7,1739],[66.7,1827],[66.9,1912],[66.9,1997],[67,2081],[67.2,2167],[67.2,2254],[67.2,2336],[67.2,2421],[67.2,2509],[67.2,2594],[67.2,2680],[67.2,2765],[67.2,2850],[67.2,2935],[67.2,3020],[67.2,3102],[67.2,3188],[67.2,3275],[67.2,3360],[67.2,3444],[67.2,3534],[67.2,3616],[67.2,3701],[67.2,3788],[67.2,3873],[67.2,3959],[67.2,4047],[67.2,4130],[67.1,4214],[67.1,4302],[67.1,4388],[67,4475],[67,4565],[67,4653],[67,4738],[67.1,4828],[67.2,4915],[67.4,5003],[67.6,5088],[67.7,5178],[67.7,5266],[67.7,5351],[67.7,5436],[67.8,5523],[67.8,5610],[67.8,5698],[67.8,5784],[68.1,5873],[68.4,5960],[68.6,6047],[68.8,6132],[68.9,6220],[69,6305],[69,6391],[69,6477],[69,6566],[69,6651],[69,6734],[69,6815],[69,6898],[69,6981],[69,7067],[69,7157],[69,7241],[69,7328],[69,7415],[69,7507],[69,7592],[69,7680],[69,7767],[69,7855],[69,7945],[69,8032],[69,8118],[69,8203],[69,8290],[69,8376],[69,8463],[69.1,8551],[69.2,8637],[69.3,8724],[69.4,8813],[69.7,8900],[70,8989],[70.2,9077],[70.3,9164],[70.4,9254],[70.5,9343],[70.6,9428],[70.6,9519],[70.6,9609],[70.6,9693],[70.7,9780],[70.7,9867],[70.7,9956],[70.7,10043],[70.7,10133],[70.7,10217],[70.7,10303],[70.7,10394],[70.7,10479],[70.7,10564],[70.7,10652],[70.7,10739],[70.7,10825],[70.8,10915],[71.1,11001],[72.5,11089],[77.9,11179],[83.1,11269],[86,11358],[87.2,11445],[87.9,11538],[88.9,11624],[89.2,11711],[89.4,11798],[89.5,11886],[89.5,11972],[89.5,12059],[89.5,12147],[89.5,12234],[89.5,12319],[89.5,12407],[89.5,12496],[89.5,12585],[89.5,12671],[89.4,12761],[89.4,12851],[89.4,12939],[89.4,13027],[89.4,13110]]",1,0,282.554,284.7993,79.375,1.686,"[{""rating"":79.375,""responseTime"":1.6859999999999786}]",space,1.514,,284.7994,Not at all,0,284.8017,,,[],,0,8,8,8,1,audio/Narrative7Situation8.wav,audio/Narrative8Situation8.wav,audio/Narrative5Situation8.wav,audio/Narrative6Situation8.wav,2,3,3,5,,,,,,,,,,,,,,,,,,,,,,,,,,,,,,,,,,,,,
,,,,,,6307bd3bb93e804d22332b3e,2024-05-13_10h32.08.518,group3.1-3.2-social-tom,2023.2.2,Win32,14.38848921,65c5074098b851296ff0b7ed,6642328924a53585686eba52,,,,,,,,,,,,,,,,,,,,,,,,,,,,,284.8019,1,audio/Narrative8Situation9.wav,287.8648,,287.8648,299.4091,"[[77.4,616],[77.6,709],[78.2,802],[78.5,893],[78.8,986],[79.2,1076],[79.2,1167],[79.3,1257],[79.4,1346],[80.2,1434],[80.5,1524],[80.5,1607],[81,1692],[81.1,1779],[82.2,1867],[82.4,1953],[82.7,2040],[83.2,2128],[83.3,2216],[83.4,2302],[83.4,2388],[83.4,2474],[83.4,2560],[83.4,2643],[83.4,2728],[83.4,2819],[83.4,2907],[83.4,2990],[83.4,3078],[83.4,3165],[83.4,3253],[83.4,3341],[83.4,3424],[83.4,3508],[83.4,3598],[83.3,3684],[83.3,3770],[83.3,3856],[83.3,3942],[83.3,4026],[83.3,4113],[83.3,4201],[83.3,4283],[83.3,4375],[83.3,4462],[83.3,4547],[83.3,4634],[83.3,4722],[83.3,4805],[83.3,4892],[83.3,4981],[83.5,5066],[83.6,5153],[83.9,5243],[84.5,5330],[85,5417],[85.1,5506],[85.1,5589],[85.2,5673],[85.2,5761],[85.3,5852],[85.3,5942],[85.3,6032],[85.3,6122],[85.3,6211],[85.3,6296],[85.3,6381],[85.3,6466],[85.3,6555],[85.3,6642],[85.3,6728],[85.3,6815],[85.3,6900],[85.3,6983],[85.2,7073],[85.2,7161],[85.2,7249],[85.2,7335],[85.2,7421],[85.2,7502],[85.2,7589],[85.2,7674],[85.2,7762],[85.2,7851],[85.2,7937],[85.2,8024],[85.2,8112],[85.2,8197],[85.2,8279],[85.2,8369],[85.2,8454],[85.2,8537],[85.2,8619],[85.2,8707],[85.2,8790],[85.2,8881],[85.1,8968],[85.1,9057],[85.1,9147],[85,9238],[84.7,9326],[84.7,9416],[84.7,9504],[84.7,9590],[84.7,9676],[84.6,9764],[84.6,9849],[84.6,9938],[84.6,10025],[84.6,10112],[84.6,10201],[84.6,10285],[84.7,10374],[84.9,10466],[85.1,10558],[85.3,10646],[85.4,10741],[85.4,10832],[85.4,10922],[85.4,11016],[85.4,11108],[85.4,11196],[85.4,11287],[85.4,11374],[85.4,11457],[85.4,11544]]",1,0,299.4092,302.6906,77.91666667,2.3372,"[{""rating"":81.14583333333334,""responseTime"":1.3088999999985163},{""rating"":77.91666666666667,""responseTime"":2.337199999995505}]",space,2.5313,,302.6907,All the time,100,302.6933,,,[],,0,9,9,9,1,audio/Narrative7Situation9.wav,audio/Narrative8Situation9.wav,audio/Narrative5Situation9.wav,audio/Narrative6Situation9.wav,2,3,3,4,,,,,,,,,,,,,,,,,,,,,,,,,,,,,,,,,,,,,
,,,,,,6307bd3bb93e804d22332b3e,2024-05-13_10h32.08.518,group3.1-3.2-social-tom,2023.2.2,Win32,14.38848921,65c5074098b851296ff0b7ed,6642328924a53585686eba52,,,,,,,,,,,,,,,,,,,,,,,,,,,,,302.6935,1,audio/Narrative7Situation1.wav,304.7353,,304.7353,360.8613,"[[74.2,515],[73.4,601],[73.3,686],[73,775],[73,863],[73,954],[73,1041],[72.9,1127],[72.8,1216],[72.8,1301],[72.8,1387],[72.8,1476],[72.8,1564],[72.8,1650],[72.8,1737],[72.8,1825],[72.8,1914],[72.8,2001],[73.3,2091],[73.5,2178],[73.5,2268],[73.8,2354],[73.8,2441],[73.8,2527],[73.5,2613],[69.8,2699],[62.7,2789],[51.1,2881],[47.6,2970],[46.1,3058],[44.9,3143],[43.4,3230],[42.5,3318],[42.5,3402],[42.5,3487],[42.4,3571],[42.4,3657],[43.1,3742],[49.3,3829],[55.6,3924],[60.8,4013],[61,4102],[61,4190],[61.3,4282],[61.3,4369],[61.5,4454],[61.8,4539],[63.6,4628],[66.3,4718],[66.9,4804],[67.3,4896],[67.3,4983],[67.3,5071],[67.5,5156],[67.5,5245],[67.5,5331],[67.5,5415],[67.5,5500],[67.5,5586],[67.5,5674],[67.5,5759],[67.5,5846],[67.5,5932],[67.8,6017],[68.3,6106],[69.6,6193],[70.4,6279],[70.8,6367],[70.9,6453],[70.9,6540],[71.1,6627],[71.3,6713],[71.3,6803],[71.3,6888],[71.4,6979],[71.6,7066],[71.6,7150],[71.6,7237],[71.6,7326],[71.7,7409],[71.7,7494],[71.7,7580],[71.7,7667],[72.1,7753],[72.1,7836],[72.1,7921],[72.1,8006],[72.1,8094],[72.2,8183],[72.2,8271],[72.2,8357],[72.2,8442],[72.2,8526],[72.2,8615],[72.2,8702],[72.2,8786],[72.2,8872],[72.2,8961],[72.2,9046],[72.2,9138],[72.2,9224],[72.2,9312],[72.1,9401],[72.1,9487],[72.1,9573],[72.1,9661],[72.1,9751],[72.3,9836],[72.3,9920],[72.3,10009],[72.3,10094],[73,10182],[74.2,10272],[74.4,10360],[74.8,10448],[75.3,10534],[75.6,10618],[75.8,10705],[75.8,10799],[75.8,10887],[75.8,10971],[75.8,11057],[75.8,11142],[75.8,11233],[75.8,11322],[75.8,11408],[75.8,11491],[75.8,11579],[75.8,11665],[75.8,11753],[75.8,11844],[75.8,11929],[75.8,12015],[75.8,12106],[75.9,12192],[75.9,12280],[75.9,12365],[75.9,12449],[75.9,12535],[75.9,12623],[75.9,12705],[75.9,12788],[75.9,12876],[75.7,12963],[75.7,13055],[75.7,13141],[75.7,13229],[75.7,13317],[75.7,13411],[75.7,13493],[75.7,13577],[75.7,13665],[75.7,13752],[75.7,13839],[75.8,13927],[75.9,14013],[75.9,14100],[75.9,14190],[76,14281],[76,14366],[76,14453],[76,14538],[76,14620],[75.7,14706],[75.7,14793],[75.7,14883],[75.7,14972],[75.7,15059],[75.7,15145],[75.8,15231],[75.9,15318],[75.9,15405],[75.9,15493],[75.9,15577],[75.9,15661],[75.9,15746],[75.9,15828],[75.9,15915],[75.9,16004],[75.9,16087],[75.9,16175],[75.9,16263],[75.9,16346],[75.9,16431],[75.9,16519],[75.9,16604],[75.9,16690],[75.9,16777],[75.9,16863],[75.9,16949],[75.9,17036],[75.9,17124],[75.9,17209],[75.9,17300],[75.9,17387],[75.9,17476],[75.9,17563],[75.9,17650],[75.9,17737],[75.9,17827],[75.9,17911],[75.9,17997],[75.9,18086],[75.9,18170],[75.9,18258],[75.9,18347],[75.9,18435],[76.1,18524],[76.3,18618],[76.4,18707],[76.7,18791],[76.9,18879],[77,18969],[77.1,19056],[77.5,19151],[78.3,19241],[79.2,19331],[80.1,19413],[80.8,19495],[81.4,19580],[81.4,19665],[81.5,19749],[81.5,19834],[81.5,19920],[81.5,20006],[81.5,20093],[81.5,20179],[81.5,20264],[81.5,20351],[81.5,20438],[81.5,20522],[81.5,20609],[81.5,20693],[81.5,20778],[81.5,20864],[81.5,20953],[81.5,21039],[81.5,21123],[81.5,21214],[81.5,21307],[81.5,21393],[81.5,21481],[81.5,21569],[81.5,21657],[81.5,21745],[81.5,21833],[81.5,21921],[81.5,22007],[81.5,22093],[81.5,22183],[81.5,22276],[81.5,22369],[81.5,22456],[81.5,22545],[81.5,22636],[81.5,22730],[81.5,22818],[81.5,22903],[81.5,22990],[81.5,23075],[81.5,23164],[81.5,23254],[81.5,23345],[81.5,23432],[81.5,23517],[81.6,23603],[81.6,23690],[81.6,23777],[81.7,23865],[81.8,23953],[81.9,24041],[82,24132],[82,24215],[82,24304],[82,24395],[82,24476],[82,24560],[82,24649],[82,24733],[82,24815],[82,24904],[82,24989],[82,25076],[82,25162],[82.1,25248],[82.2,25332],[82.9,25418],[83.2,25502],[83.6,25590],[84.1,25675],[84.4,25761],[84.6,25845],[84.9,25931],[85.3,26020],[85.8,26108],[86.4,26196],[86.5,26287],[86.5,26372],[86.6,26459],[86.7,26548],[86.7,26634],[86.7,26723],[86.8,26809],[86.9,26894],[87,26980],[87,27071],[87,27156],[87,27243],[87,27333],[87,27414],[87,27499],[87,27582],[87,27666],[87,27749],[87,27835],[87,27920],[87,28003],[87,28088],[87,28175],[87,28265],[87,28349],[87,28434],[87,28521],[87,28605],[87,28692],[87,28778],[87,28864],[87,28957],[87,29044],[87,29132],[87,29217],[87,29304],[87,29392],[87,29476],[87,29564],[87,29648],[87,29732],[87,29818],[87,29902],[87,29988],[87,30075],[87,30161],[87,30247],[87,30338],[87,30420],[87,30505],[87,30591],[87,30678],[87,30764],[87,30852],[87,30936],[87,31023],[87,31110],[87,31201],[87,31286],[87,31372],[87,31454],[87,31540],[87,31627],[87,31710],[87,31795],[87,31881],[87,31966],[87,32052],[87,32137],[87,32221],[87,32309],[87,32398],[87,32483],[87,32567],[87,32653],[87,32737],[87,32821],[87,32907],[87,32992],[87.2,33077],[87.3,33168],[87.3,33254],[87.4,33340],[87.6,33423],[87.7,33508],[87.7,33591],[87.8,33678],[87.8,33764],[87.8,33849],[87.8,33938],[87.8,34024],[87.8,34113],[87.8,34205],[87.8,34299],[87.8,34390],[87.8,34476],[87.8,34563],[87.8,34656],[87.8,34740],[87.8,34821],[87.8,34906],[87.8,34991],[87.8,35078],[87.8,35168],[87.8,35266],[87.8,35349],[87.8,35433],[87.7,35515],[87.7,35601],[87.7,35684],[87.7,35770],[87.7,35856],[87.7,35940],[87.6,36030],[87.6,36115],[87.6,36203],[87.6,36292],[87.6,36379],[87.6,36464],[87.6,36547],[87.6,36632],[87.6,36716],[87.4,36802],[87.2,36887],[87.2,36972],[87.2,37057],[87.2,37142],[87.2,37227],[87.2,37312],[87.2,37397],[87.2,37483],[87.2,37570],[87.2,37653],[87.3,37739],[87.4,37824],[87.5,37907],[87.5,37991],[87.7,38079],[87.7,38164],[87.9,38250],[87.9,38338],[87.9,38421],[87.9,38507],[87.9,38591],[87.9,38675],[87.9,38759],[87.9,38842],[87.9,38930],[87.9,39016],[87.9,39104],[87.9,39197],[87.9,39288],[87.9,39376],[87.9,39464],[87.9,39551],[87.9,39638],[87.9,39726],[87.9,39815],[87.9,39906],[87.9,39990],[88,40075],[88.1,40160],[88.1,40245],[88.2,40334],[88.3,40421],[88.4,40514],[88.9,40601],[89.2,40691],[89.4,40778],[90.1,40864],[90.9,40950],[91.3,41037],[91.4,41123],[91.6,41210],[91.9,41298],[92.2,41386],[92.3,41470],[92.3,41559],[92.3,41645],[92.3,41731],[92.3,41819],[92.3,41906],[92.3,41995],[92.3,42083],[92.3,42169],[92.3,42253],[92.3,42339],[92.3,42426],[92.3,42512],[92.3,42595],[92.3,42682],[92.3,42767],[92.3,42851],[92.6,42939],[92.9,43026],[93.3,43112],[93.8,43201],[93.9,43290],[93.9,43376],[93.9,43463],[93.9,43547],[93.9,43629],[93.9,43715],[93.9,43799],[93.9,43883],[93.9,43975],[93.9,44065],[93.9,44155],[93.9,44246],[93.9,44338],[93.9,44425],[93.9,44515],[93.9,44603],[93.9,44688],[93.8,44774],[93.8,44860],[93.8,44947],[93.8,45034],[93.8,45120],[93.8,45204],[93.6,45292],[93.6,45379],[93.6,45468],[93.6,45556],[93.6,45637],[93.6,45723],[93.6,45811],[93.6,45899],[93.6,45985],[93.6,46072],[93.8,46153],[94.1,46245],[94.4,46335],[94.7,46420],[95.1,46506],[95.1,46596],[95.4,46682],[95.4,46766],[95.4,46854],[95.4,46938],[95.4,47023],[95.4,47112],[95.4,47200],[95.4,47284],[95.4,47370],[95.4,47456],[95.4,47540],[95.4,47627],[95.4,47713],[95.4,47798],[95.4,47883],[95.6,47971],[95.9,48056],[95.9,48140],[95.9,48225],[95.9,48312],[95.9,48400],[95.9,48488],[95.9,48572],[95.9,48655],[95.9,48741],[95.9,48828],[95.9,48915],[95.9,49005],[95.9,49091],[95.9,49176],[95.9,49263],[95.4,49348],[94.2,49432],[93.6,49519],[93.6,49602],[93.6,49689],[93.5,49775],[93.4,49863],[93.4,49945],[93.4,50029],[93.4,50114],[93.4,50204],[93.5,50286],[94.6,50371],[95.6,50460],[96.8,50545],[97.2,50628],[97.6,50713],[97.9,50799],[97.9,50881],[97.9,50965],[97.9,51051],[98,51135],[98,51223],[98,51308],[98,51389],[98,51473],[98,51559],[98,51643],[98,51730],[98,51819],[98,51902],[98,51985],[98,52069],[98,52151],[98,52237],[98,52326],[98,52411],[98,52497],[98,52583],[98,52670],[98,52752],[97.9,52842],[97.9,52927],[97.9,53011],[97.9,53099],[97.8,53184],[97.8,53273],[97.8,53363],[97.8,53448],[97.8,53533],[97.8,53620],[97.8,53707],[97.8,53794],[97.8,53880],[97.8,53968],[97.8,54058],[97.8,54144],[97.8,54229],[97.8,54318],[97.8,54407],[97.8,54491],[97.8,54577],[97.8,54662],[97.8,54748],[97.8,54832],[97.8,54920],[97.8,55006],[97.8,55093],[97.8,55178],[97.8,55263],[97.8,55351],[97.8,55438],[97.8,55522],[97.8,55609],[97.4,55697],[97.4,55782],[97.4,55867],[97.3,55955],[97.1,56039],[97.1,56125]]",1,0,360.8619,363.1293,85.20833333,1.1328,"[{""rating"":85.20833333333333,""responseTime"":1.1328000000044653}]",space,1.5176,,363.1294,All the time,100,363.1309,,,[],,0,10,10,10,1,audio/Narrative8Situation1.wav,audio/Narrative7Situation1.wav,audio/Narrative6Situation1.wav,audio/Narrative5Situation1.wav,5,2,2,5,,,,,,,,,,,,,,,,,,,,,,,,,,,,,,,,,,,,,
,,,,,,6307bd3bb93e804d22332b3e,2024-05-13_10h32.08.518,group3.1-3.2-social-tom,2023.2.2,Win32,14.38848921,65c5074098b851296ff0b7ed,6642328924a53585686eba52,,,,,,,,,,,,,,,,,,,,,,,,,,,,,363.1312,1,audio/Narrative7Situation2.wav,366.1368,,366.1368,373.8315,"[[999,5],[999,91],[999,177],[999,262],[999,351],[999,439],[999,525],[999,613],[999,698],[999,785],[999,874],[999,961],[999,1049],[999,1137],[999,1223],[999,1310],[57.3,1395],[65.5,1484],[68.6,1574],[69.9,1663],[70.5,1751],[70.8,1836],[71.5,1926],[71.8,2010],[74.1,2099],[75.8,2186],[75.8,2270],[75.9,2352],[75.9,2437],[76.1,2524],[76.1,2610],[76.1,2699],[76.1,2785],[76.1,2873],[76.1,2961],[76.1,3044],[76.1,3127],[76.1,3213],[76.1,3299],[76.1,3384],[76.1,3471],[76.1,3559],[76.1,3645],[76.1,3729],[76.1,3816],[76,3901],[76,3987],[75.9,4073],[75.9,4158],[75.9,4246],[75.9,4331],[75.9,4418],[75.9,4504],[75.9,4590],[75.9,4681],[75.8,4766],[75.8,4853],[75.8,4938],[75.8,5025],[75.8,5110],[75.8,5197],[75.8,5285],[76.1,5371],[76.5,5454],[76.7,5541],[76.9,5627],[77,5715],[77.1,5801],[77.2,5888],[77.2,5971],[77.4,6054],[77.6,6142],[77.6,6228],[77.6,6310],[77.6,6397],[77.7,6486],[77.7,6568],[77.7,6657],[77.7,6743],[77.6,6832],[77.6,6925],[77.6,7008],[77.6,7093],[77.6,7177],[77.6,7264],[77.6,7350],[77.6,7435],[77.5,7524],[77.5,7608],[77.5,7694]]",1,0,373.8317,377.359,73.02083333,2.6937,"[{""rating"":73.02083333333333,""responseTime"":2.6936999999955447}]",space,2.7984,,377.3591,Half the time,50,377.3613,,,[],,0,11,11,11,1,audio/Narrative8Situation2.wav,audio/Narrative7Situation2.wav,audio/Narrative6Situation2.wav,audio/Narrative5Situation2.wav,3,3,3,3,,,,,,,,,,,,,,,,,,,,,,,,,,,,,,,,,,,,,
,,,,,,6307bd3bb93e804d22332b3e,2024-05-13_10h32.08.518,group3.1-3.2-social-tom,2023.2.2,Win32,14.38848921,65c5074098b851296ff0b7ed,6642328924a53585686eba52,,,,,,,,,,,,,,,,,,,,,,,,,,,,,377.3614,1,audio/Narrative7Situation3.wav,385.3884,,385.3884,394.8551,"[[999,6],[999,96],[999,184],[999,273],[999,361],[999,447],[999,535],[999,628],[999,713],[999,800],[999,886],[999,975],[999,1059],[999,1148],[999,1236],[999,1326],[48.6,1418],[49,1506],[49.5,1593],[50.5,1682],[51.7,1771],[51.9,1857],[52.1,1943],[52.1,2026],[52.2,2115],[52.8,2202],[56.4,2290],[62.3,2380],[63.1,2466],[60.8,2553],[53.6,2648],[47.1,2737],[45.3,2829],[43.9,2922],[43.5,3014],[43.3,3106],[43.3,3196],[43.3,3287],[43.3,3381],[43.3,3469],[43.3,3557],[43.3,3648],[43.3,3739],[43.4,3828],[44.5,3917],[47,4003],[48.8,4090],[49.1,4179],[49.1,4269],[49.1,4353],[49.1,4439],[49.1,4525],[49.2,4611],[49.2,4697],[49.2,4784],[49.2,4869],[49.2,4955],[49.2,5042],[49.2,5128],[49.2,5212],[49.2,5299],[49.5,5383],[49.8,5469],[50,5557],[50,5642],[50,5730],[50,5814],[50,5899],[50,5983],[50,6069],[50,6159],[50,6245],[50,6331],[50,6419],[50,6502],[50,6591],[50,6678],[49.9,6762],[49.5,6850],[49.5,6939],[49.4,7025],[49.4,7111],[49.2,7195],[49,7283],[49,7367],[49,7452],[49,7542],[49,7629],[49,7718],[49,7805],[49,7891],[49,7977],[49,8063],[49,8148],[49,8235],[48.4,8322],[48,8413],[47.6,8500],[47.3,8591],[46.8,8682],[46.4,8770],[46.4,8859],[46.4,8944],[46.4,9029],[46.4,9114],[46.4,9205],[46.3,9292],[46.1,9377],[45.9,9466]]",1,0,394.8552,398.6851,46.66666667,3.1611,"[{""rating"":59.166666666666664,""responseTime"":1.7457999999970184},{""rating"":46.666666666666664,""responseTime"":3.161100000001511}]",space,3.1008,,398.6852,Not at all,0,398.6876,,,[],,0,12,12,12,1,audio/Narrative8Situation3.wav,audio/Narrative7Situation3.wav,audio/Narrative6Situation3.wav,audio/Narrative5Situation3.wav,4,8,5,3,,,,,,,,,,,,,,,,,,,,,,,,,,,,,,,,,,,,,
,,,,,,6307bd3bb93e804d22332b3e,2024-05-13_10h32.08.518,group3.1-3.2-social-tom,2023.2.2,Win32,14.38848921,65c5074098b851296ff0b7ed,6642328924a53585686eba52,,,,,,,,,,,,,,,,,,,,,,,,,,,,,398.6878,1,audio/Narrative7Situation4.wav,401.7478,,401.7478,413.6798,"[[51.8,261],[51.8,348],[51.8,435],[51.8,521],[51.7,609],[51.6,699],[51.6,782],[51.6,872],[51.6,960],[51.6,1046],[51.6,1135],[51.3,1223],[51,1309],[50,1400],[49.4,1483],[49.2,1567],[49.1,1653],[49.1,1739],[49,1825],[48.9,1912],[48.4,2001],[47.2,2086],[42.7,2178],[38.4,2271],[36.4,2361],[35,2452],[34.4,2536],[32,2624],[31.9,2716],[31.9,2802],[31.9,2889],[31.9,2978],[32.7,3068],[38.2,3160],[48.4,3255],[55.1,3347],[56.5,3437],[56.6,3526],[56.7,3613],[56.7,3700],[56.7,3790],[56.7,3877],[56.7,3962],[56.7,4049],[56.7,4137],[56.7,4226],[56.7,4315],[56.7,4402],[56.7,4486],[56.7,4575],[56.6,4660],[56.1,4746],[55.8,4832],[55.7,4918],[55.7,5005],[55.7,5093],[55.7,5179],[55.7,5266],[55.7,5353],[55.7,5442],[55.7,5527],[55.6,5612],[55.4,5697],[55.3,5784],[55.1,5872],[55.1,5960],[55,6046],[54.9,6133],[54.9,6221],[54.8,6310],[54.8,6393],[54.8,6481],[54.7,6562],[54.5,6650],[54.4,6735],[54.1,6819],[53.5,6905],[52.5,6996],[49.8,7087],[46.5,7176],[44.8,7267],[44.7,7353],[44.7,7436],[44.7,7527],[44.7,7615],[44.7,7702],[44.7,7790],[44.5,7878],[43.2,7965],[40.1,8052],[39.7,8140],[39.7,8225],[39.7,8313],[39.7,8399],[39.7,8483],[39.7,8572],[39.7,8657],[39.7,8744],[39.7,8829],[39.7,8914],[39.7,9000],[39.5,9088],[39.5,9176],[39.5,9266],[39.5,9354],[39.5,9439],[39.5,9522],[39.5,9605],[39.5,9690],[39,9777],[38.6,9866],[38.4,9954],[38.2,10042],[38.2,10129],[38.2,10219],[38.2,10310],[38.2,10397],[38.2,10481],[38.2,10561],[38.2,10648],[38.2,10734],[38.2,10818],[38.2,10907],[38.2,10992],[38.2,11078],[38.2,11165],[38.2,11249],[38.2,11338],[38.2,11420],[38.2,11506],[38.2,11591],[38.2,11673],[38.4,11757],[38.9,11842],[39.3,11931]]",1,0,413.6798,415.2708,45.10416667,0.9415,"[{""rating"":45.104166666666664,""responseTime"":0.9415000000000191}]",space,0.8389,,415.2708,Half the time,50,415.273,,,[],,0,13,13,13,1,audio/Narrative8Situation4.wav,audio/Narrative7Situation4.wav,audio/Narrative6Situation4.wav,audio/Narrative5Situation4.wav,3,3,2,1,,,,,,,,,,,,,,,,,,,,,,,,,,,,,,,,,,,,,
,,,,,,6307bd3bb93e804d22332b3e,2024-05-13_10h32.08.518,group3.1-3.2-social-tom,2023.2.2,Win32,14.38848921,65c5074098b851296ff0b7ed,6642328924a53585686eba52,,,,,,,,,,,,,,,,,,,,,,,,,,,,,415.2732,1,audio/Narrative7Situation5.wav,420.293,,420.293,428.9803,"[[43.2,779],[43.6,869],[44,957],[44.6,1045],[44.6,1131],[44.6,1217],[44.7,1306],[44.7,1394],[44.7,1482],[44.7,1569],[44.7,1656],[44.7,1743],[44.7,1829],[44.7,1913],[44.7,1998],[44.7,2090],[44.7,2175],[44.7,2258],[44.7,2347],[44.7,2436],[44.6,2520],[44.4,2607],[44.4,2695],[44.4,2781],[44.4,2865],[43.8,2950],[42.7,3035],[41.8,3122],[40.9,3214],[40.6,3303],[40.5,3391],[39.9,3482],[39.2,3571],[38.6,3659],[38.4,3749],[38.2,3838],[38.2,3921],[38.1,4005],[37.9,4091],[37.9,4176],[37.9,4262],[37.9,4350],[37.9,4437],[37.9,4522],[37.9,4607],[37.9,4692],[37.9,4781],[37.9,4868],[37.9,4958],[37.9,5043],[37.9,5128],[37.9,5215],[37.9,5302],[37.9,5389],[37.9,5477],[37.9,5560],[37.9,5648],[37.9,5735],[37.9,5822],[37.9,5904],[37.9,5990],[37.9,6077],[37.9,6160],[37.9,6244],[37.9,6331],[37.9,6417],[37.9,6506],[37.9,6594],[37.9,6684],[37.7,6770],[37.6,6856],[37.5,6944],[37.5,7030],[37.4,7119],[37.3,7209],[37.3,7294],[37.3,7379],[37.3,7465],[37.3,7551],[37.3,7639],[37.3,7725],[37.3,7810],[37.3,7895],[37.3,7980],[37.3,8068],[37.5,8158],[37.6,8243],[37.6,8334],[37.6,8424],[37.6,8511],[37.6,8596],[37.6,8687]]",1,0,428.9804,431.6659,37.70833333,2.1315,"[{""rating"":37.604166666666664,""responseTime"":0.8338999999985504},{""rating"":37.708333333333336,""responseTime"":2.131500000000017}]",space,1.9528,,431.6659,Half the time,50,431.6674,,,[],,0,14,14,14,1,audio/Narrative8Situation5.wav,audio/Narrative7Situation5.wav,audio/Narrative6Situation5.wav,audio/Narrative5Situation5.wav,2,5,2,5,,,,,,,,,,,,,,,,,,,,,,,,,,,,,,,,,,,,,
,,,,,,6307bd3bb93e804d22332b3e,2024-05-13_10h32.08.518,group3.1-3.2-social-tom,2023.2.2,Win32,14.38848921,65c5074098b851296ff0b7ed,6642328924a53585686eba52,,,,,,,,,,,,,,,,,,,,,,,,,,,,,431.6675,1,audio/Narrative7Situation6.wav,434.7147,,434.7147,444.9512,"[[35.4,612],[35.4,704],[35.4,788],[35.4,875],[35.4,962],[35.4,1050],[35.7,1139],[37.1,1227],[39,1315],[40,1398],[40.2,1488],[40.6,1574],[41.9,1661],[44.2,1750],[44.9,1836],[44.9,1923],[44.9,2011],[44.9,2096],[44.9,2186],[44.9,2276],[44.9,2359],[44.9,2445],[44.9,2530],[44.9,2616],[44.3,2703],[42.8,2791],[40.4,2876],[38.5,2962],[37.6,3049],[37.4,3135],[37.4,3219],[37.4,3305],[39.9,3392],[43.3,3479],[46.7,3567],[48.4,3654],[48.6,3737],[49.3,3824],[51,3914],[53.2,4004],[54.1,4092],[54.5,4184],[54.6,4273],[54.6,4360],[54.6,4446],[54.6,4533],[54.6,4620],[54.6,4710],[54.6,4795],[54.6,4880],[54.6,4966],[54.6,5051],[54.6,5137],[54.6,5221],[54.6,5308],[54.5,5392],[54.5,5476],[54.5,5562],[54.5,5648],[54.5,5735],[54.5,5820],[54.5,5904],[54.5,5988],[54.5,6076],[54.6,6157],[54.9,6250],[55.3,6340],[56,6428],[56.7,6519],[57,6605],[57.3,6691],[57.5,6779],[57.5,6865],[57.5,6952],[57.5,7040],[57.5,7125],[57.5,7214],[57.5,7302],[57.5,7391],[57.5,7474],[57.5,7561],[57.5,7648],[57.5,7731],[57.5,7815],[57.5,7902],[57.5,7988],[57.5,8072],[57.5,8160],[57.4,8248],[57.4,8337],[57.4,8421],[57.3,8507],[57.3,8595],[57.3,8680],[57.2,8764],[57.2,8852],[57.2,8939],[57.1,9027],[57,9114],[57,9201],[56.9,9290],[56.8,9379],[56.8,9465],[56.7,9549],[56.7,9633],[56.7,9716],[56.7,9801],[56.7,9888],[56.7,9976],[56.7,10062],[56.7,10149],[56.7,10236]]",1,0,444.9513,449.5121,55.625,1.9251,"[{""rating"":55.625,""responseTime"":1.9250999999940746}]",space,3.8369,,449.5122,Half the time,50,449.5174,,,[],,0,15,15,15,1,audio/Narrative8Situation6.wav,audio/Narrative7Situation6.wav,audio/Narrative6Situation6.wav,audio/Narrative5Situation6.wav,2,3,2,3,,,,,,,,,,,,,,,,,,,,,,,,,,,,,,,,,,,,,
,,,,,,6307bd3bb93e804d22332b3e,2024-05-13_10h32.08.518,group3.1-3.2-social-tom,2023.2.2,Win32,14.38848921,65c5074098b851296ff0b7ed,6642328924a53585686eba52,,,,,,,,,,,,,,,,,,,,,,,,,,,,,449.5176,1,audio/Narrative7Situation7.wav,454.5837,,454.5837,471.957,"[[50.3,177],[50.1,265],[50.1,349],[50.1,435],[50.1,522],[50.1,609],[50.1,696],[50.1,784],[49.8,868],[49.6,951],[49.1,1039],[49,1123],[49,1208],[49,1293],[49,1378],[49,1462],[49,1547],[49,1633],[49,1715],[49,1799],[49,1883],[49,1966],[49,2053],[49,2136],[49,2223],[48.8,2309],[48.8,2395],[48.4,2482],[47.9,2567],[47.3,2652],[46.7,2739],[46.7,2823],[46.5,2911],[46.5,2997],[46.4,3082],[46.4,3167],[46.4,3250],[46.1,3335],[46.1,3423],[46.1,3506],[45.7,3593],[45.7,3679],[45.5,3765],[45.4,3849],[45.1,3937],[45,4021],[44.9,4105],[44.9,4193],[44.9,4285],[44.8,4374],[44.7,4467],[44.7,4555],[44.7,4641],[44.7,4725],[44.7,4810],[44.6,4899],[44.5,4986],[44.5,5072],[44.3,5155],[44.2,5243],[44.1,5328],[44.1,5414],[44,5497],[44,5582],[44,5664],[43.9,5746],[43.8,5829],[43.8,5912],[43.8,5995],[43.8,6079],[43.8,6164],[43.6,6249],[43.6,6335],[43.6,6423],[43.5,6515],[43.4,6600],[43.4,6685],[43.4,6770],[43.4,6859],[43.3,6943],[43.3,7027],[43.2,7113],[43.2,7199],[43.2,7283],[43.1,7368],[43.1,7454],[43.1,7537],[43.1,7622],[43,7710],[43,7795],[43,7881],[43,7966],[43,8051],[43,8135],[43,8223],[43,8308],[43,8399],[43,8486],[43,8570],[43,8656],[43,8742],[42.9,8827],[42.8,8913],[42.9,9001],[43.9,9086],[45.6,9175],[45.8,9262],[45.9,9348],[46,9435],[46.6,9522],[47.3,9607],[48,9693],[48.8,9779],[49.1,9863],[49.1,9947],[49.3,10031],[49.4,10117],[49.5,10200],[49.8,10288],[49.8,10374],[49.9,10461],[50.1,10549],[50.2,10633],[50.2,10719],[50.3,10806],[50.3,10892],[50.3,10978],[50.3,11065],[50.3,11145],[50.3,11228],[50.3,11313],[50.3,11400],[50.3,11485],[50.3,11570],[50.3,11653],[50.3,11737],[50.3,11826],[50.4,11909],[50.4,11993],[50.5,12080],[50.5,12168],[50.6,12257],[50.6,12343],[50.6,12432],[50.6,12517],[50.7,12600],[50.7,12685],[50.8,12770],[51,12857],[51.3,12945],[51.5,13032],[51.6,13118],[51.8,13206],[51.9,13296],[52,13384],[52.1,13474],[52.1,13566],[52.2,13651],[52.3,13736],[52.3,13820],[52.3,13906],[52.3,13994],[52.3,14085],[52.3,14175],[52.3,14264],[52.3,14351],[52.3,14440],[52.3,14528],[52.3,14616],[52.3,14703],[52.3,14785],[52.4,14871],[52.5,14959],[52.6,15048],[52.6,15131],[52.7,15217],[52.7,15301],[52.8,15384],[53,15470],[53.1,15559],[53.2,15643],[53.3,15729],[53.3,15818],[53.3,15903],[53.3,15988],[53.3,16076],[53.3,16162],[53.3,16246],[53.3,16332],[53.4,16422],[53.4,16507],[53.4,16592],[53.4,16677],[53.4,16761],[53.4,16852],[53.4,16939],[53.4,17027],[53.4,17113],[53.4,17200],[53.4,17286],[53.4,17373]]",1,0,471.9572,474.1812,51.45833333,1.5658,"[{""rating"":51.45833333333333,""responseTime"":1.5657999999970684}]",space,1.4974,,474.1813,Not at all,0,474.1829,,,[],,0,16,16,16,1,audio/Narrative8Situation7.wav,audio/Narrative7Situation7.wav,audio/Narrative6Situation7.wav,audio/Narrative5Situation7.wav,3,5,5,4,,,,,,,,,,,,,,,,,,,,,,,,,,,,,,,,,,,,,
,,,,,,6307bd3bb93e804d22332b3e,2024-05-13_10h32.08.518,group3.1-3.2-social-tom,2023.2.2,Win32,14.38848921,65c5074098b851296ff0b7ed,6642328924a53585686eba52,,,,,,,,,,,,,,,,,,,,,,,,,,,,,474.1831,1,audio/Narrative7Situation8.wav,476.2553,,476.2554,486.4667,"[[999,0],[999,92],[999,186],[999,271],[999,359],[49.8,445],[50.2,537],[49.7,1432],[49.3,1517],[49.4,1603],[49.2,1689],[49.1,1777],[49,1860],[48.4,1946],[48.3,2033],[48.2,2121],[48.1,2213],[47.5,2301],[46.7,2392],[46.6,2477],[45.9,2564],[45.7,2649],[45,2736],[45,2824],[45,2911],[45,2995],[45,3080],[45,3165],[45,3248],[45,3333],[44.9,3417],[44.9,3503],[44.8,3591],[44.8,3677],[44.5,3766],[44.5,3851],[44.2,3935],[44,4022],[44,4109],[43.8,4193],[43.6,4278],[43.5,4363],[43.4,4449],[43.3,4535],[43,4619],[43,4707],[43.1,4791],[44.8,4879],[47,4968],[48.4,5055],[49.3,5141],[49.5,5226],[49.8,5312],[50,5392],[50,5477],[49.2,5563],[47.6,5650],[46,5739],[44.4,5824],[43.2,5908],[42.6,5990],[42,6076],[41,6163],[39.7,6251],[38.4,6339],[37.4,6425],[37.1,6509],[37,6595],[37,6684],[37,6773],[37,6861],[37,6946],[37,7029],[37,7115],[37,7196],[37,7280],[37,7369],[36.7,7459],[36.7,7543],[36.7,7629],[36.7,7716],[36.7,7801],[36.7,7886],[36.7,7970],[36.7,8055],[36.7,8142],[36.7,8228],[36.7,8316],[36.7,8401],[36.7,8485],[37,8568],[39,8657],[40.7,8745],[43,8833],[47.2,8925],[50.5,9011],[51.8,9095],[53.1,9185],[54.7,9271],[55.1,9355],[55.1,9443],[55.1,9530],[55.1,9615],[55.1,9698],[55.1,9783],[55.1,9871],[55.1,9956],[55.1,10042],[55.1,10124],[55.1,10211]]",1,0,486.4669,488.4174,50.41666667,1.3015,"[{""rating"":50.416666666666664,""responseTime"":1.301499999999976}]",space,1.211,,488.4174,Half the time,50,488.4191,,,[],,0,17,17,17,1,audio/Narrative8Situation8.wav,audio/Narrative7Situation8.wav,audio/Narrative6Situation8.wav,audio/Narrative5Situation8.wav,3,2,5,3,,,,,,,,,,,,,,,,,,,,,,,,,,,,,,,,,,,,,
,,,,,,6307bd3bb93e804d22332b3e,2024-05-13_10h32.08.518,group3.1-3.2-social-tom,2023.2.2,Win32,14.38848921,65c5074098b851296ff0b7ed,6642328924a53585686eba52,,,,,,,,,,,,,,,,,,,,,,,,,,,,,488.4193,1,audio/Narrative7Situation9.wav,490.4761,,490.4761,499.3288,"[[49.6,89],[49.6,178],[49.6,262],[49.6,347],[49.6,436],[49.2,524],[49.2,614],[49.2,706],[49.2,793],[48.9,881],[48.9,975],[48.1,1065],[43.8,1597],[43.1,1685],[42.7,1772],[42.6,1857],[42.6,1940],[42.6,2029],[42.5,2116],[42.5,2198],[42.3,2286],[42.3,2373],[42.2,2460],[42.2,2549],[42.2,2634],[42.2,2720],[42.2,2806],[42.2,2888],[42.2,2969],[42.2,3054],[42.2,3141],[42.2,3229],[42.2,3319],[42.2,3407],[42.2,3495],[42.2,3584],[42.2,3675],[42.2,3761],[42.2,3849],[42.2,3934],[46.7,4022],[53.9,4110],[55.4,4200],[56.9,4291],[59,4382],[61.1,4469],[62.7,4557],[63.6,4648],[64.6,4730],[65.7,4819],[65.7,4905],[65.7,4995],[65.7,5080],[65.7,5166],[65.7,5254],[65.7,5341],[65.5,5429],[65.2,5514],[65.1,5599],[65,5683],[64.8,5770],[64.7,5855],[64.1,5942],[64,6028],[63.6,6110],[63.6,6197],[63.4,6287],[63.1,6375],[62.6,6460],[62.1,6553],[62.1,6643],[62.1,6730],[62.3,6818],[63.3,6908],[65.4,6995],[68.4,7085],[70.6,7173],[71.8,7261],[72.3,7350],[72.7,7436],[73.3,7525],[73.9,7615],[74.1,7700],[74.3,7787],[74.3,7873],[74.3,7961],[74.3,8045],[74.3,8135],[73.9,8224],[73.8,8315],[73.5,8405],[73.4,8494],[73.2,8585],[73.1,8678],[72.9,8768],[72.9,8852]]",1,0,499.329,502.0259,65.20833333,1.1945,"[{""rating"":65.20833333333333,""responseTime"":1.194500000000005}]",space,1.966,,502.0259,Half the time,50,502.0274,,,[],,0,18,18,18,1,audio/Narrative8Situation9.wav,audio/Narrative7Situation9.wav,audio/Narrative6Situation9.wav,audio/Narrative5Situation9.wav,3,2,4,3,,,,,,,,,,,,,,,,,,,,,,,,,,,,,,,,,,,,,
,,,,,,6307bd3bb93e804d22332b3e,2024-05-13_10h32.08.518,group3.1-3.2-social-tom,2023.2.2,Win32,14.38848921,65c5074098b851296ff0b7ed,6642328924a53585686eba52,,,,,,,,,,,,,,,,,,,,,,,,,,,562.0219,564.6011,564.6089,2,audio/Narrative13Situation2.wav,564.609,,564.609,594.5546,"[[999,0],[999,87],[999,172],[999,257],[999,341],[999,425],[999,510],[999,595],[999,678],[999,768],[999,855],[999,943],[999,1034],[999,1123],[999,1213],[999,1301],[999,1403],[999,1487],[999,1562],[999,1636],[999,1708],[999,1778],[999,1850],[999,1924],[999,1996],[999,2070],[999,2147],[999,2221],[999,2295],[999,2370],[999,2448],[999,2521],[999,2594],[999,3288],[999,3368],[999,3445],[999,3523],[999,3599],[999,3671],[57,3747],[57,3819],[57,3891],[56.3,3963],[52.5,4042],[50.6,4118],[48.9,4192],[46.1,4267],[43.9,4343],[42.5,4419],[42.4,4495],[42.4,4572],[42.4,4647],[42.4,4719],[42.4,4793],[42.4,4865],[42.4,4935],[42.4,5006],[42.4,5078],[42.4,5150],[42.6,5224],[45.4,5299],[49.3,5374],[51.3,5447],[52.8,5521],[55.2,5596],[56.1,5671],[58,5746],[60.1,5818],[62.3,5891],[64.2,5966],[65.6,6039],[65.6,6112],[65.6,6185],[65.6,6259],[65.6,6332],[65.6,6407],[65.6,6480],[64.4,6550],[62.3,6625],[58.2,6702],[54.9,6774],[51.9,6848],[49.5,6923],[48.5,6996],[47.3,7070],[46,7144],[45,7217],[44.1,7293],[43.6,7365],[43.5,7438],[43.5,7510],[43.5,7583],[43.5,7653],[42.9,7726],[41.5,7798],[39.6,7869],[37.9,7942],[36.7,8016],[34.4,8090],[31.1,8164],[27.7,8240],[24.6,8314],[22.3,8387],[21.8,8461],[21.4,8535],[21.4,8607],[21.4,8679],[21.4,8751],[21.3,8823],[21.1,8895],[21.1,8968],[21.1,9043],[21.1,9117],[21.1,9193],[21.1,9268],[21.1,9340],[21.1,9415],[21.1,9490],[21.1,9563],[21.1,9635],[21.1,9707],[21.3,9783],[21.3,9858],[21.3,9929],[21.3,10001],[21.3,10075],[21.3,10147],[21.3,10221],[21.3,10293],[21.3,10368],[21.3,10443],[21.1,10518],[21.1,10592],[21.1,10667],[21.1,10738],[21.1,10811],[21.1,10884],[21.1,10957],[21.5,11033],[22.9,11109],[24.6,11182],[26.1,11256],[27.7,11332],[30.2,11407],[32.9,11480],[35,11553],[35.5,11626],[36.1,11698],[36.1,11769],[36.1,11841],[36.1,11916],[36.1,11988],[36.1,12061],[36.1,12134],[36.1,12209],[36.1,12280],[36.1,12352],[36.1,12426],[36.1,12499],[36.1,12573],[36.1,12645],[36.1,12719],[36.1,12793],[36.1,12864],[36.1,12936],[36,13008],[36,13080],[36,13151],[35.8,13226],[35.6,13300],[35.6,13375],[35.6,13450],[35.6,13523],[35.6,13596],[35.5,13668],[35.5,13740],[35.5,13810],[35.5,13887],[35.5,13960],[35.4,14034],[35.3,14106],[35.3,14179],[35.3,14255],[36.6,14334],[38.3,14409],[40.7,14484],[43.2,14558],[44.7,14631],[44.7,14706],[44.7,14777],[44.8,14852],[44.8,14923],[44.8,14996],[44.8,15069],[44.8,15140],[44.8,15214],[44.8,15286],[44.8,15357],[44.8,15431],[44.8,15503],[44.8,15572],[44.8,15644],[44.8,15716],[44.8,15787],[44.8,15860],[44.8,15934],[44.7,16009],[44.7,16081],[44.7,16153],[44.7,16225],[44.7,16298],[44.7,16371],[44.7,16445],[44.7,16520],[44.7,16594],[44.7,16668],[44.7,16741],[44.7,16813],[44.7,16885],[44.7,16962],[44.7,17039],[44.7,17115],[44.7,17188],[44.5,17262],[43.8,17339],[42.6,17417],[40.1,17495],[37,17575],[34.9,17646],[33.4,17723],[32.4,17799],[31.8,17871],[30.9,17945],[29.7,18020],[29,18095],[27.7,18169],[26.4,18247],[25.4,18322],[25.1,18399],[25,18472],[25,18547],[24.9,18622],[23.9,18698],[22.1,18772],[21.1,18850],[21,18925],[21,18999],[21,19074],[21,19148],[21,19224],[21,19301],[21,19376],[21,19451],[21,19524],[21,19598],[21,19671],[21,19743],[21,19815],[20.9,19888],[20.7,19968],[20.7,20042],[20.6,20116],[20.4,20191],[20.3,20264],[20.2,20338],[20,20414],[19.7,20487],[19.5,20560],[19.5,20632],[19.5,20707],[19.5,20778],[19.5,20850],[19.4,20923],[18.6,21000],[18,21073],[17.8,21147],[17.3,21220],[16.8,21296],[16.1,21371],[15.9,21445],[15.9,21518],[15.9,21593],[15.9,21670],[15.9,21742],[15.9,21816],[17.7,21893],[23.8,21966],[26.8,22042],[27.5,22117],[28.2,22193],[29.4,22270],[31.5,22345],[35.1,22421],[36.8,22495],[37.7,22569],[37.7,22644],[37.7,22716],[37.7,22791],[37.7,22866],[37.7,22940],[37.7,23012],[37.7,23086],[37.7,23162],[37.6,23234],[37.6,23306],[37.6,23381],[37.4,23457],[37.3,23530],[37.1,23601],[37,23675],[36.9,23747],[36.9,23819],[36.9,23893],[36.9,23968],[37.1,24043],[37.9,24119],[39.7,24193],[40.5,24270],[40.5,24347],[40.5,24421],[40.5,24499],[40.5,24573],[40.5,24648],[40.5,24721],[40.5,24797],[40.5,24870],[40.5,24944],[40.5,25021],[40.5,25097],[40.5,25171],[40.5,25244],[40.6,25317],[43.9,25395],[49.3,25472],[52.9,25549],[53.6,25625],[53.6,25699],[53.6,25772],[53.6,25847],[53.6,25917],[53.6,25994],[53.6,26065],[53.6,26137],[53.5,26211],[53.5,26282],[53.4,26357],[53.2,26430],[53,26503],[52.5,26577],[51.4,26653],[50.1,26728],[48.5,26804],[46.7,26883],[45.6,26958],[45.3,27033],[45.3,27108],[45.3,27181],[45.3,27257],[45.3,27332],[45.3,27407],[45.3,27480],[45.9,27550],[47.8,27624],[48.6,27699],[49.3,27776],[49.8,27854],[50.4,27930],[50.9,28002],[51.7,28075],[51.8,28150],[51.8,28223],[51.8,28298],[51.8,28375],[51.8,28451],[51.8,28524],[51.8,28598],[51.8,28672],[51,28749],[49.2,28824],[47.4,28898],[46.8,28972],[46.7,29049],[46.7,29125],[46.7,29199],[46.7,29273],[48,29347],[50.2,29425],[50.8,29501],[50.8,29576],[50.8,29650],[50.9,29723],[50.9,29798],[50.9,29872],[50.9,29945]]",1,0,594.5548,594.5562,,,[],,,,594.5562,All the time,100,594.5596,,,[],,0,0,0,0,1,audio/Narrative13Situation2.wav,audio/Narrative13Situation2.wav,audio/Narrative13Situation2.wav,audio/Narrative13Situation2.wav,2,2,2,2,,,,,502.0278,562.0163,,,,,,,,,,,,,,,,,,,,,,,,,,,,,,,
,,,,,,6307bd3bb93e804d22332b3e,2024-05-13_10h32.08.518,group3.1-3.2-social-tom,2023.2.2,Win32,14.38848921,65c5074098b851296ff0b7ed,6642328924a53585686eba52,,,,,,,,,,,,,,,,,,,,,,,,,,,,,594.56,2,audio/Narrative6Situation1.wav,596.6034,,596.6036,623.3589,"[[47.3,73],[47.1,150],[47,224],[46.9,296],[46.8,370],[46.7,445],[46.6,521],[46.6,599],[46.5,672],[46.4,747],[46.3,822],[46.1,896],[46.1,973],[46.1,1046],[46.1,1122],[46.1,1197],[46.1,1270],[46.1,1344],[46.1,1418],[45.8,1494],[45.2,1570],[44.7,1645],[44.5,1724],[44.5,1801],[44.5,1877],[44.5,1954],[44.4,2033],[44.3,2106],[44.2,2183],[44,2257],[43.9,2333],[43.9,2413],[43.6,2484],[43.6,2559],[43.6,2633],[43.5,2708],[43.4,2785],[43.3,2860],[43.2,2932],[43.2,3003],[43.2,3079],[43.2,3153],[43.2,3227],[43.2,3300],[43.8,3374],[45.1,3451],[46.7,3524],[48.3,3595],[50.2,3668],[51.9,3740],[52.7,3812],[52.9,3885],[52.9,3960],[53.1,4032],[53.9,4106],[54.8,4180],[55.4,4253],[55.9,4329],[56,4407],[56.4,4483],[56.6,4556],[56.6,4627],[56.6,4704],[56.6,4776],[56.6,4847],[56.6,4921],[56.6,4994],[56.6,5068],[56.6,5144],[56.8,5220],[57.2,5292],[57.5,5367],[57.7,5442],[57.9,5521],[57.9,5595],[57.9,5669],[57.9,5742],[57.9,5815],[57.9,5887],[57.9,5962],[57.9,6036],[57.9,6109],[57.9,6183],[57.9,6254],[57.9,6329],[59,6404],[62.5,6481],[65.6,6555],[67.4,6630],[68.4,6709],[69.6,6789],[71.5,6866],[74.2,6946],[76.1,7020],[77.7,7096],[78.4,7172],[78.9,7246],[79.5,7320],[80.1,7401],[80.6,7477],[81.5,7551],[81.7,7623],[82.1,7697],[82.6,7769],[82.8,7840],[83,7916],[83.1,7990],[83.1,8062],[83.1,8137],[83.1,8213],[83.1,8286],[83.1,8358],[83.1,8436],[83.1,8509],[83.1,8584],[83.1,8657],[83.1,8732],[83.1,8804],[83.1,8876],[83.1,8952],[83,9026],[82.9,9100],[82.7,9172],[82.6,9247],[82.3,9322],[81.6,9398],[81,9474],[80.7,9549],[80.5,9625],[80.1,9699],[80,9772],[80,9844],[79.8,9915],[79.6,9987],[79.5,10063],[79.5,10137],[79.3,10213],[79.3,10288],[79.3,10366],[79.1,10443],[78.8,10516],[78.2,10591],[77.5,10664],[76.7,10740],[75.9,10814],[75.1,10891],[74.4,10966],[73.9,11042],[73.5,11117],[73.1,11190],[72.6,11265],[72.2,11344],[71.7,11422],[71.4,11496],[71.1,11572],[70.9,11646],[70.8,11720],[70.7,11794],[70.7,11865],[70.7,11938],[70.6,12010],[70.5,12085],[70.4,12165],[70.4,12238],[70.4,12313],[70.3,12390],[70.2,12470],[70.1,12548],[70.1,12621],[70.1,12696],[70.7,12767],[72.5,12844],[74.3,12918],[75.9,12991],[76.8,13065],[77.5,13141],[78.2,13214],[78.8,13289],[79.4,13362],[80.2,13437],[80.4,13513],[80.5,13584],[80.5,13656],[80.5,13729],[80.6,13802],[80.8,13874],[80.8,13947],[80.8,14020],[80.8,14092],[80.8,14165],[80.8,14241],[80.8,14315],[80.8,14388],[80.8,14463],[80.8,14537],[80.8,14608],[80.8,14684],[80.8,14757],[80.7,14833],[80.6,14909],[80.4,14981],[80.4,15056],[80.4,15129],[80.4,15205],[80.4,15280],[80.4,15355],[80.4,15430],[80.4,15502],[80.4,15574],[80.4,15645],[80.4,15717],[80.4,15793],[80.4,15866],[80.4,15938],[80.4,16011],[80.4,16083],[80.4,16157],[80.5,16229],[80.8,16306],[81,16382],[81.3,16459],[81.6,16535],[82,16610],[82.5,16684],[82.9,16755],[83.8,16828],[84.7,16902],[84.9,16975],[84.9,17052],[84.9,17130],[84.9,17206],[84.9,17282],[84.9,17358],[84.9,17435],[84.9,17509],[84.9,17582],[84.9,17656],[84.9,17731],[84.6,17806],[84.5,17880],[84.2,17952],[83.4,18029],[82,18103],[81.6,18179],[81.6,18255],[81.5,18329],[81.5,18404],[81.5,18476],[81.5,18550],[80.9,18622],[79.3,18694],[77,18771],[75.1,18846],[74.1,18921],[73.3,18993],[73,19068],[72.1,19143],[71.1,19216],[70.6,19289],[70.4,19363],[70.4,19437],[70.3,19510],[70.3,19583],[70.3,19656],[70.3,19728],[70.3,19801],[70.3,19874],[70.3,19946],[70.3,20017],[71.7,20093],[74.1,20168],[75,20241],[75.7,20314],[76.6,20392],[78.2,20466],[79.4,20540],[81.4,20616],[82.9,20689],[83.5,20765],[84.2,20838],[84.7,20916],[85.2,20990],[85.5,21065],[85.6,21137],[85.6,21210],[85.6,21283],[85.6,21355],[85.6,21433],[85.6,21506],[85.6,21580],[85.6,21656],[85.6,21732],[85.6,21806],[85.6,21879],[85.6,21952],[85.8,22026],[86.4,22101],[86.6,22176],[86.6,22251],[86.6,22326],[86.6,22399],[86.6,22475],[86.6,22546],[86.6,22621],[86.6,22695],[86.6,22772],[86.6,22846],[86.6,22920],[86.6,22993],[86.6,23066],[86.6,23137],[86.6,23212],[86.6,23288],[86.6,23363],[86.6,23438],[86.7,23511],[87,23584],[87.1,23655],[87.4,23729],[87.9,23804],[88.1,23874],[88.5,23948],[88.9,24022],[88.9,24094],[88.9,24166],[88.9,24238],[88.9,24313],[88.9,24389],[88.9,24467],[88.9,24540],[88.9,24614],[88.9,24688],[88.9,24761],[88.9,24836],[88.9,24909],[88.9,24980],[88.9,25053],[88.9,25129],[88.5,25204],[88.4,25278],[88.4,25356],[88.3,25429],[88.3,25503],[88.3,25572],[88.3,25646],[88.3,25721],[88.3,25791],[88.3,25863],[88.3,25938],[88.3,26012],[88.3,26085],[88.3,26159],[88.2,26234],[88.2,26308],[88.2,26382],[88.2,26456],[88.2,26530],[88.2,26604],[88.2,26678],[88,26754]]",1,0,623.359,639.3455,78.64583333,1.4535,"[{""rating"":78.64583333333333,""responseTime"":1.4534999999999627}]",space,15.2429,,639.3456,Not at all,0,639.3541,,,[],,0,1,1,1,1,audio/Narrative7Situation1.wav,audio/Narrative8Situation1.wav,audio/Narrative5Situation1.wav,audio/Narrative6Situation1.wav,2,5,5,2,,,,,,,,,,,,,,,,,,,,,,,,,,,,,,,,,,,,,
,,,,,,6307bd3bb93e804d22332b3e,2024-05-13_10h32.08.518,group3.1-3.2-social-tom,2023.2.2,Win32,14.38848921,65c5074098b851296ff0b7ed,6642328924a53585686eba52,,,,,,,,,,,,,,,,,,,,,,,,,,,,,639.3543,2,audio/Narrative6Situation2.wav,642.3797,,642.3797,671.0658,"[[999,0],[999,86],[999,169],[999,259],[999,345],[999,430],[999,513],[999,599],[999,684],[999,771],[999,857],[999,941],[999,1034],[999,1118],[999,1203],[999,1292],[999,1383],[999,1468],[999,1554],[999,1646],[999,1730],[999,1816],[999,1900],[999,1980],[999,2064],[999,2152],[999,2240],[62.1,2323],[62.4,2408],[65.6,2496],[68,2584],[68.6,2671],[69.1,2758],[69,2844],[68.5,2929],[67.5,3015],[66,3102],[65.6,3185],[65.4,3270],[65.5,3355],[68.6,3442],[70.9,3529],[71.1,3614],[71.1,3703],[71.3,3789],[71.5,3870],[71.6,3956],[71.6,4040],[71.6,4127],[71.6,4212],[71.7,4303],[71.7,4390],[71.7,4475],[71.7,4560],[71.7,4647],[72.4,4733],[72.9,4817],[73.2,4898],[74.6,4984],[77.2,5071],[79.3,5159],[80.6,5244],[80.7,5329],[80.7,5416],[80.7,5500],[80.8,5588],[80.8,5673],[80.9,5758],[81.4,5842],[81.7,5926],[81.7,6010],[82,6095],[82.4,6179],[82.9,6263],[83.2,6349],[83.5,6436],[84,6518],[84.6,6606],[85,6694],[85.2,6778],[85.3,6866],[85.3,6950],[85.3,7035],[85.3,7119],[85.3,7202],[85.3,7286],[85.3,7370],[85.4,7457],[85.4,7542],[85.4,7627],[85.4,7715],[85.4,7803],[85.4,7889],[85.4,7975],[85.4,8056],[84.2,8141],[80.5,8230],[78.6,8314],[77.1,8400],[75.5,8486],[73.5,8572],[69.8,8658],[67.5,8743],[65.9,8828],[65.2,8909],[64.8,8992],[64.8,9082],[64.8,9170],[64.8,9257],[64.8,9339],[64.6,9423],[64.3,9518],[64.2,9603],[64.1,9691],[64.1,9774],[63.8,9859],[63.2,9941],[62.9,10025],[62.3,10114],[61.4,10197],[59.8,10283],[59,10370],[58.3,10457],[58.2,10546],[58.2,10635],[57.8,10722],[56.9,10808],[55.2,10895],[53,10980],[50.5,11067],[49.8,11153],[49.7,11240],[49.7,11325],[49.6,11414],[49.2,11503],[48.9,11590],[48.3,11678],[47.9,11764],[47.7,11849],[47.2,11937],[46.5,12020],[46.1,12105],[45.6,12193],[45.4,12278],[45.4,12363],[45.4,12447],[45.4,12533],[45.4,12618],[45.4,12704],[45.4,12790],[45.4,12875],[45.4,12962],[45.4,13047],[45.4,13132],[45.4,13219],[45.4,13309],[45.4,13394],[45.4,13481],[45.4,13568],[45.4,13653],[45.1,13735],[45,13822],[45,13906],[45,13992],[45,14077],[45,14162],[45,14245],[45,14336],[45,14422],[45,14508],[45,14597],[44.9,14684],[44.7,14766],[44.7,14851],[44.7,14936],[44.7,15019],[44.7,15106],[44.6,15190],[44.6,15276],[44.3,15359],[44.3,15447],[44.3,15531],[44.3,15617],[44.3,15703],[44.3,15789],[43.9,15874],[43.4,15969],[43.4,16055],[43.2,16140],[42.8,16233],[42.3,16326],[42,16416],[41.5,16507],[41.3,16595],[41.1,16690],[41,16777],[40.8,16865],[40.6,16954],[40.5,17039],[40.5,17124],[40.2,17213],[40,17300],[40,17390],[40,17480],[40,17568],[40,17653],[40,17739],[40,17823],[40,17906],[39.6,17994],[39.6,18080],[39.6,18163],[39.4,18252],[39.3,18338],[39.2,18424],[39.1,18512],[39,18598],[38.9,18683],[38.8,18770],[38.6,18855],[38.6,18944],[38.5,19027],[38.5,19113],[38.5,19202],[38.5,19286],[38.5,19370],[38.4,19456],[38.4,19543],[38.4,19632],[38.4,19717],[38.4,19805],[38.4,19888],[38.4,19971],[38.4,20059],[38.4,20144],[38.4,20226],[38.4,20315],[38.4,20401],[38.4,20488],[38.4,20574],[38.4,20663],[38.4,20748],[38.4,20837],[38.4,20924],[38.4,21007],[38.4,21096],[38.4,21183],[38.4,21272],[38.4,21363],[38.4,21452],[38.4,21541],[38.4,21635],[38.4,21723],[38.3,21809],[38.3,21900],[38.3,21985],[38.3,22070],[38.2,22158],[38.1,22251],[38,22339],[37.9,22425],[37.9,22509],[37.9,22596],[37.9,22682],[37.9,22767],[37.9,22850],[37.9,22930],[37.9,23013],[37.9,23096],[37.9,23181],[37.9,23269],[37.9,23356],[37.7,23440],[37.5,23528],[37.3,23617],[36.8,23706],[36.4,23793],[36.4,23878],[36.1,23965],[36.1,24053],[36.1,24135],[36.1,24220],[36,24308],[36,24393],[35.9,24477],[35.8,24564],[35.8,24654],[35.8,24742],[35.8,24829],[35.8,24914],[35.8,24998],[35.8,25089],[35.8,25173],[35.8,25260],[35.8,25347],[35.8,25434],[35.8,25515],[35.8,25602],[35.8,25687],[35.8,25772],[35.8,25858],[35.8,25941],[35.8,26026],[35.8,26105],[35.8,26187],[35.8,26273],[35.8,26360],[35.8,26451],[35.8,26537],[35.8,26627],[35.8,26718],[35.8,26803],[35.8,26890],[35.8,26974],[35.8,27056],[35.8,27141],[35.8,27229],[35.8,27310],[35.8,27397],[35.8,27485],[35.8,27571],[35.8,27658],[35.8,27744],[35.8,27828],[35.8,27914],[35.8,28000],[35.8,28084],[35.8,28168],[35.8,28255],[35.8,28338],[35.8,28421],[35.8,28508],[35.8,28599],[35.8,28685]]",1,0,671.0659,676.9089,48.64583333,2.5107,"[{""rating"":48.645833333333336,""responseTime"":2.510699999995495}]",space,5.0968,,676.909,Half the time,50,676.915,,,[],,0,2,2,2,1,audio/Narrative7Situation2.wav,audio/Narrative8Situation2.wav,audio/Narrative5Situation2.wav,audio/Narrative6Situation2.wav,3,3,3,3,,,,,,,,,,,,,,,,,,,,,,,,,,,,,,,,,,,,,
,,,,,,6307bd3bb93e804d22332b3e,2024-05-13_10h32.08.518,group3.1-3.2-social-tom,2023.2.2,Win32,14.38848921,65c5074098b851296ff0b7ed,6642328924a53585686eba52,,,,,,,,,,,,,,,,,,,,,,,,,,,,,676.9152,2,audio/Narrative6Situation3.wav,681.9341,,681.9343,694.7497,"[[51.1,5012],[57.4,5106],[57.4,5194],[57.4,5281],[57.4,5366],[57.4,5452],[56.9,5536],[56,5624],[54.6,5710],[54.6,5798],[54.8,5886],[55.8,5967],[56.7,6057],[58.1,6143],[59.5,6230],[59.8,6315],[59.8,6401],[59.8,6483],[59.8,6570],[59.8,6653],[59.8,6739],[59.8,6826],[59.8,6914],[59.8,7000],[59.8,7092],[59.8,7177],[59.8,7261],[59.8,7347],[59.8,7433],[59.8,7518],[59.8,7606],[59.8,7693],[59.8,7781],[59.8,7867],[59.8,7956],[59.8,8041],[59.8,8131],[59.7,8218],[59.7,8302],[59.7,8387],[59.7,8476],[59.7,8562],[59.7,8643],[59.7,8732],[59.7,8817],[59.7,8900],[59.7,8988],[59.7,9074],[59.6,9160],[59.6,9250],[59.6,9335],[59.6,9417],[59.6,9503],[59.6,9585],[59.6,9670],[59.6,9757],[59.6,9845],[59.6,9931],[59.6,10017],[59.6,10100],[59.6,10183],[59.6,10266],[59.6,10351],[59.6,10438],[59.6,10520],[59.6,10605],[59.6,10687],[59.6,10768],[59.6,10852],[59.6,10933],[59.6,11017],[59.6,11102],[59.6,11185],[59.6,11269],[59.6,11353],[59.6,11439],[59.6,11524],[59.6,11611],[59.6,11694],[59.6,11782],[59.9,11872],[60.9,11961],[61.6,12048],[61.9,12135],[63.2,12220],[63.9,12303],[64.5,12387],[64.6,12475],[64.6,12561],[64.6,12646],[64.6,12732],[64.6,12815]]",1,0,694.7499,828.5637,56.14583333,1.3933,"[{""rating"":56.14583333333333,""responseTime"":1.3933000000045013}]",space,133.0757,,828.5638,Not at all,0,828.5717,,,[],,0,3,3,3,1,audio/Narrative7Situation3.wav,audio/Narrative8Situation3.wav,audio/Narrative5Situation3.wav,audio/Narrative6Situation3.wav,8,4,3,5,,,,,,,,,,,,,,,,,,,,,,,,,,,,,,,,,,,,,
,,,,,,6307bd3bb93e804d22332b3e,2024-05-13_10h32.08.518,group3.1-3.2-social-tom,2023.2.2,Win32,14.38848921,65c5074098b851296ff0b7ed,6642328924a53585686eba52,,,,,,,,,,,,,,,,,,,,,,,,,,,,,828.5719,2,audio/Narrative6Situation4.wav,830.6211,,830.6212,843.4501,"[[999,0],[999,89],[999,177],[999,263],[999,357],[999,445],[999,538],[999,629],[999,719],[999,807],[999,896],[999,987],[999,1075],[999,1164],[999,1253],[999,1340],[999,1428],[999,1517],[999,1609],[999,1699],[999,1785],[52.8,1871],[52.7,1957],[52.8,2042],[52.8,2127],[52.8,2212],[52.8,2301],[52.8,2388],[52.8,2469],[52.6,2552],[52,2639],[51.8,2721],[51.6,2804],[51.4,2888],[50.7,2971],[50.7,3057],[52,3144],[53.9,3230],[56.8,3317],[58.3,3403],[59.8,3493],[60.5,3576],[62.3,3661],[66.1,3747],[66.3,3833],[65.7,3919],[65.1,4007],[62.5,4094],[59.3,4177],[57.8,4262],[57.8,4349],[57.8,4436],[57.8,4521],[57.8,4605],[57.8,4692],[57.8,4778],[57.8,4862],[57.8,4947],[57.8,5032],[57.8,5116],[57.8,5202],[57.8,5288],[57.8,5373],[58.1,5460],[58.3,5547],[58.4,5639],[58.5,5730],[58.6,5818],[58.8,5904],[59,5995],[59.3,6082],[59.7,6175],[59.9,6263],[60.2,6346],[60.3,6431],[60.4,6516],[60.4,6601],[60.4,6687],[60.4,6770],[60.4,6854],[60.4,6941],[60.4,7027],[60.4,7110],[60.4,7198],[60.4,7281],[60.4,7367],[60.4,7452],[60.5,7537],[60.7,7622],[61.4,7711],[61.5,7798],[61.5,7882],[61.5,7969],[61.5,8057],[61.5,8144],[61.5,8231],[61.5,8319],[61.5,8405],[61.5,8492],[61.5,8578],[61.5,8664],[61.5,8747],[61.5,8835],[61.5,8919],[61.5,9003],[61.7,9090],[61.7,9175],[61.8,9258],[61.8,9342],[61.8,9426],[61.8,9511],[62.2,9597],[63.2,9684],[65.1,9768],[66.5,9854],[66.7,9942],[67.3,10027],[67.7,10112],[67.9,10195],[68.1,10278],[68.4,10363],[69.2,10450],[70,10538],[71,10619],[71.9,10702],[72,10783],[72.1,10870],[72.1,10953],[72.1,11035],[72.1,11122],[72.1,11205],[72.1,11293],[72.1,11379],[72.1,11463],[72.1,11550],[71.9,11635],[71.8,11720],[71.7,11804],[71.6,11892],[71.5,11978],[71.4,12065],[71.3,12151],[71.3,12236],[71.3,12319],[71.3,12404],[71.3,12486],[71.3,12571],[71.3,12657],[71.3,12744],[71.1,12828]]",1,0,843.4502,845.6601,68.02083333,0.7383,"[{""rating"":68.02083333333333,""responseTime"":0.7382999999970252}]",space,1.4805,,845.6601,Half the time,50,845.6623,,,[],,0,4,4,4,1,audio/Narrative7Situation4.wav,audio/Narrative8Situation4.wav,audio/Narrative5Situation4.wav,audio/Narrative6Situation4.wav,3,3,1,2,,,,,,,,,,,,,,,,,,,,,,,,,,,,,,,,,,,,,
,,,,,,6307bd3bb93e804d22332b3e,2024-05-13_10h32.08.518,group3.1-3.2-social-tom,2023.2.2,Win32,14.38848921,65c5074098b851296ff0b7ed,6642328924a53585686eba52,,,,,,,,,,,,,,,,,,,,,,,,,,,,,845.6625,2,audio/Narrative6Situation5.wav,847.6911,,847.6911,855.8533,"[[61.9,84],[61.7,170],[61.1,259],[60.4,346],[59.5,435],[59.4,522],[59.4,605],[59.4,689],[59.4,775],[59.4,861],[59.4,948],[59.4,1038],[59.4,1124],[59.4,1210],[58.9,1307],[58.5,1395],[58.3,1482],[57.8,1569],[57.6,1655],[57.5,1740],[57.5,1827],[57.3,1911],[57.2,2000],[57.1,2088],[57.1,2174],[57.1,2258],[57,2343],[56.9,2432],[56.9,2516],[56.8,2604],[56.8,2692],[56.8,2779],[56.7,2867],[56.7,2951],[56.7,3033],[56.7,3118],[56.7,3204],[56.7,3288],[56.7,3378],[56.7,3462],[56.7,3553],[56.7,3641],[56.7,3727],[56.7,3810],[56.7,3898],[56.7,3985],[56.7,4068],[56.7,4158],[56.7,4243],[56.7,4329],[56.7,4418],[56.7,4502],[56.8,4585],[56.9,4673],[57.1,4757],[57.3,4844],[57.4,4927],[57.5,5013],[57.7,5098],[57.8,5183],[57.9,5279],[58,5368],[58.1,5454],[58.2,5541],[58.4,5630],[58.9,5715],[59.4,5803],[59.5,5888],[59.8,5978],[60.1,6071],[60.2,6157],[60.4,6247],[60.8,6338],[60.9,6427],[60.9,6512],[60.9,6599],[60.9,6685],[60.9,6774],[60.9,6860],[60.9,6946],[60.9,7034],[60.9,7122],[60.9,7207],[60.9,7296],[60.9,7383],[60.9,7467],[60.9,7555],[60.9,7643],[60.9,7728],[60.9,7813],[60.9,7900],[60.9,7985],[60.9,8073],[60.9,8161]]",1,0,855.8534,889.6527,59.79166667,1.6606,"[{""rating"":59.791666666666664,""responseTime"":1.6606000000014092}]",space,33.0535,,889.6529,Half the time,50,889.6605,,,[],,0,5,5,5,1,audio/Narrative7Situation5.wav,audio/Narrative8Situation5.wav,audio/Narrative5Situation5.wav,audio/Narrative6Situation5.wav,5,2,5,2,,,,,,,,,,,,,,,,,,,,,,,,,,,,,,,,,,,,,
,,,,,,6307bd3bb93e804d22332b3e,2024-05-13_10h32.08.518,group3.1-3.2-social-tom,2023.2.2,Win32,14.38848921,65c5074098b851296ff0b7ed,6642328924a53585686eba52,,,,,,,,,,,,,,,,,,,,,,,,,,,,,889.6607,2,audio/Narrative6Situation6.wav,891.6872,,891.6873,903.0161,"[[999,0],[999,92],[999,183],[999,278],[999,367],[999,456],[999,544],[999,635],[999,724],[999,817],[999,904],[999,990],[999,1079],[999,1167],[999,1258],[999,1351],[999,1439],[999,1527],[999,1617],[999,1708],[999,1801],[999,1900],[999,1993],[999,2084],[999,2174],[999,2268],[999,2475],[999,2578],[999,2679],[999,2776],[999,2870],[62.3,2964],[60.3,3063],[60.5,3153],[61.1,3245],[61.7,3332],[62.2,3422],[63.5,3516],[65.2,3608],[66.4,3700],[67,3791],[67.8,3882],[68,3973],[68.2,4083],[68.2,4177],[68.4,4271],[68.6,4362],[68.6,4458],[68.6,4546],[68.6,4639],[68.6,4727],[68.8,4817],[68.8,4905],[68.8,4992],[68.8,5081],[68.8,5175],[68.8,5262],[68.8,5350],[68.8,5441],[68.8,5528],[68.8,5617],[68.8,5709],[69,5800],[69.1,5890],[69.1,5980],[69.1,6068],[69.1,6155],[69.1,6247],[69.1,6337],[69.9,6426],[70.4,6516],[70.7,6604],[70.7,6698],[70.7,6789],[70.7,6885],[70.7,6974],[70.9,7065],[71,7157],[71,7247],[71,7336],[71,7423],[71,7510],[71,7599],[71,7687],[71,7775],[71.1,7864],[71.1,7956],[71.1,8048],[71.1,8138],[71.1,8228],[71.3,8320],[71.3,8414],[71.3,8505],[70.9,8593],[70.5,8686],[70,8772],[69.2,8861],[68,8951],[67.1,9043],[66.5,9131],[66.5,9218],[66.5,9301],[66.5,9390],[66.5,9478],[65.5,9565],[64.5,9651],[63.5,9740],[63.4,9828],[63.4,9915],[63.4,10006],[63.4,10094],[63.4,10178],[63.4,10265],[63.4,10351],[63.8,10442],[63.8,10530],[63.8,10619],[63.8,10709],[63.8,10802],[63.8,10887],[63.8,10975],[63.8,11067],[63.8,11155],[63.8,11242],[63.8,11328]]",1,0,903.0162,905.1929,66.35416667,1.6083,"[{""rating"":66.35416666666667,""responseTime"":1.6082999999970298}]",space,1.4388,,905.193,Half the time,50,905.1945,,,[],,0,6,6,6,1,audio/Narrative7Situation6.wav,audio/Narrative8Situation6.wav,audio/Narrative5Situation6.wav,audio/Narrative6Situation6.wav,3,2,3,2,,,,,,,,,,,,,,,,,,,,,,,,,,,,,,,,,,,,,
,,,,,,6307bd3bb93e804d22332b3e,2024-05-13_10h32.08.518,group3.1-3.2-social-tom,2023.2.2,Win32,14.38848921,65c5074098b851296ff0b7ed,6642328924a53585686eba52,,,,,,,,,,,,,,,,,,,,,,,,,,,,,905.1946,2,audio/Narrative6Situation7.wav,910.2154,,910.2155,935.3354,"[[62.9,930],[63.4,1020],[63.5,1111],[63.5,1203],[63.5,1298],[64,1399],[65.2,1500],[66.8,1600],[67.7,1693],[68.3,1789],[68.5,1880],[68.8,1978],[68.9,2073],[69.2,2163],[69.8,2256],[69.8,2354],[69.8,2443],[69.2,2533],[66.5,2629],[62.7,2722],[60.7,2823],[60.4,2922],[60,3013],[58.6,3110],[56.8,3203],[55.3,3294],[54.4,3394],[53.9,3487],[53.4,3581],[52.6,3676],[51.8,3769],[51.4,3864],[51,3957],[50.7,4054],[50.4,4150],[49.5,4244],[47.2,4336],[46.4,4431],[46.4,4524],[46.4,4615],[46.1,4709],[45.5,4805],[45.4,4901],[45,4996],[44.8,5090],[44.8,5180],[44.7,5272],[44.7,5366],[44.7,5461],[44.7,5561],[44.7,5653],[44.7,5744],[44.7,5837],[44.7,5932],[44.7,6019],[44.7,6110],[44.7,6202],[44.7,6296],[44.7,6386],[44.7,6482],[44.7,6573],[43.6,6664],[43.3,6760],[43.3,6853],[43.3,6941],[42.6,7037],[41.7,7131],[41.4,7226],[41.3,7320],[41.1,7413],[41.1,7505],[41,7605],[41,7697],[41,7792],[41,7888],[40.9,7980],[40.6,8073],[40.3,8167],[40.2,8257],[40.1,8343],[40,8436],[39.7,8526],[39.5,8617],[39.5,8710],[39.5,8801],[39.5,8887],[39.5,8977],[39.5,9067],[39.4,9153],[39.1,9242],[39,9329],[39,9420],[39,9508],[42.2,9598],[53.3,9696],[56.6,9786],[57.1,9871],[57.1,9958],[57.1,10046],[57.1,10134],[57.1,10225],[57.1,10313],[57.1,10402],[57.1,10489],[57.1,10578],[56.5,10668],[56.1,10761],[55.9,10851],[55.9,10937],[55.7,11026],[55.7,11113],[55.7,11200],[55.7,11287],[55.7,11373],[55.7,11459],[55.7,11550],[55.7,11638],[55.7,11726],[55.8,11817],[56,11904],[56.1,11994],[56.4,12083],[56.7,12172],[56.9,12263],[57,12353],[57.2,12443],[57.2,12533],[57.2,12623],[57.2,12714],[57.2,12804],[57.2,12890],[57.3,12978],[57.5,13068],[57.7,13155],[57.9,13247],[58,13335],[58.1,13425],[58.3,13516],[58.9,13608],[59.5,13697],[59.9,13788],[60.1,13880],[60.2,13970],[60.4,14057],[60.8,14145],[61.3,14234],[61.4,14325],[61.5,14417],[61.6,14503],[61.7,14594],[61.9,14683],[62.3,14774],[62.8,14864],[63.1,14953],[63.4,15043],[63.6,15134],[64.1,15225],[64.2,15313],[64.2,15407],[64.2,15495],[64.2,15583],[64.2,15676],[64.3,15764],[64.4,15850],[64.5,15941],[64.5,16029],[64.5,16117],[64.6,16208],[64.8,16296],[65,16383],[65.4,16473],[65.7,16564],[65.9,16652],[66.1,16744],[66.5,16831],[66.5,16918],[66.5,17009],[66.4,17097],[66.4,17183],[66.5,17273],[66.5,17361],[66.5,17452],[66.5,17554],[66.6,17644],[66.6,17735],[66.8,17825],[66.9,17911],[67.2,18002],[67.3,18094],[67.3,18181],[67.3,18268],[67.3,18358],[67.3,18445],[67.3,18533],[67.3,18624],[67.3,18714],[67.3,18804],[67.3,18896],[67.3,18985],[67.3,19074],[67.3,19165],[67.3,19250],[67.3,19337],[67.2,19427],[67.2,19516],[67.2,19604],[67.1,19697],[67.1,19786],[67.1,19875],[67.1,19961],[67.1,20049],[67.1,20139],[67.1,20226],[67.1,20315],[67.1,20405],[67.1,20494],[67.1,20579],[67.1,20668],[67.1,20758],[67.1,20844],[67.1,20931],[67.1,21022],[67.1,21107],[67.1,21198],[67.1,21288],[67,21376],[67,21463],[67,21554],[66.9,21644],[66.8,21740],[66.8,21829],[66.8,21917],[66.8,22006],[66.8,22095],[66.8,22184],[66.7,22271],[66.7,22360],[66.7,22444],[66.7,22531],[66.7,22623],[66.6,22709],[66.6,22800],[66.6,22890],[66.6,22980],[66.5,23067],[66.5,23161],[66.5,23249],[66.5,23338],[66.4,23432],[66.1,23526],[66.1,23615],[66.1,23708],[66.1,23799],[66.1,23884],[66.1,23973],[66.1,24062],[66.1,24149],[66.1,24236],[66.1,24325],[66.1,24412],[66.1,24502],[66.1,24590],[66.1,24679],[66.1,24770],[66.1,24856],[66.1,24945],[66.1,25034],[66.1,25119]]",1,0,935.3354,938.5591,62.70833333,1.8885,"[{""rating"":62.708333333333336,""responseTime"":1.8885000000000218}]",space,2.4764,,938.5591,Not at all,0,938.5614,,,[],,0,7,7,7,1,audio/Narrative7Situation7.wav,audio/Narrative8Situation7.wav,audio/Narrative5Situation7.wav,audio/Narrative6Situation7.wav,5,3,4,5,,,,,,,,,,,,,,,,,,,,,,,,,,,,,,,,,,,,,
,,,,,,6307bd3bb93e804d22332b3e,2024-05-13_10h32.08.518,group3.1-3.2-social-tom,2023.2.2,Win32,14.38848921,65c5074098b851296ff0b7ed,6642328924a53585686eba52,,,,,,,,,,,,,,,,,,,,,,,,,,,,,938.5615,2,audio/Narrative6Situation8.wav,943.5702,,943.5702,950.6732,"[[999,4],[999,95],[999,185],[999,272],[999,362],[999,455],[999,548],[999,633],[999,723],[999,816],[999,903],[999,989],[999,1076],[999,1165],[999,1253],[999,1345],[999,1435],[999,1528],[999,1618],[999,1705],[48.3,1792],[48.8,1882],[51.5,1968],[59.6,2058],[60.3,2145],[60.7,2235],[61.6,2322],[62.3,2414],[62.6,2505],[62.7,2591],[62.7,2680],[62.7,2765],[62.7,2851],[62.7,2938],[62.7,3026],[62.7,3111],[62.7,3201],[62.7,3292],[60.1,3381],[56.3,3468],[55,3558],[54.1,3648],[53.9,3733],[53.6,3820],[52.9,3907],[51.4,3995],[50.2,4083],[49.7,4169],[49.7,4255],[49.4,4346],[48.8,4429],[47.6,4513],[46.4,4599],[45.4,4687],[44.9,4775],[44.4,4863],[44.2,4949],[44,5035],[44,5124],[44,5213],[44,5302],[44,5395],[43.3,5484],[43,5573],[43,5661],[43,5752],[43,5840],[43,5927],[43,6012],[43,6104],[43,6192],[43,6277],[43,6361],[43,6453],[43,6536],[43,6630],[43,6740],[43,6833],[43,6926],[43,7015],[43,7102]]",1,0,950.6734,974.7026,54.27083333,1.4006,"[{""rating"":54.270833333333336,""responseTime"":1.400600000001532}]",space,23.3382,,974.7026,Half the time,50,974.7104,,,[],,0,8,8,8,1,audio/Narrative7Situation8.wav,audio/Narrative8Situation8.wav,audio/Narrative5Situation8.wav,audio/Narrative6Situation8.wav,2,3,3,5,,,,,,,,,,,,,,,,,,,,,,,,,,,,,,,,,,,,,
,,,,,,6307bd3bb93e804d22332b3e,2024-05-13_10h32.08.518,group3.1-3.2-social-tom,2023.2.2,Win32,14.38848921,65c5074098b851296ff0b7ed,6642328924a53585686eba52,,,,,,,,,,,,,,,,,,,,,,,,,,,,,974.7109,2,audio/Narrative6Situation9.wav,978.7283,,978.7283,988.9362,"[[999,0],[999,96],[999,187],[999,274],[999,362],[999,451],[999,539],[999,632],[50.3,719],[51.3,808],[52.7,898],[53.5,990],[54.2,1079],[54.5,1165],[54.8,1252],[56.4,1341],[57,1424],[57.3,1510],[57.7,1595],[58.2,1678],[58.6,1762],[59.4,1849],[60,1936],[60.5,2023],[61.3,2114],[62.1,2199],[62.5,2287],[62.7,2377],[62.7,2463],[62.9,2550],[62.9,2638],[62.9,2724],[62.9,2807],[62.9,2895],[62.9,2979],[62.9,3065],[62.8,3153],[62.3,3240],[61.1,3326],[58.9,3414],[58.4,3500],[58.1,3583],[57.8,3667],[57.8,3753],[57.8,3841],[57.8,3930],[57.8,4015],[57.8,4103],[57.4,4191],[55,4282],[53.5,4367],[53.5,4453],[53.5,4541],[53.5,4626],[53.5,4708],[53.5,4793],[53.4,4878],[53.4,4964],[53.4,5050],[53.4,5139],[53.4,5229],[54.3,5320],[55.9,5408],[59.2,5496],[61.6,5584],[62.8,5669],[63.8,5758],[64.5,5848],[65,5934],[65.8,6022],[66.3,6109],[66.4,6198],[66.6,6286],[66.6,6376],[66.6,6465],[66.6,6549],[66.6,6639],[66.6,6724],[66.6,6808],[66.7,6896],[66.7,6982],[66.7,7069],[66.7,7158],[66.7,7246],[66.7,7330],[66.7,7415],[66.7,7501],[66.7,7586],[66.7,7671],[66.7,7758],[66.7,7842],[66.7,7931],[66.7,8016],[66.7,8104],[66.6,8195],[66.6,8281],[66.6,8365],[66.5,8452],[66.5,8536],[66.5,8624],[66.5,8715],[66.5,8800],[66.5,8884],[66.5,8970],[66.5,9056],[66.6,9137],[66.6,9224],[66.7,9314],[66.7,9402],[66.7,9489],[66.7,9575],[66.7,9661],[66.7,9751],[66.7,9840],[66.7,9935],[66.7,10026],[66.8,10117],[66.9,10207]]",1,0,988.9364,991.4874,63.02083333,1.9831,"[{""rating"":63.020833333333336,""responseTime"":1.9830999999940104}]",space,1.8034,,991.4874,All the time,100,991.49,,,[],,0,9,9,9,1,audio/Narrative7Situation9.wav,audio/Narrative8Situation9.wav,audio/Narrative5Situation9.wav,audio/Narrative6Situation9.wav,2,3,3,4,,,,,,,,,,,,,,,,,,,,,,,,,,,,,,,,,,,,,
,,,,,,6307bd3bb93e804d22332b3e,2024-05-13_10h32.08.518,group3.1-3.2-social-tom,2023.2.2,Win32,14.38848921,65c5074098b851296ff0b7ed,6642328924a53585686eba52,,,,,,,,,,,,,,,,,,,,,,,,,,,,,991.4901,2,audio/Narrative5Situation1.wav,996.5003,,996.5003,1010.0441,"[[999,5],[999,95],[999,185],[999,274],[999,359],[999,448],[999,539],[999,626],[999,711],[999,795],[999,885],[999,976],[999,1068],[999,1163],[999,1250],[999,1337],[32.8,1423],[42.5,1514],[46.9,1601],[47.6,1689],[48.2,1775],[48.2,1857],[41.3,1945],[29,2036],[18.9,2124],[14.7,2217],[14.1,2307],[14.1,2394],[14.1,2485],[14.1,2570],[14.1,2655],[14.1,2742],[14.1,2829],[14.1,2915],[14.1,3001],[14.1,3089],[14.1,3175],[14.1,3263],[14.1,3350],[14.1,3433],[14.1,3519],[14.1,3604],[14.2,3688],[14.6,3775],[14.9,3860],[15.1,3945],[15.3,4030],[15.4,4120],[15.6,4206],[15.8,4296],[16,4381],[16.3,4464],[16.7,4553],[17.1,4640],[17.2,4722],[17.4,4809],[17.6,4895],[17.8,4981],[18,5067],[18.1,5155],[18.2,5241],[18.4,5326],[18.4,5411],[18.4,5497],[18.4,5583],[18.4,5670],[18.4,5754],[18.4,5840],[18.4,5926],[18.5,6009],[19,6094],[19.5,6183],[19.7,6268],[19.9,6354],[20,6442],[20,6528],[20,6615],[20,6704],[20,6790],[20,6877],[20,6962],[20,7043],[22,7131],[26.8,7224],[30,7318],[31.7,7409],[31.7,7498],[34.9,7586],[39,7674],[39.5,7763],[39.5,7848],[39.5,7934],[39.5,8024],[39.5,8110],[39.5,8198],[39.5,8287],[39.5,8372],[39.5,8458],[39.5,8544],[39.5,8629],[39.5,8713],[39.5,8796],[39.5,8882],[39.5,8969],[39.5,9053],[39.5,9139],[39.5,9225],[39.7,9315],[39.8,9400],[39.8,9488],[39.8,9575],[39.8,9663],[39.9,9746],[40,9832],[40.3,9918],[40.9,10002],[41.4,10091],[42,10178],[42.6,10266],[43,10355],[43.8,10442],[44.4,10528],[45.2,10613],[45.5,10698],[45.6,10785],[45.9,10867],[45.9,10954],[46,11037],[46.4,11122],[46.5,11209],[47,11298],[47.4,11387],[48.5,11476],[49.3,11559],[50.5,11642],[50.9,11729],[51,11814],[51,11900],[51,11983],[51,12066],[52.5,12154],[53.9,12241],[54.8,12332],[55.3,12421],[55.4,12514],[55.4,12603],[55.4,12685],[55.5,12770],[55.5,12855],[55.5,12939],[55.5,13027],[55.5,13116],[55.5,13200],[55.5,13285],[55.5,13370],[55.5,13458],[55.5,13543]]",1,0,1010.0443,1165.971,53.75,5.6968,"[{""rating"":53.75,""responseTime"":5.6968000000046}]",space,155.1882,,1165.9711,Not at all,0,1165.9735,,,[],,0,10,10,10,1,audio/Narrative8Situation1.wav,audio/Narrative7Situation1.wav,audio/Narrative6Situation1.wav,audio/Narrative5Situation1.wav,5,2,2,5,,,,,,,,,,,,,,,,,,,,,,,,,,,,,,,,,,,,,
,,,,,,6307bd3bb93e804d22332b3e,2024-05-13_10h32.08.518,group3.1-3.2-social-tom,2023.2.2,Win32,14.38848921,65c5074098b851296ff0b7ed,6642328924a53585686eba52,,,,,,,,,,,,,,,,,,,,,,,,,,,,,1165.9737,2,audio/Narrative5Situation2.wav,1168.9941,,1168.9941,1198.6679,"[[999,0],[999,101],[999,193],[999,279],[999,368],[999,454],[999,540],[999,627],[999,713],[51.9,798],[52.1,885],[52,975],[51.7,1064],[51.7,1154],[51.7,1240],[52.2,1324],[53.2,1412],[54.2,1497],[54.6,1582],[54.9,1670],[55.1,1756],[55.2,1844],[55.2,1930],[55.2,2016],[55.2,2100],[55.2,2188],[55.2,2273],[55.2,2360],[55.5,2448],[56.6,2536],[58.2,2636],[58.5,2733],[58.5,2819],[58.5,2909],[58.5,2995],[58.8,3080],[59,3165],[59,3250],[59,3336],[59,3425],[59,3508],[58.6,3593],[58,3675],[57.4,3760],[57.3,3845],[57.1,3929],[56.7,4016],[56.4,4107],[55.9,4191],[55.1,4275],[54.9,4361],[54.9,4443],[54.9,4528],[54.9,4614],[54.9,4704],[54.9,4794],[54.9,4877],[54.9,4964],[54.9,5054],[54.4,5142],[53.8,5226],[53.5,5315],[53.5,5400],[53.5,5484],[53.5,5571],[53.5,5654],[53.5,5739],[53.5,5829],[53.5,5914],[53.3,6003],[51.6,6090],[50,6180],[50,6264],[50,6349],[49.7,6433],[48.2,6517],[47.6,6603],[47.6,6686],[47.6,6769],[47.6,6854],[50.4,6945],[56.7,7028],[61.9,7113],[62.4,7194],[62.4,7278],[62.4,7361],[62.4,7445],[62.4,7530],[62.4,7617],[62.4,7703],[62.2,7788],[62.1,7869],[62.1,7958],[62.1,8045],[62,8129],[62,8216],[62,8300],[62,8385],[62,8469],[62,8552],[62,8640],[62,8727],[62,8807],[62,8891],[62,8979],[62,9063],[62.1,9147],[62.1,9238],[62.1,9320],[62.1,9403],[62.1,9492],[62.1,9576],[62.1,9660],[62.1,9747],[62.1,9836],[62.1,9923],[62.1,10009],[62.1,10095],[62.1,10181],[62.1,10267],[62.1,10354],[62.1,10438],[62.1,10523],[62.1,10606],[62.1,10690],[62.1,10773],[62.1,10857],[62.1,10943],[62.1,11027],[62.1,11112],[62.1,11194],[62.1,11282],[62.1,11365],[62.1,11454],[62,11538],[62,11620],[62,11703],[62,11789],[62,11872],[62,11957],[62,12046],[62,12133],[62,12217],[62,12300],[62,12385],[62,12469],[62,12551],[62,12635],[62,12721],[62,12807],[62,12888],[62,12973],[62,13059],[62,13144],[62,13229],[62,13314],[62,13398],[62,13483],[62,13569],[62,13653],[62,13740],[62,13827],[62,13914],[62,14000],[62,14085],[62,14169],[62,14257],[62,14342],[62,14426],[62,14513],[62,14598],[62,14685],[62,14769],[62,14857],[62,14943],[62,15032],[62,15117],[62,15201],[62,15285],[62,15369],[62,15456],[62,15543],[62,15627],[62.2,15711],[63.3,15803],[63.8,15889],[63.8,15975],[63.8,16065],[63.8,16154],[63.6,16240],[63.5,16328],[63.5,16412],[63.6,16498],[64.1,16584],[64.2,16669],[64.2,16757],[64.2,16844],[64.2,16928],[64.2,17014],[64.2,17100],[64.2,17187],[64.2,17273],[64.2,17359],[64.2,17445],[64.2,17530],[64.2,17614],[64.2,17699],[64.2,17785],[64.2,17867],[64.2,17951],[64.2,18037],[64.2,18122],[64.2,18211],[64.2,18295],[64.2,18377],[64.2,18464],[64.2,18546],[64.2,18630],[64.2,18716],[64.2,18803],[64.2,18886],[64.2,18969],[64.2,19057],[64.2,19140],[64.2,19224],[64.2,19309],[64.2,19393],[64.2,19480],[64.2,19562],[64.2,19646],[64.2,19732],[64.2,19816],[64.2,19900],[64.2,19989],[64.2,20085],[64.2,20169],[64.2,20253],[64.2,20337],[64.2,20421],[64.2,20503],[64.2,20587],[64.2,20671],[64.2,20758],[64.2,20845],[64.2,20932],[64.2,21020],[64.2,21105],[64.2,21186],[64.2,21268],[64.2,21354],[64.2,21439],[64.2,21524],[64.2,21612],[64.2,21697],[64.2,21782],[64.2,21867],[64.2,21953],[64.2,22041],[64.2,22128],[64.2,22214],[64.2,22302],[64.2,22388],[64.2,22475],[64.2,22557],[64.2,22642],[64.2,22729],[64.2,22817],[64.2,22902],[64.2,22992],[64.2,23080],[64.2,23163],[64.2,23247],[64.2,23330],[64.2,23414],[64.2,23502],[64.2,23586],[64.2,23671],[64.2,23754],[64.2,23838],[64.2,23926],[64.2,24018],[64.2,24106],[64.2,24192],[64.2,24278],[64.2,24364],[64.2,24448],[64.2,24535],[64.2,24621],[64.2,24713],[64.2,24803],[64.2,24891],[64.2,24979],[64.2,25069],[64.2,25156],[64.2,25240],[64.2,25327],[64.2,25410],[64.2,25500],[64.2,25587],[64.2,25672],[64.2,25755],[64.2,25843],[64.2,25930],[64.2,26020],[64.2,26109],[64.2,26192],[64.2,26279],[64.2,26382],[64.2,26467],[64.2,26552],[64.2,26639],[64.2,26724],[64.2,26812],[64.2,26899],[64.2,26988],[64.2,27077],[64.2,27165],[64.2,27247],[64.2,27336],[64.2,27425],[64.2,27514],[64.2,27601],[64.2,27698],[64.2,27788],[64.2,27881],[64.2,27975],[64.2,28063],[64.2,28151],[64.2,28240],[64.2,28327],[64.2,28413],[64.2,28500],[64.2,28585],[64.2,28669],[64.2,28756],[64.2,28843],[64.2,28930],[64.2,29016],[64.2,29106],[64.2,29193],[64.2,29280],[64.2,29370],[64.2,29469],[64.2,29572],[64.2,29673]]",1,0,1198.668,1201.3133,59.47916667,1.9877,"[{""rating"":59.47916666666666,""responseTime"":1.9877000000030876}]",space,1.8938,,1201.3133,Half the time,50,1201.3151,,,[],,0,11,11,11,1,audio/Narrative8Situation2.wav,audio/Narrative7Situation2.wav,audio/Narrative6Situation2.wav,audio/Narrative5Situation2.wav,3,3,3,3,,,,,,,,,,,,,,,,,,,,,,,,,,,,,,,,,,,,,
,,,,,,6307bd3bb93e804d22332b3e,2024-05-13_10h32.08.518,group3.1-3.2-social-tom,2023.2.2,Win32,14.38848921,65c5074098b851296ff0b7ed,6642328924a53585686eba52,,,,,,,,,,,,,,,,,,,,,,,,,,,,,1201.3153,2,audio/Narrative5Situation3.wav,1204.3797,,1204.3798,1218.4858,"[[58.8,4683],[58.6,4777],[59,4865],[62.4,4957],[62.9,5041],[61.1,5128],[57.3,5218],[55.5,5303],[55.2,5391],[54.4,5481],[52.3,5570],[47.8,5660],[42.7,5755],[42.4,6018],[42.7,6103],[43,6187],[43.1,6279],[42.9,6362],[42,6450],[40.3,6539],[37.4,6626],[35.8,6717],[35.4,6804],[35.4,6888],[34.6,6972],[35.4,7063],[35.4,7147],[35.4,7232],[35.4,7321],[35.4,7408],[35.4,7493],[35.4,7584],[35.4,7669],[35.4,7754],[35.4,7841],[35.4,7926],[35.4,8012],[35.4,8098],[35.4,8184],[34.7,8269],[34.4,8355],[34.4,8440],[36.8,8523],[40.9,8613],[45.6,8700],[51,8790],[53.1,8879],[53.5,8969],[53.5,9054],[53.5,9141],[53.5,9230],[53.6,9317],[53.6,9403],[53.6,9492],[53.8,9581],[54.1,9669],[54.1,9756],[54.5,9840],[54.6,9926],[54.9,10013],[55.1,10101],[55.3,10186],[55.5,10280],[55.6,10366],[55.6,10451],[55.6,10540],[55.6,10626],[55.6,10709],[55.7,10797],[56,10881],[56.3,10969],[56.6,11058],[57,11143],[57.4,11230],[57.5,11313],[57.6,11398],[57.8,11484],[57.9,11572],[58,11660],[58,11743],[58,11829],[58.2,11912],[58.2,11997],[58.3,12081],[58.3,12167],[58.4,12255],[58.8,12340],[58.9,12427],[59.1,12512],[59.1,12598],[59.2,12681],[59.2,12768],[59.2,12859],[59.2,12947],[59.2,13035],[59.2,13118],[59.2,13205],[59.2,13289],[59.2,13392],[59.2,13493],[59.2,13584],[59.2,13672],[59.2,13757],[59.2,13843],[59.2,13936],[59.2,14019],[59.2,14105]]",1,0,1218.486,1227.3046,52.39583333,1.0229,"[{""rating"":52.39583333333333,""responseTime"":1.0228999999985717}]",space,8.0807,,1227.3046,All the time,100,1227.3108,,,[],,0,12,12,12,1,audio/Narrative8Situation3.wav,audio/Narrative7Situation3.wav,audio/Narrative6Situation3.wav,audio/Narrative5Situation3.wav,4,8,5,3,,,,,,,,,,,,,,,,,,,,,,,,,,,,,,,,,,,,,
,,,,,,6307bd3bb93e804d22332b3e,2024-05-13_10h32.08.518,group3.1-3.2-social-tom,2023.2.2,Win32,14.38848921,65c5074098b851296ff0b7ed,6642328924a53585686eba52,,,,,,,,,,,,,,,,,,,,,,,,,,,,,1227.311,2,audio/Narrative5Situation4.wav,1228.3171,,1228.3171,1248.9244,"[[58.2,5181],[62.8,5282],[62.8,5369],[62.8,5458],[60.8,5547],[58.8,5637],[55.9,5726],[54.3,5814],[53.8,5901],[53.8,5989],[53.4,6075],[53.2,6165],[53.2,6252],[53.2,6337],[52.9,6421],[52.6,6512],[52.4,6600],[52.4,6688],[52.4,6772],[52.4,6859],[52.4,6948],[52.4,7039],[52.4,7123],[52.4,7208],[52.4,7302],[52.4,7385],[52.4,7470],[52.4,7555],[52.4,7646],[52.4,7731],[52.4,7816],[52.4,7898],[52.4,7979],[52.4,8063],[52.4,8146],[52.4,8230],[52.4,8316],[52.4,8400],[52.4,8485],[52.4,8572],[52.4,8661],[52.4,8744],[52.4,8827],[52.4,8913],[52.4,9003],[55.9,9095],[57.7,9187],[60,9277],[60,9363],[60,9454],[60,9541],[60,9628],[60.3,9728],[61,9815],[61.1,9900],[61.1,9986],[61.8,10071],[62,10159],[62,10246],[62,10334],[62,10425],[62,10518],[62,10602],[62,10689],[62.2,10776],[62.5,10864],[62.5,10947],[62.5,11036],[62.5,11122],[62.5,11209],[62.5,11296],[62.5,11380],[62.6,11464],[63.1,11554],[63.1,11642],[63.1,11725],[63.1,11809],[63.1,11895],[63.1,11979],[63.1,12067],[63.1,12154],[63.4,12239],[64.1,12324],[64.8,12410],[65.4,12500],[65.5,12588],[65.8,12678],[66.5,12762],[66.7,12847],[66.7,12933],[66.7,13020],[66.7,13106],[66.7,13192],[66.7,13280],[66.7,13367],[66.8,13455],[66.9,13540],[66.9,13628],[66.9,13718],[66.9,13803],[66.9,13889],[66.9,13974],[66.9,14059],[66.9,14142],[66.9,14230],[66.9,14316],[66.9,14402],[66.9,14494],[66.9,14593],[66.9,14685],[67.1,14774],[67.4,14860],[67.6,14944],[67.7,15033],[67.8,15117],[67.8,15203],[67.8,15292],[67.8,15379],[67.8,15463],[67.8,15555],[67.8,15642],[67,15726],[66.3,15813],[65.9,15898],[65.8,15982],[65.8,16068],[65.8,16154],[65.8,16236],[65.4,16328],[65,16410],[64.8,16496],[64.8,16585],[64.8,16669],[64.8,16753],[64.8,16843],[64.8,16928],[64.8,17013],[64.8,17100],[64.8,17181],[64.8,17269],[64.8,17355],[64.8,17440],[64.8,17526],[64.8,17616],[64.8,17701],[64.8,17785],[64.8,17872],[64.8,17954],[64.8,18040],[64.8,18124],[64.8,18207],[64.8,18292],[64.9,18382],[65.1,18469],[65.2,18552],[65.2,18638],[65.2,18727],[65.2,18811],[65.2,18897],[65.2,18983],[65.2,19066],[65.2,19151],[65.2,19239],[65.2,19325],[65.4,19411],[65.4,19497],[65.4,19581],[65.4,19667],[65.4,19750],[65.4,19833],[65.4,19919],[65.4,20003],[65.4,20088],[65.4,20177],[65.4,20262],[65.4,20346],[65.4,20434],[65.4,20522],[65.4,20607]]",1,0,1248.9244,1253.2329,53.64583333,3.126,"[{""rating"":53.645833333333336,""responseTime"":3.1259999999999764}]",space,3.5587,,1253.233,Half the time,50,1253.2359,,,[],,0,13,13,13,1,audio/Narrative8Situation4.wav,audio/Narrative7Situation4.wav,audio/Narrative6Situation4.wav,audio/Narrative5Situation4.wav,3,3,2,1,,,,,,,,,,,,,,,,,,,,,,,,,,,,,,,,,,,,,
,,,,,,6307bd3bb93e804d22332b3e,2024-05-13_10h32.08.518,group3.1-3.2-social-tom,2023.2.2,Win32,14.38848921,65c5074098b851296ff0b7ed,6642328924a53585686eba52,,,,,,,,,,,,,,,,,,,,,,,,,,,,,1253.2361,2,audio/Narrative5Situation5.wav,1258.253,,1258.2531,1273.9313,"[[999,4],[999,95],[999,183],[999,269],[999,357],[999,450],[999,539],[999,625],[999,711],[999,797],[999,884],[999,973],[999,1061],[999,1145],[999,1233],[999,1321],[999,1407],[999,1497],[999,1582],[999,1670],[999,1756],[999,1843],[53.5,1927],[54.7,2015],[55.9,2103],[59,2192],[60.2,2281],[60.4,2368],[61,2453],[61.8,2542],[61.8,2627],[61.8,2715],[62,2805],[62.3,2892],[62.5,2981],[62.5,3067],[62.5,3153],[62.5,3240],[62.5,3331],[62.7,3415],[62.9,3502],[63.1,3592],[63.2,3679],[63.4,3764],[63.6,3848],[63.8,3937],[63.8,4024],[63.8,4111],[63.8,4196],[63.8,4281],[63.8,4368],[63.8,4454],[63.8,4540],[63.8,4628],[63.8,4715],[63.8,4800],[63.8,4887],[63.8,4975],[63.8,5062],[63.8,5151],[64.9,5242],[65.8,5328],[66.6,5416],[66.7,5504],[66.7,5592],[66.7,5682],[66.9,5772],[67.1,5858],[67.3,5943],[68.1,6035],[68.6,6123],[68.9,6206],[69,6288],[69,6374],[69,6462],[69,6547],[69,6633],[69,6723],[69,6812],[69,6898],[69,6985],[68.9,7071],[68.5,7157],[68.3,7241],[68,7328],[67.8,7415],[67.6,7502],[67.1,7588],[67,7675],[67,7765],[67,7849],[67,7935],[67,8020],[67,8106],[67,8192],[67,8276],[67,8362],[67,8450],[67,8538],[67,8625],[67,8713],[67,8798],[67,8887],[67,8972],[67,9061],[67,9148],[67,9235],[66.9,9318],[66.7,9405],[66.7,9491],[66.5,9573],[66.1,9660],[66,9748],[65.9,9836],[65.9,9921],[65.8,10005],[65.8,10091],[65.8,10175],[65.8,10261],[65.7,10348],[65.7,10436],[65.7,10527],[65.7,10616],[64.6,10701],[63.8,10792],[63.5,10881],[63.4,10965],[63.2,11053],[63.2,11138],[63.2,11224],[63.2,11312],[63.2,11407],[63,11501],[62.7,11596],[62.6,11682],[62.6,11767],[62.6,11855],[62.5,11939],[62.5,12025],[62.5,12115],[62.5,12201],[62.5,12285],[62.5,12375],[62.5,12458],[62.5,12541],[62.5,12633],[62.6,12717],[62.6,12805],[62.6,12894],[62.6,12980],[62.6,13068],[62.6,13155],[62.6,13242],[62.6,13329],[62.6,13416],[62.7,13502],[62.8,13588],[62.8,13680],[62.8,13766],[62.8,13854],[62.8,13941],[62.8,14027],[62.8,14112],[62.8,14198],[62.8,14283],[62.8,14372],[62.8,14458],[62.8,14546],[62.8,14633],[62.8,14722],[62.8,14807],[62.8,14894],[62.8,14982],[62.8,15066],[62.8,15150],[62.8,15236],[62.8,15324],[62.8,15409],[62.8,15502],[62.8,15591],[62.8,15677]]",1,0,1273.9314,1276.4968,63.75,1.6516,"[{""rating"":63.74999999999999,""responseTime"":1.6516000000015083}]",space,1.837,,1276.4968,All the time,100,1276.4992,,,[],,0,14,14,14,1,audio/Narrative8Situation5.wav,audio/Narrative7Situation5.wav,audio/Narrative6Situation5.wav,audio/Narrative5Situation5.wav,2,5,2,5,,,,,,,,,,,,,,,,,,,,,,,,,,,,,,,,,,,,,
