exp_question,consent.started,consent.stopped,consentResponse.keys,consentResponse.rt,consentResponse.duration,participantID,date,expName,psychopyVersion,OS,frameRate,STUDY_ID,SESSION_ID,opening1.started,opening1.stopped,keyEndingOpening1.keys,keyEndingOpening1.rt,keyEndingOpening1.duration,volumeAdjust.started,volumeAdjust.stopped,endingAdjust.keys,endingAdjust.rt,endingAdjust.duration,opening2.started,opening2.stopped,keyEndingOpening.keys,keyEndingOpening.rt,keyEndingOpening.duration,mouse.x,mouse.y,mouse.leftButton,mouse.midButton,mouse.rightButton,mouse.time,instructionLoop.thisRepN,instructionLoop.thisTrialN,instructionLoop.thisN,instructionLoop.thisIndex,instructionLoop.ran,readyForAudio.started,readyForAudio.stopped,fixation.started,run,audio_played,fixation.stopped,endPractice.keys,audioPre.started,audioPre.stopped,continuousResponses_audio,continuousSlider.response,continuousSlider.rt,intRating.started,intRating.stopped,intQuestionSlider.response,intQuestionSlider.rt,intQuestionSlider.history,confirmResponse.keys,confirmResponse.rt,confirmResponse.duration,catchQuestion.started,catch_label,catch_value,catchQuestion.stopped,catchQuestionSlider.response,catchQuestionSlider.rt,catchQuestionSlider.history,confirmResponse_2.keys,confirmResponse_2.rt,confirmResponse_2.duration,audioRunLoop.thisRepN,audioRunLoop.thisTrialN,audioRunLoop.thisN,audioRunLoop.thisIndex,audioRunLoop.ran,conditions1_1,conditions2_1,conditions1_2,conditions2_2,dur1_1,dur2_1,dur1_2,dur2_2,endPractice.rt,endPractice.duration,runIntervalBreak.started,runIntervalBreak.stopped,endingBreakKey.keys,endingBreakKey.rt,endingBreakKey.duration,connection.started,connection.stopped,connectionEnding.keys,connectionEnding.rt,connectionEnding.duration,readyForText.started,readyForText.stopped,textPre.started,run_dup,textPre.stopped,continuousResponses_text,textRunLoop.thisRepN,textRunLoop.thisTrialN,textRunLoop.thisN,textRunLoop.thisIndex,textRunLoop.ran,text1_1,text1_2,text2_1,text2_2,runBreakText.started,runBreakText.stopped,endingBreakKey_2.keys,endingBreakKey_2.rt,endingBreakKey_2.duration,ending.started,ending.stopped,endingEnding.keys,endingEnding.rt,endingEnding.duration
social,0,9.599,y,9.257,,6318c6b8dd3d07c0fb9f0d18,2024-02-08_15h03.20.271,group3.1-3.2-social-tom,2023.2.2,MacIntel,60.60606061,65c5074098b851296ff0b7ed,65c5414c8ac3251cee2b9c8a,,,,,,,,,,,,,,,,,,,,,,,,,,,,,,,,,,,,,,,,,,,,,,,,,,,,,,,,,,,,,,,,,,,,,,,,,,,,,,,,,,,,,,,,,,,,,,,,,,,,,,,,,,
,,,,,,6318c6b8dd3d07c0fb9f0d18,2024-02-08_15h03.20.271,group3.1-3.2-social-tom,2023.2.2,MacIntel,60.60606061,65c5074098b851296ff0b7ed,65c5414c8ac3251cee2b9c8a,9.599,14.483,space,4.81,,,,,,,,,,,,,,,,,,,,,,,,,,,,,,,,,,,,,,,,,,,,,,,,,,,,,,,,,,,,,,,,,,,,,,,,,,,,,,,,,,,,,,,,,,,,,,,,,,,,,,
,,,,,,6318c6b8dd3d07c0fb9f0d18,2024-02-08_15h03.20.271,group3.1-3.2-social-tom,2023.2.2,MacIntel,60.60606061,65c5074098b851296ff0b7ed,65c5414c8ac3251cee2b9c8a,,,,,,14.483,274.773,space,259.961,,,,,,,,,,,,,,,,,,,,,,,,,,,,,,,,,,,,,,,,,,,,,,,,,,,,,,,,,,,,,,,,,,,,,,,,,,,,,,,,,,,,,,,,,,,,,,,,,
,,,,,,6318c6b8dd3d07c0fb9f0d18,2024-02-08_15h03.20.271,group3.1-3.2-social-tom,2023.2.2,MacIntel,60.60606061,65c5074098b851296ff0b7ed,65c5414c8ac3251cee2b9c8a,,,,,,,,,,,274.784,300.656,space,25.838,,[],[],[],[],[],[],0,0,0,0,1,,,,,,,,,,,,,,,,,,,,,,,,,,,,,,,,,,,,,,,,,,,,,,,,,,,,,,,,,,,,,,,,,,,,,,,,,,,,,,,,
,,,,,,6318c6b8dd3d07c0fb9f0d18,2024-02-08_15h03.20.271,group3.1-3.2-social-tom,2023.2.2,MacIntel,60.60606061,65c5074098b851296ff0b7ed,65c5414c8ac3251cee2b9c8a,,,,,,,,,,,300.658,369.05,space,68.319,,"[0.8509316770186336,-0.9006211180124224,-0.9006211180124224,0.6603535353535354,0.6603535353535354,0.3042929292929293,0.898989898989899]","[0.4073170731707317,0.6609756097560976,0.6609756097560976,0.12597547380156077,0.12597547380156077,-0.11705685618729098,-0.6833890746934225]","[1,1,1,1,1,1,1]","[0,0,0,0,0,0,0]","[0,0,0,0,0,0,0]","[45.09100000000001,50.95799999999997,51.10699999999997,60.65899999999999,61.47500000000002,62.14100000000002,64.12400000000002]",1,0,1,0,1,,,,,,,,,,,,,,,,,,,,,,,,,,,,,,,,,,,,,,,,,,,,,,,,,,,,,,,,,,,,,,,,,,,,,,,,,,,,,,,,
,,,,,,6318c6b8dd3d07c0fb9f0d18,2024-02-08_15h03.20.271,group3.1-3.2-social-tom,2023.2.2,MacIntel,60.60606061,65c5074098b851296ff0b7ed,65c5414c8ac3251cee2b9c8a,,,,,,,,,,,369.053,386.408,p,17.305,,[-0.7819185645272602],[0.4292682926829268],[1],[0],[0],[14.863999999999976],2,0,2,0,1,,,,,,,,,,,,,,,,,,,,,,,,,,,,,,,,,,,,,,,,,,,,,,,,,,,,,,,,,,,,,,,,,,,,,,,,,,,,,,,,
,,,,,,6318c6b8dd3d07c0fb9f0d18,2024-02-08_15h03.20.271,group3.1-3.2-social-tom,2023.2.2,MacIntel,60.60606061,65c5074098b851296ff0b7ed,65c5414c8ac3251cee2b9c8a,,,,,,,,,,,386.409,387.058,p,0.612,,[],[],[],[],[],[],3,0,3,0,1,,,,,,,,,,,,,,,,,,,,,,,,,,,,,,,,,,,,,,,,,,,,,,,,,,,,,,,,,,,,,,,,,,,,,,,,,,,,,,,,
,,,,,,6318c6b8dd3d07c0fb9f0d18,2024-02-08_15h03.20.271,group3.1-3.2-social-tom,2023.2.2,MacIntel,60.60606061,65c5074098b851296ff0b7ed,65c5414c8ac3251cee2b9c8a,,,,,,,,,,,387.059,388.141,p,1.048,,[],[],[],[],[],[],4,0,4,0,1,,,,,,,,,,,,,,,,,,,,,,,,,,,,,,,,,,,,,,,,,,,,,,,,,,,,,,,,,,,,,,,,,,,,,,,,,,,,,,,,
,,,,,,6318c6b8dd3d07c0fb9f0d18,2024-02-08_15h03.20.271,group3.1-3.2-social-tom,2023.2.2,MacIntel,60.60606061,65c5074098b851296ff0b7ed,65c5414c8ac3251cee2b9c8a,,,,,,,,,,,388.142,390.458,space,2.308,,[],[],[],[],[],[],5,0,5,0,1,,,,,,,,,,,,,,,,,,,,,,,,,,,,,,,,,,,,,,,,,,,,,,,,,,,,,,,,,,,,,,,,,,,,,,,,,,,,,,,,
,,,,,,6318c6b8dd3d07c0fb9f0d18,2024-02-08_15h03.20.271,group3.1-3.2-social-tom,2023.2.2,MacIntel,60.60606061,65c5074098b851296ff0b7ed,65c5414c8ac3251cee2b9c8a,,,,,,,,,,,390.458,390.75,space,0.24,,[],[],[],[],[],[],6,0,6,0,1,,,,,,,,,,,,,,,,,,,,,,,,,,,,,,,,,,,,,,,,,,,,,,,,,,,,,,,,,,,,,,,,,,,,,,,,,,,,,,,,
,,,,,,6318c6b8dd3d07c0fb9f0d18,2024-02-08_15h03.20.271,group3.1-3.2-social-tom,2023.2.2,MacIntel,60.60606061,65c5074098b851296ff0b7ed,65c5414c8ac3251cee2b9c8a,,,,,,,,,,,390.75,391.308,space,0.525,,[],[],[],[],[],[],7,0,7,0,1,,,,,,,,,,,,,,,,,,,,,,,,,,,,,,,,,,,,,,,,,,,,,,,,,,,,,,,,,,,,,,,,,,,,,,,,,,,,,,,,
,,,,,,6318c6b8dd3d07c0fb9f0d18,2024-02-08_15h03.20.271,group3.1-3.2-social-tom,2023.2.2,MacIntel,60.60606061,65c5074098b851296ff0b7ed,65c5414c8ac3251cee2b9c8a,,,,,,,,,,,391.308,411.115,space,19.775,,"[0.2795031055900621,0.2795031055900621,0.04731457800511509]","[0.01951219512195122,0.01951219512195122,-0.14146341463414633]","[1,1,1]","[0,0,0]","[0,0,0]","[12.326000000000022,12.509000000000015,16.86099999999999]",8,0,8,0,1,,,,,,,,,,,,,,,,,,,,,,,,,,,,,,,,,,,,,,,,,,,,,,,,,,,,,,,,,,,,,,,,,,,,,,,,,,,,,,,,
,,,,,,6318c6b8dd3d07c0fb9f0d18,2024-02-08_15h03.20.271,group3.1-3.2-social-tom,2023.2.2,MacIntel,60.60606061,65c5074098b851296ff0b7ed,65c5414c8ac3251cee2b9c8a,,,,,,,,,,,411.116,518.603,space,107.461,,[],[],[],[],[],[],9,0,9,0,1,,,,,,,,,,,,,,,,,,,,,,,,,,,,,,,,,,,,,,,,,,,,,,,,,,,,,,,,,,,,,,,,,,,,,,,,,,,,,,,,
,,,,,,6318c6b8dd3d07c0fb9f0d18,2024-02-08_15h03.20.271,group3.1-3.2-social-tom,2023.2.2,MacIntel,60.60606061,65c5074098b851296ff0b7ed,65c5414c8ac3251cee2b9c8a,,,,,,,,,,,,,,,,,,,,,,,,,,,518.608,521.178,521.202,1,audio/Narrative13Situation2.wav,523.211,,523.212,552.962,"[[999,1],[999,81],[999,165],[999,248],[999,331],[999,414],[999,496],[999,581],[999,665],[999,748],[999,831],[999,914],[999,998],[999,1081],[999,1164],[999,1248],[999,1331],[999,1415],[999,1498],[999,1581],[999,1665],[999,1747],[999,1831],[999,1915],[999,1998],[999,2081],[999,2165],[999,2247],[999,2331],[999,2416],[999,2498],[999,2581],[999,2665],[999,2748],[999,2831],[999,2914],[999,2997],[999,3081],[999,3165],[999,3248],[999,3331],[999,3414],[999,3498],[999,3581],[999,3664],[999,3748],[999,3831],[999,3914],[999,3998],[999,4081],[999,4164],[999,4248],[999,4332],[999,4415],[999,4498],[999,4582],[999,4664],[999,4747],[999,4832],[999,4915],[999,4998],[999,5082],[999,5163],[999,5247],[999,5331],[999,5414],[999,5498],[999,5581],[999,5665],[999,5748],[999,5832],[999,5914],[999,5997],[999,6083],[999,6164],[999,6247],[999,6331],[999,6415],[999,6500],[999,6582],[999,6665],[999,6748],[999,6831],[100,6914],[100,6997],[100,7081],[100,7164],[100,7248],[100,7331],[100,7415],[100,7497],[100,7581],[100,7665],[100,7748],[100,7832],[100,7915],[100,7998],[100,8081],[100,8165],[100,8248],[100,8332],[100,8414],[100,8498],[100,8581],[100,8664],[100,8750],[100,8831],[100,8914],[100,8998],[100,9081],[100,9164],[100,9247],[100,9331],[100,9415],[100,9498],[100,9582],[100,9665],[100,9747],[100,9831],[100,9915],[100,9997],[100,10082],[100,10164],[100,10247],[100,10331],[100,10415],[100,10498],[100,10581],[100,10665],[100,10748],[100,10831],[100,10915],[100,10998],[100,11081],[100,11165],[100,11248],[100,11330],[100,11415],[100,11498],[100,11581],[100,11664],[100,11750],[100,11831],[100,11915],[100,12000],[100,12081],[100,12165],[100,12247],[100,12332],[100,12414],[100,12498],[100,12581],[100,12664],[100,12748],[100,12832],[100,12915],[100,12998],[100,13081],[100,13165],[100,13248],[100,13331],[100,13414],[100,13497],[100,13581],[100,13665],[100,13748],[100,13831],[100,13917],[100,13998],[100,14081],[100,14164],[100,14248],[100,14332],[100,14415],[100,14497],[100,14581],[100,14664],[100,14748],[100,14831],[100,14915],[100,14998],[100,15082],[100,15165],[100,15248],[100,15331],[99.9,15415],[95.9,15498],[100,16082],[100,16165],[100,16248],[100,16332],[100,16415],[100,16500],[100,16582],[100,16665],[100,16748],[100,16832],[100,16914],[100,16998],[100,17081],[100,17164],[99.6,17248],[98,18915],[100,18998],[100,19081],[100,19165],[100,19248],[100,19332],[98.8,19416],[98.6,19498],[98.6,19580],[98.6,19664],[98.6,19748],[98.6,19831],[98.5,19915],[98.5,19998],[98.3,20083],[98.3,20164],[98.3,20248],[98.3,20331],[98.3,20415],[98.3,20498],[98.3,20582],[98.3,20665],[98.3,20748],[98.3,20831],[98.3,20915],[98.3,20997],[98.3,21081],[98.3,21165],[98.3,21248],[98.3,21331],[98.3,21415],[98.3,21498],[98.3,21581],[98.3,21665],[98.3,21748],[98.3,21831],[98.3,21915],[98.3,21998],[98.3,22082],[98.3,22164],[98.3,22248],[98.3,22332],[98.3,22414],[98.2,22500],[97.8,22581],[97.3,22665],[96.9,22748],[96.4,22832],[96,22915],[95.7,23000],[95.4,23082],[95.1,23165],[94.9,23250],[94.5,23332],[94.1,23416],[93.7,23497],[93.2,23582],[92.8,23665],[92.3,23750],[91.8,23832],[91.4,23915],[90.9,24000],[90.7,24081],[90.7,24164],[90.4,24248],[90.3,24331],[90.2,24415],[90,24500],[89.8,24582],[89.5,24665],[89.3,24750],[88.7,24832],[88.1,24916],[87.6,25000],[87.5,25082],[87.1,25166],[86.6,25250],[86.3,25332],[85.9,25416],[85.3,25500],[84.7,25582],[83.9,25665],[83.1,25748],[82.6,25832],[82.4,25916],[82.4,25998],[82.5,26082],[82.6,26165],[82.6,26248],[82.6,26332],[82.6,26415],[82.6,26498],[82.6,26581],[82.7,26666],[83.5,26748],[86.2,26832],[87.7,26916],[88.9,27000],[90.2,27082],[90.5,27165],[90.5,27250],[90.5,27331],[90.5,27415],[90.4,27500],[87.7,27582],[83.2,27666],[79.8,27750],[77.6,27832],[77.5,27915],[77.5,28000],[77.5,28082],[77.5,28165],[77.5,28250],[77.1,28332],[75.6,28415],[74.8,28498],[74,28582],[73.1,28665],[72.6,28748],[71.9,28832],[71.2,28917],[70.7,28997],[70.3,29082],[69.9,29165],[69.8,29250],[69.7,29331],[69.7,29415],[69.8,29500],[69.9,29582],[69.9,29664],[70.3,29750]]",1,0,552.963,564.028,38.72694285,8.688,"[{""rating"":38.7269428509756,""responseTime"":8.687999999999988}]",space,10.523,,564.029,Definitely yes,100,570.679,99.8385836,5.937,"[{""rating"":99.83858360424121,""responseTime"":5.937000000000012}]",space,6.118,,0,0,0,0,1,audio/Narrative13Situation2.wav,audio/Narrative13Situation2.wav,audio/Narrative13Situation2.wav,audio/Narrative13Situation2.wav,2,2,2,2,,,,,,,,,,,,,,,,,,,,,,,,,,,,,,,,,,,,,
,,,,,,6318c6b8dd3d07c0fb9f0d18,2024-02-08_15h03.20.271,group3.1-3.2-social-tom,2023.2.2,MacIntel,60.60606061,65c5074098b851296ff0b7ed,65c5414c8ac3251cee2b9c8a,,,,,,,,,,,,,,,,,,,,,,,,,,,,,570.68,1,audio/Narrative7Situation1.wav,572.801,space,572.801,628.714,"[[97.7,1695],[97.6,1778],[97.2,1861],[96.9,1943],[96.9,2028],[96.9,2110],[96.9,2193],[96.9,2278],[96.9,2360],[96.9,2445],[96.9,2525],[96.9,2610],[96.9,2693],[96.9,2777],[96.9,2860],[96.9,2943],[96.9,3027],[96.9,3110],[96.9,3193],[96.9,3278],[96.9,3360],[96.9,3443],[96.9,3528],[96.9,3610],[96.9,3693],[96.9,3777],[96.9,3860],[96.9,3943],[96.9,4027],[96.9,4110],[96.9,4192],[96.9,4278],[96.9,4360],[96.9,4443],[96.9,4528],[96.9,4610],[96.9,4693],[95.7,4778],[90.9,4861],[88.6,4945],[88.4,5028],[87.9,5110],[86.8,5195],[85.8,5278],[84,5360],[82,5445],[78.6,5528],[72.1,5610],[65.5,5695],[61.9,5777],[61.9,5860],[61.9,5943],[61.9,6027],[61.9,6113],[59.1,6193],[57.2,6278],[56.6,6360],[56.1,6445],[56,6528],[55.9,6611],[55.8,6693],[55.2,6778],[54,6861],[52.3,6943],[48.3,7028],[38.1,7110],[28.8,7195],[24.9,7278],[23.1,7360],[22,7445],[21.6,7528],[21.4,7610],[21.1,7693],[21.1,7777],[21.1,7860],[21.1,7945],[21.1,8028],[22.4,8110],[28.8,8193],[30.1,8278],[30.4,8360],[30.6,8443],[31.2,8528],[32.4,8610],[33,8693],[33.6,8778],[33.9,8860],[34.4,8943],[35.2,9028],[36.2,9110],[38.4,9195],[41.6,9278],[43.4,9360],[47.6,9445],[51.8,9528],[54.6,9611],[57.7,9693],[58.2,9778],[58.2,9860],[58.2,9943],[58.2,10028],[58.2,10110],[58.2,10193],[58.2,10278],[58.2,10360],[58.2,10443],[58.2,10528],[60.5,10610],[63.4,10693],[65.2,10778],[67.8,10860],[70.5,10945],[75.7,11027],[81.2,11111],[84.8,11195],[87.5,11278],[89.5,11361],[90.2,11445],[90.4,11528],[90.9,11610],[91.3,11692],[91.3,11777],[91.4,11860],[91.7,11943],[91.7,12027],[91.7,12110],[91.6,12195],[91.2,12278],[90.9,12361],[90.8,12445],[90.8,12528],[90.8,12610],[91.8,12693],[97.2,12778],[100,12860],[100,12945],[100,13028],[100,13110],[100,13193],[100,13278],[100,13360],[100,13443],[100,13528],[100,13610],[100,13693],[100,13778],[100,13860],[100,13943],[100,14028],[100,14110],[100,14195],[100,14278],[100,14360],[100,14445],[100,14528],[100,14610],[100,14693],[100,14777],[100,14861],[100,14943],[100,15028],[100,15110],[100,15195],[100,15277],[100,15360],[100,15443],[100,15528],[100,15610],[100,15693],[100,15777],[100,15860],[100,15945],[100,16027],[100,16110],[100,16195],[100,16278],[100,16360],[100,16443],[100,16528],[100,16610],[100,16695],[100,16778],[100,16861],[100,16945],[100,17028],[100,17110],[100,17195],[100,17278],[100,17361],[100,17445],[100,17527],[100,17610],[100,17693],[100,17778],[100,17861],[100,17943],[100,18028],[100,18110],[100,18195],[97.4,18278],[94.6,18360],[94.2,18445],[94.1,18528],[93.9,18611],[93.7,18695],[93.6,18778],[93.6,18860],[93.6,18943],[93.6,19028],[93.2,19111],[92.3,19195],[90.7,19278],[89,19361],[86.7,19445],[85,19528],[83.6,19611],[82.9,19693],[82.1,19778],[81.8,19861],[81.3,19945],[80.4,20028],[78.6,20110],[74,20195],[53.3,20945],[49.7,21028],[46.4,21110],[44.4,21195],[43.4,21277],[39.4,21360],[38.1,21445],[38.1,21527],[38.1,21611],[38.1,21693],[33.8,21778],[28.9,21861],[25.7,21945],[24.6,22028],[24.2,22111],[24,22195],[24,22278],[23.7,22361],[22.6,22445],[21.4,22528],[19.9,22611],[19.2,22695],[18.5,22778],[17.6,22861],[16,22945],[14.3,23028],[13.6,23110],[13.6,23195],[13.6,23278],[13.6,23361],[13.6,23443],[12.1,23528],[10.2,23611],[8.8,23695],[7.8,23778],[6.4,23861],[4.6,23946],[3.8,24028],[3.7,24110],[3.7,24195],[3.5,24278],[2.9,24360],[2.7,24445],[2.6,24528],[1.9,24610],[1.5,24695],[1.4,24778],[1.4,24860],[1.4,24943],[1.4,25028],[1.4,25110],[1.4,25193],[1.4,25278],[1.4,25361],[1.4,25445],[1.4,25528],[1.4,25611],[1.4,25693],[1.4,25777],[1.4,25861],[1.4,25943],[1.4,26028],[1.4,26110],[1.4,26195],[1.4,26278],[1.4,26360],[1.4,26445],[1.4,26528],[1.4,26610],[1.4,26693],[1.4,26778],[1.4,26861],[1.4,26945],[1.4,27028],[1.4,27110],[1.4,27195],[1.4,27277],[1.4,27364],[1.4,27443],[1.4,27528],[1.4,27613],[1.4,27695],[1.4,27778],[1.4,27860],[1.4,27945],[1.4,28028],[1.4,28111],[1.4,28195],[1.4,28278],[1.4,28360],[1.4,28445],[1.4,28528],[1.4,28611],[1.4,28695],[1.4,28778],[1.4,28860],[1.4,28945],[1.4,29028],[1.4,29110],[5.4,29195],[11.8,29278],[19.3,29360],[37,29446],[55.6,29528],[60.7,29611],[63.8,29695],[65.2,29778],[65.2,29860],[65.2,29943],[65.2,30028],[65.2,30111],[67.9,30195],[72,30278],[75.1,30361],[76.5,30445],[77.6,30528],[79,30611],[79.7,30696],[79.9,30778],[79.9,30860],[79.9,30943],[79.9,31028],[79.9,31110],[79.5,31195],[75.7,31278],[66.9,31361],[60.1,31445],[55.2,31528],[51.2,31610],[48.6,31695],[47.4,31778],[46.7,31863],[46.4,31945],[46.4,32028],[46.4,32111],[46.3,32195],[50,32278],[59.2,32361],[71,32443],[77.5,32528],[81.6,32611],[84.7,32695],[86.7,32779],[87.6,32860],[88.4,32943],[89.5,33028],[91.4,33110],[93.7,33193],[94.8,33279],[94.8,33360],[94.8,33445],[95,33529],[95.3,33611],[95.9,33695],[97.4,33778],[98.5,33860],[99.7,33945],[100,34028],[100,34110],[100,34195],[100,34278],[100,34361],[100,34443],[100,34528],[100,34610],[100,34695],[100,34779],[100,34861],[100,34945],[100,35028],[100,35110],[100,35195],[100,35279],[100,35360],[100,35445],[100,35529],[100,35611],[100,35695],[100,35779],[100,35861],[100,35945],[100,36028],[100,36110],[100,36195],[100,36278],[100,36361],[100,36445],[100,36529],[100,36611],[100,36695],[100,36778],[100,36861],[100,36946],[100,37028],[100,37110],[100,37195],[100,37279],[100,37361],[100,37445],[100,37528],[100,37611],[100,37695],[100,37778],[100,37861],[100,37945],[100,38029],[100,38110],[100,38196],[100,38279],[100,38360],[100,38445],[100,38528],[100,38610],[100,38695],[100,38779],[100,38861],[100,38945],[100,39029],[100,39110],[100,39195],[100,39278],[100,39361],[100,39445],[100,39528],[100,39611],[100,39695],[100,39779],[100,39860],[100,39945],[100,40029],[100,40110],[100,40195],[100,40279],[100,40360],[100,40445],[100,40529],[100,40610],[100,40695],[100,40778],[100,40861],[100,40945],[100,41029],[100,41111],[100,41195],[100,41279],[100,41361],[100,41445],[100,41529],[100,41611],[100,41695],[100,41778],[100,41861],[100,41945],[100,42029],[100,42111],[100,42195],[100,42278],[100,42361],[100,42445],[100,42527],[100,42610],[100,42695],[100,42779],[100,42861],[100,42945],[100,43029],[100,43111],[100,43196],[100,43278],[100,43361],[100,43443],[100,43529],[100,43611],[100,43695],[100,43778],[100,43861],[100,43945],[100,44028],[100,44111],[100,44195],[100,44279],[100,44360],[100,44445],[100,44528],[100,44610],[100,44695],[100,44778],[100,44861],[100,44945],[100,45028],[100,45111],[100,45195],[100,45279],[100,45361],[100,45445],[100,45528],[100,45611],[100,45695],[100,45778],[100,45861],[100,45943],[100,46028],[100,46111],[100,46195],[100,46279],[100,46361],[100,46445],[100,46529],[100,46611],[100,46696],[100,46779],[100,46861],[100,46946],[100,47028],[100,47111],[100,47193],[100,47278],[100,47360],[100,47445],[100,47529],[100,47611],[100,47695],[100,47778],[100,47860],[100,47945],[100,48028],[100,48111],[100,48195],[100,48279],[100,48361],[100,48445],[100,48529],[100,48611],[100,48695],[100,48778],[100,48861],[100,48945],[100,49029],[100,49110],[100,49196],[100,49278],[100,49361],[100,49445],[100,49529],[100,49611],[100,49695],[100,49778],[100,49861],[100,49947],[100,50029],[100,50111],[100,50196],[100,50279],[100,50361],[100,50446],[100,50529],[100,50611],[100,50695],[100,50779],[100,50861],[100,50945],[100,51028],[100,51111],[100,51195],[100,51279],[100,51361],[100,51445],[100,51529],[100,51611],[100,51695],[100,51779],[100,51861],[100,51946],[100,52029],[100,52111],[100,52196],[100,52279],[100,52361],[100,52445],[100,52528],[100,52611],[100,52695],[100,52779],[100,52861],[100,52946],[100,53028],[100,53111],[100,53195],[100,53279],[100,53361],[100,53445],[100,53529],[100,53611],[100,53696],[100,53778],[100,53861],[100,53945],[100,54029],[100,54111],[100,54195],[100,54278],[100,54361],[100,54445],[100,54529],[100,54611],[100,54696],[100,54779],[100,54861],[100,54946],[100,55029],[100,55111],[100,55196],[100,55279],[100,55360],[100,55445],[100,55528],[100,55611],[100,55695],[100,55779],[100,55861]]",1,0,628.716,632.497,99.71073498,2.385,"[{""rating"":99.71073498341849,""responseTime"":2.384999999999991}]",space,3.253,,632.497,Definitely yes,100,632.502,,,[],,,,0,1,1,1,1,audio/Narrative7Situation1.wav,audio/Narrative8Situation1.wav,audio/Narrative5Situation1.wav,audio/Narrative6Situation1.wav,2,5,5,2,2.104,,,,,,,,,,,,,,,,,,,,,,,,,,,,,,,,,,,,
,,,,,,6318c6b8dd3d07c0fb9f0d18,2024-02-08_15h03.20.271,group3.1-3.2-social-tom,2023.2.2,MacIntel,60.60606061,65c5074098b851296ff0b7ed,65c5414c8ac3251cee2b9c8a,,,,,,,,,,,,,,,,,,,,,,,,,,,,,632.503,1,audio/Narrative7Situation2.wav,635.516,,635.516,642.997,"[[54.9,1997],[48.7,2081],[50.8,2163],[78.5,2247],[100,2663],[100,2746],[100,2831],[99.2,2914],[97.7,2997],[97.2,3079],[97.2,3163],[97.2,3247],[97.2,3331],[97.2,3413],[97.2,3496],[97.1,3581],[85.9,3663],[76.1,3747],[72.8,3831],[67.1,3913],[66.5,3996],[66.5,4081],[66.6,4163],[78.1,4246],[88.7,4331],[95.8,4413],[99.5,4496],[100,4581],[100,4664],[100,4747],[100,4829],[100,4913],[100,4996],[100,5081],[100,5163],[100,5246],[100,5331],[100,5413],[100,5497],[100,5581],[100,5663],[100,5747],[100,5829],[100,5913],[100,5996],[100,6079],[100,6163],[100,6247],[100,6331],[100,6413],[100,6496],[100,6581],[100,6663],[100,6746],[100,6831],[100,6914],[100,6996],[100,7081],[100,7163],[100,7246],[100,7331],[100,7413]]",1,0,642.998,645.263,99.71073498,1.77,"[{""rating"":99.71073498341849,""responseTime"":1.7700000000000955}]",space,1.735,,645.263,Definitely yes,100,645.267,,,[],,,,0,2,2,2,1,audio/Narrative7Situation2.wav,audio/Narrative8Situation2.wav,audio/Narrative5Situation2.wav,audio/Narrative6Situation2.wav,3,3,3,3,,,,,,,,,,,,,,,,,,,,,,,,,,,,,,,,,,,,,
,,,,,,6318c6b8dd3d07c0fb9f0d18,2024-02-08_15h03.20.271,group3.1-3.2-social-tom,2023.2.2,MacIntel,60.60606061,65c5074098b851296ff0b7ed,65c5414c8ac3251cee2b9c8a,,,,,,,,,,,,,,,,,,,,,,,,,,,,,645.268,1,audio/Narrative7Situation3.wav,653.281,,653.281,662.547,"[[999,0],[999,81],[999,164],[999,247],[999,331],[999,415],[999,499],[999,581],[999,665],[999,749],[999,832],[999,915],[999,999],[999,1082],[999,1165],[999,1250],[999,1331],[999,1417],[999,1500],[999,1582],[999,1665],[999,1750],[999,1832],[999,1915],[999,1999],[999,2082],[999,2167],[999,2250],[999,2332],[999,2415],[999,2500],[999,2581],[999,2665],[999,2750],[75.6,2832],[75.3,2915],[72.8,2999],[68,3082],[66.1,3164],[61.5,3250],[57.7,3333],[55.6,3415],[54.5,3500],[54,3582],[53.6,3665],[53.1,3749],[50.1,3832],[47.3,3915],[47.3,3999],[47.3,4082],[47.3,4165],[42.7,4250],[33.6,4332],[32.4,4417],[32.2,4499],[32.2,4581],[32.2,4664],[32.2,4750],[32.2,4832],[32.2,4917],[32.2,4999],[32.2,5082],[32.2,5165],[32.2,5249],[32.2,5332],[32.2,5415],[32.2,5499],[32.2,5582],[32.2,5667],[32.2,5749],[32.2,5832],[32.2,5915],[32.2,5999],[32.2,6082],[32.2,6167],[32.2,6249],[32.2,6332],[32.2,6414],[33.2,6500],[35.2,6582],[38.9,6665],[39.5,6750],[39.5,6832],[39.4,6915],[35,7000],[19.8,7082],[13.4,7165],[12.8,7249],[12.8,7332],[12.8,7415],[12.8,7499],[10,7582],[8.1,7665],[8.1,7749],[7.8,7832],[7.3,7915],[7,7999],[6.5,8082],[6,8165],[5.9,8249],[5.9,8332],[5.9,8415],[5.9,8500],[5.9,8581],[5.9,8667],[5.9,8749],[5.9,8832],[5.9,8915],[5.9,8999],[5.9,9081],[5.9,9165],[5.9,9250]]",1,0,662.548,669.465,8.938214199,5.939,"[{""rating"":5.102755574597239,""responseTime"":4.8390000000000555},{""rating"":8.938214199279187,""responseTime"":5.939000000000078}]",space,6.401,,669.465,Not at all,0,669.473,,,[],,,,0,3,3,3,1,audio/Narrative7Situation3.wav,audio/Narrative8Situation3.wav,audio/Narrative5Situation3.wav,audio/Narrative6Situation3.wav,8,4,3,5,,,,,,,,,,,,,,,,,,,,,,,,,,,,,,,,,,,,,
,,,,,,6318c6b8dd3d07c0fb9f0d18,2024-02-08_15h03.20.271,group3.1-3.2-social-tom,2023.2.2,MacIntel,60.60606061,65c5074098b851296ff0b7ed,65c5414c8ac3251cee2b9c8a,,,,,,,,,,,,,,,,,,,,,,,,,,,,,669.474,1,audio/Narrative7Situation4.wav,672.481,,672.482,684.214,"[[999,2],[999,81],[999,164],[999,248],[999,331],[999,414],[999,498],[999,581],[999,664],[999,748],[999,831],[999,914],[999,997],[999,1081],[999,1164],[999,1248],[999,1331],[999,1416],[999,1497],[999,1581],[999,1665],[999,1748],[999,1832],[999,1914],[999,1998],[999,2081],[999,2164],[999,2247],[999,2332],[999,2414],[999,2498],[999,2582],[53.6,2665],[64.8,2747],[72.8,3665],[69.9,3748],[69.8,3831],[69.8,3915],[69.8,3997],[69.8,4081],[69.8,4164],[69.8,4247],[69.8,4331],[66.6,4415],[62.3,4498],[61.9,4581],[61.9,4664],[69.8,4748],[82.2,4831],[83.2,4915],[83.2,4998],[82.5,5081],[65.9,5165],[48.5,5250],[42.7,5331],[38,5414],[33.9,5500],[32.4,5581],[32.4,5664],[32.4,5748],[32.4,5832],[29,5915],[18.7,5998],[16.2,6081],[15,6165],[14.8,6248],[14.8,6331],[14.8,6414],[16.6,6498],[35,6582],[52.3,6665],[63,6748],[68.8,6831],[71,6915],[70.3,6998],[55.9,7081],[36.3,7165],[16.5,7248],[5.8,7331]]",1,0,684.215,685.882,0.116659363,1.005,"[{""rating"":0.11665936251071818,""responseTime"":1.0049999999999955}]",space,1.151,,685.882,Partially,50,685.889,,,[],,,,0,4,4,4,1,audio/Narrative7Situation4.wav,audio/Narrative8Situation4.wav,audio/Narrative5Situation4.wav,audio/Narrative6Situation4.wav,3,3,1,2,,,,,,,,,,,,,,,,,,,,,,,,,,,,,,,,,,,,,
,,,,,,6318c6b8dd3d07c0fb9f0d18,2024-02-08_15h03.20.271,group3.1-3.2-social-tom,2023.2.2,MacIntel,60.60606061,65c5074098b851296ff0b7ed,65c5414c8ac3251cee2b9c8a,,,,,,,,,,,,,,,,,,,,,,,,,,,,,685.889,1,audio/Narrative7Situation5.wav,690.898,,690.898,699.382,"[[1.8,2834],[3.3,2916],[4.7,3000],[5.1,3084],[5.8,3167],[9.2,3250],[10.2,3332],[10.2,3416],[10.2,3499],[10.2,3582],[10.2,3667],[10.2,3750],[8.4,3831],[4.3,3917],[3.7,4000],[2.4,4084],[1.5,4167],[1.5,4249],[0.3,4332]]",1,0,699.382,701.198,0.244507983,1.004,"[{""rating"":0.24450798333344737,""responseTime"":1.004000000000019}]",space,1.285,,701.198,Partially,50,701.204,,,[],,,,0,5,5,5,1,audio/Narrative7Situation5.wav,audio/Narrative8Situation5.wav,audio/Narrative5Situation5.wav,audio/Narrative6Situation5.wav,5,2,5,2,,,,,,,,,,,,,,,,,,,,,,,,,,,,,,,,,,,,,
,,,,,,6318c6b8dd3d07c0fb9f0d18,2024-02-08_15h03.20.271,group3.1-3.2-social-tom,2023.2.2,MacIntel,60.60606061,65c5074098b851296ff0b7ed,65c5414c8ac3251cee2b9c8a,,,,,,,,,,,,,,,,,,,,,,,,,,,,,701.204,1,audio/Narrative7Situation6.wav,704.214,,704.214,714.183,"[[999,1],[999,85],[999,167],[999,250],[999,333],[999,417],[999,500],[999,583],[999,668],[2,2168],[6.1,2250],[12.7,2333],[25.3,2418],[41.2,2500],[60.1,2583],[70.7,2668],[75.3,2750],[78.5,2835],[81.3,2918],[83.4,3000],[86.3,3085],[89.9,3167],[95.9,3250],[100,3335],[100,3417],[100,3500],[100,3583],[100,3667],[100,3750],[100,3833],[100,3918],[100,4000],[100,4083],[100,4168],[100,4250],[100,4332],[100,4417],[100,4500],[100,4583],[100,4667],[100,4750],[100,4835],[100,4918],[100,5000],[100,5085],[100,5168],[100,5250],[100,5333],[100,5418],[100,5500],[100,5583],[100,5665],[100,5750],[100,5832],[100,5917],[100,6000],[100,6083],[100,6167],[100,6250],[100,6333],[100,6417],[100,6500],[100,6583],[100,6667],[100,6750],[100,6833],[100,6918],[100,7000],[100,7083],[100,7168],[100,7250],[100,7333],[100,7417],[100,7500],[100,7582],[100,7668],[100,7750],[100,7835],[100,7917],[100,8000],[100,8083],[100,8167],[100,8250],[100,8332],[100,8418],[100,8500],[100,8583],[100,8667],[100,8750],[100,8833],[100,8917],[100,9000],[100,9085],[100,9168],[100,9250],[100,9333],[100,9418],[100,9500],[100,9583],[100,9668],[100,9750],[100,9835],[100,9917]]",1,0,714.183,715.549,99.96643223,0.988,"[{""rating"":99.96643222506395,""responseTime"":0.9879999999999427}]",space,0.836,,715.549,Definitely yes,100,715.556,,,[],,,,0,6,6,6,1,audio/Narrative7Situation6.wav,audio/Narrative8Situation6.wav,audio/Narrative5Situation6.wav,audio/Narrative6Situation6.wav,3,2,3,2,,,,,,,,,,,,,,,,,,,,,,,,,,,,,,,,,,,,,
,,,,,,6318c6b8dd3d07c0fb9f0d18,2024-02-08_15h03.20.271,group3.1-3.2-social-tom,2023.2.2,MacIntel,60.60606061,65c5074098b851296ff0b7ed,65c5414c8ac3251cee2b9c8a,,,,,,,,,,,,,,,,,,,,,,,,,,,,,715.556,1,audio/Narrative7Situation7.wav,720.565,,720.565,737.752,"[[99.6,1500],[98.8,1583],[98.5,1667],[98.5,1750],[98.5,1832],[98.5,1915],[98.5,2000],[98.6,2083],[99.1,2167],[99.5,2249],[99.6,2333],[99.9,2417],[100,2500],[100,2582],[100,2667],[100,2750],[100,2832],[100,2917],[100,3000],[100,3082],[100,3165],[100,3250],[100,3333],[100,3417],[100,3500],[100,3582],[100,3667],[100,3750],[100,3833],[100,3915],[100,4000],[100,4083],[100,4167],[100,4250],[100,4332],[100,4417],[100,4500],[100,4583],[100,4667],[100,4750],[100,4833],[100,4917],[100,5000],[100,5082],[100,5167],[100,5250],[100,5332],[100,5417],[100,5500],[100,5582],[100,5667],[100,5750],[100,5832],[100,5915],[100,6000],[100,6082],[100,6167],[100,6250],[100,6333],[100,6417],[100,6500],[100,6582],[100,6667],[100,6750],[100,6832],[100,6917],[100,7000],[100,7083],[100,7167],[100,7250],[100,7332],[100,7417],[100,7500],[100,7583],[100,7667],[100,7750],[100,7833],[100,7917],[100,8000],[100,8083],[100,8167],[100,8250],[100,8333],[100,8417],[100,8500],[100,8582],[100,8667],[100,8750],[100,8833],[100,8917],[100,9000],[100,9083],[100,9167],[100,9250],[100,9333],[100,9417],[100,9500],[100,9583],[100,9667],[100,9750],[100,9833],[100,9915],[100,10000],[100,10082],[100,10167],[100,10250],[100,10333],[100,10417],[100,10500],[100,10582],[100,10667],[100,10750],[100,10832],[100,10917],[100,11000],[100,11083],[100,11167],[100,11250],[100,11331],[100,11417],[100,11500],[100,11583],[100,11667],[100,11750],[100,11833],[100,11915],[100,12000],[100,12083],[100,12167],[100,12250],[100,12332],[100,12417],[100,12500],[100,12583],[100,12667],[100,12750],[100,12833],[100,12917],[100,13000],[100,13082],[100,13167],[100,13250],[100,13333],[100,13417],[100,13500],[100,13583],[100,13667],[100,13750],[100,13832],[100,13917],[100,14000],[100,14083],[100,14167],[100,14250],[100,14333],[100,14417],[100,14500],[100,14583],[100,14667],[100,14750],[100,14833],[100,14917],[100,15000],[100,15083],[100,15165],[100,15250],[100,15333],[100,15417],[100,15500],[100,15583],[100,15667],[100,15750],[100,15833],[100,15918],[100,16000],[100,16083],[100,16167],[100,16250],[100,16333],[100,16417],[100,16500],[100,16583],[100,16667],[100,16750],[100,16832],[100,16917],[100,17000],[100,17083],[100,17168]]",1,0,737.753,739.166,99.58288636,0.982,"[{""rating"":99.58288636259573,""responseTime"":0.9819999999999709}]",space,0.887,,739.166,Not at all,0,739.174,,,[],,,,0,7,7,7,1,audio/Narrative7Situation7.wav,audio/Narrative8Situation7.wav,audio/Narrative5Situation7.wav,audio/Narrative6Situation7.wav,5,3,4,5,,,,,,,,,,,,,,,,,,,,,,,,,,,,,,,,,,,,,
,,,,,,6318c6b8dd3d07c0fb9f0d18,2024-02-08_15h03.20.271,group3.1-3.2-social-tom,2023.2.2,MacIntel,60.60606061,65c5074098b851296ff0b7ed,65c5414c8ac3251cee2b9c8a,,,,,,,,,,,,,,,,,,,,,,,,,,,,,739.174,1,audio/Narrative7Situation8.wav,741.183,,741.183,751.217,"[[99.9,1498],[100,2082],[100,2166],[100,2248],[100,2332],[100,2415],[99.7,2500],[99.7,2581],[99.7,2665],[99.7,2750],[99.7,2831],[99.7,2915],[99.7,2998],[99.7,3082],[99.7,3165],[99.7,3248],[99.7,3332],[99.7,3415],[99.7,3498],[99.7,3582],[99.7,3665],[99.7,3750],[99.7,3832],[99.7,3915],[99.7,4000],[99.7,4081],[99.7,4165],[99.7,4247],[99.7,4331],[99.7,4415],[99.7,4498],[99.7,4582],[99.7,4665],[99.7,4750],[99.7,4832],[99.7,4915],[99.7,4998],[99.7,5082],[99.7,5165],[99.7,5250],[99.7,5331],[99.7,5415],[99.7,5498],[99.7,5582],[99.7,5665],[99.7,5748],[99.7,5832],[99.7,5916],[99.7,6000],[99.7,6082],[99.7,6165],[99.7,6248],[99.7,6332],[99.7,6415],[99.7,6498],[99.7,6582],[99.7,6665],[99.7,6748],[99.7,6832],[99.7,6915],[99.7,6998],[99.7,7082],[99.7,7165],[99.7,7248],[99.7,7331],[99.7,7415],[99.7,7497],[99.7,7582],[99.7,7666],[99.7,7748],[99.7,7831],[99.7,7915],[99.7,7998],[99.7,8081],[99.7,8165],[99.7,8248],[99.7,8331],[99.7,8415],[99.7,8500],[99.7,8582],[99.7,8665],[99.7,8750],[99.7,8831],[99.7,8915],[99.7,9000],[99.7,9081],[99.7,9164],[99.7,9248],[99.7,9332],[99.7,9415],[99.7,9498],[99.7,9582],[99.7,9665],[99.7,9750],[99.7,9831],[99.7,9915],[99.7,10000]]",1,0,751.217,752.349,99.8385836,0.821,"[{""rating"":99.83858360424121,""responseTime"":0.8210000000000264}]",space,0.605,,752.349,Partially,50,752.355,,,[],,,,0,8,8,8,1,audio/Narrative7Situation8.wav,audio/Narrative8Situation8.wav,audio/Narrative5Situation8.wav,audio/Narrative6Situation8.wav,2,3,3,5,,,,,,,,,,,,,,,,,,,,,,,,,,,,,,,,,,,,,
,,,,,,6318c6b8dd3d07c0fb9f0d18,2024-02-08_15h03.20.271,group3.1-3.2-social-tom,2023.2.2,MacIntel,60.60606061,65c5074098b851296ff0b7ed,65c5414c8ac3251cee2b9c8a,,,,,,,,,,,,,,,,,,,,,,,,,,,,,752.355,1,audio/Narrative7Situation9.wav,754.366,,754.366,763.017,"[[97.4,832],[93.9,916],[93.4,1000],[93.2,1082],[93.2,1166],[93.2,1250],[93.2,1332],[93.9,1416],[95,1500],[96.4,1583],[99.2,1666],[100,1750],[100,1833],[100,1915],[100,2000],[100,2082],[100,2165],[100,2250],[100,2333],[100,2416],[100,2500],[100,2582],[100,2665],[100,2750],[100,2832],[100,2916],[100,3000],[100,3082],[100,3166],[100,3250],[100,3333],[100,3415],[100,3500],[100,3583],[100,3665],[100,3750],[100,3832],[100,3915],[100,4000],[100,4082],[100,4166],[100,4250],[100,4333],[100,4415],[100,4500],[100,4582],[100,4666],[100,4750],[100,4832],[100,4916],[100,5000],[100,5082],[100,5165],[100,5250],[100,5338],[100,5416],[100,5500],[100,5583],[100,5666],[100,5750],[100,5831],[100,5915],[100,6000],[100,6082],[100,6166],[100,6250],[100,6332],[100,6416],[100,6500],[100,6583],[100,6664],[100,6750],[100,6833],[100,6915],[100,7000],[100,7082],[100,7166],[100,7250],[100,7332],[100,7416],[100,7500],[100,7582],[100,7666],[100,7750],[100,7833],[100,7916],[100,8000],[100,8083],[100,8168],[100,8250],[100,8332],[100,8416],[100,8500],[100,8583]]",1,0,763.018,764.016,99.8385836,0.655,"[{""rating"":99.83858360424121,""responseTime"":0.6549999999999727}]",space,0.468,,764.017,Not at all,0,764.021,,,[],,,,0,9,9,9,1,audio/Narrative7Situation9.wav,audio/Narrative8Situation9.wav,audio/Narrative5Situation9.wav,audio/Narrative6Situation9.wav,2,3,3,4,,,,,,,,,,,,,,,,,,,,,,,,,,,,,,,,,,,,,
,,,,,,6318c6b8dd3d07c0fb9f0d18,2024-02-08_15h03.20.271,group3.1-3.2-social-tom,2023.2.2,MacIntel,60.60606061,65c5074098b851296ff0b7ed,65c5414c8ac3251cee2b9c8a,,,,,,,,,,,,,,,,,,,,,,,,,,,,,764.022,1,audio/Narrative8Situation1.wav,769.035,,769.036,784.967,"[[99.4,1496],[98.8,1580],[98.7,1663],[98.7,1746],[99,1830],[99,1913],[99.1,1995],[99.2,2080],[99.4,2163],[99.9,2246],[100,2330],[100,2413],[100,2495],[100,2580],[100,2663],[100,2746],[100,2831],[100,2913],[100,2996],[100,3080],[100,3163],[100,3246],[100,3330],[100,3413],[100,3496],[100,3580],[100,3663],[100,3745],[100,3830],[100,3913],[100,3996],[100,4080],[100,4163],[100,4246],[100,4330],[100,4413],[100,4496],[100,4580],[100,4663],[100,4746],[100,4830],[100,4913],[100,4996],[100,5078],[100,5163],[100,5246],[100,5330],[100,5413],[100,5496],[100,5581],[100,5663],[100,5746],[100,5830],[100,5913],[100,5996],[100,6080],[100,6163],[100,6246],[100,6330],[100,6413],[100,6496],[100,6581],[100,6663],[100,6746],[100,6830],[100,6913],[100,6996],[100,7080],[100,7163],[100,7246],[100,7331],[100,7413],[100,7496],[100,7581],[100,7663],[100,7746],[100,7830],[100,7913],[100,7996],[100,8080],[100,8163],[100,8246],[100,8331],[100,8413],[100,8496],[100,8580],[100,8663],[100,8746],[100,8830],[100,8913],[100,8996],[100,9081],[100,9163],[100,9245],[100,9330],[100,9413],[100,9498],[100,9581],[100,9663],[100,9746],[100,9831],[100,9913],[100,9996],[100,10081],[100,10163],[100,10246],[100,10330],[100,10413],[100,10496],[100,10580],[100,10663],[100,10745],[100,10830],[100,10913],[100,10996],[100,11080],[100,11163],[100,11246],[100,11331],[100,11413],[100,11496],[100,11580],[100,11663],[100,11746],[100,11830],[100,11913],[100,11998],[100,12080],[100,12163],[100,12248],[100,12331],[100,12413],[100,12496],[100,12580],[100,12663],[100,12746],[100,12830],[100,12913],[100,12996],[100,13081],[100,13163],[100,13248],[100,13331],[100,13413],[100,13498],[100,13580],[100,13663],[100,13746],[100,13831],[100,13913],[100,13996],[100,14080],[100,14163],[100,14248],[100,14331],[100,14413],[100,14496],[100,14581],[100,14663],[100,14746],[100,14830],[100,14913],[100,14996],[100,15080],[100,15163],[100,15246],[100,15331],[100,15413],[100,15496],[100,15580],[100,15663],[100,15746],[100,15830],[100,15913]]",1,0,784.968,793.401,99.96643223,0.788,"[{""rating"":99.96643222506395,""responseTime"":0.7880000000000109}]",space,7.9,,793.401,Definitely yes,100,793.41,,,[],,,,0,10,10,10,1,audio/Narrative8Situation1.wav,audio/Narrative7Situation1.wav,audio/Narrative6Situation1.wav,audio/Narrative5Situation1.wav,5,2,2,5,,,,,,,,,,,,,,,,,,,,,,,,,,,,,,,,,,,,,
,,,,,,6318c6b8dd3d07c0fb9f0d18,2024-02-08_15h03.20.271,group3.1-3.2-social-tom,2023.2.2,MacIntel,60.60606061,65c5074098b851296ff0b7ed,65c5414c8ac3251cee2b9c8a,,,,,,,,,,,,,,,,,,,,,,,,,,,,,793.411,1,audio/Narrative8Situation2.wav,796.417,,796.418,806.535,"[[999,1],[999,81],[999,165],[999,249],[55.1,1166],[55.4,1249],[55.8,1333],[56.1,1416],[57.3,1498],[62,1583],[65.1,1666],[65.3,1749],[65.3,1831],[65.3,1916],[65.3,1999],[65.3,2081],[65.3,2165],[65.3,2248],[63.3,2333],[60.2,2415],[59.7,2499],[59.7,2584],[59.7,2665],[59.3,2749],[58.8,2831],[58.8,2916],[58.8,2998],[58.8,3081],[58.8,3166],[59.2,3249],[63,3333],[65,3416],[65.7,3499],[66,3581],[66,3665],[66,3749],[61.3,3833],[47.2,3916],[42.2,3999],[41.7,4081],[41.7,4165],[42.2,4249],[43.4,4333],[43.5,4415],[43.5,4499],[43.5,4581],[43.5,4665],[45.3,4750],[51.7,4831],[55.6,4915],[56.8,4999],[57.2,5081],[57.2,5165],[56.6,5248],[52.7,5331],[48.3,5416],[44.6,5499],[39.6,5581],[35.2,5666],[31.1,6499],[31.1,6581],[27.6,6666],[23.3,6750],[17.8,6831],[8.3,6916],[5.2,7000],[5.2,7083],[6.8,7167],[13.6,7248],[20.7,7333],[28.9,7416],[39.8,7499],[60.1,7583],[71.1,7665],[71.9,7749],[69.6,7833],[62.1,7915],[53.7,7999],[52.3,8081],[52.6,8166],[55.2,8249],[59.2,8333],[61.3,8416],[61.5,8500],[62.4,8583],[63.8,8666],[64.1,8749],[64.1,8831],[64.1,8915],[64.1,8999],[64.1,9083],[64.1,9165],[64.1,9249],[64.1,9333],[64.1,9416],[70.3,9500],[87.5,9583],[93.6,9666],[96.5,9749],[99.4,9833],[100,9916],[100,9999],[100,10081]]",1,0,806.536,808.367,99.58288636,1.085,"[{""rating"":99.58288636259573,""responseTime"":1.0849999999999227}]",space,1.3,,808.367,Definitely yes,100,808.371,,,[],,,,0,11,11,11,1,audio/Narrative8Situation2.wav,audio/Narrative7Situation2.wav,audio/Narrative6Situation2.wav,audio/Narrative5Situation2.wav,3,3,3,3,,,,,,,,,,,,,,,,,,,,,,,,,,,,,,,,,,,,,
,,,,,,6318c6b8dd3d07c0fb9f0d18,2024-02-08_15h03.20.271,group3.1-3.2-social-tom,2023.2.2,MacIntel,60.60606061,65c5074098b851296ff0b7ed,65c5414c8ac3251cee2b9c8a,,,,,,,,,,,,,,,,,,,,,,,,,,,,,808.372,1,audio/Narrative8Situation3.wav,812.384,,812.384,834.753,"[[99.5,1084],[98.6,1167],[97.8,1250],[97.8,1333],[97.8,1418],[97.8,1500],[97.8,1583],[97.8,1667],[97.8,1750],[97.8,1835],[97.8,1917],[97.8,2000],[97.8,2081],[97.8,2166],[97.8,2250],[97.8,2333],[97.8,2416],[97.8,2500],[97.8,2583],[97.8,2666],[97.8,2750],[97.8,2834],[97.8,2917],[97.8,3000],[97.8,3083],[97.8,3167],[97.8,3249],[98.2,3333],[99.6,3417],[99.9,3499],[99.9,3583],[99.9,3667],[99.9,3749],[99.9,3833],[99.9,3917],[99.9,4000],[99.9,4083],[99.9,4166],[99.9,4249],[99.9,4334],[99.9,4417],[99.9,4500],[99.9,4583],[99.9,4667],[99.9,4750],[99.9,4833],[99.9,4916],[99.9,5000],[99.9,5084],[99.9,5167],[99.9,5250],[99.9,5333],[99.9,5416],[99.9,5499],[99.9,5583],[99.9,5666],[99.9,5750],[99.9,5834],[99.9,5916],[99.9,6000],[99.9,6083],[99.9,6166],[99.9,6250],[99.9,6333],[99.9,6416],[99.9,6499],[99.9,6583],[99.9,6667],[99.9,6750],[99.9,6834],[99.9,6916],[99.9,7000],[99.9,7083],[99.9,7167],[99.9,7249],[99.9,7334],[99.9,7415],[99.9,7500],[99.9,7583],[99.9,7666],[99.9,7750],[99.9,7833],[99.9,7917],[99.9,8000],[99.9,8083],[99.9,8166],[99.9,8250],[99.9,8333],[99.9,8416],[99.9,8500],[99.9,8583],[99.9,8667],[99.9,8750],[99.9,8834],[99.9,8916],[99.9,8999],[99.9,9084],[99.9,9167],[99.9,9250],[99.9,9333],[99.9,9417],[99.9,9500],[99.9,9584],[99.9,9667],[99.9,9750],[99.9,9833],[99.9,9915],[99.9,10000],[99.9,10083],[99.9,10166],[99.9,10250],[99.9,10333],[99.9,10416],[99.9,10500],[99.9,10584],[99.9,10667],[99.9,10750],[99.9,10834],[99.9,10916],[99.9,10999],[99.9,11083],[99.9,11166],[99.9,11250],[99.9,11334],[99.9,11417],[99.9,11501],[99.9,11583],[99.9,11666],[99.9,11750],[99.9,11833],[99.9,11917],[99.9,12000],[99.9,12084],[99.9,12167],[99.9,12250],[99.9,12333],[99.9,12417],[99.9,12500],[99.9,12583],[99.9,12666],[99.9,12750],[99.9,12833],[99.9,12917],[99.9,13000],[99.9,13083],[99.9,13167],[99.9,13250],[99.9,13334],[99.9,13416],[99.9,13500],[99.9,13583],[99.9,13667],[99.9,13751],[99.9,13834],[99.9,13917],[99.9,14000],[99.9,14084],[99.9,14166],[99.9,14250],[99.9,14334],[99.9,14416],[99.9,14500],[99.9,14583],[99.9,14666],[99.9,14750],[99.9,14833],[99.9,14916],[99.9,15000],[99.9,15084],[99.9,15167],[99.9,15251],[99.9,15334],[99.9,15416],[99.9,15500],[99.9,15583],[99.9,15667],[99.9,15750],[99.9,15833],[99.9,15916],[99.9,16000],[99.9,16084],[99.9,16166],[99.9,16250],[99.9,16334],[99.9,16417],[99.9,16500],[99.9,16583],[99.9,16667],[99.9,16750],[99.9,16834],[99.9,16917],[99.9,17000],[99.9,17083],[99.9,17166],[99.9,17250],[99.9,17333],[99.9,17417],[99.9,17501],[99.9,17583],[99.9,17665],[99.9,17750],[99.9,17834],[99.9,17917],[99.9,18000],[99.9,18083],[99.9,18167],[99.9,18250],[99.9,18333],[99.9,18416],[99.9,18501],[99.9,18584],[99.9,18666],[99.9,18750],[99.9,18833],[99.9,18917],[99.9,18999],[99.9,19081],[99.9,19167],[99.9,19250],[99.9,19334],[99.9,19417],[99.9,19500],[99.9,19584],[99.9,19667],[99.9,19750],[99.9,19833],[99.9,19917],[99.9,19999],[99.9,20083],[99.9,20167],[99.9,20250],[99.9,20333],[99.9,20417],[99.9,20503],[99.9,20583],[99.9,20667],[99.9,20749],[99.9,20833],[99.9,20917],[99.9,21000],[99.9,21084],[99.9,21167],[99.9,21251],[99.9,21334],[99.9,21417],[99.9,21500],[99.9,21584],[99.9,21666],[99.9,21750],[99.9,21834],[99.9,21916],[99.9,22000],[99.9,22083],[99.9,22167],[99.9,22251],[99.9,22333]]",1,0,834.754,837.701,99.8385836,2.148,"[{""rating"":99.83858360424121,""responseTime"":2.1480000000000246}]",space,2.417,,837.701,Partially,50,837.708,,,[],,,,0,12,12,12,1,audio/Narrative8Situation3.wav,audio/Narrative7Situation3.wav,audio/Narrative6Situation3.wav,audio/Narrative5Situation3.wav,4,8,5,3,,,,,,,,,,,,,,,,,,,,,,,,,,,,,,,,,,,,,
,,,,,,6318c6b8dd3d07c0fb9f0d18,2024-02-08_15h03.20.271,group3.1-3.2-social-tom,2023.2.2,MacIntel,60.60606061,65c5074098b851296ff0b7ed,65c5414c8ac3251cee2b9c8a,,,,,,,,,,,,,,,,,,,,,,,,,,,,,837.708,1,audio/Narrative8Situation4.wav,840.718,,840.718,854.902,"[[100,1250],[100,1332],[100,1417],[100,1500],[100,1581],[100,1667],[100,1750],[100,1832],[100,1914],[100,1999],[78.3,2165],[67.5,2250],[61,2332],[56.5,2417],[56.5,2499],[56.5,2581],[66.6,2664],[89.1,2750],[100,2833],[100,3332],[100,3415],[100,3500],[100,3582],[100,3667],[100,3750],[100,3832],[100,3917],[100,4000],[100,4082],[100,4164],[100,4249],[100,4333],[100,4417],[100,4500],[100,4582],[100,4667],[100,4750],[100,4831],[100,4915],[100,5000],[100,5082],[100,5165],[100,5250],[100,5332],[100,5417],[100,5500],[100,5582],[100,5667],[100,5750],[100,5831],[100,5915],[100,6000],[100,6082],[100,6167],[100,6250],[100,6332],[100,6415],[100,6500],[100,6581],[100,6665],[100,6750],[100,6832],[100,6915],[100,7000],[100,7082],[100,7167],[100,7250],[100,7331],[100,7417],[100,7500],[100,7582],[100,7665],[100,7750],[100,7832],[100,7915],[100,8000],[100,8082],[100,8165],[100,8250],[100,8333],[100,8417],[100,8500],[100,8582],[100,8667],[100,8750],[100,8832],[100,8915],[100,9000],[100,9082],[100,9167],[100,9250],[100,9331],[100,9417],[100,9500],[100,9581],[100,9667],[100,9750],[100,9832],[100,9917],[100,10000],[100,10083],[100,10167],[100,10250],[100,10332],[100,10417],[100,10500],[100,10583],[100,10667],[100,10750],[100,10832],[100,10917],[100,11000],[100,11081],[100,11167],[100,11250],[100,11332],[100,11417],[100,11500],[100,11582],[100,11667],[100,11750],[100,11831],[100,11917],[100,12000],[100,12082],[100,12165],[100,12250],[100,12333],[100,12417],[100,12500],[100,12582],[100,12667],[100,12750],[100,12832],[100,12917],[100,13000],[100,13081],[100,13167],[100,13250],[100,13332],[100,13417],[100,13500],[100,13582],[100,13667],[100,13750],[100,13833],[100,13917],[100,14000],[100,14083],[100,14167]]",1,0,854.903,856.486,99.71073498,1.154,"[{""rating"":99.71073498341849,""responseTime"":1.15400000000011}]",space,1.051,,856.486,Partially,50,856.489,,,[],,,,0,13,13,13,1,audio/Narrative8Situation4.wav,audio/Narrative7Situation4.wav,audio/Narrative6Situation4.wav,audio/Narrative5Situation4.wav,3,3,2,1,,,,,,,,,,,,,,,,,,,,,,,,,,,,,,,,,,,,,
,,,,,,6318c6b8dd3d07c0fb9f0d18,2024-02-08_15h03.20.271,group3.1-3.2-social-tom,2023.2.2,MacIntel,60.60606061,65c5074098b851296ff0b7ed,65c5414c8ac3251cee2b9c8a,,,,,,,,,,,,,,,,,,,,,,,,,,,,,856.489,1,audio/Narrative8Situation5.wav,858.502,,858.502,866.755,"[[100,1165],[100,1250],[100,1333],[100,1415],[100,1500],[100,1583],[100,1667],[100,1750],[100,1832],[100,1915],[99.5,2000],[99.1,2082],[99.1,2165],[99.1,2250],[99.1,2331],[99.1,2415],[99.1,2500],[99.1,2582],[99.1,2665],[99.1,2750],[98.5,2832],[97.6,2915],[97.6,2999],[97.6,3081],[98.2,3164],[99,3249],[99.4,3333],[99.5,3417],[99.5,3500],[99.6,3581],[99.9,3665],[99.9,3749],[99.9,3832],[99.9,3915],[99.9,3999],[99.9,4081],[99.9,4165],[99.9,4250],[99.9,4332],[99.9,4415],[99.9,4499],[99.9,4582],[99.9,4667],[99.9,4749],[99.9,4833],[99.9,4917],[99.9,5000],[99.9,5082],[99.9,5165],[99.9,5250],[99.9,5332],[99.9,5417],[99.9,5500],[99.9,5582],[99.9,5667],[99.9,5750],[99.9,5832],[99.9,5915],[99.9,6000],[99.9,6082],[99.9,6165],[99.9,6250],[99.9,6332],[99.9,6417],[99.9,6500],[99.9,6582],[99.9,6665],[99.9,6750],[99.9,6832],[99.9,6915],[99.9,7000],[99.9,7082],[99.9,7167],[99.9,7249],[99.9,7332],[99.9,7415],[99.9,7499],[99.9,7583],[99.9,7667],[99.9,7750],[99.9,7832],[99.9,7917],[99.9,8000],[99.9,8082],[99.9,8167],[99.9,8250]]",1,0,866.756,867.968,99.96643223,0.799,"[{""rating"":99.96643222506395,""responseTime"":0.7990000000000919}]",space,0.684,,867.969,Not at all,0,871.469,0.244507983,3.052,"[{""rating"":0.24450798333344737,""responseTime"":3.0519999999999072}]",space,2.983,,0,14,14,14,1,audio/Narrative8Situation5.wav,audio/Narrative7Situation5.wav,audio/Narrative6Situation5.wav,audio/Narrative5Situation5.wav,2,5,2,5,,,,,,,,,,,,,,,,,,,,,,,,,,,,,,,,,,,,,
,,,,,,6318c6b8dd3d07c0fb9f0d18,2024-02-08_15h03.20.271,group3.1-3.2-social-tom,2023.2.2,MacIntel,60.60606061,65c5074098b851296ff0b7ed,65c5414c8ac3251cee2b9c8a,,,,,,,,,,,,,,,,,,,,,,,,,,,,,871.47,1,audio/Narrative8Situation6.wav,873.485,,873.485,879.953,"[[0.9,1084],[11,1168],[20.2,1250],[26,1334],[48.6,1417],[80.7,1500],[90,1584],[90,1666],[90,1750],[90,1833],[90,1917],[99.9,2000],[100,2084],[100,2167],[100,2250],[100,2334],[100,2417],[100,2501],[100,2584],[100,2667],[100,2751],[100,2834],[100,2917],[100,3000],[100,3083],[100,3167],[100,3251],[100,3334],[100,3417],[100,3501],[100,3583],[100,3667],[100,3751],[100,3833],[100,3917],[100,4000],[100,4083],[100,4167],[100,4250],[100,4334],[100,4417],[100,4500],[100,4583],[100,4668],[100,4750],[100,4834],[100,4917],[100,5000],[100,5083],[100,5167],[100,5249],[100,5334],[100,5417],[100,5500],[100,5584],[100,5667],[100,5751],[100,5833],[100,5917],[100,6000],[100,6083],[100,6167],[100,6250],[100,6333],[100,6417]]",1,0,879.953,881.019,99.96643223,0.788,"[{""rating"":99.96643222506395,""responseTime"":0.7880000000000109}]",space,0.556,,881.019,Not at all,0,881.021,,,[],,,,0,15,15,15,1,audio/Narrative8Situation6.wav,audio/Narrative7Situation6.wav,audio/Narrative6Situation6.wav,audio/Narrative5Situation6.wav,2,3,2,3,,,,,,,,,,,,,,,,,,,,,,,,,,,,,,,,,,,,,
,,,,,,6318c6b8dd3d07c0fb9f0d18,2024-02-08_15h03.20.271,group3.1-3.2-social-tom,2023.2.2,MacIntel,60.60606061,65c5074098b851296ff0b7ed,65c5414c8ac3251cee2b9c8a,,,,,,,,,,,,,,,,,,,,,,,,,,,,,881.021,1,audio/Narrative8Situation7.wav,884.035,,884.035,896.12,"[[100,833],[100,1250],[95.7,1500],[97.2,1583],[98.8,1666],[99,1750],[99,1833],[99.2,1916],[99.4,2000],[99.5,2083],[99.7,2168],[99.9,2250],[99.9,2333],[99.9,2418],[99.9,2500],[99.9,2583],[99.9,2666],[99.9,2750],[99.9,2833],[99.9,2916],[99.9,3000],[99.9,3083],[100,3168],[100,3250],[100,3332],[100,3418],[100,3500],[100,3583],[100,3666],[100,3750],[100,3832],[100,3916],[100,4000],[100,4083],[100,4166],[100,4250],[100,4333],[100,4416],[100,4500],[100,4583],[100,4666],[100,4750],[100,4833],[100,4916],[100,5000],[100,5083],[100,5168],[100,5250],[100,5332],[97.7,5418],[81.1,5500],[77.2,5583],[77.1,5666],[77.7,5750],[82.1,5833],[92.2,5916],[96.7,6000],[97.4,6083],[97.4,6166],[97.4,6250],[96.7,6334],[96.4,6416],[96.4,6500],[96.9,6583],[98.5,6668],[99.7,6750],[100,6833],[100,6916],[100,7000],[100,7083],[100,7166],[100,7250],[100,7333],[99,7418],[99.5,7500],[100,7583],[100,7666],[100,7750],[100,7833],[100,7918],[100,8000],[100,8083],[100,8166],[100,8250],[100,8334],[100,8416],[100,8500],[100,8583],[100,8665],[100,8750],[100,8833],[100,8916],[100,9000],[100,9083],[100,9166],[100,9250],[100,9333],[100,9418],[100,9500],[100,9583],[100,9666],[100,9751],[100,9833],[100,9916],[100,10000],[100,10083],[100,10166],[100,10250],[100,10332],[100,10416],[100,10500],[100,10583],[100,10668],[100,10750],[100,10833],[100,10916],[100,11000],[100,11083],[100,11168],[100,11250],[100,11332],[100,11418],[100,11501],[100,11583],[100,11666],[100,11750],[100,11833],[100,11918],[100,12000],[100,12083]]",1,0,896.12,897.853,99.45503774,1.187,"[{""rating"":99.45503774177303,""responseTime"":1.1870000000000118}]",space,1.191,,897.853,Not at all,0,897.856,,,[],,,,0,16,16,16,1,audio/Narrative8Situation7.wav,audio/Narrative7Situation7.wav,audio/Narrative6Situation7.wav,audio/Narrative5Situation7.wav,3,5,5,4,,,,,,,,,,,,,,,,,,,,,,,,,,,,,,,,,,,,,
,,,,,,6318c6b8dd3d07c0fb9f0d18,2024-02-08_15h03.20.271,group3.1-3.2-social-tom,2023.2.2,MacIntel,60.60606061,65c5074098b851296ff0b7ed,65c5414c8ac3251cee2b9c8a,,,,,,,,,,,,,,,,,,,,,,,,,,,,,897.856,1,audio/Narrative8Situation8.wav,900.871,,900.872,913.737,"[[100,1163],[100,1247],[100,1329],[100,1413],[100,1496],[100,1581],[100,1663],[100,1747],[100,1831],[100,1913],[100,1997],[100,2079],[100,2163],[100,2245],[100,2331],[100,2413],[100,2496],[100,2578],[100,2663],[100,2746],[100,2829],[100,2913],[100,2996],[100,3079],[100,3163],[100,3246],[100,3328],[100,3413],[100,3496],[100,3579],[100,3663],[100,3745],[100,3831],[100,3913],[100,3996],[100,4079],[100,4163],[100,4246],[100,4329],[100,4413],[100,4497],[100,4581],[100,4663],[100,4746],[100,4831],[100,4913],[100,4997],[100,5081],[100,5163],[100,5246],[100,5329],[100,5413],[100,5496],[100,5581],[100,5663],[100,5746],[100,5831],[100,5913],[100,5996],[100,6079],[100,6163],[100,6246],[100,6331],[100,6413],[100,6496],[100,6581],[100,6663],[100,6747],[100,6829],[100,6913],[100,6997],[100,7079],[100,7163],[100,7246],[100,7329],[100,7413],[100,7496],[100,7579],[100,7663],[100,7746],[100,7831],[100,7913],[100,7996],[100,8079],[100,8163],[100,8247],[100,8329],[100,8413],[100,8496],[100,8581],[100,8663],[100,8746],[100,8831],[100,8913],[100,8996],[100,9081],[100,9163],[100,9245],[100,9329],[100,9415],[100,9496],[100,9581],[100,9663],[100,9746],[100,9831],[100,9913],[100,9997],[100,10081],[100,10163],[100,10247],[100,10329],[100,10413],[100,10497],[100,10581],[100,10663],[100,10747],[100,10831],[100,10913],[100,10996],[100,11081],[100,11163],[100,11245],[100,11331],[100,11413],[100,11497],[100,11581],[100,11663],[100,11746],[100,11831],[100,11913],[100,11996],[100,12079],[100,12163],[100,12247],[100,12329],[100,12413],[100,12496],[100,12581],[100,12663],[100,12746],[100,12831]]",1,0,913.738,915.804,99.8385836,1.621,"[{""rating"":99.83858360424121,""responseTime"":1.620999999999981}]",space,1.534,,915.804,Definitely yes,100,915.811,,,[],,,,0,17,17,17,1,audio/Narrative8Situation8.wav,audio/Narrative7Situation8.wav,audio/Narrative6Situation8.wav,audio/Narrative5Situation8.wav,3,2,5,3,,,,,,,,,,,,,,,,,,,,,,,,,,,,,,,,,,,,,
,,,,,,6318c6b8dd3d07c0fb9f0d18,2024-02-08_15h03.20.271,group3.1-3.2-social-tom,2023.2.2,MacIntel,60.60606061,65c5074098b851296ff0b7ed,65c5414c8ac3251cee2b9c8a,,,,,,,,,,,,,,,,,,,,,,,,,,,,,915.812,1,audio/Narrative8Situation9.wav,918.82,,918.82,930.171,"[[100,1000],[100,1081],[100,1167],[100,1250],[100,1332],[100,1416],[100,1500],[99.7,1582],[99.2,1666],[99.1,1749],[99.1,1832],[99.1,1916],[99.1,1999],[99.1,2082],[99.1,2166],[99.1,2250],[99.5,2332],[99.9,2417],[100,2500],[100,2582],[100,2666],[100,2749],[100,2832],[100,2917],[100,2999],[100,3082],[100,3166],[100,3250],[100,3332],[100,3416],[100,3499],[100,3582],[100,3667],[100,3750],[100,3832],[100,3916],[100,4000],[100,4082],[100,4166],[100,4250],[100,4332],[100,4416],[100,4499],[100,4582],[100,4667],[100,4749],[100,4832],[100,4916],[100,4999],[100,5081],[100,5167],[100,5250],[100,5332],[100,5417],[100,5500],[100,5582],[100,5666],[100,5750],[100,5831],[100,5917],[100,6000],[100,6082],[100,6167],[100,6250],[100,6332],[100,6416],[100,6500],[100,6581],[100,6666],[100,6749],[100,6832],[100,6916],[100,7000],[100,7082],[100,7167],[100,7250],[100,7332],[100,7416],[100,7500],[100,7582],[100,7667],[100,7750],[100,7832],[100,7916],[100,7999],[100,8083],[100,8166],[100,8250],[100,8331],[100,8416],[100,8500],[100,8581],[100,8666],[100,8749],[100,8832],[100,8916],[100,9000],[100,9082],[100,9166],[100,9250],[100,9332],[100,9417],[100,9500],[99.6,9582],[99.4,9667],[99.4,9750],[99.4,9832],[99.7,9917],[100,10000],[100,10081],[100,10166],[100,10250],[99.9,10332],[99.5,10417],[99.4,10500],[99.4,10583],[99.9,10666],[100,10750],[100,10833],[100,10917],[99.6,11000],[99.6,11082],[99.6,11166],[99.6,11250],[99.6,11332]]",1,0,930.171,931.22,99.58288636,0.187,"[{""rating"":99.58288636259573,""responseTime"":0.18700000000001182}]",space,0.516,,931.22,Definitely yes,100,931.223,,,[],,,,0,18,18,18,1,audio/Narrative8Situation9.wav,audio/Narrative7Situation9.wav,audio/Narrative6Situation9.wav,audio/Narrative5Situation9.wav,3,2,4,3,,,,,,,,,,,,,,,,,,,,,,,,,,,,,,,,,,,,,
,,,,,,6318c6b8dd3d07c0fb9f0d18,2024-02-08_15h03.20.271,group3.1-3.2-social-tom,2023.2.2,MacIntel,60.60606061,65c5074098b851296ff0b7ed,65c5414c8ac3251cee2b9c8a,,,,,,,,,,,,,,,,,,,,,,,,,,,955.643,958.221,958.241,2,audio/Narrative13Situation2.wav,958.241,,958.241,987.988,"[[999,0],[999,78],[999,163],[999,245],[999,328],[999,413],[999,495],[999,579],[999,662],[999,746],[999,829],[999,913],[999,995],[999,1078],[999,1163],[999,1244],[999,1329],[999,1413],[999,1495],[999,1579],[999,1663],[999,1745],[999,1829],[999,1912],[999,1995],[999,2079],[88.7,2163],[90,2245],[91,2328],[92.3,2413],[93.9,2496],[95.3,2579],[95.8,2663],[96.4,2746],[97.6,2827],[98,2913],[98.5,2995],[99,3078],[99.6,3163],[100,3245],[100,3329],[100,3413],[100,3495],[100,3577],[100,3663],[100,3745],[100,3829],[100,3913],[100,3995],[100,4079],[100,4163],[100,4246],[100,4327],[100,4413],[100,4496],[100,4579],[100,4663],[100,4745],[100,4829],[100,4912],[100,4995],[100,5079],[100,5163],[100,5245],[100,5328],[100,5413],[100,5495],[100,5578],[100,5663],[100,5745],[100,5828],[100,5913],[100,5996],[100,6079],[100,6163],[100,6245],[100,6328],[100,6412],[100,6495],[100,6578],[100,6662],[100,6745],[100,6829],[100,6913],[100,6995],[100,7079],[100,7163],[100,7245],[100,7329],[100,7412],[100,7495],[100,7578],[100,7663],[100,7745],[100,7829],[100,7913],[100,7995],[100,8078],[100,8163],[100,8245],[100,8329],[100,8413],[100,8495],[100,8579],[100,8662],[100,8746],[100,8829],[100,8912],[100,8995],[100,9078],[100,9163],[100,9245],[100,9328],[100,9413],[100,9495],[100,9579],[100,9663],[100,9745],[100,9829],[100,9913],[100,9995],[100,10079],[100,10163],[100,10245],[100,10328],[100,10412],[100,10495],[100,10578],[100,10663],[100,10746],[100,10828],[100,10913],[100,10995],[100,11078],[100,11163],[100,11245],[100,11328],[100,11413],[100,11496],[100,11579],[100,11663],[100,11745],[100,11829],[100,11913],[100,11995],[100,12079],[100,12163],[100,12245],[100,12329],[100,12413],[100,12496],[100,12579],[100,12664],[100,12745],[100,12829],[100,12913],[100,12995],[100,13078],[100,13163],[100,13245],[100,13329],[100,13413],[100,13495],[100,13579],[100,13663],[100,13746],[100,13828],[100,13913],[100,13995],[100,14079],[100,14163],[100,14244],[100,14329],[100,14413],[100,14495],[100,14578],[100,14663],[100,14745],[100,14828],[100,14913],[100,14995],[100,15079],[100,15163],[100,15245],[100,15329],[100,15413],[99.9,15495],[99.9,15579],[99.7,15663],[99.4,15746],[98.2,15829],[98,15913],[98,15995],[98,16078],[98,16163],[98,16246],[98,16328],[98,16413],[98,16496],[98,16579],[98,16663],[98,16744],[97.6,16829],[93.9,16914],[88.6,16996],[83.2,17079],[80.3,17162],[78.8,17246],[77.4,17329],[75.6,17413],[73.3,17495],[68.5,17579],[67.5,17663],[67.5,17746],[67.5,17829],[67.5,17913],[64.7,17996],[51.4,18580],[50.8,18663],[49.5,18746],[48,18829],[46.9,18913],[46.9,18995],[46.8,19079],[44,19163],[30.3,19246],[18.2,19329],[17.8,19413],[17.8,19496],[17.8,19579],[17.8,19663],[17.8,19746],[16.5,19829],[14.5,19913],[13,19996],[12,20079],[11.3,20163],[10.7,20246],[10.4,20328],[10,20413],[9.6,20496],[9.2,20579],[9,20663],[8.8,20746],[8.8,20829],[8.2,20913],[7.7,20996],[7.5,21078],[7.5,21163],[7.5,21244],[7.4,21329],[7.3,21413],[7.3,21495],[7.2,21579],[6.8,21663],[6.3,21745],[5.6,21828],[4.3,21913],[3.6,21996],[2.9,22079],[2.4,22163],[1.8,22246],[0.6,22329],[0.3,22413],[0.1,22495],[0.1,22579],[1.7,22663],[3.8,22746],[5.1,22829],[6,22913],[6.8,22996],[7.8,23079],[9.2,23163],[10.6,23246],[13,23328],[13.2,23413],[13.2,23496],[13.2,23579],[13.2,23663],[13.2,23744],[13.2,23829],[13.2,23913],[13.2,23995],[13.2,24080],[13.7,24163],[13.9,24246],[14.3,24329],[15.1,24413],[16,24495],[17.1,24579],[18.8,24663],[20.8,24746],[23,24829],[25.1,24913],[26.7,24996],[28.5,25080],[30.9,25163],[33.9,25246],[35.5,25329],[35.7,25413],[35.7,25495],[35.7,25579],[35.7,25663],[35.7,25746],[35.7,25830],[35.7,25913],[35.7,25995],[35.7,26080],[35.8,26163],[35.8,26245],[35.8,26329],[35.8,26413],[35.8,26495],[35.8,26579],[35.7,26663],[34.9,26748],[32.6,26829],[32.1,26913],[31.7,26996],[30.1,27079],[30.1,27163],[30.1,27246],[29.7,27330],[21.1,27413],[15.1,27496],[12.9,27579],[11,27663],[9.8,27746],[9.8,27829],[9.8,27913],[10.1,27995],[10.2,28079],[10.2,28163],[10.2,28245],[10.2,28329],[10.2,28413],[10.2,28495],[10.2,28579],[10.2,28663],[10.2,28746],[10.2,28829],[10.2,28913],[10.2,28996],[10.6,29080],[10.6,29163],[10.6,29246],[10.6,29329],[10.6,29413],[10.6,29495],[10.6,29579],[10.6,29663],[10.6,29745]]",1,0,987.989,987.998,,,[],,,,987.998,Not at all,0,988.003,,,[],,,,0,0,0,0,1,audio/Narrative13Situation2.wav,audio/Narrative13Situation2.wav,audio/Narrative13Situation2.wav,audio/Narrative13Situation2.wav,2,2,2,2,,,931.223,955.639,space,23.891,,,,,,,,,,,,,,,,,,,,,,,,,,,,,,,
,,,,,,6318c6b8dd3d07c0fb9f0d18,2024-02-08_15h03.20.271,group3.1-3.2-social-tom,2023.2.2,MacIntel,60.60606061,65c5074098b851296ff0b7ed,65c5414c8ac3251cee2b9c8a,,,,,,,,,,,,,,,,,,,,,,,,,,,,,988.003,2,audio/Narrative5Situation1.wav,993.005,,993.005,1006.305,"[[10.1,1750],[10.2,1833],[10.4,1916],[17.8,2000],[56.4,2084],[97.2,2250],[100,2334],[100,2417],[100,2500],[100,2584],[100,2667],[100,2749],[96.9,2833],[94.2,2917],[89.6,3000],[88.5,3083],[90.4,3167],[99,3250],[100,3333],[100,3416],[100,3499],[100,3583],[100,3667],[100,3750],[100,3832],[100,3917],[100,4000],[100,4083],[100,4164],[100,4249],[100,4333],[100,4416],[100,4499],[100,4583],[100,4667],[100,4749],[100,4833],[100,4916],[100,4999],[100,5083],[100,5166],[100,5250],[100,5333],[100,5416],[100,5499],[100,5584],[100,5667],[100,5749],[100,5832],[100,5916],[100,6000],[100,6083],[100,6166],[100,6249],[100,6333],[100,6416],[100,6499],[100,6583],[100,6664],[100,6750],[100,6833],[100,6917],[100,7000],[100,7083],[100,7166],[100,7250],[100,7333],[100,7416],[100,7499],[100,7583],[100,7667],[100,7750],[90.2,7833],[58.2,7914],[44.8,8000],[42.8,8083],[42.7,8164],[42.7,8250],[45.9,8333],[49.4,8416],[49.5,8499],[49.9,8583],[58.6,8667],[62.8,8749],[63,8833],[62.3,8917],[52.4,8999],[49.2,9083],[49.2,9166],[49.2,9249],[49.2,9332],[49.2,9416],[49.2,9499],[49.2,9583],[49.2,9667],[49.2,9750],[49.2,9833],[49.2,9916],[49.2,10000],[49.2,10083],[49.2,10167],[49.2,10250],[49.2,10333],[65.6,10417],[97.8,10500],[100,10583],[100,10666],[100,10750],[100,10833],[100,10916],[100,11000],[100,11083],[100,11166],[100,11250],[100,11333],[100,11417],[100,11500],[100,11583],[100,11667],[100,11750],[100,11833],[100,11917],[100,12000],[100,12083],[100,12167],[100,12250],[100,12333],[100,12416],[100,12500],[100,12583],[100,12666],[100,12750],[100,12834],[100,12916],[100,13000],[100,13083],[100,13166],[100,13250]]",1,0,1006.306,1007.838,99.32718912,1.055,"[{""rating"":99.32718912095027,""responseTime"":1.0549999999998363}]",space,1.002,,1007.838,Partially,50,1007.844,,,[],,,,0,1,1,1,1,audio/Narrative7Situation1.wav,audio/Narrative8Situation1.wav,audio/Narrative5Situation1.wav,audio/Narrative6Situation1.wav,2,5,5,2,,,,,,,,,,,,,,,,,,,,,,,,,,,,,,,,,,,,,
,,,,,,6318c6b8dd3d07c0fb9f0d18,2024-02-08_15h03.20.271,group3.1-3.2-social-tom,2023.2.2,MacIntel,60.60606061,65c5074098b851296ff0b7ed,65c5414c8ac3251cee2b9c8a,,,,,,,,,,,,,,,,,,,,,,,,,,,,,1007.845,2,audio/Narrative5Situation2.wav,1010.855,,1010.855,1040.34,"[[99.5,1416],[98.5,1916],[100,2000],[100,2083],[100,2166],[100,2250],[100,2332],[100,2416],[100,2500],[100,2583],[100,2665],[100,2750],[100,2832],[100,2916],[100,3000],[100,3082],[100,3166],[100,3250],[100,3333],[100,3415],[100,3500],[100,3583],[100,3665],[100,3750],[100,3832],[100,3916],[100,4000],[100,4084],[100,4167],[100,4250],[100,4332],[100,4415],[100,4500],[100,4582],[100,4666],[100,4750],[100,4832],[100,4915],[100,5000],[100,5083],[100,5166],[100,5250],[100,5333],[100,5416],[100,5500],[100,5582],[100,5665],[100,5750],[100,5833],[100,5916],[100,6000],[100,6083],[100,6166],[100,6250],[100,6332],[100,6416],[100,6500],[100,6582],[100,6665],[100,6750],[100,6832],[100,6916],[100,7000],[100,7082],[100,7167],[100,7250],[100,7332],[100,7416],[100,7500],[100,7582],[100,7666],[100,7750],[100,7832],[100,7916],[100,7999],[100,8082],[100,8164],[100,8250],[100,8333],[100,8415],[100,8500],[100,8582],[100,8666],[100,8749],[100,8832],[100,8915],[100,9000],[100,9082],[100,9166],[100,9250],[100,9333],[100,9416],[100,9500],[100,9583],[100,9666],[100,9750],[100,9833],[100,9915],[100,10000],[100,10084],[100,10167],[99.5,10250],[99.4,10333],[97.4,10416],[93.4,10500],[90.8,10583],[88.9,10665],[87,10750],[84.4,10832],[80.7,10916],[77.6,11000],[75.4,11083],[75.1,11166],[75.1,11250],[75.1,11332],[75.1,11415],[71.1,11500],[55.4,11582],[52.2,11666],[50.9,11750],[50.1,11832],[49.9,11915],[49.9,11999],[49.9,12082],[49.9,12165],[49.9,12250],[50,12333],[50,12416],[51.4,12500],[54.5,12583],[66.9,12666],[73.7,12750],[73.9,12832],[73.9,12916],[73.9,13000],[73.9,13082],[73.9,13166],[73.9,13250],[74.3,13332],[77,13416],[78.8,13502],[78.8,13582],[78.8,13666],[78.8,13750],[78.8,13833],[80.3,13916],[81.6,14000],[81.6,14083],[81.6,14166],[81.6,14250],[81.6,14333],[82,14416],[87.3,14500],[88.2,14583],[88.2,14666],[88.2,14750],[88.2,14832],[87.9,14915],[84.7,15000],[83.8,15082],[83.8,15166],[83.8,15250],[83.8,15332],[83.9,15416],[84.5,15500],[87.2,15583],[89.8,15666],[90.8,15750],[91.8,15833],[92.5,15916],[93,16000],[93,16082],[93,16166],[93,16250],[93,16333],[93,16416],[93,16500],[93,16583],[93,16666],[93,16750],[93,16832],[93,16916],[93,17000],[93,17083],[93,17166],[93,17250],[93,17332],[93,17416],[93,17499],[93,17582],[93,17666],[93,17750],[93,17833],[93,17917],[93,18000],[93,18083],[93,18166],[93,18250],[93,18332],[93,18416],[93,18500],[93,18582],[93,18666],[93,18750],[93,18833],[93,18916],[93,19000],[93,19083],[93,19166],[93,19250],[93,19332],[93,19416],[93,19500],[93,19583],[93,19666],[93,19750],[93,19833],[93,19916],[93,20000],[93,20082],[93,20166],[93,20250],[93,20332],[93,20416],[93,20500],[93,20582],[93,20666],[93,20750],[93,20833],[93,20916],[93,21000],[93,21083],[93,21166],[93,21250],[93,21334],[93,21416],[93,21500],[93,21582],[93,21666],[93,21750],[93,21833],[93,21916],[93,22000],[93,22083],[93,22166],[93,22250],[93,22332],[93,22417],[93,22500],[93,22583],[93,22666],[93,22750],[93,22833],[93,22916],[93,23000],[93,23083],[93,23166],[93,23250],[93,23333],[93,23416],[93,23500],[93,23583],[93,23666],[93,23750],[93,23833],[94.2,23916],[99.7,24000],[100,24083],[100,24166],[100,24250],[100,24333],[100,24416],[100,24500],[100,24583],[100,24666],[100,24750],[100,24834],[100,24916],[100,25000],[100,25083],[100,25166],[100,25250],[100,25333],[100,25416],[100,25500],[100,25583],[100,25667],[100,25750],[100,25833],[100,25916],[100,26000],[100,26083],[100,26166],[100,26250],[100,26333],[100,26416],[100,26500],[100,26583],[100,26666],[100,26750],[100,26833],[100,26916],[100,27000],[100,27083],[100,27166],[100,27250],[100,27333],[100,27416],[100,27500],[100,27583],[100,27666],[96.8,27750],[94.2,27833],[92.7,27916],[91.6,28000],[90.5,28083],[89,28167],[85,28250],[77.4,28333],[70.3,28417],[68.8,28500],[68.4,28583],[67.1,28666],[65.2,28750],[64.5,28834],[64.3,28916],[64.3,29000],[64.3,29083],[64.3,29166],[64.3,29250],[64.3,29333],[64.7,29417]]",1,0,1040.341,1043.556,71.07264392,2.151,"[{""rating"":71.07264391912665,""responseTime"":2.1510000000000673}]",space,2.683,,1043.556,Not at all,0,1043.562,,,[],,,,0,2,2,2,1,audio/Narrative7Situation2.wav,audio/Narrative8Situation2.wav,audio/Narrative5Situation2.wav,audio/Narrative6Situation2.wav,3,3,3,3,,,,,,,,,,,,,,,,,,,,,,,,,,,,,,,,,,,,,
,,,,,,6318c6b8dd3d07c0fb9f0d18,2024-02-08_15h03.20.271,group3.1-3.2-social-tom,2023.2.2,MacIntel,60.60606061,65c5074098b851296ff0b7ed,65c5414c8ac3251cee2b9c8a,,,,,,,,,,,,,,,,,,,,,,,,,,,,,1043.562,2,audio/Narrative5Situation3.wav,1046.573,,1046.573,1060.474,"[[999,0],[999,83],[999,166],[999,250],[999,333],[999,417],[999,500],[999,583],[999,666],[999,750],[999,832],[999,916],[999,999],[999,1083],[999,1166],[999,1249],[999,1333],[999,1416],[999,1499],[999,1584],[999,1666],[999,1749],[999,1833],[999,1916],[999,1999],[999,2083],[999,2166],[999,2249],[999,2333],[999,2416],[26.1,2500],[22.1,2583],[22.1,2666],[22.8,2750],[23,2833],[23,2917],[28.5,2999],[38.6,3083],[49.2,3167],[82.1,3250],[95.7,3333],[100,3416],[100,3499],[100,3583],[100,3666],[100,3750],[100,3832],[100,3916],[100,3999],[100,4083],[100,4167],[100,4249],[100,4333],[100,4417],[100,4500],[100,4582],[100,4664],[100,4749],[100,4833],[100,4917],[100,4999],[100,5082],[100,5166],[100,5250],[100,5332],[100,5416],[100,5499],[100,5583],[100,5667],[100,5749],[100,5833],[100,5916],[100,6000],[100,6083],[100,6166],[100,6250],[100,6333],[100,6416],[100,6500],[100,6583],[100,6667],[100,6750],[100,6833],[100,6916],[100,6999],[100,7083],[100,7164],[100,7249],[100,7332],[100,7417],[100,7500],[100,7583],[100,7666],[100,7749],[100,7833],[100,7916],[100,7999],[100,8083],[100,8166],[100,8250],[100,8333],[100,8416],[100,8500],[100,8582],[100,8666],[100,8750],[100,8833],[100,8916],[100,8999],[100,9083],[100,9166],[100,9249],[100,9333],[100,9417],[100,9499],[100,9583],[100,9667],[100,9749],[100,9832],[100,9917],[100,9999],[100,10083],[100,10166],[100,10249],[100,10332],[100,10417],[100,10500],[100,10583],[100,10666],[100,10749],[100,10833],[100,10916],[100,11000],[100,11083],[100,11166],[100,11250],[100,11332],[100,11416],[100,11500],[100,11584],[100,11666],[100,11749],[100,11833],[100,11916],[100,11999],[100,12083],[100,12167],[100,12249],[100,12333],[100,12416],[100,12500],[100,12582],[100,12666],[100,12749],[100,12834],[100,12917],[100,12999],[100,13083],[100,13167],[100,13250],[100,13333],[100,13416],[100,13500],[100,13583],[100,13666],[100,13750],[100,13833]]",1,0,1060.475,1063.024,99.32718912,1.35,"[{""rating"":99.32718912095027,""responseTime"":1.3500000000001364}]",space,2.008,,1063.024,Partially,50,1063.032,,,[],,,,0,3,3,3,1,audio/Narrative7Situation3.wav,audio/Narrative8Situation3.wav,audio/Narrative5Situation3.wav,audio/Narrative6Situation3.wav,8,4,3,5,,,,,,,,,,,,,,,,,,,,,,,,,,,,,,,,,,,,,
,,,,,,6318c6b8dd3d07c0fb9f0d18,2024-02-08_15h03.20.271,group3.1-3.2-social-tom,2023.2.2,MacIntel,60.60606061,65c5074098b851296ff0b7ed,65c5414c8ac3251cee2b9c8a,,,,,,,,,,,,,,,,,,,,,,,,,,,,,1063.033,2,audio/Narrative5Situation4.wav,1064.039,,1064.039,1084.425,"[[100,1250],[100,1334],[100,1834],[100,1917],[100,2000],[100,2084],[100,2166],[100,2250],[100,2334],[100,2417],[100,2500],[100,2585],[100,2666],[100,2750],[99.6,2834],[99.6,2916],[99.6,3000],[99.6,3082],[99.6,3166],[99.6,3250],[99.6,3332],[99.6,3416],[99.6,3500],[99.6,3584],[99.6,3666],[99.6,3750],[99.6,3834],[99.6,3916],[99.6,4000],[99.6,4084],[99.6,4167],[99.6,4250],[99.6,4334],[99.6,4416],[99.6,4500],[99.6,4584],[99.6,4666],[99.6,4750],[99.6,4832],[99.6,4916],[99.6,5000],[99.6,5084],[99.6,5167],[99.6,5250],[99.6,5334],[99.6,5417],[99.6,5500],[99.6,5584],[99.6,5665],[99.6,5750],[99.6,5834],[99.6,5916],[99.6,6000],[99.6,6084],[99.6,6166],[99.6,6250],[99.6,6334],[99.6,6417],[99.6,6500],[99.5,6585],[89.6,6667],[81.5,6750],[67.5,6835],[32.1,7500],[35.7,7584],[36.6,7666],[36.3,7750],[35.4,7834],[33.4,7917],[24,8000],[18.7,8084],[15.2,8167],[13.3,8250],[12.4,8335],[11.3,8416],[10.5,8500],[10.5,8582],[9.6,8667],[7.9,8750],[7.2,8834],[5.6,8915],[3.3,9001],[3.1,9084],[4.5,9167],[12.5,9250],[17.6,9335],[25.4,9416],[30.7,9500],[36.1,9585],[39.9,9666],[39.9,9750],[39.9,9834],[39.9,9917],[39.9,10000],[44,10084],[46.9,10166],[48.2,10250],[50.6,10332],[53.8,10416],[58.7,10500],[63.9,10584],[68.9,10667],[73.7,10750],[78.3,10834],[84.7,10917],[89.3,11000],[92.8,11085],[95.4,11166],[98,11250],[99.1,11335],[100,11417],[100,11500],[100,11582],[100,11667],[100,11750],[100,11834],[100,11916],[100,12000],[100,12084],[100,12166],[100,12250],[100,12334],[100,12416],[100,12500],[100,12584],[100,12666],[100,12750],[100,12834],[100,12915],[100,13000],[100,13084],[100,13166],[100,13250],[100,13334],[100,13416],[100,13500],[100,13584],[100,13666],[100,13750],[100,13834],[100,13916],[100,14000],[100,14084],[100,14166],[100,14250],[100,14334],[100,14417],[100,14500],[100,14584],[100,14666],[100,14750],[100,14834],[100,14916],[100,15000],[100,15084],[100,15167],[100,15250],[100,15334],[100,15417],[100,15500],[100,15582],[100,15666],[100,15750],[100,15834],[100,15916],[100,16000],[100,16084],[100,16167],[100,16250],[100,16334],[100,16417],[100,16500],[100,16584],[100,16666],[100,16750],[100,16834],[100,16917],[100,17000],[100,17084],[100,17167],[100,17250],[100,17335],[100,17417],[100,17500],[100,17584],[100,17667],[100,17750],[100,17834],[100,17916],[100,18000],[100,18084],[100,18166],[100,18250],[100,18335],[100,18417],[100,18500],[100,18584],[100,18666],[100,18750],[100,18834],[100,18916],[100,19000],[100,19084],[100,19167],[100,19250],[100,19334],[100,19417],[100,19500],[100,19584],[100,19667],[100,19750],[100,19834],[100,19918],[100,20000],[100,20084],[100,20166],[100,20250],[100,20334]]",1,0,1084.425,1086.224,99.71073498,1.033,"[{""rating"":99.71073498341849,""responseTime"":1.0330000000001291}]",space,1.269,,1086.224,Not at all,0,1086.232,,,[],,,,0,4,4,4,1,audio/Narrative7Situation4.wav,audio/Narrative8Situation4.wav,audio/Narrative5Situation4.wav,audio/Narrative6Situation4.wav,3,3,1,2,,,,,,,,,,,,,,,,,,,,,,,,,,,,,,,,,,,,,
,,,,,,6318c6b8dd3d07c0fb9f0d18,2024-02-08_15h03.20.271,group3.1-3.2-social-tom,2023.2.2,MacIntel,60.60606061,65c5074098b851296ff0b7ed,65c5414c8ac3251cee2b9c8a,,,,,,,,,,,,,,,,,,,,,,,,,,,,,1086.233,2,audio/Narrative5Situation5.wav,1091.24,,1091.241,1106.675,"[[100,1581],[100,1665],[100,1749],[100,1831],[100,1914],[100,1999],[100,2082],[100,2165],[99.2,2249],[99.2,2331],[99.2,2415],[99.2,2499],[99.2,2581],[99.2,2665],[99.2,2748],[99.2,2831],[99.2,2915],[99.2,2999],[99.2,3081],[99.2,3165],[99.2,3248],[99.1,3331],[99,3414],[98.7,3499],[98.6,3581],[98.5,3665],[98.5,3750],[98.5,3832],[98.5,3915],[98.5,3999],[98.5,4082],[98.5,4165],[98.5,4249],[98.5,4331],[98.5,4415],[98.5,4499],[98.5,4582],[98.5,4664],[98.5,4749],[98.5,4832],[98.5,4915],[98.5,4999],[98.5,5081],[98.5,5165],[98.5,5249],[98.5,5332],[97.3,5415],[93.9,5499],[91.9,5582],[89.1,5665],[81.1,5750],[71,5831],[57.8,5914],[37.3,5999],[27.9,6082],[27.9,6165],[27.9,6249],[27.9,6332],[22.1,6415],[8.1,6499],[4.6,6582],[3.5,6664],[3.2,6749],[3.2,6831],[3.8,6915],[12,6999],[32,7082],[43.2,7164],[50.5,7249],[66.9,7332],[77.9,7415],[82.5,7499],[83.5,7582],[83.5,7665],[83.5,7750],[83.5,7832],[84.1,7916],[85.4,7999],[86.8,8082],[88,8165],[89.6,8249],[92.7,8332],[96,8416],[99.2,8500],[100,8582],[100,8665],[100,8749],[100,8832],[99.6,8915],[99.2,9000],[98.5,9082],[96,9166],[81.7,9249],[64.7,9332],[59.2,9416],[54.6,9500],[50.1,9582],[47.2,9665],[46.9,9749],[48.7,9831],[52.9,9915],[53.1,9999],[51.4,10081],[48.7,10165],[47.8,10250],[47.8,10332],[48,10415],[49,10500],[49.5,10581],[49.5,10664],[49.5,10750],[49.5,10832],[49.5,10915],[49.5,11000],[49.5,11082],[49.5,11164],[49.5,11249],[49.6,11332],[49.7,11414],[50.1,11499],[51.2,11582],[51.9,11665],[52.3,11749],[52.6,11832],[52.9,11915],[53.3,12000],[53.5,12082],[53.6,12165],[53.7,12250],[53.7,12331],[53.7,12415],[53.7,12500],[53.7,12582],[53.7,12665],[53.7,12749],[53.7,12832],[53.7,12915],[53.7,12999],[53.7,13081],[53.5,13165],[52.2,13249],[50.6,13332],[49.2,13416],[48.6,13499],[48.6,13584],[48.6,13665],[49,13750],[49.6,13832],[50,13915],[50.1,13999],[50.3,14081],[50.3,14165],[50.3,14249],[50.3,14332],[50.3,14415],[50.3,14500],[50.3,14582],[50.3,14665],[50.3,14749],[50.3,14831],[50.3,14916],[50.3,15000],[50.3,15082],[50.3,15165],[50.3,15249],[50.3,15332],[50.3,15415]]",1,0,1106.675,1108.341,49.33837838,0.971,"[{""rating"":49.33837837926232,""responseTime"":0.9710000000000036}]",space,1.124,,1108.341,Definitely yes,100,1108.346,,,[],,,,0,5,5,5,1,audio/Narrative7Situation5.wav,audio/Narrative8Situation5.wav,audio/Narrative5Situation5.wav,audio/Narrative6Situation5.wav,5,2,5,2,,,,,,,,,,,,,,,,,,,,,,,,,,,,,,,,,,,,,
,,,,,,6318c6b8dd3d07c0fb9f0d18,2024-02-08_15h03.20.271,group3.1-3.2-social-tom,2023.2.2,MacIntel,60.60606061,65c5074098b851296ff0b7ed,65c5414c8ac3251cee2b9c8a,,,,,,,,,,,,,,,,,,,,,,,,,,,,,1108.347,2,audio/Narrative5Situation6.wav,1111.357,,1111.358,1117.043,"[[49,1165],[48.7,1250],[55.2,1666],[81.2,1750],[98.1,1833],[100,1916],[100,2000],[100,2083],[100,2165],[100,2249],[100,2331],[100,2415],[100,2499],[100,2583],[100,2667],[100,2749],[100,2833],[100,2915],[100,3000],[100,3081],[100,3165],[100,3250],[100,3333],[100,3417],[100,3500],[100,3581],[100,3665],[100,3749],[100,3831],[100,3915],[100,4000],[100,4083],[100,4165],[100,4250],[100,4333],[100,4415],[100,4499],[100,4581],[100,4665],[100,4750],[100,4831],[100,4914],[100,5000],[100,5083],[100,5165],[100,5249],[100,5331],[100,5415],[100,5500],[100,5583],[100,5665]]",1,0,1117.044,1119.024,99.1993405,1.582,"[{""rating"":99.19934050012758,""responseTime"":1.58199999999988}]",space,1.45,,1119.024,Partially,50,1119.031,,,[],,,,0,6,6,6,1,audio/Narrative7Situation6.wav,audio/Narrative8Situation6.wav,audio/Narrative5Situation6.wav,audio/Narrative6Situation6.wav,3,2,3,2,,,,,,,,,,,,,,,,,,,,,,,,,,,,,,,,,,,,,
,,,,,,6318c6b8dd3d07c0fb9f0d18,2024-02-08_15h03.20.271,group3.1-3.2-social-tom,2023.2.2,MacIntel,60.60606061,65c5074098b851296ff0b7ed,65c5414c8ac3251cee2b9c8a,,,,,,,,,,,,,,,,,,,,,,,,,,,,,1119.032,2,audio/Narrative5Situation7.wav,1123.041,,1123.041,1144.092,"[[100,1166],[100,1250],[100,1333],[100,1416],[100,1500],[99.5,1583],[99.1,1665],[99.1,1749],[99.1,1833],[99.1,1916],[99.1,2000],[99.1,2083],[99.1,2165],[99.1,2250],[99.1,2333],[99.1,2415],[99.1,2500],[99,2583],[99,2666],[98.7,2749],[98.7,2833],[98.7,2916],[98.7,3000],[98.7,3083],[98.7,3166],[98.7,3250],[98.7,3333],[98.7,3416],[98.7,3499],[98.7,3583],[98.7,3666],[98.7,3749],[98.7,3833],[98.7,3916],[98.7,4000],[98.7,4083],[98.7,4165],[98.7,4249],[98.7,4334],[98.7,4415],[98.7,4500],[98.7,4583],[98.7,4665],[98.7,4750],[98.7,4833],[98.7,4915],[98.7,5000],[98.7,5083],[98.7,5165],[98.7,5250],[98.7,5334],[98.7,5416],[98.7,5500],[98.7,5584],[98.7,5665],[98.7,5750],[98.7,5833],[98.7,5916],[98.7,6000],[98.7,6083],[98.7,6166],[98.7,6250],[98.7,6333],[98.7,6415],[98.7,6499],[98.7,6583],[98.7,6666],[98.7,6750],[98.7,6833],[98.7,6916],[98.7,7000],[98.7,7084],[98.7,7166],[98.7,7250],[98.7,7334],[98.7,7414],[98.7,7500],[98.7,7583],[98.7,7666],[98.7,7750],[98.7,7833],[98.7,7916],[98.7,8000],[98.7,8083],[98.7,8166],[98.7,8250],[98.7,8333],[98.7,8415],[98.7,8500],[98.7,8584],[98.7,8666],[98.7,8750],[98.7,8833],[98.7,8916],[98.7,9000],[98.7,9084],[98.7,9166],[98.7,9250],[98.7,9333],[98.7,9415],[98.7,9500],[98.7,9584],[98.7,9666],[98.7,9750],[98.7,9834],[98.7,9916],[98.7,10000],[98.7,10083],[98.7,10166],[98.7,10250],[98.7,10334],[98.7,10415],[98.7,10500],[98.7,10583],[98.7,10665],[98.7,10750],[98.7,10833],[98.7,10916],[98.7,11000],[98.7,11083],[98.7,11165],[98.7,11250],[98.7,11334],[98.7,11416],[98.7,11500],[98.7,11584],[98.7,11666],[98.7,11750],[98.7,11833],[98.7,11916],[98.7,12000],[98.7,12083],[98.7,12166],[98.7,12250],[98.7,12333],[98.7,12416],[98.7,12500],[98.7,12583],[98.7,12666],[98.7,12750],[98.7,12833],[98.7,12916],[98.7,13000],[98.7,13083],[98.7,13166],[98.7,13250],[98.7,13333],[98.7,13415],[98.7,13500],[98.7,13583],[98.7,13666],[98.7,13750],[98.7,13833],[98.7,13915],[98.7,14000],[98.7,14083],[98.7,14166],[98.7,14249],[98.7,14333],[98.7,14415],[98.7,14500],[98.7,14584],[98.7,14666],[98.7,14750],[98.7,14833],[98.7,14916],[98.7,15000],[98.7,15083],[98.7,15166],[98.7,15250],[98.7,15333],[98.7,15416],[98.7,15500],[98.7,15583],[98.7,15666],[98.7,15750],[98.7,15833],[98.7,15916],[98.7,16000],[98.7,16083],[98.7,16166],[98.7,16250],[98.7,16334],[98.7,16415],[98.7,16500],[98.7,16583],[98.7,16665],[98.7,16750],[98.7,16833],[98.7,16915],[98.7,17000],[98.7,17084],[98.7,17166],[98.7,17250],[98.7,17333],[98.7,17416],[98.7,17500],[98.7,17583],[98.7,17665],[98.7,17750],[98.7,17833],[98.7,17916],[98.7,18000],[98.7,18083],[98.7,18165],[98.7,18250],[98.7,18334],[98.7,18415],[98.7,18500],[98.7,18583],[98.7,18665],[98.7,18750],[98.7,18833],[98.7,18915],[98.7,19000],[98.7,19083],[98.7,19165],[98.7,19250],[98.7,19333],[98.7,19416],[98.7,19500],[98.7,19584],[98.7,19666],[98.7,19750],[98.7,19834],[98.7,19916],[98.7,20000],[98.7,20083],[98.7,20166],[98.7,20250],[98.7,20333],[98.7,20416],[98.7,20500],[98.7,20583],[98.7,20666],[98.7,20750],[98.7,20833],[98.7,20916],[98.7,21000]]",1,0,1144.093,1149.025,99.1993405,3.753,"[{""rating"":99.19934050012758,""responseTime"":3.752999999999929}]",space,4.4,,1149.026,Definitely yes,100,1149.04,,,[],,,,0,7,7,7,1,audio/Narrative7Situation7.wav,audio/Narrative8Situation7.wav,audio/Narrative5Situation7.wav,audio/Narrative6Situation7.wav,5,3,4,5,,,,,,,,,,,,,,,,,,,,,,,,,,,,,,,,,,,,,
,,,,,,6318c6b8dd3d07c0fb9f0d18,2024-02-08_15h03.20.271,group3.1-3.2-social-tom,2023.2.2,MacIntel,60.60606061,65c5074098b851296ff0b7ed,65c5414c8ac3251cee2b9c8a,,,,,,,,,,,,,,,,,,,,,,,,,,,,,1149.04,2,audio/Narrative5Situation8.wav,1152.042,,1152.042,1160.876,"[[999,1],[999,82],[999,165],[999,249],[999,333],[999,415],[999,500],[999,582],[999,665],[999,750],[999,833],[999,915],[999,999],[999,1083],[999,1166],[999,1249],[999,1333],[999,1415],[999,1499],[999,1583],[999,1665],[999,1749],[999,1833],[999,1915],[999,1999],[999,2082],[999,2165],[999,2249],[999,2332],[999,2415],[999,2499],[999,2583],[999,2665],[999,2749],[999,2833],[999,2914],[999,3000],[999,3082],[85.8,3166],[87,3250],[89.4,3333],[90.8,3415],[91.2,3499],[91.2,3582],[91.2,3665],[91.2,3750],[91.2,3832],[91.2,3915],[91.2,4000],[91.2,4083],[91.2,4166],[91.2,4249],[91.2,4332],[91.2,4415],[90,4500],[88.9,4583],[88.9,4665],[88.9,4749],[88.9,4833],[88.9,4915],[88.9,4999],[88.9,5083],[88.9,5165],[88.9,5250],[88.9,5333],[88.9,5415],[88.9,5498],[88.9,5583],[88.9,5665],[88.9,5750],[88.9,5833],[88.9,5915],[88.9,6000],[88.9,6083],[88.9,6165],[88.9,6250],[88.9,6333],[88.9,6415],[88.9,6499],[88.9,6583],[88.9,6665],[88.9,6748],[88.9,6833],[88.9,6914],[88.9,7000],[88.9,7083],[88.9,7165],[88.9,7249],[88.9,7333],[88.9,7415],[88.9,7499],[88.7,7584],[88.4,7665],[88.2,7750],[88.2,7833],[88.2,7916],[88.2,8000],[88.2,8083],[88.2,8166],[88.2,8250],[88.2,8333],[88.2,8415],[88.2,8499],[88.2,8582],[88.2,8665],[88.2,8750],[88.2,8833]]",1,0,1160.877,1165.342,64.16881839,3.42,"[{""rating"":87.05372152196806,""responseTime"":1.2039999999999509},{""rating"":64.16881839469917,""responseTime"":3.4200000000000728}]",space,3.934,,1165.342,Not at all,0,1165.349,,,[],,,,0,8,8,8,1,audio/Narrative7Situation8.wav,audio/Narrative8Situation8.wav,audio/Narrative5Situation8.wav,audio/Narrative6Situation8.wav,2,3,3,5,,,,,,,,,,,,,,,,,,,,,,,,,,,,,,,,,,,,,
,,,,,,6318c6b8dd3d07c0fb9f0d18,2024-02-08_15h03.20.271,group3.1-3.2-social-tom,2023.2.2,MacIntel,60.60606061,65c5074098b851296ff0b7ed,65c5414c8ac3251cee2b9c8a,,,,,,,,,,,,,,,,,,,,,,,,,,,,,1165.349,2,audio/Narrative5Situation9.wav,1168.359,,1168.359,1207.927,"[[999,1],[999,83],[999,166],[999,250],[999,333],[999,415],[999,499],[999,582],[999,665],[999,749],[999,833],[999,916],[999,1000],[999,1083],[999,1166],[999,1249],[58.8,1334],[59.1,1415],[59.6,1500],[60.5,1583],[62.7,1666],[65.7,1749],[69.8,1833],[69.8,1915],[69.8,2000],[69.8,2082],[79.2,2164],[93.4,2250],[96.7,2332],[100,2415],[100,2500],[100,2583],[100,2665],[100,2749],[100,2833],[100,2915],[100,2999],[100,3082],[100,3166],[100,3249],[100,3333],[100,3416],[100,3500],[100,3583],[100,3665],[100,3749],[100,3833],[100,3915],[100,3999],[100,4083],[100,4165],[100,4250],[100,4332],[100,4415],[100,4499],[100,4583],[100,4665],[100,4749],[100,4833],[100,4915],[100,4999],[100,5082],[100,5165],[100,5250],[100,5333],[100,5416],[100,5498],[100,5583],[100,5669],[100,5749],[100,5833],[100,5915],[100,5999],[100,6083],[100,6165],[100,6250],[100,6333],[100,6416],[100,6500],[100,6583],[100,6665],[100,6750],[100,6833],[100,6915],[100,7000],[100,7083],[100,7166],[100,7250],[100,7332],[100,7415],[100,7499],[100,7582],[100,7665],[100,7749],[100,7833],[100,7915],[100,8000],[100,8083],[100,8166],[100,8249],[100,8333],[100,8415],[100,8500],[100,8583],[100,8666],[100,8749],[100,8832],[100,8916],[100,8999],[100,9083],[100,9165],[100,9249],[100,9333],[100,9415],[100,9499],[100,9584],[100,9665],[100,9750],[100,9833],[100,9915],[100,10000],[100,10084],[100,10166],[100,10250],[100,10333],[100,10416],[100,10500],[100,10582],[100,10668],[100,10749],[100,10833],[100,10915],[100,10999],[100,11083],[100,11165],[100,11249],[100,11334],[100,11415],[100,11500],[100,11583],[100,11666],[100,11749],[100,11833],[100,11916],[100,12000],[100,12083],[100,12165],[100,12250],[100,12333],[100,12415],[100,12499],[100,12583],[100,12666],[100,12749],[100,12833],[100,12916],[100,13000],[100,13082],[100,13165],[100,13250],[100,13333],[100,13416],[100,13499],[100,13584],[100,13665],[100,13750],[100,13834],[100,13915],[100,14000],[100,14083],[100,14166],[100,14250],[100,14333],[100,14416],[100,14500],[100,14583],[100,14670],[100,14749],[100,14834],[100,14916],[100,15000],[100,15083],[100,15165],[100,15250],[100,15333],[100,15415],[100,15499],[100,15583],[100,15665],[100,15749],[100,15833],[100,15915],[100,15999],[100,16083],[100,16165],[100,16250],[100,16333],[100,16416],[100,16500],[100,16583],[100,16665],[100,16750],[100,16833],[100,16915],[100,17000],[100,17083],[100,17165],[100,17250],[100,17333],[100,17416],[100,17500],[100,17583],[100,17665],[100,17750],[100,17833],[100,17915],[100,17999],[100,18084],[100,18166],[100,18250],[100,18333],[100,18416],[100,18500],[100,18583],[100,18665],[100,18750],[100,18833],[100,18916],[100,19000],[100,19083],[100,19166],[100,19250],[100,19334],[100,19415],[100,19499],[100,19584],[100,19666],[100,19749],[100,19833],[100,19916],[100,20000],[100,20083],[100,20165],[100,20250],[100,20333],[100,20415],[100,20500],[100,20583],[100,20666],[100,20750],[100,20833],[100,20916],[100,21000],[100,21083],[100,21165],[100,21250],[100,21333],[100,21415],[100,21500],[100,21583],[100,21666],[100,21750],[100,21833],[100,21916],[100,22000],[100,22083],[100,22166],[100,22250],[100,22333],[100,22416],[100,22500],[100,22583],[100,22665],[100,22750],[100,22834],[100,22916],[100,22999],[100,23083],[100,23165],[100,23250],[100,23333],[100,23415],[100,23500],[100,23584],[100,23666],[100,23750],[100,23833],[100,23916],[100,23999],[100,24083],[100,24165],[100,24250],[100,24333],[100,24415],[100,24500],[100,24583],[100,24666],[100,24750],[100,24833],[100,24915],[100,25000],[100,25083],[100,25166],[100,25250],[100,25334],[100,25416],[100,25500],[100,25584],[100,25666],[100,25750],[100,25834],[100,25916],[100,26000],[100,26083],[100,26166],[100,26250],[100,26333],[100,26416],[100,26500],[100,26583],[100,26668],[100,26750],[100,26834],[100,26916],[100,27000],[100,27083],[100,27166],[100,27250],[100,27333],[100,27415],[100,27500],[100,27584],[100,27666],[100,27750],[100,27833],[100,27916],[100,28000],[100,28083],[100,28166],[100,28250],[100,28333],[100,28416],[100,28500],[100,28583],[100,28666],[100,28749],[100,28833],[100,28916],[100,29000],[100,29084],[100,29166],[100,29250],[100,29334],[100,29416],[100,29500],[100,29583],[100,29666],[100,29750],[100,29833],[100,29915],[100,30000],[100,30083],[100,30165],[100,30250],[100,30334],[100,30416],[100,30500],[100,30583],[100,30665],[100,30750],[100,30834],[100,30916],[100,31000],[100,31084],[100,31165],[100,31250],[100,31333],[100,31416],[100,31500],[100,31584],[100,31666],[100,31750],[100,31833],[100,31916],[100,32000],[100,32084],[100,32165],[100,32250],[100,32333],[100,32416],[100,32500],[100,32583],[100,32666],[100,32750],[100,32833],[100,32915],[100,33000],[100,33084],[100,33165],[100,33249],[100,33333],[100,33416],[100,33500],[100,33584],[100,33665],[100,33750],[100,33834],[100,33916],[100,34000],[100,34083],[100,34166],[100,34250],[100,34333],[100,34416],[100,34500],[100,34583],[100,34665],[100,34750],[100,34833],[100,34916],[100,35000],[100,35083],[100,35166],[100,35250],[100,35334],[100,35415],[100,35500],[100,35584],[100,35666],[100,35750],[100,35833],[100,35916],[100,35999],[100,36083],[100,36166],[100,36250],[100,36334],[100,36416],[100,36500],[100,36584],[100,36666],[100,36750],[100,36833],[100,36918],[100,37000],[100,37083],[100,37166],[100,37250],[100,37333],[100,37416],[100,37500],[100,37584],[100,37666],[100,37750],[100,37834],[100,37916],[100,38000],[100,38084],[100,38166],[100,38250],[100,38333],[100,38416],[100,38500],[100,38583],[100,38665],[100,38750],[100,38833],[100,38916],[100,39000],[100,39083],[100,39166],[100,39250],[100,39333],[100,39416],[100,39500]]",1,0,1207.928,1209.625,99.45503774,1.001,"[{""rating"":99.45503774177303,""responseTime"":1.0009999999999764}]",space,1.167,,1209.625,Definitely yes,100,1209.632,,,[],,,,0,9,9,9,1,audio/Narrative7Situation9.wav,audio/Narrative8Situation9.wav,audio/Narrative5Situation9.wav,audio/Narrative6Situation9.wav,2,3,3,4,,,,,,,,,,,,,,,,,,,,,,,,,,,,,,,,,,,,,
,,,,,,6318c6b8dd3d07c0fb9f0d18,2024-02-08_15h03.20.271,group3.1-3.2-social-tom,2023.2.2,MacIntel,60.60606061,65c5074098b851296ff0b7ed,65c5414c8ac3251cee2b9c8a,,,,,,,,,,,,,,,,,,,,,,,,,,,,,1209.632,2,audio/Narrative6Situation1.wav,1211.643,,1211.643,1238.244,"[[99.7,2000],[100,2082],[100,2166],[100,2250],[100,2333],[100,2416],[100,2498],[100,2582],[100,2666],[100,2750],[99.5,2834],[98.8,2916],[98.7,2998],[98.7,3082],[98.7,3164],[98.7,3250],[98.7,3331],[98.7,3415],[98.7,3500],[98.7,3582],[98.7,3666],[98.7,3750],[98.7,3832],[98.7,3915],[98.7,3998],[98.7,4081],[98.7,4165],[98.7,4248],[98.7,4332],[98,4415],[97.3,4500],[97.3,4582],[97.3,4666],[96.7,4750],[96.2,4832],[96.2,4916],[96.2,5000],[96.2,5082],[96.2,5165],[96.2,5250],[96.2,5332],[96.2,5415],[96.2,5498],[96.2,5582],[96.2,5666],[96.4,5750],[98.2,5833],[99,5916],[99.4,6000],[99.7,6082],[100,6165],[100,6250],[100,6331],[100,6415],[100,6500],[100,6582],[100,6665],[100,6750],[100,6832],[100,6915],[100,7000],[100,7082],[100,7166],[100,7250],[100,7333],[100,7416],[100,7500],[100,7582],[100,7666],[100,7750],[100,7832],[100,7915],[100,8000],[100,8081],[100,8165],[100,8250],[100,8332],[100,8415],[100,8500],[100,8582],[100,8666],[100,8750],[100,8832],[100,8916],[100,9000],[100,9084],[100,9166],[100,9250],[100,9332],[100,9416],[100,9500],[100,9583],[100,9666],[100,9750],[100,9833],[100,9915],[99.9,10000],[99.7,10082],[99.7,10165],[99.7,10250],[99.9,10333],[99.7,10416],[99.4,10500],[99.4,10582],[99.4,10666],[99.4,10750],[99.5,10832],[99.6,10916],[99.6,11000],[99.6,11082],[99.6,11165],[99.6,11248],[99.6,11333],[99.6,11415],[99.6,11500],[99.6,11582],[99.6,11666],[99.6,11750],[99.9,11833],[100,11916],[100,12000],[100,12083],[100,12165],[100,12250],[99.5,12332],[98,12416],[94.8,12500],[88.5,12583],[83.6,12666],[79,12750],[74,12832],[69.8,12916],[67.8,13000],[67.8,13082],[67.8,13166],[67.8,13250],[67,13332],[60.5,13416],[57,13500],[54.3,13584],[51.7,13666],[49.1,13750],[47.6,13833],[46.5,13916],[46,14000],[46,14082],[46.8,14166],[52.4,14250],[67.6,14332],[81.5,14416],[92.6,14500],[98.7,14583],[100,14666],[100,14750],[100,14832],[100,14916],[94.2,15000],[81.6,15082],[62.7,15166],[53.8,15250],[47.7,15332],[37.6,15416],[32.7,15498],[29,15582],[26,15666],[23.3,15750],[20.7,15833],[19.7,15917],[19.6,16000],[19.6,16082],[19.6,16165],[19.7,16250],[19.7,16332],[19.7,16416],[19.8,16500],[19.8,16582],[20.1,16666],[20.5,16750],[21,16833],[21.4,16916],[21.7,17000],[22,17084],[22.3,17166],[22.3,17250],[22.5,17333],[22.9,17416],[23.1,17500],[23.4,17582],[23.5,17666],[23.7,17748],[23.7,17832],[23.7,17916],[23.7,18000],[23.7,18082],[23.7,18165],[23.9,18250],[24.9,18332],[25.6,18415],[25.7,18500],[26,18583],[26.2,18665],[26.2,18750],[26.2,18832],[26.2,18916],[26.2,19000],[26.2,19083],[26.2,19166],[26.2,19250],[26.2,19333],[26.2,19416],[25.2,19500],[24.3,19583],[23.4,19666],[22.4,19750],[21.6,19833],[21,19916],[20.5,20000],[20.3,20083],[20.3,20166],[20.3,20250],[20.3,20332],[20.3,20416],[20.3,20500],[20.3,20583],[20.3,20666],[21,20750],[23.4,20832],[24.9,20916],[27.1,21000],[33.4,21082],[44.8,21166],[70.7,21416],[79.2,21500],[89.1,21583],[92.3,21666],[94.9,21750],[98.3,21833],[100,21916],[100,22000],[100,22083],[100,22165],[100,22250],[100,22333],[100,22416],[100,22500],[100,22583],[100,22666],[100,22750],[100,22832],[100,22917],[100,23000],[100,23083],[100,23166],[100,23250],[100,23333],[100,23415],[100,23500],[100,23583],[100,23666],[100,23750],[100,23832],[100,23916],[100,24000],[100,24083],[100,24166],[100,24250],[100,24332],[100,24416],[100,24500],[100,24582],[100,24666],[100,24750],[100,24833],[100,24916],[100,25000],[100,25082],[100,25166],[100,25250],[100,25333],[100,25415],[100,25500],[100,25583],[100,25666],[100,25750],[100,25832],[100,25916],[100,26000],[100,26082],[100,26165],[100,26250],[100,26333],[100,26415],[100,26500],[100,26582]]",1,0,1238.246,1241.227,99.32718912,2.35,"[{""rating"":99.32718912095027,""responseTime"":2.349999999999909}]",space,2.45,,1241.227,Not at all,0,1241.233,,,[],,,,0,10,10,10,1,audio/Narrative8Situation1.wav,audio/Narrative7Situation1.wav,audio/Narrative6Situation1.wav,audio/Narrative5Situation1.wav,5,2,2,5,,,,,,,,,,,,,,,,,,,,,,,,,,,,,,,,,,,,,
,,,,,,6318c6b8dd3d07c0fb9f0d18,2024-02-08_15h03.20.271,group3.1-3.2-social-tom,2023.2.2,MacIntel,60.60606061,65c5074098b851296ff0b7ed,65c5414c8ac3251cee2b9c8a,,,,,,,,,,,,,,,,,,,,,,,,,,,,,1241.234,2,audio/Narrative6Situation2.wav,1244.244,,1244.244,1272.762,"[[93.4,1165],[89.5,1249],[85.3,1333],[79.2,1416],[71.1,1500],[71.1,1582],[71.1,1665],[71.1,1749],[71.1,1832],[71.1,1916],[70.8,1999],[71.9,2083],[86.7,2165],[89,2833],[96.4,2915],[97.4,3000],[98.1,3083],[98.1,3165],[98.1,3250],[95.3,3333],[91.3,3415],[91,3499],[91,3583],[91,3666],[91.2,3748],[91.2,3833],[91.2,3915],[91.2,4000],[91.2,4083],[91.2,4166],[85.2,4250],[74.7,4333],[73.5,4415],[74.6,4500],[88.5,4584],[100,4666],[100,4750],[100,4833],[100,4915],[100,5000],[100,5084],[100,5165],[100,5250],[100,5334],[100,5415],[100,5499],[100,5583],[100,5665],[100,5749],[100,5833],[100,5915],[100,5999],[100,6083],[100,6166],[100,6250],[100,6333],[100,6415],[100,6500],[100,6583],[100,6666],[99.9,6750],[99.5,6834],[99.5,6915],[99.5,7000],[99.5,7083],[99.5,7165],[99.5,7250],[99.5,7333],[99.5,7416],[99.5,7500],[99.5,7583],[99.5,7666],[99.5,7750],[99.5,7833],[99.5,7915],[99.5,8000],[99.5,8083],[99.5,8165],[99.5,8250],[99.5,8334],[99.6,8415],[99.6,8499],[99.9,8583],[99.9,8665],[99.9,8750],[100,8833],[100,8915],[100,9000],[100,9083],[100,9165],[100,9250],[100,9333],[100,9416],[100,9499],[100,9583],[100,9665],[100,9749],[100,9833],[100,9915],[100,10000],[100,10083],[100,10165],[100,10250],[100,10333],[99.9,10416],[99,10500],[98.7,10584],[98.7,10666],[98.2,10750],[96.5,10832],[95.4,10915],[94.8,11000],[93.7,11083],[92.6,11166],[91.4,11250],[89.8,11333],[88.2,11415],[86.7,11500],[85.2,11584],[83.9,11665],[83.1,11750],[82.5,11834],[82.1,11915],[82.1,12000],[81.1,12084],[79.8,12166],[78.9,12249],[78.1,12333],[77.9,12415],[77.9,12500],[77.9,12584],[77.9,12666],[77.9,12749],[77.9,12833],[77.9,12915],[77.9,13000],[77.9,13083],[77.9,13166],[77.9,13250],[77.9,13333],[78.1,13415],[78.3,13500],[78.3,13583],[78.3,13665],[78.5,13750],[78.9,13832],[79,13916],[79.2,13999],[79.3,14083],[79.4,14165],[79.5,14250],[79.7,14333],[79.8,14415],[80.1,14500],[80.2,14583],[80.3,14665],[80.4,14749],[80.4,14834],[80.6,14916],[80.7,15000],[80.8,15084],[80.9,15166],[81.1,15250],[81.3,15333],[81.8,15415],[82.6,15500],[83.5,15583],[84.5,15666],[86.2,15750],[87.5,15833],[88.7,15915],[90.2,16000],[91.4,16083],[93,16166],[94.4,16250],[95.8,16333],[96.5,16415],[97.2,16500],[98.1,16583],[98.7,16665],[99.4,16750],[100,16834],[100,16916],[100,17000],[100,17083],[100,17165],[100,17249],[100,17332],[100,17416],[100,17500],[100,17583],[100,17666],[100,17750],[100,17833],[100,17916],[100,18000],[100,18083],[100,18165],[100,18250],[100,18333],[100,18415],[100,18500],[100,18583],[100,18666],[100,18750],[100,18833],[100,18915],[100,19000],[100,19083],[100,19165],[100,19250],[100,19333],[100,19415],[100,19500],[100,19583],[100,19666],[100,19750],[100,19834],[100,19916],[100,20000],[100,20083],[100,20166],[100,20249],[100,20333],[100,20415],[100,20500],[100,20584],[100,20665],[100,20750],[100,20833],[100,20916],[100,20999],[100,21082],[100,21166],[100,21250],[100,21333],[100,21416],[100,21500],[100,21584],[100,21668],[100,21750],[99.9,21833],[99.5,21916],[99.5,21999],[99.5,22084],[99.5,22166],[99.5,22250],[99.5,22334],[99.5,22415],[99.5,22500],[99.5,22583],[99.9,22665],[100,22750],[100,22833],[100,22916],[100,23000],[100,23083],[100,23165],[100,23250],[100,23334],[100,23416],[100,23500],[100,23584],[99.9,23666],[99.9,23750],[99.9,23833],[99.9,23916],[99.9,24000],[99.9,24082],[99.9,24166],[99.9,24250],[99.9,24333],[99.9,24416],[100,24500],[100,24584],[100,24666],[100,24750],[100,24833],[100,24916],[100,24999],[100,25084],[100,25165],[100,25250],[100,25333],[100,25415],[100,25500],[100,25583],[100,25666],[100,25750],[100,25833],[100,25916],[100,26000],[100,26083],[100,26166],[100,26250],[100,26333],[100,26416],[100,26500],[100,26583],[100,26665],[100,26750],[100,26834],[100,26916],[100,26999],[100,27083],[100,27165],[100,27250],[100,27333],[100,27415],[100,27500],[100,27583],[100,27666],[100,27750],[100,27833],[100,27916],[100,28000],[100,28082],[100,28166],[100,28250],[100,28334],[100,28415],[99.9,28500]]",1,0,1272.763,1275.777,99.1993405,2.134,"[{""rating"":99.19934050012758,""responseTime"":2.1340000000000146}]",space,2.483,,1275.777,Definitely yes,100,1275.784,,,[],,,,0,11,11,11,1,audio/Narrative8Situation2.wav,audio/Narrative7Situation2.wav,audio/Narrative6Situation2.wav,audio/Narrative5Situation2.wav,3,3,3,3,,,,,,,,,,,,,,,,,,,,,,,,,,,,,,,,,,,,,
,,,,,,6318c6b8dd3d07c0fb9f0d18,2024-02-08_15h03.20.271,group3.1-3.2-social-tom,2023.2.2,MacIntel,60.60606061,65c5074098b851296ff0b7ed,65c5414c8ac3251cee2b9c8a,,,,,,,,,,,,,,,,,,,,,,,,,,,,,1275.784,2,audio/Narrative6Situation3.wav,1280.794,,1280.794,1293.412,"[[99.5,1335],[99.7,1417],[100,1500],[100,1584],[100,1667],[100,1750],[100,1834],[100,1917],[99.9,2000],[99.9,2085],[99.6,2167],[99.4,2250],[99.4,2333],[99.4,2417],[99.4,2500],[99.4,2584],[99.4,2666],[99.4,2750],[99.4,2834],[99.4,2917],[99.4,2999],[99.4,3084],[99.4,3167],[99.4,3250],[99.4,3333],[99.4,3417],[99.4,3500],[99.4,3584],[99.4,3667],[99.4,3750],[99.4,3833],[99.4,3917],[99.4,4000],[99.4,4083],[99.4,4167],[99.4,4250],[99.4,4334],[99.4,4417],[99.4,4500],[99.4,4584],[99.4,4668],[99.4,4750],[99.4,4833],[99.4,4917],[99.4,5000],[99.4,5084],[99.4,5170],[99.4,5250],[99.4,5334],[99.4,5416],[99.4,5500],[99.4,5582],[99.4,5666],[99.4,5750],[99.4,5833],[99.4,5916],[99.4,6000],[99.4,6084],[99.4,6167],[99.4,6250],[99.4,6334],[99.4,6417],[99.4,6500],[99.4,6583],[99.4,6667],[99.4,6750],[99.4,6834],[99.4,6917],[99.4,7000],[99.4,7083],[99.4,7167],[99.4,7250],[99.4,7333],[99.4,7417],[99.4,7500],[99.4,7584],[99.4,7666],[99.4,7753],[99.4,7833],[99.4,7916],[99.4,7999],[99.4,8084],[99.4,8167],[99.4,8250],[99.4,8334],[99.4,8417],[99.4,8500],[99.4,8583],[99.4,8667],[99.4,8750],[99.4,8836],[99.4,8917],[99.4,9000],[99.4,9083],[99.4,9167],[99.4,9250],[99.4,9334],[99.4,9417],[99.4,9500],[99.4,9584],[99.4,9667],[99.4,9750],[99.4,9834],[99.4,9917],[99.4,10000],[99.4,10084],[99.4,10167],[99.4,10249],[99.4,10334],[99.4,10417],[99.4,10500],[99.4,10583],[99.4,10667],[99.4,10750],[99.4,10834],[99.4,10917],[99.4,11000],[99.4,11083],[99.4,11167],[99.4,11250],[99.4,11334],[99.4,11417],[99.4,11500],[99.4,11584],[99.4,11667],[99.4,11750],[99.4,11834],[99.4,11917],[99.4,12000],[99.4,12083],[99.4,12166],[99.4,12250],[99.4,12334],[99.4,12416],[99.4,12500],[99.4,12584]]",1,0,1293.413,1298.328,99.8385836,4.266,"[{""rating"":99.83858360424121,""responseTime"":4.266000000000076}]",space,4.387,,1298.328,Definitely yes,100,1298.332,,,[],,,,0,12,12,12,1,audio/Narrative8Situation3.wav,audio/Narrative7Situation3.wav,audio/Narrative6Situation3.wav,audio/Narrative5Situation3.wav,4,8,5,3,,,,,,,,,,,,,,,,,,,,,,,,,,,,,,,,,,,,,
,,,,,,6318c6b8dd3d07c0fb9f0d18,2024-02-08_15h03.20.271,group3.1-3.2-social-tom,2023.2.2,MacIntel,60.60606061,65c5074098b851296ff0b7ed,65c5414c8ac3251cee2b9c8a,,,,,,,,,,,,,,,,,,,,,,,,,,,,,1298.332,2,audio/Narrative6Situation4.wav,1300.345,,1300.345,1312.963,"[[100,2000],[100,2083],[100,2166],[100,2250],[100,2333],[100,2416],[100,2500],[100,2582],[100,2665],[100,2750],[100,2833],[99.6,2916],[99.5,3000],[99.5,3083],[99.5,3166],[99.5,3250],[99.5,3332],[99.5,3415],[99.5,3498],[99.5,3583],[99.5,3665],[99.5,3750],[99.5,3833],[99.5,3917],[99.5,4000],[99.5,4082],[99.5,4166],[99.5,4250],[99.5,4336],[99.5,4416],[99.5,4500],[99.5,4582],[99.5,4666],[99.5,4750],[99.5,4832],[99.5,4916],[99.5,4998],[99.5,5082],[99.5,5165],[99.5,5250],[99.5,5333],[99.5,5415],[99.5,5500],[99.5,5582],[99.5,5665],[99.5,5748],[99.5,5832],[99.5,5915],[99.5,6000],[99.5,6083],[99.5,6166],[99.5,6250],[99.5,6332],[99.5,6416],[99.5,6498],[99.5,6582],[99.5,6665],[99.5,6750],[99.5,6832],[99.5,6916],[96.7,7000],[95.4,7082],[95.3,7165],[95.1,7250],[95.1,7332],[95.7,7416],[96.2,7500],[96.7,7582],[97.3,7666],[97.6,7750],[97.8,7833],[98.1,7916],[98.5,8000],[98.7,8082],[98.8,8165],[99,8250],[99,8334],[99,8416],[99,8500],[99,8583],[96.7,8666],[95,8750],[93.6,8832],[91.6,8916],[89.6,9000],[88.1,9083],[86.6,9166],[85.3,9250],[83.8,9332],[82.7,9415],[81.8,9500],[80.9,9582],[80.7,9665],[83.2,9750],[90.7,9832],[96.7,9915],[100,10000],[100,10083],[100,10166],[100,10250],[100,10334],[100,10416],[100,10500],[100,10582],[100,10666],[100,10748],[100,10833],[100,10916],[100,11000],[100,11083],[100,11167],[100,11250],[100,11332],[100,11415],[100,11500],[100,11582],[100,11665],[100,11750],[100,11832],[100,11916],[100,12000],[100,12082],[100,12165],[100,12250],[100,12332],[100,12416],[100,12500],[100,12581]]",1,0,1312.963,1314.145,99.96643223,0.721,"[{""rating"":99.96643222506395,""responseTime"":0.7210000000000036}]",space,0.649,,1314.145,Not at all,0,1314.153,,,[],,,,0,13,13,13,1,audio/Narrative8Situation4.wav,audio/Narrative7Situation4.wav,audio/Narrative6Situation4.wav,audio/Narrative5Situation4.wav,3,3,2,1,,,,,,,,,,,,,,,,,,,,,,,,,,,,,,,,,,,,,
