exp_question,consent.started,consent.stopped,consentResponse.keys,consentResponse.rt,consentResponse.duration,participantID,date,expName,psychopyVersion,OS,frameRate,STUDY_ID,SESSION_ID,opening1.started,opening1.stopped,keyEndingOpening1.keys,keyEndingOpening1.rt,keyEndingOpening1.duration,volumeAdjust.started,volumeAdjust.stopped,endingAdjust.keys,endingAdjust.rt,endingAdjust.duration,opening2.started,opening2.stopped,keyEndingOpening.keys,keyEndingOpening.rt,keyEndingOpening.duration,mouse.x,mouse.y,mouse.leftButton,mouse.midButton,mouse.rightButton,mouse.time,instructionLoop.thisRepN,instructionLoop.thisTrialN,instructionLoop.thisN,instructionLoop.thisIndex,instructionLoop.ran,readyForAudio.started,readyForAudio.stopped,fixation.started,run,audio_played,fixation.stopped,endPractice.keys,audioPre.started,audioPre.stopped,continuousResponses_audio,continuousSlider.response,continuousSlider.rt,intRating.started,intRating.stopped,intQuestionSlider.response,intQuestionSlider.rt,intQuestionSlider.history,confirmResponse.keys,confirmResponse.rt,confirmResponse.duration,catchQuestion.started,catch_label,catch_value,catchQuestion.stopped,catchQuestionSlider.response,catchQuestionSlider.rt,catchQuestionSlider.history,confirmResponse_2.keys,audioRunLoop.thisRepN,audioRunLoop.thisTrialN,audioRunLoop.thisN,audioRunLoop.thisIndex,audioRunLoop.ran,conditions1_1,conditions2_1,conditions1_2,conditions2_2,dur1_1,dur2_1,dur1_2,dur2_2,endPractice.rt,endPractice.duration,confirmResponse_2.rt,confirmResponse_2.duration,runIntervalBreak.started,runIntervalBreak.stopped,endingBreakKey.keys,endingBreakKey.rt,endingBreakKey.duration,connection.started,connection.stopped,connectionEnding.keys,connectionEnding.rt,connectionEnding.duration,readyForText.started,readyForText.stopped,textPre.started,run_dup,textPre.stopped,continuousResponses_text,textRunLoop.thisRepN,textRunLoop.thisTrialN,textRunLoop.thisN,textRunLoop.thisIndex,textRunLoop.ran,text1_1,text1_2,text2_1,text2_2,runBreakText.started,runBreakText.stopped,endingBreakKey_2.keys,ending.started,ending.stopped,endingEnding.keys,endingEnding.rt,endingEnding.duration
tom,0.0011,8.3395,y,8.0151,,63251e479509813fab713ad2,2024-02-08_13h08.54.832,group3.1-3.2-social-tom,2023.2.2,Win32,59.88023952,65c5074098b851296ff0b7ed,65c5413a6602dda54e7bfbcc,,,,,,,,,,,,,,,,,,,,,,,,,,,,,,,,,,,,,,,,,,,,,,,,,,,,,,,,,,,,,,,,,,,,,,,,,,,,,,,,,,,,,,,,,,,,,,,,,,,,,,,,
,,,,,,63251e479509813fab713ad2,2024-02-08_13h08.54.832,group3.1-3.2-social-tom,2023.2.2,Win32,59.88023952,65c5074098b851296ff0b7ed,65c5413a6602dda54e7bfbcc,8.34,54.0606,space,45.6618,,,,,,,,,,,,,,,,,,,,,,,,,,,,,,,,,,,,,,,,,,,,,,,,,,,,,,,,,,,,,,,,,,,,,,,,,,,,,,,,,,,,,,,,,,,,,,,,,,,,
,,,,,,63251e479509813fab713ad2,2024-02-08_13h08.54.832,group3.1-3.2-social-tom,2023.2.2,Win32,59.88023952,65c5074098b851296ff0b7ed,65c5413a6602dda54e7bfbcc,,,,,,54.061,63.8115,space,9.4171,,,,,,,,,,,,,,,,,,,,,,,,,,,,,,,,,,,,,,,,,,,,,,,,,,,,,,,,,,,,,,,,,,,,,,,,,,,,,,,,,,,,,,,,,,,,,,,
,,,,,,63251e479509813fab713ad2,2024-02-08_13h08.54.832,group3.1-3.2-social-tom,2023.2.2,Win32,59.88023952,65c5074098b851296ff0b7ed,65c5413a6602dda54e7bfbcc,,,,,,,,,,,63.8301,75.678,space,11.8224,,[],[],[],[],[],[],0,0,0,0,1,,,,,,,,,,,,,,,,,,,,,,,,,,,,,,,,,,,,,,,,,,,,,,,,,,,,,,,,,,,,,,,,,,,,,,,,,,,,,,
,,,,,,63251e479509813fab713ad2,2024-02-08_13h08.54.832,group3.1-3.2-social-tom,2023.2.2,Win32,59.88023952,65c5074098b851296ff0b7ed,65c5413a6602dda54e7bfbcc,,,,,,,,,,,75.6894,119.3456,space,43.527,,[],[],[],[],[],[],1,0,1,0,1,,,,,,,,,,,,,,,,,,,,,,,,,,,,,,,,,,,,,,,,,,,,,,,,,,,,,,,,,,,,,,,,,,,,,,,,,,,,,,
,,,,,,63251e479509813fab713ad2,2024-02-08_13h08.54.832,group3.1-3.2-social-tom,2023.2.2,Win32,59.88023952,65c5074098b851296ff0b7ed,65c5413a6602dda54e7bfbcc,,,,,,,,,,,119.3553,139.0427,space,19.6128,,[],[],[],[],[],[],2,0,2,0,1,,,,,,,,,,,,,,,,,,,,,,,,,,,,,,,,,,,,,,,,,,,,,,,,,,,,,,,,,,,,,,,,,,,,,,,,,,,,,,
,,,,,,63251e479509813fab713ad2,2024-02-08_13h08.54.832,group3.1-3.2-social-tom,2023.2.2,Win32,59.88023952,65c5074098b851296ff0b7ed,65c5413a6602dda54e7bfbcc,,,,,,,,,,,139.0533,175.0426,space,35.9588,,[],[],[],[],[],[],3,0,3,0,1,,,,,,,,,,,,,,,,,,,,,,,,,,,,,,,,,,,,,,,,,,,,,,,,,,,,,,,,,,,,,,,,,,,,,,,,,,,,,,
,,,,,,63251e479509813fab713ad2,2024-02-08_13h08.54.832,group3.1-3.2-social-tom,2023.2.2,Win32,59.88023952,65c5074098b851296ff0b7ed,65c5413a6602dda54e7bfbcc,,,,,,,,,,,175.0539,240.1769,space,65.0991,,[],[],[],[],[],[],4,0,4,0,1,,,,,,,,,,,,,,,,,,,,,,,,,,,,,,,,,,,,,,,,,,,,,,,,,,,,,,,,,,,,,,,,,,,,,,,,,,,,,,
,,,,,,63251e479509813fab713ad2,2024-02-08_13h08.54.832,group3.1-3.2-social-tom,2023.2.2,Win32,59.88023952,65c5074098b851296ff0b7ed,65c5413a6602dda54e7bfbcc,,,,,,,,,,,,,,,,,,,,,,,,,,,240.195,242.7757,242.8106,1,audio/Narrative13Situation2.wav,244.8261,,244.8267,274.577,"[[999,2],[999,134],[999,215],[999,298],[999,381],[999,465],[999,548],[999,632],[999,715],[999,799],[999,882],[999,965],[999,1048],[999,1132],[999,1215],[999,1298],[999,1381],[999,1466],[999,1548],[999,1632],[999,1715],[999,1798],[999,1882],[999,1965],[999,2048],[999,2131],[999,2215],[999,2298],[999,2382],[999,2465],[999,2548],[999,2632],[999,2715],[999,2798],[999,2882],[999,2967],[999,3049],[999,3135],[45.2,3216],[52.2,3300],[53.9,3381],[53.9,3466],[53.9,3548],[53.9,3632],[53.9,3715],[53.9,3799],[54,3882],[54,3971],[54.3,4049],[58.5,4134],[63.6,4216],[63.8,4299],[63.8,4382],[63.8,4466],[63.8,4548],[63.8,4632],[63.8,4715],[63.8,4799],[63.8,4881],[63.8,4966],[63.8,5048],[63.8,5132],[63.8,5215],[63.8,5299],[63.8,5381],[63.8,5466],[63.8,5548],[63.8,5632],[63.8,5715],[63.8,5799],[63.8,5881],[63.8,5966],[63.8,6048],[63.8,6132],[63.8,6215],[63.8,6299],[63.8,6382],[63.8,6465],[63.8,6548],[63.8,6632],[63.8,6715],[63.8,6799],[63.8,6881],[63.8,6966],[63.8,7048],[63.8,7132],[63.8,7215],[63.8,7299],[63.8,7381],[63.8,7466],[63.8,7548],[63.8,7632],[63.8,7715],[63.8,7798],[63.8,7881],[63.8,7965],[63.8,8048],[63.8,8132],[63.8,8215],[63.8,8299],[63.8,8381],[63.8,8466],[63.8,8548],[63.8,8632],[63.8,8715],[63.8,8799],[63.8,8883],[63.8,8965],[63.8,9048],[63.8,9131],[63.8,9215],[63.8,9298],[63.8,9381],[63.8,9465],[63.8,9548],[63.8,9631],[63.8,9715],[63.8,9798],[63.8,9881],[63.8,9965],[63.8,10048],[63.8,10132],[63.8,10215],[63.8,10298],[63.8,10381],[63.8,10465],[63.8,10548],[63.8,10631],[63.8,10715],[63.8,10798],[63.8,10881],[63.8,10965],[63.8,11048],[63.8,11131],[63.8,11215],[63.8,11298],[63.8,11381],[63.8,11465],[63.8,11548],[63.8,11631],[63.8,11715],[63.8,11798],[63.8,11881],[63.8,11965],[63.8,12048],[63.8,12131],[63.8,12215],[63.8,12298],[63.8,12381],[63.8,12465],[63.8,12548],[63.8,12631],[63.8,12715],[63.8,12798],[63.8,12881],[63.8,12965],[63.8,13048],[63.8,13131],[63.8,13215],[63.8,13298],[63.8,13382],[63.8,13465],[63.8,13548],[63.8,13631],[63.8,13715],[63.8,13798],[63.8,13881],[63.8,13965],[63.8,14048],[63.8,14131],[63.8,14215],[63.8,14298],[63.8,14381],[63.8,14465],[63.8,14548],[63.8,14631],[63.8,14715],[63.8,14798],[63.8,14881],[63.8,14965],[63.8,15048],[63.8,15131],[63.8,15215],[63.8,15298],[63.8,15381],[56.5,15466],[54,15549],[53.1,15632],[53.1,15715],[53,15798],[53,15881],[52.2,15965],[51.8,16048],[51.3,16131],[51.1,16215],[51.1,16298],[51.1,16381],[51.1,16465],[51.1,16548],[51.1,16631],[51.1,16715],[51.1,16798],[51.1,16882],[51.1,16965],[51.1,17048],[51.1,17131],[51.1,17215],[51.1,17298],[51.1,17381],[51.1,17465],[51.1,17548],[51.1,17632],[51.1,17715],[51.1,17798],[51.1,17882],[51.1,17965],[51.1,18048],[51.1,18131],[51.1,18215],[51.1,18298],[51.1,18381],[51.1,18465],[51.1,18548],[51.1,18632],[51.1,18715],[51.1,18798],[51.1,18881],[51.1,18965],[51.1,19048],[51.1,19131],[51.1,19215],[51.1,19298],[51.1,19382],[51.1,19465],[51.1,19548],[51.1,19631],[51.1,19715],[51.1,19798],[51.1,19882],[51.1,19965],[51.1,20049],[51.1,20131],[51.1,20215],[51.1,20298],[51.1,20382],[51.1,20465],[51.1,20549],[51.1,20632],[51.1,20716],[51.1,20798],[51.1,20882],[51.1,20965],[51.1,21049],[51.1,21132],[51.1,21216],[51,21302],[51,21382],[50.6,21466],[48.8,21550],[48.2,21632],[48,21719],[47.5,21799],[46.9,21884],[46,21966],[45.2,22051],[44.1,22132],[43.7,22216],[43.7,22298],[43.7,22382],[43.7,22465],[43.7,22548],[43.7,22631],[43.7,22715],[44.5,22798],[46.2,22884],[47.3,22966],[48.2,23051],[48.6,23132],[49.1,23218],[49.8,23299],[51.4,23384],[54.4,23466],[56.5,23551],[56.7,23632],[56.7,23716],[56.7,23798],[56.7,23882],[56.7,23965],[56.7,24049],[56.7,24131],[56.7,24216],[56.7,24298],[56.7,24383],[56.7,24465],[56.7,24548],[56.7,24631],[56.7,24715],[56.7,24798],[56.7,24882],[56.7,24965],[56.7,25049],[56.7,25132],[56.7,25215],[56.7,25298],[56.7,25382],[56.7,25465],[56.7,25548],[56.7,25632],[56.7,25715],[56.7,25799],[56.7,25881],[56.7,25965],[56.7,26048],[56.7,26132],[56.7,26215],[56.7,26298],[56.7,26382],[56.7,26465],[56.7,26548],[56.7,26631],[56.7,26715],[56.7,26798],[56.7,26881],[56.7,26965],[56.7,27048],[56.7,27131],[56.5,27216],[56.5,27298],[56.5,27381],[56.5,27465],[56.5,27548],[56.5,27631],[56.5,27715],[56.5,27798],[56.5,27881],[56.5,27965],[56.5,28048],[56.5,28131],[56.5,28215],[56.5,28298],[56.2,28381],[56.1,28465],[56.1,28548],[56.1,28632],[56.1,28715],[56.1,28798],[56.1,28881],[54.7,28966],[53.3,29049],[53.1,29135],[53.1,29215],[53.1,29298],[53.1,29382],[53.1,29465],[52.8,29549],[51.4,29633],[49.8,29716]]",1,0,274.5778,283.6949,41.27823603,4.3693,"[{""rating"":41.2782360263923,""responseTime"":4.369299999952318}]",space,8.5706,,283.7051,Half the time,50,283.7118,,,[],,0,0,0,0,1,audio/Narrative13Situation2.wav,audio/Narrative13Situation2.wav,audio/Narrative13Situation2.wav,audio/Narrative13Situation2.wav,2,2,2,2,,,,,,,,,,,,,,,,,,,,,,,,,,,,,,,,,,,,,
,,,,,,63251e479509813fab713ad2,2024-02-08_13h08.54.832,group3.1-3.2-social-tom,2023.2.2,Win32,59.88023952,65c5074098b851296ff0b7ed,65c5413a6602dda54e7bfbcc,,,,,,,,,,,,,,,,,,,,,,,,,,,,,283.7121,1,audio/Narrative7Situation1.wav,287.7763,space,287.7764,343.6752,"[[999,9],[999,98],[999,182],[999,265],[999,348],[999,432],[999,515],[999,598],[999,683],[999,766],[999,848],[999,932],[999,1015],[999,1098],[999,1182],[999,1265],[999,1348],[999,1432],[999,1515],[999,1598],[999,1682],[999,1765],[999,1849],[999,1932],[999,2015],[61.2,2100],[60.9,2182],[60.2,2266],[59,2350],[56.2,2433],[56.1,2515],[56.1,2598],[55.1,2682],[45.8,2765],[45.4,2848],[45.4,2932],[45.4,3015],[45.4,3098],[45.4,3182],[44.8,3265],[31,3349],[29.6,3432],[29.6,3515],[29.6,3598],[29.6,3682],[29.6,3765],[29.6,3848],[29.6,3932],[29.6,4015],[29.6,4098],[29.6,4182],[29.6,4265],[30.8,4349],[32.6,4432],[34.7,4515],[36.3,4599],[38.1,4682],[39.4,4765],[40.7,4849],[40.7,4932],[40.7,5015],[40.7,5098],[40.7,5182],[40.7,5265],[40.7,5348],[40.7,5432],[40.7,5515],[40.7,5598],[40.7,5681],[40.7,5765],[40.7,5848],[40.7,5932],[40.7,6015],[40.7,6098],[40.7,6182],[40.7,6265],[40.7,6349],[40.7,6432],[40.7,6515],[40.7,6598],[40.7,6682],[40.7,6765],[40.7,6848],[40.7,6932],[40.7,7015],[40.7,7098],[40.7,7182],[40.7,7265],[40.7,7348],[40.7,7431],[40.7,7515],[40.7,7598],[40.7,7682],[40.7,7765],[40.7,7849],[40.7,7932],[40.7,8015],[40.7,8099],[40.7,8182],[40.7,8265],[40.7,8348],[40.7,8432],[40.7,8515],[40.7,8598],[40.7,8682],[40.7,8765],[40.7,8849],[40.7,8932],[40.7,9015],[40.7,9098],[40.7,9182],[40.7,9265],[40.7,9348],[40.7,9432],[40.7,9515],[40.7,9598],[40.7,9682],[40.7,9765],[40.7,9849],[40.7,9932],[40.7,10015],[40.7,10099],[40.7,10181],[40.7,10265],[40.7,10348],[40.7,10432],[40.7,10515],[40.7,10599],[40.7,10682],[40.7,10766],[40.7,10848],[40.7,10932],[40.7,11015],[40.7,11099],[40.7,11182],[40.7,11266],[40.7,11348],[40.7,11432],[40.7,11515],[40.7,11599],[40.7,11682],[40.7,11766],[40.7,11848],[40.7,11932],[40.7,12015],[40.7,12099],[41.1,12182],[42,12268],[42.6,12349],[43.7,12434],[45,12516],[45.5,12599],[46,12682],[46.2,12767],[46.7,12849],[48,12934],[48.4,13015],[48.4,13099],[48.7,13182],[49,13268],[49.3,13349],[49.6,13435],[49.9,13515],[50.1,13599],[50.1,13682],[50.1,13766],[50.1,13849],[50.1,13932],[50.1,14015],[50.1,14099],[50.1,14182],[50.1,14266],[50.1,14348],[50.1,14432],[50.1,14515],[50.1,14599],[50.1,14682],[50.1,14766],[50.1,14848],[50.1,14932],[50.1,15015],[50.1,15099],[50.1,15182],[50.1,15265],[50.1,15348],[50.1,15432],[50.1,15515],[50.1,15599],[50.1,15681],[50.1,15765],[50.1,15848],[50.1,15932],[50.1,16015],[50.1,16099],[50.1,16182],[50.1,16265],[50.1,16348],[50.1,16432],[50.1,16515],[50.1,16598],[50.1,16682],[50.1,16765],[50.1,16849],[50.1,16932],[50.1,17015],[50.1,17098],[50.1,17182],[50.1,17265],[50.1,17349],[50.1,17432],[50.1,17515],[50.1,17598],[50.1,17681],[50.5,17770],[51.6,17849],[52.4,17932],[53.1,18015],[53.7,18099],[54.2,18182],[54.5,18265],[54.5,18348],[54.9,18432],[54.9,18515],[54.9,18599],[54.9,18681],[54.9,18765],[54.9,18849],[54.9,18932],[54.9,19015],[54.9,19099],[54.9,19182],[54.9,19265],[54.9,19348],[54.9,19432],[54.9,19515],[54.9,19598],[54.9,19682],[54.9,19765],[54.9,19849],[54.9,19932],[54.9,20015],[54.9,20099],[54.9,20182],[54.9,20265],[54.9,20348],[54.9,20432],[54.9,20515],[55.5,20599],[56.8,20682],[57,20765],[57.9,20849],[58.2,20932],[58.4,21016],[58.6,21098],[58.6,21182],[58.6,21265],[58.6,21348],[58.6,21431],[58.6,21515],[58.6,21598],[58.6,21682],[58.6,21765],[58.6,21849],[58.6,21932],[58.6,22015],[58.6,22098],[58.6,22182],[58.6,22265],[58.6,22348],[58.6,22432],[58.6,22515],[58.6,22598],[58.6,22682],[58.6,22765],[58.6,22849],[58.6,22932],[58.6,23015],[58.6,23098],[58.6,23182],[58.6,23265],[58.6,23349],[58.6,23432],[58.6,23515],[58.6,23598],[58.6,23682],[58.6,23765],[58.6,23848],[58.6,23931],[58.6,24015],[58.6,24098],[58.6,24182],[58.6,24265],[58.6,24349],[58.6,24432],[58.6,24515],[58.6,24598],[58.6,24682],[58.6,24765],[58.6,24848],[58.6,24932],[58.6,25015],[58.6,25098],[58.6,25182],[58.6,25265],[58.6,25348],[58.6,25431],[58.6,25515],[58.6,25598],[58.6,25682],[58.6,25765],[58.6,25848],[58.6,25932],[58.6,26015],[58.6,26098],[58.6,26182],[58.6,26265],[58.6,26348],[58.6,26432],[58.6,26515],[58.6,26598],[58.6,26682],[58.6,26765],[58.6,26849],[58.6,26932],[58.6,27015],[58.6,27098],[58.6,27182],[58.6,27265],[58.6,27349],[58.6,27432],[58.6,27515],[58.6,27598],[58.6,27682],[58.6,27765],[58.6,27849],[58.6,27932],[58.6,28015],[58.6,28098],[58.6,28182],[58.6,28265],[58.6,28349],[58.6,28432],[58.6,28516],[58.6,28598],[58.6,28682],[58.6,28765],[58.6,28849],[58.6,28932],[58.6,29016],[58.6,29098],[58.6,29182],[58.6,29265],[58.6,29349],[58.6,29432],[58.6,29516],[58.6,29598],[58.6,29682],[58.6,29765],[58.6,29849],[58.6,29932],[58.6,30016],[58.6,30098],[58.6,30182],[58.6,30265],[58.6,30349],[58.6,30432],[58.6,30516],[58.6,30598],[58.6,30682],[58.6,30765],[58.6,30849],[58.6,30932],[58.6,31016],[58.6,31099],[58.6,31182],[58.6,31266],[58.6,31349],[58.6,31432],[58.6,31516],[58.6,31598],[58.6,31682],[58.6,31765],[58.6,31849],[58.6,31932],[58.6,32015],[58.6,32098],[58.6,32182],[58.6,32265],[58.6,32349],[58.6,32431],[58.6,32515],[58.6,32599],[58.6,32682],[58.6,32765],[58.6,32848],[58.6,32931],[58.6,33015],[58.6,33098],[58.6,33181],[58.6,33265],[58.6,33348],[58.6,33431],[58.6,33515],[58.6,33598],[58.6,33681],[58.6,33766],[58.6,33848],[58.6,33932],[58.6,34015],[58.6,34098],[58.6,34182],[58.6,34265],[58.6,34348],[58.6,34432],[58.6,34515],[58.6,34598],[58.6,34682],[58.6,34765],[58.6,34848],[58.6,34932],[58.6,35015],[58.6,35098],[58.6,35181],[58.6,35265],[58.6,35348],[58.6,35431],[58.6,35515],[58.6,35598],[58.6,35682],[58.6,35765],[58.6,35849],[58.6,35932],[58.6,36015],[58.6,36098],[58.6,36182],[58.6,36265],[58.6,36348],[58.6,36432],[58.6,36515],[58.6,36598],[58.6,36682],[58.6,36765],[58.6,36848],[58.6,36932],[58.6,37015],[58.6,37098],[58.8,37185],[58.9,37265],[58.9,37348],[58.9,37432],[58.9,37515],[58.9,37599],[58.9,37681],[58.9,37765],[58.9,37848],[58.9,37931],[58.9,38015],[58.9,38098],[58.9,38181],[58.9,38265],[58.9,38348],[58.9,38432],[58.9,38515],[58.9,38598],[58.9,38682],[58.9,38765],[58.9,38848],[58.9,38931],[58.9,39015],[58.9,39098],[58.9,39182],[58.9,39265],[58.9,39348],[58.9,39432],[58.9,39515],[58.9,39598],[58.9,39682],[58.9,39765],[58.9,39848],[58.9,39932],[58.9,40015],[58.9,40098],[58.9,40182],[58.9,40265],[58.9,40348],[58.9,40431],[58.9,40515],[58.9,40599],[58.9,40682],[58.9,40765],[58.9,40848],[58.9,40931],[58.9,41015],[58.9,41098],[58.9,41181],[58.9,41265],[58.9,41349],[58.9,41432],[58.9,41515],[59.1,41599],[59.1,41681],[59.5,41765],[60.3,41849],[61.6,41932],[62.1,42016],[63,42099],[63.5,42182],[64,42265],[64,42348],[64.2,42432],[64.3,42515],[64.3,42598],[64.3,42682],[64.3,42765],[64.3,42848],[64.3,42932],[64.3,43015],[64.3,43098],[64.3,43182],[64.3,43265],[64.3,43348],[64.3,43432],[64.3,43515],[64.3,43599],[64.3,43682],[64.3,43765],[64.3,43848],[64.3,43932],[64.3,44015],[64.3,44099],[64.3,44182],[64.3,44266],[64.3,44348],[64.3,44432],[64.3,44515],[64.3,44599],[64.3,44682],[64.3,44766],[64.3,44848],[64.3,44932],[64.3,45015],[64.3,45099],[64.3,45182],[64.3,45266],[64.3,45348],[64.3,45432],[64.3,45515],[64.3,45599],[64.3,45682],[64.3,45766],[64.3,45848],[64.3,45932],[64.3,46015],[64.3,46099],[64.3,46182],[64.3,46266],[64.3,46348],[64.3,46432],[64.3,46515],[64.3,46599],[64.3,46682],[64.3,46766],[64.3,46848],[64.3,46932],[64.3,47015],[64.3,47099],[64.3,47182],[64.3,47266],[64.3,47348],[64.3,47432],[64.3,47515],[64.3,47599],[64.3,47682],[64.3,47766],[64.3,47848],[64.3,47932],[64.3,48015],[64.3,48099],[64.3,48182],[64.3,48266],[64.3,48348],[64.3,48433],[64.3,48515],[64.3,48599],[64.3,48682],[64.3,48765],[64.3,48848],[64.3,48932],[64.3,49015],[64.3,49099],[64.3,49182],[64.3,49265],[64.3,49348],[64.3,49432],[64.3,49515],[64.3,49598],[64.3,49681],[64.3,49766],[65.2,49865],[66.6,49950],[67.1,50032],[67.3,50115],[67.5,50200],[68.1,50283],[68.4,50365],[68.7,50450],[68.8,50532],[68.8,50615],[68.8,50698],[68.8,50781],[68.8,50865],[68.8,50949],[68.8,51032],[68.8,51115],[68.8,51198],[68.7,51281],[68.7,51365],[68.6,51448],[68.6,51532],[68.5,51615],[68.5,51698],[68.5,51782],[68.5,51865],[68.5,51948],[68.5,52032],[68.5,52115],[68.5,52198],[68.5,52281],[68.5,52365],[68.5,52448],[68.5,52532],[68.5,52615],[68.5,52698],[68.5,52781],[68.5,52865],[68.5,52948],[68.5,53032],[68.5,53115],[68.5,53198],[68.5,53282],[68.5,53365],[68.5,53448],[68.5,53532],[68.5,53615],[68.5,53698],[68.5,53782],[68.5,53865],[68.5,53948],[68.5,54031],[68.5,54115],[68.5,54198],[68.5,54282],[68.5,54365],[68.5,54448],[68.5,54531],[68.5,54615],[68.5,54698],[68.5,54782],[68.5,54865],[68.5,54949],[68.5,55032],[68.5,55115],[68.5,55199],[68.5,55282],[68.5,55365],[68.5,55448],[68.5,55531],[68.5,55615],[68.5,55698],[68.5,55782],[68.5,55865]]",1,0,343.6758,352.8421,71.98186202,5.3194,"[{""rating"":69.48393619294193,""responseTime"":3.527500000000032},{""rating"":71.98186201547071,""responseTime"":5.319399999976213}]",space,8.6188,,352.8422,Half the time,50,352.8458,,,[],,0,1,1,1,1,audio/Narrative7Situation1.wav,audio/Narrative8Situation1.wav,audio/Narrative5Situation1.wav,audio/Narrative6Situation1.wav,2,5,5,2,4.0347,,,,,,,,,,,,,,,,,,,,,,,,,,,,,,,,,,,,
,,,,,,63251e479509813fab713ad2,2024-02-08_13h08.54.832,group3.1-3.2-social-tom,2023.2.2,Win32,59.88023952,65c5074098b851296ff0b7ed,65c5413a6602dda54e7bfbcc,,,,,,,,,,,,,,,,,,,,,,,,,,,,,352.8461,1,audio/Narrative7Situation2.wav,355.8587,,355.8587,363.3421,"[[999,13],[999,99],[999,183],[999,266],[999,350],[999,432],[999,516],[999,599],[999,683],[999,766],[999,850],[999,932],[999,1016],[999,1099],[999,1182],[999,1266],[999,1350],[999,1433],[999,1516],[999,1599],[999,1682],[999,1766],[999,1849],[999,1932],[999,2016],[999,2100],[999,2183],[999,2266],[999,2349],[999,2432],[999,2516],[999,2600],[999,2683],[999,2766],[999,2849],[999,2933],[999,3016],[999,3099],[999,3183],[999,3266],[999,3349],[999,3433],[999,3516],[999,3599],[999,3683],[999,3766],[999,3849],[999,3933],[999,4016],[999,4099],[999,4183],[999,4266],[999,4350],[999,4433],[999,4516],[999,4599],[999,4683],[999,4766],[999,4849],[999,4934],[999,5017],[999,5100],[52.7,5184],[52.1,5267],[52,5349],[50.6,5434],[50.6,5516],[50.6,5599],[50.9,5683],[52.6,5767],[53.1,5849],[53.1,5932],[53.1,6016],[53.1,6099],[53.1,6183],[53.1,6266],[53.1,6350],[53.1,6433],[53.1,6516],[53.1,6600],[53.1,6683],[53.1,6766],[53.1,6849],[53.1,6933],[53.1,7016],[53.1,7099],[53.1,7182],[53.1,7266],[53.1,7349],[53.1,7432]]",1,0,363.3423,368.1922,54.28824523,3.3436,"[{""rating"":54.28824522985363,""responseTime"":3.343600000023798}]",space,4.3019,,368.1923,Half the time,50,368.1963,,,[],,0,2,2,2,1,audio/Narrative7Situation2.wav,audio/Narrative8Situation2.wav,audio/Narrative5Situation2.wav,audio/Narrative6Situation2.wav,3,3,3,3,,,,,,,,,,,,,,,,,,,,,,,,,,,,,,,,,,,,,
,,,,,,63251e479509813fab713ad2,2024-02-08_13h08.54.832,group3.1-3.2-social-tom,2023.2.2,Win32,59.88023952,65c5074098b851296ff0b7ed,65c5413a6602dda54e7bfbcc,,,,,,,,,,,,,,,,,,,,,,,,,,,,,368.1967,1,audio/Narrative7Situation3.wav,376.2086,,376.2086,385.4755,"[[999,12],[999,99],[999,184],[999,266],[999,349],[999,433],[999,516],[999,599],[999,684],[999,767],[999,850],[999,933],[999,1016],[999,1099],[999,1182],[999,1266],[999,1350],[999,1433],[999,1516],[999,1600],[999,1683],[999,1766],[999,1849],[999,1933],[999,2017],[999,2099],[999,2182],[999,2266],[999,2349],[999,2433],[999,2516],[999,2600],[999,2684],[999,2766],[999,2859],[999,2933],[999,3017],[51.6,3100],[51.9,3183],[52,3266],[52.2,3350],[52.2,3433],[52.2,3516],[52.2,3600],[52.2,3683],[52.2,3766],[52.2,3849],[52.2,3933],[52.2,4016],[52.2,4099],[52.2,4182],[52.2,4266],[52.2,4349],[52.2,4433],[55.4,4518],[56.7,4599],[57.1,4684],[57.9,4766],[57.9,4849],[57.9,4933],[57.9,5016],[57.9,5099],[57.9,5183],[57.9,5266],[57.9,5350],[57.9,5433],[57.9,5516],[57.9,5599],[57.9,5683],[57.9,5766],[57.9,5850],[57.9,5933],[57.9,6017],[57.9,6099],[57.9,6184],[57.9,6266],[57.9,6350],[57.9,6433],[57.9,6517],[57.9,6599],[57.9,6683],[57.9,6766],[57.9,6850],[57.9,6933],[57.9,7017],[57.9,7100],[57.9,7184],[57.9,7266],[57.9,7350],[57.9,7433],[59,7518],[60.4,7601],[62.1,7685],[63,7766],[63,7850],[63,7933],[63,8017],[63,8099],[63,8183],[63,8266],[63,8350],[63,8432],[63,8517],[63,8599],[63,8683],[63,8766],[63,8850],[63,8932],[63,9017],[63,9099],[63,9184],[63,9266]]",1,0,385.4758,395.4251,67.8186612,1.9132,"[{""rating"":67.81866120481794,""responseTime"":1.9132000000477092}]",space,9.3968,,395.4252,All the time,100,395.4428,,,[],,0,3,3,3,1,audio/Narrative7Situation3.wav,audio/Narrative8Situation3.wav,audio/Narrative5Situation3.wav,audio/Narrative6Situation3.wav,8,4,3,5,,,,,,,,,,,,,,,,,,,,,,,,,,,,,,,,,,,,,
,,,,,,63251e479509813fab713ad2,2024-02-08_13h08.54.832,group3.1-3.2-social-tom,2023.2.2,Win32,59.88023952,65c5074098b851296ff0b7ed,65c5413a6602dda54e7bfbcc,,,,,,,,,,,,,,,,,,,,,,,,,,,,,395.4436,1,audio/Narrative7Situation4.wav,398.4592,,398.4594,410.1921,"[[999,0],[999,82],[999,165],[999,250],[999,332],[999,416],[999,498],[999,583],[999,665],[999,749],[999,832],[999,916],[999,999],[999,1084],[999,1165],[999,1249],[999,1332],[999,1416],[999,1499],[999,1583],[999,1665],[999,1750],[999,1832],[999,1916],[999,1998],[999,2083],[999,2165],[999,2249],[999,2332],[999,2416],[999,2499],[999,2582],[999,2665],[999,2749],[999,2832],[999,2916],[999,2998],[999,3083],[999,3166],[999,3249],[999,3332],[999,3416],[999,3499],[999,3583],[999,3665],[999,3749],[999,3832],[999,3916],[999,3998],[999,4083],[999,4165],[999,4249],[999,4332],[999,4416],[999,4499],[999,4583],[999,4665],[999,4749],[999,4832],[999,4915],[999,4998],[999,5082],[999,5165],[999,5249],[999,5332],[999,5415],[999,5499],[999,5582],[999,5665],[999,5749],[999,5832],[999,5915],[999,5999],[999,6082],[999,6166],[999,6248],[999,6332],[999,6415],[999,6499],[999,6582],[999,6665],[999,6748],[999,6832],[999,6915],[999,6999],[999,7082],[999,7165],[999,7248],[999,7332],[49.1,7424],[56.3,7999],[56.9,8083],[57.9,8166],[57.9,8248],[57.9,8332],[57.9,8415],[57.9,8498],[56.8,8582],[56.8,8665],[56.8,8748],[56.8,8832],[56.8,8915],[56.8,8999],[56.8,9082],[56.8,9166],[56.8,9248],[56.8,9332],[56.8,9415],[56.8,9499],[56.8,9582],[56.8,9665],[56.8,9748],[56.8,9832],[56.8,9915],[56.8,9998],[56.8,10082],[56.8,10165],[56.8,10248],[56.8,10332],[56.8,10415],[56.8,10499],[56.8,10582],[56.8,10665],[56.8,10749],[56.8,10832],[56.8,10915],[56.8,10999],[56.8,11082],[56.8,11165],[56.8,11248],[56.8,11332],[56.8,11415],[56.8,11499],[56.8,11582],[56.8,11665]]",1,0,410.1926,413.6259,71.5655366,2.2449,"[{""rating"":71.56553659826831,""responseTime"":2.2448999999761554}]",space,2.9008,,413.626,All the time,100,428.5921,99.97940837,8.5268,"[{""rating"":99.979408366981,""responseTime"":8.526799999952232}]",space,0,4,4,4,1,audio/Narrative7Situation4.wav,audio/Narrative8Situation4.wav,audio/Narrative5Situation4.wav,audio/Narrative6Situation4.wav,3,3,1,2,,,14.4277,,,,,,,,,,,,,,,,,,,,,,,,,,,,,,,,,,
,,,,,,63251e479509813fab713ad2,2024-02-08_13h08.54.832,group3.1-3.2-social-tom,2023.2.2,Win32,59.88023952,65c5074098b851296ff0b7ed,65c5413a6602dda54e7bfbcc,,,,,,,,,,,,,,,,,,,,,,,,,,,,,428.6037,1,audio/Narrative7Situation5.wav,433.6096,,433.6098,442.1089,"[[999,11],[999,81],[999,165],[999,248],[999,332],[999,415],[999,499],[999,581],[999,666],[999,749],[999,833],[999,915],[999,999],[999,1081],[999,1165],[999,1248],[999,1332],[999,1415],[999,1499],[999,1582],[999,1666],[999,1748],[999,1832],[999,1915],[999,1999],[999,2081],[999,2165],[999,2248],[999,2332],[999,2415],[999,2499],[999,2581],[999,2665],[999,2748],[999,2832],[999,2915],[999,2998],[999,3081],[999,3166],[999,3249],[999,3331],[999,3414],[999,3498],[999,3581],[999,3665],[999,3748],[999,3832],[999,3915],[999,3998],[999,4082],[999,4165],[999,4248],[999,4331],[999,4415],[999,4501],[999,4584],[999,4665],[999,4750],[999,4834],[999,4917],[48.6,4999],[49.6,5083],[50.1,5177],[51.2,5251],[51.2,5346],[51.3,5418],[51.3,5498],[51.3,5611],[51.3,5682],[51.6,5765],[51.6,5848],[51.6,5931],[51.6,6015],[51.6,6098],[51.6,6182],[51.6,6265],[52,6349],[53.1,6432],[54.4,6515],[55,6598],[55,6682],[55,6765],[55,6848],[55,6932],[55,7015],[55,7098],[55,7182],[55,7265],[55,7348],[55,7431],[55,7515],[55,7598],[55,7682],[55,7765],[55,7848],[55,7932],[55,8015],[55,8098],[55,8182],[55,8265],[55,8348],[55,8432]]",1,0,442.109,520.3588,58.13921087,2.238,"[{""rating"":58.139210871166455,""responseTime"":2.2380000000000564}]",space,77.7067,,520.3592,All the time,100,520.3768,,,[],,0,5,5,5,1,audio/Narrative7Situation5.wav,audio/Narrative8Situation5.wav,audio/Narrative5Situation5.wav,audio/Narrative6Situation5.wav,5,2,5,2,,,,,,,,,,,,,,,,,,,,,,,,,,,,,,,,,,,,,
,,,,,,63251e479509813fab713ad2,2024-02-08_13h08.54.832,group3.1-3.2-social-tom,2023.2.2,Win32,59.88023952,65c5074098b851296ff0b7ed,65c5413a6602dda54e7bfbcc,,,,,,,,,,,,,,,,,,,,,,,,,,,,,520.3773,1,audio/Narrative7Situation6.wav,523.3917,,523.3918,533.3764,"[[999,0],[999,83],[999,166],[999,249],[999,332],[999,416],[999,499],[999,583],[999,666],[999,750],[999,833],[999,916],[999,999],[999,1082],[999,1166],[999,1249],[999,1332],[999,1416],[999,1499],[999,1583],[999,1666],[999,1749],[999,1833],[999,1916],[999,2000],[999,2082],[999,2166],[999,2250],[999,2333],[999,2416],[999,2500],[999,2583],[999,2666],[999,2749],[999,2832],[999,2916],[999,2999],[999,3083],[999,3166],[999,3250],[57.2,3337],[57.9,3416],[58,3499],[58,3583],[58,3666],[58,3749],[58,3833],[58,3916],[58,3999],[58,4082],[58.2,4166],[58.2,4249],[58.2,4332],[58.2,4416],[58.2,4499],[58.2,4582],[58.2,4666],[58.2,4749],[62.3,4833],[71.7,4917],[71.7,4999],[71.7,5082],[71.7,5166],[71.9,5249],[71.9,5333],[71.9,5416],[71.9,5499],[71.9,5583],[71.9,5666],[73.5,5751],[74.1,5833],[74.6,5917],[76.6,6000],[77.3,6082],[77.3,6166],[77.3,6249],[77.3,6332],[77.3,6415],[77.3,6499],[77.3,6583],[77.3,6666],[77.3,6749],[77.3,6833],[77.9,6917],[79.4,7000],[81.2,7083],[82.8,7167],[84.1,7250],[84.3,7332],[84.3,7416],[84.3,7499],[84.3,7582],[84.3,7666],[84.3,7749],[84.3,7832],[84.3,7916],[84.3,7999],[84.3,8083],[84.3,8166],[84.3,8249],[84.3,8332],[84.3,8416],[84.3,8499],[84.3,8583],[84.3,8666],[84.3,8750],[84.3,8832],[84.3,8916],[84.3,8999],[84.3,9083],[84.3,9166],[84.3,9250],[84.3,9332],[84.3,9417],[84.3,9499],[84.3,9583],[84.3,9666],[84.3,9750],[84.3,9832],[84.3,9916]]",1,0,533.3772,536.7248,86.6571551,1.8194,"[{""rating"":86.65715510061789,""responseTime"":1.8194000000953565}]",space,2.8173,,536.7249,Half the time,50,536.7302,,,[],,0,6,6,6,1,audio/Narrative7Situation6.wav,audio/Narrative8Situation6.wav,audio/Narrative5Situation6.wav,audio/Narrative6Situation6.wav,3,2,3,2,,,,,,,,,,,,,,,,,,,,,,,,,,,,,,,,,,,,,
,,,,,,63251e479509813fab713ad2,2024-02-08_13h08.54.832,group3.1-3.2-social-tom,2023.2.2,Win32,59.88023952,65c5074098b851296ff0b7ed,65c5413a6602dda54e7bfbcc,,,,,,,,,,,,,,,,,,,,,,,,,,,,,536.7306,1,audio/Narrative7Situation7.wav,541.7418,,541.742,558.9265,"[[999,22],[999,99],[999,182],[999,266],[999,349],[999,432],[999,515],[999,599],[999,682],[999,766],[999,849],[999,932],[999,1015],[999,1099],[999,1182],[999,1265],[999,1349],[999,1432],[999,1516],[999,1599],[999,1682],[999,1766],[999,1849],[999,1932],[999,2016],[999,2099],[999,2182],[999,2266],[999,2349],[999,2432],[999,2516],[999,2599],[999,2682],[999,2765],[999,2849],[999,2932],[999,3015],[999,3099],[999,3182],[59.4,3266],[61.6,3350],[65.9,3433],[68.3,3517],[70.1,3600],[70.3,3682],[71,3766],[71,3849],[71,3932],[71,4016],[71,4099],[71,4182],[71,4265],[71,4349],[71,4432],[71,4515],[71,4599],[71,4682],[71,4766],[71,4849],[71,4932],[71,5015],[71,5099],[71,5182],[71,5266],[71,5349],[71,5432],[71,5515],[71,5599],[71,5682],[71,5766],[71.1,5849],[71.8,5933],[73.2,6017],[75.2,6100],[76.4,6183],[78.2,6266],[79.2,6351],[80.5,6433],[80.8,6516],[80.8,6599],[80.8,6683],[80.8,6766],[80.8,6849],[80.8,6932],[80.8,7016],[80.8,7099],[80.8,7183],[80.8,7266],[80.8,7350],[80.8,7432],[80.8,7516],[80.8,7599],[80.8,7683],[80.8,7766],[80.8,7850],[80.8,7932],[80.8,8016],[80.8,8099],[80.8,8183],[80.8,8265],[80.8,8350],[80.8,8432],[80.8,8516],[80.8,8599],[80.8,8683],[80.8,8766],[80.8,8849],[80.8,8932],[80.8,9016],[80.8,9099],[80.8,9183],[80.8,9266],[80.8,9350],[80.8,9432],[80.8,9516],[80.8,9599],[80.8,9683],[80.8,9766],[80.8,9850],[80.8,9932],[80.8,10016],[80.8,10099],[80.8,10183],[80.8,10265],[80.8,10350],[80.8,10432],[80.8,10516],[80.8,10599],[80.8,10683],[80.8,10765],[80.8,10850],[80.8,10932],[80.8,11016],[80.8,11099],[80.8,11183],[80.8,11265],[80.8,11350],[80.8,11432],[80.8,11516],[80.8,11599],[80.8,11683],[80.8,11765],[80.8,11849],[80.8,11932],[80.8,12016],[80.8,12099],[80.8,12182],[80.8,12266],[80.8,12349],[80.8,12432],[80.8,12516],[80.8,12599],[80.8,12683],[80.8,12765],[80.8,12849],[80.8,12932],[80.8,13015],[80.8,13099],[80.8,13182],[80.8,13265],[80.8,13349],[80.8,13432],[80.8,13515],[80.8,13599],[80.8,13682],[80.8,13765],[80.8,13849],[80.8,13932],[80.8,14015],[80.8,14099],[80.8,14182],[80.8,14265],[80.8,14349],[80.8,14432],[80.8,14516],[80.8,14599],[80.8,14682],[80.8,14766],[80.8,14849],[80.8,14932],[80.8,15015],[80.8,15099],[80.8,15182],[80.8,15266],[80.8,15349],[80.8,15432],[80.8,15515],[80.8,15599],[80.8,15682],[80.8,15765],[80.8,15849],[80.8,15932],[80.8,16016],[80.8,16099],[80.8,16182],[80.8,16265],[80.8,16349],[80.8,16432],[80.8,16515],[80.8,16599],[80.8,16682],[80.8,16765],[80.8,16849],[80.8,16932],[81.8,17016],[83.7,17100]]",1,0,558.9267,561.2749,85.40819664,1.2261,"[{""rating"":85.40819663613443,""responseTime"":1.2261000000238482}]",space,1.8,,561.275,All the time,100,561.2851,,,[],,0,7,7,7,1,audio/Narrative7Situation7.wav,audio/Narrative8Situation7.wav,audio/Narrative5Situation7.wav,audio/Narrative6Situation7.wav,5,3,4,5,,,,,,,,,,,,,,,,,,,,,,,,,,,,,,,,,,,,,
,,,,,,63251e479509813fab713ad2,2024-02-08_13h08.54.832,group3.1-3.2-social-tom,2023.2.2,Win32,59.88023952,65c5074098b851296ff0b7ed,65c5413a6602dda54e7bfbcc,,,,,,,,,,,,,,,,,,,,,,,,,,,,,561.2856,1,audio/Narrative7Situation8.wav,563.2916,,563.2917,573.325,"[[999,0],[999,82],[999,166],[999,249],[999,333],[999,416],[999,499],[999,582],[999,666],[999,749],[999,833],[999,916],[999,999],[999,1082],[999,1166],[999,1249],[999,1333],[999,1417],[999,1499],[999,1583],[999,1666],[999,1749],[999,1833],[999,1917],[999,1999],[999,2083],[999,2166],[999,2250],[999,2333],[999,2417],[999,2499],[999,2583],[999,2666],[999,2750],[999,2832],[999,2916],[999,2999],[999,3083],[999,3166],[999,3250],[999,3333],[999,3416],[999,3499],[999,3583],[999,3666],[999,3750],[999,3834],[999,3918],[999,4000],[999,4084],[999,4166],[999,4252],[999,4332],[999,4416],[999,4499],[999,4583],[999,4666],[999,4750],[999,4833],[999,4916],[999,4999],[999,5083],[999,5166],[999,5250],[999,5333],[999,5418],[999,5500],[54.6,5586],[54.7,5666],[54.7,5751],[54.7,5832],[54.7,5916],[54.7,5999],[55.2,6086],[57,6166],[57.5,6250],[58.2,6333],[58.5,6417],[58.5,6499],[58.5,6583],[58.5,6666],[58.5,6750],[58.5,6832],[58.5,6916],[58.5,6999],[58.5,7083],[58.5,7166],[58.5,7250],[58.5,7333],[58.5,7416],[58.5,7499],[58.5,7583],[58.5,7666],[58.5,7750],[58.5,7833],[58.5,7916],[58.5,7999],[58.5,8082],[58.5,8166],[58.6,8249],[60.5,8335],[62,8416],[63.9,8501],[65,8583],[68.3,8667],[70.3,8749],[70.3,8833],[70.3,8927],[70.3,9000],[70.3,9082],[70.3,9166],[70.3,9249],[70.3,9333],[70.3,9416],[70.3,9499],[70.3,9583],[70.3,9666],[70.3,9749],[70.3,9833],[70.3,9916],[70.3,9999]]",1,0,573.3254,576.5249,74.5838603,2.6192,"[{""rating"":72.0859433697713,""responseTime"":1.3123999999761509},{""rating"":74.58386029873824,""responseTime"":2.619199999928469}]",space,2.6536,,576.525,Half the time,50,576.5334,,,[],,0,8,8,8,1,audio/Narrative7Situation8.wav,audio/Narrative8Situation8.wav,audio/Narrative5Situation8.wav,audio/Narrative6Situation8.wav,2,3,3,5,,,,,,,,,,,,,,,,,,,,,,,,,,,,,,,,,,,,,
,,,,,,63251e479509813fab713ad2,2024-02-08_13h08.54.832,group3.1-3.2-social-tom,2023.2.2,Win32,59.88023952,65c5074098b851296ff0b7ed,65c5413a6602dda54e7bfbcc,,,,,,,,,,,,,,,,,,,,,,,,,,,,,576.5341,1,audio/Narrative7Situation9.wav,578.5416,,578.5416,587.1748,"[[999,0],[999,83],[999,166],[999,249],[999,333],[999,416],[999,499],[999,583],[999,666],[999,749],[999,832],[999,916],[999,999],[999,1082],[999,1166],[999,1249],[999,1332],[999,1416],[999,1499],[999,1583],[999,1666],[999,1749],[999,1833],[999,1917],[999,1999],[999,2082],[999,2166],[999,2249],[999,2332],[999,2416],[999,2500],[999,2584],[999,2666],[999,2750],[999,2833],[999,2917],[999,3000],[999,3086],[999,3167],[73.4,3251],[73.5,3334],[73.5,3417],[73.7,3500],[73.7,3584],[73.7,3666],[74.3,3751],[76,3833],[77.4,3919],[83.2,4001],[85.2,4085],[85.2,4166],[86.3,4251],[88,4334],[89.2,4418],[90.3,4499],[90.5,4583],[90.5,4666],[90.5,4750],[90.5,4832],[90.5,4917],[90.5,4999],[90.5,5083],[90.5,5166],[90.5,5250],[90.5,5332],[90.5,5417],[90.5,5499],[90.5,5583],[90.5,5666],[90.5,5750],[90.5,5832],[90.5,5916],[90.5,5999],[90.5,6084],[90.5,6166],[90.5,6250],[90.5,6333],[90.5,6417],[90.5,6499],[90.5,6583],[90.5,6666],[90.5,6750],[90.5,6832],[90.5,6917],[90.5,6999],[90.5,7084],[90.5,7166],[90.5,7250],[90.5,7332],[90.5,7417],[90.5,7500],[90.5,7583],[90.5,7666],[90.5,7750],[90.5,7832],[90.5,7917],[90.5,7999],[90.5,8083],[90.5,8166],[90.5,8250],[90.5,8332],[90.5,8416],[90.5,8499],[90.5,8583]]",1,0,587.175,589.892,85.20003393,1.4653,"[{""rating"":85.20003392753321,""responseTime"":1.4653000000714655}]",space,2.1638,,589.8921,All the time,100,589.8997,,,[],,0,9,9,9,1,audio/Narrative7Situation9.wav,audio/Narrative8Situation9.wav,audio/Narrative5Situation9.wav,audio/Narrative6Situation9.wav,2,3,3,4,,,,,,,,,,,,,,,,,,,,,,,,,,,,,,,,,,,,,
,,,,,,63251e479509813fab713ad2,2024-02-08_13h08.54.832,group3.1-3.2-social-tom,2023.2.2,Win32,59.88023952,65c5074098b851296ff0b7ed,65c5413a6602dda54e7bfbcc,,,,,,,,,,,,,,,,,,,,,,,,,,,,,589.9006,1,audio/Narrative8Situation1.wav,594.9083,,594.9083,610.8423,"[[999,10],[999,83],[999,166],[999,249],[999,333],[999,417],[999,499],[999,583],[999,666],[999,751],[999,837],[999,917],[999,999],[999,1083],[999,1166],[999,1250],[999,1333],[999,1416],[999,1499],[999,1583],[999,1666],[999,1749],[999,1833],[999,1916],[999,1999],[999,2083],[999,2167],[999,2249],[999,2333],[999,2416],[999,2500],[999,2583],[999,2666],[999,2749],[999,2832],[999,2917],[999,3000],[999,3082],[999,3166],[999,3249],[999,3333],[999,3416],[999,3500],[999,3583],[999,3668],[999,3752],[999,3835],[999,3917],[37.4,4002],[36.4,4085],[34.8,4169],[33.3,4250],[32.9,4335],[31.7,4418],[30.7,4501],[30.7,4583],[30.7,4667],[30.6,4749],[30,4836],[29.2,4917],[28.4,5002],[27.5,5085],[26.9,5168],[26.2,5250],[25.9,5334],[25.9,5416],[25.9,5501],[25.9,5583],[25.9,5666],[25.9,5749],[24.3,5836],[20.4,5916],[20.2,6000],[20.2,6083],[20.2,6167],[20.2,6249],[20.2,6334],[20.2,6416],[20.2,6500],[20.2,6583],[20.2,6669],[20.2,6749],[20.2,6834],[18,6918],[16.1,7002],[13.5,7084],[13.3,7167],[13.2,7251],[13.2,7333],[13.2,7416],[13.2,7500],[13.2,7583],[13.2,7668],[13.2,7749],[13.2,7834],[13.2,7916],[13.2,8001],[13.2,8084],[13.2,8167],[12.4,8252],[12.1,8333],[12.1,8416],[12.1,8501],[12.1,8583],[12.1,8667],[12.1,8750],[12.1,8833],[12.1,8916],[12.1,9000],[12.1,9084],[12.1,9166],[12.1,9249],[12.1,9333],[12.1,9416],[12.1,9500],[12.1,9583],[12.1,9666],[12.1,9749],[12.1,9833],[12.1,9919],[12.1,9999],[12.1,10087],[12.1,10166],[12.1,10249],[12.1,10333],[12.1,10417],[12.1,10500],[12.1,10583],[12.1,10666],[12.1,10752],[12.1,10833],[12.1,10917],[12.1,10999],[12.1,11086],[12.1,11166],[12.2,11249],[12.2,11333],[12.2,11417],[12.2,11499],[12.2,11583],[12.2,11667],[12.2,11749],[12.2,11833],[12.2,11916],[12.7,12001],[13.7,12084],[14.5,12167],[15.1,12250],[15.5,12333],[15.5,12416],[15.5,12499],[15.5,12583],[15.5,12666],[15.5,12749],[15.5,12833],[15.5,12916],[15.5,12999],[15.5,13083],[15.5,13166],[15.5,13249],[15.5,13333],[15.5,13416],[15.5,13500],[15.5,13583],[15.5,13666],[15.5,13750],[15.5,13833],[15.5,13916],[15.5,13999],[15.5,14083],[15.5,14166],[15.8,14251],[17.1,14333],[17.3,14416],[17.3,14499],[17.3,14583],[17.3,14666],[17.3,14750],[17.3,14833],[17.3,14916],[17.3,14999],[17.3,15084],[17.3,15167],[17.3,15249],[17.3,15333],[17.3,15416],[17.3,15499],[17.3,15583],[17.3,15666],[17.3,15750],[17.3,15833],[17.3,15916]]",1,0,610.8427,612.7421,17.23573667,1.0094,"[{""rating"":17.23573667049545,""responseTime"":1.00939999997604}]",space,1.3758,,612.7422,Not at all,0,612.7475,,,[],,0,10,10,10,1,audio/Narrative8Situation1.wav,audio/Narrative7Situation1.wav,audio/Narrative6Situation1.wav,audio/Narrative5Situation1.wav,5,2,2,5,,,,,,,,,,,,,,,,,,,,,,,,,,,,,,,,,,,,,
,,,,,,63251e479509813fab713ad2,2024-02-08_13h08.54.832,group3.1-3.2-social-tom,2023.2.2,Win32,59.88023952,65c5074098b851296ff0b7ed,65c5413a6602dda54e7bfbcc,,,,,,,,,,,,,,,,,,,,,,,,,,,,,612.7479,1,audio/Narrative8Situation2.wav,615.7594,,615.7596,625.8755,"[[20.5,3434],[23.5,3515],[25,3600],[29.7,3682],[31.2,3767],[31.2,3848],[31.2,3932],[31.2,4015],[31.2,4098],[31.2,4181],[31.2,4264],[31.2,4348],[31.2,4432],[31.2,4514],[31.2,4598],[31.2,4681],[31.2,4765],[31.2,4848],[31.2,4932],[31.2,5014],[31.2,5098],[31.2,5181],[31.2,5265],[31.2,5348],[31.2,5431],[31.2,5514],[31.2,5598],[31.2,5681],[31.2,5764],[31.2,5848],[31.2,5931],[31.2,6014],[31.2,6098],[31.2,6182],[31.2,6265],[31.2,6348],[32.2,6432],[33.1,6516],[37.8,6617],[39.9,6698],[41.1,6783],[42,6865],[46,6950],[49.4,7045],[51.1,7119],[52.9,7212],[54,7283],[55.3,7365],[58.1,7485],[58.5,7585],[58.6,7682],[58.6,7782],[58.6,7881],[58.6,7964],[58.6,8048],[58.6,8131],[58.6,8214],[58.6,8298],[58.6,8381],[58.6,8465],[58.6,8548],[58.6,8631],[58.6,8715],[60,8798],[62,8882],[65.1,8966],[69,9049],[72.8,9132],[76.8,9215],[77.9,9298],[78.8,9381],[78.9,9465],[78.9,9548],[78.9,9631],[78.9,9714],[78.2,9799],[76,9882],[73,9965],[70.8,10048]]",1,0,625.8756,628.4916,56.47392699,1.4767,"[{""rating"":56.4739269894806,""responseTime"":1.4767000000476855}]",space,2.0691,,628.4918,Half the time,50,628.4966,,,[],,0,11,11,11,1,audio/Narrative8Situation2.wav,audio/Narrative7Situation2.wav,audio/Narrative6Situation2.wav,audio/Narrative5Situation2.wav,3,3,3,3,,,,,,,,,,,,,,,,,,,,,,,,,,,,,,,,,,,,,
,,,,,,63251e479509813fab713ad2,2024-02-08_13h08.54.832,group3.1-3.2-social-tom,2023.2.2,Win32,59.88023952,65c5074098b851296ff0b7ed,65c5413a6602dda54e7bfbcc,,,,,,,,,,,,,,,,,,,,,,,,,,,,,628.4969,1,audio/Narrative8Situation3.wav,632.5098,,632.5098,654.8914,"[[999,10],[999,99],[999,181],[999,266],[999,348],[999,433],[999,514],[999,600],[999,682],[999,768],[999,849],[999,933],[999,1014],[999,1098],[999,1181],[999,1265],[999,1347],[999,1432],[999,1514],[999,1598],[999,1681],[999,1765],[999,1848],[999,1933],[999,2014],[49.5,2101],[51.7,2182],[53.9,2268],[58,2349],[67.1,2433],[75.7,2515],[77.8,2600],[81,2682],[85.3,2767],[88,2848],[90.6,2933],[90.7,3014],[90.7,3098],[92.1,3182],[92.4,3265],[92.4,3347],[92.4,3431],[92.8,3515],[94.6,3600],[96,3683],[97.2,3771],[98.5,3848],[99.2,3933],[99.4,4014],[99.4,4098],[99.4,4182],[99.4,4265],[99.4,4347],[99.4,4431],[99.4,4514],[99.4,4597],[99.4,4681],[99.4,4764],[99.4,4848],[99.4,4931],[99.4,5014],[99.4,5098],[99.4,5181],[99.4,5264],[99.4,5348],[99.4,5431],[99.4,5515],[99.4,5598],[99.4,5681],[99.4,5764],[99.4,5848],[99.4,5931],[99.4,6014],[99.4,6098],[99.4,6181],[99.4,6264],[99.4,6347],[99.4,6431],[99.4,6514],[99.4,6598],[99.4,6681],[99.4,6764],[99.4,6848],[99.4,6931],[99.4,7014],[99.4,7097],[99.4,7181],[99.4,7264],[99.4,7347],[99.4,7431],[99.4,7514],[99.4,7598],[99.4,7681],[99.4,7764],[99.4,7847],[99.4,7931],[99.4,8014],[99.4,8098],[99.4,8181],[99.4,8264],[99.4,8348],[99.4,8431],[99.4,8514],[99.4,8597],[99.4,8681],[99.4,8764],[99.4,8847],[99.4,8931],[99.4,9014],[98.4,9106],[95.6,9182],[94.1,9266],[93.1,9348],[93,9431],[93,9514],[93,9598],[93,9681],[93,9764],[93,9847],[93,9931],[93,10014],[93,10098],[93,10181],[93,10265],[93,10348],[93,10431],[93,10514],[93,10598],[93,10681],[93,10764],[93,10848],[93,10931],[93,11014],[93,11098],[93,11181],[93,11264],[93,11348],[93,11431],[93,11514],[93,11598],[93,11681],[93,11764],[93,11848],[93,11931],[93,12014],[93,12098],[93,12181],[93,12264],[93,12347],[93,12431],[93,12514],[93,12598],[93,12681],[93,12764],[93,12848],[93,12931],[93,13014],[93,13098],[93,13181],[93,13264],[93,13348],[93,13431],[93,13514],[93,13597],[93,13681],[93,13764],[93,13848],[93,13931],[93,14014],[93,14097],[93,14181],[93,14264],[93,14348],[93,14431],[93,14514],[93,14598],[93,14681],[93,14764],[93,14847],[93,14931],[93,15014],[93,15097],[93,15181],[93,15264],[93,15348],[93,15431],[93,15514],[93,15598],[93,15681],[93,15764],[93,15848],[93,15931],[93,16015],[93,16097],[93,16182],[93,16264],[93,16348],[93,16431],[93,16515],[93,16598],[93,16682],[93,16767],[93,16848],[93,16931],[93,17015],[93,17097],[94,17183],[94.6,17264],[95.4,17350],[95.4,17431],[95.4,17515],[95.4,17598],[95.4,17682],[95.4,17765],[95.4,17848],[95.4,17931],[95.4,18015],[95.4,18097],[95.4,18181],[95.4,18264],[95.4,18348],[95.4,18431],[95.4,18515],[95.4,18597],[95.4,18682],[95.4,18764],[95.4,18849],[95.4,18931],[95.4,19015],[95.4,19098],[95.4,19182],[95.4,19264],[95.4,19348],[95.4,19431],[95.4,19515],[95.4,19597],[95.4,19682],[95.4,19764],[95.4,19848],[95.4,19931],[95.4,20015],[95.4,20098],[95.4,20182],[95.4,20264],[95.4,20348],[95.4,20431],[95.4,20515],[95.4,20597],[95.4,20682],[95.4,20764],[95.4,20848],[95.4,20931],[95.4,21015],[95.4,21097],[95.4,21181],[95.4,21264],[95.4,21348],[95.4,21431],[95.4,21515],[95.4,21599],[95.4,21681],[95.4,21765],[95.4,21848],[95.4,21931],[95.4,22014],[95.4,22098],[95.4,22181],[95.4,22264],[95.4,22347]]",1,0,654.8921,658.4915,94.77540291,2.8347,"[{""rating"":92.17339573005471,""responseTime"":1.9353000000714928},{""rating"":94.77540290688408,""responseTime"":2.834700000047633}]",space,3.0475,,658.4916,Half the time,50,658.4947,,,[],,0,12,12,12,1,audio/Narrative8Situation3.wav,audio/Narrative7Situation3.wav,audio/Narrative6Situation3.wav,audio/Narrative5Situation3.wav,4,8,5,3,,,,,,,,,,,,,,,,,,,,,,,,,,,,,,,,,,,,,
,,,,,,63251e479509813fab713ad2,2024-02-08_13h08.54.832,group3.1-3.2-social-tom,2023.2.2,Win32,59.88023952,65c5074098b851296ff0b7ed,65c5413a6602dda54e7bfbcc,,,,,,,,,,,,,,,,,,,,,,,,,,,,,658.4951,1,audio/Narrative8Situation4.wav,661.5087,,661.5087,675.6912,"[[53.4,99],[53.4,182],[53.4,265],[53.4,349],[53.4,432],[53.4,515],[53.4,599],[53.4,682],[53.4,765],[53.4,849],[53.4,933],[53.4,1015],[53.4,1099],[53.4,1182],[53.4,1265],[53.4,1349],[53.4,1432],[53.4,1515],[53.4,1599],[53.4,1682],[53.4,1765],[53.4,1849],[53.4,1932],[53.4,2015],[53.4,2099],[53.4,2182],[53.4,2265],[53.4,2349],[53.4,2432],[53.4,2515],[53.4,2598],[53.4,2682],[53.4,2765],[53.4,2849],[53.4,2932],[53.4,3015],[53.4,3099],[53.4,3182],[53.4,3265],[53.4,3348],[53.4,3432],[53.4,3515],[53.4,3599],[53.4,3682],[53.4,3766],[53.4,3849],[53.4,3933],[53.4,4015],[53.4,4100],[53.4,4182],[53.4,4266],[53.4,4349],[52.5,4434],[51,4516],[49.5,4601],[47.9,4684],[46.4,4767],[44.8,4850],[43.4,4935],[42,5016],[41.9,5099],[41.9,5182],[41.9,5266],[41.9,5349],[41.9,5432],[41.9,5515],[41.9,5599],[41.9,5682],[41.9,5766],[41.9,5848],[41.9,5933],[41.9,6015],[41.9,6099],[41.9,6182],[41.9,6266],[41.9,6349],[41.9,6432],[41.9,6515],[41.9,6599],[41.9,6682],[42,6769],[43.6,6849],[45,6935],[46.8,7016],[49.3,7101],[50.8,7183],[52.7,7268],[54.2,7349],[55.7,7434],[56.4,7516],[56.7,7599],[56.9,7683],[56.9,7766],[57.4,7850],[58.9,7934],[60.3,8017],[61,8101],[61.1,8182],[61.1,8266],[61.1,8348],[61.1,8432],[61.1,8515],[61.1,8599],[61.1,8682],[61.1,8766],[61.1,8849],[61.1,8932],[61.1,9016],[61.1,9099],[61.1,9182],[61.1,9266],[61.1,9349],[61.1,9432],[61.1,9515],[61.1,9599],[61.1,9682],[61.1,9765],[61.1,9849],[61.1,9932],[61.1,10015],[61.1,10099],[61.1,10183],[61.1,10265],[61.1,10349],[61.1,10432],[61.1,10515],[61.1,10598],[61.1,10682],[61.1,10765],[61.1,10849],[61.1,10932],[61.1,11015],[61.1,11099],[61.1,11182],[61.1,11265],[61.1,11348],[61.1,11432],[61.1,11515],[61.1,11598],[61.5,11690],[61.5,11765],[62.1,11849],[63.4,11933],[65.2,12016],[66.6,12100],[68.1,12183],[69.8,12266],[71.1,12349],[72.4,12433],[74,12516],[75.3,12600],[76.7,12683],[77.6,12766],[77.6,12849],[77.6,12932],[77.6,13015],[77.6,13098],[77.6,13182],[77.6,13265],[77.6,13348],[77.6,13432],[77.6,13515],[77.6,13598],[77.6,13682],[77.6,13766],[77.6,13849],[77.6,13932],[77.6,14015],[77.6,14099],[77.6,14182]]",1,0,675.6914,677.8413,77.70626535,1.1421,"[{""rating"":77.70626535350873,""responseTime"":1.1421000000239019}]",space,1.608,,677.8414,All the time,100,677.8458,,,[],,0,13,13,13,1,audio/Narrative8Situation4.wav,audio/Narrative7Situation4.wav,audio/Narrative6Situation4.wav,audio/Narrative5Situation4.wav,3,3,2,1,,,,,,,,,,,,,,,,,,,,,,,,,,,,,,,,,,,,,
,,,,,,63251e479509813fab713ad2,2024-02-08_13h08.54.832,group3.1-3.2-social-tom,2023.2.2,Win32,59.88023952,65c5074098b851296ff0b7ed,65c5413a6602dda54e7bfbcc,,,,,,,,,,,,,,,,,,,,,,,,,,,,,677.8461,1,audio/Narrative8Situation5.wav,679.8579,,679.8579,688.1088,"[[80.6,1166],[80.6,1249],[80.6,3668],[81.2,3750],[81.7,3835],[81.9,3916],[82.1,4002],[82.1,4083],[82.1,4167],[82.1,4249],[82.1,4333],[82.1,4416],[82.1,4500],[82.1,4583],[82.1,4667],[82.1,4749],[82.1,4834],[82.1,4916],[82.1,5000],[82.1,5083],[82.9,5169],[84.7,5251],[85.2,5333],[85.2,5416],[85.2,5500],[85.2,5583],[85.2,5667],[85.2,5749],[85.2,5834],[85.2,5916],[85.2,6000],[85.2,6083],[85.2,6167],[85.2,6249],[85.2,6333],[85.2,6416],[85.2,6500],[85.2,6583],[85.2,6667],[85.2,6749],[85.2,6833],[85.2,6916],[85.2,7000],[85.2,7083],[85.2,7166],[85.2,7249],[85.2,7333],[85.2,7416],[85.2,7499],[85.2,7583],[85.2,7666],[85.2,7749],[85.2,7833],[85.2,7916],[85.2,8000],[85.2,8083],[85.2,8167],[85.2,8250]]",1,0,688.1091,696.7411,85.5122691,1.168,"[{""rating"":85.51226909687317,""responseTime"":1.16800000000012}]",space,8.0895,,696.7412,Half the time,50,696.7549,,,[],,0,14,14,14,1,audio/Narrative8Situation5.wav,audio/Narrative7Situation5.wav,audio/Narrative6Situation5.wav,audio/Narrative5Situation5.wav,2,5,2,5,,,,,,,,,,,,,,,,,,,,,,,,,,,,,,,,,,,,,
,,,,,,63251e479509813fab713ad2,2024-02-08_13h08.54.832,group3.1-3.2-social-tom,2023.2.2,Win32,59.88023952,65c5074098b851296ff0b7ed,65c5413a6602dda54e7bfbcc,,,,,,,,,,,,,,,,,,,,,,,,,,,,,696.7552,1,audio/Narrative8Situation6.wav,698.7578,,698.7578,705.225,"[[999,0],[999,84],[999,166],[999,250],[999,333],[999,417],[999,499],[999,585],[999,667],[999,752],[999,833],[999,917],[999,1000],[999,1084],[999,1166],[999,1250],[999,1333],[999,1417],[999,1500],[999,1583],[999,1666],[999,1750],[999,1833],[999,1920],[999,2001],[999,2086],[999,2167],[999,2251],[999,2334],[999,2419],[999,2500],[999,2586],[51.9,2667],[52.2,2751],[52.5,2834],[52.5,2917],[52.5,2999],[52.5,3095],[52.5,3166],[52.5,3250],[52.5,3333],[52.5,3420],[53.1,3500],[53.3,3585],[53.3,3666],[53.3,3750],[53.3,3833],[53.3,3917],[53.3,3999],[54,4084],[54.5,4167],[55.3,4252],[55.6,4333],[55.6,4417],[55.6,4500],[55.6,4583],[55.6,4666],[55.6,4750],[55.6,4833],[55.6,4916],[55.6,4999],[55.6,5083],[55.6,5166],[55.6,5250],[55.6,5333],[55.6,5417],[55.6,5500],[55.6,5583],[55.6,5669],[55.6,5750],[55.6,5833],[55.6,5916],[55.6,6000],[55.6,6083],[55.6,6166],[55.6,6250],[55.6,6334],[55.6,6416]]",1,0,705.2251,708.2413,52.93520541,2.4423,"[{""rating"":52.93520541106956,""responseTime"":2.4423000000715547}]",space,2.4605,,708.2414,Half the time,50,708.2442,,,[],,0,15,15,15,1,audio/Narrative8Situation6.wav,audio/Narrative7Situation6.wav,audio/Narrative6Situation6.wav,audio/Narrative5Situation6.wav,2,3,2,3,,,,,,,,,,,,,,,,,,,,,,,,,,,,,,,,,,,,,
,,,,,,63251e479509813fab713ad2,2024-02-08_13h08.54.832,group3.1-3.2-social-tom,2023.2.2,Win32,59.88023952,65c5074098b851296ff0b7ed,65c5413a6602dda54e7bfbcc,,,,,,,,,,,,,,,,,,,,,,,,,,,,,708.2445,1,audio/Narrative8Situation7.wav,711.2579,,711.258,723.3578,"[[52.9,4000],[52.9,4083],[52.9,4166],[52.9,4249],[52.9,4333],[52.9,4416],[52.9,4500],[52.9,4583],[52.9,4667],[52.9,4749],[52.8,4833],[52.8,4916],[52.8,5000],[52.8,5083],[52.8,5166],[52.8,5249],[52.8,5333],[52.8,5416],[52.8,5500],[52.8,5583],[52.8,5667],[52.8,5749],[52.8,5833],[52.8,5916],[52.8,6000],[52.8,6083],[52.8,6167],[52.8,6249],[52.8,6333],[52.8,6416],[51.8,6502],[49.8,6583],[48.4,6667],[46.8,6750],[45,6834],[44.1,6916],[43.2,7002],[41.7,7083],[40.8,7169],[40.6,7249],[40.6,7333],[40.6,7416],[40.6,7500],[40.6,7583],[40.6,7667],[40.6,7749],[40.6,7833],[40.6,7916],[40.6,8000],[40.6,8083],[40.6,8167],[40.6,8249],[40.6,8333],[40.6,8416],[40.6,8500],[40.6,8583],[40.6,8666],[40.6,8749],[40.6,8833],[40.6,8916],[40.6,9000],[40.6,9083],[40.6,9166],[40.6,9249],[40.6,9333],[40.6,9416],[45.8,9503],[48.7,9585],[49.8,9668],[51.6,9752],[53.5,9837],[54.9,9917],[55.3,10011],[56.1,10084],[57.4,10167],[57.5,10250],[57.5,10333],[57.5,10416],[57.5,10499],[57.5,10583],[57.5,10666],[57.5,10750],[57.5,10833],[57.5,10916],[57.5,10999],[57.5,11083],[57.5,11166],[57.5,11249],[57.5,11333],[57.5,11416],[56.3,11500],[55.6,11583],[55.4,11666],[55.4,11749],[55.4,11832],[55.4,11916],[55.4,11999],[55.4,12082]]",1,0,723.3579,725.3412,49.91688171,1.361,"[{""rating"":49.916881710599654,""responseTime"":1.3610000000001037}]",space,1.451,,725.3413,Not at all,0,725.3506,,,[],,0,16,16,16,1,audio/Narrative8Situation7.wav,audio/Narrative7Situation7.wav,audio/Narrative6Situation7.wav,audio/Narrative5Situation7.wav,3,5,5,4,,,,,,,,,,,,,,,,,,,,,,,,,,,,,,,,,,,,,
,,,,,,63251e479509813fab713ad2,2024-02-08_13h08.54.832,group3.1-3.2-social-tom,2023.2.2,Win32,59.88023952,65c5074098b851296ff0b7ed,65c5413a6602dda54e7bfbcc,,,,,,,,,,,,,,,,,,,,,,,,,,,,,725.3514,1,audio/Narrative8Situation8.wav,728.3577,,728.3579,741.2249,"[[50.8,3584],[52.5,3667],[53.4,3751],[53.5,3833],[53.5,3917],[53.5,3999],[54.3,4084],[56.5,4167],[57.9,4252],[59.2,4333],[59.9,4417],[60.1,4499],[60.1,4583],[60.1,4666],[60.1,4750],[60.1,4833],[60.1,4916],[60.1,4999],[60.6,5086],[63.2,5167],[64.7,5252],[65.8,5333],[65.9,5417],[65.9,5499],[65.9,5584],[65.9,5666],[66.4,5751],[69.1,5834],[71.7,5919],[72,5999],[72.2,6085],[73.9,6167],[76.4,6251],[77.4,6333],[77.6,6417],[77.6,6500],[77.6,6584],[77.6,6666],[77.6,6750],[77.6,6833],[77.6,6917],[77.6,7000],[77.6,7084],[77.6,7166],[77.6,7249],[77.6,7333],[77.6,7417],[77.6,7500],[77.6,7583],[79.4,7667],[88.4,7751],[98.6,7834],[100,7921],[100,7999],[100,8084],[100,8166],[100,8250],[100,8333],[100,8416],[100,8499],[100,8583],[100,8666],[100,8750],[100,8833],[100,8916],[100,8999],[100,9083],[100,9167],[100,9250],[100,9333],[100,9416],[100,9499],[100,9583],[100,9667],[100,9749],[100,9833],[100,9916],[100,10000],[100,10083],[100,10166],[100,10250],[100,10334],[100,10416],[100,10500],[100,10583],[100,10666],[100,10749],[100,10833],[100,10916],[100,11001],[100,11083],[100,11166],[100,11250],[100,11333],[100,11416],[100,11499],[100,11583],[100,11666],[100,11749],[100,11833],[100,11916],[100,12000],[100,12082],[100,12166],[100,12249],[100,12333],[100,12416],[100,12500],[100,12583],[100,12666],[100,12749],[100,12833]]",1,0,741.2252,754.4912,99.66715541,11.1629,"[{""rating"":99.66715541051737,""responseTime"":11.162900000095533}]",space,12.7291,,754.4912,All the time,100,754.4986,,,[],,0,17,17,17,1,audio/Narrative8Situation8.wav,audio/Narrative7Situation8.wav,audio/Narrative6Situation8.wav,audio/Narrative5Situation8.wav,3,2,5,3,,,,,,,,,,,,,,,,,,,,,,,,,,,,,,,,,,,,,
,,,,,,63251e479509813fab713ad2,2024-02-08_13h08.54.832,group3.1-3.2-social-tom,2023.2.2,Win32,59.88023952,65c5074098b851296ff0b7ed,65c5413a6602dda54e7bfbcc,,,,,,,,,,,,,,,,,,,,,,,,,,,,,754.4994,1,audio/Narrative8Situation9.wav,757.5075,,757.5077,768.8246,"[[999,0],[999,83],[999,166],[999,249],[999,333],[999,416],[999,500],[999,583],[999,666],[999,750],[999,833],[999,916],[999,1000],[999,1083],[999,1166],[999,1249],[999,1333],[999,1416],[999,1500],[999,1583],[999,1666],[999,1750],[999,1833],[999,1916],[999,1999],[999,2083],[999,2167],[999,2249],[999,2333],[999,2416],[999,2499],[999,2583],[999,2666],[999,2749],[999,2833],[999,2916],[999,3000],[999,3083],[999,3166],[999,3249],[999,3333],[999,3416],[999,3499],[999,3583],[999,3666],[999,3749],[999,3834],[999,3918],[999,4000],[999,4083],[999,4166],[999,4250],[999,4333],[58.4,4418],[58.3,4500],[58.6,4583],[58.8,4666],[59.3,4751],[61,4833],[62.6,4919],[63.7,5000],[64,5083],[64,5166],[64,5249],[64,5333],[64,5416],[64,5500],[64,5583],[64,5666],[64,5749],[64,5833],[64,5916],[64,5999],[64,6083],[64,6166],[64,6249],[64,6333],[64,6416],[64,6500],[64,6583],[64,6667],[64,6749],[64,6833],[64,6916],[64,7001],[64,7083],[64,7167],[64,7249],[64,7333],[64,7417],[64,7500],[64,8149],[64,8233],[64,8316],[64,8400],[64,8485],[64,8567],[64,8649],[64,8733],[64,8816],[64,8900],[65.7,8983],[66.8,9069],[67.3,9150],[67.3,9233],[67.3,9316],[67.3,9400],[67.3,9483],[67.3,9567],[67.3,9649],[67.3,9733],[67.3,9816],[67.3,9900],[67.3,9983],[67.3,10067],[67.3,10149],[67.3,10234],[67.3,10316],[67.3,10400],[67.3,10483],[67.3,10567],[67.3,10649],[67.3,10734],[67.3,10816],[67.3,10900],[67.3,10983],[67.3,11067],[67.3,11149],[67.3,11233],[67.3,11316]]",1,0,768.8249,771.3751,60.01264857,1.499,"[{""rating"":60.01264856789166,""responseTime"":1.4990000000000236}]",space,2.0265,,771.3753,Not at all,0,771.386,,,[],,0,18,18,18,1,audio/Narrative8Situation9.wav,audio/Narrative7Situation9.wav,audio/Narrative6Situation9.wav,audio/Narrative5Situation9.wav,3,2,4,3,,,,,,,,,,,,,,,,,,,,,,,,,,,,,,,,,,,,,
,,,,,,63251e479509813fab713ad2,2024-02-08_13h08.54.832,group3.1-3.2-social-tom,2023.2.2,Win32,59.88023952,65c5074098b851296ff0b7ed,65c5413a6602dda54e7bfbcc,,,,,,,,,,,,,,,,,,,,,,,,,,,820.7743,823.3411,823.3616,2,audio/Narrative13Situation2.wav,823.3619,,823.362,853.1077,"[[999,0],[999,78],[999,162],[999,245],[999,328],[999,412],[999,495],[999,578],[999,662],[999,746],[999,828],[999,912],[999,995],[999,1078],[999,1162],[999,1245],[999,1328],[999,1412],[999,1496],[999,1579],[999,1663],[999,1745],[999,1829],[999,1913],[999,1996],[999,2079],[999,2163],[999,2245],[999,2331],[999,2412],[999,2496],[999,2579],[999,2663],[46,2745],[47,2829],[47.9,2913],[48.3,2996],[48.4,3078],[48.4,3162],[48.4,3245],[48.4,3328],[48.4,3412],[48.4,3495],[48.4,3578],[48.4,3662],[48.4,3745],[48.4,3829],[48.4,3912],[48.4,3995],[48.4,4079],[48.4,4162],[48.4,4245],[48.4,4328],[48.4,4412],[48.4,4495],[48.4,4578],[48.4,4662],[48.4,4745],[48.4,4828],[48.4,4912],[48.4,4995],[48.7,5078],[49.6,5162],[50.9,5246],[51.4,5328],[52,5412],[52.4,5495],[52.4,5578],[53.1,5662],[53.1,5745],[53.5,5828],[53.6,5912],[53.6,5995],[53.6,6078],[53.6,6162],[53.6,6245],[53.6,6328],[53.6,6412],[53.6,6495],[53.6,6578],[53.7,6662],[53.7,6745],[53.7,6828],[53.7,6912],[53.7,6995],[53.7,7078],[53.7,7161],[53.7,7245],[53.7,7328],[53.7,7412],[53.7,7495],[53.7,7578],[53.7,7662],[53.7,7745],[53.7,7828],[53.7,7912],[53.7,7995],[53.7,8078],[53.7,8162],[53.7,8245],[53.7,8328],[53.7,8412],[53.7,8495],[53.7,8579],[53.7,8662],[53.7,8745],[53.7,8828],[53.7,8912],[53.7,8995],[53.7,9079],[53.7,9162],[53.7,9246],[53.7,9328],[53.7,9413],[53.7,9495],[53.7,9579],[53.7,9662],[53.7,9746],[53.7,9828],[53.7,9913],[53.7,9995],[53.7,10079],[53.7,10162],[53.7,10246],[53.7,10329],[53.7,10413],[53.7,10495],[53.7,10579],[53.7,10662],[53.7,10746],[53.7,10828],[53.7,10913],[53.7,10995],[53.7,11079],[53.7,11162],[53.7,11246],[53.7,11328],[53.7,11413],[53.7,11495],[53.7,11579],[53.7,11662],[53.7,11746],[53.7,11828],[53.7,11913],[53.7,11995],[53.7,12079],[53.7,12162],[53.7,12246],[53.7,12328],[53.7,12413],[53.7,12495],[53.7,12579],[53.7,12661],[53.7,12746],[53.7,12828],[53.7,12912],[53.7,12995],[53.7,13079],[53.7,13162],[53.7,13245],[53.7,13328],[53.7,13412],[53.7,13495],[53.7,13579],[53.7,13665],[53.7,13745],[53.7,13828],[53.7,13912],[53.7,13995],[53.7,14079],[53.6,14173],[53.3,14248],[52.9,14329],[51.9,14423],[51.7,14496],[51.5,14578],[51.5,14662],[51.4,14745],[51.4,14829],[51.4,14912],[51.4,14995],[51.4,15078],[51.4,15161],[51.4,15245],[51.4,15328],[51.4,15412],[51.4,15495],[51.4,15578],[51.4,15662],[51.4,15745],[51.4,15828],[51.4,15912],[51.4,15997],[51.4,16079],[51.4,16164],[51.4,16245],[51.4,16329],[51.4,16412],[51.4,16495],[51.4,16578],[51.4,16662],[51.4,16745],[51.4,16828],[51.4,16912],[51.4,16995],[51.4,17078],[51.4,17162],[51.4,17245],[51.4,17328],[51.4,17412],[51.4,17495],[51.4,17579],[51.4,17662],[51.4,17745],[51.4,17828],[51.4,17912],[51.4,17995],[51.4,18078],[51.4,18162],[51.4,18245],[51.4,18328],[51.4,18412],[51.4,18495],[51.4,18578],[51.4,18661],[51.4,18745],[51.4,18828],[51.4,18912],[51.4,18995],[51.4,19078],[51.4,19162],[51.4,19245],[51.4,19328],[51.4,19412],[51.4,19495],[51.4,19578],[51.4,19662],[51.4,19745],[51.4,19828],[51.4,19912],[51.4,19995],[51.4,20078],[51.4,20162],[51.4,20245],[51.4,20328],[51.4,20413],[51.4,20495],[51.4,20578],[51.4,20662],[51.4,20745],[51.4,20828],[51.4,20912],[51.4,20995],[51.4,21078],[51.4,21162],[51.4,21245],[51.4,21328],[51.4,21412],[51.4,21495],[51.4,21578],[51.4,21661],[51.4,21745],[51.4,21828],[51.9,21917],[53,21996],[53.8,22079],[54.1,22162],[54.1,22245],[54.1,22328],[54.1,22412],[54.1,22495],[54.1,22578],[54.1,22662],[54.1,22745],[54.1,22828],[54.1,22912],[54.1,22995],[54.1,23079],[54.1,23162],[54.1,23245],[54.1,23328],[54.1,23412],[54.1,23495],[54.1,23578],[54.1,23663],[54.1,23745],[54.1,23828],[54.1,23912],[54.1,23995],[54.1,24078],[54.1,24161],[54.1,24245],[54.1,24328],[54.1,24412],[54.1,24495],[54.1,24578],[54.1,24661],[54.1,24745],[54.1,24828],[54.1,24912],[54.1,24995],[54.1,25078],[54.1,25162],[54.1,25245],[54.1,25328],[54.1,25412],[54.1,25495],[54.1,25578],[54.1,25662],[54.1,25745],[54.1,25829],[54.1,25912],[54.1,25996],[54.1,26078],[54.1,26163],[54.1,26245],[54.1,26329],[54.1,26412],[54.1,26496],[54.1,26578],[54.1,26662],[54.1,26745],[54.1,26829],[54.1,26912],[54.1,26995],[54.1,27078],[54.1,27162],[54.1,27245],[54.1,27330],[54.1,27412],[54.1,27496],[54.1,27578],[54.1,27662],[54.1,27745],[54.1,27829],[54.1,27912],[54.1,27996],[54.1,28078],[54.1,28163],[54.1,28245],[54.1,28329],[54.1,28412],[54.1,28496],[54.1,28578],[54.1,28662],[54.1,28745],[54.1,28829],[54.1,28912],[54.1,28996],[54.1,29078],[54.1,29162],[54.1,29245],[54.1,29329],[54.1,29412],[54.1,29496],[54.1,29578],[54.1,29662],[54.1,29745]]",1,0,853.1082,853.1224,,,[],,,,853.1225,Not at all,0,853.1294,,,[],,0,0,0,0,1,audio/Narrative13Situation2.wav,audio/Narrative13Situation2.wav,audio/Narrative13Situation2.wav,audio/Narrative13Situation2.wav,2,2,2,2,,,,,771.3879,820.7604,space,48.8593,,,,,,,,,,,,,,,,,,,,,,,,,,,,,
,,,,,,63251e479509813fab713ad2,2024-02-08_13h08.54.832,group3.1-3.2-social-tom,2023.2.2,Win32,59.88023952,65c5074098b851296ff0b7ed,65c5413a6602dda54e7bfbcc,,,,,,,,,,,,,,,,,,,,,,,,,,,,,853.1303,2,audio/Narrative5Situation1.wav,858.1415,,858.1417,871.4424,"[[999,11],[999,83],[999,166],[999,249],[999,332],[999,416],[999,499],[999,583],[999,667],[999,750],[999,833],[999,916],[999,999],[999,1082],[999,1166],[999,1249],[999,1332],[999,1416],[999,1499],[999,1582],[999,1666],[999,1750],[999,1832],[999,1916],[999,1999],[999,2082],[999,2166],[999,2250],[999,2332],[999,2418],[999,2500],[999,2583],[48.8,2668],[48.9,2750],[49,2833],[49,2916],[49,2999],[49,3082],[48.5,3167],[45.2,3251],[42.6,3333],[36.5,3417],[31.9,3500],[30.6,3584],[29.6,3668],[28,3750],[27.9,3833],[27.9,3916],[27.9,4000],[27.9,4082],[27.9,4165],[27.9,4249],[27.9,4332],[27.9,4416],[27.9,4500],[27.8,4583],[27.7,4666],[27.5,4750],[27.5,4832],[27.5,4916],[27.5,4999],[27.5,5082],[27.5,5166],[27.5,5249],[27.5,5332],[27.5,5416],[27.6,5499],[27.8,5582],[28.3,5666],[28.9,5749],[29.7,5834],[30.8,5917],[31.6,6000],[31.6,6082],[31.8,6166],[31.8,6249],[31.8,6332],[31.8,6416],[31.8,6499],[31.8,6583],[31.8,6666],[31.8,6749],[31.8,6833],[31.8,6916],[31.8,6999],[31.8,7082],[31.8,7166],[32.9,7250],[38.8,7335],[41,7416],[43.6,7503],[45.7,7583],[47.5,7668],[49,7750],[49.4,7833],[49.4,7916],[49.4,8000],[49.4,8083],[49.4,8166],[49.4,8249],[49.5,8336],[48.8,8417],[48.2,8501],[47.8,8585],[47.8,8666],[47.8,8750],[47.8,8835],[47.8,8921],[47.8,9000],[47.8,9083],[47.8,9166],[47.8,9249],[47.8,9333],[47.8,9416],[47.8,9500],[47.8,9582],[47.8,9668],[47.8,9749],[47.8,9833],[47.8,9916],[47.8,10000],[47.8,10082],[47.8,10166],[48.7,10250],[50.2,10336],[50.9,10416],[51.1,10500],[51.1,10582],[51.1,10666],[51.1,10749],[51.1,10833],[51.1,10916],[51.1,10999],[51.1,11082],[51.1,11167],[51.1,11249],[51.1,11334],[51.1,11417],[51.1,11500],[52.2,11585],[53.4,11669],[54.9,11752],[55.6,11839],[56.3,11918],[56.9,12000],[56.9,12082],[56.9,12166],[56.9,12249],[56.9,12333],[56.9,12415],[56.9,12500],[56.9,12583],[56.9,12666],[56.9,12749],[56.9,12834],[56.9,12915],[56.9,13000],[56.9,13082],[56.9,13166],[56.9,13249]]",1,0,871.4428,875.6248,57.30656893,1.396,"[{""rating"":57.30656893032353,""responseTime"":1.3959999999999582}]",space,3.6428,,875.6249,All the time,100,875.6356,,,[],,0,1,1,1,1,audio/Narrative7Situation1.wav,audio/Narrative8Situation1.wav,audio/Narrative5Situation1.wav,audio/Narrative6Situation1.wav,2,5,5,2,,,,,,,,,,,,,,,,,,,,,,,,,,,,,,,,,,,,,
,,,,,,63251e479509813fab713ad2,2024-02-08_13h08.54.832,group3.1-3.2-social-tom,2023.2.2,Win32,59.88023952,65c5074098b851296ff0b7ed,65c5413a6602dda54e7bfbcc,,,,,,,,,,,,,,,,,,,,,,,,,,,,,875.636,2,audio/Narrative5Situation2.wav,878.6417,,878.6418,908.1084,"[[999,0],[999,82],[999,166],[999,249],[999,334],[999,416],[999,499],[999,582],[999,669],[999,750],[999,833],[999,916],[999,999],[999,1082],[999,1166],[999,1249],[999,1332],[999,1416],[999,1499],[999,1582],[999,1665],[999,1749],[999,1832],[999,1915],[999,1999],[999,2083],[999,2165],[999,2249],[999,2333],[999,2416],[999,2499],[999,2582],[999,2665],[999,2750],[999,2832],[999,2917],[999,2998],[999,3083],[999,3166],[999,3250],[999,3333],[999,3417],[999,3499],[999,3583],[999,3667],[999,3751],[49.1,3833],[48.3,3919],[47.8,4000],[47.8,4083],[47.1,4167],[46.2,4250],[44.3,4333],[43.2,4418],[43.1,4499],[43.1,4585],[43.1,4666],[43,4749],[43,4832],[43,4916],[43,4999],[43,5083],[43,5165],[43,5249],[43,5332],[43,5416],[43,5499],[43,5583],[43,5665],[43,5750],[43,5833],[43,5916],[43,6000],[43,6083],[43,6165],[43,6250],[43,6333],[43,6416],[43,6499],[43,6583],[43,6665],[43,6750],[43,6832],[43,6917],[43,6999],[43,7084],[43,7165],[43,7250],[43,7332],[43,7416],[43,7499],[43,7583],[43,7665],[43,7749],[43,7832],[43,7916],[43,7998],[43,8083],[43,8165],[43,8250],[43,8332],[43,8416],[41.8,8500],[39.5,8586],[36.2,8667],[28.8,8751],[28.6,8832],[28.6,8916],[28.6,9001],[28.6,9083],[28.6,9165],[28.6,9249],[28.6,9333],[28.6,9416],[28.6,9499],[28.6,9583],[28.6,9665],[28.6,9749],[28.6,9833],[28.6,9915],[28.6,10000],[28.6,10082],[28.6,10165],[28.6,10249],[28.6,10332],[28.6,10415],[28.6,10499],[28.6,10582],[28.6,10665],[28.6,10749],[28.6,10832],[28.6,10915],[28.6,10999],[28.6,11083],[28.6,11166],[28.6,11249],[28.6,11334],[28.6,11415],[28.6,11499],[28.6,11582],[28.6,11666],[28.6,11750],[28.6,11832],[28.6,11915],[28.6,11999],[28.6,12082],[28.6,12165],[28.6,12249],[28.6,12332],[28.6,12415],[28.6,12499],[28.6,12582],[28.6,12666],[28.6,12749],[28.6,12832],[28.6,12916],[28.6,12999],[28.6,13082],[28.6,13166],[28.6,13249],[28.6,13332],[28.6,13416],[28.6,13499],[28.6,13582],[28.6,13666],[28.6,13749],[28.6,13832],[28.6,13915],[28.6,13999],[28.6,14082],[28.6,14166],[28.6,14249],[28.6,14332],[28.6,14415],[28.6,14498],[28.6,14582],[28.6,14665],[28.6,14749],[28.6,14832],[28.6,14915],[28.6,14999],[29,15082],[29.7,15166],[30.1,15249],[30.5,15334],[30.9,15415],[31.4,15499],[31.4,15582],[31.4,15665],[31.4,15750],[31.4,15832],[31.4,15915],[31.4,15999],[31.4,16083],[31.4,16165],[31.4,16249],[31.4,16332],[31.4,16416],[31.4,16499],[31.5,16583],[33,16667],[34.3,16750],[34.5,16834],[34.8,16916],[34.8,16999],[34.9,17082],[34.9,17165],[34.9,17249],[34.9,17332],[34.9,17415],[34.9,17499],[34.9,17582],[34.9,17665],[34.9,17749],[34.9,17832],[34.9,17915],[34.9,17999],[34.9,18083],[34.9,18165],[34.9,18249],[34.9,18332],[34.9,18415],[34.9,18499],[34.9,18583],[34.9,18665],[34.9,18749],[34.9,18832],[34.9,18916],[34.9,18999],[34.9,19082],[34.9,19165],[34.9,19249],[34.9,19332],[34.9,19416],[34.9,19498],[34.9,19582],[34.9,19665],[34.9,19749],[34.9,19832],[34.9,19915],[34.9,19999],[34.9,20082],[34.9,20166],[34.9,20249],[34.9,20332],[34.9,20415],[34.9,20499],[34.9,20583],[34.9,20667],[34.9,20749],[34.9,20833],[34.9,20916],[34.9,20999],[34.9,21082],[34.9,21166],[34.9,21249],[34.9,21335],[34.9,21415],[34.9,21500],[34.9,21582],[34.9,21666],[34.9,21749],[34.9,21833],[34.9,21915],[34.9,21999],[34.9,22082],[34.9,22166],[34.9,22249],[34.9,22333],[34.9,22416],[34.9,22500],[34.9,22583],[34.9,22666],[34.9,22749],[34.9,22834],[34.9,22915],[34.9,22999],[35.9,23083],[36.7,23168],[37.5,23250],[38.1,23335],[38.7,23417],[39.2,23501],[39.4,23582],[39.7,23666],[39.7,23749],[39.7,23833],[39.7,23915],[39.7,24000],[39.7,24082],[39.7,24167],[39.7,24249],[39.7,24334],[39.7,24416],[39.7,24500],[39.7,24582],[39.7,24666],[39.7,24749],[39.7,24833],[39.7,24915],[39.7,25001],[39.7,25082],[39.7,25166],[39.7,25248],[39.7,25335],[39.7,25415],[39.7,25499],[39.7,25582],[39.7,25666],[39.7,25749],[39.7,25833],[39.7,25915],[39.7,25999],[39.7,26082],[39.7,26166],[39.7,26250],[39.7,26333],[39.7,26416],[39.7,26499],[39.7,26582],[39.7,26665],[39.7,26750],[39.7,26833],[39.7,26917],[39.7,26999],[39.7,27084],[39.7,27165],[39.7,27250],[39.7,27333],[39.7,27416],[39.7,27499],[39.7,27582],[39.7,27666],[39.7,27749],[39.7,27832],[39.7,27916],[39.7,27999],[39.7,28082],[39.7,28166],[39.7,28249],[39.7,28332],[39.7,28416],[39.7,28499],[39.7,28582],[39.7,28666],[39.7,28749],[39.7,28832],[39.7,28916],[39.7,28999],[39.7,29082],[39.7,29165],[39.7,29249],[39.7,29333],[39.7,29416]]",1,0,908.1089,910.4413,39.92519621,1.2826,"[{""rating"":39.92519620760824,""responseTime"":1.282600000023649}]",space,1.7781,,910.4413,All the time,100,910.4445,,,[],,0,2,2,2,1,audio/Narrative7Situation2.wav,audio/Narrative8Situation2.wav,audio/Narrative5Situation2.wav,audio/Narrative6Situation2.wav,3,3,3,3,,,,,,,,,,,,,,,,,,,,,,,,,,,,,,,,,,,,,
,,,,,,63251e479509813fab713ad2,2024-02-08_13h08.54.832,group3.1-3.2-social-tom,2023.2.2,Win32,59.88023952,65c5074098b851296ff0b7ed,65c5413a6602dda54e7bfbcc,,,,,,,,,,,,,,,,,,,,,,,,,,,,,910.4448,2,audio/Narrative5Situation3.wav,913.4578,,913.4578,927.3578,"[[52.9,350],[47.9,2100],[47.8,2183],[47.8,2266],[47.8,2349],[47.8,2433],[47.8,2517],[47.4,2600],[46.4,2683],[46.4,2766],[46.4,2849],[46.4,2933],[46.4,3016],[46.4,3100],[46.4,3182],[46.4,3266],[46.4,3349],[46.4,3433],[46.4,3516],[46.4,3600],[46.4,3682],[46.9,3768],[48.3,3850],[50.2,3936],[51.9,4017],[52.8,4101],[54.1,4183],[54.5,4267],[54.5,4349],[54.5,4433],[54.5,4516],[54.5,4600],[54.5,4682],[54.5,4767],[54.5,4849],[54.5,4933],[54.5,5016],[54.5,5100],[54.5,5182],[54.5,5267],[54.5,5349],[54.5,5433],[54.5,5516],[54.5,5600],[54.5,5682],[54.5,5766],[54.5,5849],[54.5,5933],[54.5,6016],[54.5,6100],[54.5,6185],[54.5,6267],[54.5,6349],[54.5,6433],[54.5,6516],[54.5,6600],[54.5,6682],[54.5,6766],[54.5,6849],[54.5,6933],[54.5,7016],[54.5,7100],[54.5,7182],[54.5,7266],[54.5,7349],[54.5,7433],[54.5,7516],[54.5,7599],[54.5,7682],[54.5,7766],[54.5,7849],[54.5,7933],[54.5,8016],[54.5,8100],[54.5,8183],[54.5,8266],[54.5,8350],[54.5,8432],[54.5,8517],[54.5,8599],[54.5,8682],[54.5,8766],[54.5,8849],[54.5,8932],[54.5,9017],[56,9101],[59.6,9184],[60.7,9266],[61,9351],[62.2,9433],[63.6,9519],[64,9600],[64.3,9684],[64.3,9766],[64.4,9849],[64.6,9932],[64.6,10016],[64.7,10099],[64.7,10182],[64.7,10266],[64.7,10349],[64.7,10433],[64.7,10516],[64.7,10599],[64.7,10682],[64.7,10766],[64.7,10849],[64.7,10932],[64.7,11016],[64.7,11099],[64.7,11182],[64.7,11266],[64.7,11349],[64.7,11432],[64.7,11516],[65.9,11600],[66.5,11683],[66.9,11767],[67.9,11850],[68.1,11932],[68.1,12015],[68.1,12099],[68.1,12182],[68.1,12266],[68.1,12349],[68.1,12432],[68.1,12516],[68.1,12599],[68.1,12682],[68.1,12766],[68.1,12849],[68.1,12933],[68.1,13016],[68.1,13099],[68.1,13183],[68.1,13266],[68.1,13349],[68.1,13432],[68.1,13516],[68.1,13599],[68.1,13682],[68.1,13766],[68.1,13849]]",1,0,927.358,929.8738,69.6920989,1.5046,"[{""rating"":69.6920989015431,""responseTime"":1.5046000000238564}]",space,1.9893,,929.8739,All the time,100,929.8781,,,[],,0,3,3,3,1,audio/Narrative7Situation3.wav,audio/Narrative8Situation3.wav,audio/Narrative5Situation3.wav,audio/Narrative6Situation3.wav,8,4,3,5,,,,,,,,,,,,,,,,,,,,,,,,,,,,,,,,,,,,,
,,,,,,63251e479509813fab713ad2,2024-02-08_13h08.54.832,group3.1-3.2-social-tom,2023.2.2,Win32,59.88023952,65c5074098b851296ff0b7ed,65c5413a6602dda54e7bfbcc,,,,,,,,,,,,,,,,,,,,,,,,,,,,,929.8787,2,audio/Narrative5Situation4.wav,930.8909,,930.891,951.2917,"[[70.6,4333],[70.6,4417],[70.6,4499],[70.6,4583],[70.6,4666],[70.6,4750],[70.6,4833],[70.6,4917],[70.6,4999],[70.6,5084],[70.6,5166],[70.6,5250],[70.6,5333],[70.6,5416],[70.6,5499],[70.6,5584],[70.6,5666],[70.6,5750],[70.6,5833],[70.6,5917],[70.6,5999],[70.6,6084],[70.6,6166],[70.6,6250],[70.6,6332],[70.6,6417],[70.6,6499],[70.6,6583],[70.6,6666],[70.6,6750],[70.6,6832],[70.6,6916],[70.6,6999],[70.6,7084],[70.6,7166],[70.6,7249],[70.6,7333],[70.6,7416],[70.6,7499],[72.3,7583],[72.6,7666],[72.6,7750],[73,7834],[73.9,7917],[74.5,8000],[74.5,8096],[74.5,8182],[74.5,8266],[74.5,8349],[74.5,8433],[74.5,8516],[74.5,8599],[74.5,8682],[74.5,8767],[74.5,8849],[74.5,8932],[74.5,9016],[74.5,9099],[74.5,9182],[74.5,9266],[74.5,9349],[74.5,9432],[74.5,9516],[74.5,9599],[74.5,9682],[74.5,9766],[74.5,9849],[74.5,9932],[74.5,10016],[74.5,10099],[74.5,10182],[74.5,10266],[74.5,10349],[74.5,10432],[74.5,10516],[74.5,10599],[74.5,10682],[74.5,10766],[74.5,10849],[74.5,10932],[74.5,11016],[74.5,11099],[74.5,11182],[74.5,11266],[74.5,11349],[74.5,11432],[74.5,11516],[74.5,11599],[74.5,11682],[74.5,11766],[74.5,11849],[74.5,11932],[74.5,12016],[74.5,12099],[74.5,12182],[74.5,12266],[74.5,12349],[74.5,12432],[74.5,12516],[74.5,12599],[74.5,12682],[74.5,12766],[74.5,12849],[74.5,12932],[74.5,13016],[74.5,13099],[74.5,13182],[74.5,13266],[74.5,13349],[74.5,13432],[74.5,13516],[74.5,13599],[74.5,13682],[74.5,13766],[74.5,13849],[74.5,13932],[74.5,14016],[74.5,14099],[74.5,14182],[74.5,14266],[74.5,14349],[74.5,14432],[74.5,14516],[74.5,14599],[74.5,14682],[74.5,14766],[74.5,14849],[74.5,14933],[74.5,15016],[74.5,15099],[74.5,15182],[74.5,15266],[74.5,15349],[74.5,15432],[74.5,15516],[74.5,15599],[74.5,15682],[74.5,15766],[74.5,15849],[74.5,15932],[74.5,16016],[74.5,16099],[74.5,16182],[74.5,16266],[74.5,16349],[74.5,16433],[74.5,16516],[74.5,16599],[74.5,16682],[74.5,16766],[74.5,16849],[74.5,16932],[74.5,17016],[74.5,17099],[74.5,17182],[74.5,17266],[74.5,17349],[74.5,17433],[74.5,17516],[74.5,17599],[74.5,17683],[74.5,17766],[74.5,17849],[74.5,17933],[74.5,18016],[74.5,18100],[74.5,18182],[74.5,18266],[74.5,18349],[74.5,18433],[74.5,18516],[74.5,18600],[74.5,18682],[74.5,18766],[74.5,18849],[74.5,18933],[74.5,19016],[74.5,19100],[74.5,19182],[74.5,19267],[74.5,19349],[74.5,19433],[74.5,19516],[74.5,19600],[74.5,19683],[74.5,19767],[74.5,19849],[74.5,19933],[74.5,20016],[74.5,20100],[74.5,20182],[74.5,20267],[74.5,20349]]",1,0,951.2922,955.4078,74.47977894,1.0091,"[{""rating"":74.47977894443764,""responseTime"":1.0091000000238637}]",space,3.5778,,955.4078,Half the time,50,955.42,,,[],,0,4,4,4,1,audio/Narrative7Situation4.wav,audio/Narrative8Situation4.wav,audio/Narrative5Situation4.wav,audio/Narrative6Situation4.wav,3,3,1,2,,,,,,,,,,,,,,,,,,,,,,,,,,,,,,,,,,,,,
,,,,,,63251e479509813fab713ad2,2024-02-08_13h08.54.832,group3.1-3.2-social-tom,2023.2.2,Win32,59.88023952,65c5074098b851296ff0b7ed,65c5413a6602dda54e7bfbcc,,,,,,,,,,,,,,,,,,,,,,,,,,,,,955.4204,2,audio/Narrative5Situation5.wav,960.4238,,960.4238,975.841,"[[999,11],[999,100],[999,183],[999,266],[999,350],[999,433],[999,516],[999,600],[999,683],[999,766],[999,849],[999,933],[999,1016],[999,1099],[999,1184],[999,1267],[999,1349],[999,1433],[999,1517],[999,1599],[999,1684],[999,1767],[999,1850],[999,1934],[999,2016],[999,2100],[999,2183],[999,2266],[999,2349],[999,2433],[999,2516],[999,2601],[999,2683],[999,2766],[999,2850],[999,2934],[999,3017],[999,3101],[999,3184],[999,3268],[999,3350],[60.3,3434],[59.4,3516],[59.2,3600],[59.2,3683],[59.2,3766],[59.2,3849],[59.1,3933],[59.1,4016],[59.1,4099],[59.1,4183],[59.5,4267],[61.5,4351],[62.2,4433],[68.4,4517],[69.8,4601],[71.7,4684],[72.4,4766],[72.4,4850],[72.4,4933],[72.4,5016],[72.4,5100],[72.4,5183],[72.4,5266],[72.4,5350],[72.4,5433],[72.4,5517],[72.4,5600],[72.4,5683],[72.4,5766],[72.4,5850],[72.4,5933],[72.4,6017],[72.4,6100],[72.4,6184],[72.4,6266],[72.4,6351],[72.4,6433],[72.4,6517],[72.4,6600],[72.4,6683],[72.4,6766],[72.4,6852],[72.4,6933],[72.4,7017],[72.4,7100],[72.4,7184],[72.4,7266],[72.4,7351],[73.1,7433],[74.4,7519],[75.8,7600],[76.8,7687],[77.8,7767],[78.2,7851],[78.3,7933],[78.3,8017],[78.3,8099],[78.3,8183],[78.3,8266],[78.3,8350],[78.3,8433],[78.3,8518],[78.3,8599],[78.3,8683],[78.3,8766],[78.3,8850],[78.3,8933],[78.3,9017],[78.3,9100],[78.3,9184],[78.3,9266],[78.3,9351],[78.3,9433],[78.3,9517],[78.3,9600],[78.3,9684],[78.3,9766],[78.3,9850],[78.3,9933],[78.3,10017],[78.3,10099],[78.3,10184],[78.3,10266],[78.3,10351],[78.3,10433],[78.3,10516],[78.3,10599],[78.3,10683],[78.3,10767],[78.3,10850],[78.3,10933],[78.3,11017],[78.3,11099],[78.3,11183],[78.3,11266],[78.3,11350],[78.3,11433],[78.3,11516],[78.3,11600],[78.3,11683],[78.3,11766],[78.3,11851],[78.3,11933],[78.3,12016],[78.3,12100],[78.3,12183],[78.3,12267],[78.3,12350],[78.3,12434],[78.3,12516],[78.3,12601],[78.3,12683],[78.3,12767],[78.5,12850],[78.5,12933],[78.5,13019],[78.5,13100],[78.5,13183],[78.5,13267],[78.5,13350],[78.5,13433],[78.5,13517],[78.5,13601],[78.5,13683],[78.5,13767],[79.4,13851],[82.8,13934],[85.2,14017],[86.9,14101],[88.6,14184],[89.9,14267],[90.3,14350],[90.3,14433],[90.3,14517],[90.3,14600],[90.3,14684],[90.3,14767],[90.3,14849],[90.3,14933],[90.3,15016],[90.3,15099],[90.3,15183],[90.3,15266],[90.3,15350]]",1,0,975.8412,977.508,90.50812074,0.9602,"[{""rating"":90.50812074193072,""responseTime"":0.9602000000477346}]",space,1.141,,977.5081,All the time,100,977.5138,,,[],,0,5,5,5,1,audio/Narrative7Situation5.wav,audio/Narrative8Situation5.wav,audio/Narrative5Situation5.wav,audio/Narrative6Situation5.wav,5,2,5,2,,,,,,,,,,,,,,,,,,,,,,,,,,,,,,,,,,,,,
,,,,,,63251e479509813fab713ad2,2024-02-08_13h08.54.832,group3.1-3.2-social-tom,2023.2.2,Win32,59.88023952,65c5074098b851296ff0b7ed,65c5413a6602dda54e7bfbcc,,,,,,,,,,,,,,,,,,,,,,,,,,,,,977.5145,2,audio/Narrative5Situation6.wav,980.524,,980.5242,986.2076,"[[999,0],[999,83],[999,166],[999,250],[999,333],[999,416],[999,499],[999,583],[999,666],[999,750],[999,833],[999,916],[999,999],[999,1083],[999,1166],[999,1249],[999,1333],[999,1416],[999,1499],[999,1582],[999,1666],[999,1749],[999,1833],[999,1916],[999,2000],[999,2083],[999,2166],[999,2250],[999,2335],[999,2416],[999,2501],[999,2583],[999,2668],[999,2749],[999,2833],[999,2916],[999,3000],[999,3083],[999,3166],[999,3250],[999,3333],[999,3416],[999,3500],[999,3583],[999,3668],[999,3750],[63.2,3835],[63,3917],[63,4000],[62.9,4083],[62.9,4167],[62.9,4249],[62.9,4333],[62.9,4416],[62.9,4500],[62.9,4582],[62.9,4667],[62.9,4749],[62.9,4833],[62.9,4916],[62.9,5000],[62.9,5083],[62.9,5166],[62.9,5249],[62.9,5333],[62.9,5416],[62.9,5500],[62.9,5583],[62.9,5667]]",1,0,986.2078,988.9074,62.09424897,1.7072,"[{""rating"":62.09424897321804,""responseTime"":1.7072000000475782}]",space,2.154,,988.9075,Half the time,50,988.9119,,,[],,0,6,6,6,1,audio/Narrative7Situation6.wav,audio/Narrative8Situation6.wav,audio/Narrative5Situation6.wav,audio/Narrative6Situation6.wav,3,2,3,2,,,,,,,,,,,,,,,,,,,,,,,,,,,,,,,,,,,,,
,,,,,,63251e479509813fab713ad2,2024-02-08_13h08.54.832,group3.1-3.2-social-tom,2023.2.2,Win32,59.88023952,65c5074098b851296ff0b7ed,65c5413a6602dda54e7bfbcc,,,,,,,,,,,,,,,,,,,,,,,,,,,,,988.9123,2,audio/Narrative5Situation7.wav,992.9238,,992.9239,1013.9743,"[[999,11],[999,83],[999,166],[999,249],[999,333],[999,416],[999,499],[999,583],[999,666],[999,750],[999,833],[999,917],[999,999],[999,1083],[999,1166],[999,1249],[999,1333],[999,1418],[999,1500],[999,1583],[999,1667],[999,1751],[999,1834],[53.4,1916],[53.2,2000],[53,2083],[52.8,2167],[52.5,2251],[52,2333],[51.8,2416],[51.8,2499],[51.7,2583],[51.7,2666],[51.7,2749],[51.7,2833],[51.7,2916],[51.7,2999],[51.7,3083],[51.7,3166],[51.7,3249],[51.7,3333],[51.7,3416],[51.7,3499],[51.7,3583],[51.7,3666],[51.7,3749],[51.7,3833],[51.7,3916],[51.7,3999],[51.7,4083],[51.7,4166],[51.7,4249],[51.7,4333],[51.7,4416],[51.7,4500],[51.7,4583],[51.7,4666],[51.7,4749],[51.2,4833],[49.3,4917],[47.8,5001],[46.6,5084],[44.6,5167],[44.1,5249],[44.1,5333],[44.1,5416],[44.1,5499],[44.1,5583],[44.1,5666],[44.1,5750],[44.1,5833],[44.1,5916],[44.1,5999],[44.1,6083],[44.1,6166],[44.1,6250],[44.1,6333],[44.1,6417],[44.1,6499],[44.1,6583],[44.1,6666],[44.1,6750],[44.1,6833],[44.1,6917],[44.1,6999],[44.1,7084],[44.1,7166],[44.1,7250],[44.1,7333],[44.1,7417],[44.1,7500],[44.1,7584],[44.1,7666],[44.1,7750],[44.1,7833],[44.1,7917],[44.1,7999],[44.1,8083],[44.1,8166],[44.1,8251],[44.1,8333],[44.1,8418],[44.1,8499],[44.1,8583],[44.1,8666],[43.9,8751],[44.3,8833],[44.6,8918],[44.6,8999],[44.6,9083],[45.1,9167],[46.4,9252],[46.9,9335],[47.3,9417],[47.3,9499],[47.5,9584],[47.5,9666],[47.5,9750],[47.5,9833],[47.5,9917],[47.5,10000],[47.5,10084],[47.5,10166],[47.5,10250],[47.5,10333],[47.5,10417],[47.5,10500],[47.5,10584],[47.5,10666],[47.5,10751],[47.5,10833],[47.5,10917],[47.5,10999],[47.5,11083],[47.5,11166],[47.5,11250],[47.5,11333],[47.5,11416],[47.5,11502],[47.5,11583],[47.5,11666],[47.5,11750],[47.5,11833],[47.5,11916],[47.5,11999],[47.5,12083],[47.5,12166],[47.5,12250],[47.5,12333],[47.5,12416],[47.5,12500],[47.5,12583],[47.5,12667],[47.5,12750],[47.5,12833],[47.5,12916],[47.5,13000],[47.5,13083],[47.5,13166],[47.5,13250],[47.5,13333],[47.5,13416],[47.5,13499],[47.5,13583],[47.5,13666],[47.5,13749],[47.5,13833],[47.5,13916],[47.5,14000],[47.5,14083],[47.5,14166],[47.5,14250],[47.5,14334],[47.5,14416],[47.5,14499],[47.5,14583],[47.5,14666],[47.5,14749],[47.5,14833],[47.5,14916],[47.5,14999],[47.5,15083],[47.5,15166],[47.5,15249],[47.5,15333],[47.5,15416],[47.5,15499],[47.5,15583],[47.5,15666],[47.5,15749],[47.5,15833],[47.5,15916],[47.5,15999],[47.5,16083],[47.5,16166],[47.5,16249],[47.5,16333],[47.5,16416],[47.5,16499],[47.5,16583],[47.5,16666],[47.5,16749],[47.5,16833],[47.5,16916],[47.5,16999],[47.5,17083],[47.5,17166],[47.5,17250],[47.5,17333],[47.5,17416],[47.5,17500],[47.5,17583],[47.5,17666],[47.5,17750],[47.5,17833],[47.5,17916],[47.5,18000],[47.5,18083],[47.5,18166],[47.5,18250],[47.5,18333],[47.5,18416],[47.5,18499],[47.6,18583],[47.6,18666],[47.6,18749],[47.6,18833],[47.6,18916],[47.6,19000],[47.6,19083],[47.6,19166],[47.6,19250],[47.6,19333],[47.6,19416],[47.6,19499],[47.6,19583],[47.6,19666],[47.6,19749],[47.6,19833],[47.6,19916],[47.6,19999],[47.6,20083],[47.6,20166],[47.6,20249],[47.6,20333],[47.6,20416],[47.6,20499],[47.6,20583],[47.6,20666],[47.6,20749],[47.6,20833],[47.6,20916],[47.6,21000]]",1,0,1013.9746,1016.3074,41.69455255,1.5923,"[{""rating"":41.69455255003283,""responseTime"":1.5922999999522744}]",space,1.7837,,1016.3074,All the time,100,1016.3116,,,[],,0,7,7,7,1,audio/Narrative7Situation7.wav,audio/Narrative8Situation7.wav,audio/Narrative5Situation7.wav,audio/Narrative6Situation7.wav,5,3,4,5,,,,,,,,,,,,,,,,,,,,,,,,,,,,,,,,,,,,,
,,,,,,63251e479509813fab713ad2,2024-02-08_13h08.54.832,group3.1-3.2-social-tom,2023.2.2,Win32,59.88023952,65c5074098b851296ff0b7ed,65c5413a6602dda54e7bfbcc,,,,,,,,,,,,,,,,,,,,,,,,,,,,,1016.312,2,audio/Narrative5Situation8.wav,1019.3246,,1019.3248,1028.1574,"[[999,1],[999,82],[999,166],[999,249],[999,333],[999,415],[999,500],[999,582],[999,667],[999,750],[999,836],[999,916],[999,1000],[999,1082],[999,1166],[999,1250],[999,1334],[999,1416],[999,1500],[999,1582],[999,1666],[999,1749],[999,1835],[999,1917],[999,2001],[999,2084],[999,2169],[999,2250],[999,2335],[999,2417],[999,2500],[999,2584],[999,2668],[999,2750],[999,2832],[999,2916],[999,3011],[51,3083],[51.1,3177],[51.1,3249],[51.1,3332],[51.1,3415],[51.1,3498],[51.1,3582],[51.1,3665],[51.1,3749],[51.1,3832],[51.1,3915],[51.1,3999],[51.1,4082],[51.1,4165],[51.1,4250],[51.1,4332],[51.1,4415],[51.1,4499],[51.1,4582],[51.5,4666],[52.4,4753],[53.1,4851],[53.7,4950],[53.8,5032],[53.8,5115],[53.8,5198],[53.8,5282],[53.8,5365],[53.8,5449],[53.8,5532],[53.8,5615],[57.2,5699],[64.3,5783],[66.1,5866],[66.6,5949],[67.2,6033],[67.9,6115],[68.1,6198],[68.1,6282],[68.1,6365],[68.1,6449],[68.1,6532],[68.1,6615],[68.1,6698],[68.1,6782],[68.1,6865],[68.1,6948],[68.1,7032],[68.1,7115],[68.1,7199],[68.1,7282],[68.1,7365],[68.1,7448],[68.1,7532],[68.1,7615],[68.1,7699],[68.1,7782],[68.1,7865],[68.1,7948],[68.1,8032],[68.1,8115],[68.1,8199],[68.1,8282],[68.1,8365],[68.1,8449],[68.1,8532],[68.1,8615],[68.1,8699],[68.1,8782]]",1,0,1028.1575,1030.7912,68.75537561,1.0846,"[{""rating"":68.75537560639961,""responseTime"":1.0846000000237837}]",space,2.0774,,1030.7913,Not at all,0,1030.7959,,,[],,0,8,8,8,1,audio/Narrative7Situation8.wav,audio/Narrative8Situation8.wav,audio/Narrative5Situation8.wav,audio/Narrative6Situation8.wav,2,3,3,5,,,,,,,,,,,,,,,,,,,,,,,,,,,,,,,,,,,,,
,,,,,,63251e479509813fab713ad2,2024-02-08_13h08.54.832,group3.1-3.2-social-tom,2023.2.2,Win32,59.88023952,65c5074098b851296ff0b7ed,65c5413a6602dda54e7bfbcc,,,,,,,,,,,,,,,,,,,,,,,,,,,,,1030.7963,2,audio/Narrative5Situation9.wav,1033.8088,,1033.8089,1073.3572,"[[999,15],[999,99],[999,181],[999,265],[999,348],[999,432],[999,514],[999,598],[999,681],[999,766],[999,848],[999,932],[999,1014],[999,1099],[999,1181],[999,1266],[999,1348],[999,1432],[999,1514],[999,1598],[999,1681],[999,1765],[999,1848],[999,1932],[999,2015],[999,2098],[999,2183],[999,2265],[999,2348],[999,2432],[999,2515],[999,2599],[999,2681],[999,2765],[999,2848],[999,2934],[999,3014],[999,3098],[999,3182],[999,3266],[999,3348],[999,3432],[999,3514],[999,3598],[999,3681],[999,3764],[999,3848],[999,3931],[999,4015],[999,4098],[999,4183],[999,4265],[999,4348],[999,4432],[999,4515],[999,4598],[999,4682],[999,4764],[999,4848],[999,4943],[999,5017],[999,5118],[999,5210],[999,5282],[999,5366],[999,5477],[999,5551],[999,5632],[50.7,5731],[50.4,5816],[50.3,5898],[50.3,5982],[50.3,6065],[50.3,6148],[50.3,6231],[50.4,6315],[50.6,6398],[50.9,6481],[51.5,6565],[52.7,6648],[54.2,6732],[55,6815],[55.3,6898],[55.3,6981],[55.3,7064],[55.3,7148],[55.3,7231],[55.3,7314],[55.3,7398],[55.3,7481],[55.3,7564],[55.3,7648],[55.5,7731],[55.5,7814],[55.5,7898],[55.5,7981],[55.6,8066],[55.6,8148],[55.6,8231],[55.7,8314],[55.7,8399],[55.7,8481],[55.7,8564],[55.7,8648],[55.7,8731],[57.4,8815],[59,8898],[59.3,8981],[59.3,9064],[59.5,9148],[59.5,9231],[59.5,9314],[59.5,9398],[59.5,9481],[59.5,9564],[59.5,9648],[59.5,9731],[59.5,9814],[59.5,9898],[59.5,9981],[59.5,10065],[59.5,10148],[59.5,10231],[59.5,10314],[59.5,10398],[59.6,10481],[59.6,10564],[59.6,10648],[59.6,10731],[59.6,10814],[59.6,10898],[59.5,10981],[59.5,11064],[59.5,11148],[59.5,11231],[59.5,11314],[59.5,11398],[59.5,11481],[59.5,11565],[59.5,11648],[59.5,11731],[59.5,11814],[59.5,11898],[59.5,11981],[59.5,12064],[59.5,12148],[59.5,12231],[59.5,12314],[59.5,12398],[59.5,12481],[59.5,12565],[59.5,12648],[59.5,12731],[59.5,12814],[59.5,12898],[59.5,12981],[59.5,13064],[59.5,13148],[59.5,13231],[59.5,13314],[59.5,13398],[59.5,13481],[59.5,13564],[59.5,13648],[59.5,13731],[59.5,13815],[59.5,13898],[59.5,13981],[59.5,14064],[59.5,14149],[59.5,14231],[59.5,14314],[59.5,14398],[59.5,14481],[59.5,14564],[59.5,14648],[59.5,14731],[59.5,14814],[59.5,14898],[59.5,14981],[59.5,15065],[59.5,15148],[59.5,15231],[59.5,15315],[59.5,15398],[59.5,15481],[59.5,15565],[59.5,15648],[59.5,15731],[59.5,15815],[59.5,15898],[59.5,15981],[59.5,16064],[59.5,16149],[59.5,16231],[59.5,16315],[59.5,16398],[59.5,16482],[59.5,16564],[59.5,16649],[59.5,16731],[59.5,16815],[59.5,16898],[59.5,16982],[59.5,17064],[59.5,17149],[59.5,17231],[59.5,17315],[59.5,17398],[59.5,17482],[59.5,17565],[59.5,17648],[59.5,17731],[59.5,17815],[59.5,17898],[59.5,17981],[59.5,18065],[59.5,18148],[59.5,18231],[59.5,18315],[60.6,18399],[69.2,19483],[68.9,19564],[69.3,19650],[70.3,19731],[70.3,19815],[70.3,19898],[70.3,19982],[70.3,20065],[70.3,20148],[70.3,20231],[70.3,20315],[70.3,20398],[70.3,20482],[70.3,20564],[70.3,20648],[70.3,20731],[70.3,20815],[70.3,20898],[70.3,20982],[70.3,21065],[70.3,21148],[70.3,21232],[70.3,21315],[70.3,21398],[70.3,21481],[70.3,21565],[70.3,21648],[70.3,21732],[70.3,21815],[70.3,21899],[70.3,21981],[70.3,22065],[70.3,22148],[70.3,22231],[70.3,22314],[70.3,22398],[70.3,22481],[70.3,22564],[70.3,22648],[70.3,22731],[70.3,22814],[70.3,22898],[70.3,22981],[70.3,23064],[70.3,23148],[70.3,23231],[70.3,23314],[70.3,23398],[70.3,23481],[70.3,23564],[70.3,23648],[70.3,23731],[70.3,23814],[70.3,23898],[70.3,23981],[70.3,24064],[70.3,24148],[70.3,24231],[70.3,24314],[70.3,24397],[70.3,24481],[70.3,24564],[70.3,24648],[70.3,24731],[70.3,24814],[70.3,24898],[70.3,24981],[70.3,25064],[70.3,25148],[70.3,25231],[70.3,25314],[70.3,25398],[70.3,25481],[70.3,25564],[70.3,25648],[70.3,25731],[70.3,25814],[70.3,25898],[70.3,25981],[70.3,26065],[70.3,26148],[70.3,26231],[70.3,26315],[70.3,26398],[70.3,26481],[70.3,26564],[70.3,26648],[70.3,26731],[70.3,26814],[70.3,26898],[70.3,26981],[70.3,27064],[70.3,27148],[70.3,27231],[70.3,27314],[70.3,27398],[70.3,27481],[70.3,27564],[70.3,27648],[70.3,27731],[70.3,27814],[70.3,27898],[70.3,27981],[70.3,28065],[70.3,28148],[70.3,28231],[70.3,28314],[70.3,28398],[70.3,28481],[70.3,28565],[70.3,28648],[70.3,28731],[70.3,28814],[70.3,28898],[70.3,28981],[70.3,29064],[70.3,29148],[70.3,29231],[70.3,29315],[70.3,29398],[70.3,29481],[70.3,29565],[70.3,29648],[70.3,29731],[70.3,29814],[70.3,29898],[70.3,29981],[70.3,30064],[70.3,30148],[70.3,30231],[70.3,30314],[70.3,30398],[70.3,30481],[70.3,30564],[70.3,30648],[70.3,30731],[70.3,30814],[70.3,30898],[70.3,30981],[70.3,31064],[70.3,31148],[70.3,31231],[70.3,31314],[70.3,31398],[70.3,31481],[70.3,31565],[70.3,31648],[70.3,31732],[70.3,31815],[70.3,31898],[70.3,31981],[70.3,32065],[70.3,32148],[70.3,32232],[70.3,32314],[70.3,32398],[70.3,32481],[70.3,32566],[70.3,32648],[70.3,32732],[70.3,32814],[70.3,32898],[70.3,32981],[70.3,33065],[70.3,33148],[70.3,33232],[70.3,33314],[70.3,33398],[70.3,33481],[70.3,33566],[70.3,33648],[70.3,33732],[70.3,33814],[72.2,33900],[73.2,33981],[74.6,34067],[76.1,34148],[76.6,34232],[76.6,34314],[76.6,34398],[76.6,34481],[76.6,34565],[76.6,34648],[76.6,34732],[76.6,34814],[76.6,34898],[76.6,34981],[76.6,35065],[76.6,35148],[76.6,35232],[76.6,35314],[76.6,35398],[76.6,35481],[76.6,35565],[76.6,35648],[76.6,35732],[76.6,35815],[76.6,35898],[76.6,35981],[76.6,36065],[76.6,36148],[76.6,36232],[76.6,36314],[76.6,36398],[76.6,36482],[76.6,36566],[76.6,36648],[76.6,36732],[76.6,36814],[76.6,36898],[76.6,36981],[76.6,37065],[76.6,37148],[76.6,37232],[76.6,37315],[76.6,37398],[76.6,37481],[76.6,37566],[76.6,37648],[76.6,37732],[76.6,37815],[76.6,37898],[76.6,37981],[76.6,38065],[76.6,38148],[76.6,38231],[76.6,38315],[76.6,38398],[76.6,38481],[76.6,38564],[76.6,38647],[76.6,38731],[76.6,38815],[76.6,38898],[76.6,38981],[76.6,39064],[76.7,39148],[76.7,39231],[76.8,39316],[76.8,39398],[76.8,39481]]",1,0,1073.3576,1075.5072,76.87362341,1.4948,"[{""rating"":76.87362341266581,""responseTime"":1.49479999995242}]",space,1.6023,,1075.5073,All the time,100,1075.5153,,,[],,0,9,9,9,1,audio/Narrative7Situation9.wav,audio/Narrative8Situation9.wav,audio/Narrative5Situation9.wav,audio/Narrative6Situation9.wav,2,3,3,4,,,,,,,,,,,,,,,,,,,,,,,,,,,,,,,,,,,,,
,,,,,,63251e479509813fab713ad2,2024-02-08_13h08.54.832,group3.1-3.2-social-tom,2023.2.2,Win32,59.88023952,65c5074098b851296ff0b7ed,65c5413a6602dda54e7bfbcc,,,,,,,,,,,,,,,,,,,,,,,,,,,,,1075.5162,2,audio/Narrative6Situation1.wav,1077.5237,,1077.5237,1104.1095,"[[75.1,1334],[46.4,3917],[50.9,4000],[55,4084],[58.7,4168],[59.6,4250],[59.6,4333],[59.6,4416],[59.9,4500],[59.9,4583],[59.9,4667],[59.9,4750],[59.9,4833],[59.9,4916],[59.9,5000],[59.9,5083],[59.9,5167],[59.9,5250],[59.9,5333],[59.9,5416],[59.9,5501],[59.9,5583],[59.9,5667],[59.9,5750],[59.9,5834],[59.9,5916],[59.9,6000],[59.9,6083],[59.9,6167],[59.9,6250],[59.9,6334],[59.9,6416],[59.9,6501],[59.9,6583],[59.9,6667],[59.9,6749],[59.9,6833],[59.9,6916],[59.9,7001],[59.9,7083],[59.9,7167],[59.9,7250],[59.9,7333],[59.9,7416],[59.9,7501],[59.9,7583],[59.9,7667],[59.9,7749],[59.9,7833],[59.9,7916],[59.9,8000],[59.9,8083],[59.9,8167],[59.9,8249],[59.9,8333],[59.9,8416],[59.9,8500],[59.9,8583],[59.9,8666],[59.9,8750],[59.9,8834],[59.9,8916],[59.9,9001],[59.9,9083],[59.9,9167],[59.9,9250],[59.9,9333],[59.9,9416],[59.9,9500],[59.9,9583],[59.9,9667],[59.9,9750],[59.9,9833],[59.9,9916],[59.9,10000],[59.9,10084],[59.9,10167],[59.9,10250],[59.9,10333],[59.9,10416],[59.9,10500],[59.9,10583],[59.9,10666],[59.9,10750],[59.9,10833],[59.9,10916],[59.9,11000],[59.9,11083],[59.9,11166],[72,11251],[74.4,11333],[74.4,11417],[74.4,11499],[74.4,11583],[74.3,11666],[74.1,11751],[74.1,11834],[74,11916],[73.8,12001],[73.8,12083],[73.7,12178],[73.7,12252],[73.7,12333],[73.7,12418],[73.6,12500],[73.6,12583],[73.6,12667],[73.6,12750],[73.6,12834],[73.6,12916],[73.6,13000],[73.6,13083],[73.6,13166],[73.6,13250],[73.5,13333],[73.5,13416],[73.5,13500],[73.5,13583],[73.5,13666],[73.5,13751],[73.5,13833],[73.5,13916],[73.5,14000],[73.5,14083],[73.5,14167],[73.5,14250],[73.5,14333],[73.5,14416],[73.5,14500],[73.5,14583],[73.5,14667],[73.5,14750],[73.5,14833],[73.5,14917],[73.5,15000],[73.5,15083],[73.4,15167],[73.4,15250],[73.4,15333],[73.4,15417],[73.4,15500],[73.4,15584],[73.4,15666],[73.4,15750],[73.4,15833],[73.4,15916],[73.7,16000],[75.4,16085],[75.9,16167],[75.9,16251],[75.9,16333],[75.9,16416],[75.9,16500],[75.9,16583],[75.9,16666],[75.9,16751],[75.9,16833],[75.9,16917],[75.9,17000],[75.9,17083],[75.9,17167],[75.9,17250],[75.9,17333],[75.9,17417],[75.9,17500],[75.9,17583],[75.9,17666],[75.9,17750],[75.9,17834],[75.9,17916],[75.9,18000],[75.9,18083],[75.9,18166],[75.9,18250],[75.9,18333],[75.9,18416],[75.9,18500],[75.9,18583],[75.9,18666],[75.9,18750],[75.9,18833],[75.9,18917],[75.9,19000],[75.9,19083],[75.9,19167],[75.9,19250],[75.9,19333],[75.9,19417],[75.9,19500],[75.9,19583],[75.9,19666],[75.9,19750],[75.9,19833],[75.9,19916],[75.9,20000],[75.9,20083],[75.9,20166],[75.9,20250],[75.9,20334],[75.9,20416],[75.9,20500],[75.9,20584],[75.9,20666],[75.9,20750],[75.9,20833],[75.9,20916],[75.9,21000],[75.9,21083],[75.9,21166],[75.9,21251],[75.9,21333],[75.9,21417],[75.9,21500],[75.9,21583],[75.9,21666],[75.9,21751],[75.9,21833],[75.9,21918],[75.9,22000],[75.9,22084],[75.9,22166],[75.9,22251],[75.9,22333],[75.9,22418],[75.9,22500],[75.9,22584],[75.9,22666],[75.9,22751],[75.9,22833],[75.9,22917],[75.9,23000],[75.9,23084],[75.9,23166],[75.9,23251],[75.9,23333],[75.9,23417],[75.9,23500],[75.9,23584],[75.9,23667],[75.9,23751],[75.9,23833],[75.9,23918],[75.9,24000],[75.9,24084],[75.9,24166],[75.9,24252],[75.9,24333],[75.9,24417],[75.9,24500],[75.9,24584],[75.9,24667],[75.9,24752],[75.9,24833],[75.9,24917],[75.9,25000],[75.9,25084],[75.9,25166],[75.9,25251],[75.9,25333],[75.9,25418],[75.9,25500],[75.9,25584],[75.9,25666],[78,25754],[81,25833],[81.5,25920],[81.7,26001],[82.3,26085],[82.3,26166],[82.3,26251],[82.3,26333],[82.3,26417],[82.3,26500],[82.3,26585]]",1,0,1104.1097,1107.4408,84.67963605,1.1215,"[{""rating"":84.67963604959208,""responseTime"":1.121499999999969}]",space,2.7906,,1107.4411,Half the time,50,1107.4553,,,[],,0,10,10,10,1,audio/Narrative8Situation1.wav,audio/Narrative7Situation1.wav,audio/Narrative6Situation1.wav,audio/Narrative5Situation1.wav,5,2,2,5,,,,,,,,,,,,,,,,,,,,,,,,,,,,,,,,,,,,,
,,,,,,63251e479509813fab713ad2,2024-02-08_13h08.54.832,group3.1-3.2-social-tom,2023.2.2,Win32,59.88023952,65c5074098b851296ff0b7ed,65c5413a6602dda54e7bfbcc,,,,,,,,,,,,,,,,,,,,,,,,,,,,,1107.4556,2,audio/Narrative6Situation2.wav,1110.4586,,1110.4586,1138.9746,"[[999,1],[999,81],[999,165],[999,248],[999,331],[999,415],[999,498],[999,581],[999,666],[999,748],[999,831],[999,915],[999,998],[999,1081],[999,1164],[999,1248],[999,1331],[999,1415],[999,1498],[999,1581],[999,1665],[999,1748],[999,1831],[999,1915],[999,1998],[999,2081],[999,2166],[999,2249],[999,2332],[999,2416],[999,2499],[999,2582],[999,2665],[999,2750],[999,2832],[60.7,2916],[58.5,2999],[57.2,3081],[57.2,3164],[57.2,3248],[57.2,3331],[57.2,3415],[57.2,3498],[57.2,3581],[57.2,3665],[57.2,3748],[57.2,3831],[57.2,3915],[57.2,3998],[57.2,4082],[57.2,4165],[55.9,4249],[53.9,4333],[53.3,4415],[52.6,4499],[51.7,4582],[51,4666],[50,4748],[49.8,4831],[49.5,4915],[49.4,4998],[49.2,5082],[49.2,5165],[49.2,5248],[49.2,5332],[49.4,5415],[51.2,5499],[52.8,5582],[55,5667],[57,5749],[57.1,5832],[57.1,5915],[57.1,5998],[57.1,6081],[57.1,6166],[57.1,6248],[57.1,6332],[57.1,6414],[57.1,6499],[57.1,6581],[57.1,6666],[57.1,6748],[57.1,6832],[57.1,6915],[57.1,6999],[57.1,7081],[57.1,7166],[57.1,7248],[57.1,7332],[57.1,7415],[57.1,7499],[57.1,7581],[57.1,7665],[57.1,7748],[57.1,7832],[57.1,7915],[57.1,7999],[57.1,8081],[57.1,8165],[57.1,8248],[57.1,8332],[57.1,8415],[57.1,8499],[57.1,8581],[57.1,8665],[57.1,8748],[57.1,8832],[57.1,8915],[57.1,8998],[57.1,9082],[57.1,9165],[57.1,9248],[57.1,9332],[57.1,9415],[57.1,9499],[57.1,9581],[57.1,9665],[57.1,9748],[57.1,9832],[57.1,9914],[57.1,9999],[57.1,10081],[57.1,10166],[57.1,10248],[57.1,10331],[57.1,10415],[57.1,10499],[57.1,10581],[57.1,10665],[57.1,10748],[57.1,10832],[57.1,10915],[57.1,10999],[57.1,11081],[57.1,11165],[57.1,11248],[57.1,11331],[57.1,11415],[57.1,11498],[57.1,11582],[57.1,11665],[57.1,11748],[57.1,11831],[57.1,11916],[57.1,11998],[57.1,12081],[57.1,12165],[57.1,12248],[57.1,12331],[57.1,12416],[57.1,12498],[57.1,12582],[57.1,12665],[57.1,12749],[57.1,12831],[57.1,12914],[57.1,12998],[57.1,13082],[57.1,13165],[57.1,13248],[57.1,13331],[57.1,13416],[55.6,13499],[53.9,13583],[52.5,13665],[51.7,13748],[51.4,13832],[51.2,13915],[51,13998],[51,14081],[51,14165],[51,14248],[51,14331],[50.9,14415],[50.9,14498],[50.9,14581],[50.9,14665],[50.9,14748],[50.9,14831],[50.9,14915],[50.9,14998],[50.9,15081],[50.9,15165],[50.9,15248],[50.9,15331],[50.9,15415],[50.9,15498],[50.9,15581],[50.9,15665],[50.9,15748],[50.9,15831],[50.9,15915],[50.9,15998],[50.9,16081],[50.9,16165],[50.9,16248],[50.9,16331],[50.9,16415],[50.9,16498],[50.9,16581],[50.9,16665],[50.9,16748],[50.9,16831],[50.9,16915],[50.9,16998],[50.9,17081],[50.9,17165],[50.9,17248],[50.9,17331],[50.9,17415],[50.9,17498],[50.8,17581],[50.8,17665],[50.8,17748],[50.8,17831],[50.8,17915],[50.8,17998],[50.8,18081],[50.9,18165],[50.9,18248],[51,18331],[51.3,18415],[51.9,18498],[53,18582],[54.2,18666],[55.2,18749],[55.6,18832],[55.7,18915],[55.7,18998],[55.7,19081],[55.7,19165],[55.7,19248],[55.7,19331],[55.7,19415],[55.7,19498],[55.7,19581],[55.7,19665],[55.7,19748],[55.7,19831],[55.7,19915],[55.7,19998],[55.7,20081],[55.7,20164],[55.7,20248],[55.7,20331],[55.7,20415],[55.7,20498],[55.7,20582],[55.7,20665],[55.7,20748],[55.7,20831],[55.7,20915],[55.7,20998],[55.7,21081],[55.7,21165],[55.7,21248],[55.7,21331],[55.7,21415],[55.7,21498],[55.7,21582],[55.7,21665],[55.7,21748],[55.7,21831],[55.7,21915],[55.7,21998],[55.7,22081],[55.7,22165],[55.7,22248],[55.8,22332],[55.8,22415],[55.8,22498],[55.8,22582],[55.8,22665],[55.8,22748],[55.8,22831],[55.8,22915],[55.8,22998],[55.8,23082],[55.8,23165],[55.8,23249],[55.8,23331],[55.8,23415],[55.8,23498],[55.8,23582],[55.8,23664],[55.8,23749],[55.8,23831],[55.8,23915],[55.8,23998],[55.8,24082],[55.8,24165],[55.8,24248],[55.8,24331],[55.8,24416],[55.8,24498],[55.8,24582],[55.8,24664],[55.8,24748],[55.8,24831],[55.8,24915],[55.8,24998],[55.8,25082],[55.8,25164],[55.8,25249],[55.8,25331],[55.8,25416],[55.8,25498],[55.8,25582],[55.8,25665],[55.8,25748],[55.8,25831],[55.8,25915],[55.8,25998],[55.8,26082],[55.8,26165],[55.8,26248],[55.8,26331],[55.8,26415],[55.8,26498],[55.8,26582],[55.8,26665],[55.8,26748],[55.8,26831],[55.8,26915],[55.8,26998],[55.8,27081],[55.8,27164],[55.8,27248],[55.8,27331],[55.8,27415],[55.8,27498],[55.8,27582],[55.8,27665],[55.8,27749],[55.8,27832],[55.8,27915],[55.8,27998],[55.8,28082],[55.8,28165],[55.8,28248],[55.8,28331],[55.8,28415],[55.8,28498]]",1,0,1138.9753,1142.1909,56.36984564,2.0647,"[{""rating"":56.36984563518001,""responseTime"":2.064700000047651}]",space,2.6767,,1142.1909,All the time,100,1142.1985,,,[],,0,11,11,11,1,audio/Narrative8Situation2.wav,audio/Narrative7Situation2.wav,audio/Narrative6Situation2.wav,audio/Narrative5Situation2.wav,3,3,3,3,,,,,,,,,,,,,,,,,,,,,,,,,,,,,,,,,,,,,
,,,,,,63251e479509813fab713ad2,2024-02-08_13h08.54.832,group3.1-3.2-social-tom,2023.2.2,Win32,59.88023952,65c5074098b851296ff0b7ed,65c5413a6602dda54e7bfbcc,,,,,,,,,,,,,,,,,,,,,,,,,,,,,1142.1996,2,audio/Narrative6Situation3.wav,1147.2073,,1147.2075,1159.8242,"[[56.3,3766],[56.4,3851],[56.4,3932],[56.4,4017],[56.4,4099],[56.4,4183],[56.4,4266],[56.4,4350],[56.4,4432],[56.4,4517],[56.4,4599],[56.4,4683],[56.4,4766],[56.4,4849],[56.4,4932],[56.4,5016],[56.4,5099],[56.4,5184],[56.4,5268],[56.4,5349],[56.4,5432],[56.4,5516],[56.4,5599],[56.4,5683],[56.4,5766],[56.4,5850],[56.4,5932],[56.4,6016],[56.4,6099],[56.4,6183],[56.4,6266],[56.4,6349],[56.4,6432],[56.4,6516],[56.4,6599],[56.4,6683],[56.4,6765],[56.4,6849],[56.4,6932],[56.4,7016],[56.4,7099],[56.4,7183],[56.4,7266],[56.4,7349],[56.4,7432],[56.4,7515],[56.4,7599],[56.4,7683],[56.4,7766],[56.4,7849],[56.4,7932],[56.4,8016],[56.4,8099],[56.4,8183],[56.4,8266],[56.4,8349],[56,8434],[55.8,8515],[54.9,8603],[53.4,8683],[51.7,8768],[51.1,8849],[51,8933],[50.8,9016],[50.8,9099],[50.8,9195],[50.7,9266],[50.7,9349],[50.7,9432],[50.6,9516],[50.6,9599],[50.6,9699],[50.6,9782],[50.6,9866],[50.6,9949],[50.6,10032],[50.6,10116],[50.6,10199],[50.6,10282],[50.6,10366],[50.6,10449],[50.6,10532],[50.6,10616],[50.6,10699],[50.6,10782],[50.6,10866],[50.5,10949],[50.6,11032],[51.6,11117],[53.5,11201],[55,11283],[56.7,11366],[58.2,11449],[58.6,11532],[58.8,11615],[58.8,11699],[58.8,11782],[58.8,11866],[58.8,11949],[58.8,12033],[58.8,12116],[58.8,12199],[58.8,12282],[58.8,12366],[58.8,12449],[58.8,12532],[58.8,12616]]",1,0,1159.8246,1161.907,54.08008252,1.3097,"[{""rating"":54.08008252125243,""responseTime"":1.309699999928398}]",space,1.5541,,1161.9071,All the time,100,1161.9104,,,[],,0,12,12,12,1,audio/Narrative8Situation3.wav,audio/Narrative7Situation3.wav,audio/Narrative6Situation3.wav,audio/Narrative5Situation3.wav,4,8,5,3,,,,,,,,,,,,,,,,,,,,,,,,,,,,,,,,,,,,,
