exp_question,consent.started,consent.stopped,consentResponse.keys,consentResponse.rt,consentResponse.duration,participantID,date,expName,psychopyVersion,OS,frameRate,STUDY_ID,SESSION_ID,opening1.started,opening1.stopped,keyEndingOpening1.keys,keyEndingOpening1.rt,keyEndingOpening1.duration,volumeAdjust.started,volumeAdjust.stopped,endingAdjust.keys,endingAdjust.rt,endingAdjust.duration,opening2.started,opening2.stopped,keyEndingOpening.keys,keyEndingOpening.rt,keyEndingOpening.duration,mouse.x,mouse.y,mouse.leftButton,mouse.midButton,mouse.rightButton,mouse.time,instructionLoop.thisRepN,instructionLoop.thisTrialN,instructionLoop.thisN,instructionLoop.thisIndex,instructionLoop.ran,readyForAudio.started,readyForAudio.stopped,fixation.started,run,audio_played,fixation.stopped,endPractice.keys,audioPre.started,audioPre.stopped,continuousResponses_audio,continuousSlider.response,continuousSlider.rt,intRating.started,intRating.stopped,intQuestionSlider.response,intQuestionSlider.rt,intQuestionSlider.history,confirmResponse.keys,confirmResponse.rt,confirmResponse.duration,catchQuestion.started,catch_label,catch_value,catchQuestion.stopped,catchQuestionSlider.response,catchQuestionSlider.rt,catchQuestionSlider.history,confirmResponse_2.keys,confirmResponse_2.rt,confirmResponse_2.duration,audioRunLoop.thisRepN,audioRunLoop.thisTrialN,audioRunLoop.thisN,audioRunLoop.thisIndex,audioRunLoop.ran,conditions1_1,conditions2_1,conditions1_2,conditions2_2,dur1_1,dur2_1,dur1_2,dur2_2,endPractice.rt,endPractice.duration,runIntervalBreak.started,runIntervalBreak.stopped,endingBreakKey.keys,endingBreakKey.rt,endingBreakKey.duration,connection.started,connection.stopped,connectionEnding.keys,connectionEnding.rt,connectionEnding.duration,readyForText.started,readyForText.stopped,textPre.started,run_dup,textPre.stopped,continuousResponses_text,textRunLoop.thisRepN,textRunLoop.thisTrialN,textRunLoop.thisN,textRunLoop.thisIndex,textRunLoop.ran,text1_1,text1_2,text2_1,text2_2,runBreakText.started,runBreakText.stopped,endingBreakKey_2.keys,endingBreakKey_2.rt,endingBreakKey_2.duration,ending.started,ending.stopped,endingEnding.keys,endingEnding.rt,endingEnding.duration
social,0.0027,98.467,y,98.1324,,63619eb02e5bd8f4f7bd138a,2024-02-08_13h02.57.720,group3.1-3.2-social-tom,2023.2.2,Linux x86_64,59.88023952,65c5074098b851296ff0b7ed,65c5415ee423d37d2cdd6aa7,,,,,,,,,,,,,,,,,,,,,,,,,,,,,,,,,,,,,,,,,,,,,,,,,,,,,,,,,,,,,,,,,,,,,,,,,,,,,,,,,,,,,,,,,,,,,,,,,,,,,,,,,,
,,,,,,63619eb02e5bd8f4f7bd138a,2024-02-08_13h02.57.720,group3.1-3.2-social-tom,2023.2.2,Linux x86_64,59.88023952,65c5074098b851296ff0b7ed,65c5415ee423d37d2cdd6aa7,98.4673,123.0941,space,24.5672,,,,,,,,,,,,,,,,,,,,,,,,,,,,,,,,,,,,,,,,,,,,,,,,,,,,,,,,,,,,,,,,,,,,,,,,,,,,,,,,,,,,,,,,,,,,,,,,,,,,,,
,,,,,,63619eb02e5bd8f4f7bd138a,2024-02-08_13h02.57.720,group3.1-3.2-social-tom,2023.2.2,Linux x86_64,59.88023952,65c5074098b851296ff0b7ed,65c5415ee423d37d2cdd6aa7,,,,,,123.0943,164.5035,space,41.0912,,,,,,,,,,,,,,,,,,,,,,,,,,,,,,,,,,,,,,,,,,,,,,,,,,,,,,,,,,,,,,,,,,,,,,,,,,,,,,,,,,,,,,,,,,,,,,,,,
,,,,,,63619eb02e5bd8f4f7bd138a,2024-02-08_13h02.57.720,group3.1-3.2-social-tom,2023.2.2,Linux x86_64,59.88023952,65c5074098b851296ff0b7ed,65c5415ee423d37d2cdd6aa7,,,,,,,,,,,164.5143,190.1242,space,25.5775,,[],[],[],[],[],[],0,0,0,0,1,,,,,,,,,,,,,,,,,,,,,,,,,,,,,,,,,,,,,,,,,,,,,,,,,,,,,,,,,,,,,,,,,,,,,,,,,,,,,,,,
,,,,,,63619eb02e5bd8f4f7bd138a,2024-02-08_13h02.57.720,group3.1-3.2-social-tom,2023.2.2,Linux x86_64,59.88023952,65c5074098b851296ff0b7ed,65c5415ee423d37d2cdd6aa7,,,,,,,,,,,190.1449,233.0266,space,42.6979,,[],[],[],[],[],[],1,0,1,0,1,,,,,,,,,,,,,,,,,,,,,,,,,,,,,,,,,,,,,,,,,,,,,,,,,,,,,,,,,,,,,,,,,,,,,,,,,,,,,,,,
,,,,,,63619eb02e5bd8f4f7bd138a,2024-02-08_13h02.57.720,group3.1-3.2-social-tom,2023.2.2,Linux x86_64,59.88023952,65c5074098b851296ff0b7ed,65c5415ee423d37d2cdd6aa7,,,,,,,,,,,233.0377,263.7545,space,30.6613,,[],[],[],[],[],[],2,0,2,0,1,,,,,,,,,,,,,,,,,,,,,,,,,,,,,,,,,,,,,,,,,,,,,,,,,,,,,,,,,,,,,,,,,,,,,,,,,,,,,,,,
,,,,,,63619eb02e5bd8f4f7bd138a,2024-02-08_13h02.57.720,group3.1-3.2-social-tom,2023.2.2,Linux x86_64,59.88023952,65c5074098b851296ff0b7ed,65c5415ee423d37d2cdd6aa7,,,,,,,,,,,263.7782,302.9009,space,39.0805,,[],[],[],[],[],[],3,0,3,0,1,,,,,,,,,,,,,,,,,,,,,,,,,,,,,,,,,,,,,,,,,,,,,,,,,,,,,,,,,,,,,,,,,,,,,,,,,,,,,,,,
,,,,,,63619eb02e5bd8f4f7bd138a,2024-02-08_13h02.57.720,group3.1-3.2-social-tom,2023.2.2,Linux x86_64,59.88023952,65c5074098b851296ff0b7ed,65c5415ee423d37d2cdd6aa7,,,,,,,,,,,302.9181,355.9044,space,52.9582,,[],[],[],[],[],[],4,0,4,0,1,,,,,,,,,,,,,,,,,,,,,,,,,,,,,,,,,,,,,,,,,,,,,,,,,,,,,,,,,,,,,,,,,,,,,,,,,,,,,,,,
,,,,,,63619eb02e5bd8f4f7bd138a,2024-02-08_13h02.57.720,group3.1-3.2-social-tom,2023.2.2,Linux x86_64,59.88023952,65c5074098b851296ff0b7ed,65c5415ee423d37d2cdd6aa7,,,,,,,,,,,,,,,,,,,,,,,,,,,355.9197,358.4883,358.5456,1,audio/Narrative13Situation2.wav,360.5554,,360.5557,390.3636,"[[999,1],[999,118],[999,203],[999,283],[999,365],[999,449],[999,532],[999,616],[999,699],[999,782],[999,866],[999,950],[999,1062],[999,1171],[999,1253],[999,1343],[999,1420],[999,1501],[999,1582],[999,1666],[999,1749],[999,1832],[999,1916],[999,1999],[999,2082],[999,2173],[999,2249],[999,2334],[999,2416],[999,2499],[999,2582],[999,2666],[999,2749],[999,2832],[999,2916],[999,2999],[999,3082],[999,3166],[999,3249],[999,3332],[999,3416],[999,3501],[999,3583],[999,3666],[999,3749],[999,3832],[999,3916],[999,3999],[999,4083],[999,4166],[999,4249],[999,4332],[999,4416],[999,4499],[999,4582],[999,4666],[999,4749],[999,4833],[999,4916],[999,4999],[999,5082],[999,5166],[999,5249],[999,5332],[999,5416],[999,5514],[999,5602],[999,5709],[999,5783],[999,5866],[999,5949],[999,6032],[999,6116],[999,6199],[999,6288],[999,6366],[999,6453],[999,6533],[999,6616],[999,6700],[999,6783],[999,6866],[999,6952],[999,7034],[999,7123],[999,7215],[999,7307],[999,7404],[999,7498],[999,7592],[999,7723],[999,7844],[999,7943],[999,8041],[999,8120],[999,8210],[999,8306],[999,8385],[999,8466],[999,8549],[999,8633],[999,8718],[999,8813],[999,8904],[999,9002],[999,9083],[999,9178],[999,9249],[999,9333],[999,9419],[999,9500],[999,9583],[999,9667],[999,9750],[999,9841],[999,9933],[999,10017],[999,10101],[999,10183],[999,10266],[999,10352],[999,10434],[999,10516],[999,10600],[999,10683],[999,10767],[999,10853],[999,10937],[999,11035],[999,11116],[999,11206],[999,11297],[999,11388],[999,11478],[999,11555],[999,11636],[999,11717],[999,11802],[999,11886],[999,11968],[999,12052],[999,12134],[999,12219],[999,12300],[999,12386],[999,12469],[999,12551],[999,12633],[999,12717],[999,12803],[999,12884],[999,12975],[999,13064],[999,13135],[999,13220],[999,13303],[999,13383],[999,13467],[999,13553],[999,13634],[999,13717],[999,13802],[999,13885],[999,13978],[999,14055],[999,14134],[999,14219],[999,14301],[999,14385],[999,14467],[999,14553],[999,14634],[999,14718],[999,14802],[999,14887],[999,14968],[999,15052],[999,15135],[999,15218],[999,15303],[999,15391],[999,15473],[999,15553],[999,15634],[999,15717],[999,15800],[999,15884],[999,15967],[999,16058],[999,16144],[999,16232],[999,16319],[999,16409],[999,16494],[999,16581],[999,16660],[999,16737],[999,16817],[999,16901],[999,16984],[999,17068],[999,17151],[999,17234],[999,17334],[999,17434],[999,17518],[999,17603],[61.7,17688],[90.7,17772],[96.8,17854],[99.9,17935],[100,18020],[100,18130],[100,18230],[100,18321],[100,18421],[100,18515],[100,18606],[100,18700],[100,18790],[100,18875],[100,18966],[100,19051],[100,19135],[100,19217],[100,19301],[100,19384],[100,19467],[100,19562],[100,19634],[100,19717],[100,19804],[100,19884],[100,19970],[100,20051],[100,20147],[100,20218],[100,20301],[100,20385],[100,20480],[100,20568],[100,20655],[100,20742],[100,20836],[100,20923],[100,21017],[100,21111],[100,21223],[100,21318],[100,21401],[100,21485],[100,21568],[100,21651],[100,21734],[100,21824],[100,21905],[100,21985],[100,22068],[100,22156],[100,22235],[100,22318],[100,22401],[100,22484],[100,22571],[100,22651],[100,22734],[100,22818],[100,22907],[100,23002],[100,23095],[100,23173],[100,23251],[100,23334],[100,23427],[100,23510],[100,23601],[100,23689],[100,23773],[100,23863],[100,23952],[100,24053],[100,24144],[100,24236],[100,26141],[99.9,26219],[86.9,26335],[92,27436],[97.8,27558],[97.8,27635],[100,27732],[100,27805],[100,27888],[100,27970],[100,28068],[100,28156],[100,28241],[100,28322],[100,28459],[100,28544],[100,28631],[100,28715],[100,28819],[100,28911],[100,29020],[100,29119],[100,29210],[100,29314],[100,29420],[100,29537],[100,29655],[100,29806]]",1,0,390.364,410.6277,0,14.2056,"[{""rating"":0.29092419330188357,""responseTime"":13.446000000000026},{""rating"":0,""responseTime"":14.205599999999663}]",space,19.7227,,410.6444,Definitely yes,100,425.646,100,12.3155,"[{""rating"":99.45654027933332,""responseTime"":11.760299999998892},{""rating"":100,""responseTime"":12.315499999999986}]",space,14.4538,,0,0,0,0,1,audio/Narrative13Situation2.wav,audio/Narrative13Situation2.wav,audio/Narrative13Situation2.wav,audio/Narrative13Situation2.wav,2,2,2,2,,,,,,,,,,,,,,,,,,,,,,,,,,,,,,,,,,,,,
,,,,,,63619eb02e5bd8f4f7bd138a,2024-02-08_13h02.57.720,group3.1-3.2-social-tom,2023.2.2,Linux x86_64,59.88023952,65c5074098b851296ff0b7ed,65c5415ee423d37d2cdd6aa7,,,,,,,,,,,,,,,,,,,,,,,,,,,,,425.6467,1,audio/Narrative7Situation1.wav,426.2119,space,426.2119,482.1012,"[[999,1],[999,83],[999,166],[999,249],[999,333],[999,416],[999,499],[999,589],[999,666],[999,761],[100,2933],[99.8,3017],[99,3100],[98.5,3184],[100,3267],[100,3350],[100,3434],[50,5535],[48.4,5619],[30.8,5701],[13.8,5784],[12.9,5867],[12.9,5950],[12.9,6033],[12.9,6117],[12.2,6201],[3.5,6284],[3.2,6369],[3,6450],[51.7,38630],[51.6,38716],[51.6,38787],[51.6,38870],[51.6,38953],[50.8,39037],[49.4,39120],[49.4,39204],[49.4,39294],[49.4,39370],[49.4,39460],[49.4,39537],[49.4,39620],[44.4,39704],[38.8,39788],[49.2,40454],[49.2,40537],[49.2,40621],[49.2,40713],[49.2,40789],[49.2,40870],[49.2,40955],[49.2,41037],[49.2,41120],[49.2,41204],[49.2,41289],[49.2,41370],[49.1,41455],[49.1,41537],[49.1,41620],[49.1,41704],[49.1,41787],[49.9,41872],[72.9,41955],[89.5,42042],[97.6,42121],[97.6,42205],[98.2,42288],[55.2,43040],[49.1,43124],[48.7,43206],[49.7,43289],[50,43372],[51.3,43454],[78.8,43542],[92.3,43623],[92.3,43705],[100,43788],[100,43874],[100,43954],[100,44037],[100,44122]]",1,0,482.1014,496.5711,100,11.7825,"[{""rating"":99.66260061205148,""responseTime"":11.299799999998811},{""rating"":100,""responseTime"":11.78249999999997}]",space,13.9181,,496.5713,Definitely yes,100,506.0211,100,4.1982,"[{""rating"":100,""responseTime"":4.198200000001179}]",space,8.9024,,0,1,1,1,1,audio/Narrative7Situation1.wav,audio/Narrative8Situation1.wav,audio/Narrative5Situation1.wav,audio/Narrative6Situation1.wav,2,5,5,2,0.5357,,,,,,,,,,,,,,,,,,,,,,,,,,,,,,,,,,,,
,,,,,,63619eb02e5bd8f4f7bd138a,2024-02-08_13h02.57.720,group3.1-3.2-social-tom,2023.2.2,Linux x86_64,59.88023952,65c5074098b851296ff0b7ed,65c5415ee423d37d2cdd6aa7,,,,,,,,,,,,,,,,,,,,,,,,,,,,,506.0344,1,audio/Narrative7Situation2.wav,509.0372,,509.0372,516.5216,"[[999,0],[999,84],[999,167],[999,249],[999,333],[999,416],[999,508],[999,592],[999,723],[999,804],[999,900],[999,983],[999,1067],[999,1149],[999,1233],[999,1316],[999,1399],[999,1485],[999,1576],[999,1682],[999,1803],[999,1909],[999,2040],[999,2145],[999,2262],[999,2392],[999,2516],[999,2644],[999,2741],[999,2846],[999,2923],[999,3004],[999,3088],[999,3169],[999,3252],[999,3333],[999,3417],[999,3503],[999,3585],[999,3668],[999,3750],[999,3836],[999,3918],[999,4000],[999,4083],[999,4166],[999,4250],[999,4336],[999,4417],[999,4500],[999,4583],[999,4667],[999,4750],[999,4833],[999,4916],[999,5000],[999,5085],[999,5167],[999,5252],[999,5333],[999,5417],[999,5500],[999,5584],[999,5667],[999,5750],[999,5833],[999,5917],[999,6001],[999,6085],[999,6167],[999,6250],[999,6334],[999,6418],[999,6500],[999,6584],[999,6667],[999,6750],[999,6834],[999,6917],[999,7000],[999,7085],[999,7167],[999,7254],[999,7334],[999,7417]]",1,0,516.5219,531.7247,100,12.9894,"[{""rating"":100,""responseTime"":12.989400000000387}]",space,14.6537,,531.7248,Partially,50,531.7314,,,[],,,,0,2,2,2,1,audio/Narrative7Situation2.wav,audio/Narrative8Situation2.wav,audio/Narrative5Situation2.wav,audio/Narrative6Situation2.wav,3,3,3,3,,,,,,,,,,,,,,,,,,,,,,,,,,,,,,,,,,,,,
,,,,,,63619eb02e5bd8f4f7bd138a,2024-02-08_13h02.57.720,group3.1-3.2-social-tom,2023.2.2,Linux x86_64,59.88023952,65c5074098b851296ff0b7ed,65c5415ee423d37d2cdd6aa7,,,,,,,,,,,,,,,,,,,,,,,,,,,,,531.7318,1,audio/Narrative7Situation3.wav,539.7403,,539.7404,548.9913,"[[999,13],[999,99],[999,183],[999,266],[999,355],[999,433],[999,516],[999,599],[999,683],[999,767],[999,859],[999,945],[999,1021],[999,1100],[999,1183],[999,1266],[999,1350],[999,1433],[999,1516],[999,1599],[999,1683],[999,1766],[999,1850],[999,1933],[999,2017],[999,2107],[999,2199],[999,2283],[999,2366],[999,2450],[999,2533],[999,2616],[999,2700],[999,2783],[999,2866],[999,2950],[999,3034],[999,3141],[999,3216],[999,3300],[999,3383],[999,3467],[999,3549],[999,3633],[999,3717],[999,3800],[999,3883],[999,3967],[999,4050],[999,4133],[999,4216],[999,4300],[999,4383],[999,4466],[999,4550],[999,4633],[999,4716],[999,4800],[999,4883],[999,4967],[999,5051],[999,5135],[999,5220],[999,5301],[999,5384],[999,5467],[999,5550],[999,5634],[999,5717],[999,5801],[999,5883],[999,5967],[999,6051],[999,6134],[999,6217],[999,6310],[999,6385],[999,6467],[4,6551],[0.1,6650]]",1,0,548.9915,559.2924,0,5.882,"[{""rating"":1.3228378533898688,""responseTime"":5.294999999999959},{""rating"":0,""responseTime"":5.881999999999948}]",space,9.7595,,559.2925,Definitely yes,100,559.3087,,,[],,,,0,3,3,3,1,audio/Narrative7Situation3.wav,audio/Narrative8Situation3.wav,audio/Narrative5Situation3.wav,audio/Narrative6Situation3.wav,8,4,3,5,,,,,,,,,,,,,,,,,,,,,,,,,,,,,,,,,,,,,
,,,,,,63619eb02e5bd8f4f7bd138a,2024-02-08_13h02.57.720,group3.1-3.2-social-tom,2023.2.2,Linux x86_64,59.88023952,65c5074098b851296ff0b7ed,65c5415ee423d37d2cdd6aa7,,,,,,,,,,,,,,,,,,,,,,,,,,,,,559.3094,1,audio/Narrative7Situation4.wav,562.3108,,562.3109,574.0296,"[[999,13],[999,98],[999,192],[999,276],[999,353],[999,431],[999,516],[999,598],[999,695],[999,774],[999,868],[999,948],[999,1032],[999,1115],[999,1198],[999,1282],[999,1369],[999,1448],[999,1531],[999,1615],[999,1698],[999,1781],[999,1865],[999,1948],[999,2031],[999,2115],[999,2198],[999,2287],[999,2365],[999,2448],[999,2532],[999,2615],[999,2698],[999,2784],[999,2865],[999,2948],[999,3032],[999,3115],[999,3198],[999,3282],[999,3365],[999,3448],[999,3532],[999,3616],[999,3699],[999,3782],[0.5,3951],[0.5,4031],[0.5,4115],[0.5,4200],[0.5,4281],[50.7,7373],[43.5,7457],[43.5,7549],[33.5,7632],[26.8,7718],[26.8,7804],[37.6,7895],[46.4,7979],[46.4,8068],[46.4,8149],[46.4,8239],[46.4,8327],[46.4,8404],[47.6,8492],[48,8570],[48,8654],[48,8737],[48.6,8824],[48.6,8907],[48.6,8985],[48.9,9068],[48.9,9149],[49.1,9232],[49.8,9318],[49.8,9402],[49.8,9483],[49.8,9568],[49.8,9649],[49.8,9734],[49.4,9818],[49.4,9899],[49.4,9984],[49.4,10066],[49.4,10150],[49.4,10232],[49.4,10318],[49.4,10399],[49.4,10483],[49.4,10566],[49.4,10652],[49.4,10732],[49.4,10817],[49.4,10899],[49.4,10984],[49.4,11067],[49.4,11149],[49.4,11232],[49.3,11317],[49.3,11400],[49.3,11485],[49.3,11566],[49.3,11649]]",1,0,574.0298,584.1118,49.94890386,6.8541,"[{""rating"":49.94890385955484,""responseTime"":6.854099999999562}]",space,9.5384,,584.1119,Definitely yes,100,584.1319,,,[],,,,0,4,4,4,1,audio/Narrative7Situation4.wav,audio/Narrative8Situation4.wav,audio/Narrative5Situation4.wav,audio/Narrative6Situation4.wav,3,3,1,2,,,,,,,,,,,,,,,,,,,,,,,,,,,,,,,,,,,,,
,,,,,,63619eb02e5bd8f4f7bd138a,2024-02-08_13h02.57.720,group3.1-3.2-social-tom,2023.2.2,Linux x86_64,59.88023952,65c5074098b851296ff0b7ed,65c5415ee423d37d2cdd6aa7,,,,,,,,,,,,,,,,,,,,,,,,,,,,,584.1324,1,audio/Narrative7Situation5.wav,589.1456,,589.1457,597.6136,"[[999,11],[999,90],[999,167],[999,251],[999,333],[999,416],[999,500],[999,585],[999,672],[999,757],[999,840],[999,925],[999,1000],[999,1085],[999,1171],[999,1251],[999,1333],[999,1417],[999,1500],[999,1583],[999,1666],[999,1752],[999,1839],[999,1921],[999,2011],[999,2116],[999,2199],[999,2284],[999,2366],[999,2449],[999,2536],[999,2616],[999,2699],[999,2783],[999,2866],[999,2949],[999,3036],[999,3116],[999,3200],[999,3283],[999,3366],[999,3456],[999,3555],[999,3634],[999,3717],[999,3802],[999,3883],[999,3966],[999,4050],[999,4133],[999,4216],[999,4300],[999,4383],[999,4469],[999,4559],[999,4633],[999,4716],[999,4800],[999,4884],[999,4974],[999,5062],[999,5163],[999,5237],[999,5319],[999,5400],[999,5485],[999,5566],[999,5650],[999,5736],[999,5817],[999,5901],[999,5983],[999,6067],[999,6151],[999,6235],[999,6317],[999,6404],[999,6483],[999,6568],[999,6651],[999,6736],[999,6820],[999,6900],[999,6985],[999,7067],[999,7154],[999,7234],[999,7319],[999,7400],[999,7486],[999,7567],[999,7654],[999,7734],[999,7819],[999,7900],[999,7983],[999,8067],[999,8153],[999,8234],[999,8319],[999,8400]]",1,0,597.6138,603.4139,0,3.8658,"[{""rating"":0,""responseTime"":3.8658000000008315}]",space,5.2662,,603.4142,Not at all,0,603.4214,,,[],,,,0,5,5,5,1,audio/Narrative7Situation5.wav,audio/Narrative8Situation5.wav,audio/Narrative5Situation5.wav,audio/Narrative6Situation5.wav,5,2,5,2,,,,,,,,,,,,,,,,,,,,,,,,,,,,,,,,,,,,,
,,,,,,63619eb02e5bd8f4f7bd138a,2024-02-08_13h02.57.720,group3.1-3.2-social-tom,2023.2.2,Linux x86_64,59.88023952,65c5074098b851296ff0b7ed,65c5415ee423d37d2cdd6aa7,,,,,,,,,,,,,,,,,,,,,,,,,,,,,603.4222,1,audio/Narrative7Situation6.wav,606.4311,,606.4312,616.4319,"[[999,10],[999,90],[999,165],[999,252],[999,335],[999,416],[999,499],[999,583],[999,673],[999,756],[999,839],[999,916],[999,1000],[999,1082],[999,1166],[999,1266],[999,1349],[999,1433],[41.9,1516],[29.9,2101],[60.6,3021],[100,3520],[100,3599],[100,3683],[100,3780],[100,3849],[100,3933],[100,4016],[100,4100],[100,4190],[99.8,4266],[87.8,4350],[100,5266],[99.3,5349],[100,5433],[100,5518],[100,5599],[100,5691],[100,5766],[100,5850],[100,5933],[100,6016],[100,6100],[100,6183],[100,6266],[100,6350],[100,6433],[100,6516],[100,6599],[100,6683],[100,6766],[100,6851],[100,6933],[100,7017],[100,7100],[100,7183],[100,7266],[100,7350],[100,7437],[100,7521],[100,7600],[100,7686],[100,7768],[100,7850],[100,7933],[100,8017],[100,8100],[100,8185],[100,8266],[100,8350],[100,8433],[100,8517],[100,8600],[100,8685],[100,8766],[100,8851],[100,8933],[100,9016],[100,9100],[100,9183],[100,9266],[100,9350],[100,9433],[100,9516],[100,9600],[100,9683],[100,9767],[100,9854],[100,9933]]",1,0,616.4323,622.7327,99.95194415,3.6859,"[{""rating"":99.95194415403894,""responseTime"":3.6859000000004016}]",space,5.7529,,622.7327,Partially,50,622.7378,,,[],,,,0,6,6,6,1,audio/Narrative7Situation6.wav,audio/Narrative8Situation6.wav,audio/Narrative5Situation6.wav,audio/Narrative6Situation6.wav,3,2,3,2,,,,,,,,,,,,,,,,,,,,,,,,,,,,,,,,,,,,,
,,,,,,63619eb02e5bd8f4f7bd138a,2024-02-08_13h02.57.720,group3.1-3.2-social-tom,2023.2.2,Linux x86_64,59.88023952,65c5074098b851296ff0b7ed,65c5415ee423d37d2cdd6aa7,,,,,,,,,,,,,,,,,,,,,,,,,,,,,622.7383,1,audio/Narrative7Situation7.wav,627.7517,,627.7517,644.9346,"[[999,15],[999,97],[999,180],[999,264],[999,347],[999,430],[999,514],[999,597],[999,681],[999,764],[999,862],[999,942],[999,1026],[999,1105],[999,1183],[999,1265],[999,1347],[999,1431],[999,1514],[999,1598],[999,1682],[999,1765],[999,1852],[999,1941],[999,2024],[999,2101],[999,2181],[999,2264],[999,2358],[999,2437],[999,2514],[999,2598],[999,2681],[999,2764],[999,2850],[999,2931],[999,3014],[999,3098],[999,3181],[999,3273],[999,3348],[999,3434],[999,3516],[999,3603],[999,3681],[999,3768],[999,3864],[999,3977],[53.7,4101],[53.5,4184],[69.8,4289],[94.7,4394],[94.7,4481],[94.7,4564],[98.6,4650],[100,4736],[100,4833],[100,4917],[100,5008],[100,5106],[100,5190],[100,5284],[100,5364],[100,5448],[100,5531],[100,5618],[100,5709],[100,5791],[100,5869],[96,5954],[89.9,6037],[90.2,6115],[93.3,6204],[94.2,6282],[86.1,6368],[72.4,6450],[61.1,6539],[57.7,6621],[53,6701],[49.9,6788],[49.9,6865],[49.9,6949],[49.9,7031],[49.9,7115],[49.9,7198],[49.9,7284],[49.9,7369],[49.9,7448],[49.9,7532],[49.9,7615],[49.9,7699],[49.9,7781],[49.9,7865],[49.9,7948],[49.9,8034],[49.9,8115],[49.9,8198],[49.9,8286],[49.9,8366],[49.9,8448],[49.9,8537],[49.9,8615],[49.9,8699],[49.9,8782],[49.9,8866],[49.9,8948],[49.9,9033],[49.9,9115],[49.9,9200],[49.9,9282],[49.9,9365],[49.9,9449],[49.9,9532],[49.9,9615],[49.9,9698],[49.9,9782],[49.9,9865],[49.9,9949],[49.9,10034],[49.9,10115],[49.9,10200],[49.9,10282],[49.9,10366],[49.9,10449],[49.9,10531],[49.9,10615],[49.9,10700],[49.9,10783],[19.6,10876],[14.8,12299],[38.7,12383],[39.7,12466],[48.3,12554],[50.1,12632],[51.1,12715],[51.1,12799],[50.5,12883],[49.6,12966],[49.6,13049],[49.6,13132],[49.6,13215],[49.6,13299],[49.6,13382],[49.6,13465],[49.6,13549],[49.6,13632],[49.6,13716],[49.6,13799],[49.6,13882],[49.6,13965],[49.6,14049],[49.6,14132],[49.6,14216],[49.6,14298],[49.6,14382],[49.6,14465],[49.6,14549],[49.6,14632],[49.6,14716],[49.6,14799],[49.6,14882],[49.8,14965],[49.8,15049],[49.8,15132],[49.8,15215],[49.8,15299],[49.8,15382],[49.8,15465],[49.8,15549],[49.8,15638],[49.8,15715],[49.8,15799],[49.8,15882],[49.8,15966],[49.8,16049],[49.8,16132],[49.8,16216],[49.8,16299],[49.8,16382],[49.8,16466],[49.8,16549],[49.8,16632],[49.8,16716],[49.8,16799],[49.8,16882],[49.8,16965],[49.8,17049],[49.8,17132]]",1,0,644.9348,652.3687,100,4.6473,"[{""rating"":100,""responseTime"":4.647300000000769}]",space,6.8801,,652.3689,Definitely yes,100,652.3861,,,[],,,,0,7,7,7,1,audio/Narrative7Situation7.wav,audio/Narrative8Situation7.wav,audio/Narrative5Situation7.wav,audio/Narrative6Situation7.wav,5,3,4,5,,,,,,,,,,,,,,,,,,,,,,,,,,,,,,,,,,,,,
,,,,,,63619eb02e5bd8f4f7bd138a,2024-02-08_13h02.57.720,group3.1-3.2-social-tom,2023.2.2,Linux x86_64,59.88023952,65c5074098b851296ff0b7ed,65c5415ee423d37d2cdd6aa7,,,,,,,,,,,,,,,,,,,,,,,,,,,,,652.3866,1,audio/Narrative7Situation8.wav,654.4026,,654.4026,664.4616,"[[999,0],[999,89],[999,182],[999,266],[999,350],[999,432],[999,516],[999,599],[999,691],[999,778],[999,860],[999,938],[999,1023],[999,1100],[999,1184],[999,1266],[999,1350],[999,1433],[999,1516],[999,1599],[999,1682],[999,1766],[999,1850],[999,1933],[999,2016],[999,2100],[999,2183],[999,2268],[999,2350],[999,2433],[999,2517],[999,2600],[999,2683],[999,2766],[999,2852],[999,2933],[999,3017],[999,3100],[999,3183],[999,3266],[999,3350],[999,3433],[999,3516],[999,3601],[999,3683],[999,3766],[999,3853],[999,3933],[999,4017],[999,4101],[999,4188],[999,4267],[62.9,4367],[52.6,4571],[54.4,4649],[53.4,4733],[52.5,4816],[52.5,4901],[36,4984],[5.7,5069],[0.4,5150],[1,5740],[44.5,5826],[59.1,5903],[59.1,5984],[59.1,6066],[56.2,6151],[50.6,6236],[50.6,6316],[50.6,6400],[50.6,6484],[50.6,6566],[50.6,6654],[50.6,6734],[50.6,6816],[66.9,6903],[94.5,6985],[95,7067],[97,7166],[100,7261],[100,7335],[100,7422],[100,7500],[100,7583],[100,7667],[100,7750],[100,7833],[100,7924],[100,8000],[100,8091],[100,8167],[100,8257],[100,8333],[100,8425],[100,8501],[100,8583],[100,8675],[100,8750],[100,8833],[100,8917],[100,9000],[100,9083],[100,9168],[100,9250],[100,9333],[100,9417],[100,9500],[100,9584],[100,9668],[100,9750],[100,9835],[89.6,9931],[76.8,10011]]",1,0,664.4618,672.6878,50.3222678,6.8738,"[{""rating"":50.322267804331574,""responseTime"":6.873800000000756}]",space,7.6779,,672.6882,Definitely yes,100,672.6918,,,[],,,,0,8,8,8,1,audio/Narrative7Situation8.wav,audio/Narrative8Situation8.wav,audio/Narrative5Situation8.wav,audio/Narrative6Situation8.wav,2,3,3,5,,,,,,,,,,,,,,,,,,,,,,,,,,,,,,,,,,,,,
,,,,,,63619eb02e5bd8f4f7bd138a,2024-02-08_13h02.57.720,group3.1-3.2-social-tom,2023.2.2,Linux x86_64,59.88023952,65c5074098b851296ff0b7ed,65c5415ee423d37d2cdd6aa7,,,,,,,,,,,,,,,,,,,,,,,,,,,,,672.6923,1,audio/Narrative7Situation9.wav,674.7051,,674.7051,683.3402,"[[999,1],[999,82],[999,166],[999,249],[999,333],[999,415],[999,499],[999,582],[999,674],[999,766],[999,849],[999,933],[999,1016],[999,1100],[999,1183],[999,1269],[999,1354],[999,1432],[999,1515],[999,1599],[999,1684],[999,1766],[999,1854],[999,1933],[999,2028],[999,2116],[999,2199],[100,2283],[71.7,3207],[70.2,3290],[61.1,3383],[52.1,3473],[48.7,3564],[48.7,3638],[48.7,3721],[49.9,3802],[67.5,3891],[100,4470],[98.6,4550],[100,4638],[100,4718],[100,4804],[100,4885],[100,4971],[100,5055],[100,5133],[100,5218],[100,5299],[100,5386],[100,5466],[100,5549],[100,5634],[100,5720],[100,5799],[100,5883],[100,5967],[100,6052],[100,6133],[100,6217],[100,6300],[100,6388],[100,6466],[100,6552],[100,6633],[100,6718],[100,6800],[100,6886],[100,6966],[100,7052],[100,7133],[100,7218],[100,7300],[100,7383],[100,7467],[100,7552],[100,7633],[100,7716],[100,7799],[100,7885],[100,7967],[100,8052],[100,8133],[100,8236],[100,8323],[100,8409],[100,8485],[100,8566]]",1,0,683.3406,689.723,100,5.2816,"[{""rating"":100,""responseTime"":5.281600000001504}]",space,5.8429,,689.7231,Partially,50,689.7279,,,[],,,,0,9,9,9,1,audio/Narrative7Situation9.wav,audio/Narrative8Situation9.wav,audio/Narrative5Situation9.wav,audio/Narrative6Situation9.wav,2,3,3,4,,,,,,,,,,,,,,,,,,,,,,,,,,,,,,,,,,,,,
,,,,,,63619eb02e5bd8f4f7bd138a,2024-02-08_13h02.57.720,group3.1-3.2-social-tom,2023.2.2,Linux x86_64,59.88023952,65c5074098b851296ff0b7ed,65c5415ee423d37d2cdd6aa7,,,,,,,,,,,,,,,,,,,,,,,,,,,,,689.7284,1,audio/Narrative8Situation1.wav,694.7398,,694.7398,710.6755,"[[100,2269],[100,2351],[100,2433],[95.6,2518],[95.6,2600],[95.6,2685],[95.6,2766],[95.6,2852],[62.6,3769],[49.8,3857],[48.1,3936],[48.1,4020],[49.4,4101],[50.1,4187],[50.5,4267],[50.5,4350],[50.5,4434],[50.5,4517],[50.5,4600],[50.5,4684],[50.5,4771],[50.5,4853],[50.5,4934],[50.5,5021],[50.5,5100],[50.5,5184],[50.5,5267],[50.5,5354],[50.5,5433],[50.5,5518],[50.3,5601],[50.3,5684],[50.3,5767],[50.3,5854],[50.3,5934],[50.3,6019],[50.3,6100],[50.3,6185],[50.3,6267],[50.3,6354],[50.3,6434],[50.3,6517],[50.3,6600],[50.3,6685],[50.8,6767],[50.8,6852],[50.8,6934],[50.8,7019],[50.8,7101],[50.8,7184],[50.8,7267],[41.4,7353],[12.6,7436],[4.8,7522],[4.4,7601],[0.4,7688],[3.5,8603],[4.2,8686],[4.2,8770],[4.2,8856],[4.2,8935],[4.2,9018],[2.7,9101],[1.9,9185],[0.9,9269],[69.7,12110],[88,12354],[93,12435],[94,12522],[95.1,12601],[98.7,12686],[100,12768],[100,12857],[100,12935],[100,13018],[100,13101],[100,13186],[100,13268],[100,13355],[100,13435],[100,13519],[100,13601],[100,13685],[100,13768],[100,13851],[100,13935],[100,14018],[100,14101],[100,14187],[100,14268],[100,14354],[100,14435],[100,14518],[100,14601],[100,14686],[100,14777],[100,14877],[100,14951],[100,15036],[100,15118],[100,15202],[100,15285],[100,15370],[100,15455],[100,15536],[100,15618],[100,15701],[100,15786],[100,15868]]",1,0,710.6757,713.7419,100,1.5377,"[{""rating"":100,""responseTime"":1.5376999999992904}]",space,2.5325,,713.742,Not at all,0,713.7477,,,[],,,,0,10,10,10,1,audio/Narrative8Situation1.wav,audio/Narrative7Situation1.wav,audio/Narrative6Situation1.wav,audio/Narrative5Situation1.wav,5,2,2,5,,,,,,,,,,,,,,,,,,,,,,,,,,,,,,,,,,,,,
,,,,,,63619eb02e5bd8f4f7bd138a,2024-02-08_13h02.57.720,group3.1-3.2-social-tom,2023.2.2,Linux x86_64,59.88023952,65c5074098b851296ff0b7ed,65c5415ee423d37d2cdd6aa7,,,,,,,,,,,,,,,,,,,,,,,,,,,,,713.7483,1,audio/Narrative8Situation2.wav,716.7591,,716.7593,726.8765,"[[999,14],[999,99],[999,182],[999,266],[999,349],[999,432],[999,516],[999,599],[999,682],[999,765],[999,849],[999,932],[999,1016],[999,1099],[999,1182],[999,1266],[999,1350],[999,1433],[999,1516],[999,1599],[999,1682],[999,1766],[999,1849],[999,1932],[999,2016],[999,2099],[999,2183],[999,2266],[999,2350],[999,2432],[999,2516],[999,2599],[999,2682],[999,2766],[999,2849],[999,2932],[999,3016],[999,3099],[999,3183],[999,3266],[999,3349],[999,3432],[999,3521],[999,3599],[999,3684],[999,3766],[999,3855],[999,3943],[999,4017],[1,4101],[3.7,4194],[3.5,4267],[2.8,4355],[1.8,4433]]",1,0,726.8769,730.6129,0,2.6771,"[{""rating"":0.1598855878052141,""responseTime"":2.2233999999986054},{""rating"":0,""responseTime"":2.6770999999996548}]",space,3.199,,730.6129,Definitely yes,100,730.6186,,,[],,,,0,11,11,11,1,audio/Narrative8Situation2.wav,audio/Narrative7Situation2.wav,audio/Narrative6Situation2.wav,audio/Narrative5Situation2.wav,3,3,3,3,,,,,,,,,,,,,,,,,,,,,,,,,,,,,,,,,,,,,
,,,,,,63619eb02e5bd8f4f7bd138a,2024-02-08_13h02.57.720,group3.1-3.2-social-tom,2023.2.2,Linux x86_64,59.88023952,65c5074098b851296ff0b7ed,65c5415ee423d37d2cdd6aa7,,,,,,,,,,,,,,,,,,,,,,,,,,,,,730.6202,1,audio/Narrative8Situation3.wav,734.6286,,734.6287,757.0338,"[[999,13],[999,98],[999,182],[999,265],[999,348],[999,431],[999,515],[999,598],[999,687],[999,765],[999,848],[999,931],[999,1016],[999,1098],[999,1182],[999,1265],[999,1348],[999,1431],[999,1515],[999,1598],[999,1681],[999,1765],[999,1848],[999,1932],[999,2015],[999,2098],[999,2182],[999,2265],[999,2348],[999,2432],[999,2515],[999,2598],[999,2682],[999,2765],[999,2848],[999,2932],[999,3015],[999,3098],[999,3182],[999,3265],[999,3349],[999,3432],[999,3515],[999,3598],[999,3682],[999,3765],[999,3849],[999,3932],[999,4015],[999,4098],[999,4182],[999,4266],[999,4357],[999,4432],[999,4516],[999,4599],[3.8,9872],[51.6,10133],[68.1,10216],[58.8,10300],[50.8,10384],[47,10466],[44.6,10549],[45.4,10633],[48.2,10722],[50.2,10799],[50.2,10882],[50.2,10969],[50.2,11049],[50.2,11133],[50.2,11216],[50.2,11302],[50.2,11383],[50.2,11466],[50.2,11550],[50.2,11632],[50.2,11716],[50.2,11799],[50.2,11883],[50.2,11966],[50.2,12049],[50.2,12133],[47.4,12219],[43,12299],[42.8,12383],[42.8,12466],[52.4,12550],[63.2,12633],[56.2,12887],[52.8,12971],[50.8,13058],[50.8,13135],[50.8,13216],[50.8,13299],[50.8,13382],[50.8,13470],[50.8,13549],[50.8,13633],[50.8,13716],[50.8,13799],[50.8,13883],[50.8,13966],[50.8,14050],[50.8,14133],[50.8,14216],[50,14303],[49.8,14384],[49.8,14466],[49.8,14549],[49.8,14633],[49.8,14719],[49.8,14799],[49.8,14884],[49.8,14968],[49.8,15049],[49.8,15133],[49.8,15217],[49.8,15299],[49.8,15386],[49.8,15472],[49.8,15560],[49.8,15637],[49.8,15718],[49.8,15800],[49.8,15883],[49.8,16036],[49.8,16168],[49.8,16265],[49.8,16384],[49.8,16504],[49.8,16616],[49.8,16719],[49.8,16858],[49.8,16996],[49.8,17106],[49.8,17194],[49.8,17291],[49.8,17387],[49.8,17480],[49.8,17563],[49.8,17678],[49.8,17766],[49.8,17858],[49.8,17987],[49.8,18094],[49.8,18186],[49.8,18291],[49.8,18395],[49.8,18508],[49.8,18607],[49.8,18705],[49.8,18801],[49.8,18890],[49.8,19015],[49.8,19111],[49.8,19209],[49.8,19310],[49.8,19401],[49.8,19484],[49.8,19567],[49.8,19682],[49.8,19773],[49.8,19851],[49.8,19943],[49.8,20019],[49.8,20104],[49.8,20184],[49.8,20267],[49.8,20350],[49.8,20444],[49.8,20547],[49.8,20652],[49.8,20756],[49.8,20838],[49.8,20928],[49.8,21009],[49.8,21095],[49.8,21178],[49.8,21267],[49.8,21359],[49.8,21433],[49.8,21517],[49.8,21605],[49.8,21690],[49.8,21778],[49.8,21859],[49.8,21946],[49.8,22027],[49.8,22105],[49.8,22191],[49.8,22268],[49.8,22352]]",1,0,757.034,765.8143,49.11791967,4.109,"[{""rating"":50.02014624133032,""responseTime"":1.6650999999995975},{""rating"":49.11791966528563,""responseTime"":4.108999999999924}]",space,8.2326,,765.8143,Partially,50,765.8361,,,[],,,,0,12,12,12,1,audio/Narrative8Situation3.wav,audio/Narrative7Situation3.wav,audio/Narrative6Situation3.wav,audio/Narrative5Situation3.wav,4,8,5,3,,,,,,,,,,,,,,,,,,,,,,,,,,,,,,,,,,,,,
,,,,,,63619eb02e5bd8f4f7bd138a,2024-02-08_13h02.57.720,group3.1-3.2-social-tom,2023.2.2,Linux x86_64,59.88023952,65c5074098b851296ff0b7ed,65c5415ee423d37d2cdd6aa7,,,,,,,,,,,,,,,,,,,,,,,,,,,,,765.8365,1,audio/Narrative8Situation4.wav,768.8474,,768.8475,783.0172,"[[999,14],[999,105],[999,189],[999,266],[999,350],[999,435],[999,517],[999,599],[999,690],[999,774],[999,850],[999,933],[999,1016],[999,1100],[999,1184],[999,1279],[999,1375],[999,1487],[999,1579],[999,1693],[999,1792],[999,1887],[999,1992],[999,2096],[999,2194],[999,2284],[999,2371],[999,2454],[999,2537],[999,2616],[999,2705],[999,2783],[999,2866],[999,2952],[999,3033],[999,3116],[999,3200],[999,3283],[999,3367],[999,3450],[999,3533],[68.2,3617],[63.9,3707],[50.5,3792],[49.8,3875],[44,3953],[43.4,4041],[45.9,4135],[46.9,4217],[48.1,4310],[48.1,4383],[48.4,4481],[48.4,4566],[48.4,4650],[49,4733],[49,4819],[49,4900],[49,4986],[49,5067],[49,5157],[49,5233],[49,5317],[49,5402],[49,5483],[49,5567],[49,5651],[49,5735],[49,5817],[49,5900],[49,5983],[49,6082],[49,6182],[49,6255],[49,6337],[49,6417],[49,6500],[49,6584],[49,6669],[49,6750],[49,6836],[49,6917],[49,7005],[49,7087],[49,7167],[49,7253],[49,7334],[49,7422],[49.7,7503],[100,7917],[100,8010],[100,8090],[100,8177],[100,8252],[100,8338],[100,8418],[100,8501],[100,8584],[100,8670],[100,8751],[100,8836],[100,8917],[100,9000],[100,9084],[100,9171],[100,9253],[100,9337],[100,9418],[100,9502],[100,9584],[100,9671],[100,9751],[100,9834],[100,9918],[100,10002],[100,10084],[100,10169],[100,10250],[100,10334],[100,10417],[100,10502],[100,10584],[100,10671],[100,10751],[100,10836],[100,10917],[100,11003],[100,11084],[100,11168],[100,11251],[100,11334],[100,11418],[100,11502],[100,11584],[100,11669],[100,11751],[100,11835],[100,11917],[100,12002],[100,12084],[100,12168],[100,12251],[100,12334],[100,12418],[100,12502],[100,12584],[100,12670],[100,12756],[100,12844],[100,12920],[100,13003],[100,13086],[100,13169],[100,13251],[100,13337],[100,13418],[100,13503],[100,13584],[100,13669],[100,13751],[100,13837],[100,13918],[100,14002],[100,14084],[100,14169]]",1,0,783.0174,790.1916,100,1.6242,"[{""rating"":100,""responseTime"":1.6241999999991776}]",space,6.6239,,790.1918,Not at all,0,790.2197,,,[],,,,0,13,13,13,1,audio/Narrative8Situation4.wav,audio/Narrative7Situation4.wav,audio/Narrative6Situation4.wav,audio/Narrative5Situation4.wav,3,3,2,1,,,,,,,,,,,,,,,,,,,,,,,,,,,,,,,,,,,,,
,,,,,,63619eb02e5bd8f4f7bd138a,2024-02-08_13h02.57.720,group3.1-3.2-social-tom,2023.2.2,Linux x86_64,59.88023952,65c5074098b851296ff0b7ed,65c5415ee423d37d2cdd6aa7,,,,,,,,,,,,,,,,,,,,,,,,,,,,,790.2203,1,audio/Narrative8Situation5.wav,792.2324,,792.2325,800.5014,"[[999,0],[999,161],[999,278],[999,393],[999,503],[999,618],[999,746],[999,902],[999,1028],[999,1156],[999,1255],[999,1366],[999,1475],[999,1605],[999,1721],[999,1841],[999,1918],[999,2011],[999,2100],[999,2237],[999,2328],[999,2400],[999,2484],[999,2572],[999,2699],[999,2784],[999,2867],[999,2969],[999,3062],[999,3134],[999,3217],[999,3303],[999,3384],[999,3467],[999,3551],[999,3634],[999,3717],[999,3816],[999,3917],[999,4003],[999,4092],[999,4172],[999,4256],[999,4350],[999,4434],[999,4517],[999,4601],[999,4684],[999,4768],[999,4850],[999,4934],[999,5017],[999,5101],[999,5184],[999,5268],[999,5354],[999,5435],[100,5529],[100,5611],[99.8,5851],[100,5940],[100,6020],[100,6101],[100,6185],[100,6270],[100,6355],[100,6435],[100,6521],[100,6601],[100,6684],[100,6768],[100,6851],[100,6934],[100,7019],[100,7101],[100,7187],[100,7268],[100,7351],[100,7434],[100,7520],[100,7601],[100,7687],[100,7768],[100,7851],[100,7935],[100,8019],[100,8102],[100,8187],[100,8268]]",1,0,800.5017,811.2519,49.80958411,9.7097,"[{""rating"":100,""responseTime"":2.6118000000006987},{""rating"":49.80958411351651,""responseTime"":9.709700000001135}]",space,10.199,,811.2519,Definitely yes,100,811.2583,,,[],,,,0,14,14,14,1,audio/Narrative8Situation5.wav,audio/Narrative7Situation5.wav,audio/Narrative6Situation5.wav,audio/Narrative5Situation5.wav,2,5,2,5,,,,,,,,,,,,,,,,,,,,,,,,,,,,,,,,,,,,,
,,,,,,63619eb02e5bd8f4f7bd138a,2024-02-08_13h02.57.720,group3.1-3.2-social-tom,2023.2.2,Linux x86_64,59.88023952,65c5074098b851296ff0b7ed,65c5415ee423d37d2cdd6aa7,,,,,,,,,,,,,,,,,,,,,,,,,,,,,811.2587,1,audio/Narrative8Situation6.wav,813.2687,,813.2688,819.7364,"[[999,0],[999,83],[999,167],[999,250],[999,333],[999,416],[999,500],[999,583],[999,667],[999,750],[999,833],[999,916],[999,1000],[999,1083],[999,1167],[999,1250],[999,1333],[999,1417],[999,1500],[999,1583],[999,1667],[999,1750],[999,1833],[999,1916],[999,2000],[999,2083],[999,2167],[999,2250],[999,2333],[999,2416],[999,2500],[999,2583],[999,2667],[999,2752],[999,2833],[999,2917],[999,3000],[999,3083],[999,3167],[999,3250],[999,3333],[999,3417],[999,3500],[999,3583],[999,3667],[999,3750],[999,3833],[999,3917],[999,4000],[999,4083],[999,4167],[999,4250],[999,4333],[999,4417],[999,4500],[999,4584],[999,4667],[999,4750],[999,4834],[999,4917],[999,5000],[999,5084],[999,5167],[999,5250],[999,5333],[999,5417],[999,5517],[999,5626],[999,5728],[5.4,5857],[5.2,5943],[5.2,6033],[2.2,6127],[0.2,6219]]",1,0,819.7366,833.8209,0,11.0047,"[{""rating"":50.2553699497008,""responseTime"":8.901799999998843},{""rating"":0,""responseTime"":11.004699999999275}]",space,13.5335,,833.821,Definitely yes,100,833.8359,,,[],,,,0,15,15,15,1,audio/Narrative8Situation6.wav,audio/Narrative7Situation6.wav,audio/Narrative6Situation6.wav,audio/Narrative5Situation6.wav,2,3,2,3,,,,,,,,,,,,,,,,,,,,,,,,,,,,,,,,,,,,,
,,,,,,63619eb02e5bd8f4f7bd138a,2024-02-08_13h02.57.720,group3.1-3.2-social-tom,2023.2.2,Linux x86_64,59.88023952,65c5074098b851296ff0b7ed,65c5415ee423d37d2cdd6aa7,,,,,,,,,,,,,,,,,,,,,,,,,,,,,833.8363,1,audio/Narrative8Situation7.wav,836.8381,,836.8381,848.9392,[],1,0,848.9393,856.8401,0,1.7964,"[{""rating"":0,""responseTime"":1.7963999999985845}]",space,7.3572,,856.8402,Definitely yes,100,856.8613,,,[],,,,0,16,16,16,1,audio/Narrative8Situation7.wav,audio/Narrative7Situation7.wav,audio/Narrative6Situation7.wav,audio/Narrative5Situation7.wav,3,5,5,4,,,,,,,,,,,,,,,,,,,,,,,,,,,,,,,,,,,,,
,,,,,,63619eb02e5bd8f4f7bd138a,2024-02-08_13h02.57.720,group3.1-3.2-social-tom,2023.2.2,Linux x86_64,59.88023952,65c5074098b851296ff0b7ed,65c5415ee423d37d2cdd6aa7,,,,,,,,,,,,,,,,,,,,,,,,,,,,,856.862,1,audio/Narrative8Situation8.wav,859.8738,,859.8738,872.7285,"[[999,14],[999,89],[999,170],[999,253],[999,333],[999,418],[999,500],[999,584],[999,677],[999,759],[999,840],[999,916],[999,1000],[999,1087],[999,1170],[999,1256],[999,1336],[999,1419],[999,1500],[999,1583],[999,1668],[999,1750],[999,1835],[999,1917],[999,2002],[999,2083],[999,2168],[999,2250],[999,2335],[999,2416],[999,2502],[999,2583],[999,2668],[999,2750],[999,2835],[999,2918],[999,3001],[999,3083],[999,3169],[999,3250],[999,3337],[999,3417],[999,3504],[999,3584],[999,3667],[1.1,3968],[1.1,4050],[1.1,4133],[1.1,4216],[1.1,4301],[1.1,4384],[1.1,4466],[1.1,4550],[1.1,4633],[1.1,4717],[1.1,4805],[1.1,4883],[1.1,4967],[1.1,5050],[1.1,5133],[1.1,5216],[1.1,5300],[1.1,5383],[1.1,5466],[1.1,5550],[1.1,5633],[1.1,5716],[1.1,5800],[1.1,5884],[1.1,5967],[1.1,6050],[1.1,6133],[1.1,6217],[1.1,6300],[1.1,6383],[1.1,6466],[1.1,6550],[1.1,6637],[1.1,6717],[1.1,6800],[1.1,6884],[1.1,6967],[1.1,7051],[1.1,7133],[1.1,7216],[1.1,7300],[1.1,7383],[1.1,7467],[1.1,7550],[1.1,7637],[1.1,7717],[1.1,7800],[1.1,7884],[1.1,7967],[1.1,8050],[1.1,8133],[1.1,8217],[1.1,8300],[1.1,8383],[1.1,8467],[1.1,8550],[1.1,8633],[1.1,8717],[1.1,8801],[1.1,8884],[1.1,8967],[1.1,9050],[1.1,9134],[1.1,9217],[1.1,9300],[1.1,9384],[1.1,9467],[1.1,9550],[1.1,9634],[1.1,9717],[1.1,9800],[1.1,9884],[1.1,9967],[1.1,10050],[1.1,10140],[1.1,10219],[1.1,10301],[1.1,10385],[1.1,10467],[1.1,10550],[1.1,10634],[1.1,10718],[1.1,10800],[1.1,10884],[1.1,10967],[1.1,11051],[1.1,11134],[1.1,11217],[1.1,11300],[1.1,11385],[1.1,11467],[1.1,11550],[1.1,11634],[1.1,11730],[1.1,11809],[1.1,11893],[1.1,11974],[1.1,12057],[1.1,12136],[1.1,12222],[1.1,12301],[4.5,12401],[10.1,12485],[29,12570],[36.5,12656],[39,12756],[39.3,12835]]",1,0,872.7287,880.8758,50.15600609,6.9602,"[{""rating"":0,""responseTime"":3.526700000001142},{""rating"":50.15600609244799,""responseTime"":6.960200000001123}]",space,7.6052,,880.8759,Definitely yes,100,880.88,,,[],,,,0,17,17,17,1,audio/Narrative8Situation8.wav,audio/Narrative7Situation8.wav,audio/Narrative6Situation8.wav,audio/Narrative5Situation8.wav,3,2,5,3,,,,,,,,,,,,,,,,,,,,,,,,,,,,,,,,,,,,,
,,,,,,63619eb02e5bd8f4f7bd138a,2024-02-08_13h02.57.720,group3.1-3.2-social-tom,2023.2.2,Linux x86_64,59.88023952,65c5074098b851296ff0b7ed,65c5415ee423d37d2cdd6aa7,,,,,,,,,,,,,,,,,,,,,,,,,,,,,880.8808,1,audio/Narrative8Situation9.wav,883.893,,883.8931,895.2111,"[[43.9,4920],[21.6,5196],[48.7,5521],[56.9,5609],[53.5,5715],[50.5,5876],[48.4,5976],[49.9,6094],[49.9,6233],[49.9,6362],[49.9,6487],[50.6,6633],[50.6,6745],[50.6,6873],[50.6,6967],[50.6,7053],[50.6,7163],[50.6,7236],[50.6,7317],[50.6,7401],[50.6,7500],[50.6,7596],[50.6,7694],[50.6,7786],[50.6,7872],[50.6,7963],[50.6,8060],[50.6,8159],[50.6,8245],[50.6,8333],[50.6,8425],[50.6,8510],[50.6,8592],[50.6,8684],[50.6,8767],[50.6,8852],[50.6,8938],[50.6,9017],[50.6,9100],[50.6,9185],[50.6,9267],[50.6,9354],[50.6,9438],[50.6,9518],[50.6,9601],[50.6,9702],[50.6,9783],[50.6,9868],[50.6,9960],[50.6,10044],[50.6,10133],[50.6,10213],[50.6,10298],[50.6,10381],[50.6,10461],[50.6,10539],[50.6,10621],[50.6,10707],[50.6,10785],[50.6,10867],[50.6,10951],[50.6,11038],[50.6,11120],[50.6,11205],[50.6,11284]]",1,0,895.2121,899.7831,50.16198227,3.0537,"[{""rating"":50.16198227458367,""responseTime"":3.053699999999253}]",space,4.0219,,899.7831,Not at all,0,899.7915,,,[],,,,0,18,18,18,1,audio/Narrative8Situation9.wav,audio/Narrative7Situation9.wav,audio/Narrative6Situation9.wav,audio/Narrative5Situation9.wav,3,2,4,3,,,,,,,,,,,,,,,,,,,,,,,,,,,,,,,,,,,,,
,,,,,,63619eb02e5bd8f4f7bd138a,2024-02-08_13h02.57.720,group3.1-3.2-social-tom,2023.2.2,Linux x86_64,59.88023952,65c5074098b851296ff0b7ed,65c5415ee423d37d2cdd6aa7,,,,,,,,,,,,,,,,,,,,,,,,,,,903.6592,906.2284,906.2577,2,audio/Narrative13Situation2.wav,906.2579,,906.2579,935.9984,"[[999,0],[999,87],[999,170],[999,253],[999,336],[999,420],[999,503],[999,587],[999,670],[999,754],[999,839],[999,920],[999,1004],[999,1087],[999,1170],[999,1254],[999,1337],[999,1421],[999,1504],[999,1587],[999,1671],[999,1754],[999,1837],[999,1931],[999,2004],[999,2087],[999,2171],[999,2254],[999,2337],[999,2420],[999,2505],[999,2596],[999,2682],[999,2772],[999,2855],[1,2938],[0.7,3021],[0.6,3105],[0.6,3187],[0.6,3271],[0.6,3355],[0.6,3437],[0.6,3520],[0.6,3606],[0.6,3687],[0.6,3770],[0.6,3854],[0.4,3938],[0.4,4020],[0.4,4104],[0.4,4187],[0.4,4272],[0.4,4354],[0.4,4437],[0.4,4536],[0.4,4623],[0.4,4704],[0.4,4790],[0.4,4870],[0.4,4954],[0.4,5037],[0.4,5120],[0.4,5204],[0.4,5287],[0.4,5370],[0.4,5454],[0.4,5537],[0.4,5620],[0.4,5704],[0.4,5787],[0.4,5871],[0.4,5954],[0.4,6039],[0.4,6122],[0.4,6204],[0.4,6287],[0.4,6370],[0.4,6454],[0.4,6538],[0.4,6621],[0.4,6704],[0.4,6787],[0.4,6871],[0.4,6954],[0.4,7038],[0.4,7121],[0.4,7204],[0.4,7287],[0.4,7371],[0.4,7454],[0.4,7538],[0.4,7621],[0.4,7704],[0.4,7788],[0.4,7871],[0.4,7954],[0.4,8038],[0.4,8121],[0.4,8206],[0.4,8287],[0.4,8371],[0.4,8454],[0.4,8538],[45.6,8893],[47.6,8971],[49.4,9059],[49.6,9140],[49.6,9221],[49.6,9304],[49.6,9388],[49.6,9471],[49.6,9555],[49.6,9638],[69,9722],[100,9816],[100,9890],[100,9976],[100,10056],[100,10157],[100,10243],[100,10323],[100,10405]]",1,0,935.9986,936.0139,,,[],,,,936.014,Partially,50,936.0197,,,[],,,,0,0,0,0,1,audio/Narrative13Situation2.wav,audio/Narrative13Situation2.wav,audio/Narrative13Situation2.wav,audio/Narrative13Situation2.wav,2,2,2,2,,,899.7929,903.6456,space,3.3301,,,,,,,,,,,,,,,,,,,,,,,,,,,,,,,
,,,,,,63619eb02e5bd8f4f7bd138a,2024-02-08_13h02.57.720,group3.1-3.2-social-tom,2023.2.2,Linux x86_64,59.88023952,65c5074098b851296ff0b7ed,65c5415ee423d37d2cdd6aa7,,,,,,,,,,,,,,,,,,,,,,,,,,,,,936.0206,2,audio/Narrative5Situation1.wav,941.0322,,941.0322,954.3362,"[[999,13],[999,99],[999,183],[999,266],[999,350],[999,433],[999,516],[999,599],[999,683],[999,766],[999,850],[999,933],[999,1016],[999,1099],[999,1183],[999,1266],[999,1349],[999,1433],[999,1516],[999,1600],[999,1683],[999,1766],[999,1850],[999,1933],[999,2017],[999,2100],[999,2183],[999,2266],[999,2350],[999,2433],[999,2520],[999,2600],[999,2683],[999,2768],[999,2850],[999,2933],[999,3016],[999,3100],[999,3183],[999,3267],[999,3350],[999,3433],[999,3516],[999,3600],[999,3683],[999,3766],[999,3850],[999,3933],[999,4016],[999,4100],[999,4183],[999,4267],[999,4350],[999,4435],[999,4518],[999,4600],[999,4688],[0.8,4939],[0.8,5016],[0.8,5100],[0.8,5183],[0.8,5267],[0.8,5350],[0.8,5433],[0.8,5517],[0.8,5600],[0.8,5683],[0.8,5766]]",1,0,954.3363,962.5012,0,2.9121,"[{""rating"":0,""responseTime"":2.9121000000014874}]",space,7.6252,,962.5013,Definitely yes,100,962.5224,,,[],,,,0,1,1,1,1,audio/Narrative7Situation1.wav,audio/Narrative8Situation1.wav,audio/Narrative5Situation1.wav,audio/Narrative6Situation1.wav,2,5,5,2,,,,,,,,,,,,,,,,,,,,,,,,,,,,,,,,,,,,,
,,,,,,63619eb02e5bd8f4f7bd138a,2024-02-08_13h02.57.720,group3.1-3.2-social-tom,2023.2.2,Linux x86_64,59.88023952,65c5074098b851296ff0b7ed,65c5415ee423d37d2cdd6aa7,,,,,,,,,,,,,,,,,,,,,,,,,,,,,962.5244,2,audio/Narrative5Situation2.wav,965.5361,,965.537,995.0219,"[[999,0],[999,97],[999,181],[999,264],[999,347],[999,431],[999,515],[999,597],[999,685],[999,766],[999,851],[999,932],[999,1016],[999,1099],[999,1181],[999,1264],[999,1347],[999,1431],[999,1514],[999,1597],[999,1681],[999,1764],[999,1847],[999,1931],[999,2014],[999,2097],[999,2181],[999,2272],[999,2347],[999,2431],[999,2514],[999,2597],[999,2681],[999,2772],[999,2852],[999,2939],[999,3025],[999,3114],[999,3197],[999,3281],[999,3364],[999,3448],[999,3531],[999,3614],[999,3702],[999,3790],[20,11240],[29.1,11318],[29.1,11399],[27.4,11482],[10.1,11577],[4,11657],[2.2,14782],[2.2,14865],[0.8,14956],[0.6,15045],[36.5,29234]]",1,0,995.0222,999.7193,50.20277365,2.407,"[{""rating"":50.20277364935855,""responseTime"":2.4069999999999254}]",space,4.1464,,999.7194,Partially,50,999.7299,,,[],,,,0,2,2,2,1,audio/Narrative7Situation2.wav,audio/Narrative8Situation2.wav,audio/Narrative5Situation2.wav,audio/Narrative6Situation2.wav,3,3,3,3,,,,,,,,,,,,,,,,,,,,,,,,,,,,,,,,,,,,,
,,,,,,63619eb02e5bd8f4f7bd138a,2024-02-08_13h02.57.720,group3.1-3.2-social-tom,2023.2.2,Linux x86_64,59.88023952,65c5074098b851296ff0b7ed,65c5415ee423d37d2cdd6aa7,,,,,,,,,,,,,,,,,,,,,,,,,,,,,999.7327,2,audio/Narrative5Situation3.wav,1002.7387,,1002.7388,1016.64,"[[999,0],[999,85],[999,167],[999,250],[999,333],[999,416],[999,499],[999,583],[999,681],[999,784],[999,866],[999,949],[999,1041],[999,1116],[999,1199],[999,1284],[999,1367],[60.9,1450],[54.9,1541],[51.6,1629],[51.3,1716],[51.3,1799],[51.3,1883],[51.3,1966],[51.3,2049],[51.3,2142],[50.5,2222],[50.4,2301],[50.4,2384],[50.4,2466],[50.4,2553],[50.4,2636],[50.4,2720],[50.4,2799],[50.4,2885],[50.4,2966],[50.4,3050],[50.4,3135],[50.4,3216],[50.4,3300],[50.4,3383],[50.4,3466],[50.4,3550],[50.4,3641],[50.4,3716],[50.4,3801],[50.4,3883],[50.4,3966],[50.4,4050],[50.4,4141],[50.4,4218],[50.4,4300],[50.4,4383],[50.4,4467],[50.4,4550],[50.4,4641],[50.4,4716],[50.4,4800],[50.4,4883],[50.4,4966],[50.4,5050],[50.4,5134],[50.4,5232],[50.4,5387],[50.4,5499],[50.4,5599],[50.4,5730],[50.4,5845],[50.4,5955],[50.4,6056],[50.4,6170],[50.4,6261],[50.4,6353],[50.4,6453],[50.4,6536],[50.4,6626],[100,7450],[100,7534],[100,7679],[100,7761],[100,7861],[100,7953],[100,8045],[100,8157],[100,8278],[100,8390],[100,8535],[100,8673],[100,8800],[100,8923],[100,9037],[100,9136],[100,9232],[100,9335],[100,9421],[100,9508],[100,9595],[100,9687],[100,9778],[100,9859],[100,9942],[100,10027],[100,10110],[100,10193],[100,10275],[100,10357],[100,10440],[100,10521],[100,10605],[100,10688],[100,10770],[100,10851],[100,10936],[100,11020],[100,11101],[100,11184],[100,11267],[100,11352],[100,11434],[100,11538],[100,11621],[100,11700],[100,11785],[100,11867],[100,11951],[100,12034],[100,12117],[100,12200],[100,12284],[100,12367],[100,12450],[100,12534],[100,12617],[100,12703],[100,12784],[100,12867],[100,12952],[100,13034],[100,13117],[100,13200],[100,13284],[100,13367],[100,13451],[100,13534],[100,13617],[100,13700],[100,13784],[100,13868]]",1,0,1016.6402,1022.4574,100,2.8582,"[{""rating"":100,""responseTime"":2.858199999999215}]",space,5.2677,,1022.4576,Not at all,0,1022.4621,,,[],,,,0,3,3,3,1,audio/Narrative7Situation3.wav,audio/Narrative8Situation3.wav,audio/Narrative5Situation3.wav,audio/Narrative6Situation3.wav,8,4,3,5,,,,,,,,,,,,,,,,,,,,,,,,,,,,,,,,,,,,,
,,,,,,63619eb02e5bd8f4f7bd138a,2024-02-08_13h02.57.720,group3.1-3.2-social-tom,2023.2.2,Linux x86_64,59.88023952,65c5074098b851296ff0b7ed,65c5415ee423d37d2cdd6aa7,,,,,,,,,,,,,,,,,,,,,,,,,,,,,1022.4625,2,audio/Narrative5Situation4.wav,1023.4746,,1023.4747,1043.8765,"[[999,0],[999,82],[999,173],[999,249],[999,340],[999,416],[999,507],[999,582],[999,666],[999,749],[999,833],[999,917],[999,999],[999,1082],[999,1166],[999,1249],[999,1333],[999,1416],[999,1500],[999,1582],[999,1666],[999,1749],[999,1840],[999,1916],[999,1999],[999,2083],[999,2167],[999,2249],[4.7,2333],[1.6,2418],[1.3,2499],[1.3,2582],[1.3,2666],[1.3,2749],[1.3,2832],[1.3,2916],[4.2,3583],[4.6,3667],[4.6,3749],[2.5,3836],[52.4,9761],[51.1,9847],[51.1,9926],[50.6,10006],[50.6,10093],[50.6,10168],[50.6,10252],[50.6,10334],[50.6,10418],[50.6,10500],[50.6,10585],[50.6,10667],[50.6,10751],[50.6,10834],[50.6,10917],[50.6,11000],[50.6,11085],[50.6,11167],[50.6,11250],[50.6,11334],[50.6,11417],[50.6,11500],[50.6,11586],[50.6,11667],[50.6,11750],[50.6,11834],[50.6,11918],[50.6,12000],[50.6,12083],[50.6,12168],[50.6,12252],[50.6,12334],[50.6,12418],[50.6,12500],[50.6,12584],[50.6,12667],[50.6,12752],[50.6,12836],[50.6,12917],[50.6,13001],[50.6,13087],[50.6,13167],[50.6,13252],[50.6,13334],[50.6,13418],[50.6,13500],[50.6,13584],[50.6,13667],[50.6,13752],[50.6,13834],[50.6,13918],[50.6,14001],[50.6,14084],[50.6,14167],[50.6,14251],[50.6,14334],[50.6,14417],[50.6,14501],[50.6,14584],[50.6,14667],[50.6,14754],[50.6,14834],[50.6,14918],[50.6,15001],[50.6,15085],[50.6,15167],[50.6,15251],[50.6,15334],[50.6,15419],[50.6,15501],[50.6,15585],[50.6,15668],[50.6,15752],[50.6,15834],[50.6,15917],[50.6,16001],[50.6,16085],[100,16435],[100,16518],[100,16601],[100,16684],[100,16768],[100,16851],[100,16934],[100,17017],[100,17100],[100,17184],[100,17267],[100,17351],[100,17434],[100,17517],[100,17601],[100,17685],[100,17767],[100,17851],[100,17935],[100,18017],[100,18101],[100,18184],[100,18268],[100,18351],[100,18434],[100,18517],[100,18601],[100,18684],[100,18767],[100,18851],[100,18934],[100,19017],[100,19101],[100,19184],[100,19267],[100,19351],[100,19434],[100,19518],[100,19601],[100,19684],[100,19768],[100,19851],[100,19934],[100,20018],[100,20101],[100,20184],[100,20267],[100,20351]]",1,0,1043.8767,1051.8997,100,1.4826,"[{""rating"":100,""responseTime"":1.4825999999998203}]",space,7.4714,,1051.8998,Not at all,0,1051.9163,,,[],,,,0,4,4,4,1,audio/Narrative7Situation4.wav,audio/Narrative8Situation4.wav,audio/Narrative5Situation4.wav,audio/Narrative6Situation4.wav,3,3,1,2,,,,,,,,,,,,,,,,,,,,,,,,,,,,,,,,,,,,,
,,,,,,63619eb02e5bd8f4f7bd138a,2024-02-08_13h02.57.720,group3.1-3.2-social-tom,2023.2.2,Linux x86_64,59.88023952,65c5074098b851296ff0b7ed,65c5415ee423d37d2cdd6aa7,,,,,,,,,,,,,,,,,,,,,,,,,,,,,1051.9169,2,audio/Narrative5Situation5.wav,1056.9279,,1056.928,1072.365,"[[49.3,1450],[49.3,1533],[49.8,1616],[49.8,1699],[49.8,1783],[49.8,1866],[50,1950],[48.1,2033],[48.1,2116],[48.1,2199],[48.1,2283],[48.1,2366],[48.1,2450],[48.1,2533],[47.7,2616],[39.8,2704],[41.6,2783],[46.7,2867],[46.5,2950],[43,3033],[50.4,3116],[51.9,3199],[51.9,3283],[51.3,3366],[49.6,3461],[49.4,3533],[49.4,3616],[36.1,3702],[8.8,3785],[7.2,3867],[6.7,3953],[3.7,4037]]",1,0,1072.3652,1076.9799,0,2.1836,"[{""rating"":0,""responseTime"":2.183600000001661}]",space,4.0631,,1076.98,Not at all,0,1076.9842,,,[],,,,0,5,5,5,1,audio/Narrative7Situation5.wav,audio/Narrative8Situation5.wav,audio/Narrative5Situation5.wav,audio/Narrative6Situation5.wav,5,2,5,2,,,,,,,,,,,,,,,,,,,,,,,,,,,,,,,,,,,,,
,,,,,,63619eb02e5bd8f4f7bd138a,2024-02-08_13h02.57.720,group3.1-3.2-social-tom,2023.2.2,Linux x86_64,59.88023952,65c5074098b851296ff0b7ed,65c5415ee423d37d2cdd6aa7,,,,,,,,,,,,,,,,,,,,,,,,,,,,,1076.9847,2,audio/Narrative5Situation6.wav,1079.9965,,1079.9967,1085.6813,[],1,0,1085.6814,1093.7422,50.30121356,3.8119,"[{""rating"":50.301213557399585,""responseTime"":3.8118999999983316}]",space,7.5161,,1093.7423,Definitely yes,100,1093.7618,,,[],,,,0,6,6,6,1,audio/Narrative7Situation6.wav,audio/Narrative8Situation6.wav,audio/Narrative5Situation6.wav,audio/Narrative6Situation6.wav,3,2,3,2,,,,,,,,,,,,,,,,,,,,,,,,,,,,,,,,,,,,,
,,,,,,63619eb02e5bd8f4f7bd138a,2024-02-08_13h02.57.720,group3.1-3.2-social-tom,2023.2.2,Linux x86_64,59.88023952,65c5074098b851296ff0b7ed,65c5415ee423d37d2cdd6aa7,,,,,,,,,,,,,,,,,,,,,,,,,,,,,1093.7623,2,audio/Narrative5Situation7.wav,1097.7686,,1097.7687,1118.838,"[[999,15],[999,96],[999,179],[999,262],[999,346],[999,429],[999,512],[999,601],[999,701],[999,793],[999,872],[999,957],[999,1033],[999,1118],[999,1196],[999,1279],[999,1363],[999,1446],[999,1529],[999,1615],[999,1696],[999,1788],[999,1863],[999,1946],[999,2030],[999,2113],[999,2196],[999,2281],[999,2363],[999,2446],[999,2531],[999,2618],[999,2699],[999,2780],[999,2863],[999,2946],[999,3031],[999,3113],[999,3197],[999,3280],[999,3363],[999,3446],[999,3533],[999,3613],[999,3699],[999,3779],[999,3863],[999,3946],[999,4030],[999,4113],[999,4196],[999,4280],[999,4363],[999,4446],[999,4530],[999,4613],[999,4696],[999,4781],[999,4863],[999,4947],[999,5031],[999,5116],[999,5203],[999,5287],[999,5369],[999,5448],[20.1,5540],[12.4,5634],[8.6,5721],[5.9,7118],[5.4,7211],[1.2,7297],[0.9,7392],[0.7,7470],[0.7,7554],[0.7,7636],[0.7,7720],[0.7,7807],[0.7,7885],[0.7,7968],[0.7,8047],[0.7,8130],[0.7,8214],[0.7,8297],[0.7,8382],[0.7,8463],[0.7,8548],[0.7,8630],[0.7,8714],[0.7,8797],[0.7,8880],[0.7,8975],[0.7,9048],[0.7,9133],[0.5,9214],[0.5,9300],[0.5,9382],[0.5,9468],[0.5,9547]]",1,0,1118.8382,1124.0259,0,2.2135,"[{""rating"":0,""responseTime"":2.21349999999984}]",space,4.6554,,1124.026,Not at all,0,1124.0314,,,[],,,,0,7,7,7,1,audio/Narrative7Situation7.wav,audio/Narrative8Situation7.wav,audio/Narrative5Situation7.wav,audio/Narrative6Situation7.wav,5,3,4,5,,,,,,,,,,,,,,,,,,,,,,,,,,,,,,,,,,,,,
,,,,,,63619eb02e5bd8f4f7bd138a,2024-02-08_13h02.57.720,group3.1-3.2-social-tom,2023.2.2,Linux x86_64,59.88023952,65c5074098b851296ff0b7ed,65c5415ee423d37d2cdd6aa7,,,,,,,,,,,,,,,,,,,,,,,,,,,,,1124.0319,2,audio/Narrative5Situation8.wav,1127.0353,,1127.0354,1135.87,"[[999,16],[999,99],[999,182],[999,265],[999,349],[999,432],[999,516],[999,599],[999,684],[999,767],[999,860],[999,935],[999,1016],[999,1099],[999,1182],[999,1266],[999,1349],[999,1432],[999,1520],[999,1599],[999,1682],[999,1766],[999,1849],[999,1933],[999,2016],[999,2099],[999,2182],[999,2266],[999,2349],[999,2432],[999,2518],[999,2599],[999,2682],[999,2766],[999,2849],[999,2933],[999,3016],[999,3100],[999,3182],[999,3266],[999,3349],[999,3432],[999,3517],[999,3600],[999,3683],[999,3766],[999,3849],[999,3935],[999,4016],[999,4100],[999,4183],[999,4266],[999,4349],[999,4432],[999,4516],[999,4600],[999,4683],[999,4766],[999,4849],[999,4934],[999,5016],[999,5100],[999,5183],[999,5266],[999,5350],[999,5433],[999,5517],[999,5600],[999,5683],[999,5766],[999,5850],[999,5933],[999,6016],[999,6099],[999,6183],[999,6267],[999,6350],[999,6440],[999,6531],[999,6617]]",1,0,1135.8702,1140.4198,0,2.5327,"[{""rating"":0,""responseTime"":2.532699999999295}]",space,4.0081,,1140.4199,Partially,50,1140.4256,,,[],,,,0,8,8,8,1,audio/Narrative7Situation8.wav,audio/Narrative8Situation8.wav,audio/Narrative5Situation8.wav,audio/Narrative6Situation8.wav,2,3,3,5,,,,,,,,,,,,,,,,,,,,,,,,,,,,,,,,,,,,,
,,,,,,63619eb02e5bd8f4f7bd138a,2024-02-08_13h02.57.720,group3.1-3.2-social-tom,2023.2.2,Linux x86_64,59.88023952,65c5074098b851296ff0b7ed,65c5415ee423d37d2cdd6aa7,,,,,,,,,,,,,,,,,,,,,,,,,,,,,1140.4261,2,audio/Narrative5Situation9.wav,1143.4369,,1143.437,1182.9911,"[[999,12],[999,99],[999,182],[999,266],[999,349],[999,432],[999,516],[999,599],[999,683],[999,766],[999,849],[999,932],[999,1016],[999,1099],[999,1182],[999,1266],[999,1349],[999,1433],[999,1516],[999,1599],[999,1685],[999,1766],[999,1849],[999,1933],[999,2016],[999,2099],[999,2189],[999,2271],[999,2351],[999,2439],[26.4,3017],[39.2,3106],[39.5,3185],[45,3268],[50.1,3351],[50.2,3433],[51.1,3517],[51.1,3602],[50.7,3683],[50.5,3774],[50,3849],[49.5,3933],[49.2,4017],[22.5,4106],[23.6,7022],[42.9,7104],[49.4,7190],[49.4,7267],[52,7355],[52,7433],[52,7520],[52,7600],[51.8,7685],[51.6,7767],[51.6,7851],[51.1,7934],[50.6,8017],[50.4,8102],[50.4,8186],[50.4,8267],[50.4,8352],[50.4,8434],[50.4,8517],[50.4,8600],[50.4,8683],[50.4,8767],[50.4,8852],[50.4,8933],[50.4,9020],[50.4,9100],[50.4,9186],[50.4,9267],[50.4,9352],[50.4,9434],[50.4,9519],[50.4,9600],[50.4,9687],[50.4,9768],[50.4,9854],[50.4,9934],[50.4,10055],[50.4,10206],[50.4,10308],[50.4,10432],[50.4,10559],[50.4,10687],[50.4,10840],[50.4,10956],[50.4,11059],[50.4,11166],[50.4,11271],[50.4,11366],[50.4,11450],[50.4,11534],[50.4,11621],[50.4,11708],[50.4,11792],[50.4,11881],[50.4,11967],[50.4,12058],[50.4,12145],[50.4,12230],[50.4,12312],[50.4,12401],[50.4,12491],[50.4,12569],[50.4,12651],[50.4,12734],[50.4,12817],[50.4,12901],[50.4,12984],[50.4,13067],[50.4,13152],[50.4,13234],[50.4,13317],[50.4,13400],[50.4,13486],[50.4,13581],[50.4,13653],[50.4,13734],[50.4,13817],[50.4,13900],[50.4,13984],[50.4,14068],[50.4,14152],[50.4,14234],[50.4,14317],[50.4,14401],[50.4,14485],[50.4,14567],[50.4,14651],[50.4,14735],[50.4,14817],[50.4,14905],[50.4,14984],[50.4,15072],[50.4,15154],[50.4,15237],[50.4,15317],[50.4,15401],[50.4,15484],[50.4,15567],[50.4,15651],[50.4,15734],[50.4,15818],[50.4,15901],[50.4,15998],[50.4,16067],[50.4,16151],[50.4,16236],[50.4,16318],[50.4,16401],[50.4,16484],[50.4,16568],[50.4,16651],[50.4,16734],[50.4,16817],[50.4,16902],[50.4,16984],[50.4,17067],[50.4,17158],[50.4,17240],[50.4,17318],[50.4,17401],[50.4,17485],[50.4,17567],[50.4,17651],[50.4,17734],[50.4,17818],[50.4,17901],[50.4,17984],[50.4,18069],[50.4,18165],[50.4,18235],[50.4,18318],[50.4,18401],[50.4,18484],[50.4,18568],[50.4,18651],[50.4,18736],[50.4,18818],[50.4,18901],[50.4,18984],[50.4,19069],[50.4,19151],[50.4,19234],[50.4,19318],[50.4,19402],[50.4,19485],[50.4,19568],[50.4,19652],[50.4,19735],[50.4,19818],[50.4,19908],[50.4,19985],[50.4,20068],[50.4,20152],[50.4,20237],[50.4,20318],[50.4,20403],[50.4,20485],[50.4,20570],[50.4,20651],[50.4,20736],[50.4,20818],[50.4,20901],[50.4,20985],[50.4,21068],[50.4,21152],[50.4,21234],[50.4,21318],[50.4,21419],[50.4,21507],[50.4,21594],[50.4,21671],[50.4,21753],[50.4,21835],[50.4,21919],[50.4,22001],[50.4,22085],[50.4,22168],[50.4,22251],[50.4,22335],[50.4,22419],[50.4,22501],[50.4,22585],[50.4,22669],[50.4,22752],[50.4,22835],[50.4,22918],[50.4,23002],[50.4,23085],[50.4,23168],[50.4,23253],[50.4,23335],[50.4,23418],[50.4,23502],[50.4,23587],[50.4,23669],[50.4,23751],[50.4,23835],[50.4,23918],[50.4,24004],[50.4,24085],[50.4,24168],[50.4,24252],[50.4,24336],[50.4,24418],[50.4,24503],[50.4,24585],[50.4,24668],[50.4,24752],[50.4,24835],[50.4,24918],[50.4,25002],[50.4,25085],[50.4,25175],[50.4,25252],[50.4,25336],[50.4,25418],[50.4,25504],[50.4,25585],[50.4,25670],[50.4,25752],[50.4,25839],[50.4,25919],[50.4,26002],[50.4,26087],[50.4,26173],[50.4,26252],[50.4,26335],[50.4,26420],[50.4,26502],[50.4,26588],[50.4,26669],[50.4,26753],[50.4,26835],[50.4,26920],[50.4,27008],[50.4,27086],[50.4,27170],[50.4,27255],[50.4,27335],[50.4,27422],[50.4,27503],[50.4,27587],[50.4,27669],[50.4,27752],[50.4,27836],[50.4,27920],[50.4,28002],[50.4,28087],[50.4,28169],[50.4,28254],[50.4,28336],[50.4,28421],[50.4,28502],[50.4,28586],[50.4,28669],[50.4,28754],[50.4,28836],[50.4,28919],[50.4,29002],[50.4,29087],[50.4,29170],[50.4,29254],[50.4,29336],[50.4,29421],[50.4,29503],[50.4,29587],[50.4,29669],[50.4,29752],[50.4,29836],[50.4,29921],[50.4,30002],[50.4,30086],[50.4,30169],[50.4,30252],[50.4,30336],[50.4,30420],[50.4,30502],[50.4,30586],[50.4,30680],[50.4,30760],[50.4,30836],[50.4,30919],[50.4,31003],[50.4,31088],[50.4,31169],[50.4,31254],[50.4,31336],[50.4,31421],[50.4,31503],[50.4,31589],[50.4,31669],[50.4,31753],[50.4,31836],[50.4,31920],[50.4,32003],[50.4,32088],[50.4,32169],[50.4,32255],[50.4,32336],[50.4,32420],[50.4,32503],[50.4,32588],[50.4,32669],[50.4,32753],[50.4,32836],[50.4,32923],[50.4,33003],[50.4,33088],[50.4,33169],[50.4,33253],[50.4,33336],[50.4,33420],[50.4,33503],[50.4,33589],[50.4,33669],[50.4,33753],[50.4,33836],[50.4,33923],[50.4,34003],[50.4,34087],[50.4,34170],[50.4,34254],[50.4,34336],[50.4,34419],[50.4,34503],[50.4,34588],[50.4,34670],[50.4,34753],[50.4,34836],[50.4,34920],[50.4,35003],[50.4,35089],[50.4,35186],[50.4,35269],[50.4,35353],[50.4,35436],[50.4,35519],[50.4,35603],[50.4,35686],[50.4,35769],[50.4,35853],[50.4,35936],[50.4,36019],[50.4,36103],[50.4,36186],[50.4,36269],[50.4,36353],[50.4,36436],[50.4,36519],[50.4,36603],[70.5,36697],[75.5,36775],[75.8,36853],[74.3,36937],[63.1,37020],[58.7,37108],[48.9,37198],[49.3,37437],[49.5,37520],[49.5,37604],[49.5,37686],[49.5,37770],[49.5,37853],[49.5,37936],[49.5,38020],[49.5,38103],[49.5,38187],[49.5,38270],[49.5,38353],[49.5,38436],[49.5,38520],[49.5,38603],[49.5,38686],[49.5,38770],[49.5,38853],[49.5,38937],[49.5,39020],[49.5,39103],[51,39187],[66.1,39275],[96.5,39355],[100,39440],[100,39521]]",1,0,1182.9917,1187.5413,100,1.5655,"[{""rating"":100,""responseTime"":1.5655000000001564}]",space,4.0066,,1187.5414,Not at all,0,1187.5498,,,[],,,,0,9,9,9,1,audio/Narrative7Situation9.wav,audio/Narrative8Situation9.wav,audio/Narrative5Situation9.wav,audio/Narrative6Situation9.wav,2,3,3,4,,,,,,,,,,,,,,,,,,,,,,,,,,,,,,,,,,,,,
,,,,,,63619eb02e5bd8f4f7bd138a,2024-02-08_13h02.57.720,group3.1-3.2-social-tom,2023.2.2,Linux x86_64,59.88023952,65c5074098b851296ff0b7ed,65c5415ee423d37d2cdd6aa7,,,,,,,,,,,,,,,,,,,,,,,,,,,,,1187.5504,2,audio/Narrative6Situation1.wav,1189.5583,,1189.5584,1216.1612,"[[999,0],[999,88],[999,166],[999,249],[999,332],[999,423],[999,499],[999,582],[999,666],[999,753],[999,839],[999,923],[999,1001],[999,1083],[999,1166],[999,1250],[54.4,2925],[54.1,3003],[51.1,3092],[50,3173],[50,3250],[100,8117],[100,8201],[100,8286],[98.3,8367],[100,8700],[100,8784],[100,8867],[100,8950],[100,9033],[100,9117],[100,9200],[100,9284],[100,9367],[100,9450],[100,9533],[100,9618],[100,9700],[100,9783],[100,9867],[100,9950],[100,10034],[100,10117],[100,10203],[100,10284],[100,10367],[100,10450],[100,10534],[100,10617],[100,10700],[100,10783],[100,10867],[100,10950],[100,11034],[100,11120],[100,11200],[100,11287],[100,11367],[100,11452],[100,11533],[100,11619],[100,11700],[100,11784],[100,11867],[100,11953],[100,12047],[100,12137],[100,12223],[100,12300],[100,12384],[100,12467],[100,12551],[100,12634],[100,12717],[100,12801],[100,12884],[100,12967],[100,13050],[100,13134],[100,13218],[100,13300],[100,13384],[100,13467],[100,13551],[100,13634],[100,13717],[100,13803],[100,13884],[100,13967],[100,14051],[100,14134],[100,14217],[100,14301],[100,14386],[100,14467],[100,14551],[100,14634],[100,14721],[100,14801],[100,14885],[100,14977],[100,15056],[100,15137],[100,15224],[100,15301],[100,15384],[100,15467],[100,15551],[100,15634],[100,15719],[100,15801],[100,15893],[100,15970],[100,16051],[100,16134],[100,16220],[100,16302],[100,16384],[100,16468],[100,16556],[100,16634],[100,16719],[100,16802],[100,16885],[100,16971],[100,17054],[100,17136],[100,17219],[100,17301],[100,17384],[100,17468],[100,17551],[100,17634],[100,17718],[100,17801],[100,17892],[100,17968],[100,18052],[100,18136],[100,18218],[100,18303],[100,18385],[100,18468],[100,18558],[100,18634],[100,18717],[100,18801],[100,18885],[100,18968],[100,19054],[100,19134],[100,19217],[100,19301],[100,19384],[100,19468],[100,19551],[100,19634],[100,19720],[100,19801],[100,19892],[100,19970],[100,20054],[100,20134],[100,20218],[100,20301],[100,20386],[100,20468],[100,20551],[100,20635],[100,20719],[100,20808],[100,20885],[100,20968],[100,21051],[100,21135],[100,21218],[100,21302],[100,21385],[100,21468],[100,21551],[100,21635],[100,21718],[100,21802],[100,21885],[100,21968],[100,22052],[100,22136],[100,22219],[100,22311],[100,22387],[100,22471],[100,22552],[100,22639],[100,22718],[100,22802],[100,22885],[100,22971],[100,23052],[100,23139],[100,23219],[100,23302],[100,23385],[100,23472],[100,23552],[100,23638],[100,23719],[100,23804],[100,23885],[100,23979],[100,24053],[100,24138],[100,24222],[100,24302],[100,24385],[100,24470],[100,24554],[100,24636],[100,24720],[100,24802],[100,24889],[100,24972],[100,25054],[100,25135],[100,25221],[100,25302],[100,25387],[100,25470],[100,25554],[100,25635],[100,25721],[100,25802],[100,25888],[100,25969],[100,26058],[100,26136],[100,26222],[100,26303],[100,26389],[100,26470],[100,26552]]",1,0,1216.1615,1230.9507,50.16486224,13.3222,"[{""rating"":0,""responseTime"":6.429299999998875},{""rating"":46.812204407318134,""responseTime"":12.17529999999897},{""rating"":50.16486224393525,""responseTime"":13.322199999999384}]",space,14.2405,,1230.9508,Partially,50,1230.9552,,,[],,,,0,10,10,10,1,audio/Narrative8Situation1.wav,audio/Narrative7Situation1.wav,audio/Narrative6Situation1.wav,audio/Narrative5Situation1.wav,5,2,2,5,,,,,,,,,,,,,,,,,,,,,,,,,,,,,,,,,,,,,
,,,,,,63619eb02e5bd8f4f7bd138a,2024-02-08_13h02.57.720,group3.1-3.2-social-tom,2023.2.2,Linux x86_64,59.88023952,65c5074098b851296ff0b7ed,65c5415ee423d37d2cdd6aa7,,,,,,,,,,,,,,,,,,,,,,,,,,,,,1230.9557,2,audio/Narrative6Situation2.wav,1233.9638,,1233.9638,1262.4659,"[[999,0],[999,90],[999,170],[999,251],[999,332],[999,415],[999,502],[999,587],[999,668],[999,764],[999,848],[999,935],[999,1022],[999,1103],[999,1184],[999,1265],[999,1350],[999,1432],[999,1519],[999,1601],[999,1686],[999,1768],[999,1851],[999,1932],[999,2015],[999,2098],[999,2182],[999,2265],[999,2349],[999,2433],[999,2519],[999,2615],[999,2699],[999,2786],[999,2866],[999,2952],[999,3032],[999,3118],[999,3204],[999,3286],[999,3366],[999,3469],[999,3563],[999,3672],[999,3765],[999,3850],[999,3938],[999,4026],[999,4109],[999,4198],[999,4277],[999,4360],[999,4448],[999,4527],[999,4633],[999,4743],[999,4853],[999,4955],[999,5061],[999,5153],[999,5247],[999,5333],[999,5422],[999,5501],[999,5592],[999,5680],[999,5767],[999,5849],[999,5933],[999,6023],[999,6105],[999,6195],[999,6271],[999,6356],[999,6443],[999,6522],[999,6629],[46.8,6790],[48.3,6891],[49.3,6986],[49.3,7068],[49.3,7155],[49.3,7238],[49.3,7324],[49.3,7409],[48.5,7489],[48.5,7573],[48.5,7662],[48.5,7750],[47.3,7839],[47.8,7928],[47.8,8017],[47.8,8099],[47.8,8184],[47.8,8266],[47.6,8355],[47.8,8436],[48,8521],[48,8613],[48,8691],[48,8776],[48,8863],[48,8943],[48,9029],[48.5,9108],[49,9195],[49,9284],[49,9366],[49,9459],[49,9554],[49,9633],[49,9718],[49,9803],[49,9888],[49,9973],[49,10053],[49,10139],[49,10223],[49,10303],[49,10393],[49,10472],[49,10559],[49,10639],[49,10727],[49,10805],[49,10887],[49,10966],[49,11059],[49,11138],[49,11221],[49,11312],[49,11401],[49,11485],[49,11569],[49,11659],[49,11744],[49,11829],[49,11910],[49,11993],[49,12073],[49,12155],[49,12235],[49,12320],[49,12404],[49,12484],[49,12571],[49,12652],[49,12733],[49,12816],[49,12905],[49,12984],[49,13069],[49,13152],[49,13236],[49,13324],[49,13401],[49,13483],[49,13567],[49,13654],[49,13733],[49,13819],[49,13900],[49,13986],[49,14067],[49,14154],[49,14234],[49,14321],[49,14401],[49,14488],[49,14568],[49,14656],[49,14736],[49,14820],[49,14900],[49,14986],[49,15067],[49,15154],[49,15234],[49,15321],[49,15400],[49,15487],[49,15570],[49,15655],[49,15737],[49,15823],[49,15901],[49,15987],[49,16067],[49,16155],[49,16234],[49,16321],[49,16406],[49,16489],[49,16567],[49,16653],[49,16735],[49,16821],[49,16902],[49,16989],[49,17068],[49,17155],[49,17234],[49,17317],[49,17401],[49,17487],[49,17568],[49,17654],[49,17736],[49,17825],[49,17906],[49,17989],[49,18068],[49,18150],[51.7,18234],[100,18577],[100,18666],[100,18747],[100,18831],[100,18907],[100,18992],[100,19072],[100,19156],[100,19234],[100,19324],[100,19401],[100,19487],[100,19569],[100,19656],[100,19739],[100,19825],[100,19905],[100,19991],[100,20067],[100,20154],[100,20234],[100,20317],[100,20402],[100,20484],[100,20570],[100,20655],[100,20735],[100,20821],[100,20902],[100,20987],[100,21069],[100,21154],[100,21247],[100,21342],[100,21426],[100,21511],[100,21589],[100,21672],[100,21752],[100,21834],[100,21920],[100,22000],[100,22086],[100,22168],[100,22251],[100,22334],[100,22417],[100,22501],[100,22599],[100,22671],[100,22751],[100,22837],[100,22918],[100,23005],[100,23086],[100,23170],[100,23251],[100,23338],[100,23419],[100,23505],[100,23584],[100,23679],[100,23756],[100,23841],[100,23922],[100,24005],[100,24088],[100,24168],[100,24255],[100,24336],[100,24424],[100,24502],[100,24584],[100,24670],[100,24767],[100,24846],[100,24930],[100,25008],[100,25092],[100,25168],[100,25256],[100,25335],[100,25418],[100,25501],[100,25584],[100,25669],[100,25755],[100,25837],[100,25918],[100,26002],[100,26084],[100,26168],[100,26255],[100,26335],[100,26418],[100,26502],[100,26588],[100,26672],[100,26757],[100,26835],[100,26920],[100,27001],[100,27087],[100,27168],[100,27251],[100,27336],[100,27421],[100,27501],[100,27587],[100,27670],[100,27762],[100,27845],[100,27927],[100,28007],[100,28089],[100,28168],[100,28255],[100,28351],[100,28435]]",1,0,1262.4662,1267.2496,100,2.459,"[{""rating"":100,""responseTime"":2.45900000000006}]",space,4.2438,,1267.2497,Partially,50,1283.6015,50.30194092,9.4838,"[{""rating"":100,""responseTime"":3.548300000000836},{""rating"":50.30194092167268,""responseTime"":9.483800000000883}]",space,15.8253,,0,11,11,11,1,audio/Narrative8Situation2.wav,audio/Narrative7Situation2.wav,audio/Narrative6Situation2.wav,audio/Narrative5Situation2.wav,3,3,3,3,,,,,,,,,,,,,,,,,,,,,,,,,,,,,,,,,,,,,
,,,,,,63619eb02e5bd8f4f7bd138a,2024-02-08_13h02.57.720,group3.1-3.2-social-tom,2023.2.2,Linux x86_64,59.88023952,65c5074098b851296ff0b7ed,65c5415ee423d37d2cdd6aa7,,,,,,,,,,,,,,,,,,,,,,,,,,,,,1283.6163,2,audio/Narrative6Situation3.wav,1288.6204,,1288.6205,1301.2429,"[[999,15],[999,102],[999,181],[999,264],[999,347],[999,432],[999,514],[999,598],[999,694],[999,773],[999,850],[999,932],[999,1014],[77.6,1106],[64.5,2482],[54.4,2565],[51.1,2648],[51.1,2731],[51.1,2814],[49.8,2900],[49.8,2981],[54.6,5731],[53.7,5816],[52.9,5900],[52.7,5982],[52.7,6065],[52.1,6149],[51.3,6231],[51.1,6315],[50.8,6398],[50.5,6481],[50.5,6565],[50.5,6649],[50.5,6731],[50.5,6822],[50.5,6899],[50.5,6982],[50.5,7065],[50.5,7149],[49.6,7231],[49.6,7323],[49.6,7398],[49.6,7482],[49.6,7567],[49.6,7656],[49.6,7734],[49.6,7816],[49.6,7898],[49.6,7982],[49.6,8065],[49.6,8149],[49.6,8233],[49.6,8315],[49.6,8398],[49.6,8481],[49.6,8565],[49.6,8648],[49.6,8732],[49.6,8815],[49.6,8899],[49.6,8989],[49.6,9065],[49.6,9161],[49.6,9236],[49.6,9319],[49.6,9398],[49.6,9490],[49.6,9566],[49.6,9649],[49.6,9732],[49.6,9815],[49.6,9898],[49.6,9982],[49.6,10065],[49.6,10151],[49.6,10232],[49.6,10316],[49.6,10398],[49.6,10483],[49.6,10567],[49.6,10650],[49.6,10732],[49.6,10816],[49.6,10900],[49.6,10982],[49.6,11065],[49.6,11148],[49.6,11232],[49.6,11316],[49.6,11398],[49.6,11482],[49.6,11566],[49.6,11650],[49.6,11732],[49.6,11816],[49.6,11899],[49.6,11982],[49.6,12066],[49.6,12149],[49.6,12232],[49.6,12321],[49.6,12399],[49.6,12482],[49.6,12565]]",1,0,1301.2431,1306.7871,100,3.1751,"[{""rating"":100,""responseTime"":3.175099999999702}]",space,4.9995,,1306.7871,Not at all,0,1306.8104,,,[],,,,0,12,12,12,1,audio/Narrative8Situation3.wav,audio/Narrative7Situation3.wav,audio/Narrative6Situation3.wav,audio/Narrative5Situation3.wav,4,8,5,3,,,,,,,,,,,,,,,,,,,,,,,,,,,,,,,,,,,,,
,,,,,,63619eb02e5bd8f4f7bd138a,2024-02-08_13h02.57.720,group3.1-3.2-social-tom,2023.2.2,Linux x86_64,59.88023952,65c5074098b851296ff0b7ed,65c5415ee423d37d2cdd6aa7,,,,,,,,,,,,,,,,,,,,,,,,,,,,,1306.8112,2,audio/Narrative6Situation4.wav,1308.8204,,1308.8206,1321.4401,"[[999,0],[999,83],[999,166],[999,250],[999,333],[999,416],[999,499],[999,583],[999,668],[999,750],[999,833],[999,916],[999,999],[999,1083],[999,1166],[98.5,1250],[94.3,1334],[85.5,1416],[52.5,6118],[51.9,6202],[51.4,6284],[51.2,6369],[51.2,6450],[51.2,6534],[50.6,6626],[50.6,6717],[50.6,6800],[50.6,6884],[50.6,6967],[50.6,7071],[50,7175],[49.5,7258],[49.5,7337],[49.5,7417],[49.5,7500],[49.5,7585],[49.5,7667],[49.5,7753],[49.5,7834],[49.5,7918],[49.5,8003],[49.3,8084],[49.3,8170],[49,8250],[47.5,8334],[47.5,8417],[47.5,8500],[47.5,8586],[47.5,8667],[47.3,8750],[47.1,8837],[47.1,8917],[47.1,9002],[47.1,9084],[47.1,9169],[47.1,9251],[47.1,9334],[47.1,9417],[47.1,9503],[47.1,9587],[47.1,9673],[47.1,9750],[47.1,9837],[47.1,9917],[65.6,10084],[65.6,10170],[65.6,10252],[65.6,10336],[65.1,10417],[53.1,10506],[51.7,10584],[51.7,10670],[51.1,10751],[51.1,10835],[50.7,10917],[50.7,11003],[50.4,11084],[50.4,11170],[50.4,11251],[50.4,11336],[50.1,11417],[50.1,11501],[50.1,11584],[49.9,11671],[49.9,11752],[49.9,11835],[49.9,11917],[49.9,12005],[49.9,12084],[49.9,12170],[49.9,12251],[49.9,12336],[49.9,12418],[49.9,12501],[49.9,12584]]",1,0,1321.4403,1328.5759,48.93511533,1.7722,"[{""rating"":48.9351153308126,""responseTime"":1.7722000000010212}]",space,6.5921,,1328.576,Partially,50,1328.6006,,,[],,,,0,13,13,13,1,audio/Narrative8Situation4.wav,audio/Narrative7Situation4.wav,audio/Narrative6Situation4.wav,audio/Narrative5Situation4.wav,3,3,2,1,,,,,,,,,,,,,,,,,,,,,,,,,,,,,,,,,,,,,
,,,,,,63619eb02e5bd8f4f7bd138a,2024-02-08_13h02.57.720,group3.1-3.2-social-tom,2023.2.2,Linux x86_64,59.88023952,65c5074098b851296ff0b7ed,65c5415ee423d37d2cdd6aa7,,,,,,,,,,,,,,,,,,,,,,,,,,,,,1328.6014,2,audio/Narrative6Situation5.wav,1330.6064,,1330.6065,1338.5817,"[[999,0],[999,82],[999,167],[999,249],[999,332],[999,416],[999,500],[999,582],[999,666],[999,749],[999,835],[999,916],[999,999],[999,1083],[999,1166],[999,1249],[999,1333],[999,1416],[999,1500],[999,1583],[999,1666],[999,1749],[999,1833],[999,1917],[999,2004],[999,2083],[999,2166],[999,2249],[999,2333],[999,2416],[999,2499],[999,2583],[999,2666],[999,2750],[999,2833],[999,2916],[999,3000],[999,3083],[999,3166],[999,3249],[999,3351],[999,3433],[999,3516],[999,3599],[999,3684],[999,3767],[999,3850],[59,3953],[56.4,4039],[55.6,4129],[52.1,4206],[51,4293],[51,4376],[51,4459],[50.6,4540],[50.6,4953],[50.5,5037],[50.5,5118],[49.9,5211],[49.9,5296],[49.9,5372],[49.9,5455],[49.9,5535],[49.9,5617],[49.9,5701],[49.9,5784],[49.9,5867],[50.1,5955],[50.1,6037],[50.1,6121],[50.1,6200],[50.1,6287],[50.1,6367],[50.8,6455],[55.4,6538],[55.4,6621],[55.4,6701],[55.4,6787],[55.4,6871],[55.4,6955],[52.3,7039],[50.6,7130],[49.4,7205],[49.3,7291],[49.3,7379],[49.3,7466],[49.3,7550],[49.1,7633],[49.1,7717],[49.6,7800],[50.3,7883]]",1,0,1338.5819,1346.925,50.02083429,4.5773,"[{""rating"":50.02083428861568,""responseTime"":4.577300000000832}]",space,7.78,,1346.9252,Not at all,0,1346.9327,,,[],,,,0,14,14,14,1,audio/Narrative8Situation5.wav,audio/Narrative7Situation5.wav,audio/Narrative6Situation5.wav,audio/Narrative5Situation5.wav,2,5,2,5,,,,,,,,,,,,,,,,,,,,,,,,,,,,,,,,,,,,,
,,,,,,63619eb02e5bd8f4f7bd138a,2024-02-08_13h02.57.720,group3.1-3.2-social-tom,2023.2.2,Linux x86_64,59.88023952,65c5074098b851296ff0b7ed,65c5415ee423d37d2cdd6aa7,,,,,,,,,,,,,,,,,,,,,,,,,,,,,1346.9333,2,audio/Narrative6Situation6.wav,1348.9413,,1348.9414,1360.0541,"[[50.7,1953],[50.7,2038],[54.8,2120],[56.9,3622],[53.1,3708],[51.1,3798],[50.9,3879],[50.9,3970],[50.9,4055],[50.9,4135],[50.9,4221],[50.9,4300],[50.9,4390],[50.9,4478],[51.2,4566],[51.2,4655],[51.2,4745],[51.2,4825],[51.2,4909],[51.2,4995],[51.2,5078],[50.3,5164],[50.3,5251],[50.3,5338],[50.3,5418],[50.3,5502],[50.3,5598],[50.3,5679],[50.3,5759]]",1,0,1360.0543,1368.513,50.00416389,4.0467,"[{""rating"":50.00416388581612,""responseTime"":4.046699999999191}]",space,7.9223,,1368.5131,Not at all,0,1368.5328,,,[],,,,0,15,15,15,1,audio/Narrative8Situation6.wav,audio/Narrative7Situation6.wav,audio/Narrative6Situation6.wav,audio/Narrative5Situation6.wav,2,3,2,3,,,,,,,,,,,,,,,,,,,,,,,,,,,,,,,,,,,,,
,,,,,,63619eb02e5bd8f4f7bd138a,2024-02-08_13h02.57.720,group3.1-3.2-social-tom,2023.2.2,Linux x86_64,59.88023952,65c5074098b851296ff0b7ed,65c5415ee423d37d2cdd6aa7,,,,,,,,,,,,,,,,,,,,,,,,,,,,,1368.5339,2,audio/Narrative6Situation7.wav,1373.5442,,1373.5442,1398.4134,"[[999,15],[999,113],[999,193],[999,275],[999,364],[999,444],[999,527],[999,609],[999,702],[999,783],[999,878],[999,953],[999,1040],[999,1123],[999,1199],[999,1283],[999,1366],[999,1450],[999,1533],[999,1619],[999,1700],[999,1786],[999,1869],[999,1953],[999,2039],[999,2146],[999,2249],[999,2333],[999,2417],[999,2499],[999,2586],[999,2670],[999,2750],[999,2836],[999,2916],[999,3000],[999,3083],[999,3171],[999,3250],[999,3334],[999,3417],[999,3499],[999,3584],[999,3667],[999,3750],[999,3833],[999,3916],[999,4001],[999,4083],[999,4166],[999,4250],[999,4338],[999,4416],[999,4503],[999,4583],[999,4677],[999,4758],[999,4844],[999,4928],[999,5016],[999,5100],[999,5188],[999,5268],[999,5355],[999,5433],[999,5516],[999,5600],[999,5686],[999,5767],[999,5850],[999,5933],[999,6017],[999,6106],[999,6195],[999,6277],[999,6367],[999,6454],[999,6541],[999,6627],[999,6705],[999,6790],[999,6871],[999,6956],[999,7043],[999,7121],[999,7203],[999,7284],[999,7368],[999,7450],[999,7533],[999,7617],[999,7701],[999,7784],[999,7869],[999,7950],[999,8040],[999,8126],[84.8,8209],[100,8571],[100,8660],[100,8740],[100,8821],[100,8900],[100,8988],[100,9073],[100,9152],[100,9236],[100,9317],[100,9400],[100,9484],[100,9569],[100,9650],[100,9735],[100,9817],[100,9900],[100,9990],[100,10072],[100,10156],[100,10235],[100,10322],[100,10402],[100,10487],[100,10567],[100,10653],[100,10734],[100,10817],[100,10900],[100,10986],[100,11067],[100,11153],[100,11234],[100,11321],[100,11400],[100,11485],[100,11567],[100,11655],[100,11734],[100,11819],[100,11901],[100,11987],[100,12067],[100,12158],[100,12234],[100,12320],[100,12406],[100,12487],[100,12569],[100,12656],[100,12734],[100,12817],[100,12901],[100,12986],[100,13068],[100,13153],[100,13234],[100,13321],[100,13401],[100,13530],[100,13612],[100,13701],[100,13784],[100,13869],[100,13951],[100,14034],[100,14117],[100,14201],[100,14286],[100,14368],[100,14459],[100,14534],[100,14621],[100,14701],[100,14792],[100,14870],[100,14951],[100,15038],[100,15118],[100,15201],[100,15285],[100,15373],[100,15451],[100,15534],[100,15617],[100,15702],[100,15784],[100,15873],[100,15951],[100,16034],[100,16118],[100,16203],[100,16284],[100,16367],[100,16451],[100,16535],[100,16617],[100,16701],[100,16784],[100,16869],[100,16951],[100,17042],[100,17118],[100,17201],[100,17284],[100,17367],[100,17451],[100,17534],[100,17618],[100,17702],[100,17784],[100,17868],[100,17951],[100,18043],[100,18118],[100,18201],[100,18285],[100,18368],[100,18451],[100,18539],[100,18618],[100,18705],[100,18785],[100,18869],[100,18952],[100,19039],[100,19118],[100,19202],[100,19286],[100,19373],[100,19451],[100,19539],[100,19618],[100,19704],[100,19785],[100,19868],[100,19952],[100,20038],[100,20118],[100,20205],[100,20285],[100,20371],[100,20451],[100,20537],[100,20624],[100,20704],[100,20787],[100,20868],[100,20952],[100,21035],[100,21120],[100,21202],[100,21286],[100,21368],[100,21454],[100,21535],[100,21620],[100,21702],[100,21787],[100,21868],[100,21953],[100,22036],[100,22119],[100,22202],[100,22288],[100,22368],[100,22454],[100,22535],[100,22618],[100,22702],[100,22788],[100,22869],[100,22955],[100,23035],[100,23121],[100,23202],[100,23287],[100,23368],[100,23454],[100,23535],[100,23619],[100,23702],[100,23787],[100,23869],[100,23952],[100,24036],[100,24120],[100,24203],[100,24285],[100,24369],[100,24454],[100,24535],[100,24620],[100,24702],[100,24787],[100,24868]]",1,0,1398.4136,1409.2695,100,3.0126,"[{""rating"":100,""responseTime"":3.012600000001612}]",space,10.3098,,1409.2696,Partially,50,1409.2888,,,[],,,,0,16,16,16,1,audio/Narrative8Situation7.wav,audio/Narrative7Situation7.wav,audio/Narrative6Situation7.wav,audio/Narrative5Situation7.wav,3,5,5,4,,,,,,,,,,,,,,,,,,,,,,,,,,,,,,,,,,,,,
,,,,,,63619eb02e5bd8f4f7bd138a,2024-02-08_13h02.57.720,group3.1-3.2-social-tom,2023.2.2,Linux x86_64,59.88023952,65c5074098b851296ff0b7ed,65c5415ee423d37d2cdd6aa7,,,,,,,,,,,,,,,,,,,,,,,,,,,,,1409.2894,2,audio/Narrative6Situation8.wav,1414.298,,1414.2982,1421.149,"[[100,167],[50.8,1603],[50.8,1685],[50.6,1767],[50.1,1850]]",1,0,1421.1491,1425.7491,0,2.0936,"[{""rating"":0,""responseTime"":2.0935999999996966}]",space,4.0527,,1425.7493,Definitely yes,100,1425.7546,,,[],,,,0,17,17,17,1,audio/Narrative8Situation8.wav,audio/Narrative7Situation8.wav,audio/Narrative6Situation8.wav,audio/Narrative5Situation8.wav,3,2,5,3,,,,,,,,,,,,,,,,,,,,,,,,,,,,,,,,,,,,,
,,,,,,63619eb02e5bd8f4f7bd138a,2024-02-08_13h02.57.720,group3.1-3.2-social-tom,2023.2.2,Linux x86_64,59.88023952,65c5074098b851296ff0b7ed,65c5415ee423d37d2cdd6aa7,,,,,,,,,,,,,,,,,,,,,,,,,,,,,1425.7553,2,audio/Narrative6Situation9.wav,1429.7665,,1429.7665,1439.7014,"[[999,11],[999,94],[999,170],[999,251],[999,333],[999,418],[999,500],[999,592],[999,670],[999,758],[999,891],[999,1019],[999,1116],[999,1200],[999,1283],[999,1366],[999,1450],[999,1533],[999,1616],[999,1700],[999,1783],[999,1866],[999,1949],[999,2033],[999,2116],[999,2200],[999,2283],[999,2366],[999,2450],[999,2533],[999,2616],[999,2700],[999,2783],[999,2866],[999,2950],[999,3034],[999,3120],[999,3200],[999,3284],[999,3372],[999,3450],[999,3535],[999,3628],[999,3711],[999,3784],[999,3866],[999,3950],[999,4033],[999,4116],[999,4200],[999,4283],[999,4366],[999,4450],[999,4533],[999,4617],[999,4700],[999,4783],[999,4866],[999,4950],[999,5033],[999,5117],[999,5200],[999,5283],[999,5366],[999,5450],[999,5533],[999,5617],[999,5700],[999,5783],[999,5866],[999,5950],[999,6034],[999,6119],[999,6204],[999,6294],[999,6367],[999,6450],[999,6535],[999,6625],[999,6705],[5.7,6794]]",1,0,1439.7015,1445.0346,0,2.5852,"[{""rating"":0,""responseTime"":2.585200000001123}]",space,4.798,,1445.0348,Definitely yes,100,1445.0547,,,[],,,,0,18,18,18,1,audio/Narrative8Situation9.wav,audio/Narrative7Situation9.wav,audio/Narrative6Situation9.wav,audio/Narrative5Situation9.wav,3,2,4,3,,,,,,,,,,,,,,,,,,,,,,,,,,,,,,,,,,,,,
,,,,,,63619eb02e5bd8f4f7bd138a,2024-02-08_13h02.57.720,group3.1-3.2-social-tom,2023.2.2,Linux x86_64,59.88023952,65c5074098b851296ff0b7ed,65c5415ee423d37d2cdd6aa7,,,,,,,,,,,,,,,,,,,,,,,,,,,,,,,,,,,,,,,,,,,,,,,,,,,,,,,,,,,,,,,,,,,,,,,,1445.055,1450.5523,space,4.9685,,1450.5534,1468.2547,space,17.3686,,,,,,,,,,,,,,,,,,,,,,,,,,
,,,,,,63619eb02e5bd8f4f7bd138a,2024-02-08_13h02.57.720,group3.1-3.2-social-tom,2023.2.2,Linux x86_64,59.88023952,65c5074098b851296ff0b7ed,65c5415ee423d37d2cdd6aa7,,,,,,,,,,,,,,,,,,,,,,,,,,,,,1470.8656,1,audio/Narrative8Situation9.wav,1472.8731,,,,,,,1504.7667,1525.1772,50.85420699,4.0318,"[{""rating"":50.854206989889775,""responseTime"":4.031800000000885}]",space,19.8671,,1504.7585,Partially,50,1504.7666,,,[],,,,,,,,,,,,,2,2,2,2,,,,,,,,,,,,,1468.2797,1470.8378,1472.8736,3,1504.7584,"[[999,1],[999,106],[999,185],[999,271],[999,350],[999,436],[999,539],[999,631],[999,714],[999,797],[999,880],[999,967],[999,1057],[999,1142],[999,1230],[999,1319],[999,1405],[999,1487],[999,1577],[999,1661],[999,1748],[999,1834],[999,1914],[999,2003],[999,2092],[999,2188],[999,2281],[999,2364],[999,2458],[999,2547],[999,2622],[999,2707],[999,2798],[999,2876],[999,2981],[999,3064],[12.6,3160],[10.6,3249],[6.6,3336],[3.8,3422],[6.7,22340],[31.4,22433],[33.4,22524],[39.9,22609],[41.3,22693],[44.9,22773],[48.6,22856],[48.9,22940],[50.2,23028],[49.9,23113],[49.6,23199],[49.4,23292],[48.6,23417],[48.6,23502],[48.6,23583],[48.6,23666],[48.4,23750],[48.4,23833],[48.4,23916],[48.4,23999],[48.4,24084],[48.4,24166],[48.4,24250],[48.4,24333],[48.3,24416],[47.7,24499],[47.7,24583],[47.6,24666],[47.4,24749],[47.6,24833],[54.6,24928],[56.2,25005],[55.9,25087],[53.2,25174],[51.9,25260],[51.2,25340],[50.9,25450],[50.6,25533],[50.6,25616],[50.6,25706],[50.6,25784],[50.6,25867],[50.6,25950],[50.6,26039],[50.6,26116],[50.6,26200],[50.6,26283],[50.6,26366],[50.6,26449],[50.6,26534],[50.6,26616],[50.6,26700],[50.6,26787],[50.6,26866],[50.6,26949],[50.6,27033],[50.6,27116],[50.6,27200],[50.6,27283],[50.6,27370],[50.6,27450],[50.6,27533],[50.6,27617],[50.6,27700],[50.6,27783],[50.6,27867],[50.6,27950],[50.6,28033],[50.6,28116],[50.6,28200],[50.6,28283],[50.6,28369],[50.6,28450],[44.7,28542],[37.5,28634],[37.5,28717],[37.4,28800],[36.5,28884],[36.5,28966],[54.2,29051],[54.2,29135],[54.2,29217],[53.1,29300],[51.9,29386],[51.7,29473],[51.3,29550],[51,29638],[51,29724],[51,29803],[51,29884],[51,29967],[51,30051],[51,30134],[51,30216],[51,30300],[51,30385],[51,30467],[51,30550],[51,30633],[51,30717],[51,30800],[51,30884],[51,30968],[51,31050],[51,31147],[51,31217],[51,31302],[51,31384],[51,31467],[51,31550],[51,31634],[51,31718],[51,31800],[51,31883]]",0,0,0,0,1,"Larry had recently lost his family, job and home, and was now living on his own in the park. He had most of his belongings, including some clothes, a blanket, and his mother’s special necklace. His family had been very important to him and he felt as though he did not have much going for him. One of his first days in the park he came across a family that did not have much food and looked very cold. He decided to give them some of his food and his blanket.","Larry had recently lost his family, job and home, and was now living on his own in the park. He had most of his belongings, including some clothes, a blanket, and his mother’s special necklace. His family had been very important to him and he felt as though he did not have much going for him. One of his first days in the park he came across a family that did not have much food and looked very cold. He decided to give them some of his food and his blanket.","Larry had recently lost his family, job and home, and was now living on his own in the park. He had most of his belongings, including some clothes, a blanket, and his mother’s special necklace. His family had been very important to him and he felt as though he did not have much going for him. One of his first days in the park he came across a family that did not have much food and looked very cold. He decided to give them some of his food and his blanket.","Larry had recently lost his family, job and home, and was now living on his own in the park. He had most of his belongings, including some clothes, a blanket, and his mother’s special necklace. His family had been very important to him and he felt as though he did not have much going for him. One of his first days in the park he came across a family that did not have much food and looked very cold. He decided to give them some of his food and his blanket.",,,,,,,,,,
,,,,,,63619eb02e5bd8f4f7bd138a,2024-02-08_13h02.57.720,group3.1-3.2-social-tom,2023.2.2,Linux x86_64,59.88023952,65c5074098b851296ff0b7ed,65c5415ee423d37d2cdd6aa7,,,,,,,,,,,,,,,,,,,,,,,,,,,,,1525.1794,1,audio/Narrative8Situation9.wav,1527.2275,space,,,,,,1560.7938,1566.0972,0,2.8798,"[{""rating"":0,""responseTime"":2.8797999999990225}]",space,4.7673,,1560.7804,Partially,50,1560.7938,,,[],,,,,,,,,,,,,6,2,3,9,2.0309,,,,,,,,,,,,,,1527.2277,3,1560.7803,"[[999,1],[999,98],[999,182],[999,265],[999,348],[999,432],[999,515],[999,598],[999,685],[999,769],[999,849],[999,932],[999,1015],[999,1099],[999,1183],[999,1265],[999,1348],[999,1432],[999,1516],[999,1599],[999,1682],[999,1765],[999,1849],[999,1932],[999,2015],[999,2099],[46.9,2182],[46.9,2265],[38.5,2354],[11.1,2441],[44.3,12693],[43.6,12773],[43,12854],[42.9,12935],[48.5,13019],[52.1,13100],[51.4,13183],[51.3,13267],[50.8,13354],[50.7,13434],[50.7,13517],[50.7,13600],[50.7,13684],[50.7,13767],[50.7,13850],[50.7,13933],[50.7,14017],[50.7,14100],[50.7,14186],[50.7,14267],[50.7,14350],[50.7,14434],[50.7,14517],[50.7,14600],[50.7,14685],[50.7,14767],[50.7,14851],[50.7,14933],[50.7,15018],[50.7,15100],[50.7,15183],[50.7,15267],[50.7,15350],[50.7,15433],[50.7,15518],[50.7,15600],[50.7,15686],[50.7,15768],[50.7,15850],[50.7,15934],[39.9,16019],[48.4,25486],[48.3,25553],[48.3,25634],[48.3,25719],[48.3,25801],[48.3,25884],[48.3,25967],[47.8,26051],[21.9,26135]]",0,1,1,1,1,"It was just another Sunday afternoon for Lucy, she was on her way to the farmer's market to pick up some produce. When she arrived at the old train depot that housed the market, she noticed two men fighting on the steps. Before she could call for help, one of the men crumpled to his knees. The other man dropped an object that appeared to be a knife and ran off. When Lucy approached the crime scene she realized that the man who had been murdered was the Mayor and that he had a gunshot wound.","One day at work, Margaret walked up to her partner, Al, to ask him to talk to the chief of staff at the local hospital where she worked as a nurse.","Luke always thought of himself as an honest man. That's why during his evening jog around the swamp, he pondered his recent affair with the receptionist at work. Luke looked up at the sky and asked God why he was so weak and unfaithful. He thought of the impact this would have on his family and told God of his conflicted feelings toward telling his wife Marta.","Linda and Amy had been best friends since kindergarten, they even found homes on the same street in the forest on the edge of town. Their biggest fight had been over who gets the bigger slice of cake, until Amy married Dan. Linda loathed Dan, she thought he was manipulative and had a violent temper. She only put up with him because Amy loved him. ",,,,,,,,,,
,,,,,,63619eb02e5bd8f4f7bd138a,2024-02-08_13h02.57.720,group3.1-3.2-social-tom,2023.2.2,Linux x86_64,59.88023952,65c5074098b851296ff0b7ed,65c5415ee423d37d2cdd6aa7,,,,,,,,,,,,,,,,,,,,,,,,,,,,,1566.0977,1,audio/Narrative8Situation9.wav,1570.0978,,,,,,,1588.6564,1594.1181,50.19147984,2.7624,"[{""rating"":50.191479844631715,""responseTime"":2.762399999998479}]",space,4.9199,,1588.6504,Partially,50,1588.6564,,,[],,,,,,,,,,,,,4,5,2,2,,,,,,,,,,,,,,,1570.0979,3,1588.6504,"[[999,11],[999,86],[999,166],[999,249],[999,333],[999,416],[999,499],[999,583],[999,666],[999,750],[999,833],[999,916],[999,999],[999,1083],[999,1166],[999,1249],[999,1333],[999,1416],[999,1499],[999,1583],[999,1666],[999,1750],[999,1833],[9.1,1917],[8.2,2000],[1.6,2086],[0.8,2173],[9.7,15018],[51.3,15270],[55.1,15354],[53.6,15434],[52.1,15532],[51.6,15619],[50.1,15701],[49.4,15784],[49.4,15868],[49.4,15951],[49.4,16035],[49.4,16118],[49.4,16201],[49.4,16284],[49.6,16381],[49.6,16468],[49.8,16554],[49.8,16638],[49.8,16718],[49.8,16814],[49.8,16896],[49.8,16975],[49.8,17052],[49.8,17136],[49.8,17218],[49.8,17301],[49.8,17386],[49.8,17468],[49.8,17551],[49.8,17635],[49.8,17720],[49.8,17801],[49.8,17886],[49.8,17985],[49.8,18068],[49.8,18152],[49.8,18234],[49.8,18318],[49.8,18402],[49.8,18485]]",0,2,2,2,1,On the ground beside him was a pen that she had mistaken for a knife. Lucy looked for the gunman and saw a suspicious man in black with distinct pointy features darting into an alley across the street. Cops who were nearby chased the man who had fled and arrested him.,"While waiting outside the chief of staff's office, Al heard nondescript shouting and yelling, there was a loud clatter in the room and then an eerie silence. An unfamiliar employee ran hastily out of the office with a terrified look on their face.","Suddenly, Luke heard a woman call out his name and when he turned around he saw Carly, his receptionist, across the road with a gun in her hand. Carly ran to him and explained how she had followed him here to confess her love. She exclaimed if Luke didn't love her back that she would kill him and his family. Carly explained that the only way they could be together is to kill Marta.","This feeling of hate between Amy and Dan was mutual, Dan didn't like how much time his wife spent with her and thought Amy was creating distance between their marriage. That's why Dan decided to try and tarnish Linda's reputation with his wife, in hopes it would get rid of her. He came home one afternoon and exclaimed that Linda had tried to kiss him. Amy was taken aback and immediately called Linda to confront her about these accusations. When Linda arrived she denied having made a move on Dan, but discovered Dan had enlisted the help of his friend Will who said he witnessed it all happen.",,,,,,,,,,
,,,,,,63619eb02e5bd8f4f7bd138a,2024-02-08_13h02.57.720,group3.1-3.2-social-tom,2023.2.2,Linux x86_64,59.88023952,65c5074098b851296ff0b7ed,65c5415ee423d37d2cdd6aa7,,,,,,,,,,,,,,,,,,,,,,,,,,,,,1594.1188,1,audio/Narrative8Situation9.wav,1596.1373,,,,,,,1608.0374,1611.3354,0,1.4619,"[{""rating"":0,""responseTime"":1.461900000000469}]",space,2.7656,,1608.0197,Not at all,0,1608.0372,,,[],,,,,,,,,,,,,2,2,1,4,,,,,,,,,,,,,,,1596.1373,3,1608.0197,"[[8,2080],[1.8,2169],[1.8,2247]]",0,3,3,3,1,"But Lucy knew the charged man was innocent, which meant the killer was free. Lucy vowed to find out who the real murderer was and to stop him at all costs.","Al explained to the chief of staff that Margaret wanted to be excused from her absences last week. The chief of staff, Susan, revealed that she wanted to fire Margaret and never see her again. Susan and Al had been having an affair and she wanted Margaret ""out of the picture"". Al was conflicted, but agreed it would be for the best.","Luke thought of his child and felt like this was his only option. He agreed to the plan and called his wife to meet him at the swamp to watch the sunset with him. When she arrived, Marta called out for her husband, but found Carly waiting for her. She immediately drew her gun and shot her in the chest, knocking her unconscious.","Since it was their word against her own, she decided to go home and admit defeat. She knew how much it would hurt Amy to know the truth.",,,,,,,,,,
,,,,,,63619eb02e5bd8f4f7bd138a,2024-02-08_13h02.57.720,group3.1-3.2-social-tom,2023.2.2,Linux x86_64,59.88023952,65c5074098b851296ff0b7ed,65c5415ee423d37d2cdd6aa7,,,,,,,,,,,,,,,,,,,,,,,,,,,,,1611.3359,1,audio/Narrative8Situation9.wav,1612.3622,,,,,,,1641.9037,1650.5564,0,2.1132,"[{""rating"":0,""responseTime"":2.113200000001143}]",space,8.1191,,1641.889,Not at all,0,1641.9036,,,[],,,,,,,,,,,,,1,1,3,3,,,,,,,,,,,,,,,1612.3622,3,1641.8889,"[[999,0],[999,175],[999,298],[999,429],[999,556],[999,642],[999,743],[999,824],[999,907],[999,990],[999,1076],[999,1206],[999,1311],[999,1466],[999,1587],[8.1,1717],[5.5,1819]]",0,4,4,4,1,"The next day the mayors successor, Mr. Smith, a man who was very unpopular due to his strong ties to the oil companies, took office. After a long day of brainstorming about the mysterious killer, Lucy decided to attend his welcome ceremony in the city. During the mayor's speech, she noticed one of the security guards looked strangely familiar. It dawned on her that this new mayor had motive to kill and that the man in black could've been the guard working for him.","Weeks passed and nobody had seen Margaret. Coworkers and friends searched the nearby city looking for her. One day on patrol in a nearby town, a police officer heard someone crying for help in the basement of a house and went in to investigate. Margaret yelled that she was being held captive and needed help.","Luke ran to Marta, and filled with regret over his decision to go along with Carly's plan, picked her up and rushed her to the hospital. The doctors tried to help Marta by taking her into emergency surgery but failed to save her life. Once the doctor called the time of death, Luke fell to his knees and sobbed over his rash decision.","Months later Dan had taken up a mistress, he was growing bored with his marriage ever since he got rid of Linda and was only still with Amy for her family's money. In a hotel room in a nearby town, Dan and his mistress, Nicole, conspired to secretly kill Amy while still obtaining her fortune.",,,,,,,,,,
,,,,,,63619eb02e5bd8f4f7bd138a,2024-02-08_13h02.57.720,group3.1-3.2-social-tom,2023.2.2,Linux x86_64,59.88023952,65c5074098b851296ff0b7ed,65c5415ee423d37d2cdd6aa7,,,,,,,,,,,,,,,,,,,,,,,,,,,,,1650.5746,1,audio/Narrative8Situation9.wav,1653.59,,,,,,,1670.121,1684.0431,49.78062715,12.8516,"[{""rating"":50.24538343481616,""responseTime"":3.449799999998959},{""rating"":26.314169986185142,""responseTime"":10.000599999999622},{""rating"":49.78062715204983,""responseTime"":12.851599999999735}]",space,13.3896,,1670.1089,Definitely yes,100,1670.121,,,[],,,,,,,,,,,,,3,1,3,3,,,,,,,,,,,,,,,1653.59,3,1670.1088,"[[999,1],[999,83],[999,166],[999,250],[999,333],[999,417],[999,500],[999,583],[999,666],[999,754],[999,838],[999,916],[999,1000],[999,1084],[999,1166],[999,1250],[999,1333],[999,1417],[999,1501],[999,1587],[47.2,1667],[46.6,1750],[47.8,1833],[49.8,1916],[49.9,2000],[49.9,2083],[49.9,2166],[49.9,2250],[49.9,2333],[49.9,2416],[49.9,2499],[49.9,2591],[49.9,2666],[49.9,2749],[49.9,2833],[49.9,2941],[49.9,3057],[49.9,3150],[49.9,3233],[49.9,3320],[49.9,3407],[49.9,3490],[49.9,3567],[49.9,3650],[49.9,3733],[49.9,3822],[49.9,3900],[49.9,3986],[49.9,4066],[49.9,4152],[49.9,4242],[49.9,4324],[49.9,4421],[49.9,4500],[49.9,4584],[49.9,4669],[49.9,4750],[49.9,4833],[49.9,4916],[49.9,5000],[49.9,5083],[49.9,5167],[49.9,5250],[49.9,5336],[49.9,5416],[49.9,5500],[49.9,5583],[49.9,5666],[49.9,5750],[49.9,5833],[49.9,5917],[49.9,6000],[49.9,6083],[49.9,6168],[49.9,6250],[49.9,6333],[49.9,6416],[49.9,6500],[49.9,6583],[49.9,6666],[49.9,6750],[49.9,6833],[49.9,6917],[49.9,7000],[49.9,7083],[49.9,7167],[49.9,7250],[49.9,7333],[49.9,7417],[49.9,7500],[49.9,7584],[49.9,7666],[49.9,7750],[49.9,7833],[49.9,7917],[49.9,8000],[49.9,8083],[49.9,8170],[49.9,8250],[49.9,8334],[49.9,8417],[49.9,8500],[49.9,8584],[49.9,8667],[49.9,8750],[49.9,8833],[49.9,8917],[50.1,9001],[50.1,9086],[50.1,9167],[50.1,9250],[50.1,9334],[50.1,9417],[50.1,9500],[50.1,9583],[50.1,9667],[50.1,9750],[50.1,9834],[50.1,9917],[50.1,10000],[50.1,10084],[50.1,10167],[50.1,10250],[50.1,10334],[50.1,10417],[50.1,10500],[50.1,10584],[50.1,10667],[50.1,10751],[50.1,10834],[50.1,10917],[50.1,11001],[50.1,11084],[50.1,11167],[50.1,11250],[50.3,11334],[50.3,11417],[50.3,11500],[50.3,11584],[50.3,11667],[24.7,11751],[45.1,14168],[59.9,14251],[57.1,14334],[56.1,14422],[54.1,14504],[51.7,14590],[51.5,14668],[50.6,14758],[50.3,14835],[50.1,14919],[50.1,15001],[50.1,15086],[50.1,15168],[50.1,15251],[50.1,15334],[50.1,15420],[49.9,15501],[49.9,15584],[49.9,15670],[49.9,15751],[49.9,15835],[49.9,15917],[49.9,16001],[49.9,16084],[49.9,16170],[49.9,16251],[49.9,16334],[49.9,16419],[49.9,16501]]",0,5,5,5,1,"Lucy decided to confront the mayor after his ceremony. But when she tried to accuse him, the security guards threatened to hurt her if she went to the police with her theory. Before she could say another word a man pulled her from the crowd.","In a rush, the police officer broke down the door and was attacked by a man in the house. Without hesitation, the officer shot the man and the man fell to the floor.","He then saw Marta's brother Zach enter the hospital. Zach ran over to Luke and punched him. Zach screamed at Luke that it's his fault his sister is dead and that he knew about the affair. Luke quickly tried to explain that he felt horrible about Marta's death and that Carly had manipulated him into going along with her plan. Zach, still angry at his brother-in-law, realized his mistake in judgement and shifted his anger toward Carly.","They decided to have Dan invite her to the hotel room under the guise of a romantic date. Once she arrived, Nicole was there to tie her up. Once she was secured to a chair, Nicole demanded Amy's bank passwords. Amy obliged and gave her access to her bank accounts.",,,,,,,,,,
