exp_question,consent.started,consent.stopped,consentResponse.keys,consentResponse.rt,consentResponse.duration,participantID,date,expName,psychopyVersion,OS,frameRate,STUDY_ID,SESSION_ID,opening1.started,opening1.stopped,keyEndingOpening1.keys,keyEndingOpening1.rt,keyEndingOpening1.duration,volumeAdjust.started,volumeAdjust.stopped,endingAdjust.keys,endingAdjust.rt,endingAdjust.duration,opening2.started,opening2.stopped,keyEndingOpening.keys,keyEndingOpening.rt,keyEndingOpening.duration,mouse.x,mouse.y,mouse.leftButton,mouse.midButton,mouse.rightButton,mouse.time,instructionLoop.thisRepN,instructionLoop.thisTrialN,instructionLoop.thisN,instructionLoop.thisIndex,instructionLoop.ran,readyForAudio.started,readyForAudio.stopped,fixation.started,fixation.stopped,endPractice.keys,audioPre.started,audioPre.stopped,continuousResponses_audio,continuousSlider.response,continuousSlider.rt,intRating.started,intRating.stopped,intQuestionSlider.response,intQuestionSlider.rt,intQuestionSlider.history,confirmResponse.keys,confirmResponse.rt,confirmResponse.duration,catchQuestion.started,catch_label,catch_value,catchQuestion.stopped,catchQuestionSlider.response,catchQuestionSlider.rt,catchQuestionSlider.history,confirmResponse_2.keys,audioRunLoop.thisRepN,audioRunLoop.thisTrialN,audioRunLoop.thisN,audioRunLoop.thisIndex,audioRunLoop.ran,conditions1_1,conditions2_1,conditions1_2,conditions2_2,dur1_1,dur2_1,dur1_2,dur2_2,endPractice.rt,endPractice.duration,confirmResponse_2.rt,confirmResponse_2.duration,runIntervalBreak.started,runIntervalBreak.stopped,endingBreakKey.keys,endingBreakKey.rt,endingBreakKey.duration,connection.started,connection.stopped,connectionEnding.keys,connectionEnding.rt,connectionEnding.duration,readyForText.started,readyForText.stopped,textPre.started,textPre.stopped,continuousResponses_text,textRunLoop.thisRepN,textRunLoop.thisTrialN,textRunLoop.thisN,textRunLoop.thisIndex,textRunLoop.ran,text1_1,text1_2,text2_1,text2_2,runBreakText.started,runBreakText.stopped,endingBreakKey_2.keys,endingBreakKey_2.rt,endingBreakKey_2.duration,ending.started,ending.stopped,endingEnding.keys,endingEnding.rt,endingEnding.duration
tom,0.0002,3468.0406,y,3467.726,,63d193c45e01ccb694993e7f,2024-02-06_10h34.10.960,group3.1-3.2-social-tom,2023.2.2,Win32,144.9275362,65b1b24e3a500fd6b5dc9abd,65c25154f3c18923f31af34b,,,,,,,,,,,,,,,,,,,,,,,,,,,,,,,,,,,,,,,,,,,,,,,,,,,,,,,,,,,,,,,,,,,,,,,,,,,,,,,,,,,,,,,,,,,,,,,,,,,,,,,
,,,,,,63d193c45e01ccb694993e7f,2024-02-06_10h34.10.960,group3.1-3.2-social-tom,2023.2.2,Win32,144.9275362,65b1b24e3a500fd6b5dc9abd,65c25154f3c18923f31af34b,3468.0445,3472.1264,space,4.0707,,,,,,,,,,,,,,,,,,,,,,,,,,,,,,,,,,,,,,,,,,,,,,,,,,,,,,,,,,,,,,,,,,,,,,,,,,,,,,,,,,,,,,,,,,,,,,,,,,,
,,,,,,63d193c45e01ccb694993e7f,2024-02-06_10h34.10.960,group3.1-3.2-social-tom,2023.2.2,Win32,144.9275362,65b1b24e3a500fd6b5dc9abd,65c25154f3c18923f31af34b,,,,,,3472.1264,3514.6609,space,42.2221,,,,,,,,,,,,,,,,,,,,,,,,,,,,,,,,,,,,,,,,,,,,,,,,,,,,,,,,,,,,,,,,,,,,,,,,,,,,,,,,,,,,,,,,,,,,,,
,,,,,,63d193c45e01ccb694993e7f,2024-02-06_10h34.10.960,group3.1-3.2-social-tom,2023.2.2,Win32,144.9275362,65b1b24e3a500fd6b5dc9abd,65c25154f3c18923f31af34b,,,,,,,,,,,3514.6636,3525.1747,space,10.496,,[],[],[],[],[],[],0,0,0,0,1,,,,,,,,,,,,,,,,,,,,,,,,,,,,,,,,,,,,,,,,,,,,,,,,,,,,,,,,,,,,,,,,,,,,,,,,,,,,,
,,,,,,63d193c45e01ccb694993e7f,2024-02-06_10h34.10.960,group3.1-3.2-social-tom,2023.2.2,Win32,144.9275362,65b1b24e3a500fd6b5dc9abd,65c25154f3c18923f31af34b,,,,,,,,,,,3525.1797,3532.4452,space,7.2155,,[],[],[],[],[],[],1,0,1,0,1,,,,,,,,,,,,,,,,,,,,,,,,,,,,,,,,,,,,,,,,,,,,,,,,,,,,,,,,,,,,,,,,,,,,,,,,,,,,,
,,,,,,63d193c45e01ccb694993e7f,2024-02-06_10h34.10.960,group3.1-3.2-social-tom,2023.2.2,Win32,144.9275362,65b1b24e3a500fd6b5dc9abd,65c25154f3c18923f31af34b,,,,,,,,,,,3532.4498,3543.3341,space,10.8627,,[],[],[],[],[],[],2,0,2,0,1,,,,,,,,,,,,,,,,,,,,,,,,,,,,,,,,,,,,,,,,,,,,,,,,,,,,,,,,,,,,,,,,,,,,,,,,,,,,,
,,,,,,63d193c45e01ccb694993e7f,2024-02-06_10h34.10.960,group3.1-3.2-social-tom,2023.2.2,Win32,144.9275362,65b1b24e3a500fd6b5dc9abd,65c25154f3c18923f31af34b,,,,,,,,,,,3543.3343,3563.7853,space,20.4404,,[],[],[],[],[],[],3,0,3,0,1,,,,,,,,,,,,,,,,,,,,,,,,,,,,,,,,,,,,,,,,,,,,,,,,,,,,,,,,,,,,,,,,,,,,,,,,,,,,,
,,,,,,63d193c45e01ccb694993e7f,2024-02-06_10h34.10.960,group3.1-3.2-social-tom,2023.2.2,Win32,144.9275362,65b1b24e3a500fd6b5dc9abd,65c25154f3c18923f31af34b,,,,,,,,,,,3563.7902,3641.1113,space,77.3145,,[-0.2959439158738107],[0.12987012987012986],[1],[0],[0],[76.7163000000005],4,0,4,0,1,,,,,,,,,,,,,,,,,,,,,,,,,,,,,,,,,,,,,,,,,,,,,,,,,,,,,,,,,,,,,,,,,,,,,,,,,,,,,
,,,,,,63d193c45e01ccb694993e7f,2024-02-06_10h34.10.960,group3.1-3.2-social-tom,2023.2.2,Win32,144.9275362,65b1b24e3a500fd6b5dc9abd,65c25154f3c18923f31af34b,,,,,,,,,,,,,,,,,,,,,,,,,,,3641.1125,3643.6877,3643.6992,3645.7016,,3645.7018,3675.4378,"[[999,1],[999,90],[999,173],[999,256],[999,340],[999,423],[999,506],[999,589],[999,673],[999,756],[999,840],[42.3,923],[43.2,1007],[47.6,1090],[47.6,1173],[47.6,1256],[47.6,1340],[47.6,1423],[47.6,1506],[47.6,1590],[47.6,1673],[47.6,1756],[47.6,1840],[47.6,1923],[47.6,2006],[47.6,2090],[47.6,2173],[48.6,2256],[48.8,2340],[48.8,2423],[48.8,2506],[48.5,2590],[39.8,2673],[28.6,2756],[21.1,2840],[16.8,2923],[7.7,3006],[2.3,4673],[3.7,4756],[5.9,4839],[7.6,4923],[9,5006],[9,5089],[9,5173],[9,5256],[9,5339],[9,5423],[9,5506],[9,5589],[9,5673],[9.1,5756],[9.2,5840],[9.2,5923],[9.2,6006],[9.2,6090],[9.2,6173],[9.2,6256],[9.2,6339],[9.2,6423],[9.2,6506],[9.2,6589],[9.3,6673],[9.3,6756],[9.3,6839],[9.3,6923],[9.3,7006],[9.3,7089],[9.3,7173],[9.3,7256],[9.3,7339],[9.3,7423],[9.3,7506],[9.4,7589],[9.7,7673],[9.9,7756],[9.9,7839],[9.9,7923],[9.9,8006],[9.9,8089],[10.7,8173],[10.7,8256],[12,8340],[14.6,8423],[19.8,8506],[24.2,8590],[26.1,8673],[28.3,8756],[29.6,8840],[30.7,8923],[32.5,9006],[35.7,9090],[37.3,9173],[37.9,9256],[38.3,9339],[38.3,9423],[39.2,9506],[39.3,9589],[39.3,9673],[39.3,9756],[39.3,9839],[39.3,9923],[39.3,10006],[39.3,10089],[39.3,10173],[40.2,10256],[40.8,10339],[41.5,10423],[41.7,10506],[43.1,10589],[46,10673],[48,10756],[54.9,10840],[57.6,10923],[60.4,11006],[61.4,11090],[62.5,11173],[63.5,11256],[63.5,11340],[63.5,11423],[63.5,11506],[63.5,11590],[63.5,11673],[63.5,11756],[63.5,11840],[63.5,11930],[63.5,12013],[63.5,12096],[63.5,12180],[63.5,12263],[63.5,12346],[63.5,12430],[63.5,12513],[63.5,12596],[63.5,12680],[63.5,12763],[63.5,12846],[63.5,12930],[63.6,13013],[63.6,13096],[63.6,13180],[63.7,13263],[63.7,13346],[63.7,13430],[63.7,13513],[63.7,13596],[63.7,13680],[63.7,13763],[63.7,13846],[63.7,13930],[63.7,14013],[63.7,14096],[63.7,14180],[63.8,14263],[63.8,14346],[63.8,14430],[63.8,14513],[63.8,14597],[63.8,14680],[63.8,14763],[63.8,14847],[63.8,14930],[63.8,15013],[63.8,15097],[63.8,15180],[63.8,15263],[63.8,15346],[63.8,15430],[63.8,15513],[63.8,15596],[63.8,15680],[63.8,15763],[63.8,15846],[63.8,15930],[63.8,16013],[63.8,16096],[63.8,16180],[63.8,16263],[63.8,16346],[63.8,16430],[63.8,16513],[63.8,16596],[63.8,16680],[63.8,16763],[63.8,16846],[63.8,16930],[63.8,17013],[63.8,17096],[63.8,17180],[64,17263],[64.2,17346],[64.2,17430],[64.3,17513],[64.6,17597],[64.6,17680],[64.6,17763],[64.6,17846],[64.6,17930],[64.6,18013],[64.6,18096],[64.6,18180],[64.6,18263],[64.7,18346],[64.7,18430],[64.7,18513],[64.7,18596],[64.7,18680],[64.7,18763],[64.7,18846],[64.7,18930],[66.5,19013],[66.5,19096],[68.2,19180],[68.4,19263],[68.6,19346],[68.6,19430],[68.6,19513],[68.6,19596],[68.6,19680],[68.6,19763],[68.6,19846],[68.6,19930],[68.6,20013],[68.9,20097],[70.8,20180],[73,20263],[73.9,20346],[74.1,20430],[74.1,20513],[74.1,20596],[74.8,20680],[74.8,20763],[74.8,20846],[74.8,20930],[74.8,21013],[74.8,21096],[74.8,21180],[74.8,21263],[74.8,21346],[76.5,21430],[77.5,21513],[80.6,21597],[82.5,21680],[83,21764],[83.4,21847],[84,21930],[84.1,22013],[84.1,22097],[84.1,22180],[84.5,22263],[84.5,22346],[84.5,22430],[84.5,22513],[84.5,22596],[84.5,22680],[84.5,22763],[84.5,22846],[84.5,22930],[84.5,23013],[84.5,23096],[84.5,23180],[84.5,23263],[84.5,23346],[84.5,23430],[84.5,23513],[84.5,23596],[84.5,23680],[84.5,23763],[84.5,23846],[84.5,23930],[84.5,24013],[84.5,24096],[84.5,24180],[84.5,24263],[84.5,24346],[84.5,24430],[84.5,24513],[84.5,24596],[84.5,24680],[84.5,24763],[84.5,24846],[84.5,24930],[84.5,25013],[84.5,25096],[84.5,25180],[84.5,25263],[84.5,25346],[84.5,25430],[84.5,25513],[84.5,25596],[84.5,25680],[84.5,25763],[84.5,25846],[84.5,25930],[84.5,26013],[84.5,26097],[84.5,26180],[84.5,26263],[84.5,26346],[84.5,26430],[84.5,26513],[84.5,26596],[84.5,26680],[84.5,26763],[84.5,26846],[84.5,26930],[84.5,27013],[84.5,27096],[84.5,27180],[84.5,27263],[84.5,27346],[84.5,27430],[84.5,27513],[84.5,27596],[82.4,27680],[80.7,27763],[77.8,27846],[76.9,27930],[76.9,28013],[76.9,28096],[76.9,28180],[76.9,28263],[76.9,28346],[76.9,28430],[76.9,28513],[76.9,28596],[76.9,28680],[76.9,28763],[76.9,28846],[76.9,28929],[76.9,29013],[76.9,29096],[76.9,29180],[76.9,29263],[76.9,29346],[76.9,29430],[76.9,29513],[76.9,29596],[76.9,29680]]",1,0,3675.438,3684.3684,79.79469204,4.2936,"[{""rating"":79.7946920380571,""responseTime"":4.293600000000424}]",space,8.4101,,3684.3732,Half the time,50,3684.3755,,,[],,0,0,0,0,1,audio/Narrative13Situation2.wav,audio/Narrative13Situation2.wav,audio/Narrative13Situation2.wav,audio/Narrative13Situation2.wav,2,2,2,2,,,,,,,,,,,,,,,,,,,,,,,,,,,,,,,,,,,,,,
,,,,,,63d193c45e01ccb694993e7f,2024-02-06_10h34.10.960,group3.1-3.2-social-tom,2023.2.2,Win32,144.9275362,65b1b24e3a500fd6b5dc9abd,65c25154f3c18923f31af34b,,,,,,,,,,,,,,,,,,,,,,,,,,,,,3684.3757,3685.9237,space,3685.9238,3701.8332,"[[67.9,833],[67.9,916],[67.9,999],[67.9,1082],[67.9,1166],[67.9,1249],[67.9,1332],[66.3,1416],[62.6,1500],[56.5,1583],[53.5,1666],[51.9,1750],[46,1833],[45.7,1916],[42.1,1999],[36.2,2083],[26.8,2166],[19.4,2250],[15.9,2333],[13.4,2416],[12.7,2499],[12.7,2583],[12.7,2666],[12.7,2749],[13.3,2833],[17.3,2916],[18.6,2999],[18.6,3083],[18.6,3166],[18.6,3249],[18.6,3333],[18.6,3416],[18.6,3499],[18.6,3583],[18.6,3666],[18.6,3749],[18.6,3833],[18.6,3916],[18.6,3999],[18.6,4083],[20.5,4166],[22.6,4249],[26.9,4333],[30.3,4416],[38.3,4499],[40.7,4582],[40.7,4666],[40.8,4749],[40.8,4833],[40.8,4916],[40.8,4999],[40.8,5082],[40.8,5166],[40.8,5249],[40.8,5332],[40.8,5416],[40.8,5499],[40.8,5583],[40.8,5666],[40.8,5749],[40.8,5832],[40.8,5916],[40.8,5999],[40.8,6083],[40.8,6166],[40.8,6249],[40.8,6332],[40.8,6416],[40.8,6499],[40.8,6582],[40.8,6666],[40.8,6749],[40.8,6832],[40.8,6916],[40.8,6999],[40.8,7082],[40.8,7166],[40.8,7249],[40.8,7332],[40.8,7416],[40.8,7499],[40.8,7582],[40.8,7666],[40.8,7749],[40.8,7832],[40.8,7916],[40.8,7999],[40.8,8082],[40.8,8166],[40.8,8249],[40.8,8332],[40.8,8416],[40.8,8499],[40.8,8583],[40.8,8666],[40.8,8749],[40.8,8832],[40.8,8916],[40.8,8999],[40.8,9082],[40.8,9166],[40.8,9249],[40.8,9332],[40.8,9416],[40.8,9499],[42,9583],[42,9666],[42,9749],[42,9832],[42,9916],[42,9999],[42,10082],[42,10166],[43.4,10249],[48.8,10333],[53.9,10416],[55.2,10499],[55.2,10582],[55.2,10666],[55.2,10749],[55.2,10832],[55.2,10916],[55.2,10999],[55.2,11082],[55.2,11166],[55.2,11249],[55.2,11332],[55.2,11416],[55.2,11499],[55.1,11583],[54.7,11666],[54.7,11749],[54.7,11833],[54.7,11916],[54.7,11999],[54.7,12083],[54.7,12166],[54.7,12249],[54.7,12332],[54.7,12416],[54.7,12499],[54.7,12583],[54.7,12666],[54.7,12749],[54.7,12832],[54.7,12916],[54.7,12999],[54.7,13082],[54.7,13166],[54.7,13249],[54.7,13332],[54.7,13416],[54.7,13499],[54.7,13583],[54.7,13666],[54.7,13749],[54.7,13832],[54.7,13916],[54.7,13999],[54.7,14082],[54.7,14166],[54.7,14249],[54.7,14332],[54.7,14416],[54.7,14499],[54.7,14582],[54.7,14666],[54.7,14749],[54.7,14832],[54.7,14916],[54.7,14999],[54.7,15082],[54.7,15166],[54.7,15249],[54.7,15332],[54.7,15416],[54.7,15499],[54.7,15582],[54.7,15666],[54.7,15749],[54.7,15832]]",1,0,3701.8333,3703.9304,57.96194291,1.5749,"[{""rating"":57.961942914371555,""responseTime"":1.5749000000000706}]",space,1.5785,,3703.9305,Half the time,50,3703.9312,,,[],,0,1,1,1,1,audio/Narrative7Situation1.wav,audio/Narrative8Situation1.wav,audio/Narrative5Situation1.wav,audio/Narrative6Situation1.wav,2,5,5,2,1.5389,,,,,,,,,,,,,,,,,,,,,,,,,,,,,,,,,,,,,
,,,,,,63d193c45e01ccb694993e7f,2024-02-06_10h34.10.960,group3.1-3.2-social-tom,2023.2.2,Win32,144.9275362,65b1b24e3a500fd6b5dc9abd,65c25154f3c18923f31af34b,,,,,,,,,,,,,,,,,,,,,,,,,,,,,3703.9313,3706.9373,,3706.9374,3717.0415,"[[55.1,666],[53.9,750],[53.9,833],[53.4,916],[49,1000],[47.4,1083],[44.4,1166],[42.1,1250],[39.4,1333],[37.3,1416],[37,1500],[37,1583],[37,1666],[37,1750],[37,1833],[37,1916],[37,1999],[37.2,2083],[39.4,2166],[42.3,2250],[43.9,2333],[44.9,2416],[44.9,2499],[45.6,2583],[45.6,2666],[45.6,2750],[45.6,2833],[49.4,2916],[52.2,3000],[57.2,3083],[59,3166],[61.2,3250],[63.4,3333],[65.7,3416],[68.5,3499],[70.6,3583],[71.8,3666],[71.8,3749],[71.8,3833],[71.8,3916],[71.8,3999],[71.8,4083],[71.8,4166],[71.8,4249],[71.8,4333],[71.8,4416],[71.8,4499],[71.8,4583],[71.8,4666],[71.8,4749],[71.8,4833],[71.8,4916],[71.8,4999],[71.8,5083],[71.8,5166],[71.8,5249],[71.8,5333],[71.8,5416],[71.8,5499],[71.8,5583],[73.2,5666],[74,5750],[74,5833],[74,5916],[74,5999],[74,6083],[74,6166],[74,6249],[74,6333],[74,6416],[74,6499],[74,6583],[74,6666],[74,6749],[74,6833],[74,6916],[74,6999],[74,7083],[74,7166],[74,7249],[74,7333],[74,7416],[74,7499],[74,7583],[74,7666],[74,7749],[74,7833],[74,7916],[74,7999],[74,8083],[74,8166],[74,8249],[74,8333],[74,8416],[74,8499],[74,8583],[74,8666],[74,8749],[74,8833],[74,8916],[74,8999],[87,9083],[89.3,9166],[89.3,9249],[89.3,9333],[89.3,9416],[89.3,9500],[89.3,9583],[89.3,9666],[89.3,9750],[89.3,9833],[89.3,9916],[89.3,9999],[89.3,10083]]",1,0,3717.0417,3718.5832,89.60941412,1.2381,"[{""rating"":89.60941412118177,""responseTime"":1.2381000000000313}]",space,1.0232,,3718.5833,Half the time,50,3718.5842,,,[],,0,2,2,2,1,audio/Narrative7Situation2.wav,audio/Narrative8Situation2.wav,audio/Narrative5Situation2.wav,audio/Narrative6Situation2.wav,3,3,3,3,,,,,,,,,,,,,,,,,,,,,,,,,,,,,,,,,,,,,,
,,,,,,63d193c45e01ccb694993e7f,2024-02-06_10h34.10.960,group3.1-3.2-social-tom,2023.2.2,Win32,144.9275362,65b1b24e3a500fd6b5dc9abd,65c25154f3c18923f31af34b,,,,,,,,,,,,,,,,,,,,,,,,,,,,,3718.5843,3722.5901,,3722.5901,3744.958,"[[85.6,916],[85.6,1000],[85.6,1083],[85.6,1166],[85.6,1250],[85,1333],[84.7,1416],[84.7,1500],[84.7,1583],[84.7,1666],[84.7,1750],[84.7,1833],[84.7,1916],[84.7,1999],[84.7,2083],[84.7,2166],[84.7,2249],[84.7,2333],[84.7,2416],[84.7,2499],[84.7,2583],[84.7,2666],[84.7,2749],[84.7,2833],[84.7,2916],[84.7,2999],[84.7,3083],[84.7,3166],[84.7,3249],[84.7,3333],[84.7,3416],[84.7,3499],[84.7,3583],[84.7,3666],[84.7,3749],[84.7,3833],[84.7,3916],[84.7,3999],[84.7,4083],[84.7,4166],[84.7,4249],[84.7,4333],[84.7,4416],[84.7,4500],[84.7,4583],[84.7,4666],[84.7,4749],[84.7,4833],[84.7,4916],[84.7,5000],[84.7,5083],[84.7,5166],[84.7,5249],[84.7,5333],[84.7,5416],[84.7,5500],[84.7,5583],[84.7,5666],[84.7,5750],[84.7,5833],[84.7,5916],[84.7,6000],[84.7,6083],[84.7,6166],[84.7,6249],[84.7,6333],[84.7,6416],[84.7,6500],[84.7,6583],[84.7,6666],[84.7,6749],[84.7,6833],[84.7,6916],[84.7,7000],[84.7,7083],[84.7,7166],[84.7,7250],[84.7,7333],[84.7,7416],[84.7,7499],[84.7,7583],[84.7,7666],[84.7,7749],[84.7,7833],[84.7,7916],[84.7,7999],[84.7,8083],[84.7,8166],[84.7,8249],[84.7,8333],[84.7,8416],[84.7,8499],[84.7,8583],[84.7,8666],[84.7,8749],[84.7,8833],[84.7,8916],[84.7,8999],[84.7,9083],[84.7,9166],[84.7,9249],[84.7,9333],[84.7,9416],[84.7,9499],[84.7,9583],[84.7,9666],[84.7,9749],[84.7,9833],[84.7,9916],[84.7,9999],[84.7,10083],[84.7,10166],[84.7,10249],[84.7,10333],[84.7,10416],[84.7,10499],[84.7,10583],[84.7,10666],[84.7,10749],[84.7,10833],[85.4,10916],[88,10999],[89.9,11083],[91.1,11166],[92.1,11249],[93.7,11333],[93.7,11416],[93.7,11499],[93.7,11583],[93.7,11666],[94.1,11749],[94.1,11833],[95.6,11916],[95.8,11999],[95.8,12083],[95.8,12166],[95.8,12249],[96.5,12333],[96.5,12416],[97.6,12500],[98.3,12583],[98.3,12666],[98.3,12749],[98.3,12833],[98.3,12916],[98.3,12999],[98.3,13083],[98.3,13166],[98.3,13249],[98.3,13333],[98.3,13416],[98.3,13499],[98.3,13583],[98.3,13666],[98.3,13749],[98.3,13833],[98.3,13916],[98.3,13999],[98.3,14083],[98.3,14166],[98.3,14250],[98.3,14333],[98.3,14416],[98.3,14499],[98.3,14583],[98.3,14666],[98.3,14749],[98.3,14833],[98.3,14916],[98.3,14999],[98.3,15083],[98.3,15166],[98.3,15249],[98.3,15333],[98.3,15416],[98.3,15500],[98.3,15583],[98.3,15666],[98.3,15749],[98.3,15833],[98.3,15916],[98.3,16000],[98.3,16083],[98.3,16166],[98.3,16250],[98.3,16333],[98.3,16416],[98.3,16500],[98.3,16583],[98.3,16666],[98.3,16750],[98.3,16833],[98.3,16916],[98.3,16999],[98.3,17083],[98.3,17166],[98.3,17249],[98.3,17333],[98.3,17416],[98.3,17499],[98.3,17583],[98.3,17666],[98.3,17750],[98.3,17833],[98.3,17916],[98.3,17999],[98.3,18083],[98.3,18166],[98.3,18249],[98.3,18333],[98.3,18416],[98.3,18499],[98.3,18583],[98.3,18666],[98.3,18749],[98.3,18833],[98.3,18916],[98.3,18999],[98.3,19083],[98.3,19166],[98.3,19249],[98.3,19333],[98.3,19416],[98.3,19499],[98.3,19583],[98.3,19666],[98.3,19749],[98.3,19833],[98.3,19916],[98.3,19999],[98.3,20083],[98.3,20166],[98.3,20249],[98.3,20333],[98.3,20416],[98.3,20499],[98.3,20583],[98.3,20666],[98.3,20749],[98.3,20833],[98.3,20916],[98.3,20999],[98.3,21083],[98.3,21166],[98.3,21249],[98.3,21333],[98.3,21416],[98.3,21499],[98.3,21583],[98.3,21666],[98.3,21749],[98.3,21833],[98.3,21916],[98.3,21999],[98.3,22083],[98.3,22166],[98.3,22249],[98.3,22333]]",1,0,3744.9582,3746.0275,98.32248373,0.791,"[{""rating"":98.32248372558838,""responseTime"":0.7910000000001673}]",space,0.5502,,3746.0276,Not at all,0,3746.0289,,,[],,0,3,3,3,1,audio/Narrative7Situation3.wav,audio/Narrative8Situation3.wav,audio/Narrative5Situation3.wav,audio/Narrative6Situation3.wav,8,4,3,5,,,,,,,,,,,,,,,,,,,,,,,,,,,,,,,,,,,,,,
,,,,,,63d193c45e01ccb694993e7f,2024-02-06_10h34.10.960,group3.1-3.2-social-tom,2023.2.2,Win32,144.9275362,65b1b24e3a500fd6b5dc9abd,65c25154f3c18923f31af34b,,,,,,,,,,,,,,,,,,,,,,,,,,,,,3746.0291,3749.0347,,3749.0347,3763.1941,"[[98.4,999],[98.4,1083],[98.4,1166],[98.4,1249],[98.4,1333],[98.4,1416],[98.4,1499],[98.4,1583],[98.4,1666],[98,1749],[97.4,1833],[97.4,1916],[97.4,1999],[97.4,2083],[97.4,2166],[97.4,2249],[97.4,2333],[97.4,2416],[97.4,2499],[97.4,2583],[97.4,2666],[97.4,2749],[97.4,2833],[97.4,2916],[97.4,2999],[97.4,3083],[97.4,3166],[97.4,3249],[97.4,3333],[97.4,3416],[97.4,3499],[97.4,3582],[97.4,3666],[97.4,3749],[97.4,3833],[97.4,3916],[97.4,3999],[97.4,4083],[97.4,4166],[97.4,4249],[97.4,4333],[97.4,4416],[97.4,4499],[97.4,4582],[97.4,4666],[97.4,4749],[97.4,4832],[97.4,4916],[97.4,4999],[97.4,5082],[97.4,5166],[97.4,5249],[97.4,5333],[97.4,5416],[97.4,5499],[97.4,5583],[97.4,5666],[97.4,5749],[97.4,5833],[97.4,5916],[97.4,5999],[97.4,6083],[97.4,6166],[97.4,6249],[97.4,6333],[97.4,6416],[97.4,6499],[96.2,6582],[96.2,6666],[96.2,6756],[96.8,6839],[99.2,6923],[99.2,7006],[99.2,7089],[99.2,7173],[99.2,7256],[99.2,7339],[99.2,7423],[99.2,7506],[99.2,7589],[99.2,7673],[99.2,7756],[99.2,7839],[99.2,7923],[99.2,8006],[99.2,8089],[99.2,8173],[99.2,8256],[99.2,8339],[99.2,8423],[99.2,8506],[99.2,8590],[99.2,8673],[99.2,8756],[99.2,8839],[99.2,8923],[99.2,9006],[99.2,9089],[99.2,9173],[99.2,9256],[99.2,9339],[99.2,9423],[99.2,9506],[99.2,9590],[99.2,9673],[99.2,9756],[99.2,9839],[99.2,9923],[99.2,10006],[99.2,10090],[99.2,10173],[99.2,10256],[99.2,10340],[99.2,10423],[99.2,10506],[99.2,10589],[99.2,10673],[99.2,10756],[99.2,10839],[99.2,10923],[99.2,11006],[99.2,11089],[99.2,11173],[99.2,11256],[99.2,11339],[99.2,11423],[99.2,11506],[99.2,11589],[99.2,11673],[99.2,11756],[99.2,11840],[99.2,11923],[99.2,12006],[99.2,12089],[99.2,12173],[99.2,12256],[99.2,12339],[99.2,12423],[99.2,12506],[99.2,12590],[99.2,12673],[99.2,12756],[99.2,12840],[99.2,12923],[99.2,13006],[99.2,13089],[99.2,13173],[99.2,13256],[99.2,13340],[99.2,13423],[99.2,13506],[99.2,13589],[99.2,13673],[99.2,13756],[99.2,13839],[99.2,13923],[99.2,14006],[99.2,14089]]",1,0,3763.1942,3764.2357,99.22383575,0.605,"[{""rating"":99.22383575363045,""responseTime"":0.6050000000000182}]",space,0.5261,,3764.2357,All the time,100,3764.2373,,,[],,0,4,4,4,1,audio/Narrative7Situation4.wav,audio/Narrative8Situation4.wav,audio/Narrative5Situation4.wav,audio/Narrative6Situation4.wav,3,3,1,2,,,,,,,,,,,,,,,,,,,,,,,,,,,,,,,,,,,,,,
,,,,,,63d193c45e01ccb694993e7f,2024-02-06_10h34.10.960,group3.1-3.2-social-tom,2023.2.2,Win32,144.9275362,65b1b24e3a500fd6b5dc9abd,65c25154f3c18923f31af34b,,,,,,,,,,,,,,,,,,,,,,,,,,,,,3764.2374,3766.2427,,3766.2427,3774.4718,"[[98.8,750],[98.7,833],[98.7,916],[98.7,999],[98.7,1083],[98.7,1166],[98.7,1249],[98.7,1333],[98.7,1416],[98.7,1499],[98.7,1583],[98.7,1666],[99.1,1750],[99.2,1833],[99.2,1916],[99.2,1999],[99.2,2083],[99.2,2166],[99.2,2249],[99.2,2333],[99.2,2416],[99.2,2500],[99.2,2583],[99.2,2666],[99.2,2750],[99.2,2833],[99.2,2916],[99.2,3000],[99.2,3083],[99.2,3166],[99.2,3250],[99.2,3333],[99.2,3416],[99.2,3500],[99.2,3583],[99.2,3666],[99.2,3749],[99.2,3833],[99.2,3916],[99.2,3999],[99.2,4083],[99.2,4166],[99.2,4249],[99.2,4333],[99.2,4416],[99.2,4500],[99.2,4583],[99.2,4666],[99.2,4749],[99.2,4833],[99.2,4916],[99.2,5000],[99.2,5083],[99.2,5166],[99.2,5250],[99.2,5333],[99.2,5416],[99.2,5499],[99.2,5583],[99.2,5666],[99.2,5749],[99.2,5833],[99.2,5916],[99.2,6000],[99.2,6083],[99.2,6166],[99.2,6250],[99.2,6333],[99.2,6416],[99.2,6499],[99.2,6583],[99.2,6666],[99.2,6749],[99.2,6833],[99.2,6916],[99.2,6999],[99.2,7083],[99.2,7166],[99.2,7250],[99.2,7333],[99.2,7416],[99.2,7499],[99.2,7583],[99.2,7666],[99.2,7749],[99.2,7833],[99.2,7916],[99.2,7999],[99.2,8083],[99.2,8166]]",1,0,3774.4718,3775.6662,99.22383575,0.8487,"[{""rating"":99.22383575363045,""responseTime"":0.848700000000008}]",space,0.6737,,3775.6662,Half the time,50,3775.6674,,,[],,0,5,5,5,1,audio/Narrative7Situation5.wav,audio/Narrative8Situation5.wav,audio/Narrative5Situation5.wav,audio/Narrative6Situation5.wav,5,2,5,2,,,,,,,,,,,,,,,,,,,,,,,,,,,,,,,,,,,,,,
,,,,,,63d193c45e01ccb694993e7f,2024-02-06_10h34.10.960,group3.1-3.2-social-tom,2023.2.2,Win32,144.9275362,65b1b24e3a500fd6b5dc9abd,65c25154f3c18923f31af34b,,,,,,,,,,,,,,,,,,,,,,,,,,,,,3775.6675,3777.6732,,3777.6732,3784.1315,"[[99.1,833],[98.9,916],[98.9,999],[98.9,1083],[98.9,1166],[98.9,1250],[98.9,1333],[98.9,1416],[98.9,1500],[98.9,1583],[98.9,1666],[98.9,1750],[98.9,1833],[98.9,1916],[98.9,2000],[98.9,2083],[98.9,2166],[98.9,2250],[98.9,2333],[98.9,2416],[98.9,2499],[98.9,2583],[98.9,2666],[98.9,2750],[98.9,2833],[98.9,2916],[98.9,3000],[98.9,3083],[98.9,3166],[98.9,3250],[98.9,3333],[98.9,3416],[98.9,3499],[98.9,3583],[98.9,3666],[98.9,3750],[98.9,3833],[98.9,3916],[98.9,3999],[98.9,4083],[98.9,4166],[98.9,4249],[98.9,4333],[98.9,4416],[98.9,4499],[98.9,4583],[98.9,4666],[98.9,4749],[98.9,4833],[98.9,4916],[98.9,4999],[98.9,5083],[98.9,5166],[98.9,5249],[98.9,5333],[98.9,5423],[98.9,5506],[98.9,5590],[98.9,5673],[98.9,5756],[98.9,5840],[98.9,5923],[98.9,6006],[98.9,6090],[98.9,6173],[98.9,6256],[98.9,6340],[98.9,6423]]",1,0,3784.1315,3785.4023,98.92338508,0.6718,"[{""rating"":98.92338507761642,""responseTime"":0.6718000000000757}]",space,0.7581,,3785.4023,Not at all,0,3785.4035,,,[],,0,6,6,6,1,audio/Narrative7Situation6.wav,audio/Narrative8Situation6.wav,audio/Narrative5Situation6.wav,audio/Narrative6Situation6.wav,3,2,3,2,,,,,,,,,,,,,,,,,,,,,,,,,,,,,,,,,,,,,,
,,,,,,63d193c45e01ccb694993e7f,2024-02-06_10h34.10.960,group3.1-3.2-social-tom,2023.2.2,Win32,144.9275362,65b1b24e3a500fd6b5dc9abd,65c25154f3c18923f31af34b,,,,,,,,,,,,,,,,,,,,,,,,,,,,,3785.4036,3788.4092,,3788.4092,3800.4789,"[[99.1,1250],[99.1,1333],[99.1,1416],[99.1,1500],[99.1,1583],[99.1,1666],[99.1,1750],[99.1,1833],[99.1,1916],[99.1,2000],[99.1,2083],[99.1,2166],[99.1,2250],[99.1,2333],[99.1,2416],[99.1,2500],[99.1,2583],[99.1,2666],[99.1,2750],[99.1,2833],[99.1,2916],[99.1,3000],[99.1,3083],[99.1,3166],[99.1,3250],[99.1,3333],[99.1,3416],[99.1,3500],[99.1,3583],[99.1,3666],[99.1,3750],[99.1,3833],[99.1,3916],[99.1,4000],[99.1,4083],[99.1,4166],[99.1,4250],[99.1,4333],[99.1,4416],[99.1,4500],[99.1,4583],[99.1,4666],[99.1,4750],[99.1,4833],[99.1,4916],[99.1,5000],[99.1,5083],[99.1,5166],[99.1,5250],[99.1,5333],[99.1,5416],[99.1,5500],[99.1,5583],[99.1,5666],[99.1,5750],[99.1,5833],[99.1,5916],[99.1,6000],[99.1,6083],[99.1,6166],[99.1,6249],[99.1,6333],[99.1,6416],[99.1,6500],[99.1,6583],[99.1,6666],[99.1,6750],[99.1,6833],[99.1,6916],[99.1,7000],[99.1,7083],[99.1,7166],[99.1,7249],[99.1,7333],[99.1,7416],[99.1,7499],[99.1,7583],[99.1,7666],[99.1,7750],[99.1,7833],[99.1,7916],[99.1,7999],[99.1,8083],[99.1,8166],[99.1,8250],[99.1,8333],[99.1,8416],[99.1,8500],[99.1,8583],[99.1,8666],[99.1,8750],[99.1,8833],[99.1,8916],[99.1,9000],[99.1,9083],[99.1,9166],[99.1,9249],[99.1,9333],[99.1,9416],[99.1,9500],[99.1,9583],[99.1,9666],[99.1,9750],[99.1,9833],[99.1,9916],[99.1,9999],[99.1,10083],[99.1,10166],[99.1,10249],[99.1,10333],[99.1,10416],[99.1,10500],[99.1,10583],[99.1,10666],[99.1,10749],[99.1,10833],[99.1,10916],[99.1,11000],[99.1,11083],[99.1,11166],[99.1,11250],[99.1,11333],[99.1,11416],[99.1,11500],[99.1,11583],[99.1,11666],[99.1,11749],[99.1,11833],[99.1,11916],[99.1,12000]]",1,0,3800.479,3801.451,99.12368553,0.7611,"[{""rating"":99.12368552829244,""responseTime"":0.7611000000001695}]",space,0.4532,,3801.451,All the time,100,3801.4522,,,[],,0,7,7,7,1,audio/Narrative7Situation7.wav,audio/Narrative8Situation7.wav,audio/Narrative5Situation7.wav,audio/Narrative6Situation7.wav,5,3,4,5,,,,,,,,,,,,,,,,,,,,,,,,,,,,,,,,,,,,,,
,,,,,,63d193c45e01ccb694993e7f,2024-02-06_10h34.10.960,group3.1-3.2-social-tom,2023.2.2,Win32,144.9275362,65b1b24e3a500fd6b5dc9abd,65c25154f3c18923f31af34b,,,,,,,,,,,,,,,,,,,,,,,,,,,,,3801.4523,3804.4577,,3804.4578,3817.2981,"[[99.8,1416],[99.8,1499],[99.8,1583],[99.8,1666],[95.9,1750],[92.9,1833],[92.9,1916],[95,2000],[100,2083],[100,2166],[100,2250],[100,2333],[100,2416],[100,2500],[100,2583],[100,2666],[100,2749],[100,2833],[100,2916],[100,3000],[100,3083],[100,3166],[100,3250],[100,3333],[100,3416],[100,3499],[100,3583],[99.8,3666],[99.8,3749],[99.8,3833],[99.8,3916],[99.8,4000],[99.8,4083],[99.8,4166],[99.8,4249],[99.8,4333],[99.8,4416],[99.8,4499],[99.8,4583],[99.8,4666],[99.8,4749],[99.8,4833],[99.8,4916],[99.8,4999],[99.8,5083],[99.8,5166],[99.8,5250],[99.8,5333],[99.8,5416],[99.8,5500],[99.8,5583],[99.8,5666],[99.8,5749],[99.8,5833],[99.8,5916],[99.8,6000],[99.8,6083],[99.8,6166],[99.8,6249],[99.8,6333],[99.8,6416],[99.8,6500],[99.8,6583],[99.8,6666],[99.8,6750],[99.8,6833],[99.8,6916],[99.8,6999],[99.8,7083],[99.8,7166],[99.8,7250],[99.8,7333],[99.8,7416],[99.8,7499],[99.8,7583],[99.8,7666],[99.8,7750],[99.8,7833],[99.8,7916],[99.8,7999],[99.8,8083],[99.8,8166],[99.8,8250],[99.8,8333],[99.8,8416],[99.8,8499],[99.8,8583],[99.8,8666],[99.8,8749],[99.8,8833],[99.8,8916],[99.8,8999],[99.8,9083],[99.8,9166],[99.8,9249],[99.8,9333],[99.8,9416],[99.8,9499],[99.8,9583],[99.8,9666],[99.8,9749],[99.8,9833],[99.8,9916],[99.8,9999],[99.8,10083],[99.8,10166],[99.8,10249],[99.8,10333],[99.8,10416],[99.8,10499],[99.8,10583],[99.8,10666],[99.8,10749],[99.8,10833],[99.8,10916],[99.8,10999],[99.8,11083],[99.8,11166],[99.8,11250],[99.8,11333],[99.8,11416],[99.8,11499],[99.8,11583],[99.8,11666],[99.8,11750],[99.8,11833],[99.8,11916],[99.8,11999],[99.8,12083],[99.8,12166],[99.8,12249],[99.8,12333],[99.8,12416],[99.8,12499],[99.8,12583],[99.8,12666],[99.8,12749],[99.8,12833]]",1,0,3817.2982,3818.0132,99.82473711,0.4435,"[{""rating"":99.82473710565849,""responseTime"":0.44350000000031287}]",space,0.1946,,3818.0133,Not at all,0,3818.0145,,,[],,0,8,8,8,1,audio/Narrative7Situation8.wav,audio/Narrative8Situation8.wav,audio/Narrative5Situation8.wav,audio/Narrative6Situation8.wav,2,3,3,5,,,,,,,,,,,,,,,,,,,,,,,,,,,,,,,,,,,,,,
,,,,,,63d193c45e01ccb694993e7f,2024-02-06_10h34.10.960,group3.1-3.2-social-tom,2023.2.2,Win32,144.9275362,65b1b24e3a500fd6b5dc9abd,65c25154f3c18923f31af34b,,,,,,,,,,,,,,,,,,,,,,,,,,,,,3818.0146,3821.0203,,3821.0203,3832.3258,"[[99.7,1083],[98.9,1166],[98.3,1250],[98.3,1333],[98.3,1416],[98.3,1499],[98.3,1583],[98.5,1666],[98.5,1749],[98.7,1833],[98.7,1916],[98.7,1999],[98.7,2083],[98.7,2166],[98.7,2249],[98.7,2333],[98.7,2416],[98.7,2499],[98.7,2583],[98.7,2666],[98.7,2749],[98.7,2833],[98.7,2916],[98.7,2999],[98.7,3083],[98.7,3166],[98.7,3249],[98.7,3333],[98.7,3416],[98.7,3499],[98.7,3583],[98.7,3666],[98.7,3749],[98.7,3833],[98.7,3916],[98.7,3999],[98.7,4083],[98.7,4166],[98.7,4249],[98.7,4333],[98.7,4416],[98.7,4499],[98.7,4583],[98.7,4666],[98.7,4749],[98.7,4833],[98.7,4916],[98.7,4999],[98.7,5083],[98.7,5166],[98.7,5249],[98.7,5333],[98.7,5416],[98.7,5499],[98.7,5583],[98.7,5666],[98.7,5749],[98.7,5833],[98.7,5916],[98.7,5999],[98.7,6083],[98.7,6166],[98.7,6249],[98.7,6333],[98.7,6416],[98.7,6499],[98.7,6583],[98.7,6666],[98.7,6749],[98.7,6833],[98.7,6916],[98.7,6999],[98.7,7083],[98.7,7166],[98.7,7249],[98.7,7333],[98.7,7416],[98.7,7499],[98.7,7583],[98.7,7666],[98.7,7749],[98.7,7833],[98.7,7916],[98.7,7999],[98.7,8083],[98.7,8166],[98.7,8249],[98.7,8333],[98.7,8416],[98.7,8499],[98.7,8583],[98.7,8666],[98.7,8749],[98.7,8833],[98.7,8916],[98.7,9000],[98.7,9083],[98.7,9166],[98.7,9250],[98.7,9333],[98.7,9416],[98.7,9500],[98.7,9583],[98.7,9666],[98.7,9749],[98.7,9833],[98.7,9916],[98.7,9999],[98.7,10083],[98.7,10166],[98.7,10249],[98.7,10333],[98.7,10416],[98.7,10499],[98.7,10583],[98.7,10666],[98.7,10749],[98.7,10833],[98.7,10916],[98.7,10999],[98.7,11083],[98.7,11166],[98.7,11249]]",1,0,3832.3258,3833.6591,98.72308463,0.6813,"[{""rating"":98.72308462694042,""responseTime"":0.6812999999997373}]",space,0.8223,,3833.6591,Half the time,50,3833.6602,,,[],,0,9,9,9,1,audio/Narrative7Situation9.wav,audio/Narrative8Situation9.wav,audio/Narrative5Situation9.wav,audio/Narrative6Situation9.wav,2,3,3,4,,,,,,,,,,,,,,,,,,,,,,,,,,,,,,,,,,,,,,
,,,,,,63d193c45e01ccb694993e7f,2024-02-06_10h34.10.960,group3.1-3.2-social-tom,2023.2.2,Win32,144.9275362,65b1b24e3a500fd6b5dc9abd,65c25154f3c18923f31af34b,,,,,,,,,,,,,,,,,,,,,,,,,,,,,3833.6604,3835.666,,3835.666,3891.5408,"[[98.3,1166],[81.9,1250],[71.4,1333],[62.7,1416],[45.6,1500],[25.4,1583],[17.2,1666],[10.2,1750],[8.3,1833],[2.3,1916],[2.2,2000],[2.2,2083],[2.2,2166],[2.2,2250],[2.2,2333],[2.2,2416],[2.2,2500],[2.2,2583],[2.2,2666],[2.2,2749],[2.2,2833],[2.2,2916],[2.2,2999],[2.2,3083],[2.2,3166],[2.2,3249],[2.2,3333],[2.2,3416],[2.2,3500],[2.2,3583],[2.2,3666],[2.2,3749],[2.2,3833],[2.2,3916],[2.2,3999],[2.2,4083],[2.2,4166],[2.2,4250],[2.2,4333],[2.2,4416],[55.6,4833],[59.2,4916],[59.4,5000],[59.4,5083],[59.4,5166],[60.4,5249],[63.5,5333],[63.5,5416],[63.5,5500],[63.5,5583],[63.5,5666],[63.5,5750],[63.5,5833],[63.5,5916],[63.5,6000],[63.5,6083],[63.5,6166],[63.5,6250],[63.5,6333],[63.5,6416],[63.5,6500],[63.5,6583],[63.5,6666],[63.5,6750],[63.5,6833],[63.5,6916],[63.5,6999],[63.5,7083],[63.5,7166],[63.5,7250],[63.5,7333],[63.5,7416],[63.5,7500],[63.5,7583],[63.5,7666],[63.5,7749],[63.5,7833],[63.5,7916],[63.5,7999],[63.5,8083],[63.5,8166],[63.5,8249],[63.5,8333],[63.5,8416],[63.5,8500],[63.5,8583],[63.5,8666],[63.5,8749],[63.5,8833],[63.5,8916],[67.4,9000],[71,9083],[71.1,9166],[71.1,9249],[71.1,9333],[71.1,9416],[71.1,9500],[71.1,9583],[71.1,9666],[71.1,9749],[71.1,9833],[71.1,9916],[71.1,9999],[71.1,10083],[71.1,10166],[71.1,10249],[71.1,10333],[71.1,10416],[71.1,10499],[71.1,10583],[71.1,10666],[71.1,10756],[71.1,10840],[71.1,10923],[71.1,11006],[71.1,11090],[71.1,11173],[71.1,11256],[71.1,11340],[71.1,11423],[71.1,11506],[71.1,11590],[71.1,11673],[71.1,11756],[71.1,11840],[71.1,11923],[71.1,12006],[71.1,12090],[71.1,12173],[71.1,12256],[71.1,12340],[71.1,12423],[71.1,12506],[71.1,12590],[71.1,12673],[71.1,12756],[71.1,12840],[71.1,12923],[71.1,13006],[71.1,13090],[71.1,13173],[71.1,13256],[71.1,13340],[71.1,13423],[71.1,13506],[71.1,13590],[71.1,13673],[71.1,13756],[71.1,13840],[71.1,13923],[71.1,14006],[81.2,14090],[82.1,14173],[83.1,14256],[83.5,14340],[83.5,14423],[83.5,14506],[83.5,14590],[83.5,14673],[83.5,14757],[83.5,14840],[83.5,14923],[83.5,15007],[83.5,15090],[83.5,15173],[83.5,15257],[83.5,15340],[83.5,15423],[83.5,15506],[83.5,15590],[83.5,15673],[83.5,15756],[83.5,15840],[83.5,15923],[83.5,16006],[83.5,16090],[83.5,16173],[83.5,16256],[83.5,16340],[83.5,16423],[83.5,16506],[83.5,16590],[83.5,16673],[83.5,16756],[83.5,16840],[83.5,16923],[83.5,17006],[83.5,17090],[83.5,17173],[83.5,17256],[83.5,17340],[83.5,17423],[83.5,17506],[83.5,17590],[83.5,17673],[83.5,17756],[83.5,17840],[83.5,17923],[83.5,18006],[83.5,18090],[83.5,18173],[83.5,18256],[83.5,18340],[83.5,18423],[83.5,18506],[83.5,18590],[83.5,18673],[83.5,18756],[83.5,18840],[83.5,18923],[83.5,19006],[83.5,19090],[83.5,19173],[83.5,19256],[83.5,19340],[83.5,19423],[83.5,19506],[83.5,19590],[83.5,19673],[83.5,19756],[83.5,19840],[83.5,19923],[83.5,20006],[83.5,20090],[83.5,20173],[83.5,20256],[83.5,20340],[83.5,20423],[83.5,20506],[83.5,20590],[83.5,20673],[83.5,20756],[83.5,20840],[83.5,20923],[83.5,21006],[83.5,21090],[83.5,21173],[83.5,21256],[83.5,21340],[83.5,21423],[83.5,21506],[83.5,21590],[83.5,21673],[83.5,21756],[83.5,21840],[83.5,21923],[83.5,22006],[83.5,22090],[83.5,22173],[83.5,22256],[83.5,22340],[83.5,22423],[83.5,22506],[83.5,22590],[83.5,22673],[83.5,22756],[83.5,22840],[83.5,22923],[83.5,23006],[83.5,23090],[83.5,23173],[83.5,23256],[83.5,23340],[83.5,23423],[83.5,23506],[83.5,23590],[83.5,23673],[83.5,23756],[83.5,23840],[83.5,23923],[83.5,24006],[83.5,24090],[83.5,24173],[83.5,24257],[83.5,24340],[83.5,24423],[83.5,24506],[83.5,24590],[83.5,24673],[83.5,24756],[83.5,24840],[83.5,24923],[83.5,25006],[83.5,25090],[83.5,25173],[83.5,25257],[83.5,25340],[83.5,25423],[83.5,25506],[83.5,25590],[83.5,25673],[83.5,25756],[83.5,25840],[83.5,25923],[83.5,26007],[83.5,26090],[83.5,26173],[83.5,26256],[83.5,26340],[83.5,26423],[83.5,26506],[83.5,26590],[83.5,26673],[83.5,26756],[83.5,26840],[83.5,26923],[83.5,27006],[83.5,27090],[83.5,27173],[83.5,27256],[83.5,27340],[83.5,27423],[83.5,27506],[83.5,27590],[83.5,27673],[83.5,27756],[83.5,27840],[83.5,27923],[83.5,28006],[83.5,28090],[83.5,28173],[83.5,28256],[83.5,28340],[83.5,28423],[83.5,28506],[83.5,28590],[83.5,28673],[83.5,28756],[83.5,28840],[83.5,28923],[83.5,29006],[83.5,29090],[83.5,29173],[83.5,29256],[83.5,29340],[83.5,29423],[83.5,29506],[83.5,29590],[83.5,29673],[83.5,29756],[83.5,29840],[83.5,29923],[83.5,30006],[83.5,30090],[83.5,30173],[83.5,30256],[83.5,30340],[83.5,30423],[83.5,30506],[83.5,30590],[83.5,30673],[83.5,30756],[83.5,30840],[83.5,30923],[83.5,31006],[83.5,31090],[83.5,31173],[83.5,31256],[83.5,31340],[83.5,31423],[83.5,31506],[83.5,31590],[83.5,31673],[83.5,31756],[83.5,31840],[83.5,31923],[83.5,32006],[83.5,32090],[83.5,32173],[83.5,32256],[83.5,32340],[83.5,32423],[83.5,32506],[83.5,32590],[83.5,32673],[83.5,32756],[83.5,32840],[83.5,32923],[83.5,33006],[83.5,33090],[83.5,33173],[83.5,33256],[83.5,33340],[83.5,33423],[83.5,33506],[83.5,33590],[83.5,33673],[83.5,33756],[83.5,33840],[83.5,33923],[83.5,34006],[83.5,34089],[83.5,34173],[83.5,34256],[83.5,34339],[83.5,34423],[83.5,34506],[83.5,34589],[83.5,34673],[83.5,34756],[83.5,34840],[83.5,34923],[83.5,35006],[83.5,35090],[83.5,35173],[83.5,35257],[83.5,35340],[83.5,35423],[83.5,35507],[83.5,35590],[83.5,35673],[83.5,35757],[83.5,35840],[83.5,35923],[83.5,36006],[83.5,36090],[83.5,36173],[83.5,36256],[83.5,36340],[83.5,36423],[83.5,36506],[83.5,36590],[83.5,36673],[83.5,36756],[83.5,36840],[83.5,36923],[83.5,37006],[83.5,37090],[83.5,37173],[83.5,37256],[83.5,37340],[83.5,37423],[83.5,37506],[83.5,37590],[83.5,37673],[83.5,37756],[83.5,37840],[83.5,37923],[83.5,38006],[83.5,38090],[83.5,38173],[83.5,38256],[83.5,38340],[83.5,38423],[83.5,38506],[83.5,38590],[83.5,38673],[83.5,38756],[83.5,38840],[83.5,38923],[83.5,39006],[83.5,39089],[83.5,39173],[83.5,39256],[83.5,39340],[83.5,39423],[83.5,39506],[83.5,39590],[83.5,39673],[83.5,39756],[83.5,39840],[83.5,39923],[83.5,40006],[83.5,40090],[83.5,40173],[83.5,40256],[83.5,40339],[83.5,40423],[83.5,40506],[83.5,40589],[83.5,40673],[83.5,40756],[83.5,40840],[83.5,40923],[83.5,41006],[83.5,41090],[83.5,41173],[83.5,41256],[83.5,41340],[83.5,41423],[83.5,41506],[83.5,41589],[83.5,41673],[83.5,41756],[83.5,41839],[83.5,41923],[83.5,42006],[83.5,42090],[83.5,42173],[83.5,42256],[83.5,42340],[83.5,42423],[83.5,42506],[83.5,42590],[83.5,42673],[83.5,42756],[83.5,42839],[83.5,42923],[83.5,43006],[83.5,43089],[83.5,43173],[83.5,43256],[83.5,43339],[83.5,43423],[83.5,43506],[83.5,43590],[83.5,43673],[83.5,43756],[83.5,43840],[83.5,43923],[83.5,44006],[83.5,44090],[83.5,44173],[83.5,44256],[83.5,44339],[83.5,44423],[83.5,44506],[83.5,44589],[83.5,44673],[83.5,44756],[83.5,44839],[83.5,44923],[83.5,45006],[83.5,45089],[83.5,45173],[83.5,45257],[83.5,45340],[83.5,45423],[83.5,45506],[83.5,45590],[83.5,45673],[83.5,45757],[83.5,45840],[83.5,45923],[83.5,46006],[83.5,46089],[83.5,46173],[83.5,46257],[83.5,46340],[83.5,46423],[83.5,46506],[83.5,46590],[83.5,46673],[83.5,46756],[83.5,46839],[83.5,46923],[83.5,47006],[83.5,47090],[83.5,47173],[83.5,47256],[83.5,47340],[83.5,47423],[83.5,47506],[83.5,47590],[83.5,47673],[83.5,47756],[83.5,47840],[83.5,47923],[83.5,48006],[83.5,48089],[83.5,48173],[83.5,48256],[83.5,48339],[83.5,48423],[83.5,48506],[83.5,48589],[83.8,48673],[83.8,48756],[83.8,48840],[83.8,48923],[83.8,49006],[83.8,49090],[83.9,49173],[85,49256],[85.1,49339],[85.5,49423],[86.6,49506],[88.8,49590],[91.9,49673],[94.5,49756],[95.4,49840],[95.9,49923],[96.9,50006],[96.9,50089],[96.9,50173],[96.9,50256],[97.9,50340],[98.2,50423],[98.2,50506],[98.2,50589],[99.1,50673],[99.3,50756],[99.3,50839],[99.3,50923],[99.3,51006],[99.3,51089],[99.3,51173],[99.3,51256],[99.1,51339],[99,51423],[98.9,51506],[98.8,51589],[98.8,51673],[98.8,51756],[98.8,51839],[98.8,51923],[98.8,52006],[98.8,52089],[98.8,52173],[98.8,52257],[98.8,52339],[98.8,52423],[98.8,52506],[98.8,52590],[98.8,52673],[98.8,52756],[98.6,52839],[98.6,52923],[98.6,53006],[98.6,53089],[98.6,53173],[98.6,53256],[98.6,53339],[98.6,53423],[98.6,53506],[98.6,53589],[98.6,53673],[98.6,53756],[98.6,53839],[98.6,53923],[98.6,54006],[98.6,54089],[98.6,54173],[98.6,54256],[98.6,54339],[98.6,54423],[98.6,54506],[98.6,54589],[98.6,54673],[98.6,54756],[98.6,54839],[98.6,54923],[98.6,55006],[98.6,55089],[98.6,55173],[98.6,55256],[98.6,55339],[98.6,55423],[98.6,55506],[98.6,55589],[98.6,55673],[98.6,55756],[98.6,55840]]",1,0,3891.541,3892.3742,98.6229344,0.5258,"[{""rating"":98.62293440160241,""responseTime"":0.5258000000003449}]",space,0.3122,,3892.3743,Half the time,50,3892.3754,,,[],,0,10,10,10,1,audio/Narrative8Situation1.wav,audio/Narrative7Situation1.wav,audio/Narrative6Situation1.wav,audio/Narrative5Situation1.wav,5,2,2,5,,,,,,,,,,,,,,,,,,,,,,,,,,,,,,,,,,,,,,
,,,,,,63d193c45e01ccb694993e7f,2024-02-06_10h34.10.960,group3.1-3.2-social-tom,2023.2.2,Win32,144.9275362,65b1b24e3a500fd6b5dc9abd,65c25154f3c18923f31af34b,,,,,,,,,,,,,,,,,,,,,,,,,,,,,3892.3755,3895.381,,3895.381,3902.8464,"[[98.9,1417],[98.9,1500],[98.9,1583],[98.9,1666],[98.9,1750],[98.9,1833],[98.9,1916],[98.9,2000],[98.9,2083],[98.9,2166],[98.9,2250],[98.9,2333],[98.9,2416],[98.9,2500],[98.9,2583],[98.9,2666],[98.9,2750],[98.9,2833],[98.9,2916],[98.9,2999],[98.9,3083],[98.9,3166],[98.9,3249],[98.9,3333],[98.9,3416],[98.9,3500],[98.9,3583],[98.9,3666],[98.9,3749],[98.9,3833],[98.9,3916],[98.9,4000],[98.9,4083],[98.9,4166],[98.9,4249],[98.9,4333],[98.9,4416],[98.9,4500],[98.9,4583],[98.9,4666],[98.9,4749],[98.9,4833],[98.9,4916],[98.9,4999],[98.9,5083],[98.9,5166],[98.9,5249],[98.9,5333],[98.9,5416],[98.9,5499],[98.9,5583],[98.9,5666],[98.9,5750],[98.9,5833],[98.9,5916],[98.9,5999],[98.9,6083],[98.9,6166],[98.9,6249],[98.9,6333],[98.9,6416],[98.9,6500],[98.9,6583],[98.9,6666],[98.9,6750],[98.9,6833],[98.9,6916],[98.9,7000],[98.9,7083],[98.9,7166],[98.9,7250],[98.9,7333],[98.9,7416]]",1,0,3902.8465,3903.8047,98.92338508,0.6619,"[{""rating"":98.92338507761642,""responseTime"":0.6618999999996049}]",space,0.4474,,3903.8047,Not at all,0,3903.8058,,,[],,0,11,11,11,1,audio/Narrative8Situation2.wav,audio/Narrative7Situation2.wav,audio/Narrative6Situation2.wav,audio/Narrative5Situation2.wav,3,3,3,3,,,,,,,,,,,,,,,,,,,,,,,,,,,,,,,,,,,,,,
,,,,,,63d193c45e01ccb694993e7f,2024-02-06_10h34.10.960,group3.1-3.2-social-tom,2023.2.2,Win32,144.9275362,65b1b24e3a500fd6b5dc9abd,65c25154f3c18923f31af34b,,,,,,,,,,,,,,,,,,,,,,,,,,,,,3903.806,3911.8115,,3911.8115,3921.0545,"[[99,1167],[99,1250],[99,1333],[99,1416],[99,1500],[99,1583],[98.7,1667],[98.7,1750],[98.7,1833],[98.7,1916],[98.7,2000],[98.7,2083],[98.7,2166],[98.7,2250],[98.7,2333],[98.7,2416],[98.7,2500],[98.7,2583],[98.7,2666],[98.7,2750],[98.7,2833],[98.7,2916],[98.7,3000],[98.7,3083],[98.7,3166],[98.7,3250],[98.7,3333],[98.7,3416],[98.7,3500],[98.7,3583],[98.7,3666],[98.7,3750],[98.7,3833],[98.7,3916],[98.7,4000],[98.7,4083],[98.7,4166],[98.7,4250],[98.7,4333],[98.7,4416],[98.7,4500],[98.7,4583],[98.7,4666],[98.7,4750],[98.7,4833],[98.7,4916],[98.7,5000],[98.7,5083],[98.7,5166],[98.7,5249],[98.7,5333],[98.7,5416],[98.7,5499],[98.7,5583],[98.7,5666],[98.7,5749],[98.7,5833],[98.7,5916],[98.7,6000],[98.7,6083],[98.7,6166],[98.7,6249],[98.7,6333],[98.7,6416],[98.7,6500],[98.7,6583],[98.7,6666],[98.7,6750],[98.7,6833],[98.7,6916],[98.7,7000],[98.7,7083],[98.7,7166],[98.7,7249],[98.7,7333],[98.7,7416],[98.7,7500],[98.7,7583],[98.7,7666],[98.7,7750],[98.7,7833],[98.7,7916],[98.7,7999],[98.7,8083],[98.7,8166],[98.7,8250],[98.7,8333],[98.7,8416],[98.7,8500],[98.7,8583],[98.7,8666],[98.7,8749],[98.7,8833],[98.7,8916],[98.7,9000],[98.7,9083],[98.7,9166]]",1,0,3921.0546,3921.8671,98.72308463,0.5883,"[{""rating"":98.72308462694042,""responseTime"":0.5882999999994354}]",space,0.293,,3921.8671,Half the time,50,3921.8683,,,[],,0,12,12,12,1,audio/Narrative8Situation3.wav,audio/Narrative7Situation3.wav,audio/Narrative6Situation3.wav,audio/Narrative5Situation3.wav,4,8,5,3,,,,,,,,,,,,,,,,,,,,,,,,,,,,,,,,,,,,,,
,,,,,,63d193c45e01ccb694993e7f,2024-02-06_10h34.10.960,group3.1-3.2-social-tom,2023.2.2,Win32,144.9275362,65b1b24e3a500fd6b5dc9abd,65c25154f3c18923f31af34b,,,,,,,,,,,,,,,,,,,,,,,,,,,,,3921.8683,3924.874,,3924.874,3936.5892,"[[98.6,916],[98.6,999],[98.5,1083],[98.5,1166],[98.5,1250],[98.5,1333],[98.5,1416],[98.5,1499],[98.5,1583],[98.5,1666],[98.2,1750],[97.7,1833],[97.7,1916],[97.7,1999],[97.7,2083],[97.7,2166],[97.7,2249],[97.7,2333],[97.7,2416],[97.7,2500],[97.7,2583],[97.7,2666],[97.7,2750],[97.7,2833],[97.7,2916],[97.7,2999],[97.7,3083],[97.7,3166],[97.7,3250],[97.7,3333],[97.7,3416],[97.7,3499],[97.7,3583],[97.7,3666],[97.7,3749],[97.7,3833],[97.7,3916],[97.7,3999],[97.7,4083],[97.7,4166],[97.7,4249],[97.7,4333],[97.7,4416],[97.7,4499],[97.7,4583],[97.7,4666],[97.7,4750],[97.7,4833],[97.7,4916],[97.7,4999],[97.7,5083],[97.7,5166],[97.7,5249],[97.7,5333],[97.7,5416],[97.7,5499],[97.7,5583],[97.7,5666],[97.7,5750],[97.7,5833],[97.7,5916],[97.7,5999],[97.7,6083],[97.7,6166],[97.7,6249],[97.7,6333],[97.9,6416],[97.9,6499],[98,6583],[98.4,6666],[98.4,6749],[98.6,6833],[98.7,6916],[98.7,6999],[98.8,7083],[99.5,7166],[99.5,7249],[99.5,7333],[99.6,7416],[99.6,7499],[99.6,7583],[99.6,7666],[99.6,7749],[99.6,7833],[99.6,7916],[99.6,7999],[99.6,8083],[99.6,8166],[99.6,8249],[99.6,8333],[99.6,8416],[99.6,8499],[99.6,8583],[99.6,8666],[99.6,8749],[99.6,8833],[99.6,8916],[99.6,9000],[99.6,9083],[99.6,9166],[99.6,9249],[99.6,9333],[99.6,9416],[99.6,9499],[99.6,9583],[99.6,9666],[99.6,9749],[99.6,9833],[99.6,9916],[99.6,9999],[99.6,10083],[99.6,10166],[99.6,10249],[99.6,10333],[99.6,10416],[99.6,10499],[99.6,10583],[99.6,10666],[99.6,10749],[99.6,10833],[99.6,10916],[99.6,10999],[99.6,11083],[99.6,11166],[99.6,11249],[99.6,11333],[99.6,11416],[99.6,11499],[99.6,11583],[99.6,11666]]",1,0,3936.5893,3937.3045,99.62443665,0.5903,"[{""rating"":99.62443665498247,""responseTime"":0.5902999999998428}]",space,0.1963,,3937.3045,All the time,100,3937.3056,,,[],,0,13,13,13,1,audio/Narrative8Situation4.wav,audio/Narrative7Situation4.wav,audio/Narrative6Situation4.wav,audio/Narrative5Situation4.wav,3,3,2,1,,,,,,,,,,,,,,,,,,,,,,,,,,,,,,,,,,,,,,
,,,,,,63d193c45e01ccb694993e7f,2024-02-06_10h34.10.960,group3.1-3.2-social-tom,2023.2.2,Win32,144.9275362,65b1b24e3a500fd6b5dc9abd,65c25154f3c18923f31af34b,,,,,,,,,,,,,,,,,,,,,,,,,,,,,3937.3057,3942.3114,,3942.3114,3950.7836,"[[99.5,916],[99.5,999],[99.5,1083],[99.5,1166],[99.5,1250],[98.6,1333],[98.1,1416],[98.1,1500],[98.1,1583],[98.1,1666],[98.1,1750],[98.1,1833],[98.1,1916],[98.1,2000],[98.1,2083],[98.1,2166],[98.1,2250],[98.1,2333],[98.1,2416],[98.1,2500],[98.1,2583],[98.1,2666],[98.1,2750],[98.1,2833],[98.1,2916],[98.1,3000],[98.1,3083],[98.1,3166],[98.1,3250],[98.1,3333],[98.1,3416],[98.1,3500],[98.1,3583],[98.1,3666],[98.1,3749],[98.1,3833],[98.1,3916],[98.1,4000],[98.1,4083],[98.1,4166],[98.1,4249],[98.1,4333],[98.1,4416],[98.1,4499],[98.1,4583],[98.1,4666],[98.1,4749],[98.1,4833],[98.1,4916],[98.1,5000],[98.1,5083],[98.1,5166],[98.1,5250],[98.1,5333],[98.1,5416],[98.1,5499],[98.1,5583],[98.1,5666],[98.1,5749],[98.1,5833],[98.1,5916],[98.1,6000],[98.1,6083],[98.1,6166],[98.1,6249],[98.1,6333],[98.1,6416],[98.1,6500],[98.1,6583],[98.1,6666],[98.1,6749],[98.1,6833],[98.1,6916],[98.1,6999],[98.1,7083],[98.1,7166],[98.1,7250],[98.1,7333],[98.1,7416],[98.1,7499],[98.1,7583],[98.1,7666],[98.1,7749],[98.1,7833],[98.1,7916],[98.1,7999],[98.1,8083],[98.1,8166],[98.1,8249],[98.1,8333],[98.1,8416]]",1,0,3950.7837,3951.7905,98.12218327,0.6616,"[{""rating"":98.12218327491237,""responseTime"":0.6615999999999076}]",space,0.4865,,3951.7906,All the time,100,3951.7913,,,[],,0,14,14,14,1,audio/Narrative8Situation5.wav,audio/Narrative7Situation5.wav,audio/Narrative6Situation5.wav,audio/Narrative5Situation5.wav,2,5,2,5,,,,,,,,,,,,,,,,,,,,,,,,,,,,,,,,,,,,,,
,,,,,,63d193c45e01ccb694993e7f,2024-02-06_10h34.10.960,group3.1-3.2-social-tom,2023.2.2,Win32,144.9275362,65b1b24e3a500fd6b5dc9abd,65c25154f3c18923f31af34b,,,,,,,,,,,,,,,,,,,,,,,,,,,,,3951.7914,3954.7974,,3954.7975,3964.7559,"[[98.3,833],[98.3,916],[98.3,999],[98.3,1083],[98.3,1166],[98.3,1250],[98.3,1333],[98.3,1416],[98.3,1499],[98.3,1583],[98.3,1666],[98.3,1749],[98.3,1833],[98.3,1916],[98.3,1999],[98.3,2083],[98.3,2166],[98.3,2250],[98.3,2333],[98.3,2416],[98.3,2500],[98.3,2583],[98.3,2666],[98.3,2749],[98.3,2833],[98.3,2916],[98.3,2999],[98.3,3083],[98.3,3166],[98.3,3249],[98.3,3333],[98.3,3416],[98.3,3499],[98.3,3583],[98.3,3666],[98.3,3749],[98.3,3833],[98.3,3916],[98.3,3999],[98.3,4083],[98.3,4166],[98.3,4249],[98.3,4333],[98.3,4416],[98.3,4499],[98.3,4583],[98.3,4666],[98.3,4749],[98.3,4833],[98.3,4916],[98.3,4999],[98.3,5083],[98.3,5166],[98.3,5249],[98.3,5333],[98.3,5416],[98.3,5499],[98.3,5583],[98.3,5666],[98.3,5749],[98.3,5833],[98.3,5916],[98.3,5999],[98.3,6083],[98.3,6166],[98.3,6249],[98.3,6333],[98.3,6416],[98.3,6499],[98.3,6583],[98.3,6666],[98.3,6749],[98.3,6833],[98.3,6916],[98.3,6999],[98.3,7083],[98.3,7166],[98.3,7249],[98.3,7333],[98.3,7416],[98.3,7499],[98.3,7583],[98.3,7666],[98.3,7749],[98.3,7833],[98.3,7916],[98.3,7999],[98.3,8083],[98.3,8166],[98.3,8249],[98.3,8333],[98.3,8416],[98.3,8499],[98.3,8583],[98.3,8666],[98.3,8749],[98.3,8833],[98.3,8916],[98.3,9000],[98.3,9083],[98.3,9166],[98.3,9250],[98.3,9333],[98.3,9416],[98.3,9500],[98.3,9583],[98.3,9666],[98.3,9750],[98.3,9833],[98.3,9916]]",1,0,3964.756,3965.6239,98.32248373,0.562,"[{""rating"":98.32248372558838,""responseTime"":0.5619999999998981}]",space,0.3481,,3965.6239,Not at all,0,3973.9087,0,7.74,"[{""rating"":0.1752628943415102,""responseTime"":5.787799999999606},{""rating"":0,""responseTime"":6.947899999999663},{""rating"":0,""responseTime"":7.739999999999782}]",space,0,15,15,15,1,audio/Narrative8Situation6.wav,audio/Narrative7Situation6.wav,audio/Narrative6Situation6.wav,audio/Narrative5Situation6.wav,2,3,2,3,,,7.7736,,,,,,,,,,,,,,,,,,,,,,,,,,,,,,,,,,,
,,,,,,63d193c45e01ccb694993e7f,2024-02-06_10h34.10.960,group3.1-3.2-social-tom,2023.2.2,Win32,144.9275362,65b1b24e3a500fd6b5dc9abd,65c25154f3c18923f31af34b,,,,,,,,,,,,,,,,,,,,,,,,,,,,,3973.9089,3978.9155,,3978.9155,3996.0751,"[[88.7,833],[90.1,916],[90.9,1000],[90.9,1083],[90.9,1166],[92.3,1249],[93,1333],[94,1416],[94.9,1499],[94.9,1583],[96.7,1666],[97.3,1749],[97.3,1833],[98.6,1916],[99.7,2000],[100,2083],[100,2166],[100,2249],[100,2333],[100,2416],[100,2499],[100,2583],[100,2666],[100,2749],[100,2833],[100,2916],[100,2999],[100,3083],[100,3166],[100,3250],[100,3333],[100,3416],[100,3499],[100,3583],[100,3666],[100,3749],[100,3833],[100,3916],[100,3999],[100,4083],[100,4166],[100,4250],[100,4333],[99.3,4416],[99.3,4500],[99.3,4583],[99.3,4666],[99.3,4750],[99.3,4833],[99.3,4916],[99.3,5000],[99.3,5083],[99,5166],[99,5250],[99,5333],[99,5416],[99,5499],[99,5583],[99,5666],[99,5749],[99,5833],[99,5916],[99,5999],[99,6083],[99,6166],[99,6250],[99,6333],[99,6416],[99,6499],[99,6583],[99,6666],[99,6749],[99,6833],[99,6916],[99,6999],[99,7083],[99,7166],[99,7249],[99,7333],[99,7416],[99,7499],[99,7583],[99,7666],[99,7749],[99,7833],[99,7916],[99,7999],[99,8083],[99,8166],[99,8249],[99,8333],[99,8416],[99,8499],[99,8583],[99,8666],[99,8749],[99,8833],[99,8916],[99,8999],[99,9083],[99,9166],[99,9249],[99,9333],[99,9416],[99,9499],[99,9583],[99,9666],[99,9749],[99,9833],[99,9916],[99,9999],[99,10083],[99,10166],[99,10249],[99,10333],[99,10416],[99,10499],[99,10583],[99,10666],[99,10749],[99,10833],[99,10916],[99,10999],[99,11083],[99,11166],[99,11249],[99,11333],[99,11416],[99,11499],[99,11583],[99,11666],[99,11749],[99,11833],[99,11916],[99,11999],[99,12083],[99,12166],[99,12249],[99,12333],[99,12416],[99,12499],[99,12583],[99,12666],[99,12749],[99,12833],[99,12916],[99,12999],[99,13083],[99,13166],[99,13249],[99,13333],[99,13416],[99,13500],[99,13583],[99,13666],[99,13749],[99,13833],[99,13916],[99,13999],[99,14083],[99,14166],[99,14249],[99,14333],[99,14416],[99,14500],[99,14583],[99,14666],[99,14750],[99,14833],[99,14916],[99,15000],[99,15083],[99,15166],[99,15249],[99,15333],[99,15416],[99,15499],[99,15583],[99,15666],[99,15749],[99,15833],[99,15916],[99,15999],[99,16083],[99,16166],[99,16249],[99,16333],[99,16416],[99,16499],[99,16583],[99,16666],[99,16749],[99,16833],[99,16916],[99,16999],[99,17083]]",1,0,3996.0753,3997.1931,99.0235353,0.5989,"[{""rating"":99.02353530295443,""responseTime"":0.598899999999503}]",space,0.5994,,3997.1932,Half the time,50,3997.1943,,,[],,0,16,16,16,1,audio/Narrative8Situation7.wav,audio/Narrative7Situation7.wav,audio/Narrative6Situation7.wav,audio/Narrative5Situation7.wav,3,5,5,4,,,,,,,,,,,,,,,,,,,,,,,,,,,,,,,,,,,,,,
,,,,,,63d193c45e01ccb694993e7f,2024-02-06_10h34.10.960,group3.1-3.2-social-tom,2023.2.2,Win32,144.9275362,65b1b24e3a500fd6b5dc9abd,65c25154f3c18923f31af34b,,,,,,,,,,,,,,,,,,,,,,,,,,,,,3997.1944,3999.2,,3999.2,4009.207,"[[99.7,1083],[99.9,1166],[99.9,1250],[99.9,1333],[99.9,1416],[99.9,1500],[99.9,1583],[99.9,1666],[99.9,1750],[99.9,1833],[99.9,1916],[99.9,2000],[99.9,2083],[99.9,2166],[99.9,2250],[99.9,2333],[99.9,2416],[99.9,2500],[99.9,2583],[99.9,2666],[99.9,2750],[99.9,2833],[99.9,2916],[99.9,3000],[99.9,3083],[99.9,3166],[99.9,3250],[99.9,3333],[99.9,3416],[99.9,3500],[99.9,3583],[99.9,3666],[99.9,3750],[99.9,3833],[99.9,3916],[99.9,4000],[99.9,4083],[99.9,4166],[99.9,4250],[99.9,4333],[99.9,4416],[99.9,4500],[99.9,4583],[99.9,4666],[99.9,4750],[99.9,4833],[99.9,4917],[99.9,5000],[99.9,5083],[99.9,5166],[99.9,5250],[99.9,5333],[99.9,5416],[99.9,5500],[99.9,5583],[99.9,5666],[99.9,5750],[99.9,5833],[99.9,5916],[99.9,5999],[99.9,6083],[99.9,6166],[99.9,6250],[99.9,6333],[99.9,6416],[99.9,6500],[99.9,6583],[99.9,6666],[99.9,6750],[99.9,6833],[99.9,6916],[99.9,7000],[99.9,7083],[99.9,7166],[99.9,7250],[99.9,7333],[99.9,7416],[99.9,7500],[99.9,7583],[99.9,7666],[99.9,7750],[99.9,7833],[99.9,7916],[99.9,8000],[99.9,8083],[99.9,8166],[99.9,8249],[99.9,8333],[99.9,8416],[99.9,8499],[99.9,8583],[99.9,8666],[99.9,8749],[99.9,8833],[99.9,8916],[99.9,9000],[99.9,9083],[99.9,9166],[99.9,9250],[99.9,9333],[99.9,9416],[99.9,9500],[99.9,9583],[99.9,9666],[99.9,9750],[99.9,9833],[99.9,9916],[99.9,9999]]",1,0,4009.207,4010.2139,99.92488733,0.5486,"[{""rating"":99.9248873309965,""responseTime"":0.5485999999996238}]",space,0.4864,,4010.2139,Half the time,50,4010.2147,,,[],,0,17,17,17,1,audio/Narrative8Situation8.wav,audio/Narrative7Situation8.wav,audio/Narrative6Situation8.wav,audio/Narrative5Situation8.wav,3,2,5,3,,,,,,,,,,,,,,,,,,,,,,,,,,,,,,,,,,,,,,
,,,,,,63d193c45e01ccb694993e7f,2024-02-06_10h34.10.960,group3.1-3.2-social-tom,2023.2.2,Win32,144.9275362,65b1b24e3a500fd6b5dc9abd,65c25154f3c18923f31af34b,,,,,,,,,,,,,,,,,,,,,,,,,,,,,4010.2148,4012.2208,,4012.2208,4020.8389,"[[99.7,1333],[99.4,1416],[99.4,1500],[99.4,1583],[99.4,1666],[99.4,1750],[99.4,1833],[99.4,1916],[99.4,2000],[99.4,2083],[99.4,2166],[99.4,2250],[99.4,2333],[99.4,2416],[99.4,2500],[99.4,2583],[99.4,2666],[99.4,2750],[99.4,2833],[99.4,2916],[99.4,3000],[99.4,3083],[99.4,3166],[99.4,3250],[99.4,3333],[99.4,3416],[99.4,3500],[99.4,3583],[99.4,3666],[99.4,3750],[99.4,3833],[99.4,3916],[99.4,4000],[99.4,4083],[99.4,4166],[99.4,4250],[99.4,4333],[99.4,4416],[99.4,4500],[99.4,4583],[99.4,4666],[99.4,4750],[99.4,4833],[99.4,4916],[99.4,5000],[99.4,5083],[99.4,5166],[99.4,5250],[99.4,5333],[99.4,5416],[99.4,5500],[99.4,5583],[99.4,5666],[99.4,5750],[99.4,5833],[99.4,5916],[99.4,6000],[99.4,6083],[99.4,6166],[99.4,6250],[99.4,6333],[99.4,6416],[99.4,6500],[99.4,6583],[99.4,6666],[99.4,6750],[99.4,6833],[99.4,6916],[99.4,7000],[99.4,7083],[99.4,7166],[99.4,7250],[99.4,7333],[99.4,7416],[99.4,7500],[99.4,7583],[99.4,7666],[99.4,7749],[99.4,7833],[99.4,7916],[99.4,8000],[99.4,8083],[99.4,8166],[99.4,8250],[99.4,8333],[99.4,8416],[99.4,8500],[99.4,8583]]",1,0,4020.839,4022.0264,99.4241362,0.776,"[{""rating"":99.42413620430645,""responseTime"":0.7760000000002947}]",space,0.6695,,4022.0265,All the time,100,4022.0275,,,[],,0,18,18,18,1,audio/Narrative8Situation9.wav,audio/Narrative7Situation9.wav,audio/Narrative6Situation9.wav,audio/Narrative5Situation9.wav,3,2,4,3,,,,,,,,,,,,,,,,,,,,,,,,,,,,,,,,,,,,,,
,,,,,,63d193c45e01ccb694993e7f,2024-02-06_10h34.10.960,group3.1-3.2-social-tom,2023.2.2,Win32,144.9275362,65b1b24e3a500fd6b5dc9abd,65c25154f3c18923f31af34b,,,,,,,,,,,,,,,,,,,,,,,,,,,4024.8116,4027.3875,4027.3986,4027.3986,,4027.3986,4057.1305,"[[99.7,1495],[92.7,3579],[96.4,3662],[96.4,3745],[94.9,3829],[92.4,3912],[91.5,3995],[91.5,4079],[90.2,4162],[87.6,4245],[87.6,4329],[86.9,4412],[86.9,4495],[86.9,4579],[86.9,4662],[88.2,4746],[90.8,4829],[91.5,4912],[92.8,4995],[94.4,5079],[95.2,5162],[95.8,5245],[95.8,5329],[95.8,5412],[95.8,5495],[95.9,5579],[95.9,5662],[96,5745],[97.3,5829],[97.3,5912],[97.3,5995],[95.4,6079],[94.3,6162],[93.2,6245],[93,6329],[93,6412],[93,6495],[93,6579],[93,6662],[93,6745],[93,6829],[93,6912],[93,6995],[93,7079],[93,7162],[93,7246],[93,7329],[93,7412],[93,7495],[93,7579],[93,7662],[93,7745],[93,7829],[93,7912],[93,7995],[93,8079],[93,8162],[93,8245],[93,8329],[93,8412],[93,8495],[93,8579],[93,8662],[93,8745],[93,8829],[93,8912],[93,8995],[93,9079],[93,9162],[93,9245],[93,9329],[93,9412],[93,9495],[93,9579],[93,9662],[93,9745],[93,9829],[93,9912],[93,9995],[93,10079],[93,10162],[93,10245],[93,10329],[93,10412],[93,10495],[93,10579],[93,10662],[93,10745],[93,10829],[93,10912],[93,10995],[93,11079],[93,11162],[93,11245],[93,11329],[93,11412],[93,11495],[93,11579],[93,11662],[93,11746],[93,11829],[93,11912],[93,11995],[93,12079],[93,12162],[93,12245],[93,12329],[93,12412],[93,12495],[93,12579],[93,12662],[93,12745],[93,12829],[93,12912],[93,12995],[93,13079],[93,13162],[93,13245],[93,13329],[93,13412],[93,13495],[93,13579],[93,13662],[93,13745],[93,13829],[93,13912],[93,13995],[93,14079],[93,14162],[93,14245],[93,14329],[93,14412],[93,14495],[93,14579],[93,14662],[93,14745],[93,14829],[93,14912],[93,14995],[93,15079],[93,15162],[93,15245],[93,15329],[93,15412],[93,15495],[93,15579],[93,15662],[93,15745],[93,15829],[93,15912],[93,15995],[93,16079],[93,16162],[93,16245],[93,16329],[93,16412],[93,16495],[93,16579],[93,16662],[93,16745],[93,16829],[93,16912],[93,16995],[93,17079],[93,17162],[93,17245],[93,17329],[93,17412],[92.9,17495],[92.9,17579],[92.9,17662],[92.9,17745],[92.9,17829],[92.9,17912],[92.9,17995],[92.9,18079],[92.9,18162],[92.9,18245],[92.9,18329],[92.9,18412],[92.9,18495],[92.9,18579],[92.9,18662],[92.9,18745],[92.9,18829],[92.9,18912],[92.9,18995],[92.9,19079],[92.9,19162],[92.9,19245],[92.9,19329],[92.9,19412],[92.9,19495],[92.9,19579],[92.9,19662],[92.9,19745],[92.9,19829],[92.9,19912],[92.9,19995],[92.9,20079],[92.9,20162],[92.9,20245],[92.9,20328],[92.9,20412],[92.9,20495],[92.9,20579],[92.9,20662],[92.9,20745],[92.9,20829],[92.9,20912],[92.9,20995],[92.9,21079],[92.9,21162],[92.9,21245],[92.9,21329],[92.9,21412],[92.9,21495],[92.9,21579],[92.9,21662],[92.9,21745],[92.9,21829],[92.9,21912],[92.9,21995],[92.9,22079],[92.9,22162],[92.9,22245],[92.9,22329],[92.9,22412],[92.9,22495],[92.9,22578],[92.9,22662],[92.9,22745],[92.9,22828],[92.9,22912],[92.9,22995],[92.9,23079],[92.9,23162],[92.9,23245],[92.9,23329],[92.9,23412],[92.9,23495],[92.9,23579],[92.9,23662],[92.9,23745],[92.9,23829],[92.9,23912],[92.9,23995],[92.9,24079],[92.9,24162],[92.9,24245],[92.9,24329],[92.9,24412],[92.9,24495],[92.9,24578],[92.9,24662],[92.9,24745],[92.9,24829],[92.9,24912],[92.9,24995],[92.9,25078],[92.9,25162],[92.9,25245],[92.9,25329],[92.9,25412],[92.9,25495],[92.9,25579],[92.9,25662],[92.9,25745],[92.9,25828],[92.9,25912],[92.9,25995],[92.9,26079],[92.9,26162],[92.9,26245],[92.9,26329],[92.9,26412],[92.9,26495],[92.9,26579],[92.9,26662],[92.9,26745],[92.9,26828],[92.9,26912],[92.9,26995],[92.9,27078],[92.9,27162],[92.9,27245],[92.9,27329],[92.9,27412],[92.9,27495],[92.9,27579],[92.9,27662],[92.9,27745],[92.9,27829],[92.9,27912],[92.9,27995],[92.9,28079],[92.9,28162],[92.9,28245],[92.9,28329],[92.9,28412],[92.9,28495],[92.9,28579],[92.9,28662],[92.9,28745],[92.9,28829],[92.9,28912],[92.9,28995],[92.9,29078],[92.9,29162],[92.9,29245],[92.9,29329],[92.9,29412],[92.9,29495],[93,29579],[93.2,29662]]",1,0,4057.1306,4057.1315,,,[],,,,4057.1315,Half the time,50,4057.1323,,,[],,0,0,0,0,1,audio/Narrative13Situation2.wav,audio/Narrative13Situation2.wav,audio/Narrative13Situation2.wav,audio/Narrative13Situation2.wav,2,2,2,2,,,,,4022.0279,4024.8114,space,2.2743,,,,,,,,,,,,,,,,,,,,,,,,,,,,,,
,,,,,,63d193c45e01ccb694993e7f,2024-02-06_10h34.10.960,group3.1-3.2-social-tom,2023.2.2,Win32,144.9275362,65b1b24e3a500fd6b5dc9abd,65c25154f3c18923f31af34b,,,,,,,,,,,,,,,,,,,,,,,,,,,,,4057.1325,4059.1373,,4059.1374,4085.7066,"[[94.8,1666],[94.7,1749],[94.7,1833],[94.7,1916],[94.7,1999],[94.7,2083],[94.7,2166],[94.7,2249],[94.7,2333],[94.7,2416],[94.7,2499],[94.7,2583],[94.7,2666],[94.7,2749],[94.7,2833],[94.7,2916],[94.7,2999],[94.7,3083],[94.7,3166],[94.7,3249],[94.7,3333],[94.7,3416],[94.7,3499],[94.7,3583],[94.7,3666],[94.7,3749],[94.7,3833],[94.7,3916],[94.7,3999],[94.7,4083],[94.7,4166],[94.7,4249],[94.7,4333],[94.7,4416],[93.7,4499],[93.7,4583],[93.7,4666],[93.7,4749],[93.7,4833],[93.5,4916],[93.5,5000],[93.5,5083],[93.5,5166],[93.5,5249],[93.5,5333],[93.5,5416],[93.5,5499],[93.5,5583],[93.5,5666],[93.5,5750],[93.5,5833],[93.5,5916],[93.5,5999],[93.5,6083],[93.5,6166],[93.5,6250],[93.5,6333],[93.5,6416],[93.5,6499],[93.5,6583],[93.5,6666],[93.5,6749],[93.5,6833],[93.5,6916],[93.5,6999],[93.5,7083],[93.5,7166],[93.5,7250],[93.5,7333],[93.5,7416],[93.5,7499],[93.5,7583],[93.5,7666],[93.5,7749],[93.5,7833],[93.5,7916],[93.5,7999],[93.5,8083],[93.5,8166],[93.5,8249],[93.5,8333],[93.5,8416],[93.5,8499],[93.5,8583],[93.5,8666],[93.5,8749],[93.5,8833],[93.5,8916],[93.5,8999],[93.5,9083],[93.5,9166],[93.5,9249],[93.5,9333],[93.5,9416],[93.5,9499],[93.5,9583],[93.5,9666],[93.5,9749],[93.5,9833],[93.5,9916],[93.5,9999],[93.5,10083],[93.5,10166],[93.5,10249],[93.5,10333],[93.5,10416],[93.5,10499],[93.5,10583],[93.5,10666],[93.5,10749],[93.5,10833],[93.5,10916],[93.5,10999],[93.5,11083],[93.5,11166],[93.5,11249],[93.5,11333],[93.5,11416],[93.5,11499],[93.5,11583],[93.5,11666],[93.5,11749],[93.5,11833],[93.5,11916],[93.5,11999],[93.5,12083],[93.5,12166],[93.5,12249],[93.5,12333],[93.5,12416],[93.5,12499],[93.5,12583],[93.5,12666],[93.5,12749],[93.5,12833],[93.5,12916],[93.5,12999],[93.5,13083],[93.5,13166],[93.5,13249],[93.5,13333],[93.5,13416],[93.5,13499],[93.5,13583],[93.5,13666],[93.5,13749],[93.5,13833],[93.5,13916],[93.5,13999],[93.5,14083],[93.5,14166],[93.5,14249],[93.5,14333],[93.5,14416],[93.5,14499],[93.5,14583],[93.5,14666],[93.5,14749],[93.5,14833],[93.5,14916],[93.5,14999],[93.5,15083],[93.5,15166],[93.5,15249],[93.5,15333],[93.5,15416],[93.5,15499],[93.5,15583],[93.5,15666],[93.5,15749],[93.5,15833],[93.5,15916],[93.5,15999],[93.5,16083],[93.5,16166],[93.5,16249],[93.5,16333],[93.5,16416],[93.5,16499],[93.5,16583],[93.5,16666],[93.5,16749],[93.5,16833],[93.5,16916],[93.5,17000],[93.5,17083],[93.5,17166],[93.5,17250],[93.5,17333],[93.5,17416],[93.5,17499],[93.5,17583],[93.5,17666],[93.5,17750],[93.5,17833],[93.5,17916],[93.5,18000],[93.5,18083],[93.5,18166],[93.5,18249],[93.5,18333],[93.5,18416],[93.5,18499],[93.5,18583],[93.5,18666],[93.5,18749],[93.5,18833],[93.5,18916],[93.5,18999],[93.5,19083],[93.5,19166],[93.5,19249],[93.5,19333],[93.5,19416],[93.5,19499],[93.5,19583],[93.5,19666],[93.5,19749],[93.5,19833],[93.5,19916],[93.5,19999],[93.5,20083],[93.5,20166],[93.5,20249],[93.5,20333],[93.5,20416],[93.5,20499],[93.5,20583],[93.5,20666],[93.5,20749],[93.5,20833],[93.5,20916],[93.5,20999],[93.5,21083],[93.5,21166],[93.5,21249],[93.5,21333],[93.5,21416],[93.5,21499],[93.5,21583],[93.5,21666],[93.5,21749],[93.5,21833],[93.5,21916],[93.5,21999],[93.5,22082],[93.5,22166],[93.5,22249],[93.5,22333],[93.5,22416],[93.5,22499],[93.5,22583],[93.5,22666],[93.5,22749],[93.5,22833],[93.5,22916],[93.5,22999],[93.5,23083],[93.5,23166],[93.5,23249],[93.5,23333],[93.5,23416],[93.5,23499],[93.5,23583],[93.5,23666],[93.5,23749],[93.5,23833],[93.5,23916],[93.5,23999],[93.5,24083],[93.5,24166],[93.5,24249],[93.5,24333],[93.5,24416],[93.5,24499],[93.5,24583],[93.5,24666],[93.5,24749],[93.5,24833],[93.5,24916],[93.5,24999],[93.5,25083],[93.5,25166],[93.5,25249],[93.5,25333],[93.5,25416],[93.5,25499],[93.5,25582],[93.5,25666],[93.5,25749],[93.5,25833],[93.5,25916],[93.5,25999],[93.5,26083],[93.5,26166],[93.5,26249],[93.5,26332],[93.5,26416],[93.5,26499]]",1,0,4085.7067,4086.8457,95.31797697,0.6936,"[{""rating"":95.31797696544817,""responseTime"":0.6936000000005151}]",space,0.624,,4086.8457,Not at all,0,4086.8467,,,[],,0,1,1,1,1,audio/Narrative7Situation1.wav,audio/Narrative8Situation1.wav,audio/Narrative5Situation1.wav,audio/Narrative6Situation1.wav,2,5,5,2,,,,,,,,,,,,,,,,,,,,,,,,,,,,,,,,,,,,,,
,,,,,,63d193c45e01ccb694993e7f,2024-02-06_10h34.10.960,group3.1-3.2-social-tom,2023.2.2,Win32,144.9275362,65b1b24e3a500fd6b5dc9abd,65c25154f3c18923f31af34b,,,,,,,,,,,,,,,,,,,,,,,,,,,,,4086.8469,4089.8524,,4089.8525,4118.3386,"[[95.6,750],[96,833],[96,916],[96,1000],[96,1083],[96,1166],[96,1250],[96,1333],[96,1416],[96,1499],[96,1583],[96,1666],[96,1749],[96,1833],[96,1916],[96,1999],[96,2083],[96,2166],[96,2250],[96,2333],[96,2416],[96,2500],[96,2583],[96,2666],[96,2749],[96,2833],[96,2916],[96,2999],[96,3083],[96,3166],[96,3249],[96,3333],[96,3416],[96,3499],[96,3583],[96,3666],[96,3750],[96,3833],[96,3916],[96,3999],[96,4083],[96,4166],[96,4249],[96,4333],[96,4416],[96,4500],[96,4583],[96,4666],[96,4749],[96,4833],[96,4916],[96,4999],[96,5083],[96,5166],[96,5249],[96,5333],[96,5416],[96,5499],[96,5583],[96,5666],[96,5750],[96,5833],[96,5916],[96,5999],[96,6083],[96,6166],[96,6249],[96,6333],[96,6416],[96,6500],[96,6583],[96,6666],[96,6750],[96,6833],[96,6916],[96,7000],[96,7083],[96,7166],[96,7250],[96,7333],[96,7416],[96,7499],[96,7583],[96,7666],[96,7749],[96,7833],[96,7916],[96,8000],[96,8083],[96,8166],[96,8249],[96,8333],[96,8416],[96,8499],[96,8583],[96,8666],[96,8750],[96,8833],[96,8916],[96,8999],[96,9083],[96,9166],[96,9249],[96,9333],[96,9416],[96,9499],[96,9583],[96,9666],[96,9749],[96,9833],[96,9916],[96,9999],[96,10083],[96,10166],[96,10249],[96,10333],[96,10416],[96,10499],[96,10583],[96,10666],[96,10749],[96,10833],[96,10916],[96,10999],[96,11083],[96,11166],[96,11249],[96,11333],[96,11416],[96,11499],[96,11583],[96,11666],[96,11749],[96,11833],[96,11916],[96,11999],[96,12083],[96,12166],[96,12249],[96,12333],[96,12416],[96,12499],[96,12583],[96,12666],[96,12749],[96,12833],[96,12916],[96,12999],[96,13083],[96,13166],[96,13249],[96,13333],[96,13416],[96,13499],[96,13583],[96,13666],[96,13749],[96,13833],[96,13916],[96,14000],[96,14083],[96,14166],[96,14249],[96,14333],[96,14416],[96,14500],[96,14583],[96,14666],[96,14749],[96,14833],[96,14916],[96,14999],[96,15083],[96,15166],[96,15249],[96,15333],[96,15416],[96,15499],[96,15583],[96,15666],[96,15749],[96,15833],[96,15916],[96,15999],[96,16083],[96,16166],[96,16249],[96,16333],[96,16416],[96,16499],[96,16583],[96,16666],[96,16750],[96,16833],[96,16916],[96,17000],[96,17083],[96,17166],[96,17249],[96,17333],[96,17416],[96,17500],[96,17583],[96,17666],[96,17750],[96,17833],[96,17916],[96,17999],[96,18083],[96,18166],[96,18249],[96,18333],[96,18416],[96,18499],[96,18583],[96,18666],[96,18749],[96,18833],[96,18916],[96,18999],[96,19083],[96,19166],[96,19249],[96,19333],[96,19416],[96,19499],[96,19583],[96,19666],[96,19749],[96,19833],[96,19916],[96,19999],[96,20083],[96,20166],[96,20249],[96,20333],[96,20416],[96,20499],[96,20583],[96,20666],[96,20749],[96,20833],[96,20916],[96,20999],[96,21083],[96,21166],[96,21249],[96,21333],[96,21416],[96,21499],[96,21583],[96,21666],[96,21749],[96,21833],[96,21916],[96,21999],[96,22083],[96,22166],[96,22249],[96,22333],[96,22416],[96,22499],[96,22583],[96,22666],[96,22749],[96,22833],[96,22916],[96,22999],[96,23083],[96,23166],[96,23249],[96,23333],[96,23416],[96,23499],[96,23583],[96,23666],[96,23749],[96,23833],[96,23916],[96,23999],[96,24083],[96,24166],[96,24249],[96,24333],[96,24416],[96,24499],[96,24583],[96,24666],[96,24749],[96,24833],[96,24916],[96,24999],[96,25083],[95.6,25166],[95.6,25249],[95.6,25333],[95.6,25416],[95.6,25499],[95.7,25583],[95.8,25666],[96.2,25749],[96.8,25833],[96.9,25916],[96.9,25999],[96.9,26083],[96.9,26166],[96.9,26249],[96.9,26333],[96.9,26416],[96.9,26499],[96.9,26583],[96.9,26666],[96.9,26749],[96.9,26833],[96.9,26916],[96.9,27000],[96.9,27083],[96.9,27167],[96.9,27250],[96.9,27333],[96.9,27416],[96.9,27500],[96.9,27583],[96.9,27666],[96.9,27749],[96.9,27833],[96.9,27916],[96.9,28000],[96.9,28083],[96.9,28166],[96.9,28249],[96.9,28333],[96.9,28416]]",1,0,4118.3386,4119.165,96.92038057,0.5865,"[{""rating"":96.92038057085628,""responseTime"":0.586500000000342}]",space,0.31,,4119.165,All the time,100,4119.1661,,,[],,0,2,2,2,1,audio/Narrative7Situation2.wav,audio/Narrative8Situation2.wav,audio/Narrative5Situation2.wav,audio/Narrative6Situation2.wav,3,3,3,3,,,,,,,,,,,,,,,,,,,,,,,,,,,,,,,,,,,,,,
,,,,,,63d193c45e01ccb694993e7f,2024-02-06_10h34.10.960,group3.1-3.2-social-tom,2023.2.2,Win32,144.9275362,65b1b24e3a500fd6b5dc9abd,65c25154f3c18923f31af34b,,,,,,,,,,,,,,,,,,,,,,,,,,,,,4119.1662,4124.1718,,4124.1718,4136.7691,"[[96.6,833],[96.6,916],[96.6,1000],[96.6,1083],[96.6,1166],[96.6,1250],[96.6,1333],[96.6,1416],[96.6,1499],[96.6,1583],[96.6,1666],[96.6,1750],[96.6,1833],[96.6,1916],[96.6,2000],[96.6,2083],[96.6,2166],[96.6,2250],[96.6,2333],[96.6,2416],[96.6,2499],[96.6,2583],[96.6,2666],[96.6,2750],[96.6,2833],[96.6,2916],[96.6,3000],[96.6,3083],[97,3167],[97,3250],[97,3333],[97,3416],[97,3500],[97,3583],[97,3666],[97,3750],[97,3833],[97,3916],[97,3999],[97,4083],[97,4166],[97,4249],[97,4333],[97,4416],[97,4500],[97,4583],[97,4666],[97,4750],[97,4833],[97,4916],[97,5000],[97,5083],[97,5166],[97,5250],[97,5333],[97,5416],[97,5499],[97,5583],[97,5666],[97,5750],[97,5833],[97,5916],[97,5999],[97,6083],[97,6166],[97,6249],[97,6333],[97,6416],[97,6499],[97,6583],[97,6666],[97,6749],[97,6833],[97,6916],[97,7000],[97,7083],[97,7166],[97,7249],[97,7333],[97,7416],[97,7499],[97,7583],[97,7666],[97,7749],[97,7833],[97,7916],[97,7999],[97,8083],[97,8166],[97,8249],[97,8333],[97,8416],[97,8499],[97,8583],[97,8666],[97,8749],[97,8833],[97,8916],[97,8999],[97,9083],[97,9166],[97,9249],[97,9333],[97,9416],[97,9499],[97,9583],[97,9666],[97,9749],[97,9833],[97,9916],[97,9999],[97,10083],[97,10166],[97,10249],[97,10333],[97,10416],[97,10499],[97,10583],[97,10666],[97,10749],[97,10833],[97,10916],[97,10999],[97,11083],[97,11166],[97,11249],[97,11333],[97,11416],[97,11499],[97,11583],[97,11666],[97,11749],[97,11833],[97,11916],[97,11999],[97,12083],[97,12166],[97,12249],[97,12333],[97,12416],[97,12499],[97,12583]]",1,0,4136.7691,4137.7968,97.0205308,0.5469,"[{""rating"":97.0205307961943,""responseTime"":0.5469000000011874}]",space,0.507,,4137.7968,Not at all,0,4137.7978,,,[],,0,3,3,3,1,audio/Narrative7Situation3.wav,audio/Narrative8Situation3.wav,audio/Narrative5Situation3.wav,audio/Narrative6Situation3.wav,8,4,3,5,,,,,,,,,,,,,,,,,,,,,,,,,,,,,,,,,,,,,,
,,,,,,63d193c45e01ccb694993e7f,2024-02-06_10h34.10.960,group3.1-3.2-social-tom,2023.2.2,Win32,144.9275362,65b1b24e3a500fd6b5dc9abd,65c25154f3c18923f31af34b,,,,,,,,,,,,,,,,,,,,,,,,,,,,,4137.7979,4139.8037,,4139.8037,4152.4009,"[[97.6,1500],[97.7,1583],[97.7,1666],[97.7,1749],[97.7,1833],[97.7,1916],[97.7,1999],[97.7,2083],[97.7,2166],[97.7,2249],[97.7,2333],[97.7,2416],[97.7,2499],[97.7,2583],[97.7,2666],[97.7,2749],[97.7,2833],[97.7,2916],[97.7,2999],[97.7,3083],[97.7,3166],[97.7,3250],[97.7,3333],[97.7,3416],[97.7,3500],[97.7,3583],[97.7,3666],[97.7,3750],[97.7,3833],[97.7,3916],[97.7,4000],[97.7,4083],[97.7,4166],[97.7,4250],[97.7,4333],[97.7,4416],[97.7,4499],[97.7,4583],[97.7,4666],[97.7,4749],[97.7,4833],[97.7,4916],[97.7,4999],[97.7,5083],[97.7,5166],[97.7,5249],[97.7,5333],[97.7,5416],[97.7,5499],[97.7,5583],[97.7,5666],[97.7,5749],[97.7,5833],[97.7,5916],[97.7,5999],[97.7,6083],[97.7,6166],[97.7,6249],[97.7,6333],[97.7,6416],[97.7,6499],[97.7,6583],[97.7,6666],[97.7,6749],[97.7,6833],[97.7,6916],[97.7,6999],[97.7,7083],[97.7,7166],[97.7,7249],[97.7,7333],[97.7,7416],[97.7,7499],[97.7,7583],[97.7,7666],[97.7,7749],[97.7,7833],[97.7,7916],[97.7,8000],[97.7,8083],[97.7,8166],[97.7,8250],[97.7,8333],[97.7,8416],[97.7,8500],[97.7,8583],[97.7,8666],[97.7,8750],[97.7,8833],[97.7,8916],[97.7,9000],[97.7,9083],[97.7,9166],[97.7,9250],[97.7,9333],[97.7,9416],[97.7,9500],[97.7,9583],[97.7,9666],[97.7,9749],[97.7,9833],[97.7,9916],[97.7,10000],[97.7,10083],[97.7,10166],[97.7,10249],[97.7,10333],[97.7,10416],[97.7,10500],[97.7,10583],[97.7,10666],[97.7,10749],[97.7,10833],[97.7,10916],[97.7,10999],[97.7,11083],[97.7,11166],[97.7,11249],[97.7,11333],[97.7,11416],[97.7,11499],[97.7,11583],[97.7,11666],[97.7,11749],[97.7,11833],[97.7,11916],[97.7,11999],[97.7,12083],[97.7,12166],[97.7,12249],[97.7,12333],[97.7,12416],[97.7,12499],[97.7,12583]]",1,0,4152.401,4153.4703,97.72158237,0.7636,"[{""rating"":97.72158237356035,""responseTime"":0.7635999999993146}]",space,0.5501,,4153.4703,Not at all,0,4153.471,,,[],,0,4,4,4,1,audio/Narrative7Situation4.wav,audio/Narrative8Situation4.wav,audio/Narrative5Situation4.wav,audio/Narrative6Situation4.wav,3,3,1,2,,,,,,,,,,,,,,,,,,,,,,,,,,,,,,,,,,,,,,
,,,,,,63d193c45e01ccb694993e7f,2024-02-06_10h34.10.960,group3.1-3.2-social-tom,2023.2.2,Win32,144.9275362,65b1b24e3a500fd6b5dc9abd,65c25154f3c18923f31af34b,,,,,,,,,,,,,,,,,,,,,,,,,,,,,4153.471,4155.4771,,4155.4772,4163.4217,"[[98.1,5500],[98.1,5583],[98.1,5666],[98.1,5750],[98.1,5833],[98.1,5916],[98.1,6000],[98.1,6083],[98.1,6166],[98.1,6250],[98.1,6333],[98.1,6416],[98.1,6499],[98.1,6583],[98.1,6666],[98.1,6749],[98.1,6833],[98.1,6916],[98.1,6999],[98.1,7083],[98.1,7166],[98.1,7249],[98.1,7333],[98.1,7416],[98.1,7500],[98.1,7583],[98.1,7666],[98.1,7749],[98.1,7833],[98.1,7916]]",1,0,4163.4217,4164.3244,98.12218327,0.565,"[{""rating"":98.12218327491237,""responseTime"":0.5650000000005093}]",space,0.3832,,4164.3244,All the time,100,4164.3254,,,[],,0,5,5,5,1,audio/Narrative7Situation5.wav,audio/Narrative8Situation5.wav,audio/Narrative5Situation5.wav,audio/Narrative6Situation5.wav,5,2,5,2,,,,,,,,,,,,,,,,,,,,,,,,,,,,,,,,,,,,,,
,,,,,,63d193c45e01ccb694993e7f,2024-02-06_10h34.10.960,group3.1-3.2-social-tom,2023.2.2,Win32,144.9275362,65b1b24e3a500fd6b5dc9abd,65c25154f3c18923f31af34b,,,,,,,,,,,,,,,,,,,,,,,,,,,,,4164.3256,4166.3314,,4166.3314,4177.3938,"[[100,1999],[100,2083],[100,2167],[100,2250],[100,2333],[100,2416],[100,2500],[100,2583],[99.1,2666],[99.1,2750],[99.1,2833],[99.1,2916],[99.1,3000],[99.1,3083],[99.1,3166],[99.1,3250],[99.1,3333],[99.1,3416],[99.1,3500],[99.1,3583],[99.1,3666],[99.1,3749],[99.1,3833],[99.1,3916],[99.1,3999],[99.1,4083],[99.1,4166],[99.1,4249],[99.1,4333],[99.1,4416],[99.1,4500],[99.1,4583],[99.1,4666],[99.1,4750],[99.1,4833],[99.1,4916],[99.1,4999],[99.1,5083],[99.1,5166],[99.1,5249],[99.1,5333],[99.1,5416],[99.1,5499],[99.1,5583],[99.1,5666],[99.1,5749],[99.1,5833],[99.1,5916],[99.1,5999],[99.1,6083],[99.1,6166],[99.1,6249],[99.1,6333],[99.1,6416],[99.1,6499],[99.1,6583],[99.1,6666],[99.1,6749],[99.1,6833],[99.1,6916],[99.1,6999],[99.1,7083],[99.1,7166],[99.1,7249],[99.1,7333],[99.1,7416],[99.1,7499],[99.1,7583],[99.1,7666],[99.1,7749],[99.1,7833],[99.1,7916],[99.1,7999],[99.1,8083],[99.1,8166],[99.1,8249],[99.1,8333],[99.1,8416],[99.1,8499],[99.1,8583],[99.1,8666],[99.1,8749],[99.1,8833],[99.1,8916],[99.1,8999],[99.1,9083],[99.1,9166],[99.1,9249],[99.1,9333],[99.1,9416],[99.1,9499],[99.1,9583],[99.1,9666],[99.1,9749],[99.1,9833],[99.1,9916],[99.1,9999],[99.1,10083],[99.1,10166],[99.1,10249],[99.1,10333],[99.1,10416],[99.1,10499],[99.1,10583],[99.1,10666],[99.1,10749],[99.1,10833],[99.1,10916],[99.1,10999]]",1,0,4177.3938,4178.2479,99.12368553,0.6163,"[{""rating"":99.12368552829244,""responseTime"":0.6162999999996828}]",space,0.341,,4178.248,Half the time,50,4178.249,,,[],,0,6,6,6,1,audio/Narrative7Situation6.wav,audio/Narrative8Situation6.wav,audio/Narrative5Situation6.wav,audio/Narrative6Situation6.wav,3,2,3,2,,,,,,,,,,,,,,,,,,,,,,,,,,,,,,,,,,,,,,
,,,,,,63d193c45e01ccb694993e7f,2024-02-06_10h34.10.960,group3.1-3.2-social-tom,2023.2.2,Win32,144.9275362,65b1b24e3a500fd6b5dc9abd,65c25154f3c18923f31af34b,,,,,,,,,,,,,,,,,,,,,,,,,,,,,4178.249,4183.2549,,4183.2549,4208.0951,"[[99,1416],[99,1499],[99,1583],[99,1666],[99,1749],[99,1833],[99,1916],[99,1999],[99,2083],[99,2166],[99,2249],[99,2333],[99,2416],[99,2499],[99,2583],[99,2666],[99,2749],[99,2833],[99,2916],[99,2999],[99,3083],[99,3166],[99,3249],[99,3333],[99,3416],[99,3499],[99,3583],[99,3666],[99,3749],[99,3833],[99,3916],[99,3999],[99,4083],[99,4166],[99,4249],[99,4333],[99,4416],[99,4499],[99,4583],[99,4666],[99,4749],[99,4833],[99,4916],[99,4999],[99,5083],[99,5166],[99,5249],[99,5333],[99,5416],[99,5499],[99,5583],[99,5666],[99,5750],[99,5833],[99,5916],[99,6000],[99,6083],[99,6166],[99,6250],[99,6333],[99,6416],[99,6499],[99,6583],[99,6666],[99,6750],[99,6833],[99,6916],[99,6999],[99,7083],[99,7166],[99,7249],[99,7333],[99,7416],[99,7499],[99,7583],[99,7666],[99,7749],[99,7833],[99,7916],[99,7999],[99,8083],[99,8166],[99,8249],[99,8333],[99,8416],[99,8500],[99,8583],[99,8666],[99,8750],[99,8833],[99,8916],[99,8999],[99,9083],[99,9166],[99,9250],[99,9333],[99,9416],[99,9499],[99,9583],[99,9666],[99,9749],[99,9833],[99,9916],[99,9999],[99,10083],[99,10166],[99,10249],[99,10333],[99,10416],[99,10499],[99,10583],[99,10666],[99,10749],[99,10833],[99,10916],[99,10999],[99,11083],[99,11166],[99,11249],[99,11333],[99,11416],[99,11499],[99,11583],[99,11666],[99,11749],[99,11833],[99,11916],[99,11999],[99,12083],[99,12166],[99,12249],[99,12333],[99,12416],[99,12499],[99,12583],[99,12666],[99,12749],[99,12833],[99,12916],[99,12999],[99,13083],[99,13166],[99,13249],[99,13333],[99,13416],[99,13499],[99,13583],[99,13666],[99,13749],[99,13833],[99,13916],[99,13999],[99,14083],[99,14166],[99,14249],[99,14333],[99,14416],[99,14499],[99,14583],[99,14666],[99,14749],[99,14833],[99,14916],[99,14999],[99,15083],[99,15166],[99,15249],[99,15333],[99,15416],[99,15499],[99,15583],[99,15666],[99,15749],[99,15833],[99,15916],[99,15999],[99,16083],[99,16166],[99,16250],[99,16333],[99,16416],[99,16499],[99,16583],[99,16666],[99,16749],[99,16833],[99,16916],[99,17000],[99,17083],[99,17166],[99,17250],[99,17333],[99,17416],[99,17500],[99,17583],[99,17666],[99,17750],[99,17833],[99,17916],[99,18000],[99,18083],[99,18166],[99,18250],[99,18333],[99,18416],[99,18500],[99,18583],[99,18666],[99,18749],[99,18833],[99,18916],[99,18999],[99,19083],[99,19166],[99,19249],[99,19333],[99,19416],[99,19499],[99,19583],[99,19666],[99,19750],[99,19833],[99,19916],[99,19999],[99,20083],[99,20166],[99,20249],[99,20333],[99,20416],[99,20499],[99,20583],[99,20666],[99,20749],[99,20833],[99,20916],[99,20999],[99,21083],[99,21166],[99,21249],[99,21333],[99,21416],[99,21499],[99,21583],[99,21666],[99,21749],[99,21833],[99,21916],[99,21999],[99,22083],[99,22166],[99,22249],[99,22333],[99,22416],[99,22499],[99,22583],[99,22666],[99,22749],[99,22833],[99,22916],[99,22999],[99,23083],[99,23166],[99,23249],[99,23333],[99,23416],[99,23499],[99,23583],[99,23666],[99,23749],[99,23833],[99,23916],[99,23999],[99,24083],[99,24166],[99,24249],[99,24333],[99,24416],[99,24499],[99,24583],[99,24666],[99,24749],[99,24833]]",1,0,4208.0951,4208.984,99.0235353,0.6786,"[{""rating"":99.02353530295443,""responseTime"":0.6786000000010972}]",space,0.3705,,4208.984,Half the time,50,4208.9847,,,[],,0,7,7,7,1,audio/Narrative7Situation7.wav,audio/Narrative8Situation7.wav,audio/Narrative5Situation7.wav,audio/Narrative6Situation7.wav,5,3,4,5,,,,,,,,,,,,,,,,,,,,,,,,,,,,,,,,,,,,,,
,,,,,,63d193c45e01ccb694993e7f,2024-02-06_10h34.10.960,group3.1-3.2-social-tom,2023.2.2,Win32,144.9275362,65b1b24e3a500fd6b5dc9abd,65c25154f3c18923f31af34b,,,,,,,,,,,,,,,,,,,,,,,,,,,,,4208.9848,4213.991,,4213.9911,4220.8314,"[[99.2,1166],[99.2,1249],[99.2,1333],[99.2,1416],[99.2,1499],[99.2,1582],[99.2,1666],[99.2,1749],[99.2,1832],[99.2,1916],[99.2,1999],[99.2,2083],[99.2,2166],[99.2,2249],[99.2,2332],[99.2,2416],[99.2,2499],[99.2,2583],[99.2,2666],[99.2,2749],[99.2,2832],[99.2,2916],[99.2,2999],[99.2,3083],[99.2,3166],[99.2,3249],[99.2,3332],[99.2,3416],[99.2,3499],[99.2,3582],[99.2,3666],[99.2,3749],[99.2,3832],[99.2,3916],[99.2,3999],[99.2,4082],[99.2,4166],[99.2,4249],[99.2,4332],[99.2,4416],[99.2,4499],[99.2,4582],[99.2,4666],[99.2,4749],[99.2,4832],[99.2,4916],[99.2,4999],[99.2,5082],[99.2,5166],[99.2,5249],[99.2,5332],[99.2,5416],[99.2,5499],[99.2,5582],[99.2,5666],[99.2,5749],[99.2,5832],[99.2,5916],[99.2,5999],[99.2,6083],[99.2,6166],[99.2,6249],[99.2,6332],[99.2,6416],[99.2,6499],[99.2,6583],[99.2,6666],[99.2,6749],[99.2,6833]]",1,0,4220.8314,4222.6992,99.22383575,1.2929,"[{""rating"":99.22383575363045,""responseTime"":1.292899999999463}]",space,1.3504,,4222.6993,All the time,100,4222.7009,,,[],,0,8,8,8,1,audio/Narrative7Situation8.wav,audio/Narrative8Situation8.wav,audio/Narrative5Situation8.wav,audio/Narrative6Situation8.wav,2,3,3,5,,,,,,,,,,,,,,,,,,,,,,,,,,,,,,,,,,,,,,
,,,,,,63d193c45e01ccb694993e7f,2024-02-06_10h34.10.960,group3.1-3.2-social-tom,2023.2.2,Win32,144.9275362,65b1b24e3a500fd6b5dc9abd,65c25154f3c18923f31af34b,,,,,,,,,,,,,,,,,,,,,,,,,,,,,4222.701,4226.7061,,4226.7061,4236.6438,"[[99.5,1416],[99.5,1500],[99.5,1583],[99.5,1666],[99.5,1749],[99.5,1833],[99.5,1916],[99.5,1999],[99.5,2083],[99.5,2166],[99.5,2250],[99.5,2333],[99.5,2416],[99.5,2499],[99.5,2583],[99.5,2666],[99.5,2750],[99.5,2833],[99.5,2916],[99.5,2999],[99.5,3083],[99.5,3166],[99.5,3249],[99.5,3333],[99.5,3416],[99.5,3499],[99.5,3583],[99.5,3666],[99.5,3749],[99.5,3833],[99.5,3916],[99.5,4000],[99.5,4083],[99.5,4166],[99.5,4250],[99.5,4333],[99.5,4417],[99.5,4500],[99.5,4583],[99.5,4666],[99.5,4750],[99.5,4833],[99.5,4916],[99.5,5000],[99.5,5083],[99.5,5166],[99.5,5250],[99.5,5333],[99.5,5416],[99.5,5500],[99.5,5583],[99.5,5666],[99.5,5750],[99.5,5833],[99.5,5916],[99.5,6000],[99.5,6083],[99.5,6166],[99.5,6249],[99.5,6333],[99.5,6416],[99.5,6500],[99.5,6583],[99.5,6666],[99.5,6750],[99.5,6833],[99.5,6916],[99.5,7000],[99.5,7083],[99.5,7166],[99.5,7249],[99.5,7333],[99.5,7416],[99.5,7499],[99.5,7583],[99.5,7666],[99.5,7750],[99.5,7833],[99.5,7916],[99.5,7999],[99.5,8083],[99.5,8166],[99.5,8249],[99.5,8333],[99.5,8416],[99.5,8499],[99.5,8583],[99.5,8666],[99.5,8749],[99.5,8833],[99.5,8916],[99.5,8999],[99.5,9083],[99.5,9166],[99.5,9249],[99.5,9333],[99.5,9416],[99.5,9500],[99.5,9584],[99.5,9666],[99.5,9750],[99.5,9833],[99.5,9916]]",1,0,4236.6438,4237.9146,99.52428643,1.0744,"[{""rating"":99.52428642964446,""responseTime"":1.0744000000004235}]",space,0.7536,,4237.9146,Not at all,0,4237.9156,,,[],,0,9,9,9,1,audio/Narrative7Situation9.wav,audio/Narrative8Situation9.wav,audio/Narrative5Situation9.wav,audio/Narrative6Situation9.wav,2,3,3,4,,,,,,,,,,,,,,,,,,,,,,,,,,,,,,,,,,,,,,
,,,,,,63d193c45e01ccb694993e7f,2024-02-06_10h34.10.960,group3.1-3.2-social-tom,2023.2.2,Win32,144.9275362,65b1b24e3a500fd6b5dc9abd,65c25154f3c18923f31af34b,,,,,,,,,,,,,,,,,,,,,,,,,,,,,4237.9157,4242.9214,,4242.9214,4256.1921,"[[99.2,833],[99.2,916],[99.2,999],[99.2,1083],[99.2,1166],[99.2,1249],[99.2,1333],[99.2,1416],[99.2,1499],[99.2,1583],[99.2,1666],[99.2,1749],[99.2,1833],[99.2,1916],[99.2,1999],[99.2,2083],[99.2,2166],[99.2,2249],[99.2,2333],[99.2,2416],[99.2,2499],[99.2,2583],[99.2,2666],[99.2,2749],[99.2,2833],[99.2,2916],[99.2,2999],[99.2,3083],[99.2,3166],[99.2,3249],[99.2,3333],[99.2,3416],[99.2,3499],[99.2,3583],[99.2,3666],[99.2,3749],[99.2,3833],[99.2,3916],[99.2,3999],[99.2,4083],[99.2,4166],[99.2,4250],[99.2,4333],[99.2,4417],[99.2,4500],[99.2,4583],[99.2,4666],[99.2,4749],[99.2,4833],[99.2,4916],[99.2,4999],[99.2,5083],[99.2,5166],[99.2,5250],[99.2,5333],[99.2,5416],[99.2,5500],[99.2,5583],[99.2,5666],[99.2,5749],[99.2,5833],[99.2,5916],[99.2,5999],[99.2,6083],[99.2,6166],[99.2,6249],[99.2,6333],[99.2,6416],[99.2,6499],[99.2,6583],[99.2,6666],[99.2,6749],[99.2,6833],[99.2,6916],[99.2,6999],[99.2,7083],[99.2,7166],[99.2,7249],[99.2,7333],[99.2,7416],[99.2,7499],[99.2,7583],[99.2,7666],[99.2,7750],[99.2,7833],[99.2,7916],[99.2,8000],[99.2,8083],[99.2,8166],[99.2,8249],[99.2,8333],[99.2,8416],[99.2,8500],[99.2,8583],[99.2,8666],[99.2,8749],[99.2,8833],[99.2,8916],[99.2,9000],[99.2,9083],[99.2,9166],[99.2,9250],[99.2,9333],[99.2,9416],[99.2,9499],[99.2,9583],[99.2,9666],[99.2,9749],[99.2,9833],[99.2,9916],[99.2,10000],[99.2,10083],[99.2,10166],[99.2,10249],[99.2,10333],[98,10416],[97.1,10499],[97.1,10583],[96.5,10666],[95.9,10749],[95.3,10833],[94.1,10916],[94.1,10999],[93.4,11083],[92.2,11166],[92.2,11249],[92.2,11333],[92.2,11416],[92.2,11499],[92.2,11583],[92.2,11666],[92.2,11749],[92.2,11833],[92.2,11916],[92.2,11999],[92.2,12083],[92.2,12166],[92.2,12249],[92.2,12333],[92.2,12416],[92.2,12499],[91.3,12583],[91,12666],[91,12749],[91,12833],[91,12916],[91,12999],[91,13083],[91,13166],[91,13249]]",1,0,4256.1922,4257.5332,91.01151728,1.1252,"[{""rating"":91.01151727591387,""responseTime"":1.1252000000004045}]",space,0.8235,,4257.5332,All the time,100,4257.5342,,,[],,0,10,10,10,1,audio/Narrative8Situation1.wav,audio/Narrative7Situation1.wav,audio/Narrative6Situation1.wav,audio/Narrative5Situation1.wav,5,2,2,5,,,,,,,,,,,,,,,,,,,,,,,,,,,,,,,,,,,,,,
,,,,,,63d193c45e01ccb694993e7f,2024-02-06_10h34.10.960,group3.1-3.2-social-tom,2023.2.2,Win32,144.9275362,65b1b24e3a500fd6b5dc9abd,65c25154f3c18923f31af34b,,,,,,,,,,,,,,,,,,,,,,,,,,,,,4257.5342,4260.5393,,4260.5393,4289.9906,"[[91.4,1083],[91.7,1166],[91.7,1250],[91.7,1333],[91.7,1416],[91.7,1500],[91.7,1583],[91.7,1666],[91.7,1750],[91.7,1833],[91.7,1916],[91.7,2000],[91.7,2083],[91.7,2167],[91.7,2249],[91.7,2333],[91.7,2416],[91.7,2500],[91.7,2583],[91.7,2666],[91.7,2750],[91.7,2833],[91.7,2916],[91.7,3000],[91.7,3083],[91.7,3166],[91.7,3250],[91.7,3333],[91.7,3416],[91.7,3500],[91.7,3583],[91.7,3666],[91.7,3749],[91.7,3833],[91.7,3916],[91.7,4000],[91.7,4083],[91.7,4166],[91.7,4249],[91.7,4333],[91.7,4416],[91.7,4499],[91.7,4583],[91.7,4666],[91.7,4750],[91.7,4833],[91.7,4916],[91.7,4999],[91.7,5083],[91.7,5166],[91.7,5249],[91.7,5333],[91.7,5416],[91.7,5500],[91.7,5583],[91.7,5666],[91.7,5749],[91.7,5833],[91.7,5916],[91.7,5999],[91.7,6083],[91.7,6166],[91.7,6250],[91.7,6333],[91.7,6416],[91.7,6499],[91.7,6583],[91.7,6666],[91.7,6749],[91.7,6833],[91.7,6916],[91.7,7000],[91.7,7083],[91.7,7166],[91.7,7249],[91.7,7333],[91.7,7416],[91.7,7499],[91.7,7583],[91.7,7666],[91.7,7749],[91.7,7833],[91.7,7916],[91.7,7999],[91.7,8083],[91.7,8166],[91.7,8249],[91.7,8333],[91.7,8416],[91.7,8499],[91.7,8583],[91.7,8666],[91.7,8749],[91.7,8833],[91.7,8917],[91.7,9000],[91.7,9083],[91.7,9166],[91.7,9249],[91.7,9333],[91.7,9416],[91.7,9500],[91.7,9583],[91.7,9666],[91.7,9750],[91.7,9833],[91.7,9916],[91.7,10000],[91.7,10083],[91.7,10166],[91.7,10249],[91.7,10333],[91.7,10416],[91.7,10499],[91.7,10583],[91.7,10666],[91.7,10750],[91.7,10833],[91.7,10916],[91.7,11000],[91.7,11083],[91.7,11167],[91.7,11250],[91.7,11333],[91.7,11416],[91.7,11500],[91.7,11583],[91.7,11666],[91.7,11750],[91.7,11833],[91.7,11916],[91.7,12000],[91.7,12083],[91.7,12166],[91.7,12249],[91.7,12333],[91.7,12416],[91.7,12500],[91.7,12583],[91.7,12666],[91.7,12750],[91.7,12833],[91.7,12916],[91.7,13000],[91.7,13083],[91.7,13166],[91.7,13249],[91.7,13333],[91.7,13416],[91.7,13500],[91.7,13583],[91.7,13666],[91.7,13749],[91.7,13833],[91.7,13916],[91.7,13999],[91.7,14083],[91.7,14166],[91.7,14249],[91.7,14333],[91.7,14416],[91.7,14499],[91.7,14583],[91.7,14666],[91.7,14749],[91.7,14833],[91.7,14916],[91.7,15000],[91.7,15083],[91.7,15166],[91.7,15250],[91.7,15333],[91.7,15416],[91.7,15499],[91.7,15583],[91.7,15666],[91.7,15750],[91.7,15833],[91.7,15916],[91.7,15999],[91.7,16083],[91.7,16166],[91.7,16249],[91.7,16333],[91.7,16416],[91.7,16499],[91.7,16583],[91.7,16666],[91.7,16750],[91.7,16833],[91.7,16916],[91.7,16999],[91.7,17083],[91.7,17166],[91.7,17249],[91.7,17333],[91.7,17416],[91.7,17499],[91.7,17583],[91.7,17666],[91.7,17749],[91.7,17833],[91.7,17916],[91.7,17999],[91.7,18083],[91.7,18166],[91.7,18249],[91.7,18333],[91.7,18416],[91.7,18499],[91.7,18583],[91.7,18666],[91.7,18749],[91.7,18833],[91.7,18916],[91.7,18999],[91.7,19083],[91.7,19166],[91.7,19249],[91.7,19333],[91.7,19416],[91.7,19499],[91.7,19583],[91.7,19666],[91.7,19749],[91.7,19833],[91.7,19917],[91.7,20000],[91.7,20083],[91.7,20166],[91.7,20250],[91.7,20333],[91.7,20416],[91.7,20500],[91.7,20583],[91.7,20666],[91.7,20749],[91.7,20833],[91.7,20917],[91.7,21001],[91.7,21083],[91.7,21166],[91.7,21250],[91.7,21333],[91.7,21416],[91.7,21500],[91.7,21583],[91.7,21666],[91.7,21749],[91.7,21833],[91.7,21916],[91.7,22000],[91.7,22083],[91.7,22166],[91.7,22250],[91.7,22333],[91.7,22416],[91.7,22499],[91.7,22583],[91.7,22666],[91.7,22750],[91.7,22833],[91.7,22916],[91.7,22999],[91.7,23083],[91.7,23166],[91.7,23250],[91.7,23333],[91.7,23416],[91.7,23499],[91.7,23583],[91.7,23666],[91.7,23749],[91.7,23833],[91.7,23916],[91.7,23999],[91.7,24083],[91.7,24166],[91.7,24249],[91.7,24333],[91.7,24416],[91.7,24499],[91.7,24583],[91.7,24666],[91.7,24749],[91.7,24833],[91.7,24916],[91.7,24999],[91.7,25083],[91.7,25166],[91.7,25249],[91.7,25333],[91.7,25416],[91.7,25499],[91.7,25583],[91.7,25666],[91.7,25749],[91.7,25833],[91.7,25916],[91.7,25999],[91.7,26083],[91.9,26166],[92.6,26249],[94,26333],[95.2,26416],[96.8,26499],[97.4,26583],[98.3,26666],[99,26749],[99,26833],[99.3,26916],[99.3,26999],[99.6,27083],[99.9,27166],[99.9,27249],[99.9,27333],[99.9,27416],[99.9,27499],[99.9,27583],[99.9,27666],[99.9,27749],[99.9,27833],[99.9,27916],[99.9,27999],[99.9,28083],[99.9,28166],[99.8,28249],[99.7,28333],[99.7,28416],[99.7,28499],[99.7,28583],[99.7,28667],[99.7,28749],[99.7,28833],[99.7,28916],[99.7,28999],[99.7,29083],[99.7,29166],[99.7,29249],[99.7,29333],[99.7,29416]]",1,0,4289.9908,4290.859,99.72458688,0.5383,"[{""rating"":99.72458688032049,""responseTime"":0.538300000000163}]",space,0.3489,,4290.8591,Half the time,50,4290.86,,,[],,0,11,11,11,1,audio/Narrative8Situation2.wav,audio/Narrative7Situation2.wav,audio/Narrative6Situation2.wav,audio/Narrative5Situation2.wav,3,3,3,3,,,,,,,,,,,,,,,,,,,,,,,,,,,,,,,,,,,,,,
,,,,,,63d193c45e01ccb694993e7f,2024-02-06_10h34.10.960,group3.1-3.2-social-tom,2023.2.2,Win32,144.9275362,65b1b24e3a500fd6b5dc9abd,65c25154f3c18923f31af34b,,,,,,,,,,,,,,,,,,,,,,,,,,,,,4290.8601,4293.8657,,4293.8657,4307.7613,"[[99.4,999],[99.4,1083],[99.4,1166],[99.4,1249],[99.4,1333],[99.4,1416],[99.4,1499],[99.4,1583],[99.4,1666],[99.4,1749],[99.4,1833],[99.4,1916],[99.4,1999],[99.4,2083],[99.4,2166],[99.4,2249],[99.4,2333],[99.4,2416],[99.4,2499],[99.4,2583],[99.4,2666],[99.4,2749],[99.4,2833],[99.4,2916],[99.4,2999],[99.4,3083],[99.4,3166],[99.4,3249],[99.4,3333],[99.4,3416],[99.4,3499],[99.4,3583],[99.4,3666],[99.4,3749],[99.4,3833],[99.4,3916],[99.4,3999],[99.4,4083],[99.4,4166],[99.4,4249],[99.4,4333],[99.4,4416],[99.4,4499],[99.4,4583],[99.4,4666],[99.4,4749],[99.4,4833],[99.4,4916],[99.4,4999],[99.4,5083],[99.4,5166],[99.4,5249],[99.4,5333],[99.4,5416],[99.4,5499],[99.4,5583],[99.4,5666],[99.4,5749],[99.4,5833],[99.4,5916],[99.4,5999],[99.4,6083],[99.4,6166],[99.4,6249],[99.4,6333],[99.4,6416],[99.4,6499],[99.4,6583],[99.4,6666],[99.4,6749],[99.4,6833],[99.4,6916],[99.4,6999],[99.4,7083],[99.4,7166],[99.4,7249],[99.4,7333],[99.4,7416],[99.4,7499],[99.4,7583],[99.4,7666],[99.4,7749],[99.4,7833],[99.4,7916],[99.4,8000],[99.4,8083],[99.4,8166],[99.4,8250],[99.4,8333],[99.4,8416],[99.4,8500],[99.4,8583],[99.4,8667],[99.4,8750],[99.4,8834],[99.4,8917],[99.4,8999],[99.4,9083],[99.4,9166],[99.4,9249],[99.4,9333],[99.4,9416],[99.4,9499],[99.4,9583],[99.4,9667],[99.4,9750],[99.4,9834],[99.4,9916],[99.4,9999],[99.4,10083],[99.4,10166],[99.4,10249],[99.4,10333],[99.4,10416],[99.4,10499],[99.4,10583],[99.4,10666],[99.4,10749],[99.4,10833],[99.4,10916],[99.4,10999],[99.4,11083],[99.4,11166],[99.4,11249],[99.4,11333],[99.4,11416],[99.4,11499],[99.4,11583],[99.4,11666],[99.4,11749],[99.4,11833],[99.4,11916],[99.4,11999],[99.4,12083],[99.4,12166],[99.4,12249],[99.4,12333],[99.4,12416],[99.4,12499],[99.4,12583],[99.4,12666],[99.4,12749],[99.4,12833],[99.4,12916],[99.4,12999],[99.4,13083],[99.4,13166],[99.4,13249],[99.4,13333],[99.4,13416],[99.4,13499],[99.4,13583],[99.4,13666],[99.4,13749],[99.4,13833]]",1,0,4307.7614,4308.6712,99.4241362,0.6932,"[{""rating"":99.42413620430645,""responseTime"":0.693199999999706}]",space,0.3961,,4308.6713,All the time,100,4308.6721,,,[],,0,12,12,12,1,audio/Narrative8Situation3.wav,audio/Narrative7Situation3.wav,audio/Narrative6Situation3.wav,audio/Narrative5Situation3.wav,4,8,5,3,,,,,,,,,,,,,,,,,,,,,,,,,,,,,,,,,,,,,,
,,,,,,63d193c45e01ccb694993e7f,2024-02-06_10h34.10.960,group3.1-3.2-social-tom,2023.2.2,Win32,144.9275362,65b1b24e3a500fd6b5dc9abd,65c25154f3c18923f31af34b,,,,,,,,,,,,,,,,,,,,,,,,,,,,,4308.6722,4309.678,,4309.678,4330.0529,"[[99.3,2000],[99.3,2083],[99.3,2166],[99.3,2250],[99.3,2333],[99.3,2416],[99.3,2500],[99.3,2583],[99.3,2666],[99.3,2750],[99.3,2833],[99.3,2916],[99.3,2999],[99.3,3083],[99.3,3166],[99.3,3250],[99.3,3333],[99.3,3416],[99.3,3500],[99.3,3583],[99.3,3666],[99.3,3750],[99.3,3833],[99.3,3916],[99.3,4000],[99.3,4083],[99.3,4167],[99.3,4250],[99.3,4333],[99.3,4416],[99.3,4500],[99.3,4583],[99.3,4666],[99.3,4750],[99.3,4833],[99.3,4916],[99.3,5000],[99.3,5083],[99.3,5166],[99.3,5250],[99.3,5333],[99.3,5416],[99.3,5500],[99.3,5583],[99.3,5666],[99.2,5750],[99.2,5833],[99.2,5916],[99.2,6000],[99.2,6083],[99.2,6166],[99.2,6250],[99.2,6333],[99.2,6416],[99.2,6500],[99.2,6583],[99.2,6666],[99.2,6749],[99.2,6833],[99.2,6916],[99.2,6999],[99.2,7083],[99.2,7166],[99.2,7249],[99.2,7333],[99.2,7416],[99.2,7499],[99.2,7583],[99.2,7666],[99.2,7749],[99.2,7833],[99.2,7916],[99.2,8000],[99.2,8083],[99.2,8166],[99.2,8249],[99.2,8333],[99.2,8416],[99.2,8499],[99.2,8583],[99.2,8666],[99.2,8749],[99.2,8833],[99.2,8916],[99.2,8999],[99.2,9083],[99.2,9166],[99.2,9250],[99.2,9333],[99.2,9416],[99.2,9499],[99.2,9583],[99.2,9666],[99.2,9749],[99.2,9833],[99.2,9916],[99.2,9999],[99.2,10083],[99.2,10166],[99.2,10250],[99.2,10333],[99.2,10416],[99.2,10499],[99.2,10583],[99.2,10666],[99.2,10750],[99.2,10833],[99.2,10916],[99.2,10999],[99.2,11083],[99.2,11166],[99.2,11249],[99.2,11333],[99.2,11416],[99.2,11499],[99.2,11583],[99.2,11666],[99.2,11749],[98.5,11833],[98.5,11916],[98.5,11999],[98.5,12083],[98.5,12166],[98.5,12249],[98.5,12333],[98.8,12416],[99.3,12500],[99.3,12583],[99.9,12666],[100,12750],[100,12833],[100,12916],[100,13000],[100,13083],[100,13166],[100,13249],[100,13333],[100,13416],[100,13500],[100,13583],[100,13666],[100,13750],[99.7,13833],[99.7,13916],[99.7,13999],[99.7,14083],[99.7,14166],[99.7,14249],[99.7,14333],[99.7,14416],[99.7,14499],[99.7,14583],[99.7,14666],[99.7,14750],[99.7,14833],[99.7,14916],[99.7,14999],[99.7,15083],[99.7,15166],[99.7,15250],[99.7,15333],[99.7,15416],[99.7,15499],[99.7,15583],[99.7,15666],[99.7,15750],[99.7,15833],[99.7,15916],[99.7,16000],[99.7,16083],[99.7,16166],[99.7,16250],[99.7,16333],[99.7,16416],[99.7,16499],[99.7,16583],[99.7,16667],[99.7,16749],[99.7,16833],[99.7,16916],[99.7,16999],[99.7,17083],[99.7,17166],[99.7,17249],[99.7,17333],[99.7,17416],[99.7,17499],[99.7,17583],[99.7,17666],[99.7,17749],[99.7,17833],[99.7,17916],[99.7,17999],[99.7,18083],[99.7,18166],[99.7,18249],[99.7,18333],[99.7,18416],[99.7,18499],[99.7,18583],[99.7,18666],[99.7,18749],[99.7,18833],[99.7,18916],[99.7,18999],[99.7,19083],[99.7,19166],[99.7,19249],[99.7,19333],[99.7,19416],[99.7,19499],[99.7,19583],[99.7,19666],[99.7,19749],[99.7,19833],[99.7,19916],[99.7,19999],[99.7,20083],[99.7,20166],[99.7,20250],[99.7,20333]]",1,0,4330.053,4330.9837,99.72458688,0.6861,"[{""rating"":99.72458688032049,""responseTime"":0.6860999999998967}]",space,0.4182,,4330.9837,All the time,100,4330.9844,,,[],,0,13,13,13,1,audio/Narrative8Situation4.wav,audio/Narrative7Situation4.wav,audio/Narrative6Situation4.wav,audio/Narrative5Situation4.wav,3,3,2,1,,,,,,,,,,,,,,,,,,,,,,,,,,,,,,,,,,,,,,
,,,,,,63d193c45e01ccb694993e7f,2024-02-06_10h34.10.960,group3.1-3.2-social-tom,2023.2.2,Win32,144.9275362,65b1b24e3a500fd6b5dc9abd,65c25154f3c18923f31af34b,,,,,,,,,,,,,,,,,,,,,,,,,,,,,4330.9846,4335.9884,,4335.9884,4351.3931,"[[99.3,1001],[99.3,1085],[99.3,1168],[99.3,1252],[99.3,1335],[99.3,1418],[99.3,1501],[99.3,1585],[99.3,1668],[99.3,1751],[99.3,1835],[99.3,1918],[99.3,2001],[99.3,2085],[99.3,2168],[99.3,2251],[99.3,2335],[99.3,2418],[99.3,2501],[99.3,2585],[99.3,2668],[99.3,2751],[99.3,2835],[99.3,2918],[99.3,3001],[99.3,3085],[99.3,3168],[99.3,3251],[99.3,3335],[99.3,3418],[99.3,3501],[99.3,3585],[99.3,3668],[99.3,3751],[99.3,3835],[99.3,3918],[99.3,4001],[99.3,4085],[99.3,4168],[99.3,4251],[99.3,4335],[99.3,4418],[99.3,4501],[99.3,4585],[99.3,4668],[99.3,4751],[99.3,4835],[99.3,4918],[99.3,5001],[99.3,5085],[99.3,5168],[99.3,5251],[99.3,5335],[99.3,5418],[99.3,5501],[99.3,5585],[99.3,5668],[99.3,5751],[99.3,5835],[99.3,5918],[99.3,6001],[99.3,6085],[99.3,6168],[99.3,6251],[99.3,6335],[99.3,6418],[99.3,6502],[99.3,6585],[99.3,6668],[99.3,6751],[99.3,6835],[99.3,6918],[99.3,7002],[99.3,7085],[99.3,7168],[99.3,7252],[99.3,7335],[99.3,7418],[99.3,7501],[99.3,7585],[99.3,7668],[99.3,7751],[99.3,7835],[99.3,7918],[99.3,8001],[99.3,8085],[99.3,8168],[99.3,8251],[99.3,8335],[99.3,8418],[99.3,8501],[99.3,8585],[99.3,8668],[99.3,8752],[99.3,8835],[99.3,8918],[99.3,9001],[99.3,9085],[99.3,9168],[99.3,9251],[99.3,9335],[99.3,9418],[99.3,9501],[99.3,9585],[99.3,9668],[99.3,9751],[99.3,9835],[99.3,9918],[99.3,10001],[99.3,10085],[100,10168],[51.9,11751],[51.6,11835],[51.6,11918],[51.6,12001],[52.3,12085],[57.7,12168],[57.7,12251],[56.5,12335],[56.5,12418],[56.5,12501],[56.5,12585],[56.5,12668],[56.5,12751],[56.5,12835],[56.5,12918],[56.5,13001],[56.5,13085],[56.5,13168],[56.9,13251],[62.3,13335],[75.8,13418],[82.3,13501],[88,13585],[92.4,13668],[94.9,13751],[94.9,13835],[94.9,13918],[94.9,14001],[95.2,14085],[95.3,14168],[95.9,14251],[95.9,14335],[95.9,14418],[95.9,14501],[95.9,14585],[95.9,14668],[95.9,14751],[95.9,14835],[95.9,14918],[96,15001],[96.1,15085],[96.1,15168],[96.1,15251],[96.1,15335]]",1,0,4351.3931,4353.1014,98.02203305,1.5033,"[{""rating"":98.02203304957436,""responseTime"":1.5033000000003085}]",space,1.1938,,4353.1014,Half the time,50,4353.1024,,,[],,0,14,14,14,1,audio/Narrative8Situation5.wav,audio/Narrative7Situation5.wav,audio/Narrative6Situation5.wav,audio/Narrative5Situation5.wav,2,5,2,5,,,,,,,,,,,,,,,,,,,,,,,,,,,,,,,,,,,,,,
,,,,,,63d193c45e01ccb694993e7f,2024-02-06_10h34.10.960,group3.1-3.2-social-tom,2023.2.2,Win32,144.9275362,65b1b24e3a500fd6b5dc9abd,65c25154f3c18923f31af34b,,,,,,,,,,,,,,,,,,,,,,,,,,,,,4353.1026,4356.1084,,4356.1084,4361.775,"[[97.9,916],[97.7,999],[97.4,1083],[97.4,1166],[97.4,1249],[97.4,1333],[97.4,1416],[97.4,1499],[97.4,1583],[97.4,1666],[97.4,1749],[97.4,1833],[97.4,1916],[97.4,2000],[97.4,2083],[97.4,2166],[97.4,2249],[97.4,2333],[97.4,2416],[97.4,2499],[97.4,2583],[97.4,2666],[97.4,2749],[97.4,2833],[97.4,2916],[97.4,2999],[97.4,3083],[97.4,3166],[97.4,3250],[97.4,3333],[97.4,3416],[97.3,3499],[97.3,3583],[97.3,3666],[96.5,3750],[96.5,3833],[96.5,3916],[95.6,4000],[94.7,4083],[94.1,4166],[94.1,4249],[94.1,4333],[94.1,4416],[94.1,4499],[94.1,4583],[94.1,4666],[94.1,4749],[95.7,4833],[96.4,4916],[96.4,4999],[96.4,5083],[96.4,5166],[96.4,5249],[96.4,5333],[96.4,5416],[96.4,5499],[96.4,5583],[96.4,5666]]",1,0,4361.775,4367.6847,96.21932899,5.3792,"[{""rating"":96.41962944416625,""responseTime"":0.8914000000004307},{""rating"":96.21932899349024,""responseTime"":5.37920000000031}]",space,5.3968,,4367.6848,All the time,100,4367.6857,,,[],,0,15,15,15,1,audio/Narrative8Situation6.wav,audio/Narrative7Situation6.wav,audio/Narrative6Situation6.wav,audio/Narrative5Situation6.wav,2,3,2,3,,,,,,,,,,,,,,,,,,,,,,,,,,,,,,,,,,,,,,
