exp_question,consent.started,consent.stopped,consentResponse.keys,consentResponse.rt,consentResponse.duration,participantID,date,expName,psychopyVersion,OS,frameRate,STUDY_ID,SESSION_ID,opening1.started,opening1.stopped,keyEndingOpening1.keys,keyEndingOpening1.rt,keyEndingOpening1.duration,volumeAdjust.started,volumeAdjust.stopped,endingAdjust.keys,endingAdjust.rt,endingAdjust.duration,opening2.started,opening2.stopped,keyEndingOpening.keys,keyEndingOpening.rt,keyEndingOpening.duration,mouse.x,mouse.y,mouse.leftButton,mouse.midButton,mouse.rightButton,mouse.time,instructionLoop.thisRepN,instructionLoop.thisTrialN,instructionLoop.thisN,instructionLoop.thisIndex,instructionLoop.ran,readyForAudio.started,readyForAudio.stopped,fixation.started,run,audio_played,fixation.stopped,endPractice.keys,audioPre.started,audioPre.stopped,continuousResponses_audio,continuousSlider.response,continuousSlider.rt,intRating.started,intRating.stopped,intQuestionSlider.response,intQuestionSlider.rt,intQuestionSlider.history,confirmResponse.keys,confirmResponse.rt,confirmResponse.duration,catchQuestion.started,catch_label,catch_value,catchQuestion.stopped,catchQuestionSlider.response,catchQuestionSlider.rt,catchQuestionSlider.history,confirmResponse_2.keys,audioRunLoop.thisRepN,audioRunLoop.thisTrialN,audioRunLoop.thisN,audioRunLoop.thisIndex,audioRunLoop.ran,conditions1_1,conditions2_1,conditions1_2,conditions2_2,dur1_1,dur2_1,dur1_2,dur2_2,endPractice.rt,endPractice.duration,confirmResponse_2.rt,confirmResponse_2.duration,runIntervalBreak.started,runIntervalBreak.stopped,endingBreakKey.keys,endingBreakKey.rt,endingBreakKey.duration,connection.started,connection.stopped,connectionEnding.keys,connectionEnding.rt,connectionEnding.duration,readyForText.started,readyForText.stopped,textPre.started,run_dup,textPre.stopped,continuousResponses_text,textRunLoop.thisRepN,textRunLoop.thisTrialN,textRunLoop.thisN,textRunLoop.thisIndex,textRunLoop.ran,text1_1,text1_2,text2_1,text2_2,runBreakText.started,runBreakText.stopped,endingBreakKey_2.keys,endingBreakKey_2.rt,endingBreakKey_2.duration,ending.started,ending.stopped,endingEnding.keys,endingEnding.rt,endingEnding.duration
social,0.0004,5.8031,y,5.4942,,63d162577b5966c2fb4cf57b,2024-05-13_11h50.50.577,group3.1-3.2-social-tom,2023.2.2,Win32,60.24096386,65c5074098b851296ff0b7ed,6642368c72d9f656333d83fd,,,,,,,,,,,,,,,,,,,,,,,,,,,,,,,,,,,,,,,,,,,,,,,,,,,,,,,,,,,,,,,,,,,,,,,,,,,,,,,,,,,,,,,,,,,,,,,,,,,,,,,,,,
,,,,,,63d162577b5966c2fb4cf57b,2024-05-13_11h50.50.577,group3.1-3.2-social-tom,2023.2.2,Win32,60.24096386,65c5074098b851296ff0b7ed,6642368c72d9f656333d83fd,5.8035,11.2682,space,5.4168,,,,,,,,,,,,,,,,,,,,,,,,,,,,,,,,,,,,,,,,,,,,,,,,,,,,,,,,,,,,,,,,,,,,,,,,,,,,,,,,,,,,,,,,,,,,,,,,,,,,,,
,,,,,,63d162577b5966c2fb4cf57b,2024-05-13_11h50.50.577,group3.1-3.2-social-tom,2023.2.2,Win32,60.24096386,65c5074098b851296ff0b7ed,6642368c72d9f656333d83fd,,,,,,11.2683,20.8848,space,9.2894,,,,,,,,,,,,,,,,,,,,,,,,,,,,,,,,,,,,,,,,,,,,,,,,,,,,,,,,,,,,,,,,,,,,,,,,,,,,,,,,,,,,,,,,,,,,,,,,,
,,,,,,63d162577b5966c2fb4cf57b,2024-05-13_11h50.50.577,group3.1-3.2-social-tom,2023.2.2,Win32,60.24096386,65c5074098b851296ff0b7ed,6642368c72d9f656333d83fd,,,,,,,,,,,20.8941,31.2183,space,10.3116,,[-0.2375],[-0.42592592592592593],[1],[0],[0],[9.907999999999987],0,0,0,0,1,,,,,,,,,,,,,,,,,,,,,,,,,,,,,,,,,,,,,,,,,,,,,,,,,,,,,,,,,,,,,,,,,,,,,,,,,,,,,,,,
,,,,,,63d162577b5966c2fb4cf57b,2024-05-13_11h50.50.577,group3.1-3.2-social-tom,2023.2.2,Win32,60.24096386,65c5074098b851296ff0b7ed,6642368c72d9f656333d83fd,,,,,,,,,,,31.2192,44.2343,space,12.8614,,[],[],[],[],[],[],1,0,1,0,1,,,,,,,,,,,,,,,,,,,,,,,,,,,,,,,,,,,,,,,,,,,,,,,,,,,,,,,,,,,,,,,,,,,,,,,,,,,,,,,,
,,,,,,63d162577b5966c2fb4cf57b,2024-05-13_11h50.50.577,group3.1-3.2-social-tom,2023.2.2,Win32,60.24096386,65c5074098b851296ff0b7ed,6642368c72d9f656333d83fd,,,,,,,,,,,44.2567,55.0175,space,10.7052,,[],[],[],[],[],[],2,0,2,0,1,,,,,,,,,,,,,,,,,,,,,,,,,,,,,,,,,,,,,,,,,,,,,,,,,,,,,,,,,,,,,,,,,,,,,,,,,,,,,,,,
,,,,,,63d162577b5966c2fb4cf57b,2024-05-13_11h50.50.577,group3.1-3.2-social-tom,2023.2.2,Win32,60.24096386,65c5074098b851296ff0b7ed,6642368c72d9f656333d83fd,,,,,,,,,,,55.0369,73.7167,space,18.6418,,[],[],[],[],[],[],3,0,3,0,1,,,,,,,,,,,,,,,,,,,,,,,,,,,,,,,,,,,,,,,,,,,,,,,,,,,,,,,,,,,,,,,,,,,,,,,,,,,,,,,,
,,,,,,63d162577b5966c2fb4cf57b,2024-05-13_11h50.50.577,group3.1-3.2-social-tom,2023.2.2,Win32,60.24096386,65c5074098b851296ff0b7ed,6642368c72d9f656333d83fd,,,,,,,,,,,73.7355,78.2498,space,4.4945,,[],[],[],[],[],[],4,0,4,0,1,,,,,,,,,,,,,,,,,,,,,,,,,,,,,,,,,,,,,,,,,,,,,,,,,,,,,,,,,,,,,,,,,,,,,,,,,,,,,,,,
,,,,,,63d162577b5966c2fb4cf57b,2024-05-13_11h50.50.577,group3.1-3.2-social-tom,2023.2.2,Win32,60.24096386,65c5074098b851296ff0b7ed,6642368c72d9f656333d83fd,,,,,,,,,,,,,,,,,,,,,,,,,,,78.2638,80.8332,80.87,1,audio/Narrative13Situation2.wav,82.8837,,82.8841,112.6337,"[[999,1],[999,132],[999,215],[999,298],[999,381],[999,465],[999,548],[999,632],[999,715],[999,798],[999,881],[999,965],[999,1048],[999,1132],[999,1215],[999,1298],[999,1382],[999,1465],[999,1548],[999,1632],[999,1715],[999,1798],[999,1882],[999,1965],[999,2048],[999,2132],[999,2215],[999,2298],[999,2382],[999,2465],[999,2548],[999,2632],[999,2715],[999,2798],[999,2882],[999,2965],[999,3048],[999,3132],[999,3215],[999,3298],[999,3382],[999,3465],[999,3549],[999,3632],[999,3715],[999,3798],[999,3882],[999,3965],[999,4048],[999,4132],[999,4215],[999,4299],[999,4382],[999,4465],[999,4548],[999,4631],[999,4715],[999,4798],[999,4888],[999,4965],[999,5048],[999,5132],[999,5215],[999,5298],[999,5381],[999,5465],[999,5548],[999,5632],[999,5715],[999,5799],[999,5881],[999,5965],[999,6048],[999,6132],[999,6215],[999,6298],[999,6382],[999,6465],[999,6548],[999,6632],[999,6715],[999,6798],[999,6882],[999,6965],[999,7048],[999,7132],[999,7215],[999,7298],[999,7381],[999,7465],[999,7548],[999,7632],[999,7715],[999,7799],[999,7882],[999,7965],[999,8048],[999,8132],[999,8215],[999,8298],[999,8382],[999,8465],[999,8548],[999,8632],[999,8715],[999,8798],[999,8882],[999,8965],[999,9048],[999,9132],[999,9215],[999,9298],[999,9381],[999,9465],[999,9548],[999,9631],[999,9715],[999,9798],[999,9882],[999,9965],[999,10048],[999,10131],[999,10215],[999,10298],[999,10382],[999,10465],[999,10548],[999,10632],[999,10715],[999,10798],[999,10881],[999,10965],[999,11048],[999,11132],[999,11215],[999,11298],[999,11382],[999,11465],[999,11548],[999,11631],[999,11715],[999,11798],[999,11881],[999,11965],[999,12048],[999,12131],[999,12215],[999,12298],[999,12381],[999,12465],[999,12548],[999,12631],[999,12715],[999,12798],[999,12882],[999,12965],[999,13048],[999,13131],[999,13215],[999,13298],[999,13381],[999,13465],[999,13548],[999,13631],[999,13715],[999,13798],[999,13882],[999,13965],[999,14048],[999,14131],[999,14215],[999,14298],[999,14381],[999,14465],[999,14548],[999,14632],[999,14715],[999,14798],[999,14882],[999,14965],[999,15048],[999,15131],[999,15215],[999,15298],[999,15381],[999,15465],[999,15548],[999,15632],[999,15715],[999,15798],[999,15882],[38.4,15965],[38.6,16048],[38.6,16131],[37.9,16215],[37.4,16298],[37.4,16381],[36.4,16465],[32,16548],[29.7,16631],[27.9,16715],[20.8,16798],[19.4,16881],[19.4,16965],[19.4,17048],[19.4,17131],[19.4,17215],[19.4,17298],[19.4,17381],[19.4,17464],[19.4,17548],[19.4,17631],[19.4,17714],[19.4,17798],[19.4,17881],[19.4,17964],[19.4,18048],[19.4,18131],[19.4,18214],[19.4,18298],[19.4,18381],[19.4,18465],[19.4,18548],[19.9,18631],[19.9,18714],[19.9,18798],[19.9,18881],[19.9,18964],[19.9,19048],[19.9,19131],[19.9,19214],[19.9,19298],[19.9,19381],[19.9,19464],[19.9,19548],[19.9,19631],[19.9,19714],[13.6,19798],[13.2,19881],[13.2,19964],[12.9,20048],[9.6,20131],[8.1,20214],[8.1,20298],[8.1,20381],[8.1,20464],[8.1,20548],[9.3,20631],[11.7,20715],[13.8,20798],[14.9,20881],[14.9,20964],[14.9,21048],[14.9,21131],[14.9,21214],[14.9,21298],[14.9,21381],[14.9,21464],[14.9,21548],[14.9,21631],[14.9,21714],[13.6,21798],[12,21881],[10.3,21965],[9.4,22048],[9.3,22131],[9.3,22214],[9.3,22298],[9.3,22381],[9.3,22464],[9.3,22548],[9.3,22631],[9.3,22714],[9.3,22798],[9.3,22881],[9.3,22964],[10.4,23048],[14.1,23131],[16.6,23215],[8,23548],[7.6,23631],[7.2,23715],[6.9,23798],[6.9,23881],[6.9,23964],[7.8,24048],[7.9,24131],[7.9,24214],[7.9,24298],[7.9,24381],[7.9,24464],[7.9,24548],[7.9,24631],[7.9,24714],[7.9,24798],[7.9,24881],[7.9,24964],[7.9,25048],[7.9,25131],[7.9,25214],[7.9,25298],[7.9,25381],[7.9,25464],[7.9,25548],[7.9,25631],[7.9,25714],[7.9,25798],[7.9,25881],[7.9,25964],[8.3,26047],[8.3,26131],[8.3,26214],[8.3,26298],[8.3,26381],[8.3,26464],[8.3,26548],[8.3,26631],[8.3,26714],[8.9,26798],[9.5,26881],[9.5,26964],[9.9,27048],[9.9,27131],[10,27214],[10.4,27298],[10.4,27381],[10.4,27464],[10.4,27547],[10.4,27631],[10.4,27715],[10.4,27798],[10.4,27881],[10.4,27964],[10.4,28048],[11.3,28131],[12.8,28214],[14.2,28298],[16,28381],[16.4,28464],[16.4,28547],[16.4,28631],[16.6,28715],[17.9,28798],[18.8,28881],[20.1,28964],[20.5,29048],[20.5,29131],[20.5,29214],[20.5,29298],[20.5,29381],[20.5,29464],[21.7,29548],[22.3,29631],[22.8,29715]]",1,0,112.6342,119.2663,13.22916667,6.2407,"[{""rating"":25.208333333333332,""responseTime"":3.224800000071525},{""rating"":18.333333333333336,""responseTime"":5.8008000000715185},{""rating"":13.229166666666664,""responseTime"":6.240700000047667}]",space,6.0876,,119.2668,Definitely yes,100,119.2753,,,[],,0,0,0,0,1,audio/Narrative13Situation2.wav,audio/Narrative13Situation2.wav,audio/Narrative13Situation2.wav,audio/Narrative13Situation2.wav,2,2,2,2,,,,,,,,,,,,,,,,,,,,,,,,,,,,,,,,,,,,,,,
,,,,,,63d162577b5966c2fb4cf57b,2024-05-13_11h50.50.577,group3.1-3.2-social-tom,2023.2.2,Win32,60.24096386,65c5074098b851296ff0b7ed,6642368c72d9f656333d83fd,,,,,,,,,,,,,,,,,,,,,,,,,,,,,119.2759,1,audio/Narrative8Situation1.wav,121.1155,space,121.1156,137.0482,"[[19.1,583],[21.8,666],[22.8,749],[25,833],[25.1,916],[25.1,999],[25.1,1082],[24.2,1166],[23.2,1249],[23.1,1332],[23.1,1416],[23.1,1499],[23.1,1582],[23.1,1666],[23.1,1749],[23.1,1832],[23.1,1916],[23.1,1999],[23.1,2082],[23.1,2166],[23.1,2249],[23.1,2332],[23.1,2416],[23.1,2499],[25.2,2583],[25.6,2666],[27.7,2749],[29,2832],[29,2916],[29,2999],[29,3082],[29.3,3166],[30.1,3249],[30.1,3332],[30.1,3416],[30.1,3499],[30.1,3582],[30.1,3666],[32.4,3749],[32.4,3832],[32.4,3916],[32.7,3999],[32.7,4082],[32.7,4166],[32.7,4249],[32.7,4332],[32.7,4415],[32.7,4499],[32.7,4582],[32.7,4666],[32.7,4749],[32.7,4832],[32.7,4916],[32.7,4999],[32.7,5082],[32.7,5166],[32.7,5249],[32.7,5332],[32.7,5416],[32.7,5499],[32.7,5582],[32.7,5666],[32.7,5749],[32.7,5832],[32.7,5916],[32.7,5999],[32.7,6082],[32.7,6166],[32.7,6249],[32.7,6332],[32.1,6416],[31.6,6499],[31.5,6582],[31.5,6665],[31.5,6749],[31.5,6832],[31.5,6915],[31.5,6999],[31.5,7082],[31.5,7166],[31.5,7249],[31.5,7332],[31.5,7415],[31.3,7499],[31.1,7582],[31,7665],[30.8,7749],[30.3,7832],[30,7915],[30,7999],[29.9,8082],[29.7,8166],[29.7,8249],[29.6,8332],[29.6,8416],[29.4,8499],[28.3,8582],[27.7,8665],[27.7,8749],[27.7,8832],[27.7,8915],[27.7,8999],[27.7,9082],[27.7,9165],[27.7,9249],[27.7,9332],[27.7,9415],[27.7,9499],[27.7,9582],[29.5,9666],[34.7,9749],[37.6,9832],[43.8,9916],[49.1,9999],[53.8,10082],[69.1,10166],[81.3,10249],[91.4,10332],[96.7,10416],[97.1,10499],[97.1,10582],[98.8,10665],[98.8,10749],[98.8,10832],[98.8,10915],[98.8,10999],[98.8,11082],[98.8,11165],[98.8,11249],[98.8,11332],[98.8,11415],[98.8,11499],[98.8,11582],[98.8,11665],[98.8,11749],[98.8,11832],[98.8,11915],[98.8,11999],[98.8,12082],[98.8,12165],[98.8,12249],[98.8,12332],[98.8,12415],[98.8,12499],[98.8,12582],[98.8,12665],[98.8,12749],[98.8,12832],[98.8,12915],[98.8,12999],[98.8,13082],[97.6,13166],[96.8,13249],[95.8,13332],[93.6,13416],[93.1,13499],[93.1,13582],[93.1,13665],[93.1,13749],[93.1,13832],[93.1,13915],[93.1,13999],[93.1,14082],[93.1,14165],[93.1,14249],[93.1,14332],[93.1,14415],[93.1,14499],[93.1,14582],[93.1,14665],[93.1,14749],[93.1,14832],[93.1,14915],[93.1,14999],[93.1,15082],[93.1,15165],[93.1,15249],[93.1,15332],[93.1,15415],[93.1,15499],[93.1,15582],[93.1,15665],[93.1,15749],[93.1,15832],[93.1,15915]]",1,0,137.0485,140.365,93.22916667,1.303,"[{""rating"":93.22916666666667,""responseTime"":1.3029999999999973}]",space,2.7772,,140.3651,Definitely yes,100,140.3685,,,[],,0,1,1,1,1,audio/Narrative7Situation1.wav,audio/Narrative8Situation1.wav,audio/Narrative5Situation1.wav,audio/Narrative6Situation1.wav,2,5,5,2,1.803,,,,,,,,,,,,,,,,,,,,,,,,,,,,,,,,,,,,,,
,,,,,,63d162577b5966c2fb4cf57b,2024-05-13_11h50.50.577,group3.1-3.2-social-tom,2023.2.2,Win32,60.24096386,65c5074098b851296ff0b7ed,6642368c72d9f656333d83fd,,,,,,,,,,,,,,,,,,,,,,,,,,,,,140.369,1,audio/Narrative8Situation2.wav,143.3815,,143.3816,153.5145,"[[999,17],[999,83],[999,166],[999,250],[999,333],[999,416],[999,499],[999,583],[999,666],[999,749],[999,833],[999,916],[999,999],[999,1082],[999,1166],[999,1250],[999,1333],[999,1416],[46.6,1500],[47.1,1583],[47.4,1666],[49.4,1749],[49.4,1832],[49.4,1916],[49.4,1999],[49.4,2082],[49.4,2166],[49.4,2249],[49.4,2332],[49.4,2416],[49.4,2499],[47.9,2583],[47.2,2666],[46.8,2749],[46.8,2832],[46.8,2916],[46.8,2999],[46.8,3082],[46.8,3166],[45.2,3249],[43.5,3333],[43.1,3416],[42.7,3499],[42.7,3582],[42.6,3666],[41.5,3749],[41.4,3832],[40.9,3916],[40,3999],[39.9,4083],[38.8,4166],[36.4,4249],[34.7,4333],[33.3,4416],[32.2,4499],[31.8,4583],[31.1,4666],[30.9,4749],[30.9,4832],[30.9,4916],[30.9,4999],[30.9,5082],[30.9,5166],[30.7,5249],[30.7,5332],[30.7,5416],[30.6,5499],[29.3,5583],[29.3,5665],[27.7,5749],[27.3,5832],[26.9,5916],[26.1,5999],[25.4,6083],[25,6166],[25,6249],[25,6332],[24.8,6416],[24.7,6499],[24.7,6582],[24.7,6665],[24.7,6749],[24.7,6832],[24.7,6916],[24.7,6999],[24.7,7082],[24.7,7166],[24.7,7249],[24.7,7332],[24.7,7416],[24.7,7499],[24.7,7582],[24.7,7666],[24.7,7749],[24.7,7832],[24.7,7916],[24.7,7999],[24.7,8082],[24.7,8166],[24.7,8249],[24.7,8332],[23.8,8416],[22.8,8499],[21.1,8583],[20.6,8666],[19.4,8749],[18.5,8832],[18.4,8916],[18.1,8999],[18,9082],[18,9165],[18,9249],[18,9332],[18,9415],[18,9499],[18,9582],[17.6,9666],[14.3,9749],[13.5,9833],[9.1,9916],[8.5,9999],[6.1,10083]]",1,0,153.5147,155.2478,4.166666667,1.0536,"[{""rating"":4.166666666666669,""responseTime"":1.0536000000238346}]",space,1.2043,,155.2479,Partially,50,155.2539,,,[],,0,2,2,2,1,audio/Narrative7Situation2.wav,audio/Narrative8Situation2.wav,audio/Narrative5Situation2.wav,audio/Narrative6Situation2.wav,3,3,3,3,,,,,,,,,,,,,,,,,,,,,,,,,,,,,,,,,,,,,,,
,,,,,,63d162577b5966c2fb4cf57b,2024-05-13_11h50.50.577,group3.1-3.2-social-tom,2023.2.2,Win32,60.24096386,65c5074098b851296ff0b7ed,6642368c72d9f656333d83fd,,,,,,,,,,,,,,,,,,,,,,,,,,,,,155.2544,1,audio/Narrative8Situation3.wav,159.2643,,159.2644,181.6475,"[[999,10],[999,83],[999,166],[999,250],[999,333],[999,416],[999,500],[999,583],[999,666],[999,749],[999,833],[999,916],[999,1000],[999,1083],[999,1166],[999,1249],[999,1333],[999,1417],[999,1500],[42.5,1583],[42.4,1666],[42.6,1750],[42.7,1833],[42.7,1916],[42.7,1999],[42.7,2083],[42.7,2166],[40.2,2250],[37.8,2333],[37.8,2416],[34.3,2500],[30.1,2583],[26.4,2666],[23.1,2750],[21.1,2832],[20.9,2916],[19.9,3000],[19.3,3083],[19.2,3166],[19.2,3249],[19.5,3333],[20.2,3416],[22.1,3500],[24.5,3583],[26.3,3666],[28.5,3750],[30.8,3833],[33.6,3916],[35.4,4000],[37.7,4083],[42.1,4166],[46.5,4250],[49.1,4333],[51.5,4416],[55.2,4500],[58,4583],[58.5,4666],[61.5,4750],[63.1,4833],[63.3,4916],[63.3,5000],[63.3,5083],[63.3,5166],[63.3,5249],[63.3,5333],[64.2,5416],[64.3,5500],[64.5,5582],[64.5,5666],[64.3,5750],[62.1,5833],[60.2,5916],[58.5,6000],[57.3,6083],[55.6,6166],[54.6,6249],[52.6,6333],[52,6416],[51.1,6500],[50.2,6583],[49.9,6666],[48.8,6750],[48.4,6833],[48.4,6916],[48.4,6999],[48.3,7083],[48,7166],[47.1,7249],[47,7332],[47,7416],[47,7499],[47,7582],[47,7666],[47,7749],[46.7,7832],[46.7,7916],[46.7,7999],[46.7,8082],[46.7,8166],[47.1,8250],[47.9,8333],[48.3,8416],[48.3,8499],[48.3,8582],[48.2,8666],[47.4,8749],[46,8833],[45.6,8916],[45.2,8999],[45.2,9082],[45.3,9166],[46.3,9250],[47.1,9333],[47.9,9416],[48.9,9499],[49.7,9583],[49.8,9666],[49.8,9749],[49.8,9833],[49.5,9916],[47.9,10000],[46.9,10083],[44.6,10166],[42.4,10250],[39.7,10333],[38.2,10416],[35.8,10500],[33.9,10583],[31.8,10666],[30.2,10749],[28.4,10833],[26.1,10916],[24.5,11000],[23.3,11083],[22.3,11166],[22.2,11249],[22.2,11332],[22.2,11416],[21.7,11499],[21.7,11582],[21.7,11666],[21.7,11749],[21.7,11832],[21.7,11916],[21.7,11999],[21.7,12082],[21.7,12166],[21.7,12249],[21.7,12332],[21.7,12416],[21.7,12499],[21.7,12582],[21.7,12666],[21.7,12749],[21.7,12832],[21.7,12916],[21.7,12999],[21.7,13082],[21.7,13166],[21.7,13249],[21.7,13333],[21.7,13416],[21.7,13499],[21.7,13582],[21.7,13666],[21.7,13749],[21.7,13832],[23.2,13916],[24,13999],[24,14082],[24.4,14166],[24.4,14249],[24.6,14332],[25.7,14416],[27.2,14499],[27.9,14583],[28.8,14666],[29.1,14749],[29.1,14832],[29.2,14916],[29.6,14999],[29.6,15082],[29.6,15166],[29.6,15249],[29.6,15332],[29.6,15416],[29.6,15499],[29.6,15582],[29.6,15666],[29.6,15749],[29.6,15832],[29.6,15916],[29.6,15999],[29.6,16082],[29.6,16166],[29.6,16249],[29.6,16332],[29.6,16416],[29.6,16499],[29.6,16582],[29.6,16666],[29.6,16749],[29.6,16832],[29.6,16916],[29.6,16999],[29.6,17082],[29.6,17166],[29.6,17249],[29.6,17332],[29.6,17416],[29.6,17499],[29.6,17582],[29.6,17666],[29.6,17749],[29.6,17832],[29.6,17916],[29.6,17999],[29.6,18082],[29.6,18166],[29.6,18249],[29.6,18332],[29.6,18416],[29.6,18499],[29.6,18582],[29.6,18666],[29.6,18749],[29.6,18832],[29.6,18915],[29.6,18999],[29.6,19082],[29.6,19165],[29.6,19249],[29.6,19332],[29.6,19416],[29.6,19499],[29.6,19582],[29.6,19666],[29.6,19749],[29.6,19832],[29.6,19916],[29.6,19999],[29.6,20082],[29.6,20166],[29.6,20249],[29.7,20333],[30.8,20416],[31.4,20499],[33.4,20583],[33.4,20666],[33.4,20749],[33.4,20832],[33.4,20916],[33.4,20999],[33.4,21082],[33.4,21166],[33.4,21249],[33.4,21332],[33.4,21416],[33.4,21499],[33.4,21582],[33.4,21666],[33.4,21749],[33.4,21832],[33.4,21915],[33.4,21999],[33.4,22082],[33.4,22166],[33.4,22249],[33.4,22332]]",1,0,181.6479,183.5137,33.33333333,0.9712,"[{""rating"":33.333333333333336,""responseTime"":0.9712000000477019}]",space,1.3221,,183.5139,Partially,50,183.5169,,,[],,0,3,3,3,1,audio/Narrative7Situation3.wav,audio/Narrative8Situation3.wav,audio/Narrative5Situation3.wav,audio/Narrative6Situation3.wav,8,4,3,5,,,,,,,,,,,,,,,,,,,,,,,,,,,,,,,,,,,,,,,
,,,,,,63d162577b5966c2fb4cf57b,2024-05-13_11h50.50.577,group3.1-3.2-social-tom,2023.2.2,Win32,60.24096386,65c5074098b851296ff0b7ed,6642368c72d9f656333d83fd,,,,,,,,,,,,,,,,,,,,,,,,,,,,,183.5173,1,audio/Narrative8Situation4.wav,186.5303,,186.5304,200.7134,"[[37.6,6333],[39.8,6416],[39.9,6499],[39.9,6582],[39.9,6666],[39.9,6749],[39.9,6832],[39.9,6916],[39.9,6999],[39.9,7082],[39.9,7166],[39.9,7249],[39.9,7332],[39.9,7416],[39.9,7499],[39.9,7582],[39.9,7666],[39.9,7749],[39.9,7832],[39.9,7916],[39.9,7999],[39.9,8082],[39.9,8166],[39.9,8249],[39.9,8332],[39.9,8416],[39.9,8499],[49.9,8583],[66.8,8666],[67.2,8750],[69.4,8833],[73.4,8916],[82.3,8999],[83.4,9082],[83.4,9166],[88,9249],[88.1,9332],[88.1,9416],[88.6,9499],[90.1,9583],[90.2,9666],[90.4,9749],[90.8,9833],[92.6,9916],[95.1,9999],[97,10082],[97,10166],[97.9,10249],[98.6,10332],[98.6,10416],[98.6,10499],[98.6,10582],[98.6,10665],[98.6,10749],[98.6,10832],[98.6,10916],[98.6,10999],[98.6,11082],[98.6,11166],[98.6,11249],[98.6,11332],[98.6,11416],[98.6,11499],[98.6,11582],[98.6,11666],[98.6,11749],[98.6,11832],[98.6,11916],[98.6,11999],[98.6,12082],[98.6,12166],[98.6,12249],[98.6,12332],[98.6,12416],[98.6,12499],[98.6,12582],[98.6,12666],[98.6,12749],[98.6,12832],[98.6,12916],[98.6,12999],[98.6,13082],[98.6,13166],[98.6,13249],[98.6,13332],[98.6,13415],[98.6,13499],[98.6,13582],[98.6,13666],[98.6,13749],[98.6,13832],[98.6,13916],[98.6,13999],[98.6,14082],[98.6,14166]]",1,0,200.7136,203.5465,98.95833333,1.4872,"[{""rating"":98.95833333333333,""responseTime"":1.487199999928464}]",space,2.2862,,203.5467,Not at all,0,203.553,,,[],,0,4,4,4,1,audio/Narrative7Situation4.wav,audio/Narrative8Situation4.wav,audio/Narrative5Situation4.wav,audio/Narrative6Situation4.wav,3,3,1,2,,,,,,,,,,,,,,,,,,,,,,,,,,,,,,,,,,,,,,,
,,,,,,63d162577b5966c2fb4cf57b,2024-05-13_11h50.50.577,group3.1-3.2-social-tom,2023.2.2,Win32,60.24096386,65c5074098b851296ff0b7ed,6642368c72d9f656333d83fd,,,,,,,,,,,,,,,,,,,,,,,,,,,,,203.5533,1,audio/Narrative8Situation5.wav,205.5629,,205.5629,213.7964,"[[999,0],[999,83],[999,166],[999,250],[999,333],[999,416],[999,500],[999,583],[999,666],[999,750],[999,833],[999,916],[999,1000],[999,1083],[999,1166],[999,1250],[999,1333],[999,1416],[999,1500],[999,1583],[999,1666],[999,1750],[999,1833],[999,1916],[999,2000],[999,2083],[999,2166],[999,2250],[999,2333],[999,2416],[999,2500],[999,2583],[999,2666],[999,2750],[999,2833],[999,2916],[999,3000],[999,3083],[999,3166],[999,3250],[999,3333],[999,3416],[999,3500],[999,3583],[999,3666],[999,3750],[999,3833],[999,3916],[999,3999],[999,4083],[999,4166],[999,4250],[999,4333],[999,4416],[999,4500],[999,4583],[999,4666],[999,4750],[999,4833],[999,4916],[999,5000],[999,5083],[999,5166],[999,5250],[999,5333],[999,5416],[999,5500],[999,5583],[999,5666],[999,5750],[999,5833],[999,5916],[999,6000],[999,6083],[999,6166],[999,6250],[999,6333],[999,6416],[999,6500],[999,6583],[999,6666],[999,6750],[999,6833],[999,6916],[999,7000],[999,7083],[999,7166],[999,7250],[999,7333],[999,7416],[999,7500],[999,7583],[999,7666],[999,7750],[999,7833],[999,7916],[999,8000],[999,8083],[999,8166]]",1,0,213.7966,227.9292,21.04166667,13.2174,"[{""rating"":33.75,""responseTime"":12.27020000004768},{""rating"":21.041666666666664,""responseTime"":13.21739999997618}]",space,13.597,,227.9294,Partially,50,227.9343,,,[],,0,5,5,5,1,audio/Narrative7Situation5.wav,audio/Narrative8Situation5.wav,audio/Narrative5Situation5.wav,audio/Narrative6Situation5.wav,5,2,5,2,,,,,,,,,,,,,,,,,,,,,,,,,,,,,,,,,,,,,,,
,,,,,,63d162577b5966c2fb4cf57b,2024-05-13_11h50.50.577,group3.1-3.2-social-tom,2023.2.2,Win32,60.24096386,65c5074098b851296ff0b7ed,6642368c72d9f656333d83fd,,,,,,,,,,,,,,,,,,,,,,,,,,,,,227.9346,1,audio/Narrative8Situation6.wav,229.9459,,229.946,236.4291,"[[22.4,500],[18.6,583],[19.3,666],[23,749],[23.2,833],[23.2,916],[23.2,999],[23.2,1083],[23.2,1166],[32.1,1250],[38,1333],[39.4,1416],[39.4,1499],[39.4,1583],[39.4,1666],[39.4,1749],[39.4,1833],[39.4,1916],[39.4,1999],[57,2083],[78.6,2166],[89.2,2250],[93,2333],[93,2416],[93.4,2499],[93.4,2583],[93.4,2666],[93.4,2749],[93.4,2833],[93.4,2916],[93.4,2999],[93.4,3083],[93.4,3166],[93.4,3249],[93.4,3333],[93.4,3416],[93.4,3499],[93.4,3582],[93.4,3666],[93.4,3749],[93.4,3833],[93.4,3916],[93.4,3999],[93.4,4083],[93.4,4166],[93.4,4249],[93.4,4333],[93.4,4416],[93.4,4499],[93.4,4583],[93.4,4666],[93.4,4749],[93.4,4833],[93.4,4916],[93.4,4999],[93.4,5082],[93.4,5166],[93.4,5249],[93.4,5333],[93.4,5416],[93.4,5499],[93.4,5583],[93.4,5666],[93.4,5749],[93.4,5833],[93.4,5916],[93.4,5999],[93.4,6083],[93.4,6166],[93.4,6249],[93.4,6332],[93.4,6416]]",1,0,236.4292,238.8958,93.4375,1.2402,"[{""rating"":93.4375,""responseTime"":1.2401999999285067}]",space,1.9177,,238.8959,Partially,50,238.8993,,,[],,0,6,6,6,1,audio/Narrative7Situation6.wav,audio/Narrative8Situation6.wav,audio/Narrative5Situation6.wav,audio/Narrative6Situation6.wav,3,2,3,2,,,,,,,,,,,,,,,,,,,,,,,,,,,,,,,,,,,,,,,
,,,,,,63d162577b5966c2fb4cf57b,2024-05-13_11h50.50.577,group3.1-3.2-social-tom,2023.2.2,Win32,60.24096386,65c5074098b851296ff0b7ed,6642368c72d9f656333d83fd,,,,,,,,,,,,,,,,,,,,,,,,,,,,,238.8998,1,audio/Narrative8Situation7.wav,241.9122,,241.9122,253.9953,[],1,0,253.9955,265.1284,30.72916667,10.3133,"[{""rating"":54.166666666666664,""responseTime"":6.483599999904641},{""rating"":36.25,""responseTime"":9.62079999995234},{""rating"":30.729166666666664,""responseTime"":10.313299999952335}]",space,10.59,,265.1285,Not at all,0,265.1339,,,[],,0,7,7,7,1,audio/Narrative7Situation7.wav,audio/Narrative8Situation7.wav,audio/Narrative5Situation7.wav,audio/Narrative6Situation7.wav,5,3,4,5,,,,,,,,,,,,,,,,,,,,,,,,,,,,,,,,,,,,,,,
,,,,,,63d162577b5966c2fb4cf57b,2024-05-13_11h50.50.577,group3.1-3.2-social-tom,2023.2.2,Win32,60.24096386,65c5074098b851296ff0b7ed,6642368c72d9f656333d83fd,,,,,,,,,,,,,,,,,,,,,,,,,,,,,265.1343,1,audio/Narrative8Situation8.wav,268.1449,,268.145,281.0114,"[[31.4,3600],[36,3683],[42.1,3766],[43.1,3849],[43.1,3932],[43.1,4016],[43.1,4099],[43.1,4183],[43.1,4266],[43.1,4349],[43.1,4432],[43.1,4516],[44.7,4600],[45.5,4683],[46.9,4766],[48.5,4849],[48.6,4933],[48.6,5016],[48.6,5099],[48.5,5182],[48.5,5266],[48.5,5349],[48.4,5432],[47.5,5516],[47.1,5599],[47.1,5682],[47.1,5766],[46.6,5849],[44.6,5933],[44.3,6016],[44.3,6099],[44.3,6182],[44.3,6266],[44.3,6349],[44.3,6432],[44.3,6516],[44.3,6599],[44.3,6682],[44.3,6766],[44.3,6849],[44.3,6932],[44.3,7016],[44.3,7099],[44.2,7182],[44,7266],[42.6,7350],[42,7432],[42,7516],[42,7599],[42,7682],[42,7766],[42,7849],[42,7932],[42,8016],[42,8099],[42,8182],[42,8266],[42,8349],[42,8432],[42,8516],[42,8599],[42,8682],[42,8766],[42,8849],[42,8932],[42,9016],[42,9099],[42,9182],[41,9266],[40.9,9349],[40.9,9432],[40.9,9516],[40.9,9599],[40.9,9682],[40.9,9766],[40.9,9849],[40.9,9932],[40.9,10016],[40.9,10099],[40.9,10182],[40.9,10266],[40.9,10349],[40.9,10432],[40.9,10516],[40.9,10599],[40.9,10682],[43,10766],[44.9,10849],[46.4,10933],[47,11016],[47,11099],[47,11182],[47,11266],[47,11349],[47,11432],[47,11516],[47,11599],[47,11682],[47,11766],[47,11849],[47,11932],[47,12016],[47,12099],[47,12182],[45.6,12266],[44.5,12349],[44.5,12432],[44.5,12516],[44.5,12599],[44.5,12682],[44.5,12766],[44.5,12849]]",1,0,281.0116,283.6612,62.91666667,1.7271,"[{""rating"":62.916666666666664,""responseTime"":1.7271000000238246}]",space,2.1083,,283.6614,Not at all,0,283.6647,,,[],,0,8,8,8,1,audio/Narrative7Situation8.wav,audio/Narrative8Situation8.wav,audio/Narrative5Situation8.wav,audio/Narrative6Situation8.wav,2,3,3,5,,,,,,,,,,,,,,,,,,,,,,,,,,,,,,,,,,,,,,,
,,,,,,63d162577b5966c2fb4cf57b,2024-05-13_11h50.50.577,group3.1-3.2-social-tom,2023.2.2,Win32,60.24096386,65c5074098b851296ff0b7ed,6642368c72d9f656333d83fd,,,,,,,,,,,,,,,,,,,,,,,,,,,,,283.665,1,audio/Narrative8Situation9.wav,286.6778,,286.6778,297.9944,"[[58.6,7337],[47.1,7416],[46.8,7499],[46.3,7583],[44.7,7666],[44.7,7749],[44.7,7832],[44.7,7916],[44.7,7999],[44.7,8083],[44.7,8166],[44.7,8249],[44.7,8333],[44.7,8416],[44.7,8499],[44.7,8583],[43.8,8666],[42.6,8749],[42.6,8833],[42.6,8916],[37.3,9000],[34.4,9083],[34.4,9166],[36.8,9250],[50.9,9333],[60.9,9416],[62.9,9499],[63,9583],[63,9666],[60.8,9750],[54.2,9833],[53.8,9916],[53.8,9999],[53.8,10083],[46.4,10166],[46,10249],[46,10333],[46,10416],[46,10499],[46,10582],[46,10666],[46,10749],[46,10833],[46,10916],[46,10999],[46,11083],[46,11166],[46,11249]]",1,0,297.9946,300.0106,45.83333333,1.2885,"[{""rating"":45.83333333333333,""responseTime"":1.288499999999999}]",space,1.4747,,300.0106,Definitely yes,100,300.013,,,[],,0,9,9,9,1,audio/Narrative7Situation9.wav,audio/Narrative8Situation9.wav,audio/Narrative5Situation9.wav,audio/Narrative6Situation9.wav,2,3,3,4,,,,,,,,,,,,,,,,,,,,,,,,,,,,,,,,,,,,,,,
,,,,,,63d162577b5966c2fb4cf57b,2024-05-13_11h50.50.577,group3.1-3.2-social-tom,2023.2.2,Win32,60.24096386,65c5074098b851296ff0b7ed,6642368c72d9f656333d83fd,,,,,,,,,,,,,,,,,,,,,,,,,,,,,300.0131,1,audio/Narrative7Situation1.wav,302.0275,,302.0275,357.9259,"[[999,0],[999,83],[999,166],[999,250],[999,333],[999,416],[999,499],[999,583],[999,667],[999,750],[999,834],[999,916],[999,1000],[999,1083],[999,1166],[999,1249],[999,1333],[999,1417],[999,1499],[999,1583],[999,1666],[999,1749],[999,1833],[999,1916],[999,2000],[999,2083],[999,2166],[999,2250],[999,2333],[999,2416],[999,2499],[999,2583],[999,2666],[999,2750],[47.3,2833],[47.7,2916],[47.7,2999],[66.9,3083],[59.3,11166],[48.3,11250],[44.6,11333],[42,11416],[42,11499],[48.1,11583],[63.3,11666],[73.3,11749],[79.8,11833],[82.9,11916],[84.1,11999],[84.1,12083],[84.1,12166],[84.1,12250],[83.8,12333],[83.4,12416],[83.4,12499],[83.4,12582],[83.4,12666],[83.4,12749],[85.5,12833],[85.5,12916],[85.5,12999],[85.5,13082],[85.5,13166],[85.5,13249],[85.5,13333],[85.5,13416],[85.5,13499],[85.5,13583],[85.5,13666],[85.5,13749],[85.5,13833],[85.5,13916],[88.2,14000],[83.8,36415],[84.6,36498],[87.9,36582],[88.6,36665],[89.3,36749],[91.9,36832],[92,36915],[93.1,36999],[93.4,37082],[93.4,37165],[93.4,37249],[93.4,37332],[93.4,37415],[93.4,37498],[93,37582],[100,45499],[100,45582],[100,45665],[100,45748],[100,45831],[100,45915],[100,45998]]",1,0,357.926,364.5923,100,6.6456,"[{""rating"":100,""responseTime"":6.645600000023876}]",space,4.706,,364.5923,Not at all,0,364.5953,,,[],,0,10,10,10,1,audio/Narrative8Situation1.wav,audio/Narrative7Situation1.wav,audio/Narrative6Situation1.wav,audio/Narrative5Situation1.wav,5,2,2,5,,,,,,,,,,,,,,,,,,,,,,,,,,,,,,,,,,,,,,,
,,,,,,63d162577b5966c2fb4cf57b,2024-05-13_11h50.50.577,group3.1-3.2-social-tom,2023.2.2,Win32,60.24096386,65c5074098b851296ff0b7ed,6642368c72d9f656333d83fd,,,,,,,,,,,,,,,,,,,,,,,,,,,,,364.5955,1,audio/Narrative7Situation2.wav,367.609,,367.6091,375.0935,"[[999,0],[999,83],[999,166],[999,249],[999,333],[999,416],[999,500],[999,583],[999,666],[999,750],[999,833],[999,916],[999,999],[999,1083],[999,1166],[999,1250],[999,1333],[999,1416],[81.7,1500],[81.7,1583],[81.7,1666],[81.6,1749],[81.6,1833],[81.6,1916],[78.8,2000],[76.6,2083],[73.8,2166],[72,2250],[70.3,2333],[67.2,2416],[62.1,2499],[61,2583],[61,2666],[60.3,2750],[59.3,2833],[58.4,2916],[56.8,3000],[54.7,3083],[52.3,3166],[51.3,3249],[51.3,3333],[51.3,3416],[51.3,3499],[51.3,3583],[51.3,3666],[51.3,3749],[51.3,3833],[51.3,3916],[51.3,3999],[51.3,4083],[51.3,4166],[51.3,4249],[64.2,4333],[84.3,4416],[90.4,4499],[93,4583],[99.9,4666],[100,4749],[100,4833],[100,4916],[100,4999],[100,5082],[100,5166],[100,5249],[100,5332],[100,5416]]",1,0,375.0937,377.4256,100,2.0109,"[{""rating"":97.39583333333333,""responseTime"":1.3449999999999704},{""rating"":100,""responseTime"":2.010899999976118}]",space,1.7891,,377.4256,Partially,50,377.4282,,,[],,0,11,11,11,1,audio/Narrative8Situation2.wav,audio/Narrative7Situation2.wav,audio/Narrative6Situation2.wav,audio/Narrative5Situation2.wav,3,3,3,3,,,,,,,,,,,,,,,,,,,,,,,,,,,,,,,,,,,,,,,
,,,,,,63d162577b5966c2fb4cf57b,2024-05-13_11h50.50.577,group3.1-3.2-social-tom,2023.2.2,Win32,60.24096386,65c5074098b851296ff0b7ed,6642368c72d9f656333d83fd,,,,,,,,,,,,,,,,,,,,,,,,,,,,,377.4284,1,audio/Narrative7Situation3.wav,385.4421,,385.4421,394.7086,"[[999,18],[999,99],[999,183],[999,266],[999,349],[999,432],[999,516],[999,599],[999,682],[999,766],[999,849],[999,932],[999,1016],[999,1099],[999,1183],[999,1266],[999,1349],[999,1433],[999,1516],[999,1599],[999,1682],[999,1766],[999,1849],[999,1932],[999,2016],[999,2099],[999,2182],[999,2266],[999,2349],[999,2432],[999,2516],[999,2599],[999,2682],[999,2766],[999,2849],[999,2932],[999,3016],[999,3099],[999,3182],[999,3266],[999,3349],[999,3432],[999,3516],[999,3599],[999,3682],[999,3766],[999,3849],[999,3932],[999,4016],[999,4099],[999,4182],[999,4266],[999,4349],[999,4432],[999,4516],[999,4599],[999,4682],[999,4766],[999,4849],[999,4932],[999,5016],[999,5099],[999,5182],[999,5266],[999,5349],[999,5432],[999,5516],[999,5599],[999,5682],[999,5766],[999,5849],[999,5932],[999,6016],[999,6099],[999,6182],[999,6266],[999,6349],[999,6432],[999,6516],[999,6599],[999,6682],[999,6766],[999,6849],[999,6932],[999,7016],[999,7099],[999,7182],[999,7266],[999,7349],[999,7432],[999,7516],[999,7599],[999,7682],[999,7766],[999,7849],[999,7932],[999,8016],[999,8099],[999,8182],[999,8266],[999,8349],[999,8432],[999,8516],[999,8599],[999,8682],[999,8766],[999,8851],[999,8932],[999,9016],[999,9099],[999,9182],[999,9266]]",1,0,394.7088,401.1749,91.66666667,3.1695,"[{""rating"":80.3125,""responseTime"":2.5294999999999845},{""rating"":91.66666666666667,""responseTime"":3.169499999999971}]",space,5.9171,,401.1749,Definitely yes,100,401.1955,,,[],,0,12,12,12,1,audio/Narrative8Situation3.wav,audio/Narrative7Situation3.wav,audio/Narrative6Situation3.wav,audio/Narrative5Situation3.wav,4,8,5,3,,,,,,,,,,,,,,,,,,,,,,,,,,,,,,,,,,,,,,,
,,,,,,63d162577b5966c2fb4cf57b,2024-05-13_11h50.50.577,group3.1-3.2-social-tom,2023.2.2,Win32,60.24096386,65c5074098b851296ff0b7ed,6642368c72d9f656333d83fd,,,,,,,,,,,,,,,,,,,,,,,,,,,,,401.1959,1,audio/Narrative7Situation4.wav,404.2081,,404.2081,415.9247,"[[100,250],[92,6249],[92,6333],[91.5,6416],[90.9,6499],[92.9,6583],[96.6,6666],[96.6,6749],[96.6,6833],[96.6,6916],[96.6,6999],[96.6,7083],[97,7166],[100,7249],[86.4,8083],[93.3,8166],[99.4,8249],[98.6,8333],[98.6,8416],[95.9,8500],[94,8583],[94,8666],[94,8749],[94,8833],[94,8916],[93.9,9000],[93.2,9083],[93.2,9166],[94.1,9249],[95.6,9333],[93.6,9416],[93,9499],[93,9583],[93.4,9666],[93.4,9749],[93.4,9833],[94.2,9916]]",1,0,415.9248,421.0076,98.4375,4.3558,"[{""rating"":99.16666666666667,""responseTime"":3.911700000047688},{""rating"":98.4375,""responseTime"":4.355799999952353}]",space,4.5404,,421.0077,Partially,50,421.0115,,,[],,0,13,13,13,1,audio/Narrative8Situation4.wav,audio/Narrative7Situation4.wav,audio/Narrative6Situation4.wav,audio/Narrative5Situation4.wav,3,3,2,1,,,,,,,,,,,,,,,,,,,,,,,,,,,,,,,,,,,,,,,
,,,,,,63d162577b5966c2fb4cf57b,2024-05-13_11h50.50.577,group3.1-3.2-social-tom,2023.2.2,Win32,60.24096386,65c5074098b851296ff0b7ed,6642368c72d9f656333d83fd,,,,,,,,,,,,,,,,,,,,,,,,,,,,,421.0118,1,audio/Narrative7Situation5.wav,426.0243,,426.0244,434.5243,"[[999,6],[999,83],[999,166],[999,249],[999,333],[999,416],[999,499],[999,583],[999,666],[999,749],[999,833],[999,916],[999,999],[999,1082],[999,1166],[999,1249],[999,1333],[999,1416],[999,1499],[999,1583],[999,1666],[999,1749],[999,1833],[999,1916],[999,1999],[999,2083],[999,2166],[999,2249],[999,2333],[999,2416],[999,2499],[999,2583],[999,2666],[999,2750],[999,2833],[89.9,2916],[59.4,3082],[70.7,3166],[81,3249],[81,3333],[85.6,3416],[91.1,3499],[92.4,3582],[92.4,3666],[92.4,3749],[92.4,3832],[82.2,3916],[63.6,4000],[56.9,4083],[54.2,4166],[53.1,4250],[53,4332],[53,4416],[53,4499],[53,4582],[52.1,4666],[51.7,4749],[51.7,4832],[51.7,4916],[52,4999],[54.5,5083],[57.1,5166],[58.6,5249],[60.9,5333],[61.3,5416],[61.3,5499],[61.3,5582],[61.3,5666],[61.3,5749],[61.3,5833],[61.3,5916],[61.3,5999],[61.3,6082],[60.9,6166],[60.9,6249],[60.9,6333],[60.7,6416],[59.5,6499],[55.8,6583],[52.1,6666],[50.3,6749],[47.9,6833],[45,6916],[41.9,6999],[37.3,7083],[33.5,7166],[31.9,7249],[30.1,7333],[27.4,7416],[24.1,7500],[21.3,7583],[16.7,7666],[12.9,7749],[12.9,7832],[11.9,7916],[8.4,7999],[6.1,8083],[3.5,8166],[1.6,8249]]",1,0,434.5245,436.8074,0.833333333,1.7534,"[{""rating"":0.8333333333333359,""responseTime"":1.7534000000953824}]",space,1.7338,,436.8075,Partially,50,443.8406,49.89583333,5.9294,"[{""rating"":49.895833333333336,""responseTime"":5.9293999999761695}]",space,0,14,14,14,1,audio/Narrative8Situation5.wav,audio/Narrative7Situation5.wav,audio/Narrative6Situation5.wav,audio/Narrative5Situation5.wav,2,5,2,5,,,6.4848,,,,,,,,,,,,,,,,,,,,,,,,,,,,,,,,,,,,
,,,,,,63d162577b5966c2fb4cf57b,2024-05-13_11h50.50.577,group3.1-3.2-social-tom,2023.2.2,Win32,60.24096386,65c5074098b851296ff0b7ed,6642368c72d9f656333d83fd,,,,,,,,,,,,,,,,,,,,,,,,,,,,,443.8411,1,audio/Narrative7Situation6.wav,446.8575,,446.8576,456.8405,"[[999,11],[999,82],[999,166],[999,249],[999,332],[999,416],[999,499],[999,582],[999,666],[999,749],[999,832],[999,916],[999,999],[999,1082],[999,1165],[999,1249],[999,1332],[999,1415],[999,1499],[999,1582],[999,1666],[999,1749],[999,1832],[999,1916],[999,1999],[999,2082],[999,2165],[999,2249],[999,2332],[999,2416],[999,2499],[999,2582],[999,2665],[999,2749],[999,2832],[999,2916],[999,2999],[999,3082],[999,3165],[999,3249],[999,3332],[999,3415],[999,3499],[999,3582],[999,3665],[999,3749],[999,3832],[999,3915],[999,3999],[999,4082],[999,4166],[999,4249],[999,4332],[999,4415],[999,4499],[999,4582],[999,4666],[999,4749],[999,4832],[999,4916],[999,4999],[999,5082],[999,5165],[999,5249],[999,5332],[999,5416],[999,5499],[999,5582],[999,5665],[999,5749],[999,5832],[999,5915],[999,5999],[999,6082],[999,6166],[999,6249],[999,6332],[999,6415],[999,6499],[999,6582],[999,6665],[999,6748],[999,6832],[999,6915],[999,6999],[999,7082],[999,7165],[999,7249],[999,7332],[999,7415],[999,7499],[999,7582],[999,7665],[999,7749],[999,7832],[999,7915],[999,7999],[999,8082],[999,8165],[999,8249],[999,8332],[999,8415],[999,8499],[999,8582],[999,8665],[999,8748],[999,8832],[999,8915],[999,8999],[999,9082],[999,9165],[999,9249],[999,9332],[999,9415],[999,9499],[999,9582],[999,9665],[999,9749],[999,9832],[999,9915]]",1,0,456.8407,461.8233,43.54166667,3.9371,"[{""rating"":43.541666666666664,""responseTime"":3.937100000023861}]",space,4.4338,,461.8234,Partially,50,461.8259,,,[],,0,15,15,15,1,audio/Narrative8Situation6.wav,audio/Narrative7Situation6.wav,audio/Narrative6Situation6.wav,audio/Narrative5Situation6.wav,2,3,2,3,,,,,,,,,,,,,,,,,,,,,,,,,,,,,,,,,,,,,,,
,,,,,,63d162577b5966c2fb4cf57b,2024-05-13_11h50.50.577,group3.1-3.2-social-tom,2023.2.2,Win32,60.24096386,65c5074098b851296ff0b7ed,6642368c72d9f656333d83fd,,,,,,,,,,,,,,,,,,,,,,,,,,,,,461.8265,1,audio/Narrative7Situation7.wav,466.8396,,466.8396,484.0064,"[[999,6],[999,83],[999,166],[999,250],[999,333],[999,416],[999,500],[999,583],[999,666],[999,750],[999,833],[999,916],[999,1000],[999,1083],[999,1166],[999,1250],[999,1333],[999,1416],[999,1500],[999,1583],[999,1666],[999,1750],[999,1833],[999,1917],[999,2000],[41.8,2091],[38.5,2166],[40.9,2250],[43.2,2333],[43.9,2417],[53,2500],[60.3,2583],[60.5,2666],[70.3,2750],[75.2,2833],[79,2916],[82.2,3000],[84.2,3083],[87.6,3166],[91.3,3250],[93.3,3333],[93.5,3416],[95.4,3500],[98.3,3583],[99.2,3666],[99.3,3750],[99.3,3833],[99.3,3916],[99.3,4000],[99.3,4083],[99.3,4166],[99.3,4250],[99.3,4333],[99.3,4416],[99.3,4500],[99.3,4583],[99.3,4666],[99.3,4750],[99.3,4834],[99.3,4916],[99.3,5000],[100,5083],[100,5167]]",1,0,484.0066,492.4226,99.58333333,7.9942,"[{""rating"":99.58333333333333,""responseTime"":7.994200000047613}]",space,7.8743,,492.4227,Not at all,0,492.4283,,,[],,0,16,16,16,1,audio/Narrative8Situation7.wav,audio/Narrative7Situation7.wav,audio/Narrative6Situation7.wav,audio/Narrative5Situation7.wav,3,5,5,4,,,,,,,,,,,,,,,,,,,,,,,,,,,,,,,,,,,,,,,
,,,,,,63d162577b5966c2fb4cf57b,2024-05-13_11h50.50.577,group3.1-3.2-social-tom,2023.2.2,Win32,60.24096386,65c5074098b851296ff0b7ed,6642368c72d9f656333d83fd,,,,,,,,,,,,,,,,,,,,,,,,,,,,,492.4287,1,audio/Narrative7Situation8.wav,494.4393,,494.4397,504.4722,"[[999,0],[999,82],[999,166],[999,249],[999,332],[999,417],[999,499],[999,582],[999,666],[999,749],[999,832],[999,916],[999,999],[999,1082],[999,1166],[999,1249],[999,1332],[999,1416],[999,1499],[999,1582],[999,1666],[999,1749],[999,1832],[999,1916],[999,1999],[999,2082],[999,2166],[999,2249],[999,2332],[999,2415],[999,2499],[999,2582],[999,2665],[999,2749],[999,2832],[999,2916],[999,2999],[999,3082],[999,3165],[999,3249],[999,3332],[999,3415],[999,3499],[999,3582],[999,3665],[999,3749],[999,3832],[999,3915],[999,3999],[999,4082],[999,4166],[999,4249],[999,4332],[999,4415],[999,4499],[999,4582],[999,4666],[999,4749],[999,4832],[999,4915],[999,4999],[999,5082],[999,5166],[999,5249],[999,5332],[999,5416],[999,5499],[999,5582],[999,5666],[999,5749],[999,5832],[999,5915],[999,5999],[999,6082],[999,6165],[999,6249],[999,6332],[999,6416],[999,6499],[999,6582],[999,6666],[999,6749],[999,6832],[999,6915],[999,6999],[999,7082],[999,7165],[999,7249],[999,7332],[999,7416],[999,7499],[999,7582],[999,7665],[999,7749],[999,7832],[999,7915],[999,7999],[999,8082],[999,8165],[999,8249],[999,8332],[999,8415],[999,8499],[999,8582],[999,8666],[999,8749],[999,8832],[999,8915],[999,8999],[999,9082],[999,9165],[999,9249],[999,9332],[999,9415],[999,9499],[999,9582],[999,9665],[999,9749],[999,9832],[999,9915],[999,9999]]",1,0,504.4725,508.3558,97.8125,1.8572,"[{""rating"":97.8125,""responseTime"":1.8572000000476692}]",space,3.3377,,508.3559,Definitely yes,100,508.3606,,,[],,0,17,17,17,1,audio/Narrative8Situation8.wav,audio/Narrative7Situation8.wav,audio/Narrative6Situation8.wav,audio/Narrative5Situation8.wav,3,2,5,3,,,,,,,,,,,,,,,,,,,,,,,,,,,,,,,,,,,,,,,
,,,,,,63d162577b5966c2fb4cf57b,2024-05-13_11h50.50.577,group3.1-3.2-social-tom,2023.2.2,Win32,60.24096386,65c5074098b851296ff0b7ed,6642368c72d9f656333d83fd,,,,,,,,,,,,,,,,,,,,,,,,,,,,,508.3609,1,audio/Narrative7Situation9.wav,510.3722,,510.3722,518.9889,"[[999,0],[999,83],[999,166],[999,249],[999,333],[999,416],[999,499],[999,583],[999,666],[999,749],[999,833],[999,916],[999,1000],[999,1082],[999,1167],[999,1250],[999,1333],[999,1416],[999,1500],[75.8,1583],[75.6,1666],[75.6,1749],[75.6,1833],[75.6,1916],[82.3,2000],[89.1,2083],[91.9,2166],[92.7,2249],[95.3,2333],[100,2416],[100,2499],[100,2583],[100,2666],[100,2749],[100,2832],[100,2916],[100,2999],[100,3082],[100,3166]]",1,0,518.989,521.0219,99.6875,1.303,"[{""rating"":99.6875,""responseTime"":1.3029999999999973}]",space,1.4906,,521.0221,Definitely yes,100,521.0241,,,[],,0,18,18,18,1,audio/Narrative8Situation9.wav,audio/Narrative7Situation9.wav,audio/Narrative6Situation9.wav,audio/Narrative5Situation9.wav,3,2,4,3,,,,,,,,,,,,,,,,,,,,,,,,,,,,,,,,,,,,,,,
,,,,,,63d162577b5966c2fb4cf57b,2024-05-13_11h50.50.577,group3.1-3.2-social-tom,2023.2.2,Win32,60.24096386,65c5074098b851296ff0b7ed,6642368c72d9f656333d83fd,,,,,,,,,,,,,,,,,,,,,,,,,,,524.858,527.4219,527.4387,2,audio/Narrative13Situation2.wav,527.4388,,527.4388,557.2045,"[[999,0],[999,66],[999,149],[999,232],[999,316],[999,399],[999,482],[999,566],[999,649],[999,732],[999,816],[999,899],[999,982],[999,1066],[999,1149],[999,1232],[999,1316],[999,1399],[999,1482],[999,1566],[72.1,1649],[71.6,1733],[69.9,1816],[61.3,2066],[54.2,2149],[49.2,2232],[47.8,2316],[46.3,2399],[44.2,2482],[41.7,2566],[39.6,2649],[37,2732],[33.1,2816],[28.4,2899],[26.6,2982],[22.8,3066],[21.4,3149],[21.3,3232],[21.3,3316],[21.3,3399],[21.3,3482],[21.3,3566],[21.3,3649],[21.3,3732],[21.3,3816],[21.3,3899],[21.3,3982],[21.3,4065],[21.3,4149],[21.3,4232],[21.3,4316],[21.3,4399],[21.3,4482],[21.3,4566],[21.3,4649],[21.3,4732],[21.3,4816],[21.3,4899],[21.3,4982],[21.3,5066],[21.3,5149],[21.3,5232],[21.3,5316],[21.3,5399],[21.3,5482],[21.3,5566],[21.3,5649],[21.3,5732],[21.3,5815],[21.3,5899],[21.3,5982],[21.3,6065],[21.3,6149],[21.3,6232],[21.3,6315],[21.3,6399],[21.4,6482],[21.6,6566],[21.8,6649],[21.8,6732],[23,6816],[23,6899],[23,6982],[23,7066],[23,7149],[23,7232],[23,7316],[23,7399],[23,7482],[23,7566],[23,7649],[23,7732],[23.5,7816],[23.9,7899],[24.1,7982],[24.1,8066],[34.9,8149],[57.5,8232],[72.7,8316],[76.4,8399],[77.5,8482],[83.9,8566],[87.2,8649],[90.7,8732],[91.6,8815],[91.6,8899],[92.3,8982],[93.6,9066],[95.8,9149],[96.3,9232],[98.5,9316],[99.3,9399],[99.3,9482],[100,9566],[100,9649],[100,9732],[100,9815],[100,9899],[100,9983],[100,10066],[100,10149],[84.9,24482],[86.5,24565],[100,25232],[99.7,25315],[95.5,25398],[96.3,25482],[96.8,25565],[97.8,25649],[98.8,25732],[99.9,25815],[100,25898],[100,25982],[100,26065]]",1,0,557.2046,557.2163,,,[],,,,557.2163,Not at all,0,557.2199,,,[],,0,0,0,0,1,audio/Narrative13Situation2.wav,audio/Narrative13Situation2.wav,audio/Narrative13Situation2.wav,audio/Narrative13Situation2.wav,2,2,2,2,,,,,521.0247,524.8393,space,3.2901,,,,,,,,,,,,,,,,,,,,,,,,,,,,,,,
,,,,,,63d162577b5966c2fb4cf57b,2024-05-13_11h50.50.577,group3.1-3.2-social-tom,2023.2.2,Win32,60.24096386,65c5074098b851296ff0b7ed,6642368c72d9f656333d83fd,,,,,,,,,,,,,,,,,,,,,,,,,,,,,557.2202,2,audio/Narrative6Situation1.wav,559.2212,,559.2214,585.8042,"[[999,0],[999,82],[999,166],[999,249],[999,332],[999,416],[999,499],[999,583],[999,666],[999,749],[999,833],[999,916],[999,999],[999,1083],[76.7,1166],[76.1,1250],[74.9,1332],[72.8,1415],[72.8,1499],[72.8,1582],[72.8,1665],[72.8,1749],[71.5,1832],[70.4,1916],[70.4,1999],[69,2082],[66,2166],[64.8,2249],[64.7,2332],[63.2,2416],[60.3,2499],[60.3,2582],[60.3,2665],[60.3,2749],[58.8,2833],[56.3,2916],[54.1,2999],[51.3,3082],[49.2,3166],[45.9,3249],[37.5,3332],[35.8,3415],[34.3,3499],[32.3,3582],[31,3666],[28.8,3749],[27.3,3833],[24.9,3915],[24,3999],[23.9,4082],[23.9,4166],[23,4249],[22.6,4332],[22.6,4415],[20.9,4499],[19.6,4582],[19.6,4665],[19.6,4749],[19.6,4832],[19.6,4915],[19.6,4999],[19.6,5082],[19.6,5166],[19.6,5249],[29.8,5332],[57.4,5416],[79.4,5499],[93.1,5583],[100,5666],[100,5749],[100,5832],[100,8932],[100,9016],[99.2,9099],[96.6,9182],[94.4,9266],[92.7,9349],[90.7,9433],[89.8,9516],[89.1,9599],[87.1,9682],[85.2,9766],[83.1,9849],[81.1,9932],[81.1,10015],[81.1,10099],[81.1,10182],[73.6,10266],[65.7,10349],[60.7,10432],[56.5,10516],[52.2,10599],[49.6,10683],[47.3,10766],[44.2,10849],[40.9,10932],[38.4,11016],[36.5,11099],[34.4,11182],[32.1,11266],[31.3,11349],[31.3,11432],[31.3,11515],[31.3,11599],[31.3,11682],[31.3,11765],[31.3,11849],[31.3,11932],[30.6,12016],[29.4,12099],[29.4,12182],[28.8,12266],[27.4,12349],[27.4,12432],[27.4,12515],[27.4,12599],[27.4,12682],[27.4,12765],[27.4,12849],[27.6,12932],[27.8,13016],[27.9,13099],[28.6,13182],[29.3,13266],[29.4,13348],[30.1,13432],[30.8,13516],[31.9,13599],[32.7,13682],[34.2,13765],[35.8,13849],[37,13932],[38.1,14015],[38.5,14099],[39.8,14182],[40.8,14265],[42.1,14349],[42.5,14432],[42.8,14516],[43.5,14599],[44,14682],[44,14765],[44,14848],[44,14932],[44,15015],[44,15098],[44,15182],[44.1,15266],[47.2,15349],[49.3,15432],[52.1,15516],[54.3,15599],[55.5,15682],[57.4,15766],[58.6,15849],[59.3,15932],[59.3,16015],[59.3,16098],[59.3,16182],[59.3,16265],[59.3,16349],[60.3,16432],[60.3,16515],[60.3,16598],[60.3,16682],[60.3,16765],[60.3,16848],[60.3,16932],[60.3,17015],[60.3,17099],[60.3,17182],[60.3,17265],[60.3,17349],[62.7,17432],[62.8,17515],[64.3,17599],[66.9,17682],[67.4,17765],[67.4,17848],[67.4,17932],[67.5,18015],[67.9,18098],[68,18182],[68,18265],[68,18348],[68,18432],[68,18515],[68,18598],[68,18682],[68,18765],[68,18849],[68,18932],[68,19015],[68,19098],[68,19182],[68,19265],[68,19348],[68,19432],[68,19515],[68,19599],[68,19682],[68,19765],[68,19848],[68,19932],[68,20015],[68,20098],[68,20182],[68,20265],[68,20348],[68,20432],[68,20515],[68,20599],[68,20682],[68,20765],[68.6,20855],[68.8,20932],[68.8,21015],[68.8,21098],[68.8,21182],[68.8,21265],[68.8,21348],[68.8,21432],[69.6,21515],[69.8,21598],[69.8,21682],[70.5,21765],[71.9,21849],[72,21932],[72,22015],[72.1,22099],[73.1,22182],[73.3,22265],[73.3,22348],[73.3,22432],[73.3,22515],[73.3,22598],[73.3,22682],[73.3,22765],[73.3,22848],[73.3,22932],[73.3,23015],[73.3,23098],[73.3,23182],[73.3,23265],[73.3,23348],[73.3,23432],[73.3,23515],[73.3,23598],[73.3,23682],[73.3,23765],[73.3,23849],[73.3,23932],[73.3,24015],[73.3,24098],[73.3,24182],[73.3,24265],[73.3,24348],[73.3,24432],[73.3,24515],[73.3,24598],[73.3,24682],[73.3,24765],[73.3,24848],[73.3,24932],[73.3,25015],[73.3,25098],[73.3,25182],[73.3,25265],[73.3,25348],[73.3,25432],[73.3,25515],[73.3,25598],[73.3,25682],[73.3,25765],[73.3,25848],[73.3,25932],[73.2,26015],[73.1,26099],[72.3,26182],[71.8,26265],[71.4,26349],[71.3,26432],[71.3,26515]]",1,0,585.8045,590.7535,98.85416667,3.7851,"[{""rating"":98.85416666666667,""responseTime"":3.785100000023931}]",space,4.4131,,590.7536,Not at all,0,590.7569,,,[],,0,1,1,1,1,audio/Narrative7Situation1.wav,audio/Narrative8Situation1.wav,audio/Narrative5Situation1.wav,audio/Narrative6Situation1.wav,2,5,5,2,,,,,,,,,,,,,,,,,,,,,,,,,,,,,,,,,,,,,,,
,,,,,,63d162577b5966c2fb4cf57b,2024-05-13_11h50.50.577,group3.1-3.2-social-tom,2023.2.2,Win32,60.24096386,65c5074098b851296ff0b7ed,6642368c72d9f656333d83fd,,,,,,,,,,,,,,,,,,,,,,,,,,,,,590.7574,2,audio/Narrative6Situation2.wav,593.7701,,593.7701,622.2863,"[[82.2,4339],[72,4416],[61.8,4583],[63.1,4666],[63.1,4749],[63.1,4833],[64.3,4916],[69.3,5000],[73.4,5083],[74.8,5166],[74.8,5249],[74.5,5333],[72.6,5416],[70.3,5500],[63.9,5583],[48.5,5666],[37.6,5750],[36.5,5833],[36.5,5916],[58.2,6000],[90.1,6083],[93,6166],[93,6249],[93,6333],[93.1,6416],[95.7,6500],[97.3,6583],[98.4,6666],[99.2,6749],[99.2,6832],[99.2,6916],[99.2,6999],[99.2,7083],[99.2,7166],[99.2,7249],[99.2,7333],[99.2,7416],[99.2,7499],[99.2,7583],[99.2,7666],[99.2,7749],[99.2,7833],[99.2,7916],[99.2,7999],[99.2,8083],[99.2,8166],[99.2,8249],[99.2,8333],[99.2,8416],[99.2,8499],[99.2,8583],[99.2,8666],[99.2,8749],[99.2,8833],[99.2,8916],[99.2,8999],[99.2,9083],[99.2,9166],[99.2,9249],[99.2,9332],[99.2,9416],[99.2,9499],[99.2,9583],[99.2,9666],[99.2,9749],[99.2,9832],[99.2,9916],[99.2,9999],[99.2,10083],[99.2,10166],[99.2,10249],[99.2,10332],[99.2,10416],[99.2,10499],[99.2,10583],[99.2,10666],[99.2,10749],[99.2,10833],[99.2,10916],[99.2,10999],[99.2,11082],[99.2,11166],[99.2,11249],[99.2,11332],[99.2,11416],[99.2,11499],[99.2,11582],[99.2,11666],[99.2,11749],[99.2,11832],[99.2,11916],[99.2,11999],[99.2,12082],[99.2,12166],[99.2,12249],[99.2,12332],[99.2,12416],[99.2,12499],[99.2,12582],[99.2,12666],[99.2,12749],[99.2,12832],[99.2,12916],[99.2,12999],[99.2,13082],[99.2,13166],[99.2,13249],[99.2,13332],[99.2,13416],[99.2,13499],[99.2,13582],[99.2,13666],[99.2,13749],[99.2,13832],[99.2,13916],[99.2,13999],[99.2,14082],[99.2,14166],[99.2,14249],[99.2,14332],[99.2,14416],[99.2,14499],[99.2,14582],[99.2,14666],[99.2,14749],[99.2,14832],[99.2,14916],[99.2,14999],[99.2,15082],[99.2,15166],[99.2,15249],[99.2,15332],[99.2,15416],[99.2,15499],[99.2,15582],[99.2,15666],[99.2,15749],[99.2,15832],[99.2,15916],[99.2,15999],[99.2,16082],[99.2,16166],[99.2,16249],[99.2,16332],[99.2,16416],[99.2,16499],[99.2,16582],[99.2,16666],[99.2,16749],[99.2,16832],[99.2,16916],[99.2,16999],[99.2,17082],[99.2,17166],[99.2,17249],[99.2,17332],[99.2,17416],[99.2,17505],[99.2,17582],[99.2,17666],[100,17749],[100,17832],[100,17916],[100,17999],[100,18082],[100,18166],[100,18249],[100,18332],[100,18416],[100,18499],[100,18582],[100,18666],[99.1,18749],[96,18833],[94.8,18916],[94.8,18999],[94.8,19082],[95.1,19166],[95.3,19249],[95.3,19332],[95.3,19416],[95.3,19499],[95.4,19583],[95.5,19666],[95.5,19749],[95.5,19832],[95.6,19916],[95.5,19999],[95.5,20082],[95.5,20166],[95.5,20249],[95.5,20332],[95.5,20416],[95.5,20499],[95.5,20582],[95.5,20666],[95.4,20749]]",1,0,622.2866,625.8695,98.95833333,2.7192,"[{""rating"":98.95833333333333,""responseTime"":2.7192000000476355}]",space,3.0355,,625.8696,Definitely yes,100,625.875,,,[],,0,2,2,2,1,audio/Narrative7Situation2.wav,audio/Narrative8Situation2.wav,audio/Narrative5Situation2.wav,audio/Narrative6Situation2.wav,3,3,3,3,,,,,,,,,,,,,,,,,,,,,,,,,,,,,,,,,,,,,,,
,,,,,,63d162577b5966c2fb4cf57b,2024-05-13_11h50.50.577,group3.1-3.2-social-tom,2023.2.2,Win32,60.24096386,65c5074098b851296ff0b7ed,6642368c72d9f656333d83fd,,,,,,,,,,,,,,,,,,,,,,,,,,,,,625.8754,2,audio/Narrative6Situation3.wav,630.8859,,630.886,643.5024,"[[94.9,917],[91.8,1000],[89.1,1083],[86,1167],[80.8,1250],[74.6,1333],[74.4,1416],[74.4,1499],[74.4,1583],[71.9,1666],[69,1750],[68.3,1833],[66.7,1916],[66.6,2000],[66.4,2083],[66.1,2166],[66,2249],[66,2333],[66,2416],[66,2499],[66,2583],[66,2666],[62.9,2750],[57.4,2839],[55.7,2916],[54.4,3000],[52.8,3083],[49.2,3166],[46.6,3249],[45.6,3333],[42.6,3416],[41.3,3499],[41.3,3583],[41.3,3666],[39.8,3749],[39.8,3833],[39.8,3916],[39.8,3999],[39.8,4083],[39.8,4166],[39.8,4249],[41,4333],[44,4416],[44.5,4500],[46.8,4583],[47.3,4666],[47.3,4749],[47.3,4833],[47.3,4916],[47.3,4999],[47.3,5083],[47.3,5166],[47.3,5249],[47.3,5333],[47.3,5416],[47.3,5499],[47.3,5582],[47.3,5666],[47.3,5749],[47.3,5833],[47.3,5916],[47.3,5999],[47.3,6083],[47.3,6166],[47.3,6249],[47.3,6332],[47.3,6416],[56.3,6500],[80.1,6583],[75.1,7499],[75.1,7583],[75.1,7666],[72.2,7750],[70.6,7833],[70.6,7916],[70.6,7999],[78.3,8083],[94.1,8166],[95.8,8249],[100,8333],[100,8416],[100,8499],[100,8583],[100,8666]]",1,0,643.5026,646.9021,99.79166667,1.764,"[{""rating"":99.79166666666667,""responseTime"":1.76400000000001}]",space,2.8592,,646.9022,Partially,50,655.952,50,8.0977,"[{""rating"":50,""responseTime"":8.097699999928409}]",space,0,3,3,3,1,audio/Narrative7Situation3.wav,audio/Narrative8Situation3.wav,audio/Narrative5Situation3.wav,audio/Narrative6Situation3.wav,8,4,3,5,,,8.5006,,,,,,,,,,,,,,,,,,,,,,,,,,,,,,,,,,,,
,,,,,,63d162577b5966c2fb4cf57b,2024-05-13_11h50.50.577,group3.1-3.2-social-tom,2023.2.2,Win32,60.24096386,65c5074098b851296ff0b7ed,6642368c72d9f656333d83fd,,,,,,,,,,,,,,,,,,,,,,,,,,,,,655.9525,2,audio/Narrative6Situation4.wav,657.9687,,657.9687,670.5848,"[[57.5,5999],[57.5,6082],[57.5,6166],[57.7,6249],[57.8,6332],[57.8,6416],[57.8,6499],[57.8,6582],[57.8,6666],[57.8,6749],[56.3,6833],[51.4,6916],[47.4,6999],[44.2,7083],[42.9,7166],[42.9,7249],[42.9,7332],[42.9,7416],[40.9,7499],[38.6,7583],[38.2,7666],[36.5,7749],[34.4,7833],[33.1,7916],[31.7,7999],[29.7,8083],[29.5,8166],[30.7,8249],[30.7,8332],[30.7,8416],[30.7,8499],[30.7,8582],[29.8,8666],[27.5,8749],[26,8833],[24.8,8916],[22.9,8999],[22.6,9082],[22.6,9166],[20.7,9249],[19.3,9333],[18.5,9416],[18.4,9499],[17.3,9583],[16.3,9666],[15.5,9749],[15.5,9832],[15.5,9916],[15,9999],[14.7,10082],[14.5,10166],[14.2,10249],[13.3,10333],[12.4,10416],[12.2,10499],[12.2,10582],[12.2,10666],[12.2,10749],[12.2,10832],[12.2,10916],[12.2,10999],[12.2,11083],[12.2,11166],[12.2,11249],[12.2,11332],[12.2,11416],[12.2,11499],[12.2,11582],[12.2,11666],[12.2,11749],[12.2,11832],[12.2,11916],[12.2,11999],[12.2,12082],[12.2,12166],[12.2,12249],[8.2,12333],[0.8,12416]]",1,0,670.585,672.9016,1.354166667,1.4458,"[{""rating"":1.3541666666666674,""responseTime"":1.445799999952328}]",space,1.7819,,672.9017,Definitely yes,100,672.9088,,,[],,0,4,4,4,1,audio/Narrative7Situation4.wav,audio/Narrative8Situation4.wav,audio/Narrative5Situation4.wav,audio/Narrative6Situation4.wav,3,3,1,2,,,,,,,,,,,,,,,,,,,,,,,,,,,,,,,,,,,,,,,
,,,,,,63d162577b5966c2fb4cf57b,2024-05-13_11h50.50.577,group3.1-3.2-social-tom,2023.2.2,Win32,60.24096386,65c5074098b851296ff0b7ed,6642368c72d9f656333d83fd,,,,,,,,,,,,,,,,,,,,,,,,,,,,,672.9092,2,audio/Narrative6Situation5.wav,674.9182,,674.9183,682.8846,"[[1.5,1333],[3.5,1416],[5.3,1499],[6.4,1582],[6.4,1666],[6.4,1749],[6.4,1832],[7.5,1916],[9.8,1999],[12.8,2083],[15,2166],[17.9,2249],[21.9,2333],[24.5,2416],[27.7,2500],[29.4,2583],[31.5,2666],[34.4,2749],[36.7,2832],[37.4,2916],[40.3,2999],[42.9,3083],[43.3,3166],[45.7,3250],[47.6,3333],[48.2,3416],[50.4,3499],[52.5,3583],[54.8,3666],[56.9,3749],[60,3833],[61.3,3916],[63.4,3999],[66,4082],[67.7,4166],[68.3,4249],[68.3,4332],[68.3,4416],[68.3,4499],[68.3,4582],[68.3,4666],[68.3,4749],[68.3,4832],[68.3,4916],[68.8,5000],[69.5,5083],[69.5,5166],[69.5,5249],[69.5,5332],[69.5,5416],[69.5,5499],[69.5,5582],[69.5,5666],[69.5,5749],[69.5,5832],[69.5,5916],[69.5,5999],[69.5,6082],[69.5,6166],[69.5,6249],[69.5,6332],[69.5,6416],[69.5,6499],[69.5,6582],[69.5,6666],[69.5,6749],[69.5,6832],[69.5,6916],[69.5,6999],[69.5,7082],[69.5,7166],[69.8,7249],[69.9,7332],[69.9,7416],[69.9,7499],[69.9,7582],[69.9,7666],[69.9,7749],[69.9,7832],[69.9,7916]]",1,0,682.8848,684.7178,69.6875,1.0103,"[{""rating"":69.6875,""responseTime"":1.0103000000715383}]",space,1.292,,684.718,Definitely yes,100,684.7211,,,[],,0,5,5,5,1,audio/Narrative7Situation5.wav,audio/Narrative8Situation5.wav,audio/Narrative5Situation5.wav,audio/Narrative6Situation5.wav,5,2,5,2,,,,,,,,,,,,,,,,,,,,,,,,,,,,,,,,,,,,,,,
,,,,,,63d162577b5966c2fb4cf57b,2024-05-13_11h50.50.577,group3.1-3.2-social-tom,2023.2.2,Win32,60.24096386,65c5074098b851296ff0b7ed,6642368c72d9f656333d83fd,,,,,,,,,,,,,,,,,,,,,,,,,,,,,684.7215,2,audio/Narrative6Situation6.wav,686.7345,,686.7346,697.8176,"[[68.3,1500],[67.5,1583],[66.7,1666],[66.7,1749],[66.7,1833],[65.1,1916],[62.1,2000],[60.4,2083],[57.7,2166],[55.4,2249],[53.1,2333],[50.4,2416],[48.5,2499],[47,2583],[47,2666],[47,2749],[47,2833],[51.6,2916],[56.5,3000],[58.2,3083],[60.6,3166],[62.1,3250],[63.1,3333],[65.9,3416],[68.3,3500],[71.8,3583],[74.9,3666],[78.3,3750],[81.4,3833],[83.2,3916],[85.9,4000],[89,4083],[89.4,4166],[91.5,4249],[92.7,4333],[93.8,4416],[94.4,4499],[94.4,4582],[94.4,4666],[94.7,4749],[95.5,4833],[95.9,4916],[96.5,5000],[97.4,5083],[97.7,5166],[98.3,5249],[99.2,5333],[99.4,5416],[99.4,5499],[99.4,5582],[99.4,5666],[99.4,5749],[99.4,5832],[99.4,5916],[99.4,5999],[99.4,6082],[99.4,6166],[99.4,6249],[99.4,6332],[99.4,6416],[99.4,6499],[99.4,6582],[99.4,6666],[99.4,6749],[99.4,6832],[99.4,6916],[99.4,6999],[99.4,7082],[99.4,7166],[99.4,7249],[99.4,7332],[99.4,7416],[99.4,7499],[99.4,7582],[99.4,7666],[99.4,7749],[99.4,7832],[99.4,7916],[99.4,7999],[99.4,8082],[99.4,8166],[99.4,8249],[99.4,8332],[99.4,8416],[99.4,8499],[99.4,8582],[99.4,8666],[99.4,8749],[99.4,8832],[99.4,8916],[99.4,8999],[99.4,9082],[99.4,9166],[99.4,9249],[99.4,9332],[99.4,9416],[99.4,9499],[99.4,9582],[99.4,9666],[99.4,9749],[99.4,9832],[99.4,9916],[99.4,9999],[99.4,10082],[99.4,10166],[99.4,10249],[99.4,10332],[99.4,10416],[99.4,10499],[99.4,10582],[99.4,10666],[99.4,10749],[99.4,10832],[99.4,10916],[99.4,10999],[99.4,11082]]",1,0,697.8178,699.5842,99.47916667,1.4217,"[{""rating"":99.47916666666667,""responseTime"":1.421699999928478}]",space,1.2192,,699.5843,Partially,50,699.5893,,,[],,0,6,6,6,1,audio/Narrative7Situation6.wav,audio/Narrative8Situation6.wav,audio/Narrative5Situation6.wav,audio/Narrative6Situation6.wav,3,2,3,2,,,,,,,,,,,,,,,,,,,,,,,,,,,,,,,,,,,,,,,
,,,,,,63d162577b5966c2fb4cf57b,2024-05-13_11h50.50.577,group3.1-3.2-social-tom,2023.2.2,Win32,60.24096386,65c5074098b851296ff0b7ed,6642368c72d9f656333d83fd,,,,,,,,,,,,,,,,,,,,,,,,,,,,,699.5897,2,audio/Narrative6Situation7.wav,704.6007,,704.6008,729.4669,"[[98.1,1000],[95.3,1083],[93.8,1166],[91.4,1250],[91.1,1333],[91.1,1416],[91.1,1499],[91.1,1583],[91.1,1666],[91.1,1749],[91.1,1833],[91.1,1916],[91.1,1999],[81.3,2083],[80.7,2166],[75.2,2250],[67.3,2333],[65.2,2416],[61.5,2500],[55.4,2583],[45.8,2666],[44.5,2749],[44.5,2833],[43.1,2916],[41.4,3000],[39.8,3083],[39.2,3166],[37.1,3250],[35.3,3333],[33.4,3416],[33.1,3499],[32.6,3583],[32.4,3666],[32.4,3749],[32.9,3833],[35.1,3916],[35.4,3999],[35.4,4083],[35.5,4166],[36.1,4250],[36.6,4333],[37.2,4416],[37.9,4500],[37.9,4583],[37.9,4666],[37.9,4749],[37.9,4833],[37.9,4916],[37.9,4999],[37.9,5083],[38.1,5166],[38.3,5250],[38.9,5333],[39.2,5416],[40,5500],[41.1,5583],[41.8,5666],[43.1,5749],[44.1,5833],[44.5,5916],[45.2,6000],[45.9,6083],[46.4,6166],[46.4,6249],[46.7,6333],[47.9,6416],[49.8,6500],[51.5,6583],[52.6,6666],[52.9,6749],[53.2,6833],[53.4,6916],[54.3,6999],[54.3,7082],[54.3,7166],[54.3,7249],[55,7333],[55,7416],[55,7499],[55.9,7583],[56.3,7666],[56.3,7749],[56.3,7833],[56.4,7916],[56.8,7999],[56.8,8082],[56.8,8166],[56.8,8249],[57.6,8333],[57.9,8416],[57.9,8499],[57.9,8582],[58.1,8666],[59.3,8749],[59.3,8832],[59.3,8916],[59.3,8999],[59.3,9082],[59.3,9166],[59.3,9249],[60.3,9333],[79.8,9416],[92.6,9500],[100,9583],[100,9666],[100,9749],[100,9833],[100,9916],[100,19932],[100,20015],[100,20099],[100,20182],[100,20265],[100,20349],[100,20432],[100,20516],[87.3,20599],[84,20682],[84.9,20766],[96,21016],[100,21099],[100,21182],[100,21265],[100,21349],[100,21432],[100,21516],[100,21599],[100,21682],[100,21766]]",1,0,729.4671,733.3166,100,3.024,"[{""rating"":97.29166666666667,""responseTime"":2.290099999904669},{""rating"":100,""responseTime"":3.024000000000001}]",space,3.3243,,733.3167,Definitely yes,100,733.3209,,,[],,0,7,7,7,1,audio/Narrative7Situation7.wav,audio/Narrative8Situation7.wav,audio/Narrative5Situation7.wav,audio/Narrative6Situation7.wav,5,3,4,5,,,,,,,,,,,,,,,,,,,,,,,,,,,,,,,,,,,,,,,
,,,,,,63d162577b5966c2fb4cf57b,2024-05-13_11h50.50.577,group3.1-3.2-social-tom,2023.2.2,Win32,60.24096386,65c5074098b851296ff0b7ed,6642368c72d9f656333d83fd,,,,,,,,,,,,,,,,,,,,,,,,,,,,,733.3212,2,audio/Narrative6Situation8.wav,738.3333,,738.3333,745.2,"[[999,19],[999,99],[999,183],[999,266],[999,350],[999,433],[100,516],[91.6,599],[86.8,683],[82.1,766],[79.5,850],[80,932],[80,1016],[80,1099],[80,1182],[80,1266],[79.9,1349],[77.6,1433],[74.6,1517],[71.5,1600],[69.8,1683],[68.5,1766],[67.4,1850],[67.2,1933],[67.2,2016],[67.2,2099],[52.1,2849],[51.9,2933],[51.7,3016],[51.7,3099],[51.7,3182],[51.7,3266],[51.7,3349],[51.7,3433],[51.7,3516],[51.7,3599],[51.7,3682],[51.7,3766],[51.7,3849],[51.7,3932],[51.9,4017],[55.6,4100],[55.7,4182],[55.7,4266],[55.7,4349],[55.7,4432],[54.2,4516],[48.9,4600],[44.3,4683],[41.4,4766],[39,4849],[35.6,4933],[31.9,5016],[29.4,5100],[27.6,5183],[27.3,5266],[26,5349],[25.7,5432],[25.7,5516],[23.8,5600],[22.2,5682],[22.2,5766],[22.2,5849],[22.2,5932],[22.2,6016],[22.2,6099],[22.2,6182],[22.2,6266],[22.2,6349],[22.2,6432],[22.2,6516],[22.2,6599],[22.2,6682],[22.2,6766],[22.2,6849]]",1,0,745.2003,746.7831,20.9375,1.0388,"[{""rating"":20.937499999999996,""responseTime"":1.038799999952289}]",space,1.0393,,746.7834,Not at all,0,746.7908,,,[],,0,8,8,8,1,audio/Narrative7Situation8.wav,audio/Narrative8Situation8.wav,audio/Narrative5Situation8.wav,audio/Narrative6Situation8.wav,2,3,3,5,,,,,,,,,,,,,,,,,,,,,,,,,,,,,,,,,,,,,,,
,,,,,,63d162577b5966c2fb4cf57b,2024-05-13_11h50.50.577,group3.1-3.2-social-tom,2023.2.2,Win32,60.24096386,65c5074098b851296ff0b7ed,6642368c72d9f656333d83fd,,,,,,,,,,,,,,,,,,,,,,,,,,,,,746.7913,2,audio/Narrative6Situation9.wav,750.7998,,750.7999,760.7497,"[[999,12],[999,82],[999,166],[999,249],[999,332],[999,416],[999,499],[999,582],[999,666],[999,750],[999,832],[999,916],[999,999],[999,1082],[999,1166],[57.6,1249],[57.4,1333],[53.3,1416],[50.1,1499],[50,1583],[48.6,1666],[46.5,1749],[45.2,1833],[45,1916],[45,1999],[45,2082],[45,2166],[41.5,2249],[37.7,2333],[34.2,2416],[31.9,2499],[29.9,2583],[26.4,2666],[25.3,2749],[22.8,2832],[21.4,2916],[20.2,2999],[20.1,3082],[18.3,3166],[17.6,3249],[15.9,3333],[15.8,3416],[15.1,3499],[15.1,3582],[15.1,3666],[15.1,3749],[15.1,3832],[15.1,3916],[15.2,3999],[15.4,4082],[15.4,4166],[15.4,4249],[15.7,4333],[16,4416],[16.1,4499],[16.5,4582],[16.6,4666],[17.1,4749],[17.5,4833],[17.6,4916],[18.1,4999],[18.4,5082],[19,5166],[19.5,5249],[19.6,5332],[19.7,5416],[19.7,5499],[19.7,5582],[19.7,5666],[19.7,5749],[19.7,5832],[19.7,5916],[19.9,5999],[19.9,6082],[19.9,6166],[19.9,6249],[19.9,6332],[19.9,6416],[19.9,6499],[20.1,6582],[20.5,6666],[20.5,6749],[20.5,6832],[20.5,6916],[20.5,6999],[20.5,7082],[20.5,7166],[21,7249],[21.9,7332],[21.9,7415],[22.6,7499],[22.6,7582],[22.6,7666],[22.6,7749],[22.9,7832],[23.3,7916],[23.9,7999],[24.2,8082],[24.3,8166],[24.3,8249],[24.3,8332],[24.3,8416],[24.3,8499],[24.3,8582],[24.3,8666],[24.3,8749],[24.3,8832],[24.3,8916],[24.3,8999],[24.4,9082],[24.4,9166],[24.4,9249],[24.4,9332],[24.4,9416],[24.4,9499],[24.4,9582],[24.4,9666],[24.4,9749],[24.4,9832],[24.3,9916]]",1,0,760.75,761.9825,24.58333333,0.7763,"[{""rating"":24.583333333333336,""responseTime"":0.7762999999522435}]",space,0.6897,,761.9826,Partially,50,761.9855,,,[],,0,9,9,9,1,audio/Narrative7Situation9.wav,audio/Narrative8Situation9.wav,audio/Narrative5Situation9.wav,audio/Narrative6Situation9.wav,2,3,3,4,,,,,,,,,,,,,,,,,,,,,,,,,,,,,,,,,,,,,,,
,,,,,,63d162577b5966c2fb4cf57b,2024-05-13_11h50.50.577,group3.1-3.2-social-tom,2023.2.2,Win32,60.24096386,65c5074098b851296ff0b7ed,6642368c72d9f656333d83fd,,,,,,,,,,,,,,,,,,,,,,,,,,,,,761.9856,2,audio/Narrative5Situation1.wav,766.6494,space,766.6494,779.9492,"[[999,18],[999,99],[999,182],[999,266],[999,349],[999,432],[999,516],[999,599],[999,682],[999,766],[999,849],[999,933],[999,1016],[999,1099],[28,1183],[28,1266],[29.4,1349],[33.2,1433],[34.8,1516],[34.8,1599],[34.8,1682],[34.8,1766],[34.8,1849],[34.8,1932],[34.8,2016],[34.8,2099],[34.8,2182],[35,2266],[35.5,2349],[35.5,2432],[30.5,2516],[26.8,2599],[23,2683],[21.5,2766],[18.4,2849],[17.8,2932],[17.7,3016],[16.4,3099],[16.3,3182],[16.3,3266],[16.3,3349],[16,3432],[16,3516],[16,3599],[16,3682],[16,3766],[16,3849],[16,3933],[15.5,4016],[15.3,4099],[15.3,4182],[15,4266],[15,4349],[15,4432],[15,4516],[15,4599],[15,4682],[15,4766],[15,4849],[15,4932],[15,5016],[15,5099],[15,5182],[15,5266],[15,5349],[15,5432],[15,5516],[15,5599],[15,5682],[15,5766],[15,5849],[15,5932],[15,6016],[15,6099],[15,6182],[15,6265],[15,6349],[15,6432],[15,6516],[15,6599],[15,6682],[15,6766],[15,6849],[15,6932],[15,7016],[15,7099],[15,7182],[15,7266],[15,7349],[15,7432],[15,7516],[15,7599],[15,7682],[15,7766],[15,7849],[15,7932],[15,8016],[15,8099],[15,8182],[15,8266],[15,8349],[15,8432],[15,8516],[15,8599],[15,8682],[15,8766],[15,8849],[15,8932],[15,9016],[15,9099],[15,9182],[15,9266],[15,9349],[15,9432],[15,9516],[15,9599],[15,9682],[15,9766],[15,9849],[15,9932],[15,10016],[15,10099],[15,10182],[15,10266],[15,10349],[15,10432],[15,10516],[15,10599],[15,10682],[15,10765],[15,10849],[15,10932],[15,11016],[15,11099],[14.9,11182],[14.9,11265],[14.9,11349],[14.9,11432],[14.9,11515],[20.9,11599],[23.1,11682],[23.1,11766],[23.1,11849],[20.2,11933],[18.4,12016],[18.1,12099],[18.1,12182],[18.1,12265],[18.1,12349],[18.1,12432],[18.1,12515],[18.1,12599],[22,12683],[24.4,12766],[25.5,12849],[29.7,12933],[43,13016],[60.5,13099],[61.3,13182],[61.3,13266]]",1,0,779.9495,781.4155,48.02083333,1.0531,"[{""rating"":48.020833333333336,""responseTime"":1.0531000000238464}]",space,0.9161,,781.4156,Partially,50,781.4191,,,[],,0,10,10,10,1,audio/Narrative8Situation1.wav,audio/Narrative7Situation1.wav,audio/Narrative6Situation1.wav,audio/Narrative5Situation1.wav,5,2,2,5,4.6419,,,,,,,,,,,,,,,,,,,,,,,,,,,,,,,,,,,,,,
,,,,,,63d162577b5966c2fb4cf57b,2024-05-13_11h50.50.577,group3.1-3.2-social-tom,2023.2.2,Win32,60.24096386,65c5074098b851296ff0b7ed,6642368c72d9f656333d83fd,,,,,,,,,,,,,,,,,,,,,,,,,,,,,781.4197,2,audio/Narrative5Situation2.wav,784.4323,,784.4323,813.8983,"[[999,0],[999,83],[999,166],[999,249],[999,332],[999,416],[999,500],[999,583],[999,666],[999,749],[999,833],[999,916],[999,999],[999,1083],[24.9,1166],[24.5,1249],[23,1333],[22.4,1416],[22.4,1499],[22.4,1582],[22.4,1666],[22.4,1749],[22.4,1833],[21.6,1916],[19.6,2000],[18.3,2082],[17.6,2166],[17.6,2249],[17.6,2332],[17.6,2416],[17.6,2499],[17.6,2583],[17.6,2666],[17.6,2749],[17.6,2832],[17.6,2916],[17.6,2999],[17.6,3082],[17.6,3166],[17.6,3249],[17.6,3332],[17.6,3416],[17.6,3499],[17.6,3582],[17.6,3666],[17.6,3749],[17.6,3833],[17.6,3916],[17.6,3999],[17.6,4082],[17.6,4166],[17.6,4249],[17.6,4333],[15.9,4416],[15.7,4499],[15.7,4582],[15.3,4666],[14.1,4750],[14.1,4832],[14.1,4916],[14.1,4999],[14.1,5082],[13.4,5166],[13.1,5249],[13.1,5332],[13.1,5416],[13.1,5499],[13.1,5582],[13.1,5666],[13.4,5750],[13.5,5832],[13.5,5916],[13.6,5999],[13.9,6082],[13.9,6166],[13.9,6249],[13.9,6332],[13.9,6416],[13.9,6499],[13.9,6582],[13.9,6666],[14,6750],[14.1,6840],[14.1,6916],[14.1,6999],[14.1,7082],[14.1,7166],[14.1,7249],[14.1,7332],[14.1,7416],[14.1,7499],[15,7582],[16.5,7666],[17.6,7749],[18.4,7832],[18.4,7916],[18.4,7999],[18.4,8082],[18.8,8166],[21.6,8249],[22.7,8333],[22.9,8416],[22.9,8499],[22.9,8582],[24.4,8666],[26,8749],[26.8,8832],[27.8,8916],[29,8999],[29.6,9082],[30.9,9166],[32.3,9249],[33.3,9332],[34.1,9416],[34.1,9499],[34.1,9582],[34.1,9666],[34.1,9749],[34.1,9832],[34.1,9916],[34.1,9999],[34.1,10082],[34.1,10166],[34.1,10249],[34.1,10332],[34.1,10416],[34.9,10499],[35.5,10582],[36.5,10666],[37.5,10749],[38.2,10833],[38.9,10916],[40,10999],[40.6,11082],[40.6,11166],[40.6,11249],[40.6,11332],[40.6,11416],[40.6,11499],[42.9,11583],[44,11665],[44,11749],[45.6,11833],[47,11916],[47,11999],[47.7,12082],[48.2,12166],[48.3,12249],[50,12333],[52,12416],[53.6,12499],[54.9,12582],[55.8,12666],[57.3,12749],[57.4,12832],[57.7,12916],[59.5,12999],[59.5,13082],[59.6,13166],[61.1,13249],[61.5,13332],[63.1,13416],[64.3,13499],[64.7,13583],[67.1,13666],[67.6,13749],[67.7,13832],[70.1,13916],[70.8,13999],[71.6,14082],[75.7,14166],[76.8,14249],[77.5,14332],[79.6,14416],[79.8,14499],[79.8,14582],[79.8,14666],[79.8,14749],[79.8,14832],[79.8,14915],[79.8,14999],[79.8,15082],[79.8,15165],[79.8,15249],[79.8,15332],[79.8,15415],[79.8,15499],[79.8,15582],[79.8,15665],[79.8,15749],[79.8,15832],[79.7,15916],[78.9,15999],[78.2,16082],[77.5,16166],[75.8,16249],[72.6,16332],[72,16415],[70.6,16499],[68,16582],[66.3,16666],[65.9,16749],[65.8,16832],[64.6,16916],[64.3,16999],[64.3,17082],[64.3,17165],[62.9,17249],[62.9,17332],[61.5,17416],[60.7,17499],[59.8,17582],[59.6,17665],[59.2,17749],[58.5,17832],[58.5,17915],[57.9,17999],[57.1,18082],[57.1,18165],[57.1,18249],[57.1,18332],[57.1,18415],[57.1,18499],[56.3,18582],[56.3,18665],[56.3,18749],[56.3,18832],[56.3,18915],[56.3,18999],[55,19082],[53,19166],[52.9,19249],[52.9,19332],[52.9,19415],[52.9,19499],[52.9,19582],[52.9,19665],[52.9,19749],[52.6,19832],[52.6,19915],[51.8,19999],[51.6,20082],[51.6,20165],[51.6,20249],[51.6,20332],[51.6,20415],[51.6,20499],[51.6,20582],[51.6,20665],[51.6,20749],[51.6,20832],[51.6,20915],[51.6,20999],[51.7,21082],[51.7,21165],[51.7,21249],[52,21332],[52,21415],[52,21499],[52,21582],[52,21665],[53.2,21749],[53.8,21832],[54.8,21916],[55.9,21999],[56.8,22082],[57.9,22166],[58,22249],[58,22332],[58,22415],[60.6,22499],[62.7,22582],[65.3,22666],[67.4,22749],[69.7,22832],[72.1,22915],[73.5,22999],[74.6,23082],[75.9,23165],[78.1,23249],[79.6,23332],[82.3,23415],[84.9,23499],[86.8,23582],[89,23666],[91.8,23749],[94.6,23832],[96.6,23916],[97.5,23999],[97.5,24082],[97.5,24165],[97.5,24249],[97.5,24332],[97.7,24416],[99.5,24499],[99.5,24582],[99.5,24665],[99.5,24749],[99.5,24832],[99.5,24915],[99.5,24998],[99.5,25082],[99.5,25165],[99.5,25248],[99.5,25332],[99.5,25415],[99.5,25499],[99.5,25582],[99.5,25665],[99.5,25749],[99.5,25832],[99.5,25915],[99.5,25998],[99.5,26082],[99.5,26165],[99.5,26248],[99.5,26332],[99.5,26415],[99.5,26499],[99.5,26582],[99.5,26665],[99.5,26748],[99.5,26832],[99.5,26915],[99.5,26998],[99.5,27082],[99.5,27165],[99.5,27248],[99.5,27332],[99.5,27415],[99.5,27499],[99.5,27582],[99.5,27665],[99.5,27748],[99.5,27832],[99.5,27915],[99.5,27999],[99.5,28082],[99.5,28165],[99.5,28248],[99.5,28332],[99.5,28415],[99.5,28498],[99.5,28582],[99.5,28665],[99.5,28748],[99.5,28832],[99.7,28915],[99.9,28998],[99.9,29082],[100,29165],[100,29249],[100,29332],[100,29415]]",1,0,813.8988,816.2647,99.6875,1.5734,"[{""rating"":99.6875,""responseTime"":1.5733999999761181}]",space,1.8161,,816.2649,Not at all,0,816.2704,,,[],,0,11,11,11,1,audio/Narrative8Situation2.wav,audio/Narrative7Situation2.wav,audio/Narrative6Situation2.wav,audio/Narrative5Situation2.wav,3,3,3,3,,,,,,,,,,,,,,,,,,,,,,,,,,,,,,,,,,,,,,,
,,,,,,63d162577b5966c2fb4cf57b,2024-05-13_11h50.50.577,group3.1-3.2-social-tom,2023.2.2,Win32,60.24096386,65c5074098b851296ff0b7ed,6642368c72d9f656333d83fd,,,,,,,,,,,,,,,,,,,,,,,,,,,,,816.2708,2,audio/Narrative5Situation3.wav,819.2811,,819.2813,833.1977,"[[999,11],[999,83],[999,166],[999,249],[999,333],[999,416],[999,500],[999,582],[999,666],[999,749],[999,833],[999,916],[999,999],[999,1083],[999,1166],[999,1249],[999,1333],[999,1416],[999,1509],[999,1582],[999,1666],[999,1749],[999,1832],[999,1916],[999,1999],[999,2082],[999,2166],[999,2249],[999,2332],[999,2416],[999,2499],[999,2582],[999,2666],[999,2749],[999,2833],[999,2916],[42.6,2999],[43,3082],[43,3166],[43,3249],[43,3332],[43,3416],[42.7,3499],[42.1,3582],[42.4,3666],[50.4,3749],[53.5,3833],[55.4,3916],[55.5,3999],[59.9,4083],[60.8,4166],[62.9,4249],[65.5,4332],[66.1,4416],[66.1,4499],[67.3,4583],[67.3,4666],[67.3,4749],[67.3,4832],[67.3,4916],[67.3,4999],[68,5082],[69.3,5166],[70.3,5249],[70.3,5332],[70.3,5416],[73.1,5499],[73.8,5582],[76,5666],[84.3,5750],[89.9,5833],[89.9,5916],[94,5999],[96.3,6083],[98.2,6166],[100,6249],[100,6332],[100,6416],[100,6500]]",1,0,833.198,838.4641,99.16666667,4.0152,"[{""rating"":99.16666666666667,""responseTime"":4.015200000047685}]",space,4.7167,,838.4642,Definitely yes,100,838.4691,,,[],,0,12,12,12,1,audio/Narrative8Situation3.wav,audio/Narrative7Situation3.wav,audio/Narrative6Situation3.wav,audio/Narrative5Situation3.wav,4,8,5,3,,,,,,,,,,,,,,,,,,,,,,,,,,,,,,,,,,,,,,,
,,,,,,63d162577b5966c2fb4cf57b,2024-05-13_11h50.50.577,group3.1-3.2-social-tom,2023.2.2,Win32,60.24096386,65c5074098b851296ff0b7ed,6642368c72d9f656333d83fd,,,,,,,,,,,,,,,,,,,,,,,,,,,,,838.4694,2,audio/Narrative5Situation4.wav,839.4807,,839.4808,859.8804,"[[94.1,1083],[88.4,1166],[78.3,1249],[70.4,1333],[67.3,1416],[66.9,1499],[66.9,1583],[66.9,1666],[66.9,1749],[66.9,1833],[66.9,1916],[66.9,1999],[65.5,2083],[63.2,2166],[60,2250],[58.5,2332],[58.5,2416],[57.3,2500],[56.7,2582],[56.7,2666],[56.7,2749],[56.7,2833],[56.7,2916],[56.7,2999],[56.7,3083],[56.7,3166],[56.7,3249],[56.7,3333],[56.7,3416],[56.7,3499],[56.7,3582],[56.7,3666],[56.7,3749],[56.7,3833],[56.7,3916],[56.7,3999],[56.7,4083],[56.7,4166],[56.7,4249],[57.1,4333],[57.1,4416],[57.1,4499],[58,4583],[60.3,4666],[64.5,4749],[67.6,4833],[67.6,4916],[67.6,4999],[67.6,5083],[67.6,5166],[67.6,5249],[67.6,5333],[67.6,5416],[67.8,5499],[67.9,5582],[68,5666],[68,5749],[68,5832],[68,5916],[68,5999],[68,6082],[68,6166],[68,6249],[68,6332],[68,6416],[68,6499],[68,6582],[68,6666],[68,6749],[68,6832],[68,6916],[68,6999],[68,7083],[68,7166],[68,7249],[68,7332],[68,7418],[68,7499],[68,7582],[68,7666],[68,7749],[68,7832],[68,7916],[68,7999],[68,8082],[68,8166],[68,8249],[68,8333],[68,8416],[68,8499],[68,8583],[68,8666],[68,8749],[68,8833],[68,8915],[68,8999],[68.3,9082],[68.3,9166],[68.3,9249],[68.3,9332],[68.3,9416],[68.4,9499],[68.4,9582],[68.4,9666],[69.4,9749],[69.5,9832],[69.5,9916],[69.5,9999],[69.5,10082],[69.5,10166],[69.5,10249],[69.5,10332],[69.5,10416],[69.6,10499],[69.9,10583],[70.6,10666],[70.6,10749],[70.6,10832],[70.6,10916],[70.6,10999],[70.6,11082],[70.6,11166],[70.6,11249],[70.6,11332],[70.7,11416],[71.1,11499],[71.3,11582],[71.4,11666],[71.4,11749],[71.4,11832],[71.4,11916],[71.4,11999],[71.4,12082],[71.5,12166],[71.5,12249],[71.5,12332],[71.5,12416],[71.5,12499],[71.5,12582],[71.5,12666],[71.5,12749],[71.5,12832],[71.5,12916],[71.9,12999],[71.9,13083],[71.9,13166],[71.9,13249],[76,14082],[76,14165],[75.9,14249],[75.3,14332],[75.3,14416],[75.3,14499],[75.1,14582],[75.1,14665],[75.1,14749],[76.1,14832],[78.2,14916],[78.8,14999],[81.4,15082],[84.8,15166],[86.9,15249],[90.5,15333],[92.3,15416],[99.4,15499],[100,15582],[100,15665],[100,15749],[100,15832],[100,15916],[100,15999],[100,16082],[100,16166],[100,16249],[100,16332],[100,16416],[100,16499]]",1,0,859.8806,862.5971,100,1.8934,"[{""rating"":98.54166666666666,""responseTime"":1.2391000000237682},{""rating"":100,""responseTime"":1.8933999999761681}]",space,2.1732,,862.5972,Not at all,0,862.6006,,,[],,0,13,13,13,1,audio/Narrative8Situation4.wav,audio/Narrative7Situation4.wav,audio/Narrative6Situation4.wav,audio/Narrative5Situation4.wav,3,3,2,1,,,,,,,,,,,,,,,,,,,,,,,,,,,,,,,,,,,,,,,
,,,,,,63d162577b5966c2fb4cf57b,2024-05-13_11h50.50.577,group3.1-3.2-social-tom,2023.2.2,Win32,60.24096386,65c5074098b851296ff0b7ed,6642368c72d9f656333d83fd,,,,,,,,,,,,,,,,,,,,,,,,,,,,,862.6009,2,audio/Narrative5Situation5.wav,867.6132,,867.6132,883.0299,"[[999,17],[999,83],[999,166],[999,250],[999,333],[999,416],[999,500],[999,583],[999,667],[999,750],[999,834],[999,917],[999,1001],[999,1085],[999,1167],[999,1251],[999,1335],[999,1418],[999,1501],[999,1585],[999,1668],[999,1750],[999,1833],[999,1916],[999,2000],[999,2083],[999,2166],[999,2250],[999,2333],[999,2416],[999,2500],[999,2583],[999,2667],[999,2750],[71.6,2833],[68.1,2917],[59.5,3000],[59.1,3083],[59.1,3166],[59.1,3249],[59.1,3333],[59.1,3416],[59.1,3500],[59.1,3583],[59.1,3666],[59.1,3750],[61.6,3833],[64.3,3917],[64.3,3999],[64.3,4083],[64.3,4166],[64.3,4250],[64.3,4333],[64.3,4416],[64.3,4500],[64.3,4583],[64.3,4666],[64.3,4749],[64.3,4833],[64.3,4916],[64.3,4999],[64.3,5083],[64.3,5166],[64.3,5250],[64.3,5333],[64.3,5416],[64.3,5500],[64.3,5583],[64.3,5666],[64.3,5750],[64.3,5833],[64.3,5916],[64.3,6000],[64.3,6083],[64.8,6167],[65.8,6250],[66.4,6333],[66.4,6416],[66.4,6500],[66.4,6583],[66.4,6666],[66.4,6749],[66.4,6833],[66.4,6916],[66.4,6999],[66.4,7083],[66.4,7166],[66.4,7249],[66.4,7333],[66.4,7416],[66.4,7499],[66.4,7583],[66.4,7666],[66.4,7749],[66.4,7833],[66.4,7916],[66.4,7999],[66.4,8083],[66.4,8166],[66.4,8249],[66.4,8333],[66.4,8416],[66.4,8499],[66.4,8583],[66.4,8666],[66.4,8749],[66.4,8833],[66.4,8916],[66.4,9000],[66.4,9083],[66.4,9166],[66.4,9249],[66.4,9333],[66.4,9416],[66.7,9499],[67.2,9583],[67.3,9666],[67.3,9749],[67.3,9833],[67.3,9916],[67.3,9999],[67.3,10083],[67.3,10166],[67.3,10249],[67.3,10333],[67.3,10416],[67.3,10499],[67.3,10583],[67.3,10666],[67.3,10749],[67.3,10833],[67.3,10916],[67.3,10999],[67.3,11083],[67.3,11166],[67.3,11249],[67.3,11333],[67.3,11416],[67.3,11499],[67.3,11583],[67.3,11666],[67.3,11750],[67.3,11833],[67.3,11916],[67.3,11999],[67.3,12083],[67.3,12166],[67.3,12249],[67.3,12333],[67.3,12416],[67.3,12499],[67.3,12583],[67.3,12666],[67.3,12749],[67.3,12833],[67.3,12916],[67.3,12999],[67.3,13083],[67.3,13166],[67.3,13249],[67.3,13333],[67.3,13416],[67.3,13499],[67.3,13583],[67.3,13666],[67.3,13749],[67.3,13833],[67.3,13916],[67.3,13999],[67.3,14083],[67.3,14166],[67.3,14249],[67.3,14333],[67.3,14416],[67.3,14499],[67.3,14583],[67.3,14666],[67.3,14749],[67.3,14833],[67.3,14916],[67.3,14999],[67.3,15083],[67.7,15166],[68.4,15249],[68.4,15333],[68.4,15416]]",1,0,883.0302,885.3629,62.1875,0.9483,"[{""rating"":62.18749999999999,""responseTime"":0.9483000000715265}]",space,1.7839,,885.363,Not at all,0,885.365,,,[],,0,14,14,14,1,audio/Narrative8Situation5.wav,audio/Narrative7Situation5.wav,audio/Narrative6Situation5.wav,audio/Narrative5Situation5.wav,2,5,2,5,,,,,,,,,,,,,,,,,,,,,,,,,,,,,,,,,,,,,,,
,,,,,,63d162577b5966c2fb4cf57b,2024-05-13_11h50.50.577,group3.1-3.2-social-tom,2023.2.2,Win32,60.24096386,65c5074098b851296ff0b7ed,6642368c72d9f656333d83fd,,,,,,,,,,,,,,,,,,,,,,,,,,,,,885.3654,2,audio/Narrative5Situation6.wav,888.3796,,888.3796,894.0628,"[[61,2166],[61,2249],[61,2333],[61,2416],[61,2499],[61,2583],[61,2666],[61,2749],[61,2833],[61,2916],[60.9,3000],[60.8,3083],[60.8,3166],[60.8,3250],[60.8,3333],[60.8,3416],[60.8,3500],[60.3,3583],[59.8,3667],[59.6,3750],[59.4,3833],[63.5,4333],[63.5,4416],[64.3,4500],[64.4,4583],[64.4,4666],[64.4,4749],[64.4,4833],[64.4,4916],[64.4,4999],[64.4,5083],[64.4,5166],[60.4,5250],[58.4,5333],[57.7,5416],[54.7,5500],[54,5582],[54,5666]]",1,0,894.063,896.3295,53.4375,1.1233,"[{""rating"":53.43750000000001,""responseTime"":1.1232999999523372}]",space,1.719,,896.3296,Definitely yes,100,896.3338,,,[],,0,15,15,15,1,audio/Narrative8Situation6.wav,audio/Narrative7Situation6.wav,audio/Narrative6Situation6.wav,audio/Narrative5Situation6.wav,2,3,2,3,,,,,,,,,,,,,,,,,,,,,,,,,,,,,,,,,,,,,,,
,,,,,,63d162577b5966c2fb4cf57b,2024-05-13_11h50.50.577,group3.1-3.2-social-tom,2023.2.2,Win32,60.24096386,65c5074098b851296ff0b7ed,6642368c72d9f656333d83fd,,,,,,,,,,,,,,,,,,,,,,,,,,,,,896.3341,2,audio/Narrative5Situation7.wav,900.346,,900.346,921.3954,"[[999,18],[999,99],[999,183],[999,266],[999,349],[999,433],[999,516],[999,599],[999,683],[999,766],[999,849],[999,933],[999,1016],[999,1099],[999,1182],[41.9,1266],[42.5,1350],[45.7,1433],[46.9,1516],[46.9,1599],[46.9,1682],[46.9,1766],[46.9,1849],[47.9,1933],[50.3,2016],[51.6,2100],[53.1,2183],[55.7,2266],[58.6,2350],[60.1,2433],[60.8,2516],[60.8,2599],[60.8,2683],[60.8,2766],[60.8,2849],[60.8,2933],[60.8,3016],[62,3100],[62.4,3182],[62.4,3266],[62.4,3349],[62.4,3433],[62.4,3516],[62.4,3599],[62.4,3682],[62.4,3766],[62.4,3849],[62.4,3932],[62.4,4016],[62.4,4099],[62.4,4182],[62.4,4266],[62.4,4349],[62.4,4432],[62.4,4516],[62.4,4599],[62.7,4683],[64.7,4766],[65.5,4850],[67.9,4933],[68.5,5016],[69.1,5100],[72.5,5183],[74.2,5266],[74.3,5349],[74.3,5432],[74.3,5516],[74.3,5599],[74.3,5682],[74.3,5766],[74.3,5849],[74.3,5932],[74.3,6016],[74.3,6099],[74.3,6182],[74.3,6266],[74.3,6349],[74.3,6432],[74.3,6516],[74.3,6599],[74.3,6683],[74.3,6766],[74.3,6849],[74.3,6932],[74.3,7016],[74.3,7099],[74.3,7182],[74.3,7266],[74.3,7349],[74.3,7432],[74.3,7516],[74.3,7599],[74.3,7682],[74.3,7766],[74.3,7849],[74.3,7933],[74.3,8016],[74.3,8099],[74.3,8182],[74.3,8266],[74.3,8349],[74.3,8432],[74.3,8516],[74.3,8599],[74.3,8682],[74.3,8766],[74.3,8849],[74.3,8933],[74.3,9016],[74.3,9099],[74.3,9182],[74.3,9266],[74.3,9349],[74.3,9432],[74.3,9516],[74.3,9599],[74.3,9682],[74.3,9766],[74.3,9849],[74.3,9932],[74.3,10016],[74.3,10099],[74.3,10182],[74.4,10266],[74.7,10349],[74.7,10432],[74.7,10516],[74.7,10599],[74.7,10682],[74.7,10766],[74.7,10849],[74.7,10932],[74.7,11016],[74.7,11099],[74.7,11182],[74.7,11266],[74.7,11349],[74.7,11432],[74.7,11516],[74.7,11599],[74.7,11682],[74.7,11766],[74.7,11849],[74.7,11932],[74.7,12016],[74.7,12099],[74.7,12182],[74.7,12266],[74.7,12349],[74.7,12432],[74.7,12516],[74.7,12599],[74.7,12682],[74.7,12765],[74.7,12849],[74.7,12932],[74.7,13016],[74.7,13099],[74.7,13182],[74.8,13266],[74.9,13349],[74.9,13432],[74.9,13516],[75.1,13599],[75.2,13683],[75.2,13766],[75.2,13849],[75.2,13932],[75.2,14016],[75.2,14099],[75.2,14182],[75.2,14266],[75.2,14349],[75.2,14432],[75.2,14515],[75.2,14599],[75.2,14682],[75.2,14766],[75.2,14849],[75.2,14932],[75.2,15016],[75.2,15099],[75.2,15182],[75.2,15265],[75.2,15349],[75.2,15432],[75.2,15516],[75.2,15599],[75.2,15682],[75.2,15766],[75.2,15849],[75.2,15932],[75.2,16016],[75.2,16099],[75.2,16182],[75.2,16266],[75.2,16349],[75.2,16432],[75.2,16516],[75.2,16599],[75.2,16682],[75.2,16766],[75.2,16849],[75.6,16932],[75.7,17016],[76.3,17099],[76.6,17182],[76.6,17265],[76.6,17349],[76.6,17432],[76.6,17515],[76.6,17599],[76.6,17682],[75.6,17766],[74.2,17849],[73.8,17932],[71.9,18016],[71.6,18099],[71.6,18182],[71.3,18266],[70,18349],[67.7,18433],[65.5,18516],[64.9,18599],[64.9,18682],[64.9,18765],[64.9,18849],[64.9,18932],[64.3,19016],[64,19099],[64,19182],[64,19265],[63.8,19349],[62.6,19432],[62.6,19515],[62.4,19599],[62.2,19682],[62.2,19766],[62.2,19849],[62.2,19932],[62.2,20015],[62.2,20099],[62.2,20182],[62.2,20266],[62.2,20349],[61.8,20432],[61.8,20515],[61.8,20599],[61.8,20682],[61.8,20765],[61.8,20849],[61.8,20932],[61.8,21015]]",1,0,921.3956,923.3621,61.45833333,0.779,"[{""rating"":61.458333333333336,""responseTime"":0.7789999999999964}]",space,1.4258,,923.3622,Definitely yes,100,923.3651,,,[],,0,16,16,16,1,audio/Narrative8Situation7.wav,audio/Narrative7Situation7.wav,audio/Narrative6Situation7.wav,audio/Narrative5Situation7.wav,3,5,5,4,,,,,,,,,,,,,,,,,,,,,,,,,,,,,,,,,,,,,,,
,,,,,,63d162577b5966c2fb4cf57b,2024-05-13_11h50.50.577,group3.1-3.2-social-tom,2023.2.2,Win32,60.24096386,65c5074098b851296ff0b7ed,6642368c72d9f656333d83fd,,,,,,,,,,,,,,,,,,,,,,,,,,,,,923.3656,2,audio/Narrative5Situation8.wav,926.3785,,926.3785,935.2118,"[[58.5,750],[53.2,833],[50.7,916],[47.2,1000],[43.6,1083],[41.6,1166],[39.5,1250],[39.1,1333],[39.3,1416],[41.3,1500],[43.8,1583],[43.8,1666],[43.8,1749],[45.4,1833],[45.9,1916],[45.9,1999],[45.9,2083],[45.9,2166],[45.9,2249],[45.9,2333],[45.9,2416],[45.9,2500],[45.9,2583],[43.9,2666],[43.2,2750],[39.8,2833],[36.4,2916],[33.8,3000],[31.1,3083],[28.8,3166],[27.7,3250],[24.8,3333],[21.5,3416],[21.4,3499],[20.9,3583],[18.9,3666],[18.8,3749],[18.8,3833],[18.8,3916],[18.8,4000],[18.8,4083],[18.8,4166],[18.8,4250],[18.8,4333],[18.8,4416],[18.8,4500],[18.8,4583],[18.8,4666],[18.8,4749],[18.8,4833],[18.9,4916],[19,4999],[19,5083],[19,5166],[19.2,5250],[20.4,5333],[21.3,5416],[21.4,5499],[21.4,5583],[21.4,5666],[21.7,5749],[21.7,5833],[21.7,5916],[21.7,5999],[21.5,6083],[20.8,6166],[19.5,6250],[19.4,6333],[18.9,6416],[17.9,6500],[17,6583],[16.7,6666],[16.4,6750],[15.3,6833],[14.6,6916],[14.6,6999],[14.5,7083],[13.9,7166],[13.8,7249],[13.8,7333],[13.8,7416],[13.8,7499],[13.8,7583],[13.8,7666],[13.8,7749],[13.8,7833],[13.8,7916],[13.8,7999],[13.8,8083],[13.8,8166],[13.8,8249],[13.8,8333],[13.8,8416],[13.8,8499],[13.8,8583],[13.8,8666],[13.8,8749],[13.8,8833]]",1,0,935.212,937.7117,0,1.8183,"[{""rating"":2.812500000000001,""responseTime"":1.040300000071511},{""rating"":0,""responseTime"":1.818300000071531}]",space,1.9478,,937.7118,Partially,50,937.7167,,,[],,0,17,17,17,1,audio/Narrative8Situation8.wav,audio/Narrative7Situation8.wav,audio/Narrative6Situation8.wav,audio/Narrative5Situation8.wav,3,2,5,3,,,,,,,,,,,,,,,,,,,,,,,,,,,,,,,,,,,,,,,
,,,,,,63d162577b5966c2fb4cf57b,2024-05-13_11h50.50.577,group3.1-3.2-social-tom,2023.2.2,Win32,60.24096386,65c5074098b851296ff0b7ed,6642368c72d9f656333d83fd,,,,,,,,,,,,,,,,,,,,,,,,,,,,,937.7171,2,audio/Narrative5Situation9.wav,940.7282,,940.7283,980.2774,"[[999,0],[999,83],[999,166],[999,249],[999,333],[999,416],[999,499],[999,582],[999,666],[999,749],[999,833],[999,916],[999,999],[999,1083],[999,1166],[999,1250],[5.8,1333],[6.3,1416],[6.5,1500],[6.5,1583],[7,1666],[9.1,1750],[10.1,1833],[11.8,1916],[13.3,2000],[14.1,2083],[14.4,2166],[15.7,2250],[17.3,2333],[17.3,2416],[17.4,2500],[19.1,2583],[19.2,2666],[19.5,2749],[19.5,2832],[19.5,2916],[19.6,2999],[21,3082],[21,3166],[21,3249],[21.1,3332],[22.3,3416],[24,3499],[27.5,3583],[29.9,3666],[32.9,3749],[35.5,3833],[37.9,3916],[42.2,3999],[46.7,4083],[49.4,4166],[52.1,4249],[56.4,4333],[60.1,4416],[60.5,4499],[64.3,4583],[64.6,4666],[64.6,4749],[64.6,4833],[64.6,4916],[64.6,4999],[64.6,5082],[64.6,5166],[64.7,5250],[64.8,5332],[64.8,5416],[64.8,5499],[66.3,5583],[67.3,5666],[68.5,5749],[68.9,5833],[69.6,5916],[69.7,5999],[68.6,6083],[66.1,6166],[63.8,6249],[63.8,6333],[63.8,6416],[63.5,6499],[63.3,6582],[62.9,6666],[62.1,6749],[56.6,7916],[57.1,7999],[57.1,8082],[57.1,8166],[57.1,8249],[57.1,8332],[55.9,8416],[55.8,8499],[55.8,8582],[54.7,8666],[54.7,8749],[54.7,8832],[55.8,8916],[57.8,8999],[59.7,9083],[60.4,9166],[61,9249],[61.3,9332],[61.3,9416],[61.3,9499],[61.7,9583],[61.8,9666],[62.2,9749],[62.6,9833],[62.7,9916],[62.7,9999],[62.7,10082],[62.7,10166],[62.7,10249],[62.7,10332],[62.7,10416],[62.7,10499],[62.7,10582],[62.7,10666],[64.1,10749],[64.8,10833],[65,10916],[65,10999],[63.4,11083],[63.3,11166],[63.1,11249],[63,11333],[62.3,11416],[61.7,11499],[61.7,11582],[61.7,11666],[61.7,11749],[63,11832],[64.9,11916],[66.4,11999],[68.6,12082],[70.4,12166],[71.1,12249],[72,12333],[72.6,12416],[72.8,12499],[73.1,12583],[73.2,12666],[73.4,12749],[73.6,12833],[74.6,12916],[74.6,12999],[74.8,13082],[75.1,13166],[75.1,13249],[75.4,13332],[75.8,13416],[76.4,13499],[77.6,13582],[79,13666],[79.4,13749],[80.3,13832],[80.8,13916],[82.1,13999],[83.2,14083],[84.7,14166],[85.7,14249],[86.6,14332],[88.2,14416],[89.3,14499],[90.1,14582],[90.2,14666],[90.7,14749],[91.6,14832],[92,14916],[92.3,14999],[92.9,15082],[93.9,15166],[94.7,15249],[95.4,15333],[96.1,15416],[97.2,15499],[97.6,15583],[98.2,15666],[98.9,15749],[99,15832],[99.6,15916],[99.7,15999],[99.7,16082],[99.7,16166],[99.7,16249],[99.7,16332],[99.7,16416],[99.7,16499],[99.7,16582],[99.7,16666],[99.7,16749],[99.7,16832],[99.7,16916],[99.7,16999],[99.7,17082],[99.7,17166],[99.7,17249],[99.7,17332],[99.7,17416],[99.7,17499],[100,17582],[100,17666],[100,17749],[100,17833],[100,17916],[100,17999],[100,18082],[100,18166],[100,18249],[100,18332],[100,18416],[100,18499],[100,18582]]",1,0,980.2775,982.2773,99.27083333,1.1203,"[{""rating"":99.27083333333333,""responseTime"":1.1203000000716656}]",space,1.457,,982.2774,Not at all,0,982.2822,,,[],,0,18,18,18,1,audio/Narrative8Situation9.wav,audio/Narrative7Situation9.wav,audio/Narrative6Situation9.wav,audio/Narrative5Situation9.wav,3,2,4,3,,,,,,,,,,,,,,,,,,,,,,,,,,,,,,,,,,,,,,,
,,,,,,63d162577b5966c2fb4cf57b,2024-05-13_11h50.50.577,group3.1-3.2-social-tom,2023.2.2,Win32,60.24096386,65c5074098b851296ff0b7ed,6642368c72d9f656333d83fd,,,,,,,,,,,,,,,,,,,,,,,,,,,,,,,,,,,,,,,,,,,,,,,,,,,,,,,,,,,,,,,,,,,,,,,,982.2826,985.5606,space,2.7498,,985.5611,996.9609,space,11.0716,,,,,,,,,,,,,,,,,,,,,,,,,,
,,,,,,63d162577b5966c2fb4cf57b,2024-05-13_11h50.50.577,group3.1-3.2-social-tom,2023.2.2,Win32,60.24096386,65c5074098b851296ff0b7ed,6642368c72d9f656333d83fd,,,,,,,,,,,,,,,,,,,,,,,,,,,,,999.5705,1,audio/Narrative7Situation9.wav,1001.5768,,,,,,,1033.4407,1125.9236,26.04166667,91.7369,"[{""rating"":25.3125,""responseTime"":1.2957999999523508},{""rating"":26.041666666666664,""responseTime"":91.73689999997623}]",space,91.9561,,1033.4269,Definitely yes,100,1033.4407,,,[],,,,,,,,,,,2,2,2,2,,,,,,,,,,,,,,,996.9741,999.5437,1001.5772,3,1033.4267,"[[32.9,2916],[31.5,2999],[29.6,3082],[20.3,3166],[15.7,3249],[12.4,3333],[7.8,3416],[5.6,3499],[3.8,3582],[0.6,3666],[0.5,3749],[0.5,3832],[0.4,3916],[0.3,3999],[0.3,4082],[0.3,4165],[0.3,4249],[0.3,4332],[0.3,4416],[0.3,4499],[0.3,4582],[0.3,4665],[0.3,4749],[0.3,4832],[0.4,4915],[0.8,4999],[1.3,5082],[1.8,5166],[2.5,5249],[2.8,5332],[2.9,5415],[2.9,5499],[2.9,5582],[2.5,5665],[2.2,5749],[2.1,5832],[2.1,5915],[2.1,5999],[2.1,6082],[2.1,6165],[2.1,6249],[2.1,6332],[2.1,6415],[2.1,6499],[2.1,6582],[2.1,6665],[2.1,6749],[2.1,6832],[2.1,6915],[2.1,6999],[2.1,7082],[2.1,7165],[2.1,7249],[2.1,7332],[2.1,7415],[2.1,7499],[2.1,7582],[2.1,7665],[2.1,7749],[2.1,7832],[2.1,7915],[2.1,7999],[2.1,8082],[2.1,8165],[2.1,8249],[2.1,8332],[2.1,8415],[2.1,8499],[2.1,8582],[2.1,8665],[2.1,8749],[2.1,8832],[2.1,8915],[2.1,8999],[2.1,9082],[2.1,9165],[2.1,9249],[2.1,9332],[2.1,9415],[2.1,9499],[2.1,9582],[2.1,9665],[2.1,9749],[2.1,9832],[2.1,9915],[2.1,9999],[2.1,10082],[2.1,10165],[2.1,10249],[2.1,10332],[2.1,10415],[2.1,10499],[2.1,10582],[2.1,10665],[2.1,10749],[2.1,10832],[2.1,10915],[2.1,10999],[2.1,11082],[2.1,11165],[2.1,11249],[2.1,11332],[2.1,11415],[2.1,11499],[2.1,11582],[2.1,11665],[2.1,11749],[2.1,11832],[2.1,11915],[2.1,11999],[2.1,12082],[2.1,12165],[2.1,12249],[2.1,12332],[2.1,12415],[2.1,12499],[2.1,12582],[2.1,12665],[2.1,12749],[2.1,12832],[2.1,12915],[2.1,12999],[2.1,13082],[2.1,13165],[2.1,13249],[2.1,13332],[2.1,13415],[2.1,13499],[2.1,13582],[2.1,13665],[2.1,13749],[2.1,13832],[2.1,13915],[2.1,13999],[2.1,14082],[2.1,14165],[2.1,14249],[2.1,14332],[2.1,14415],[2.1,14499],[2.1,14582],[2.1,14666],[2.1,14749],[2.1,14832],[2.1,14915],[2.1,14999],[2.1,15082],[2.1,15165],[2.1,15248],[2.1,15332],[2.1,15415],[2.1,15499],[2.1,15582],[2.1,15665],[2.1,15749],[2.1,15832],[2.1,15915],[2.1,15999],[2.1,16082],[2.1,16165],[2.1,16249],[2.1,16332],[2.1,16415],[2.1,16499],[2.1,16582],[2.1,16665],[2.1,16749],[2.1,16832],[2.1,16915],[2.1,16998],[2.1,17082],[2.1,17165],[2.1,17249],[2.1,17332],[2.1,17415],[2.1,17498],[2.1,17582],[2.1,17665],[2.1,17748],[2.1,17832],[2.1,17915],[2.1,17999],[2.1,18082],[2.1,18165],[2.1,18249],[2.1,18332],[2.1,18415],[2.1,18498],[2.1,18582],[2.1,18665],[2.1,18749],[2.1,18832],[2.1,18915],[2.1,18999],[2.1,19082],[2.1,19165],[2.1,19248],[2.1,19332],[2.1,19415],[2.1,19499],[2.1,19582],[2.1,19665],[2.1,19748],[2.1,19832],[2.1,19915],[2.1,19998],[2.1,20082],[2.1,20165],[2.1,20248],[2.1,20332],[2.1,20415],[2.1,20499],[2.1,20582],[2.1,20665],[2.1,20749],[2.1,20832],[2.1,20915],[2.1,20998],[2.1,21082],[2.1,21165],[2.1,21248],[2.1,21332],[2.1,21415],[2.1,21498],[2.1,21582],[2.1,21665],[2.1,21748],[2.1,21832],[2.1,21915],[2.1,21999],[2.1,22082],[2.1,22165],[2.1,22248],[2.1,22332],[2.1,22415],[2.1,22498],[2.1,22582],[2.1,22665],[2.1,22748],[2.1,22832],[2.1,22915],[2.1,22998],[2.1,23082],[2.1,23165],[2.1,23248],[2.1,23332],[2.1,23415],[2.1,23498],[2.1,23582],[2.1,23665],[2.1,23748],[2.1,23832],[2.1,23915],[2.1,23998],[2.1,24082],[2.1,24165],[2.1,24248],[2.1,24332],[2.1,24415],[2.1,24498],[2.1,24582],[2.1,24665],[2.1,24748],[2.1,24832],[2.1,24915],[2.1,24998],[2.1,25082],[2.1,25165],[4.4,25248],[8.9,25332],[13.3,25415],[16.6,25499],[19.8,25582],[21.9,25665],[23.5,25748],[25.2,25831],[27.7,25915],[29.3,25998],[29.6,26081],[29.6,26165],[30.5,26248],[33.6,26332],[33.6,26415],[33.6,26498],[33.4,26582],[33.4,26665],[33.4,26748],[33.8,26832],[38.6,26915],[40.7,26999],[44.6,27082],[48.4,27165],[50.4,27249],[53.8,27332],[54.2,27415],[55.2,27499],[56.6,27582],[57,27665],[57,27748],[57,27831],[57.1,27915],[58.2,27998],[58.2,28081],[58.2,28165],[58.2,28248],[58.2,28331],[58.2,28415],[58.2,28498],[58.2,28581],[58.2,28665],[58.2,28748],[58.2,28831],[58.2,28915],[58.2,28998],[58.2,29082],[58.2,29165],[58.2,29248],[58.2,29332],[58.2,29415],[58.2,29498],[58.2,29581],[58.2,29665],[58.2,29748],[58.2,29834],[58.2,29914],[58.2,29998],[58.2,30081],[58.2,30165],[58.2,30248],[58.2,30331],[58.2,30415],[58.2,30498],[58.2,30582],[58.2,30665],[58.2,30748],[58.2,30831],[58.2,30915],[58.2,30998],[58.2,31081],[58.2,31165],[58.2,31248],[58.2,31332],[58.2,31415],[58.2,31498],[58.2,31581],[58.2,31665],[58.2,31748],[58.2,31831]]",0,0,0,0,1,"Larry had recently lost his family, job and home, and was now living on his own in the park. He had most of his belongings, including some clothes, a blanket, and his mother’s special necklace. His family had been very important to him and he felt as though he did not have much going for him. One of his first days in the park he came across a family that did not have much food and looked very cold. He decided to give them some of his food and his blanket.","Larry had recently lost his family, job and home, and was now living on his own in the park. He had most of his belongings, including some clothes, a blanket, and his mother’s special necklace. His family had been very important to him and he felt as though he did not have much going for him. One of his first days in the park he came across a family that did not have much food and looked very cold. He decided to give them some of his food and his blanket.","Larry had recently lost his family, job and home, and was now living on his own in the park. He had most of his belongings, including some clothes, a blanket, and his mother’s special necklace. His family had been very important to him and he felt as though he did not have much going for him. One of his first days in the park he came across a family that did not have much food and looked very cold. He decided to give them some of his food and his blanket.","Larry had recently lost his family, job and home, and was now living on his own in the park. He had most of his belongings, including some clothes, a blanket, and his mother’s special necklace. His family had been very important to him and he felt as though he did not have much going for him. One of his first days in the park he came across a family that did not have much food and looked very cold. He decided to give them some of his food and his blanket.",,,,,,,,,,
,,,,,,63d162577b5966c2fb4cf57b,2024-05-13_11h50.50.577,group3.1-3.2-social-tom,2023.2.2,Win32,60.24096386,65c5074098b851296ff0b7ed,6642368c72d9f656333d83fd,,,,,,,,,,,,,,,,,,,,,,,,,,,,,1125.9256,1,audio/Narrative7Situation9.wav,1128.1738,space,,,,,,1152.0264,1153.5563,92.1875,1.0718,"[{""rating"":92.1875,""responseTime"":1.071800000071562}]",space,0.9918,,1152.0236,Definitely yes,100,1152.0263,,,[],,,,,,,,,,,6,2,3,9,2.2218,,,,,,,,,,,,,,,,1128.1739,3,1152.0233,"[[33.3,2500],[32.7,2583],[32.7,2666],[32.6,2749],[28.1,2833],[27.9,2916],[27.9,2999],[26.8,3082],[25,3166],[25,3249],[25,3332],[25,3415],[25,3499],[25,3582],[25,3666],[25,3749],[25,3832],[25,3916],[25,3999],[25,4082],[25,4166],[25,4249],[25,4332],[25,4416],[25,4499],[25,4583],[25,4666],[25,4749],[25,4832],[25,4916],[25,4999],[25,5082],[25,5166],[25,5249],[25,5332],[25,5416],[25,5499],[25,5582],[25,5665],[25,5749],[25,5832],[25,5916],[25,5999],[25,6082],[25,6166],[25,6249],[22.4,6332],[20.2,6416],[18.2,6499],[16.8,6583],[16.8,6666],[16.8,6749],[16.8,6832],[16.8,6916],[26.9,10099],[24.6,10182],[24.3,10266],[24.3,10349],[24.1,10432],[18.8,10516],[18.6,10599],[19,10682],[19.7,10766],[19.7,10849],[19.7,10932],[19.7,11016],[19.7,11099],[22,11516],[22,11599],[22,11682],[22,11765],[23,11849],[27.7,11932],[40.5,12016],[47.2,12099],[49.4,12182],[51,12266],[54.2,12349],[59.8,12432],[62.7,12516],[65.1,12599],[68,12682],[68.1,12765],[68.1,12849],[69.4,12932],[69.4,13015],[69.4,13099],[69.4,13182],[69.4,13265],[69.4,13349],[69.3,13432],[69.3,13515],[69.3,13599],[69.3,13682],[69.3,13765],[69.3,13849],[69.3,13932],[69.3,14015],[69.3,14099],[69.3,14182],[69.3,14266],[69.3,14349],[69.3,14432],[69.3,14515],[69.3,14599],[69.3,14682],[69.3,14765],[69.3,14849],[69.3,14932],[69.3,15016],[69.3,15099],[69.3,15182],[69.3,15265],[69.3,15349],[69.3,15432],[69.3,15515],[69.3,15599],[69.3,15682],[69.3,15765],[69.3,15849],[69.3,15932],[69.3,16015],[69.3,16099],[69.3,16182],[69.3,16265],[69.3,16349],[69.3,16432],[69.3,16516],[69.3,16599],[69.3,16682],[69.3,16765],[69.3,16849],[69.3,16932],[69.3,17015],[69.3,17099],[69.3,17182],[69.3,17265],[69.3,17349],[69.3,17432],[69.3,17515],[69.3,17599],[69.3,17682],[68.8,17765],[69.4,17849],[69.4,17932],[69.5,18016],[70.6,18099],[72.6,18182],[76.7,18265],[76.9,18349],[76.9,18432],[92.9,19182],[93.1,19265],[93.5,19349],[93.5,19432],[93.5,19515],[93.5,19599],[93.6,19682],[93.6,19766],[93.5,19849],[93.5,19932],[93.5,20015],[93.5,20098],[94.8,20182],[95.7,20266],[95.7,20349],[95.6,20432],[94.4,20516],[93.4,20599],[93.4,20682],[93.4,20765],[93.4,20848],[93.4,20932],[93.4,21015],[93.4,21099],[93.4,21182],[93.4,21265],[93.4,21348],[92.8,21432],[92.8,21515],[92.8,21599],[92.8,21682],[92.8,21765],[92.8,21849],[92.8,21932],[92.8,22015],[92.8,22099],[92.8,22182],[92.8,22265],[92.8,22349],[92.8,22432],[92.8,22515],[92.8,22599],[92.8,22682],[92.8,22765],[92.8,22849],[92.8,22932],[92.8,23015],[92.8,23099],[92.8,23182],[92.8,23265],[92.8,23349],[92.8,23432],[92.8,23515],[92.8,23599],[92.8,23682],[92.8,23765],[92.8,23849]]",0,1,1,1,1,"It was just another Sunday afternoon for Lucy, she was on her way to the farmer's market to pick up some produce. When she arrived at the old train depot that housed the market, she noticed two men fighting on the steps. Before she could call for help, one of the men crumpled to his knees. The other man dropped an object that appeared to be a knife and ran off. When Lucy approached the crime scene she realized that the man who had been murdered was the Mayor and that he had a gunshot wound.","One day at work, Margaret walked up to her partner, Al, to ask him to talk to the chief of staff at the local hospital where she worked as a nurse.","Luke always thought of himself as an honest man. That's why during his evening jog around the swamp, he pondered his recent affair with the receptionist at work. Luke looked up at the sky and asked God why he was so weak and unfaithful. He thought of the impact this would have on his family and told God of his conflicted feelings toward telling his wife Marta.","Linda and Amy had been best friends since kindergarten, they even found homes on the same street in the forest on the edge of town. Their biggest fight had been over who gets the bigger slice of cake, until Amy married Dan. Linda loathed Dan, she thought he was manipulative and had a violent temper. She only put up with him because Amy loved him. ",,,,,,,,,,
