exp_question,consent.started,consent.stopped,consentResponse.keys,consentResponse.rt,consentResponse.duration,participantID,date,expName,psychopyVersion,OS,frameRate,STUDY_ID,SESSION_ID,opening1.started,opening1.stopped,keyEndingOpening1.keys,keyEndingOpening1.rt,keyEndingOpening1.duration,volumeAdjust.started,volumeAdjust.stopped,endingAdjust.keys,endingAdjust.rt,endingAdjust.duration,opening2.started,opening2.stopped,keyEndingOpening.keys,keyEndingOpening.rt,keyEndingOpening.duration,mouse.x,mouse.y,mouse.leftButton,mouse.midButton,mouse.rightButton,mouse.time,instructionLoop.thisRepN,instructionLoop.thisTrialN,instructionLoop.thisN,instructionLoop.thisIndex,instructionLoop.ran,readyForAudio.started,readyForAudio.stopped,fixation.started,run,audio_played,fixation.stopped,endPractice.keys,audioPre.started,audioPre.stopped,continuousResponses_audio,continuousSlider.response,continuousSlider.rt,intRating.started,intRating.stopped,intQuestionSlider.response,intQuestionSlider.rt,intQuestionSlider.history,confirmResponse.keys,confirmResponse.rt,confirmResponse.duration,catchQuestion.started,catch_label,catch_value,catchQuestion.stopped,catchQuestionSlider.response,catchQuestionSlider.rt,catchQuestionSlider.history,confirmResponse_2.keys,audioRunLoop.thisRepN,audioRunLoop.thisTrialN,audioRunLoop.thisN,audioRunLoop.thisIndex,audioRunLoop.ran,conditions1_1,conditions2_1,conditions1_2,conditions2_2,dur1_1,dur2_1,dur1_2,dur2_2,endPractice.rt,endPractice.duration,confirmResponse_2.rt,confirmResponse_2.duration,runIntervalBreak.started,runIntervalBreak.stopped,endingBreakKey.keys,endingBreakKey.rt,endingBreakKey.duration,connection.started,connection.stopped,connectionEnding.keys,connectionEnding.rt,connectionEnding.duration,readyForText.started,readyForText.stopped,textPre.started,run_dup,textPre.stopped,continuousResponses_text,textRunLoop.thisRepN,textRunLoop.thisTrialN,textRunLoop.thisN,textRunLoop.thisIndex,textRunLoop.ran,text1_1,text1_2,text2_1,text2_2,runBreakText.started,runBreakText.stopped,endingBreakKey_2.keys,endingBreakKey_2.rt,endingBreakKey_2.duration,ending.started,ending.stopped,endingEnding.keys,endingEnding.rt,endingEnding.duration
tom,0,11.799,y,11.488,,63d423b81f5e313b9958723c,2024-02-08_13h42.15.282,group3.1-3.2-social-tom,2023.2.2,Win32,144.092219,65c5074098b851296ff0b7ed,65c54a7447f20f00b2aefe86,,,,,,,,,,,,,,,,,,,,,,,,,,,,,,,,,,,,,,,,,,,,,,,,,,,,,,,,,,,,,,,,,,,,,,,,,,,,,,,,,,,,,,,,,,,,,,,,,,,,,,,,,,
,,,,,,63d423b81f5e313b9958723c,2024-02-08_13h42.15.282,group3.1-3.2-social-tom,2023.2.2,Win32,144.092219,65c5074098b851296ff0b7ed,65c54a7447f20f00b2aefe86,11.799,29.112,space,17.296,,,,,,,,,,,,,,,,,,,,,,,,,,,,,,,,,,,,,,,,,,,,,,,,,,,,,,,,,,,,,,,,,,,,,,,,,,,,,,,,,,,,,,,,,,,,,,,,,,,,,,
,,,,,,63d423b81f5e313b9958723c,2024-02-08_13h42.15.282,group3.1-3.2-social-tom,2023.2.2,Win32,144.092219,65c5074098b851296ff0b7ed,65c54a7447f20f00b2aefe86,,,,,,29.112,42.889,space,13.465,,,,,,,,,,,,,,,,,,,,,,,,,,,,,,,,,,,,,,,,,,,,,,,,,,,,,,,,,,,,,,,,,,,,,,,,,,,,,,,,,,,,,,,,,,,,,,,,,
,,,,,,63d423b81f5e313b9958723c,2024-02-08_13h42.15.282,group3.1-3.2-social-tom,2023.2.2,Win32,144.092219,65c5074098b851296ff0b7ed,65c54a7447f20f00b2aefe86,,,,,,,,,,,42.892,53.716,space,10.81,,[],[],[],[],[],[],0,0,0,0,1,,,,,,,,,,,,,,,,,,,,,,,,,,,,,,,,,,,,,,,,,,,,,,,,,,,,,,,,,,,,,,,,,,,,,,,,,,,,,,,,
,,,,,,63d423b81f5e313b9958723c,2024-02-08_13h42.15.282,group3.1-3.2-social-tom,2023.2.2,Win32,144.092219,65c5074098b851296ff0b7ed,65c54a7447f20f00b2aefe86,,,,,,,,,,,53.716,86.542,space,32.766,,[],[],[],[],[],[],1,0,1,0,1,,,,,,,,,,,,,,,,,,,,,,,,,,,,,,,,,,,,,,,,,,,,,,,,,,,,,,,,,,,,,,,,,,,,,,,,,,,,,,,,
,,,,,,63d423b81f5e313b9958723c,2024-02-08_13h42.15.282,group3.1-3.2-social-tom,2023.2.2,Win32,144.092219,65c5074098b851296ff0b7ed,65c54a7447f20f00b2aefe86,,,,,,,,,,,86.543,105.986,space,19.412,,[],[],[],[],[],[],2,0,2,0,1,,,,,,,,,,,,,,,,,,,,,,,,,,,,,,,,,,,,,,,,,,,,,,,,,,,,,,,,,,,,,,,,,,,,,,,,,,,,,,,,
,,,,,,63d423b81f5e313b9958723c,2024-02-08_13h42.15.282,group3.1-3.2-social-tom,2023.2.2,Win32,144.092219,65c5074098b851296ff0b7ed,65c54a7447f20f00b2aefe86,,,,,,,,,,,105.987,131.313,space,25.307,,[],[],[],[],[],[],3,0,3,0,1,,,,,,,,,,,,,,,,,,,,,,,,,,,,,,,,,,,,,,,,,,,,,,,,,,,,,,,,,,,,,,,,,,,,,,,,,,,,,,,,
,,,,,,63d423b81f5e313b9958723c,2024-02-08_13h42.15.282,group3.1-3.2-social-tom,2023.2.2,Win32,144.092219,65c5074098b851296ff0b7ed,65c54a7447f20f00b2aefe86,,,,,,,,,,,131.314,146.681,space,15.355,,[],[],[],[],[],[],4,0,4,0,1,,,,,,,,,,,,,,,,,,,,,,,,,,,,,,,,,,,,,,,,,,,,,,,,,,,,,,,,,,,,,,,,,,,,,,,,,,,,,,,,
,,,,,,63d423b81f5e313b9958723c,2024-02-08_13h42.15.282,group3.1-3.2-social-tom,2023.2.2,Win32,144.092219,65c5074098b851296ff0b7ed,65c54a7447f20f00b2aefe86,,,,,,,,,,,,,,,,,,,,,,,,,,,146.681,149.257,149.266,1,audio/Narrative13Situation2.wav,151.271,,151.271,181.007,"[[999,0],[999,89],[999,173],[999,256],[999,338],[999,423],[999,506],[999,588],[999,673],[999,756],[999,838],[999,923],[999,1006],[999,1089],[999,1173],[999,1256],[999,1338],[999,1423],[999,1506],[999,1588],[999,1673],[999,1756],[999,1838],[999,1923],[999,2006],[999,2088],[999,2173],[999,2256],[999,2339],[999,2423],[999,2506],[999,2589],[999,2673],[999,2756],[999,2839],[999,2923],[999,3006],[999,3089],[999,3173],[999,3256],[999,3339],[999,3423],[999,3506],[999,3589],[999,3673],[999,3756],[999,3839],[999,3923],[999,4006],[999,4089],[999,4173],[999,4256],[999,4339],[999,4423],[999,4506],[999,4589],[999,4673],[999,4756],[999,4839],[999,4923],[999,5006],[999,5089],[999,5173],[999,5256],[999,5339],[999,5423],[999,5506],[999,5588],[999,5673],[999,5756],[999,5838],[999,5923],[999,6006],[999,6088],[999,6173],[999,6256],[999,6339],[999,6423],[999,6506],[999,6589],[999,6673],[999,6756],[999,6839],[999,6923],[999,7006],[999,7089],[56.6,7173],[57.2,7256],[58.2,7339],[58.8,7423],[58.9,7506],[58.9,7589],[58.9,7673],[58.7,7756],[57.9,7838],[57.9,7923],[57.9,8006],[57.9,8089],[57.9,8173],[57.9,8256],[57.9,8339],[57.9,8423],[57.9,8506],[57.9,8589],[57.9,8673],[57.9,8756],[57.9,8839],[57.9,8923],[57.9,9006],[57.9,9088],[57.9,9173],[57.9,9256],[57.9,9339],[57.9,9423],[57.9,9506],[57.9,9589],[57.9,9673],[57.9,9756],[57.9,9839],[57.9,9923],[57.9,10006],[57.9,10089],[57.9,10173],[57.9,10256],[57.9,10339],[57.9,10423],[57.9,10506],[57.9,10588],[57.9,10673],[57.9,10756],[57.9,10838],[57.9,10923],[57.9,11006],[57.9,11089],[57.9,11173],[57.9,11256],[57.9,11339],[57.9,11423],[57.9,11506],[57.9,11588],[57.9,11673],[57.9,11756],[57.9,11838],[57.9,11923],[57.9,12006],[57.9,12088],[57.9,12173],[57.9,12256],[57.9,12339],[57.9,12423],[57.9,12506],[57.9,12589],[57.9,12673],[57.9,12756],[57.9,12839],[57.9,12923],[57.9,13006],[57.9,13089],[57.9,13173],[57.9,13256],[57.9,13339],[57.9,13423],[57.9,13506],[57.9,13589],[57.9,13673],[57.9,13756],[57.9,13839],[57.9,13923],[57.9,14006],[57.9,14089],[57.9,14173],[57.9,14256],[57.9,14339],[57.9,14423],[57.9,14506],[57.9,14589],[57.9,14673],[57.9,14756],[57.9,14839],[57.9,14923],[57.9,15006],[57.9,15089],[57.9,15173],[57.9,15256],[57.9,15339],[57.9,15423],[57.9,15506],[57.9,15589],[57.9,15673],[57.9,15756],[57.9,15839],[57.9,15923],[57.9,16006],[57.9,16089],[57.9,16173],[57.9,16256],[57.9,16339],[57.9,16423],[57.9,16506],[57.9,16589],[57.9,16673],[57.9,16756],[57.9,16839],[57.9,16923],[57.9,17006],[57.9,17089],[57.9,17173],[57.9,17256],[57.9,17339],[57.9,17423],[57.9,17506],[57.9,17589],[57.9,17673],[57.9,17756],[57.9,17839],[57.9,17923],[57.9,18006],[57.9,18089],[57.9,18173],[57.9,18256],[57.9,18339],[57.9,18423],[57.9,18506],[57.9,18589],[57.9,18673],[57.9,18756],[57.9,18839],[57.9,18923],[57.9,19006],[57.9,19089],[57.9,19173],[57.9,19256],[57.9,19339],[57.9,19423],[57.9,19506],[57.9,19589],[57.9,19673],[57.9,19756],[57.9,19839],[57.9,19923],[57.9,20006],[57.9,20089],[57.9,20173],[57.9,20256],[57.9,20339],[57.9,20423],[57.9,20506],[57.9,20589],[57.9,20673],[57.9,20756],[57.9,20839],[57.9,20923],[57.9,21006],[57.9,21089],[57.9,21173],[57.9,21256],[57.9,21339],[57.9,21423],[57.9,21506],[57.9,21589],[57.9,21673],[57.9,21756],[57.9,21839],[57.9,21923],[57.9,22006],[58.4,22089],[59.1,22173],[59.1,22256],[29.6,22673],[29.1,22756],[28.9,22839],[24.7,22923],[21.1,23006],[20.6,23089],[20.5,23173],[20.5,23256],[20.5,23339],[20.6,23423],[20.9,23506],[20.9,23589],[20.9,23673],[20.9,23756],[20.9,23839],[20.9,23923],[20.9,24006],[20.9,24089],[20.9,24173],[20.9,24256],[20.9,24339],[20.9,24423],[20.9,24506],[20.9,24589],[21.3,24673],[29.1,24756],[31.3,24839],[31,24923],[26.3,25006],[24.1,25089],[23.1,25173],[22.4,25256],[22.2,25339],[22,25423],[21.8,25506],[21.8,25589],[21.8,25673],[21.8,25756],[21.8,25839],[21.8,25923],[21.8,26006],[21.8,26089],[21.8,26173],[21.8,26256],[21.8,26339],[21.8,26423],[21.8,26506],[21.8,26589],[21.8,26673],[21.8,26756],[21.8,26839],[21.8,26923],[21.8,27006],[21.8,27089],[21.8,27173],[21.8,27256],[21.8,27339],[21.8,27423],[21.8,27506],[21.8,27589],[21.8,27673],[21.8,27756],[21.8,27839],[21,27923],[21,28006],[21,28089],[21,28173],[20,28256],[18.2,28339],[15.8,28423],[14.2,28506],[12.2,28589],[10.9,28673],[10.9,28756],[11,28839],[11.8,28923],[11.9,29006],[12,29089],[12,29173],[11.7,29256],[11,29339],[10.1,29423],[9.5,29506],[8.8,29589],[9.2,29673]]",1,0,181.007,191.791,64.140625,8.718,"[{""rating"":64.140625,""responseTime"":8.71799999999999}]",space,10.273,,191.791,Half the time,50,191.795,,,[],,0,0,0,0,1,audio/Narrative13Situation2.wav,audio/Narrative13Situation2.wav,audio/Narrative13Situation2.wav,audio/Narrative13Situation2.wav,2,2,2,2,,,,,,,,,,,,,,,,,,,,,,,,,,,,,,,,,,,,,,,
,,,,,,63d423b81f5e313b9958723c,2024-02-08_13h42.15.282,group3.1-3.2-social-tom,2023.2.2,Win32,144.092219,65c5074098b851296ff0b7ed,65c54a7447f20f00b2aefe86,,,,,,,,,,,,,,,,,,,,,,,,,,,,,191.796,1,audio/Narrative8Situation1.wav,194.27,space,194.27,210.18,"[[999,1],[999,84],[999,167],[999,251],[999,334],[999,417],[999,501],[999,584],[999,667],[999,750],[999,834],[999,917],[999,1000],[999,1082],[999,1167],[999,1251],[999,1332],[59.8,1417],[54,1501],[54,1584],[54,1667],[53.2,1751],[51.5,1832],[50.9,1917],[50.6,2001],[50.6,2084],[50.6,2167],[50.6,2250],[50.6,2334],[51,2417],[52.2,2501],[53.8,2584],[53.8,2667],[53.8,2751],[53.8,2834],[52.7,2917],[52,3000],[51.2,3082],[50.3,3167],[50.2,3250],[50.2,3334],[50.2,3417],[50.2,3500],[50.2,3584],[50.2,3667],[50.2,3750],[50.2,3834],[50.2,3917],[50.2,4000],[50.2,4084],[50.2,4167],[50.2,4250],[50.2,4334],[50.2,4417],[50.2,4500],[50.2,4584],[50.2,4667],[50.2,4750],[50.2,4834],[50.2,4917],[50.2,5000],[50.2,5084],[50.2,5167],[50.2,5250],[50.2,5332],[50.2,5417],[50.2,5500],[50.2,5584],[50.2,5667],[50.2,5750],[50.2,5834],[50.2,5917],[50.2,6001],[50.2,6084],[50.2,6167],[50.2,6251],[50.2,6334],[50.2,6417],[50.2,6500],[50.2,6584],[50.2,6667],[50.2,6749],[50.2,6833],[50.2,6917],[50.2,6999],[50.2,7082],[50.2,7167],[50.2,7251],[50.2,7332],[50.2,7417],[50.2,7501],[50.2,7582],[50.2,7667],[50.2,7749],[50.2,7832],[50.2,7917],[50.2,7999],[50.2,8082],[50.2,8167],[50.2,8249],[50.2,8333],[50.2,8417],[50.2,8499],[50.2,8583],[50.2,8667],[50.2,8751],[50.2,8832],[50.2,8917],[50.2,9001],[50.2,9083],[50.2,9167],[50.2,9249],[50.2,9333],[50.2,9417],[50.2,9499],[50.2,9583],[50.2,9667],[50.2,9749],[50.2,9833],[50.2,9917],[50.2,10001],[50.2,10083],[50.2,10167],[50.2,10251],[50.2,10332],[50.2,10417],[50.2,10501],[50.2,10582],[50.2,10667],[50.2,10751],[50.2,10833],[50.2,10917],[50.2,11001],[50.2,11083],[50.2,11167],[50.2,11249],[50.2,11333],[50.2,11417],[50.2,11499],[50.2,11583],[50.2,11667],[50.2,11749],[50.2,11832],[50.2,11917],[50.2,12001],[50.2,12082],[50.2,12167],[50.2,12251],[50.2,12332],[50.2,12417],[50.2,12501],[50.2,12582],[50.2,12666],[49.5,12750],[40.8,12832],[40.5,12916],[40.7,12999],[39.2,13082],[38,13166],[36.5,13249],[34.4,13333],[30.1,13416],[25.9,13499],[20.9,13582],[18.8,13666],[16.9,13750],[14.9,13833],[13,13916],[10.5,13999],[9.4,14082],[9.1,14166],[9.1,14249],[7.9,14333],[5.2,14417],[2.7,14499],[2.1,14583],[2.5,14666],[4.1,14749],[6.8,14833],[11.3,14916],[14.7,15000],[16.2,15083],[18.3,15166],[23.5,15250],[29.6,15333],[36.7,15416],[42.1,15499],[47.4,15583],[49.5,15666],[49.5,15749],[49.7,15833]]",1,0,210.18,217.368,69.6875,6.346,"[{""rating"":69.6875,""responseTime"":6.346000000000004}]",space,6.675,,217.368,Not at all,0,217.371,,,[],,0,1,1,1,1,audio/Narrative7Situation1.wav,audio/Narrative8Situation1.wav,audio/Narrative5Situation1.wav,audio/Narrative6Situation1.wav,2,5,5,2,2.466,,,,,,,,,,,,,,,,,,,,,,,,,,,,,,,,,,,,,,
,,,,,,63d423b81f5e313b9958723c,2024-02-08_13h42.15.282,group3.1-3.2-social-tom,2023.2.2,Win32,144.092219,65c5074098b851296ff0b7ed,65c54a7447f20f00b2aefe86,,,,,,,,,,,,,,,,,,,,,,,,,,,,,217.371,1,audio/Narrative8Situation2.wav,220.374,,220.374,230.479,"[[69.5,1334],[69.8,1416],[70.7,1500],[70.7,1584],[70.7,1666],[70.7,1750],[70.7,1834],[70.7,1916],[70.7,2000],[70.7,2084],[70.7,2166],[70.7,2250],[70.7,2334],[70.7,2416],[70.7,2500],[70.7,2584],[70.7,2666],[70.7,2750],[70.7,2834],[70.7,2916],[70.7,3000],[70.7,3084],[70.7,3166],[70.7,3250],[70.7,3332],[70.7,3416],[70.7,3500],[70.7,3584],[70.7,3666],[70.7,3750],[70.7,3834],[70.7,3916],[70.7,4000],[70.7,4084],[70.7,4166],[70.7,4250],[70.7,4332],[70.7,4416],[70.7,4500],[70.7,4584],[70.7,4666],[70.7,4750],[70.7,4834],[70.7,4916],[70.7,5000],[70.7,5084],[70.7,5166],[70.7,5250],[70.7,5334],[70.7,5416],[70.7,5500],[70.7,5584],[70.7,5666],[70.7,5750],[70.7,5834],[70.7,5916],[70.7,6000],[70.7,6082],[70.7,6166],[70.7,6250],[70.7,6332],[70.7,6416],[70.7,6500],[70.7,6582],[70.7,6666],[70.7,6750],[70.7,6832],[70.7,6916],[70.7,7000],[70.7,7082],[70.7,7166],[70.7,7250],[70.7,7332],[70.7,7416],[70.7,7500],[70.7,7584],[70.7,7666],[70.7,7750],[70.7,7832],[70.7,7916],[70.7,8000],[70.7,8084],[70.7,8166],[70.7,8250],[70.7,8334],[70.7,8416],[70.7,8500],[70.7,8584],[70.7,8666],[70.7,8750],[70.7,8834],[70.7,8916],[70.7,9000],[70.7,9084],[70.7,9168],[70.7,9250],[70.7,9334],[70.7,9416],[70.7,9500],[70.7,9582],[70.7,9666],[70.7,9750],[70.7,9834],[70.7,9916],[70.7,10000],[70.7,10084]]",1,0,230.479,234.784,75.546875,3.072,"[{""rating"":75.546875,""responseTime"":3.0720000000000027}]",space,3.794,,234.784,Not at all,0,234.786,,,[],,0,2,2,2,1,audio/Narrative7Situation2.wav,audio/Narrative8Situation2.wav,audio/Narrative5Situation2.wav,audio/Narrative6Situation2.wav,3,3,3,3,,,,,,,,,,,,,,,,,,,,,,,,,,,,,,,,,,,,,,,
,,,,,,63d423b81f5e313b9958723c,2024-02-08_13h42.15.282,group3.1-3.2-social-tom,2023.2.2,Win32,144.092219,65c5074098b851296ff0b7ed,65c54a7447f20f00b2aefe86,,,,,,,,,,,,,,,,,,,,,,,,,,,,,234.786,1,audio/Narrative8Situation3.wav,238.791,,238.791,261.159,"[[75.4,1833],[72.8,1917],[71.9,2000],[71.9,2083],[71.9,2165],[71.9,2250],[71.9,2333],[71.9,2417],[71.9,2500],[71.9,2583],[71.9,2667],[71.9,2750],[71.9,2834],[71.9,2917],[71.9,3000],[71.9,3084],[71.9,3167],[71.9,3250],[71.9,3333],[71.9,3417],[71.9,3500],[71.9,3584],[71.9,3665],[71.9,3750],[71.9,3833],[71.9,3917],[71.9,4000],[71.9,4084],[71.9,4167],[71.9,4250],[71.9,4334],[71.9,4417],[71.9,4500],[71.9,4584],[71.9,4665],[71.9,4750],[71.9,4833],[71.9,4915],[71.9,5000],[70.5,5083],[68.3,5167],[64.3,5250],[60.3,5334],[56.9,5417],[55,5500],[54.8,5583],[54.8,5667],[54.8,5750],[54.8,5833],[55.6,5915],[57,6000],[57.1,6084],[57.1,6167],[57.1,6250],[57.1,6333],[57.1,6417],[57.1,6500],[57.1,6583],[57.1,6667],[57.1,6750],[57.1,6833],[57.1,6917],[57.1,7000],[57.1,7083],[57.1,7165],[54.1,7250],[50.8,7333],[50.2,7415],[50.2,7500],[50.2,7584],[50.2,7665],[50.2,7750],[50.2,7834],[50.2,7917],[50.2,8000],[50.2,8083],[50.2,8167],[50.2,8250],[50.2,8333],[50.2,8415],[50.2,8500],[50.2,8583],[50.2,8667],[50.2,8750],[50.2,8834],[50.2,8917],[50.2,9000],[50.2,9084],[50.2,9167],[50.2,9250],[50.2,9333],[50.2,9415],[50.2,9500],[50.2,9583],[50.2,9665],[50.2,9750],[50.2,9834],[50.2,9917],[50.2,10000],[50.2,10084],[50.2,10167],[50.2,10250],[50.2,10334],[50.2,10417],[50.2,10500],[50.2,10584],[50.2,10667],[50.2,10750],[50.2,10833],[50.2,10915],[50.2,11000],[50.2,11083],[50.2,11165],[50.2,11250],[50.2,11333],[50.2,11417],[50.2,11500],[50.2,11583],[50.2,11667],[50.2,11750],[50.2,11833],[50.2,11915],[50.2,12000],[50.2,12083],[50.2,12165],[50.2,12250],[50.2,12334],[50.2,12415],[50.2,12500],[50.2,12583],[50.2,12667],[50.2,12750],[50.2,12833],[50.2,12917],[50.2,13000],[50.2,13083],[50.2,13167],[50.2,13250],[50.2,13333],[50.2,13417],[50.2,13500],[50.2,13583],[50.2,13667],[50.2,13750],[50.2,13833],[50.2,13917],[50.2,14000],[50.2,14083],[50.2,14165],[50.2,14250],[50.2,14333],[50.2,14415],[50.2,14500],[50.2,14583],[50.2,14667],[50.2,14750],[50.2,14833],[50.2,14915],[50.2,15000],[50.2,15083],[50.2,15167],[50.2,15250],[50.2,15334],[50.2,15417],[50.2,15500],[50.2,15583],[50.2,15665],[50.2,15750],[50.2,15833],[50.2,15917],[50.2,16000],[50.2,16083],[50.2,16167],[50.2,16250],[50.2,16333],[50.2,16417],[50.2,16500],[50.2,16584],[50.2,16667],[50.2,16750],[50.2,16834],[50.2,16917],[50.2,17000],[50.2,17083],[50.2,17168],[50.2,17250],[50.2,17334],[50.2,17417],[50.2,17500],[50.2,17583],[50.2,17667],[50.2,17750],[50.2,17833],[50.2,17917],[50.2,18000],[50.2,18083],[50.2,18165],[50.2,18250],[50.2,18333],[50.2,18417],[50.2,18500],[50.2,18583],[50.5,18665],[51.3,18750],[51.8,18833],[52,18917],[52.3,19001],[52.3,19084],[52.6,19167],[52.7,19250],[53,19333],[53.2,19415],[53.4,19500],[53.7,19584],[53.8,19665],[54.1,19750],[56.3,19834],[63.7,19915],[70.2,20000],[75.4,20084],[79.7,20167],[83.8,20250],[89.5,20333],[92.5,20415],[95.9,20500],[97.1,20583],[98.4,20667],[99.4,20750],[99.4,20833],[99.5,20915],[99.5,21000],[99.5,21083],[99.8,21167],[100,21250],[100,21333],[100,21417],[100,21500],[100,21583],[100,21667],[100,21750],[100,21833],[100,21915],[100,22000],[100,22083],[100,22167],[100,22250],[100,22333]]",1,0,261.159,264.138,99.21875,1.665,"[{""rating"":99.21875,""responseTime"":1.6649999999999636}]",space,2.469,,264.138,Half the time,50,264.141,,,[],,0,3,3,3,1,audio/Narrative7Situation3.wav,audio/Narrative8Situation3.wav,audio/Narrative5Situation3.wav,audio/Narrative6Situation3.wav,8,4,3,5,,,,,,,,,,,,,,,,,,,,,,,,,,,,,,,,,,,,,,,
,,,,,,63d423b81f5e313b9958723c,2024-02-08_13h42.15.282,group3.1-3.2-social-tom,2023.2.2,Win32,144.092219,65c5074098b851296ff0b7ed,65c54a7447f20f00b2aefe86,,,,,,,,,,,,,,,,,,,,,,,,,,,,,264.141,1,audio/Narrative8Situation4.wav,267.145,,267.146,281.305,"[[88.4,164],[88.1,248],[86.9,332],[86.5,414],[86.7,498],[88.7,582],[90.9,665],[90.9,748],[91,831],[91.4,915],[93.8,998],[95.2,1082],[95.9,1165],[95.5,1248],[91.8,1332],[89.1,1415],[89,1498],[90.1,1582],[90.2,1664],[90.2,1748],[90.2,1831],[90.2,1914],[90.2,1998],[90.2,2081],[90.2,2165],[90.2,2248],[90.2,2331],[90.2,2415],[90.2,2498],[90.2,2581],[90.2,2665],[90.2,2748],[90.2,2831],[90.2,2915],[90.2,2998],[90.2,3082],[90.2,3164],[90.2,3248],[90.2,3332],[90.2,3415],[90.2,3500],[90.2,3581],[90.2,3665],[90.2,3748],[90.2,3831],[90.2,3916],[90.2,3998],[90.2,4081],[90.2,4165],[90.2,4248],[90.2,4332],[90.2,4415],[90.2,4498],[90.2,4581],[90.2,4664],[90.2,4748],[90.2,4832],[90.2,4914],[90.2,4998],[90.2,5081],[90.2,5164],[90.2,5248],[90.2,5331],[90.2,5415],[90.2,5498],[90.2,5582],[90.2,5665],[90.2,5748],[90.2,5832],[90.2,5915],[90.2,5998],[90.2,6081],[90.2,6164],[90.2,6248],[90.2,6331],[90.2,6414],[90.2,6498],[90.8,6582],[92.9,6664],[93.8,6748],[95.5,6832],[96.6,6915],[97.5,6998],[98.3,7081],[99.5,7165],[99.8,7248],[100,7332],[100,7415],[100,7498],[100,7582],[100,7664],[100,7748],[100,7831],[100,7915],[100,8000],[100,8082],[100,8165],[100,8250],[100,8331],[100,8415],[100,8500],[100,8581],[100,8665],[100,8748],[100,8831],[100,8915],[100,8998],[100,9082],[100,9165],[100,9248],[100,9331],[100,9415],[100,9498],[100,9581],[100,9665],[100,9748],[100,9831],[100,9915],[100,9998],[100,10081],[100,10165],[100,10248],[100,10332],[100,10415],[100,10498],[100,10582],[100,10665],[100,10748],[100,10832],[100,10915],[100,10998],[100,11081],[100,11165],[100,11248],[100,11331],[100,11414],[100,11498],[100,11581],[100,11664],[100,11748],[100,11831],[100,11914],[100,11998],[100,12082],[100,12165],[100,12248],[100,12332],[100,12415],[100,12498],[100,12582],[100,12665],[100,12748],[100,12832],[100,12915],[100,12998],[100,13081],[100,13165],[100,13248],[100,13331],[100,13415],[100,13498],[100,13582],[100,13665],[100,13748],[100,13831],[100,13915],[100,13998],[100,14082]]",1,0,281.305,285.409,99.140625,2.849,"[{""rating"":99.140625,""responseTime"":2.8490000000000464}]",space,3.591,,285.409,Not at all,0,285.412,,,[],,0,4,4,4,1,audio/Narrative7Situation4.wav,audio/Narrative8Situation4.wav,audio/Narrative5Situation4.wav,audio/Narrative6Situation4.wav,3,3,1,2,,,,,,,,,,,,,,,,,,,,,,,,,,,,,,,,,,,,,,,
,,,,,,63d423b81f5e313b9958723c,2024-02-08_13h42.15.282,group3.1-3.2-social-tom,2023.2.2,Win32,144.092219,65c5074098b851296ff0b7ed,65c54a7447f20f00b2aefe86,,,,,,,,,,,,,,,,,,,,,,,,,,,,,285.412,1,audio/Narrative8Situation5.wav,287.416,,287.416,295.645,"[[999,0],[999,83],[999,167],[999,250],[98.9,333],[96.6,415],[96.3,499],[99.5,583],[100,667],[100,749],[100,833],[100,917],[100,1000],[100,1083],[100,1167],[93.8,1250],[69,1333],[46.6,1500],[41.9,1583],[57.1,2917],[70.2,3000],[80.2,3084],[86.2,3167],[91.6,3250],[94.8,3333],[96.3,3417],[97.8,3500],[98.4,3583],[98.4,3665],[99.8,3750],[100,3833],[100,3917],[100,4000],[100,4083],[100,4165],[100,4250],[100,4333],[100,4415],[100,4500],[100,4583],[100,4667],[100,4750],[100,4833],[100,4917],[100,5000],[100,5083],[100,5167],[100,5250],[100,5334],[100,5417],[100,5500],[100,5583],[100,5667],[100,5749],[100,5834],[100,5917],[100,6000],[100,6083],[100,6167],[100,6250],[100,6333],[100,6417],[100,6500],[100,6583],[100,6667],[100,6749],[100,6833],[100,6917],[100,7000],[100,7084],[100,7165],[100,7250],[100,7333],[100,7415],[100,7500],[100,7584],[100,7665],[100,7750],[100,7833],[100,7915],[100,7999],[100,8083],[100,8165]]",1,0,295.645,298.034,99.453125,1.328,"[{""rating"":99.453125,""responseTime"":1.3280000000000314}]",space,1.878,,298.034,Not at all,0,298.035,,,[],,0,5,5,5,1,audio/Narrative7Situation5.wav,audio/Narrative8Situation5.wav,audio/Narrative5Situation5.wav,audio/Narrative6Situation5.wav,5,2,5,2,,,,,,,,,,,,,,,,,,,,,,,,,,,,,,,,,,,,,,,
,,,,,,63d423b81f5e313b9958723c,2024-02-08_13h42.15.282,group3.1-3.2-social-tom,2023.2.2,Win32,144.092219,65c5074098b851296ff0b7ed,65c54a7447f20f00b2aefe86,,,,,,,,,,,,,,,,,,,,,,,,,,,,,298.036,1,audio/Narrative8Situation6.wav,300.041,,300.041,306.499,"[[98.4,1750],[98,1833],[98.4,1915],[99.3,2000],[99.3,2083],[99.3,2165],[99.3,2250],[99.3,2333],[99.3,2415],[99.3,2500],[99.3,2583],[99.3,2667],[99.3,2750],[99.3,2833],[99.3,2917],[99.3,3000],[99.3,3083],[99.3,3165],[99.3,3250],[99.3,3333],[99.3,3415],[99.3,3500],[99.3,3583],[99.3,3667],[99.3,3749],[99.3,3833],[99.3,3917],[99.3,3999],[99.3,4083],[99.3,4167],[99.3,4249],[99.3,4333],[99.3,4417],[99.3,4500],[99.3,4583],[99.3,4665],[99.3,4749],[99.3,4833],[99.3,4915],[99.3,5000],[99.3,5083],[99.3,5165],[99.3,5250],[99.3,5333],[99.3,5417],[99.3,5500],[99.3,5583],[99.3,5667],[99.3,5750],[99.3,5833],[99.3,5917],[99.3,6000],[99.3,6083],[99.3,6165],[99.3,6250],[99.3,6333],[99.3,6415]]",1,0,306.5,308.152,99.921875,0.977,"[{""rating"":99.921875,""responseTime"":0.9770000000000323}]",space,1.136,,308.152,All the time,100,308.155,,,[],,0,6,6,6,1,audio/Narrative7Situation6.wav,audio/Narrative8Situation6.wav,audio/Narrative5Situation6.wav,audio/Narrative6Situation6.wav,3,2,3,2,,,,,,,,,,,,,,,,,,,,,,,,,,,,,,,,,,,,,,,
,,,,,,63d423b81f5e313b9958723c,2024-02-08_13h42.15.282,group3.1-3.2-social-tom,2023.2.2,Win32,144.092219,65c5074098b851296ff0b7ed,65c54a7447f20f00b2aefe86,,,,,,,,,,,,,,,,,,,,,,,,,,,,,308.155,1,audio/Narrative8Situation7.wav,311.159,,311.159,323.228,"[[98.8,1590],[97.9,1674],[97.9,1757],[99.1,1840],[100,1924],[100,2007],[100,2090],[100,2174],[100,2256],[100,2340],[100,2423],[100,2506],[100,2590],[100,2673],[100,2757],[100,2840],[100,2923],[100,3007],[100,3090],[100,3173],[100,3257],[100,3340],[100,3423],[100,3506],[100,3590],[100,3674],[100,3756],[100,3840],[100,3924],[100,4006],[100,4090],[100,4174],[100,4257],[100,4340],[100,4423],[100,4506],[100,4591],[100,4673],[100,4757],[100,4840],[100,4923],[100,5007],[100,5090],[100,5174],[100,5257],[100,5340],[100,5424],[100,5507],[100,5590],[100,5673],[100,5757],[100,5840],[100,5923],[100,6007],[100,6090],[100,6173],[100,6257],[100,6340],[100,6424],[100,6507],[100,6590],[100,6674],[100,6756],[100,6840],[100,6924],[100,7006],[100,7090],[100,7173],[100,7257],[100,7340],[100,7423],[100,7507],[100,7590],[100,7673],[100,7757],[100,7840],[100,7924],[100,8007],[100,8090],[100,8173],[100,8258],[100,8340],[100,8424],[100,8506],[100,8590],[100,8674],[100,8757],[100,8840],[100,8924],[100,9007],[100,9090],[100,9173],[100,9257],[100,9340],[100,9423],[100,9507],[100,9590],[100,9673],[100,9757],[100,9840],[100,9924],[100,10007],[100,10090],[100,10174],[100,10257],[100,10340],[100,10423],[100,10506],[100,10590],[100,10673],[100,10757],[100,10840],[100,10923],[100,11007],[100,11090],[100,11173],[100,11257],[100,11341],[100,11424],[100,11507],[100,11591],[100,11674],[100,11757],[100,11840],[100,11923],[100,12007]]",1,0,323.229,325.707,99.53125,1.153,"[{""rating"":99.53125,""responseTime"":1.1529999999999632}]",space,1.958,,325.708,Half the time,50,334.333,49.84375,5.19,"[{""rating"":49.84375,""responseTime"":5.189999999999998}]",space,0,7,7,7,1,audio/Narrative7Situation7.wav,audio/Narrative8Situation7.wav,audio/Narrative5Situation7.wav,audio/Narrative6Situation7.wav,5,3,4,5,,,8.107,,,,,,,,,,,,,,,,,,,,,,,,,,,,,,,,,,,,
,,,,,,63d423b81f5e313b9958723c,2024-02-08_13h42.15.282,group3.1-3.2-social-tom,2023.2.2,Win32,144.092219,65c5074098b851296ff0b7ed,65c54a7447f20f00b2aefe86,,,,,,,,,,,,,,,,,,,,,,,,,,,,,334.333,1,audio/Narrative8Situation8.wav,337.333,,337.333,350.173,"[[999,0],[999,81],[999,165],[999,250],[999,331],[999,415],[999,498],[999,581],[999,666],[999,748],[69.2,832],[70.5,915],[71.2,1000],[72.7,1082],[74.8,1165],[79.8,1248],[83.4,1332],[84.4,1665],[85,1748],[86.3,1831],[87.2,1915],[87.4,1998],[86.9,2081],[87,2165],[88.5,2248],[91.4,2332],[91.6,2415],[91.8,2498],[93.5,2582],[94.8,2665],[95,2748],[95.3,2831],[95.8,2915],[96.2,2998],[96.2,3081],[96.7,3165],[97,3250],[97,3331],[96.8,3415],[96.3,3500],[96.3,3582],[96.4,3665],[97.2,3748],[98.4,3832],[98.8,3915],[98.9,3998],[99.1,4082],[99.5,4165],[100,4248],[100,4332],[100,4415],[100,4498],[100,4581],[100,4665],[100,4748],[100,4831],[100,4915],[100,5000],[100,5082],[100,5165],[100,5248],[100,5332],[100,5414],[100,5498],[100,5582],[97.9,5665],[97.7,5748],[97.7,5832],[97.7,5914],[98.4,5998],[100,6082],[100,6165],[100,6250],[100,6331],[100,6415],[100,6498],[100,6582],[100,6665],[100,6748],[100,6831],[100,6916],[100,6998],[100,7082],[100,7165],[100,7248],[100,7332],[100,7415],[100,7498],[100,7581],[100,7665],[100,7748],[100,7831],[100,7915],[100,8000],[100,8082],[100,8165],[100,8248],[100,8332],[100,8414],[100,8500],[100,8581],[100,8665],[100,8750],[100,8832],[100,8915],[100,8998],[100,9082],[100,9165],[100,9250],[100,9331],[100,9415],[100,9500],[100,9582],[100,9665],[100,9750],[100,9832],[100,9915],[100,9998],[100,10081],[100,10165],[100,10248],[100,10331],[100,10415],[100,10498],[100,10581],[100,10666],[100,10748],[100,10831],[100,10914],[100,10998],[100,11082],[100,11164],[100,11250],[100,11332],[100,11415],[100,11498],[100,11582],[100,11664],[100,11748],[100,11832],[100,11915],[100,11998],[100,12082],[100,12165],[100,12248],[100,12331],[100,12415],[100,12498],[100,12582],[100,12665],[100,12750],[100,12832]]",1,0,350.173,352.68,99.84375,0.793,"[{""rating"":99.84375,""responseTime"":0.7930000000000064}]",space,1.991,,352.68,Half the time,50,352.682,,,[],,0,8,8,8,1,audio/Narrative7Situation8.wav,audio/Narrative8Situation8.wav,audio/Narrative5Situation8.wav,audio/Narrative6Situation8.wav,2,3,3,5,,,,,,,,,,,,,,,,,,,,,,,,,,,,,,,,,,,,,,,
,,,,,,63d423b81f5e313b9958723c,2024-02-08_13h42.15.282,group3.1-3.2-social-tom,2023.2.2,Win32,144.092219,65c5074098b851296ff0b7ed,65c54a7447f20f00b2aefe86,,,,,,,,,,,,,,,,,,,,,,,,,,,,,352.682,1,audio/Narrative8Situation9.wav,355.687,,355.687,366.993,"[[99.8,82],[98.6,165],[97.7,250],[96.3,332],[93.9,415],[93.9,500],[94.1,582],[94.5,665],[94.3,750],[93.6,832],[92,915],[91.7,1000],[92.3,1082],[94.7,1165],[95.3,1248],[95.3,1331],[95.5,1415],[95.6,1498],[96.5,1582],[97.1,1666],[97.9,1750],[99,1832],[100,1915],[100,1998],[100,2082],[100,2165],[100,2248],[100,2331],[100,2415],[100,2498],[100,2582],[100,2665],[100,2748],[100,2831],[100,2923],[100,3005],[100,3088],[100,3173],[100,3255],[100,3338],[100,3423],[100,3507],[100,3589],[100,3673],[100,3755],[100,3839],[100,3923],[100,4005],[100,4089],[100,4173],[100,4257],[100,4339],[100,4425],[100,4507],[100,4588],[100,4673],[100,4757],[100,4838],[100,4923],[100,5007],[100,5089],[100,5173],[100,5255],[100,5339],[100,5423],[100,5505],[100,5588],[100,5673],[100,5755],[100,5839],[100,5923],[100,6007],[100,6089],[100,6173],[100,6255],[100,6339],[100,6423],[100,6505],[100,6589],[100,6673],[100,6755],[100,6839],[100,6923],[100,7005],[100,7089],[100,7173],[100,7255],[100,7339],[100,7423],[100,7507],[100,7589],[100,7673],[100,7757],[100,7838],[100,7923],[100,8007],[100,8088],[100,8173],[100,8257],[100,8338],[100,8423],[100,8507],[100,8589],[100,8673],[100,8755],[100,8839],[100,8923],[100,9007],[100,9089],[100,9173],[100,9255],[100,9338],[100,9423],[100,9507],[100,9589],[100,9673],[100,9757],[100,9838],[100,9923],[100,10007],[100,10089],[100,10173],[100,10255],[100,10338],[100,10423],[100,10507],[100,10589],[100,10673],[100,10755],[100,10838],[100,10923],[100,11007],[100,11089],[99.5,11173],[98.4,11257]]",1,0,366.993,370.013,77.109375,2.05,"[{""rating"":77.109375,""responseTime"":2.0500000000000114}]",space,2.5,,370.013,Not at all,0,370.016,,,[],,0,9,9,9,1,audio/Narrative7Situation9.wav,audio/Narrative8Situation9.wav,audio/Narrative5Situation9.wav,audio/Narrative6Situation9.wav,2,3,3,4,,,,,,,,,,,,,,,,,,,,,,,,,,,,,,,,,,,,,,,
,,,,,,63d423b81f5e313b9958723c,2024-02-08_13h42.15.282,group3.1-3.2-social-tom,2023.2.2,Win32,144.092219,65c5074098b851296ff0b7ed,65c54a7447f20f00b2aefe86,,,,,,,,,,,,,,,,,,,,,,,,,,,,,370.016,1,audio/Narrative7Situation1.wav,372.02,,372.02,427.888,"[[77.2,2165],[77.1,2250],[76.6,2333],[75.2,2415],[74.3,2500],[73.6,2583],[71.6,2665],[69.8,2750],[69.4,2833],[69.1,2915],[68.4,3000],[68.1,3083],[68.1,3167],[68.1,3250],[68.1,3333],[68.1,3415],[68.1,3499],[68.1,3583],[67.8,3665],[67.5,3749],[67,3833],[65.6,3917],[61.9,4000],[53.5,4083],[50.3,4165],[49.8,4250],[49.5,4333],[49.4,4415],[49.8,4500],[50.5,4583],[50.9,4667],[50.8,4749],[50.4,4833],[49.8,4915],[49.4,5000],[49.4,5084],[49.5,5167],[49.7,5250],[49.8,5333],[49.8,5415],[49.8,5499],[49.8,5583],[49.8,5665],[49.8,5749],[49.8,5833],[49.8,5917],[49.8,5999],[49.8,6083],[49.8,6167],[49.8,6250],[49.8,6333],[49.8,6415],[49.8,6500],[49.8,6583],[49.8,6665],[49.8,6749],[49.8,6833],[49.8,6915],[49.8,7000],[49.8,7083],[49.8,7165],[49.8,7249],[49.8,7332],[49.8,7415],[49.8,7500],[49.8,7583],[49.8,7667],[49.8,7750],[49.8,7833],[49.8,7915],[49.8,8000],[49.8,8083],[49.8,8165],[49.8,8249],[49.8,8333],[49.8,8417],[49.8,8500],[49.8,8583],[49.8,8667],[49.8,8750],[49.8,8833],[49.8,8915],[49.8,9000],[49.8,9083],[49.8,9165],[49.8,9250],[49.8,9333],[49.8,9415],[49.8,9500],[49.8,9583],[49.8,9665],[49.8,9750],[49.8,9833],[49.8,9915],[49.8,10000],[49.8,10083],[49.8,10165],[49.8,10250],[49.8,10333],[49.8,10415],[49.8,10499],[49.8,10583],[49.8,10667],[49.8,10749],[49.8,10833],[49.8,10917],[49.8,10999],[49,11083],[47,11165],[43,11750],[43,11915],[42.5,11999],[41.9,12083],[43.1,12165],[45.3,12250],[46.3,12333],[47.2,12417],[48.1,12499],[48.4,12583],[49,12665],[49.2,12749],[49.4,12834],[49.6,12915],[49.7,13000],[49.8,13083],[50,13167],[50,13250],[50.2,13333],[50.2,13417],[50.2,13500],[50.2,13583],[50.4,13667],[50.4,13750],[50.5,13833],[50.5,13915],[50.5,14000],[50.6,14083],[50.6,14165],[50.8,14249],[50.8,14333],[51.3,14415],[52.5,14500],[54.2,14583],[56.9,14665],[58.8,14750],[60,14833],[60.8,14915],[62.4,14999],[64.7,15083],[68,15167],[69.3,15249],[70.4,15333],[71.1,15417],[71.1,15500],[71.1,15583],[71.3,15665],[74.5,15750],[76.9,15833],[78.3,15917],[78.5,16000],[79.7,16083],[81.7,16167],[83.8,16249],[85.9,16333],[88.6,16415],[92,16499],[94.1,16583],[96.9,16667],[97.7,16750],[99.2,16833],[100,16915],[100,17000],[100,17083],[100,17165],[100,17250],[100,17333],[99.8,17415],[99.6,17500],[99.5,17583],[99.5,17665],[99.6,17749],[100,17833],[100,17915],[100,17999],[100,18083],[100,18167],[100,18250],[100,18333],[100,18415],[100,18500],[100,18583],[100,18665],[100,18749],[100,18832],[100,18915],[100,18999],[100,19083],[100,19165],[100,19250],[100,19333],[100,19415],[100,19500],[100,19583],[100,19668],[100,19750],[100,19833],[100,19915],[100,19999],[100,20083],[100,20165],[100,20250],[100,20333],[100,20415],[100,20500],[100,20583],[100,20667],[100,20750],[100,20833],[100,20917],[100,21000],[100,21083],[100,21167],[100,21250],[100,21333],[100,21417],[100,21500],[100,21583],[100,21667],[100,21750],[100,21833],[100,21917],[100,21999],[100,22083],[100,22167],[100,22249],[100,22333],[100,22415],[100,22499],[100,22583],[100,22665],[100,22752],[100,22833],[100,22915],[100,22999],[100,23083],[100,23165],[100,23250],[100,23333],[100,23415],[100,23499],[100,23583],[100,23665],[100,23750],[100,23833],[100,23915],[100,24000],[100,24083],[99.6,24165],[97.7,24250],[93.3,24333],[92.5,24415],[91.2,24500],[90.6,24583],[89.7,24665],[89.4,24750],[87.7,24833],[84.5,24915],[83.1,25000],[81.5,25083],[80.7,25165],[80.2,25249],[80.2,25333],[80.1,25415],[79.6,25500],[78.6,25583],[77.9,25665],[77.7,25750],[77.3,25833],[77.2,25915],[76.8,26000],[76.8,26083],[76.7,26165],[76.6,26250],[76.6,26333],[76.5,26415],[76.5,26500],[76.3,26583],[76.2,26667],[75.9,26750],[75.8,26833],[75.8,26917],[75.8,27000],[76,27083],[76,27167],[76,27249],[75.9,27333],[75.8,27415],[75.8,27499],[75.8,27582],[75.7,27667],[75.7,27750],[75.7,27833],[75.7,27915],[75.8,28000],[75.8,28083],[75.8,28167],[75.8,28249],[75.8,28333],[75.8,28415],[75.8,28500],[75.8,28583],[75.8,28665],[75.9,28749],[75.9,28833],[75.9,28915],[75.9,28999],[75.7,29083],[75.4,29165],[75.3,29250],[75.3,29333],[75.2,29415],[75.2,29500],[74.9,29583],[74.8,29665],[74.8,29750],[74.6,29833],[74.6,29915],[74.6,29999],[74.7,30083],[74.8,30165],[75,30250],[75.1,30334],[75.3,30415],[75.4,30500],[75.4,30583],[75.5,30665],[75.6,30750],[75.8,30833],[75.9,30915],[76,31000],[76,31083],[76.2,31165],[76.3,31249],[76.3,31333],[76.4,31415],[76.5,31499],[76.6,31583],[76.6,31665],[76.7,31750],[76.7,31833],[76.7,31915],[76.8,32000],[76.8,32083],[76.9,32165],[76.9,32249],[77,32333],[77,32415],[77,32500],[77,32583],[77,32665],[77,32749],[76.9,32833],[77,32917],[76.9,33000],[76.9,33083],[76.9,33166],[76.9,33250],[76.9,33333],[76.9,33416],[76.9,33500],[76.9,33583],[76.9,33666],[76.9,33750],[76.9,33832],[77,33916],[77,34000],[77,34082],[77.1,34167],[77.3,34250],[77.4,34333],[77.7,34417],[77.7,34499],[78,34583],[78.4,34666],[78.8,34749],[79.2,34834],[79.7,34916],[80.3,34999],[80.5,35083],[81.3,35249],[81.5,35333],[81.8,35416],[81.8,35500],[82,35583],[82,35666],[82,35750],[81.6,35832],[81.3,35916],[80.5,35999],[79.8,36083],[79.6,36167],[79.2,36249],[79.1,36333],[78.8,36416],[78.7,36500],[78.6,36583],[78.5,36666],[78.5,36750],[78.4,36834],[78.4,36917],[78.3,37000],[78.2,37083],[78.2,37167],[78.2,37250],[78.2,37333],[78.2,37417],[78.3,37499],[78.3,37583],[78.3,37667],[78.3,37749],[78.3,37833],[78.4,37917],[78.4,38000],[78.6,38083],[78.6,38166],[78.8,38250],[78.8,38333],[78.8,38416],[78.9,38499],[78.9,38583],[79,38666],[79,38749],[79,38833],[79.1,38916],[79.1,38999],[79.1,39083],[79.1,39167],[79.1,39250],[79.1,39333],[79.1,39417],[79.1,39500],[79.1,39583],[79.1,39666],[79.1,39749],[79.1,39833],[79.1,39916],[79.1,39999],[79.2,40083],[79.2,40166],[79.3,40250],[79.3,40333],[79.5,40416],[79.7,40500],[80.2,40583],[80.5,40666],[80.9,40750],[81.2,40833],[81.2,40917],[81.3,41000],[81.3,41083],[81.3,41166],[81.3,41249],[81.3,41333],[81.3,41416],[81.3,41499],[81.3,41583],[81.3,41666],[81.3,41750],[81.2,41833],[81.2,41916],[81.4,42000],[84,42083],[87.3,42167],[88.3,42249],[92.1,42333],[95.5,42417],[98.3,42499],[100,42583],[100,42667],[100,42749],[100,42833],[100,42917],[100,42999],[100,43083],[99.9,43167],[99.8,43250],[99.5,43333],[99.4,43416],[99.3,43499],[99.3,43583],[99.3,43666],[99.3,43749],[99.1,43833],[99.1,43916],[99.5,44000],[100,44083],[100,44166],[100,44250],[100,44333],[100,44416],[100,44499],[100,44583],[100,44666],[100,44750],[100,44833],[100,44916],[100,44999],[100,45082],[100,45166],[100,45249],[100,45333],[100,45416],[100,45500],[100,45582],[100,45666],[100,45750],[100,45833],[100,45916],[100,45999],[100,46083],[100,46166],[100,46249],[100,46333],[100,46417],[100,46500],[100,46583],[100,46667],[100,46750],[100,46833],[100,46916],[100,47000],[100,47083],[100,47166],[100,47250],[100,47333],[100,47416],[100,47499],[100,47583],[100,47667],[100,47749],[100,47833],[100,47917],[100,48000],[100,48083],[100,48167],[100,48250],[100,48333],[100,48416],[100,48499],[100,48583],[100,48666],[100,48750],[100,48832],[100,48916],[100,49000],[100,49083],[100,49166],[100,49249],[100,49332],[100,49417],[100,49500],[100,49583],[100,49666],[100,49750],[100,49833],[100,49917],[100,50000],[100,50082],[100,50166],[100,50250],[100,50333],[100,50416],[100,50500],[100,50583],[100,50666],[100,50749],[100,50833],[100,50916],[100,50999],[100,51083],[100,51166],[100,51249],[100,51333],[100,51416],[100,51500],[100,51583],[100,51666],[100,51750],[100,51833],[100,51916],[100,52000],[100,52083],[100,52166],[100,52249],[100,52333],[100,52417],[100,52499],[100,52583],[100,52667],[100,52749],[100,52833],[100,52916],[100,53000],[100,53083],[100,53166],[100,53249],[100,53333],[100,53416],[100,53500],[100,53583],[100,53666],[100,53749],[100,53833],[100,53917],[100,53999],[100,54083],[100,54166],[100,54250],[100,54333],[100,54416],[100,54500],[100,54583],[100,54666],[100,54750],[100,54832],[100,54916],[100,55000],[100,55083],[100,55167],[100,55250],[100,55332],[100,55417],[100,55499],[100,55583],[100,55666],[100,55749],[100,55833]]",1,0,427.888,431.832,99.6875,2.966,"[{""rating"":99.6875,""responseTime"":2.966000000000008}]",space,3.431,,431.832,Half the time,50,431.836,,,[],,0,10,10,10,1,audio/Narrative8Situation1.wav,audio/Narrative7Situation1.wav,audio/Narrative6Situation1.wav,audio/Narrative5Situation1.wav,5,2,2,5,,,,,,,,,,,,,,,,,,,,,,,,,,,,,,,,,,,,,,,
,,,,,,63d423b81f5e313b9958723c,2024-02-08_13h42.15.282,group3.1-3.2-social-tom,2023.2.2,Win32,144.092219,65c5074098b851296ff0b7ed,65c54a7447f20f00b2aefe86,,,,,,,,,,,,,,,,,,,,,,,,,,,,,431.836,1,audio/Narrative7Situation2.wav,434.839,,434.839,442.304,"[[71.6,165],[71.6,250],[71.6,333],[71.6,415],[71.6,500],[71.6,583],[71.6,665],[71.6,750],[71.6,834],[71.6,915],[71.6,1000],[71.6,1083],[71.6,1167],[71.6,1249],[71.6,1333],[71.6,1417],[71.6,1500],[71.6,1583],[71.6,1667],[71.6,1750],[71.6,1833],[71.6,1915],[71.6,2000],[71.6,2083],[71.6,2167],[71.6,2250],[71.6,2333],[71.6,2415],[71.6,2500],[71.6,2583],[71.6,2665],[71.6,2750],[71.6,2833],[71.6,2915],[71.6,3000],[71.6,3083],[71.6,3165],[71.6,3250],[71.6,3333],[71.6,3415],[71.6,3500],[71.6,3584],[71.6,3665],[72.6,3750],[73.4,3833],[74.8,3917],[77.2,4000],[80.1,4083],[80.2,4167],[80.3,4249],[80.9,4333],[81.8,4417],[82,4500],[82.1,4583],[81.9,4667],[77.7,4750],[69.7,4833],[67.9,4917],[67.8,5000],[67.6,5084],[65.2,5167],[59.1,5250],[53,5333],[52.3,5417],[52.2,5500],[52,5583],[52,5665],[51.8,5750],[51.7,5833],[51.8,5917],[52,6000],[52.3,6083],[52.4,6167],[52.5,6250],[52.5,6333],[52.5,6417],[52.7,6500],[52.9,6583],[53.6,6667],[54.1,6750],[54.1,6834],[54.1,6917],[54.1,7000],[54.1,7084],[54.2,7165],[54.4,7250],[56.2,7334],[63.8,7417]]",1,0,442.304,445.45,50.078125,1.461,"[{""rating"":50.07812499999999,""responseTime"":1.460999999999956}]",space,2.635,,445.45,Half the time,50,445.452,,,[],,0,11,11,11,1,audio/Narrative8Situation2.wav,audio/Narrative7Situation2.wav,audio/Narrative6Situation2.wav,audio/Narrative5Situation2.wav,3,3,3,3,,,,,,,,,,,,,,,,,,,,,,,,,,,,,,,,,,,,,,,
,,,,,,63d423b81f5e313b9958723c,2024-02-08_13h42.15.282,group3.1-3.2-social-tom,2023.2.2,Win32,144.092219,65c5074098b851296ff0b7ed,65c54a7447f20f00b2aefe86,,,,,,,,,,,,,,,,,,,,,,,,,,,,,445.452,1,audio/Narrative7Situation3.wav,453.457,,453.457,462.7,"[[50.2,1334],[49.8,1415],[50.2,1500],[50.5,1583],[51.2,1667],[51.2,1750],[50.5,1833],[50.3,1915],[50.2,2000],[50.7,2083],[50.7,2165],[50.7,2250],[50.7,2334],[50.7,2417],[50.7,2500],[50.7,2583],[50.7,2667],[50.7,2750],[50.7,2833],[50.7,2915],[50.7,3000],[50.7,3084],[50.7,3165],[50.7,3250],[50.7,3333],[50.7,3415],[50.7,3500],[50.7,3583],[50.7,3665],[50.7,3750],[50.7,3833],[50.7,3916],[50.7,4000],[50.7,4083],[50.7,4165],[50.7,4250],[50.7,4333],[50.7,4415],[50.7,4500],[50.7,4583],[50.7,4666],[50.7,4750],[50.7,4833],[50.7,4916],[50.7,5000],[50.7,5083],[50.7,5166],[50.7,5250],[50.7,5334],[50.7,5416],[50.7,5500],[50.7,5583],[50.7,5666],[50.7,5748],[50.7,5833],[50.7,5915],[50.7,5998],[50.7,6083],[50.7,6166],[50.7,6248],[50.7,6333],[50.7,6416],[50.7,6500],[50.7,6583],[50.7,6665],[50.7,6750],[50.7,6833],[50.7,6915],[50.7,6998],[50.7,7083],[50.7,7165],[50.7,7250],[50.7,7333],[50.7,7416],[50.7,7500],[50.7,7583],[50.7,7666],[50.7,7750],[50.7,7833],[50.7,7915],[50.7,8000],[50.7,8083],[50.7,8165],[50.7,8250],[50.7,8333],[50.7,8415],[50.7,8500],[50.7,8583],[50.7,8665],[50.7,8750],[50.7,8833],[50.7,8915],[50.7,9000],[50.7,9083],[50.7,9165]]",1,0,462.7,465.652,32.1875,1.692,"[{""rating"":32.1875,""responseTime"":1.6920000000000641}]",space,2.442,,465.652,All the time,100,465.654,,,[],,0,12,12,12,1,audio/Narrative8Situation3.wav,audio/Narrative7Situation3.wav,audio/Narrative6Situation3.wav,audio/Narrative5Situation3.wav,4,8,5,3,,,,,,,,,,,,,,,,,,,,,,,,,,,,,,,,,,,,,,,
,,,,,,63d423b81f5e313b9958723c,2024-02-08_13h42.15.282,group3.1-3.2-social-tom,2023.2.2,Win32,144.092219,65c5074098b851296ff0b7ed,65c54a7447f20f00b2aefe86,,,,,,,,,,,,,,,,,,,,,,,,,,,,,465.654,1,audio/Narrative7Situation4.wav,468.658,,468.658,480.367,"[[34.7,1833],[35,1917],[36.2,2000],[38.5,2084],[41.3,2167],[44.2,2250],[45.3,2334],[45.5,2416],[45.1,2500],[45.1,2584],[45.1,2667],[45.1,2750],[45.3,2834],[45.5,2917],[45.5,3000],[45.5,3083],[45.5,3167],[45.5,3250],[45.5,3334],[45.5,3417],[45.5,3500],[45.5,3583],[45.5,3667],[45.5,3750],[45.5,3833],[45.5,3917],[45.5,4001],[45.5,4083],[45.5,4167],[45.5,4250],[45.5,4333],[45.4,4417],[45.4,4500],[45.3,4583],[45.3,4667],[45,4750],[44.6,4833],[43,4916],[39.4,5000],[39.2,5083],[39.2,5167],[38.9,5250],[36.3,5334],[34.7,5417],[33.6,5500],[31.9,5584],[30.9,5667],[29.8,5750],[28.7,5833],[28,5917],[27.8,6000],[27.6,6084],[27.5,6166],[27.3,6251],[27.7,6334],[28,6417],[27.8,6500],[27.6,6584],[26.8,6667],[26.8,6750],[26.8,6833],[26.8,6917],[26.8,7000],[26.1,7084],[25.3,7167],[23.5,7250],[23.4,7333],[23.1,7416],[23.1,7500],[23,7584],[23,7667],[23,7750],[23,7834],[23,7917],[23,8000],[23,8083],[23,8167],[23,8250],[23,8333],[23,8417],[23,8501],[23,8584],[23,8667],[23,8750],[22.9,8834],[22.7,8917],[22.4,9000],[22.2,9084],[22,9167],[21.9,9250],[22.3,9334],[28,9417],[32.3,9500],[39.1,9584],[45.6,9666],[49.7,9751],[51.4,9834],[51.4,9917],[51.2,10001],[50,10083],[49.8,10167],[49.4,10250],[49.4,10333],[49.3,10417],[49.2,10500],[49.2,10583],[49.2,10667],[49.2,10750],[49.1,10834],[49.1,10917],[49.1,11000],[49.1,11084],[49,11167],[49,11251],[49,11334],[49.1,11417],[49.2,11501],[49.4,11583],[49.7,11667]]",1,0,480.367,481.978,49.21875,0.509,"[{""rating"":49.21875,""responseTime"":0.5090000000000146}]",space,1.097,,481.978,All the time,100,481.98,,,[],,0,13,13,13,1,audio/Narrative8Situation4.wav,audio/Narrative7Situation4.wav,audio/Narrative6Situation4.wav,audio/Narrative5Situation4.wav,3,3,2,1,,,,,,,,,,,,,,,,,,,,,,,,,,,,,,,,,,,,,,,
,,,,,,63d423b81f5e313b9958723c,2024-02-08_13h42.15.282,group3.1-3.2-social-tom,2023.2.2,Win32,144.092219,65c5074098b851296ff0b7ed,65c54a7447f20f00b2aefe86,,,,,,,,,,,,,,,,,,,,,,,,,,,,,481.981,1,audio/Narrative7Situation5.wav,486.985,,486.985,495.456,"[[45.8,83],[45.7,166],[45.7,250],[45.5,333],[45.5,416],[43.8,499],[43.4,583],[43.8,666],[44.7,750],[45.2,833],[45.5,916],[46.3,999],[47.1,1083],[48.3,1166],[48.7,1249],[49,1333],[49.2,1416],[49.2,1499],[49.1,1583],[49,1666],[49,1749],[49,1833],[49,1916],[49,2000],[49,2083],[49,2166],[49,2249],[49,2333],[49.1,2416],[49.2,2500],[49.2,2583],[49.3,2666],[49.3,2750],[49.3,2833],[49.5,2916],[49.5,3000],[49.5,3083],[49.5,3166],[49.5,3250],[49.5,3333],[49.4,3417],[49.4,3499],[49.5,3583],[49.5,3666],[49.5,3750],[49.5,3833],[49.5,3916],[49.5,4000],[49.5,4083],[49.6,4166],[49.7,4250],[49.9,4334],[50,4416],[50.2,4500],[50.5,4583],[50.6,4666],[50.7,4750],[50.9,4831],[51.1,4917],[51.5,5000],[51.6,5083],[51.9,5166],[52.1,5249],[52.3,5333],[52.5,5416],[52.8,5500],[52.9,5583],[53.2,5666],[53.4,5750],[53.4,5833],[53.5,5916],[53.7,5999],[53.8,6083],[54.1,6166],[54.2,6249],[54.3,6333],[54.1,6417],[53.6,6499],[52.7,6583],[51.2,6667],[50.1,6749],[49.1,6833],[49,6916],[48.7,6999],[48.4,7083],[48.2,7167],[48.1,7250],[48.1,7333],[48.1,7416],[49.4,7500],[51.2,7583],[51.6,7666],[51.8,7749],[51.8,7833],[55.3,7917],[58,8000],[58.2,8083],[58.3,8167],[58.3,8250],[58.3,8333],[58.3,8416]]",1,0,495.457,497.255,50,0.843,"[{""rating"":50,""responseTime"":0.8429999999999609}]",space,1.29,,497.256,Half the time,50,497.258,,,[],,0,14,14,14,1,audio/Narrative8Situation5.wav,audio/Narrative7Situation5.wav,audio/Narrative6Situation5.wav,audio/Narrative5Situation5.wav,2,5,2,5,,,,,,,,,,,,,,,,,,,,,,,,,,,,,,,,,,,,,,,
,,,,,,63d423b81f5e313b9958723c,2024-02-08_13h42.15.282,group3.1-3.2-social-tom,2023.2.2,Win32,144.092219,65c5074098b851296ff0b7ed,65c54a7447f20f00b2aefe86,,,,,,,,,,,,,,,,,,,,,,,,,,,,,497.259,1,audio/Narrative7Situation6.wav,500.262,,500.262,510.221,"[[44.5,1667],[45.5,1750],[45.6,1834],[45.8,1917],[45.8,2000],[45.8,2082],[45.8,2167],[45.8,2250],[45.8,2332],[45.8,2417],[45.8,2500],[45.8,2582],[45.8,2667],[45.8,2750],[45.8,2832],[45.8,2917],[45.8,3000],[45.8,3082],[45.8,3167],[45.8,3250],[45.8,3332],[45.8,3417],[45.8,3500],[45.8,3582],[45.8,3666],[45.8,3750],[45.8,3834],[45.8,3916],[45.8,4000],[45.8,4084],[45.8,4167],[45.8,4250],[45.8,4334],[45.8,4417],[45.8,4500],[45.8,4582],[45.8,4667],[45.8,4750],[45.8,4832],[45.8,4917],[45.8,5000],[45.8,5084],[45.8,5166],[47.1,5250],[47.7,5334],[48.3,5417],[49,5500],[49.3,5584],[49.9,5667],[50.1,5750],[50.3,5832],[50.5,5917],[50.6,6000],[50.8,6082],[50.9,6167],[51.1,6250],[51.1,6332],[51.2,6417],[51.2,6500],[51.3,6584],[51.5,6667],[52,6750],[53.8,6834],[54.7,6917],[58.3,7000],[61.9,7082],[66.1,7167],[68.7,7250],[69.5,7332],[70.3,7417],[70.6,7500],[70.9,7582],[71,7667],[71,7750],[71,7834],[71,7917],[70.7,8000],[70.2,8084],[70,8166],[69.8,8250],[69.8,8334],[69.8,8417],[70.3,8500],[70.5,8584],[70.8,8666],[70.9,8750],[70.9,8834],[71.1,8917],[71.1,9000],[71.2,9084],[71.3,9167],[71.3,9250],[71.2,9334],[71.2,9417],[71.2,9500],[71.2,9584],[71.2,9667],[71.1,9750],[71,9834],[71,9917]]",1,0,510.221,511.818,73.4375,0.586,"[{""rating"":73.4375,""responseTime"":0.585999999999899}]",space,1.079,,511.818,All the time,100,511.819,,,[],,0,15,15,15,1,audio/Narrative8Situation6.wav,audio/Narrative7Situation6.wav,audio/Narrative6Situation6.wav,audio/Narrative5Situation6.wav,2,3,2,3,,,,,,,,,,,,,,,,,,,,,,,,,,,,,,,,,,,,,,,
,,,,,,63d423b81f5e313b9958723c,2024-02-08_13h42.15.282,group3.1-3.2-social-tom,2023.2.2,Win32,144.092219,65c5074098b851296ff0b7ed,65c54a7447f20f00b2aefe86,,,,,,,,,,,,,,,,,,,,,,,,,,,,,511.82,1,audio/Narrative7Situation7.wav,516.825,,516.825,533.985,"[[71.3,1916],[69.4,2000],[67,2082],[65.4,2166],[54.9,2250],[52,2334],[51,2416],[50.4,2500],[50.2,2582],[50.2,2667],[50.2,2750],[50.2,2832],[50.2,2916],[50.2,3000],[50.2,3082],[48.8,3166],[48.8,3250],[48.8,3332],[48.8,3416],[48.8,3500],[48.8,3582],[48.8,3666],[48.8,3750],[48.8,3832],[48.8,3917],[48.8,4000],[48.8,4082],[48.8,4167],[48.8,4249],[48.8,4332],[48.8,4416],[48.8,4500],[48.8,4582],[46.6,4667],[43.4,4750],[41.6,4832],[41,4916],[40.6,4999],[39.6,5082],[37.7,5167],[34.8,5249],[33.8,5332],[33.2,5416],[32.7,5500],[32.2,5582],[32.3,5667],[33.1,5750],[34,5832],[34.7,5917],[34.9,6000],[35.2,6082],[35.4,6167],[36.4,6250],[38.7,6332],[42.9,6417],[48.8,6500],[49.8,6582],[50.2,6666],[50.3,6750],[50.5,6832],[50.5,6916],[50.5,6999],[50.5,7082],[50.5,7167],[50.5,7249],[50.6,7332],[50.6,7417],[50.7,7499],[50.8,7582],[50.9,7667],[51.3,7750],[51.6,7832],[52.1,7916],[52.5,8000],[52.7,8084],[53,8166],[53.2,8250],[54.1,8334],[55.2,8416],[57.4,8500],[59.5,8584],[60.2,8667],[61.2,8750],[61.8,8832],[63.8,8917],[64.5,8999],[65.2,9082],[66.4,9166],[68,9250],[68.4,9332],[68.7,9416],[68.8,9500],[68.8,9584],[68.8,9666],[68.8,9749],[68.8,9831],[68.7,9917],[68.7,9999],[68.7,10082],[68.7,10167],[68.7,10250],[68.7,10332],[68.7,10417],[68.8,10499],[69.6,10582],[70.3,10666],[70.7,10750],[70.9,10832],[71.1,10916],[71.4,11000],[71.5,11082],[71.7,11166],[71.8,11249],[72,11332],[72,11416],[72.1,11500],[72.2,11582],[72.3,11666],[72.4,11749],[72.4,11832],[72.5,11917],[72.6,12000],[72.7,12082],[72.8,12166],[72.9,12249],[73,12332],[73,12417],[73.3,12500],[73.4,12582],[73.7,12666],[73.8,12750],[73.8,12832],[73.9,12916],[73.9,13000],[74.1,13082],[74.1,13166],[74.1,13250],[74.1,13332],[74.1,13416],[74.3,13499],[74.4,13582],[74.5,13666],[74.6,13750],[74.9,13832],[75.1,13916],[75.6,14000],[75.8,14082],[76.3,14166],[76.5,14250],[76.6,14332],[77,14416],[77,14500],[77.1,14582],[77.3,14666],[77.6,14750],[77.8,14832],[78.3,14917],[78.9,14999],[79.2,15082],[79.7,15166],[79.8,15250],[80.3,15332],[81,15416],[82.8,15500],[84.8,15582],[86.3,15666],[88.1,15749],[89,15832],[90.2,15917],[91.8,15999],[95.8,16082],[97.8,16167],[98.4,16249],[98.5,16332],[98.5,16417],[98.5,16499],[97.4,16582],[96.8,16666],[96.2,16749],[95.9,16832],[95.3,16916],[94.9,16999],[94.7,17082]]",1,0,533.985,535.686,94.296875,0.633,"[{""rating"":94.296875,""responseTime"":0.6330000000000382}]",space,1.181,,535.686,Not at all,0,535.688,,,[],,0,16,16,16,1,audio/Narrative8Situation7.wav,audio/Narrative7Situation7.wav,audio/Narrative6Situation7.wav,audio/Narrative5Situation7.wav,3,5,5,4,,,,,,,,,,,,,,,,,,,,,,,,,,,,,,,,,,,,,,,
,,,,,,63d423b81f5e313b9958723c,2024-02-08_13h42.15.282,group3.1-3.2-social-tom,2023.2.2,Win32,144.092219,65c5074098b851296ff0b7ed,65c54a7447f20f00b2aefe86,,,,,,,,,,,,,,,,,,,,,,,,,,,,,535.689,1,audio/Narrative7Situation8.wav,537.693,,537.693,547.7,"[[92,665],[84.1,750],[79,832],[78.7,915],[78.7,1000],[78.7,1081],[81.3,1166],[82.7,1250],[82.5,1332],[81.9,1415],[81.1,1500],[80.7,1582],[80.6,1665],[80.5,1748],[80.8,1832],[81.2,1915],[81.6,2000],[81.8,2082],[82,2165],[82.1,2248],[82.2,2332],[82.3,2415],[82.3,2498],[82.3,2582],[82.1,2665],[82,2750],[81.7,2833],[81.6,2915],[81.5,2998],[81.3,3082],[81.1,3165],[80.8,3248],[80.6,3332],[80.4,3416],[80.4,3500],[80.4,3582],[80.4,3666],[80.5,3750],[80.5,3832],[80.9,3915],[81.3,3998],[81.7,4082],[82,4166],[82.1,4250],[82.3,4332],[82.3,4415],[82.3,4500],[82.3,4582],[82.3,4665],[82.3,4750],[82.3,4832],[82.2,4915],[82.1,5000],[82.1,5082],[81.9,5165],[81.6,5250],[81.2,5332],[81,5415],[80.9,5500],[80.8,5583],[80.7,5665],[80.4,5750],[80.2,5832],[80.1,5916],[80,6000],[79.9,6082],[80,6165],[80.1,6248],[80.2,6332],[80.3,6415],[80.4,6498],[80.6,6582],[80.8,6666],[81,6750],[81.1,6832],[81.2,6916],[81.3,7000],[81.4,7082],[81.6,7166],[81.6,7250],[81.6,7332],[81.6,7416],[81.7,7498],[81.7,7582],[81.8,7665],[81.9,7748],[81.9,7832],[82,7916],[82.2,7998],[82.3,8082],[82.4,8166],[82.6,8250],[82.7,8332],[82.7,8415],[82.8,8500],[82.8,8582],[82.8,8665],[82.6,8750],[82.4,8832],[82.3,8915],[82.2,9000],[82.2,9082],[82,9165],[81.9,9248],[81.3,9332],[80.5,9416],[79.8,9500],[78.7,9582],[77.8,9666],[77.2,9750],[77,9832],[76.8,9915],[76.8,10000]]",1,0,547.7,549.033,78.28125,0.474,"[{""rating"":78.28125,""responseTime"":0.4740000000000464}]",space,0.813,,549.033,Half the time,50,549.036,,,[],,0,17,17,17,1,audio/Narrative8Situation8.wav,audio/Narrative7Situation8.wav,audio/Narrative6Situation8.wav,audio/Narrative5Situation8.wav,3,2,5,3,,,,,,,,,,,,,,,,,,,,,,,,,,,,,,,,,,,,,,,
,,,,,,63d423b81f5e313b9958723c,2024-02-08_13h42.15.282,group3.1-3.2-social-tom,2023.2.2,Win32,144.092219,65c5074098b851296ff0b7ed,65c54a7447f20f00b2aefe86,,,,,,,,,,,,,,,,,,,,,,,,,,,,,549.036,1,audio/Narrative7Situation9.wav,551.04,,551.04,559.658,"[[74.5,665],[74.5,750],[74.5,833],[74.3,915],[74.3,1000],[74.5,1083],[75.2,1167],[75.8,1250],[76.1,1333],[76.6,1417],[76.7,1500],[77,1582],[77,1667],[77.1,1750],[77.2,1832],[77.4,1917],[77.5,2000],[77.5,2082],[77.7,2167],[77.7,2250],[78,2333],[78,2415],[78.1,2500],[78.1,2582],[78.2,2667],[78.3,2750],[78.3,2833],[78.4,2915],[78.4,2999],[78.6,3082],[78.6,3165],[78.4,3250],[78.4,3332],[78.4,3417],[78.4,3499],[78.2,3582],[78.1,3667],[78.1,3750],[78,3832],[77.8,3917],[77.7,4000],[77.5,4082],[76.9,4167],[76.1,4250],[75.4,4332],[75.2,4417],[75.1,4500],[75.1,4582],[75.1,4667],[75.1,4750],[75.2,4832],[75.2,4917],[75.8,5000],[76.2,5082],[76.5,5167],[76.6,5250],[76.7,5332],[76.8,5415],[76.9,5500],[77,5583],[77,5665],[77.1,5750],[77.2,5833],[77.2,5915],[77.2,6000],[77.3,6083],[77.3,6165],[77.3,6250],[77.3,6333],[77.3,6417],[77.3,6500],[77.3,6582],[77.3,6665],[77.4,6750],[77.4,6833],[77.7,6915],[77.7,7000],[78,7082],[78.2,7165],[78.7,7250],[78.8,7333],[79.1,7417],[79.3,7500],[79.4,7582],[79.6,7667],[79.7,7749],[79.8,7832],[79.8,7917],[79.7,8000],[79.6,8082],[79.5,8167],[79.5,8250],[79.5,8332],[79.5,8415],[79.5,8499],[79.5,8582]]",1,0,559.658,560.79,79.765625,0.426,"[{""rating"":79.765625,""responseTime"":0.4259999999999309}]",space,0.623,,560.79,All the time,100,560.792,,,[],,0,18,18,18,1,audio/Narrative8Situation9.wav,audio/Narrative7Situation9.wav,audio/Narrative6Situation9.wav,audio/Narrative5Situation9.wav,3,2,4,3,,,,,,,,,,,,,,,,,,,,,,,,,,,,,,,,,,,,,,,
,,,,,,63d423b81f5e313b9958723c,2024-02-08_13h42.15.282,group3.1-3.2-social-tom,2023.2.2,Win32,144.092219,65c5074098b851296ff0b7ed,65c54a7447f20f00b2aefe86,,,,,,,,,,,,,,,,,,,,,,,,,,,564.075,566.651,566.658,2,audio/Narrative13Situation2.wav,566.658,,566.658,596.394,"[[999,0],[999,76],[999,160],[999,243],[999,326],[999,410],[999,493],[999,576],[999,660],[999,743],[55.7,826],[55.4,910],[54.5,993],[54.5,1076],[54.7,1160],[54.8,1243],[54.8,1326],[54.5,1408],[51.3,1493],[49.8,1576],[49.5,1660],[49.4,1743],[49.4,1826],[49.5,1910],[49.8,1993],[50.2,2076],[50.6,2160],[50.8,2243],[50.8,2326],[50.8,2410],[50.8,2493],[50.8,2576],[50.8,2660],[50.8,2743],[50.8,2826],[50.8,2908],[50.8,2993],[50.8,3076],[50.8,3158],[50.8,3243],[50.8,3326],[50.8,3410],[50.8,3492],[50.8,3576],[50.8,3658],[50.8,3743],[50.8,3826],[50.8,3910],[50.8,3993],[50.8,4076],[50.8,4158],[50.8,4243],[50.8,4326],[50.8,4408],[50.8,4493],[50.8,4576],[50.8,4658],[50.8,4742],[50.8,4826],[50.8,4910],[50.8,4993],[50.8,5076],[50.8,5160],[50.8,5242],[50.8,5326],[50.8,5408],[50.8,5493],[50.8,5576],[50.8,5660],[50.8,5743],[50.8,5826],[50.8,5908],[50.8,5992],[50.8,6076],[50.8,6160],[50.8,6242],[50.8,6326],[50.8,6410],[50.8,6492],[51.1,6576],[51.5,6660],[51.5,6743],[51.8,6826],[52.1,6908],[52.6,6993],[52.6,7076],[52.5,7160],[54.2,7660],[54.4,7743],[54.4,7826],[54.4,7908],[54.7,7993],[54.8,8076],[54.5,8158],[54.5,8243],[54.3,8326],[54.3,8410],[54.3,8493],[54.5,8576],[55,8660],[55.2,8743],[57.7,8826],[60.3,8993],[60.8,9076],[60.8,9158],[60.9,9243],[61,9326],[62.6,9993],[62.5,10076],[62.5,10158],[62.5,10243],[62.5,10326],[62.5,10410],[62.5,10493],[62.5,10576],[62.5,10658],[66.6,11493],[66.7,11576],[66.8,11660],[66.9,11743],[67.1,11826],[67.3,11908],[67.6,11993],[67.7,12076],[67.7,12158],[67.7,12242],[67.7,12326],[67.6,12410],[67.6,12492],[67.8,12576],[67.9,12660],[68.1,12743],[68.2,12826],[68,12910],[67.7,12993],[67.4,13076],[67.3,13160],[67.3,13242],[67.3,13326],[67.3,13410],[67.3,13493],[67.3,13576],[67.3,13660],[67.3,13743],[67.3,13826],[67.3,13910],[67.3,13993],[67.3,14081],[67.3,14160],[67.3,14243],[67.3,14326],[67.3,14408],[67.3,14493],[67.3,14576],[67.3,14658],[67.3,14743],[67.3,14826],[67.3,14908],[67.3,14993],[67.3,15076],[67.3,15160],[67.3,15243],[67.3,15326],[67.3,15410],[67.3,15493],[67.3,15576],[67.3,15658],[67.3,15742],[67.3,15826],[67.3,15910],[67.3,15992],[67.3,16076],[67.3,16160],[67.3,16243],[67.3,16326],[67.3,16408],[67.3,16493],[67.3,16576],[67.3,16658],[67.3,16742],[67.3,16827],[67.3,16908],[67.3,16992],[67.3,17076],[67.3,17160],[67.3,17243],[67.3,17326],[67.3,17410],[67.3,17492],[67.3,17576],[67.3,17658],[67.3,17742],[67.3,17826],[67.3,17910],[67.3,17993],[67.3,18076],[67.3,18158],[67.3,18242],[67.3,18326],[67.3,18410],[67.3,18492],[67.3,18577],[67.3,18660],[67.3,18743],[67.3,18826],[67.3,18910],[67.3,18993],[67.3,19076],[67.3,19158],[67.3,19242],[67.3,19326],[67.3,19408],[67.3,19493],[67.3,19577],[67.3,19660],[67.3,19743],[67.3,19827],[67.3,19908],[67.3,19993],[67.3,20076],[67.3,20160],[67.3,20243],[67.3,20326],[67.3,20408],[67.3,20493],[67.3,20576],[67.3,20658],[67.3,20743],[67.3,20826],[67.3,20908],[67.3,20993],[67.3,21076],[67.3,21158],[67.3,21243],[67.3,21326],[67.3,21408],[67.3,21493],[67.3,21576],[67.3,21660],[67.3,21743],[67.3,21826],[67,21910],[71.1,21993],[74.5,22076],[74.5,22158],[75.1,22243],[84.1,22743],[84.2,22826],[84.8,22908],[88.4,22993],[90.8,23160],[90.9,23243],[90.9,23326],[91.3,23410],[91.4,23493],[91.4,23576],[91.4,23660],[91.4,23743],[91.4,23826],[91.4,23910],[91.4,23993],[91.2,24076],[91.2,24160],[91.2,24243],[91.2,24326],[91.2,24410],[91.2,24493],[91.2,24576],[91.2,24660],[91.2,24742],[91.2,24826],[91.2,24910],[91.2,24993],[91.2,25076],[91.2,25158],[91.2,25242],[91.2,25326],[91.2,25408],[91.3,25493],[91.3,25576],[91.3,25658],[91.3,25743],[91.3,25826],[91.3,25908],[92.3,25993],[92.5,26076],[93.1,26158],[93.4,26242],[94,26326],[95.2,26408],[95.7,26493],[95.9,26576],[95.9,26658],[95.9,26743],[96.7,26827],[97.2,26908],[97.3,26992],[97.7,27077],[98,27160],[98,27243],[98.2,27326],[98.2,27410],[98.3,27493],[98.3,27576],[98.9,27660],[99.5,27743],[100,27826],[100,27910],[100,27992],[100,28076],[100,28160],[100,28243],[100,28326],[100,28408],[100,28493],[100,28577],[100,28658],[100,28743],[100,28826],[100,28908],[100,28993],[100,29076],[100,29160],[100,29242],[100,29326],[100,29410],[100,29493],[100,29576],[100,29660]]",1,0,596.394,596.398,,,[],,,,596.398,All the time,100,596.399,,,[],,0,0,0,0,1,audio/Narrative13Situation2.wav,audio/Narrative13Situation2.wav,audio/Narrative13Situation2.wav,audio/Narrative13Situation2.wav,2,2,2,2,,,,,560.792,564.075,space,2.774,,,,,,,,,,,,,,,,,,,,,,,,,,,,,,,
,,,,,,63d423b81f5e313b9958723c,2024-02-08_13h42.15.282,group3.1-3.2-social-tom,2023.2.2,Win32,144.092219,65c5074098b851296ff0b7ed,65c54a7447f20f00b2aefe86,,,,,,,,,,,,,,,,,,,,,,,,,,,,,596.399,2,audio/Narrative6Situation1.wav,598.401,,598.401,624.97,"[[94.9,415],[85.9,500],[79.8,582],[77.3,665],[75.5,749],[74.9,832],[74.8,915],[74.8,1000],[74.8,1082],[74.8,1165],[74.8,1249],[74.8,1333],[74.8,1417],[74.8,1500],[74.8,1582],[74.8,1665],[74.9,1750],[74.9,1832],[75,1917],[75.1,1999],[75.3,2082],[75.3,2167],[75.3,2249],[75.3,2332],[75.3,2417],[75.3,2500],[75.2,2582],[75.2,2667],[75.2,2750],[75.2,2832],[74.9,2915],[74.9,2999],[74.8,3082],[74.4,3167],[73.4,3250],[71.5,3332],[68.4,3415],[62.2,3500],[57.7,3582],[53.1,3667],[51.1,3750],[50.5,3832],[55.5,3915],[72.9,4000],[78,4082],[80.3,4165],[82.3,4250],[82.6,4332],[82.6,4415],[82.6,4500],[82.6,4582],[82.6,4665],[82.6,4750],[82.6,4832],[82.6,4917],[82.6,5000],[82.6,5082],[82.6,5165],[82.6,5250],[82.6,5332],[82.6,5415],[82.6,5500],[82.6,5582],[82.6,5665],[82.6,5750],[82.6,5832],[82.6,5915],[82.6,5999],[82.6,6082],[82.6,6167],[83.4,6250],[84.1,6333],[84.2,6417],[84.2,6500],[84.4,6582],[84.5,6667],[84.8,6749],[84.8,6832],[84.8,6917],[84.8,7000],[84.9,7082],[84.9,7167],[84.9,7249],[85,7332],[85,7415],[85,7500],[85,7582],[85,7667],[85,7750],[85,7832],[85,7917],[85,8000],[85.1,8082],[85.5,8167],[86.1,8250],[86.2,8332],[86.7,8417],[87.7,8500],[89.8,8582],[92.7,8667],[94.2,8750],[94.5,8832],[94.5,8915],[94.7,9000],[95.4,9082],[96.7,9165],[97,9249],[97,9332],[97,9415],[97,9499],[97,9582],[97,9665],[97,9749],[97,9832],[97,9915],[97,10000],[97,10082],[97.3,10165],[97.3,10250],[97.5,10332],[97.5,10415],[97.5,10500],[97.5,10582],[97.5,10665],[97.5,10750],[97.5,10832],[97.6,10917],[97.6,11000],[97.6,11082],[97.6,11167],[97.6,11250],[97.6,11332],[97.6,11415],[97.6,11500],[97.6,11582],[97.6,11667],[97.6,11750],[98.8,11832],[99.2,11917],[99.5,11999],[99.5,12082],[99.5,12165],[99.5,12249],[99.5,12332],[99.5,12417],[99.5,12499],[99.5,12582],[99.5,12665],[99.5,12750],[99.5,12832],[99.6,12915],[99.6,13000],[99.7,13082],[99.7,13165],[99.9,13250],[100,13332],[100,13415],[100,13500],[100,13582],[100,13667],[100,13749],[100,13832],[100,13917],[100,14000],[100,14082],[100,14165],[100,14250],[100,14332],[100,14415],[100,14499],[100,14582],[100,14667],[100,14750],[100,14833],[100,14915],[100,15000],[100,15082],[100,15165],[100,15250],[100,15332],[98,15415],[97.8,15500],[97.8,15582],[97.8,15665],[98.2,15749],[98.4,15833],[98.8,15915],[98.8,16000],[99.1,16082],[99.1,16165],[99.1,16250],[99.4,16332],[99.4,16415],[99.6,16500],[99.6,16582],[99.8,16665],[99.9,16749],[100,16832],[100,16915],[100,16999],[100,17082],[100,17167],[100,17249],[100,17332],[100,17415],[100,17500],[100,17582],[100,17665],[100,17750],[100,17832],[100,17915],[100,18000],[100,18082],[100,18165],[100,18249],[100,18332],[100,18417],[100,18499],[100,18583],[100,18667],[100,18750],[100,18832],[100,18917],[100,19000],[100,19082],[100,19165],[100,19250],[100,19332],[100,19417],[100,19500],[100,19582],[100,19665],[100,19750],[100,19832],[100,19915],[100,19999],[100,20082],[100,20167],[100,20250],[100,20332],[100,20415],[100,20500],[100,20582],[100,20665],[100,20750],[100,20832],[100,20915],[100,21000],[100,21082],[100,21167],[100,21250],[100,21332],[100,21417],[100,21499],[100,21582],[100,21665],[100,21749],[100,21832],[100,21915],[100,22000],[100,22082],[100,22165],[100,22249],[100,22332],[100,22415],[100,22500],[100,22582],[100,22667],[100,22750],[100,22832],[100,22915],[100,23000],[100,23082],[100,23167],[100,23250],[100,23332],[100,23417],[100,23500],[100,23582],[100,23665],[100,23750],[100,23832],[100,23915],[100,24000],[100,24082],[100,24165],[100,24250],[100,24332],[100,24415],[100,24499],[100,24582],[100,24667],[100,24750],[100,24832],[100,24917],[100,25000],[100,25082],[100,25165],[100,25250],[100,25332],[100,25415],[100,25500],[100,25582],[100,25667],[100,25750],[100,25832],[100,25917],[100,26000],[100,26082],[100,26167],[100,26250],[100,26331],[100,26415],[100,26500]]",1,0,624.971,632.783,99.84375,1.544,"[{""rating"":99.84375,""responseTime"":1.5439999999999827}]",space,7.292,,632.783,Not at all,0,632.786,,,[],,0,1,1,1,1,audio/Narrative7Situation1.wav,audio/Narrative8Situation1.wav,audio/Narrative5Situation1.wav,audio/Narrative6Situation1.wav,2,5,5,2,,,,,,,,,,,,,,,,,,,,,,,,,,,,,,,,,,,,,,,
,,,,,,63d423b81f5e313b9958723c,2024-02-08_13h42.15.282,group3.1-3.2-social-tom,2023.2.2,Win32,144.092219,65c5074098b851296ff0b7ed,65c54a7447f20f00b2aefe86,,,,,,,,,,,,,,,,,,,,,,,,,,,,,632.786,2,audio/Narrative6Situation2.wav,635.79,,635.79,664.276,"[[70.5,82],[70.5,165],[69.5,249],[67.1,331],[64.8,415],[64.6,500],[65.1,582],[67.3,665],[69.5,750],[69.6,832],[68.8,915],[66.4,1000],[66.9,1082],[70.2,1165],[71.7,1249],[73,1332],[75.8,1415],[78,1500],[78.4,1582],[80.9,1665],[84.5,1749],[87.1,1832],[87.9,1915],[88,2000],[88,2081],[88,2165],[88.2,2250],[89.5,2332],[90.6,2415],[90.6,2499],[90.6,2582],[90.7,2665],[90.7,2749],[90.7,2832],[89.8,2915],[83,3000],[80.6,3082],[81.3,3165],[85.3,3249],[85.9,3332],[86.3,3415],[86.8,3500],[89.5,3582],[92.9,3665],[92.9,3749],[92.9,3832],[92.9,3915],[92.9,3999],[93,4082],[93.8,4165],[95,4249],[96.6,4332],[98,4417],[100,4500],[100,4582],[100,4665],[100,4750],[100,4832],[100,4915],[100,5000],[100,5081],[100,5165],[100,5250],[100,5332],[100,5415],[100,5499],[100,5581],[100,5665],[100,5749],[100,5832],[100,5917],[100,6000],[100,6082],[100,6165],[100,6249],[100,6332],[100,6415],[100,6499],[100,6581],[100,6665],[100,6750],[100,6831],[100,6915],[100,7000],[100,7082],[100,7165],[100,7249],[100,7332],[100,7415],[100,7499],[100,7582],[100,7665],[100,7750],[100,7832],[100,7915],[100,7999],[100,8081],[100,8165],[100,8250],[100,8332],[100,8417],[100,8500],[100,8582],[100,8667],[100,8749],[100,8832],[100,8915],[100,8999],[100,9081],[100,9167],[100,9249],[100,9332],[100,9417],[100,9500],[100,9582],[100,9665],[100,9750],[100,9832],[100,9915],[100,9999],[100,10082],[100,10165],[100,10249],[100,10332],[100,10417],[100,10499],[100,10582],[100,10667],[100,10750],[100,10832],[100,10915],[100,11000],[100,11082],[100,11165],[100,11249],[100,11331],[100,11415],[100,11500],[100,11582],[100,11665],[100,11749],[100,11832],[100,11915],[100,12000],[100,12081],[100,12165],[100,12249],[100,12332],[100,12415],[100,12499],[100,12582],[100,12665],[100,12749],[100,12832],[100,12915],[100,13000],[100,13082],[100,13165],[100,13250],[100,13332],[100,13415],[100,13499],[100,13582],[100,13665],[100,13749],[100,13832],[100,13915],[100,13999],[100,14082],[100,14165],[100,14250],[100,14332],[100,14415],[100,14500],[100,14582],[100,14665],[100,14749],[100,14832],[100,14915],[100,14999],[100,15082],[100,15165],[100,15249],[100,15332],[100,15415],[100,15499],[100,15582],[100,15665],[100,15750],[100,15832],[100,15915],[100,15999],[100,16082],[100,16165],[100,16249],[100,16332],[100,16415],[100,16499],[100,16582],[100,16665],[100,16750],[100,16832],[100,16915],[100,17000],[100,17082],[100,17165],[100,17250],[100,17332],[100,17415],[100,17500],[100,17582],[100,17665],[100,17750],[100,17832],[100,17915],[100,18000],[100,18082],[100,18165],[100,18249],[100,18332],[100,18415],[100,18499],[100,18581],[100,18665],[100,18750],[100,18831],[100,18915],[100,19000],[100,19081],[100,19165],[100,19250],[100,19332],[100,19415],[100,19499],[100,19581],[100,19665],[100,19749],[100,19832],[100,19915],[100,19999],[100,20082],[100,20165],[100,20250],[100,20331],[100,20417],[100,20500],[100,20582],[100,20667],[100,20749],[100,20832],[100,20917],[100,20999],[100,21082],[100,21167],[100,21249],[100,21332],[100,21415],[100,21500],[100,21582],[100,21665],[100,21750],[100,21832],[100,21915],[100,22000],[100,22081],[100,22165],[100,22249],[100,22332],[100,22415],[100,22499],[100,22582],[100,22665],[100,22749],[100,22832],[100,22915],[100,22999],[100,23081],[100,23165],[100,23249],[100,23332],[100,23415],[100,23500],[100,23581],[100,23665],[100,23750],[100,23832],[100,23915],[100,24000],[100,24082],[100,24165],[100,24249],[100,24331],[100,24415],[100,24499],[100,24583],[100,24665],[100,24750],[100,24831],[100,24915],[100,24999],[100,25081],[100,25165],[100,25249],[100,25332],[100,25415],[100,25499],[100,25582],[100,25665],[100,25749],[100,25832],[100,25915],[100,25999],[100,26082],[100,26165],[100,26250],[100,26332],[100,26415],[100,26500],[100,26582],[100,26665],[100,26749],[100,26832],[100,26915],[100,26999],[100,27082],[100,27165],[100,27249],[100,27331],[100,27415],[100,27500],[100,27582],[100,27667],[100,27750],[100,27832],[100,27915],[100,28000],[100,28081],[100,28165],[100,28250],[100,28331],[100,28415]]",1,0,664.276,665.421,99.84375,0.952,"[{""rating"":99.84375,""responseTime"":0.9519999999999982}]",space,0.633,,665.422,Not at all,0,665.424,,,[],,0,2,2,2,1,audio/Narrative7Situation2.wav,audio/Narrative8Situation2.wav,audio/Narrative5Situation2.wav,audio/Narrative6Situation2.wav,3,3,3,3,,,,,,,,,,,,,,,,,,,,,,,,,,,,,,,,,,,,,,,
,,,,,,63d423b81f5e313b9958723c,2024-02-08_13h42.15.282,group3.1-3.2-social-tom,2023.2.2,Win32,144.092219,65c5074098b851296ff0b7ed,65c54a7447f20f00b2aefe86,,,,,,,,,,,,,,,,,,,,,,,,,,,,,665.424,2,audio/Narrative6Situation3.wav,670.429,,670.429,683.026,"[[96.3,1750],[96.3,1831],[94.3,1915],[92.1,2000],[92.1,2081],[92,2164],[92,2250],[91.8,2332],[91.8,2415],[91.7,2499],[91.5,2582],[91.5,2665],[91.4,2749],[91.4,2831],[91.4,2915],[91.4,3000],[91.4,3082],[91.4,3165],[91.4,3250],[91.4,3332],[91.4,3415],[92,3499],[94.6,3582],[95.2,3665],[95.2,3749],[95.2,3832],[95.2,3914],[96.4,3999],[97.6,4082],[98.4,4165],[98.7,4249],[99,4332],[99,4415],[99,4499],[99,4582],[99.9,4665],[100,4749],[100,4832],[100,4914],[100,4999],[100,5082],[100,5165],[100,5249],[100,5332],[100,5415],[100,5499],[100,5582],[100,5665],[100,5749],[100,5831],[100,5915],[100,5999],[100,6082],[100,6165],[100,6249],[100,6332],[100,6415],[100,6499],[100,6581],[100,6665],[100,6750],[100,6831],[100,6915],[100,6999],[100,7081],[100,7165],[100,7249],[100,7331],[100,7415],[100,7499],[100,7581],[100,7665],[100,7750],[100,7832],[100,7915],[100,7999],[100,8082],[100,8165],[100,8249],[100,8332],[100,8414],[100,8499],[100,8581],[100,8665],[100,8750],[100,8831],[100,8915],[100,9000],[100,9082],[100,9165],[100,9249],[100,9331],[100,9415],[100,9499],[100,9581],[100,9664],[100,9749],[100,9832],[100,9915],[100,9999],[100,10082],[100,10165],[100,10249],[100,10332],[100,10415],[100,10499],[100,10581],[100,10665],[100,10749],[100,10832],[100,10914],[100,10999],[100,11081],[100,11164],[100,11249],[100,11332],[100,11415],[100,11500],[100,11582],[100,11665],[100,11749],[100,11831],[100,11915],[100,11999],[100,12081],[100,12165],[100,12250],[100,12331],[100,12415],[100,12499],[100,12582]]",1,0,683.026,685.068,99.375,0.981,"[{""rating"":99.375,""responseTime"":0.9809999999999945}]",space,1.532,,685.068,All the time,100,685.071,,,[],,0,3,3,3,1,audio/Narrative7Situation3.wav,audio/Narrative8Situation3.wav,audio/Narrative5Situation3.wav,audio/Narrative6Situation3.wav,8,4,3,5,,,,,,,,,,,,,,,,,,,,,,,,,,,,,,,,,,,,,,,
,,,,,,63d423b81f5e313b9958723c,2024-02-08_13h42.15.282,group3.1-3.2-social-tom,2023.2.2,Win32,144.092219,65c5074098b851296ff0b7ed,65c54a7447f20f00b2aefe86,,,,,,,,,,,,,,,,,,,,,,,,,,,,,685.071,2,audio/Narrative6Situation4.wav,687.075,,687.075,699.678,"[[99.1,2999],[99.9,3082],[99.9,3166],[99.2,3249],[99.1,3331],[99.1,3416],[99.1,3499],[99.1,3581],[99.1,3664],[99.1,3749],[99.1,3831],[99.1,3914],[99.1,3999],[99.1,4082],[99.1,4166],[99.1,4249],[99.1,4332],[99.1,4416],[99.1,4498],[99.1,4582],[99.1,4666],[99.1,4749],[99.1,4832],[99.1,4914],[99.1,4999],[99.1,5081],[99.1,5164],[99.1,5249],[99.1,5332],[99.1,5414],[99.1,5499],[99.1,5581],[99.1,5666],[99.1,5749],[99.1,5831],[99.1,5916],[99.1,5999],[99.1,6081],[99.1,6166],[99.1,6249],[99.1,6331],[99.1,6416],[98.8,6499],[98.6,6581],[98.6,6664],[98.6,6749],[94.2,6832],[79.9,6916],[71.4,6999],[63,7081],[58.8,7166],[57.5,7249],[57.4,7331],[57.4,7416],[59.2,7499],[65.5,7581],[69.9,7666],[71.1,7749],[71.1,7831],[71.9,7916],[72,7999],[72.2,8081],[72.2,8166],[72.3,8249],[72.5,8331],[72.5,8414],[72.8,8499],[73.2,8582],[73.9,8666],[74.1,8749],[75.2,8831],[75.6,8916],[76.6,8999],[77.5,9081],[78.5,9166],[79.3,9249],[79.6,9331],[80.4,9416],[80.5,9499],[80.5,9581],[80.8,9664],[81.2,9749],[81.5,9832],[81.5,9914],[81.6,9999],[81.6,10081],[81.6,10164],[81.6,10249],[81.7,10332],[82,10416],[82.1,10499],[82.3,10581],[83.6,10664],[86.2,10749],[89.2,10832],[92.1,10914],[92.4,10999],[93.3,11082],[93.5,11164],[94.9,11249],[95.5,11331],[96.6,11416],[97.4,11499],[97.9,11582],[98.4,11666],[98.5,11749],[98.5,11831],[98.5,11916],[98.5,11999],[98.5,12081],[98.5,12166],[98.5,12249],[98.5,12331],[98.5,12414],[98.5,12499],[98.5,12581]]",1,0,699.678,700.532,98.75,0.69,"[{""rating"":98.75,""responseTime"":0.6899999999999409}]",space,0.341,,700.532,Half the time,50,700.534,,,[],,0,4,4,4,1,audio/Narrative7Situation4.wav,audio/Narrative8Situation4.wav,audio/Narrative5Situation4.wav,audio/Narrative6Situation4.wav,3,3,1,2,,,,,,,,,,,,,,,,,,,,,,,,,,,,,,,,,,,,,,,
,,,,,,63d423b81f5e313b9958723c,2024-02-08_13h42.15.282,group3.1-3.2-social-tom,2023.2.2,Win32,144.092219,65c5074098b851296ff0b7ed,65c54a7447f20f00b2aefe86,,,,,,,,,,,,,,,,,,,,,,,,,,,,,700.535,2,audio/Narrative6Situation5.wav,702.539,,702.539,710.483,"[[97.5,416],[95.4,500],[92.7,583],[91.4,666],[91.4,750],[92.1,833],[93.9,916],[93.9,1000],[93.9,1083],[93.9,1166],[94.8,1250],[96.6,1333],[97.7,1416],[98,1500],[98,1583],[98.1,1666],[98.1,1750],[98.1,1833],[98.1,1916],[98.1,2000],[98.1,2083],[98.1,2165],[98.1,2250],[98.1,2332],[98.1,2416],[98.1,2500],[98.1,2582],[98.1,2665],[98.1,2750],[98.1,2833],[98.1,2916],[98.1,3000],[98.1,3082],[98.1,3166],[98.1,3250],[98.1,3332],[98.1,3416],[98.1,3500],[98.1,3582],[98.1,3666],[98.1,3750],[98.1,3832],[98.1,3915],[98.1,4000],[98.1,4082],[98.1,4166],[98.1,4250],[98.1,4332],[98.1,4416],[98.1,4500],[98.1,4583],[98.1,4666],[98.1,4750],[98.1,4832],[98.1,4916],[98.1,5000],[98.1,5083],[98.1,5166],[98.1,5250],[98.1,5333],[98.1,5416],[98.1,5500],[98.1,5583],[98.1,5666],[98.1,5750],[98.1,5833],[98.1,5916],[98.1,6000],[98.1,6083],[98.1,6166],[98.1,6250],[98.1,6333],[98.1,6416],[98.1,6500],[98.1,6583],[98.1,6666],[98.1,6750],[98.1,6832],[98.1,6915],[98.1,7000],[98.1,7083],[98.1,7166],[98.1,7250],[98.1,7333],[98.1,7415],[98.1,7500],[98.1,7583],[98.1,7666],[98.1,7750],[98.1,7832],[98.1,7916]]",1,0,710.484,712.22,98.203125,0.677,"[{""rating"":98.203125,""responseTime"":0.6770000000000209}]",space,1.216,,712.22,Half the time,50,712.225,,,[],,0,5,5,5,1,audio/Narrative7Situation5.wav,audio/Narrative8Situation5.wav,audio/Narrative5Situation5.wav,audio/Narrative6Situation5.wav,5,2,5,2,,,,,,,,,,,,,,,,,,,,,,,,,,,,,,,,,,,,,,,
,,,,,,63d423b81f5e313b9958723c,2024-02-08_13h42.15.282,group3.1-3.2-social-tom,2023.2.2,Win32,144.092219,65c5074098b851296ff0b7ed,65c54a7447f20f00b2aefe86,,,,,,,,,,,,,,,,,,,,,,,,,,,,,712.225,2,audio/Narrative6Situation6.wav,714.227,,714.227,725.289,"[[96.8,582],[95.4,666],[94,750],[94,832],[94,915],[94,999],[94,1082],[94,1165],[94,1249],[94,1332],[94,1416],[94,1499],[94,1582],[94,1666],[94,1750],[94.1,1832],[94.2,1915],[94.4,2000],[94.4,2082],[94.4,2165],[94.4,2250],[94.4,2332],[94.4,2415],[94.4,2500],[94.4,2582],[94.4,2666],[94.4,2750],[94.4,2832],[94.4,2915],[94.4,3000],[94.4,3082],[94.4,3165],[94.4,3249],[94.4,3332],[94.4,3415],[94.4,3499],[94.4,3582],[94.4,3666],[94.4,3750],[94.4,3832],[94.4,3915],[94.4,4000],[94.4,4082],[94.4,4165],[94.4,4249],[94.4,4332],[94.4,4415],[94.4,4500],[94.4,4582],[94.4,4665],[94.4,4749],[94.4,4832],[94.4,4915],[94.4,4999],[94.4,5082],[94.4,5165],[94.4,5250],[94.4,5332],[94.4,5415],[94.4,5500],[94.4,5582],[94.4,5665],[94.4,5749],[94.4,5833],[94.4,5915],[94.4,5999],[94.4,6082],[94.4,6166],[94.4,6250],[94.4,6332],[94.4,6416],[94.4,6499],[94.4,6582],[94.4,6665],[94.4,6750],[94.4,6832],[94.4,6915],[94.4,7000],[94.4,7082],[94.4,7165],[94.4,7249],[94.4,7332],[94.4,7416],[94.4,7499],[94.4,7582],[94.4,7666],[94.4,7750],[94.4,7832],[94.4,7915],[94.4,7999],[94.4,8082],[94.4,8165],[94.4,8249],[94.4,8332],[94.4,8415],[94.4,8500],[94.4,8582],[94.4,8665],[94.4,8750],[94.4,8832],[94.4,8916],[94.4,9000],[94.4,9082],[94.4,9166],[94.5,9250],[94.5,9332],[95.2,9415],[97.9,9499],[98.1,9582],[98.1,9665],[98.1,9750],[98.1,9832],[98.1,9915],[98.1,10000],[98.1,10082],[98.1,10165],[98.1,10250],[98.1,10332],[98.1,10415],[98.1,10500],[98.1,10582],[98.1,10665],[98.1,10749],[98.1,10832],[98.1,10915],[98.1,10999]]",1,0,725.289,726.345,98.125,0.474,"[{""rating"":98.125,""responseTime"":0.4739999999999327}]",space,0.543,,726.345,Not at all,0,726.347,,,[],,0,6,6,6,1,audio/Narrative7Situation6.wav,audio/Narrative8Situation6.wav,audio/Narrative5Situation6.wav,audio/Narrative6Situation6.wav,3,2,3,2,,,,,,,,,,,,,,,,,,,,,,,,,,,,,,,,,,,,,,,
,,,,,,63d423b81f5e313b9958723c,2024-02-08_13h42.15.282,group3.1-3.2-social-tom,2023.2.2,Win32,144.092219,65c5074098b851296ff0b7ed,65c54a7447f20f00b2aefe86,,,,,,,,,,,,,,,,,,,,,,,,,,,,,726.348,2,audio/Narrative6Situation7.wav,731.352,,731.352,756.193,"[[97.1,582],[96.6,666],[96.6,749],[96.6,832],[96.6,915],[96.6,999],[96.6,1082],[96.6,1166],[96.6,1249],[96.6,1332],[96.6,1416],[96.6,1500],[96.6,1582],[96.6,1665],[96.6,1750],[96.6,1832],[96.6,1915],[96.6,1999],[96.6,2081],[96.6,2165],[96.6,2249],[96.6,2332],[96.6,2415],[96.6,2499],[96.6,2582],[96.6,2665],[96.6,2750],[96.6,2832],[96.6,2915],[96.6,3000],[96.6,3082],[96.6,3165],[96.6,3250],[96.6,3332],[96.4,3415],[87.4,3500],[74.5,3582],[62.5,3665],[55.5,3750],[52.6,3832],[52.6,3915],[52.4,4000],[52.4,4082],[52.3,4165],[52.2,4250],[51.7,4332],[51.4,4415],[52.4,4500],[53.8,4582],[53.8,4665],[53.8,4750],[53.8,4832],[53.2,4915],[52.4,5000],[51.3,5082],[49.6,5166],[49.3,5250],[49.3,5332],[49.3,5415],[49.3,5499],[49.3,5582],[46.4,5665],[42,5749],[42,5832],[42,5915],[42,6000],[42,6082],[42,6165],[42,6250],[41.9,6332],[41.8,6416],[41.6,6500],[40.2,6582],[36.8,6666],[29,6750],[21.6,6832],[21.3,6915],[21.3,6999],[21.3,7082],[21.3,7166],[21.3,7249],[21.3,7332],[21.3,7416],[21.3,7500],[21.3,7582],[21.3,7665],[21.3,7750],[21.3,7832],[21.3,7915],[22.7,7999],[29.4,8082],[40.5,8165],[48.7,8250],[50.9,8332],[53.4,8416],[56.8,8499],[61,8582],[66.5,8665],[73.6,8749],[79.2,8832],[82.7,8916],[85.6,9000],[85.9,9082],[86.8,9165],[87.3,9250],[91.3,9332],[93.4,9415],[94.6,9500],[95.2,9582],[95.2,9665],[95.2,9750],[95.2,9832],[95.2,9916],[95.2,10000],[95.6,10082],[95.9,10165],[95.9,10249],[96.3,10332],[96.3,10415],[97.4,10499],[97.5,10582],[97.5,10665],[97.5,10750],[97.5,10832],[97.5,10915],[97.5,11000],[97.5,11082],[97.5,11165],[98,11250],[98.1,11332],[98.1,11416],[98.1,11500],[98.1,11582],[98.1,11665],[98.1,11749],[98.1,11832],[98.1,11915],[98.1,12000],[98.1,12082],[98.1,12165],[98.1,12250],[98.1,12332],[98.1,12415],[98.1,12500],[98.1,12582],[98.1,12665],[98.1,12750],[98.1,12832],[98.1,12916],[98.1,13000],[98.1,13082],[98.1,13165],[98.1,13249],[98.1,13332],[98.1,13415],[98.1,13500],[98.1,13582],[98.1,13665],[98.1,13750],[98.1,13832],[98.1,13915],[98.1,14000],[98.1,14082],[98.1,14165],[98.1,14249],[98.1,14332],[98.1,14415],[98.1,14499],[98.1,14582],[98.1,14666],[98.1,14749],[98.1,14831],[98.1,14916],[98.1,15000],[98.1,15082],[98.1,15165],[98.1,15250],[98.1,15332],[98.1,15415],[98.1,15500],[98.1,15582],[98.1,15665],[98.1,15750],[98.4,15832],[98.4,15916],[98.8,16000],[98.8,16082],[98.8,16166],[98.8,16249],[98.8,16332],[98.8,16415],[98.8,16499],[98.8,16582],[98.8,16665],[98.8,16749],[98.8,16832],[98.8,16915],[98.8,16999],[98.8,17082],[98.8,17166],[98.8,17249],[98.8,17331],[98.8,17416],[98.8,17499],[98.8,17582],[98.8,17666],[98.8,17750],[98.8,17832],[98.8,17915],[98.8,17999],[98.8,18082],[98.8,18165],[98.8,18250],[98.8,18332],[98.8,18415],[98.8,18500],[98.8,18582],[98.8,18665],[98.8,18750],[98.8,18832],[98.8,18915],[98.8,18999],[98.8,19082],[98.8,19165],[98.8,19250],[98.8,19332],[98.8,19415],[98.8,19499],[98.8,19582],[98.8,19665],[98.8,19750],[98.8,19831],[98.8,19915],[98.8,20000],[98.8,20082],[98.8,20165],[98.9,20250],[99.3,20332],[99.3,20415],[99.3,20499],[99.3,20582],[99.3,20666],[99.4,20750],[99.4,20832],[99.4,20915],[99.4,20999],[99.4,21082],[99.4,21165],[99.4,21250],[99.4,21332],[99.4,21415],[99.4,21499],[99.4,21582],[99.4,21665],[99.4,21750],[99.4,21832],[99.4,21915],[99.4,21999],[99.4,22082],[99.4,22165],[99.4,22250],[99.4,22332],[99.4,22415],[99.4,22500],[99.4,22582],[99.5,22665],[99.8,22749],[99.9,22832],[99.9,22915],[100,23000],[100,23082],[100,23165],[100,23249],[100,23332],[100,23415],[100,23499],[100,23582],[100,23665],[100,23750],[100,23832],[100,23915],[100,24000],[100,24082],[100,24165],[100,24249],[100,24332],[100,24415],[100,24500],[100,24582],[100,24665],[100,24750],[100,24832]]",1,0,756.193,758.018,99.453125,1.5,"[{""rating"":99.453125,""responseTime"":1.5}]",space,1.309,,758.018,Not at all,0,758.021,,,[],,0,7,7,7,1,audio/Narrative7Situation7.wav,audio/Narrative8Situation7.wav,audio/Narrative5Situation7.wav,audio/Narrative6Situation7.wav,5,3,4,5,,,,,,,,,,,,,,,,,,,,,,,,,,,,,,,,,,,,,,,
,,,,,,63d423b81f5e313b9958723c,2024-02-08_13h42.15.282,group3.1-3.2-social-tom,2023.2.2,Win32,144.092219,65c5074098b851296ff0b7ed,65c54a7447f20f00b2aefe86,,,,,,,,,,,,,,,,,,,,,,,,,,,,,758.021,2,audio/Narrative6Situation8.wav,763.025,,763.025,769.866,"[[93.4,582],[88.8,666],[88,750],[87.9,832],[87.9,916],[88.3,1000],[90.5,1082],[90.5,1166],[90.6,1250],[90.6,1332],[90.8,1415],[90.9,1500],[92,1583],[92.1,1665],[92.1,1750],[92.1,1833],[92.1,1915],[92.1,2000],[92.1,2082],[92.1,2166],[92.1,2250],[92.1,2333],[92.1,2416],[92.1,2500],[92.1,2583],[92.1,2666],[92.1,2750],[92.1,2833],[92.1,2915],[92.1,3000],[92.1,3083],[92.1,3165],[92.1,3250],[92.1,3332],[92.1,3416],[92.1,3500],[92.1,3583],[92.1,3666],[92.1,3750],[92.1,3832],[92.1,3916],[92.1,4000],[92.1,4083],[92.1,4165],[92.1,4250],[92.1,4332],[92.1,4415],[92.1,4500],[92.1,4582],[92.1,4665],[92.1,4750],[92.1,4832],[92.1,4916],[92.1,5000],[92.1,5082],[92.1,5166],[92.1,5250],[92.1,5332],[92.1,5416],[92.1,5500],[92.1,5582],[92.1,5666],[92.1,5750],[92,5833],[92,5916],[92,6000],[92,6083],[92,6166],[92,6250],[92,6332],[92,6416],[92,6500],[92,6583],[92,6666],[92,6750],[92,6832]]",1,0,769.866,771.775,84.921875,0.978,"[{""rating"":84.921875,""responseTime"":0.9779999999999518}]",space,1.394,,771.775,Half the time,50,771.778,,,[],,0,8,8,8,1,audio/Narrative7Situation8.wav,audio/Narrative8Situation8.wav,audio/Narrative5Situation8.wav,audio/Narrative6Situation8.wav,2,3,3,5,,,,,,,,,,,,,,,,,,,,,,,,,,,,,,,,,,,,,,,
,,,,,,63d423b81f5e313b9958723c,2024-02-08_13h42.15.282,group3.1-3.2-social-tom,2023.2.2,Win32,144.092219,65c5074098b851296ff0b7ed,65c54a7447f20f00b2aefe86,,,,,,,,,,,,,,,,,,,,,,,,,,,,,771.778,2,audio/Narrative6Situation9.wav,775.782,,775.782,785.72,"[[86.3,3416],[86.3,3500],[86.3,3584],[86.3,3667],[86.3,3750],[86.3,3832],[86.3,3917],[86.3,4000],[86.3,4082],[86.3,4167],[86.3,4250],[86.3,4332],[86.3,4416],[86.3,4500],[86.3,4584],[86.3,4666],[86.3,4750],[86.3,4832],[86.3,4917],[86.3,5000],[86.3,5082],[86.3,5166],[86.3,5250],[86.3,5332],[86.3,5416],[86.8,5500],[75.7,6084],[75.4,6167],[75.3,6250],[75.3,6332],[75.9,6417],[78,6500],[78.6,6582],[79.6,6667],[80.3,6750],[82.3,6832],[84.1,6917],[86.4,7000],[88.4,7082],[90.8,7167],[94.3,7250],[95.5,7334],[96.8,7417],[96.9,7500],[99.1,7582],[99.2,7667],[99.3,7750],[99.3,7832],[99.3,7917],[99.5,8000],[99.7,8082],[100,8166],[100,8250],[100,8332],[100,8417],[100,8500],[100,8582],[100,8667],[100,8750],[100,8832],[100,8917],[100,9000],[100,9082],[100,9167],[100,9250],[100,9334],[100,9416],[100,9500],[100,9584],[100,9667],[100,9750],[100,9832],[100,9917]]",1,0,785.72,786.969,99.453125,1.043,"[{""rating"":99.453125,""responseTime"":1.0430000000000064}]",space,0.74,,786.97,Not at all,0,786.972,,,[],,0,9,9,9,1,audio/Narrative7Situation9.wav,audio/Narrative8Situation9.wav,audio/Narrative5Situation9.wav,audio/Narrative6Situation9.wav,2,3,3,4,,,,,,,,,,,,,,,,,,,,,,,,,,,,,,,,,,,,,,,
,,,,,,63d423b81f5e313b9958723c,2024-02-08_13h42.15.282,group3.1-3.2-social-tom,2023.2.2,Win32,144.092219,65c5074098b851296ff0b7ed,65c54a7447f20f00b2aefe86,,,,,,,,,,,,,,,,,,,,,,,,,,,,,786.972,2,audio/Narrative5Situation1.wav,791.977,,791.977,805.247,"[[88.7,4750],[83.6,4832],[86.3,4915],[89.1,4999],[90.7,5082],[90.7,5165],[90.7,5249],[90.7,5331],[90.7,5415],[90.7,5499],[90.7,5582],[90.7,5665],[90.7,5749],[90.7,5832],[90.7,5915],[90.7,5999],[90.7,6081],[90.7,6165],[90.7,6249],[90.7,6331],[90.7,6415],[90.7,6500],[90.7,6582],[90.7,6665],[90.7,6749],[90.7,6831],[90.7,6915],[90.7,7000],[90.7,7081],[90.7,7165],[90.7,7249],[90.7,7332],[90.7,7415],[90.7,7499],[90.7,7581],[90.7,7665],[90.7,7749],[90.7,7831],[90.7,7915],[90.7,7999],[90.7,8082],[90.7,8165],[90.7,8249],[90.7,8332],[90.7,8415],[90.7,8499],[90.7,8582],[90.7,8665],[90.7,8749],[90.7,8831],[90.7,8915],[90.7,8999],[90.7,9081],[90.7,9165],[90.7,9250],[90.7,9332],[90.7,9415],[90.7,9499],[90.7,9582],[90.7,9665],[90.7,9749],[90.7,9831],[90.7,9915],[90.7,9999],[90.7,10082],[90.7,10165],[90.7,10250],[90.7,10332],[90.7,10415],[90.7,10499],[90.7,10582],[90.7,10665],[90.7,10749],[90.7,10832],[90.7,10915],[90.7,10999],[90.7,11082],[90.7,11165],[90.7,11249],[90.7,11332],[90.7,11415],[90.7,11499],[90.7,11582],[90.7,11665],[90.7,11750],[90.7,11832],[90.7,11915],[90.7,12000],[90.7,12082],[90.7,12165],[90.7,12250],[90.7,12332],[90.7,12415],[90.7,12500],[90.7,12581],[90.7,12665],[90.7,12750],[90.7,12832],[90.7,12915],[90.7,13000],[90.7,13082],[90.7,13165],[90.7,13250]]",1,0,805.247,808.283,52.8125,2.869,"[{""rating"":83.125,""responseTime"":1.7200000000000273},{""rating"":54.37499999999999,""responseTime"":2.3909999999999627},{""rating"":52.81249999999999,""responseTime"":2.869000000000028}]",space,2.522,,808.283,All the time,100,808.284,,,[],,0,10,10,10,1,audio/Narrative8Situation1.wav,audio/Narrative7Situation1.wav,audio/Narrative6Situation1.wav,audio/Narrative5Situation1.wav,5,2,2,5,,,,,,,,,,,,,,,,,,,,,,,,,,,,,,,,,,,,,,,
,,,,,,63d423b81f5e313b9958723c,2024-02-08_13h42.15.282,group3.1-3.2-social-tom,2023.2.2,Win32,144.092219,65c5074098b851296ff0b7ed,65c54a7447f20f00b2aefe86,,,,,,,,,,,,,,,,,,,,,,,,,,,,,808.284,2,audio/Narrative5Situation2.wav,811.29,,811.29,840.734,"[[58.9,1247],[62.3,1332],[64.3,1415],[64.6,1499],[64.6,1581],[64.6,1665],[64.6,1749],[64.6,1831],[64.6,1914],[64.6,1999],[64.6,2081],[64.6,2164],[64.6,2249],[64.6,2331],[64.6,2415],[64.6,2499],[64.6,2581],[64.6,2665],[64.6,2749],[64.6,2831],[64.6,2915],[64.6,2999],[64.6,3081],[64.6,3164],[64.6,3249],[64.6,3331],[64.6,3415],[64.6,3499],[64.6,3581],[63.9,3665],[60.4,3749],[59.7,3831],[59.7,3915],[58.4,3999],[54.8,4081],[50.6,4165],[49.8,4247],[49.8,4331],[50.3,4415],[50.5,4499],[49.6,4581],[49.6,4664],[49.6,4749],[49.6,4831],[49.6,4914],[49.6,4999],[49.6,5081],[49.6,5165],[49.6,5249],[49.6,5332],[49.6,5415],[49.6,5499],[49.6,5581],[49.6,5665],[49.6,5749],[49.6,5831],[49.6,5915],[49.6,5997],[49.6,6081],[49.6,6164],[49.6,6249],[49.6,6332],[49.6,6414],[49.6,6499],[49.6,6581],[49.6,6665],[49.6,6749],[49.6,6832],[49.6,6915],[49.6,6999],[49.6,7081],[49.6,7164],[49.6,7249],[49.6,7331],[49.6,7415],[49.6,7499],[49.6,7582],[49.6,7665],[49.6,7747],[49.6,7831],[49.6,7915],[49.6,7999],[49.6,8081],[49.6,8164],[49.6,8247],[49.6,8331],[49.6,8415],[49.6,8499],[49.6,8581],[49.6,8665],[49.6,8749],[49.6,8831],[49.6,8914],[49.6,8999],[49.6,9081],[49.6,9165],[49.6,9249],[49.6,9332],[49.6,9414],[49.6,9499],[49.6,9581],[49.6,9664],[49.6,9749],[49.6,9831],[49.6,9914],[49.6,9999],[49.6,10081],[49.6,10165],[49.6,10247],[49.6,10331],[49.6,10414],[49.6,10499],[49.6,10582],[49.6,10665],[49.6,10749],[49.6,10831],[49.6,10915],[49.6,10999],[49.6,11081],[49.6,11164],[49.6,11247],[49.6,11331],[49.6,11415],[49.6,11499],[49.6,11581],[49.6,11665],[49.6,11749],[49.6,11831],[49.6,11914],[49.6,11999],[49.6,12081],[46.8,12165],[45.7,12249],[45.6,12331],[45.5,12414],[45.5,12499],[45.1,12581],[44.8,12665],[44.8,12747],[44.8,12831],[44.8,12915],[44.8,12997],[45.9,13081],[46.8,13165],[47.3,13249],[47.5,13331],[47.5,13414],[47.5,13499],[47.5,13581],[47.5,13664],[47.5,13749],[47.5,13831],[47.5,13914],[47.5,13999],[47.5,14081],[47.5,14164],[47.5,14249],[47.5,14331],[47.5,14414],[47.5,14499],[47.5,14581],[46.7,14665],[46.2,14747],[46.2,14831],[46.2,14914],[46.2,14999],[46.2,15082],[46.2,15165],[46.2,15249],[46.2,15332],[46.2,15415],[46.2,15499],[47.9,15581],[52,15664],[56.6,15749],[60.2,15831],[62.5,15914],[63.4,15999],[65.1,16082],[66.1,16165],[67.4,16249],[68.7,16332],[69.9,16415],[71.2,16499],[71.5,16581],[72.2,16664],[72.3,16749],[72.3,16832],[72.5,16915],[73.1,16999],[73.4,17081],[73.4,17164],[73.4,17247],[73.4,17331],[73.4,17414],[73.4,17497],[73.4,17581],[73.4,17665],[73.4,17749],[73.4,17831],[73.4,17915],[73.4,17999],[73.4,18081],[73.4,18164],[73.4,18249],[73.4,18331],[73.4,18414],[73.4,18499],[73.4,18581],[73.4,18664],[73.4,18749],[73.4,18831],[73.4,18915],[73.4,18997],[73.4,19081],[73.4,19165],[73.4,19249],[73.4,19331],[73.4,19414],[73.4,19499],[73.4,19581],[73.4,19664],[73.4,19749],[73.4,19831],[73.4,19914],[73.4,19999],[73.4,20081],[73.4,20164],[73.4,20249],[73.4,20331],[73.4,20414],[73.4,20500],[73.4,20581],[73.4,20664],[73.4,20749],[73.4,20831],[73.4,20914],[73.4,20999],[74.1,21081],[76.3,21164],[78.6,21249],[78.7,21331],[78.9,21414],[78.9,21499],[79,21581],[79.1,21665],[79.1,21749],[79.3,21831],[79.3,21915],[79.3,21999],[79.3,22081],[79.3,22165],[79.2,22249],[77.4,22331],[76.3,22415],[76.2,22499],[77.1,22581],[80.3,22665],[78.9,22749],[78.9,22831],[78.9,22915],[78.9,22999],[78.9,23081],[78.9,23164],[78.8,23249],[78.4,23331],[78.4,23414],[79,23497],[79.7,23581],[80.1,23665],[81.3,23747],[81.9,23831],[82.2,23915],[82.2,23999],[82.3,24081],[82.3,24165],[82.3,24249],[82.5,24331],[82.5,24414],[82.5,24497],[83.7,24581],[86.6,24664],[87.3,24749],[88.4,24832],[89.1,24914],[90.9,24999],[93.4,25081],[96.6,25165],[97.9,25249],[98.5,25331],[98.6,25415],[98.6,25499],[98.6,25581],[98.6,25664],[99.4,25749],[100,25831],[100,25914],[100,25997],[100,26082],[100,26164],[100,26249],[100,26332],[100,26415],[99.9,26499],[99.9,26581],[99.9,26665],[99.9,26749],[99.9,26831],[99.9,26914],[99.9,26997],[99.9,27081],[99.9,27164],[99.9,27249],[99.8,27331],[99.6,27414],[99.6,27499],[99.6,27581],[99.6,27664],[99.6,27749],[99.3,27831],[99.3,27915],[99.3,27999],[99.3,28081],[99.3,28164],[99.3,28247],[99.3,28331],[99.3,28414],[99.3,28497],[99.3,28581],[99.3,28665],[99.3,28749],[99.3,28831],[99.3,28914],[99.3,28999],[99.3,29081],[99.3,29164],[99.3,29247],[99.3,29331],[99.3,29414]]",1,0,840.734,842.4,99.296875,0.432,"[{""rating"":99.296875,""responseTime"":0.43200000000001637}]",space,1.158,,842.4,Not at all,0,842.403,,,[],,0,11,11,11,1,audio/Narrative8Situation2.wav,audio/Narrative7Situation2.wav,audio/Narrative6Situation2.wav,audio/Narrative5Situation2.wav,3,3,3,3,,,,,,,,,,,,,,,,,,,,,,,,,,,,,,,,,,,,,,,
,,,,,,63d423b81f5e313b9958723c,2024-02-08_13h42.15.282,group3.1-3.2-social-tom,2023.2.2,Win32,144.092219,65c5074098b851296ff0b7ed,65c54a7447f20f00b2aefe86,,,,,,,,,,,,,,,,,,,,,,,,,,,,,842.403,2,audio/Narrative5Situation3.wav,845.407,,845.407,859.303,"[[96.4,82],[96.2,167],[96.2,249],[95.7,332],[94.7,417],[94.4,500],[94.9,582],[96.2,667],[96.9,750],[97.4,832],[97.4,916],[97.7,1000],[97.7,1082],[97.7,1166],[97.8,1250],[98.1,1332],[98.2,1417],[98.5,1500],[99.1,1584],[99.1,1667],[99.1,1750],[99.1,1832],[99.1,1917],[99.1,2000],[99.1,2082],[99.1,2166],[99.1,2250],[99.1,2332],[99.1,2417],[99.1,2499],[99.1,2582],[99.1,2666],[99.1,2750],[99.1,2832],[99.1,2916],[99.1,3000],[99.1,3082],[99.1,3166],[99.1,3250],[99.1,3332],[99.1,3417],[99.1,3500],[99.1,3582],[99.1,3666],[99.1,3750],[99.1,3832],[99.1,3916],[99.1,4000],[99.1,4082],[99.1,4166],[99.1,4250],[99.1,4332],[99.1,4416],[99.1,4500],[99.1,4582],[99.1,4666],[99.1,4750],[99.1,4832],[99.1,4917],[99.1,5000],[99.1,5082],[99.1,5167],[99.1,5250],[99.1,5332],[99.1,5416],[99.1,5500],[99.1,5582],[99.1,5666],[99.1,5750],[99.1,5832],[99.1,5916],[99.1,6000],[99.1,6082],[99.1,6167],[99.1,6250],[99.1,6334],[99.1,6417],[99.1,6500],[99.1,6582],[99.1,6666],[99.1,6750],[99.1,6832],[99.1,6916],[99.1,6999],[99.1,7082],[99.1,7167],[99.1,7250],[99.1,7332],[99.1,7417],[99.1,7500],[99.1,7582],[99.1,7667],[99.1,7750],[99.1,7832],[99.1,7917],[99.1,8000],[99.1,8082],[99.1,8166],[99.1,8250],[98.6,8332],[98.6,8417],[98.6,8500],[98.7,8582],[99.5,8666],[100,8750],[100,8832],[100,8916],[100,9000],[100,9082],[100,9166],[100,9250],[100,9332],[100,9416],[100,9499],[100,9582],[100,9666],[100,9749],[100,9832],[100,9917],[100,10000],[100,10082],[100,10167],[100,10250],[100,10332],[100,10416],[100,10500],[100,10582],[100,10666],[100,10750],[100,10832],[100,10917],[100,11000],[100,11082],[100,11167],[100,11250],[100,11332],[100,11416],[100,11499],[100,11582],[100,11667],[100,11749],[100,11832],[100,11916],[100,11999],[100,12082],[100,12166],[100,12249],[100,12332],[100,12417],[100,12499],[100,12582],[100,12667],[100,12749],[100,12832],[100,12916],[100,12999],[100,13082],[100,13166],[99.8,13249],[99.8,13332],[99.8,13417],[99.8,13500],[99.8,13582],[99.8,13666],[99.8,13750],[99.8,13832]]",1,0,859.303,860.122,99.84375,0.46,"[{""rating"":99.84375,""responseTime"":0.4599999999999227}]",space,0.303,,860.123,Not at all,0,860.124,,,[],,0,12,12,12,1,audio/Narrative8Situation3.wav,audio/Narrative7Situation3.wav,audio/Narrative6Situation3.wav,audio/Narrative5Situation3.wav,4,8,5,3,,,,,,,,,,,,,,,,,,,,,,,,,,,,,,,,,,,,,,,
,,,,,,63d423b81f5e313b9958723c,2024-02-08_13h42.15.282,group3.1-3.2-social-tom,2023.2.2,Win32,144.092219,65c5074098b851296ff0b7ed,65c54a7447f20f00b2aefe86,,,,,,,,,,,,,,,,,,,,,,,,,,,,,860.124,2,audio/Narrative5Situation4.wav,861.129,,861.129,881.505,"[[98.3,84],[98.3,167],[98.3,250],[98.3,334],[98.3,416],[98.3,500],[98.3,583],[98.3,667],[98.3,750],[98.3,833],[98.3,917],[98.3,1000],[98.3,1083],[98.3,1166],[98.9,1249],[99.2,1333],[99.2,1417],[99.1,1500],[98.7,1583],[98.6,1667],[98.6,1750],[98.6,1833],[98.8,1917],[100,2000],[100,2083],[100,2166],[100,2250],[100,2333],[100,2417],[100,2500],[100,2583],[100,2667],[100,2750],[100,2833],[100,2917],[100,3000],[100,3083],[100,3166],[100,3250],[100,3333],[100,3416],[100,3500],[100,3584],[100,3667],[100,3750],[100,3834],[100,3917],[100,4001],[100,4083],[100,4166],[100,4250],[100,4333],[100,4416],[100,4500],[100,4583],[100,4666],[100,4750],[100,4833],[100,4916],[100,5000],[100,5084],[100,5167],[100,5250],[100,5333],[100,5417],[100,5500],[100,5583],[100,5667],[100,5750],[100,5833],[100,5917],[100,5999],[100,6083],[100,6167],[100,6250],[100,6333],[100,6417],[100,6500],[100,6583],[100,6667],[100,6750],[100,6833],[100,6917],[100,7000],[100,7083],[100,7166],[100,7249],[100,7333],[100,7417],[100,7499],[100,7583],[100,7667],[100,7750],[100,7833],[100,7917],[100,8000],[100,8083],[100,8166],[100,8250],[100,8333],[100,8417],[100,8500],[100,8584],[100,8667],[100,8749],[100,8833],[100,8916],[100,9000],[100,9084],[100,9167],[100,9250],[100,9333],[100,9416],[100,9500],[100,9583],[100,9666],[100,9750],[100,9833],[100,9916],[100,10000],[100,10084],[100,10167],[100,10250],[100,10333],[100,10416],[100,10500],[100,10583],[100,10667],[100,10750],[100,10833],[100,10916],[100,11000],[100,11083],[100,11167],[100,11250],[100,11333],[100,11417],[100,11500],[100,11583],[100,11667],[100,11750],[100,11833],[100,11916],[100,11999],[100,12084],[100,12167],[100,12249],[100,12333],[100,12417],[100,12500],[100,12583],[100,12667],[100,12750],[100,12833],[100,12917],[100,13000],[100,13083],[100,13167],[100,13250],[100,13333],[100,13417],[100,13500],[100,13583],[100,13667],[100,13750],[100,13834],[100,13917],[100,14000],[100,14083],[100,14166],[100,14250],[100,14333],[100,14416],[100,14500],[100,14583],[100,14666],[100,14750],[100,14833],[100,14917],[100,15000],[100,15084],[100,15167],[100,15250],[100,15334],[100,15417],[100,15500],[100,15583],[100,15666],[100,15750],[100,15833],[100,15916],[100,16000],[100,16084],[100,16167],[100,16250],[100,16334],[100,16417],[100,16500],[100,16583],[100,16667],[100,16750],[100,16833],[100,16916],[100,17000],[100,17083],[100,17166],[100,17250],[100,17333],[100,17416],[100,17500],[100,17583],[100,17667],[100,17750],[100,17833],[100,17917],[100,18000],[100,18083],[100,18166],[100,18250],[100,18333],[100,18416],[100,18499],[100,18583],[100,18666],[100,18750],[100,18833],[100,18916],[100,19000],[100,19084],[100,19166],[100,19250],[100,19333],[100,19416],[100,19500],[100,19583],[100,19667],[100,19749],[100,19834],[100,19917],[100,20000],[100,20083],[100,20166],[100,20250],[100,20333]]",1,0,881.505,884.366,98.90625,2.376,"[{""rating"":98.90625,""responseTime"":2.3759999999999764}]",space,2.345,,884.366,All the time,100,884.369,,,[],,0,13,13,13,1,audio/Narrative8Situation4.wav,audio/Narrative7Situation4.wav,audio/Narrative6Situation4.wav,audio/Narrative5Situation4.wav,3,3,2,1,,,,,,,,,,,,,,,,,,,,,,,,,,,,,,,,,,,,,,,
,,,,,,63d423b81f5e313b9958723c,2024-02-08_13h42.15.282,group3.1-3.2-social-tom,2023.2.2,Win32,144.092219,65c5074098b851296ff0b7ed,65c54a7447f20f00b2aefe86,,,,,,,,,,,,,,,,,,,,,,,,,,,,,884.369,2,audio/Narrative5Situation5.wav,889.372,,889.372,904.782,"[[99.4,2665],[97.7,2750],[97.3,3000],[94.9,3083],[94.6,3167],[93.1,3250],[88.9,3333],[87.9,3415],[89.5,3500],[93.2,3582],[94.3,3667],[94.9,3750],[97.9,3832],[100,3915],[100,4000],[100,4082],[100,4165],[100,4250],[100,4332],[100,4415],[100,4500],[100,4583],[100,4665],[100,4750],[100,4832],[100,4917],[100,5000],[100,5083],[100,5165],[100,5250],[100,5333],[100,5417],[100,5500],[100,5582],[100,5665],[100,5750],[100,5832],[100,5915],[100,6000],[100,6082],[100,6167],[100,6250],[100,6332],[100,6417],[100,6500],[100,6582],[100,6667],[100,6750],[100,6833],[100,6917],[100,7000],[100,7082],[100,7167],[100,7250],[100,7332],[100,7415],[100,7500],[100,7582],[100,7665],[100,7749],[100,7832],[100,7917],[100,8000],[100,8082],[100,8165],[100,8249],[100,8332],[100,8417],[100,8500],[100,8582],[100,8665],[100,8750],[100,8832],[100,8915],[100,9000],[100,9083],[100,9165],[100,9250],[100,9332],[100,9415],[100,9500],[100,9582],[100,9667],[100,9750],[100,9833],[100,9915],[100,10000],[100,10083],[100,10167],[100,10250],[100,10332],[100,10415],[100,10500],[100,10582],[100,10667],[100,10750],[100,10832],[100,10917],[100,11000],[100,11082],[100,11167],[100,11250],[100,11332],[100,11415],[100,11499],[100,11582],[100,11665],[100,11749],[100,11832],[100,11915],[100,12000],[100,12082],[100,12167],[100,12250],[100,12332],[100,12415],[100,12499],[100,12582],[100,12665],[100,12750],[100,12832],[100,12917],[100,12999],[100,13082],[100,13167],[100,13250],[100,13332],[100,13415],[100,13500],[100,13582],[100,13665],[100,13750],[100,13832],[100,13915],[100,14000],[100,14082],[100,14165],[100,14249],[100,14333],[100,14417],[100,14500],[100,14583],[100,14667],[100,14750],[100,14833],[100,14915],[100,15000],[100,15082],[100,15165],[100,15250],[100,15332]]",1,0,904.782,906.191,86.796875,1.163,"[{""rating"":86.796875,""responseTime"":1.163000000000011}]",space,0.897,,906.191,All the time,100,906.192,,,[],,0,14,14,14,1,audio/Narrative8Situation5.wav,audio/Narrative7Situation5.wav,audio/Narrative6Situation5.wav,audio/Narrative5Situation5.wav,2,5,2,5,,,,,,,,,,,,,,,,,,,,,,,,,,,,,,,,,,,,,,,
,,,,,,63d423b81f5e313b9958723c,2024-02-08_13h42.15.282,group3.1-3.2-social-tom,2023.2.2,Win32,144.092219,65c5074098b851296ff0b7ed,65c54a7447f20f00b2aefe86,,,,,,,,,,,,,,,,,,,,,,,,,,,,,906.193,2,audio/Narrative5Situation6.wav,909.198,,909.198,914.865,"[[79.8,1582],[77.3,1666],[77.7,1750],[78.4,1832],[78.4,1915],[78.4,2000],[78.4,2082],[78.4,2166],[78.4,2250],[78.4,2333],[78.4,2416],[78.4,2500],[78.4,2582],[78.4,2666],[78.4,2750],[78.4,2832],[78.4,2915],[78.4,3000],[78.4,3082],[78.4,3166],[78.4,3250],[78.4,3332],[78.4,3416],[78.4,3500],[78.4,3582],[78.4,3666],[78.4,3750],[78.4,3833],[78.4,3915],[78.4,4000],[78.4,4083],[78.4,4166],[78.4,4250],[78.4,4333],[78.4,4416],[78.4,4500],[78.4,4583],[78.4,4666],[78.4,4750],[78.4,4833],[78.4,4915],[78.4,5000],[78.4,5083],[78.4,5166],[78.4,5250],[78.4,5333],[78.4,5416],[78.4,5500],[78.4,5582],[78.4,5666]]",1,0,914.866,917.053,0.15625,1.719,"[{""rating"":0.15625000000000222,""responseTime"":1.7189999999999372}]",space,1.672,,917.053,Not at all,0,917.055,,,[],,0,15,15,15,1,audio/Narrative8Situation6.wav,audio/Narrative7Situation6.wav,audio/Narrative6Situation6.wav,audio/Narrative5Situation6.wav,2,3,2,3,,,,,,,,,,,,,,,,,,,,,,,,,,,,,,,,,,,,,,,
