exp_question,consent.started,consent.stopped,consentResponse.keys,consentResponse.rt,consentResponse.duration,participantID,date,expName,psychopyVersion,OS,frameRate,STUDY_ID,SESSION_ID,opening1.started,opening1.stopped,keyEndingOpening1.keys,keyEndingOpening1.rt,keyEndingOpening1.duration,volumeAdjust.started,volumeAdjust.stopped,endingAdjust.keys,endingAdjust.rt,endingAdjust.duration,opening2.started,opening2.stopped,keyEndingOpening.keys,keyEndingOpening.rt,keyEndingOpening.duration,mouse.x,mouse.y,mouse.leftButton,mouse.midButton,mouse.rightButton,mouse.time,instructionLoop.thisRepN,instructionLoop.thisTrialN,instructionLoop.thisN,instructionLoop.thisIndex,instructionLoop.ran,readyForAudio.started,readyForAudio.stopped,fixation.started,run,audio_played,fixation.stopped,endPractice.keys,audioPre.started,audioPre.stopped,continuousResponses_audio,continuousSlider.response,continuousSlider.rt,intRating.started,intRating.stopped,intQuestionSlider.response,intQuestionSlider.rt,intQuestionSlider.history,confirmResponse.keys,confirmResponse.rt,confirmResponse.duration,catchQuestion.started,catch_label,catch_value,catchQuestion.stopped,catchQuestionSlider.response,catchQuestionSlider.rt,catchQuestionSlider.history,confirmResponse_2.keys,audioRunLoop.thisRepN,audioRunLoop.thisTrialN,audioRunLoop.thisN,audioRunLoop.thisIndex,audioRunLoop.ran,conditions1_1,conditions2_1,conditions1_2,conditions2_2,dur1_1,dur2_1,dur1_2,dur2_2,endPractice.rt,endPractice.duration,confirmResponse_2.rt,confirmResponse_2.duration,runIntervalBreak.started,runIntervalBreak.stopped,endingBreakKey.keys,endingBreakKey.rt,endingBreakKey.duration,connection.started,connection.stopped,connectionEnding.keys,connectionEnding.rt,connectionEnding.duration,readyForText.started,readyForText.stopped,textPre.started,run_dup,textPre.stopped,continuousResponses_text,textRunLoop.thisRepN,textRunLoop.thisTrialN,textRunLoop.thisN,textRunLoop.thisIndex,textRunLoop.ran,text1_1,text1_2,text2_1,text2_2,runBreakText.started,runBreakText.stopped,endingBreakKey_2.keys,endingBreakKey_2.rt,endingBreakKey_2.duration,ending.started,ending.stopped,endingEnding.keys,endingEnding.rt,endingEnding.duration
tom,0.0003,24.227,y,23.9011,,63d5e3bf4a739d1158b9ce64,2024-05-13_11h38.36.714,group3.1-3.2-social-tom,2023.2.2,MacIntel,121.9512195,65c5074098b851296ff0b7ed,664233bd46ca20fbe61147f8,,,,,,,,,,,,,,,,,,,,,,,,,,,,,,,,,,,,,,,,,,,,,,,,,,,,,,,,,,,,,,,,,,,,,,,,,,,,,,,,,,,,,,,,,,,,,,,,,,,,,,,,,,
,,,,,,63d5e3bf4a739d1158b9ce64,2024-05-13_11h38.36.714,group3.1-3.2-social-tom,2023.2.2,MacIntel,121.9512195,65c5074098b851296ff0b7ed,664233bd46ca20fbe61147f8,24.2271,29.7503,space,5.5035,,,,,,,,,,,,,,,,,,,,,,,,,,,,,,,,,,,,,,,,,,,,,,,,,,,,,,,,,,,,,,,,,,,,,,,,,,,,,,,,,,,,,,,,,,,,,,,,,,,,,,
,,,,,,63d5e3bf4a739d1158b9ce64,2024-05-13_11h38.36.714,group3.1-3.2-social-tom,2023.2.2,MacIntel,121.9512195,65c5074098b851296ff0b7ed,664233bd46ca20fbe61147f8,,,,,,29.7504,38.3249,space,8.257,,,,,,,,,,,,,,,,,,,,,,,,,,,,,,,,,,,,,,,,,,,,,,,,,,,,,,,,,,,,,,,,,,,,,,,,,,,,,,,,,,,,,,,,,,,,,,,,,
,,,,,,63d5e3bf4a739d1158b9ce64,2024-05-13_11h38.36.714,group3.1-3.2-social-tom,2023.2.2,MacIntel,121.9512195,65c5074098b851296ff0b7ed,664233bd46ca20fbe61147f8,,,,,,,,,,,38.333,46.7169,space,8.3708,,[],[],[],[],[],[],0,0,0,0,1,,,,,,,,,,,,,,,,,,,,,,,,,,,,,,,,,,,,,,,,,,,,,,,,,,,,,,,,,,,,,,,,,,,,,,,,,,,,,,,,
,,,,,,63d5e3bf4a739d1158b9ce64,2024-05-13_11h38.36.714,group3.1-3.2-social-tom,2023.2.2,MacIntel,121.9512195,65c5074098b851296ff0b7ed,664233bd46ca20fbe61147f8,,,,,,,,,,,46.7243,54.7831,space,8.0278,,[],[],[],[],[],[],1,0,1,0,1,,,,,,,,,,,,,,,,,,,,,,,,,,,,,,,,,,,,,,,,,,,,,,,,,,,,,,,,,,,,,,,,,,,,,,,,,,,,,,,,
,,,,,,63d5e3bf4a739d1158b9ce64,2024-05-13_11h38.36.714,group3.1-3.2-social-tom,2023.2.2,MacIntel,121.9512195,65c5074098b851296ff0b7ed,664233bd46ca20fbe61147f8,,,,,,,,,,,54.7907,73.0249,space,18.2135,,[],[],[],[],[],[],2,0,2,0,1,,,,,,,,,,,,,,,,,,,,,,,,,,,,,,,,,,,,,,,,,,,,,,,,,,,,,,,,,,,,,,,,,,,,,,,,,,,,,,,,
,,,,,,63d5e3bf4a739d1158b9ce64,2024-05-13_11h38.36.714,group3.1-3.2-social-tom,2023.2.2,MacIntel,121.9512195,65c5074098b851296ff0b7ed,664233bd46ca20fbe61147f8,,,,,,,,,,,73.0314,183.5835,space,110.5397,,[],[],[],[],[],[],3,0,3,0,1,,,,,,,,,,,,,,,,,,,,,,,,,,,,,,,,,,,,,,,,,,,,,,,,,,,,,,,,,,,,,,,,,,,,,,,,,,,,,,,,
,,,,,,63d5e3bf4a739d1158b9ce64,2024-05-13_11h38.36.714,group3.1-3.2-social-tom,2023.2.2,MacIntel,121.9512195,65c5074098b851296ff0b7ed,664233bd46ca20fbe61147f8,,,,,,,,,,,183.5923,194.4825,space,10.8757,,[],[],[],[],[],[],4,0,4,0,1,,,,,,,,,,,,,,,,,,,,,,,,,,,,,,,,,,,,,,,,,,,,,,,,,,,,,,,,,,,,,,,,,,,,,,,,,,,,,,,,
,,,,,,63d5e3bf4a739d1158b9ce64,2024-05-13_11h38.36.714,group3.1-3.2-social-tom,2023.2.2,MacIntel,121.9512195,65c5074098b851296ff0b7ed,664233bd46ca20fbe61147f8,,,,,,,,,,,,,,,,,,,,,,,,,,,194.4895,197.0695,197.078,1,audio/Narrative13Situation2.wav,199.0839,,199.0842,228.8172,"[[999,1],[999,90],[999,173],[999,256],[999,340],[999,424],[999,507],[999,590],[999,674],[999,757],[999,840],[999,924],[999,1006],[999,1090],[999,1174],[999,1256],[999,1340],[999,1423],[999,1507],[999,1592],[999,1673],[999,1758],[999,1840],[999,1924],[999,2007],[999,2090],[999,2175],[999,2257],[31.5,2341],[27.3,2424],[25.9,2507],[27.1,2590],[33.6,2674],[40.1,2759],[46.8,3174],[51.1,3257],[51.1,3340],[51.1,3425],[54.2,3506],[59.8,3590],[59.9,3674],[59.9,3757],[65.4,3840],[75.4,3927],[75.6,4007],[75.6,4090],[75.6,4175],[75.5,4256],[75.2,4341],[75.1,4424],[75.1,4508],[74.9,4591],[74.9,4674],[74.9,4758],[74.9,4840],[74.9,4924],[74.9,5009],[74.9,5091],[74.9,5174],[74.9,5257],[74.9,5340],[74.9,5425],[74.9,5509],[74.5,5591],[74.2,5675],[74.2,5757],[74.2,5841],[74.2,5924],[74.2,6007],[74.2,6090],[74.2,6174],[73.4,6257],[69.8,6341],[68.4,6424],[68.3,6507],[68.3,6593],[68.3,6674],[68.3,6757],[68.3,6841],[68.3,6925],[68.3,7006],[68.3,7090],[68.3,7173],[68.3,7257],[68.3,7341],[68.3,7424],[80.7,7507],[88.5,7592],[89,7674],[89,7757],[89,7844],[87.3,7923],[78.2,8008],[72,8090],[70.5,8174],[70.5,8256],[70.5,8342],[70.5,8424],[70.5,8507],[70.3,8591],[69.9,8675],[69.8,8757],[69.8,8840],[69.8,8925],[69.8,9007],[69.8,9091],[69.8,9174],[69.8,9257],[69.8,9341],[69.8,9424],[69.8,9508],[69.8,9592],[69.8,9675],[69.8,9757],[69.8,9840],[69.8,9924],[69.8,10008],[69.8,10091],[69.8,10174],[69.8,10256],[69.8,10340],[69.8,10424],[69.8,10507],[69.8,10590],[69.8,10674],[69.8,10756],[69.8,10841],[69.8,10923],[69.8,11009],[69.8,11090],[69.8,11174],[69.8,11257],[69.8,11340],[69.8,11424],[69.8,11506],[69.9,11590],[70.1,11674],[70.2,11757],[70.3,11840],[70.3,11924],[70.3,12007],[70.3,12091],[70.3,12174],[70.3,12258],[70.3,12342],[70.3,12423],[70.3,12507],[70.3,12590],[70.3,12674],[70.3,12758],[70.3,12846],[70.3,12923],[70.3,13008],[70.3,13089],[70.3,13176],[70.3,13257],[70.3,13340],[70.3,13423],[70.3,13507],[70.3,13590],[70.3,13674],[70.3,13757],[70.3,13840],[70.3,13924],[70.3,14007],[70.3,14091],[70.3,14173],[70.3,14260],[70.3,14341],[70.3,14424],[70.5,14507],[70.8,14590],[71.3,14674],[71.8,14760],[72.5,14839],[73.1,14923],[73.2,15007],[73.2,15090],[73.2,15173],[73.2,15257],[81.6,15342],[84.7,15424],[84.8,15507],[84.8,15590],[84.8,15674],[84.8,15758],[84.8,15840],[84.8,15924],[84.8,16008],[84.8,16090],[84.8,16173],[84.8,16257],[84.8,16340],[84.8,16425],[84.8,16507],[84.8,16590],[84.8,16674],[84.8,16758],[84.8,16840],[84.9,16924],[85.1,17007],[85.1,17091],[85.1,17174],[85.1,17257],[85.1,17341],[85.1,17423],[85.1,17507],[85.1,17590],[85.1,17674],[85.1,17757],[85.1,17840],[85.2,17926],[85.2,18007],[85.2,18092],[85.2,18173],[85.2,18256],[85.2,18340],[85.2,18423],[85.2,18507],[85.4,18591],[85.5,18674],[85.5,18757],[85.5,18842],[85.6,18928],[85.7,19009],[85.7,19090],[85.7,19175],[85.7,19257],[85.4,19340],[83.7,19424],[83.7,19508],[83.7,19590],[83.7,19674],[83.7,19759],[83.7,19840],[82.3,19924],[80.7,20006],[80.7,20091],[80.7,20174],[80.7,20257],[80.7,20340],[80.7,20423],[80.7,20507],[80.7,20590],[80.7,20674],[80.7,20757],[80.7,20840],[80.7,20923],[80.7,21007],[80.7,21090],[80.7,21174],[79.2,21257],[78.7,21340],[78.7,21423],[78.7,21508],[79.2,21590],[63.5,21674],[53.8,21756],[53.8,21839],[53.8,21923],[53.8,22008],[53.8,22093],[53.8,22174],[52.9,22257],[52.9,22340],[52.9,22424],[52.9,22507],[53.2,22590],[67.8,22674],[76.5,23008],[97.1,23090],[100,23174],[100,23257],[100,23342],[100,23423],[100,23506],[100,23591],[100,23674],[100,23757],[100,23840],[100,23926],[100,24008],[100,24090],[100,24174],[100,24257],[100,24340],[100,24424],[100,24507],[100,24590],[100,24674],[100,24757],[100,24841],[100,24924],[100,25007],[100,25090],[100,25174],[100,25257],[100,25339],[100,25424],[100,25509],[100,25590],[100,25674],[100,25757],[100,25840],[100,25923],[100,26007],[100,26091],[100,26173],[100,26258],[100,26340],[100,26424],[100,26507],[100,26591],[100,26674],[100,26757],[100,26840],[100,26923],[100,27009],[100,27090],[100,27174],[100,27257],[100,27339],[100,27424],[100,27507],[100,27590],[100,27673],[100,27758],[100,27844],[100,27924],[100,28007],[100,28090],[100,28173],[100,28257],[100,28344],[100,28424],[100,28507],[100,28589],[100,28673],[100,28756],[100,28840],[100,28926],[100,29006],[100,29090],[100,29174],[100,29256],[100,29340],[100,29424],[100,29507],[100,29590],[100,29674]]",1,0,228.8175,252.1849,76.34774667,17.2594,"[{""rating"":55.642361111111114,""responseTime"":11.970799999713904},{""rating"":76.3477466724537,""responseTime"":17.259400000095354}]",space,22.8489,,252.193,Half the time,50,252.1947,,,[],,0,0,0,0,1,audio/Narrative13Situation2.wav,audio/Narrative13Situation2.wav,audio/Narrative13Situation2.wav,audio/Narrative13Situation2.wav,2,2,2,2,,,,,,,,,,,,,,,,,,,,,,,,,,,,,,,,,,,,,,,
,,,,,,63d5e3bf4a739d1158b9ce64,2024-05-13_11h38.36.714,group3.1-3.2-social-tom,2023.2.2,MacIntel,121.9512195,65c5074098b851296ff0b7ed,664233bd46ca20fbe61147f8,,,,,,,,,,,,,,,,,,,,,,,,,,,,,252.1949,1,audio/Narrative7Situation1.wav,254.5928,space,254.5929,310.4675,"[[75.6,1748],[75.7,1832],[75.9,1915],[75.9,1998],[75.9,2082],[75.9,2164],[75.9,2249],[75.9,2332],[75.9,2415],[75.9,2498],[75.9,2581],[75.9,2666],[75.9,2749],[75.9,2833],[75.9,2914],[75.9,2999],[75.9,3081],[75.9,3165],[74.8,3249],[72.8,3332],[72.5,3415],[72.5,3498],[72.5,3582],[71.8,3665],[69.6,3749],[68.4,3831],[66.9,3916],[65.9,3998],[65.7,4081],[65.7,4165],[65.7,4250],[65.7,4332],[65.7,4415],[65.7,4498],[65.9,4582],[66,4665],[66,4748],[66,4832],[66,4915],[66,4999],[66,5082],[66,5165],[66.3,5249],[67,5331],[67.7,5415],[68,5499],[68,5581],[68,5665],[68,5748],[68,5832],[68,5915],[68,5998],[68,6082],[69.7,6166],[73.1,6249],[75.8,6332],[76.9,6415],[77.1,6499],[75.3,6582],[70.5,6666],[67.7,6750],[67.3,6832],[66.8,6916],[64.4,6999],[59.1,7081],[56.8,7165],[56.7,7249],[56.7,7332],[56.7,7415],[53.2,7499],[50.9,7582],[50.9,7665],[50.7,7749],[50.7,7832],[50.7,7916],[50.7,7998],[50.5,8082],[41.7,8166],[37.2,8249],[36.5,8334],[36.5,8414],[36.5,8499],[36.5,8582],[36.5,8664],[36.5,8749],[36.5,8833],[36.5,8914],[36.5,8999],[36.5,9082],[36.5,9165],[36.5,9250],[36.5,9332],[36.5,9415],[36.5,9499],[36.5,9582],[36.5,9666],[36.5,9748],[36.5,9832],[36.5,9915],[36.5,9999],[36.6,10081],[36.9,10167],[37.3,10248],[37.5,10332],[37.5,10415],[37.5,10499],[37.5,10581],[37.5,10665],[37.5,10749],[37.5,10831],[37.5,10915],[37.5,10998],[37.5,11081],[37.5,11166],[37.5,11248],[37.5,11331],[37.5,11416],[37.5,11500],[37.5,11583],[37.5,11665],[37.5,11751],[37.5,11832],[37.5,11916],[37.5,11999],[37.5,12082],[37.5,12165],[37.5,12249],[37.5,12331],[37.5,12415],[37.5,12498],[37.5,12581],[37.5,12666],[37.5,12749],[37.5,12834],[37.5,12914],[37.5,12999],[39.6,13081],[44.7,13165],[46.3,13249],[46.3,13332],[46.3,13415],[46.3,13498],[46.3,13582],[46.3,13665],[46.9,13749],[47.4,13832],[47.8,13915],[48.1,13999],[48.3,14083],[48.5,14165],[48.7,14249],[48.8,14332],[49,14415],[49.1,14498],[49.2,14582],[49.4,14665],[49.4,14749],[49.5,14832],[49.5,14915],[49.6,14999],[49.7,15082],[49.7,15165],[49.8,15249],[50.1,15331],[50.5,16082],[49.8,16165],[49.5,16249],[49.5,16332],[49.4,16414],[49.4,16498],[49.5,16582],[49.6,16665],[49.7,16749],[49.9,16832],[50.2,16915],[50.6,16998],[50.6,17082],[50.6,17165],[50.6,17249],[53.4,17332],[58.9,17415],[62.4,17499],[65.4,17582],[66.1,17665],[66.1,17748],[66.1,17832],[66.1,17914],[66.4,18000],[66.7,18082],[66.7,18165],[66.7,18248],[66.8,18332],[66.8,18416],[66.8,18498],[66.8,18581],[66.8,18665],[66.8,18748],[66.8,18832],[66.8,18916],[66.8,18999],[66.8,19081],[66.8,19165],[66.8,19248],[67,19332],[67,19416],[67.1,19499],[67.1,19582],[67.2,19665],[67.2,19749],[67.2,19831],[67.3,19916],[71.9,19998],[73.7,20082],[73.9,20166],[73.2,20249],[72.7,20332],[72.6,20414],[72.6,20500],[72.6,20582],[72.6,20664],[72.6,20748],[72.6,20833],[72.6,20915],[72.6,20999],[72.6,21082],[72.6,21165],[72.6,21250],[72.6,21332],[72.6,21415],[72.6,21499],[72.6,21582],[72.6,21665],[72.6,21748],[72.6,21831],[72.6,21915],[72.6,21999],[72.6,22083],[72.6,22165],[72.6,22249],[72.6,22332],[72.6,22415],[72.6,22498],[72.6,22582],[72.6,22665],[72.6,22749],[72.6,22832],[72.6,22915],[72.6,22998],[72.6,23082],[72.6,23165],[72.6,23248],[72.6,23332],[72.6,23415],[72.6,23499],[72.6,23581],[72.6,23665],[72.6,23749],[72.6,23832],[72.6,23916],[72.6,23999],[72.6,24082],[72.6,24165],[72.6,24249],[72.6,24332],[72.6,24415],[72.6,24498],[72.6,24582],[72.6,24664],[72.6,24748],[72.6,24832],[72.6,24914],[72.6,24998],[72.6,25082],[72.6,25165],[72.6,25249],[72.6,25332],[72.6,25415],[72.6,25499],[72.6,25582],[72.6,25666],[72.6,25748],[72.6,25832],[72.6,25915],[72.6,25999],[72.6,26082],[72.6,26165],[72.6,26248],[72.6,26332],[72.6,26415],[72.6,26499],[72.6,26582],[72.6,26665],[72.6,26749],[72.6,26831],[72.6,26916],[72.6,26999],[72.6,27082],[72.6,27166],[72.6,27249],[72.6,27331],[72.6,27414],[72.6,27498],[72.6,27582],[72.6,27665],[72.6,27749],[72.6,27833],[72.6,27915],[72.6,27998],[72.6,28083],[72.6,28165],[72.6,28249],[72.6,28331],[72.6,28415],[72.6,28499],[72.6,28581],[72.6,28666],[72.6,28749],[72.6,28832],[72.6,28915],[72.6,28999],[72.6,29083],[72.6,29165],[72.6,29248],[72.6,29331],[72.6,29416],[72.6,29500],[72.6,29584],[72.6,29664],[72.6,29748],[72.6,29832],[72.6,29914],[72.6,29998],[72.6,30082],[72.6,30167],[72.6,30249],[72.6,30332],[72.6,30414],[72.6,30499],[72.6,30582],[72.6,30666],[72.6,30749],[72.6,30832],[72.6,30915],[72.6,30999],[72.6,31083],[72.6,31166],[72.6,31249],[72.6,31332],[72.6,31416],[72.6,31500],[72.6,31582],[72.6,31665],[72.6,31748],[72.6,31833],[72.6,31916],[72.6,32000],[72.6,32082],[72.6,32165],[72.6,32249],[72.6,32332],[72.6,32416],[72.6,32498],[72.6,32582],[72.6,32665],[72.6,32749],[72.6,32832],[72.6,32920],[72.6,32999],[72.6,33082],[72.6,33166],[72.6,33249],[72.6,33331],[72.6,33415],[72.6,33500],[72.6,33582],[72.6,33664],[72.6,33749],[72.6,33833],[72.6,33917],[72.6,33998],[72.6,34082],[72.6,34165],[72.6,34249],[72.6,34332],[72.6,34416],[72.6,34498],[72.6,34581],[72.6,34664],[72.6,34748],[72.6,34832],[72.6,34915],[72.6,34998],[72.6,35082],[72.6,35165],[72.6,35249],[72.6,35334],[72.6,35415],[72.6,35499],[72.6,35582],[72.6,35665],[72.6,35749],[72.6,35832],[72.6,35915],[72.6,35999],[72.6,36081],[72.6,36164],[72.6,36249],[72.6,36332],[72.6,36419],[72.6,36499],[72.6,36581],[72.6,36665],[72.6,36749],[72.6,36831],[72.6,36915],[72.6,36999],[72.6,37082],[72.6,37165],[72.6,37250],[72.6,37332],[72.6,37415],[72.6,37500],[72.6,37581],[72.6,37664],[72.6,37748],[72.6,37832],[72.6,37916],[72.6,37998],[72.6,38083],[72.6,38165],[72.6,38250],[72.6,38333],[72.6,38416],[72.6,38498],[72.6,38583],[72.6,38665],[73.7,38749],[76.1,38833],[76.9,38917],[77.1,38999],[77.3,39082],[77.5,39166],[77.8,39249],[77.9,39334],[77.9,39415],[77.9,39500],[77.9,39582],[77.9,39665],[77.9,39749],[77.9,39833],[77.9,39917],[77.9,39998],[77.9,40083],[77.9,40165],[77.9,40249],[78.7,40332],[80.7,40416],[81.9,40498],[82.6,40582],[83,40666],[83.1,40748],[83.2,40831],[83.2,40915],[83.2,40999],[83.2,41082],[83.2,41165],[83.2,41249],[83.2,41332],[83.2,41415],[83.2,41499],[83.2,41586],[83.2,41666],[83.2,41749],[83.2,41832],[83.2,41915],[83.2,41999],[83.2,42083],[83.2,42165],[83.2,42249],[83.2,42332],[83.2,42415],[83.2,42499],[83.2,42583],[83.2,42666],[83.2,42749],[83.2,42834],[83.2,42916],[83.2,42999],[83.2,43082],[83.2,43165],[83.2,43248],[83.2,43332],[83.2,43415],[83.2,43499],[83.2,43582],[83.2,43665],[83.2,43749],[83.2,43832],[83.2,43916],[83.2,43998],[83.2,44082],[83.2,44165],[83.2,44250],[83.2,44332],[83.2,44417],[83.2,44499],[83.2,44583],[83.2,44665],[83.2,44750],[83.2,44832],[83.2,44915],[83.2,44999],[83.2,45082],[83.2,45166],[83.2,45249],[83.2,45331],[83.2,45416],[83.2,45502],[83.2,45582],[83.2,45665],[83.2,45748],[83.2,45832],[83.2,45914],[83.3,46000],[83.3,46082],[83.3,46166],[83.3,46249],[83.3,46332],[83.3,46415],[83.3,46499],[83.3,46582],[83.3,46666],[83.3,46749],[83.3,46832],[83.3,46915],[83.3,46999],[83.3,47081],[83.3,47165],[83.3,47249],[83.3,47332],[83.3,47415],[83.3,47500],[83.3,47582],[83.3,47664],[83.3,47749],[83.3,47831],[83.3,47915],[83.3,48002],[83.3,48082],[83.3,48166],[83.3,48249],[83.3,48332],[83.3,48415],[83.3,48499],[83.3,48582],[83.3,48665],[83.3,48749],[83.3,48833],[83.3,48915],[83.3,48999],[83.3,49082],[83.3,49166],[83.3,49249],[83.3,49332],[83.3,49415],[83.3,49499],[83.3,49582],[83.3,49665],[83.3,49748],[83.3,49832],[83.3,49914],[83.3,49998],[83.3,50083],[83.3,50166],[83.3,50249],[83.3,50332],[83.3,50416],[83.3,50499],[83.3,50583],[83.3,50666],[83.3,50749],[83.3,50832],[83.3,50915],[83.3,50999],[83.3,51082],[83.3,51165],[83.3,51251],[83.3,51332],[83.3,51417],[83.3,51499],[83.3,51582],[83.3,51666],[83.3,51749],[83.3,51832],[83.3,51915],[83.3,51999],[83.3,52082],[83.3,52165],[83.3,52249],[83.3,52332],[83.3,52416],[83.3,52499],[83.3,52582],[83.3,52665],[83.3,52751],[83.3,52833],[83.3,52915],[83.3,53007],[83.3,53091],[83.3,53173],[83.3,53258],[83.3,53339],[83.3,53424],[83.3,53507],[83.3,53590],[83.3,53674],[83.3,53756],[83.3,53839],[83.3,53924],[83.3,54006],[83.3,54089],[83.3,54173],[83.3,54257],[80.6,54341],[69.7,54590],[67.5,54674],[65.4,54757],[64.1,54841],[64.1,54924],[64.1,55006],[64.1,55090],[64.1,55175],[64.1,55257],[64.1,55340],[64.2,55425],[64.2,55506],[64.2,55592],[64.2,55674],[64.2,55757],[64.2,55841]]",1,0,310.4677,314.9008,99.02931496,3.9268,"[{""rating"":99.02931495949075,""responseTime"":3.9267999997138645}]",space,3.9088,,314.9009,Not at all,0,314.9073,,,[],,0,1,1,1,1,audio/Narrative7Situation1.wav,audio/Narrative8Situation1.wav,audio/Narrative5Situation1.wav,audio/Narrative6Situation1.wav,2,5,5,2,2.3858,,,,,,,,,,,,,,,,,,,,,,,,,,,,,,,,,,,,,,
,,,,,,63d5e3bf4a739d1158b9ce64,2024-05-13_11h38.36.714,group3.1-3.2-social-tom,2023.2.2,MacIntel,121.9512195,65c5074098b851296ff0b7ed,664233bd46ca20fbe61147f8,,,,,,,,,,,,,,,,,,,,,,,,,,,,,314.9077,1,audio/Narrative7Situation2.wav,317.908,,317.908,325.3681,"[[86.6,84],[86.6,167],[86.6,250],[86.6,333],[86.6,416],[86.6,500],[86.6,584],[86.6,668],[86.6,752],[86.6,835],[86.6,918],[86.6,1000],[86.6,1083],[81,1167],[73.1,1250],[71.7,1333],[71.7,1417],[71.7,1500],[71.7,1583],[67.5,1668],[63.4,1751],[62.7,1835],[62.7,1917],[62.7,2000],[62.7,2084],[62.1,2167],[61.4,2250],[61.4,2334],[61.5,2417],[62.1,2499],[62.1,2584],[62.1,2666],[62.1,2751],[62.1,2834],[62.1,2917],[62.1,3000],[62.1,3084],[62.1,3167],[62.1,3250],[62.1,3334],[62.1,3417],[62.1,3501],[62.1,3584],[62.1,3666],[62.1,3750],[62.1,3833],[62.1,3917],[62.1,4001],[62.1,4084],[62.1,4167],[62.1,4250],[62.1,4334],[65.7,4417],[72.8,4499],[75,4584],[75,4667],[75,4750],[75,4833],[76.5,4917],[79.4,5001],[80.6,5084],[81,5167],[81.1,5250],[81,5333],[81,5419],[81,5500],[81,5585],[82.3,5667],[86,5750],[86.8,5834],[86.8,5917],[86.8,6001],[86.8,6084],[88.2,6167],[89,6249],[89.1,6333],[89.1,6417],[89.1,6500],[93.6,6585],[96,6667],[96,6750],[96,6834],[96,6917],[96,7002],[96.5,7083],[97.7,7168],[97.9,7250],[98,7334],[99.4,7418]]",1,0,325.3683,345.2422,98.88644748,0.8917,"[{""rating"":98.88644748263889,""responseTime"":0.8916999998092479}]",space,19.3592,,345.2422,All the time,100,345.2494,,,[],,0,2,2,2,1,audio/Narrative7Situation2.wav,audio/Narrative8Situation2.wav,audio/Narrative5Situation2.wav,audio/Narrative6Situation2.wav,3,3,3,3,,,,,,,,,,,,,,,,,,,,,,,,,,,,,,,,,,,,,,,
,,,,,,63d5e3bf4a739d1158b9ce64,2024-05-13_11h38.36.714,group3.1-3.2-social-tom,2023.2.2,MacIntel,121.9512195,65c5074098b851296ff0b7ed,664233bd46ca20fbe61147f8,,,,,,,,,,,,,,,,,,,,,,,,,,,,,345.2496,1,audio/Narrative7Situation3.wav,353.2506,,353.2506,362.4838,"[[999,6],[999,83],[999,167],[999,249],[999,333],[999,416],[999,499],[999,583],[999,668],[999,751],[999,833],[999,916],[999,1001],[999,1083],[999,1166],[999,1250],[999,1334],[999,1416],[999,1501],[999,1584],[999,1666],[999,1750],[999,1833],[999,1917],[999,2000],[999,2086],[999,2167],[999,2249],[999,2333],[999,2418],[999,2500],[999,2583],[999,2668],[999,2750],[999,2833],[999,2916],[52.3,3000],[51.3,3083],[51.1,3166],[51.1,3249],[51.1,3336],[51.1,3416],[51.1,3502],[51.1,3583],[51.1,3666],[51.1,3749],[51.1,3833],[51.1,3915],[51.1,3999],[51.1,4084],[51.1,4166],[51.1,4249],[51.1,4333],[51.1,4416],[54.4,4500],[60.4,4583],[61.7,4666],[61.7,4752],[61.7,4833],[61.7,4915],[61.7,4999],[66.8,5083],[68.7,5165],[68.8,5250],[68.8,5333],[68.8,5416],[68.8,5499],[70.2,5582],[71.2,5666],[71.4,5749],[71.5,5832],[71.5,5916],[71.6,6000],[74,6083],[77.1,6167],[77.4,6251],[77.4,6332],[77.4,6416],[77.5,6500],[83.9,6583],[88,6667],[88.7,6751],[88.7,6834],[88.7,6916],[88.7,6999],[88.7,7083],[88.7,7166],[89.5,7251],[91.4,7333],[93,7418],[93,7500],[93,7583],[93,7667],[95.1,7750],[97.2,7833],[98.4,7916],[98.7,7999],[98.7,8085],[98.7,8166],[98.7,8249],[98.7,8333],[98.7,8417],[98.7,8502],[98.7,8583],[98.7,8666],[98.7,8750],[98.7,8834],[98.7,8916],[98.7,9000],[98.7,9083],[99.5,9166]]",1,0,362.4839,365.5257,94.41008391,1.7966,"[{""rating"":94.41008391203704,""responseTime"":1.796599999904629}]",space,2.5217,,365.5257,All the time,100,365.5264,,,[],,0,3,3,3,1,audio/Narrative7Situation3.wav,audio/Narrative8Situation3.wav,audio/Narrative5Situation3.wav,audio/Narrative6Situation3.wav,8,4,3,5,,,,,,,,,,,,,,,,,,,,,,,,,,,,,,,,,,,,,,,
,,,,,,63d5e3bf4a739d1158b9ce64,2024-05-13_11h38.36.714,group3.1-3.2-social-tom,2023.2.2,MacIntel,121.9512195,65c5074098b851296ff0b7ed,664233bd46ca20fbe61147f8,,,,,,,,,,,,,,,,,,,,,,,,,,,,,365.5265,1,audio/Narrative7Situation4.wav,368.534,,368.534,380.2427,"[[999,0],[999,83],[999,166],[999,248],[999,333],[999,415],[999,500],[999,583],[999,666],[999,749],[999,833],[999,916],[999,999],[999,1084],[999,1166],[999,1250],[999,1333],[999,1416],[999,1499],[999,1583],[999,1665],[999,1749],[999,1833],[999,1915],[999,2000],[999,2084],[60.3,2166],[55.8,2250],[54.9,2333],[55.8,2416],[55.8,2500],[55.8,2582],[55.8,2668],[53.1,2749],[50.2,2834],[49.5,2916],[49.3,3000],[49.3,3082],[49.3,3169],[49.3,3251],[49.3,3333],[49.3,3416],[49.6,3500],[49.8,3582],[49.9,3667],[50,3751],[50,3832],[50,3917],[50,3999],[50,4083],[50,4165],[50,4249],[50,4332],[50,4416],[50,4499],[50,4583],[50,4666],[50,4750],[50,4833],[50.1,4916],[50.2,5000],[50.3,5083],[50.4,5166],[50.5,5251],[50.5,5333],[50.5,5416],[50.5,5501],[50.5,5582],[50.5,5669],[50.5,5751],[50.5,5833],[50.5,5915],[50.5,6000],[50.5,6083],[50.5,6169],[50.5,6249],[50.5,6333],[50.5,6416],[50.5,6499],[50.5,6583],[50.5,6667],[50.5,6749],[50.5,6833],[50.5,6916],[50.5,6999],[50.5,7084],[50.5,7166],[50.5,7249],[50.5,7334],[50.5,7416],[50.5,7500],[50.5,7582],[50.5,7667],[50.5,7749],[50.5,7833],[50.5,7917],[50.5,7999],[50.5,8083],[50.5,8167],[50.5,8250],[50.5,8333],[50.5,8416],[50.5,8500],[50.5,8583],[50.5,8666],[50.5,8750],[50.5,8834],[50.5,8918],[50.5,8999],[50.5,9083],[50.5,9166],[50.5,9251],[50.5,9334],[50.5,9416],[50.5,9500],[50.5,9583],[50.5,9666],[50.5,9748],[50.5,9833],[50.5,9916],[50.5,9999],[50.5,10083],[50.5,10168],[50.5,10250],[50.5,10333],[50.5,10416],[50.5,10499],[50.5,10583],[50.5,10666],[50.5,10749],[50.5,10832],[50.5,10917],[50.5,11000],[50.5,11083],[50.5,11166],[50.5,11251],[50.5,11334],[50.5,11419],[50.5,11498],[50.5,11583],[50.5,11666]]",1,0,380.243,387.5007,77.39257813,6.8468,"[{""rating"":77.392578125,""responseTime"":6.84679999971388}]",space,6.7445,,387.5007,Half the time,50,387.5029,,,[],,0,4,4,4,1,audio/Narrative7Situation4.wav,audio/Narrative8Situation4.wav,audio/Narrative5Situation4.wav,audio/Narrative6Situation4.wav,3,3,1,2,,,,,,,,,,,,,,,,,,,,,,,,,,,,,,,,,,,,,,,
,,,,,,63d5e3bf4a739d1158b9ce64,2024-05-13_11h38.36.714,group3.1-3.2-social-tom,2023.2.2,MacIntel,121.9512195,65c5074098b851296ff0b7ed,664233bd46ca20fbe61147f8,,,,,,,,,,,,,,,,,,,,,,,,,,,,,387.503,1,audio/Narrative7Situation5.wav,392.5112,,392.5114,400.9846,"[[999,8],[999,90],[999,171],[999,255],[999,338],[999,423],[999,505],[999,590],[999,673],[999,754],[999,839],[999,923],[999,1006],[999,1089],[999,1171],[999,1256],[999,1338],[999,1421],[999,1507],[999,1589],[999,1672],[999,1755],[999,1839],[999,1922],[999,2005],[999,2089],[999,2171],[999,2257],[999,2338],[999,2421],[999,2505],[999,2589],[999,2672],[999,2756],[999,2838],[999,2922],[999,3005],[999,3089],[999,3173],[999,3255],[999,3338],[999,3423],[999,3506],[999,3589],[999,3672],[999,3756],[999,3839],[999,3921],[999,4004],[999,4089],[999,4173],[999,4256],[999,4339],[999,4422],[999,4507],[999,4589],[999,4672],[999,4755],[999,4839],[999,4922],[999,5006],[999,5089],[999,5172],[999,5255],[999,5339],[999,5422],[999,5506],[999,5588],[999,5672],[999,5756],[999,5839],[999,5923],[999,6005],[999,6090],[999,6172],[999,6254],[999,6339],[999,6422],[999,6505],[999,6589],[999,6672],[999,6756],[999,6839],[999,6922],[999,7006],[999,7088],[999,7172],[999,7255],[999,7340],[999,7422],[999,7505],[999,7589],[999,7672],[999,7756],[999,7839],[999,7922],[999,8005],[999,8088],[999,8172],[999,8255],[999,8339],[999,8422]]",1,0,400.9849,478.8175,81.58863209,9.5097,"[{""rating"":81.58863208912037,""responseTime"":9.5096999998093}]",space,77.3146,,478.8175,Half the time,50,478.8244,,,[],,0,5,5,5,1,audio/Narrative7Situation5.wav,audio/Narrative8Situation5.wav,audio/Narrative5Situation5.wav,audio/Narrative6Situation5.wav,5,2,5,2,,,,,,,,,,,,,,,,,,,,,,,,,,,,,,,,,,,,,,,
,,,,,,63d5e3bf4a739d1158b9ce64,2024-05-13_11h38.36.714,group3.1-3.2-social-tom,2023.2.2,MacIntel,121.9512195,65c5074098b851296ff0b7ed,664233bd46ca20fbe61147f8,,,,,,,,,,,,,,,,,,,,,,,,,,,,,478.8246,1,audio/Narrative7Situation6.wav,481.8273,,481.8278,491.7845,"[[999,0],[999,81],[999,165],[999,247],[999,330],[999,418],[999,498],[999,580],[999,664],[999,748],[999,831],[999,913],[999,997],[999,1080],[999,1164],[999,1247],[999,1331],[999,1414],[999,1497],[999,1581],[999,1665],[999,1747],[999,1832],[999,1915],[999,1997],[999,2082],[999,2165],[999,2247],[999,2331],[999,2414],[999,2498],[999,2582],[999,2666],[999,2751],[999,2831],[999,2913],[999,2998],[999,3081],[999,3164],[999,3248],[999,3331],[999,3414],[999,3498],[999,3581],[999,3663],[999,3747],[999,3830],[999,3914],[999,3999],[999,4080],[999,4164],[999,4249],[999,4331],[999,4413],[999,4497],[999,4581],[999,4664],[999,4748],[999,4831],[999,4914],[999,4998],[999,5081],[999,5164],[999,5248],[999,5330],[999,5416],[999,5497],[999,5581],[999,5665],[999,5749],[999,5830],[999,5915],[999,5998],[999,6081],[999,6165],[999,6248],[999,6331],[999,6414],[999,6498],[999,6581],[999,6665],[999,6748],[999,6831],[999,6914],[999,6999],[999,7082],[999,7165],[999,7248],[999,7331],[999,7414],[999,7498],[999,7581],[999,7664],[999,7748],[999,7831],[999,7913],[999,7998],[999,8083],[999,8164],[999,8248],[999,8331],[999,8415],[999,8497],[999,8581],[999,8664],[999,8747],[999,8831],[999,8914],[999,8998],[999,9081],[999,9164],[999,9250],[999,9331],[999,9415],[999,9499],[999,9581],[999,9665],[999,9748],[999,9831],[999,9915]]",1,0,491.7849,501.6096,94.54843027,3.1055,"[{""rating"":94.5484302662037,""responseTime"":3.1055000000000064}]",space,9.2965,,501.6096,Not at all,0,510.0681,0,6.5912,"[{""rating"":0.694896556712965,""responseTime"":3.192700000286095},{""rating"":0,""responseTime"":6.591200000286108}]",space,0,6,6,6,1,audio/Narrative7Situation6.wav,audio/Narrative8Situation6.wav,audio/Narrative5Situation6.wav,audio/Narrative6Situation6.wav,3,2,3,2,,,7.9358,,,,,,,,,,,,,,,,,,,,,,,,,,,,,,,,,,,,
,,,,,,63d5e3bf4a739d1158b9ce64,2024-05-13_11h38.36.714,group3.1-3.2-social-tom,2023.2.2,MacIntel,121.9512195,65c5074098b851296ff0b7ed,664233bd46ca20fbe61147f8,,,,,,,,,,,,,,,,,,,,,,,,,,,,,510.0684,1,audio/Narrative7Situation7.wav,515.0691,,515.0692,532.2288,"[[77.3,2590],[84.1,2673],[83.8,2756],[83.8,2839],[83.8,2923],[86.8,3005],[92.7,3090],[93.2,3173],[93.1,3256],[93.1,3340],[93.1,3423],[93.3,3507],[94.1,3591],[94.4,3672],[94.6,3757],[94.9,3840],[95.7,3923],[96.7,4005],[97.4,4089],[97.7,4172],[97.8,4255],[97.9,4339],[98.1,4423],[98.2,4505],[98.3,4590],[98.4,4672],[98.6,4755],[98.9,4839],[99.4,4923],[99.4,5007],[99.4,5090],[99.4,5174],[99.4,5256],[99.4,5340],[99.4,5423],[99.4,5506],[99.6,5590],[100,5674],[100,5756],[100,5840],[100,5923],[100,6006],[100,6090],[100,6173],[100,6256],[100,6339],[100,6423],[100,6506],[100,6590],[100,6673],[100,6756],[100,6840],[100,6923],[100,7006],[100,7089],[100,7173],[100,7255],[100,7339],[100,7423],[100,7506],[100,7590],[100,7673],[100,7756],[100,7840],[100,7922],[100,8006],[100,8090],[100,8173],[100,8256],[100,8339],[100,8423],[100,8505],[100,8592],[100,8673],[100,8755],[100,8840],[100,8923],[100,9006],[100,9090],[100,9173],[100,9255],[100,9340],[100,9422],[100,9506],[100,9590],[100,9674],[100,9756],[100,9839],[100,9923],[100,10005],[100,10090],[100,10172],[100,10258],[100,10340],[100,10423],[100,10506],[100,10589],[100,10673],[100,10756],[100,10840],[100,10923],[100,11006],[100,11090],[100,11173],[100,11256],[100,11340],[100,11423],[100,11506],[100,11589],[100,11673],[100,11757],[100,11840],[100,11923],[100,12005],[100,12089],[100,12172],[100,12257],[100,12341],[100,12423],[100,12508],[100,12590],[100,12673],[100,12756],[100,12839],[100,12923],[100,13005],[100,13089],[100,13173],[100,13256],[100,13340],[100,13423],[100,13506],[100,13589],[100,13673],[100,13756],[100,13839],[100,13923],[100,14006],[100,14090],[100,14172],[100,14255],[100,14340],[100,14423],[100,14506],[100,14590],[100,14673],[100,14755],[100,14840],[100,14922],[100,15007],[100,15089],[100,15173],[100,15257],[100,15339],[100,15423],[100,15507],[100,15590],[100,15673],[100,15756],[100,15839],[100,15923],[100,16006],[100,16090],[100,16172],[100,16257],[100,16339],[100,16425],[100,16506],[100,16590],[100,16673],[100,16756],[100,16840],[100,16923],[100,17007],[100,17089]]",1,0,532.229,534.5425,95.17822266,1.5205,"[{""rating"":95.17822265625,""responseTime"":1.52049999999997}]",space,1.7942,,534.5426,Not at all,0,534.5433,,,[],,0,7,7,7,1,audio/Narrative7Situation7.wav,audio/Narrative8Situation7.wav,audio/Narrative5Situation7.wav,audio/Narrative6Situation7.wav,5,3,4,5,,,,,,,,,,,,,,,,,,,,,,,,,,,,,,,,,,,,,,,
,,,,,,63d5e3bf4a739d1158b9ce64,2024-05-13_11h38.36.714,group3.1-3.2-social-tom,2023.2.2,MacIntel,121.9512195,65c5074098b851296ff0b7ed,664233bd46ca20fbe61147f8,,,,,,,,,,,,,,,,,,,,,,,,,,,,,534.5434,1,audio/Narrative7Situation8.wav,536.5511,,536.5511,546.5595,"[[96.6,1833],[96.6,1916],[96.6,2001],[96.6,2082],[96.6,2166],[96.6,2249],[96.6,2333],[96.6,2416],[96.6,2499],[96.6,2583],[96.6,2666],[96.6,2749],[96.6,2833],[96.6,2916],[96.6,3000],[96.6,3083],[96.6,3166],[96.6,3249],[96.6,3332],[96.6,3416],[96.6,3500],[96.6,3583],[96.6,3666],[96.6,3749],[96.6,3833],[96.6,3916],[96.6,4000],[96.6,4083],[96.6,4167],[96.6,4250],[96.6,4333],[96.6,4415],[96.6,4502],[96.8,4584],[97.9,4666],[98.6,4750],[98.9,4832],[99,4916],[99,4999],[99,5083],[99,5166],[99.4,5250],[100,5333],[100,5417],[100,5499],[100,5583],[100,5666],[100,5749],[100,5833],[100,5917],[100,5998],[100,6083],[100,6166],[100,6249],[100,6332],[100,6416],[100,6499],[100,6582],[100,6665],[100,6749],[100,6833],[100,6915],[100,7000],[100,7083],[100,7166],[100,7249],[100,7333],[100,7416],[100,7499],[100,7583],[100,7666],[100,7749],[100,7832],[100,7916],[100,8000],[100,8083],[100,8165],[100,8250],[100,8333],[100,8417],[100,8499],[100,8583],[100,8666],[100,8750],[100,8833],[100,8916],[100,8998],[100,9082],[100,9166],[100,9249],[100,9333],[100,9416],[100,9500],[100,9582],[100,9667],[100,9749],[100,9833],[100,9916],[100,9999]]",1,0,546.5595,551.7426,95.6701208,3.8755,"[{""rating"":95.67012080439814,""responseTime"":3.875499999999988}]",space,4.6644,,551.7426,Half the time,50,551.744,,,[],,0,8,8,8,1,audio/Narrative7Situation8.wav,audio/Narrative8Situation8.wav,audio/Narrative5Situation8.wav,audio/Narrative6Situation8.wav,2,3,3,5,,,,,,,,,,,,,,,,,,,,,,,,,,,,,,,,,,,,,,,
,,,,,,63d5e3bf4a739d1158b9ce64,2024-05-13_11h38.36.714,group3.1-3.2-social-tom,2023.2.2,MacIntel,121.9512195,65c5074098b851296ff0b7ed,664233bd46ca20fbe61147f8,,,,,,,,,,,,,,,,,,,,,,,,,,,,,551.7441,1,audio/Narrative7Situation9.wav,553.7514,,553.7516,562.3673,"[[98,4416],[98,4500],[98,4582],[98,4664],[98,4749],[98,4833],[98,4916],[98,4998],[97.7,5083],[97.4,5165],[97.4,5249],[97.4,5332],[97.4,5415],[97.4,5500],[97.4,5583],[97.4,5667],[97.4,5749],[97.4,5831],[97.4,5916],[97.4,5998],[97.4,6082],[97.4,6166],[97.4,6248],[97.4,6332],[97.4,6416],[97.4,6499],[97.4,6582],[97.4,6665],[97.4,6749],[97.4,6832],[97.4,6917],[97.4,6999],[97.4,7085],[97.4,7166],[97.4,7251],[97.4,7332],[97.4,7416],[97.9,7499],[98.6,7582],[98.8,7665],[98.9,7749],[98.9,7831],[98.9,7916],[98.9,8002],[98.7,8081],[98.6,8166],[98.6,8249],[98.6,8334],[98.6,8415],[98.6,8499],[98.6,8582]]",1,0,562.3674,596.8022,100,33.2691,"[{""rating"":100,""responseTime"":6.35509999990461},{""rating"":100,""responseTime"":33.26909999990471}]",space,33.9112,,596.8024,Half the time,50,596.8056,,,[],,0,9,9,9,1,audio/Narrative7Situation9.wav,audio/Narrative8Situation9.wav,audio/Narrative5Situation9.wav,audio/Narrative6Situation9.wav,2,3,3,4,,,,,,,,,,,,,,,,,,,,,,,,,,,,,,,,,,,,,,,
,,,,,,63d5e3bf4a739d1158b9ce64,2024-05-13_11h38.36.714,group3.1-3.2-social-tom,2023.2.2,MacIntel,121.9512195,65c5074098b851296ff0b7ed,664233bd46ca20fbe61147f8,,,,,,,,,,,,,,,,,,,,,,,,,,,,,596.8058,1,audio/Narrative8Situation1.wav,601.8095,,601.8095,617.7172,"[[999,6],[73.4,85],[81.4,1583],[82.3,1665],[82.5,1749],[82.5,1832],[82.5,1916],[82.6,2000],[85.4,2084],[86.9,2166],[86.9,2250],[86.9,2333],[86.9,2416],[86.9,2499],[86.9,2583],[86.9,2666],[86.9,2749],[86.9,2833],[86.9,2916],[86.9,3000],[86.9,3083],[86.9,3166],[86.9,3249],[86.9,3333],[86.9,3416],[86.9,3500],[86.9,3583],[86.9,3666],[86.9,3751],[86.9,3833],[86.9,3915],[86.9,4000],[86.9,4083],[86.9,4166],[86.9,4249],[86.9,4333],[86.9,4417],[86.9,4499],[86.9,4583],[86.9,4666],[86.9,4750],[86.9,4833],[86.9,4916],[86.9,4999],[86.9,5082],[86.9,5166],[86.9,5249],[86.9,5335],[86.9,5417],[86.9,5499],[86.9,5583],[88.1,5668],[95.4,5750],[99.1,5834],[99.8,5918],[99.8,6000],[99.8,6083],[99.8,6166],[99.8,6250],[99.8,6333],[99.8,6419],[99.8,6499],[99.8,6583],[99.8,6668],[99.8,6749],[99.8,6833],[99.8,6920],[99.8,7000],[99.8,7082],[99.8,7166],[99.8,7249],[99.8,7338],[99.8,7416],[99.8,7500],[99.8,7583],[99.8,7666],[99.8,7749],[99.8,7832],[99.8,7918],[99.8,7999],[99.8,8083],[99.8,8168],[99.8,8250],[99.8,8333],[99.8,8417],[99.8,8499],[99.8,8583],[99.8,8666],[99.8,8750],[99.8,8833],[99.8,8916],[99.8,8999],[99.8,9083],[99.8,9165],[99.8,9250],[99.8,9333],[99.8,9416],[99.8,9500],[99.8,9583],[99.8,9666],[99.8,9750],[99.8,9833],[99.8,9916],[99.8,9999],[99.8,10083],[99.8,10166],[99.8,10250],[99.8,10333],[99.8,10416],[99.8,10502],[99.8,10582],[99.8,10667],[99.8,10749],[99.8,10833],[99.8,10915],[99.8,10999],[99.8,11083],[99.8,11166],[99.8,11250],[99.8,11333],[99.8,11416],[99.8,11499],[99.8,11583],[99.8,11666],[99.8,11750],[99.8,11833],[99.8,11918],[99.8,11999],[99.8,12084],[99.8,12167],[99.8,12250],[99.8,12333],[99.8,12417],[99.8,12500],[99.8,12583],[99.8,12666],[99.8,12749],[99.8,12833],[99.8,12915],[99.8,12999],[99.8,13084],[99.8,13167],[99.8,13250],[99.8,13333],[99.8,13416],[99.8,13501],[99.8,13582],[99.8,13665],[99.8,13750],[99.8,13832],[99.8,13917],[99.8,13999],[99.8,14084],[99.8,14166],[99.8,14249],[99.8,14335],[99.8,14418],[99.8,14500],[100,14583],[100,14666]]",1,0,617.7174,624.7587,73.08982567,6.7713,"[{""rating"":90.99301938657408,""responseTime"":3.4361999998093324},{""rating"":73.08982566550925,""responseTime"":6.7712999997139605}]",space,6.5192,,624.7588,Half the time,50,624.7602,,,[],,0,10,10,10,1,audio/Narrative8Situation1.wav,audio/Narrative7Situation1.wav,audio/Narrative6Situation1.wav,audio/Narrative5Situation1.wav,5,2,2,5,,,,,,,,,,,,,,,,,,,,,,,,,,,,,,,,,,,,,,,
,,,,,,63d5e3bf4a739d1158b9ce64,2024-05-13_11h38.36.714,group3.1-3.2-social-tom,2023.2.2,MacIntel,121.9512195,65c5074098b851296ff0b7ed,664233bd46ca20fbe61147f8,,,,,,,,,,,,,,,,,,,,,,,,,,,,,624.7603,1,audio/Narrative8Situation2.wav,627.7688,,627.7689,637.8695,"[[73.9,2175],[74.3,2257],[74.4,2342],[74.4,2423],[74.4,2507],[74.4,2590],[74.4,2673],[74.4,2757],[74.4,2841],[74.4,2923],[74.4,3007],[74.4,3090],[74.4,3174],[74.4,3256],[74.4,3339],[74.4,3425],[74.4,3506],[74.4,3590],[74.4,3673],[74.4,3757],[74.4,3840],[74.4,3923],[74.4,4007],[74.4,4090],[74.4,4173],[74.4,4257],[74.4,4341],[74.4,4424],[74.4,4507],[74.4,4589],[74.4,4672],[74.4,4756],[74.4,4840],[74.4,4923],[74.4,5007],[74.4,5090],[74.4,5173],[74.4,5257],[74.4,5340],[74.4,5424],[74.4,5507],[74.4,5590],[74.4,5674],[74.4,5756],[74.4,5840],[74.4,5923],[74.4,6006],[74.4,6090],[74.4,6174],[74.4,6257],[74.4,6340],[74.4,6423],[74.4,6507],[74.4,6591],[74.4,6673],[74.4,6757],[74.4,6840],[74.4,6924],[74.4,7007],[74.4,7089],[74.4,7173],[74.4,7257],[74.4,7342],[74.4,7423],[74.4,7507],[74.4,7591],[74.4,7674],[74.4,7757],[74.4,7840],[74.4,7923],[74.4,8006],[74.4,8089],[74.4,8173],[74.4,8257],[74.4,8340],[74.4,8424],[74.4,8507],[74.4,8590],[74.4,8674],[74.4,8757],[74.4,8839],[74.4,8923],[74.4,9007],[74.4,9090],[74.4,9173],[74.4,9257],[74.4,9340],[74.4,9423],[74.4,9508],[74.4,9590],[74.4,9673],[74.4,9757],[74.4,9840],[74.4,9924],[74.4,10006],[74.4,10089]]",1,0,637.8697,642.7194,80.92809606,3.6002,"[{""rating"":72.24980107060185,""responseTime"":1.2592000002861141},{""rating"":80.92809606481481,""responseTime"":3.6002000002861223}]",space,4.327,,642.7195,Half the time,50,642.7213,,,[],,0,11,11,11,1,audio/Narrative8Situation2.wav,audio/Narrative7Situation2.wav,audio/Narrative6Situation2.wav,audio/Narrative5Situation2.wav,3,3,3,3,,,,,,,,,,,,,,,,,,,,,,,,,,,,,,,,,,,,,,,
,,,,,,63d5e3bf4a739d1158b9ce64,2024-05-13_11h38.36.714,group3.1-3.2-social-tom,2023.2.2,MacIntel,121.9512195,65c5074098b851296ff0b7ed,664233bd46ca20fbe61147f8,,,,,,,,,,,,,,,,,,,,,,,,,,,,,642.7215,1,audio/Narrative8Situation3.wav,646.7255,,646.7256,669.084,"[[81,2250],[81,2333],[81,2417],[81,2500],[81,2583],[81,2667],[81,2750],[81,2834],[81.2,2917],[81.8,3001],[82.1,3084],[82.3,3168],[82.5,3251],[82.6,3333],[82.7,3417],[82.8,3500],[82.9,3584],[82.9,3667],[83,3749],[83,3834],[83,3918],[83,4000],[83,4082],[83,4166],[83,4250],[83,4334],[83,4417],[83,4501],[83,4583],[83,4667],[83,4750],[83,4833],[83,4917],[83,5001],[83,5083],[83,5167],[82.7,5251],[82.7,5334],[83,5416],[90.2,5502],[93.3,5583],[93.7,5667],[93.7,5750],[93.7,5833],[93.7,5917],[93.7,5999],[93.7,6084],[93.7,6167],[93.8,6249],[94.6,6333],[95,6420],[95.2,6500],[95.2,6583],[95.2,6667],[95.2,6749],[95.2,6833],[95.2,6917],[95.2,7001],[96.2,7083],[96.9,7167],[97.4,7251],[97.7,7334],[98,7417],[98.1,7499],[98.3,7583],[98.4,7669],[98.4,7750],[98.5,7834],[98.9,7916],[99.3,7999],[99.7,8084],[100,8167],[100,8250],[100,8334],[100,8417],[100,8499],[100,8584],[100,8667],[100,8751],[100,8833],[100,8916],[100,9001],[100,9084],[100,9167],[100,9250],[100,9333],[100,9424],[100,9499],[100,9584],[100,9667],[100,9750],[100,9834],[100,9918],[100,10000],[100,10083],[100,10166],[100,10250],[100,10334],[100,10417],[100,10500],[100,10583],[100,10667],[100,10750],[100,10834],[100,10917],[100,11000],[100,11083],[100,11167],[100,11253],[100,11332],[100,11417],[100,11499],[100,11583],[100,11667],[100,11750],[100,11833],[100,11917],[100,12000],[100,12084],[100,12166],[100,12250],[100,12335],[100,12417],[100,12500],[100,12584],[100,12667],[100,12751],[100,12834],[100,12917],[100,13000],[100,13083],[100,13167],[100,13250],[100,13334],[100,13417],[100,13501],[100,13583],[100,13666],[100,13752],[100,13833],[100,13916],[100,14000],[100,14083],[100,14167],[100,14250],[100,14333],[100,14416],[100,14499],[100,14583],[100,14667],[100,14750],[100,14834],[100,14917],[100,15001],[100,15083],[100,15167],[100,15250],[100,15336],[100,15417],[100,15500],[100,15583],[100,15667],[100,15749],[100,15834],[100,15917],[100,16000],[100,16084],[100,16167],[100,16251],[100,16333],[100,16418],[100,16500],[100,16584],[100,16667],[100,16750],[100,16833],[100,16916],[100,16999],[100,17083],[100,17167],[100,17251],[100,17334],[100,17417],[100,17500],[100,17584],[100,17667],[100,17750],[100,17833],[100,17918],[100,18000],[100,18084],[100,18167],[100,18250],[100,18333],[100,18417],[100,18500],[100,18584],[100,18667],[100,18752],[100,18833],[100,18916],[100,19000],[100,19083],[100,19167],[100,19249],[100,19334],[100,19417],[100,19500],[100,19583],[100,19671],[100,19750],[100,19835],[100,19917],[100,20000],[100,20084],[100,20167],[100,20250],[100,20333],[100,20416],[100,20501],[100,20584],[100,20667],[100,20750],[100,20834],[100,20916],[100,21000],[100,21084],[100,21167],[100,21249],[100,21333],[100,21416],[100,21500],[100,21584],[100,21667],[100,21751],[100,21834],[100,21917],[100,21999],[100,22084],[100,22167],[100,22250],[100,22333]]",1,0,669.0843,671.6944,91.13453053,2.1291,"[{""rating"":91.13453052662037,""responseTime"":2.1291000003814133}]",space,2.0947,,671.6945,All the time,100,671.6975,,,[],,0,12,12,12,1,audio/Narrative8Situation3.wav,audio/Narrative7Situation3.wav,audio/Narrative6Situation3.wav,audio/Narrative5Situation3.wav,4,8,5,3,,,,,,,,,,,,,,,,,,,,,,,,,,,,,,,,,,,,,,,
,,,,,,63d5e3bf4a739d1158b9ce64,2024-05-13_11h38.36.714,group3.1-3.2-social-tom,2023.2.2,MacIntel,121.9512195,65c5074098b851296ff0b7ed,664233bd46ca20fbe61147f8,,,,,,,,,,,,,,,,,,,,,,,,,,,,,671.698,1,audio/Narrative8Situation4.wav,674.7013,,674.7013,688.8518,"[[91.7,13166],[92.1,13250],[92.4,13333],[92.5,13416],[92.7,13500],[92.7,13583],[92.7,13666],[92.8,13749],[92.9,13832],[93.2,13915],[93.4,13999],[93.7,14082]]",1,0,688.8519,727.2375,100,11.8058,"[{""rating"":72.91576244212963,""responseTime"":10.285499999999956},{""rating"":100,""responseTime"":11.805800000190743}]",space,37.8615,,727.2375,All the time,100,727.2504,,,[],,0,13,13,13,1,audio/Narrative8Situation4.wav,audio/Narrative7Situation4.wav,audio/Narrative6Situation4.wav,audio/Narrative5Situation4.wav,3,3,2,1,,,,,,,,,,,,,,,,,,,,,,,,,,,,,,,,,,,,,,,
,,,,,,63d5e3bf4a739d1158b9ce64,2024-05-13_11h38.36.714,group3.1-3.2-social-tom,2023.2.2,MacIntel,121.9512195,65c5074098b851296ff0b7ed,664233bd46ca20fbe61147f8,,,,,,,,,,,,,,,,,,,,,,,,,,,,,727.2507,1,audio/Narrative8Situation5.wav,729.2517,,729.2518,737.4763,"[[999,0],[999,83],[999,166],[999,249],[999,332],[999,416],[999,499],[999,582],[999,666],[999,749],[999,832],[999,916],[999,999],[999,1082],[999,1166],[999,1249],[999,1332],[999,1416],[999,1499],[999,1582],[999,1666],[999,1749],[999,1833],[999,1916],[999,1999],[999,2083],[999,2165],[999,2251],[999,2332],[999,2416],[999,2499],[999,2582],[999,2666],[999,2749],[999,2832],[999,2916],[999,2999],[999,3082],[999,3165],[999,3248],[999,3332],[999,3416],[999,3499],[100,3583],[100,3666],[100,3749],[100,3833],[100,3916],[100,3999],[100,4083],[100,4166],[100,4249],[100,4334],[100,4416],[100,4498],[100,4583],[100,4665],[100,4749],[100,4832],[100,4918],[100,4999],[100,5083],[100,5165],[100,5249],[100,5333],[100,5416],[100,5500],[100,5583],[100,5666],[100,5750],[100,5833],[100,5916],[100,6001],[100,6083],[100,6166],[96.1,6250],[95.1,6333],[95.1,6416],[95.1,6499],[95.1,6583],[92.7,6665],[90,6750],[89.6,6832],[90.2,6915],[90.2,6999],[90.2,7083],[90.2,7166],[90.2,7249],[89.2,7333],[87.5,7750],[87.5,7832],[87.5,7916],[87.5,7999],[87.5,8083],[87.5,8166]]",1,0,737.4765,763.3182,92.77117694,25.2937,"[{""rating"":92.7711769386574,""responseTime"":25.293700000286094}]",space,25.3218,,763.3183,Half the time,50,763.3201,,,[],,0,14,14,14,1,audio/Narrative8Situation5.wav,audio/Narrative7Situation5.wav,audio/Narrative6Situation5.wav,audio/Narrative5Situation5.wav,2,5,2,5,,,,,,,,,,,,,,,,,,,,,,,,,,,,,,,,,,,,,,,
,,,,,,63d5e3bf4a739d1158b9ce64,2024-05-13_11h38.36.714,group3.1-3.2-social-tom,2023.2.2,MacIntel,121.9512195,65c5074098b851296ff0b7ed,664233bd46ca20fbe61147f8,,,,,,,,,,,,,,,,,,,,,,,,,,,,,763.3202,1,audio/Narrative8Situation6.wav,765.3295,,765.3296,771.7849,"[[91.9,996],[87.9,1080],[84.4,1163],[79.6,1747],[79.6,1830],[79.6,1914],[79.6,1997],[78.9,2079]]",1,0,771.7849,774.0612,89.56344039,1.4647,"[{""rating"":89.5634403935185,""responseTime"":1.464699999809227}]",space,1.7608,,774.0621,Half the time,50,774.0657,,,[],,0,15,15,15,1,audio/Narrative8Situation6.wav,audio/Narrative7Situation6.wav,audio/Narrative6Situation6.wav,audio/Narrative5Situation6.wav,2,3,2,3,,,,,,,,,,,,,,,,,,,,,,,,,,,,,,,,,,,,,,,
,,,,,,63d5e3bf4a739d1158b9ce64,2024-05-13_11h38.36.714,group3.1-3.2-social-tom,2023.2.2,MacIntel,121.9512195,65c5074098b851296ff0b7ed,664233bd46ca20fbe61147f8,,,,,,,,,,,,,,,,,,,,,,,,,,,,,774.0659,1,audio/Narrative8Situation7.wav,777.0687,,777.0687,789.1448,[],1,0,789.1449,793.1257,78.0255353,3.4459,"[{""rating"":78.02553530092592,""responseTime"":3.4458999996185185}]",space,3.4576,,793.1259,Not at all,0,793.1274,,,[],,0,16,16,16,1,audio/Narrative8Situation7.wav,audio/Narrative7Situation7.wav,audio/Narrative6Situation7.wav,audio/Narrative5Situation7.wav,3,5,5,4,,,,,,,,,,,,,,,,,,,,,,,,,,,,,,,,,,,,,,,
,,,,,,63d5e3bf4a739d1158b9ce64,2024-05-13_11h38.36.714,group3.1-3.2-social-tom,2023.2.2,MacIntel,121.9512195,65c5074098b851296ff0b7ed,664233bd46ca20fbe61147f8,,,,,,,,,,,,,,,,,,,,,,,,,,,,,793.1276,1,audio/Narrative8Situation8.wav,796.1296,,796.1298,808.9689,"[[78,413],[78,496],[78,579],[78,662],[78,749],[78,829],[78,913],[78,1000],[78,1079],[78,1165],[78,1248],[78,1331],[78,1413],[78,1496],[78,1580],[78,1665],[77.9,1746],[77.7,1831],[82,2746],[81.9,2830],[81.9,2913],[82.3,2999],[83.3,3080],[80.1,3164],[63.6,3248],[60.8,3329],[60.8,3413],[60.8,3496],[60.1,3579],[57.4,3663],[55.5,3748],[53.3,3830],[52.6,3912],[52.6,3996],[52.6,4080],[52.6,4165],[52.6,4247],[52.6,4329],[52.6,4413],[52.6,4497],[52.6,4581],[52.5,4663],[52.5,4746],[52.5,4831],[52.5,4913],[52.4,4996],[51.9,5080],[51.6,5163],[51.5,5246],[51.4,5330],[51.3,5413],[51.1,5496],[50.9,5583],[50.9,5663],[50.9,5746],[50.8,5829],[50.7,5913],[50.5,5996],[50.4,6080],[50.3,6163],[50.3,6246],[50.3,6330],[50.3,6412],[50.3,6496],[50.3,6579],[50.3,6663],[50.3,6746],[50.3,6833],[50.3,6914],[50.3,6996],[50.3,7080],[50.3,7162],[50.3,7247],[50.3,7331],[60.8,7413],[94,7496],[99.9,7580],[99.9,7663],[99.9,7747],[99.9,7830],[99.9,7912],[99.9,7996],[99.9,8081],[99.9,8163],[100,8246],[100,8329],[100,8413],[100,8497],[100,8580],[100,8663],[100,8747],[100,8830],[100,8913],[100,8997],[100,9080],[100,9165],[100,9246],[100,9330],[100,9413],[100,9496],[100,9580],[100,9663],[100,9745],[100,9830],[100,9913],[100,9998],[100,10079],[100,10163],[100,10246],[100,10330],[100,10414],[100,10498],[100,10579],[100,10671],[100,10755],[100,10837],[100,10921],[100,11004],[100,11088],[100,11172],[100,11254],[100,11338],[100,11422],[100,11504],[100,11588],[100,11671],[100,11755],[100,11838],[100,11921],[100,12005],[100,12089],[100,12171],[100,12254],[100,12338],[100,12421],[100,12505],[100,12587],[100,12672],[100,12754],[100,12838]]",1,0,808.9691,813.5599,91.69288918,1.9519,"[{""rating"":91.69288917824075,""responseTime"":1.9519000000952929}]",space,4.067,,813.56,Half the time,50,813.5686,,,[],,0,17,17,17,1,audio/Narrative8Situation8.wav,audio/Narrative7Situation8.wav,audio/Narrative6Situation8.wav,audio/Narrative5Situation8.wav,3,2,5,3,,,,,,,,,,,,,,,,,,,,,,,,,,,,,,,,,,,,,,,
,,,,,,63d5e3bf4a739d1158b9ce64,2024-05-13_11h38.36.714,group3.1-3.2-social-tom,2023.2.2,MacIntel,121.9512195,65c5074098b851296ff0b7ed,664233bd46ca20fbe61147f8,,,,,,,,,,,,,,,,,,,,,,,,,,,,,813.5688,1,audio/Narrative8Situation9.wav,816.5775,,816.5776,827.885,"[[999,0],[999,82],[999,165],[999,249],[999,332],[999,415],[999,498],[999,581],[999,665],[999,748],[999,832],[999,915],[999,998],[999,1082],[999,1165],[999,1248],[999,1332],[999,1415],[999,1499],[999,1581],[999,1664],[999,1748],[999,1832],[999,1915],[999,1998],[999,2082],[999,2165],[999,2249],[999,2332],[999,2414],[999,2498],[999,2581],[999,2664],[999,2749],[999,2832],[999,2914],[999,3001],[999,3081],[999,3165],[999,3248],[999,3332],[999,3415],[999,3498],[999,3582],[999,3665],[999,3747],[999,3831],[999,3915],[999,3999],[999,4082],[999,4165],[999,4248],[999,4332],[999,4416],[999,4498],[999,4581],[999,4665],[999,4748],[999,4831],[999,4915],[999,4999],[999,5082],[999,5165],[999,5249],[999,5331],[999,5415],[999,5499],[999,5582],[999,5667],[999,5749],[999,5832],[999,5915],[999,5999],[999,6082],[999,6165],[999,6248],[999,6331],[999,6414],[999,6499],[999,6582],[999,6665],[999,6750],[999,6832],[999,6916],[999,7000],[999,7081],[999,7164],[999,7248],[999,7331],[999,7415],[999,7498],[999,7582],[999,7665],[999,7748],[999,7832],[999,7914],[999,8000],[999,8082],[999,8166],[999,8248],[999,8331],[999,8415],[999,8499],[999,8582],[999,8665],[999,8749],[999,8831],[999,8915],[999,8999],[999,9081],[999,9164],[999,9249],[999,9332],[999,9415],[999,9499],[999,9582],[999,9665],[999,9749],[999,9832],[999,9915],[999,9997],[999,10082],[999,10164],[999,10249],[999,10331],[999,10415],[999,10499],[999,10582],[999,10665],[999,10749],[999,10832],[999,10915],[999,10999],[999,11083],[999,11166],[999,11248]]",1,0,827.8851,831.4934,89.82385706,2.5714,"[{""rating"":89.82385706018519,""responseTime"":2.5713999996186203}]",space,3.0829,,831.4935,Half the time,50,831.4949,,,[],,0,18,18,18,1,audio/Narrative8Situation9.wav,audio/Narrative7Situation9.wav,audio/Narrative6Situation9.wav,audio/Narrative5Situation9.wav,3,2,4,3,,,,,,,,,,,,,,,,,,,,,,,,,,,,,,,,,,,,,,,
,,,,,,63d5e3bf4a739d1158b9ce64,2024-05-13_11h38.36.714,group3.1-3.2-social-tom,2023.2.2,MacIntel,121.9512195,65c5074098b851296ff0b7ed,664233bd46ca20fbe61147f8,,,,,,,,,,,,,,,,,,,,,,,,,,,837.7169,840.2933,840.3047,2,audio/Narrative13Situation2.wav,840.3047,,840.3047,870.0432,"[[95.1,5084],[95.3,5163],[95.3,5246],[95.3,5331],[95.3,5413],[95.3,5496],[95.3,5580],[95.3,5663],[95.3,5747],[95.3,5830],[95.3,5912],[95.3,5996],[95.3,6080],[95.3,6163],[95.3,6247],[95.3,6330],[95.3,6413],[95.3,6496],[95.3,6580],[95.3,6663],[95.3,6746],[95.3,6830],[95.3,6913],[95.3,6996],[95.3,7080],[95.3,7164],[95.3,7247],[95.3,7331],[95.3,7413],[95.3,7496],[95.3,7579],[95.3,7663],[95,7746],[92,7830],[88.7,7914],[86.1,7996],[83.8,8080],[80.8,8163],[97.3,9663],[97.3,9745],[97.3,9829],[97.3,9913],[97.3,9997],[97.3,10080],[97.3,10163],[97.4,10246],[97.4,10330],[97.5,10413],[97.5,10497],[97.5,10581],[97.5,10663],[97.5,10746],[97.5,10830],[97.5,10913],[97.5,10996],[97.5,11080],[97.5,11163],[97.5,11246],[97.5,11330],[97.5,11413],[97.5,11497],[97.5,11580],[97.5,11663],[97.5,11746],[97.5,11830],[97.5,11914],[97.5,11997],[97.5,12081],[97.5,12163],[97.5,12247],[97.6,12330],[97.6,12413],[97.6,12497],[97.6,12580],[97.6,12662],[97.6,12746],[97.6,12830],[97.6,12913],[97.6,12997],[97.6,13080],[97.6,13163],[97.6,13247],[97.4,13330],[96.8,13413],[95.9,13497],[95,13580],[94.8,13663],[94.8,13749],[95.1,13830],[95.7,13913],[95.7,13996],[95.7,14080],[95.7,14163],[95.7,14246],[95.7,14330],[95.8,14414],[95.9,14497],[96,14580],[96,14666],[96.1,14746],[96.1,14830],[96.1,14913],[96.1,14997],[96.1,15080],[96.1,15163],[96.1,15247],[96.1,15330],[96.1,15413],[96.1,15496],[96.1,15580],[96.1,15662],[96.1,15747],[96.1,15830],[96.1,15913],[96.1,15998],[96.1,16079],[96.1,16163],[96.1,16248],[96.1,16330],[96.1,16413],[96.1,16496],[96.1,16580],[96.1,16664],[96.1,16746],[96.1,16831],[96.1,16916],[96.1,16998],[96.1,17079],[96.1,17163],[96.1,17246],[96.2,17330],[96.2,17413],[96.2,17496],[96.2,17580],[96.2,17663],[96.2,17746],[96.2,17829],[96.2,17913],[96.2,17998],[96.2,18080],[96.2,18163],[96.2,18247],[96.2,18330],[96.2,18414],[96.2,18496],[96.2,18581],[96.2,18663],[96.2,18746],[96.2,18831],[96.2,18913],[96.2,18997],[96.2,19079],[96.2,19163],[96.2,19247],[96.2,19330],[96.2,19413],[96.2,19497],[96.2,19580],[96.2,19663],[96.2,19746],[96.2,19830],[96.2,19913],[96.2,19998],[96.2,20080],[96.2,20163],[96.2,20247],[96.2,20330],[96.2,20413],[96.2,20496],[96.2,20580],[96.2,20663],[96.2,20747],[96.2,20830],[96.2,20915],[96.2,20996],[96.2,21080],[96.2,21165],[96.2,21246],[96.2,21331],[96.2,21413],[96.2,21496],[96.2,21580],[96.2,21663],[96.2,21745],[96.2,21829],[96.2,21912],[96.2,21998],[96.2,22079],[96.2,22163],[96.2,22246],[96.2,22331],[96.2,22415],[96.2,22497],[96.2,22582],[96.2,22663],[96.2,22747],[96.1,22830],[96,22913],[95.7,22997],[95.2,23079],[94.7,23166],[94.3,23329],[93.5,23413],[93.5,23497],[93.5,23582],[93.5,23663],[93.5,23747],[93.5,23829],[93.6,23913],[93.6,23997],[93.2,24080],[92.8,24163],[92.7,24246],[92.7,24330],[92.7,24413],[92.8,24495],[92.5,24581],[92.1,24663],[92.1,24747],[92.2,24833],[92.6,24914],[92.7,24998],[92.7,25080],[92.7,25163],[92.7,25246],[92.5,25329],[91.9,25412],[91.9,25499],[91.9,25580],[91.9,25663],[91.9,25747],[91.9,25829],[91.9,25913],[91.9,25996],[91.9,26080],[91.9,26163],[91.9,26247],[91.8,26329],[91.8,26414],[91.6,26499],[91,26580],[90.6,26663],[90,26746],[89.3,26829],[88.8,26913],[88.6,26997],[88.6,27081],[88.6,27165],[88.6,27247],[88.6,27330],[88.6,27415],[88.9,27498],[89.2,27580],[89.3,27663],[89.4,27747],[89.4,27830],[89.4,27913],[89.4,27998],[89.4,28080],[89.4,28163],[89.4,28247],[89.4,28329],[89.4,28415],[89.4,28496],[89.4,28581],[89.4,28664],[89.4,28747],[89.4,28830],[89.4,28913],[89.4,28997],[89.4,29080],[89.4,29163],[89.4,29246],[89.4,29330],[89.4,29413],[89.4,29497],[89.4,29579],[89.4,29664]]",1,0,870.0433,870.0442,,,[],,,,870.0442,Not at all,0,870.045,,,[],,0,0,0,0,1,audio/Narrative13Situation2.wav,audio/Narrative13Situation2.wav,audio/Narrative13Situation2.wav,audio/Narrative13Situation2.wav,2,2,2,2,,,,,831.4955,837.7107,space,5.6981,,,,,,,,,,,,,,,,,,,,,,,,,,,,,,,
,,,,,,63d5e3bf4a739d1158b9ce64,2024-05-13_11h38.36.714,group3.1-3.2-social-tom,2023.2.2,MacIntel,121.9512195,65c5074098b851296ff0b7ed,664233bd46ca20fbe61147f8,,,,,,,,,,,,,,,,,,,,,,,,,,,,,870.0452,2,audio/Narrative5Situation1.wav,875.052,,875.0521,888.3352,[],1,0,888.3353,892.6851,69.44127966,1.603,"[{""rating"":69.44127965856481,""responseTime"":1.6030000000000655}]",space,3.8279,,892.6852,All the time,100,892.6947,,,[],,0,1,1,1,1,audio/Narrative7Situation1.wav,audio/Narrative8Situation1.wav,audio/Narrative5Situation1.wav,audio/Narrative6Situation1.wav,2,5,5,2,,,,,,,,,,,,,,,,,,,,,,,,,,,,,,,,,,,,,,,
,,,,,,63d5e3bf4a739d1158b9ce64,2024-05-13_11h38.36.714,group3.1-3.2-social-tom,2023.2.2,MacIntel,121.9512195,65c5074098b851296ff0b7ed,664233bd46ca20fbe61147f8,,,,,,,,,,,,,,,,,,,,,,,,,,,,,892.6949,2,audio/Narrative5Situation2.wav,895.7019,,895.7019,925.1538,"[[69.8,13250],[70.7,13333],[71.1,13416],[71.5,13500],[71.6,13583],[71.6,13666],[71.6,13749],[71.6,13832],[71.6,13916],[71.5,14000],[70.6,14082],[70.6,14166],[70.6,14249],[70.6,14333],[70.6,14415],[70.6,14499],[70.6,14583],[70.6,14666],[70.6,14749],[70.6,14833],[70.6,14916],[70.6,14999],[70.6,15082],[70.6,15166],[70.6,15249],[70.6,15332],[70.6,15416],[70.6,15500],[70.6,15583],[70.6,15665],[70.6,15749],[70.6,15832],[70.6,15916],[70.6,15999],[70.6,16083],[70.6,16165],[70.6,16248],[70.6,16332],[70.6,16415],[70.6,16499],[70.6,16582],[70.6,16666],[70.6,16750],[70.6,16833],[70.6,16916],[70.6,16999],[70.6,17083],[70.6,17165],[70.6,17249],[70.6,17333],[70.6,17416],[70.6,17500],[70.6,17583],[70.6,17665],[70.6,17748],[70.6,17833],[70.6,17916],[70.6,18000],[70.6,18083],[70.6,18166],[70.6,18249],[70.6,18333],[70.6,18417],[70.6,18500],[70.6,18583],[70.6,18666],[70.6,18749],[70.6,18833],[70.6,18916],[70.6,18999],[70.6,19083],[70.6,19166],[70.6,19249],[70.6,19333],[70.6,19417],[70.6,19500],[70.6,19582],[70.7,19665],[72.6,19750],[75.3,19833],[76.8,21083],[77.5,21166],[77.6,21251],[77.6,21333],[77.6,21416],[77.7,21500],[77.7,21583],[77.7,21667],[77.7,21749],[77.7,21833],[77.7,21916],[77.7,21999],[77.7,22082],[77.7,22165],[77.7,22249],[77.7,22333],[77.7,22416],[77.7,22500],[77.7,22582],[77.7,22666],[77.7,22749],[77.7,22833],[77.7,22915],[77.7,22998],[77.7,23083],[77.7,23165],[77.7,23249],[77.7,23333],[77.7,23416],[77.7,23500],[77.7,23583],[77.7,23665],[77.7,23749],[77.7,23833],[77.7,23916],[77.7,24001],[77.7,24083],[77.7,24166],[77.7,24248],[77.7,24333],[77.7,24416],[77.7,24499],[77.7,24583],[77.7,24669],[77.7,24750],[77.7,24833],[77.7,24916],[77.7,25000],[77.7,25083],[77.7,25168],[77.7,25249],[77.7,25334],[77.7,25417],[77.7,25499],[77.7,25583],[77.7,25668],[77.7,25748],[77.7,25832],[77.7,25916],[77.7,26000],[77.7,26083],[77.7,26166],[77.7,26249],[77.7,26333],[77.7,26416],[77.7,26499],[77.7,26583],[77.7,26666],[77.7,26750],[77.7,26833],[77.7,26917],[77.7,26999],[77.7,27083],[77.7,27165],[77.7,27249],[77.7,27332],[77.7,27418],[77.7,27500],[77.7,27582],[77.7,27666],[77.7,27751],[77.7,27832],[77.7,27916],[77.7,28000],[77.7,28083],[77.7,28166],[77.7,28249],[77.7,28332],[77.7,28416],[77.7,28500],[77.7,28583],[77.7,28666],[77.7,28748],[77.7,28834],[77.7,28916],[77.7,28999],[77.7,29083],[77.7,29167],[77.7,29249],[77.7,29333],[77.7,29415]]",1,0,925.1541,933.7188,90.28003834,6.1164,"[{""rating"":90.28003833912037,""responseTime"":6.116399999618579}]",space,8.0445,,933.7188,Not at all,0,933.7218,,,[],,0,2,2,2,1,audio/Narrative7Situation2.wav,audio/Narrative8Situation2.wav,audio/Narrative5Situation2.wav,audio/Narrative6Situation2.wav,3,3,3,3,,,,,,,,,,,,,,,,,,,,,,,,,,,,,,,,,,,,,,,
,,,,,,63d5e3bf4a739d1158b9ce64,2024-05-13_11h38.36.714,group3.1-3.2-social-tom,2023.2.2,MacIntel,121.9512195,65c5074098b851296ff0b7ed,664233bd46ca20fbe61147f8,,,,,,,,,,,,,,,,,,,,,,,,,,,,,933.722,2,audio/Narrative5Situation3.wav,936.729,,936.729,950.6272,"[[89.5,7247],[90,7330],[90.3,7414],[90.5,7497],[90.5,7580],[90.5,7663],[90.5,7746],[90.5,7831],[90.4,7915],[90.3,7996],[90.3,8081],[90.3,8166],[90.3,8247],[90.3,8332],[90.3,8416],[90.3,8497],[90.3,8581],[90.3,8664],[90.3,8747],[90.3,8831],[90.3,8914],[90.3,8999],[90.3,9081],[90.3,9164],[90.3,9247],[90.3,9331],[90.3,9414],[90.3,9497],[90.3,9583],[90.3,9665],[90.3,9748],[90.3,9831],[90.3,9914],[90.3,9997],[90.3,10082],[90.3,10164],[90.3,10248],[90.3,10331],[90.3,10414],[90.3,10498],[90.3,10580],[90.3,10664],[90.3,10748],[90.3,10833],[90.3,10914],[90.3,10997],[90.3,11081],[90.3,11164],[90.3,11247],[90.3,11331],[90.3,11414],[90.3,11497],[90.3,11581],[90.3,11664],[90.3,11746],[90.3,11830],[90.3,11914],[90.3,11998],[90.3,12081],[90.3,12164],[90.3,12249],[90.3,12331],[90.3,12414],[90.3,12497],[90.3,12581],[90.3,12663],[90.3,12748],[90.3,12831],[90.3,12914],[90.3,12997],[90.3,13081],[90.3,13164],[90.3,13246],[90.3,13332],[90.3,13414],[90.3,13497],[90.3,13580],[90.3,13664],[90.3,13747],[90.3,13831]]",1,0,950.628,960.1435,97.55949797,2.4434,"[{""rating"":97.55949797453704,""responseTime"":2.44340000009538}]",space,8.991,,960.1435,Half the time,50,960.1516,,,[],,0,3,3,3,1,audio/Narrative7Situation3.wav,audio/Narrative8Situation3.wav,audio/Narrative5Situation3.wav,audio/Narrative6Situation3.wav,8,4,3,5,,,,,,,,,,,,,,,,,,,,,,,,,,,,,,,,,,,,,,,
,,,,,,63d5e3bf4a739d1158b9ce64,2024-05-13_11h38.36.714,group3.1-3.2-social-tom,2023.2.2,MacIntel,121.9512195,65c5074098b851296ff0b7ed,664233bd46ca20fbe61147f8,,,,,,,,,,,,,,,,,,,,,,,,,,,,,960.1517,2,audio/Narrative5Situation4.wav,961.1518,,961.1519,981.5193,"[[999,0],[999,83],[999,166],[999,250],[999,332],[999,416],[999,499],[999,584],[999,666],[999,750],[999,833],[999,916],[999,999],[999,1083],[999,1165],[999,1250],[999,1332],[999,1415],[999,1500],[999,1583],[999,1668],[999,1750],[999,1833],[999,1916],[999,1999],[999,2082],[999,2166],[999,2249],[999,2333],[999,2417],[999,2499],[999,2583],[999,2666],[999,2749],[999,2833],[999,2917],[999,2999],[999,3082],[999,3166],[999,3250],[999,3333],[999,3416],[999,3500],[999,3583],[999,3666],[999,3749],[999,3832],[999,3915],[999,3999],[999,4083],[999,4166],[999,4250],[999,4333],[999,4415],[999,4502],[999,4582],[100,4666],[100,4750],[100,4835],[100,4916],[100,4998],[100,5082],[100,5167],[100,5250],[100,5333],[100,5416],[100,5499],[100,5583],[100,5666],[100,5750],[100,5832],[100,5915],[100,6000],[100,6083],[100,6166],[100,6250],[100,6333],[100,6416],[100,6500],[100,6582],[100,6666],[100,6750],[100,6832],[100,6916],[100,7000],[100,7083],[100,7168],[100,7249],[100,7333],[100,7417],[100,7500],[100,7583],[100,7666],[100,7749],[100,7833],[100,7916],[100,8000],[100,8083],[100,8166],[100,8250],[100,8333],[100,8417],[100,8500],[100,8583],[100,8666],[100,8749],[100,8832],[100,8917],[100,8999],[100,9083],[100,9166],[100,9250],[100,9333],[100,9417],[100,9500],[100,9583],[100,9666],[100,9750],[100,9834],[100,9915],[100,10000],[100,10083],[100,10165],[100,10250],[100,10333],[100,10416],[100,10500],[100,10583],[100,10665],[100,10750],[100,10832],[100,10917],[100,10999],[100,11083],[100,11165],[100,11250],[100,11333],[100,11415],[100,11499],[100,11583],[100,11666],[100,11750],[100,11833],[100,11917],[100,11999],[100,12083],[100,12166],[100,12252],[100,12334],[100,12417],[100,12501],[100,12584],[100,12667],[100,12749],[100,12832],[100,12916],[100,13000],[100,13083],[100,13166],[100,13250],[100,13333],[100,13416],[100,13500],[100,13583],[100,13667],[100,13750],[100,13832],[100,13917],[100,14000],[100,14082],[100,14167],[100,14250],[100,14335],[100,14416],[100,14500],[100,14583],[100,14668],[100,14750],[100,14834],[100,14916],[100,15000],[100,15083],[100,15166],[100,15249],[100,15334],[100,15416],[100,15499],[100,15583],[100,15666],[100,15751],[100,15834],[100,15916],[100,15999],[100,16083],[100,16166],[100,16250],[100,16333],[100,16417],[100,16500],[100,16583],[100,16666],[100,16750],[100,16832],[100,16915],[100,16998],[100,17082],[100,17166],[100,17249],[100,17334],[100,17418],[100,17500],[100,17583],[100,17665],[100,17750],[100,17833],[100,17916],[100,18000],[100,18083],[100,18166],[100,18251],[100,18333],[100,18417],[100,18500],[100,18583],[100,18666],[100,18749],[100,18832],[100,18916],[100,18999],[100,19082],[100,19166],[100,19249],[100,19333],[100,19417],[100,19500],[100,19583],[100,19668],[100,19749],[100,19833],[100,19916],[100,19999],[100,20083],[100,20166],[100,20249],[100,20333]]",1,0,981.5195,986.7848,99.27119502,2.0343,"[{""rating"":99.27119502314814,""responseTime"":2.0343000001907967}]",space,4.7428,,986.7849,Not at all,0,986.7888,,,[],,0,4,4,4,1,audio/Narrative7Situation4.wav,audio/Narrative8Situation4.wav,audio/Narrative5Situation4.wav,audio/Narrative6Situation4.wav,3,3,1,2,,,,,,,,,,,,,,,,,,,,,,,,,,,,,,,,,,,,,,,
,,,,,,63d5e3bf4a739d1158b9ce64,2024-05-13_11h38.36.714,group3.1-3.2-social-tom,2023.2.2,MacIntel,121.9512195,65c5074098b851296ff0b7ed,664233bd46ca20fbe61147f8,,,,,,,,,,,,,,,,,,,,,,,,,,,,,986.7892,2,audio/Narrative5Situation5.wav,991.7926,,991.7927,1007.1957,"[[999,6],[999,84],[999,166],[999,250],[999,333],[999,417],[999,500],[999,585],[999,666],[999,750],[999,834],[999,917],[999,1001],[999,1084],[999,1167],[999,1250],[999,1336],[999,1418],[999,1500],[999,1584],[999,1667],[999,1750],[999,1833],[999,1917],[999,2001],[999,2083],[999,2167],[999,2250],[999,2335],[999,2417],[999,2500],[999,2583],[999,2666],[999,2750],[999,2833],[999,2917],[999,3001],[999,3084],[999,3168],[999,3250],[999,3335],[999,3417],[999,3500],[999,3584],[999,3667],[999,3750],[999,3833],[999,3916],[999,4000],[999,4084],[999,4167],[999,4251],[999,4336],[999,4418],[999,4500],[999,4584],[999,4667],[999,4750],[999,4834],[999,4918],[999,5000],[999,5084],[999,5167],[999,5250],[999,5334],[999,5417],[999,5503],[999,5583],[999,5667],[999,5750],[999,5834],[999,5917],[999,6001],[999,6083],[999,6167],[999,6250],[999,6333],[999,6417],[999,6501],[999,6584],[999,6668],[999,6750],[999,6834],[999,6917],[999,7000],[999,7084],[999,7167],[999,7251],[999,7334],[999,7417],[999,7500],[999,7584],[999,7667],[999,7750],[999,7834],[999,7918],[999,8001],[999,8084],[999,8170],[999,8250],[999,8336],[999,8417],[999,8500],[999,8585],[999,8667],[999,8750],[999,8833],[999,8916],[999,9000],[999,9083],[999,9167],[999,9251],[999,9336],[999,9417],[999,9500],[999,9584],[999,9667],[999,9751],[999,9834],[999,9917],[999,10000],[999,10084],[999,10168],[999,10250],[999,10336],[999,10417],[999,10500],[999,10584],[999,10667],[999,10751],[999,10835],[999,10917],[999,11000],[999,11083],[999,11167],[999,11251],[999,11335],[999,11417],[999,11501],[999,11584],[999,11667],[999,11750],[999,11834],[999,11917],[999,12000],[999,12084],[999,12166],[999,12250],[999,12333],[999,12417],[999,12500],[999,12584],[999,12667],[999,12750],[999,12834],[999,12918],[999,13000],[999,13085],[999,13166],[999,13251],[999,13334],[999,13417],[999,13500],[999,13584],[999,13667],[999,13751],[999,13834],[999,13918],[999,14000],[999,14084],[999,14167],[999,14251],[999,14337],[999,14417],[999,14500],[999,14584],[999,14666],[999,14750],[999,14834],[999,14917],[999,15001],[999,15084],[999,15167],[999,15250],[999,15333]]",1,0,1007.1959,1012.9864,99.86707899,4.0726,"[{""rating"":99.86707899305556,""responseTime"":4.072600000381499}]",space,5.2687,,1012.9865,All the time,100,1012.9904,,,[],,0,5,5,5,1,audio/Narrative7Situation5.wav,audio/Narrative8Situation5.wav,audio/Narrative5Situation5.wav,audio/Narrative6Situation5.wav,5,2,5,2,,,,,,,,,,,,,,,,,,,,,,,,,,,,,,,,,,,,,,,
,,,,,,63d5e3bf4a739d1158b9ce64,2024-05-13_11h38.36.714,group3.1-3.2-social-tom,2023.2.2,MacIntel,121.9512195,65c5074098b851296ff0b7ed,664233bd46ca20fbe61147f8,,,,,,,,,,,,,,,,,,,,,,,,,,,,,1012.9906,2,audio/Narrative5Situation6.wav,1015.9942,,1015.9943,1021.6605,"[[999,7],[999,82],[999,167],[999,249],[999,331],[100,416],[100,498],[100,582],[100,666],[100,749],[100,832],[100,916],[100,998],[100,1082],[100,1166],[100,1249],[100,1334],[100,1415],[100,1499],[100,1583],[100,1665],[100,1750],[100,1832],[100,1915],[100,1999],[100,2083],[100,2165],[100,2252],[100,2333],[100,2418],[100,2498],[88.7,2583],[81.4,2667],[77.2,2749],[58.7,3750],[57.9,3834],[60,3916],[60,4003],[60,4082],[56.9,4166],[53.4,4249],[53,4332],[53,4415],[53,4499],[53,4583],[53,4665],[53,4749],[53,4833],[53,4915],[51.7,4999],[50.6,5082],[50.4,5165],[50.4,5251],[50.4,5332],[50.4,5419],[50.4,5499],[50.4,5583],[50.4,5666]]",1,0,1021.6606,1025.7021,84.18149595,1.3597,"[{""rating"":84.18149594907408,""responseTime"":1.3597000002860113}]",space,3.5203,,1025.7021,All the time,100,1025.7096,,,[],,0,6,6,6,1,audio/Narrative7Situation6.wav,audio/Narrative8Situation6.wav,audio/Narrative5Situation6.wav,audio/Narrative6Situation6.wav,3,2,3,2,,,,,,,,,,,,,,,,,,,,,,,,,,,,,,,,,,,,,,,
,,,,,,63d5e3bf4a739d1158b9ce64,2024-05-13_11h38.36.714,group3.1-3.2-social-tom,2023.2.2,MacIntel,121.9512195,65c5074098b851296ff0b7ed,664233bd46ca20fbe61147f8,,,,,,,,,,,,,,,,,,,,,,,,,,,,,1025.7098,2,audio/Narrative5Situation7.wav,1029.7188,,1029.7188,1050.7467,"[[84.6,833],[84.6,916],[84.6,1000],[84.6,1083],[84.6,1165],[84.6,1250],[84.6,1332],[84.6,1416],[84.6,1499],[84.6,1582],[84.6,1666],[82,1749],[67.7,1833],[64.6,2084],[58.9,2166],[51,2250],[50.1,2333],[50.1,2416],[50.1,2499],[49.9,2583],[45.2,2665],[43.1,2749],[42.9,2833],[42.9,2915],[42.9,3000],[42.9,3083],[45.7,3166],[51.9,3250],[54.1,3333],[54.7,3416],[54.7,3499],[54.7,3583],[54.7,3666],[54.7,3749],[54.7,3832],[54.8,3917],[54.8,3998],[54.8,4083],[54.8,4167],[54.8,4249],[54.8,4332],[54.8,4416],[54.8,4499],[54.8,4583],[54.8,4666],[54.8,4749],[54.8,4832],[54.8,4915],[54.8,4999],[54.8,5083],[54.8,5166],[54.8,5250],[54.8,5333],[54.8,5416],[54.8,5499],[54.8,5582],[54.8,5666],[54.8,5749],[54.8,5833],[54.8,5916],[54.8,6000],[54.8,6083],[54.8,6166],[54.8,6249],[54.8,6333],[54.8,6416],[54.8,6500],[54.8,6582],[54.8,6666],[54.8,6748],[54.8,6833],[54.8,6915],[54.8,6999],[54.8,7083],[54.8,7167],[54.8,7249],[54.8,7332],[54.8,7416],[54.8,7500],[54.8,7583],[54.8,7666],[54.8,7749],[54.8,7833],[54.8,7916],[54.8,7999],[54.8,8083],[54.8,8166],[54.8,8250],[54.8,8335],[54.8,8416],[54.8,8499],[54.8,8583],[54.8,8666],[54.8,8750],[54.8,8833],[54.8,8916],[54.8,8999],[54.8,9083],[54.8,9166],[54.8,9249],[54.8,9333],[54.8,9416],[54.8,9499],[54.8,9583],[54.8,9665],[54.8,9749],[54.8,9833],[54.8,9916],[54.8,9999],[54.8,10082],[54.8,10166],[54.8,10249],[54.8,10333],[54.8,10416],[54.8,10500],[54.8,10583],[54.8,10666],[54.8,10750],[54.8,10833],[54.8,10916],[54.8,11002],[54.8,11083],[54.8,11166],[54.8,11249],[54.8,11335],[54.8,11415],[54.8,11499],[54.8,11584],[54.8,11665],[54.8,11749],[54.8,11833],[54.8,11916],[54.8,11999],[54.8,12083],[54.8,12165],[54.8,12251],[54.8,12334],[54.8,12416],[54.8,12499],[54.8,12582],[54.8,12666],[54.8,12749],[54.8,12833],[54.8,12916],[54.8,12999],[54.8,13084],[54.8,13167],[54.8,13251],[54.8,13333],[54.8,13416],[54.8,13499],[54.8,13583],[54.8,13666],[54.8,13749],[54.8,13833],[54.8,13916],[54.8,13999],[54.8,14083],[54.8,14166],[54.8,14250],[54.8,14334],[54.8,14416],[54.8,14499],[54.8,14584],[54.8,14669],[54.8,14750],[54.8,14833],[54.8,14917],[54.8,15000],[54.8,15082],[54.8,15166],[54.8,15249],[54.8,15333],[54.8,15416],[54.8,15500],[54.8,15583],[54.8,15666],[54.8,15750],[54.8,15833],[54.8,15916],[54.8,15999],[54.8,16082],[54.8,16166],[54.8,16250],[54.8,16333],[54.8,16416],[54.8,16499],[54.8,16583],[54.7,16666],[54.4,16749],[60.5,17332],[62.3,17416],[62.8,17499],[62.9,17583],[62.9,17668],[62.9,17749],[67.2,17833],[83.1,17999],[83,18082],[83,18166],[83,18248],[83,18333],[86,18416],[89.3,18500],[90.7,18582],[90.9,18667],[90.9,18750],[90.9,18833],[91.3,18916],[93,19000],[93.7,19083],[93.7,19166],[93.7,19248],[93.7,19333],[93.7,19420],[93.7,19499],[93.7,19583],[93.7,19666],[93.7,19751],[93.7,19833],[93.7,19916],[93.7,20002],[93.8,20082],[93.8,20166],[93.8,20249],[93.8,20333],[93.8,20416],[94.1,20501],[94.4,20583],[94.5,20667],[94.6,20750],[95,20833],[96.6,20916],[98.5,21000]]",1,0,1050.7469,1054.6188,100,2.951,"[{""rating"":97.8755244502315,""responseTime"":1.1326999998091196},{""rating"":100,""responseTime"":2.951000000000022}]",space,3.352,,1054.6188,All the time,100,1054.6201,,,[],,0,7,7,7,1,audio/Narrative7Situation7.wav,audio/Narrative8Situation7.wav,audio/Narrative5Situation7.wav,audio/Narrative6Situation7.wav,5,3,4,5,,,,,,,,,,,,,,,,,,,,,,,,,,,,,,,,,,,,,,,
,,,,,,63d5e3bf4a739d1158b9ce64,2024-05-13_11h38.36.714,group3.1-3.2-social-tom,2023.2.2,MacIntel,121.9512195,65c5074098b851296ff0b7ed,664233bd46ca20fbe61147f8,,,,,,,,,,,,,,,,,,,,,,,,,,,,,1054.6203,2,audio/Narrative5Situation8.wav,1057.6272,,1057.6272,1066.4273,"[[100,999],[100,1083],[100,1166],[100,1251],[100,1333],[100,1418],[100,1499],[100,1583],[100,1666],[100,1752],[100,1833],[100,1919],[100,1999],[100,2083],[100,2166],[100,2250],[100,2333],[100,2416],[100,2501],[100,2583],[99.9,2666],[96.9,2750],[95.9,2833],[95.9,2916],[95.9,2999],[95.9,3084],[95.7,3168],[92.3,3249],[91.2,3333],[91.2,3418],[92.5,3500],[92.5,3583],[92.5,3666],[92.5,3749],[92.5,3833],[92.5,3916],[92.5,3999],[92.5,4084],[92.5,4166],[92.5,4249],[92.5,4333],[92.5,4416],[92.5,4503],[92.6,4585],[92.6,4668],[92.6,4750],[92.6,4833],[92.6,4916],[92.6,4999],[92.7,5083],[92.9,5166],[92.9,5249],[92.9,5333],[92.9,5417],[92.9,5499],[92.9,5583],[92.9,5666],[92.9,5750],[92.9,5834],[92.9,5916],[92.9,5999],[92.9,6083],[92.9,6166],[92.9,6250],[92.9,6333],[92.9,6416],[92.9,6502],[92.9,6583],[92.9,6667],[92.9,6751],[92.9,6833],[92.9,6918],[92.9,6999],[92.9,7083],[92.9,7166],[92.9,7250],[92.9,7333],[92.9,7416],[92.9,7500],[92.9,7583],[92.9,7667],[92.9,7751],[92.9,7833],[92.9,7916],[92.9,8000],[92.9,8082],[92.9,8169],[92.9,8250],[92.9,8335],[92.9,8416],[92.9,8501],[92.9,8583],[92.9,8666],[92.9,8750]]",1,0,1066.4275,1068.7357,94.39652054,1.081,"[{""rating"":94.3965205439815,""responseTime"":1.0809999999999036}]",space,1.7904,,1068.7358,All the time,100,1068.737,,,[],,0,8,8,8,1,audio/Narrative7Situation8.wav,audio/Narrative8Situation8.wav,audio/Narrative5Situation8.wav,audio/Narrative6Situation8.wav,2,3,3,5,,,,,,,,,,,,,,,,,,,,,,,,,,,,,,,,,,,,,,,
,,,,,,63d5e3bf4a739d1158b9ce64,2024-05-13_11h38.36.714,group3.1-3.2-social-tom,2023.2.2,MacIntel,121.9512195,65c5074098b851296ff0b7ed,664233bd46ca20fbe61147f8,,,,,,,,,,,,,,,,,,,,,,,,,,,,,1068.7372,2,audio/Narrative5Situation9.wav,1071.7453,,1071.7454,1111.2773,"[[94.4,1258],[94.4,1340],[94.2,1424],[94.2,1507],[94.1,1590],[94.1,1673],[94.1,1756],[93.5,1840],[92.2,1924],[91.4,2006],[88,3757],[87.4,3840],[87.3,3923],[87.3,4006],[88.2,4090],[88.4,4172],[88.5,4256],[88.5,4340],[88.7,4423],[88.9,4507],[89.1,4590],[89.2,4673],[89.3,4757],[89.4,4842],[89.4,4923],[89.4,5006],[89.4,5090],[89.4,5176],[89.4,5256],[89.4,5340],[89.4,5423],[89.4,5505],[89.4,5590],[89.4,5674],[89.4,5756],[89.4,5839],[89.4,5923],[89.4,6007],[89.4,6090],[89.4,6173],[89.4,6257],[89.4,6340],[89.4,6423],[89.4,6506],[89.4,6590],[89.4,6673],[89.4,6756],[89.4,6840],[89.4,6924],[89.4,7006],[89.4,7089],[89.4,7172],[89.4,7256],[89.4,7339],[89.4,7422],[89.4,7506],[89.4,7590],[89.4,7673],[89.4,7755],[89.4,7840],[89.4,7923],[89.4,8007],[89.4,8090],[89.4,8173],[89.4,8256],[89.4,8340],[89.4,8423],[89.4,8506],[89.4,8590],[89.4,8672],[89.4,8758],[89.4,8839],[89.4,8923],[89.4,9007],[89.4,9091],[89.4,9173],[89.4,9256],[89.4,9340],[89.4,9423],[89.4,9506],[89.4,9590],[89.4,9673],[89.4,9756],[89.4,9839],[89.4,9923],[89.4,10007],[89.4,10090],[89.4,10176],[89.4,10256],[89.4,10340],[89.4,10423],[89.4,10506],[89.4,10590],[89.4,10672],[89.4,10757],[89.4,10840],[89.4,10923],[89.4,11006],[89.4,11090],[89.4,11172],[89.4,11256],[89.4,11340],[89.4,11422],[89.4,11506],[89.4,11590],[89.4,11673],[89.4,11757],[89.4,11839],[89.4,11924],[89.4,12006],[89.4,12090],[89.4,12172],[89.4,12256],[89.4,12340],[89.4,12423],[89.4,12506],[89.4,12588],[89.4,12673],[89.4,12756],[89.4,12839],[89.4,12923],[89.4,13006],[89.4,13090],[89.4,13173],[89.4,13257],[89.4,13340],[89.4,13423],[89.7,13506],[90.1,13590],[91.3,13673],[97.8,14423],[97.9,14505],[97.9,14590],[97.9,14673],[97.9,14756],[99.6,14840],[100,14923],[100,15007],[100,15090],[100,15174],[100,15257],[100,15340],[100,15423],[100,15506],[100,15590],[100,15673],[100,15757],[100,15839],[100,15923],[100,16006],[100,16090],[100,16173],[100,16257],[100,16340],[100,16423],[100,16507],[100,16590],[100,16672],[100,16756],[100,16840],[100,16923],[100,17006],[100,17091],[100,17172],[100,17255],[100,17340],[100,17423],[100,17506],[100,17589],[100,17673],[100,17756],[100,17840],[100,17923],[100,18008],[100,18089],[100,18172],[100,18256],[100,18340],[100,18423],[100,18506],[100,18590],[100,18672],[100,18756],[100,18840],[100,18923],[100,19006],[100,19090],[100,19172],[100,19256],[100,19340],[100,19422],[100,19506],[100,19590],[100,19673],[100,19756],[100,19839],[100,19922],[100,20006],[100,20091],[100,20173],[100,20255],[100,20340],[100,20423],[100,20506],[100,20589],[100,20673],[100,20756],[100,20840],[100,20923],[100,21006],[100,21090],[100,21172],[100,21255],[100,21340],[100,21423],[100,21505],[100,21589],[100,21672],[100,21756],[100,21839],[100,21923],[100,22006],[100,22089],[100,22173],[100,22256],[100,22341],[100,22423],[100,22506],[100,22590],[100,22673],[100,22756],[100,22840],[100,22923],[100,23005],[100,23089],[100,23173],[100,23256],[100,23341],[100,23423],[100,23506],[100,23590],[100,23673],[100,23756],[100,23840],[100,23923],[100,24006],[100,24090],[100,24173],[100,24256],[100,24339],[100,24423],[100,24506],[100,24590],[100,24673],[100,24756],[100,24840],[100,24923],[100,25006],[100,25089],[100,25173],[100,25255],[100,25339],[100,25423],[100,25506],[100,25590],[100,25673],[100,25757],[100,25840],[100,25923],[100,26007],[100,26089],[100,26172],[100,26256],[100,26340],[100,26423],[100,26506],[100,26590],[100,26673],[100,26755],[100,26840],[100,26922],[100,27006],[100,27090],[100,27172],[100,27258],[100,27340],[100,27423],[100,27506],[100,27590],[100,27673],[100,27756],[100,27839],[100,27923],[100,28007],[100,28090],[100,28173],[100,28257],[100,28340],[100,28422],[100,28507],[100,28590],[100,28672],[100,28757],[100,28839],[100,28923],[100,29006],[100,29091],[100,29173],[100,29256],[100,29340],[100,29423],[100,29507],[100,29590],[100,29673],[100,29756],[100,29840],[100,29924],[100,30007],[100,30090],[100,30173],[100,30256],[100,30339],[100,30423],[100,30506],[100,30590],[100,30673],[100,30755],[100,30841],[100,30923],[100,31007],[100,32090],[100,32172],[99.6,32256],[99.2,32340],[99.2,32424],[98.8,32507],[97.7,32589],[96,32673],[94.5,32756],[94.5,32840],[94.5,32923],[94.5,33005],[94.5,33090],[94.5,33173],[94.5,33257],[95.2,33340],[95.6,33423],[96.2,33508],[97.4,33590],[97.8,33673],[98.2,33756],[98.6,33840],[98.8,33924],[99.2,34007],[99.9,34089],[100,34173],[100,34255],[100,34340],[100,34425],[100,34507],[100,34589],[100,34673],[100,34758],[100,34840],[100,34923],[100,35006],[99.9,35090],[98.9,35173],[98.2,35257],[97.6,35340],[97,35422],[96.8,35505],[96.8,35589],[98.2,35673],[98.7,35756],[98.9,35840],[99,35923],[99,36006],[99,36090],[99,36172],[99,36256],[99,36340],[99,36422],[99,36506],[99,36590],[99,36673],[99,36755],[99,36840],[99,36923],[99.8,37007],[100,37090],[100,37173],[100,37256],[100,37340],[100,37424],[100,37506],[100,37590],[100,37672],[100,37757],[100,37839],[100,37923],[100,38007],[100,38090],[100,38173],[100,38256],[100,38340],[100,38423],[100,38507],[100,38590],[100,38673],[100,38756],[100,38839],[100,38923],[100,39006],[100,39089],[100,39173],[100,39257],[100,39339],[100,39423],[100,39505]]",1,0,1111.2774,1116.3605,99.06322338,1.6994,"[{""rating"":99.06322337962963,""responseTime"":1.6994000000954657}]",space,4.5645,,1116.3606,Half the time,50,1116.369,,,[],,0,9,9,9,1,audio/Narrative7Situation9.wav,audio/Narrative8Situation9.wav,audio/Narrative5Situation9.wav,audio/Narrative6Situation9.wav,2,3,3,4,,,,,,,,,,,,,,,,,,,,,,,,,,,,,,,,,,,,,,,
,,,,,,63d5e3bf4a739d1158b9ce64,2024-05-13_11h38.36.714,group3.1-3.2-social-tom,2023.2.2,MacIntel,121.9512195,65c5074098b851296ff0b7ed,664233bd46ca20fbe61147f8,,,,,,,,,,,,,,,,,,,,,,,,,,,,,1116.3691,2,audio/Narrative6Situation1.wav,1117.4791,space,1117.4792,1144.0435,"[[999,0],[999,80],[999,164],[999,248],[999,331],[999,415],[999,498],[999,581],[999,668],[999,748],[999,831],[999,914],[999,998],[999,1081],[999,1163],[999,1248],[999,1331],[999,1415],[999,1498],[999,1581],[999,1664],[999,1748],[999,1831],[999,1914],[999,1998],[999,2081],[999,2164],[999,2247],[999,2331],[55.6,2415],[53.3,2498],[52.6,2581],[51.9,2664],[51,2749],[50.2,2831],[50.1,2914],[50.1,2997],[50.1,3081],[50.1,3165],[50.1,3247],[50.1,3331],[50.1,3414],[50.1,3498],[50.1,3581],[50.1,3666],[50.1,3748],[50.1,3831],[50.1,3915],[50.1,3998],[50.1,4081],[50.1,4164],[50.1,4248],[50.1,4331],[50.1,4414],[50.1,4498],[50.1,4581],[50.1,4664],[50.1,4748],[50.1,4831],[50.1,4914],[50.1,4998],[50.1,5081],[50.1,5164],[50.1,5247],[50.1,5331],[50.1,5414],[50.1,5497],[50.1,5581],[50.1,5665],[50.1,5748],[50.1,5832],[50.1,5915],[50.1,5997],[50.1,6081],[50.1,6164],[50.1,6248],[50.1,6331],[50.1,6414],[50.1,6498],[50.1,6581],[50.1,6664],[50.1,6748],[50.1,6831],[50.1,6914],[50.1,6998],[50.1,7081],[50.1,7164],[50.1,7249],[50.1,7331],[50.1,7414],[50.1,7498],[50.1,7581],[50.1,7664],[50.1,7748],[50.1,7831],[50.1,7914],[50.1,7998],[50.1,8081],[50.1,8164],[50.2,8248],[50.2,8331],[50.2,8414],[50.2,8498],[50,8581],[49.8,8664],[49.6,8749],[49.4,8831],[50.5,9414],[50.5,9497],[50.6,9581],[50.6,9665],[51.2,9747],[54.4,9832],[55.4,9913],[55.4,9998],[55.4,10081],[55.4,10164],[63,10248],[69.3,10331],[69.7,10414],[69.7,10498],[69.7,10581],[76.6,10664],[85.4,10749],[90.8,11165],[92.5,11248],[92.7,11331],[92.6,11414],[92.4,11497],[92.2,11581],[92,11664],[91.9,11747],[92.4,11831],[97.1,11914],[99.5,11998],[99.4,12081],[98.8,12164],[98.8,12247],[98.8,12331],[98.8,12414],[98.9,12499],[99.4,12581],[99.5,12665],[99.5,12748],[99.4,12831],[99.4,12914],[99.3,12997],[99.3,13081],[99.2,13164],[98.7,13247],[98.2,13331],[98.2,13415],[98.2,13497],[98.2,13581],[98.2,13664],[98.2,13747],[98.2,13831],[98.2,13914],[98.2,13999],[98.2,14081],[98.2,14164],[98.2,14248],[98.2,14331],[98.2,14414],[98.2,14498],[98.2,14580],[98.2,14664],[98.2,14748],[98.2,14831],[98.2,14914],[98.2,14998],[98.2,15080],[98.2,15164],[98.2,15248],[98.2,15331],[98.2,15414],[98.2,15499],[98.2,15581],[98.2,15664],[98.2,15747],[98.2,15831],[98.2,15914],[98.2,15998],[98.2,16081],[98.2,16164],[98.2,16248],[98.2,16331],[98.2,16414],[98.2,16498],[98.2,16581],[98.2,16664],[98.2,16748],[98.2,16831],[98.2,16914],[98.2,16998],[98.2,17081],[98.2,17164],[98.2,17248],[98.2,17331],[98.2,17416],[98.2,17498],[98.2,17580],[98.2,17664],[98.2,17748],[98.2,17831],[98.2,17914],[98.2,17997],[98.2,18082],[98.1,18165],[98.1,18247],[98.1,18331],[98.1,18414],[98.1,18498],[98.1,18581],[98.1,18664],[98.1,18748],[98.1,18831],[98.1,18914],[98.1,18997],[98.1,19080],[98.1,19164],[98.1,19248],[98.1,19331],[98.1,19415],[98.1,19497],[98.1,19581],[98.1,19666],[98.1,19747],[98.1,19831],[98.1,19914],[98.1,19997],[98.1,20081],[98.1,20164],[98.1,20248],[98.1,20331],[98.1,20414],[98.1,20499],[98.1,20581],[99,20664],[100,20747],[100,20830],[100,20914],[100,20998],[100,21081],[100,21165],[100,21248],[100,21331],[100,21415],[100,21497],[100,21581],[100,21669],[100,21748],[100,21834],[100,21914],[100,21998],[100,22081],[100,22165],[100,22248],[100,22331],[100,22414],[100,22498],[100,22581],[100,22664],[100,22748],[100,22831],[100,22914],[100,22998],[100,23083],[100,23165],[100,23249],[100,23330],[100,23414],[100,23498],[100,23581],[100,23666],[100,23748],[100,23831],[100,23914],[100,23997],[100,24081],[100,24164],[100,24248],[100,24331],[100,24415],[100,24498],[100,24580],[100,24664],[100,24747],[100,24831],[100,24914],[100,24997],[100,25081],[100,25164],[100,25247],[100,25332],[100,25414],[100,25498],[100,25580],[100,25664],[100,25748],[100,25832],[100,25915],[100,25998],[100,26081],[100,26164],[100,26248],[100,26331],[100,26414],[100,26498]]",1,0,1144.0437,1149.4529,100,3.1362,"[{""rating"":100,""responseTime"":3.1362000002861805}]",space,4.8916,,1149.453,Half the time,50,1161.9362,50.302011,7.7107,"[{""rating"":50.302010995370374,""responseTime"":7.710700000286124}]",space,0,10,10,10,1,audio/Narrative8Situation1.wav,audio/Narrative7Situation1.wav,audio/Narrative6Situation1.wav,audio/Narrative5Situation1.wav,5,2,2,5,1.099,,11.9602,,,,,,,,,,,,,,,,,,,,,,,,,,,,,,,,,,,,
,,,,,,63d5e3bf4a739d1158b9ce64,2024-05-13_11h38.36.714,group3.1-3.2-social-tom,2023.2.2,MacIntel,121.9512195,65c5074098b851296ff0b7ed,664233bd46ca20fbe61147f8,,,,,,,,,,,,,,,,,,,,,,,,,,,,,1161.943,2,audio/Narrative6Situation2.wav,1164.9434,,1164.9434,1193.4288,"[[50.7,1167],[61.9,1251],[69.8,1335],[70.2,1417],[70.2,1500],[70.2,1583],[70.2,1667],[70.2,1751],[70.2,1834],[70.2,1917],[70.2,2000],[70.2,2084],[70.6,2166],[70.7,2250],[70.7,2334],[70.7,2416],[70.7,2500],[70.7,2583],[70.7,2667],[70.7,2750],[70.7,2834],[70.7,2917],[70.7,3000],[70.7,3084],[70.7,3167],[70.7,3250],[70.7,3334],[70.7,3417],[70.7,3502],[70.7,3583],[70.7,3668],[70.7,3750],[70.7,3833],[70.7,3917],[70.7,4000],[70.7,4083],[70.7,4166],[70.7,4250],[70.7,4334],[70.7,4417],[70.7,4500],[70.7,4583],[70.7,4667],[70.7,4750],[70.7,4833],[70.7,4918],[70.7,5000],[70.7,5083],[70.7,5167],[70.7,5250],[70.7,5333],[70.7,5417],[70.7,5500],[70.7,5584],[70.7,5667],[70.7,5751],[70.7,5836],[70.7,5917],[70.7,6000],[70.7,6084],[70.7,6166],[70.7,6249],[70.7,6333],[70.7,6417],[70.7,6500],[70.7,6584],[70.7,6666],[70.7,6751],[70.7,6833],[70.7,6917],[70.7,7000],[70.7,7083],[70.7,7167],[70.7,7250],[70.7,7333],[70.7,7417],[70.7,7500],[70.7,7585],[70.7,7667],[70.7,7750],[70.7,7834],[70.7,7916],[70.7,8000],[70.7,8084],[70.7,8166],[70.7,8250],[70.7,8333],[70.7,8416],[70.7,8502],[70.7,8584],[70.7,8667],[70.7,8750],[70.7,8834],[70.7,8917],[70.7,9000],[70.7,9083],[70.7,9166],[70.7,9249],[70.7,9333],[70.7,9416],[70.7,9500],[70.7,9583],[70.7,9667],[70.7,9750],[70.7,9833],[70.7,9917],[70.7,10000],[70.7,10084],[70.7,10167],[70.7,10251],[70.7,10333],[70.7,10417],[70.7,10500],[70.7,10583],[70.7,10667],[70.7,10750],[70.7,10834],[70.7,10917],[70.7,11000],[70.7,11083],[70.7,11167],[70.7,11250],[70.7,11334],[70.7,11416],[70.7,11500],[70.7,11584],[70.7,11667],[70.7,11750],[70.7,11834],[70.7,11916],[70.7,12000],[70.7,12084],[70.7,12167],[70.7,12250],[70.7,12334],[70.7,12419],[70.7,12500],[70.7,12585],[70.7,12667],[70.7,12750],[70.7,12834],[70.7,12917],[70.7,13000],[90.5,13084],[100,13167],[100,13249],[100,13332],[100,13417],[100,13500],[100,13583],[100,13666],[100,13750],[100,13835],[100,13917],[100,14000],[100,14083],[100,14167],[100,14250],[100,14333],[100,14416],[100,14500],[100,14584],[100,14667],[100,14751],[100,14833],[100,14917],[100,15000],[100,15083],[100,15167],[100,15250],[100,15334],[97.6,15417],[96.5,15500],[96.5,15584],[96.5,15666],[96.5,15751],[96.5,15833],[96.5,15916],[96.5,16001],[96.5,16085],[96.6,16167],[96.6,16250],[96.6,16333],[96.6,16417],[96.6,16499],[96.6,16583],[96.6,16667],[96.6,16751],[96.6,16834],[96.6,16917],[96.6,17000],[96.6,17083],[96.6,17166],[96.6,17250],[96.6,17333],[96.6,17416],[96.6,17500],[96.6,17584],[96.6,17667],[96.6,17751],[96.6,17833],[96.6,17917],[96.6,18000],[96.4,18084],[95.8,18167],[94.6,18250],[94,18336],[94,18418],[93.9,18499],[94.1,18584],[94.4,18667],[94.4,18750],[94.4,18833],[94.4,18917],[94.4,19000],[94.4,19084],[94.4,19169],[94.4,19250],[94.4,19333],[94.4,19417],[94.4,19500],[94.4,19584],[94.4,19667],[94.4,19750],[94.4,19833],[94.4,19916],[94.4,20000],[94.4,20086],[94.4,20167],[94.4,20250],[94.4,20333],[94.4,20418],[94.4,20500],[94.4,20584],[94.4,20667],[94.4,20750],[94.4,20834],[94.4,20916],[94.4,20999],[94.4,21083],[94.4,21167],[94.4,21250],[94.4,21333],[94.4,21416],[94.4,21500],[94.4,21584],[94.4,21667],[94.4,21750],[94.4,21833],[94.4,21917],[94.4,22000],[94.4,22083],[94.4,22166],[94.4,22250],[94.4,22333],[94.4,22417],[94.4,22500],[94.4,22582],[94.4,22667],[94.4,22751],[94.4,22833],[94.4,22918],[94.4,23000],[94.4,23083],[94.4,23167],[94.4,23250],[94.4,23333],[94.4,23417],[94.4,23500],[94.4,23583],[94.4,23667],[94.4,23750],[94.4,23834],[94.4,23917],[94.4,24001],[94.4,24083],[94.4,24166],[94.4,24250],[94.4,24333],[94.4,24417],[94.4,24500],[94.4,24583],[94.4,24666],[94.4,24750],[94.4,24834],[94.4,24918],[94.4,25000],[94.4,25083],[94.4,25167],[94.4,25250],[94.4,25333],[94.4,25417],[94.4,25500],[94.4,25583],[94.4,25666],[94.4,25750],[94.4,25833],[94.4,25916],[94.4,26000],[94.4,26083],[94.4,26167],[94.4,26250],[94.4,26335],[94.4,26416],[94.4,26500],[94.4,26584],[94.4,26668],[94.4,26750],[94.4,26834],[94.4,26917],[94.4,27000],[94.4,27084],[94.4,27167],[94.4,27249],[94.4,27334],[94.4,27417],[94.4,27500],[94.4,27584],[94.4,27667],[94.4,27750],[94.4,27834],[94.4,27917],[94.4,28000],[94.4,28085],[94.4,28166],[94.4,28250],[94.4,28334],[94.4,28417]]",1,0,1193.4289,1200.6433,95.78450521,1.7431,"[{""rating"":95.78450520833333,""responseTime"":1.7430999999046435}]",space,6.6901,,1200.6433,All the time,100,1200.6524,,,[],,0,11,11,11,1,audio/Narrative8Situation2.wav,audio/Narrative7Situation2.wav,audio/Narrative6Situation2.wav,audio/Narrative5Situation2.wav,3,3,3,3,,,,,,,,,,,,,,,,,,,,,,,,,,,,,,,,,,,,,,,
,,,,,,63d5e3bf4a739d1158b9ce64,2024-05-13_11h38.36.714,group3.1-3.2-social-tom,2023.2.2,MacIntel,121.9512195,65c5074098b851296ff0b7ed,664233bd46ca20fbe61147f8,,,,,,,,,,,,,,,,,,,,,,,,,,,,,1200.6526,2,audio/Narrative6Situation3.wav,1205.6615,,1205.6615,1218.2617,[],1,0,1218.2617,1224.9523,97.54503038,4.3982,"[{""rating"":97.54503038194444,""responseTime"":4.398200000286124}]",space,6.1669,,1224.9525,Not at all,0,1224.9539,,,[],,0,12,12,12,1,audio/Narrative8Situation3.wav,audio/Narrative7Situation3.wav,audio/Narrative6Situation3.wav,audio/Narrative5Situation3.wav,4,8,5,3,,,,,,,,,,,,,,,,,,,,,,,,,,,,,,,,,,,,,,,
,,,,,,63d5e3bf4a739d1158b9ce64,2024-05-13_11h38.36.714,group3.1-3.2-social-tom,2023.2.2,MacIntel,121.9512195,65c5074098b851296ff0b7ed,664233bd46ca20fbe61147f8,,,,,,,,,,,,,,,,,,,,,,,,,,,,,1224.9539,2,audio/Narrative6Situation4.wav,1226.96,,1226.9601,1239.5527,[],1,0,1239.5528,1241.8862,99.43305122,1.4719,"[{""rating"":99.43305121527779,""responseTime"":1.471900000095502}]",space,1.8072,,1241.8863,Not at all,0,1241.888,,,[],,0,13,13,13,1,audio/Narrative8Situation4.wav,audio/Narrative7Situation4.wav,audio/Narrative6Situation4.wav,audio/Narrative5Situation4.wav,3,3,2,1,,,,,,,,,,,,,,,,,,,,,,,,,,,,,,,,,,,,,,,
,,,,,,63d5e3bf4a739d1158b9ce64,2024-05-13_11h38.36.714,group3.1-3.2-social-tom,2023.2.2,MacIntel,121.9512195,65c5074098b851296ff0b7ed,664233bd46ca20fbe61147f8,,,,,,,,,,,,,,,,,,,,,,,,,,,,,1241.8883,2,audio/Narrative6Situation5.wav,1243.8944,,1243.8945,1251.8454,[],1,0,1251.8455,1255.8608,99.19478805,2.578,"[{""rating"":99.1947880497685,""responseTime"":2.5779999999999745}]",space,3.4998,,1255.8608,Half the time,50,1255.8622,,,[],,0,14,14,14,1,audio/Narrative8Situation5.wav,audio/Narrative7Situation5.wav,audio/Narrative6Situation5.wav,audio/Narrative5Situation5.wav,2,5,2,5,,,,,,,,,,,,,,,,,,,,,,,,,,,,,,,,,,,,,,,
,,,,,,63d5e3bf4a739d1158b9ce64,2024-05-13_11h38.36.714,group3.1-3.2-social-tom,2023.2.2,MacIntel,121.9512195,65c5074098b851296ff0b7ed,664233bd46ca20fbe61147f8,,,,,,,,,,,,,,,,,,,,,,,,,,,,,1255.8623,2,audio/Narrative6Situation6.wav,1257.8693,,1257.8694,1268.9302,[],1,0,1268.9303,1272.4191,98.91899957,1.3763,"[{""rating"":98.91899956597221,""responseTime"":1.3763000001906676}]",space,2.9667,,1272.4191,All the time,100,1272.4208,,,[],,0,15,15,15,1,audio/Narrative8Situation6.wav,audio/Narrative7Situation6.wav,audio/Narrative6Situation6.wav,audio/Narrative5Situation6.wav,2,3,2,3,,,,,,,,,,,,,,,,,,,,,,,,,,,,,,,,,,,,,,,
,,,,,,63d5e3bf4a739d1158b9ce64,2024-05-13_11h38.36.714,group3.1-3.2-social-tom,2023.2.2,MacIntel,121.9512195,65c5074098b851296ff0b7ed,664233bd46ca20fbe61147f8,,,,,,,,,,,,,,,,,,,,,,,,,,,,,1272.421,2,audio/Narrative6Situation7.wav,1277.4274,,1277.4274,1302.2628,"[[97.6,22250],[96.1,22332],[97.6,22750],[97.7,22832],[97.7,22916],[97.6,23000],[97.5,23083],[97.4,23166],[97.4,23250],[97.4,23333],[97.4,23416],[97.4,23500],[97.4,23583],[97.4,23666],[97.4,23749],[97.4,23832],[97.4,23916],[97.4,24000],[97.4,24084],[97.4,24166],[97.4,24250],[97.4,24333],[97.4,24415],[97.4,24500],[97.4,24583],[97.4,24665],[97.4,24749],[97.4,24834]]",1,0,1302.2629,1306.0603,99.18845848,1.7585,"[{""rating"":99.18845847800925,""responseTime"":1.7584999999999127}]",space,3.2774,,1306.0604,Not at all,0,1306.0634,,,[],,0,16,16,16,1,audio/Narrative8Situation7.wav,audio/Narrative7Situation7.wav,audio/Narrative6Situation7.wav,audio/Narrative5Situation7.wav,3,5,5,4,,,,,,,,,,,,,,,,,,,,,,,,,,,,,,,,,,,,,,,
,,,,,,63d5e3bf4a739d1158b9ce64,2024-05-13_11h38.36.714,group3.1-3.2-social-tom,2023.2.2,MacIntel,121.9512195,65c5074098b851296ff0b7ed,664233bd46ca20fbe61147f8,,,,,,,,,,,,,,,,,,,,,,,,,,,,,1306.0636,2,audio/Narrative6Situation8.wav,1311.0694,,1311.0694,1317.9038,[],1,0,1317.904,1320.0525,98.88644748,1.5944,"[{""rating"":98.88644748263889,""responseTime"":1.5944000000954475}]",space,1.629,,1320.0526,Not at all,0,1320.0535,,,[],,0,17,17,17,1,audio/Narrative8Situation8.wav,audio/Narrative7Situation8.wav,audio/Narrative6Situation8.wav,audio/Narrative5Situation8.wav,3,2,5,3,,,,,,,,,,,,,,,,,,,,,,,,,,,,,,,,,,,,,,,
,,,,,,63d5e3bf4a739d1158b9ce64,2024-05-13_11h38.36.714,group3.1-3.2-social-tom,2023.2.2,MacIntel,121.9512195,65c5074098b851296ff0b7ed,664233bd46ca20fbe61147f8,,,,,,,,,,,,,,,,,,,,,,,,,,,,,1320.0537,2,audio/Narrative6Situation9.wav,1324.0614,,1324.0614,1333.9966,"[[100,9582]]",1,0,1333.9966,1336.2197,99.7639974,1.7847,"[{""rating"":99.76399739583333,""responseTime"":1.7847000002861932}]",space,1.7044,,1336.2198,All the time,100,1336.2231,,,[],,0,18,18,18,1,audio/Narrative8Situation9.wav,audio/Narrative7Situation9.wav,audio/Narrative6Situation9.wav,audio/Narrative5Situation9.wav,3,2,4,3,,,,,,,,,,,,,,,,,,,,,,,,,,,,,,,,,,,,,,,
,,,,,,63d5e3bf4a739d1158b9ce64,2024-05-13_11h38.36.714,group3.1-3.2-social-tom,2023.2.2,MacIntel,121.9512195,65c5074098b851296ff0b7ed,664233bd46ca20fbe61147f8,,,,,,,,,,,,,,,,,,,,,,,,,,,,,,,,,,,,,,,,,,,,,,,,,,,,,,,,,,,,,,,,,,,,,,,,1336.2233,1339.9684,space,3.2333,,1339.9688,1354.57,space,14.2933,,,,,,,,,,,,,,,,,,,,,,,,,,
,,,,,,63d5e3bf4a739d1158b9ce64,2024-05-13_11h38.36.714,group3.1-3.2-social-tom,2023.2.2,MacIntel,121.9512195,65c5074098b851296ff0b7ed,664233bd46ca20fbe61147f8,,,,,,,,,,,,,,,,,,,,,,,,,,,,,1357.1634,1,audio/Narrative8Situation9.wav,1359.1698,,,,,,,1391.0265,1395.2435,97.40804036,2.0714,"[{""rating"":97.40804036458333,""responseTime"":2.0714000000953092}]",space,3.6993,,1391.0187,Half the time,50,1391.0264,,,[],,,,,,,,,,,2,2,2,2,,,,,,,,,,,,,,,1354.5781,1357.1542,1359.1705,3,1391.0187,"[[100,3664],[100,6165],[100,6248],[100,6331],[100,6416],[100,6500],[100,6583],[100,6664],[100,6748],[100,6832],[100,6915],[100,6997],[100,7081],[100,7166],[100,7249],[100,7332],[100,7414],[100,7498],[100,7582],[100,7665],[100,7748],[100,7832],[100,7914],[100,7997],[100,8082],[100,8165],[100,8249],[100,8332],[100,8415],[100,8498],[100,8582],[100,8665],[100,8748],[100,8832],[100,8915],[100,8998],[100,9082],[100,9165],[100,9248],[100,9332],[100,9415],[100,9500],[100,9582],[100,9665],[100,9749],[100,9832],[100,9915],[100,9998],[100,10084],[100,10165],[100,10249],[100,10331],[100,10419],[100,10498],[100,10584],[100,10665],[100,10749],[100,10832],[100,10915],[100,10999],[100,11082],[100,11165],[100,11250],[100,11332],[100,11414],[100,11498],[100,11581],[100,11665],[100,11748],[100,11832],[100,11915],[100,11998],[100,12081],[100,12166],[100,12248],[100,12331],[100,12415],[100,12498],[100,12582],[100,12666],[100,12749],[100,12832],[100,12916],[100,12998],[100,13082],[100,13165],[100,13248],[100,13332],[100,13415],[100,13498],[100,13581],[100,13667],[100,13748],[100,13832],[100,13915],[100,13998],[100,14082],[100,14166],[100,14249],[100,14333],[100,14415],[100,14498],[100,14582],[100,14664],[100,14749],[100,14832],[100,14914],[100,15001],[100,15082],[100,15164],[100,15248],[100,15332],[100,15417],[100,15499],[100,15582],[100,15665],[100,15749],[100,15832],[100,15915],[100,15998],[100,16083],[100,16165],[100,16249],[100,16332],[100,16415],[100,16498],[100,16582],[100,16667],[100,16749],[100,16832],[100,16915],[100,16998],[100,17081],[100,17165],[100,17249],[100,17331],[100,17414],[100,17503],[100,17582],[100,17665],[100,17748],[100,17832],[100,17915],[100,17999],[100,18082],[100,18164],[100,18248],[100,18332],[100,18415],[100,18499],[100,18582],[100,18666],[100,18748],[100,18831],[100,18916],[100,18998],[100,19081],[100,19165],[100,19247],[100,19332],[100,19415],[100,19498],[100,19582],[100,19665],[100,19749],[100,19831],[100,19915],[100,19998],[100,20084],[100,20165],[100,20250],[100,20331],[100,20415],[100,20498],[100,20582],[100,20664],[100,20748],[100,20832],[100,20915],[100,20998],[100,21081],[100,21165],[100,21248],[100,21332],[100,21415],[100,21500],[100,21583],[100,21666],[100,21748],[100,21832],[100,21915],[100,21999],[100,22082],[100,22165],[100,22248],[100,22332],[100,22414],[100,22499],[100,22582],[100,22665],[100,22749],[100,22831],[100,22915],[100,22998],[100,23082],[100,23165],[100,23248],[100,23331],[100,23415],[100,23501],[100,23582],[100,23665],[100,23748],[100,23832],[100,23915],[100,23998],[100,24082],[100,24165],[100,24248],[100,24331],[100,24415],[100,24498],[100,24581],[100,24664],[100,24751],[100,24832],[100,24914],[100,24998],[100,25083],[100,25164],[100,25248],[100,25332],[100,25415],[100,25499],[100,25582],[100,25665],[100,25749],[100,25831],[100,25915],[100,25998],[100,26082],[100,26164],[100,26248],[100,26333],[100,26415],[100,26500],[100,26581],[100,26665],[100,26748],[100,26834],[100,26914],[100,26998],[100,27082],[100,27164],[100,27248],[100,27332],[100,27417],[100,27499],[100,27582],[100,27665],[100,27748],[100,27832],[100,27915],[100,27998],[100,28082],[100,28165],[100,28248],[100,28333],[100,28415],[100,28499],[100,28582],[100,28667],[100,28747],[100,28833],[100,28915],[100,28999],[100,29081],[100,29165],[100,29248],[100,29332],[100,29415],[100,29499],[100,29582],[100,29665],[100,29751],[100,29832],[100,29915],[100,29999],[100,30082],[100,30165],[100,30249],[100,30332],[100,30415],[100,30498],[100,30582],[100,30666],[100,30748],[100,30832],[100,30916],[100,31000],[100,31082],[100,31164],[100,31248],[100,31331],[100,31416],[100,31499],[100,31582],[100,31665],[100,31748],[100,31832]]",0,0,0,0,1,"Larry had recently lost his family, job and home, and was now living on his own in the park. He had most of his belongings, including some clothes, a blanket, and his mother’s special necklace. His family had been very important to him and he felt as though he did not have much going for him. One of his first days in the park he came across a family that did not have much food and looked very cold. He decided to give them some of his food and his blanket.","Larry had recently lost his family, job and home, and was now living on his own in the park. He had most of his belongings, including some clothes, a blanket, and his mother’s special necklace. His family had been very important to him and he felt as though he did not have much going for him. One of his first days in the park he came across a family that did not have much food and looked very cold. He decided to give them some of his food and his blanket.","Larry had recently lost his family, job and home, and was now living on his own in the park. He had most of his belongings, including some clothes, a blanket, and his mother’s special necklace. His family had been very important to him and he felt as though he did not have much going for him. One of his first days in the park he came across a family that did not have much food and looked very cold. He decided to give them some of his food and his blanket.","Larry had recently lost his family, job and home, and was now living on his own in the park. He had most of his belongings, including some clothes, a blanket, and his mother’s special necklace. His family had been very important to him and he felt as though he did not have much going for him. One of his first days in the park he came across a family that did not have much food and looked very cold. He decided to give them some of his food and his blanket.",,,,,,,,,,
,,,,,,63d5e3bf4a739d1158b9ce64,2024-05-13_11h38.36.714,group3.1-3.2-social-tom,2023.2.2,MacIntel,121.9512195,65c5074098b851296ff0b7ed,664233bd46ca20fbe61147f8,,,,,,,,,,,,,,,,,,,,,,,,,,,,,1395.244,1,audio/Narrative8Situation9.wav,1465.2965,space,,,,,,1498.8157,1501.8769,88.12481916,2.5809,"[{""rating"":88.1248191550926,""responseTime"":2.5809000000951983}]",space,2.5439,,1498.8032,Not at all,0,1498.8157,,,[],,,,,,,,,,,6,2,3,9,70.0396,,,,,,,,,,,,,,,,1465.2966,3,1498.8032,[],0,1,1,1,1,"It was just another Sunday afternoon for Lucy, she was on her way to the farmer's market to pick up some produce. When she arrived at the old train depot that housed the market, she noticed two men fighting on the steps. Before she could call for help, one of the men crumpled to his knees. The other man dropped an object that appeared to be a knife and ran off. When Lucy approached the crime scene she realized that the man who had been murdered was the Mayor and that he had a gunshot wound.","One day at work, Margaret walked up to her partner, Al, to ask him to talk to the chief of staff at the local hospital where she worked as a nurse.","Luke always thought of himself as an honest man. That's why during his evening jog around the swamp, he pondered his recent affair with the receptionist at work. Luke looked up at the sky and asked God why he was so weak and unfaithful. He thought of the impact this would have on his family and told God of his conflicted feelings toward telling his wife Marta.","Linda and Amy had been best friends since kindergarten, they even found homes on the same street in the forest on the edge of town. Their biggest fight had been over who gets the bigger slice of cake, until Amy married Dan. Linda loathed Dan, she thought he was manipulative and had a violent temper. She only put up with him because Amy loved him. ",,,,,,,,,,
