exp_question,consent.started,consent.stopped,consentResponse.keys,consentResponse.rt,consentResponse.duration,participantID,date,expName,psychopyVersion,OS,frameRate,STUDY_ID,SESSION_ID,opening1.started,opening1.stopped,keyEndingOpening1.keys,keyEndingOpening1.rt,keyEndingOpening1.duration,volumeAdjust.started,volumeAdjust.stopped,endingAdjust.keys,endingAdjust.rt,endingAdjust.duration,opening2.started,opening2.stopped,keyEndingOpening.keys,keyEndingOpening.rt,keyEndingOpening.duration,mouse.x,mouse.y,mouse.leftButton,mouse.midButton,mouse.rightButton,mouse.time,instructionLoop.thisRepN,instructionLoop.thisTrialN,instructionLoop.thisN,instructionLoop.thisIndex,instructionLoop.ran,readyForAudio.started,readyForAudio.stopped,fixation.started,run,audio_played,fixation.stopped,endPractice.keys,audioPre.started,audioPre.stopped,continuousResponses_audio,continuousSlider.response,continuousSlider.rt,intRating.started,intRating.stopped,intQuestionSlider.response,intQuestionSlider.rt,intQuestionSlider.history,confirmResponse.keys,confirmResponse.rt,confirmResponse.duration,catchQuestion.started,catch_label,catch_value,catchQuestion.stopped,catchQuestionSlider.response,catchQuestionSlider.rt,catchQuestionSlider.history,confirmResponse_2.keys,audioRunLoop.thisRepN,audioRunLoop.thisTrialN,audioRunLoop.thisN,audioRunLoop.thisIndex,audioRunLoop.ran,conditions1_1,conditions2_1,conditions1_2,conditions2_2,dur1_1,dur2_1,dur1_2,dur2_2,endPractice.rt,endPractice.duration,confirmResponse_2.rt,confirmResponse_2.duration,runIntervalBreak.started,runIntervalBreak.stopped,endingBreakKey.keys,endingBreakKey.rt,endingBreakKey.duration,connection.started,connection.stopped,connectionEnding.keys,connectionEnding.rt,connectionEnding.duration,readyForText.started,readyForText.stopped,textPre.started,run_dup,textPre.stopped,continuousResponses_text,textRunLoop.thisRepN,textRunLoop.thisTrialN,textRunLoop.thisN,textRunLoop.thisIndex,textRunLoop.ran,text1_1,text1_2,text2_1,text2_2,runBreakText.started,runBreakText.stopped,endingBreakKey_2.keys,endingBreakKey_2.rt,endingBreakKey_2.duration,ending.started,ending.stopped,endingEnding.keys,endingEnding.rt,endingEnding.duration
social,0.0003,187.5479,y,187.2269,,63d6873b65a6170d64a652f6,2024-05-13_10h58.13.018,group3.1-3.2-social-tom,2023.2.2,Linux x86_64,60.24096386,65c5074098b851296ff0b7ed,664236db582b2c238b6d90b4,,,,,,,,,,,,,,,,,,,,,,,,,,,,,,,,,,,,,,,,,,,,,,,,,,,,,,,,,,,,,,,,,,,,,,,,,,,,,,,,,,,,,,,,,,,,,,,,,,,,,,,,,,
,,,,,,63d6873b65a6170d64a652f6,2024-05-13_10h58.13.018,group3.1-3.2-social-tom,2023.2.2,Linux x86_64,60.24096386,65c5074098b851296ff0b7ed,664236db582b2c238b6d90b4,187.5488,192.1709,space,4.5758,,,,,,,,,,,,,,,,,,,,,,,,,,,,,,,,,,,,,,,,,,,,,,,,,,,,,,,,,,,,,,,,,,,,,,,,,,,,,,,,,,,,,,,,,,,,,,,,,,,,,,
,,,,,,63d6873b65a6170d64a652f6,2024-05-13_10h58.13.018,group3.1-3.2-social-tom,2023.2.2,Linux x86_64,60.24096386,65c5074098b851296ff0b7ed,664236db582b2c238b6d90b4,,,,,,192.1712,198.4845,space,5.9835,,,,,,,,,,,,,,,,,,,,,,,,,,,,,,,,,,,,,,,,,,,,,,,,,,,,,,,,,,,,,,,,,,,,,,,,,,,,,,,,,,,,,,,,,,,,,,,,,
,,,,,,63d6873b65a6170d64a652f6,2024-05-13_10h58.13.018,group3.1-3.2-social-tom,2023.2.2,Linux x86_64,60.24096386,65c5074098b851296ff0b7ed,664236db582b2c238b6d90b4,,,,,,,,,,,198.5429,208.1751,space,9.5869,,[],[],[],[],[],[],0,0,0,0,1,,,,,,,,,,,,,,,,,,,,,,,,,,,,,,,,,,,,,,,,,,,,,,,,,,,,,,,,,,,,,,,,,,,,,,,,,,,,,,,,
,,,,,,63d6873b65a6170d64a652f6,2024-05-13_10h58.13.018,group3.1-3.2-social-tom,2023.2.2,Linux x86_64,60.24096386,65c5074098b851296ff0b7ed,664236db582b2c238b6d90b4,,,,,,,,,,,208.1878,219.5904,space,11.2499,,[],[],[],[],[],[],1,0,1,0,1,,,,,,,,,,,,,,,,,,,,,,,,,,,,,,,,,,,,,,,,,,,,,,,,,,,,,,,,,,,,,,,,,,,,,,,,,,,,,,,,
,,,,,,63d6873b65a6170d64a652f6,2024-05-13_10h58.13.018,group3.1-3.2-social-tom,2023.2.2,Linux x86_64,60.24096386,65c5074098b851296ff0b7ed,664236db582b2c238b6d90b4,,,,,,,,,,,219.6318,229.7295,space,9.9889,,[],[],[],[],[],[],2,0,2,0,1,,,,,,,,,,,,,,,,,,,,,,,,,,,,,,,,,,,,,,,,,,,,,,,,,,,,,,,,,,,,,,,,,,,,,,,,,,,,,,,,
,,,,,,63d6873b65a6170d64a652f6,2024-05-13_10h58.13.018,group3.1-3.2-social-tom,2023.2.2,Linux x86_64,60.24096386,65c5074098b851296ff0b7ed,664236db582b2c238b6d90b4,,,,,,,,,,,229.7633,252.3004,space,22.5006,,[],[],[],[],[],[],3,0,3,0,1,,,,,,,,,,,,,,,,,,,,,,,,,,,,,,,,,,,,,,,,,,,,,,,,,,,,,,,,,,,,,,,,,,,,,,,,,,,,,,,,
,,,,,,63d6873b65a6170d64a652f6,2024-05-13_10h58.13.018,group3.1-3.2-social-tom,2023.2.2,Linux x86_64,60.24096386,65c5074098b851296ff0b7ed,664236db582b2c238b6d90b4,,,,,,,,,,,252.3103,258.767,space,6.4372,,[],[],[],[],[],[],4,0,4,0,1,,,,,,,,,,,,,,,,,,,,,,,,,,,,,,,,,,,,,,,,,,,,,,,,,,,,,,,,,,,,,,,,,,,,,,,,,,,,,,,,
,,,,,,63d6873b65a6170d64a652f6,2024-05-13_10h58.13.018,group3.1-3.2-social-tom,2023.2.2,Linux x86_64,60.24096386,65c5074098b851296ff0b7ed,664236db582b2c238b6d90b4,,,,,,,,,,,,,,,,,,,,,,,,,,,258.8103,261.3935,261.5012,1,audio/Narrative13Situation2.wav,263.5034,,263.5035,293.259,"[[999,1],[999,150],[999,232],[999,315],[999,398],[999,482],[999,570],[999,648],[999,732],[999,815],[999,898],[999,980],[999,1064],[999,1147],[999,1230],[999,1313],[999,1396],[999,1480],[999,1562],[999,1650],[999,1734],[999,1817],[999,1902],[999,1989],[999,2062],[999,2154],[999,2234],[999,2315],[999,2393],[999,2476],[999,2565],[999,2650],[999,2733],[52.3,2813],[52.3,2900],[52.3,2981],[52.3,3058],[52.3,3145],[52.3,3224],[52.3,3313],[52.3,3396],[52.3,3480],[52.3,3562],[51.4,3648],[50.3,3736],[50,3826],[49.9,3906],[49.9,3988],[49.9,4072],[49.9,4155],[49.9,4239],[49.9,4321],[49.9,4404],[49.9,4488],[49.9,4572],[49.9,4654],[49.9,4737],[49.9,4823],[49.9,4904],[49.9,4987],[49.9,5070],[49.9,5159],[49.9,5235],[49.9,5319],[49.9,5403],[49.9,5485],[49.9,5567],[49.9,5651],[49.9,5734],[49.9,5818],[49.9,5900],[49.9,5984],[49.9,6067],[49.9,6153],[49.9,6233],[49.9,6316],[49.9,6399],[49.9,6483],[49.9,6566],[49.9,6648],[49.9,6738],[49.9,6815],[49.9,6898],[49.9,6980],[49.9,7065],[49.9,7147],[49.9,7232],[49.9,7313],[49.9,7397],[49.9,7480],[49.9,7563],[49.9,7646],[49.9,7728],[49.9,7812],[49.9,7895],[49.9,7978],[49.9,8060],[49.9,8144],[50.7,8229],[52,8311],[54.3,8394],[56.3,8477],[57.3,8560],[58.8,8643],[60,8726],[61.6,8812],[62.7,8894],[63.5,8976],[64.5,9068],[65.6,9142],[66.7,9226],[67.7,9312],[68.1,9391],[68.1,9474],[68.1,9558],[68.1,9640],[68.1,9724],[68.1,9807],[68.5,9890],[69.9,9975],[70.8,10056],[72,10139],[73.3,10222],[73.8,10305],[74.2,10388],[75,10474],[75.5,10557],[76.1,10638],[76.9,10721],[77.5,10804],[78,10888],[78.3,10976],[78.6,11056],[78.9,11136],[79,11220],[79.1,11303],[79.2,11386],[79.3,11468],[79.5,11554],[79.6,11636],[79.7,11719],[79.8,11802],[80,11885],[80,11967],[80.1,12051],[80.1,12136],[80.2,12216],[80.2,12299],[80.3,12382],[80.3,12467],[80.4,12550],[80.5,12632],[80.5,12716],[80.6,12811],[80.6,12882],[80.6,12964],[80.6,13047],[80.6,13131],[80.6,13215],[80.6,13297],[80.6,13381],[80.6,13489],[80.6,13564],[80.6,13645],[80.6,13728],[80.6,13812],[80.6,13896],[80.6,13982],[80.7,14062],[80.9,14146],[81.4,14228],[81.5,14312],[81.7,14395],[81.9,14478],[82.1,14560],[82.3,14643],[82.5,14727],[82.7,14828],[82.8,14913],[83,15003],[83.1,15076],[81.3,15160],[80.5,15241],[79.7,15324],[78.9,15407],[78,15490],[76.9,15575],[75.8,15657],[74.9,15742],[73.8,15823],[72.9,15910],[72.3,15989],[71.7,16074],[71.1,16157],[70.4,16243],[69.6,16334],[69.2,16406],[68.7,16488],[68.1,16572],[67.7,16654],[67.1,16738],[66.5,16822],[66,16907],[65.5,16988],[64.9,17071],[64,17155],[63.4,17237],[62.8,17321],[61.9,17404],[61.3,17487],[60.7,17570],[60.2,17652],[59.6,17738],[58.3,17847],[57.2,17918],[55.8,18000],[54.3,18084],[52.7,18167],[51.3,18253],[51.3,18333],[51.3,18416],[51.3,18500],[51.3,18583],[50.3,18669],[44.8,18760],[43.5,18835],[42.7,18924],[42.5,18998],[41.6,19081],[41,19165],[40.7,19258],[40.4,19332],[39.6,19416],[39.1,19496],[38.6,19581],[38.3,19663],[37.8,19749],[37.4,19830],[36.5,19914],[35.8,19997],[35,20079],[34.5,20163],[33.8,20245],[33.4,20328],[32.8,20411],[32.1,20494],[31.4,20578],[31.1,20694],[31.1,20777],[31.1,20859],[31.1,20942],[31.1,21034],[30.8,21108],[29.9,21193],[29,21276],[28,21359],[27.2,21442],[26.8,21525],[26,21610],[25.1,21693],[24.9,21775],[24.8,21857],[24.8,21940],[24.8,22023],[24.7,22106],[24.6,22189],[24.7,22272],[25.8,22355],[26.7,22440],[27.5,22522],[28,22606],[28.4,22689],[28.8,22772],[30.6,22854],[31.3,22938],[32.5,23021],[36.2,23104],[39.4,23188],[40.8,23271],[42.8,23353],[44.9,23436],[46.6,23520],[48.1,23603],[49.3,23687],[50.2,23768],[51.6,23851],[53.1,23937],[53.9,24019],[54.8,24102],[57.2,24185],[59.2,24269],[59.9,24350],[60,24434],[60,24517],[60,24600],[60,24686],[60,24766],[60,24848],[60,24933],[60,25014],[60,25098],[60,25182],[60,25265],[59.2,25348],[58.4,25432],[57.9,25514],[57.2,25598],[56.6,25681],[56.2,25763],[55.4,25846],[54.8,25930],[54.4,26013],[54,26096],[53.6,26179],[53.3,26262],[52.9,26367],[52.6,26445],[52.2,26527],[51.9,26610],[51.7,26693],[51.4,26777],[51.2,26861],[50.9,26943],[50.6,27027],[50.2,27110],[50,27193],[49.7,27276],[49.6,27359],[49.5,27443],[49.4,27525],[49.4,27608],[49.4,27691],[49.4,27774],[49.4,27858],[49.4,27940],[49.4,28023],[49.4,28107],[49.4,28189],[49.4,28277],[49.4,28362],[49.4,28438],[49.4,28521],[49.4,28605],[49.4,28688],[49.4,28772],[49.4,28854],[49.4,28937],[49.4,29021],[49.4,29104],[49.4,29187],[49.4,29270],[49.4,29353],[49.4,29437],[49.4,29519],[49.4,29602],[49.4,29685]]",1,0,293.2606,307.5868,36.79688136,11.8669,"[{""rating"":36.796881357828774,""responseTime"":11.866900000000442}]",space,13.7847,,307.5877,Partially,50,307.6002,,,[],,0,0,0,0,1,audio/Narrative13Situation2.wav,audio/Narrative13Situation2.wav,audio/Narrative13Situation2.wav,audio/Narrative13Situation2.wav,2,2,2,2,,,,,,,,,,,,,,,,,,,,,,,,,,,,,,,,,,,,,,,
,,,,,,63d6873b65a6170d64a652f6,2024-05-13_10h58.13.018,group3.1-3.2-social-tom,2023.2.2,Linux x86_64,60.24096386,65c5074098b851296ff0b7ed,664236db582b2c238b6d90b4,,,,,,,,,,,,,,,,,,,,,,,,,,,,,307.6012,1,audio/Narrative7Situation1.wav,309.3126,space,309.3127,365.2103,"[[999,3],[999,82],[999,168],[999,248],[999,332],[999,415],[999,499],[999,581],[999,665],[999,750],[999,832],[999,914],[999,1035],[999,1115],[999,1197],[999,1278],[999,1362],[999,1446],[999,1537],[999,1613],[999,1697],[999,1788],[999,1870],[999,1943],[51.1,2032],[50.7,2116],[50.4,2192],[50.3,2280],[50.3,2359],[50.2,2444],[50.1,2526],[49.9,2609],[49.8,2700],[49.8,2774],[49.8,2863],[49.8,2949],[49.8,3028],[49.8,3107],[49.8,3190],[49.8,3274],[49.8,3356],[49.8,3440],[49.8,3530],[49.8,3612],[49.8,3688],[49.8,3777],[49.8,3858],[49.8,3939],[49.8,4023],[49.8,4105],[49.8,4187],[49.8,4278],[49.7,4362],[49.4,4443],[49.2,4520],[48.8,4611],[48.5,4695],[48.1,4777],[47.8,4862],[47.6,4946],[47.2,5023],[46.8,5113],[46.6,5192],[46.3,5267],[46.1,5357],[45.9,5439],[45.7,5527],[45.4,5608],[45.2,5684],[44.9,5775],[44.7,5863],[44.5,5933],[44.3,6016],[44.1,6103],[43.8,6182],[43.6,6266],[43.3,6350],[43.1,6432],[43,6515],[42.9,6603],[42.7,6681],[42.6,6763],[42.5,6847],[42.4,6931],[42.3,7015],[42.2,7096],[42.1,7182],[42,7267],[42,7350],[42,7432],[41.9,7511],[41.8,7595],[41.7,7681],[41.6,7773],[41.5,7845],[41.4,7929],[41.4,8011],[41.4,8094],[41.4,8177],[41.5,8260],[41.9,8342],[42.7,8445],[43.3,8526],[43.6,8615],[44.1,8693],[44.3,8776],[44.6,8859],[44.8,8952],[44.9,9024],[45.2,9107],[45.4,9194],[45.7,9285],[45.9,9359],[46.1,9440],[46.3,9523],[46.6,9606],[46.9,9695],[47.1,9773],[47.3,9856],[47.5,9940],[47.6,10023],[47.7,10107],[47.9,10189],[48.1,10272],[48.4,10355],[48.6,10440],[48.9,10523],[49.1,10605],[49.3,10687],[49.4,10770],[49.5,10853],[49.6,10937],[49.7,11021],[49.9,11102],[50,11200],[50.1,11268],[50.2,11351],[50.3,11436],[50.3,11518],[50.3,11601],[50.3,11684],[50.3,11768],[50.3,11859],[50.3,11933],[50.3,12017],[50.3,12099],[50.3,12183],[50.3,12265],[50.3,12350],[50.4,12433],[50.5,12517],[50.5,12599],[50.6,12682],[50.6,12764],[50.6,12848],[50.6,12939],[50.7,13020],[50.8,13097],[50.9,13179],[51.1,13263],[51.4,13346],[51.7,13434],[52.3,13513],[53.2,13598],[53.9,13680],[54.6,13762],[55.5,13844],[56.6,13927],[58.5,14011],[61.1,14095],[62.9,14179],[64,14261],[65.4,14346],[66.3,14427],[66.3,14510],[66.3,14593],[66.3,14676],[66.3,14759],[66.3,14842],[66.3,14925],[66.6,15015],[67.4,15092],[68.4,15175],[69.2,15258],[69.5,15340],[69.7,15423],[69.8,15508],[69.9,15590],[70.1,15674],[70.4,15757],[70.8,15839],[71.2,15923],[71.5,16014],[72.1,16110],[72.4,16191],[72.7,16271],[72.8,16355],[73.1,16439],[73.4,16521],[73.7,16604],[73.8,16687],[74,16775],[74.1,16853],[74.5,16936],[74.7,17020],[75,17104],[75.1,17186],[75.2,17269],[75.3,17353],[75.4,17435],[75.4,17518],[75.4,17601],[75.3,17686],[75,17770],[74.8,17866],[74.3,17950],[74,18018],[73.6,18100],[73.1,18184],[72.5,18269],[72.1,18349],[71.8,18438],[71.3,18549],[70.9,18633],[70.5,18718],[70.2,18806],[69.8,18883],[69.5,18966],[69.2,19046],[68.9,19130],[68.6,19214],[68.3,19297],[67.9,19380],[67.7,19463],[67.3,19546],[66.9,19629],[66.7,19714],[66.6,19796],[66.9,19879],[67.3,19962],[67.5,20045],[68.2,20132],[68.3,20211],[68.6,20293],[68.9,20385],[69.1,20460],[69.2,20543],[69.3,20627],[69.4,20710],[69.6,20795],[69.7,20876],[69.9,20959],[70,21052],[70.1,21124],[70.2,21207],[70.4,21291],[70.5,21375],[70.6,21458],[70.7,21540],[70.7,21624],[70.7,21707],[70.8,21790],[70.8,21874],[70.9,21955],[70.9,22038],[71,22123],[71.1,22209],[71.2,22288],[71.3,22372],[71.5,22457],[71.5,22538],[71.5,22638],[71.5,22720],[71.5,22805],[71.2,22887],[70.7,22970],[70.4,23057],[70.2,23136],[69.9,23218],[69.8,23302],[69.6,23386],[69.5,23474],[69.4,23553],[69.3,23635],[69.1,23718],[69.1,23801],[69.1,23884],[69.1,23969],[69,24051],[68.9,24135],[68.9,24216],[68.9,24299],[68.9,24382],[68.9,24465],[68.9,24548],[68.9,24631],[68.9,24715],[68.9,24798],[68.9,24881],[68.9,24964],[68.9,25047],[68.9,25131],[68.9,25238],[68.9,25313],[68.9,25396],[68.9,25481],[68.9,25567],[68.9,25647],[68.9,25749],[68.9,25828],[68.9,25911],[68.9,25994],[68.9,26078],[68.9,26163],[68.9,26246],[68.9,26326],[68.9,26410],[68.9,26493],[68.9,26576],[68.9,26659],[68.9,26743],[68.9,26826],[68.9,26908],[68.9,26991],[68.9,27074],[68.9,27158],[68.9,27241],[68.9,27324],[68.9,27407],[68.9,27490],[68.9,27574],[68.9,27658],[68.9,27740],[68.9,27823],[68.9,27906],[68.9,27990],[68.2,28096],[67.4,28208],[66.9,28289],[65.9,28374],[65.1,28455],[64.3,28540],[63.4,28621],[62.4,28705],[61.6,28792],[60.6,28870],[59.6,28956],[58.9,29041],[58.5,29120],[58.4,29209],[58.3,29286],[58.3,29369],[58.3,29453],[58.1,29537],[57.5,29618],[56.6,29702],[55.9,29785],[55.3,29868],[53.8,29964],[52.8,30050],[52.7,30133],[52.4,30216],[52.2,30300],[52,30382],[51.9,30467],[51.7,30551],[51.6,30633],[51.3,30716],[51.2,30799],[50.7,30887],[50.5,30966],[50.1,31049],[50.1,31130],[50.1,31213],[50.1,31298],[50.1,31380],[49.5,31463],[48.8,31547],[47.4,31641],[46.2,31723],[45.8,31796],[45.1,31878],[44.8,31961],[44.9,32044],[45.9,32129],[47.2,32216],[48.1,32295],[48.4,32379],[48.5,32461],[48.9,32544],[49.4,32627],[50.2,32709],[50.6,32793],[51.3,32880],[52.4,32962],[53.2,33044],[54.6,33125],[55.5,33209],[56.8,33292],[58.9,33380],[59.1,33458],[59.1,33544],[59.1,33623],[59.1,33714],[59.1,33790],[59.3,33873],[60.1,33956],[61.1,34039],[62,34124],[62.3,34206],[62.6,34291],[62.9,34375],[63.2,34455],[63.4,34538],[63.7,34621],[64,34704],[64.2,34789],[64.5,34872],[65,34956],[65.4,35043],[65.9,35121],[66.2,35205],[66.7,35297],[67.1,35370],[68.1,35452],[69.1,35536],[70.2,35618],[71.6,35702],[71.9,35786],[72,35869],[72,35951],[72,36041],[72,36117],[72,36200],[72.8,36290],[73.9,36368],[75,36449],[75.8,36533],[76.6,36616],[77.5,36700],[78.4,36784],[78.9,36884],[79.3,36966],[79.8,37047],[80.2,37134],[80.4,37214],[80.5,37297],[80.5,37380],[80.5,37463],[80.5,37548],[80.5,37630],[80.5,37713],[80.5,37796],[80.5,37879],[80.5,37962],[80.5,38045],[80.5,38129],[79.6,38212],[79.3,38307],[78.6,38377],[77.9,38461],[77.2,38545],[76.4,38630],[75.9,38710],[75.4,38793],[74.9,38879],[74.4,38960],[74,39043],[73.9,39127],[73.6,39211],[73.3,39298],[73.1,39375],[73,39458],[72.9,39547],[72.8,39624],[72.7,39707],[72.5,39792],[72.4,39873],[72.3,39956],[72.2,40040],[72.2,40125],[72.2,40205],[72.2,40288],[72.2,40376],[72.2,40455],[72.2,40538],[72.2,40621],[72.2,40706],[72.2,40788],[72.9,40872],[73.9,40954],[75,41038],[76.2,41122],[77.6,41206],[78.4,41287],[79.2,41372],[79.4,41453],[79.6,41537],[79.7,41624],[79.7,41705],[79.7,41785],[79.7,41868],[79.7,41954],[79.7,42034],[79.7,42117],[79.8,42201],[80,42284],[80.3,42370],[80.6,42450],[80.9,42534],[81.2,42618],[81.4,42701],[81.6,42783],[81.7,42866],[82,42949],[82.2,43033],[82.6,43115],[83.1,43198],[83.6,43282],[84.6,43366],[85.3,43448],[86.3,43531],[87.2,43614],[88,43698],[89.1,43780],[90.1,43865],[90.7,43948],[91.5,44031],[92.2,44113],[92.8,44196],[93.2,44279],[93.4,44362],[93.7,44446],[94,44528],[94.3,44613],[94.6,44729],[94.8,44812],[94.9,44893],[95,44978],[95.1,45060],[95.3,45145],[95.4,45227],[95.5,45309],[95.6,45392],[95.8,45475],[95.8,45559],[95.8,45641],[95.8,45724],[95.7,45808],[94.8,45891],[93.4,45974],[92.7,46057],[91.8,46141],[90.8,46223],[89.6,46307],[88.6,46390],[87.7,46473],[86.6,46556],[85.8,46639],[85.1,46722],[84.3,46805],[83.4,46892],[82.7,46971],[82.1,47054],[81.2,47137],[80.4,47220],[79.4,47303],[78.3,47386],[77.7,47471],[77.4,47557],[76.9,47636],[77,47719],[80.4,47802],[81.2,47885],[82.2,47970],[83.5,48053],[84.3,48136],[84.8,48218],[85,48325],[85.4,48425],[85.6,48500],[85.9,48583],[86.2,48667],[86.5,48749],[86.7,48833],[86.9,48916],[87,49000],[87.1,49082],[87.2,49166],[87.4,49248],[87.5,49331],[87.6,49424],[87.7,49499],[87.9,49580],[88,49664],[88.1,49757],[88.1,49829],[88.1,49913],[88.2,49997],[88.3,50079],[88.4,50163],[88.5,50245],[88.6,50330],[88.7,50412],[88.7,50497],[88.8,50578],[88.9,50661],[89,50744],[89.1,50828],[89.2,50911],[89.2,51013],[89.3,51093],[89.4,51176],[89.6,51260],[89.7,51343],[89.8,51426],[89.9,51509],[90.1,51592],[90.2,51678],[90.5,51766],[90.7,51841],[91,51925],[91.5,52009],[91.9,52091],[92.4,52174],[92.8,52258],[93.2,52341],[93.6,52423],[93.8,52506],[94,52589],[94.2,52671],[94.3,52756],[94.4,52839],[94.5,52921],[94.5,53004],[94.5,53088],[94.1,53171],[93.4,53254],[92.9,53337],[92.6,53421],[92.2,53503],[91.9,53586],[91.7,53669],[91.4,53753],[91.2,53838],[91,53922],[90.8,54002],[90.3,54086],[89.9,54185],[89.7,54267],[89.5,54351],[89.3,54434],[89.2,54517],[89.1,54600],[88.9,54685],[88.8,54766],[88.8,54849],[88.8,54932],[88.8,55015],[88.8,55098],[88.8,55199],[88.8,55281],[88.8,55364],[88.8,55448],[88.8,55530],[88.8,55613],[88.8,55697],[88.8,55780],[88.8,55863]]",1,0,365.2112,369.0008,83.39474996,3.0043,"[{""rating"":83.39474995930989,""responseTime"":3.0042999999989206}]",space,3.2464,,369.0011,Partially,50,369.0092,,,[],,0,1,1,1,1,audio/Narrative7Situation1.wav,audio/Narrative8Situation1.wav,audio/Narrative5Situation1.wav,audio/Narrative6Situation1.wav,2,5,5,2,1.6868,,,,,,,,,,,,,,,,,,,,,,,,,,,,,,,,,,,,,,
,,,,,,63d6873b65a6170d64a652f6,2024-05-13_10h58.13.018,group3.1-3.2-social-tom,2023.2.2,Linux x86_64,60.24096386,65c5074098b851296ff0b7ed,664236db582b2c238b6d90b4,,,,,,,,,,,,,,,,,,,,,,,,,,,,,369.0101,1,audio/Narrative7Situation2.wav,372.0135,,372.0135,379.496,"[[78.8,592],[48.7,1340],[48.7,1423],[48.7,1506],[48.7,1589],[48.7,1673],[48.9,1757],[49.7,1844],[50.4,1926],[50.5,2006],[50.9,2088],[54,2173],[56.7,2254],[64.1,2338],[64.5,2422],[64.5,2504],[64.5,2587],[64.5,2671],[66.1,2755],[68.2,2837],[70,2919],[71.3,3003],[72.6,3085],[73.8,3170],[74.2,3253],[75,3335],[75,3418],[75,3501],[75,3586],[75,3669],[75,3751],[75,3833],[75,3924],[75.1,4000],[75.3,4084],[75.6,4171],[76.3,4253],[76.9,4333],[77.4,4416],[77.9,4499],[78.4,4582],[78.8,4666],[79.1,4748],[79.3,4830],[79.5,4914],[79.8,4997],[79.9,5081],[80.1,5164],[80.2,5248],[80.4,5330],[80.5,5415],[80.7,5497],[80.9,5583],[81,5662],[81.2,5744],[81.3,5829],[81.5,5913],[81.6,5995],[81.8,6078],[82,6161],[82.1,6244],[82.3,6337],[82.5,6410],[82.6,6493],[82.7,6576],[82.9,6659],[83,6742],[83.1,6827],[83.2,6909],[83.3,6992],[83.5,7075],[83.5,7158],[83.5,7242],[83.5,7330],[83.5,7406]]",1,0,379.4961,383.4106,88.2326889,3.1426,"[{""rating"":88.2326889038086,""responseTime"":3.1425999999996748}]",space,3.3783,,383.4109,Definitely yes,100,404.355,99.49315389,17.1608,"[{""rating"":99.49315388997395,""responseTime"":17.16080000000079}]",space,0,2,2,2,1,audio/Narrative7Situation2.wav,audio/Narrative8Situation2.wav,audio/Narrative5Situation2.wav,audio/Narrative6Situation2.wav,3,3,3,3,,,20.3999,,,,,,,,,,,,,,,,,,,,,,,,,,,,,,,,,,,,
,,,,,,63d6873b65a6170d64a652f6,2024-05-13_10h58.13.018,group3.1-3.2-social-tom,2023.2.2,Linux x86_64,60.24096386,65c5074098b851296ff0b7ed,664236db582b2c238b6d90b4,,,,,,,,,,,,,,,,,,,,,,,,,,,,,404.3563,1,audio/Narrative7Situation3.wav,411.019,space,411.0193,420.2764,"[[999,1],[999,85],[999,164],[999,266],[999,347],[999,430],[999,513],[999,597],[999,680],[999,765],[999,848],[999,929],[999,1012],[52.8,1096],[46,2209],[46,2292],[46,2375],[46,2458],[46,2543],[46.9,2625],[47.3,2708],[47.8,2791],[48.5,2875],[48.8,2958],[49.8,3040],[49.9,3123],[49.9,3206],[49.9,3289],[49.9,3372],[49.9,3456],[46.9,3539],[45.7,3622],[45,3706],[44.3,3790],[43.5,3871],[42.7,3979],[42.3,4057],[42.1,4137],[41.2,4225],[40.5,4303],[40.3,4386],[39.4,4470],[38.7,4554],[38.3,4637],[37.8,4719],[37,4802],[36.4,4886],[36.1,4969],[34.9,5052],[32.9,5135],[31.9,5232],[30.4,5300],[30.2,5384],[30.1,5467],[30.1,5551],[30.2,5634],[30.4,5717],[30.5,5801],[30.7,5883],[31.8,5967],[38.3,6050],[40.9,6133],[44.6,6216],[47.6,6300],[48.4,6383],[49.1,6466],[49.6,6548],[50.3,6631],[51,6714],[51.6,6798],[52.1,6880],[52.7,6963],[53.3,7046],[53.9,7130],[54.8,7213],[55.5,7295],[56.2,7379],[56.9,7465],[57.1,7545],[57.6,7658],[57.7,7728],[57.8,7811],[58.1,7894],[58.2,7978],[58.3,8059],[58.4,8143],[58.4,8226],[58.4,8309],[58.4,8392],[58.4,8476],[58.4,8559],[58.4,8641],[58.4,8741],[58.4,8825],[58.4,8907],[58.4,8990],[58.4,9073],[58.4,9157],[58.4,9240]]",1,0,420.2769,423.3018,50.07370631,2.1703,"[{""rating"":50.073706309000656,""responseTime"":1.8249000000004116},{""rating"":50.073706309000656,""responseTime"":2.1703000000007933}]",space,2.4621,,423.3021,Definitely yes,100,423.3081,,,[],,0,3,3,3,1,audio/Narrative7Situation3.wav,audio/Narrative8Situation3.wav,audio/Narrative5Situation3.wav,audio/Narrative6Situation3.wav,8,4,3,5,6.6402,,,,,,,,,,,,,,,,,,,,,,,,,,,,,,,,,,,,,,
,,,,,,63d6873b65a6170d64a652f6,2024-05-13_10h58.13.018,group3.1-3.2-social-tom,2023.2.2,Linux x86_64,60.24096386,65c5074098b851296ff0b7ed,664236db582b2c238b6d90b4,,,,,,,,,,,,,,,,,,,,,,,,,,,,,423.3088,1,audio/Narrative7Situation4.wav,426.3091,,426.3092,438.0655,"[[47.3,1265],[46.2,1347],[46.1,1430],[46.3,1515],[46.5,1596],[47.6,1679],[48.2,1762],[48.6,1845],[49.2,1930],[49.4,2012],[49.5,2095],[49.6,2179],[49.6,2261],[49.6,2344],[49.6,2427],[49.6,2510],[49.6,2593],[49.6,2676],[49.6,2759],[49.6,2842],[49.6,2925],[49.6,3010],[49.6,3093],[49.6,3187],[49.6,3260],[49.6,3340],[49.6,3424],[49.6,3507],[49.6,3616],[49.6,3689],[48.8,3774],[43.6,3856],[42.9,3940],[42.3,4023],[41.9,4107],[41.4,4189],[40.9,4273],[40.4,4355],[39.8,4438],[39.5,4523],[39.1,4605],[38.9,4688],[38.7,4771],[38.5,4854],[38.2,4937],[37.7,5022],[37,5102],[35.8,5187],[34.7,5270],[33.5,5353],[32.4,5436],[31.2,5519],[30.3,5602],[30,5685],[30,5768],[30,5851],[30,5934],[30,6028],[30,6100],[29.8,6183],[29.1,6266],[28.7,6349],[27.9,6433],[27.1,6517],[26.4,6599],[26.3,6682],[26.2,6765],[26,6849],[25.9,6934],[25.7,7015],[25.4,7099],[25.1,7182],[24.9,7264],[24.6,7348],[24.2,7431],[23.9,7513],[23.5,7597],[22.3,7680],[21.1,7764],[23.4,9092],[24.3,9175],[24.7,9259],[25.9,9344],[26.1,9425],[26.9,9508],[27.8,9591],[28.6,9675],[29,9758],[29.3,9840],[29.6,9923],[29.8,10007],[30,10091],[30.3,10173],[30.6,10256],[30.8,10340],[31.2,10422],[31.4,10507],[31.6,10589],[32,10673],[32.3,10754],[32.6,10857],[32.9,10937],[33.3,11019],[33.4,11103],[33.5,11187],[33.5,11269],[33.5,11352],[33.5,11436],[33.5,11519],[33.5,11602],[33.5,11685]]",1,0,438.0727,440.8221,29.72864151,2.0613,"[{""rating"":29.72864151000977,""responseTime"":2.0612999999988233}]",space,2.2138,,440.8224,Definitely yes,100,440.83,,,[],,0,4,4,4,1,audio/Narrative7Situation4.wav,audio/Narrative8Situation4.wav,audio/Narrative5Situation4.wav,audio/Narrative6Situation4.wav,3,3,1,2,,,,,,,,,,,,,,,,,,,,,,,,,,,,,,,,,,,,,,,
,,,,,,63d6873b65a6170d64a652f6,2024-05-13_10h58.13.018,group3.1-3.2-social-tom,2023.2.2,Linux x86_64,60.24096386,65c5074098b851296ff0b7ed,664236db582b2c238b6d90b4,,,,,,,,,,,,,,,,,,,,,,,,,,,,,440.8309,1,audio/Narrative7Situation5.wav,445.6591,space,445.6593,454.1542,"[[30.8,717],[32.3,795],[37.9,884],[43.4,961],[47.7,1052],[50.1,1133],[51.1,1211],[51.9,1303],[52,1378],[51.9,1462],[51.6,1544],[51.4,1636],[50.9,1712],[50.6,1802],[50.6,1876],[50.6,1959],[50.6,2060],[50.6,2141],[50.6,2224],[50.6,2307],[50.6,2391],[50.6,2474],[50.6,2559],[50.6,2640],[50.6,2723],[50.6,2806],[50.6,2890],[50.6,2972],[50.6,3056],[50.6,3139],[50.6,3223],[50.6,3305],[50.6,3388],[50.6,3471],[50.6,3554],[50.3,3637],[49.6,3722],[48.8,3803],[48.1,3895],[47.5,3970],[46.9,4053],[46.4,4137],[45.7,4219],[45.2,4303],[44.7,4386],[44.1,4469],[43.6,4553],[42.8,4635],[42.1,4735],[41.3,4818],[40.4,4900],[39.8,4987],[39.2,5100],[39.1,5183],[39.1,5266],[39.1,5349],[39.1,5432],[38.7,5516],[37.9,5599],[36.8,5696],[36.1,5793],[35.5,5865],[35,5947],[34.6,6031],[34.2,6114],[33.7,6197],[33.2,6280],[32.8,6363],[32.3,6447],[31.8,6534],[31.4,6613],[31,6695],[30.6,6779],[30.2,6861],[29.9,6945],[29.6,7031],[29.3,7114],[29.2,7194],[29.2,7277],[29.2,7366],[29.2,7446],[29.2,7528],[29,7611],[28.4,7692],[28,7782],[27.7,7860],[27.4,7942],[26.8,8025],[26.4,8115],[26.3,8195],[26.2,8274],[26.1,8357],[26.1,8441]]",1,0,454.1546,456.7281,17.07699458,1.7039,"[{""rating"":17.07699457804362,""responseTime"":1.703900000000317}]",space,2.03,,456.729,Definitely yes,100,456.7358,,,[],,0,5,5,5,1,audio/Narrative7Situation5.wav,audio/Narrative8Situation5.wav,audio/Narrative5Situation5.wav,audio/Narrative6Situation5.wav,5,2,5,2,4.8044,,,,,,,,,,,,,,,,,,,,,,,,,,,,,,,,,,,,,,
,,,,,,63d6873b65a6170d64a652f6,2024-05-13_10h58.13.018,group3.1-3.2-social-tom,2023.2.2,Linux x86_64,60.24096386,65c5074098b851296ff0b7ed,664236db582b2c238b6d90b4,,,,,,,,,,,,,,,,,,,,,,,,,,,,,456.7367,1,audio/Narrative7Situation6.wav,458.4222,space,458.4223,468.3954,"[[17.4,615],[33.9,864],[44.2,951],[48.5,1031],[49.4,1113],[49.8,1221],[49.9,1296],[49.9,1379],[49.9,1461],[49.9,1545],[49.9,1628],[49.9,1711],[49.9,1795],[49.9,1878],[49.9,1961],[49.9,2044],[50.7,2144],[54.4,2231],[56.7,2296],[58.5,2376],[61.3,2460],[65,2543],[67.8,2628],[70.6,2709],[71.4,2794],[72.3,2875],[73.3,2959],[74.9,3042],[75.9,3125],[77.3,3208],[78.4,3291],[78.4,3386],[78.4,3460],[78.4,3540],[78.4,3622],[79.5,3706],[81.1,3791],[82.8,3873],[84.3,3957],[85.3,4039],[86.2,4122],[87.1,4206],[87.6,4291],[88,4371],[88.4,4458],[88.7,4545],[89,4620],[89,4703],[89,4786],[89,4870],[89,4954],[89,5036],[89,5129],[89,5202],[89,5285],[89,5369],[89,5451],[89,5535],[89,5618],[89,5701],[89,5784],[89,5867],[89,5950],[89,6035],[89,6119],[89,6202],[89,6282],[89,6365],[89.1,6448],[89.3,6532],[89.4,6615],[89.5,6698],[89.5,6781],[89.5,6864],[89.5,6947],[89.5,7030],[89.5,7113],[89.5,7196],[89.5,7279],[89.5,7363],[89.5,7446],[89.5,7529],[89.5,7612],[89.5,7696],[89.5,7779],[89.5,7861],[89.5,7957],[89.5,8028],[89.5,8110],[89.5,8196],[89.5,8276],[89.5,8360],[89.5,8443],[89.5,8527],[89.5,8609],[89.5,8693],[89.5,8777],[89.5,8858],[89.5,8942],[89.5,9025],[89.5,9108],[89.5,9191],[89.5,9274],[89.5,9360],[89.5,9440],[89.5,9524],[89.5,9607],[89.5,9690],[89.5,9773],[89.5,9857],[89.5,9939]]",1,0,468.3959,470.6733,91.84285482,1.7263,"[{""rating"":91.84285481770833,""responseTime"":1.7263000000007196}]",space,1.7388,,470.6737,Not at all,0,470.6852,,,[],,0,6,6,6,1,audio/Narrative7Situation6.wav,audio/Narrative8Situation6.wav,audio/Narrative5Situation6.wav,audio/Narrative6Situation6.wav,3,2,3,2,1.6694,,,,,,,,,,,,,,,,,,,,,,,,,,,,,,,,,,,,,,
,,,,,,63d6873b65a6170d64a652f6,2024-05-13_10h58.13.018,group3.1-3.2-social-tom,2023.2.2,Linux x86_64,60.24096386,65c5074098b851296ff0b7ed,664236db582b2c238b6d90b4,,,,,,,,,,,,,,,,,,,,,,,,,,,,,470.6856,1,audio/Narrative7Situation7.wav,475.694,,475.6942,492.8641,"[[50.4,1052],[46.8,1130],[47.6,1795],[48.2,1877],[48.7,1959],[48.8,2050],[48.8,2133],[48.6,2208],[44.5,2295],[39.5,2385],[37.1,2457],[35.6,2548],[35,2624],[34.3,2737],[34.1,2813],[33.8,2889],[33.7,2972],[33.7,3055],[33.7,3138],[35.7,3223],[45,3305],[53.2,3392],[60.2,3471],[62.4,3555],[64,3638],[64.7,3722],[65.6,3804],[67.7,3887],[68.9,3971],[70.3,4054],[71.4,4137],[72.1,4227],[72.1,4302],[72.1,4385],[72.1,4468],[72.1,4551],[72.1,4635],[72.1,4718],[72.5,4802],[72.8,4884],[72.8,4968],[71.1,5051],[70.3,5134],[69.8,5218],[69.3,5300],[68.4,5384],[67.6,5466],[66.9,5549],[66,5634],[65.2,5715],[65,5800],[64.8,5882],[64.7,5966],[64.4,6048],[64.3,6131],[64.1,6214],[63.9,6297],[63.7,6381],[63.4,6465],[63.2,6547],[64.2,6636],[66.6,6713],[70,6795],[74.3,6886],[77.5,6961],[78.6,7046],[79.8,7130],[80.7,7215],[82.1,7295],[84.4,7378],[85.9,7460],[86.7,7545],[87.4,7636],[87.7,7721],[88,7793],[88.1,7876],[88.3,7967],[88.8,8042],[88.9,8126],[89.1,8209],[89.4,8292],[89.3,9374],[87.7,9455],[86.5,9538],[84.4,9631],[80.6,9704],[79.3,9789],[77.9,9871],[77.2,9954],[76.4,10037],[75.6,10121],[74.8,10203],[74.2,10299],[74,10389],[73.8,10468],[73.8,10560],[73.8,10634],[73.8,10717],[73.8,10800],[73.8,10883],[73.8,10966],[73.8,11050],[73.8,11134],[73.8,11216],[74.5,11322],[75.5,11416],[76.3,11500],[77.6,11582],[78.3,11665],[78.7,11749],[79.3,11832],[79.8,11915],[80,11998],[80.5,12081],[81.1,12164],[81.4,12248],[82.1,12332],[82.9,12413],[83.1,12496],[83.2,12586],[83.3,12662],[83.4,12745],[83.4,12829],[83.3,12915],[83,12995],[82.3,13079],[81.3,13162],[80,13244],[79.2,13329],[78.3,13413],[78.1,13494],[78,13579],[77.9,13660],[77.8,13744],[77.7,13828],[77.6,13911],[77.5,13992],[77.5,14075],[77.5,14158],[77.5,14242],[77.5,14325],[77.5,14408],[77.5,14491],[78.3,14574],[79.9,14658],[81,14741],[81.7,14824],[82.4,14907],[83.3,14991],[83.9,15074],[84.2,15156],[84.7,15240],[85.2,15323],[86,15405],[86.5,15495],[87,15573]]",1,0,492.8645,495.4388,91.3627243,1.8641,"[{""rating"":91.36272430419922,""responseTime"":1.864099999999553}]",space,2.0328,,495.4393,Definitely yes,100,495.4536,,,[],,0,7,7,7,1,audio/Narrative7Situation7.wav,audio/Narrative8Situation7.wav,audio/Narrative5Situation7.wav,audio/Narrative6Situation7.wav,5,3,4,5,,,,,,,,,,,,,,,,,,,,,,,,,,,,,,,,,,,,,,,
,,,,,,63d6873b65a6170d64a652f6,2024-05-13_10h58.13.018,group3.1-3.2-social-tom,2023.2.2,Linux x86_64,60.24096386,65c5074098b851296ff0b7ed,664236db582b2c238b6d90b4,,,,,,,,,,,,,,,,,,,,,,,,,,,,,495.4547,1,audio/Narrative7Situation8.wav,497.468,,497.4681,507.5048,"[[59,1660],[58.4,1747],[53.9,1825],[51,1908],[50.5,1991],[50.4,2075],[50.3,2158],[50.2,2241],[50.2,2325],[50.2,2408],[50.2,2491],[50.2,2573],[50.2,2656],[50.2,2740],[52.8,2827],[54,2910],[54.3,2990],[54.5,3072],[54.6,3158],[54.6,3238],[54.6,3325],[54.6,3405],[54.6,3488],[54.6,3571],[54.6,3654],[54.6,3739],[54.6,3821],[54.6,3903],[54.7,3986],[54.7,4069],[54.7,4152],[54.7,4236],[54.7,4319],[54.7,4403],[54.7,4490],[54.7,4568],[54.7,4651],[54.7,4734],[54.7,4817],[54.7,4901],[54.7,4984],[54.7,5067],[54.7,5151],[54.7,5234],[54.7,5316],[54.7,5399],[54.7,5482],[54.8,5566],[54.9,5650],[55,5733],[55.1,5816],[55.4,5899],[55.5,5986],[55.7,6092],[55.8,6164],[58,6247],[62.6,6332],[70.5,6414],[75.5,6496],[76.9,6581],[77.5,6663],[78.2,6747],[78.3,6829],[78.4,6912],[78.5,6996],[78.8,7079],[79,7163],[79.5,7245],[80.1,7327],[80.3,7428],[80.4,7509],[80.9,7593],[81,7676],[81.3,7760],[81.5,7842],[81.7,7925],[81.7,8008],[81.7,8092],[81.7,8175],[81.7,8258],[81.7,8341],[81.7,8425],[81.7,8507],[81.7,8591],[81.7,8673],[81.7,8756],[81.7,8840],[81.7,8923],[81.7,9006],[81.7,9089],[81.7,9173],[81.7,9255],[81.7,9338],[81.7,9421],[81.7,9504],[81.7,9587],[81.7,9671],[81.7,9754],[81.7,9839],[81.7,9921],[81.7,10003]]",1,0,507.5055,509.3857,84.93634542,1.2734,"[{""rating"":84.93634541829427,""responseTime"":1.273400000000379}]",space,1.3264,,509.3858,Partially,50,509.401,,,[],,0,8,8,8,1,audio/Narrative7Situation8.wav,audio/Narrative8Situation8.wav,audio/Narrative5Situation8.wav,audio/Narrative6Situation8.wav,2,3,3,5,,,,,,,,,,,,,,,,,,,,,,,,,,,,,,,,,,,,,,,
,,,,,,63d6873b65a6170d64a652f6,2024-05-13_10h58.13.018,group3.1-3.2-social-tom,2023.2.2,Linux x86_64,60.24096386,65c5074098b851296ff0b7ed,664236db582b2c238b6d90b4,,,,,,,,,,,,,,,,,,,,,,,,,,,,,509.4019,1,audio/Narrative7Situation9.wav,511.4113,,511.4113,520.0708,"[[51.4,1333],[50.9,1422],[51,1496],[79.1,1761],[82.8,1845],[87.2,3009],[87.6,3091],[88.2,3181],[88.4,3258],[88.5,3340],[89,3423],[89.4,3506],[89.8,3589],[90.4,3672],[90.8,3755],[91.1,3838],[91.3,3922],[91.3,4005],[91.3,4104],[91.3,4188],[91.3,4271],[91.3,4353],[91.3,4437],[91.3,4520],[91.3,4604],[91.3,4686],[91.3,4770],[91.3,4853],[91.3,4938],[91.3,5019],[91.3,5105],[91.3,5185],[91.3,5277],[91.3,5351],[91.3,5435],[91.3,5517],[90.8,5601],[90.1,5684],[89.9,5767],[89.8,5850],[89.7,5935],[89.6,6016],[89.6,6107],[89.9,6193],[90,6265],[90.3,6349],[90.8,6432],[90.9,6516],[91,6600],[91.2,6681],[91.3,6765],[91.4,6852],[91.6,6932],[91.7,7014],[91.7,7096],[91.7,7180],[91.7,7263],[91.7,7346],[91.7,7429],[91.7,7512],[91.7,7597],[91.7,7685],[91.7,7761],[91.7,7844],[91.7,7927],[91.7,8010],[91.7,8094],[91.7,8177],[91.7,8260],[91.7,8343],[91.7,8426],[91.7,8530],[91.7,8609]]",1,0,520.0709,522.0497,94.36738332,1.3518,"[{""rating"":94.36738332112631,""responseTime"":1.3517999999988888}]",space,1.4321,,522.05,Not at all,0,522.0621,,,[],,0,9,9,9,1,audio/Narrative7Situation9.wav,audio/Narrative8Situation9.wav,audio/Narrative5Situation9.wav,audio/Narrative6Situation9.wav,2,3,3,4,,,,,,,,,,,,,,,,,,,,,,,,,,,,,,,,,,,,,,,
,,,,,,63d6873b65a6170d64a652f6,2024-05-13_10h58.13.018,group3.1-3.2-social-tom,2023.2.2,Linux x86_64,60.24096386,65c5074098b851296ff0b7ed,664236db582b2c238b6d90b4,,,,,,,,,,,,,,,,,,,,,,,,,,,,,522.0633,1,audio/Narrative8Situation1.wav,527.0736,,527.0737,543.0088,"[[53.4,877],[50,958],[49.9,1041],[50,1126],[50.3,1208],[50.3,1291],[50.3,1374],[50.3,1458],[50.2,1539],[50.2,1624],[50.2,1707],[50.2,1789],[50.2,1873],[50.2,1956],[50.2,2038],[50.2,2121],[50.2,2205],[50.2,2288],[50.2,2371],[50.2,2454],[50.2,2537],[50.2,2620],[50.2,2703],[50.2,2788],[50.2,2870],[50.2,2953],[50.2,3035],[50.2,3118],[50.2,3202],[50.2,3285],[50.2,3368],[50.2,3451],[50.2,3535],[50.2,3618],[50.2,3701],[50.2,3783],[50.2,3867],[50.2,3950],[50.2,4033],[50.2,4116],[50.2,4199],[50.2,4283],[50.2,4366],[50.2,4449],[50.2,4567],[50.2,4648],[50.2,4731],[50.2,4814],[50.2,4897],[50.2,4981],[50.2,5063],[50.2,5146],[50.2,5230],[50.2,5313],[49.8,5423],[49.4,5497],[49.3,5581],[49.2,5663],[49,5745],[48.9,5829],[48.8,5912],[48.7,5995],[48.6,6078],[48.6,6161],[48.6,6244],[48.6,6350],[48.6,6426],[48.6,6509],[48.6,6598],[48.6,6676],[48.6,6759],[48.6,6842],[48.6,6926],[48.6,7008],[48.5,7092],[48.4,7175],[48.3,7259],[48.3,7341],[48.2,7424],[47.8,7508],[46.9,7591],[45.7,7674],[44.8,7757],[43.9,7860],[43.4,7940],[43.2,8022],[42.5,8115],[41.9,8188],[41.4,8271],[40.9,8354],[40.7,8438],[40.3,8521],[39.9,8604],[39.2,8687],[38.9,8771],[38.6,8854],[38.3,8937],[38.2,9020],[38.1,9104],[38.6,9186],[40.1,9268],[41.6,9352],[44.6,9436],[47.6,9519],[51.6,9602],[53.9,9685],[56.2,9769],[57.8,9851],[58.8,9934],[59.7,10017],[61.1,10101],[62.9,10183],[64.1,10266],[65.2,10350],[66.7,10433],[68.6,10524],[69.5,10618],[70.5,10698],[71.5,10781],[72.3,10864],[73.5,10948],[74.8,11032],[75.6,11114],[76,11197],[76.1,11280],[76.7,11365],[78,11447],[79.1,11529],[79.6,11612],[79.8,11703],[79.8,11787],[79.8,11862],[79.8,11945],[79.8,12028],[79.8,12111],[79.8,12194],[79.8,12277],[79.8,12360],[79.8,12443],[79.8,12526],[79.8,12610],[79.8,12693],[79.8,12777],[79.8,12860],[80,12967],[80.3,13045],[80.6,13125],[80.7,13208],[80.9,13291],[81,13374],[81.1,13458],[81.2,13542],[81.2,13624],[81.3,13710],[81.4,13789],[81.4,13872],[81.4,13956],[81.4,14040],[81.4,14122],[81.4,14206],[81.4,14288],[81.4,14371],[81.4,14455],[81.4,14538],[81.4,14621],[81.4,14704],[81.5,14787],[81.5,14870],[81.5,14953],[81.5,15036],[81.5,15119],[81.5,15203],[81.5,15286],[81.5,15369],[81.5,15452],[81.5,15535],[81.5,15619],[81.5,15701],[81.5,15785],[81.5,15867]]",1,0,543.0091,545.6011,83.21792603,1.8515,"[{""rating"":83.21792602539062,""responseTime"":1.8514999999999873}]",space,2.0298,,545.6012,Definitely yes,100,545.6115,,,[],,0,10,10,10,1,audio/Narrative8Situation1.wav,audio/Narrative7Situation1.wav,audio/Narrative6Situation1.wav,audio/Narrative5Situation1.wav,5,2,2,5,,,,,,,,,,,,,,,,,,,,,,,,,,,,,,,,,,,,,,,
,,,,,,63d6873b65a6170d64a652f6,2024-05-13_10h58.13.018,group3.1-3.2-social-tom,2023.2.2,Linux x86_64,60.24096386,65c5074098b851296ff0b7ed,664236db582b2c238b6d90b4,,,,,,,,,,,,,,,,,,,,,,,,,,,,,545.6123,1,audio/Narrative8Situation2.wav,548.6264,,548.6266,558.7494,"[[47.5,1249],[47.6,1342],[48.5,1412],[49.1,1495],[50,1580],[50.1,1661],[50.1,1745],[50.1,1828],[50.2,1913],[50.4,1995],[50.6,2078],[50.7,2160],[50.9,2246],[50.9,2333],[50.9,2419],[50.9,2494],[50.7,2575],[50,2660],[49.2,2745],[48.3,2825],[48,2908],[48,2992],[48,3075],[48,3158],[47.6,3240],[45.7,3324],[44.7,3407],[44.1,3491],[43.4,3574],[42.8,3657],[42,3740],[40.7,3823],[39.8,3906],[38.9,3989],[38.2,4072],[37,4156],[35.9,4239],[34.8,4321],[34,4404],[33.3,4488],[33.3,4571],[33.3,4655],[33.3,4737],[33.3,4820],[33.3,4919],[33.3,5004],[33.1,5085],[32.6,5185],[32.3,5268],[32,5352],[31.6,5435],[31.4,5518],[31.1,5601],[30.7,5684],[30.1,5768],[29.7,5850],[29.3,5933],[29,6015],[28.6,6108],[28.3,6198],[28,6281],[27.8,6365],[27.5,6448],[27.3,6532],[27.1,6615],[26.9,6698],[26.5,6781],[25.7,6879],[25.3,6947],[24.7,7030],[24.5,7114],[24.2,7196],[23.8,7280],[23.3,7363],[23.3,7445],[23.2,7529],[23.2,7611],[23.2,7694],[23.2,7778],[23.2,7861],[23.1,7947],[22.6,8030],[22.1,8112],[21.6,8194],[20.8,8278],[20.3,8360],[20,8443],[19.6,8526],[19.3,8609],[19.1,8692],[18.8,8775],[18.6,8858],[18.5,8943],[18.2,9041],[18.1,9107],[18,9192],[17.8,9275],[17.7,9357],[17.6,9440],[17.6,9523],[17.6,9606],[17.5,9690],[17.5,9773],[17.5,9864],[17.5,9938],[17.5,10021],[17.5,10104]]",1,0,558.7496,563.3704,12.54796346,4.0178,"[{""rating"":12.54796346028646,""responseTime"":4.017800000000761}]",space,4.0765,,563.3707,Definitely yes,100,563.3762,,,[],,0,11,11,11,1,audio/Narrative8Situation2.wav,audio/Narrative7Situation2.wav,audio/Narrative6Situation2.wav,audio/Narrative5Situation2.wav,3,3,3,3,,,,,,,,,,,,,,,,,,,,,,,,,,,,,,,,,,,,,,,
,,,,,,63d6873b65a6170d64a652f6,2024-05-13_10h58.13.018,group3.1-3.2-social-tom,2023.2.2,Linux x86_64,60.24096386,65c5074098b851296ff0b7ed,664236db582b2c238b6d90b4,,,,,,,,,,,,,,,,,,,,,,,,,,,,,563.377,1,audio/Narrative8Situation3.wav,567.392,,567.3922,589.7969,"[[40.5,782],[41.9,864],[42.1,947],[43.5,1030],[45.5,1113],[47.3,1197],[49.1,1279],[49.7,1361],[49.8,1445],[49.9,1530],[50.1,1612],[50.2,1694],[50.2,1777],[50.2,1861],[50.2,1943],[50.2,2027],[50.2,2110],[50.2,2192],[50.2,2276],[49.7,2364],[48.4,2442],[47.6,2525],[46.7,2608],[46.1,2693],[46,2776],[45.8,2859],[45.7,2941],[45.7,3025],[46.9,3107],[48.3,3190],[49.5,3274],[51,3357],[52.6,3440],[53.2,3523],[54.6,3607],[55.6,3690],[56.6,3798],[57.1,3871],[57.3,3965],[57.3,4038],[57.3,4122],[57.3,4204],[57.3,4289],[57.3,4370],[57.3,4454],[57.4,4538],[57.6,4620],[57.7,4715],[57.8,4786],[57.9,4870],[58.4,4952],[58.7,5035],[58.9,5120],[59,5202],[59.1,5286],[59.3,5369],[59.4,5451],[59.4,5534],[59.4,5620],[59.3,5700],[59,5785],[58.7,5872],[58.3,5949],[57.7,6032],[57.2,6116],[56.6,6199],[56.3,6281],[55.9,6365],[55.5,6448],[55.3,6532],[55,6623],[54.7,6698],[54.6,6781],[54.4,6864],[54.3,6953],[54.2,7029],[54.1,7113],[54,7196],[54,7280],[54,7363],[54,7445],[54,7538],[54,7612],[54,7698],[54,7777],[54,7860],[54,7943],[54,8027],[54,8111],[54,8193],[54,8277],[54.2,8360],[54.3,8443],[54.3,8526],[54.3,8608],[54.3,8691],[54.3,8775],[54.3,8857],[54.3,8942],[54,9025],[53.5,9109],[53,9191],[52.6,9275],[52.3,9358],[52.1,9446],[51.8,9540],[51.7,9622],[51.6,9707],[51.4,9789],[51.3,9874],[51.2,9957],[51.1,10039],[50.9,10122],[50.8,10211],[50.7,10287],[50.6,10370],[50.5,10453],[50.4,10537],[50.4,10620],[50.3,10703],[50.3,10786],[50.3,10869],[50.3,10952],[50.3,11036],[50.3,11120],[50.3,11202],[50.3,11289],[50.3,11367],[50.3,11451],[50.3,11534],[50.3,11617],[50.3,11700],[50.3,11783],[50.3,11867],[50.3,11951],[50.3,12033],[50.5,12118],[50.6,12217],[50.7,12298],[50.8,12381],[51,12465],[51.3,12548],[51.5,12632],[51.7,12715],[51.8,12798],[52.1,12881],[52.3,12965],[52.6,13047],[53.3,13182],[53.6,13249],[54.1,13330],[54.6,13413],[55.1,13496],[55.5,13578],[56.1,13663],[56.6,13747],[57.1,13831],[58.2,13912],[58.9,13995],[59.9,14080],[61.1,14161],[62,14243],[62.4,14327],[63.3,14410],[64.1,14495],[64.9,14578],[65.7,14660],[66.3,14743],[66.9,14828],[67.9,14910],[68.6,14993],[68.8,15076],[68.8,15157],[68.8,15240],[68.8,15324],[68.8,15408],[68.8,15491],[69.1,15574],[70,15657],[70.3,15741],[70.4,15823],[70.5,15906],[70.5,15989],[70.5,16072],[70.5,16158],[70.5,16238],[70.5,16322],[70.5,16405],[70.5,16488],[70.5,16571],[70.5,16653],[70.6,16738],[70.8,16825],[71,16904],[71.1,16986],[71.3,17070],[71.5,17154],[71.6,17236],[71.7,17319],[71.7,17403],[71.7,17486],[71.7,17569],[71.7,17652],[71.7,17734],[71.7,17834],[71.4,17920],[71.2,17999],[70.5,18087],[69.8,18166],[68.3,18249],[66.4,18332],[65.2,18415],[64.3,18498],[63.6,18583],[63,18664],[62.2,18748],[61.5,18834],[60.7,18914],[60,18997],[59.3,19081],[58.6,19164],[58.3,19247],[58,19330],[57.9,19413],[57.9,19495],[57.9,19578],[57.9,19661],[57.9,19745],[57.9,19828],[57.9,19911],[57.9,19995],[58,20111],[58.1,20197],[58.2,20279],[58.4,20360],[58.7,20444],[58.9,20529],[59,20610],[59.1,20693],[59.3,20776],[59.4,20861],[59.5,20943],[59.7,21025],[59.8,21108],[59.9,21192],[60,21274],[60,21401],[60,21473],[60,21556],[60,21639],[60,21723],[60,21807],[60,21889],[60,21973],[60,22055],[60,22139],[60,22226],[60,22304],[60,22388]]",1,0,589.7972,592.0088,59.87107595,0.965,"[{""rating"":59.87107594807944,""responseTime"":0.9650000000001455}]",space,1.667,,592.0091,Not at all,0,592.0203,,,[],,0,12,12,12,1,audio/Narrative8Situation3.wav,audio/Narrative7Situation3.wav,audio/Narrative6Situation3.wav,audio/Narrative5Situation3.wav,4,8,5,3,,,,,,,,,,,,,,,,,,,,,,,,,,,,,,,,,,,,,,,
,,,,,,63d6873b65a6170d64a652f6,2024-05-13_10h58.13.018,group3.1-3.2-social-tom,2023.2.2,Linux x86_64,60.24096386,65c5074098b851296ff0b7ed,664236db582b2c238b6d90b4,,,,,,,,,,,,,,,,,,,,,,,,,,,,,592.0212,1,audio/Narrative8Situation4.wav,595.0256,,595.0261,609.1946,"[[59.5,838],[45.6,1253],[45.5,1336],[45.5,1419],[45.5,1509],[45.5,1586],[45.5,1674],[45.5,1758],[45.5,1841],[45.5,1924],[45.5,2001],[45.5,2086],[45.5,2174],[45.5,2256],[45.5,2334],[45.5,2416],[45.5,2500],[45.5,2583],[45.5,2666],[45.5,2749],[46.5,2841],[47,2916],[47.8,3009],[48.2,3082],[48.5,3172],[48.8,3254],[49.2,3341],[49.3,3421],[49.4,3502],[49.6,3584],[49.9,3673],[50.5,3756],[52.2,3837],[55,3917],[56.1,4004],[57.1,4082],[58.4,4165],[58.8,4245],[59.7,4330],[61.2,4420],[62,4503],[62.8,4586],[63.4,4670],[63.5,4744],[63.5,4827],[63.5,4922],[63.5,4993],[63.5,5075],[63.5,5160],[63.5,5245],[63.5,5325],[63.5,5408],[63.5,5492],[63.5,5575],[63.6,5658],[63.8,5742],[64.1,5824],[64.4,5908],[64.9,5991],[65.1,6074],[65.6,6157],[66.3,6242],[67,6326],[67.5,6406],[68.6,6491],[69.6,6572],[70.5,6655],[70.8,6740],[71.2,6822],[71.6,6905],[71.9,6988],[72.3,7071],[72.6,7155],[72.8,7238],[73.2,7323],[73.7,7404],[74.5,7487],[75.5,7629],[75.7,7702],[75.8,7785],[75.8,7868],[75.8,7951],[75.8,8035],[75.8,8117],[75.8,8201],[75.8,8284],[75.8,8367],[75.8,8450],[75.8,8533],[75.9,8617],[76,8702],[76.2,8783],[76.3,8890],[76.5,8965],[76.7,9053],[77,9133],[77.8,9216],[78.7,9297],[78.8,9381],[79.7,9465],[80.4,9547],[80.8,9631],[81,9713],[81.7,9833],[82.3,9912],[82.6,9995],[82.9,10079],[83.3,10162],[83.5,10245],[84,10328],[84.3,10412],[84.6,10496],[85.1,10578],[85.7,10663],[86.1,10744],[86.3,10827],[86.5,10910],[86.6,10993],[86.6,11076],[86.6,11159],[86.6,11243],[86.6,11330],[86.6,11408],[86.6,11491],[86.6,11574],[86.6,11658],[86.8,11742],[87,11826],[87.3,11908],[87.6,11991],[87.9,12074],[88.1,12158],[88.4,12241],[88.6,12327],[88.9,12406],[89.1,12491],[89.3,12573],[89.5,12656],[89.8,12739],[89.9,12822],[90,12905],[90.2,12989],[90.3,13071],[90.4,13156],[90.4,13237],[90.4,13320],[90.4,13403],[90.4,13486],[90.4,13569],[90.4,13655],[90.4,13736],[90.4,13854],[90.4,13918],[90.4,14001],[90.4,14084],[90.4,14167]]",1,0,609.1951,612.8364,90.86121877,2.6009,"[{""rating"":90.86121877034505,""responseTime"":2.6009000000003653}]",space,3.095,,612.8365,Definitely yes,100,612.8401,,,[],,0,13,13,13,1,audio/Narrative8Situation4.wav,audio/Narrative7Situation4.wav,audio/Narrative6Situation4.wav,audio/Narrative5Situation4.wav,3,3,2,1,,,,,,,,,,,,,,,,,,,,,,,,,,,,,,,,,,,,,,,
,,,,,,63d6873b65a6170d64a652f6,2024-05-13_10h58.13.018,group3.1-3.2-social-tom,2023.2.2,Linux x86_64,60.24096386,65c5074098b851296ff0b7ed,664236db582b2c238b6d90b4,,,,,,,,,,,,,,,,,,,,,,,,,,,,,612.8403,1,audio/Narrative8Situation5.wav,614.8474,,614.8476,623.1069,"[[75.8,916],[71.8,1004],[71,1087],[69.8,1191],[67.2,1269],[63.3,1343],[63,1433],[63.1,1520],[63.2,1597],[63.2,1676],[63.3,1761],[63.7,1851],[64.5,1934],[65.1,2010],[65.5,2092],[66.4,2181],[66.9,2265],[67.3,2343],[67.6,2425],[68.1,2508],[68.5,2593],[68.9,2682],[69.7,2757],[71.7,2848],[72.8,2927],[73.8,3008],[74.4,3089],[74.6,3173],[75,3256],[75.7,3347],[76.5,3423],[76.7,3505],[77.2,3597],[77.2,3678],[77.2,3753],[77.2,3842],[77.2,3927],[77.2,4004],[77.2,4093],[77.2,4179],[77.4,4253],[77.5,4337],[77.7,4435],[77.8,4518],[77.9,4602],[78.1,4684],[78.3,4767],[78.5,4852],[78.6,4935],[78.7,5018],[78.9,5101],[79,5184],[79,5266],[79,5349],[79,5434],[79,5515],[79,5600],[79,5682],[79.1,5765],[79.2,5848],[79.3,5931],[79.5,6014],[79.6,6097],[79.8,6181],[79.9,6265],[80,6346],[80.2,6430],[80.3,6514],[80.4,6596],[80.4,6679],[80.5,6763],[80.6,6846],[80.6,6928],[80.7,7013],[80.7,7095],[80.7,7178],[80.7,7261],[80.7,7345],[80.7,7427],[80.7,7510],[80.7,7599],[80.7,7694],[80.7,7776],[80.7,7859],[80.7,7942],[80.7,8026],[80.7,8108],[80.7,8192]]",1,0,623.1081,625.4349,81.22701009,1.8408,"[{""rating"":81.22701009114583,""responseTime"":1.8407999999990352}]",space,1.7835,,625.4351,Partially,50,625.4469,,,[],,0,14,14,14,1,audio/Narrative8Situation5.wav,audio/Narrative7Situation5.wav,audio/Narrative6Situation5.wav,audio/Narrative5Situation5.wav,2,5,2,5,,,,,,,,,,,,,,,,,,,,,,,,,,,,,,,,,,,,,,,
,,,,,,63d6873b65a6170d64a652f6,2024-05-13_10h58.13.018,group3.1-3.2-social-tom,2023.2.2,Linux x86_64,60.24096386,65c5074098b851296ff0b7ed,664236db582b2c238b6d90b4,,,,,,,,,,,,,,,,,,,,,,,,,,,,,625.4477,1,audio/Narrative8Situation6.wav,627.4614,,627.4615,633.9435,"[[70.7,1850],[66,1933],[65,2016],[63.7,2102],[63.9,2202],[67.2,2285],[69.3,2369],[71.3,2446],[74.1,2559],[75.1,2642],[76.2,2725],[77,2808],[77.2,2891],[77.2,2974],[77.2,3058],[77.2,3141],[77.2,3224],[77.2,3307],[77.2,3391],[77,3474],[77,3556],[77.3,3641],[77.4,3723],[78.1,3806],[78.9,3889],[80.1,3972],[81,4082],[81,4155],[81,4237],[81,4321],[81,4404],[82,4487],[82.7,4570],[83.1,4654],[83.6,4743],[84.1,4836],[84.6,4919],[85.2,5002],[86.1,5085],[86.7,5168],[86.9,5258],[86.9,5334],[86.9,5418],[86.9,5501],[86.9,5584],[86.9,5667],[86.9,5750],[87.2,5838],[87.3,5917],[87.4,6000],[87.7,6103],[87.9,6182],[88,6268],[88.2,6348],[88.3,6431]]",1,0,633.9436,636.0714,88.69449615,1.7049,"[{""rating"":88.69449615478516,""responseTime"":1.704899999998588}]",space,1.5902,,636.0716,Not at all,0,636.0829,,,[],,0,15,15,15,1,audio/Narrative8Situation6.wav,audio/Narrative7Situation6.wav,audio/Narrative6Situation6.wav,audio/Narrative5Situation6.wav,2,3,2,3,,,,,,,,,,,,,,,,,,,,,,,,,,,,,,,,,,,,,,,
,,,,,,63d6873b65a6170d64a652f6,2024-05-13_10h58.13.018,group3.1-3.2-social-tom,2023.2.2,Linux x86_64,60.24096386,65c5074098b851296ff0b7ed,664236db582b2c238b6d90b4,,,,,,,,,,,,,,,,,,,,,,,,,,,,,636.0836,1,audio/Narrative8Situation7.wav,639.0962,,639.0963,651.1823,"[[53.9,915],[53.3,1000],[53.4,1081],[52.6,1164],[51.9,1250],[51.8,1341],[51.5,1413],[51.1,1495],[51,1579],[50.9,1661],[50.9,1745],[50.9,1828],[50.9,1911],[50.9,1994],[50.9,2077],[50.9,2161],[50.9,2245],[50.9,2327],[50.9,2409],[50.9,2493],[50.9,2575],[50.9,2660],[50.9,2742],[50.9,2825],[50.9,2908],[50.9,2991],[50.9,3075],[50.9,3158],[51.1,3241],[52.4,3324],[53.5,3407],[53.9,3490],[54.7,3574],[55.6,3657],[55.8,3740],[56.2,3823],[56.5,3914],[56.6,4012],[56.7,4090],[57.2,4174],[57.8,4254],[57.9,4337],[58.1,4421],[58.2,4506],[58.3,4587],[58.4,4675],[58.5,4757],[58.5,4837],[58.5,4919],[58.6,5002],[59.1,5087],[59.7,5169],[60,5252],[60.2,5336],[60.7,5418],[61.1,5502],[62,5590],[62.8,5667],[62.8,5750],[62.8,5839],[62.8,5920],[62.8,6007],[62.8,6084],[62.8,6166],[62.8,6249],[62.8,6349],[62.8,6431],[62.8,6514],[62.8,6604],[62.8,6681],[62.8,6764],[62.8,6848],[62.8,6930],[62.8,7014],[62.8,7098],[62.8,7181],[62.8,7262],[62.8,7345],[62.8,7480],[62.8,7562],[62.8,7645],[62.8,7728],[62.8,7811],[62.7,7894],[62.5,7978],[62.4,8061],[62.3,8145],[62.2,8227],[62,8311],[61.9,8394],[61.8,8477],[61.7,8561],[61.6,8643],[61.6,8725],[61.6,8809],[61.6,8892],[61.6,8975],[61.6,9058],[61.6,9141],[61.6,9224],[61.6,9307],[61.6,9390],[61.6,9474],[61.6,9557],[61.6,9640],[61.7,9725],[61.8,9811],[61.8,9889],[61.8,9972],[61.8,10055],[61.9,10139],[61.9,10222],[61.9,10305],[61.9,10388],[61.9,10471],[61.9,10556],[61.9,10637],[62,10721],[62.3,10804],[62.8,10888],[63.1,10970],[63.2,11054],[63.2,11136],[63.2,11219],[63.2,11304],[63.2,11388],[63.2,11468],[63.2,11551],[63.2,11636],[63.2,11717],[63.2,11800],[63.2,11888],[63.2,11968],[63.2,12050]]",1,0,651.1829,653.1136,61.8054835,1.0713,"[{""rating"":61.80548350016276,""responseTime"":1.0713000000007469}]",space,1.3811,,653.1146,Definitely yes,100,653.1288,,,[],,0,16,16,16,1,audio/Narrative8Situation7.wav,audio/Narrative7Situation7.wav,audio/Narrative6Situation7.wav,audio/Narrative5Situation7.wav,3,5,5,4,,,,,,,,,,,,,,,,,,,,,,,,,,,,,,,,,,,,,,,
,,,,,,63d6873b65a6170d64a652f6,2024-05-13_10h58.13.018,group3.1-3.2-social-tom,2023.2.2,Linux x86_64,60.24096386,65c5074098b851296ff0b7ed,664236db582b2c238b6d90b4,,,,,,,,,,,,,,,,,,,,,,,,,,,,,653.1309,1,audio/Narrative8Situation8.wav,656.1344,,656.1345,668.998,"[[999,35],[999,115],[999,198],[999,281],[999,364],[999,447],[999,531],[999,613],[999,697],[50.5,779],[50.4,865],[50,947],[49.8,1029],[49.8,1112],[49.8,1196],[49.8,1277],[49.8,1360],[49.8,1443],[49.8,1527],[49.8,1611],[49.8,1694],[49.8,1778],[50,1861],[50.1,1943],[50.3,2027],[50.4,2110],[50.4,2192],[50.4,2275],[50.4,2358],[50.4,2441],[50.4,2525],[50.4,2633],[49.5,2711],[47.9,2790],[47.3,2874],[46.3,2957],[45.5,3039],[44.7,3122],[43.7,3205],[42.6,3289],[42.1,3373],[41.4,3456],[40.5,3540],[38.9,3622],[37.9,3705],[37.3,3789],[37.3,3871],[37.3,3954],[37.3,4037],[37.3,4120],[37.3,4203],[37.3,4303],[37.3,4387],[37.3,4469],[37.3,4552],[37.3,4635],[37.3,4719],[36.3,4802],[35.9,4885],[35.7,4969],[35.5,5051],[35.4,5134],[35.3,5218],[35.1,5300],[35.1,5384],[35,5467],[34.8,5550],[34.7,5633],[34.5,5716],[34.5,5802],[34.5,5882],[34.5,5965],[34.4,6050],[34.2,6132],[33.8,6239],[33.7,6316],[33.6,6397],[33.5,6480],[33.5,6563],[33.5,6647],[33.5,6730],[33.5,6812],[33.7,6896],[35,6980],[35.3,7063],[35.9,7146],[36.3,7230],[37.1,7313],[37.5,7394],[37.7,7478],[38.2,7560],[38.5,7646],[38.8,7727],[39.1,7810],[39.4,7894],[39.6,7977],[40.2,8060],[40.8,8143],[41.1,8226],[41.2,8309],[41.4,8393],[41.7,8482],[41.8,8562],[41.8,8641],[41.8,8724],[41.8,8808],[41.8,8890],[41.8,8973],[41.8,9057],[41.8,9140],[41.8,9223],[41.8,9306],[41.8,9389],[41.8,9473],[41.8,9555],[41.8,9639],[41.8,9722],[41.8,9805],[41.8,9888],[41.8,9971],[41.8,10054],[41.8,10137],[41.8,10220],[41.8,10303],[42.2,10387],[42.7,10470],[43.8,10553],[45.4,10636],[47.2,10720],[48.4,10803],[49.4,10886],[50.2,10969],[51.2,11065],[52,11135],[52.8,11229],[53.2,11303],[53.5,11383],[53.8,11467],[54.1,11551],[54.4,11634],[54.6,11717],[55,11800],[55.4,11883],[55.9,11967],[56.5,12051],[56.9,12132],[57.4,12216],[58,12299],[58.7,12383],[59.4,12472],[60,12548],[61,12630],[62,12715],[62.8,12796]]",1,0,668.9983,671.2927,65.28931936,1.7397,"[{""rating"":65.28931935628255,""responseTime"":1.7396999999994023}]",space,1.7624,,671.2929,Partially,50,671.2986,,,[],,0,17,17,17,1,audio/Narrative8Situation8.wav,audio/Narrative7Situation8.wav,audio/Narrative6Situation8.wav,audio/Narrative5Situation8.wav,3,2,5,3,,,,,,,,,,,,,,,,,,,,,,,,,,,,,,,,,,,,,,,
,,,,,,63d6873b65a6170d64a652f6,2024-05-13_10h58.13.018,group3.1-3.2-social-tom,2023.2.2,Linux x86_64,60.24096386,65c5074098b851296ff0b7ed,664236db582b2c238b6d90b4,,,,,,,,,,,,,,,,,,,,,,,,,,,,,671.3001,1,audio/Narrative8Situation9.wav,674.3224,,674.323,685.6521,"[[65.2,1323],[64.9,1408],[65,1490],[65,1573],[61.4,1667],[54.6,1746],[53.9,1823],[53.5,1905],[51.5,1998],[51.3,2071],[51.2,2155],[51.1,2238],[50.9,2323],[50.8,2405],[50.7,2487],[50.6,2570],[50.5,2654],[50.5,2736],[50.5,2819],[50.5,2902],[50.5,2985],[50.5,3068],[50.5,3152],[50.5,3234],[50.5,3318],[50.5,3401],[50.5,3487],[50.5,3567],[50.5,3651],[50.5,3738],[50.5,3816],[50.5,3901],[50.5,3983],[50.5,4065],[50.5,4148],[50.5,4232],[50.5,4314],[50.5,4398],[50.5,4481],[50.5,4567],[53.6,4649],[56.8,4732],[58.7,4819],[60,4897],[60.5,4981],[62.9,5073],[65.7,5151],[66.1,5229],[66.1,5312],[66.1,5395],[66.1,5480],[68.8,5564],[73,5645],[74.5,5729],[75.9,5812],[76.7,5929],[76.7,6012],[76.7,6093],[76.7,6176],[76.7,6259],[76.8,6342],[76.8,6426],[77,6509],[77,6592],[77,6675],[77,6759],[77,6841],[77,6924],[77.1,7007],[77.2,7094],[77.4,7173],[77.5,7256],[77.8,7340],[78.3,7434],[78.4,7517],[78.5,7592],[78.6,7672],[78.8,7757],[78.9,7839],[79,7923],[79.1,8006],[79.3,8089],[79.4,8171],[79.5,8254],[79.6,8342],[79.8,8421],[79.9,8505],[80,8588],[80.1,8670],[80.2,8755],[80.4,8837],[80.5,8919],[80.5,9016],[80,9104],[79.1,9185],[78.2,9268],[77.5,9368],[77.1,9451],[76.4,9535],[75.6,9619],[74.6,9700],[74,9784],[73.4,9869],[72.5,9949],[71.8,10032],[71.5,10116],[71.2,10200],[71.1,10281],[70.9,10365],[70.7,10448],[70.4,10532],[70,10616],[69.7,10698],[69.4,10788],[69.4,10865],[69.2,10947],[69.1,11030],[69,11113],[68.9,11199],[68.8,11279]]",1,0,685.6523,688.7106,64.57057953,2.5454,"[{""rating"":64.5705795288086,""responseTime"":2.545400000000427}]",space,2.5093,,688.7107,Not at all,0,688.7152,,,[],,0,18,18,18,1,audio/Narrative8Situation9.wav,audio/Narrative7Situation9.wav,audio/Narrative6Situation9.wav,audio/Narrative5Situation9.wav,3,2,4,3,,,,,,,,,,,,,,,,,,,,,,,,,,,,,,,,,,,,,,,
,,,,,,63d6873b65a6170d64a652f6,2024-05-13_10h58.13.018,group3.1-3.2-social-tom,2023.2.2,Linux x86_64,60.24096386,65c5074098b851296ff0b7ed,664236db582b2c238b6d90b4,,,,,,,,,,,,,,,,,,,,,,,,,,,691.1887,693.7709,693.7998,2,audio/Narrative13Situation2.wav,693.7998,,693.7999,723.5663,"[[999,0],[999,79],[999,162],[999,246],[999,329],[999,413],[999,495],[999,578],[999,668],[999,745],[999,829],[49.6,911],[50,994],[50.3,1077],[50.4,1160],[50.4,1243],[50.4,1326],[50.4,1409],[50.4,1492],[50.4,1576],[50.4,1659],[50.4,1742],[50.4,1844],[50.4,1924],[50.4,2007],[50.4,2092],[50.4,2177],[50.4,2256],[50.4,2340],[50.4,2423],[50.4,2506],[50.4,2590],[50.4,2673],[50.4,2756],[50.4,2839],[50.4,2922],[50.4,3006],[50.4,3088],[50.4,3171],[50.4,3254],[50.4,3338],[50.4,3421],[50.4,3504],[50.4,3587],[50.5,3670],[52.1,3753],[52.2,3837],[52.3,3920],[52.5,4004],[52.8,4085],[53,4168],[53.4,4252],[54,4335],[55.2,4417],[55.9,4501],[56.4,4587],[56.4,4667],[56.4,4750],[56.4,4833],[56.4,4917],[56.4,4999],[56.4,5082],[57.1,5166],[57.8,5251],[58,5333],[58.4,5417],[58.7,5499],[59,5582],[59.6,5665],[60,5788],[60.4,5866],[60.7,5947],[60.9,6031],[61.2,6113],[61.5,6198],[61.8,6281],[62,6364],[62.2,6446],[62.3,6529],[62.4,6613],[62.6,6701],[62.7,6778],[62.8,6861],[62.8,6952],[62.8,7043],[62.8,7127],[62.8,7210],[62.8,7293],[62.8,7378],[62.8,7459],[62.8,7544],[62.8,7626],[62.8,7724],[62.8,7794],[62.8,7875],[62.8,7957],[62.8,8041],[62.8,8125],[63.4,8208],[64.2,8291],[64.8,8374],[65.4,8457],[66.1,8545],[67,8624],[67.9,8706],[68.8,8789],[69.5,8872],[70.5,8956],[71.7,9039],[72.7,9122],[73.4,9205],[74.3,9302],[74.8,9374],[75.5,9454],[75.6,9537],[76.2,9620],[77,9704],[77.6,9795],[77.6,9869],[77.6,9954],[77.6,10036],[77.6,10121],[77.6,10201],[78,10286],[78.8,10369],[79.5,10452],[80.2,10535],[80.8,10618],[81.5,10701],[81.6,10784],[81.9,10869],[82.2,10951],[82.4,11034],[82.5,11116],[82.6,11200],[82.7,11284],[82.7,11365],[82.7,11449],[82.7,11533],[82.7,11618],[82.7,11698],[82.8,11780],[82.8,11864],[82.8,11947],[82.8,12032],[83,12126],[83.1,12198],[83.2,12280],[83.3,12364],[83.5,12474],[83.6,12546],[83.7,12628],[83.8,12728],[83.9,12811],[84.1,12907],[84.2,12978],[84.4,13063],[84.5,13144],[84.6,13228],[84.9,13312],[85.2,13394],[85.6,13476],[86.1,13559],[86.5,13642],[86.8,13726],[87.3,13810],[88.4,13893],[89,13976],[89.4,14059],[89.7,14144],[89.8,14225],[89.9,14307],[90,14391],[90.2,14477],[90.3,14561],[90.4,14645],[90.6,14724],[90.7,14807],[90.9,14890],[90.9,14972],[90.9,15055],[90.9,15139],[90.9,15222],[90.9,15305],[90.9,15389],[90.9,15471],[90.2,15588],[89.6,15670],[89,15767],[88.5,15836],[87.9,15919],[87.4,16003],[86.8,16086],[86.2,16169],[85.5,16253],[85,16336],[84.6,16419],[84.1,16502],[83.7,16585],[83.2,16669],[82.7,16752],[82.4,16835],[81.9,16919],[81.3,17001],[80.8,17086],[80,17168],[78.9,17250],[78.1,17333],[76.8,17417],[75.6,17499],[74.7,17582],[73.8,17666],[72.4,17749],[70.5,17834],[69.4,17915],[67.5,18000],[67,18081],[67,18164],[67,18247],[67,18330],[67,18413],[62,18497],[60.1,18580],[56.4,18664],[51.5,18746],[48.4,18829],[45.8,18956],[44.6,19030],[42.8,19112],[41.2,19195],[38.5,19278],[36.8,19362],[35.1,19445],[34.2,19527],[34.2,19610],[34.2,19693],[34.2,19776],[34.2,19859],[34.2,19943],[34.2,20025],[34.2,20109],[34,20192],[33.5,20275],[33.3,20359],[32.8,20442],[32.5,20524],[32.1,20608],[31.9,20692],[31.6,20779],[31.3,20878],[30.9,20958],[30.6,21039],[30.3,21122],[29.9,21209],[29.6,21290],[29.5,21373],[29.4,21455],[29.6,21538],[29.9,21621],[30.4,21705],[30.7,21788],[30.9,21871],[31.3,21954],[31.8,22037],[32.1,22120],[32.5,22202],[33.1,22285],[33.5,22368],[34,22452],[34.4,22538],[34.9,22620],[35.7,22702],[36.3,22786],[36.7,22868],[37.2,22953],[37.5,23034],[37.8,23117],[38.1,23201],[38.5,23283],[38.7,23367],[38.8,23449],[38.8,23532],[38.8,23615],[38.8,23699],[38.8,23782],[38.8,23865],[38.8,23948],[38.8,24031],[38.8,24114],[38.8,24197],[38.8,24280],[38.8,24363],[38.8,24446],[38.8,24530],[38.8,24613],[38.8,24696],[39.3,24779],[39.4,24868],[39.6,24946],[39.9,25029],[40.1,25114],[40.2,25195],[40.4,25278],[40.5,25362],[40.6,25444],[40.8,25527],[40.9,25610],[41,25694],[41,25776],[41,25859],[41,25943],[41,26025],[41,26109],[41,26192],[41,26275],[41,26358],[40.8,26442],[40.6,26526],[40.5,26608],[40.3,26691],[40,26774],[39.6,26857],[39.1,26940],[38.8,27023],[38.2,27127],[38.1,27206],[37.6,27288],[36.8,27373],[36.5,27455],[36.1,27540],[35.7,27622],[35.2,27704],[34.7,27788],[34.1,27871],[33.5,27954],[33,28037],[32.5,28120],[32.1,28207],[31.4,28293],[31.1,28371],[30.6,28452],[30,28535],[29.4,28620],[29,28705],[28.8,28784],[28.7,28869],[28.5,28951],[28.4,29034],[28.3,29118],[28.3,29200],[28.3,29283],[28.3,29367],[28.3,29450],[28.3,29533],[28.3,29616],[28.3,29699]]",1,0,723.5675,723.5743,,,[],,,,723.5743,Definitely yes,100,723.585,,,[],,0,0,0,0,1,audio/Narrative13Situation2.wav,audio/Narrative13Situation2.wav,audio/Narrative13Situation2.wav,audio/Narrative13Situation2.wav,2,2,2,2,,,,,688.7161,691.1879,space,1.9499,,,,,,,,,,,,,,,,,,,,,,,,,,,,,,,
,,,,,,63d6873b65a6170d64a652f6,2024-05-13_10h58.13.018,group3.1-3.2-social-tom,2023.2.2,Linux x86_64,60.24096386,65c5074098b851296ff0b7ed,664236db582b2c238b6d90b4,,,,,,,,,,,,,,,,,,,,,,,,,,,,,723.5862,2,audio/Narrative5Situation1.wav,728.6015,,728.6016,741.8821,"[[36.3,751],[41.5,843],[44.1,914],[46.5,997],[47.8,1082],[49.4,1164],[50.2,1247],[50.2,1329],[50.3,1412],[50.4,1496],[50.4,1579],[50.4,1662],[50.4,1746],[50.4,1828],[50.4,1912],[50.4,1995],[50.4,2081],[50.4,2161],[50.4,2246],[50.4,2327],[50.4,2411],[50.4,2494],[50.4,2576],[50.4,2659],[50.4,2752],[50.4,2832],[50.4,2909],[50.4,2992],[50.4,3075],[50.4,3158],[50.4,3241],[50.4,3326],[50.4,3408],[50.4,3491],[50.5,3575],[50.6,3659],[50.6,3743],[50.6,3823],[50.7,3907],[50.9,3990],[51,4073],[51.1,4155],[51.1,4239],[51.1,4322],[51.1,4406],[51.1,4488],[51.1,4571],[51.1,4654],[51.1,4738],[51.1,4821],[51.1,4904],[51.1,4987],[51.1,5070],[51.1,5155],[51.1,5235],[51.1,5319],[51.1,5402],[51.1,5485],[51.1,5570],[51.1,5651],[51.1,5736],[50.8,5818],[50.1,5906],[48.6,5985],[47.4,6067],[46.3,6150],[44.9,6234],[43.6,6316],[41.5,6401],[39.5,6483],[37.8,6566],[36.7,6649],[35.7,6733],[35.1,6816],[35,6899],[35,6981],[35,7065],[35,7148],[34.6,7231],[33.6,7314],[32.8,7398],[32.1,7480],[31.2,7564],[30.1,7647],[28.9,7730],[27,7831],[25.7,7917],[24.5,7998],[23.5,8079],[22.7,8162],[22.4,8244],[22,8327],[21.5,8410],[21.3,8494],[21.2,8576],[21,8659],[20.9,8742],[20.7,8826],[20.6,8910],[20.5,8993],[20.4,9075],[20.4,9158],[20.4,9241],[20.4,9325],[20.4,9409],[20.2,9493],[20.2,9574],[20.2,9657],[20.2,9741],[22,9863],[23.7,9940],[27,10022],[30.4,10107],[35.3,10188],[38.7,10273],[41.4,10356],[45.6,10439],[48,10522],[51.6,10605],[54.6,10688],[55.8,10771],[57,10854],[58,10936],[58.9,11021],[59.7,11104],[60.3,11187],[61.1,11271],[61.9,11353],[63,11436],[63.8,11520],[64.3,11602],[64.3,11685],[64.3,11768],[64.3,11852],[64.3,11934],[64.3,12017],[64.3,12101],[64.3,12186],[64.3,12266],[64.3,12349],[64.3,12432],[64.3,12516],[64.3,12599],[64.3,12683],[64.3,12765],[64.3,12848],[64.3,12933],[64.3,13015],[64.3,13097],[64.3,13180],[64.3,13263]]",1,0,741.8826,744.3099,65.76978048,1.7218,"[{""rating"":65.76978047688802,""responseTime"":1.7217999999988933}]",space,1.8853,,744.3101,Not at all,0,744.3201,,,[],,0,1,1,1,1,audio/Narrative7Situation1.wav,audio/Narrative8Situation1.wav,audio/Narrative5Situation1.wav,audio/Narrative6Situation1.wav,2,5,5,2,,,,,,,,,,,,,,,,,,,,,,,,,,,,,,,,,,,,,,,
,,,,,,63d6873b65a6170d64a652f6,2024-05-13_10h58.13.018,group3.1-3.2-social-tom,2023.2.2,Linux x86_64,60.24096386,65c5074098b851296ff0b7ed,664236db582b2c238b6d90b4,,,,,,,,,,,,,,,,,,,,,,,,,,,,,744.3208,2,audio/Narrative5Situation2.wav,747.3346,,747.3347,776.8202,"[[65.5,833],[64.8,917],[64.2,997],[63.8,1080],[61.3,1166],[53.2,1246],[52.1,1328],[50.8,1412],[50.4,1495],[50.3,1578],[50.2,1663],[50.1,1745],[50.1,1828],[50.1,1911],[50.1,1994],[50.1,2079],[50.1,2165],[50.1,2242],[50.1,2326],[50.1,2409],[50.1,2493],[50.1,2576],[50.1,2659],[50.1,2742],[50.1,2825],[50.1,2909],[50.1,2993],[50.1,3074],[50.1,3157],[50.1,3241],[50.1,3327],[50.1,3406],[50.1,3490],[50.1,3573],[49.2,3657],[48.3,3739],[47.3,3823],[46,3906],[44.3,3989],[43.2,4072],[42.2,4155],[41.2,4259],[40.5,4338],[40.1,4420],[39.1,4511],[38.6,4590],[38.1,4669],[37.4,4752],[36.8,4835],[36,4919],[35.2,5003],[34.4,5086],[33.8,5169],[33.5,5252],[33.2,5347],[32.9,5417],[32.7,5501],[32.5,5588],[32.4,5667],[32.2,5750],[31.8,5835],[31.5,5916],[31.2,6001],[30.8,6087],[30.6,6166],[30.5,6248],[30.5,6332],[30.5,6415],[30.5,6498],[30.5,6581],[30.5,6664],[30.5,6747],[30.5,6831],[30.5,6914],[29.9,6999],[29.3,7081],[28.7,7166],[27.8,7246],[27.2,7332],[26.7,7413],[26,7496],[25.5,7579],[25.2,7663],[25,7745],[24.9,7828],[24.7,7912],[24.6,7994],[24.5,8078],[24.4,8161],[24.2,8243],[24.1,8327],[24,8415],[23.9,8492],[23.7,8576],[23.6,8658],[23.5,8744],[23.4,8825],[23.2,8909],[23.2,8991],[23.2,9075],[23.2,9158],[23.2,9241],[23.2,9326],[23.1,9406],[23.1,9490],[23.1,9573],[23.1,9656],[23.1,9739],[23.1,9822],[23.1,9906],[23.1,9988],[23.1,10071],[23.2,10155],[23.3,10240],[23.4,10323],[23.5,10404],[23.7,10488],[23.9,10570],[24,10654],[24.2,10738],[24.4,10820],[24.7,10903],[24.9,10987],[25,11070],[25.1,11156],[25.3,11237],[25.4,11318],[25.5,11417],[25.5,11490],[25.5,11567],[25.5,11650],[25.5,11733],[25.5,11816],[25.5,11901],[25.6,11984],[25.7,12067],[25.8,12153],[25.9,12244],[26.2,12317],[26.9,12398],[27,12484],[27.1,12565],[27.2,12648],[28.4,12734],[29.4,12814],[29.9,12899],[30.9,12981],[31.6,13065],[32.3,13147],[35.7,13230],[37.8,13314],[38.4,13396],[38.9,13479],[39.2,13564],[40.2,13651],[40.8,13728],[41,13816],[41.1,13894],[41.1,13978],[41.1,14061],[41.1,14145],[41.1,14228],[41.1,14310],[41.1,14394],[41.1,14476],[41.2,14560],[41.2,14643],[41.2,14726],[41.3,14808],[41.4,14892],[41.6,14977],[41.7,15060],[41.7,15143],[41.7,15225],[41.7,15307],[41.7,15391],[41.9,15473],[42,15558],[42.2,15640],[42.3,15724],[42.4,15807],[42.6,15890],[42.6,15973],[42.6,16056],[42.6,16141],[41.7,16222],[40.8,16306],[40.1,16388],[39.7,16472],[39,16556],[38.5,16637],[38.2,16721],[37.8,16804],[37.2,16887],[36.9,16971],[36.5,17058],[35.7,17137],[35.2,17219],[34.8,17302],[34.3,17385],[33.7,17468],[33.2,17552],[33.2,17634],[33.2,17719],[33.2,17801],[33.2,17884],[33.2,17983],[33.2,18067],[32.9,18152],[32.6,18233],[32.5,18316],[32.3,18399],[32.1,18485],[31.9,18565],[31.6,18649],[31.5,18732],[31.4,18827],[31.2,18918],[31.1,18997],[31,19080],[30.8,19172],[30.7,19247],[30.6,19329],[30.6,19412],[30.5,19497],[30.4,19580],[30.3,19664],[30.3,19746],[30.3,19829],[30.3,19912],[30.3,19994],[30.3,20078],[30.3,20160],[30.3,20245],[30.3,20327],[30.3,20411],[30.3,20493],[30.3,20577],[30.3,20660],[30.3,20753],[30.2,20826],[30.2,20909],[30.2,20992],[30.2,21075],[30.2,21158],[30.2,21242],[30.2,21325],[30.2,21408],[30.2,21492],[30.2,21574],[30.2,21657],[30.2,21740],[30.2,21823],[30.2,21907],[30.2,21989],[30.2,22072],[30.2,22156],[30.2,22239],[30.2,22322],[30.2,22405],[30.2,22488],[30.2,22571],[30.2,22655],[30.2,22738],[30.2,22820],[30.2,22903],[30.3,22987],[33.5,23087],[39.9,23169],[43.5,23252],[46.6,23336],[48.1,23418],[49.9,23502],[52,23585],[54.3,23669],[55.9,23751],[57.6,23834],[60,23918],[61.8,24001],[62.6,24084],[63.3,24167],[63.9,24250],[64.3,24334],[64.6,24417],[64.6,24499],[64.6,24582],[64.6,24665],[64.6,24748],[64.6,24831],[64.6,24915],[64.6,24998],[64.8,25100],[64.9,25182],[65.3,25264],[65.7,25347],[65.9,25429],[66.3,25512],[66.5,25596],[66.6,25680],[66.8,25763],[66.9,25846],[67,25929],[67.1,26012],[67.2,26094],[67.2,26177],[67.2,26261],[67.3,26344],[67.3,26427],[67.3,26510],[67.3,26593],[67.3,26677],[67.3,26760],[67.3,26843],[67.3,26925],[67.3,27009],[67.3,27092],[67.3,27175],[67.3,27259],[67.3,27342],[67.3,27425],[67.4,27509],[67.5,27590],[67.6,27673],[67.6,27757],[67.4,27841],[65.6,27924],[65.2,28007],[64.7,28090],[63.8,28173],[62.7,28256],[61.8,28339],[61,28422],[60,28507],[59.5,28588],[58.9,28671],[58.1,28755],[57.2,28837],[56.7,28921],[56.1,29004],[55.6,29088],[55.2,29171],[54.8,29265],[54.6,29336],[54.3,29418]]",1,0,776.8205,779.4971,52.00796127,1.3221,"[{""rating"":52.00796127319336,""responseTime"":1.3221000000014556}]",space,2.1345,,779.4972,Definitely yes,100,779.5078,,,[],,0,2,2,2,1,audio/Narrative7Situation2.wav,audio/Narrative8Situation2.wav,audio/Narrative5Situation2.wav,audio/Narrative6Situation2.wav,3,3,3,3,,,,,,,,,,,,,,,,,,,,,,,,,,,,,,,,,,,,,,,
,,,,,,63d6873b65a6170d64a652f6,2024-05-13_10h58.13.018,group3.1-3.2-social-tom,2023.2.2,Linux x86_64,60.24096386,65c5074098b851296ff0b7ed,664236db582b2c238b6d90b4,,,,,,,,,,,,,,,,,,,,,,,,,,,,,779.5087,2,audio/Narrative5Situation3.wav,782.5213,,782.5214,796.4346,"[[49.3,93],[49.1,174],[49,259],[49,340],[48.9,425],[48.9,505],[48.7,592],[48.6,675],[48.5,758],[48.5,838],[48.9,922],[49,1006],[49.1,1089],[49.3,1172],[49.4,1254],[49.4,1337],[49.4,1421],[49.4,1504],[49.4,1601],[49.4,1683],[49.4,1762],[49.4,1851],[49.4,1928],[49.4,2011],[49.4,2094],[49.4,2184],[49.4,2266],[49.4,2349],[49.4,2427],[49.4,2515],[49.4,2594],[49.4,2676],[49.4,2764],[49.4,2850],[49.4,2925],[49.4,3009],[49.4,3106],[50.8,3179],[53,3258],[55.4,3341],[57.4,3443],[59.1,3524],[61.1,3607],[63,3690],[65.1,3774],[67.2,4282],[68.2,4360],[69.4,4438],[70.7,4521],[72.4,4608],[73.1,4687],[74,4771],[74.5,4854],[74.5,4937],[74.5,5020],[74.5,5103],[74.5,5186],[74.7,5270],[76.3,5353],[78.7,5435],[80.8,5519],[83.1,5602],[84,5685],[85.1,5769],[86.4,5852],[87.9,5935],[89.1,6047],[89.9,6118],[90.5,6199],[90.9,6287],[91.9,6365],[92.7,6448],[93.1,6532],[93.5,6615],[94.1,6699],[94.3,6782],[94.3,6864],[94.3,6947],[94.3,7031],[94.3,7114],[94.3,7197],[94.3,7280],[94.3,7383],[94.3,7462],[94.3,7546],[94.3,7629],[94.3,7712],[94.3,7796],[94.3,7879],[94.3,7961],[94.3,8044],[94.3,8129],[94.3,8211],[94.3,8294],[94.3,8377],[94.3,8460],[94.3,8544],[94.3,8626],[94.3,8709],[94.3,8793],[94.3,8876],[94.3,8959],[94.3,9041],[94.3,9125],[94.3,9217],[94.3,9292],[93.7,9377],[93,9457],[92.4,9544],[91.6,9623],[90.8,9708],[90.1,9790],[89.3,9874],[88.6,9956],[87.8,10043],[87,10125],[86.1,10206],[85.3,10289],[84.6,10371],[83.3,10457],[82.5,10539],[81.2,10622],[80.6,10704],[79.6,10788],[79.1,10871],[79,10953],[79,11039],[79,11119],[79,11202],[78,11285],[77.5,11369],[76.9,11454],[75.5,11535],[74.1,11619],[72.9,11702],[72.1,11785],[71.3,11868],[70.5,11951],[69.8,12034],[69.2,12118],[68.5,12200],[67.9,12283],[67.7,12366],[67.6,12450],[67.2,12541],[66.9,12615],[66.7,12698],[66.6,12781],[66.6,12864],[66.6,12948],[66.6,13031],[66.6,13114],[66.6,13197],[66.6,13281],[66.6,13363],[66.6,13447],[66.6,13530],[66.6,13612],[66.6,13695],[66.6,13780],[66.6,13861]]",1,0,796.4357,799.3755,63.04609934,1.3333,"[{""rating"":63.04609934488931,""responseTime"":1.3333000000006905}]",space,2.4009,,799.3755,Partially,50,799.3792,,,[],,0,3,3,3,1,audio/Narrative7Situation3.wav,audio/Narrative8Situation3.wav,audio/Narrative5Situation3.wav,audio/Narrative6Situation3.wav,8,4,3,5,,,,,,,,,,,,,,,,,,,,,,,,,,,,,,,,,,,,,,,
,,,,,,63d6873b65a6170d64a652f6,2024-05-13_10h58.13.018,group3.1-3.2-social-tom,2023.2.2,Linux x86_64,60.24096386,65c5074098b851296ff0b7ed,664236db582b2c238b6d90b4,,,,,,,,,,,,,,,,,,,,,,,,,,,,,799.3795,2,audio/Narrative5Situation4.wav,800.3951,,800.3952,820.7849,"[[50,1732],[50.3,1817],[50.3,1888],[50.2,1993],[50,2071],[50,2154],[50,2238],[50,2321],[50,2404],[50,2487],[50,2570],[50,2653],[50,2736],[50,2819],[50,2903],[50,2985],[50,3069],[50,3152],[50,3235],[50,3318],[50,3401],[50,3485],[49.5,3568],[48.8,3652],[48,3734],[47.6,3817],[47,3901],[46.6,3983],[45.9,4068],[44.9,4150],[44.2,4233],[44.1,4316],[44.1,4429],[44.1,4501],[44.1,4581],[37.4,4665],[36.4,4748],[35.4,4830],[34.2,4916],[32.2,4998],[31.3,5081],[30.5,5164],[29.7,5247],[29.1,5331],[28.4,5413],[27.7,5500],[27,5580],[26.7,5662],[26.3,5770],[25.7,5844],[25.1,5928],[24.2,6011],[23.6,6095],[23.2,6178],[22.8,6260],[22.8,6343],[22.8,6427],[22.8,6512],[22,6593],[21.6,6675],[19.7,6759],[19.1,6842],[18.5,6925],[18.1,7009],[17.7,7092],[17,7183],[16.4,7257],[15.9,7340],[15.4,7423],[15.2,7506],[15,7590],[14.5,7677],[14.2,7757],[14,7839],[13.8,7923],[13.6,8006],[13.4,8089],[13.1,8172],[13,8255],[12.8,8340],[12.5,8421],[12.1,8505],[11.8,8587],[11.5,8671],[10.9,8754],[10.5,8858],[10.4,8943],[10.4,9021],[13.9,9103],[19.5,9186],[23.4,9269],[25.1,9351],[25.2,9436],[26.8,9520],[27.8,9602],[27.8,9686],[27.8,9770],[28.6,9854],[29.5,9934],[32.1,10019],[37.9,10104],[43,10182],[46.9,10266],[50.3,10349],[53.3,10432],[54.4,10515],[54.5,10599],[54.5,10681],[54.5,10764],[54.5,10847],[54.5,10931],[55.9,11016],[58.4,11098],[59.6,11181],[60.8,11264],[61.6,11359],[62.4,11431],[63.4,11512],[64.8,11596],[65.9,11679],[67.2,11763],[68.1,11846],[68.4,11929],[69,12012],[70.1,12098],[70.7,12177],[70.7,12260],[70.7,12343],[70.7,12427],[70.7,12511],[70.7,12594],[70.7,12676],[70.7,12759],[70.7,12842],[70.7,12926],[70.7,13012],[70.7,13093],[70.7,13174],[71.1,13266],[71.8,13350],[71.9,13425],[72,13507],[72,13591],[71.8,13674],[71.7,13776],[71.6,13870],[71.5,13939],[71.2,14022],[70.8,14105],[70.5,14189],[70.3,14275],[70.2,14356],[70,14439],[69.9,14522],[69.8,14609],[69.7,14692],[69.6,14771],[69.6,14854],[69.7,14936],[71.1,15021],[72.8,15103],[74.1,15186],[74.8,15270],[75.8,15354],[76.9,15436],[77.6,15524],[78.7,15601],[79.4,15685],[80,15769],[80.2,15850],[80.6,15936],[81.1,16017],[81.7,16100],[82.6,16183],[83.3,16266],[83.5,16349],[84.1,16432],[84.7,16515],[85.3,16599],[85.9,16681],[86.2,16765],[86.7,16848],[87.2,16933],[87.9,17014],[88.5,17098],[89.1,17181],[89.7,17264],[90.3,17347],[90.7,17431],[90.9,17514],[91.1,17596],[91.3,17682],[91.5,17763],[91.8,17846],[92,17929],[92.3,18012],[92.5,18116],[92.7,18197],[92.9,18277],[93.2,18361],[93.3,18443],[93.5,18528],[93.7,18610],[93.9,18694],[94.1,18792],[94.2,18862],[94.3,18945],[94.4,19025],[94.6,19109],[94.7,19192],[94.8,19277],[94.8,19358],[94.8,19441],[94.8,19524],[94.8,19611],[94.8,19691],[94.8,19773],[94.8,19860],[94.8,19939],[94.8,20023],[94.8,20106],[94.8,20190],[94.8,20272],[94.8,20358]]",1,0,820.7854,822.9288,95.66310883,1.139,"[{""rating"":95.6631088256836,""responseTime"":1.1389999999998963}]",space,1.6006,,822.929,Definitely yes,100,822.9395,,,[],,0,4,4,4,1,audio/Narrative7Situation4.wav,audio/Narrative8Situation4.wav,audio/Narrative5Situation4.wav,audio/Narrative6Situation4.wav,3,3,1,2,,,,,,,,,,,,,,,,,,,,,,,,,,,,,,,,,,,,,,,
,,,,,,63d6873b65a6170d64a652f6,2024-05-13_10h58.13.018,group3.1-3.2-social-tom,2023.2.2,Linux x86_64,60.24096386,65c5074098b851296ff0b7ed,664236db582b2c238b6d90b4,,,,,,,,,,,,,,,,,,,,,,,,,,,,,822.9404,2,audio/Narrative5Situation5.wav,827.9481,,827.9481,843.3894,"[[94.7,616],[35.3,1032],[35.2,1113],[35.2,1199],[35.2,1279],[35.2,1362],[46.5,1445],[48.4,1530],[49.3,1613],[49.9,1695],[50,1778],[50,1861],[50,1944],[50,2027],[50,2110],[50,2193],[50,2276],[50,2360],[50,2443],[50,2526],[50,2609],[50,2692],[50,2775],[50,2858],[50,2941],[50,3024],[50,3141],[50,3223],[50,3306],[50,3389],[50,3473],[50,3556],[50,3640],[50,3722],[50,3805],[50,3888],[50,3972],[50,4055],[50,4138],[50,4221],[50,4304],[50,4388],[48.3,4500],[47.2,4571],[45.6,4654],[44.5,4738],[43.8,4820],[42.1,4952],[41.1,5020],[39.3,5106],[38.2,5187],[37.1,5268],[36.2,5351],[34.9,5434],[33.9,5517],[32.5,5600],[31.1,5684],[30.2,5767],[29.1,5850],[27.8,5934],[25.9,6017],[25.7,6099],[25.7,6182],[25.7,6265],[25.7,6357],[25.7,6439],[25.7,6514],[25.7,6597],[25.7,6682],[25.7,6765],[25.7,6847],[25.7,6930],[25.7,7014],[25.7,7097],[25.5,7180],[25.1,7263],[24.6,7353],[24.2,7429],[23.9,7514],[23.6,7596],[23.2,7679],[22.9,7762],[22.5,7845],[22.3,7929],[22.1,8011],[22,8094],[21.9,8178],[22.1,8261],[23.5,8347],[24.3,8446],[24.4,8526],[25.1,8614],[26.2,8692],[27,8776],[27.9,8863],[28.7,8942],[29.1,9025],[30,9108],[31.2,9191],[32.1,9274],[32.5,9359],[32.9,9441],[33.3,9524],[34.2,9607],[34.9,9690],[35.4,9773],[35.6,9856],[35.6,9939],[35.6,10022],[35.6,10105],[35.6,10188],[35.6,10271],[35.6,10371],[35.6,10440],[35.6,10521],[35.8,10603],[36,10688],[36.1,10771],[36.4,10854],[36.6,10940],[37,11020],[37.1,11103],[37.2,11186],[37.4,11271],[37.5,11353],[37.6,11435],[37.8,11518],[37.9,11602],[38,11685],[38.1,11768],[38.1,11850],[38.1,11933],[38.1,12017],[38.1,12115],[38.1,12183],[38.1,12265],[38.1,12349],[38.1,12433],[38.1,12515],[38.1,12600],[38.1,12681],[38.1,12765],[38.1,12848],[38.1,12931],[38.1,13014],[38.1,13097],[38.1,13187],[38.1,13264],[38.1,13347],[38.2,13431],[38.2,13512],[38.2,13597],[38.2,13679],[38.2,13762],[38.2,13845],[38.2,13929],[38.2,14011],[38.3,14095],[38.5,14179],[38.7,14262],[39.2,14343],[40,14427],[40.2,14511],[40.3,14593],[40.3,14676],[40.3,14760],[39.9,14843],[39.6,14926],[39.4,15009],[39,15092]]",1,0,843.3895,847.4785,30.82470576,1.7403,"[{""rating"":30.824705759684246,""responseTime"":1.740299999998797}]",space,3.5381,,847.4786,Definitely yes,100,847.4823,,,[],,0,5,5,5,1,audio/Narrative7Situation5.wav,audio/Narrative8Situation5.wav,audio/Narrative5Situation5.wav,audio/Narrative6Situation5.wav,5,2,5,2,,,,,,,,,,,,,,,,,,,,,,,,,,,,,,,,,,,,,,,
,,,,,,63d6873b65a6170d64a652f6,2024-05-13_10h58.13.018,group3.1-3.2-social-tom,2023.2.2,Linux x86_64,60.24096386,65c5074098b851296ff0b7ed,664236db582b2c238b6d90b4,,,,,,,,,,,,,,,,,,,,,,,,,,,,,847.4826,2,audio/Narrative5Situation6.wav,850.4877,,850.4878,856.1714,"[[46.6,1269],[47,1345],[48.1,1431],[48.7,1511],[49,1596],[49.2,1682],[49.4,1774],[49.5,1850],[49.5,1925],[49.6,2009],[50,2098],[50.1,2175],[50.1,2258],[50.1,2341],[50.1,2425],[50.1,2509],[50.1,2597],[50.1,2680],[50.9,2757],[52.2,2846],[53.2,2932],[56.8,3011],[60.8,3099],[67,3192],[68.6,3273],[68.8,3355],[69.1,3439],[69.1,3542],[69.1,3621],[69.1,3707],[69.1,3787],[69.1,3877],[69.6,3953],[70.6,4038],[70.9,4120],[71.3,4205],[71.5,4287],[71.8,4370],[72,4453],[72.2,4536],[72.5,4619],[72.7,4702],[73,4818],[73.1,4902],[73.2,4985],[73.4,5068],[73.5,5151],[73.6,5235],[73.6,5317],[73.6,5400],[73.6,5483],[73.6,5566],[73.6,5649]]",1,0,856.1717,858.0339,74.14562225,1.0907,"[{""rating"":74.14562225341797,""responseTime"":1.0906999999992877}]",space,1.3178,,858.0342,Partially,50,858.0443,,,[],,0,6,6,6,1,audio/Narrative7Situation6.wav,audio/Narrative8Situation6.wav,audio/Narrative5Situation6.wav,audio/Narrative6Situation6.wav,3,2,3,2,,,,,,,,,,,,,,,,,,,,,,,,,,,,,,,,,,,,,,,
,,,,,,63d6873b65a6170d64a652f6,2024-05-13_10h58.13.018,group3.1-3.2-social-tom,2023.2.2,Linux x86_64,60.24096386,65c5074098b851296ff0b7ed,664236db582b2c238b6d90b4,,,,,,,,,,,,,,,,,,,,,,,,,,,,,858.0451,2,audio/Narrative5Situation7.wav,862.0553,,862.0554,883.0978,"[[999,38],[999,115],[999,198],[999,281],[999,365],[999,450],[999,530],[51.4,614],[50.6,697],[50.3,781],[50.2,863],[50.2,948],[50.1,1029],[50.1,1113],[50.1,1196],[50.1,1279],[50.1,1363],[50.1,1445],[50.1,1528],[50.1,1611],[50.1,1694],[50.1,1777],[50,1860],[49.7,1944],[49.3,2027],[48.7,2110],[47.7,2195],[45.9,2276],[45.1,2359],[44.5,2442],[44,2527],[43.4,2611],[42.3,2693],[41.8,2775],[41.1,2859],[40.5,2942],[40,3025],[39.7,3108],[39.3,3194],[39.2,3273],[39.2,3356],[39.2,3439],[39.2,3522],[39.2,3606],[38.9,3690],[38.7,3773],[38.4,3867],[37.9,3952],[37.6,4024],[37,4104],[36.4,4204],[36.1,4287],[35.6,4370],[35.3,4453],[34.9,4537],[34.5,4646],[34.3,4721],[33.9,4802],[33.6,4887],[33.2,4968],[33,5053],[32.7,5136],[32.5,5227],[32.4,5302],[32.3,5385],[32.1,5470],[32,5555],[31.9,5633],[31.8,5724],[31.6,5800],[31.5,5883],[31.5,5966],[31.5,6049],[31.5,6132],[31.5,6215],[31.5,6298],[31.5,6381],[31.5,6464],[31.5,6547],[31.6,6631],[31.8,6714],[31.9,6798],[32,6881],[32.1,6964],[32.2,7046],[32.3,7129],[32.4,7221],[32.5,7298],[32.5,7378],[32.5,7477],[32.5,7544],[32.5,7627],[32.6,7715],[32.7,7795],[32.8,7878],[32.9,7960],[33.1,8043],[33.2,8127],[33.3,8211],[33.5,8294],[33.7,8376],[33.8,8460],[33.9,8543],[34,8626],[34,8708],[33.9,8792],[33.5,8878],[33.1,8958],[32.9,9042],[32.5,9126],[32.2,9208],[31.8,9296],[31.4,9377],[31.1,9456],[30.8,9541],[30.6,9623],[30.3,9706],[30,9790],[29.7,9874],[29.3,9955],[29,10039],[28.7,10122],[28.5,10206],[28.2,10290],[28.1,10371],[28,10453],[27.8,10538],[27.7,10620],[27.6,10702],[27.5,10787],[27.3,10870],[27.2,10953],[27.1,11037],[27,11121],[26.8,11203],[26.7,11286],[26.6,11367],[26.4,11452],[26.3,11534],[26.2,11617],[26.2,11700],[26.1,11783],[26.1,11866],[26.1,11949],[26.1,12032],[26.1,12115],[26.1,12198],[26.1,12282],[26.1,12365],[26,12449],[25.9,12531],[25.9,12614],[25.9,12698],[25.9,12781],[25.9,12865],[25.8,12947],[25.8,13030],[25.8,13113],[25.8,13196],[25.8,13279],[25.8,13363],[25.8,13445],[25.8,13529],[25.8,13612],[25.8,13696],[25.8,13777],[25.8,13860],[25.8,13944],[25.8,14027],[25.8,14110],[25.8,14194],[25.8,14278],[25.8,14360],[25.8,14443],[25.8,14525],[25.8,14608],[25.8,14692],[25.8,14776],[25.8,14858],[25.8,14941],[25.8,15025],[25.8,15108],[25.8,15191],[25.8,15274],[25.8,15357],[25.8,15442],[25.8,15523],[25.8,15607],[25.8,15689],[25.8,15773],[25.8,15856],[25.8,15939],[25.8,16029],[25.8,16111],[25.8,16187],[25.8,16275],[25.7,16354],[25.6,16437],[25.4,16521],[25.2,16605],[25,16687],[24.9,16770],[24.7,16866],[24.5,16945],[24.2,17019],[24,17103],[23.9,17186],[23.8,17268],[23.6,17351],[23.4,17435],[23.2,17520],[22.9,17602],[22.4,17684],[22,17768],[21.8,17850],[21.4,17933],[21.1,18016],[20.9,18099],[20.8,18182],[20.5,18265],[20.2,18350],[19.7,18433],[19.5,18516],[19.3,18600],[19,18682],[18.8,18766],[18.6,18848],[18.2,18931],[18,19014],[17.7,19100],[17.5,19182],[17.3,19263],[17.1,19347],[16.9,19433],[16.6,19525],[16.3,19596],[15.9,19679],[15.5,19763],[15.2,19846],[14.9,19929],[14.7,20011],[14.6,20095],[14.4,20177],[14.3,20261],[14.2,20344],[14,20455],[13.9,20528],[13.8,20609],[13.8,20694],[13.8,20775],[13.8,20859],[13.8,20942],[13.8,21025]]",1,0,883.0983,885.1589,13.24907939,1.6608,"[{""rating"":13.24907938639323,""responseTime"":1.6607999999987442}]",space,1.5188,,885.1589,Not at all,0,885.1632,,,[],,0,7,7,7,1,audio/Narrative7Situation7.wav,audio/Narrative8Situation7.wav,audio/Narrative5Situation7.wav,audio/Narrative6Situation7.wav,5,3,4,5,,,,,,,,,,,,,,,,,,,,,,,,,,,,,,,,,,,,,,,
,,,,,,63d6873b65a6170d64a652f6,2024-05-13_10h58.13.018,group3.1-3.2-social-tom,2023.2.2,Linux x86_64,60.24096386,65c5074098b851296ff0b7ed,664236db582b2c238b6d90b4,,,,,,,,,,,,,,,,,,,,,,,,,,,,,885.1636,2,audio/Narrative5Situation8.wav,888.1667,,888.1667,896.994,"[[49.6,1346],[49.6,1432],[49.6,1513],[49.5,1598],[49.5,1679],[49.5,1762],[49.5,1845],[49.5,1929],[49.5,2052],[49.5,2127],[48.9,2210],[48.4,2294],[47.5,2377],[45.7,2460],[44.6,2543],[43.1,2626],[41.1,2711],[39.5,2793],[38.3,2875],[37.2,2959],[36.1,3042],[34.9,3125],[34.1,3208],[33.8,3292],[33.7,3374],[33.7,3457],[33.7,3540],[33.7,3624],[31.7,3710],[31,3799],[30.7,3872],[29.7,3955],[28.7,4038],[28,4121],[27,4205],[26.3,4290],[25.2,4372],[24.3,4455],[23.9,4538],[23.3,4621],[22.7,4704],[22.3,4787],[22.1,4870],[21.9,4953],[21.6,5040],[21.4,5119],[21.2,5202],[21,5292],[20.8,5368],[20.7,5451],[20.6,5536],[20.5,5619],[20.4,5703],[20.2,5784],[20.2,5868],[20.2,5950],[20.2,6033],[20.2,6116],[20.2,6199],[20.2,6283],[20.2,6366],[20.2,6449],[20.2,6532],[20.2,6615],[20.2,6698],[20.2,6781],[20.2,6864],[20.2,6948],[20.2,7033],[20.2,7117],[20.2,7197],[20.2,7280],[20.2,7373],[20.2,7445],[20.2,7529],[20.2,7612],[20.2,7695],[20.2,7779],[20.2,7863],[20.2,7945],[20.2,8028],[20.2,8112],[20.2,8194],[20.2,8277],[20.2,8361],[20.2,8443],[20.2,8527],[20.2,8610],[20.2,8693],[20.2,8776]]",1,0,896.9943,899.3205,17.56940206,1.6516,"[{""rating"":17.56940205891927,""responseTime"":1.651599999999462}]",space,1.7826,,899.3206,Not at all,0,899.3275,,,[],,0,8,8,8,1,audio/Narrative7Situation8.wav,audio/Narrative8Situation8.wav,audio/Narrative5Situation8.wav,audio/Narrative6Situation8.wav,2,3,3,5,,,,,,,,,,,,,,,,,,,,,,,,,,,,,,,,,,,,,,,
,,,,,,63d6873b65a6170d64a652f6,2024-05-13_10h58.13.018,group3.1-3.2-social-tom,2023.2.2,Linux x86_64,60.24096386,65c5074098b851296ff0b7ed,664236db582b2c238b6d90b4,,,,,,,,,,,,,,,,,,,,,,,,,,,,,899.3284,2,audio/Narrative5Situation9.wav,902.3297,,902.33,941.9104,"[[38.4,1030],[45.9,1113],[48.7,1195],[49.5,1278],[49.5,1367],[49.9,1446],[50.6,1537],[50.7,1617],[50.7,1695],[50.7,1776],[50.7,1860],[50.7,1949],[50.7,2026],[50.7,2109],[50.7,2199],[50.7,2276],[50.7,2358],[50.7,2448],[50.7,2529],[50.7,2614],[50.7,2697],[50.7,2773],[50.7,2861],[50.7,2946],[50.7,3023],[50.7,3113],[50.7,3196],[50.7,3273],[50.7,3362],[50.7,3446],[50.7,3527],[50.7,3611],[50.7,3688],[50.7,3772],[50.7,3861],[50.7,3937],[50.7,4027],[50.7,4103],[50.7,4194],[50.7,4269],[50.7,4353],[50.7,4438],[50.7,4520],[50.7,4603],[46.4,4703],[45.5,4790],[44.7,4874],[44.1,4952],[43.6,5034],[43.2,5118],[42.9,5202],[42.5,5284],[42,5369],[41.1,5451],[40.8,5533],[40.2,5616],[39.9,5699],[39.7,5783],[39.6,5866],[39.2,5949],[37.8,6032],[36.6,6115],[35.8,6198],[35.5,6286],[35.5,6366],[35.5,6447],[35.5,6530],[35.5,6613],[34.2,6696],[33.7,6780],[33.1,6863],[31.9,6946],[30.4,7029],[29.7,7112],[29.2,7195],[28.7,7278],[28.1,7361],[27.6,7509],[27.4,7578],[27.2,7660],[27,7744],[26.8,7826],[26.3,7910],[26,7992],[25.8,8075],[25.6,8160],[25.5,8242],[25.4,8325],[25.4,8408],[25.6,8495],[26.1,8575],[26.2,8657],[26.2,8740],[26.2,8823],[26.5,8907],[26.6,8992],[26.8,9074],[26.9,9157],[27,9239],[27.3,9323],[28.1,9406],[28.3,9489],[28.5,9572],[28.8,9655],[29.2,9739],[29.5,9821],[29.9,9905],[30.5,9988],[30.8,10071],[31.1,10155],[31.2,10238],[31.4,10322],[31.5,10403],[31.6,10486],[31.6,10569],[31.6,10652],[31.6,10735],[31.6,10818],[31.3,10902],[31.2,10985],[31.2,11068],[32.3,11151],[32.9,11234],[33.1,11318],[33.1,11402],[33.2,11484],[34.3,11568],[34.7,11650],[34.8,11734],[35.3,11816],[36.3,11899],[36.5,11982],[36.8,12065],[37.6,12149],[37.9,12232],[38.5,12315],[39,12398],[39.6,12482],[41.4,12565],[42,12647],[42.2,12730],[42.8,12814],[43.1,12897],[44,12979],[44.6,13063],[45,13146],[45.7,13229],[46.2,13312],[46.9,13395],[47.7,13478],[48.1,13561],[48.6,13644],[49.2,13728],[49.5,13811],[49.6,13893],[49.6,13976],[49.6,14059],[49.6,14142],[49.6,14226],[49.6,14310],[49.6,14392],[49.6,14475],[49.6,14558],[49.6,14641],[49.6,14724],[49.6,14807],[49.6,14890],[49.6,14984],[48.8,15058],[47.9,15140],[47.1,15223],[46,15309],[45.5,15393],[45.3,15473],[45.2,15556],[45.2,15638],[45.7,15723],[45.7,15805],[45.5,15888],[43.9,15972],[43.1,16055],[42.8,16138],[42.5,16221],[42.3,16304],[42.1,16431],[41.9,16503],[42.2,16586],[47.5,16669],[49.2,16752],[51.7,16838],[55.9,16920],[57.1,17011],[58.1,17088],[59.4,17167],[60.5,17250],[61.9,17334],[62.9,17419],[63.9,17501],[64.3,17583],[64.3,17666],[64.3,17752],[64.3,17832],[64.3,17917],[64.3,18005],[64.9,18082],[65.7,18166],[65.8,18248],[65.8,18332],[65.4,18415],[64.3,18499],[63.8,18583],[63.4,18664],[63.1,18747],[62.4,18831],[61.6,18914],[60.8,18998],[60.3,19080],[59.9,19164],[59.6,19278],[59.4,19347],[59.1,19428],[58.6,19513],[58.4,19594],[58.2,19678],[58,19762],[57.8,19844],[57.5,19930],[57.3,20013],[56.7,20094],[56.3,20177],[56,20259],[55.5,20342],[55,20428],[54.6,20509],[54.1,20593],[53.9,20675],[53.9,20758],[53.9,20841],[53.9,20924],[53.9,21007],[53.8,21091],[53.4,21174],[52.6,21280],[52.2,21373],[51.6,21456],[51.3,21540],[51.1,21622],[50.8,21706],[50.5,21789],[50.4,21873],[50.2,21955],[50.1,22039],[49.9,22122],[49.8,22205],[49.7,22288],[49.6,22371],[49.5,22453],[49.5,22536],[49.4,22620],[49.3,22714],[49,22789],[48.7,22870],[48.3,22953],[47.7,23036],[47.2,23119],[46.9,23202],[46.6,23285],[46.1,23368],[45.9,23456],[45.6,23534],[45.3,23621],[45.1,23700],[44.8,23783],[44.7,23873],[44.6,23949],[44.5,24032],[44.8,24115],[45.2,24199],[45.6,24283],[46.1,24366],[46.5,24449],[46.9,24532],[47,24615],[46.5,24699],[45.8,24781],[45.6,24866],[45.4,24947],[45.3,25030],[45.1,25113],[44.7,25203],[44.6,25280],[44.4,25362],[44.2,25445],[43.8,25528],[43.5,25612],[43.4,25696],[43.1,25778],[42.6,25862],[42.2,25945],[41.9,26028],[41.2,26110],[40.8,26194],[39.7,26277],[39.4,26363],[38.7,26444],[38.5,26526],[38.4,26609],[38.4,26692],[38.4,26775],[38.4,26858],[38.4,26941],[38.4,27024],[38.4,27108],[38.1,27192],[37.9,27275],[37.7,27357],[37.4,27440],[37.3,27524],[37.2,27607],[37.2,27689],[37.2,27772],[37.2,27855],[37.2,27938],[37.2,28057],[37.9,28139],[40.5,28221],[42.5,28304],[46.4,28387],[47.7,28471],[48.8,28556],[49.8,28637],[50.9,28721],[52.8,28806],[53.8,28888],[55.4,28969],[56.8,29056],[57.9,29136],[58.8,29218],[60.5,29302],[62.3,29386],[63.4,29469],[64.1,29551],[64.1,29634],[64.1,29717],[64.1,29800],[64.1,29883],[65.3,29967],[67.5,30051],[69.5,30133],[71.4,30216],[72.1,30300],[73,30383],[73.8,30465],[74.5,30549],[76.2,30631],[77.5,30715],[78.7,30798],[80.4,30888],[81.4,30963],[82.3,31047],[84.2,31130],[85.1,31212],[85.7,31295],[86.7,31379],[87.2,31462],[87.9,31546],[88.6,31630],[88.8,31712],[89.5,31795],[90.1,31878],[90.5,31961],[91,32044],[91.3,32128],[91.6,32211],[92.1,32294],[92.4,32377],[92.6,32460],[92.9,32544],[93.2,32626],[93.5,32709],[93.7,32792],[94,32876],[94.3,32958],[94.6,33042],[94.8,33125],[95,33207],[95.3,33327],[95.5,33406],[95.6,33490],[95.6,33572],[95.6,33656],[95.6,33741],[95.1,33823],[94.4,33906],[93.9,33989],[93.5,34072],[93.3,34155],[92.7,34238],[92,34322],[91.6,34404],[91.1,34487],[90.7,34571],[90.3,34654],[89.3,34739],[88,34820],[87.5,34903],[87.1,34987],[86.6,35070],[86.1,35153],[85.3,35247],[84.7,35320],[84.1,35407],[83.2,35485],[82.4,35569],[81.7,35650],[80.9,35734],[80.5,35817],[80,35900],[79.8,35983],[79.4,36067],[78.8,36150],[78.3,36233],[77.7,36316],[77.2,36399],[76.6,36482],[75.9,36567],[75.1,36653],[74.1,36731],[73.4,36814],[73.1,36898],[72.6,36981],[72.4,37064],[72.1,37147],[71.9,37230],[71.6,37313],[71,37399],[70.4,37478],[69.7,37563],[69,37647],[68.3,37729],[67.7,37812],[67.2,37895],[66.8,37978],[66.6,38061],[66.4,38144],[66.3,38227],[66.2,38339],[66.2,38412],[66.2,38493],[66.2,38575],[66.2,38659],[66.2,38743],[66.1,38827],[65.8,38910],[65.7,38993],[65.6,39076],[65.5,39158],[65.4,39241],[65.4,39326],[65.4,39407],[65.4,39490]]",1,0,941.9106,944.614,63.67961884,2.0636,"[{""rating"":63.67961883544921,""responseTime"":2.063599999999724}]",space,2.1642,,944.6143,Partially,50,944.6241,,,[],,0,9,9,9,1,audio/Narrative7Situation9.wav,audio/Narrative8Situation9.wav,audio/Narrative5Situation9.wav,audio/Narrative6Situation9.wav,2,3,3,4,,,,,,,,,,,,,,,,,,,,,,,,,,,,,,,,,,,,,,,
,,,,,,63d6873b65a6170d64a652f6,2024-05-13_10h58.13.018,group3.1-3.2-social-tom,2023.2.2,Linux x86_64,60.24096386,65c5074098b851296ff0b7ed,664236db582b2c238b6d90b4,,,,,,,,,,,,,,,,,,,,,,,,,,,,,944.6249,2,audio/Narrative6Situation1.wav,946.6402,,946.6402,973.2356,"[[63.1,835],[62.8,916],[62.1,1008],[53.2,1248],[50.5,1333],[49.9,1413],[49.3,1497],[49.2,1589],[49.2,1663],[49.2,1745],[49.2,1828],[49.2,1913],[49.4,1995],[49.5,2081],[49.5,2162],[49.5,2244],[49.5,2328],[49.5,2412],[49.5,2498],[49.5,2576],[49.5,2665],[49.5,2742],[49.5,2827],[49.5,2909],[49.5,2992],[49.5,3076],[49.5,3159],[49.5,3242],[49.5,3325],[49.5,3407],[49.5,3490],[49.5,3573],[49.5,3656],[49.5,3740],[49.5,3823],[49.5,3906],[49.5,3989],[49.5,4074],[49.5,4155],[49.5,4239],[49.5,4322],[49.5,4405],[49.5,4489],[49.5,4571],[49.5,4654],[49.5,4738],[49.5,4821],[49.5,4906],[49.5,4987],[49.5,5070],[49.5,5153],[49.5,5248],[49.5,5320],[49.5,5402],[49.5,5485],[49.5,5568],[49.5,5652],[53.8,5766],[57.3,5835],[61,5919],[63.4,6001],[63.8,6084],[64.3,6168],[66,6250],[67.5,6333],[68.7,6417],[70.5,6499],[72.1,6583],[72.1,6666],[72.1,6749],[72.1,6832],[72.1,6914],[72.1,6998],[72.8,7082],[74.2,7165],[75.7,7267],[76.4,7346],[77.3,7430],[77.7,7513],[78.2,7596],[79,7680],[79.4,7765],[79.7,7846],[79.9,7929],[80.5,8013],[80.8,8095],[81.3,8179],[81.7,8262],[81.9,8344],[82.3,8428],[82.7,8511],[83.2,8594],[83.4,8677],[83.6,8760],[83.9,8843],[84.1,8927],[84.3,9009],[84.5,9093],[84.6,9176],[84.7,9259],[84.9,9342],[84.9,9424],[84.9,9507],[84.9,9590],[84.9,9674],[84.9,9757],[84.9,9841],[84.9,9940],[84.9,10023],[84.9,10105],[84.9,10188],[84.9,10272],[84.9,10355],[84.8,10438],[84.7,10521],[84.7,10604],[84.6,10688],[84.5,10771],[84.2,10868],[83.2,10943],[81.7,11021],[80.1,11105],[78.6,11187],[77.7,11270],[76.6,11354],[75.5,11437],[74.4,11520],[73.6,11602],[73.4,11686],[73.3,11769],[73.1,11852],[72.9,11936],[72.8,12019],[72.4,12102],[72.1,12194],[71.5,12267],[54.6,12626],[50.9,12707],[48.2,12865],[48.2,12948],[48.2,13031],[48.2,13127],[45.2,13208],[38.7,13280],[33.6,13363],[32.3,13447],[31.4,13529],[30.3,13613],[28.9,13696],[28.1,13780],[27.8,13863],[27.5,13946],[26.8,14029],[26.7,14112],[27,14196],[27.5,14278],[27.5,14361],[24.4,14445],[23.7,14528],[23.6,14611],[23.1,14694],[22.6,14777],[22.1,14860],[21.1,14966],[20.8,15043],[20.6,15125],[20.2,15210],[19.5,15292],[18.8,15375],[18.1,15458],[17.8,15543],[17.4,15624],[16.6,15708],[16,15791],[15.9,15873],[15.9,15956],[15.9,16042],[15.9,16123],[15.9,16207],[15.9,16289],[15.5,16373],[15,16455],[14.4,16539],[13.6,16622],[13.4,16705],[13.1,16789],[12.9,16872],[12.4,17012],[12,17088],[11.8,17170],[11.6,17271],[11.3,17353],[11,17436],[10.7,17521],[10.3,17603],[10.1,17686],[9.9,17769],[9.8,17851],[9.7,17934],[9.5,18017],[9.4,18102],[9.3,18184],[9.2,18268],[9.2,18350],[9.2,18434],[9.2,18516],[9.2,18599],[9.2,18683],[9.2,18765],[9.2,18848],[9.2,18932],[9.2,19014],[9.2,19099],[9.2,19182],[9.2,19265],[9.2,19348],[9.2,19434],[9.2,19515],[9.3,19597],[9.3,19680],[9.3,19763],[9.3,19846],[9.3,19930],[9.3,20012],[9.3,20096],[9.3,20185],[9.3,20264],[9.3,20346],[9.3,20428],[9.3,20511],[9.3,20594],[9.3,20677],[9.3,20761],[9.3,20843],[9.7,20926],[11,21010],[12.2,21093],[14.6,21184],[17.3,21266],[22.3,21343],[26.8,21425],[30.8,21508],[35,21591],[40.5,21675],[45.4,21758],[51.6,21842],[54.6,21924],[61.7,22008],[65.6,22589],[68.9,22674],[70.7,22756],[71.4,22839],[72.5,22923],[74,23016],[74.6,23087],[75.2,23171],[75.8,23254],[76,23337],[76.1,23421],[76.2,23503],[76.4,23587],[76.5,23670],[76.6,23753],[76.7,23836],[76.8,23920],[76.9,24011],[77.2,24092],[77.7,24167],[77.9,24250],[77.9,24337],[77.9,24417],[77.9,24500],[77.9,24583],[77.9,24667],[78.1,24751],[78.8,24834],[79,24923],[79.5,25001],[80,25082],[80.3,25165],[80.8,25248],[81.1,25333],[81.5,25416],[81.7,25498],[81.8,25581],[81.9,25664],[81.9,25747],[81.9,25830],[81.9,25913],[81.9,25997],[81.9,26080],[81.9,26164],[81.9,26245],[81.9,26329],[81.9,26411],[81.9,26495],[81.9,26578]]",1,0,973.2363,975.1538,82.38920848,1.2976,"[{""rating"":82.3892084757487,""responseTime"":1.2975999999996475}]",space,1.3734,,975.1541,Partially,50,975.1635,,,[],,0,10,10,10,1,audio/Narrative8Situation1.wav,audio/Narrative7Situation1.wav,audio/Narrative6Situation1.wav,audio/Narrative5Situation1.wav,5,2,2,5,,,,,,,,,,,,,,,,,,,,,,,,,,,,,,,,,,,,,,,
,,,,,,63d6873b65a6170d64a652f6,2024-05-13_10h58.13.018,group3.1-3.2-social-tom,2023.2.2,Linux x86_64,60.24096386,65c5074098b851296ff0b7ed,664236db582b2c238b6d90b4,,,,,,,,,,,,,,,,,,,,,,,,,,,,,975.1643,2,audio/Narrative6Situation2.wav,978.1716,,978.1717,1006.6775,"[[78.1,3022],[76.6,3092],[76.3,3176],[71.9,3258],[55,3341],[54.2,3427],[53.8,3508],[53,3598],[52.8,3673],[51.9,3756],[51.6,3839],[50.4,3922],[49.8,4006],[49.8,4088],[49.8,4172],[49.8,4255],[49.8,4339],[49.2,4426],[48.4,4503],[48.3,4587],[48.1,4673],[48.2,4753],[49.2,4836],[50.2,4920],[50.7,5004],[54.5,5087],[55.3,5169],[56.7,5252],[58,5335],[59,5419],[60.4,5513],[61.7,5584],[63.2,5667],[63.8,5750],[63.8,5833],[63.8,5918],[63.8,5999],[63.8,6083],[63.8,6167],[63.8,6249],[63.8,6335],[63.8,6416],[64,6499],[64.1,6581],[64.5,6665],[65.5,6747],[66.7,6831],[68,6915],[69.1,7001],[69.9,7081],[70.7,7164],[71.2,7249],[71.8,7333],[72.3,7412],[72.9,7498],[73.1,7579],[73.3,7662],[73.4,7752],[73.6,7830],[73.7,7912],[73.8,7994],[73.8,8077],[73.9,8161],[73.9,8267],[73.9,8345],[73.9,8426],[73.9,8510],[74,8592],[74,8676],[74.2,8759],[74.3,8843],[74.4,8924],[74.5,9009],[74.7,9093],[74.8,9175],[74.9,9258],[75,9342],[75.2,9424],[75.3,9516],[75.4,9607],[75.6,9690],[75.6,9784],[75.7,9857],[75.7,9939],[75.8,10022],[75.9,10105],[76.1,10188],[76.2,10272],[76.3,10358],[76.5,10454],[76.5,10537],[76.6,10620],[76.6,10703],[76.6,10786],[76.6,10869],[76.6,10953],[76.6,11036],[76.6,11119],[76.6,11222],[76.6,11301],[76.6,11384],[76.6,11468],[76.6,11550],[76.6,11635],[76.6,11717],[76.6,11801],[76.6,11885],[76.6,11967],[76.6,12049],[76.6,12136],[76.6,12215],[76.9,12299],[77.1,12382],[77.3,12465],[77.6,12550],[77.7,12632],[77.9,12717],[78.1,12799],[78.3,12884],[78.4,12971],[78.5,13055],[78.6,13130],[78.8,13220],[78.9,13303],[79,13389],[79,13464],[79,13546],[79,13629],[79,13712],[79,13803],[79,13878],[79,13961],[79,14052],[79,14128],[79,14218],[79,14294],[79,14377],[79,14459],[79,14548],[79,14625],[79,14719],[79,14800],[79,14875],[79,14964],[79,15041],[79,15130],[79,15207],[79,15290],[79,15374],[79,15459],[79,15540],[79,15623],[79,15713],[79,15789],[79,15873],[79,15956],[79,16056],[79.2,16139],[79.3,16223],[79.4,16305],[79.6,16390],[79.6,16475],[79.6,16554],[79.8,16638],[79.9,16722],[80.1,16804],[80.3,16887],[80.5,16970],[80.6,17053],[80.7,17136],[80.9,17271],[81,17357],[81.1,17437],[81.3,17523],[81.6,17618],[82.2,17701],[82.9,17784],[83.8,17867],[84.7,17950],[85.3,18034],[85.7,18117],[85.9,18201],[86.6,18285],[87.5,18367],[87.7,18451],[88,18533],[88.2,18615],[88.7,18701],[88.9,18783],[89.2,18865],[89.4,18948],[89.7,19033],[89.9,19114],[90.1,19199],[90.3,19280],[90.4,19364],[90.5,19447],[90.7,19530],[90.8,19614],[90.9,19696],[91,19779],[91.2,19862],[91.3,19946],[91.4,20029],[91.5,20112],[91.6,20194],[91.6,20278],[91.7,20361],[91.8,20444],[91.9,20527],[91.9,20611],[91.9,20694],[92,20777],[92.2,20860],[92.3,20943],[92.4,21026],[92.4,21110],[92.4,21192],[92.5,21276],[92.5,21358],[92.5,21441],[92.6,21524],[92.7,21610],[92.7,21693],[92.8,21773],[92.8,21857],[92.9,21941],[92.9,22024],[93,22107],[93.1,22191],[93.1,22274],[93.1,22356],[93.1,22438],[93.1,22522],[93.1,22605],[93.1,22705],[93.1,22804],[93.1,22886],[93.1,22970],[93.1,23052],[93.1,23136],[93.1,23220],[93.1,23302],[93.1,23385],[93.1,23469],[93.1,23551],[93.1,23634],[93.1,23720],[93,23800],[92.9,23884],[92.8,23968],[92.6,24052],[92.6,24133],[92.7,24217],[92.8,24300],[92.9,24384],[93.1,24466],[93.2,24549],[93.5,24633],[93.6,24716],[93.8,24799],[94,24882],[94.1,24965],[94.2,25049],[94.4,25131],[94.5,25215],[94.6,25299],[94.7,25380],[94.9,25466],[95,25546],[95.1,25629],[95.1,25713],[95.2,25796],[95.5,25898],[95.6,25978],[95.7,26067],[95.7,26145],[95.8,26227],[95.8,26311],[95.8,26394],[95.9,26478],[95.9,26561],[96.1,26644],[96.2,26727],[96.3,26811],[96.4,26894],[96.5,26976],[96.5,27059],[96.5,27158],[96.5,27241],[96.5,27324],[96.5,27409],[96.5,27491],[96.5,27575],[97,27658],[97.7,27741],[97.9,27824],[98.3,27907],[99,27990],[99.1,28094],[99.1,28172],[99.1,28255],[99.1,28338],[99.1,28421],[99.1,28505]]",1,0,1006.6781,1009.6697,99.46671804,1.924,"[{""rating"":99.46671803792317,""responseTime"":1.9239999999999782}]",space,2.4518,,1009.67,Definitely yes,100,1009.6816,,,[],,0,11,11,11,1,audio/Narrative8Situation2.wav,audio/Narrative7Situation2.wav,audio/Narrative6Situation2.wav,audio/Narrative5Situation2.wav,3,3,3,3,,,,,,,,,,,,,,,,,,,,,,,,,,,,,,,,,,,,,,,
,,,,,,63d6873b65a6170d64a652f6,2024-05-13_10h58.13.018,group3.1-3.2-social-tom,2023.2.2,Linux x86_64,60.24096386,65c5074098b851296ff0b7ed,664236db582b2c238b6d90b4,,,,,,,,,,,,,,,,,,,,,,,,,,,,,1009.6825,2,audio/Narrative6Situation3.wav,1014.6927,,1014.6928,1027.3216,"[[50.4,994],[50.4,1077],[49.7,1160],[49.3,1243],[49.2,1326],[49.2,1408],[49.2,1491],[49.2,1576],[49.2,1658],[49.2,1741],[49.2,1825],[49.2,1908],[49.2,1990],[49.2,2073],[49.2,2156],[49.2,2240],[49.2,2323],[49.2,2406],[49.2,2489],[49.2,2572],[49.2,2655],[49.2,2738],[48.9,2822],[47.8,2905],[47,2989],[46.2,3072],[43.7,3154],[42.5,3237],[42.2,3320],[42.1,3431],[42.1,3502],[42.1,3585],[42,3669],[42,3752],[42,3835],[42,3928],[42,4018],[41.9,4102],[41.8,4184],[41.7,4267],[41.6,4350],[41.6,4433],[41.6,4516],[41.6,4599],[41.6,4683],[41.4,4766],[41.3,4848],[41.3,4932],[41.2,5021],[40.9,5099],[40.8,5181],[40.7,5265],[40.6,5347],[40.6,5430],[40.6,5514],[40.6,5597],[40.6,5680],[40.6,5763],[40.6,5846],[40.6,5929],[40.6,6012],[40.6,6095],[40.6,6188],[40.6,6263],[40.6,6344],[40.6,6442],[40.6,6510],[40.6,6594],[40.6,6680],[40.6,6760],[45,6844],[49.9,6927],[57.6,7012],[62.3,7094],[64.7,7176],[69.4,7259],[74.6,7344],[80.8,7428],[83.3,7510],[84.4,7592],[84.4,7675],[84.4,7758],[84.4,7841],[84.4,7924],[84.4,8009],[84.4,8089],[84.4,8180],[84.4,8256],[84.4,8339],[84.4,8422],[84.4,8505],[84.4,8588],[84.6,8673],[84.7,8756],[84.8,8840],[84.9,8922],[84.9,9004],[84.9,9088],[84.9,9170],[85,9254],[85,9338],[85,9419],[85,9503],[85,9586],[85,9669],[85,9752],[85,9836],[85,9919],[85,10001],[85,10085],[85,10169],[85,10251],[85,10334],[85,10417],[85,10500],[85,10583],[85,10667],[85,10749],[85,10833],[85,10916],[85,11016],[85,11099],[85,11182],[85,11264],[85,11347],[85,11431],[85,11514],[85,11597],[85,11681],[85,11763],[85,11846],[85,11929],[85,12012],[85,12096],[85,12179],[85,12262],[85,12345],[85,12429],[85,12512],[85,12594]]",1,0,1027.322,1029.0326,85.76034546,1.2158,"[{""rating"":85.76034545898438,""responseTime"":1.2158000000006268}]",space,1.1456,,1029.0327,Not at all,0,1029.0433,,,[],,0,12,12,12,1,audio/Narrative8Situation3.wav,audio/Narrative7Situation3.wav,audio/Narrative6Situation3.wav,audio/Narrative5Situation3.wav,4,8,5,3,,,,,,,,,,,,,,,,,,,,,,,,,,,,,,,,,,,,,,,
