exp_question,consent.started,consent.stopped,consentResponse.keys,consentResponse.rt,consentResponse.duration,participantID,date,expName,psychopyVersion,OS,frameRate,STUDY_ID,SESSION_ID,opening1.started,opening1.stopped,keyEndingOpening1.keys,keyEndingOpening1.rt,keyEndingOpening1.duration,volumeAdjust.started,volumeAdjust.stopped,endingAdjust.keys,endingAdjust.rt,endingAdjust.duration,opening2.started,opening2.stopped,keyEndingOpening.keys,keyEndingOpening.rt,keyEndingOpening.duration,mouse.x,mouse.y,mouse.leftButton,mouse.midButton,mouse.rightButton,mouse.time,instructionLoop.thisRepN,instructionLoop.thisTrialN,instructionLoop.thisN,instructionLoop.thisIndex,instructionLoop.ran,readyForAudio.started,readyForAudio.stopped,fixation.started,run,audio_played,fixation.stopped,endPractice.keys,audioPre.started,audioPre.stopped,continuousResponses_audio,continuousSlider.response,continuousSlider.rt,intRating.started,intRating.stopped,intQuestionSlider.response,intQuestionSlider.rt,intQuestionSlider.history,confirmResponse.keys,confirmResponse.rt,confirmResponse.duration,catchQuestion.started,catch_label,catch_value,catchQuestion.stopped,catchQuestionSlider.response,catchQuestionSlider.rt,catchQuestionSlider.history,confirmResponse_2.keys,audioRunLoop.thisRepN,audioRunLoop.thisTrialN,audioRunLoop.thisN,audioRunLoop.thisIndex,audioRunLoop.ran,conditions1_1,conditions2_1,conditions1_2,conditions2_2,dur1_1,dur2_1,dur1_2,dur2_2,endPractice.rt,endPractice.duration,confirmResponse_2.rt,confirmResponse_2.duration,runIntervalBreak.started,runIntervalBreak.stopped,endingBreakKey.keys,endingBreakKey.rt,endingBreakKey.duration,connection.started,connection.stopped,connectionEnding.keys,connectionEnding.rt,connectionEnding.duration,readyForText.started,readyForText.stopped,textPre.started,run_dup,textPre.stopped,continuousResponses_text,textRunLoop.thisRepN,textRunLoop.thisTrialN,textRunLoop.thisN,textRunLoop.thisIndex,textRunLoop.ran,text1_1,text1_2,text2_1,text2_2,runBreakText.started,runBreakText.stopped,endingBreakKey_2.keys,endingBreakKey_2.rt,endingBreakKey_2.duration,ending.started,ending.stopped,endingEnding.keys,endingEnding.rt,endingEnding.duration
social,0.0005,7.2478,y,6.9253,,63d82b2de40f94ceb14816cc,2024-02-08_15h18.39.308,group3.1-3.2-social-tom,2023.2.2,Win32,60.24096386,65c5074098b851296ff0b7ed,65c5446a75e1c9f5133795a5,,,,,,,,,,,,,,,,,,,,,,,,,,,,,,,,,,,,,,,,,,,,,,,,,,,,,,,,,,,,,,,,,,,,,,,,,,,,,,,,,,,,,,,,,,,,,,,,,,,,,,,,,,
,,,,,,63d82b2de40f94ceb14816cc,2024-02-08_15h18.39.308,group3.1-3.2-social-tom,2023.2.2,Win32,60.24096386,65c5074098b851296ff0b7ed,65c5446a75e1c9f5133795a5,7.248,13.3479,space,6.0656,,,,,,,,,,,,,,,,,,,,,,,,,,,,,,,,,,,,,,,,,,,,,,,,,,,,,,,,,,,,,,,,,,,,,,,,,,,,,,,,,,,,,,,,,,,,,,,,,,,,,,
,,,,,,63d82b2de40f94ceb14816cc,2024-02-08_15h18.39.308,group3.1-3.2-social-tom,2023.2.2,Win32,60.24096386,65c5074098b851296ff0b7ed,65c5446a75e1c9f5133795a5,,,,,,13.348,34.7818,space,21.1104,,,,,,,,,,,,,,,,,,,,,,,,,,,,,,,,,,,,,,,,,,,,,,,,,,,,,,,,,,,,,,,,,,,,,,,,,,,,,,,,,,,,,,,,,,,,,,,,,
,,,,,,63d82b2de40f94ceb14816cc,2024-02-08_15h18.39.308,group3.1-3.2-social-tom,2023.2.2,Win32,60.24096386,65c5074098b851296ff0b7ed,65c5446a75e1c9f5133795a5,,,,,,,,,,,34.789,49.3481,space,14.5379,,[0.09463973966626858],[0.3186226206377518],[1],[0],[0],[14.427699999988079],0,0,0,0,1,,,,,,,,,,,,,,,,,,,,,,,,,,,,,,,,,,,,,,,,,,,,,,,,,,,,,,,,,,,,,,,,,,,,,,,,,,,,,,,,
,,,,,,63d82b2de40f94ceb14816cc,2024-02-08_15h18.39.308,group3.1-3.2-social-tom,2023.2.2,Win32,60.24096386,65c5074098b851296ff0b7ed,65c5446a75e1c9f5133795a5,,,,,,,,,,,49.3484,58.8978,space,9.4892,,[],[],[],[],[],[],1,0,1,0,1,,,,,,,,,,,,,,,,,,,,,,,,,,,,,,,,,,,,,,,,,,,,,,,,,,,,,,,,,,,,,,,,,,,,,,,,,,,,,,,,
,,,,,,63d82b2de40f94ceb14816cc,2024-02-08_15h18.39.308,group3.1-3.2-social-tom,2023.2.2,Win32,60.24096386,65c5074098b851296ff0b7ed,65c5446a75e1c9f5133795a5,,,,,,,,,,,58.9026,59.3645,space,0.4438,,[],[],[],[],[],[],2,0,2,0,1,,,,,,,,,,,,,,,,,,,,,,,,,,,,,,,,,,,,,,,,,,,,,,,,,,,,,,,,,,,,,,,,,,,,,,,,,,,,,,,,
,,,,,,63d82b2de40f94ceb14816cc,2024-02-08_15h18.39.308,group3.1-3.2-social-tom,2023.2.2,Win32,60.24096386,65c5074098b851296ff0b7ed,65c5446a75e1c9f5133795a5,,,,,,,,,,,59.3647,59.731,space,0.3466,,[],[],[],[],[],[],3,0,3,0,1,,,,,,,,,,,,,,,,,,,,,,,,,,,,,,,,,,,,,,,,,,,,,,,,,,,,,,,,,,,,,,,,,,,,,,,,,,,,,,,,
,,,,,,63d82b2de40f94ceb14816cc,2024-02-08_15h18.39.308,group3.1-3.2-social-tom,2023.2.2,Win32,60.24096386,65c5074098b851296ff0b7ed,65c5446a75e1c9f5133795a5,,,,,,,,,,,59.7311,59.9978,space,0.2554,,[],[],[],[],[],[],4,0,4,0,1,,,,,,,,,,,,,,,,,,,,,,,,,,,,,,,,,,,,,,,,,,,,,,,,,,,,,,,,,,,,,,,,,,,,,,,,,,,,,,,,
,,,,,,63d82b2de40f94ceb14816cc,2024-02-08_15h18.39.308,group3.1-3.2-social-tom,2023.2.2,Win32,60.24096386,65c5074098b851296ff0b7ed,65c5446a75e1c9f5133795a5,,,,,,,,,,,,,,,,,,,,,,,,,,,59.999,62.5814,62.5923,1,audio/Narrative13Situation2.wav,64.598,,64.5981,94.3484,"[[999,0],[999,82],[999,166],[999,249],[999,333],[999,416],[999,499],[999,582],[999,666],[999,749],[999,833],[999,916],[999,999],[999,1082],[999,1166],[999,1249],[999,1332],[999,1416],[999,1499],[999,1582],[999,1666],[999,1749],[999,1833],[999,1916],[999,1999],[999,2083],[999,2165],[999,2249],[999,2333],[999,2416],[999,2499],[999,2583],[999,2666],[999,2749],[999,2833],[999,2916],[999,2999],[999,3082],[999,3166],[999,3249],[999,3333],[999,3420],[999,3499],[999,3583],[999,3667],[999,3749],[999,3832],[999,3916],[999,3999],[999,4082],[999,4166],[999,4249],[999,4332],[999,4416],[999,4499],[999,4583],[999,4666],[999,4749],[999,4832],[999,4916],[999,4999],[999,5082],[57.2,5166],[56.1,5249],[55.4,5332],[55.4,5416],[55.4,5499],[55.4,5582],[55.4,5666],[55.4,5749],[55.4,5833],[55.4,5916],[55.4,5999],[55.4,6083],[55.4,6167],[55.4,6249],[55.4,6333],[55.4,6416],[55.4,6499],[55.4,6583],[55.4,6666],[55.4,6750],[55.4,6833],[55.4,6916],[55.4,6999],[55.4,7083],[55.4,7166],[55.4,7249],[55.4,7332],[55.4,7416],[55.4,7500],[55.4,7583],[55.4,7666],[55.4,7749],[55.4,7833],[55.4,7917],[55.4,7999],[55.4,8082],[55.4,8166],[55.4,8249],[55.4,8332],[55.4,8416],[55.4,8499],[55.4,8583],[55.4,8666],[55.4,8749],[55.4,8833],[55.4,8917],[55.4,8999],[55.4,9082],[55.4,9166],[55.4,9250],[55.4,9332],[55.4,9416],[55.4,9500],[55.4,9583],[55.4,9666],[55.4,9749],[55.4,9833],[55.4,9916],[55.4,9999],[55.4,10083],[55.4,10166],[55.4,10249],[55.4,10333],[55.4,10416],[55.4,10499],[55.4,10583],[55.4,10666],[55.4,10749],[55.4,10832],[55.4,10917],[55.4,10999],[55.4,11082],[55.4,11166],[55.4,11249],[55.4,11332],[55.4,11416],[55.4,11499],[55.4,11582],[55.4,11666],[55.4,11749],[55.4,11833],[55.4,11916],[55.4,11999],[55.4,12083],[55.4,12166],[55.4,12250],[55.4,12333],[55.4,12416],[55.4,12499],[55.4,12583],[55.4,12666],[55.4,12749],[55.4,12832],[55.4,12917],[55.4,12999],[55.4,13083],[55.4,13166],[55.4,13249],[55.4,13333],[55.4,13416],[55.4,13499],[55.4,13582],[55.4,13666],[55.4,13749],[55.4,13833],[55.4,13916],[55.4,13999],[55.4,14082],[55.4,14166],[55.4,14249],[55.4,14332],[55.4,14416],[55.4,14499],[55.4,14582],[55.4,14666],[55.1,14749],[55.1,14832],[55.1,14916],[55.1,14999],[55.1,15082],[54.9,15166],[54,15249],[54,15333],[54,15416],[54,15499],[54,15583],[53.3,15666],[52.8,15749],[52.8,15833],[52.5,15916],[51.2,15999],[47.8,16083],[45.7,16166],[44,16249],[42.1,16333],[40,16416],[34.1,16499],[27.6,16583],[26.8,16666],[26.8,16749],[26.9,16833],[28.5,16916],[25.5,29499],[25.6,29583],[25.6,29666],[25.6,29749]]",1,0,94.3486,107.8986,45.65055133,9.482,"[{""rating"":48.201927790150194,""responseTime"":5.261600000023833},{""rating"":45.650551330138974,""responseTime"":9.482}]",space,13.0124,,107.9031,Partially,50,107.9049,,,[],,0,0,0,0,1,audio/Narrative13Situation2.wav,audio/Narrative13Situation2.wav,audio/Narrative13Situation2.wav,audio/Narrative13Situation2.wav,2,2,2,2,,,,,,,,,,,,,,,,,,,,,,,,,,,,,,,,,,,,,,,
,,,,,,63d82b2de40f94ceb14816cc,2024-02-08_15h18.39.308,group3.1-3.2-social-tom,2023.2.2,Win32,60.24096386,65c5074098b851296ff0b7ed,65c5446a75e1c9f5133795a5,,,,,,,,,,,,,,,,,,,,,,,,,,,,,107.905,1,audio/Narrative7Situation1.wav,111.7481,space,111.7482,167.6481,"[[53.6,583],[50.4,1249],[50.6,1333],[51,1416],[51.2,1500],[51.7,1583],[51.7,1666],[51.7,1749],[51.7,1832],[51.7,1916],[51.7,1999],[51.7,2083],[51.7,2166],[51.7,2249],[51.7,2333],[51.7,2416],[51.7,2500],[51.8,2583],[51.8,2666],[51.8,2750],[51.8,2833],[51.8,2916],[51.8,2999],[51.8,3083],[51.8,3166],[51.8,3250],[51.8,3333],[51.8,3416],[51.8,3499],[51.8,3582],[51.8,3666],[51.8,3749],[51.8,3833],[51.8,3916],[51.8,4000],[51.8,4084],[51.8,4166],[51.8,4249],[51.8,4333],[51.8,4416],[51.8,4500],[51.7,4583],[51.7,4666],[51.7,4750],[51.7,4833],[51.7,4916],[51.7,5000],[51.7,5082],[51.7,5166],[51.7,5249],[51.7,5333],[51.7,5416],[51.7,5500],[51.7,5583],[51.7,5666],[51.7,5749],[51.7,5833],[51.7,5916],[51.7,5999],[51.7,6083],[51.7,6166],[51.7,6249],[51.7,6333],[51.7,6416],[51.7,6500],[51.7,6582],[51.7,6666],[51.7,6749],[51.7,6833],[51.7,6916],[51.4,6999],[48.5,7083],[48.4,7166],[48.4,7249],[48.4,7333],[48.7,7416],[50.6,7499],[52.1,7583],[52.1,7666],[52.1,7749],[52.1,7833],[52.1,7916],[52.1,7999],[52.1,8083],[52.1,8166],[52.1,8249],[51.8,8333],[51.7,8416],[51.5,8499],[51.5,8583],[51.5,8666],[51.5,8749],[51.4,8832],[51.1,8916],[51.1,8999],[51.1,9083],[51.1,9166],[51.1,9249],[51.1,9333],[51.1,9416],[51.1,9499],[51.1,9582],[51.1,9666],[51.1,9749],[51.1,9832],[51.1,9916],[51.1,9999],[51.1,10083],[51.1,10167],[51.1,10249],[51.1,10333],[51.1,10416],[51.1,10499],[51.1,10583],[51.1,10666],[51.1,10749],[51.1,10833],[51.1,10916],[51.1,10999],[51.1,11083],[51.1,11166],[51.1,11249],[51.1,11333],[51.1,11416],[51.1,11500],[51.1,11583],[51.1,11666],[51.1,11749],[51.1,11833],[51.1,11916],[51.1,11999],[51.1,12083],[51.1,12166],[51.1,12249],[51.1,12333],[51.1,12416],[51.1,12500],[51.1,12583],[51.1,12666],[51.1,12749],[51.1,12833],[51.1,12916],[51.1,12999],[51.1,13083],[51.1,13166],[51.1,13249],[51.1,13333],[51.1,13416],[51.1,13499],[51.1,13582],[51.1,13666],[51.1,13749],[51.1,13833],[52,13916],[54.4,13999],[56.9,14083],[57.7,14166],[57.8,14249],[57.8,14334],[57.8,14416],[57.8,14500],[57.8,14582],[57.8,14666],[57.9,14749],[57.9,14833],[57.9,14916],[57.9,14999],[57.9,15083],[57.9,15166],[57.9,15249],[57.7,15333],[57.7,15416],[57.7,15499],[57.7,15582],[57.7,15666],[57.7,15749],[57.7,15832],[57.7,15916],[57.7,15999],[58.8,16082],[59.4,16166],[59.7,16249],[59.7,16332],[59.7,16416],[59.7,16499],[59.7,16582],[59.7,16666],[59.3,16749],[54.6,24416],[55.6,24499],[55.6,24582],[56.2,24666],[56.4,24749],[56.7,24833],[56.7,24916],[56.7,24999],[58.8,25083],[59.5,25166],[59.5,25249],[59.5,25333],[59.5,25416],[59.5,25499],[59.3,25583],[45.2,26333],[49.6,26416],[59.1,26833],[59.7,26916],[60.9,26999],[62.1,27083],[64.6,27166],[66.1,27249],[66.3,27333],[66.3,27416],[65.3,27499],[59.2,27583],[51.9,27666],[50.9,27749],[50.9,27833],[51,27916],[57.8,27999],[59.8,28083],[59.8,28166],[60.2,28249],[63.1,28333],[64.5,28416],[65.6,28500],[66.3,28583],[66.3,28666],[66.3,28750],[66.3,28833],[66.3,28916],[66.3,28999],[66.3,29083],[66.3,29167],[66,29249],[66,29332],[66,29416],[66,29500],[66,29583],[65.6,29666],[65.6,29749],[65.6,29833],[65.6,29916],[65.6,29999],[64.9,30083],[64.9,30166],[64.9,30251],[64.9,30332],[64.9,30416],[64.9,30500],[64.6,30583],[64.2,30666],[64.2,30749],[64.2,30833],[64.2,30916],[64.2,31000],[64.2,31083],[64.2,31166],[64.2,31249],[64.2,31333],[64.2,31416],[64.2,31499],[64.2,31583],[64.2,31666],[64.2,31750],[64.2,31833],[64.2,31916],[64.2,31999],[64.2,32083],[64.2,32166],[64.2,32249],[64.2,32332],[64.2,32416],[64.2,32499],[64.2,32583],[64.2,32666],[64.2,32750],[64.2,32833],[64.2,32916],[64.2,32999],[64.2,33082],[64.2,33166],[63.9,33249],[63.9,33335],[63.9,33416],[63.9,33500],[63.9,33583],[63.9,33666],[63.9,33749],[63.9,33833],[63.9,33916],[63.9,34000],[63.9,34083],[63.9,34166],[63.6,34249],[63.6,34333],[63.6,34416],[63.6,34500],[63.6,34582],[63.6,34666],[63.6,34750],[63.6,34833],[63.5,34916],[63.4,34999],[63.4,35083],[63.4,35166],[63.4,35250],[63.4,35333],[63.4,35416],[63.4,35499],[63.4,35582],[63.4,35666],[63.4,35749],[63.4,35833],[63.4,35916],[63.4,35999],[63.4,36083],[63.4,36166],[63.4,36249],[63.4,36333],[63.4,36416],[63.4,36499],[63.4,36583],[63.4,36666],[63.4,36750],[63.4,36833],[63.4,36916],[63.2,36999],[62.5,37083],[62,37166],[61.5,37249],[61.3,37332],[61.3,37416],[61.3,37500],[60.1,37583],[58.9,37666],[58.7,37749],[58.7,37833],[58.7,37916],[58.7,37999],[58.6,38083],[58.7,38166],[58.8,38249],[59.2,38333],[59.3,38416],[59.5,38500],[59.8,38583],[59.9,38666],[59.9,38749],[59.9,38833],[59.9,38916],[59.9,38999],[59.9,39083],[59.9,39166],[59.9,39250],[59.9,39333],[59.9,39416],[59.9,39500],[59.9,39583],[59.9,39666],[59.9,39750],[59.9,39833],[59.9,39916],[59.9,40000],[59.9,40083],[59.9,40166],[59.9,40250],[59.9,40332],[59.9,40416],[59.9,40499],[59.9,40583],[59.9,40667],[59.9,40749],[59.9,40832],[59.9,40916],[59.9,40999],[59.9,41083],[59.9,41166],[59.9,41249],[59.9,41333],[59.9,41416],[59.9,41499],[59.9,41583],[59.9,41666],[59.9,41749],[59.9,41833],[59.9,41916],[59.9,41999],[59.9,42083],[59.9,42166],[59.9,42250],[59.9,42337],[59.9,42416],[59.9,42499],[59.9,42582],[59.9,42666],[59.9,42749],[59.9,42833],[59.9,42916],[59.9,43000],[59.9,43083],[59.9,43166],[59.9,43249],[58.4,43333],[55.9,43416],[53.1,43499],[49.3,43583],[45.1,43666],[39.3,43749],[35.5,43833],[34.6,43916],[34.6,43999],[34.6,44083],[34.6,44166],[34.6,44250],[34.6,44333],[34.6,44416],[34.6,44499],[34.6,44583],[34.9,44666],[36.3,44749],[38.2,44833],[42.6,44916],[49.6,44999],[55,45083],[61.4,45166],[63.8,45249],[64.9,45333],[66.5,45416],[66.5,45499],[66.5,45583],[66.5,45666],[66.5,45749],[66.5,45833],[66.5,45916],[66.5,46000],[66.5,46083],[66.5,46166],[66.5,46249],[66.5,46333],[66.5,46416],[66.2,46499],[66.2,46582],[66.2,46666],[66.2,46749],[46,48083],[50.8,48166],[64.3,48416],[64.5,48499],[64.5,48583],[64.9,48666],[64.9,48749],[65.1,48833],[65.1,48916],[65.1,48999],[60.7,49083],[52.3,49166],[51.4,49250],[51.4,49333],[51.4,49416],[51.4,49500],[51.1,49583],[51.2,49666],[55.2,49749],[62.1,49833],[65.9,49916],[67.3,49999],[67.3,50083],[67.3,50166],[67.3,50250],[67.3,50333],[67.3,50416],[67.3,50499],[67.3,50583],[67.3,50666],[67.3,50750],[67.3,50832],[67.3,50916],[67.3,50999],[67.3,51083],[67.3,51166],[67,51249],[66.7,51333],[66.7,51416],[66.7,51499],[66.7,51582],[66.7,51666],[66.7,51749],[66.7,51833],[66.7,51916],[66.7,51999],[66.7,52083],[66.7,52166],[66.7,52250],[66.7,52333],[66.7,52416],[66.7,52499],[66.7,52582],[66.7,52666],[66.7,52749],[66.7,52832],[66.7,52916],[66.7,52999],[66.7,53083],[66.7,53166],[66.7,53249],[66.7,53333],[66.7,53416],[66.7,53500],[66.7,53583],[66.7,53666],[66.7,53749],[66.7,53833],[66.7,53916],[66.7,53999],[66.7,54083],[66.7,54166],[66.7,54250],[66.7,54333],[66.7,54416],[66.7,54499],[66.7,54583],[66.7,54666],[66.7,54749],[66.7,54833],[66.7,54916],[66.7,54999],[66.7,55083],[66.7,55166],[66.7,55249],[66.7,55333],[66.7,55416],[66.7,55500],[66.7,55583],[66.8,55666],[66.8,55749],[66.8,55833]]",1,0,167.6483,180.3818,66.1657036,1.8863,"[{""rating"":66.16570360138851,""responseTime"":1.8862999999821284}]",space,12.1861,,180.3818,Not at all,0,180.3885,,,[],,0,1,1,1,1,audio/Narrative7Situation1.wav,audio/Narrative8Situation1.wav,audio/Narrative5Situation1.wav,audio/Narrative6Situation1.wav,2,5,5,2,3.8201,,,,,,,,,,,,,,,,,,,,,,,,,,,,,,,,,,,,,,
,,,,,,63d82b2de40f94ceb14816cc,2024-02-08_15h18.39.308,group3.1-3.2-social-tom,2023.2.2,Win32,60.24096386,65c5074098b851296ff0b7ed,65c5446a75e1c9f5133795a5,,,,,,,,,,,,,,,,,,,,,,,,,,,,,180.3886,1,audio/Narrative7Situation2.wav,183.3981,,183.3981,190.8649,"[[15.6,3250],[24.2,3333],[32.4,3416],[36.4,3500],[39.2,3583],[44.2,3666],[50.3,3750],[54.8,3833],[56.2,3916],[59.6,4000],[62.3,4083],[64.3,4166],[65.9,4250],[66.1,4333],[66.1,4416],[66.1,4499],[66.1,4583],[66.1,4666],[66.1,4750],[66.1,4833],[66.1,4916],[66.1,5000],[66.1,5083],[66.1,5166],[66.1,5250],[66.1,5333],[63.4,5416],[55.4,5500],[48.9,5583],[46,5666],[46,5750],[46,5833],[55.7,5916],[64.6,6000],[66.1,6083],[66.1,6166],[66.1,6250],[66.1,6333],[66.1,6416],[66.1,6500],[66.1,6583],[66.2,6666],[66.2,6750],[66,6833],[66,6916],[66,7000],[66,7083],[66,7167],[66,7250],[66,7333],[66,7416]]",1,0,190.8649,195.365,58.45950069,3.0857,"[{""rating"":58.45950068656529,""responseTime"":3.085699999988094}]",space,3.9744,,195.365,Definitely yes,100,195.3665,,,[],,0,2,2,2,1,audio/Narrative7Situation2.wav,audio/Narrative8Situation2.wav,audio/Narrative5Situation2.wav,audio/Narrative6Situation2.wav,3,3,3,3,,,,,,,,,,,,,,,,,,,,,,,,,,,,,,,,,,,,,,,
,,,,,,63d82b2de40f94ceb14816cc,2024-02-08_15h18.39.308,group3.1-3.2-social-tom,2023.2.2,Win32,60.24096386,65c5074098b851296ff0b7ed,65c5446a75e1c9f5133795a5,,,,,,,,,,,,,,,,,,,,,,,,,,,,,195.3665,1,audio/Narrative7Situation3.wav,203.3814,,203.3814,212.6315,"[[999,4],[999,83],[999,167],[999,250],[999,333],[999,417],[999,499],[999,583],[999,666],[999,750],[999,833],[999,916],[999,1000],[999,1083],[999,1166],[999,1249],[999,1333],[999,1416],[999,1500],[999,1583],[999,1666],[999,1750],[999,1833],[999,1916],[999,1999],[999,2083],[999,2166],[999,2250],[999,2333],[999,2416],[999,2500],[999,2583],[999,2666],[999,2750],[999,2833],[999,2916],[999,3000],[999,3083],[999,3166],[999,3250],[999,3333],[999,3416],[999,3500],[999,3583],[999,3666],[999,3750],[999,3833],[999,3916],[54.2,4000],[54.3,4083],[55.3,4166],[56.9,4250],[58.3,4334],[58.8,4416],[59,4500],[59.9,4583],[60.2,4666],[61.9,4750],[63.9,4833],[65.1,4916],[65.9,5000],[66.5,5083],[66.5,5166],[66.5,5249],[66.5,5333],[66.5,5416],[66.5,5500],[66.5,5583],[66.5,5666],[66.2,5750],[66,5833],[66,5916],[65.8,6000],[65.8,6083],[65.8,6166],[65.8,6249],[65.8,6333],[65.8,6416],[65.8,6500],[65.5,6583],[65.5,6667],[65.5,6750],[65.5,6833],[65.5,6916],[65.3,7000],[65.2,7083],[65.1,7166],[64.8,7249],[64.6,7333],[64.6,7416],[64.4,7500],[64.4,7583],[64.1,7666],[63.5,7750],[63.2,7833],[63.2,7916],[63.2,8000],[63.2,8083],[63.2,8166],[63.2,8250],[63.2,8333],[63.2,8416],[63.2,8500],[63.2,8583],[63.2,8666],[63.2,8751],[63.2,8833],[63.2,8916],[63.2,9000],[63.2,9083],[63.2,9167],[63.2,9250]]",1,0,212.6316,215.6653,63.40603948,1.4388,"[{""rating"":63.406039480638384,""responseTime"":1.438799999982109}]",space,2.4936,,215.6653,Definitely yes,100,215.6662,,,[],,0,3,3,3,1,audio/Narrative7Situation3.wav,audio/Narrative8Situation3.wav,audio/Narrative5Situation3.wav,audio/Narrative6Situation3.wav,8,4,3,5,,,,,,,,,,,,,,,,,,,,,,,,,,,,,,,,,,,,,,,
,,,,,,63d82b2de40f94ceb14816cc,2024-02-08_15h18.39.308,group3.1-3.2-social-tom,2023.2.2,Win32,60.24096386,65c5074098b851296ff0b7ed,65c5446a75e1c9f5133795a5,,,,,,,,,,,,,,,,,,,,,,,,,,,,,215.6663,1,audio/Narrative7Situation4.wav,218.6814,,218.6814,230.3984,"[[999,5],[999,83],[999,166],[999,250],[999,334],[999,416],[999,500],[999,583],[999,666],[58.5,750],[58.5,833],[58.6,916],[58.6,1000],[58.6,1083],[58.6,1166],[58.6,1250],[58.6,1333],[58.6,1416],[58.5,1500],[58.5,1583],[59.7,1666],[60.5,1750],[60.5,1834],[60.5,1918],[60.5,2000],[60.5,2083],[62.8,2166],[62.8,2250],[62.8,2333],[62.8,2416],[62.8,2500],[62.8,2583],[62.8,2667],[62.8,2750],[62.8,2833],[62.8,2916],[62.8,3000],[62.8,3083],[62.8,3167],[62.8,3250],[62.8,3333],[62.8,3416],[62.8,3499],[62.8,3583],[62.8,3666],[62.8,3750],[62.8,3833],[62.8,3917],[62.8,4000],[62.8,4083],[62.8,4167],[62.8,4250],[62.8,4333],[62.8,4416],[62.8,4500],[62.8,4583],[62.8,4667],[62.8,4750],[62.8,4833],[62.8,4916],[62.8,4999],[62.8,5083],[62.8,5166],[62.8,5250],[62.8,5333],[62.8,5416],[62.8,5500],[62.8,5583],[62.8,5666],[62.8,5750],[62.8,5833],[62.8,5916],[62.8,6000],[62.8,6083],[62.8,6166],[62.8,6250],[62.8,6333],[62.8,6417],[62.8,6500],[62.8,6583],[62.8,6666],[62.8,6750],[62.8,6833],[62.8,6917],[62.8,7000],[62.8,7083],[62.8,7166],[62.8,7250],[62.8,7333],[62.8,7417],[62.8,7500],[62.8,7583],[62.8,7666],[62.8,7750],[62.8,7833],[62.8,7916],[62.8,8000],[62.8,8084],[62.8,8166],[62.8,8250],[62.8,8333],[62.8,8416],[62.8,8500],[62.8,8583],[62.8,8666],[62.8,8750],[62.8,8833],[62.8,8917],[62.8,9000],[62.8,9083],[62.8,9167],[62.8,9250],[62.8,9333],[62.8,9416],[62.8,9500],[62.8,9583],[62.8,9666],[62.8,9750],[62.8,9834],[62.8,9916],[62.8,10000],[62.8,10083],[62.8,10166],[62.8,10250],[62.8,10333],[62.8,10416],[62.8,10500],[62.8,10583],[62.8,10667],[62.8,10750],[62.8,10833],[62.8,10917],[62.8,11000],[62.8,11083],[62.8,11167],[62.8,11250],[62.8,11333],[62.8,11416],[62.8,11500],[62.8,11583],[62.8,11667]]",1,0,230.3984,236.4648,31.59195375,4.9153,"[{""rating"":62.88535596009759,""responseTime"":1.567300000011926},{""rating"":31.591953750311497,""responseTime"":4.915300000011939}]",space,5.5163,,236.4648,Partially,50,236.4661,,,[],,0,4,4,4,1,audio/Narrative7Situation4.wav,audio/Narrative8Situation4.wav,audio/Narrative5Situation4.wav,audio/Narrative6Situation4.wav,3,3,1,2,,,,,,,,,,,,,,,,,,,,,,,,,,,,,,,,,,,,,,,
,,,,,,63d82b2de40f94ceb14816cc,2024-02-08_15h18.39.308,group3.1-3.2-social-tom,2023.2.2,Win32,60.24096386,65c5074098b851296ff0b7ed,65c5446a75e1c9f5133795a5,,,,,,,,,,,,,,,,,,,,,,,,,,,,,236.4662,1,audio/Narrative7Situation5.wav,241.4816,,241.4816,249.9817,"[[999,4],[999,82],[999,166],[999,250],[999,334],[999,416],[999,499],[999,583],[999,666],[999,750],[999,833],[999,916],[999,999],[999,1083],[999,1166],[999,1250],[999,1334],[999,1417],[999,1500],[999,1583],[999,1666],[999,1750],[999,1833],[999,1916],[999,1999],[999,2083],[999,2166],[999,2250],[999,2333],[999,2416],[999,2500],[999,2583],[999,2666],[999,2750],[999,2833],[999,2916],[999,3000],[999,3083],[999,3166],[999,3250],[999,3333],[999,3417],[999,3499],[999,3583],[999,3666],[999,3750],[999,3833],[999,3916],[999,3999],[999,4083],[999,4166],[999,4250],[999,4333],[999,4416],[999,4500],[999,4583],[999,4667],[999,4750],[999,4833],[999,4916],[999,5000],[999,5083],[999,5166],[999,5250],[999,5333],[999,5416],[999,5500],[999,5583],[999,5666],[999,5749],[999,5833],[999,5916],[999,5999],[999,6083],[999,6166],[999,6252],[999,6333],[999,6416],[999,6500],[999,6583],[999,6666],[999,6749],[999,6833],[999,6916],[999,6999],[999,7083],[999,7166],[999,7250],[999,7333],[999,7416],[999,7499],[999,7583],[999,7667],[999,7750],[999,7833],[999,7917],[999,8000],[999,8083],[999,8166],[999,8250],[999,8333],[999,8416],[999,8500]]",1,0,249.9817,254.3651,20.55335557,4.0605,"[{""rating"":27.478507293419806,""responseTime"":1.5924000000059664},{""rating"":20.5533555730852,""responseTime"":4.060500000000047}]",space,3.8371,,254.3652,Definitely yes,100,254.3665,,,[],,0,5,5,5,1,audio/Narrative7Situation5.wav,audio/Narrative8Situation5.wav,audio/Narrative5Situation5.wav,audio/Narrative6Situation5.wav,5,2,5,2,,,,,,,,,,,,,,,,,,,,,,,,,,,,,,,,,,,,,,,
,,,,,,63d82b2de40f94ceb14816cc,2024-02-08_15h18.39.308,group3.1-3.2-social-tom,2023.2.2,Win32,60.24096386,65c5074098b851296ff0b7ed,65c5446a75e1c9f5133795a5,,,,,,,,,,,,,,,,,,,,,,,,,,,,,254.3667,1,audio/Narrative7Situation6.wav,257.3816,,257.3816,267.365,"[[999,4],[999,83],[999,167],[999,250],[999,333],[999,416],[999,500],[999,583],[999,666],[999,749],[999,833],[999,917],[999,1000],[999,1083],[999,1166],[999,1249],[999,1333],[999,1416],[999,1499],[15.7,1583],[16.8,1666],[16.8,1750],[16.8,1833],[16.8,1916],[16.9,2000],[17,2084],[17,2166],[17.3,2250],[18,2333],[19.8,2416],[55.6,2750],[59.3,2833],[61.4,2916],[61.9,3000],[61.9,3083],[61.9,3166],[61.9,3250],[61.5,3333],[61.3,3416],[61.3,3500],[61.3,3583],[61.3,3666],[61.3,3750],[61.3,3833],[61.3,3916],[61.3,4000],[61.3,4083],[61.3,4166],[61.4,4250],[62.3,4333],[62.3,4416],[62.3,4500],[62.3,4583],[62.3,4666],[62.3,4750],[62.3,4833],[62.3,4916],[62.3,5000],[62.3,5083],[62.3,5166],[62.3,5249],[62.3,5333],[62.3,5416],[62.3,5500],[62.3,5583],[62.3,5666],[62.3,5750],[62.3,5833],[62.3,5916],[62.3,6000],[62.3,6083],[62.3,6166],[62.3,6249],[62.3,6333],[62.3,6416],[62.3,6500],[62.3,6583],[62.3,6666],[62.3,6750],[62.3,6833],[62.3,6916],[62.3,7000],[62.3,7083],[62.3,7166],[62.3,7250],[62.3,7334],[62.3,7416],[62.3,7500],[62.3,7583],[62.3,7666],[62.3,7750],[62.3,7833],[62.3,7916],[62.3,8000],[62.3,8083],[62.3,8166],[62.3,8250],[62.3,8333],[62.3,8416],[62.3,8500],[62.3,8584],[62.3,8666],[62.3,8750],[62.3,8834],[62.3,8916],[62.3,9000],[62.3,9084],[62.3,9166],[62.3,9250],[62.3,9333],[62.3,9417],[62.3,9500],[62.3,9583],[62.3,9666],[62.3,9750],[62.3,9833],[62.3,9916]]",1,0,267.3651,268.9985,62.3125989,0.205,"[{""rating"":62.31259890476725,""responseTime"":0.20500000000004093}]",space,1.0844,,268.9986,Not at all,0,269,,,[],,0,6,6,6,1,audio/Narrative7Situation6.wav,audio/Narrative8Situation6.wav,audio/Narrative5Situation6.wav,audio/Narrative6Situation6.wav,3,2,3,2,,,,,,,,,,,,,,,,,,,,,,,,,,,,,,,,,,,,,,,
,,,,,,63d82b2de40f94ceb14816cc,2024-02-08_15h18.39.308,group3.1-3.2-social-tom,2023.2.2,Win32,60.24096386,65c5074098b851296ff0b7ed,65c5446a75e1c9f5133795a5,,,,,,,,,,,,,,,,,,,,,,,,,,,,,269,1,audio/Narrative7Situation7.wav,274.0155,,274.0155,291.2159,"[[999,4],[999,82],[999,166],[999,249],[999,332],[999,416],[999,500],[999,582],[999,666],[999,750],[999,832],[999,916],[999,999],[999,1083],[999,1166],[999,1249],[999,1332],[999,1416],[999,1499],[999,1582],[999,1666],[999,1749],[999,1833],[999,1916],[999,1999],[999,2083],[999,2166],[999,2249],[999,2332],[999,2415],[999,2499],[999,2582],[999,2666],[999,2749],[999,2832],[999,2916],[999,2999],[999,3082],[999,3166],[999,3249],[999,3333],[999,3416],[999,3499],[999,3582],[999,3666],[999,3749],[999,3832],[999,3916],[999,3999],[999,4083],[999,4166],[999,4249],[999,4333],[999,4416],[999,4499],[999,4582],[999,4666],[999,4749],[999,4832],[999,4916],[999,4999],[999,5083],[999,5166],[999,5250],[999,5332],[999,5416],[999,5499],[999,5582],[999,5666],[999,5749],[999,5832],[999,5916],[999,5999],[999,6083],[999,6165],[999,6249],[999,6333],[999,6416],[999,6499],[999,6582],[999,6666],[999,6749],[999,6833],[999,6915],[999,6999],[999,7082],[999,7166],[999,7249],[999,7332],[999,7416],[999,7499],[999,7583],[999,7666],[999,7749],[999,7833],[999,7916],[999,8000],[999,8083],[999,8166],[999,8249],[999,8333],[999,8416],[999,8499],[999,8582],[999,8666],[999,8749],[999,8832],[999,8916],[999,8999],[999,9082],[999,9166],[999,9249],[999,9333],[999,9416],[999,9499],[999,9582],[41.4,9666],[42.3,9749],[45.2,9832],[51.3,9916],[52.2,9999],[53.9,10083],[56,10166],[56.2,10249],[56.2,10332],[56.5,10416],[57.1,10499],[57.1,10583],[57.1,10666],[57.1,10749],[57.1,10832],[57.1,10916],[57.1,11000],[57.1,11082],[57.1,11166],[57.1,11249],[57.1,11333],[57.1,11416],[57.1,11499],[57.1,11583],[57.1,11665],[57.1,11749],[57.1,11832],[57.1,11916],[57.1,11999],[57.1,12083],[57.1,12166],[57.1,12250],[57.1,12333],[57.1,12416],[57.1,12499],[57.1,12583],[57.1,12666],[57.1,12749],[57.1,12832],[57.1,12916],[57.1,12999],[57.1,13083],[57.1,13166],[57.1,13249],[57.1,13332],[57.1,13416],[57.1,13499],[57.1,13582],[57.1,13666],[57.4,13749],[57.8,13832],[58.4,13916],[58.5,14000],[58.5,14083],[58.5,14166],[58.5,14249],[58.5,14332],[58.5,14416],[58.5,14499],[58.5,14583],[58.5,14666],[58.5,14749],[58.5,14832],[58.5,14916],[58.5,14999],[58.5,15083],[58.5,15166],[58.5,15249],[58.5,15333],[58.5,15416],[58.5,15500],[58.5,15582],[58.5,15666],[58.5,15749],[58.5,15833],[58.5,15916],[58.5,15999],[58.5,16082],[58.5,16166],[58.5,16250],[58.5,16333],[58.5,16416],[58.5,16499],[58.5,16583],[58.5,16666],[58.5,16749],[58.5,16832],[58.5,16916],[58.5,16999],[59.5,17084],[60,17166]]",1,0,291.2161,293.3651,60.1257048,0.5943,"[{""rating"":60.12570479618618,""responseTime"":0.5943000000119127}]",space,1.6068,,293.3651,Partially,50,293.3668,,,[],,0,7,7,7,1,audio/Narrative7Situation7.wav,audio/Narrative8Situation7.wav,audio/Narrative5Situation7.wav,audio/Narrative6Situation7.wav,5,3,4,5,,,,,,,,,,,,,,,,,,,,,,,,,,,,,,,,,,,,,,,
,,,,,,63d82b2de40f94ceb14816cc,2024-02-08_15h18.39.308,group3.1-3.2-social-tom,2023.2.2,Win32,60.24096386,65c5074098b851296ff0b7ed,65c5446a75e1c9f5133795a5,,,,,,,,,,,,,,,,,,,,,,,,,,,,,293.3668,1,audio/Narrative7Situation8.wav,295.3819,,295.3819,305.4151,"[[60.6,6333],[60.6,6416],[60.6,6500],[60.6,6583],[60.6,6666],[60.6,6749],[60.6,6833],[60.6,6916],[60.6,7000],[60.6,7083],[60.6,7166],[60.6,7249],[60.6,7333],[60.6,7416],[60.6,7500],[60.6,7583],[60.6,7666],[60.6,7750],[60.6,7832],[60.6,7916],[60.6,7999],[60.6,8083],[60.6,8166],[60.6,8249],[60.6,8333],[60.6,8416],[60.6,8500],[60.6,8583],[60.6,8666],[60.6,8750],[60.6,8833],[60.6,8916],[60.6,9000],[60.6,9083],[60.6,9166],[60.6,9249],[60.6,9333],[60.6,9416],[60.6,9499],[60.6,9582],[59.7,9666],[58,9750],[57.1,9833],[57.1,9916],[56.8,10000]]",1,0,305.4152,307.4653,59.86536304,0.9358,"[{""rating"":59.86536303591578,""responseTime"":0.9357999999820663}]",space,1.5168,,307.4653,Partially,50,323.2155,49.86813838,14.0379,"[{""rating"":49.86813837819043,""responseTime"":14.037900000005948}]",space,0,8,8,8,1,audio/Narrative7Situation8.wav,audio/Narrative8Situation8.wav,audio/Narrative5Situation8.wav,audio/Narrative6Situation8.wav,2,3,3,5,,,15.2016,,,,,,,,,,,,,,,,,,,,,,,,,,,,,,,,,,,,
,,,,,,63d82b2de40f94ceb14816cc,2024-02-08_15h18.39.308,group3.1-3.2-social-tom,2023.2.2,Win32,60.24096386,65c5074098b851296ff0b7ed,65c5446a75e1c9f5133795a5,,,,,,,,,,,,,,,,,,,,,,,,,,,,,323.2157,1,audio/Narrative7Situation9.wav,325.2318,,325.2319,333.8654,"[[999,0],[999,83],[999,166],[999,250],[999,333],[999,416],[999,500],[999,583],[999,666],[999,749],[999,834],[999,916],[999,1000],[999,1083],[999,1166],[999,1250],[999,1333],[999,1416],[999,1500],[999,1584],[999,1666],[999,1750],[999,1833],[999,1916],[999,2000],[999,2083],[999,2166],[999,2249],[999,2333],[999,2416],[999,2500],[999,2583],[999,2666],[999,2750],[999,2833],[999,2917],[999,3000],[999,3083],[999,3166],[999,3250],[999,3333],[999,3417],[999,3500],[999,3583],[999,3666],[999,3749],[999,3833],[999,3916],[999,4000],[999,4083],[999,4166],[999,4249],[999,4333],[999,4416],[999,4500],[999,4583],[999,4666],[999,4749],[999,4833],[999,4916],[999,5000],[999,5083],[999,5167],[999,5250],[999,5333],[999,5416],[999,5499],[999,5583],[999,5666],[999,5750],[999,5833],[999,5916],[999,6000],[999,6083],[999,6166],[999,6250],[999,6333],[999,6416],[999,6499],[999,6583],[56,6667],[56.2,6750],[56.5,6833],[57.1,6916],[57.1,6999],[58.6,7083],[61.4,7166],[61.4,7250],[61.3,7333],[60.9,7416],[60.1,7500],[58.9,7583],[58.7,7666],[58.7,7750],[58.7,7833],[58.7,7916],[58.7,8000],[58.7,8083],[58.7,8167],[58.8,8249],[59.3,8333],[59.5,8416],[59.5,8499],[59.5,8583]]",1,0,333.8655,334.8819,60.80259596,0.6187,"[{""rating"":60.80259596425696,""responseTime"":0.6187000000178955}]",space,0.4792,,334.882,Partially,50,334.8828,,,[],,0,9,9,9,1,audio/Narrative7Situation9.wav,audio/Narrative8Situation9.wav,audio/Narrative5Situation9.wav,audio/Narrative6Situation9.wav,2,3,3,4,,,,,,,,,,,,,,,,,,,,,,,,,,,,,,,,,,,,,,,
,,,,,,63d82b2de40f94ceb14816cc,2024-02-08_15h18.39.308,group3.1-3.2-social-tom,2023.2.2,Win32,60.24096386,65c5074098b851296ff0b7ed,65c5446a75e1c9f5133795a5,,,,,,,,,,,,,,,,,,,,,,,,,,,,,334.883,1,audio/Narrative8Situation1.wav,339.8989,,339.8989,355.8318,"[[59.8,83],[59.8,166],[59.8,249],[59.8,332],[59.8,416],[59.8,499],[59.8,583],[59.8,667],[59.8,750],[59.6,833],[59.4,917],[58.9,1666],[58.9,1749],[58.9,1833],[58.9,1916],[58.8,1999],[58.8,2082],[58.8,2166],[58.8,2249],[58.8,2333],[58.8,2416],[58.8,2499],[58.8,2583],[58.8,2666],[58.6,2749],[58.6,2832],[58.6,2916],[58.6,2999],[58.6,3083],[58.6,3166],[58.6,3249],[58.6,3332],[58.6,3416],[58.6,3500],[58.6,3583],[58.6,3666],[58.6,3749],[58.6,3832],[58.6,3916],[58.7,3999],[58.7,4083],[58.7,4166],[58.7,4250],[58.7,4333],[58.7,4416],[58.7,4499],[58.7,4582],[58.7,4666],[58.7,4749],[58.7,4833],[58.7,4916],[58.7,5000],[58.7,5083],[58.7,5166],[58.7,5249],[58.7,5333],[58.7,5416],[58.7,5499],[58.7,5582],[58.7,5666],[58.7,5749],[58.7,5833],[58.7,5916],[58.7,5999],[58.7,6082],[58.7,6166],[58.7,6249],[58.7,6332],[58.7,6416],[58.7,6499],[58.7,6583],[58.7,6666],[58.7,6749],[58.7,6832],[58.7,6916],[58.7,6999],[58.7,7083],[58.7,7166],[58.7,7249],[58.7,7333],[58.7,7416],[58.7,7499],[58.7,7582],[58.7,7666],[58.7,7750],[58.7,7832],[58.7,7916],[58.7,7999],[58.7,8082],[58.7,8166],[58.7,8249],[58.7,8333],[58.7,8416],[58.7,8499],[58.7,8583],[58.7,8666],[58.7,8749],[58.7,8833],[58.7,8916],[58.7,8999],[58.7,9082],[58.7,9166],[58.7,9250],[58.7,9333],[58.7,9416],[58.7,9499],[58.7,9583],[58.6,9666],[58.6,9749],[58.6,9832],[58.6,9916],[58.6,10000],[58.6,10083],[58.6,10166],[58.6,10249],[58.6,10333],[58.6,10416],[58.6,10499],[58.6,10583]]",1,0,355.8319,359.3987,56.84536363,2.0422,"[{""rating"":56.845363633314605,""responseTime"":2.0421999999880995}]",space,3.0211,,359.3987,Definitely yes,100,359.4002,,,[],,0,10,10,10,1,audio/Narrative8Situation1.wav,audio/Narrative7Situation1.wav,audio/Narrative6Situation1.wav,audio/Narrative5Situation1.wav,5,2,2,5,,,,,,,,,,,,,,,,,,,,,,,,,,,,,,,,,,,,,,,
,,,,,,63d82b2de40f94ceb14816cc,2024-02-08_15h18.39.308,group3.1-3.2-social-tom,2023.2.2,Win32,60.24096386,65c5074098b851296ff0b7ed,65c5446a75e1c9f5133795a5,,,,,,,,,,,,,,,,,,,,,,,,,,,,,359.4004,1,audio/Narrative8Situation2.wav,362.4153,,362.4153,372.549,"[[999,4],[999,83],[999,167],[999,250],[999,333],[999,416],[999,500],[999,583],[999,683],[999,766],[999,849],[999,933],[999,1016],[999,1101],[999,1183],[999,1266],[999,1350],[999,1433],[999,1516],[999,1600],[999,1683],[999,1766],[999,1850],[999,1933],[999,2016],[999,2099],[999,2183],[999,2266],[999,2349],[999,2433],[999,2516],[999,2600],[999,2683],[999,2769],[999,2850],[24.5,2933],[24.3,3016],[24.7,3100],[24.9,3183],[25,3266],[25.4,3349],[25.5,3433],[25.5,3517],[25.5,3600],[25.5,3683],[25.5,3766],[25.5,3850],[25.5,3933],[25.5,4016],[25.5,4099],[25.5,4183],[25.5,4266],[25.5,4349],[25.5,4433],[25.5,4517],[25.5,4600],[25.5,4683],[25.5,4766],[25.5,4850],[25.5,4933],[25.5,5016],[25.5,5100],[25.5,5183],[25.5,5266],[25.5,5349],[25.5,5433],[25.5,5516],[25.5,5599],[25.5,5683],[25.5,5769],[25.5,5850],[25.5,5933],[25.5,6016],[25.5,6100],[25.5,6183],[25.5,6266],[25.5,6350],[25.5,6433],[25.5,6516],[25.5,6600],[25.5,6683],[25.5,6767],[25.5,6850],[25.5,6933],[25.5,7016],[25.5,7099],[25.5,7183],[25.5,7266],[25.5,7350],[25.5,7433],[25.5,7516],[25.5,7600],[25.5,7683],[25.5,7766],[25.5,7850],[25.5,7934],[25.5,8016],[25.5,8100],[25.5,8183],[25.5,8266],[25.5,8350],[25.5,8433],[25.5,8516],[25.5,8599],[25.5,8683],[25.5,8766],[25.5,8850],[25.5,8933],[25.5,9016],[25.5,9099],[25.5,9183],[25.5,9266],[25.5,9350],[25.5,9433],[25.5,9516],[25.5,9600],[25.5,9683],[25.5,9766],[25.2,9850],[24.1,9933],[22.6,10016],[20.9,10099]]",1,0,372.549,374.4156,11.12887501,0.8466,"[{""rating"":11.128875013851507,""responseTime"":0.846600000023841}]",space,1.3292,,374.4156,Definitely yes,100,374.4163,,,[],,0,11,11,11,1,audio/Narrative8Situation2.wav,audio/Narrative7Situation2.wav,audio/Narrative6Situation2.wav,audio/Narrative5Situation2.wav,3,3,3,3,,,,,,,,,,,,,,,,,,,,,,,,,,,,,,,,,,,,,,,
,,,,,,63d82b2de40f94ceb14816cc,2024-02-08_15h18.39.308,group3.1-3.2-social-tom,2023.2.2,Win32,60.24096386,65c5074098b851296ff0b7ed,65c5446a75e1c9f5133795a5,,,,,,,,,,,,,,,,,,,,,,,,,,,,,374.4164,1,audio/Narrative8Situation3.wav,378.4321,,378.4321,400.7989,"[[999,4],[999,83],[999,167],[999,249],[999,333],[999,416],[999,499],[999,583],[999,666],[999,750],[999,833],[999,916],[999,1000],[999,1083],[999,1166],[999,1250],[999,1333],[999,1416],[999,1499],[999,1583],[999,1666],[999,1749],[999,1833],[999,1916],[999,2000],[999,2083],[999,2166],[999,2250],[999,2333],[999,2416],[999,2500],[999,2583],[999,2666],[999,2749],[999,2833],[999,2916],[999,3000],[999,3084],[999,3167],[999,3250],[999,3333],[999,3416],[999,3499],[999,3583],[999,3666],[999,3750],[999,3833],[999,3916],[999,4000],[999,4084],[999,4166],[999,4249],[999,4333],[999,4416],[999,4499],[999,4583],[999,4666],[999,4750],[999,4833],[999,4916],[999,4999],[999,5083],[999,5166],[999,5249],[999,5333],[999,5416],[999,5500],[999,5583],[999,5666],[999,5750],[999,5833],[999,5916],[999,6000],[999,6083],[999,6166],[999,6250],[999,6333],[999,6416],[999,6500],[999,6583],[999,6666],[999,6750],[999,6833],[999,6916],[999,6999],[999,7083],[999,7166],[999,7250],[999,7333],[999,7416],[999,7500],[999,7583],[999,7666],[999,7749],[999,7833],[999,7917],[999,7999],[999,8083],[999,8166],[999,8250],[999,8333],[999,8416],[999,8500],[999,8583],[999,8666],[999,8750],[999,8833],[999,8916],[999,9000],[999,9083],[999,9166],[999,9249],[999,9333],[999,9416],[999,9500],[999,9583],[999,9666],[999,9750],[999,9833],[999,9916],[999,10000],[999,10083],[999,10166],[999,10250],[999,10333],[999,10416],[999,10499],[999,10583],[999,10666],[999,10750],[999,10833],[999,10916],[999,11000],[999,11083],[999,11166],[999,11250],[999,11333],[999,11416],[999,11500],[999,11583],[999,11667],[999,11750],[999,11833],[999,11916],[999,12000],[999,12083],[999,12166],[999,12250],[999,12333],[999,12416],[999,12500],[999,12583],[999,12666],[999,12750],[999,12833],[999,12916],[18.2,13000],[18.3,13083],[18.3,13166],[19.2,13250],[21.5,13333],[26.6,13416],[28.8,13499],[29.4,13583],[29.4,13666],[29.4,13750],[29.4,13833],[29.4,13916],[29.4,14000],[29.4,14083],[29.4,14166],[29.2,14250],[29.2,14333],[29.2,14416],[29.2,14500],[29.2,14583],[29.2,14666],[29.2,14750],[29.2,14833],[29.2,14916],[29.2,15000],[29.2,15083],[29.2,15166],[29.2,15250],[29.2,15333],[29.2,15416],[29.2,15500],[29.2,15583],[29.2,15666],[29.2,15750],[29.2,15833],[29.2,15916],[29.2,16000],[29.2,16083],[29.2,16166],[29.2,16250],[29.2,16333],[29.2,16416],[29.2,16500],[29.2,16583],[29.2,16667],[29.2,16750],[29.2,16833],[29.2,16916],[29.2,17000],[29.2,17084],[29.2,17166],[29.2,17250],[29.2,17333],[29.2,17416],[29.2,17500],[29.2,17584],[29.2,17666],[29.2,17749],[29.2,17833],[29.2,17916],[28.9,18000],[28.9,18083],[28.9,18166],[28.9,18249],[28.9,18333],[28.9,18416],[28.9,18500],[28.9,18583],[28.9,18667],[28.8,18750],[28.8,18833],[28.5,18916],[28.5,19000],[28.5,19083],[28.5,19167],[28.5,19250],[28.5,19333],[28.5,19416],[28.5,19500],[28.5,19583],[28.5,19666],[28.5,19750],[28.5,19833],[28.5,19916],[28.5,19999],[28.5,20083],[28.5,20166],[28,20250],[27.8,20333],[27.8,20416],[27.8,20500],[27.8,20583],[27.8,20666],[27.8,20750],[27.8,20833],[27.8,20916],[27.8,21000],[27.8,21083],[27.8,21166],[27.8,21250],[27.8,21333],[27.8,21416],[27.8,21500],[27.8,21583],[27.8,21666],[27.8,21750],[27.8,21834],[27.8,21916],[27.8,22000],[27.8,22083],[27.8,22166],[27.8,22250],[27.8,22333]]",1,0,400.799,401.8659,26.48920083,0.775,"[{""rating"":26.48920083028905,""responseTime"":0.7749999999999773}]",space,0.5361,,401.8659,Not at all,0,401.8671,,,[],,0,12,12,12,1,audio/Narrative8Situation3.wav,audio/Narrative7Situation3.wav,audio/Narrative6Situation3.wav,audio/Narrative5Situation3.wav,4,8,5,3,,,,,,,,,,,,,,,,,,,,,,,,,,,,,,,,,,,,,,,
,,,,,,63d82b2de40f94ceb14816cc,2024-02-08_15h18.39.308,group3.1-3.2-social-tom,2023.2.2,Win32,60.24096386,65c5074098b851296ff0b7ed,65c5446a75e1c9f5133795a5,,,,,,,,,,,,,,,,,,,,,,,,,,,,,401.8671,1,audio/Narrative8Situation4.wav,404.8823,,404.8823,419.0658,"[[25.9,499],[25.9,583],[25.9,666],[25.9,750],[25.9,833],[25.9,916],[25.9,1000],[25.9,1083],[25.9,1166],[25.9,1249],[26.4,1333],[27.4,1416],[27.4,1500],[27.4,1584],[27.4,1666],[27.4,1749],[27.4,1834],[27.4,1916],[27.4,1999],[27.4,2083],[27.4,2166],[27.4,2249],[27.4,2333],[27.4,2416],[27.4,2500],[27.4,2583],[27.4,2666],[27.4,2750],[27.4,2833],[27.4,2916],[27.4,3000],[27.4,3083],[27.4,3166],[27.4,3249],[27.4,3333],[27.4,3416],[27.4,3500],[27.4,3583],[27.4,3666],[27.4,3750],[27.4,3833],[27.4,3916],[27.4,3999],[27.4,4083],[27.4,4167],[27.4,4249],[27.4,4333],[27.4,4416],[27.4,4500],[27.4,4583],[27.4,4666],[27.4,4750],[27.4,4833],[27.4,4916],[27.4,4999],[27.4,5083],[27.4,5166],[27.4,5249],[27.4,5333],[27.4,5416],[27.4,5500],[27.4,5583],[27.4,5666],[27.4,5749],[27.4,5833],[27.4,5916],[27.4,5999],[27.4,6083],[27.4,6167],[27.4,6249],[27.4,6333],[27.4,6416],[27.4,6500],[27.3,6583],[27.3,6666],[27.3,6750],[27.3,6833],[27.3,6916],[27.3,6999],[27.3,7083],[27.3,7166],[27.3,7249],[27.3,7333],[27.3,7416],[27.3,7499],[27.3,7583],[27.3,7666],[27.3,7749],[27.3,7833],[27.3,7916],[27.3,7999],[27.1,8083],[27.1,8166],[27.1,8250],[27.1,8333],[27.1,8416],[27.1,8500],[27.1,8583],[27.1,8666],[27.1,8750],[27.1,8833],[27.1,8916],[27.1,8999],[27.1,9083],[27.1,9166],[27.4,9249],[27.6,9333],[30.1,9416],[35.7,9499],[37.1,9583],[38,9666],[38.3,9750],[38.3,9833],[38.3,9916],[38.3,9999],[38.3,10083],[38.3,10166],[38.3,10249],[38.3,10333],[38.3,10416],[38.3,10500],[38.3,10583],[38.3,10666],[38.3,10749],[38.3,10833],[38.3,10916],[38.3,11000],[38.3,11083],[38.3,11166],[38.3,11249],[38.3,11333],[38.3,11416],[38.3,11501],[38.3,11583],[38.3,11667],[38.3,11750],[38.3,11833],[38.3,11916],[38.3,11999],[38.3,12083],[38.3,12166],[38.3,12249],[38.3,12333],[38.3,12416],[38.3,12499],[38.3,12583],[38.3,12666],[38.3,12749],[38.3,12833],[38.3,12916],[38.3,13000],[38.3,13083],[38.3,13166],[38.3,13250],[38.3,13333],[38.3,13416],[38.3,13500],[38.3,13583],[38.3,13667],[38.1,13750],[38,13833],[38,13916],[38,13999],[38,14083],[37.9,14166]]",1,0,419.0659,420.0825,37.94435489,0.5294,"[{""rating"":37.9443548937351,""responseTime"":0.5294000000059214}]",space,0.4669,,420.0825,Definitely yes,100,420.0837,,,[],,0,13,13,13,1,audio/Narrative8Situation4.wav,audio/Narrative7Situation4.wav,audio/Narrative6Situation4.wav,audio/Narrative5Situation4.wav,3,3,2,1,,,,,,,,,,,,,,,,,,,,,,,,,,,,,,,,,,,,,,,
,,,,,,63d82b2de40f94ceb14816cc,2024-02-08_15h18.39.308,group3.1-3.2-social-tom,2023.2.2,Win32,60.24096386,65c5074098b851296ff0b7ed,65c5446a75e1c9f5133795a5,,,,,,,,,,,,,,,,,,,,,,,,,,,,,420.0837,1,audio/Narrative8Situation5.wav,422.099,,422.0991,430.3492,"[[34.8,6499],[34.9,6583],[35,6666],[35.2,6749],[35.2,6833],[35.2,6916],[35.2,7000],[35.2,7084],[35.2,7166],[35.2,7249],[35.2,7333],[35.2,7416],[35.2,7500],[35.2,7583],[35.2,7666],[35.2,7749],[35.2,7833],[35.2,7916],[35.2,7999],[35.2,8083],[35.2,8166],[35.2,8250]]",1,0,430.3493,432.5492,48.25400132,1.8771,"[{""rating"":35.497125503303,""responseTime"":1.0193999999761445},{""rating"":48.25400132493976,""responseTime"":1.8770999999940159}]",space,1.6522,,432.5492,Partially,50,432.5506,,,[],,0,14,14,14,1,audio/Narrative8Situation5.wav,audio/Narrative7Situation5.wav,audio/Narrative6Situation5.wav,audio/Narrative5Situation5.wav,2,5,2,5,,,,,,,,,,,,,,,,,,,,,,,,,,,,,,,,,,,,,,,
,,,,,,63d82b2de40f94ceb14816cc,2024-02-08_15h18.39.308,group3.1-3.2-social-tom,2023.2.2,Win32,60.24096386,65c5074098b851296ff0b7ed,65c5446a75e1c9f5133795a5,,,,,,,,,,,,,,,,,,,,,,,,,,,,,432.5507,1,audio/Narrative8Situation6.wav,434.5655,,434.5655,441.0324,"[[43.8,83],[40.1,166],[40.1,250],[40.1,333],[40.1,417],[40.1,500],[40.1,583],[40.1,666],[40.1,750],[40.1,833],[40.1,916],[40.1,1000],[40.1,1083],[40.1,1166],[40.1,1250],[40.1,1333],[40.1,1416],[40.1,1500],[40.1,1583],[40.1,1666],[40.1,1750],[40.1,1833],[40.1,1916],[40.1,2000],[40.1,2083],[40.1,2166],[40.1,2250],[40.1,2333],[40.1,2416],[40.1,2500],[40.1,2583],[40.1,2666],[40.1,2750],[40.1,2833],[40.1,2916],[40.1,3000],[40.1,3083],[40.1,3166],[40.1,3250],[40.1,3333],[40.1,3417],[40.1,3499],[40.1,3583],[40.1,3666],[40.1,3750],[40.1,3833],[40.1,3916],[40.1,4000],[40.1,4084],[40.1,4166],[40.1,4250],[40.1,4333],[40.1,4416],[40.1,4500],[40.1,4583],[40.1,4666],[40.1,4750],[40.1,4833],[40.1,4916],[40.1,5000],[40.1,5083],[40.1,5166],[40.1,5250],[40.1,5333],[40.1,5416],[40.1,5500],[40.1,5583],[40.1,5666],[40.1,5750],[40.1,5833],[40.1,5916],[40.1,6000],[40.1,6083],[40.1,6166],[40.1,6250],[40.1,6333],[40.1,6417]]",1,0,441.0325,442.6658,28.72816847,0.8581,"[{""rating"":28.72816847365967,""responseTime"":0.8580999999940673}]",space,1.1047,,442.6658,Definitely yes,100,442.667,,,[],,0,15,15,15,1,audio/Narrative8Situation6.wav,audio/Narrative7Situation6.wav,audio/Narrative6Situation6.wav,audio/Narrative5Situation6.wav,2,3,2,3,,,,,,,,,,,,,,,,,,,,,,,,,,,,,,,,,,,,,,,
,,,,,,63d82b2de40f94ceb14816cc,2024-02-08_15h18.39.308,group3.1-3.2-social-tom,2023.2.2,Win32,60.24096386,65c5074098b851296ff0b7ed,65c5446a75e1c9f5133795a5,,,,,,,,,,,,,,,,,,,,,,,,,,,,,442.6671,1,audio/Narrative8Situation7.wav,445.6823,,445.6823,457.7662,"[[28.5,1583],[28.4,1666],[28.4,1750],[28.4,1833],[28.4,1916],[28.4,2000],[28.4,2084],[28.4,2166],[28.4,2250],[28.4,2333],[28.4,2416],[29.8,2500],[30.5,2583],[30.5,2666],[30.5,2750],[30.5,2833],[30.5,2916],[30.5,3000],[30.5,3083],[30.5,3166],[30.5,3250],[30.5,3333],[30.5,3416],[30.5,3500],[30.5,3583],[30.5,3666],[30.5,3750],[30.5,3834],[30.4,3916],[30.4,4000],[30.4,4083],[30.4,4166],[30.2,4250],[30.2,4333],[30.2,4416],[30.2,4500],[30.2,4583],[30.2,4666],[29.9,4750],[29.9,4833],[29.9,4916],[29.9,5000],[29.9,5083],[29.9,5166],[29.9,5250],[29.9,5333],[29.9,5416],[29.9,5500],[29.9,5583],[29.9,5667],[29.9,5750],[29.9,5833],[29.9,5916],[29.9,6000],[29.9,6083],[29.9,6166],[29.9,6250],[29.9,6333],[29.9,6416],[29.9,6500],[29.9,6583],[29.9,6666],[29.9,6750],[29.9,6834],[29.9,6917],[29.9,6999],[29.9,7083],[29.9,7166],[29.9,7250],[29.9,7333],[29.9,7417],[29.9,7500],[29.9,7583],[29.9,7666],[29.9,7750],[29.9,7833],[29.9,7916],[29.9,8000],[29.9,8084],[29.9,8167],[29.9,8250],[29.9,8333],[29.9,8416],[29.9,8500],[29.9,8583],[29.9,8666],[29.9,8750],[29.9,8833],[29.9,8916],[29.9,9000],[29.9,9083],[29.9,9166],[29.9,9250],[29.9,9333],[29.9,9416],[29.9,9500],[29.9,9583],[29.9,9666],[29.9,9750],[29.9,9833],[29.9,9916],[29.9,9999],[29.9,10083],[29.9,10166],[29.9,10250],[29.9,10333],[29.9,10417],[29.9,10499],[29.9,10583],[29.9,10666],[29.9,10750],[29.9,10833],[29.9,10916],[29.9,11000],[29.9,11083],[29.9,11167],[29.9,11250],[29.9,11333],[29.9,11416],[29.9,11500],[29.9,11583],[29.9,11666],[29.9,11750],[29.9,11833],[29.7,11916],[29.5,12000],[29,12083]]",1,0,457.7663,460.6825,14.04473383,2.4406,"[{""rating"":19.147493223734696,""responseTime"":0.8209000000059632},{""rating"":14.044733825292905,""responseTime"":2.4405999999939922}]",space,2.3735,,460.6826,Definitely yes,100,460.6835,,,[],,0,16,16,16,1,audio/Narrative8Situation7.wav,audio/Narrative7Situation7.wav,audio/Narrative6Situation7.wav,audio/Narrative5Situation7.wav,3,5,5,4,,,,,,,,,,,,,,,,,,,,,,,,,,,,,,,,,,,,,,,
,,,,,,63d82b2de40f94ceb14816cc,2024-02-08_15h18.39.308,group3.1-3.2-social-tom,2023.2.2,Win32,60.24096386,65c5074098b851296ff0b7ed,65c5446a75e1c9f5133795a5,,,,,,,,,,,,,,,,,,,,,,,,,,,,,460.6837,1,audio/Narrative8Situation8.wav,463.6993,,463.6993,476.5659,"[[42.7,83],[41.9,833],[41.5,916],[41.5,999],[41.5,1083],[41.5,1166],[41.5,1249],[41.5,1333],[41.5,1416],[41.5,1499],[41.5,1583],[41.5,1666],[41.5,1749],[41.5,1833],[41.5,1916],[41.5,1999],[41.5,2083],[41.5,2166],[41.3,2249],[41,2333],[40.8,2416],[40.5,2499],[40.5,2583],[40.3,2666],[40.3,2749],[40.3,2833],[40.3,2916],[40.3,2999],[40.3,3083],[40.3,3166],[39.4,3249],[39.4,3333],[39.4,3416],[39.4,3499],[39.4,3583],[39.4,3666],[39.4,3749],[39.4,3833],[39.4,3916],[39.4,3999],[39.4,4084],[39.4,4167],[39.4,4249],[39.4,4333],[39.4,4416],[39.4,4500],[39.4,4583],[39.4,4666],[39.4,4749],[39.4,4833],[39.4,4916],[39.4,5000],[39.4,5083],[39.4,5166],[39.4,5249],[39.4,5333],[39.4,5416],[39.4,5499],[39.4,5583],[39.4,5666],[39.4,5749],[39.4,5832],[39.4,5916],[39.4,6000],[39.4,6083],[39.4,6166],[39.4,6249],[39.4,6333],[38.9,6416],[38.9,6499],[38.9,6583],[38.9,6666],[38.9,6750],[38.9,6833],[38.9,6916],[38.9,7000],[38.9,7083],[38.9,7166],[38.9,7250],[38.9,7333],[38.9,7416],[38.9,7500],[38.9,7583],[38.9,7666],[38.9,7749],[38.9,7833],[38.9,7916],[38.9,8000],[38.9,8083],[38.9,8166],[38.9,8249],[38.9,8333],[38.9,8416],[38.9,8499],[38.9,8583],[38.9,8666],[38.9,8750],[38.9,8833],[38.9,8916],[38.9,8999],[38.9,9083],[38.9,9166],[38.9,9250],[38.9,9333],[38.9,9416],[38.9,9499],[38.9,9583],[38.9,9666],[38.9,9749],[38.9,9833],[38.9,9916],[38.9,10000],[38.9,10083],[38.9,10166],[38.9,10249],[38.9,10333],[38.9,10416],[38.9,10499],[38.9,10583],[38.9,10666],[38.9,10749],[38.9,10833],[38.9,10916],[38.9,10999],[38.9,11083],[38.9,11166],[38.9,11249],[38.9,11333],[38.9,11416],[38.9,11499],[38.9,11583],[38.9,11666],[38.9,11750],[38.9,11833],[38.9,11916],[38.9,12000],[38.9,12083],[38.4,12166],[37.9,12250],[35.7,12333],[33.9,12416],[33.7,12499],[33.7,12583],[33.7,12666],[33.7,12750],[33.7,12833]]",1,0,476.5659,478.0659,25.29161966,0.8652,"[{""rating"":25.291619663258103,""responseTime"":0.8652000000179214}]",space,0.9504,,478.066,Partially,50,478.0672,,,[],,0,17,17,17,1,audio/Narrative8Situation8.wav,audio/Narrative7Situation8.wav,audio/Narrative6Situation8.wav,audio/Narrative5Situation8.wav,3,2,5,3,,,,,,,,,,,,,,,,,,,,,,,,,,,,,,,,,,,,,,,
,,,,,,63d82b2de40f94ceb14816cc,2024-02-08_15h18.39.308,group3.1-3.2-social-tom,2023.2.2,Win32,60.24096386,65c5074098b851296ff0b7ed,65c5446a75e1c9f5133795a5,,,,,,,,,,,,,,,,,,,,,,,,,,,,,478.0673,1,audio/Narrative8Situation9.wav,481.0826,,481.0826,492.3993,"[[27.7,9000],[27.1,9083],[27.1,9167],[27.1,9249],[27.1,9333],[27.1,9416],[27.1,9499],[27.1,9583],[27.1,9666],[27.1,9750],[27.1,9833],[27.1,9916],[27.1,10000],[27.1,10083],[27.1,10166],[27.1,10250],[27.1,10333],[27.1,10416],[27.1,10500],[27.1,10583],[27.1,10666],[27.1,10750],[27.1,10833],[27.1,10916],[27.1,10999],[27.1,11083],[26.6,11166],[24.5,11250]]",1,0,492.3993,494.0325,16.96059264,0.659,"[{""rating"":16.96059263673429,""responseTime"":0.6590000000000487}]",space,1.1119,,494.0325,Partially,50,494.0334,,,[],,0,18,18,18,1,audio/Narrative8Situation9.wav,audio/Narrative7Situation9.wav,audio/Narrative6Situation9.wav,audio/Narrative5Situation9.wav,3,2,4,3,,,,,,,,,,,,,,,,,,,,,,,,,,,,,,,,,,,,,,,
,,,,,,63d82b2de40f94ceb14816cc,2024-02-08_15h18.39.308,group3.1-3.2-social-tom,2023.2.2,Win32,60.24096386,65c5074098b851296ff0b7ed,65c5446a75e1c9f5133795a5,,,,,,,,,,,,,,,,,,,,,,,,,,,501.5211,504.0992,504.1084,2,audio/Narrative13Situation2.wav,504.1084,,504.1084,533.8508,"[[21.7,740],[21.7,824],[21.7,907],[21.7,990],[21.7,1074],[21.7,1157],[21.7,1240],[21.7,1324],[21.7,1407],[21.7,1490],[21.7,1574],[21.7,1657],[21.7,1740],[21.7,1824],[21.7,1907],[21.7,1990],[21.7,2074],[21.7,2157],[21.7,2240],[21.7,2324],[21.7,2407],[21.7,2490],[21.7,2574],[21.7,2657],[21.7,2741],[21.7,2824],[21.7,2907],[21.7,2990],[21.7,3074],[21.7,3157],[21.7,3240],[21.7,3324],[21.7,3407],[21.7,3490],[21.7,3574],[21.7,3657],[21.7,3741],[21.3,3824],[21.3,3907],[21.3,3990],[21.3,4074],[21.3,4157],[21.3,4240],[21.3,4324],[21.3,4407],[21.3,4490],[21.3,4574],[21.3,4657],[21.3,4740],[21.3,4824],[21.3,4907],[21.3,4990],[21.3,5074],[21.3,5157],[21.3,5240],[21.3,5324],[21.3,5407],[21.3,5490],[21.3,5574],[21.3,5658],[21.3,5740],[21.5,5824],[21.5,5907],[21.5,5991],[21.5,6074],[21.5,6157],[21.5,6241],[21.5,6324],[21.5,6407],[21.5,6490],[21.5,6574],[21.5,6657],[21.5,6740],[21.5,6823],[21.5,6907],[21.5,6991],[21.5,7074],[21.5,7157],[21.5,7240],[21.5,7324],[21.5,7407],[21.5,7490],[21.5,7574],[21.5,7657],[21.5,7741],[21.5,7824],[21.5,7907],[21.5,7990],[21.5,8074],[21.5,8157],[21.5,8241],[21.5,8324],[21.5,8407],[21.5,8490],[21.5,8574],[21.5,8657],[21.5,8740],[21.5,8824],[21.5,8907],[21.2,8991],[21.2,9074],[21.2,9157],[21.2,9240],[21.2,9324],[21.2,9407],[21.2,9491],[21.2,9574],[21.2,9657],[21.2,9740],[21.2,9823],[21.2,9907],[21.2,9990],[21.2,10074],[21.2,10157],[21.2,10240],[21.2,10324],[21.2,10407],[21.2,10490],[21.2,10574],[21.2,10657],[21.2,10741],[21.2,10824],[21.2,10907],[21.2,10990],[21.2,11074],[21.2,11158],[21.2,11240],[21.2,11324],[21.2,11408],[21.2,11490],[21.2,11574],[21.2,11657],[21.2,11740],[21.2,11824],[21.2,11907],[21.2,11990],[21.2,12074],[21.2,12157],[21.2,12240],[21.2,12325],[21.2,12407],[21.2,12490],[21.2,12574],[21.2,12658],[21.2,12741],[21.2,12823],[21.2,12907],[21.2,12990],[21.2,13074],[21.2,13157],[21.2,13241],[21.2,13324],[21.2,13407],[21.2,13490],[21.2,13574],[21.2,13657],[21.2,13740],[21.2,13824],[21.2,13907],[21.2,13991],[21.2,14074],[21.2,14157],[21.2,14241],[21.2,14324],[21.2,14407],[21.2,14490],[21.2,14574],[21.2,14657],[21.2,14740],[21.2,14824],[21.2,14907],[21.2,14991],[20.7,15074],[20.7,15157],[20.7,15240],[20.7,15324],[20.7,15407],[20.7,15490],[20.5,15574],[20.5,15657],[20.5,15740],[20.5,15824],[20.5,15907],[20.5,15990],[20.5,16074],[20.5,16157],[20.5,16241],[20.5,16324],[20.5,16407],[20.5,16491],[20.5,16574],[20.2,16657],[20.2,16741],[20.2,16824],[20.2,16907],[20.2,16990],[20.2,17074],[20.2,17158],[20.2,17240],[20.2,17323],[20.2,17407],[20.2,17490],[20.2,17574],[20.2,17657],[20.2,17740],[20.2,17823],[20.2,17907],[20.2,17991],[20.2,18074],[20.2,18157],[20.2,18241],[20.2,18324],[20.2,18407],[20.2,18490],[20.2,18574],[20.2,18657],[20.2,18740],[20.2,18824],[20.2,18907],[20.2,18990],[20.2,19074],[20.2,19157],[20.2,19241],[20.2,19324],[20.2,19407],[20.2,19491],[20.2,19574],[20.2,19657],[20.2,19740],[20.2,19824],[20.2,19907],[20.2,19991],[20.2,20074],[20.2,20157],[20.2,20241],[20.2,20324],[20.2,20407],[20.2,20491],[20.2,20574],[20.2,20657],[20.2,20740],[20.2,20824],[20.2,20907],[20.2,20991],[20.2,21074],[20.2,21158],[20.2,21240],[20.2,21326],[20.2,21407],[20.2,21491],[20.2,21574],[20.2,21658],[20.2,21741],[18.3,21824],[18.2,21907],[18.2,21990],[18.2,22074],[18.2,22157],[18.2,22241],[18.2,22324],[18.2,22407],[18.2,22490],[18.2,22574],[18.2,22657],[18.2,22741],[18.2,22824],[18.2,22907],[18.2,22990],[18.2,23074],[18.2,23157],[18.2,23240],[18.2,23324],[18.2,23407],[18.2,23490],[18.2,23574],[18.2,23657],[18.2,23740],[18.2,23824],[18.2,23907],[18.2,23990],[18.2,24074],[18.2,24157],[18.2,24241],[18.2,24324],[18.2,24407],[18.2,24491],[18.2,24574],[18.2,24657],[18.2,24741],[18.2,24824],[18.2,24907],[18.2,24990],[18.2,25074],[18.2,25157],[18.2,25241],[18.2,25324],[18.2,25407],[18.2,25490],[18.2,25574],[18.2,25657],[18.2,25741],[18.2,25824],[18.2,25907],[18.2,25991],[18.2,26074],[18.2,26158],[18.2,26241],[18.2,26324],[18.2,26407],[18.2,26491],[18.2,26574],[18.2,26657],[18.2,26740],[18.2,26824],[18.2,26907],[18.2,26991],[18.2,27074],[18.2,27157],[18.2,27241],[18.2,27324],[18.2,27407],[18.2,27490],[18.2,27574],[18.2,27657],[18.2,27741],[18.2,27824],[18.2,27907],[18.2,27990],[18.2,28074],[18.2,28157],[18.2,28240],[18.2,28324],[18.2,28407],[18.2,28491],[18.2,28574],[18.2,28657],[18.2,28741],[18.2,28824],[18.2,28907],[18.2,28990],[18.2,29074],[18.2,29157],[18.2,29241],[18.2,29324],[18.2,29407],[17.9,29490],[17.9,29574],[18.2,29657],[19.7,29742]]",1,0,533.8509,533.8517,,,[],,,,533.8517,Not at all,0,533.8526,,,[],,0,0,0,0,1,audio/Narrative13Situation2.wav,audio/Narrative13Situation2.wav,audio/Narrative13Situation2.wav,audio/Narrative13Situation2.wav,2,2,2,2,,,,,494.0339,501.5165,space,6.953,,,,,,,,,,,,,,,,,,,,,,,,,,,,,,,
,,,,,,63d82b2de40f94ceb14816cc,2024-02-08_15h18.39.308,group3.1-3.2-social-tom,2023.2.2,Win32,60.24096386,65c5074098b851296ff0b7ed,65c5446a75e1c9f5133795a5,,,,,,,,,,,,,,,,,,,,,,,,,,,,,533.8528,2,audio/Narrative5Situation1.wav,538.866,,538.8661,552.1498,"[[25.6,5999],[25.6,6083],[25.6,6166],[25.6,6250],[25.6,6333],[25.6,6416],[25.6,6500],[25.6,6583],[25.6,6666],[25.6,6750],[25.6,6833],[25.6,6916],[25.6,7000],[25.6,7084],[25.6,7166],[25.6,7250],[25.6,7333],[25.6,7416],[25.6,7500],[25.6,7583],[25.6,7666],[25.6,7750],[25.5,7833],[25.5,7916],[25.5,8000],[25.5,8083],[25.5,8166],[25.5,8249],[25.5,8333],[25.5,8416],[25.5,8500],[25.5,8584],[25.5,8666],[25.5,8750],[25.5,8834],[25.5,8916],[25.5,8999],[25.5,9083],[25.5,9166],[25.5,9250],[25.5,9333],[25.5,9416],[25.5,9500],[25.5,9583],[25.5,9666],[25.5,9750],[25.5,9833],[25.5,9916],[25.5,10000],[25.5,10083],[25.4,10166],[25.4,10250],[25.4,10333],[25.4,10416],[25.4,10500],[25.4,10583],[25.4,10667],[25.4,10750],[25.4,10833],[25.4,10916],[25.4,11000],[25.4,11083],[25.4,11166],[25.4,11250],[25.4,11333],[25.4,11416],[25.4,11500],[25.4,11583],[25.4,11666],[25.4,11749],[25.4,11833],[25.4,11916],[25.4,12000],[25.4,12083],[25.4,12166],[25.4,12250],[25.4,12333],[25.4,12416],[25.4,12499],[25.4,12583],[25.4,12666],[25.4,12750],[25.4,12833],[25.4,12917],[25.4,13000],[25.4,13083],[25.4,13166],[25.4,13249]]",1,0,552.1498,555.1503,11.90991973,1.4674,"[{""rating"":11.90991972992077,""responseTime"":1.4674000000060232}]",space,2.4533,,555.1503,Not at all,0,564.2164,0,5.8537,"[{""rating"":0,""responseTime"":5.853699999988066}]",space,0,1,1,1,1,audio/Narrative7Situation1.wav,audio/Narrative8Situation1.wav,audio/Narrative5Situation1.wav,audio/Narrative6Situation1.wav,2,5,5,2,,,8.524,,,,,,,,,,,,,,,,,,,,,,,,,,,,,,,,,,,,
,,,,,,63d82b2de40f94ceb14816cc,2024-02-08_15h18.39.308,group3.1-3.2-social-tom,2023.2.2,Win32,60.24096386,65c5074098b851296ff0b7ed,65c5446a75e1c9f5133795a5,,,,,,,,,,,,,,,,,,,,,,,,,,,,,564.2205,2,audio/Narrative5Situation2.wav,567.2332,,567.2332,596.6997,"[[4,916],[18.2,999],[35.1,1082],[42.1,1166],[43.7,1249],[45.9,1333],[47,1416],[47.9,1499],[49.2,1582],[49.9,1666],[49.9,1749],[49.9,1832],[49.5,1916],[49.5,1999],[49.5,2083],[49.5,2166],[49.5,2249],[49.5,2332],[49.5,2416],[49.5,2499],[49.5,2583],[49.5,2666],[49.5,2749],[49.5,2832],[49.5,2916],[49.5,3000],[49.5,3083],[49.5,3166],[49.5,3250],[49.5,3332],[49.5,3416],[49.5,3499],[49.3,3582],[49.3,3666],[49.3,3750],[48.8,3832],[48.8,3916],[48.8,3999],[48.8,4082],[48.8,4166],[46.8,4249],[15.5,4749],[14.6,4832],[14.6,4916],[14.6,4999],[14.6,5083],[14.6,5166],[14.6,5249],[14.6,5332],[14.6,5416],[14.6,5499],[14.6,5583],[14.6,5666],[14.6,5749],[14.6,5832],[14.6,5916],[14.6,6000],[14.6,6083],[14.6,6166],[14.6,6249],[14.6,6332],[14.6,6416],[14.6,6500],[14.6,6583],[14.6,6666],[14.6,6750],[14.6,6833],[14.6,6916],[14.6,7000],[14.6,7083],[14.6,7166],[14.6,7249],[14.6,7332],[13.9,7416],[13,7499],[12.2,7583],[11.2,7666],[9.7,7749],[9.7,7832],[9.7,7916],[7.7,7999],[7.1,8082],[7.1,8166],[7.1,8249],[7.1,8332],[7.6,8416],[9.3,8499],[9.3,8583],[9.3,8666],[9.3,8750],[9.3,8832],[9.3,8916],[9.3,8999],[9.3,9082],[9.3,9166],[9.3,9249],[9.3,9334],[9.3,9416],[9.3,9499],[9.3,9582],[9.3,9666],[9.3,9749],[9.3,9832],[9.3,9916],[9.3,9999],[9.3,10082],[9.3,10166],[9.3,10249],[9.3,10332],[9.3,10416],[9.3,10499],[9.3,10583],[9.3,10666],[9.3,10749],[9.3,10833],[9.3,10916],[9.3,10999],[9.3,11082],[9.3,11166],[9.3,11249],[9.3,11332],[9.3,11416],[9.3,11499],[9.3,11583],[9.3,11666],[9.3,11749],[9.3,11833],[9.3,11916],[9.3,11999],[9.3,12083],[9.3,12166],[9.3,12249],[9.3,12332],[9.3,12416],[9.3,12499],[9.3,12582],[9.3,12666],[9.3,12749],[9.3,12833],[9.3,12916],[9.3,12999],[9.3,13083],[9.3,13166],[9.3,13249],[9.3,13332],[9.3,13416],[9.3,13499],[9.3,13583],[9.3,13666],[9.3,13749],[9.3,13832],[9.3,13916],[9.3,13999],[9.3,14082],[9.3,14166],[9.3,14250],[9.3,14332],[9.3,14416],[9.3,14499],[9.3,14583],[9.3,14666],[9.3,14749],[9.3,14833],[9.3,14916],[9.3,14999],[9.3,15083],[9.3,15166],[9.3,15249],[9.3,15333],[9.3,15416],[9.3,15499],[9.3,15583],[9.3,15666],[9.3,15749],[9.3,15833],[9.3,15916],[9.3,15999],[9.3,16082],[9.3,16166],[9.3,16249],[9.3,16332],[9.3,16416],[9.3,16499],[9.3,16583],[9.3,16666],[9.3,16749],[9.3,16833],[9.3,16916],[9.3,16999],[9.3,17082],[9.3,17166],[9.3,17249],[9.3,17332],[9.3,17416],[9.3,17499],[9.3,17582],[9.3,17666],[9.3,17755],[9.3,17833],[9.3,17916],[9.3,17999],[9.3,18082],[9.3,18166],[9.3,18249],[9.3,18332],[9.3,18416],[9.3,18499],[9.3,18582],[9.3,18666],[9.3,18750],[9.3,18832],[9.3,18916],[9.3,18999],[9.3,19083],[9.3,19166],[9.3,19250],[9.3,19332],[9.3,19416],[9.3,19499],[9.3,19583],[9.3,19666],[9.3,19749],[9.3,19832],[9.3,19916],[9.3,20000],[9.3,20082],[9.3,20166],[9.3,20250],[9.3,20332],[9.3,20416],[9.3,20500],[9.3,20583],[9.3,20666],[9.3,20749],[9.3,20833],[9.3,20916],[9.3,20999],[9.3,21083],[9.3,21166],[9.3,21249],[9.3,21332],[9.3,21416],[9.3,21499],[9.3,21582],[9.3,21666],[9.3,21749],[9.3,21832],[9.3,21916],[9.3,21999],[9.3,22083],[9.3,22166],[9.3,22250],[9.3,22333],[9.3,22416],[9.3,22500],[9.3,22583],[9.3,22666],[9.3,22752],[9.3,22833],[9.3,22916],[9.3,22999],[9.3,23082],[9.3,23166],[9.3,23250],[9.3,23332],[9.3,23416],[9.3,23499],[9.3,23582],[9.3,23666],[9.3,23749],[9.3,23832],[9.3,23916],[9.3,23999],[9.3,24083],[9.3,24166],[9.3,24249],[9.3,24333],[9.3,24416],[9.3,24499],[9.3,24583],[9.3,24666],[9.3,24749],[9.3,24833],[9.3,24916],[9.3,24999],[9.3,25083],[9.3,25166],[9.3,25250],[9.3,25333],[9.3,25416],[9.3,25499],[9.3,25583],[9.3,25666],[9.3,25749],[9.3,25832],[9.3,25916],[9.3,25999],[9.3,26083],[9.3,26166],[9.3,26249],[9.3,26332],[9.3,26416],[9.3,26499],[9.3,26583],[9.3,26666],[9.3,26749],[9.3,26833],[9.3,26916],[9.3,26999],[9.3,27083],[9.3,27166],[9.3,27249],[9.3,27333],[9.3,27416],[9.3,27499],[9.3,27583],[9.3,27666],[9.3,27749],[9.3,27833],[9.3,27916],[9.3,27999],[9.3,28083],[9.3,28166],[9.3,28249],[9.3,28333],[9.3,28416],[9.3,28499],[9.3,28583],[9.3,28666],[9.3,28749],[9.3,28833],[9.3,28916],[9.3,28999],[9.3,29082],[9.3,29166],[9.3,29249],[9.3,29333],[9.3,29416]]",1,0,596.6998,598.4165,11.80577266,0.9197,"[{""rating"":11.80577266034164,""responseTime"":0.9196999999879836}]",space,1.1687,,598.4166,Not at all,0,598.4172,,,[],,0,2,2,2,1,audio/Narrative7Situation2.wav,audio/Narrative8Situation2.wav,audio/Narrative5Situation2.wav,audio/Narrative6Situation2.wav,3,3,3,3,,,,,,,,,,,,,,,,,,,,,,,,,,,,,,,,,,,,,,,
,,,,,,63d82b2de40f94ceb14816cc,2024-02-08_15h18.39.308,group3.1-3.2-social-tom,2023.2.2,Win32,60.24096386,65c5074098b851296ff0b7ed,65c5446a75e1c9f5133795a5,,,,,,,,,,,,,,,,,,,,,,,,,,,,,598.4174,2,audio/Narrative5Situation3.wav,601.4331,,601.4331,615.3331,"[[8.4,166],[8.4,250],[8.4,332],[8.4,416],[8.4,499],[8.4,583],[8.4,666],[8.4,750],[8.4,833],[8.4,916],[8.5,999],[11.7,1083],[15.6,1166],[15.6,1250],[15.6,1332],[15.6,1416],[15.6,1500],[15.6,1583],[15.6,1666],[15.6,1749],[15.6,1833],[15.6,1916],[15.6,2000],[15.6,2083],[15.6,2166],[15.6,2250],[15.6,2333],[15.6,2416],[15.6,2501],[15.6,2583],[15.6,2666],[15.6,2749],[15.6,2833],[15.6,2916],[15.6,2999],[15.6,3084],[15.6,3166],[15.6,3249],[15.6,3333],[15.6,3416],[15.6,3500],[15.6,3583],[15.6,3666],[15.6,3750],[15.6,3833],[15.6,3916],[15.6,3999],[14.6,4083],[13.4,4166],[12.9,4249],[11.8,4333],[11.3,4416],[11,4499],[11,4583],[11,4666],[11,4750],[11,4833],[11,4916],[11,5000],[11,5083],[11,5166],[11,5250],[11,5333],[11,5416],[11,5499],[11,5583],[11,5666],[11,5749],[11,5833],[11,5916],[11,5999],[11,6083],[11,6166],[11,6249],[11,6333],[11,6416],[11,6499],[11,6583],[11,6666],[11,6750],[11,6833],[11,6916],[11,6999],[11,7083],[11,7167],[11,7250],[11,7333],[11,7416],[11,7500],[11,7583],[11,7666],[11,7749],[11,7833],[11,7916],[11,7999],[11,8083],[11,8166],[11,8250],[11,8333],[11,8416],[11,8499],[11,8583],[11,8667],[11,8749],[11,8832],[11,8916],[11,8999],[11,9083],[11,9166],[11,9249],[11,9333],[11,9416],[11,9499],[11,9583],[11,9666],[11,9749],[11,9833],[11,9916],[11,10000],[11,10083],[11,10166],[11,10249],[11,10333],[11,10416],[11,10500],[11,10583],[11,10666],[11,10750],[11,10833],[11,10916],[11,11000],[11,11083],[11,11166],[11,11250],[11,11333],[11,11416],[11,11500],[11,11583],[11,11666],[11,11750],[11,11833],[11,11916],[11,11999],[11,12083],[11,12166],[11,12250],[11,12333],[11,12416],[11,12500],[11,12583],[11,12666],[11,12750],[11,12833],[11,12916],[11,13000],[11,13083],[11,13166],[11,13249],[11,13333],[11.3,13416],[14.4,13499],[17.3,13583],[18.7,13666],[19.8,13750],[20.6,13833]]",1,0,615.3332,616.3163,20.81369085,0.5417,"[{""rating"":20.813690854936244,""responseTime"":0.5416999999880545}]",space,0.4343,,616.3163,Partially,50,616.3174,,,[],,0,3,3,3,1,audio/Narrative7Situation3.wav,audio/Narrative8Situation3.wav,audio/Narrative5Situation3.wav,audio/Narrative6Situation3.wav,8,4,3,5,,,,,,,,,,,,,,,,,,,,,,,,,,,,,,,,,,,,,,,
,,,,,,63d82b2de40f94ceb14816cc,2024-02-08_15h18.39.308,group3.1-3.2-social-tom,2023.2.2,Win32,60.24096386,65c5074098b851296ff0b7ed,65c5446a75e1c9f5133795a5,,,,,,,,,,,,,,,,,,,,,,,,,,,,,616.3175,2,audio/Narrative5Situation4.wav,617.3335,,617.3335,637.7334,"[[23.5,582],[23.5,666],[23.5,749],[23.5,832],[23.5,916],[23.5,999],[23.5,1082],[23.5,1166],[23.5,1249],[23.5,1332],[23.5,1416],[23.5,1499],[23.5,1583],[23.5,1666],[23.5,1749],[23.5,1832],[23.5,1916],[23.5,1999],[23.5,2083],[23.5,2166],[23.5,2249],[23.5,2332],[23.5,2416],[23.5,2499],[23.5,2583],[23.5,2666],[23.5,2749],[23.5,2832],[23.5,2915],[23.5,2999],[23.5,3083],[23.5,3166],[23.5,3249],[23.5,3333],[23.5,3416],[23.5,3499],[23.5,3582],[23.5,3666],[23.5,3750],[23.5,3832],[23.5,3915],[23.5,3999],[23.5,4082],[23.5,4166],[23.5,4249],[23.5,4332],[23.5,4416],[23.5,4499],[23.5,4583],[23.5,4666],[23.5,4749],[23.5,4832],[23.5,4916],[23.5,4999],[23.5,5082],[23.5,5166],[23.5,5249],[23.5,5332],[19.8,6249],[20.7,6332],[20.7,6416],[20.7,6499],[20.7,6582],[20.7,6666],[20.7,6749],[20.7,6833],[20.7,6916],[20.7,6999],[20.5,7082],[20.5,7166],[20.5,7249],[20.5,7332],[20.5,7416],[20.5,7499],[20.5,7582],[20.5,7668],[20.5,7750],[20.5,7832],[20.5,7916],[20.5,7999],[20.5,8082],[20.5,8166],[20.5,8249],[20.5,8332],[20.5,8416],[20.5,8499],[20.5,8582],[20.5,8666],[20.5,8749],[20.5,8833],[20.5,8917],[20.5,8999],[20.5,9082],[20.5,9166],[20.5,9249],[20.5,9332],[20.5,9416],[20.5,9499],[20.5,9582],[20.5,9666],[20.5,9749],[20.5,9833],[20.5,9916],[20.5,9999],[20.5,10082],[20.5,10166],[20.5,10249],[20.5,10332],[20.5,10416],[20.5,10499],[20.5,10582],[20.5,10665],[20.5,10749],[20.5,10833],[20.5,10916],[20.5,10999],[20.5,11082],[20.5,11166],[20.5,11249],[20.5,11333],[20.5,11416],[20.5,11499],[20.5,11582],[20.5,11666],[20.5,11749],[20.5,11833],[20.5,11916],[20.5,11999],[20.5,12082],[20.5,12166],[20.5,12249],[20.5,12333],[20.5,12416],[20.5,12499],[20.5,12582],[20.3,12666],[19.1,12749],[18.6,12832],[18.6,12916],[18.6,12999],[18.6,13082],[18.6,13166],[18.6,13249],[18.6,13332],[18.6,13416],[18.6,13499],[18.6,13582],[18.6,13666],[18.6,13749],[18.6,13832],[18.6,13916],[18.6,13999],[18.6,14083],[18.6,14166],[18.6,14249],[18.6,14332],[18.6,14416],[18.6,14499],[18.6,14582],[18.6,14666],[18.6,14749],[18.6,14832],[18.6,14916],[18.6,14999],[18.6,15082],[18.6,15166],[18.6,15249],[18.6,15332],[18.6,15416],[18.6,15499],[18.6,15582],[18.6,15666],[18.6,15749],[18.6,15832],[18.6,15916],[18.6,15999],[18.6,16082],[18.6,16166],[18.6,16249],[18.6,16332],[18.6,16416],[18.6,16499],[18.6,16582],[18.6,16666],[18.6,16749],[18.6,16832],[18.6,16917],[18.6,16999],[18.6,17083],[18.6,17166],[18.6,17249],[18.6,17333],[18.6,17416],[18.6,17499],[18.6,17583],[18.6,17666],[18.6,17750],[18.6,17833],[18.6,17916],[18.6,17999],[18.6,18082],[18.6,18166],[18.6,18249],[18.6,18333],[18.6,18416],[18.6,18499],[18.6,18582],[18.6,18666],[18.6,18749],[18.6,18832],[18.6,18916],[18.6,18999],[18.6,19083],[18.6,19166],[18.6,19249],[18.6,19332],[18.6,19416],[18.6,19499],[18.6,19582],[18.6,19666],[18.6,19749],[18.6,19833],[18.6,19916],[18.6,20000],[18.6,20083],[18.6,20166],[18.6,20249],[18.6,20333]]",1,0,637.7336,639.1331,24.82299672,0.7835,"[{""rating"":24.822996720668154,""responseTime"":0.7835000000000036}]",space,0.8504,,639.1331,Not at all,0,639.1342,,,[],,0,4,4,4,1,audio/Narrative7Situation4.wav,audio/Narrative8Situation4.wav,audio/Narrative5Situation4.wav,audio/Narrative6Situation4.wav,3,3,1,2,,,,,,,,,,,,,,,,,,,,,,,,,,,,,,,,,,,,,,,
,,,,,,63d82b2de40f94ceb14816cc,2024-02-08_15h18.39.308,group3.1-3.2-social-tom,2023.2.2,Win32,60.24096386,65c5074098b851296ff0b7ed,65c5446a75e1c9f5133795a5,,,,,,,,,,,,,,,,,,,,,,,,,,,,,639.1344,2,audio/Narrative5Situation5.wav,644.1505,,644.1505,659.5666,"[[24.1,832],[28,915],[34.6,999],[38.1,1082],[39,1166],[39,1249],[39,1332],[39,1416],[39,1499],[39,1582],[39,1666],[39,1749],[39,1832],[39,1916],[39,1999],[39,2082],[39,2166],[39,2249],[39,2332],[39,2415],[39,2499],[39,2582],[39,2665],[39,2749],[39,2832],[39,2916],[39,2999],[39,3082],[39,3166],[39,3249],[39,3333],[39,3416],[39,3499],[39,3582],[39,3666],[39,3749],[39,3832],[39,3916],[39,3999],[39,4082],[39,4166],[39,4249],[39,4332],[39,4416],[39,4499],[39,4582],[39,4665],[39,4749],[39,4832],[39,4916],[38.8,4999],[38.8,5082],[38.8,5166],[38.8,5249],[38.8,5332],[38.7,5415],[38.7,5499],[38.7,5582],[38.7,5665],[38.7,5749],[38.7,5832],[38.7,5916],[38.7,5999],[38.7,6082],[38.7,6166],[38.7,6249],[38.7,6332],[38.7,6416],[38.7,6499],[38.7,6582],[38.7,6666],[38.4,6749],[38.4,6833],[38.4,6916],[38.4,6999],[38.4,7082],[38.4,7165],[38.4,7249],[38.4,7332],[38.4,7416],[38.4,7499],[38.4,7583],[38.4,7665],[38.4,7749],[38.4,7832],[38.4,7916],[38.4,7999],[38.4,8082],[38.4,8166],[38.4,8249],[38.4,8332],[38.7,8416],[43.9,8499],[46.9,8582],[48.7,8665],[49.6,8749],[50.8,8832],[51.2,8916],[51.3,8999],[51.3,9082],[51.2,9166],[51.2,9249],[51.2,9332],[51.2,9416],[51.1,9499],[50.5,9582],[50.2,9666],[50.2,9749],[50.2,9833],[50.2,9916],[50.2,9999],[50.2,10082],[50.2,10166],[50.2,10249],[50.2,10333],[50.2,10415],[50.2,10499],[50.2,10582],[50.2,10666],[50.2,10749],[50.2,10832],[50.2,10915],[50.2,10999],[50.2,11082],[50.2,11166],[50.2,11249],[50.2,11333],[50.2,11416],[50.2,11499],[50.2,11583],[50.2,11666],[50.2,11749],[50.2,11832],[50.2,11915],[50.2,11999],[50.2,12082],[50.2,12166],[50.2,12249],[50.2,12332],[50.2,12416],[50.2,12499],[50.2,12582],[50.2,12666],[50.2,12749],[50.2,12832],[50.2,12915],[50.2,12999],[48.6,13082],[46.1,13165],[45.5,13249],[45,13333],[43.2,13416],[42.2,13499],[42.2,13582],[42.2,13666],[42.2,13749],[42.2,13832],[42.2,13915],[42.2,13999],[42.2,14083],[42.2,14166],[42.2,14249],[42.2,14332],[42.2,14416],[42.2,14499],[42.2,14582],[42.2,14666],[42.2,14749],[42,14832],[42,14916],[41.4,14999],[41.3,15082],[41.3,15166],[41.3,15249],[41.3,15332],[41.3,15416]]",1,0,659.5666,660.6505,40.70400606,0.7161,"[{""rating"":40.70400605764652,""responseTime"":0.7161000000237436}]",space,0.5332,,660.6506,Not at all,0,660.6514,,,[],,0,5,5,5,1,audio/Narrative7Situation5.wav,audio/Narrative8Situation5.wav,audio/Narrative5Situation5.wav,audio/Narrative6Situation5.wav,5,2,5,2,,,,,,,,,,,,,,,,,,,,,,,,,,,,,,,,,,,,,,,
,,,,,,63d82b2de40f94ceb14816cc,2024-02-08_15h18.39.308,group3.1-3.2-social-tom,2023.2.2,Win32,60.24096386,65c5074098b851296ff0b7ed,65c5446a75e1c9f5133795a5,,,,,,,,,,,,,,,,,,,,,,,,,,,,,660.6516,2,audio/Narrative5Situation6.wav,663.6668,,663.6668,669.3502,"[[39.9,1083],[39.9,1166],[39.9,1250],[39.9,1333],[39.9,1416],[39.9,1500],[39.9,1583],[39.9,1666],[39.9,1749],[39.9,1833],[39.9,1916],[39.9,1999],[39.9,2083],[39.9,2166],[39.9,2249],[39.9,2333],[39.9,2416],[39.9,2499],[39.9,2583],[39.9,2666],[39.9,2750],[39.9,2833],[39.9,2916],[39.9,2999],[39.9,3083],[39.9,3166],[39.9,3249],[39.9,3333],[39.9,3416],[39.9,3499],[39.9,3583],[39.9,3667],[39.9,3750],[39.9,3833],[39.9,3916],[39.9,3999],[39.9,4083],[39.9,4166],[39.9,4249],[39.9,4333],[39.9,4416],[39.9,4499],[39.9,4583],[39.9,4666],[39.9,4750],[39.9,4833],[39.9,4916],[39.9,4999],[39.9,5083],[39.9,5166],[39.9,5249],[39.9,5333],[39.9,5416],[39.9,5499],[39.9,5583],[39.9,5666]]",1,0,669.3502,671.7333,16.335775,1.7087,"[{""rating"":16.335775003453072,""responseTime"":1.7087000000178705}]",space,1.8334,,671.7333,Definitely yes,100,671.7345,,,[],,0,6,6,6,1,audio/Narrative7Situation6.wav,audio/Narrative8Situation6.wav,audio/Narrative5Situation6.wav,audio/Narrative6Situation6.wav,3,2,3,2,,,,,,,,,,,,,,,,,,,,,,,,,,,,,,,,,,,,,,,
,,,,,,63d82b2de40f94ceb14816cc,2024-02-08_15h18.39.308,group3.1-3.2-social-tom,2023.2.2,Win32,60.24096386,65c5074098b851296ff0b7ed,65c5446a75e1c9f5133795a5,,,,,,,,,,,,,,,,,,,,,,,,,,,,,671.7345,2,audio/Narrative5Situation7.wav,675.7501,,675.7502,696.7999,"[[19.8,3833],[19.8,3916],[19.8,3999],[19.8,4083],[19.8,4166],[19.8,4250],[19.8,4333],[19.8,4416],[19.8,4499],[19.8,4583],[19.8,4666],[19.8,4749],[19.8,4833],[19.8,4916],[19.8,4999],[19.8,5082],[19.8,5166],[19.8,5249],[19.8,5333],[19.8,5416],[19.8,5499],[19.8,5583],[19.8,5666],[19.8,5750],[19.8,5832],[19.8,5916],[19.8,6000],[19.8,6083],[19.8,6166],[19.8,6250],[19.8,6332],[19.8,6416],[19.8,6499],[19.8,6582],[19.8,6666],[19.8,6749],[19.8,6833],[19.8,6916],[19.8,7000],[19.8,7083],[19.8,7166],[19.8,7250],[19.8,7332],[19.8,7416],[19.8,7499],[19.8,7583],[19.8,7666],[19.8,7750],[19.8,7833],[19.8,7916],[19.8,7999],[19.8,8083],[19.8,8166],[19.8,8250],[19.8,8333],[19.8,8416],[19.8,8500],[19.8,8583],[18.4,8666],[17.6,8749],[16.9,8833],[16.9,8916],[16.9,8999],[16.9,9083],[16.9,9166],[16.9,9250],[16.9,9332],[16.9,9416],[16.9,9499],[16.9,9583],[16.9,9666],[16.9,9749],[16.9,9833],[16.9,9916],[16.9,10000],[16.9,10083],[16.9,10166],[16.9,10250],[16.9,10333],[16.9,10416],[16.9,10499],[16.9,10583],[16.9,10666],[16.9,10749],[16.9,10833],[16.9,10916],[16.9,10999],[16.9,11082],[16.9,11166],[16.9,11249],[16.9,11333],[16.9,11416],[16.9,11499],[16.9,11583],[16.9,11666],[16.9,11750],[16.9,11832],[16.9,11916],[16.9,12000],[16.9,12083],[16.9,12166],[16.9,12250],[16.9,12333],[16.9,12416],[16.9,12499],[16.9,12583],[16.9,12666],[16.9,12750],[16.9,12833],[16.9,12916],[16.9,12999],[16.9,13083],[16.9,13166],[16.9,13249],[16.9,13332],[16.9,13416],[16.9,13499],[16.9,13583],[16.9,13666],[16.9,13750],[16.9,13833],[16.9,13916],[16.9,13999],[16.9,14083],[16.9,14166],[16.9,14250],[16.9,14333],[16.9,14416],[16.9,14499],[16.9,14583],[16.9,14666],[16.9,14750],[16.9,14833],[16.9,14916],[16.9,14999],[16.9,15082],[16.9,15166],[16.9,15249],[16.9,15333],[16.9,15416],[16.9,15499],[16.9,15582],[16.9,15666],[16.9,15749],[16.9,15833],[16.9,15916],[16.9,16000],[16.9,16083],[16.9,16166],[16.9,16250],[16.9,16333],[16.9,16416],[16.9,16499],[16.9,16583],[16.9,16666],[16.9,16749],[16.9,16833],[16.9,16916],[16.9,16999],[16.9,17083],[16.9,17166],[16.9,17249],[16.9,17333],[16.9,17416],[16.9,17499],[16.9,17583],[16.9,17666],[16.9,17749],[16.9,17833],[16.9,17916],[16.9,17999],[16.9,18083],[16.9,18166],[16.9,18249],[16.9,18333],[16.9,18416],[16.9,18499],[16.9,18583],[16.9,18666],[16.9,18749],[16.9,18833],[16.9,18916],[16.9,18999],[16.9,19083],[16.9,19166],[16.9,19250],[16.9,19333],[16.9,19416],[16.9,19499],[16.9,19583],[16.9,19666],[16.9,19750],[16.9,19833],[16.9,19916],[16.9,19999],[16.9,20083],[16.9,20166],[16.9,20250],[16.9,20333],[16.9,20416],[16.9,20499],[16.9,20583],[16.9,20666],[16.9,20750],[16.9,20833],[16.9,20916],[16.9,21000]]",1,0,696.8,697.6668,16.75231793,0.5008,"[{""rating"":16.752317932834117,""responseTime"":0.5008000000119637}]",space,0.3336,,697.6668,Partially,50,697.6679,,,[],,0,7,7,7,1,audio/Narrative7Situation7.wav,audio/Narrative8Situation7.wav,audio/Narrative5Situation7.wav,audio/Narrative6Situation7.wav,5,3,4,5,,,,,,,,,,,,,,,,,,,,,,,,,,,,,,,,,,,,,,,
,,,,,,63d82b2de40f94ceb14816cc,2024-02-08_15h18.39.308,group3.1-3.2-social-tom,2023.2.2,Win32,60.24096386,65c5074098b851296ff0b7ed,65c5446a75e1c9f5133795a5,,,,,,,,,,,,,,,,,,,,,,,,,,,,,697.668,2,audio/Narrative5Situation8.wav,700.6834,,700.6834,709.5169,"[[17.1,1249],[17.5,1333],[17.8,1416],[17.8,1500],[17.8,1583],[17.8,1667],[17.8,1750],[17.8,1833],[17.6,1916],[17.6,1999],[17.6,2083],[17.2,2166],[17.2,2250],[17.2,2333],[17.2,2416],[17.2,2500],[17.2,2583],[17.2,2666],[17.2,2750],[17.2,2834],[17.2,2918],[17.2,3000],[17.2,3083],[17.2,3166],[17.2,3250],[17.2,3333],[17.2,3416],[17.2,3500],[17.2,3583],[17.2,3666],[17.2,3750],[17.2,3833],[17.2,3916],[17.2,3999],[17.2,4083],[17.2,4166],[17.2,4250],[17.2,4333],[17.2,4416],[17.2,4499],[17.2,4583],[17.2,4666],[17.2,4750],[17.2,4833],[17.2,4916],[17.2,5000],[17.2,5083],[17.2,5166],[17.2,5250],[17.2,5333],[17.2,5416],[17.2,5500],[17.2,5583],[17.2,5666],[17.2,5750],[17.2,5833],[17.2,5917],[17.2,6000],[17.2,6083],[17.2,6166],[17.2,6250],[17.2,6333],[17.2,6416],[17.2,6500],[17.2,6583],[17.2,6666],[17.2,6750],[17.2,6833],[17.2,6916],[17.2,7000],[17.2,7083],[17.2,7166],[17.2,7250],[17.2,7334],[17.2,7416],[17.2,7500],[17.2,7583],[17.2,7666],[17.2,7750],[17.2,7833],[17.2,7916],[17.2,8000],[17.2,8083],[17.2,8166],[17.2,8249],[17.2,8333],[17.2,8417],[17.2,8500],[17.2,8583],[17.2,8666],[17.2,8750],[17.2,8833]]",1,0,709.517,711.2335,14.25300853,1.0857,"[{""rating"":14.253008529193096,""responseTime"":1.0856999999880372}]",space,1.1669,,711.2335,Definitely yes,100,711.2349,,,[],,0,8,8,8,1,audio/Narrative7Situation8.wav,audio/Narrative8Situation8.wav,audio/Narrative5Situation8.wav,audio/Narrative6Situation8.wav,2,3,3,5,,,,,,,,,,,,,,,,,,,,,,,,,,,,,,,,,,,,,,,
,,,,,,63d82b2de40f94ceb14816cc,2024-02-08_15h18.39.308,group3.1-3.2-social-tom,2023.2.2,Win32,60.24096386,65c5074098b851296ff0b7ed,65c5446a75e1c9f5133795a5,,,,,,,,,,,,,,,,,,,,,,,,,,,,,711.235,2,audio/Narrative5Situation9.wav,714.2501,,714.2501,753.7841,"[[13.3,2583],[13.8,2666],[13.8,2750],[13.8,2833],[13.8,2916],[13.8,3000],[13.8,3083],[13.8,3166],[13.8,3250],[13.8,3333],[13.8,3416],[13.8,3502],[13.8,3583],[13.8,3666],[13.8,3750],[13.8,3833],[13.8,3916],[13.8,4000],[13.8,4083],[13.8,4166],[13.8,4250],[13.8,4333],[13.8,4416],[13.8,4500],[13.8,4583],[13.8,4666],[13.8,4750],[13.8,4833],[13.8,4916],[13.8,5000],[13.8,5083],[13.8,5166],[13.8,5250],[13.8,5333],[13.8,5416],[13.8,5500],[13.8,5583],[13.8,5666],[13.8,5750],[13.8,5833],[13.8,5916],[13.8,5999],[13.8,6083],[13.8,6166],[13.8,6250],[13.8,6333],[13.8,6416],[13.8,6500],[13.8,6583],[13.8,6666],[13.8,6750],[13.8,6833],[13.8,6916],[13.8,7000],[13.8,7083],[13.8,7166],[13.8,7249],[13.8,7333],[13.8,7416],[13.8,7500],[13.8,7583],[13.8,7667],[13.8,7750],[13.8,7833],[13.8,7916],[13.8,8000],[13.8,8083],[13.8,8166],[13.8,8250],[13.8,8333],[13.8,8416],[13.8,8500],[13.8,8583],[13.8,8666],[13.8,8750],[13.8,8833],[13.8,8916],[13.8,8999],[13.8,9083],[13.8,9166],[13.8,9249],[13.8,9333],[13.8,9416],[13.8,9500],[13.8,9583],[13.8,9666],[13.8,9750],[13.8,9833],[13.8,9916],[13.8,10000],[13.8,10083],[13.8,10166],[13.8,10249],[13.8,10333],[13.8,10416],[13.8,10500],[13.8,10583],[13.8,10666],[13.8,10749],[13.8,10833],[13.8,10916],[13.8,11000],[13.8,11083],[13.8,11166],[13.8,11250],[13.8,11333],[13.8,11416],[13.8,11499],[13.8,11583],[13.8,11666],[13.8,11750],[13.8,11833],[13.8,11916],[13.8,12000],[13.8,12083],[13.8,12166],[13.8,12250],[13.8,12333],[13.8,12416],[13.8,12500],[13.8,12583],[13.8,12667],[13.8,12750],[13.8,12833],[13.8,12916],[13.8,13000],[13.8,13083],[13.8,13166],[13.8,13250],[13.8,13333],[13.8,13416],[13.8,13500],[13.8,13583],[13.8,13666],[13.8,13750],[13.8,13833],[13.8,13916],[13.8,14000],[13.8,14083],[13.8,14166],[13.8,14250],[13.8,14333],[13.8,14416],[13.8,14500],[13.8,14583],[13.8,14666],[13.8,14749],[13.8,14833],[13.8,14916],[13.8,15000],[13.8,15083],[13.8,15166],[13.8,15250],[13.8,15333],[13.8,15416],[13.8,15500],[13.8,15583],[13.8,15667],[13.8,15750],[13.8,15833],[13.8,15916],[13.8,16000],[13.8,16083],[13.8,16166],[13.8,16250],[13.8,16333],[13.8,16416],[13.8,16500],[13.8,16583],[13.8,16667],[13.8,16750],[13.8,16833],[13.8,16916],[13.8,17000],[13.8,17083],[13.8,17166],[13.8,17250],[13.8,17333],[13.8,17416],[13.8,17499],[13.8,17583],[13.8,17666],[13.8,17750],[13.8,17833],[13.8,17916],[13.8,17999],[13.8,18083],[13.8,18166],[13.8,18250],[13.8,18333],[13.8,18416],[13.8,18500],[13.8,18583],[13.8,18666],[13.8,18750],[13.8,18833],[13.8,18916],[13.8,19000],[13.8,19083],[13.8,19166],[13.8,19250],[13.8,19333],[13.8,19416],[13.8,19500],[13.8,19583],[13.8,19667],[13.8,19749],[13.8,19833],[13.8,19916],[13.8,20000],[13.8,20083],[13.8,20166],[13.8,20250],[13.8,20336],[13.8,20416],[13.8,20500],[13.8,20583],[13.8,20666],[13.8,20749],[13.8,20833],[13.8,20917],[13.8,21000],[13.8,21083],[13.8,21166],[13.8,21250],[13.8,21333],[13.8,21416],[13.8,21499],[13.8,21583],[13.8,21666],[13.8,21750],[13.8,21833],[13.8,21916],[13.8,22000],[13.8,22083],[13.8,22166],[13.8,22250],[13.8,22333],[13.8,22417],[13.8,22500],[13.8,22583],[13.8,22667],[13.8,22750],[13.8,22833],[13.8,22916],[13.8,23000],[13.8,23083],[13.8,23166],[13.8,23250],[13.8,23334],[13.8,23417],[13.8,23500],[13.8,23583],[13.8,23666],[13.8,23750],[13.8,23833],[13.8,23917],[13.8,24000],[13.8,24083],[13.8,24166],[13.8,24250],[13.8,24333],[13.8,24416],[13.8,24500],[13.8,24583],[13.8,24666],[13.8,24750],[13.8,24833],[13.8,24917],[14.4,25000],[17.5,25083],[20.4,25166],[29.4,25250],[37.7,25333],[42.6,25416],[49.5,25500],[54.7,25583],[56.4,25666],[56.4,25750],[57.6,25833],[59.7,25916],[59.7,26000],[59.7,26083],[59.7,26166],[59.7,26250],[59.7,26333],[59.7,26417],[59.7,26500],[59.7,26583],[59.7,26666],[59.7,26750],[59.7,26833],[59.7,26916],[59.7,27000],[59.7,27083],[59.7,27166],[59.7,27250],[59.4,27333],[59.2,27416],[58.9,27500],[58.9,27583],[58.8,27666],[58.7,27750],[58.7,27833],[58.3,27916],[58.2,28000],[58.2,28083],[58,28166],[58,28250],[58,28333],[58,28416],[58,28500],[58,28583],[58,28666],[58,28750],[58,28833],[58,28916],[58,29000],[58,29083],[58,29166],[58,29250],[58,29333],[58,29417],[58,29500],[58,29583],[58,29666],[58,29749],[58,29833],[58,29916],[58,30000],[58,30083],[57.8,30166],[57.8,30250],[57.8,30333],[57.8,30416],[57.8,30500],[57.8,30584],[57.8,30667],[57.8,30750],[57.8,30833],[57.8,30916],[57.8,31000],[57.8,31083],[57.8,31166],[57.8,31250],[57.8,31333],[57.8,31416],[57.8,31500],[57.8,31583],[57.8,31666],[57.8,31750],[57.8,31833],[57.8,31916],[57.8,32000],[57.8,32083],[57.8,32167],[57.8,32250],[57.8,32333],[57.8,32416],[57.8,32500],[57.8,32583],[57.8,32666],[57.8,32750],[57.8,32833],[57.8,32916],[58.2,33000],[58.4,33083],[58.4,33167],[58.4,33250],[58.4,33333],[58.4,33416],[58.4,33500],[58.4,33583],[58.4,33667],[58.4,33750],[58.4,33833],[58.8,33916],[58.8,34000],[58.8,34083],[58.8,34167],[58.8,34250],[58.8,34333],[58.8,34416],[58.8,34500],[58.8,34583],[58.8,34666],[58.8,34753],[58.8,34833],[58.8,34917],[58.8,35000],[58.8,35083],[58.8,35166],[58.8,35250],[58.8,35333],[58.8,35416],[58.8,35499],[58.8,35583],[58.8,35667],[58.8,35750],[58.8,35833],[58.8,35916],[58.8,36000],[58.8,36083],[58.8,36166],[58.8,36250],[58.8,36333],[58.8,36416],[58.8,36500],[58.8,36583],[58.8,36666],[58.8,36750],[58.8,36833],[58.8,36916],[58.8,37000],[58.8,37083],[58.8,37166],[58.8,37250],[58.8,37333],[58.8,37416],[58.8,37500],[58.8,37583],[58.8,37666],[58.8,37750],[58.8,37834],[58.8,37916],[58.8,38000],[58.8,38083],[58.8,38167],[58.8,38250],[58.8,38333],[58.8,38417],[58.8,38500],[58.8,38583],[58.8,38666],[58.8,38750],[58.8,38834],[58.8,38916],[58.8,39000],[58.8,39083],[58.8,39166],[59,39250],[59.1,39333],[59.2,39416],[59.3,39500]]",1,0,753.7841,756.4673,65.95742242,2.2425,"[{""rating"":59.240532445795836,""responseTime"":0.5040000000000191},{""rating"":65.95742241906896,""responseTime"":2.24249999999995}]",space,2.1376,,756.4673,Definitely yes,100,756.468,,,[],,0,9,9,9,1,audio/Narrative7Situation9.wav,audio/Narrative8Situation9.wav,audio/Narrative5Situation9.wav,audio/Narrative6Situation9.wav,2,3,3,4,,,,,,,,,,,,,,,,,,,,,,,,,,,,,,,,,,,,,,,
,,,,,,63d82b2de40f94ceb14816cc,2024-02-08_15h18.39.308,group3.1-3.2-social-tom,2023.2.2,Win32,60.24096386,65c5074098b851296ff0b7ed,65c5446a75e1c9f5133795a5,,,,,,,,,,,,,,,,,,,,,,,,,,,,,756.4681,2,audio/Narrative6Situation1.wav,758.4838,,758.4838,785.0674,"[[62.7,1333],[58.2,1416],[55.2,1499],[51.2,1583],[49.3,1666],[49.3,1749],[49.3,1833],[49.3,1916],[49.3,1999],[49.3,2083],[49.3,2166],[49.3,2250],[49.3,2333],[49.3,2416],[49.3,2500],[49.3,2582],[49.3,2666],[49.3,2750],[49.3,2833],[49.3,2916],[49.3,2999],[49.3,3083],[49.3,3167],[49.3,3251],[49.3,3333],[49.3,3417],[49.3,3499],[49.3,3583],[49.3,3666],[49.3,3750],[49.3,3833],[49.3,3916],[49.3,4000],[49.3,4083],[49.3,4166],[49.3,4249],[49.3,4333],[49.3,4416],[49.3,4500],[49.3,4583],[49.3,4666],[49.3,4749],[49.3,4833],[49.3,4916],[49.3,5000],[49.3,5082],[49.3,5166],[49.3,5249],[49.3,5333],[49.3,5416],[49.3,5500],[49.3,5583],[49.3,5666],[49.3,5750],[49.3,5833],[49.3,5916],[49.3,6000],[49.3,6083],[49.3,6166],[49.3,6249],[49.3,6333],[49.3,6416],[49.3,6499],[49.3,6583],[49.3,6666],[49.3,6750],[49.3,6833],[49.3,6916],[49.3,7000],[49.3,7083],[49.3,7166],[49.3,7250],[49.3,7333],[49.3,7416],[49.3,7499],[49.3,7583],[49.3,7666],[49.3,7749],[49.3,7833],[49.3,7916],[49.3,8000],[49.3,8082],[49.3,8166],[49.3,8249],[49.3,8333],[49.3,8416],[49.3,8500],[49.3,8582],[49.3,8666],[49.3,8749],[49.3,8833],[49.3,8916],[49.3,9000],[49.3,9083],[49.3,9166],[49.3,9250],[49.3,9333],[49.3,9416],[49.3,9499],[49.3,9583],[49.3,9666],[49.3,9749],[49.3,9833],[49.3,9916],[49.3,10000],[49.3,10083],[49.3,10166],[49.3,10249],[49.3,10332],[49.3,10416],[49.3,10500],[49.3,10583],[49.3,10667],[49.3,10750],[49.3,10833],[49.3,10916],[49.3,11000],[49.3,11083],[49.3,11166],[49.3,11250],[49.3,11333],[49.3,11416],[49.3,11499],[49.3,11583],[49.3,11666],[49.3,11750],[49.3,11833],[49.3,11916],[49.3,12000],[49.3,12083],[49.3,12166],[49.3,12250],[49.3,12333],[49.3,12416],[49.3,12500],[49.3,12583],[49.3,12666],[49.3,12749],[49.3,12833],[49.3,12916],[49.3,12999],[49.3,13082],[49.3,13166],[49.3,13250],[49.3,13333],[49.3,13416],[49.3,13500],[49.3,13583],[49.3,13666],[49.3,13749],[49.3,13833],[49.3,13916],[49.3,14000],[49.3,14083],[49.3,14166],[49.3,14249],[49.3,14333],[49.3,14416],[49.3,14500],[49.3,14583],[49.3,14666],[49.3,14750],[49.3,14833],[49.3,14916],[49.3,14999],[49.3,15083],[49.3,15166],[49.3,15249],[49.3,15333],[49.3,15416],[49.3,15500],[49.3,15583],[49.3,15666],[49.3,15749],[49.3,15833],[49.3,15916],[49.3,16000],[49.3,16083],[49.3,16166],[49.3,16249],[49.3,16333],[49.3,16416],[49.3,16499],[49.3,16583],[49.3,16666],[49.3,16750],[49.3,16833],[49.3,16916],[49.4,16999],[49.4,17083],[49.4,17167]]",1,0,785.0675,788.6672,37.73608667,2.8545,"[{""rating"":36.069876080214016,""responseTime"":0.73519999998814},{""rating"":27.374373180679378,""responseTime"":1.2834000000060541},{""rating"":37.73608666825426,""responseTime"":2.85450000000003}]",space,3.0772,,788.6672,Partially,50,788.6684,,,[],,0,10,10,10,1,audio/Narrative8Situation1.wav,audio/Narrative7Situation1.wav,audio/Narrative6Situation1.wav,audio/Narrative5Situation1.wav,5,2,2,5,,,,,,,,,,,,,,,,,,,,,,,,,,,,,,,,,,,,,,,
,,,,,,63d82b2de40f94ceb14816cc,2024-02-08_15h18.39.308,group3.1-3.2-social-tom,2023.2.2,Win32,60.24096386,65c5074098b851296ff0b7ed,65c5446a75e1c9f5133795a5,,,,,,,,,,,,,,,,,,,,,,,,,,,,,788.6686,2,audio/Narrative6Situation2.wav,791.6843,,791.6843,820.2007,"[[32.4,1332],[32.3,1416],[32.3,1499],[32.3,1582],[32.3,1666],[32.3,1749],[32.3,1832],[32.3,1916],[32.3,1999],[32.3,2082],[32.3,2166],[32.3,2249],[32.3,2332],[32.3,2416],[32.3,2499],[32.3,2583],[32.3,2666],[32.3,2749],[32.3,2832],[32.3,2916],[32.3,3000],[32.3,3082],[32.3,3166],[32.3,3249],[32.3,3332],[32.3,3416],[32.3,3499],[32.3,3582],[32.3,3666],[32.3,3749],[32.3,3832],[32.3,3916],[32.3,3999],[32.3,4082],[32.3,4166],[32.3,4249],[32.3,4332],[32.3,4416],[32.3,4499],[32.3,4582],[32.3,4666],[32.3,4749],[32.3,4832],[32.3,4916],[32.3,4999],[32.3,5082],[32.3,5166],[32.3,5249],[32.3,5332],[32.3,5416],[32.3,5500],[32.3,5582],[32.3,5666],[32.3,5749],[32.3,5833],[32.3,5916],[32.3,5999],[32.3,6082],[32.3,6166],[32.3,6249],[32.3,6332],[32.3,6416],[32.3,6499],[32.3,6582],[32.3,6666],[32.3,6749],[32.3,6832],[32.3,6916],[32.3,6999],[32.3,7082],[32.3,7166],[32.3,7250],[32.3,7332],[32.3,7416],[32.3,7500],[32.3,7582],[32.3,7666],[32.3,7749],[32.3,7832],[32.3,7916],[32.3,7999],[32.3,8082],[32.3,8166],[32.3,8249],[32.3,8332],[32.3,8416],[32.3,8499],[32.3,8582],[32.3,8666],[32.3,8749],[32.3,8832],[32.3,8916],[32.3,8999],[32.3,9083],[32.3,9166],[32.3,9249],[32.3,9333],[32.3,9416],[32.3,9499],[32.3,9582],[32.3,9666],[32.3,9749],[32.3,9832],[32.3,9916],[32.3,9999],[32.3,10082],[32.3,10166],[32.3,10249],[32.3,10332],[32.3,10416],[32.3,10499],[32.3,10582],[32.3,10666],[32.3,10749],[32.3,10832],[32.3,10916],[32.3,10999],[32.3,11082],[32.3,11166],[32.3,11249],[32.3,11332],[32.3,11416],[32.3,11499],[32.3,11582],[32.3,11666],[32.3,11749],[32.3,11833],[32.3,11916],[32.3,11999],[32.3,12082],[32.3,12166],[32.3,12249],[32.3,12332],[32.3,12416],[32.3,12499],[32.3,12583],[32.3,12666],[32.3,12749],[32.3,12832],[32.3,12916],[32.3,12999],[32.3,13082],[32.3,13166],[32.3,13249],[32.3,13334],[32.3,13416],[32.3,13500],[32.3,13582],[32.3,13666],[32.3,13749],[32.3,13832],[32.3,13916],[32.3,13999],[32.3,14082],[32.3,14165],[32.3,14249],[32.3,14332],[32.3,14416],[32.3,14499],[32.3,14582],[32.3,14666],[32.3,14749],[32.3,14832],[32.3,14916],[32.3,14999],[32.3,15082],[32.3,15166],[32.3,15249],[32.3,15332],[32.3,15416],[32.1,15499],[31.8,15583],[31.8,15666],[31.8,15749],[31.8,15832],[31.8,15916],[31.8,15999],[31.8,16082],[31.8,16166],[31.8,16249],[31.8,16332],[31.8,16416],[31.8,16499],[31.8,16583],[31.8,16666],[31.8,16750],[31.8,16832],[31.8,16915],[31.8,17000],[31.8,17082],[31.8,17166],[31.8,17249],[31.8,17332],[31.8,17416],[31.8,17499],[31.8,17583],[31.8,17666],[31.8,17749],[31.8,17832],[31.8,17916],[31.8,17999],[31.8,18082],[31.8,18166],[31.8,18249],[31.8,18332],[31.8,18416],[31.8,18499],[31.8,18583],[31.8,18666],[31.8,18749],[31.8,18832],[31.8,18916],[31.8,18999],[31.8,19082],[31.8,19166],[31.8,19250],[31.8,19332],[31.8,19416],[31.8,19499],[31.8,19582],[31.8,19666],[31.8,19749],[31.8,19832],[31.8,19915],[31.8,20000],[31.8,20083],[31.8,20166],[31.8,20249],[31.8,20332],[31.8,20416],[31.8,20500],[31.8,20583],[31.8,20666],[31.8,20749],[31.8,20833],[31.8,20916],[31.8,20999],[31.8,21082],[32.3,21166],[32.9,21249],[33.6,21332],[34.3,21416],[44.8,21499],[52.3,21582],[54.8,21666],[55.2,21749],[55.2,21832],[55.2,21916],[55.5,21999],[55.9,22082],[56.7,22165],[56.7,22249],[56.7,22332],[56.7,22416],[56.7,22499],[56.7,22582],[56.7,22666],[56.7,22749],[56.7,22832],[56.7,22916],[57.1,22999],[57.9,23083],[58.3,23166],[58.5,23249],[58.8,23333],[58.8,23416],[58.8,23499],[58.8,23582],[58.8,23666],[58.8,23749],[58.8,23832],[58.8,23916],[58.8,24000],[58.8,24082],[58.8,24166],[58.8,24249],[58.8,24334],[58.8,24416],[58.8,24499],[58.8,24582],[58.8,24665],[58.8,24749],[58.8,24832],[58.8,24916],[58.8,24999],[58.8,25082],[58.8,25166],[58.8,25249],[58.8,25333],[58.8,25416],[58.8,25499],[58.8,25582],[58.8,25666],[58.8,25749],[58.8,25832],[58.8,25916],[58.8,25999],[58.8,26082],[58.8,26166],[58.8,26249],[58.8,26332],[58.8,26416],[58.8,26499],[58.8,26582],[58.8,26666],[58.8,26749],[58.8,26832],[58.8,26916],[58.8,26999],[58.8,27083],[58.8,27166],[58.8,27249],[58.8,27333],[58.8,27416],[58.8,27499],[58.8,27582],[58.8,27666],[58.8,27749],[58.8,27832],[58.8,27915],[58.8,28000],[58.8,28082],[58.8,28166],[58.8,28249],[58.8,28333],[58.8,28416],[59,28499]]",1,0,820.2008,821.6177,61.32329244,1.0418,"[{""rating"":61.323292441636504,""responseTime"":1.0417999999821177}]",space,0.8696,,821.6177,Partially,50,821.6185,,,[],,0,11,11,11,1,audio/Narrative8Situation2.wav,audio/Narrative7Situation2.wav,audio/Narrative6Situation2.wav,audio/Narrative5Situation2.wav,3,3,3,3,,,,,,,,,,,,,,,,,,,,,,,,,,,,,,,,,,,,,,,
,,,,,,63d82b2de40f94ceb14816cc,2024-02-08_15h18.39.308,group3.1-3.2-social-tom,2023.2.2,Win32,60.24096386,65c5074098b851296ff0b7ed,65c5446a75e1c9f5133795a5,,,,,,,,,,,,,,,,,,,,,,,,,,,,,821.6185,2,audio/Narrative6Situation3.wav,826.6338,,826.6338,839.2341,"[[55.6,3750],[55.6,3833],[55.6,3916],[55.6,4000],[55.6,4083],[55.6,4166],[55.6,4250],[55.6,4334],[55.3,4416],[55.3,4499],[55.3,4583],[55.3,4666],[55.3,4750],[55.3,4833],[55.3,4916],[55.3,5000],[55.3,5083],[55.3,5166],[55.3,5250],[55.3,5333],[55.3,5417],[55.3,5500],[55.3,5583],[55.3,5666],[55.3,5750],[55.3,5839],[55.3,5916],[55.3,6000],[55.3,6083],[55.3,6166],[55.3,6250],[55.3,6333],[55.3,6416],[55.3,6500],[55.3,6583],[55.3,6666],[55.3,6750],[55.3,6834],[55.3,6917],[55.3,7000],[55.3,7083],[55.3,7167],[55.3,7250],[55.3,7334],[55.3,7416],[55.3,7501],[55.3,7583],[55.3,7666],[55.3,7750],[55.3,7833],[55.3,7916],[55.3,8000],[55.3,8083],[55.3,8167],[55.3,8250],[55.3,8334],[55.3,8416],[55.3,8500],[55.3,8583],[55.3,8666],[55.3,8750],[55.3,8833],[55.3,8916],[55.3,9000],[55.3,9083],[55.3,9166],[55.3,9250],[55.3,9333],[55.3,9416],[55.3,9500],[55.3,9583],[55.3,9666],[55.3,9750],[55.3,9833],[55.9,9917],[58.5,10000],[59,10083],[59,10167],[59,10250],[59,10333],[59,10416],[59,10500],[59,10583],[59,10667],[59,10750],[59,10833],[59,10916],[59,11000],[59,11083],[59,11167],[59,11250],[59,11333],[59,11417],[59,11500],[59,11583],[59,11666],[59,11750],[59,11833],[59,11916],[59,12000],[59,12083],[59,12166],[59,12249],[59,12335],[59,12416],[59,12500],[59,12583]]",1,0,839.2341,841.0508,42.68262546,1.2004,"[{""rating"":42.68262546232736,""responseTime"":1.2004000000059705}]",space,1.2759,,841.0508,Definitely yes,100,841.052,,,[],,0,12,12,12,1,audio/Narrative8Situation3.wav,audio/Narrative7Situation3.wav,audio/Narrative6Situation3.wav,audio/Narrative5Situation3.wav,4,8,5,3,,,,,,,,,,,,,,,,,,,,,,,,,,,,,,,,,,,,,,,
,,,,,,63d82b2de40f94ceb14816cc,2024-02-08_15h18.39.308,group3.1-3.2-social-tom,2023.2.2,Win32,60.24096386,65c5074098b851296ff0b7ed,65c5446a75e1c9f5133795a5,,,,,,,,,,,,,,,,,,,,,,,,,,,,,841.0522,2,audio/Narrative6Situation4.wav,843.0673,,843.0673,855.6843,"[[42.4,1666],[43.4,1749],[43.4,1833],[43.4,1916],[43.4,2000],[43.4,2083],[43.1,2166],[42.7,2250],[42.7,2333],[42.2,2416],[41.2,2500],[41.2,2583],[41.2,2666],[41.2,2750],[41.2,2833],[41.2,2916],[41.2,3000],[41.2,3083],[41.2,3166],[41.2,3250],[41.2,3333],[41.2,3416],[41.2,3500],[41.2,3583],[41.2,3666],[41.2,3750],[41.2,3833],[41.2,3916],[41.2,4000],[41.2,4083],[41.2,4166],[41.2,4250],[41.2,4333],[41.2,4416],[41.2,4500],[41.2,4583],[41.2,4666],[41.2,4750],[41.2,4833],[41.2,4916],[41.2,5000],[41.2,5083],[41.2,5166],[41.2,5250],[41.2,5333],[41.2,5416],[41.2,5499],[41.2,5583],[41.2,5667],[41.2,5749],[41.2,5833],[41.2,5916],[41.2,5999],[41.2,6083],[41.2,6167],[41.2,6250],[41.2,6333],[41.2,6416],[41.2,6500],[41.2,6583],[41.2,6666],[41.2,6750],[41.2,6833],[41.2,6917],[41.2,7000],[41.2,7083],[41.2,7167],[41.2,7249],[41.2,7333],[41.2,7416],[41.2,7500],[41.2,7583],[41.2,7666],[41.2,7750],[41.2,7833],[41.2,7916],[41.2,8000],[41.2,8083],[41.2,8166],[41.2,8250],[41.2,8333],[41.2,8416],[41.2,8500],[41.2,8583],[41.2,8667],[41.2,8750],[41.2,8833],[41.2,8916],[41.2,9000],[41.2,9083],[41.2,9166],[41.2,9250],[41.2,9333],[41.2,9416],[41.2,9500],[41.2,9583],[41.2,9666],[41.2,9749],[41.2,9833],[41.2,9916],[41.2,10000],[41.2,10083],[41.2,10167],[41.2,10250],[41.2,10333],[41.2,10416],[41.2,10499],[41.2,10583],[41.2,10666],[41.2,10750],[41.2,10833],[41.2,10916],[41.2,11000],[41.2,11083],[41.2,11166],[41.2,11250],[41.2,11333],[41.2,11416],[41.2,11500],[41.2,11584],[41.2,11666],[41.2,11750],[41.2,11833],[41.2,11916],[41.2,12000],[41.2,12083],[41.2,12166],[41.2,12250],[41.2,12333],[41.2,12416],[41.2,12500],[41.2,12583]]",1,0,855.6844,858.5174,44.19262192,2.0384,"[{""rating"":44.19262192441827,""responseTime"":2.03839999997615}]",space,2.2924,,858.5174,Partially,50,858.5186,,,[],,0,13,13,13,1,audio/Narrative8Situation4.wav,audio/Narrative7Situation4.wav,audio/Narrative6Situation4.wav,audio/Narrative5Situation4.wav,3,3,2,1,,,,,,,,,,,,,,,,,,,,,,,,,,,,,,,,,,,,,,,
,,,,,,63d82b2de40f94ceb14816cc,2024-02-08_15h18.39.308,group3.1-3.2-social-tom,2023.2.2,Win32,60.24096386,65c5074098b851296ff0b7ed,65c5446a75e1c9f5133795a5,,,,,,,,,,,,,,,,,,,,,,,,,,,,,858.5187,2,audio/Narrative6Situation5.wav,860.5339,,860.5339,868.4848,"[[37.4,83],[37.2,167],[37.2,249],[37.2,333],[37.2,416],[37.2,500],[37.2,583],[37.2,666],[37.2,750],[37.2,833],[37.2,916],[37.2,1000],[37.2,1083],[37.2,1166],[37.2,1250],[37.2,1333],[37.2,1416],[37.2,1500],[37.2,1583],[37.2,1666],[37.2,1750],[37.2,1833],[37.2,1916],[37.2,2000],[37.2,2083],[37.2,2166],[37.2,2251],[37.2,2333],[37.2,2416],[37.2,2500],[37.2,2583],[37.2,2667],[37.2,2750],[37.2,2833],[37.2,2917],[37.2,3000],[37.2,3083],[37.2,3166],[37.2,3250],[37.2,3333],[37.2,3416],[37.2,3500],[37.2,3583],[37.2,3666],[37.2,3750],[37.2,3833],[37.2,3916],[37.2,4000],[37.2,4083],[37.2,4166],[37.2,4250],[37.2,4333],[37.2,4417],[37.2,4500],[37.2,4583],[37.2,4666],[37.2,4750],[37.2,4833],[37.2,4917],[37.2,5000],[37.2,5083],[37.2,5167],[37.2,5250],[37.2,5333],[37.2,5417],[37.2,5500],[37.2,5583],[37.2,5667],[37.2,5750],[37.2,5833],[37.2,5916],[37.2,6000],[37.2,6084],[37.2,6166],[37.2,6250],[37.2,6333],[37.2,6417],[37.2,6500],[37.2,6583],[37.2,6666],[37.2,6750],[37.2,6833],[37.2,6916],[37.2,7000],[37.2,7083],[37.2,7167],[37.2,7249],[37.2,7333],[37.2,7416],[37.2,7500],[37.2,7583],[37.2,7666],[37.2,7750],[37.2,7833],[37.2,7917]]",1,0,868.4849,871.334,33.88298845,2.5333,"[{""rating"":37.78814724620511,""responseTime"":1.2328999999762118},{""rating"":37.16332961292389,""responseTime"":1.8213999999761654},{""rating"":33.88298845005232,""responseTime"":2.533299999982205}]",space,2.3108,,871.3341,Not at all,0,871.3353,,,[],,0,14,14,14,1,audio/Narrative8Situation5.wav,audio/Narrative7Situation5.wav,audio/Narrative6Situation5.wav,audio/Narrative5Situation5.wav,2,5,2,5,,,,,,,,,,,,,,,,,,,,,,,,,,,,,,,,,,,,,,,
,,,,,,63d82b2de40f94ceb14816cc,2024-02-08_15h18.39.308,group3.1-3.2-social-tom,2023.2.2,Win32,60.24096386,65c5074098b851296ff0b7ed,65c5446a75e1c9f5133795a5,,,,,,,,,,,,,,,,,,,,,,,,,,,,,871.3354,2,audio/Narrative6Situation6.wav,873.3506,,873.3507,884.4177,"[[34.3,166],[34.5,250],[34.5,333],[34.5,416],[34.5,499],[34.5,583],[34.5,666],[34.5,750],[34.5,833],[34.5,916],[34.7,1000],[34.7,1083],[34.7,1166],[34.7,1250],[34.7,1333],[34.7,1416],[34.7,1500],[34.7,1584],[34.7,1666],[34.7,1751],[34.7,1834],[34.7,1916],[34.7,2000],[34.7,2083],[34.7,2166],[34.7,2250],[34.7,2333],[34.9,2416],[34.9,2500],[34.9,2583],[34.9,2666],[34.9,2750],[34.9,2833],[34.9,2916],[34.9,3000],[34.9,3083],[34.9,3166],[34.9,3250],[34.9,3333],[34.9,3416],[34.9,3500],[34.9,3583],[34.9,3666],[34.9,3750],[34.9,3833],[34.9,3917],[34.9,4000],[34.9,4083],[34.9,4166],[34.9,4250],[34.9,4333],[34.9,4416],[34.9,4500],[34.9,4583],[34.9,4666],[34.9,4750],[34.9,4833],[34.9,4916],[34.9,5000],[34.9,5083],[34.9,5166],[34.9,5250],[34.9,5333],[34.9,5416],[34.9,5500],[34.9,5584],[34.9,5666],[34.9,5750],[34.9,5833],[34.9,5916],[34.9,6000],[34.9,6083],[34.9,6166],[34.9,6249],[34.9,6333],[34.9,6416],[34.9,6500],[34.9,6583],[34.9,6666],[34.9,6750],[34.9,6833],[34.9,6916],[34.9,7000],[34.9,7083],[34.9,7166],[34.9,7250],[34.9,7333],[34.9,7416],[34.9,7500],[34.9,7583],[34.9,7666],[34.9,7750],[34.9,7833],[34.9,7916],[34.9,8000],[34.9,8083],[34.9,8166],[34.9,8250],[34.9,8334],[34.9,8416],[34.9,8500],[34.9,8583],[34.9,8666],[34.9,8750],[34.9,8833],[34.9,8916],[34.9,9000],[34.9,9083],[34.9,9166],[34.9,9250],[34.9,9333],[34.9,9417],[34.9,9500],[34.9,9583],[34.9,9666],[34.9,9750],[34.9,9833],[34.9,9917],[34.9,10000],[34.9,10083],[34.9,10168],[34.9,10250],[34.9,10333],[34.9,10416],[34.9,10500],[34.9,10583],[34.9,10666],[34.9,10750],[34.9,10833],[34.9,10916],[34.9,11000]]",1,0,884.4178,887.6842,41.27676311,2.4668,"[{""rating"":41.27676311297687,""responseTime"":2.466800000011858}]",space,2.7179,,887.6843,Not at all,0,887.6849,,,[],,0,15,15,15,1,audio/Narrative8Situation6.wav,audio/Narrative7Situation6.wav,audio/Narrative6Situation6.wav,audio/Narrative5Situation6.wav,2,3,2,3,,,,,,,,,,,,,,,,,,,,,,,,,,,,,,,,,,,,,,,
