exp_question,consent.started,consent.stopped,consentResponse.keys,consentResponse.rt,consentResponse.duration,participantID,date,expName,psychopyVersion,OS,frameRate,STUDY_ID,SESSION_ID,opening1.started,opening1.stopped,keyEndingOpening1.keys,keyEndingOpening1.rt,keyEndingOpening1.duration,volumeAdjust.started,volumeAdjust.stopped,endingAdjust.keys,endingAdjust.rt,endingAdjust.duration,opening2.started,opening2.stopped,keyEndingOpening.keys,keyEndingOpening.rt,keyEndingOpening.duration,mouse.x,mouse.y,mouse.leftButton,mouse.midButton,mouse.rightButton,mouse.time,instructionLoop.thisRepN,instructionLoop.thisTrialN,instructionLoop.thisN,instructionLoop.thisIndex,instructionLoop.ran,readyForAudio.started,readyForAudio.stopped,fixation.started,run,audio_played,fixation.stopped,endPractice.keys,audioPre.started,audioPre.stopped,continuousResponses_audio,continuousSlider.response,continuousSlider.rt,intRating.started,intRating.stopped,intQuestionSlider.response,intQuestionSlider.rt,intQuestionSlider.history,confirmResponse.keys,confirmResponse.rt,confirmResponse.duration,catchQuestion.started,catch_label,catch_value,catchQuestion.stopped,catchQuestionSlider.response,catchQuestionSlider.rt,catchQuestionSlider.history,confirmResponse_2.keys,audioRunLoop.thisRepN,audioRunLoop.thisTrialN,audioRunLoop.thisN,audioRunLoop.thisIndex,audioRunLoop.ran,conditions1_1,conditions2_1,conditions1_2,conditions2_2,dur1_1,dur2_1,dur1_2,dur2_2,endPractice.rt,endPractice.duration,confirmResponse_2.rt,confirmResponse_2.duration,runIntervalBreak.started,runIntervalBreak.stopped,endingBreakKey.keys,endingBreakKey.rt,endingBreakKey.duration,connection.started,connection.stopped,connectionEnding.keys,connectionEnding.rt,connectionEnding.duration,readyForText.started,readyForText.stopped,textPre.started,run_dup,textPre.stopped,continuousResponses_text,textRunLoop.thisRepN,textRunLoop.thisTrialN,textRunLoop.thisN,textRunLoop.thisIndex,textRunLoop.ran,text1_1,text1_2,text2_1,text2_2,runBreakText.started,runBreakText.stopped,endingBreakKey_2.keys,endingBreakKey_2.rt,endingBreakKey_2.duration,ending.started,ending.stopped,endingEnding.keys,endingEnding.rt,endingEnding.duration
social,0.0003,20.5226,y,20.2138,,63d9f41910c61f3eb102079f,2024-02-08_15h31.40.251,group3.1-3.2-social-tom,2023.2.2,Win32,163.9344262,65c5074098b851296ff0b7ed,65c542a934a2d1565b94f178,,,,,,,,,,,,,,,,,,,,,,,,,,,,,,,,,,,,,,,,,,,,,,,,,,,,,,,,,,,,,,,,,,,,,,,,,,,,,,,,,,,,,,,,,,,,,,,,,,,,,,,,,,
,,,,,,63d9f41910c61f3eb102079f,2024-02-08_15h31.40.251,group3.1-3.2-social-tom,2023.2.2,Win32,163.9344262,65c5074098b851296ff0b7ed,65c542a934a2d1565b94f178,20.5228,28.328,space,7.7817,,,,,,,,,,,,,,,,,,,,,,,,,,,,,,,,,,,,,,,,,,,,,,,,,,,,,,,,,,,,,,,,,,,,,,,,,,,,,,,,,,,,,,,,,,,,,,,,,,,,,,
,,,,,,63d9f41910c61f3eb102079f,2024-02-08_15h31.40.251,group3.1-3.2-social-tom,2023.2.2,Win32,163.9344262,65c5074098b851296ff0b7ed,65c542a934a2d1565b94f178,,,,,,28.3282,44.3101,space,15.6675,,,,,,,,,,,,,,,,,,,,,,,,,,,,,,,,,,,,,,,,,,,,,,,,,,,,,,,,,,,,,,,,,,,,,,,,,,,,,,,,,,,,,,,,,,,,,,,,,
,,,,,,63d9f41910c61f3eb102079f,2024-02-08_15h31.40.251,group3.1-3.2-social-tom,2023.2.2,Win32,163.9344262,65c5074098b851296ff0b7ed,65c542a934a2d1565b94f178,,,,,,,,,,,44.3193,59.1947,space,14.8637,,[],[],[],[],[],[],0,0,0,0,1,,,,,,,,,,,,,,,,,,,,,,,,,,,,,,,,,,,,,,,,,,,,,,,,,,,,,,,,,,,,,,,,,,,,,,,,,,,,,,,,
,,,,,,63d9f41910c61f3eb102079f,2024-02-08_15h31.40.251,group3.1-3.2-social-tom,2023.2.2,Win32,163.9344262,65c5074098b851296ff0b7ed,65c542a934a2d1565b94f178,,,,,,,,,,,59.2008,95.7312,space,36.4757,,[],[],[],[],[],[],1,0,1,0,1,,,,,,,,,,,,,,,,,,,,,,,,,,,,,,,,,,,,,,,,,,,,,,,,,,,,,,,,,,,,,,,,,,,,,,,,,,,,,,,,
,,,,,,63d9f41910c61f3eb102079f,2024-02-08_15h31.40.251,group3.1-3.2-social-tom,2023.2.2,Win32,163.9344262,65c5074098b851296ff0b7ed,65c542a934a2d1565b94f178,,,,,,,,,,,95.7364,126.2232,space,30.4642,,[],[],[],[],[],[],2,0,2,0,1,,,,,,,,,,,,,,,,,,,,,,,,,,,,,,,,,,,,,,,,,,,,,,,,,,,,,,,,,,,,,,,,,,,,,,,,,,,,,,,,
,,,,,,63d9f41910c61f3eb102079f,2024-02-08_15h31.40.251,group3.1-3.2-social-tom,2023.2.2,Win32,163.9344262,65c5074098b851296ff0b7ed,65c542a934a2d1565b94f178,,,,,,,,,,,126.2293,185.2402,space,58.9991,0,[],[],[],[],[],[],3,0,3,0,1,,,,,,,,,,,,,,,,,,,,,,,,,,,,,,,,,,,,,,,,,,,,,,,,,,,,,,,,,,,,,,,,,,,,,,,,,,,,,,,,
,,,,,,63d9f41910c61f3eb102079f,2024-02-08_15h31.40.251,group3.1-3.2-social-tom,2023.2.2,Win32,163.9344262,65c5074098b851296ff0b7ed,65c542a934a2d1565b94f178,,,,,,,,,,,185.2462,206.5048,space,21.2506,,[],[],[],[],[],[],4,0,4,0,1,,,,,,,,,,,,,,,,,,,,,,,,,,,,,,,,,,,,,,,,,,,,,,,,,,,,,,,,,,,,,,,,,,,,,,,,,,,,,,,,
,,,,,,63d9f41910c61f3eb102079f,2024-02-08_15h31.40.251,group3.1-3.2-social-tom,2023.2.2,Win32,163.9344262,65c5074098b851296ff0b7ed,65c542a934a2d1565b94f178,,,,,,,,,,,,,,,,,,,,,,,,,,,206.5117,209.0896,209.1007,1,audio/Narrative13Situation2.wav,211.104,,211.1042,240.8395,"[[49.3,108],[49.3,193],[49.3,278],[49.3,361],[49.3,444],[49.3,533],[49.3,614],[49.3,702],[49.3,783],[49.3,868],[49.3,957],[49.3,1038],[49.3,1126],[49.3,1211],[49.3,1294],[49.3,1381],[49.3,1466],[49.3,1550],[49.3,1636],[49.3,1721],[49.3,1805],[49.3,1890],[49.3,1972],[49.3,2059],[49.3,2143],[49.3,2230],[49.3,2312],[49.3,2397],[49.3,2484],[49.3,2569],[49.3,2654],[49.3,2735],[49.3,2820],[49.3,2904],[49.3,2993],[49.3,3078],[49.3,3160],[49.3,3248],[49.3,3332],[49.3,3417],[49.3,3499],[49.3,3586],[49.3,3669],[49.3,3756],[49.3,3840],[49.3,3922],[49.3,4011],[49.3,4094],[49.3,4181],[49.3,4266],[49.3,4347],[49.3,4435],[49.3,4516],[49.3,4601],[49.3,4686],[49.3,4775],[49.3,4859],[49.3,4940],[49.3,5027],[49.3,5110],[49.3,5195],[49.3,5284],[49.3,5366],[49.3,5454],[49.3,5535],[49.3,5623],[49.3,5708],[49.3,5789],[49.3,5875],[49.3,5963],[49.3,6044],[49.3,6128],[49.3,6214],[49.3,6300],[49.3,6387],[49.3,6468],[49.3,6557],[49.3,6639],[49.3,6726],[49.3,6816],[49.3,6898],[49.3,6983],[49.3,7072],[49.3,7159],[49.3,7248],[49.3,7328],[49.3,7417],[49.3,7498],[49.3,7586],[49.3,7668],[49.3,7756],[49.3,7839],[49.3,7922],[49.3,8007],[49.3,8096],[49.3,8177],[49.3,8262],[49.3,8348],[49.7,8440],[51.8,8527],[54,8611],[56.9,8696],[59.2,8781],[65.3,8866],[75.1,8951],[87.2,9036],[96.7,9121],[100,17617],[100,17699],[97.5,17787],[93.7,17872],[85.4,17957],[71,18047],[55.9,18132],[42.9,18217],[35.9,18302],[6.2,18977],[7,19061],[4.9,19146],[1.4,19231],[8.8,23304],[22.1,23389],[34,23474],[40.6,23558],[45.8,23643],[49.5,23728],[51.9,23813],[51.9,23898],[51.9,23983],[51.9,24068],[51.9,24153],[51.8,24237],[51.4,24322],[51.1,24407],[50.9,24492],[50.9,24577],[50.9,24662],[50.9,24747],[50.9,24831],[50.9,24916],[50.9,25001],[50.9,25086],[50.9,25171],[50.9,25255],[50.9,25340],[50.9,25425],[50.9,25510],[50.9,25595],[50.9,25680],[50.9,25764],[50.9,25849],[50.9,25934],[50.9,26019],[50.9,26104],[50.9,26189],[50.9,26274],[50.9,26358],[50.9,26443],[50.9,26528],[50.9,26613],[50.9,26698],[50.9,26782],[50.9,26867],[50.9,26952],[50.9,27037],[50.9,27122],[50.9,27207],[50.9,27292],[50.9,27377],[50.9,27461],[50.9,27546],[50.9,27631],[50.9,27716],[50.9,27801],[50.9,27886],[50.9,27971],[50.9,28055],[50.9,28140],[50.9,28225],[50.9,28310],[50.9,28395],[50.9,28480],[50.9,28565],[50.6,28649],[49.2,28734],[43.7,28819],[34.4,28904],[30,28989],[28.4,29074],[27.9,29158],[27.6,29243],[27.6,29328],[27.6,29413],[27.6,29498],[27.6,29583],[27.6,29668]]",1,0,240.8399,252.1065,50.03904343,9.4855,"[{""rating"":50.03904343247253,""responseTime"":9.485500000000002}]",space,10.7455,,252.1068,Definitely yes,100,252.1095,,,[],,0,0,0,0,1,audio/Narrative13Situation2.wav,audio/Narrative13Situation2.wav,audio/Narrative13Situation2.wav,audio/Narrative13Situation2.wav,2,2,2,2,,,,,,,,,,,,,,,,,,,,,,,,,,,,,,,,,,,,,,,
,,,,,,63d9f41910c61f3eb102079f,2024-02-08_15h31.40.251,group3.1-3.2-social-tom,2023.2.2,Win32,163.9344262,65c5074098b851296ff0b7ed,65c542a934a2d1565b94f178,,,,,,,,,,,,,,,,,,,,,,,,,,,,,252.1096,1,audio/Narrative8Situation1.wav,254.0931,space,254.0932,269.9969,"[[999,1],[999,88],[999,169],[999,254],[999,339],[999,428],[999,513],[999,593],[999,682],[999,763],[999,852],[999,933],[999,1022],[999,1107],[999,1187],[999,1276],[999,1361],[999,1443],[999,1530],[999,1612],[999,1701],[49.6,1786],[49.7,1866],[49.7,1955],[49.7,2036],[49.7,2125],[49.7,2210],[49.7,2290],[49.7,2375],[49.7,2461],[49.7,2545],[49.7,2630],[49.7,2718],[49.7,2799],[49.7,2884],[49.7,2970],[49.7,3055],[49.7,3139],[49.7,3225],[49.7,3308],[49.7,3394],[49.7,3480],[49.7,3567],[49.7,3648],[49.7,3734],[49.7,3817],[49.7,3906],[49.7,3991],[46.9,4076],[41.9,4161],[39.1,4246],[38.4,4331],[38.4,4411],[38.4,4498],[38.4,4585],[38.4,4666],[38.4,4755],[38.4,4840],[36.5,4925],[30.3,5010],[25.6,5094],[24.1,5177],[24.1,5264],[23.7,5349],[6.9,5434],[0.4,6876],[5.1,6961],[5.5,7042],[5.5,7127],[5.5,7216],[5.5,7296],[3,7386],[2.3,7468],[2.3,7551],[2.3,7639],[2.3,7725],[2.3,7806],[2.3,7894],[2.3,7975],[2.3,8060],[2.3,8146],[2.3,8234],[2.3,8319],[2.3,8403],[2.3,8489],[2.3,8573],[2.3,8654],[2.3,8739],[2.3,8825],[2.3,8910],[4.1,8998],[11.9,9082],[31.8,9167],[44.4,9250],[47.7,9337],[51.4,9422],[53.1,9507],[57.6,9589],[64.5,9676],[80.1,9761],[95.3,9846],[100,9931],[100,10015],[100,10100],[100,10185],[100,10267],[100,10351],[100,10440],[100,10520],[100,10605],[100,10694],[100,10775],[100,10864],[100,10946],[100,11034],[100,11115],[100,11199],[100,11288],[100,11369],[100,11454],[100,11539],[100,11623],[100,11710],[100,11795],[100,11882],[100,11963],[100,12053],[100,12136],[100,12217],[100,12307],[100,12387],[100,12476],[100,12561],[100,12643],[100,12727],[100,12811],[100,12897],[100,12985],[100,13070],[100,13151],[100,13239],[100,13322],[100,13409],[100,13490],[100,13575],[100,13663],[100,13745],[100,13829],[100,13915],[100,13999],[100,14084],[100,14173],[100,14259],[100,14338],[100,14423],[100,14513],[100,14593],[100,14678],[100,14767],[100,14848],[100,14932],[100,15017],[100,15106],[100,15191],[100,15272],[100,15360],[100,15446],[100,15526],[100,15615],[100,15700],[100,15784],[100,15867]]",1,0,269.9971,285.9943,100,14.3846,"[{""rating"":78.69973129470102,""responseTime"":8.331499999999949},{""rating"":100,""responseTime"":14.384599999994009}]",space,15.4731,,285.9944,Definitely yes,100,285.9954,,,[],,0,1,1,1,1,audio/Narrative7Situation1.wav,audio/Narrative8Situation1.wav,audio/Narrative5Situation1.wav,audio/Narrative6Situation1.wav,2,5,5,2,1.9728,,,,,,,,,,,,,,,,,,,,,,,,,,,,,,,,,,,,,,
,,,,,,63d9f41910c61f3eb102079f,2024-02-08_15h31.40.251,group3.1-3.2-social-tom,2023.2.2,Win32,163.9344262,65c5074098b851296ff0b7ed,65c542a934a2d1565b94f178,,,,,,,,,,,,,,,,,,,,,,,,,,,,,285.9955,1,audio/Narrative8Situation2.wav,289.0017,,289.0017,299.1108,"[[999,5],[999,90],[999,179],[999,264],[999,345],[999,430],[999,519],[999,604],[50.9,689],[50.9,773],[50.9,855],[50.9,943],[50.9,1024],[50.9,1109],[50.9,1193],[50.9,1282],[50.9,1367],[50.9,1452],[50.9,1534],[50.9,1618],[50.9,1704],[50.9,1788],[50.9,1874],[50.9,1958],[50.9,2043],[50.8,2131],[50.7,2212],[50.7,2296],[50.7,2381],[50.7,2470],[50.7,2555],[50.7,2636],[50.7,2721],[50.7,2809],[50.7,2891],[50.7,2975],[50.7,3064],[50.7,3149],[50.7,3230],[50.7,3315],[50.7,3401],[50.7,3485],[50.7,3569],[50.7,3654],[50.7,3739],[50.7,3823],[50.7,3909],[50.7,3993],[50.7,4082],[50.7,4163],[50.7,4248],[50.7,4336],[50.7,4421],[50.7,4504],[50.7,4587],[50.7,4676],[50.7,4757],[50.7,4842],[50.7,4931],[50.7,5015],[48.8,5100],[40.4,5183],[38.2,5270],[38.2,5351],[38.2,5440],[38.2,5521],[38.2,5608],[38.2,5690],[38.2,5776],[38.2,5861],[38.2,5949],[38.2,6034],[38.2,6114],[38.2,6201],[38.2,6288],[29,6373],[19,6458],[15.3,6543],[10.8,6628],[8.3,6713],[5.6,6798],[2.6,6882],[0.7,6968]]",1,0,299.1111,301.9713,0.370946927,1.9982,"[{""rating"":0.3709469273573629,""responseTime"":1.99819999998806}]",space,2.346,,301.9715,Not at all,0,301.9749,,,[],,0,2,2,2,1,audio/Narrative7Situation2.wav,audio/Narrative8Situation2.wav,audio/Narrative5Situation2.wav,audio/Narrative6Situation2.wav,3,3,3,3,,,,,,,,,,,,,,,,,,,,,,,,,,,,,,,,,,,,,,,
,,,,,,63d9f41910c61f3eb102079f,2024-02-08_15h31.40.251,group3.1-3.2-social-tom,2023.2.2,Win32,163.9344262,65c5074098b851296ff0b7ed,65c542a934a2d1565b94f178,,,,,,,,,,,,,,,,,,,,,,,,,,,,,301.9751,1,audio/Narrative8Situation3.wav,305.9771,,305.9771,328.3431,"[[49.1,6387],[49.1,6472],[49.3,6561],[49.3,6645],[49.4,6731],[49.4,6812],[50.7,6899],[54,6985],[59.4,7070],[62.6,7155],[62.9,7237],[62.9,7325],[62.9,7405],[62.9,7490],[62.9,7575],[62.9,7661],[62.9,7746],[62.9,7829],[62.9,7915],[62.9,8000],[62.9,8084],[62.9,8170],[62.9,8256],[62.9,8343],[62.9,8426],[62.9,8508],[62.9,8598],[62.9,8678],[62.9,8766],[62.9,8852],[63.1,8934],[64,9018],[65.8,9102],[73.6,9191],[92.5,9276],[100,9359],[100,9445],[100,9526],[100,9611],[100,9697],[100,9784],[100,9866],[100,9955],[100,10036],[100,10120],[100,10206],[100,10294],[100,10375],[100,10460],[100,10548],[100,10630],[100,10715],[100,10801],[100,10888],[100,10973],[100,11056],[100,11143],[100,11227],[100,11312],[100,11397],[100,11482],[100,11567],[100,11652],[100,11735],[100,11821],[100,11902],[100,11989],[100,12072],[100,12157],[100,12242],[100,12328],[100,12413],[100,12496],[100,12581],[100,12670],[100,12751],[100,12837],[100,12921],[100,13009],[100,13094],[100,13176],[100,13261],[100,13345],[100,13430],[100,13516],[100,13603],[100,13685],[100,13771],[100,13854],[100,13939],[100,14028],[100,14108],[100,14193],[100,14278],[100,14364],[100,14448],[100,14533],[100,14619],[100,14702],[100,14788],[100,14876],[100,14957],[100,15042],[100,15127],[100,15211],[100,15296],[100,15383],[100,15466],[100,15551],[100,15635],[100,15720],[100,15805],[100,15891],[100,15979],[100,16064],[100,16146],[100,16232],[100,16314],[100,16403],[100,16484],[100,16569],[100,16658],[100,16739],[100,16823],[100,16908],[100,17001],[100,17084],[100,17173],[100,17254],[100,17339],[100,17427],[100,17508],[100,17597],[100,17678],[100,17764],[100,17847],[100,17936],[100,18019],[100,18104],[100,18187],[100,18272],[100,18357],[100,18441],[100,18528],[100,18611],[100,18696],[100,18781],[100,18866],[100,18954],[100,19037],[100,19125],[100,19209],[100,19290],[100,19378],[100,19460],[100,19545],[100,19630],[100,19718],[100,19803],[100,19888],[100,19973],[100,20055],[100,20138],[100,20227],[93.6,20314],[86.5,20399],[80.8,20484],[76.1,20569],[72.6,20658],[70.5,20743],[67.2,20827],[63,20913],[59.1,20996],[55.8,21082],[53.4,21166],[52,21252],[51.1,21337],[50.7,21418],[50.7,21503],[50.7,21591],[50.7,21673],[50.7,21758],[50.7,21841],[50.7,21926],[50.7,22015],[50.7,22096],[50.7,22185],[50.7,22266],[50.7,22355]]",1,0,328.3431,332.9083,99.08239354,3.2776,"[{""rating"":99.08239353972472,""responseTime"":3.277599999994038}]",space,4.0546,,332.9083,Definitely yes,100,332.9109,,,[],,0,3,3,3,1,audio/Narrative7Situation3.wav,audio/Narrative8Situation3.wav,audio/Narrative5Situation3.wav,audio/Narrative6Situation3.wav,8,4,3,5,,,,,,,,,,,,,,,,,,,,,,,,,,,,,,,,,,,,,,,
,,,,,,63d9f41910c61f3eb102079f,2024-02-08_15h31.40.251,group3.1-3.2-social-tom,2023.2.2,Win32,163.9344262,65c5074098b851296ff0b7ed,65c542a934a2d1565b94f178,,,,,,,,,,,,,,,,,,,,,,,,,,,,,332.9114,1,audio/Narrative8Situation4.wav,335.9161,,335.9161,350.0673,"[[51.4,2379],[50,2461],[48.7,2547],[48.7,2629],[48.7,2714],[48.3,2801],[47.8,2884],[47.6,2973],[47.6,3054],[47.6,3139],[47.6,3223],[47.6,3313],[47.6,3394],[47.6,3478],[47.6,3564],[47.7,3649],[48.4,3733],[49.1,3822],[50.3,3906],[52.3,3991],[55.2,4076],[61.3,4161],[71.9,4246],[75.6,4331],[80.2,4416],[87.3,4501],[95.4,4586],[99,4672],[99,4761],[99,4846],[99,4930],[99,5012],[99,5100],[99,5184],[99,5270],[99,5351],[99,5436],[99,5520],[99,5609],[99,5690],[99,5776],[99,5864],[99,5949],[99,6029],[99,6118],[99,6199],[99,6288],[99,6374],[99,6454],[99,6539],[99,6627],[99,6709],[99,6797],[99,6881],[99,6963],[99,7049],[99,7134],[99,7220],[99,7303],[99,7389],[99,7472],[99,7560],[99,7643],[99,7728],[99,7811],[99,7896],[99,7981],[99,8069],[99,8151],[99,8239],[99,8325],[99,8405],[99,8490],[99,8575],[99,8664],[99,8745],[99,8829],[99,8914],[99,9003],[99,9084],[99,9169],[99,9254],[99,9339],[99,9424],[99,9508],[99,9593],[99,9678],[99,9764],[99,9848],[99,9933],[99,10017],[99,10102],[99,10191],[99,10272],[99,10358],[99,10442],[99,10530],[99,10611],[99,10696],[99,10781],[99,10866],[99,10951],[99,11039],[99,11121],[99,11209],[99,11291],[99,11375],[99,11460],[99,11545],[99,11634],[99,11714],[99,11799],[99,11884],[99,11970],[99,12054],[99,12143],[99,12223],[99,12310],[99,12396],[99,12478],[99,12563],[99,12651],[99,12734],[99,12817],[99,12906],[99,12991],[99,13072],[99,13160],[99,13241],[99,13330],[99,13412],[99,13498],[99,13585],[99,13670],[99,13755],[99,13836],[99,13920],[99,14005],[99,14090]]",1,0,350.0675,353.6992,99.62905021,1.6589,"[{""rating"":99.62905021273696,""responseTime"":1.6589000000059855}]",space,3.1216,,353.6993,Not at all,0,353.7017,,,[],,0,4,4,4,1,audio/Narrative7Situation4.wav,audio/Narrative8Situation4.wav,audio/Narrative5Situation4.wav,audio/Narrative6Situation4.wav,3,3,1,2,,,,,,,,,,,,,,,,,,,,,,,,,,,,,,,,,,,,,,,
,,,,,,63d9f41910c61f3eb102079f,2024-02-08_15h31.40.251,group3.1-3.2-social-tom,2023.2.2,Win32,163.9344262,65c5074098b851296ff0b7ed,65c542a934a2d1565b94f178,,,,,,,,,,,,,,,,,,,,,,,,,,,,,353.7018,1,audio/Narrative8Situation5.wav,355.7039,,355.704,363.9377,"[[53.7,3572],[70.6,3657],[85.7,3742],[90.6,3825],[96.5,3912],[100,3997],[100,4082],[100,4162],[100,4249],[100,4336],[100,4421],[100,4505],[100,4591],[100,4673],[100,4760],[100,4843],[100,4930],[100,5011],[100,5098],[100,5185],[100,5270],[100,5354],[100,5435],[100,5520],[100,5605],[100,5690],[100,5779],[100,5859],[100,5948],[100,6029],[100,6118],[100,6200],[100,6284],[100,6368],[100,6454],[100,6539],[100,6623],[100,6709],[100,6797],[100,6881],[100,6965],[100,7051],[100,7136],[100,7218],[100,7302],[100,7391],[100,7472],[100,7557],[100,7641],[100,7726],[100,7812],[100,7896],[100,7985],[100,8066],[100,8150]]",1,0,363.9377,365.449,99.62905021,1.2191,"[{""rating"":99.62905021273696,""responseTime"":1.2190999999940573}]",space,0.9948,,365.4492,Definitely yes,100,365.4512,,,[],,0,5,5,5,1,audio/Narrative7Situation5.wav,audio/Narrative8Situation5.wav,audio/Narrative5Situation5.wav,audio/Narrative6Situation5.wav,5,2,5,2,,,,,,,,,,,,,,,,,,,,,,,,,,,,,,,,,,,,,,,
,,,,,,63d9f41910c61f3eb102079f,2024-02-08_15h31.40.251,group3.1-3.2-social-tom,2023.2.2,Win32,163.9344262,65c5074098b851296ff0b7ed,65c542a934a2d1565b94f178,,,,,,,,,,,,,,,,,,,,,,,,,,,,,365.4514,1,audio/Narrative8Situation6.wav,367.4531,,367.4532,373.903,"[[99.5,3310],[100,3404],[100,3490],[100,3574],[100,3655],[100,3744],[100,3829],[100,3910],[100,3995],[100,4080],[100,4164],[100,4253],[100,4334],[100,4423],[100,4504],[100,4593],[100,4674],[100,4763],[100,4848],[100,4928],[100,5017],[100,5102],[100,5183],[100,5268],[100,5353],[100,5437],[100,5522],[100,5610],[100,5693],[100,5777],[100,5862],[100,5948],[100,6036],[100,6120],[100,6205],[100,6290],[100,6375]]",1,0,373.9032,375.228,100,1.0338,"[{""rating"":100,""responseTime"":1.0337999999821363}]",space,0.8092,,375.2281,Partially,50,389.4992,49.88285683,10.7515,"[{""rating"":49.8828568330068,""responseTime"":10.751500000000021}]",space,0,6,6,6,1,audio/Narrative7Situation6.wav,audio/Narrative8Situation6.wav,audio/Narrative5Situation6.wav,audio/Narrative6Situation6.wav,3,2,3,2,,,13.7546,,,,,,,,,,,,,,,,,,,,,,,,,,,,,,,,,,,,
,,,,,,63d9f41910c61f3eb102079f,2024-02-08_15h31.40.251,group3.1-3.2-social-tom,2023.2.2,Win32,163.9344262,65c5074098b851296ff0b7ed,65c542a934a2d1565b94f178,,,,,,,,,,,,,,,,,,,,,,,,,,,,,389.4994,1,audio/Narrative8Situation7.wav,392.5062,,392.5063,404.5757,"[[49.6,5029],[49.7,5112],[49.8,5196],[49.8,5282],[49.8,5365],[50,5454],[52.4,5539],[57.2,5625],[62.5,5707],[66.7,5794],[67.4,5878],[67.4,5959],[67.4,6046],[67.4,6130],[67.4,6218],[67.4,6303],[67.4,6388],[67.4,6473],[67.4,6554],[67.4,6638],[67.4,6723],[67.4,6809],[67.4,6894],[64,6982],[58.1,7066],[55.8,7152],[54,7236],[50.7,7321],[49,7403],[49,7487],[49,7573],[49,7656],[49,7744],[46.9,7829],[43.6,7914],[42.2,7998],[41.7,8085],[40.8,8170],[38.5,8253],[38.2,8337],[38.2,8424],[38.2,8505],[39.9,8594],[40.5,8679],[41.2,8764],[41.9,8848],[42.2,8933],[42.2,9015],[42.2,9100],[42.2,9184],[41.9,9270],[40.8,9358],[40.1,9439],[39.6,9524],[39.4,9608],[39,9694],[38.9,9782],[38.5,9863],[37.6,9949],[37,10032],[36.9,10121],[36.9,10204],[36.9,10287],[36.9,10376],[36.9,10458],[36.9,10542],[36.9,10626],[36.9,10716],[36.9,10800],[36.9,10884],[36.9,10966],[36.9,11050],[36.9,11136],[36.9,11220],[36.9,11309],[36.9,11393],[34,11478],[25.3,11564],[21.3,11649],[18.7,11733],[3.8,11818],[2.8,11903],[2.8,11984],[2.8,12069]]",1,0,404.5758,413.755,4.275672687,8.2459,"[{""rating"":4.275672686996934,""responseTime"":8.245900000005918}]",space,8.6636,,413.7551,Not at all,0,413.7565,,,[],,0,7,7,7,1,audio/Narrative7Situation7.wav,audio/Narrative8Situation7.wav,audio/Narrative5Situation7.wav,audio/Narrative6Situation7.wav,5,3,4,5,,,,,,,,,,,,,,,,,,,,,,,,,,,,,,,,,,,,,,,
,,,,,,63d9f41910c61f3eb102079f,2024-02-08_15h31.40.251,group3.1-3.2-social-tom,2023.2.2,Win32,163.9344262,65c5074098b851296ff0b7ed,65c542a934a2d1565b94f178,,,,,,,,,,,,,,,,,,,,,,,,,,,,,413.7567,1,audio/Narrative8Situation8.wav,416.7616,,416.7616,429.6036,"[[50.1,10889],[49.8,10974],[50.1,11059],[53.3,11144],[58,11229],[61,11314],[62.2,11397],[65.7,11484],[67.9,11568],[68.7,11650],[71.9,11738],[74.9,11822],[75.6,11908],[75.6,11990],[75.6,12077],[75.6,12160],[75.6,12243],[75.6,12329],[75.6,12413],[75.6,12498],[75.6,12587],[75.6,12668],[75.6,12755],[75.6,12841]]",1,0,429.6036,434.6149,75.49785238,2.084,"[{""rating"":75.49785238242156,""responseTime"":1.0237999999821454},{""rating"":75.49785238242156,""responseTime"":2.084000000000003}]",space,4.4911,,434.6149,Not at all,0,434.6165,,,[],,0,8,8,8,1,audio/Narrative7Situation8.wav,audio/Narrative8Situation8.wav,audio/Narrative5Situation8.wav,audio/Narrative6Situation8.wav,2,3,3,5,,,,,,,,,,,,,,,,,,,,,,,,,,,,,,,,,,,,,,,
,,,,,,63d9f41910c61f3eb102079f,2024-02-08_15h31.40.251,group3.1-3.2-social-tom,2023.2.2,Win32,163.9344262,65c5074098b851296ff0b7ed,65c542a934a2d1565b94f178,,,,,,,,,,,,,,,,,,,,,,,,,,,,,434.6166,1,audio/Narrative8Situation9.wav,437.6179,,437.618,448.9233,"[[51.2,6121],[50.8,6206],[52.2,6294],[59.1,6379],[63.4,6463],[63.4,6544],[63.3,6629],[63.3,6713],[63.1,6798],[61.2,6887],[57,6972],[52.7,7058],[49.3,7140],[48,7227],[45.3,7312],[40.3,7397],[37.6,7482],[37.5,7566],[38.3,7651],[45.8,7736],[52.9,7821],[53.3,7906],[52.7,7991],[43.7,8076],[40.1,8156],[47.9,8245],[62,8330],[59.9,8415],[46.2,8500],[42.6,8584],[45.4,8669],[50.4,8754],[50.4,8835],[50.4,8919],[50.4,9006],[50.4,9089],[50.4,9175],[50.4,9259],[50.4,9347],[50.4,9432],[50.4,9514],[50.4,9598],[50.4,9683],[50.4,9770],[50.4,9853],[50.4,9941],[50.4,10026],[50.4,10111],[50.4,10196],[50.4,10277],[50.4,10362],[50.4,10447],[50.4,10536],[50.4,10620],[50.4,10701],[50.4,10787],[50.4,10871],[50.4,10956],[50.4,11045],[50.4,11126],[50.4,11210],[50.4,11295]]",1,0,448.9234,450.9849,50.42952066,0.5279,"[{""rating"":50.42952065578324,""responseTime"":0.5279000000060137}]",space,1.5455,,450.985,Not at all,0,450.9858,,,[],,0,9,9,9,1,audio/Narrative7Situation9.wav,audio/Narrative8Situation9.wav,audio/Narrative5Situation9.wav,audio/Narrative6Situation9.wav,2,3,3,4,,,,,,,,,,,,,,,,,,,,,,,,,,,,,,,,,,,,,,,
,,,,,,63d9f41910c61f3eb102079f,2024-02-08_15h31.40.251,group3.1-3.2-social-tom,2023.2.2,Win32,163.9344262,65c5074098b851296ff0b7ed,65c542a934a2d1565b94f178,,,,,,,,,,,,,,,,,,,,,,,,,,,,,450.9859,1,audio/Narrative7Situation1.wav,452.9866,,452.9866,508.8521,"[[50.4,3818],[50.1,3907],[49.7,3992],[49.4,4080],[49.3,4173],[49,4254],[47.1,4343],[44.5,4428],[43.8,4509],[43.3,4595],[40.8,4682],[36.2,4767],[31.6,4852],[27.6,4937],[25.8,5022],[25.3,5108],[23.4,5200],[21.3,5288],[19,5374],[16.6,5455],[15.1,5542],[15.1,5624],[15.1,5709],[15.1,5794],[15.1,5879],[15.1,5963],[15.1,6052],[15.1,6136],[15.1,6221],[15.1,6302],[15.1,6387],[15.1,6472],[15.1,6557],[15.1,6642],[15.1,6730],[15.1,6811],[15.1,6897],[15.1,6982],[15.1,7068],[15.1,7152],[15.1,7240],[15.1,7320],[15.1,7405],[15.1,7491],[15.1,7576],[15.1,7663],[15.1,7745],[15.1,7829],[15.1,7914],[15.1,8000],[15.1,8085],[15.1,8173],[15.1,8258],[15.1,8343],[15.1,8425],[15.1,8513],[15.1,8594],[15.1,8682],[15.1,8763],[15.1,8848],[15.1,8936],[15.1,9019],[15.1,9102],[15.1,9191],[15.1,9272],[15.1,9358],[15.1,9445],[15.1,9526],[15.1,9615],[15.1,9700],[15.1,9782],[15.1,9866],[15.1,9955],[15.1,10037],[15.1,10120],[15.1,10206],[15.1,10294],[15.1,10379],[15.1,10460],[15.1,10545],[15.1,10630],[15.1,10718],[15.1,10801],[15.1,10884],[15.1,10969],[15.1,11058],[15.1,11142],[15.1,11226],[15.1,11308],[15.1,11394],[15.1,11478],[15.1,11564],[15.1,11648],[15.1,11736],[15.1,11822],[15.1,11902],[15.1,11987],[15.1,12072],[15.1,12157],[15.1,12242],[15.1,12328],[15.1,12415],[15.1,12498],[14.8,12587],[14.5,12676],[14.5,12757],[14.5,12842],[14.5,12926],[14.5,13014],[14.5,13100],[14.5,13181],[14.5,13270],[14.5,13355],[14.5,13436],[14.3,13525],[13.6,13609],[12.9,13690],[12.5,13779],[12.3,13864],[11.7,13949],[10.8,14033],[9.4,14118],[9.1,14199],[9.1,14285],[8.9,14370],[8,14455],[7,14540],[6.6,14628],[5.1,14712],[3.7,14793],[3.3,14879],[1.2,14967],[0.1,22282],[0.5,22367],[0.6,22449],[0.6,22533],[0.6,22621],[0.6,22703],[0.6,22791],[0.6,22875],[0.6,22958],[0.6,23041],[0.6,23126],[0.6,23211],[0.6,23300],[0.6,23385],[0.6,23470],[0.6,23550],[0.6,23636],[0.6,23721],[0.6,23806],[0.6,23891],[0.6,23979],[0.6,24062],[0.6,24145],[0.6,24229],[0.6,24318],[0.6,24403],[0.6,24484],[0.6,24570],[0.6,24658],[0.6,24742],[0.6,24827],[0.6,24908],[0.6,24994],[0.6,25078],[0.6,25163],[0.6,25252],[0.6,25332],[0.6,25418],[0.6,25503],[0.6,25587],[0.6,25673],[0.6,25757],[0.6,25841],[0.6,25926],[0.6,26015],[0.6,26100],[0.6,26184],[0.6,26269],[0.6,26350],[0.6,26439],[0.6,26524],[0.6,26605],[0.6,26690],[0.6,26776],[0.6,26860],[0.6,26944],[0.6,27033],[0.6,27114],[0.6,27199],[0.6,27284],[0.6,27369],[0.6,27457],[0.6,27539],[0.6,27623],[0.6,27709],[0.6,27793],[0.6,27881],[0.6,27962],[0.6,28047],[0.6,28136],[0.6,28218],[0.6,28303],[0.6,28387],[0.6,28475],[0.6,28556],[0.6,28641],[0.6,28730],[0.6,28815],[0.6,28900],[0.6,28981],[0.6,29066],[0.6,29153],[0.6,29235],[0.6,29323],[0.6,29405],[0.6,29490],[0.6,29579],[0.6,29659],[0.6,29748],[0.6,29833],[0.6,29915],[0.6,30000],[0.6,30088],[0.6,30169],[0.6,30253],[0.6,30340],[0.6,30427],[0.6,30512],[0.6,30597],[0.6,30678],[0.6,30763],[0.6,30847],[0.6,30936],[0.6,31021],[0.6,31102],[0.6,31191],[0.6,31275],[0.6,31357],[0.6,31445],[0.6,31526],[0.6,31611],[0.6,31700],[0.6,31782],[0.6,31867],[0.6,31954],[0.6,32035],[0.6,32124],[0.6,32209],[0.6,32294],[0.6,32375],[0.6,32460],[0.6,32544],[0.6,32629],[0.6,32714],[0.6,32803],[0.6,32885],[0.6,32968],[0.6,33058],[0.6,33138],[0.6,33223],[0.6,33308],[0.6,33395],[0.6,33482],[0.6,33567],[0.6,33652],[0.6,33732],[0.6,33821],[0.6,33902],[0.6,33990],[0.6,34071],[0.6,34160],[0.6,34242],[0.6,34330],[0.6,34411],[0.6,34496],[0.6,34585],[0.6,34667],[0.6,34750],[0.6,34839],[0.6,34920],[0.6,35009],[0.6,35090],[0.6,35174],[0.6,35259],[0.6,35348],[1.1,35435],[1.9,35523],[2,35605],[2,35694],[2,35779],[2,35859],[2,35944],[2,36029],[2,36114],[2,36200],[2.5,36287],[7.9,36373],[14,36457],[19.8,36542],[28,36633],[36.4,36718],[43.7,36804],[47.2,36884],[47.9,36968],[48.9,37053],[49.4,37138],[50.1,37223],[50.1,37308],[50.1,37393],[50.1,37477],[50.1,37562],[52.3,37647],[54,37732],[54.3,37817],[54.3,37902],[54.3,37987],[54.9,38072],[56.2,38157],[56.3,38241],[56.4,38326],[56.4,38411],[56.4,38496],[56.4,38580],[56.4,38665],[56.4,38750],[56.4,38835],[56.4,38920],[56.6,39005],[57.1,39090],[58.2,39175],[59.2,39259],[61.5,39344],[63.9,39429],[63.9,39514],[63.9,39599],[63.9,39683],[63.9,39768],[63.9,39853],[63.2,39938],[63.6,40023],[64.7,40108],[65.3,40192],[65.8,40278],[65.9,40362],[65.9,40447],[65.9,40532],[65.9,40617],[66,40702],[66,40786],[66,40871],[66,40956],[66.1,41042],[66.1,41126],[66.1,41211],[66.1,41296],[66.1,41380],[66.1,41465],[66.1,41550],[66.1,41635],[66.1,41720],[66.1,41805],[66.1,41890],[66.1,41974],[66.1,42059],[66.1,42144],[66.1,42229],[66.1,42314],[66.1,42399],[66.1,42485],[67.3,42569],[70,42653],[73.5,42738],[77.2,42823],[83.6,42908],[92.2,42993],[97.8,43077],[100,43162],[100,43247],[100,43332],[100,43417],[100,43502],[100,43587],[100,43671],[100,43756],[100,43841],[100,43926],[100,44011],[100,44095],[100,44181],[100,44265],[100,44350],[100,44435],[100,44520],[100,44604],[100,44689],[100,44774],[100,44859],[100,44944],[100,45029],[100,45114],[100,45198],[100,45284],[100,45368],[100,45453],[100,45538],[100,45623],[100,45707],[100,45792],[100,45878],[100,45962],[100,46047],[100,46132],[100,46217],[100,46302],[100,46387],[100,46472],[100,46556],[100,46641],[100,46726],[100,46811],[100,46895],[100,46980],[100,47065],[100,47150],[100,47235],[100,47320],[100,47405],[100,47489],[100,47574],[100,47659],[100,47744],[100,47829],[100,47914],[100,47998],[100,48083],[100,48168],[100,48253],[100,48338],[100,48423],[100,48508],[100,48592],[100,48677],[100,48762],[100,48847],[100,48932],[100,49017],[100,49102],[100,49187],[100,49271],[100,49356],[100,49441],[100,49526],[100,49611],[100,49696],[100,49780],[100,49865],[100,49950],[100,50035],[100,50120],[100,50205],[100,50290],[100,50374],[100,50459],[100,50544],[100,50629],[100,50714],[100,50799],[100,50883],[100,50968],[100,51053],[100,51138],[100,51223],[100,51308],[100,51392],[100,51477],[100,51562],[100,51647],[100,51732],[100,51816],[100,51901],[100,51986],[100,52071],[100,52156],[100,52241],[100,52326],[100,52410],[100,52495],[100,52580],[100,52665],[100,52750],[100,52835],[100,52920],[100,53004],[100,53089],[100,53174],[100,53259],[100,53344],[100,53429],[100,53514],[100,53598],[100,53683],[100,53768],[100,53853],[100,53938],[100,54023],[100,54108],[100,54193],[100,54277],[100,54362],[100,54447],[100,54532],[100,54617],[100,54701],[100,54786],[100,54871],[100,54956],[100,55041],[100,55126],[100,55210],[100,55295],[100,55380],[100,55465],[100,55550],[100,55635],[100,55720],[100,55805]]",1,0,508.8522,511.4255,100,2.3134,"[{""rating"":100,""responseTime"":2.313400000005913}]",space,2.0534,,511.4256,Partially,50,511.427,,,[],,0,10,10,10,1,audio/Narrative8Situation1.wav,audio/Narrative7Situation1.wav,audio/Narrative6Situation1.wav,audio/Narrative5Situation1.wav,5,2,2,5,,,,,,,,,,,,,,,,,,,,,,,,,,,,,,,,,,,,,,,
,,,,,,63d9f41910c61f3eb102079f,2024-02-08_15h31.40.251,group3.1-3.2-social-tom,2023.2.2,Win32,163.9344262,65c5074098b851296ff0b7ed,65c542a934a2d1565b94f178,,,,,,,,,,,,,,,,,,,,,,,,,,,,,511.4271,1,audio/Narrative7Situation2.wav,514.4278,,514.4278,521.8823,"[[100,3910],[100,3995],[100,4082],[100,4163],[100,4249],[100,4337],[75.1,4507],[68.6,4592],[64.2,4677],[60.4,4761],[61.1,4846],[71.8,4931],[77,5016],[77.2,5101],[78.2,5185],[86.8,5270],[88.3,5355],[95.3,5440],[100,5525],[100,5609],[100,5692],[100,5776],[100,5860],[100,5949],[100,6033],[100,6118],[100,6203],[100,6284],[100,6369],[100,6454],[100,6542],[100,6626],[100,6709],[100,6794],[100,6883],[100,6966],[100,7059],[100,7142],[100,7227],[100,7311],[100,7393]]",1,0,521.8824,524.171,99.47285646,1.985,"[{""rating"":99.47285646350696,""responseTime"":1.9850000000000136}]",space,1.7717,,524.1711,Definitely yes,100,524.1723,,,[],,0,11,11,11,1,audio/Narrative8Situation2.wav,audio/Narrative7Situation2.wav,audio/Narrative6Situation2.wav,audio/Narrative5Situation2.wav,3,3,3,3,,,,,,,,,,,,,,,,,,,,,,,,,,,,,,,,,,,,,,,
,,,,,,63d9f41910c61f3eb102079f,2024-02-08_15h31.40.251,group3.1-3.2-social-tom,2023.2.2,Win32,163.9344262,65c5074098b851296ff0b7ed,65c542a934a2d1565b94f178,,,,,,,,,,,,,,,,,,,,,,,,,,,,,524.1724,1,audio/Narrative7Situation3.wav,532.1766,,532.1766,541.4118,"[[999,5],[999,87],[999,172],[999,256],[999,346],[999,426],[999,511],[999,600],[999,685],[999,765],[999,851],[999,939],[51.3,1022],[50.7,1110],[50.6,1190],[50.6,1274],[50.6,1364],[50.6,1444],[50.6,1529],[50.6,1614],[50.6,1699],[50.6,1783],[50.6,1868],[50.6,1954],[50.6,2043],[50.6,2123],[50.6,2211],[50.6,2293],[50.6,2378],[50.6,2463],[50.6,2549],[50.6,2632],[50.6,2721],[50.6,2806],[50.6,2886],[50.6,2975],[50.6,3057],[50.6,3142],[50.6,3230],[50.6,3311],[50.6,3400],[50.6,3482],[50.6,3565],[50.6,3650],[50.6,3735],[50.6,3822],[50.6,3905],[50.6,3991],[50.6,4074],[50.6,4159],[50.6,4244],[50.6,4329],[50.6,4417],[50.6,4500],[50.6,4584],[50.6,4668],[50.6,4753],[50.6,4842],[50.6,4923],[50.6,5012],[50.6,5096],[50.6,5177],[50.6,5263],[50.6,5347],[50.6,5433],[49.9,5525],[49.4,5608],[49.4,5693],[49.4,5778],[49.4,5867],[49.4,5948],[49.4,6032],[49.4,6117],[49.4,6202],[49.4,6291],[49.4,6373],[49.4,6460],[49.4,6544],[49.4,6627],[49.4,6715],[49.4,6796],[49.4,6884],[48.3,6970],[41.7,7055],[37.2,7140],[30.7,7225],[25.8,7310],[24.8,7404],[24.8,7490],[24.8,7576],[24.8,7660],[24.8,7743],[24.8,7830],[24.8,7915],[24.8,7996],[24.8,8080],[24.8,8165],[24.8,8254],[24.8,8339],[24.8,8424],[24.8,8509],[24.8,8589],[24.8,8678],[24.8,8759],[24.8,8846],[24.8,8930],[24.8,9015],[24.8,9101],[24.8,9184]]",1,0,541.4118,544.8129,0.136663453,2.0932,"[{""rating"":0.13666345327663643,""responseTime"":2.0931999999880873}]",space,2.8848,0.0005,544.8129,Definitely yes,100,544.8138,,,[],,0,12,12,12,1,audio/Narrative8Situation3.wav,audio/Narrative7Situation3.wav,audio/Narrative6Situation3.wav,audio/Narrative5Situation3.wav,4,8,5,3,,,,,,,,,,,,,,,,,,,,,,,,,,,,,,,,,,,,,,,
,,,,,,63d9f41910c61f3eb102079f,2024-02-08_15h31.40.251,group3.1-3.2-social-tom,2023.2.2,Win32,163.9344262,65c5074098b851296ff0b7ed,65c542a934a2d1565b94f178,,,,,,,,,,,,,,,,,,,,,,,,,,,,,544.8139,1,audio/Narrative7Situation4.wav,547.8194,,547.8194,559.5219,"[[1.9,4413],[1.4,4502],[1.2,4588],[0.9,4672],[0.7,4753],[0.1,4841]]",1,0,559.522,563.4696,0,2.8494,"[{""rating"":0,""responseTime"":2.8494000000058577}]",space,3.432,,563.4698,Definitely yes,100,563.4712,,,[],,0,13,13,13,1,audio/Narrative8Situation4.wav,audio/Narrative7Situation4.wav,audio/Narrative6Situation4.wav,audio/Narrative5Situation4.wav,3,3,2,1,,,,,,,,,,,,,,,,,,,,,,,,,,,,,,,,,,,,,,,
,,,,,,63d9f41910c61f3eb102079f,2024-02-08_15h31.40.251,group3.1-3.2-social-tom,2023.2.2,Win32,163.9344262,65c5074098b851296ff0b7ed,65c542a934a2d1565b94f178,,,,,,,,,,,,,,,,,,,,,,,,,,,,,563.4713,1,audio/Narrative7Situation5.wav,568.4756,,568.4757,576.9478,[],1,0,576.948,579.1661,0,1.0697,"[{""rating"":0,""responseTime"":1.0696999999880745}]",space,1.7078,,579.1661,Not at all,0,579.1683,,,[],,0,14,14,14,1,audio/Narrative8Situation5.wav,audio/Narrative7Situation5.wav,audio/Narrative6Situation5.wav,audio/Narrative5Situation5.wav,2,5,2,5,,,,,,,,,,,,,,,,,,,,,,,,,,,,,,,,,,,,,,,
,,,,,,63d9f41910c61f3eb102079f,2024-02-08_15h31.40.251,group3.1-3.2-social-tom,2023.2.2,Win32,163.9344262,65c5074098b851296ff0b7ed,65c542a934a2d1565b94f178,,,,,,,,,,,,,,,,,,,,,,,,,,,,,579.1685,1,audio/Narrative7Situation6.wav,582.1762,,582.1763,592.1356,"[[2.5,844],[1.4,929],[1.4,1013],[1.4,1098],[1.4,1184],[1.4,1268],[1.6,1353],[2,1438],[2.3,1523],[2.3,1607],[2.3,1692],[2.3,1777],[2.3,1862],[2.3,1947],[2.3,2031],[2.3,2116],[2.3,2201],[2.4,2286],[2.4,2371],[2.4,2456],[2.4,2541],[2.9,2625],[9.7,2710],[26.2,2795],[44,2880],[58.5,2965],[73.8,3050],[90.7,3134],[100,3219],[100,3304],[100,3389],[100,3474],[100,3559],[100,3644],[100,3729],[100,3813],[100,3898],[100,3983],[100,4068],[100,4153],[100,4238],[100,4322],[100,4407],[100,4492],[100,4577],[100,4662],[100,4747],[100,4831],[100,4916],[100,5001],[100,5086],[100,5171],[100,5256],[100,5341],[100,5425],[100,5510],[100,5595],[100,5680],[100,5765],[100,5850],[100,5934],[100,6019],[100,6104],[100,6189],[100,6274],[100,6359],[100,6444],[100,6528],[100,6613],[100,6698],[100,6783],[100,6868],[100,6953],[100,7038],[100,7122],[100,7207],[100,7292],[100,7377],[100,7462],[100,7547],[100,7631],[100,7716],[100,7801],[100,7886],[100,7971],[100,8056],[100,8141],[100,8225],[100,8310],[100,8395],[100,8480],[100,8565],[100,8649],[100,8735],[100,8819],[100,8904],[100,8989],[100,9074],[100,9159],[100,9243],[100,9328],[100,9413],[100,9498],[100,9583],[100,9668],[100,9753],[100,9837],[100,9922]]",1,0,592.1357,594.1354,99.78524396,1.8038,"[{""rating"":99.78524396196691,""responseTime"":1.8037999999820613}]",space,1.4856,,594.1354,Partially,50,594.1377,,,[],,0,15,15,15,1,audio/Narrative8Situation6.wav,audio/Narrative7Situation6.wav,audio/Narrative6Situation6.wav,audio/Narrative5Situation6.wav,2,3,2,3,,,,,,,,,,,,,,,,,,,,,,,,,,,,,,,,,,,,,,,
,,,,,,63d9f41910c61f3eb102079f,2024-02-08_15h31.40.251,group3.1-3.2-social-tom,2023.2.2,Win32,163.9344262,65c5074098b851296ff0b7ed,65c542a934a2d1565b94f178,,,,,,,,,,,,,,,,,,,,,,,,,,,,,594.1379,1,audio/Narrative7Situation7.wav,599.1413,,599.1413,616.2927,"[[99.3,774],[99.2,857],[99.2,939],[99.2,1024],[99.2,1109],[99.2,1194],[99.2,1278],[99.2,1363],[99.2,1448],[99.2,1533],[99.3,1618],[99.5,1703],[99.5,1787],[99.5,1872],[99.5,1957],[99.5,2042],[99.5,2127],[99.5,2212],[99.5,2297],[99.5,2381],[99.5,2466],[99.5,2551],[99.5,2636],[99.5,2721],[99.5,2806],[99.5,2890],[99.5,2975],[99.5,3060],[99.5,3145],[99.5,3230],[99.5,3315],[99.7,3399],[100,3484],[100,3569],[100,3654],[100,3739],[100,3824],[100,3909],[100,3993],[100,4078],[100,4163],[100,4248],[100,4333],[100,4418],[100,4503],[100,4587],[100,4672],[100,4757],[100,4842],[100,4927],[100,5012],[100,5096],[100,5181],[100,5266],[100,5351],[100,5436],[100,5521],[100,5605],[100,5690],[100,5775],[100,5860],[100,5945],[100,6030],[100,6115],[100,6199],[100,6284],[100,6369],[100,6454],[100,6539],[100,6624],[100,6708],[100,6793],[100,6878],[100,6963],[100,7048],[100,7133],[100,7218],[100,7302],[100,7387],[100,7472],[100,7557],[100,7642],[100,7727],[100,7812],[100,7896],[100,7981],[100,8066],[100,8151],[100,8236],[100,8321],[100,8405],[100,8490],[100,8575],[100,8660],[100,8745],[100,8830],[100,8914],[100,8999],[100,9084],[100,9169],[100,9254],[100,9339],[100,9424],[100,9509],[100,9593],[100,9678],[100,9763],[100,9848],[100,9933],[100,10017],[100,10102],[100,10188],[100,10272],[100,10357],[100,10442],[100,10527],[100,10612],[100,10696],[100,10781],[100,10866],[100,10951],[100,11036],[100,11120],[100,11205],[100,11290],[100,11375],[100,11460],[100,11545],[100,11630],[100,11714],[100,11799],[100,11884],[100,11969],[100,12054],[100,12139],[100,12224],[100,12308],[100,12393],[100,12478],[100,12563],[100,12648],[100,12732],[100,12817],[100,12902],[100,12987],[100,13072],[100,13157],[100,13242],[100,13327],[100,13411],[100,13496],[100,13581],[100,13666],[100,13751],[100,13836],[100,13921],[100,14005],[100,14090],[100,14175],[100,14260],[100,14345],[100,14429],[100,14514],[100,14599],[100,14684],[100,14769],[100,14854],[100,14939],[100,15024],[100,15108],[100,15193],[100,15278],[100,15363],[100,15448],[100,15533],[100,15617],[100,15702],[100,15787],[100,15872],[100,15957],[100,16042],[100,16126],[100,16211],[100,16296],[100,16381],[100,16466],[100,16551],[100,16636],[100,16720],[100,16806],[100,16890],[100,16975],[100,17060],[100,17145]]",1,0,616.2928,618.2682,99.94142341,0.9083,"[{""rating"":99.94142341166844,""responseTime"":0.9082999999820913}]",space,1.4547,,618.2682,Partially,50,618.2701,,,[],,0,16,16,16,1,audio/Narrative8Situation7.wav,audio/Narrative7Situation7.wav,audio/Narrative6Situation7.wav,audio/Narrative5Situation7.wav,3,5,5,4,,,,,,,,,,,,,,,,,,,,,,,,,,,,,,,,,,,,,,,
,,,,,,63d9f41910c61f3eb102079f,2024-02-08_15h31.40.251,group3.1-3.2-social-tom,2023.2.2,Win32,163.9344262,65c5074098b851296ff0b7ed,65c542a934a2d1565b94f178,,,,,,,,,,,,,,,,,,,,,,,,,,,,,618.2703,1,audio/Narrative7Situation8.wav,620.2769,,620.2769,630.2724,"[[100,4583],[89.1,4673],[75,4759],[35.9,5014],[35.7,5095],[35.7,5180],[35.7,5263],[35.7,5350],[31.9,5437],[22.1,5525],[18.7,5615],[18.1,5704],[16.7,5789],[16.2,5870],[16.2,5958],[16.2,6043],[16.2,6124],[16.2,6210],[16.2,6297],[16.8,6378],[16.8,6468],[16.2,6552],[14.5,6637],[13.8,6718],[13.6,6803],[13.6,6888],[13.6,6973],[13.4,7061],[13.4,7142],[13.4,7227],[13.4,7312],[13.4,7398],[13.4,7485],[13.4,7566],[13.4,7655],[13.4,7736],[13.4,7821],[13.4,7906],[13.4,7991],[13.4,8077],[13.4,8165],[13.4,8249],[13.4,8330],[13.4,8415],[13.4,8500],[13.4,8587],[13.4,8670],[13.4,8758],[13.4,8839],[12.3,8928],[11.7,9010],[11.7,9097],[11.7,9178],[11.7,9265],[11.7,9352],[13.5,9437],[32,9522],[52.8,9607],[55.4,9692],[55.4,9773],[67.7,9862],[85.9,9946]]",1,0,630.2724,632.9892,100,1.8072,"[{""rating"":81.66731243337135,""responseTime"":0.8917000000178632},{""rating"":100,""responseTime"":1.807200000017815}]",space,2.1999,0,632.9893,Definitely yes,100,632.9916,,,[],,0,17,17,17,1,audio/Narrative8Situation8.wav,audio/Narrative7Situation8.wav,audio/Narrative6Situation8.wav,audio/Narrative5Situation8.wav,3,2,5,3,,,,,,,,,,,,,,,,,,,,,,,,,,,,,,,,,,,,,,,
,,,,,,63d9f41910c61f3eb102079f,2024-02-08_15h31.40.251,group3.1-3.2-social-tom,2023.2.2,Win32,163.9344262,65c5074098b851296ff0b7ed,65c542a934a2d1565b94f178,,,,,,,,,,,,,,,,,,,,,,,,,,,,,632.9918,1,audio/Narrative7Situation9.wav,634.9957,,634.9957,643.6027,"[[96.5,7471],[98.6,7550],[99,7635],[99,7720],[99.2,7805],[100,7890],[100,7975],[100,8059],[100,8149],[100,8234],[100,8319],[100,8404],[100,8495],[100,8585]]",1,0,643.603,644.8174,99.62905021,0.6237,"[{""rating"":99.62905021273696,""responseTime"":0.6236999999880481}]",space,0.6964,,644.8174,Not at all,0,644.8187,,,[],,0,18,18,18,1,audio/Narrative8Situation9.wav,audio/Narrative7Situation9.wav,audio/Narrative6Situation9.wav,audio/Narrative5Situation9.wav,3,2,4,3,,,,,,,,,,,,,,,,,,,,,,,,,,,,,,,,,,,,,,,
,,,,,,63d9f41910c61f3eb102079f,2024-02-08_15h31.40.251,group3.1-3.2-social-tom,2023.2.2,Win32,163.9344262,65c5074098b851296ff0b7ed,65c542a934a2d1565b94f178,,,,,,,,,,,,,,,,,,,,,,,,,,,648.5258,651.1039,651.1106,2,audio/Narrative13Situation2.wav,651.1107,,651.1107,680.8403,"[[98.5,852],[96.3,937],[91.3,1019],[64.3,1106],[55.3,1188],[55.6,1274],[53.2,1361],[49.5,1443],[49.5,1526],[49.5,1613],[49.5,1696],[49.5,1784],[49.4,1869],[49.4,1950],[49.4,2039],[49.4,2124],[49.4,2205],[49.4,2290],[49.4,2379],[49.4,2464],[49.4,2545],[49.4,2633],[49.4,2715],[49.4,2799],[49.4,2884],[49.4,2973],[49.4,3058],[49.4,3138],[49.4,3227],[49.4,3308],[49.4,3397],[49.4,3482],[49.4,3562],[49.4,3648],[49.4,3732],[49.4,3821],[49.4,3902],[49.4,3987],[49.4,4072],[49.4,4156],[49.4,4242],[49.4,4327],[49.4,4412],[49.4,4496],[49.4,4581],[49.4,4665],[49.4,4752],[49.4,4836],[49.4,4924],[49.4,5008],[49.4,5090],[49.3,5177],[49.2,5259],[44.4,5348],[36.3,5434],[34.5,5518],[34.5,5603],[30.5,5688],[26.2,5772],[26.1,5863],[26.1,5954],[26.1,6039],[26.1,6120],[26.2,6206],[26.4,6292],[26.4,6375],[26.4,6463],[26.4,6547],[26.5,6629],[26.5,6714],[26.5,6799],[26.5,6883],[26.5,6969],[26.5,7053],[26.5,7142],[26.5,7226],[25.8,7309],[24.8,7393],[24.6,7477],[24.1,7565],[23.9,7651],[23.9,7732],[23.9,7821],[23.9,7902],[23.9,7991],[23.9,8072],[23.8,8160],[23.8,8243],[25.6,8330],[31.2,8415],[38.7,8500],[46.5,8585],[55.6,8669],[61.8,8755],[63.6,8837],[63.6,8920],[63.6,9009],[66.1,9094],[68.7,9179],[68.7,9261],[68.7,9348],[68.7,9429],[68.7,9515],[68.7,9599],[68.6,9688],[69.5,9772],[71.1,9857],[72.2,9942],[72.2,10027],[72.2,10108],[72.2,10197],[72.2,10282],[72.2,10367],[72.6,10451],[73.2,10535],[73.3,10621],[73.3,10703],[73.3,10787],[74,10875],[74.2,10957],[74.4,11042],[74.7,11127],[75,11214],[75.2,11296],[77,11385],[91.8,11470],[100,11555],[100,11639],[100,11724],[100,11806],[100,11894],[100,11978],[100,12063],[100,12149],[100,12229],[100,12317],[100,12400],[100,12485],[100,12569],[100,12654],[100,12738],[100,12823],[100,12912],[100,12997],[100,13078],[100,13162],[100,13247],[100,13336],[100,13417],[100,13502],[100,13586],[100,13675],[100,13757],[100,13841],[100,13930],[100,14011],[100,14098],[100,14181],[100,14269],[100,14355],[100,14435],[100,14520],[100,14604],[100,14689],[100,14777],[100,14861],[100,14948],[100,15029],[100,15114],[100,15200],[100,15288],[100,15372],[100,15457],[100,15542],[100,15626],[100,15709],[100,15792],[100,15877],[100,15962],[100,16052],[100,16132],[100,16217],[100,16309],[100,16395],[100,16479],[100,16566],[100,16647],[100,16732],[100,16817],[100,16901],[100,16986],[100,17071],[100,17156],[100,17241],[100,17326],[100,17411],[100,17495],[100,17580],[100,17665],[100,17750],[100,17835],[100,17920],[100,18005],[100,18090],[100,18174],[100,18259],[100,18344],[100,18429],[100,18513],[100,18598],[100,18683],[100,18769],[100,18853],[100,18938],[100,19023],[100,19107],[100,19192],[100,19277],[100,19362],[100,19447],[100,19532],[100,19617],[100,19702],[100,19786],[100,19871],[100,19956],[100,20041],[100,20126],[100,20211],[100,20296],[100,20380],[100,20465],[100,20550],[100,20635],[100,20720],[100,20805],[100,20889],[100,20975],[100,21059],[100,21144],[100,21228],[100,21314],[100,21399],[100,21483],[100,21568],[100,21653],[100,21738],[100,21823],[100,21908],[100,21992],[100,22077],[100,22162],[100,22247],[100,22332],[100,22416],[100,22502],[100,22586],[100,22671],[100,22756],[100,22841],[100,22926],[100,23010],[100,23096],[100,23180],[100,23265],[100,23350],[100,23435],[100,23520],[100,23604],[100,23689],[100,23774],[100,23859],[100,23944],[100,24028],[100,24114],[100,24198],[97,24283],[81.5,24368],[65.2,24453],[56.2,24538],[52.2,24623],[50.4,24707],[50.4,24792],[50.4,24877],[50.4,24962],[50.4,25047],[50.4,25131],[50.4,25217],[50.4,25301],[50.4,25386],[50.4,25471],[50.4,25556],[50.4,25641],[50.4,25726],[50.4,25811],[50.4,25895],[50.4,25980],[50.4,26065],[50.4,26150],[50.4,26235],[50.4,26320],[50.4,26404],[50.4,26493],[50.4,26579],[50.4,26663],[50.4,26748],[50.4,26833],[50.4,26923],[50.4,27008],[50.4,27093],[50.4,27179],[50.4,27259],[50.4,27344],[50.4,27428],[50.4,27514],[50.4,27599],[50.4,27683],[50.4,27772],[50.2,27853],[48.8,27939],[48.5,28023],[48.1,28111],[46.4,28197],[46.2,28278],[46.2,28363],[45.7,28451],[30.8,28536],[11.2,28622],[4.2,28707],[0.8,28796],[0.2,28881],[0.2,28962],[0.2,29048],[0.2,29132],[0.2,29216],[0.2,29305],[0.2,29390],[0.2,29473],[0.2,29556],[0.2,29645],[0.2,29729]]",1,0,680.8403,680.8413,,,[],,,,680.8413,Definitely yes,100,680.8422,,,[],,0,0,0,0,1,audio/Narrative13Situation2.wav,audio/Narrative13Situation2.wav,audio/Narrative13Situation2.wav,audio/Narrative13Situation2.wav,2,2,2,2,,,,,644.8191,648.5207,space,3.1966,,,,,,,,,,,,,,,,,,,,,,,,,,,,,,,
,,,,,,63d9f41910c61f3eb102079f,2024-02-08_15h31.40.251,group3.1-3.2-social-tom,2023.2.2,Win32,163.9344262,65c5074098b851296ff0b7ed,65c542a934a2d1565b94f178,,,,,,,,,,,,,,,,,,,,,,,,,,,,,680.8423,2,audio/Narrative6Situation1.wav,682.843,,682.843,709.406,"[[4.5,848],[19.9,933],[35.9,1017],[47.1,1102],[50.1,1187],[50.1,1272],[50.1,1357],[50.1,1442],[50.1,1526],[50.1,1611],[50.1,1696],[50.1,1781],[50.1,1866],[49.7,1951],[49.3,2036],[49.2,2121],[49.2,2205],[49.2,2290],[49.2,2375],[49.2,2460],[49.2,2545],[49.2,2630],[49.2,2714],[49.2,2799],[49.2,2884],[49.2,2969],[49.2,3054],[49.2,3139],[49.2,3224],[49.2,3308],[49.2,3393],[49.2,3478],[49.2,3563],[49.2,3648],[49.2,3733],[49.2,3817],[49.2,3902],[49.2,3987],[49.2,4072],[49.2,4157],[49.2,4241],[49.2,4326],[49.2,4411],[49.2,4496],[49.2,4581],[49.2,4666],[49.2,4751],[49.2,4835],[49.2,4920],[49.2,5005],[49.2,5091],[49.2,5175],[49.2,5260],[49.2,5344],[49.2,5430],[49.2,5514],[49.2,5599],[49.2,5684],[47.2,5771],[27.6,5854],[3,5939],[0.7,6023],[0.7,6108],[0.7,6193],[0.7,6278],[0.7,6363],[0.7,6448],[0.8,6532],[23.1,6617],[57.6,6702],[96.1,6787],[100,6872],[100,6957],[100,7041],[100,7126],[100,7211],[100,7296],[100,7381],[100,7466],[100,7551],[100,7636],[100,7720],[100,7805],[100,7890],[100,7975],[100,8060],[100,8144],[100,8229],[100,8314],[100,8399],[100,8484],[100,8569],[100,8654],[100,8738],[100,8823],[100,8908],[100,8993],[100,9078],[100,9163],[100,9248],[100,9332],[100,9418],[100,9502],[100,9587],[100,9672],[100,9756],[100,9842],[100,9927],[100,10011],[100,10096],[100,10181],[100,10266],[100,10351],[100,10435],[100,10520],[100,10605],[100,10690],[100,10775],[100,10860],[100,10945],[100,11029],[100,11114],[100,11199],[100,11284],[100,11369],[100,11453],[100,11538],[100,11623],[100,11708],[100,11793],[100,11878],[100,11963],[100,12047],[100,12133],[100,12217],[100,12302],[100,12387],[100,12472],[100,12556],[100,12642],[100,12726],[100,12811],[100,12896],[100,12981],[100,13066],[100,13150],[100,13235],[100,13320],[100,13405],[100,13490],[100,13575],[100,13660],[100,13744],[100,13830],[100,13914],[100,13999],[100,14084],[100,14169],[100,14253],[100,14338],[99.9,14423],[96.6,14531],[96.6,14616],[96.6,14696],[100,14785],[100,14866],[100,14950],[100,15035],[100,15120],[100,15209],[100,15290],[100,15379],[100,15464],[100,15548],[100,15634],[100,15718],[100,15803],[100,15888],[100,15985],[100,16066],[100,16161],[100,16245],[100,16326],[100,16415],[100,16496],[100,16581],[100,16667],[100,16750],[100,16835],[100,16924],[100,17005],[100,17090],[88.9,17179],[69.4,17263],[57.5,17349],[54.7,17430],[49.7,17518],[49,17599],[49,17684],[49,17770],[48.3,17858],[48.2,17938],[48.2,18027],[48.2,18111],[48.2,18193],[48.2,18281],[48.2,18362],[47.6,18452],[47.4,18532],[48.7,18621],[50.4,18703],[51.6,18791],[51.7,18872],[51.7,18956],[51.7,19041],[51.7,19127],[51.7,19211],[51.7,19296],[51.7,19385],[51.6,19470],[51.6,19551],[51.5,19635],[51.5,19720],[51.5,19805],[51.4,19890],[50,19980],[42.6,20062],[34.4,20149],[33.6,20229],[33.3,20314],[33.3,20399],[33.3,20484],[31.9,20569],[28.1,20653],[21.5,20738],[12.5,20823],[10.3,20908],[2.9,20993],[21.2,22859],[52.5,23284],[50.1,23368],[49.2,23453],[49.2,23538],[49.2,23623],[49.2,23708],[49.2,23793],[49.2,23878],[49.2,23962],[49.4,24047],[49.4,24132],[49.4,24217],[49.4,24302],[49.4,24386],[49.4,24471],[49.4,24556],[49.4,24641],[49.4,24726],[49.4,24811],[49.4,24896],[49.4,24981],[49.4,25065],[49.4,25150],[49.4,25235],[49.4,25320],[49.4,25405],[49.4,25490],[49.4,25574],[49.4,25659],[49.4,25744],[49.4,25829],[49.4,25914],[49.4,25999],[49.4,26084],[49.4,26168],[49.4,26253],[49.3,26338],[49.3,26423],[49.3,26508]]",1,0,709.4061,712.5513,49.33619301,2.0114,"[{""rating"":49.336193010230346,""responseTime"":2.011400000006006}]",space,2.6306,,712.5514,Definitely yes,100,712.5529,,,[],,0,1,1,1,1,audio/Narrative7Situation1.wav,audio/Narrative8Situation1.wav,audio/Narrative5Situation1.wav,audio/Narrative6Situation1.wav,2,5,5,2,,,,,,,,,,,,,,,,,,,,,,,,,,,,,,,,,,,,,,,
,,,,,,63d9f41910c61f3eb102079f,2024-02-08_15h31.40.251,group3.1-3.2-social-tom,2023.2.2,Win32,163.9344262,65c5074098b851296ff0b7ed,65c542a934a2d1565b94f178,,,,,,,,,,,,,,,,,,,,,,,,,,,,,712.5531,2,audio/Narrative6Situation2.wav,715.5573,,715.5574,744.0418,"[[53.7,264],[53.7,349],[53.7,430],[53.7,514],[53.7,600],[53.7,688],[53.7,773],[53.7,858],[53.7,940],[53.7,1028],[53.7,1111],[53.7,1197],[53.7,1278],[53.7,1367],[53.7,1448],[53.7,1535],[53.7,1618],[53.7,1702],[53.7,1788],[53.7,1872],[53.7,1958],[52.9,2046],[51.6,2128],[50.4,2216],[50.4,2296],[50.4,2385],[50.4,2468],[50.4,2551],[50.4,2637],[50.4,2721],[50.4,2805],[50.4,2895],[50.4,2975],[50.4,3063],[50.3,3145],[50.3,3230],[50.3,3315],[50.4,3403],[50.4,3484],[50.4,3570],[50.4,3655],[50.4,3743],[50.4,3823],[50.4,3908],[50.4,3997],[50.4,4085],[50.4,4174],[50.4,4254],[50.4,4340],[50.4,4428],[50.4,4509],[50.4,4593],[50.4,4678],[50.4,4763],[50.4,4848],[50.4,4933],[50.4,5017],[50.4,5102],[50.4,5187],[50.4,5272],[50.4,5359],[50.4,5442],[50.4,5527],[50.4,5612],[50.4,5700],[50.4,5782],[50.4,5867],[50.4,5951],[50.4,6040],[50.4,6121],[50.4,6206],[50.4,6291],[50.4,6379],[50.4,6461],[50.4,6549],[50.4,6631],[50.4,6714],[50.4,6802],[50.4,6887],[50.4,6970],[50.4,7054],[50.4,7139],[50.4,7226],[48.6,7313],[40.2,7397],[27.3,7483],[20.7,7567],[15.9,7650],[12.9,7735],[9.1,7822],[4.5,7906],[2.6,7992],[2.3,8076],[2.3,8158],[2.3,8242],[2.3,8327],[2.3,8413],[2.3,8497],[2.3,8581],[4.1,8670],[9.8,8755],[13.7,8840],[18.2,8921],[18.2,9007],[18.2,9090],[18.2,9175],[18.2,9264],[18.2,9349],[18.2,9432],[18.2,9518],[18.2,9604],[18.2,9686],[18.2,9769],[18.4,9855],[19.1,9943],[19.4,10024],[20.5,10113],[26.4,10197],[41.5,10282],[48.6,10368],[51.5,10453],[51.9,10537],[51.9,10617],[51.9,10707],[51.9,10791],[51.9,10872],[51.9,10957],[51.9,11046],[51.9,11127],[51.9,11211],[51.9,11300],[51.8,11385],[50.8,11470],[50.4,11555],[50,11636],[49.9,11723],[49.9,11808],[49.9,11893],[49.9,11979],[49.9,12061],[49.9,12149],[49.9,12230],[49.9,12314],[49.9,12403],[49.9,12484],[49.9,12570],[49.9,12654],[49.9,12739],[49.9,12827],[49.9,12908],[49.9,12997],[49.9,13078],[49.9,13163],[49.9,13250],[49.9,13332],[49.9,13417],[49.9,13507],[49.9,13591],[49.9,13672],[49.9,13758],[49.9,13846],[49.9,13926],[49.9,14011],[49.9,14098],[49.9,14182],[49.9,14267],[49.9,14354],[49.9,14435],[49.9,14523],[49.9,14608],[49.9,14694],[49.9,14777],[49.9,14860],[49.9,14945],[49.9,15029],[49.9,15114],[49.9,15199],[49.9,15284],[49.9,15369],[49.9,15457],[49.9,15538],[49.9,15623],[49.9,15708],[49.9,15794],[49.9,15878],[49.9,15967],[49.9,16048],[49.9,16137],[49.9,16217],[49.9,16303],[49.9,16392],[49.9,16472],[49.9,16557],[49.9,16646],[49.9,16728],[49.9,16812],[49.9,16896],[49.9,16981],[49.9,17066],[49.9,17155],[49.9,17239],[49.9,17324],[49.9,17409],[49.9,17490],[49.9,17575],[49.9,17660],[49.9,17748],[49.9,17833],[49.9,17914],[49.9,18003],[49.9,18084],[49.9,18170],[49.9,18254],[53.1,18348],[58,18433],[66,18519],[75.3,18603],[87.1,18688],[98.3,18773],[100,18858],[100,18940],[100,19023],[100,19109],[100,19193],[100,19282],[100,19367],[100,19448],[100,19537],[100,19621],[100,19702],[100,19791],[100,19872],[100,19958],[100,20046],[100,20126],[100,20211],[100,20296],[100,20381],[100,20468],[100,20551],[100,20639],[100,20720],[100,20810],[100,20894],[100,20976],[100,21059],[100,21149],[100,21232],[100,21315],[100,21399],[100,21485],[100,21573],[100,21658],[100,21738],[100,21827],[100,21908],[100,21997],[100,22078],[100,22167],[100,22252],[100,22332],[100,22417],[100,22506],[100,22587],[100,22672],[100,22760],[100,22841],[100,22930],[100,23011],[100,23096],[100,23181],[100,23266],[100,23355],[100,23440],[100,23520],[100,23609],[100,23693],[100,23780],[100,23864],[100,23944],[100,24031],[100,24114],[100,24199],[100,24284],[100,24369],[100,24457],[100,24538],[100,24624],[100,24712],[100,24794],[100,24881],[100,24964],[100,25047],[100,25136],[100,25222],[100,25306],[100,25392],[100,25476],[100,25561],[100,25646],[100,25731],[100,25819],[100,25902],[100,25988],[100,26072],[100,26160],[100,26241],[100,26327],[100,26415],[100,26497],[100,26581],[100,26667],[100,26755],[100,26835],[100,26922],[100,27009],[100,27094],[100,27176],[100,27261],[100,27348],[100,27429],[100,27514],[100,27602],[100,27685],[100,27769],[100,27858],[100,27938],[100,28025],[100,28112],[100,28197],[100,28278],[100,28364],[100,28449]]",1,0,744.042,750.2031,100,4.8331,"[{""rating"":100,""responseTime"":4.833099999994033}]",space,5.6425,,750.2032,Not at all,0,750.2043,,,[],,0,2,2,2,1,audio/Narrative7Situation2.wav,audio/Narrative8Situation2.wav,audio/Narrative5Situation2.wav,audio/Narrative6Situation2.wav,3,3,3,3,,,,,,,,,,,,,,,,,,,,,,,,,,,,,,,,,,,,,,,
,,,,,,63d9f41910c61f3eb102079f,2024-02-08_15h31.40.251,group3.1-3.2-social-tom,2023.2.2,Win32,163.9344262,65c5074098b851296ff0b7ed,65c542a934a2d1565b94f178,,,,,,,,,,,,,,,,,,,,,,,,,,,,,750.2045,2,audio/Narrative6Situation3.wav,755.2051,,755.2051,767.8026,"[[51.1,519],[49.4,602],[49,684],[49,769],[49,854],[49.1,940],[50.2,1028],[51,1109],[51.1,1193],[51.1,1278],[50.4,1367],[49,1452],[48.8,1537],[48.8,1622],[48.8,1703],[48.8,1790],[48.8,1876],[48.8,1957],[48.8,2046],[48.8,2127],[48.8,2216],[48.8,2301],[48.8,2381],[48.8,2470],[48.8,2552],[48.8,2640],[48.8,2724],[48.8,2809],[48.8,2894],[48.8,2976],[48.8,3060],[48.8,3145],[48.8,3232],[48.8,3314],[48.8,3404],[48.8,3485],[48.8,3569],[48.8,3658],[48.8,3743],[48.8,3827],[48.8,3912],[48.8,3993],[48.8,4082],[48.8,4167],[48.8,4252],[48.8,4337],[48.8,4417],[48.8,4506],[48.8,4589],[48.8,4672],[48.8,4758],[48.8,4842],[48.8,4927],[46.9,5021],[40.5,5106],[34.9,5191],[30.5,5276],[26.5,5361],[23.2,5446],[23.2,5531],[22.7,5613],[18.7,5698],[18.7,5783],[18.7,5872],[18.7,5961],[18.7,6045],[17.3,6127],[17.2,6215],[17.2,6298],[17.2,6381],[17.2,6471],[17.1,6559],[16.6,6645],[16,6730],[14.4,6815],[13.3,6900],[15.8,6985],[32.6,7070],[60.5,7155],[93.6,7241],[100,7325],[100,7405],[100,7494],[100,7577],[100,7660],[100,7745],[100,7830],[100,7915],[100,8002],[100,8084],[100,8174],[100,8254],[100,8342],[100,8428],[100,8510],[100,8593],[100,8678],[100,8763],[100,8848],[100,8932],[100,9020],[100,9102],[100,9187],[100,9272],[100,9361],[100,9442],[100,9526],[100,9614],[100,9696],[100,9781],[100,9867],[100,9951],[100,10040],[100,10121],[100,10206],[100,10295],[100,10375],[100,10460],[100,10546],[100,10629],[100,10718],[100,10800],[100,10889],[100,10969],[100,11058],[100,11143],[100,11224],[100,11308],[100,11397],[100,11483],[100,11564],[100,11647],[100,11734],[100,11821],[100,11906],[100,11991],[100,12076],[100,12158],[100,12246],[100,12330],[100,12415],[100,12501],[100,12585]]",1,0,767.8026,769.306,99.78524396,0.5287,"[{""rating"":99.78524396196691,""responseTime"":0.5286999999880209}]",space,0.9822,,769.3061,Definitely yes,100,769.3073,,,[],,0,3,3,3,1,audio/Narrative7Situation3.wav,audio/Narrative8Situation3.wav,audio/Narrative5Situation3.wav,audio/Narrative6Situation3.wav,8,4,3,5,,,,,,,,,,,,,,,,,,,,,,,,,,,,,,,,,,,,,,,
,,,,,,63d9f41910c61f3eb102079f,2024-02-08_15h31.40.251,group3.1-3.2-social-tom,2023.2.2,Win32,163.9344262,65c5074098b851296ff0b7ed,65c542a934a2d1565b94f178,,,,,,,,,,,,,,,,,,,,,,,,,,,,,769.3074,2,audio/Narrative6Situation4.wav,771.3078,,771.3079,783.9018,"[[99.3,513],[99.3,595],[99.3,678],[99.3,763],[99.3,848],[99.3,939],[99.3,1024],[99.3,1109],[99.2,1197],[99.2,1282],[99.2,1364],[99.2,1452],[99.2,1537],[99.2,1619],[99.2,1702],[99.2,1788],[99.2,1875],[99.2,1961],[99.2,2042],[99.2,2127],[99.2,2212],[99.2,2297],[99.2,2381],[99.2,2468],[99.2,2552],[99.2,2637],[99.2,2722],[99.2,2805],[99.1,2890],[99.1,2975],[99.1,3062],[98.9,3149],[98.2,3234],[97.7,3315],[97.3,3400],[97.2,3484],[97.1,3573],[97.1,3654],[97.1,3740],[95.8,3825],[93,3910],[87.2,3997],[81.5,4080],[77.9,4167],[75.4,4252],[71.8,4337],[69.2,4422],[68.2,4506],[67.5,4591],[65.1,4677],[59.4,4762],[52.8,4846],[49,4931],[48.5,5016],[48.5,5096],[48.5,5185],[48.5,5270],[48.5,5351],[48.6,5436],[48.9,5524],[49.5,5610],[49.5,5690],[50.2,5779],[50.8,5863],[51,5945],[51.2,6030],[51.2,6114],[51.2,6199],[51.2,6288],[51.2,6369],[51.2,6454],[51.9,6539],[51.9,6625],[52.1,6710],[52.1,6797],[52.1,6878],[51.5,6964],[51.3,7052],[51.3,7134],[51.2,7221],[51.1,7304],[50.8,7389],[50.8,7472],[50.7,7557],[50.6,7644],[50.4,7727],[50.2,7813],[50,7898],[49.7,7985],[49.5,8066],[49.5,8151],[49.5,8239],[49.5,8321],[49.5,8410],[49.5,8490],[49.5,8579],[49.5,8660],[49.5,8745],[49.5,8833],[49.5,8915],[49.4,9003],[49.2,9085],[49,9173],[49,9255],[48.7,9342],[48.5,9424],[47.4,9513],[45,9597],[41.7,9682],[40.5,9767],[40.5,9848],[40.5,9932],[39.2,10019],[36.5,10105],[34.9,10191],[33.2,10276],[31.9,10361],[30.2,10444],[27.6,10531],[25.9,10613],[25.5,10705],[25.1,10793],[24.8,10878],[24.4,10967],[24.4,11051],[24.4,11133],[24.4,11218],[24.4,11304],[24.4,11388],[24.4,11476],[24.4,11557],[24.4,11643],[24.1,11730],[23.9,11812],[23.2,11898],[22.5,11981],[22.3,12066],[22.3,12151],[22.3,12240],[22.3,12320],[22.3,12406],[22.3,12493],[22.3,12576]]",1,0,783.9021,789.8995,38.5591532,5.1491,"[{""rating"":14.271768772735532,""responseTime"":1.487799999982144},{""rating"":45.19718735139215,""responseTime"":4.749899999976151},{""rating"":38.55915320251667,""responseTime"":5.149099999994064}]",space,5.4804,,789.8995,Not at all,0,789.9007,,,[],,0,4,4,4,1,audio/Narrative7Situation4.wav,audio/Narrative8Situation4.wav,audio/Narrative5Situation4.wav,audio/Narrative6Situation4.wav,3,3,1,2,,,,,,,,,,,,,,,,,,,,,,,,,,,,,,,,,,,,,,,
,,,,,,63d9f41910c61f3eb102079f,2024-02-08_15h31.40.251,group3.1-3.2-social-tom,2023.2.2,Win32,163.9344262,65c5074098b851296ff0b7ed,65c542a934a2d1565b94f178,,,,,,,,,,,,,,,,,,,,,,,,,,,,,789.9008,2,audio/Narrative6Situation5.wav,791.9017,,791.9017,799.8358,"[[59.3,1201],[53.5,1286],[50.4,1373],[49,1458],[49,1540],[49.3,1628],[49.4,1709],[49.4,1798],[49.4,1882],[49.4,1963],[49.4,2048],[49.4,2133],[49.4,2221],[49.4,2306],[49.4,2389],[49.4,2476],[49.4,2561],[49.4,2642],[49.4,2727],[49.4,2814],[49.4,2897],[49.4,2981],[49.4,3066],[49.4,3154],[49.4,3236],[49.4,3320],[49.4,3409],[49.4,3494],[49.4,3576],[49.4,3660],[49.4,3747],[49.4,3830],[49.4,3916],[49.4,4003],[49.4,4085],[49.4,4173],[49.4,4255],[49.4,4342],[49.4,4427],[49.4,4510],[49.4,4597],[49.4,4682],[49.4,4767],[49.4,4848],[49.4,4937],[49.8,5027],[50.7,5112],[54.9,5197],[59.4,5282],[62.6,5363],[63.8,5451],[68.8,5537],[70.4,5622],[70.4,5704],[70.7,5788],[73.2,5875],[75.5,5956],[75.5,6042],[75.5,6127],[75.5,6215],[75.8,6300],[76,6382],[76,6470],[76.1,6551],[76.1,6640],[76.1,6724],[76.1,6805],[76.1,6890],[76.1,6975],[76.1,7064],[76.1,7148],[76.1,7230],[76.1,7314],[76.1,7401],[76.1,7488],[76.1,7573],[76.1,7654],[76.1,7743],[76.1,7825],[76.1,7908]]",1,0,799.8361,805.3477,76.04450906,4.4831,"[{""rating"":76.04450905543376,""responseTime"":4.48309999999401}]",space,4.9928,,805.3477,Partially,50,805.349,,,[],,0,5,5,5,1,audio/Narrative7Situation5.wav,audio/Narrative8Situation5.wav,audio/Narrative5Situation5.wav,audio/Narrative6Situation5.wav,5,2,5,2,,,,,,,,,,,,,,,,,,,,,,,,,,,,,,,,,,,,,,,
,,,,,,63d9f41910c61f3eb102079f,2024-02-08_15h31.40.251,group3.1-3.2-social-tom,2023.2.2,Win32,163.9344262,65c5074098b851296ff0b7ed,65c542a934a2d1565b94f178,,,,,,,,,,,,,,,,,,,,,,,,,,,,,805.3491,2,audio/Narrative6Situation6.wav,807.35,,807.35,818.4042,"[[75.8,852],[74.8,937],[70.6,1021],[67.5,1106],[65.8,1192],[63.6,1276],[61.9,1361],[58.6,1446],[55.3,1531],[53.5,1612],[52.2,1700],[51.3,1785],[50.4,1867],[50.2,1953],[50.2,2039],[50.2,2124],[50.2,2205],[50.2,2294],[50.2,2375],[50.2,2464],[50.2,2545],[50.2,2633],[50.2,2716],[50.2,2802],[50.2,2884],[50.2,2970],[50.2,3058],[50.2,3140],[50.2,3223],[50.2,3312],[50.2,3393],[50.2,3482],[50.2,3567],[50.2,3652],[50.2,3732],[50.2,3821],[50.2,3902],[50.2,3987],[50.2,4073],[50.2,4157],[50.2,4243],[50.2,4327],[50.2,4415],[50.2,4496],[50.2,4582],[50.2,4669],[50.2,4754],[50.2,4835],[50.2,4924],[50.2,5007],[50.2,5091],[50.2,5178],[50.2,5259],[50.2,5348],[50.2,5433],[50.2,5514],[50.2,5600],[52.9,5690],[60.5,5779],[61.8,5863],[61.8,5952],[61.8,6035],[61.8,6124],[61.8,6205],[61.8,6293],[61.8,6375],[61.8,6464],[61.8,6553],[61.8,6635],[61.8,6724],[61.8,6809],[61.8,6890],[61.8,6976],[62.2,7063],[63.2,7149],[64.6,7233],[66.6,7318],[69.3,7403],[70.4,7487],[70.9,7569],[71.1,7653],[71.1,7743],[71.1,7823],[71.1,7912],[72.1,7997],[73,8082],[73.4,8167],[74.6,8252],[75.3,8335],[76.2,8418],[76.8,8506],[77.7,8591],[78.4,8672],[78.4,8756],[79.1,8845],[79.7,8927],[79.7,9011],[79.7,9097],[79.7,9185],[79.7,9269],[79.7,9350],[79.7,9439],[79.7,9524],[79.7,9606],[79.7,9694],[79.7,9776],[79.7,9861],[79.7,9948],[79.7,10033],[79.7,10115],[79.7,10203],[79.7,10285],[79.7,10368],[79.7,10454],[79.7,10541],[79.7,10627],[79.7,10712],[79.7,10794],[79.7,10879],[79.7,10964],[79.7,11047]]",1,0,818.4043,819.9599,79.71495492,0.7317,"[{""rating"":79.71495491587473,""responseTime"":0.7316999999881091}]",space,1.0366,,819.9599,Partially,50,819.9606,,,[],,0,6,6,6,1,audio/Narrative7Situation6.wav,audio/Narrative8Situation6.wav,audio/Narrative5Situation6.wav,audio/Narrative6Situation6.wav,3,2,3,2,,,,,,,,,,,,,,,,,,,,,,,,,,,,,,,,,,,,,,,
,,,,,,63d9f41910c61f3eb102079f,2024-02-08_15h31.40.251,group3.1-3.2-social-tom,2023.2.2,Win32,163.9344262,65c5074098b851296ff0b7ed,65c542a934a2d1565b94f178,,,,,,,,,,,,,,,,,,,,,,,,,,,,,819.9607,2,audio/Narrative6Situation7.wav,824.9616,,824.9616,849.7981,"[[76.6,688],[76.6,773],[76.6,854],[76.6,943],[76.6,1026],[76.6,1108],[76.4,1197],[75.9,1279],[70.1,1367],[61.2,1452],[56.1,1537],[52.2,1620],[49.9,1704],[49.5,1787],[49.5,1876],[49.5,1957],[49.5,2046],[49.5,2130],[49.5,2215],[49.5,2296],[49.5,2381],[49.5,2467],[49.5,2555],[49.5,2640],[49.5,2725],[49.5,2806],[49.5,2891],[49.5,2979],[49.5,3060],[49.5,3145],[49.5,3231],[49.5,3319],[49.5,3400],[49.5,3485],[49.5,3569],[49.5,3658],[49.5,3743],[49.5,3823],[49.5,3912],[49.5,3998],[49.5,4078],[49.5,4167],[49.5,4251],[49.5,4335],[49.5,4418],[49.5,4502],[49.5,4587],[49.5,4672],[49.5,4761],[49.5,4842],[49.5,4927],[49.5,5011],[49.5,5096],[49.5,5181],[49.5,5266],[49.5,5351],[49.5,5436],[49.5,5520],[49.5,5605],[49.5,5690],[49.5,5779],[49.5,5860],[49.5,5945],[49.5,6033],[49.5,6114],[49.5,6201],[49.5,6284],[49.5,6373],[49.4,6454],[44.6,6545],[37,6630],[31.2,6714],[29.5,6799],[29.3,6888],[29.3,6971],[29.3,7055],[29.3,7141],[29.3,7223],[29.3,7309],[33.5,7397],[59.3,7482],[76.5,7567],[78.4,7652],[89.6,7737],[95,7819],[96.2,7903],[100,7991],[100,8072],[100,8160],[100,8246],[100,8330],[100,8413],[100,8500],[100,8584],[100,8666],[100,8754],[100,8836],[100,8924],[100,9005],[100,9093],[100,9179],[100,9264],[100,9351],[100,9437],[100,9523],[100,9608],[100,9695],[100,9775],[100,9864],[100,9945],[100,10029],[100,10115],[100,10202],[100,10284],[100,10369],[100,10455],[100,10538],[100,10628],[100,10710],[100,10793],[100,10878],[100,10966],[100,11048],[100,11133],[100,11218],[100,11303],[100,11391],[100,11476],[100,11561],[100,11643],[100,11727],[100,11812],[100,11896],[100,11981],[100,12070],[100,12150],[100,12240],[100,12320],[100,12408],[100,12494],[100,12578],[100,12661],[100,12746],[100,12830],[100,12914],[100,12999],[100,13084],[100,13172],[100,13255],[100,13340],[100,13427],[100,13508],[100,13594],[100,13678],[100,13766],[100,13847],[100,13933],[100,14022],[100,14102],[100,14187],[100,14276],[100,14357],[100,14445],[100,14530],[100,14615],[100,14696],[100,14782],[100,14868],[100,14955],[100,15035],[100,15125],[100,15209],[100,15290],[100,15376],[100,15464],[100,15548],[100,15629],[100,15714],[100,15802],[100,15887],[100,15970],[100,16058],[100,16142],[100,16223],[100,16308],[100,16397],[100,16478],[100,16563],[100,16648],[100,16732],[100,16821],[100,16902],[100,16989],[100,17076],[100,17157],[100,17245],[100,17326],[100,17415],[100,17500],[100,17585],[100,17670],[100,17754],[100,17840],[100,17925],[100,18009],[100,18095],[100,18186],[100,18266],[100,18350],[100,18435],[100,18520],[100,18605],[100,18694],[100,18775],[100,18860],[100,18946],[100,19030],[100,19118],[100,19203],[100,19288],[100,19373],[100,19457],[100,19543],[100,19623],[100,19709],[100,19797],[100,19878],[100,19973],[100,20057],[100,20143],[100,20227],[100,20309],[100,20399],[100,20484],[100,20569],[100,20653],[100,20738],[100,20827],[100,20911],[100,20997],[100,21078],[100,21163],[100,21247],[100,21336],[100,21417],[100,21506],[100,21591],[100,21673],[100,21760],[100,21845],[100,21928],[100,22012],[100,22096],[100,22181],[100,22265],[100,22354],[100,22439],[99.7,22528],[99.7,22611],[99.7,22700],[99.7,22782],[99.7,22867],[99.7,22953],[99.7,23035],[99.7,23123],[99.7,23205],[99.7,23290],[99.7,23375],[99.7,23463],[99.7,23549],[99.6,23633],[99.6,23718],[99.6,23803],[99.6,23888],[99.6,23969],[99.6,24057],[99.6,24139],[99.6,24225],[99.6,24308],[99.6,24397],[99.6,24479],[99.6,24567],[99.6,24649],[99.6,24732],[99.6,24821]]",1,0,849.7983,851.0498,99.47285646,0.1801,"[{""rating"":99.47285646350696,""responseTime"":0.18009999999401316}]",space,0.7426,,851.0498,Definitely yes,100,851.0511,,,[],,0,7,7,7,1,audio/Narrative7Situation7.wav,audio/Narrative8Situation7.wav,audio/Narrative5Situation7.wav,audio/Narrative6Situation7.wav,5,3,4,5,,,,,,,,,,,,,,,,,,,,,,,,,,,,,,,,,,,,,,,
,,,,,,63d9f41910c61f3eb102079f,2024-02-08_15h31.40.251,group3.1-3.2-social-tom,2023.2.2,Win32,163.9344262,65c5074098b851296ff0b7ed,65c542a934a2d1565b94f178,,,,,,,,,,,,,,,,,,,,,,,,,,,,,851.0512,2,audio/Narrative6Situation8.wav,856.0529,,856.053,862.8892,"[[95.1,602],[95.1,683],[95.1,768],[95.1,857],[95.1,938],[95.1,1027],[95.1,1110],[92.6,1196],[79.8,1281],[70.5,1364],[64.4,1451],[54.9,1536],[50.6,1621],[50,1702],[50,1790],[50.1,1875],[50.1,1957],[50.1,2041],[50.1,2126],[50.1,2214],[50.1,2295],[50.1,2381],[50.1,2467],[50.1,2550],[50.1,2634],[50.1,2720],[50.1,2805],[50.1,2889],[50.1,2974],[50.1,3059],[50.1,3144],[50.1,3230],[50.1,3313],[50.1,3398],[50.1,3484],[50.1,3572],[50.1,3654],[50.1,3737],[50.1,3827],[50.1,3907],[50.1,3997],[50.1,4078],[50.1,4162],[50.1,4248],[50.1,4333],[50.1,4416],[50.1,4505],[50.1,4591],[50.1,4671],[50.1,4760],[49.7,4844],[47.9,4927],[47.9,5014],[47.9,5097],[47.9,5184],[35.4,5269],[23.5,5354],[19,5439],[17.1,5524],[11.9,5609],[11.7,5690],[11.7,5776],[11.7,5859],[11.7,5944],[11.7,6032],[11.7,6113],[11.7,6199],[11.7,6287],[11.7,6369],[11.7,6454],[11.7,6541],[11.7,6623],[11.7,6712],[11.7,6793]]",1,0,862.8895,865.8383,0,1.7356,"[{""rating"":0,""responseTime"":1.7355999999939513}]",space,2.4315,,865.8384,Not at all,0,865.8413,,,[],,0,8,8,8,1,audio/Narrative7Situation8.wav,audio/Narrative8Situation8.wav,audio/Narrative5Situation8.wav,audio/Narrative6Situation8.wav,2,3,3,5,,,,,,,,,,,,,,,,,,,,,,,,,,,,,,,,,,,,,,,
,,,,,,63d9f41910c61f3eb102079f,2024-02-08_15h31.40.251,group3.1-3.2-social-tom,2023.2.2,Win32,163.9344262,65c5074098b851296ff0b7ed,65c542a934a2d1565b94f178,,,,,,,,,,,,,,,,,,,,,,,,,,,,,865.8418,2,audio/Narrative6Situation9.wav,869.8454,,869.8454,879.7728,"[[999,5],[999,94],[999,177],[999,261],[999,349],[999,430],[999,517],[999,600],[999,689],[999,773],[56.9,859],[52,944],[49.7,1025],[48.7,1110],[48.7,1195],[49.1,1281],[49.3,1363],[49.3,1448],[49.3,1533],[49.3,1618],[49.3,1706],[49.3,1787],[49.3,1872],[49.3,1961],[49.3,2043],[49.3,2128],[49.3,2214],[49.3,2300],[49.3,2381],[49.3,2466],[49.3,2551],[49.3,2636],[49.3,2723],[49.3,2809],[49.3,2892],[49.3,2979],[49.3,3060],[49.3,3146],[49.3,3230],[49.3,3315],[49.3,3399],[49.3,3488],[49.3,3569],[49.3,3654],[49.3,3743],[49.3,3824],[49.3,3912],[49.3,3995],[49.3,4079],[49.3,4167],[49.3,4250],[49.3,4336],[49.3,4421],[49.3,4504],[49.3,4588],[49.3,4676],[49.3,4761],[49.3,4846],[49.3,4931],[49.3,5015],[49.3,5097],[49.3,5181],[49.3,5267],[49.3,5355],[49.3,5440],[49.3,5521],[49.3,5607],[49.3,5694],[49.3,5775],[49.3,5860],[49.3,5945],[49.3,6030],[49.3,6118],[49.3,6200],[49.3,6288],[49.3,6371],[49.3,6454],[49.3,6540],[49.3,6628],[49.3,6709],[49.3,6793],[49.3,6882],[49.3,6967],[49.3,7052],[49.3,7134],[49.3,7221],[49.3,7306],[49.3,7391],[49.3,7472],[49.3,7562],[49.3,7648],[49.3,7733],[49.3,7819],[49.3,7903],[49.3,7987],[49.3,8073],[44.5,8165],[34.7,8251],[22.8,8337],[12.7,8422],[6.4,8507],[2.6,8592],[1.6,8676],[0.8,8761],[0.8,8842],[0.8,8927],[0.8,9011],[0.8,9096],[0.8,9181],[0.8,9266],[0.8,9352],[0.8,9440],[0.8,9523],[0.8,9609],[0.8,9692],[0.8,9776],[0.8,9864]]",1,0,879.7731,882.534,3.807105739,0.9248,"[{""rating"":3.8071057388354648,""responseTime"":0.9247999999821559}]",space,2.2448,,882.5341,Definitely yes,100,882.5353,,,[],,0,9,9,9,1,audio/Narrative7Situation9.wav,audio/Narrative8Situation9.wav,audio/Narrative5Situation9.wav,audio/Narrative6Situation9.wav,2,3,3,4,,,,,,,,,,,,,,,,,,,,,,,,,,,,,,,,,,,,,,,
,,,,,,63d9f41910c61f3eb102079f,2024-02-08_15h31.40.251,group3.1-3.2-social-tom,2023.2.2,Win32,163.9344262,65c5074098b851296ff0b7ed,65c542a934a2d1565b94f178,,,,,,,,,,,,,,,,,,,,,,,,,,,,,882.5354,2,audio/Narrative5Situation1.wav,887.5402,,887.5402,900.8038,"[[999,5],[999,90],[999,171],[999,256],[999,341],[999,426],[999,510],[999,600],[999,684],[999,765],[999,854],[999,935],[999,1023],[999,1108],[999,1193],[999,1274],[999,1359],[999,1448],[999,1529],[999,1615],[999,1698],[999,1783],[999,1872],[999,1953],[999,2042],[999,2123],[999,2209],[999,2293],[999,2379],[999,2462],[999,2548],[999,2636],[999,2716],[999,2802],[999,2890],[36.2,2981],[33.3,3062],[32.4,3151],[29,3236],[17.3,3321],[11.7,3405],[8.5,3491],[3.8,3575],[0.7,3661],[0.6,3743],[0.6,3827],[0.6,3911],[0.6,3995],[0.6,4081],[0.6,4169],[0.6,4250],[0.6,4336],[0.6,4419],[0.6,4509],[0.6,4590],[0.6,4675],[0.6,4763],[0.6,4848],[0.6,4929],[0.6,5017],[0.6,5100],[0.6,5187],[0.6,5269],[0.6,5353],[0.6,5442],[0.6,5525],[0.6,5612],[0.6,5692],[0.6,5777],[0.6,5863],[0.6,5947],[0.6,6032],[0.6,6120],[0.6,6201],[0.6,6290],[0.6,6375],[0.6,6460],[0.6,6545],[0.6,6627],[0.6,6715],[0.6,6799],[0.6,6884],[0.6,6969],[0.6,7050],[0.6,7136],[0.6,7223],[0.6,7307],[0.6,7389],[0.6,7474],[0.6,7562],[0.6,7647],[0.6,7728],[0.6,7813],[0.6,7898],[0.6,7983],[0.6,8072],[0.6,8153],[0.6,8240],[0.6,8324],[0.6,8412],[0.6,8492],[0.6,8577],[0.6,8666],[0.6,8750],[0.6,8831],[0.6,8917],[0.6,9005],[0.6,9090],[0.6,9175],[0.6,9256],[0.6,9341],[0.6,9425],[0.6,9513],[0.6,9596],[0.6,9680],[0.6,9768],[0.6,9850],[0.6,9936],[0.6,10023],[0.6,10104],[0.6,10189],[0.6,10274],[0.6,10359],[0.6,10444],[0.6,10528],[0.6,10615],[0.6,10698],[0.6,10786],[0.6,10868],[0.6,10956],[0.6,11038],[0.6,11127],[0.6,11207],[0.6,11292],[0.6,11379],[0.6,11462],[0.6,11551],[0.6,11633],[0.6,11716],[0.6,11801],[0.6,11887],[0.6,11973],[0.6,12060],[0.6,12140],[0.6,12229],[0.6,12310],[0.6,12396],[0.6,12480],[0.6,12567],[0.6,12650],[0.6,12734],[0.6,12822],[0.6,12904],[0.6,12989],[0.6,13074],[0.6,13163],[0.6,13247]]",1,0,900.8039,907.2792,49.57047648,5.7549,"[{""rating"":49.570476484311065,""responseTime"":5.754900000005932}]",space,5.9582,,907.2792,Definitely yes,100,907.2799,,,[],,0,10,10,10,1,audio/Narrative8Situation1.wav,audio/Narrative7Situation1.wav,audio/Narrative6Situation1.wav,audio/Narrative5Situation1.wav,5,2,2,5,,,,,,,,,,,,,,,,,,,,,,,,,,,,,,,,,,,,,,,
,,,,,,63d9f41910c61f3eb102079f,2024-02-08_15h31.40.251,group3.1-3.2-social-tom,2023.2.2,Win32,163.9344262,65c5074098b851296ff0b7ed,65c542a934a2d1565b94f178,,,,,,,,,,,,,,,,,,,,,,,,,,,,,907.28,2,audio/Narrative5Situation2.wav,910.2813,,910.2814,939.7266,"[[46.4,338],[46.4,424],[46.4,513],[46.4,597],[46.4,678],[46.4,763],[46.4,852],[46.4,932],[46.4,1017],[46.4,1104],[46.4,1191],[46.4,1273],[46.4,1360],[46.4,1442],[46.4,1530],[46.4,1612],[46.4,1696],[46.4,1785],[46.4,1868],[46.4,1951],[46.4,2035],[46.4,2124],[46.4,2205],[46.4,2290],[46.4,2379],[46.4,2464],[46.4,2544],[46.4,2629],[46.4,2717],[46.4,2802],[46.4,2888],[46.4,2972],[46.4,3056],[46.4,3142],[46.4,3227],[46.4,3309],[46.4,3397],[46.4,3482],[46.4,3566],[46.4,3652],[46.4,3733],[46.4,3821],[46.4,3903],[46.4,3987],[46.4,4072],[46.4,4157],[46.4,4241],[46.4,4328],[46.4,4416],[46.4,4497],[46.4,4582],[46.5,4674],[46.5,4757],[46.5,4843],[46.5,4928],[46.5,5012],[46.5,5100],[46.5,5185],[46.7,5269],[46.8,5355],[46.8,5439],[46.8,5520],[46.9,5609],[47,5691],[47,5779],[47,5864],[47,5948],[47,6029],[47,6118],[47,6199],[47.2,6285],[47.2,6369],[47.2,6458],[47.2,6538],[47.2,6627],[47.5,6709],[47.5,6797],[47.5,6878],[47.6,6963],[47.6,7052],[47.6,7136],[47.7,7217],[47.7,7302],[47.7,7391],[47.7,7476],[47.7,7561],[47.9,7645],[47.9,7732],[47.9,7820],[48,7908],[48,7997],[48,8082],[48.2,8166],[48.2,8247],[48.2,8333],[48.2,8417],[48.2,8506],[48.2,8591],[48.2,8673],[48.2,8756],[48.2,8844],[48.2,8928],[48.2,9011],[48.2,9096],[48.2,9181],[48.2,9266],[48.2,9351],[48.2,9435],[48.2,9520],[48.2,9605],[48.2,9690],[48.2,9778],[48.2,9861],[48.2,9948],[48.2,10030],[48.2,10118],[48.2,10199],[48,10287],[48,10369],[48,10457],[48,10541],[48,10625],[48,10708],[48,10797],[48,10882],[44.7,10966],[39.6,11048],[38.2,11135],[38.2,11221],[35.8,11306],[33.3,11391],[32.3,11472],[32.1,11557],[31.9,11641],[31.9,11726],[31.9,11812],[30,11900],[26.7,11985],[26.7,12070],[26.7,12150],[26.7,12235],[26.7,12324],[26.7,12406],[26.7,12490],[26.7,12577],[26.8,12661],[26.8,12745],[26.9,12829],[27.1,12914],[27.3,12999],[27.3,13084],[27.3,13172],[27.5,13253],[27.6,13342],[27.6,13423],[27.6,13512],[27.6,13597],[27.6,13682],[27.6,13763],[27.6,13847],[27.6,13934],[27.6,14018],[27.6,14103],[27.6,14190],[27.6,14272],[27.6,14357],[27.6,14441],[27.6,14528],[27.6,14615],[27.6,14700],[27.6,14784],[27.6,14869],[27.6,14950],[27.6,15039],[27.6,15124],[27.6,15206],[27.6,15290],[27.6,15379],[27.6,15466],[27.6,15552],[27.6,15635],[27.6,15722],[27.6,15809],[27.6,15891],[27.6,15979],[27.6,16059],[27.6,16145],[27.6,16229],[27.6,16318],[27.6,16399],[27.6,16484],[27.6,16570],[27.6,16657],[27.6,16742],[27.6,16824],[27.6,16912],[27.6,16993],[27.6,17080],[27.6,17165],[27.6,17247],[27.6,17336],[27.6,17417],[27.6,17506],[27.6,17586],[27.6,17675],[27.6,17757],[27.6,17842],[27.6,17926],[27.6,18011],[27.6,18096],[27.6,18183],[27.6,18267],[27.6,18351],[27.6,18439],[27.6,18524],[27.6,18605],[27.6,18689],[27.6,18775],[27.6,18859],[27.6,18948],[27.6,19029],[27.6,19115],[27.6,19200],[27.6,19288],[27.6,19372],[27.6,19453],[27.6,19538],[27.6,19625],[27.6,19708],[27.6,19793],[27.6,19881],[27.6,19962],[27.6,20047],[27.6,20136],[27.6,20221],[27.6,20306],[27.6,20391],[27.6,20475],[27.6,20560],[27.6,20645],[27.6,20726],[27.6,20815],[27.6,20897],[27.6,20980],[27.6,21067],[27.8,21160],[27.8,21246],[27.8,21326],[27.8,21411],[27.8,21500],[27.8,21582],[27.8,21666],[27.8,21750],[27.8,21835],[27.8,21921],[27.8,22005],[27.8,22090],[28,22174],[28,22261],[28,22348],[28,22433],[28,22514],[28.2,22602],[28.2,22687],[28.3,22768],[28.3,22853],[28.3,22942],[28.5,23027],[28.5,23109],[28.5,23193],[28.7,23278],[28.7,23366],[28.7,23447],[28.7,23532],[28.7,23621],[28.7,23706],[28.7,23790],[28.7,23872],[28.9,23956],[28.9,24043],[28.9,24126],[28.9,24211],[28.9,24296],[28.9,24384],[28.9,24466],[28.9,24554],[28.9,24639],[28.9,24721],[28.9,24809],[28.9,24891],[28.9,24978],[28.9,25063],[28.9,25145],[28.9,25229],[29,25314],[29.1,25400],[29.1,25488],[29.1,25572],[31.2,25658],[38.7,25742],[48.7,25827],[56.5,25912],[64.5,25997],[66.5,26078],[66.5,26162],[66.9,26252],[67.6,26334],[69.5,26422],[73,26506],[73.6,26591],[73.6,26673],[73.6,26756],[73.6,26845],[73.6,26930],[73.6,27011],[73.6,27099],[73.6,27181],[73.6,27269],[73.6,27354],[73.6,27435],[73.6,27520],[73.6,27608],[73.6,27691],[73.3,27774],[73.3,27860],[73.3,27948],[73.1,28033],[72.6,28117],[72.4,28198],[72.2,28285],[71.9,28369],[71.8,28455],[71.7,28540],[71.7,28623],[71.7,28708],[71.7,28793],[71.7,28878],[71.9,28962],[71.9,29047],[71.9,29132],[71.9,29219],[71.9,29302],[71.9,29391]]",1,0,939.7267,941.2177,71.59312305,1.0017,"[{""rating"":71.59312304789988,""responseTime"":1.001699999988091}]",space,0.9757,0.0004,941.2177,Not at all,0,957.5549,0,15.3336,"[{""rating"":0.2928536276244842,""responseTime"":13.503800000012006},{""rating"":0,""responseTime"":15.333599999994021}]",space,0,11,11,11,1,audio/Narrative8Situation2.wav,audio/Narrative7Situation2.wav,audio/Narrative6Situation2.wav,audio/Narrative5Situation2.wav,3,3,3,3,,,15.8279,,,,,,,,,,,,,,,,,,,,,,,,,,,,,,,,,,,,
,,,,,,63d9f41910c61f3eb102079f,2024-02-08_15h31.40.251,group3.1-3.2-social-tom,2023.2.2,Win32,163.9344262,65c5074098b851296ff0b7ed,65c542a934a2d1565b94f178,,,,,,,,,,,,,,,,,,,,,,,,,,,,,957.5553,2,audio/Narrative5Situation3.wav,960.5588,,960.5588,974.45,"[[999,0],[999,88],[999,169],[999,259],[999,339],[999,424],[999,510],[999,593],[999,680],[999,763],[999,849],[999,934],[999,1018],[999,1103],[999,1187],[999,1272],[999,1361],[51.2,1443],[51.5,1527],[51.5,1613],[51.5,1701],[50.7,1785],[50.1,1868],[50.1,1951],[50.1,2037],[50.1,2121],[50.1,2205],[50.1,2292],[50.1,2377],[50.1,2464],[50.1,2547],[50.1,2634],[50.1,2716],[50.1,2799],[50.1,2884],[50.1,2973],[50.1,3054],[50.1,3139],[50.1,3225],[50.1,3309],[50.1,3394],[50.1,3479],[50.1,3563],[50.1,3648],[50.1,3737],[50.1,3818],[50.1,3903],[50.1,3987],[50.1,4076],[50.1,4157],[50.1,4243],[50.1,4328],[57.9,4422],[71.9,4507],[79.6,4592],[82.3,4677],[85.4,4762],[91.5,4846],[98.6,4931],[100,5016],[100,5100],[100,5182],[100,5266],[100,5355],[100,5436],[100,5525],[100,5606],[100,5693],[100,5775],[100,5864],[100,5948],[100,6030],[100,6118],[100,6199],[100,6284],[100,6370],[100,6454],[100,6539],[100,6624],[100,6713],[100,6793],[100,6882],[100,6965],[100,7048],[100,7133],[100,7218],[100,7303],[100,7387],[100,7476],[100,7558],[100,7642],[100,7728],[100,7812],[100,7901],[100,7981],[100,8066],[100,8151],[100,8236],[100,8325],[100,8406],[100,8490],[100,8579],[100,8661],[100,8745],[100,8830],[100,8915],[100,9000],[100,9088],[100,9170],[100,9258],[100,9343],[100,9424],[100,9509],[100,9601],[100,9686],[100,9770],[100,9859],[100,9943],[100,10028],[100,10113],[100,10199],[100,10282],[100,10367],[100,10453],[100,10541],[100,10624],[100,10712],[100,10793],[100,10879],[100,10963],[100,11049],[100,11137],[100,11221],[100,11306],[100,11387],[100,11472],[100,11557],[100,11645],[100,11727],[100,11812],[100,11900],[100,11983],[100,12066],[100,12151],[100,12236],[100,12321],[100,12406],[100,12491],[100,12576],[100,12660],[100,12745],[100,12830],[100,12914],[100,13001],[100,13086],[100,13169],[100,13254],[100,13339],[100,13427],[100,13509],[100,13595],[100,13688],[99.9,13771],[99.8,13854]]",1,0,974.4503,976.8414,99.78524396,1.3669,"[{""rating"":99.78524396196691,""responseTime"":1.3669000000060123}]",space,1.877,,976.8414,Not at all,0,976.8423,,,[],,0,12,12,12,1,audio/Narrative8Situation3.wav,audio/Narrative7Situation3.wav,audio/Narrative6Situation3.wav,audio/Narrative5Situation3.wav,4,8,5,3,,,,,,,,,,,,,,,,,,,,,,,,,,,,,,,,,,,,,,,
,,,,,,63d9f41910c61f3eb102079f,2024-02-08_15h31.40.251,group3.1-3.2-social-tom,2023.2.2,Win32,163.9344262,65c5074098b851296ff0b7ed,65c542a934a2d1565b94f178,,,,,,,,,,,,,,,,,,,,,,,,,,,,,976.8424,2,audio/Narrative5Situation4.wav,977.8443,,977.8444,998.2192,"[[95.3,766],[72,851],[57.1,936],[49.9,1021],[47.3,1106],[47.3,1190],[48.3,1275],[49.4,1356],[49.4,1441],[49.4,1530],[49.4,1615],[49.4,1700],[49.4,1784],[49.4,1865],[49.4,1954],[49.4,2035],[49.4,2120],[49.4,2205],[49.4,2293],[49.4,2376],[49.4,2459],[49.4,2548],[49.4,2630],[49.4,2713],[49.4,2801],[49.4,2884],[49.4,2969],[49.4,3060],[49.4,3147],[49.4,3231],[49.4,3315],[49.4,3402],[49.4,3486],[49.4,3568],[49.4,3657],[49.4,3738],[49.4,3823],[49.4,3908],[49.4,3996],[49.4,4080],[49.4,4166],[49.4,4247],[49.4,4333],[49.4,4418],[49.4,4503],[49.4,4591],[49.4,4671],[49.4,4756],[49.4,4841],[49.4,4930],[49.4,5010],[49.4,5095],[49.4,5180],[49.4,5269],[49.4,5350],[49.4,5437],[49.4,5520],[49.4,5608],[49.4,5691],[49.4,5775],[49.4,5860],[49.4,5944],[49.4,6030],[49.4,6114],[49.4,6202],[49.4,6284],[49.4,6369],[49.4,6455],[49.4,6542],[49.4,6623],[49.4,6708],[49.4,6792],[49.4,6881],[49.4,6962],[49.4,7048],[49.4,7132],[49.4,7216],[49.4,7305],[49.4,7387],[49.4,7474],[49.4,7560],[49.4,7645],[49.4,7729],[49.4,7814],[49.4,7899],[49.4,7981],[49.4,8066],[49.4,8154],[49.4,8235],[49.4,8320],[49.4,8404],[49.4,8493],[49.4,8574],[49.4,8659],[49.4,8745],[49.4,8829],[49.4,8917],[49.4,8998],[49.4,9083],[49.4,9169],[49.4,9253],[49.4,9340],[49.4,9423],[49.4,9508],[49.4,9596],[49.4,9678],[49.4,9766],[49.4,9851],[49.4,9936],[49.4,10021],[49.4,10101],[49.4,10187],[49.4,10271],[49.4,10356],[49.4,10445],[49.4,10527],[49.4,10614],[49.4,10695],[49.4,10780],[49.4,10869],[49.4,10950],[49.4,11039],[49.4,11123],[49.4,11208],[49.4,11290],[49.4,11374],[49.4,11460],[49.4,11544],[49.4,11633],[49.4,11714],[49.4,11799],[49.4,11883],[49.4,11972],[49.5,12059],[49.5,12144],[49.5,12230],[49.5,12318],[49.5,12399],[49.5,12484],[49.5,12568],[49.5,12653],[49.5,12738],[49.5,12822],[49.5,12909],[49.5,12993],[49.5,13081],[49.5,13163],[49.5,13249],[49.5,13332],[49.5,13422],[49.5,13507],[49.5,13592],[49.5,13678],[49.5,13762],[49.5,13850],[49.5,13935],[49.5,14016],[49.5,14101],[49.5,14190],[49.5,14271],[49.5,14357],[49.5,14444],[49.5,14527],[49.5,14611],[49.5,14699],[49.5,14780],[49.5,14869],[49.5,14951],[49.8,15036],[54,15124],[58.3,15208],[62.2,15293],[67.1,15378],[71.9,15463],[77.2,15548],[80.9,15633],[81,15713],[81,15802],[93.2,15887],[100,15972],[100,16053],[100,16138],[100,16227],[100,16311],[100,16392],[100,16481],[100,16562],[100,16647],[100,16732],[100,16816],[100,16905],[100,16986],[100,17071],[100,17160],[100,17242],[100,17327],[100,17415],[100,17495],[100,17583],[100,17665],[100,17754],[100,17836],[100,17923],[100,18004],[100,18089],[100,18174],[100,18263],[100,18344],[100,18429],[100,18513],[100,18600],[100,18683],[100,18768],[100,18852],[100,18937],[100,19022],[100,19111],[100,19192],[100,19277],[100,19361],[100,19447],[100,19535],[100,19621],[100,19701],[100,19790],[100,19871],[100,19960],[100,20041],[100,20129],[100,20211],[100,20299]]",1,0,998.2194,1000.7686,100,1.8891,"[{""rating"":98.77000604126478,""responseTime"":1.1513000000119291},{""rating"":100,""responseTime"":1.8890999999939595}]",space,2.0359,,1000.7687,Partially,50,1000.77,,,[],,0,13,13,13,1,audio/Narrative8Situation4.wav,audio/Narrative7Situation4.wav,audio/Narrative6Situation4.wav,audio/Narrative5Situation4.wav,3,3,2,1,,,,,,,,,,,,,,,,,,,,,,,,,,,,,,,,,,,,,,,
,,,,,,63d9f41910c61f3eb102079f,2024-02-08_15h31.40.251,group3.1-3.2-social-tom,2023.2.2,Win32,163.9344262,65c5074098b851296ff0b7ed,65c542a934a2d1565b94f178,,,,,,,,,,,,,,,,,,,,,,,,,,,,,1000.7702,2,audio/Narrative5Situation5.wav,1005.774,,1005.774,1021.18,"[[999,5],[999,92],[999,181],[999,266],[999,347],[999,433],[999,517],[999,605],[999,690],[999,774],[999,856],[999,943],[999,1026],[999,1111],[999,1196],[999,1283],[999,1369],[999,1450],[999,1539],[999,1623],[999,1705],[999,1792],[999,1878],[999,1959],[999,2048],[999,2130],[999,2214],[999,2299],[999,2384],[99,2475],[99,2559],[99,2644],[99,2733],[99,2814],[99,2899],[99.1,2988],[99.3,3069],[99.3,3153],[99.3,3238],[99.3,3323],[99.3,3408],[99.3,3492],[99.3,3577],[99.3,3662],[99.3,3747],[99.3,3832],[99.3,3917],[99.3,4002],[99.3,4090],[99.3,4171],[99.4,4260],[99.4,4341],[99.4,4426],[99.4,4511],[99.4,4596],[99.4,4680],[99.4,4767],[99.4,4854],[99.4,4935],[99.4,5020],[99.4,5105],[99.4,5189],[99.4,5274],[99.4,5361],[99.4,5444],[99.4,5533],[99.4,5618],[99.4,5703],[99.4,5788],[99.4,5868],[99.4,5953],[99.5,6043],[98.3,6126],[81.8,6212],[66.5,6297],[51.3,6381],[26.9,6468],[11.6,6557],[11.5,6639],[11.5,6723],[11.5,6807],[11.5,6892],[10.9,6982],[10.1,7062],[9,7151],[5.2,7236],[2.4,7321],[1,7406],[0.9,7487],[0.5,7575],[0.5,7656],[0.5,7741],[0.5,7827],[0.5,7913],[0.5,7997],[0.5,8081],[0.5,8166],[0.5,8250],[0.5,8335],[0.5,8420],[0.5,8506],[0.5,8589],[0.5,8674],[0.5,8760],[0.5,8844],[0.5,8929],[0.5,9017],[0.5,9099],[0.5,9185],[0.5,9270],[0.5,9357],[0.5,9439],[0.5,9527],[0.5,9608],[0.5,9695],[0.5,9781],[0.5,9862],[0.5,9948],[0.5,10036],[0.5,10117],[0.5,10201],[0.5,10290],[0.5,10372],[0.5,10457],[0.5,10541],[0.5,10626],[0.5,10712],[0.5,10797],[0.5,10880],[0.5,10965],[0.5,11054],[0.5,11135],[0.5,11221],[0.5,11305],[0.5,11394],[0.5,11478],[0.5,11563],[0.5,11644],[0.5,11729],[0.5,11818],[0.5,11898],[0.5,11984],[0.5,12072],[0.5,12154],[0.5,12242],[0.5,12323],[0.5,12412],[0.5,12493],[0.5,12579],[0.5,12662],[0.5,12747],[0.5,12832],[0.5,12918],[0.5,13001],[0.5,13090],[0.5,13175],[0.5,13256],[0.5,13341],[0.5,13426],[0.5,13512],[0.5,13599],[0.5,13685],[0.5,13769],[0.5,13850],[0.5,13938],[0.5,14020],[0.5,14105],[10.2,14200],[28.4,14285],[30.8,14365],[30.8,14450],[28.7,14539],[15.5,14623],[1.4,14709]]",1,0,1021.1801,1024.9334,0.214760328,2.0301,"[{""rating"":0.21476032789162214,""responseTime"":2.030100000023822}]",space,3.2336,,1024.9335,Definitely yes,100,1024.9359,,,[],,0,14,14,14,1,audio/Narrative8Situation5.wav,audio/Narrative7Situation5.wav,audio/Narrative6Situation5.wav,audio/Narrative5Situation5.wav,2,5,2,5,,,,,,,,,,,,,,,,,,,,,,,,,,,,,,,,,,,,,,,
,,,,,,63d9f41910c61f3eb102079f,2024-02-08_15h31.40.251,group3.1-3.2-social-tom,2023.2.2,Win32,163.9344262,65c5074098b851296ff0b7ed,65c542a934a2d1565b94f178,,,,,,,,,,,,,,,,,,,,,,,,,,,,,1024.936,2,audio/Narrative5Situation6.wav,1027.9375,,1027.9375,1033.5915,"[[45.1,81],[45.1,165],[45.1,250],[47.6,339],[48.2,420],[48.2,505],[48.2,594],[48.2,674],[48.1,759],[48,844],[48,933],[48,1014],[48,1098],[48,1185],[48,1268],[48,1356],[48,1438],[48,1523],[48,1608],[48,1692],[48,1777],[48,1866],[48,1951],[48,2032],[48,2117],[48,2201],[48,2290],[48,2375],[48,2456],[48,2543],[48,2627],[48,2714],[48,2797],[48,2880],[48,2965],[48,3050],[48,3136],[48,3223],[48,3309],[48,3393],[48,3474],[48,3563],[48,3645],[48,3732],[48,3814],[48,3899],[48,3987],[48,4072],[48,4153],[48,4238],[48,4323],[48,4407],[48,4493],[48,4577],[48,4665],[48,4747],[48,4833],[48,4922],[48,5001],[48,5086],[48,5171],[48,5256],[48,5342],[47.2,5435],[46.6,5519],[46.6,5602]]",1,0,1033.5916,1037.8283,49.64857336,3.5776,"[{""rating"":49.64857335892606,""responseTime"":3.577600000023722}]",space,3.7219,,1037.8283,Not at all,0,1037.8295,,,[],,0,15,15,15,1,audio/Narrative8Situation6.wav,audio/Narrative7Situation6.wav,audio/Narrative6Situation6.wav,audio/Narrative5Situation6.wav,2,3,2,3,,,,,,,,,,,,,,,,,,,,,,,,,,,,,,,,,,,,,,,
,,,,,,63d9f41910c61f3eb102079f,2024-02-08_15h31.40.251,group3.1-3.2-social-tom,2023.2.2,Win32,163.9344262,65c5074098b851296ff0b7ed,65c542a934a2d1565b94f178,,,,,,,,,,,,,,,,,,,,,,,,,,,,,1037.8297,2,audio/Narrative5Situation7.wav,1041.8305,,1041.8306,1062.8498,"[[50.7,1112],[49.7,1194],[49.4,1282],[49.4,1363],[49.4,1452],[49.4,1539],[49.4,1627],[49.4,1714],[49.4,1799],[49.4,1884],[49.4,1969],[49.4,2054],[49.4,2141],[49.4,2227],[49.4,2308],[49.4,2397],[49.4,2481],[49.4,2563],[49.4,2647],[49.4,2733],[49.4,2817],[49.4,2902],[49.4,2987],[49.4,3072],[49.4,3157],[49.4,3245],[49.4,3326],[49.4,3413],[49.4,3496],[49.4,3582],[49.4,3667],[49.4,3755],[49.4,3839],[49.2,3920],[47.1,4009],[44.5,4092],[42.6,4179],[40.3,4263],[37,4348],[32.4,4433],[28.3,4519],[26.5,4601],[26.1,4686],[25.1,4773],[23.7,4856],[23.3,4939],[23,5023],[23,5109],[23,5196],[23,5278],[23,5363],[23,5451],[23,5536],[23,5617],[23,5702],[23,5787],[23,5873],[23,5960],[23,6041],[23,6126],[23,6215],[23,6300],[23,6381],[23,6465],[23,6552],[23,6636],[23,6720],[23,6806],[23,6890],[23,6979],[23,7064],[22.8,7144],[22.3,7234],[21.9,7316],[21.6,7403],[21.4,7485],[21.1,7573],[20.7,7655],[20.6,7738],[20.4,7823],[20.1,7912],[19.9,7997],[19.8,8077],[19.8,8163],[19.8,8247],[19.8,8335],[19.8,8417],[19.8,8502],[19.8,8587],[19.8,8675],[19.8,8758],[19.8,8845],[19.8,8926],[19.8,9015],[19.8,9100],[19.8,9185],[19.8,9266],[19.8,9352],[19.8,9435],[19.8,9522],[19.8,9609],[19.8,9691],[19.8,9775],[19.8,9859],[19.8,9948],[19.8,10029],[19.8,10118],[19.8,10199],[19.8,10287],[19.8,10368],[19.8,10457],[19.8,10541],[19.8,10627],[19.8,10708],[19.8,10792],[19.8,10877],[19.8,10966],[19.8,11048],[19.8,11134],[19.8,11217],[19.8,11306],[19.8,11390],[19.8,11475],[19.8,11558],[19.8,11641],[19.8,11728],[19.8,11814],[19.8,11900],[19.8,11989],[20,12072],[20,12157],[20,12244],[20,12330],[20,12411],[20,12496],[20,12580],[20,12670],[20,12751],[20,12838],[20,12923],[20,13009],[20,13094],[20,13178],[20,13259],[20,13344],[20,13430],[20,13514],[20,13601],[20,13684],[20,13772],[20,13854],[20,13938],[20,14023],[20,14109],[20,14196],[20,14280],[20,14362],[20,14451],[20,14536],[20,14618],[20,14702],[20,14788],[20,14872],[20,14956],[20,15042],[20,15126],[20,15211],[20,15296],[20,15384],[20,15466],[20,15555],[20,15639],[20,15720],[20,15809],[20,15892],[20,15975],[20,16064],[20,16144],[20.1,16229],[20.1,16321],[20.1,16405],[20.1,16493],[20.1,16574],[20.1,16663],[20.1,16746],[20.1,16830],[20.1,16914],[20.1,16999],[20.1,17086],[20.1,17168],[20.1,17257],[20.1,17342],[20.1,17427],[20.1,17512],[20.1,17593],[20.1,17682],[20.1,17762],[20.1,17851],[20.1,17936],[20.1,18021],[20.1,18102],[20.1,18188],[20.1,18271],[20.1,18357],[20.1,18445],[20.2,18533],[20.4,18617],[20.5,18702],[20.5,18790],[20.5,18871],[20.5,18956],[20.5,19045],[20.5,19126],[20.5,19211],[20.5,19296],[20.5,19382],[20.5,19470],[20.5,19551],[20.5,19636],[20.5,19720],[20.5,19809],[20.5,19890],[20.5,19976],[20.5,20061],[20.5,20148],[20.5,20232],[20.5,20314],[20.5,20399],[20.5,20483],[20.5,20569],[20.5,20653],[20.5,20739],[20.5,20827],[20.5,20908],[20.5,20995]]",1,0,1062.8501,1066.5244,2.010931246,2.1843,"[{""rating"":2.010931245922487,""responseTime"":2.1843000000119446}]",space,3.1608,,1066.5244,Not at all,0,1066.5252,,,[],,0,16,16,16,1,audio/Narrative8Situation7.wav,audio/Narrative7Situation7.wav,audio/Narrative6Situation7.wav,audio/Narrative5Situation7.wav,3,5,5,4,,,,,,,,,,,,,,,,,,,,,,,,,,,,,,,,,,,,,,,
,,,,,,63d9f41910c61f3eb102079f,2024-02-08_15h31.40.251,group3.1-3.2-social-tom,2023.2.2,Win32,163.9344262,65c5074098b851296ff0b7ed,65c542a934a2d1565b94f178,,,,,,,,,,,,,,,,,,,,,,,,,,,,,1066.5253,2,audio/Narrative5Situation8.wav,1069.5268,,1069.5268,1078.3365,"[[43.5,255],[43.5,342],[43.5,425],[43.7,512],[43.7,597],[44.1,682],[48.1,1272],[48.1,1358],[48.1,1442],[48.1,1530],[48.1,1611],[48.1,1697],[48.1,1781],[48.1,1867],[48.1,1952],[48.1,2037],[48.1,2124],[48.1,2208],[48.1,2290],[48.1,2379],[48.1,2464],[48.1,2545],[48,2630],[48,2718],[48,2799],[48,2884],[48,2970],[48,3054],[48,3143],[48,3224],[47.9,3308],[47.9,3393],[47.9,3479],[47.9,3567],[47.9,3648],[47.8,3737],[47.8,3820],[47.8,3906],[47.8,3990],[47.8,4076],[47.8,4161],[47.8,4242],[47.8,4326],[47.8,4413],[47.8,4500],[47.8,4581],[47.8,4668],[47.8,4751],[47.8,4836],[47.8,4923],[47.8,5006],[47.8,5092],[47.8,5176],[47.8,5260],[47.8,5348],[47.8,5429],[47.8,5518],[47.8,5603],[47.8,5684],[47.8,5769],[47.8,5857],[47.8,5941],[47.8,6024],[47.8,6112],[47.8,6196],[47.8,6279],[47.8,6367],[47.8,6448],[47.8,6533],[47.8,6617],[47.8,6702],[47.8,6791],[47.8,6872],[47.8,6957],[47.8,7042],[47.8,7126],[47.8,7211],[47.8,7298],[47.8,7382],[47.8,7466],[47.8,7550],[47.8,7636],[47.8,7721],[47.8,7805],[47.8,7894],[47.8,7975],[47.8,8059],[47.8,8149],[47.8,8234],[47.8,8315],[47.8,8399],[47.8,8484],[47.8,8569],[47.8,8654],[47.6,8743]]",1,0,1078.3366,1081.8517,1.151894224,3.0376,"[{""rating"":1.1518942242145502,""responseTime"":3.0376000000239856}]",space,3.0004,,1081.8517,Definitely yes,100,1081.8529,,,[],,0,17,17,17,1,audio/Narrative8Situation8.wav,audio/Narrative7Situation8.wav,audio/Narrative6Situation8.wav,audio/Narrative5Situation8.wav,3,2,5,3,,,,,,,,,,,,,,,,,,,,,,,,,,,,,,,,,,,,,,,
,,,,,,63d9f41910c61f3eb102079f,2024-02-08_15h31.40.251,group3.1-3.2-social-tom,2023.2.2,Win32,163.9344262,65c5074098b851296ff0b7ed,65c542a934a2d1565b94f178,,,,,,,,,,,,,,,,,,,,,,,,,,,,,1081.853,2,audio/Narrative5Situation9.wav,1084.8537,,1084.8538,1124.3779,"[[27.9,2975],[27.9,3061],[27.9,3149],[27.7,3234],[27.7,3318],[27.7,3400],[27.7,3484],[27.7,3569],[27.7,3655],[27.7,3740],[27.7,3823],[27.7,3909],[27.7,3993],[27.7,4078],[27.7,4165],[27.7,4252],[27.7,4336],[27.7,4421],[27.7,4507],[27.7,4589],[27.7,4673],[27.7,4758],[27.7,4846],[27.7,4929],[27.7,5016],[27.7,5097],[27.7,5185],[27.7,5270],[27.7,5355],[27.7,5440],[27.7,5521],[27.7,5605],[27.7,5695],[27.7,5782],[27.7,5866],[27.7,5951],[27.7,6035],[27.7,6124],[27.7,6205],[27.7,6294],[27.7,6377],[27.7,6464],[27.7,6546],[27.7,6629],[27.7,6714],[27.7,6803],[27.7,6884],[27.7,6969],[27.7,7054],[27.7,7139],[27.7,7225],[27.7,7312],[27.7,7394],[27.7,7478],[27.7,7567],[27.7,7648],[27.7,7734],[27.7,7822],[27.7,7902],[27.7,7988],[27.7,8072],[27.7,8160],[27.7,8241],[27.7,8326],[27.7,8411],[27.7,8497],[27.7,8583],[27.7,8669],[27.7,8752],[27.7,8840],[27.7,8920],[27.7,9007],[27.7,9090],[27.7,9179],[27.7,9260],[27.7,9346],[27.7,9429],[27.7,9518],[27.7,9599],[27.7,9688],[27.7,9769],[27.7,9855],[27.7,9938],[27.7,10027],[27.7,10108],[27.7,10193],[27.7,10278],[27.7,10363],[27.7,10447],[27.7,10534],[27.6,10627],[27.3,10708],[27.2,10793],[27.2,10878],[28.3,10968],[35.6,11048],[44.7,11132],[47.5,11217],[48.7,11302],[50.1,11387],[51.4,11472],[51.4,11557],[50.8,11642],[50.1,11726],[49.4,11811],[49.2,11896],[48.7,11981],[48.6,12066],[48.5,12151],[48.3,12235],[48.3,12320],[48.3,12405],[48.3,12490],[48.3,12575],[48.4,12659],[48.9,12745],[49.1,12829],[49.1,12914],[49.1,12999],[49.1,13084],[49.6,13169],[49.6,13254],[49.6,13338],[49.6,13423],[49.6,13508],[49.6,13593],[49.6,13678],[49.6,13762],[49.6,13847],[49.6,13932],[49.6,14017],[49.6,14102],[49.6,14187],[49.6,14272],[49.6,14357],[49.6,14441],[49.6,14526],[49.6,14611],[49.6,14696],[49.6,14781],[49.6,14866],[49.6,14950],[49.6,15035],[49.6,15120],[49.6,15205],[49.6,15290],[49.6,15375],[49.6,15460],[49.6,15544],[49.6,15629],[49.6,15714],[49.6,15800],[49.6,15884],[49.6,15969],[49.6,16053],[49.6,16138],[49.6,16223],[49.6,16308],[49.6,16393],[49.6,16478],[49.6,16562],[49.6,16647],[49.6,16732],[49.6,16817],[49.6,16902],[49.6,16987],[49.6,17072],[49.6,17157],[49.6,17241],[49.6,17326],[49.6,17411],[49.6,17496],[49.6,17581],[49.6,17666],[49.6,17751],[49.6,17835],[49.6,17920],[49.6,18005],[49.6,18090],[49.6,18175],[52.4,18259],[58.5,18344],[62.6,18429],[65,18514],[66.9,18599],[66.9,18684],[66.9,18769],[66.5,18853],[66.1,18939],[66.1,19023],[67.9,19108],[68.3,19193],[68.3,19278],[68.3,19362],[69.9,19448],[70.7,19532],[70.7,19617],[70.7,19702],[70.3,19787],[69.8,19872],[69.7,19957],[69.7,20041],[69.6,20126],[69.6,20211],[69.6,20296],[69.6,20381],[69.6,20466],[69.6,20551],[69.6,20635],[69.6,20720],[69.6,20805],[69.6,20890],[69.6,20975],[69.6,21059],[69.6,21144],[69.6,21230],[69.6,21314],[69.6,21399],[69.6,21484],[69.6,21569],[69.6,21653],[69.6,21738],[69.6,21823],[69.6,21908],[69.6,21993],[69.6,22078],[69.6,22163],[69.6,22247],[69.6,22332],[69.6,22417],[69.6,22502],[69.6,22587],[69.6,22672],[69.6,22757],[69.6,22841],[69.6,22926],[69.6,23011],[69.6,23096],[69.6,23181],[69.6,23266],[69.6,23351],[69.6,23436],[69.6,23520],[69.6,23605],[69.6,23690],[69.6,23775],[69.6,23860],[69.6,23944],[69.6,24029],[69.6,24114],[69.6,24199],[69.6,24284],[69.6,24368],[69.6,24453],[69.6,24538],[69.6,24623],[69.6,24708],[69.6,24793],[69.6,24878],[69.6,24962],[69.6,25047],[69.6,25132],[69.6,25217],[69.6,25302],[69.6,25386],[69.6,25471],[69.6,25556],[69.6,25641],[69.6,25726],[69.6,25811],[69.6,25896],[69.6,25981],[69.6,26065],[69.6,26150],[69.6,26235],[69.6,26320],[69.6,26405],[69.6,26490],[69.6,26575],[69.6,26659],[69.6,26744],[69.6,26829],[69.6,26914],[69.6,27004],[69.6,27102],[69.6,27196],[69.6,27280],[69.6,27366],[69.6,27447],[69.6,27532],[69.6,27621],[69.6,27702],[69.6,27790],[69.6,27875],[69.6,27957],[69.6,28041],[69.6,28126],[69.6,28211],[69.6,28300],[69.6,28380],[69.6,28465],[69.6,28553],[69.6,28636],[69.6,28724],[69.6,28805],[69.6,28890],[69.6,28974],[69.6,29063],[69.8,29576],[70.2,29664],[70.4,29746],[70.4,29831],[70.4,29914],[70.4,29999],[70.4,30084],[70.4,30168],[70.4,30257],[70.4,30342],[70.4,30423],[70.4,30509],[70.4,30594],[70.3,30677],[70.2,30766],[70.2,30847],[73.4,30936],[78.6,31021],[87.2,31106],[93.3,31191],[100,31275],[100,31362],[100,31445],[100,31530],[100,31614],[100,31695],[100,31781],[100,31870],[100,31950],[100,32037],[100,32123],[100,32208],[100,32293],[100,32376],[100,32463],[100,32544],[100,32629],[100,32718],[100,32802],[100,32883],[100,32968],[100,33053],[100,33138],[100,33223],[100,33308],[100,33395],[100,33478],[100,33567],[100,33648],[100,33736],[100,33817],[100,33902],[100,33990],[100,34073],[100,34159],[100,34241],[100,34326],[100,34415],[100,34500],[100,34585],[100,34665],[100,34750],[100,34836],[100,34921],[100,35007],[100,35089],[100,35178],[100,35264],[100,35344],[100,35433],[100,35518],[100,35603],[100,35685],[100,35773],[100,35853],[100,35940],[100,36027],[100,36107],[100,36192],[100,36281],[100,36364],[100,36451],[100,36536],[100,36619],[100,36706],[100,36790],[100,36871],[100,36957],[100,37045],[100,37130],[100,37215],[100,37296],[100,37384],[100,37465],[100,37551],[100,37639],[100,37720],[100,37806],[100,37890],[100,37975],[100,38061],[100,38144],[100,38229],[100,38314],[100,38399],[100,38487],[100,38572],[100,38653],[100,38738],[100,38827],[100,38912],[100,38997],[100,39081],[100,39165],[100,39250],[100,39332],[100,39420],[100,39502]]",1,0,1124.378,1126.4696,99.70713994,1.1403,"[{""rating"":99.70713993758771,""responseTime"":1.1403000000120755}]",space,1.5732,,1126.4696,Partially,50,1126.4709,,,[],,0,18,18,18,1,audio/Narrative8Situation9.wav,audio/Narrative7Situation9.wav,audio/Narrative6Situation9.wav,audio/Narrative5Situation9.wav,3,2,4,3,,,,,,,,,,,,,,,,,,,,,,,,,,,,,,,,,,,,,,,
,,,,,,63d9f41910c61f3eb102079f,2024-02-08_15h31.40.251,group3.1-3.2-social-tom,2023.2.2,Win32,163.9344262,65c5074098b851296ff0b7ed,65c542a934a2d1565b94f178,,,,,,,,,,,,,,,,,,,,,,,,,,,,,,,,,,,,,,,,,,,,,,,,,,,,,,,,,,,,,,,,,,,,,,,,1126.471,1128.6018,space,1.624,,1128.6019,1148.599,space,19.6823,,,,,,,,,,,,,,,,,,,,,,,,,,
