exp_question,consent.started,consent.stopped,consentResponse.keys,consentResponse.rt,consentResponse.duration,participantID,date,expName,psychopyVersion,OS,frameRate,STUDY_ID,SESSION_ID,opening1.started,opening1.stopped,keyEndingOpening1.keys,keyEndingOpening1.rt,keyEndingOpening1.duration,volumeAdjust.started,volumeAdjust.stopped,endingAdjust.keys,endingAdjust.rt,endingAdjust.duration,opening2.started,opening2.stopped,keyEndingOpening.keys,keyEndingOpening.rt,keyEndingOpening.duration,mouse.x,mouse.y,mouse.leftButton,mouse.midButton,mouse.rightButton,mouse.time,instructionLoop.thisRepN,instructionLoop.thisTrialN,instructionLoop.thisN,instructionLoop.thisIndex,instructionLoop.ran,readyForAudio.started,readyForAudio.stopped,fixation.started,run,audio_played,fixation.stopped,endPractice.keys,audioPre.started,audioPre.stopped,continuousResponses_audio,continuousSlider.response,continuousSlider.rt,intRating.started,intRating.stopped,intQuestionSlider.response,intQuestionSlider.rt,intQuestionSlider.history,confirmResponse.keys,confirmResponse.rt,confirmResponse.duration,catchQuestion.started,catch_label,catch_value,catchQuestion.stopped,catchQuestionSlider.response,catchQuestionSlider.rt,catchQuestionSlider.history,confirmResponse_2.keys,audioRunLoop.thisRepN,audioRunLoop.thisTrialN,audioRunLoop.thisN,audioRunLoop.thisIndex,audioRunLoop.ran,conditions1_1,conditions2_1,conditions1_2,conditions2_2,dur1_1,dur2_1,dur1_2,dur2_2,endPractice.rt,endPractice.duration,confirmResponse_2.rt,confirmResponse_2.duration,runIntervalBreak.started,runIntervalBreak.stopped,endingBreakKey.keys,endingBreakKey.rt,endingBreakKey.duration,connection.started,connection.stopped,connectionEnding.keys,connectionEnding.rt,connectionEnding.duration,readyForText.started,readyForText.stopped,textPre.started,run_dup,textPre.stopped,continuousResponses_text,textRunLoop.thisRepN,textRunLoop.thisTrialN,textRunLoop.thisN,textRunLoop.thisIndex,textRunLoop.ran,text1_1,text1_2,text2_1,text2_2,runBreakText.started,runBreakText.stopped,endingBreakKey_2.keys,endingBreakKey_2.rt,endingBreakKey_2.duration,ending.started,ending.stopped,endingEnding.keys,endingEnding.rt,endingEnding.duration
social,0.0005,14.1223,y,13.8001,,63eba3f11d699385d1d4075d,2024-05-13_10h55.13.181,group3.1-3.2-social-tom,2023.2.2,MacIntel,59.52380952,65c5074098b851296ff0b7ed,6642375c79e5a7ce5fef947f,,,,,,,,,,,,,,,,,,,,,,,,,,,,,,,,,,,,,,,,,,,,,,,,,,,,,,,,,,,,,,,,,,,,,,,,,,,,,,,,,,,,,,,,,,,,,,,,,,,,,,,,,,
,,,,,,63eba3f11d699385d1d4075d,2024-05-13_10h55.13.181,group3.1-3.2-social-tom,2023.2.2,MacIntel,59.52380952,65c5074098b851296ff0b7ed,6642375c79e5a7ce5fef947f,14.1227,21.456,space,7.3005,,,,,,,,,,,,,,,,,,,,,,,,,,,,,,,,,,,,,,,,,,,,,,,,,,,,,,,,,,,,,,,,,,,,,,,,,,,,,,,,,,,,,,,,,,,,,,,,,,,,,,
,,,,,,63eba3f11d699385d1d4075d,2024-05-13_10h55.13.181,group3.1-3.2-social-tom,2023.2.2,MacIntel,59.52380952,65c5074098b851296ff0b7ed,6642375c79e5a7ce5fef947f,,,,,,21.4561,32.7721,space,10.9842,,,,,,,,,,,,,,,,,,,,,,,,,,,,,,,,,,,,,,,,,,,,,,,,,,,,,,,,,,,,,,,,,,,,,,,,,,,,,,,,,,,,,,,,,,,,,,,,,
,,,,,,63eba3f11d699385d1d4075d,2024-05-13_10h55.13.181,group3.1-3.2-social-tom,2023.2.2,MacIntel,59.52380952,65c5074098b851296ff0b7ed,6642375c79e5a7ce5fef947f,,,,,,,,,,,32.7752,49.5564,space,16.76,,[],[],[],[],[],[],0,0,0,0,1,,,,,,,,,,,,,,,,,,,,,,,,,,,,,,,,,,,,,,,,,,,,,,,,,,,,,,,,,,,,,,,,,,,,,,,,,,,,,,,,
,,,,,,63eba3f11d699385d1d4075d,2024-05-13_10h55.13.181,group3.1-3.2-social-tom,2023.2.2,MacIntel,59.52380952,65c5074098b851296ff0b7ed,6642375c79e5a7ce5fef947f,,,,,,,,,,,49.569,68.6716,space,19.0043,,[],[],[],[],[],[],1,0,1,0,1,,,,,,,,,,,,,,,,,,,,,,,,,,,,,,,,,,,,,,,,,,,,,,,,,,,,,,,,,,,,,,,,,,,,,,,,,,,,,,,,
,,,,,,63eba3f11d699385d1d4075d,2024-05-13_10h55.13.181,group3.1-3.2-social-tom,2023.2.2,MacIntel,59.52380952,65c5074098b851296ff0b7ed,6642375c79e5a7ce5fef947f,,,,,,,,,,,68.6811,86.8383,space,18.115,,[],[],[],[],[],[],2,0,2,0,1,,,,,,,,,,,,,,,,,,,,,,,,,,,,,,,,,,,,,,,,,,,,,,,,,,,,,,,,,,,,,,,,,,,,,,,,,,,,,,,,
,,,,,,63eba3f11d699385d1d4075d,2024-05-13_10h55.13.181,group3.1-3.2-social-tom,2023.2.2,MacIntel,59.52380952,65c5074098b851296ff0b7ed,6642375c79e5a7ce5fef947f,,,,,,,,,,,86.8501,114.8883,space,28.0208,,[],[],[],[],[],[],3,0,3,0,1,,,,,,,,,,,,,,,,,,,,,,,,,,,,,,,,,,,,,,,,,,,,,,,,,,,,,,,,,,,,,,,,,,,,,,,,,,,,,,,,
,,,,,,63eba3f11d699385d1d4075d,2024-05-13_10h55.13.181,group3.1-3.2-social-tom,2023.2.2,MacIntel,59.52380952,65c5074098b851296ff0b7ed,6642375c79e5a7ce5fef947f,,,,,,,,,,,114.8979,132.6882,space,17.7767,,[],[],[],[],[],[],4,0,4,0,1,,,,,,,,,,,,,,,,,,,,,,,,,,,,,,,,,,,,,,,,,,,,,,,,,,,,,,,,,,,,,,,,,,,,,,,,,,,,,,,,
,,,,,,63eba3f11d699385d1d4075d,2024-05-13_10h55.13.181,group3.1-3.2-social-tom,2023.2.2,MacIntel,59.52380952,65c5074098b851296ff0b7ed,6642375c79e5a7ce5fef947f,,,,,,,,,,,,,,,,,,,,,,,,,,,132.6997,135.2726,135.2989,1,audio/Narrative13Situation2.wav,137.3059,,137.3062,167.0569,"[[999,2],[999,115],[999,199],[999,282],[999,365],[999,448],[999,531],[999,615],[999,699],[999,782],[999,864],[999,948],[999,1065],[999,1131],[999,1216],[999,1299],[999,1382],[999,1465],[999,1549],[999,1632],[999,1716],[999,1798],[999,1882],[999,1965],[999,2049],[999,2132],[999,2215],[999,2299],[999,2382],[999,2465],[38.6,2549],[29.5,2632],[20.7,2715],[19.1,2799],[16.2,2882],[11.5,2966],[10.2,3048],[10.1,3132],[10.1,3216],[10.1,3298],[10.1,3382],[10,3465],[9.7,3549],[8.6,3633],[7.8,3716],[7.3,3798],[6.9,3882],[6.9,3965],[6.9,4049],[6.9,4131],[6.9,4215],[6.9,4299],[6,4382],[4,4465],[3.9,4549],[3.1,4632],[3,4715],[3,4799],[3,4882],[3,4966],[3,5049],[2.8,5131],[2.8,5216],[2.8,5298],[2.8,5381],[2.8,5465],[2.8,5549],[2.8,5632],[2.8,5716],[2.8,5799],[2.8,5882],[2.8,5965],[2.8,6049],[2.8,6132],[2.8,6216],[2.8,6299],[2.8,6382],[2.8,6466],[2.8,6549],[2.8,6631],[2.8,6715],[2.8,6799],[2.8,6882],[2.8,6966],[2.8,7049],[2.8,7132],[2.8,7216],[2.8,7299],[2.8,7382],[2.8,7465],[2.8,7549],[2.8,7632],[2.8,7716],[2.8,7798],[2.8,7882],[2.8,7966],[2.8,8048],[2.8,8132],[2.8,8215],[2.8,8299],[2.8,8382],[2.8,8465],[2.8,8549],[2.8,8632],[2.8,8715],[2.8,8799],[11.7,8882],[40.5,8966],[68,9049],[77.2,9132],[85.5,9216],[91,9299],[95,9382],[99.2,9466],[99.2,9549],[99.2,9632],[99.2,9716],[99,9798],[98.8,9882],[98.8,9966],[98.8,10048],[98.8,10131],[98.8,10315],[98.4,10399],[97.8,10482],[97.3,10565],[97,10649],[96.7,10732],[96.7,10815],[96.7,10898],[96.7,10981],[96.7,11066],[96.7,11148],[96.7,11232],[96.7,11315],[96.7,11398],[96.7,11482],[96.7,11565],[96.7,11649],[96.7,11732],[96.7,11815],[96.7,11898],[96.7,11982],[96.7,12065],[96.7,12148],[96.7,12232],[96.7,12315],[96.7,12399],[96.7,12482],[96.7,12566],[96.7,12649],[96.7,12731],[96.7,12816],[96.7,12898],[96.7,12982],[96.7,13066],[96.7,13148],[96.7,13232],[96.7,13315],[96.7,13398],[96.7,13482],[96.7,13566],[96.7,13648],[96.7,13732],[96.7,13816],[96.7,13899],[96.7,13982],[96.7,14065],[96.7,14148],[96.7,14231],[96.7,14315],[96.7,14399],[96.7,14482],[96.7,14566],[96.7,14649],[96.7,14731],[96.7,14815],[96.7,14899],[96.7,14982],[96.7,15066],[96.7,15148],[96.7,15232],[96.7,15316],[96.7,15399],[96.7,15482],[96.7,15565],[96.7,15653],[96.7,15732],[96.7,15816],[96.7,15899],[96.7,15982],[96.7,16065],[96.7,16148],[96.7,16231],[96.7,16316],[96.7,16399],[96.7,16482],[96.7,16566],[96.7,16649],[96.7,16731],[96.7,16816],[96.7,16899],[96.7,16982],[96.7,17065],[96.7,17148],[96.7,17232],[96.7,17316],[96.7,17398],[96.7,17483],[96.7,17566],[96.7,17648],[96.7,17732],[96.7,17815],[96.7,17899],[96.7,17982],[96.7,18065],[96.7,18148],[96.7,18232],[96.7,18315],[96.7,18399],[96.7,18482],[96.7,18566],[96.7,18649],[96.7,18731],[96.7,18816],[96.7,18898],[96.7,18982],[96.7,19065],[96.7,19148],[96.7,19232],[96.7,19316],[96.7,19399],[96.7,19481],[96.7,19566],[96.7,19649],[96.7,19732],[96.7,19815],[96.7,19899],[96.7,19982],[83.2,20065],[70.8,20149],[61.5,20232],[59.7,20316],[58.9,20399],[58.9,20482],[58.9,20565],[58.9,20649],[58.9,20732],[54.8,20815],[52,20898],[49.2,20982],[49.2,21066],[49.2,21148],[49.2,21232],[49.2,21316],[49.2,21398],[49.2,21482],[49.2,21566],[49.2,21649],[49.2,21732],[49.2,21816],[49.2,21898],[49.2,21982],[49.2,22065],[49.2,22148],[49.2,22232],[49.2,22315],[49.2,22399],[49.2,22482],[49.2,22566],[49.2,22649],[49.2,22731],[49.2,22816],[49.2,22898],[49.2,22982],[49.2,23066],[49.2,23149],[49.2,23232],[49.2,23315],[49.2,23399],[49.2,23482],[49.2,23566],[49.2,23649],[49.2,23732],[49.2,23815],[49.2,23899],[49.2,23982],[49.2,24065],[49.2,24148],[49.2,24231],[49.2,24315],[49.2,24399],[49.2,24482],[49.2,24566],[49.2,24648],[49.2,24731],[49.2,24816],[52.1,24898],[57.2,24983],[58.2,25065],[58.2,25149],[58.2,25232],[58.2,25316],[58.2,25399],[58.2,25482],[58.2,25566],[58.2,25649],[58.2,25732],[58.2,25816],[58.2,25899],[58.2,25982],[58.2,26065],[58.2,26148],[58.2,26232],[58.2,26315],[58.2,26399],[58.2,26482],[58.2,26566],[58.2,26649],[58.2,26732],[58.2,26816],[58.3,26898],[59,26983],[60.9,27066],[62.3,27149],[62.7,27232],[63.1,27316],[63.1,27398],[63.1,27482],[63.1,27566],[63.1,27649],[63.1,27732],[63.1,27816],[63.1,27899],[63.2,27982],[63.2,28065],[63.2,28148],[63.2,28232],[63.2,28316],[63.2,28399],[63.2,28482],[63.2,28566],[63.2,28649],[63.3,28732],[63.4,28815],[63.4,28898],[63.4,28982],[63.4,29066],[63.4,29149],[63.4,29232],[63.4,29316],[63.4,29399],[63.4,29482],[63.4,29565],[63.4,29649],[63.4,29732]]",1,0,167.0574,176.739,50.6821696,6.6221,"[{""rating"":50.682169596354164,""responseTime"":6.622099999994049}]",space,9.1406,,176.7394,Definitely yes,100,176.7446,,,[],,0,0,0,0,1,audio/Narrative13Situation2.wav,audio/Narrative13Situation2.wav,audio/Narrative13Situation2.wav,audio/Narrative13Situation2.wav,2,2,2,2,,,,,,,,,,,,,,,,,,,,,,,,,,,,,,,,,,,,,,,
,,,,,,63eba3f11d699385d1d4075d,2024-05-13_10h55.13.181,group3.1-3.2-social-tom,2023.2.2,MacIntel,59.52380952,65c5074098b851296ff0b7ed,6642375c79e5a7ce5fef947f,,,,,,,,,,,,,,,,,,,,,,,,,,,,,176.745,1,audio/Narrative8Situation1.wav,180.3547,space,180.3547,196.2724,"[[61,683],[58.1,767],[57.5,850],[57,933],[57,1016],[57,1099],[57,1183],[57,1266],[57,1349],[55.9,1434],[55.3,1516],[55.3,1599],[55.3,1683],[62.9,1766],[71.2,1850],[71.5,1933],[71.5,2016],[71.5,2101],[71.5,2183],[70.9,2267],[65.1,2350],[58.1,2434],[57.9,2516],[54.6,2600],[54.6,2683],[54.6,2767],[54.6,2850],[54.6,2933],[54.6,3016],[54.6,3099],[54.6,3183],[54.6,3266],[54.6,3349],[54.6,3433],[54.6,3517],[54.6,3600],[54.6,3683],[54.6,3766],[54.6,3849],[54.6,3933],[54.6,4016],[54.6,4101],[54.6,4184],[54.6,4267],[54.6,4351],[55,4433],[55.1,4517],[55.3,4599],[55.8,4683],[56.1,4767],[56.1,4850],[56.1,4934],[56.1,5017],[56.1,5100],[56.1,5182],[56.1,5267],[56.1,5350],[56.1,5434],[56.1,5517],[56.1,5600],[56.1,5684],[56.1,5767],[51.2,5850],[50.6,5933],[47,6017],[45.6,6102],[44.7,6184],[44.2,6267],[44.2,6349],[44.2,6434],[44.2,6516],[44.2,6600],[44.2,6684],[44.3,6767],[44.2,6851],[44.3,6934],[44.3,7017],[44.3,7100],[44.3,7183],[44.2,7267],[43.9,7351],[41.1,7434],[39,7517],[38.5,7600],[38.3,7684],[37.7,7767],[36.7,7850],[36.7,7933],[36.7,8017],[36.7,8101],[36.7,8184],[36.7,8267],[36.7,8351],[36.7,8433],[36.7,8517],[36.7,8600],[36.7,8684],[36.7,8767],[36.7,8850],[37.5,8933],[41.2,9017],[46.7,9100],[52.1,9183],[64.5,9267],[75.8,9351],[91,9434],[100,9517],[100,9600],[100,9683],[100,9767],[100,9849],[100,9933],[100,10017],[100,10101],[100,10184],[100,10267],[100,10350],[100,10433],[100,10516],[100,10601],[99.8,10683],[99.8,10767],[99.7,10850],[99.7,10934],[99.7,11016],[99.7,11100],[99.7,11183],[99.7,11266],[99.4,11350],[99.3,11434],[99.2,11516],[99.2,11600],[99.2,11683],[99.2,11767],[99.2,11849],[99.2,11934],[99.2,12016],[99.2,12101],[99.2,12184],[99.2,12266],[99.2,12349],[99.2,12434],[99.2,12516],[99.2,12600],[99.2,12683],[99.2,12767],[99.2,12851],[99.2,12934],[99.2,13017],[99.2,13100],[99.2,13183],[99.2,13266],[99.2,13350],[99.2,13433],[99.2,13516],[99.2,13600],[99.2,13683],[99.2,13767],[99.2,13850],[99.2,13933],[99.2,14016],[99.2,14100],[99.2,14183],[99.2,14267],[99.2,14349],[99.2,14433],[99.2,14516],[99.2,14600],[99.2,14683],[99.2,14767],[99.2,14850],[99.2,14933],[99.2,15016],[99.2,15100],[99.2,15183],[99.2,15267],[99.2,15349],[99.2,15433],[99.2,15516],[99.2,15600],[98.8,15683],[98.6,15767],[98.6,15850]]",1,0,196.2726,201.7216,99.8613739,4.3722,"[{""rating"":99.86137390136719,""responseTime"":4.372200000002977}]",space,4.9065,,201.7217,Partially,50,201.7276,,,[],,0,1,1,1,1,audio/Narrative7Situation1.wav,audio/Narrative8Situation1.wav,audio/Narrative5Situation1.wav,audio/Narrative6Situation1.wav,2,5,5,2,3.5926,,,,,,,,,,,,,,,,,,,,,,,,,,,,,,,,,,,,,,
,,,,,,63eba3f11d699385d1d4075d,2024-05-13_10h55.13.181,group3.1-3.2-social-tom,2023.2.2,MacIntel,59.52380952,65c5074098b851296ff0b7ed,6642375c79e5a7ce5fef947f,,,,,,,,,,,,,,,,,,,,,,,,,,,,,201.7278,1,audio/Narrative8Situation2.wav,204.7388,,204.7388,214.8891,"[[57,1082],[56.8,1166],[56.5,1249],[56.5,1333],[56.5,1416],[56.5,1500],[56.5,1583],[56.5,1666],[57.5,1749],[59.6,1832],[66.2,1916],[69.9,2000],[69.9,2082],[69.9,2166],[69.9,2249],[69.9,2333],[69.9,2416],[69.9,2500],[69.9,2583],[70,2667],[71.8,2816],[77,2900],[86.2,2982],[90.8,3066],[90.8,3150],[90.8,3233],[90.8,3316],[90.8,3399],[90.8,3483],[90.8,3566],[90.8,3650],[90.8,3733],[90.5,3816],[90.5,3899],[90.4,3982],[90.4,4066],[90.5,4149],[90.5,4232],[90.5,4316],[90.5,4399],[90.7,4483],[91.5,4566],[91.8,4650],[91.8,4732],[91.8,4815],[91.8,4900],[91.8,4982],[91.8,5065],[90.4,5149],[83.6,5233],[77.2,5316],[73.9,5399],[72.9,5483],[70.6,5567],[68.5,5649],[67.6,5732],[65.5,5816],[65.4,5899],[65.4,5983],[65.4,6065],[65.4,6149],[65.4,6232],[65.4,6316],[65.1,6399],[64.5,6483],[62.3,6566],[61.1,6649],[61,6732],[56.9,6816],[56.9,6899],[56.9,6982],[56.9,7065],[56.9,7149],[55.9,7233],[54.7,7316],[54.7,7399],[54.7,7482],[54.6,7566],[54.6,7649],[54.6,7732],[54.5,7816],[54.2,7899],[53.9,7983],[53.2,8066],[51.6,8149],[50,8233],[49,8316],[49.3,8399],[49.3,8482],[49.3,8566],[49.3,8649],[49.3,8732],[49.3,8816],[49.3,8899],[49.3,8982],[49.3,9065],[49.3,9149],[49.3,9233],[49.1,9316],[48.9,9399],[48.7,9482],[48.7,9565],[48.5,9649],[48.5,9733],[48.5,9816],[48.5,9899],[48.1,9983],[48.1,10066],[48.1,10150]]",1,0,214.8892,219.8389,29.67770259,3.2707,"[{""rating"":29.67770258585612,""responseTime"":3.270699999988068}]",space,4.3983,,219.839,Definitely yes,100,219.8446,,,[],,0,2,2,2,1,audio/Narrative7Situation2.wav,audio/Narrative8Situation2.wav,audio/Narrative5Situation2.wav,audio/Narrative6Situation2.wav,3,3,3,3,,,,,,,,,,,,,,,,,,,,,,,,,,,,,,,,,,,,,,,
,,,,,,63eba3f11d699385d1d4075d,2024-05-13_10h55.13.181,group3.1-3.2-social-tom,2023.2.2,MacIntel,59.52380952,65c5074098b851296ff0b7ed,6642375c79e5a7ce5fef947f,,,,,,,,,,,,,,,,,,,,,,,,,,,,,219.8448,1,audio/Narrative8Situation3.wav,223.8556,,223.8556,246.2385,"[[28.6,1583],[28.6,1666],[28.8,1749],[28.9,1832],[28.9,1915],[28.9,1998],[28.9,2082],[28.9,2166],[28.9,2249],[28.9,2332],[28.9,2416],[28,2499],[27,2582],[25.8,2665],[23.9,2748],[23.5,2832],[23.5,2916],[23.5,2999],[23.5,3082],[23.5,3166],[23.5,3248],[23.5,3333],[23.3,3416],[23.3,3499],[23.3,3582],[23.5,3666],[23.7,3749],[24.7,3832],[29.2,3916],[34,3999],[34,4082],[34,4166],[34,4249],[34,4333],[34,4416],[34,4499],[34,4582],[34,4666],[34,4748],[33.9,4832],[33.9,4915],[33.9,4999],[33.8,5083],[33.8,5165],[33.6,5249],[33.6,5332],[33.6,5416],[33.6,5498],[33.5,5582],[33.4,5666],[33.4,5749],[33.4,5832],[33.4,5915],[33.4,5999],[33.4,6082],[33.4,6165],[33.4,6248],[33.8,6333],[34.6,6416],[35.5,6499],[35.9,6582],[36.4,6666],[37,6750],[37.1,6832],[37.2,6915],[37.4,6999],[37.6,7083],[37.7,7165],[37.7,7248],[37.7,7333],[37.8,7416],[37.9,7499],[38,7582],[38.1,7665],[38.2,7749],[39.2,7832],[40,7915],[40,7998],[40.2,8083],[41.2,8165],[42.7,8249],[44.8,8333],[46.6,8415],[48.2,8500],[48,8582],[48,8665],[48,8749],[48,8832],[48,8915],[48,8999],[48,9082],[48,9165],[48.2,9249],[48.6,9332],[48.9,9416],[49.4,9500],[49.7,9582],[50.4,9666],[50.6,9749],[50.8,9833],[51.1,9916],[51.5,9999],[51.9,10083],[52.1,10166],[52.5,10249],[52.5,10333],[52.6,10416],[52.6,10499],[52.6,10583],[52.6,10666],[52.6,10748],[52.6,10833],[52.6,10916],[52.6,10999],[52.7,11082],[52.8,11166],[52.8,11249],[52.8,11333],[52.8,11416],[52.8,11500],[52.8,11582],[53,11666],[53.6,11750],[54.8,11833],[55.5,11916],[55.9,12000],[56.6,12082],[57.2,12166],[58,12250],[59.5,12333],[62.5,12417],[63.4,12499],[63.5,12583],[63.5,12666],[63.5,12749],[63.5,12833],[63.5,12916],[63.5,12999],[63.5,13083],[63.5,13166],[63.5,13249],[63.5,13333],[63.5,13416],[63.5,13499],[63.4,13582],[63.3,13666],[62.8,13750],[62.5,13832],[62,13915],[61.4,14000],[60.9,14082],[60.7,14166],[60.5,14249],[60.4,14332],[60.4,14416],[60.4,14499],[60.4,14583],[60.4,14666],[60.4,14749],[60.4,14832],[60.3,14916],[60.2,14999],[60.2,15082],[60.1,15165],[59.8,15249],[59.4,15333],[59,15415],[58.7,15499],[58.4,15583],[58,15666],[57.6,15749],[57.3,15832],[57.1,15916],[56.9,16000],[56.6,16082],[56.4,16166],[56.1,16250],[55.9,16333],[55.9,16416],[55.8,16499],[55.5,16583],[55.3,16666],[55.1,16749],[54.8,16833],[54.6,16916],[54.5,17000],[54.4,17082],[54.4,17166],[54.4,17250],[54.4,17332],[54.4,17415],[54.4,17499],[54.4,17583],[54.4,17666],[54.4,17749],[54.4,17833],[54.8,17917],[54.9,18000],[55,18082],[56.1,18166],[56.4,18248],[56.5,18333],[56.8,18416],[57.3,18499],[58.1,18583],[58.1,18666],[58.1,18750],[58.1,18832],[62,18916],[71,18999],[79.3,19082],[81.2,19165],[83.5,19249],[83.5,19333],[83.5,19416],[83.9,19500],[85.3,19583],[87.2,19666],[86.4,19750],[86.4,19833],[86.4,19916],[86.4,19999],[86.4,20082],[86.4,20166],[86.4,20249],[86.4,20332],[86.4,20416],[86.1,20500],[85.8,20582],[85.6,20666],[85.5,20749],[85.3,20832],[85.1,20916],[85,20999],[84.9,21083],[84.9,21166],[84.9,21249],[84.9,21333],[84.9,21416],[84.9,21499],[84.9,21583],[84.9,21666],[84.9,21749],[84.8,21833],[84.7,21916],[84.4,21999],[84.1,22083],[84,22166],[83.9,22248],[83.7,22333]]",1,0,246.2387,249.7056,71.28880819,1.2322,"[{""rating"":71.28880818684897,""responseTime"":1.2322000000029902}]",space,2.9246,,249.7057,Definitely yes,100,249.7078,,,[],,0,3,3,3,1,audio/Narrative7Situation3.wav,audio/Narrative8Situation3.wav,audio/Narrative5Situation3.wav,audio/Narrative6Situation3.wav,8,4,3,5,,,,,,,,,,,,,,,,,,,,,,,,,,,,,,,,,,,,,,,
,,,,,,63eba3f11d699385d1d4075d,2024-05-13_10h55.13.181,group3.1-3.2-social-tom,2023.2.2,MacIntel,59.52380952,65c5074098b851296ff0b7ed,6642375c79e5a7ce5fef947f,,,,,,,,,,,,,,,,,,,,,,,,,,,,,249.7082,1,audio/Narrative8Situation4.wav,252.7223,,252.7223,266.8892,"[[47.2,415],[47.5,499],[47.6,583],[47.2,683],[46.8,767],[46.7,850],[46.3,933],[46.3,1016],[46.3,1099],[46.3,1183],[46.3,1265],[46.3,1349],[46.3,1432],[46.3,1516],[45.2,1599],[42,1682],[37.5,1766],[36.8,1849],[36.8,1933],[36.8,2015],[36.8,2099],[36.8,2183],[36.8,2266],[36.8,2349],[36.8,2433],[36.8,2515],[36.9,2600],[36.9,2682],[36.9,2767],[36.8,2850],[36.8,2933],[36.8,3016],[36.8,3099],[36.8,3182],[36.2,3266],[35.1,3350],[34.8,3433],[33.8,3516],[32.8,3599],[31.1,3683],[29.7,3767],[28.5,3849],[28,3933],[27,4016],[25.6,4099],[25.2,4182],[25.1,4266],[25.1,4349],[25.1,4433],[25.1,4515],[25.1,4599],[25.1,4682],[25.1,4766],[25.1,4850],[25.3,4933],[25.4,5016],[25.4,5099],[25.4,5182],[25.7,5266],[26.2,5349],[27.2,5433],[32.6,5516],[33.9,5599],[35.7,5683],[36.5,5766],[37.6,5849],[39.6,5933],[39.6,6016],[39.6,6099],[39.6,6183],[39.6,6266],[39.6,6349],[39.6,6432],[40,6515],[40.4,6599],[45,6682],[49.5,6765],[51.3,6850],[53.1,6933],[54.2,7016],[54.2,7099],[54.2,7183],[54.2,7266],[54.3,7349],[54.5,7433],[54.9,7515],[56.6,7600],[61.4,7683],[62.1,7766],[64.1,7849],[66,7933],[67.5,8016],[71,8099],[75.7,8183],[78,8266],[79.1,8350],[79.8,8433],[81.3,8516],[81.5,8599],[81.5,8682],[81.5,8766],[81.5,8849],[81.5,8933],[81.5,9016],[81.5,9099],[81.5,9182],[81.5,9266],[81.5,9349],[81.5,9433],[81.4,9516],[81.5,9599],[81.7,9683],[81.8,9765],[81.8,9849],[81.8,9933],[81.8,10016],[81.8,10099],[81.8,10183],[81.8,10266],[81.8,10349],[81.8,10433],[82.3,10515],[82.8,10600],[83.9,10682],[85.3,10766],[86,10850],[88.2,10933],[90.7,11016],[94,11100],[97.1,11182],[100,11266],[100,11349],[100,11432],[100,11516],[100,11599],[100,11683],[100,11766],[100,11850],[100,11933],[100,12015],[100,12099],[100,12183],[100,12266],[100,12349],[100,12433],[100,12516],[100,12599],[100,12683],[100,12766],[100,12849],[100,12933],[100,13016],[100,13099],[99.7,13182],[98.1,13266],[98.1,13349],[98.1,13433],[98.1,13516],[98.1,13599],[98.1,13683],[98.1,13766],[98.1,13849],[98.1,13933],[98.1,14016],[98.1,14099]]",1,0,266.8894,269.3223,99.25018311,0.9613,"[{""rating"":99.25018310546875,""responseTime"":0.9613000000118745}]",space,1.883,,269.3225,Partially,50,269.3288,,,[],,0,4,4,4,1,audio/Narrative7Situation4.wav,audio/Narrative8Situation4.wav,audio/Narrative5Situation4.wav,audio/Narrative6Situation4.wav,3,3,1,2,,,,,,,,,,,,,,,,,,,,,,,,,,,,,,,,,,,,,,,
,,,,,,63eba3f11d699385d1d4075d,2024-05-13_10h55.13.181,group3.1-3.2-social-tom,2023.2.2,MacIntel,59.52380952,65c5074098b851296ff0b7ed,6642375c79e5a7ce5fef947f,,,,,,,,,,,,,,,,,,,,,,,,,,,,,269.3293,1,audio/Narrative8Situation5.wav,271.3381,,271.3382,279.5884,"[[52.9,84],[53,166],[53,250],[53,334],[53,417],[53,500],[52.9,584],[52.9,667],[52.8,750],[52.7,833],[52.6,917],[51.5,1000],[51.3,1084],[51.3,1167],[51.3,1250],[51.3,1333],[51.3,1417],[51.3,1499],[51.3,1584],[51.3,1666],[51.3,1750],[51.3,1833],[51.3,1917],[51.3,2000],[51.3,2083],[51.3,2166],[52.6,2250],[56.5,2334],[62.3,2417],[71.3,2500],[77.2,2583],[85.4,2666],[93.6,2751],[97.5,2833],[98.5,2917],[98.5,2999],[98.5,3083],[98.5,3167],[98.9,3250],[98.7,3334],[98.7,3417],[98.7,3500],[98.7,3584],[98.7,3666],[98.7,3750],[98.7,3834],[98.8,3916],[98.9,4000],[98.9,4084],[98.9,4167],[98.9,4250],[98.9,4334],[98.9,4416],[98.9,4500],[98.9,4584],[98.9,4667],[98.9,4750],[98.9,4833],[98.9,4917],[98.9,4999],[98.9,5083],[98.9,5167],[98.9,5250],[98.9,5333],[98.9,5416],[98.9,5499],[98.9,5584],[98.9,5666],[98.9,5750],[98.9,5838],[98.9,5917],[98.8,6000],[98.8,6084],[98.8,6166],[98.8,6250],[98.8,6333],[98.8,6417],[98.8,6500],[98.8,6584],[98.8,6667],[98.8,6750],[98.8,6833],[98.8,6917],[98.8,6999],[98.8,7084],[98.8,7166],[98.8,7250],[98.8,7334],[98.8,7417],[98.8,7500],[98.8,7584],[98.8,7667],[98.8,7749],[98.8,7834],[98.8,7917],[98.8,8000],[98.8,8084],[98.8,8167],[98.8,8250]]",1,0,279.5886,283.2887,99.00877635,1.729,"[{""rating"":99.00877634684244,""responseTime"":1.728999999999985}]",space,3.1662,,283.2888,Partially,50,292.1725,50.0802358,6.5933,"[{""rating"":50.08023579915365,""responseTime"":6.593299999996987}]",space,0,5,5,5,1,audio/Narrative7Situation5.wav,audio/Narrative8Situation5.wav,audio/Narrative5Situation5.wav,audio/Narrative6Situation5.wav,5,2,5,2,,,8.3374,,,,,,,,,,,,,,,,,,,,,,,,,,,,,,,,,,,,
,,,,,,63eba3f11d699385d1d4075d,2024-05-13_10h55.13.181,group3.1-3.2-social-tom,2023.2.2,MacIntel,59.52380952,65c5074098b851296ff0b7ed,6642375c79e5a7ce5fef947f,,,,,,,,,,,,,,,,,,,,,,,,,,,,,292.1729,1,audio/Narrative8Situation6.wav,294.189,,294.1891,300.6725,"[[53.5,1749],[57.3,1832],[58.1,1915],[58.4,2000],[58.4,2082],[58.4,2165],[58.4,2248],[58.8,2333],[62.2,2416],[70.6,2500],[71.9,2582],[74.4,2666],[79.9,2750],[85.2,2832],[87.5,2916],[87.5,2999],[87.5,3083],[87.5,3165],[87.5,3250],[87.5,3333],[87.7,3416],[88,3500],[88,3582],[88.4,3665],[89.5,3749],[90.4,3832],[92.5,3916],[94.1,4000],[96.9,4083],[97.6,4166],[98.5,4249],[98.8,4333],[99,4416],[99.3,4499],[99.3,4582],[99.3,4666],[99.4,4750],[99.5,4833],[99.6,4916],[99.7,4998],[99.9,5082],[99.9,5166],[99.9,5249],[99.9,5333],[99.9,5416],[99.9,5498],[99.9,5582],[99.9,5666],[99.9,5749],[99.9,5833],[99.9,5916],[99.9,5999],[99.9,6083],[99.9,6166],[99.9,6248],[99.9,6333],[99.9,6416]]",1,0,300.6726,304.0558,99.917895,1.1242,"[{""rating"":99.9178949991862,""responseTime"":1.1242000000029861}]",space,2.838,,304.0559,Partially,50,304.0589,,,[],,0,6,6,6,1,audio/Narrative7Situation6.wav,audio/Narrative8Situation6.wav,audio/Narrative5Situation6.wav,audio/Narrative6Situation6.wav,3,2,3,2,,,,,,,,,,,,,,,,,,,,,,,,,,,,,,,,,,,,,,,
,,,,,,63eba3f11d699385d1d4075d,2024-05-13_10h55.13.181,group3.1-3.2-social-tom,2023.2.2,MacIntel,59.52380952,65c5074098b851296ff0b7ed,6642375c79e5a7ce5fef947f,,,,,,,,,,,,,,,,,,,,,,,,,,,,,304.0593,1,audio/Narrative8Situation7.wav,307.0723,,307.0723,319.1726,"[[98.8,1183],[96.7,1266],[94.4,1350],[93,1433],[92.3,1516],[90.2,1600],[78.3,1683],[55.7,1766],[45.8,1850],[45.4,1932],[45.4,2015],[45.4,2099],[45.4,2183],[45.4,2266],[44.9,2349],[41.7,2432],[27.7,2515],[20.9,2600],[19.2,2683],[18.9,2766],[18.9,2849],[18.9,2933],[18.9,3016],[18.9,3098],[18.9,3183],[18.9,3265],[18.9,3349],[18.9,3433],[18.9,3516],[18.9,3599],[18.9,3682],[18.9,3765],[18.9,3849],[18.9,3933],[18.9,4015],[18.9,4100],[18.9,4183],[18.9,4266],[18.9,4350],[18.9,4432],[18.9,4516],[18.9,4599],[18.9,4683],[18.9,4766],[19.6,4850],[21.7,4932],[21.8,5016],[21.8,5098],[21.8,5183],[21.8,5266],[21.8,5350],[21.8,5433],[21.9,5516],[21.9,5599],[22.1,5682],[22.2,5767],[22.3,5849],[22.5,5933],[22.6,6016],[22.7,6099],[22.8,6183],[23,6266],[23.1,6349],[23.4,6432],[23.7,6517],[23.8,6599],[23.8,6683],[23.8,6766],[23.8,6850],[23.8,6933],[23.8,7016],[24.1,7099],[24.1,7183],[24.1,7266],[24.1,7350],[24.1,7432],[24.1,7516],[24.1,7600],[24.1,7683],[24.1,7765],[24.1,7850],[24.1,7933],[24.1,8016],[24.1,8100],[24.1,8183],[24.1,8266],[24.1,8350],[24.1,8432],[24.1,8516],[24.1,8599],[24.1,8682],[24.1,8766],[24.1,8849],[24.1,8933],[24.1,9016],[24.1,9099],[24.1,9183],[24.1,9266],[24.1,9349],[24.1,9433],[24.1,9516],[24.1,9599],[24.1,9682],[24.1,9766],[24.1,9849],[24.1,9932],[24.1,10016],[24.1,10100],[24.1,10182],[24.1,10267],[24.1,10349],[24.1,10432],[24.1,10516],[24.1,10599],[24.1,10682],[24.1,10766],[24.1,10849],[24.1,10932],[24.1,11016],[24.1,11099],[24.1,11183],[24.1,11265],[24.1,11349],[24.6,11433],[24.6,11516],[24.6,11599],[24.6,11682],[24.6,11765],[24.6,11848],[24.6,11932],[24.6,12016],[24.6,12100]]",1,0,319.1727,321.8715,7.073237101,1.4248,"[{""rating"":7.073237101236979,""responseTime"":1.424799999996992}]",space,2.1574,,321.8715,Definitely yes,100,321.8774,,,[],,0,7,7,7,1,audio/Narrative7Situation7.wav,audio/Narrative8Situation7.wav,audio/Narrative5Situation7.wav,audio/Narrative6Situation7.wav,5,3,4,5,,,,,,,,,,,,,,,,,,,,,,,,,,,,,,,,,,,,,,,
,,,,,,63eba3f11d699385d1d4075d,2024-05-13_10h55.13.181,group3.1-3.2-social-tom,2023.2.2,MacIntel,59.52380952,65c5074098b851296ff0b7ed,6642375c79e5a7ce5fef947f,,,,,,,,,,,,,,,,,,,,,,,,,,,,,321.8777,1,audio/Narrative8Situation8.wav,324.8884,,324.8885,337.7557,"[[35,672],[35,749],[33.8,832],[33.6,915],[32.9,1000],[33,1082],[33,1166],[33,1249],[33,1332],[33,1415],[33,1499],[33.2,1583],[34.9,1666],[42.3,1750],[44.5,1833],[44.5,1916],[44.5,1999],[44.5,2083],[44.5,2166],[44.5,2249],[44.5,2333],[44.5,2416],[44.5,2500],[44.4,2655],[44.5,2758],[44.5,2850],[44.6,2933],[44.6,3016],[44.6,3099],[44.6,3183],[44.6,3266],[44.6,3349],[44.6,3433],[44.6,3516],[44.6,3600],[44.6,3683],[44.6,3766],[44.7,3850],[44.9,3934],[45,4031],[45.2,4100],[45.4,4183],[45.4,4266],[45.6,4350],[45.6,4433],[45.6,4516],[45.6,4600],[45.6,4683],[45.6,4767],[45.6,4850],[44.5,4933],[37.7,5016],[27.2,5100],[22.1,5183],[21.1,5266],[21.1,5350],[20.3,5434],[19.2,5517],[18.8,5600],[18.5,5682],[16.1,5767],[16.1,5849],[16,5933],[16,6017],[16,6100],[16,6183],[16,6266],[16,6350],[15.9,6434],[15.4,6517],[13.9,6599],[11.8,6683],[9.7,6767],[7.2,6850],[5.2,6933],[2.9,7016],[2.9,7099],[2.8,7184],[2.8,7266],[2.8,7350],[2.8,7437],[2.8,7517],[2.8,7600],[2.8,7683],[2.8,7766],[2.5,7851],[2.1,7933],[1.8,8016],[1.7,8100],[1.5,8183],[1.1,8266],[0.5,8350],[0,8433],[0.7,9784],[27.4,9867],[78.3,9950],[90.6,10033],[96.3,10117],[98,10200],[98,10283],[98,10367],[98,10450],[98,10533],[98,10617],[98,10700],[98,10783],[98,10866],[98,10950],[98,11033],[98,11117],[98,11200],[97.3,11283],[97.1,11367],[97.1,11450],[97,11533],[97,11617],[96.9,11700],[96.7,11783],[94.3,11866],[71.7,11950],[59,12033],[51.5,12117],[51.3,12200],[51.3,12283],[51.3,12366],[51.3,12450],[51.3,12533],[51.3,12617],[51.3,12699],[51.3,12782],[51.3,12867]]",1,0,337.7558,344.6049,48.5982132,4.2899,"[{""rating"":48.59821319580078,""responseTime"":4.289900000006014}]",space,6.2998,,344.6049,Definitely yes,100,344.6073,,,[],,0,8,8,8,1,audio/Narrative7Situation8.wav,audio/Narrative8Situation8.wav,audio/Narrative5Situation8.wav,audio/Narrative6Situation8.wav,2,3,3,5,,,,,,,,,,,,,,,,,,,,,,,,,,,,,,,,,,,,,,,
,,,,,,63eba3f11d699385d1d4075d,2024-05-13_10h55.13.181,group3.1-3.2-social-tom,2023.2.2,MacIntel,59.52380952,65c5074098b851296ff0b7ed,6642375c79e5a7ce5fef947f,,,,,,,,,,,,,,,,,,,,,,,,,,,,,344.6078,1,audio/Narrative8Situation9.wav,347.6221,,347.6221,358.9555,"[[45.2,750],[43.8,834],[39.5,916],[39.2,999],[39.2,1082],[39.2,1166],[39.2,1249],[39.2,1333],[39.2,1415],[39.2,1499],[39.3,1582],[39.5,1666],[39.6,1749],[39.6,1832],[39.6,1915],[39.6,1999],[39.6,2082],[39.6,2166],[39.6,2249],[39.6,2332],[39.6,2415],[39.6,2499],[39.6,2582],[39.6,2665],[39.6,2749],[39.6,2832],[39.6,2915],[39.6,2999],[39.6,3082],[39.6,3165],[39.6,3250],[39.6,3332],[39.6,3415],[39.6,3499],[39.6,3582],[39.6,3666],[39.6,3749],[39.6,3832],[39.6,3915],[39.6,3999],[39.6,4082],[39.6,4166],[46,4249],[57.3,4332],[66.9,4416],[68.9,4499],[68.9,4582],[68.9,4665],[68.9,4749],[68.9,4832],[68.9,4915],[68.7,4999],[68.5,5082],[68.5,5165],[68.5,5249],[68.5,5332],[68.7,5416],[69.2,5499],[69.7,5582],[69.8,5666],[69.9,5749],[69.9,5832],[69.9,5915],[69.9,5999],[69.9,6082],[70.1,6166],[70.2,6249],[70.3,6332],[70.3,6415],[70.3,6499],[68.9,6583],[65.5,6666],[54.4,6749],[47.1,6834],[47.1,6917],[47,6999],[47,7083],[47,7166],[47,7249],[47,7332],[47,7416],[47,7499],[46.9,7583],[46.9,7666],[46.8,7750],[46.4,7832],[46.4,7916],[46.4,7999],[46.5,8083],[46.5,8166],[45.9,8249],[45,8333],[45,8416],[43.6,8500],[42.4,8583],[41.2,8666],[39.3,8750],[39.2,8832],[39.2,8916],[39.2,9000],[39.2,9083],[39.2,9166],[39.2,9249],[39.2,9332],[39.2,9416],[39.3,9500],[39.1,9582],[39.1,9666],[39.1,9749],[38.9,9833],[38.8,9916],[38.6,9999],[38.2,10083],[37.8,10166],[37.7,10249],[37.5,10332],[37.4,10416],[37.2,10500],[37.1,10583],[36.8,10666],[36.7,10749],[36.7,10832],[36.7,10916],[36.7,11000],[36.5,11082],[36.5,11166],[36.4,11249],[36.2,11333]]",1,0,358.9557,361.0723,12.64510473,1.1551,"[{""rating"":12.645104726155598,""responseTime"":1.155099999994036}]",space,1.5686,,361.0724,Definitely yes,100,361.0746,,,[],,0,9,9,9,1,audio/Narrative7Situation9.wav,audio/Narrative8Situation9.wav,audio/Narrative5Situation9.wav,audio/Narrative6Situation9.wav,2,3,3,4,,,,,,,,,,,,,,,,,,,,,,,,,,,,,,,,,,,,,,,
,,,,,,63eba3f11d699385d1d4075d,2024-05-13_10h55.13.181,group3.1-3.2-social-tom,2023.2.2,MacIntel,59.52380952,65c5074098b851296ff0b7ed,6642375c79e5a7ce5fef947f,,,,,,,,,,,,,,,,,,,,,,,,,,,,,361.0749,1,audio/Narrative7Situation1.wav,363.0883,,363.0883,418.9719,"[[16.1,3249],[16.2,3332],[16.2,3417],[16.2,3500],[16.9,3583],[18.5,3667],[20.6,3750],[22.2,3834],[23.4,3916],[23.4,4000],[23.4,4083],[23.4,4166],[23.4,4249],[23.4,4333],[23.4,4417],[23.4,4500],[23.4,4583],[23.4,4666],[23.4,4750],[23.4,4833],[23.4,4917],[23.4,5000],[23.4,5084],[23.4,5166],[23.4,5249],[23.4,5333],[23.4,5417],[23.4,5500],[23.4,5583],[23.1,5667],[22.7,5749],[22.3,5832],[21.8,5917],[21.2,5999],[20.1,6084],[17.2,6167],[14.8,6249],[13.1,6334],[11.4,6416],[10.7,6500],[9.6,6583],[9.2,6666],[9,6750],[8.4,6833],[8.3,6917],[8.3,7000],[8.3,7084],[8.2,7167],[8.2,7250],[8.2,7333],[8.2,7417],[8.2,7500],[8.2,7583],[8.2,7666],[8.2,7750],[8.2,7833],[8.2,7916],[8.2,8000],[8.2,8083],[8.2,8166],[8.2,8250],[8.2,8333],[8.2,8417],[8.2,8500],[8.8,8583],[8.8,8666],[8.9,8750],[8.9,8834],[9.1,8916],[9.2,9000],[9.2,9082],[9.2,9167],[9.2,9250],[9.2,9333],[9.2,9417],[9.2,9500],[9.2,9584],[9.2,9667],[9.2,9750],[9.2,9833],[9.2,9917],[9.2,10000],[9.2,10084],[9.2,10167],[9.2,10250],[9.2,10334],[9.2,10416],[9.2,10500],[9.2,10583],[9.2,10666],[9.2,10750],[9.2,10833],[9.2,10917],[9.2,11000],[9.2,11084],[9,11166],[9,11250],[9,11333],[9,11416],[9,11500],[9,11583],[9,11666],[9,11750],[9,11833],[9,11916],[9.3,11999],[9.7,12083],[9.7,12166],[9.7,12249],[9.7,12333],[9.9,12417],[10.2,12499],[10.4,12583],[10.7,12667],[10.8,12750],[10.8,12832],[10.8,12916],[10.8,13000],[10.8,13083],[10.8,13166],[10.8,13250],[10.8,13333],[10.8,13416],[10.8,13500],[10.8,13583],[10.9,13666],[10.9,13750],[10.9,13833],[10.9,13916],[11,13999],[11,14083],[11.1,14167],[11.2,14249],[11.3,14333],[11.5,14416],[11.5,14499],[11.5,14583],[11.5,14666],[12.4,14749],[12.8,14833],[13.3,14916],[13.6,14999],[14.6,15083],[14.6,15167],[14.6,15249],[14.6,15333],[14.6,15416],[14.6,15500],[14.9,15583],[16.1,15666],[17.3,15750],[18,15833],[18.2,15916],[18.8,16000],[18.9,16083],[19.4,16167],[19.5,16250],[19.7,16334],[20,16416],[20.6,16500],[22.6,16583],[22.8,16667],[22.8,16750],[23.1,16833],[24.6,16917],[24.6,17000],[24.7,17082],[25.4,17166],[25.4,17249],[25.4,17333],[25.4,17417],[25.4,17500],[25.4,17582],[25.3,17666],[25.3,17749],[25.4,17832],[25.4,17916],[25.5,17999],[25.8,18083],[26,18167],[26.1,18250],[26.2,18332],[26.3,18416],[26.3,18500],[26.3,18583],[26.3,18666],[26.3,18749],[26.4,18834],[26.4,18916],[27.2,18999],[33,19083],[40.3,19167],[45.9,19250],[45.9,19332],[47.3,19417],[51,19500],[52,19583],[52,19666],[52,19749],[52,19832],[52,19916],[52,19999],[52,20083],[52.8,20166],[53.7,20250],[55.7,20334],[56.9,20417],[57.2,20500],[57.8,20582],[58.8,20666],[60,20750],[60.1,20832],[60.3,20916],[60.5,21000],[60.7,21084],[61,21166],[61.2,21250],[61.9,21332],[62.1,21416],[62.5,21500],[62.7,21584],[62.7,21667],[62.7,21750],[62.7,21833],[62.9,21916],[62.9,22000],[62.9,22084],[62.9,22167],[63.1,22250],[63.1,22333],[63.2,22417],[63.3,22500],[63.3,22583],[63.4,22667],[63.4,22750],[63.5,22834],[63.6,22916],[63.7,23000],[63.7,23084],[63.8,23167],[63.9,23250],[63.9,23333],[64,23417],[64,23500],[64.2,23583],[64.3,23667],[64.6,23750],[64.8,23834],[65.1,23917],[65.4,23999],[65.5,24084],[65.5,24167],[65.5,24250],[65.5,24333],[65.5,24458],[65.5,24533],[65.6,24617],[66.3,24700],[67.1,24784],[67.8,24867],[68.4,24950],[69.2,25033],[69.5,25116],[69.9,25200],[70.4,25283],[71,25366],[71.3,25450],[71.6,25534],[71.9,25618],[72.4,25700],[73.2,25784],[74.3,25867],[75,25950],[76.1,26033],[76.7,26117],[76.7,26199],[76.7,26283],[76.7,26366],[76.7,26450],[76.7,26533],[76.7,26617],[76.7,26700],[76.7,26783],[77.2,26867],[77.8,26950],[78.9,27033],[79.8,27116],[80.5,27200],[81.8,27284],[82.5,27367],[82.8,27450],[83.2,27534],[83.2,27616],[83.3,27700],[83.4,27784],[83.6,27867],[83.9,27950],[84,28034],[84.3,28117],[84.3,28200],[84.4,28283],[84.5,28367],[84.6,28450],[84.7,28533],[84.7,28617],[84.7,28699],[84.7,28783],[84.7,28867],[84.8,28949],[84.8,29033],[84.8,29116],[84.9,29200],[84.9,29283],[84.9,29367],[85.1,29450],[85.1,29533],[85.2,29616],[85.4,29700],[85.4,29783],[85.4,29867],[85.4,29950],[85.4,30033],[85.4,30117],[85.4,30200],[85.4,30282],[85.5,30366],[85.5,30449],[85.6,30533],[85.8,30616],[85.9,30699],[86.1,30783],[86.2,30867],[86.2,30950],[86.2,31033],[86.3,31116],[86.4,31200],[86.5,31284],[86.6,31367],[86.6,31451],[86.8,31534],[86.9,31616],[87,31700],[87,31783],[87,31867],[87.1,31950],[87.1,32033],[87.2,32117],[87.2,32200],[87.4,32283],[87.6,32367],[87.8,32449],[88,32533],[88.1,32616],[88.1,32700],[88.2,32784],[88.4,32866],[88.5,32949],[88.6,33033],[88.6,33116],[88.7,33200],[88.9,33284],[88.9,33367],[89.3,33450],[89.4,33533],[89.7,33616],[89.7,33700],[89.7,33783],[89.7,33867],[89.7,33950],[89.7,34034],[89.7,34117],[89.9,34200],[91.6,34283],[93,34366],[93.1,34449],[93.2,34534],[93.9,34617],[95.3,34700],[95.4,34784],[96.2,34867],[96.6,34950],[97.1,35034],[97.8,35117],[97.8,35200],[97.8,35283],[97.8,35367],[97.8,35450],[97.8,35533],[97.8,35616],[97.9,35700],[97.9,35784],[98,35867],[98,35950],[98.4,36034],[98.7,36117],[98.9,36199],[99.1,36283],[99.3,36366],[99.4,36450],[99.5,36532],[99.6,36617],[99.9,36700],[99.9,36783],[100,36867],[100,36950],[100,37033],[100,37116],[100,37200],[100,37283],[100,37366],[100,37450],[100,37533],[100,37616],[100,37699],[100,37783],[100,37867],[100,37949],[100,38033],[100,38117],[100,38200],[100,38283],[100,38366],[100,38451],[100,38533],[100,38617],[100,38700],[100,38784],[100,38866],[100,38949],[100,39033],[100,39117],[100,39199],[100,39284],[100,39366],[100,39450],[100,39533],[100,39616],[100,39700],[100,39783],[100,39867],[100,39949],[100,40033],[100,40117],[100,40200],[100,40283],[100,40366],[100,40449],[100,40533],[100,40617],[100,40700],[100,40782],[100,40867],[100,40950],[100,41033],[100,41115],[100,41200],[100,41283],[100,41366],[100,41449],[100,41533],[100,41615],[100,41700],[100,41783],[100,41867],[100,41950],[100,42033],[100,42117],[100,42199],[100,42284],[100,42366],[100,42450],[100,42533],[100,42616],[100,42700],[100,42783],[100,42867],[100,42950],[100,43033],[100,43116],[100,43200],[100,43283],[100,43367],[100,43450],[100,43533],[100,43616],[100,43700],[99.5,43783],[99.3,43866],[99.3,43949],[99.2,44033],[99.2,44117],[99.2,44199],[99.2,44283],[99.2,44366],[99.2,44450],[99.2,44534],[99.2,44617],[99.2,44700],[99.2,44783],[99.2,44866],[99.2,44949],[99.2,45033],[99.2,45116],[99.2,45199],[99.2,45283],[99.2,45366],[99.2,45450],[99.2,45533],[99.2,45616],[99.2,45700],[99.2,45783],[99.2,45866],[99.2,45949],[99.2,46033],[99.2,46117],[99.2,46200],[99.2,46283],[99.2,46367],[99.2,46449],[99.2,46533],[99.2,46617],[99.2,46700],[99.2,46783],[99.2,46866],[99.2,46949],[99.2,47033],[99.2,47116],[99.2,47200],[99.2,47283],[99.2,47366],[99.2,47449],[99.2,47533],[99.2,47616],[99.2,47699],[99.2,47783],[99.2,47866],[99.2,47949],[99.2,48033],[99.2,48116],[99.2,48199],[99.2,48284],[99.2,48366],[99.2,48449],[99.2,48532],[99.2,48616],[99.2,48700],[99.2,48783],[99.2,48866],[99.2,48949],[99.2,49033],[99.2,49116],[99.2,49199],[99.2,49284],[99.2,49366],[99.2,49450],[99.2,49533],[99.2,49616],[99.2,49699],[99.2,49783],[99.2,49866],[99.2,49950],[99.2,50033],[99.2,50116],[99.2,50200],[99.2,50284],[99.2,50366],[99.2,50449],[99.2,50533],[99.2,50616],[99.2,50699],[99.2,50783],[99.2,50866],[99.2,50949],[99.2,51033],[99.2,51116],[99.2,51199],[99.2,51283],[99.2,51366],[99.2,51449],[99.2,51533],[99.2,51617],[99.2,51700],[99.2,51784],[99.2,51867],[99.2,51949],[99.2,52033],[99.2,52117],[99.2,52200],[99.2,52283],[99.2,52366],[99.2,52449],[99.2,52533],[99.2,52617],[99.2,52700],[99.2,52783],[99.2,52867],[99.2,52950],[99.2,53033],[99.2,53117],[99.2,53200],[99.2,53283],[99.2,53367],[99.2,53450],[99.2,53534],[99.2,53617],[99.2,53700],[99.2,53783],[99.2,53867],[99.2,53950],[99.2,54032],[99.2,54117],[99.2,54199],[99.2,54284],[99.2,54366],[99.2,54449],[99.2,54533],[99.2,54617],[99.2,54700],[99.2,54783],[99.2,54867],[99.2,54949],[99.2,55033],[99.2,55116],[99.2,55200],[99.2,55283],[99.2,55367],[99.2,55450],[99.2,55533],[99.2,55616],[99.2,55700],[99.2,55783],[99.2,55867]]",1,0,418.9724,424.8218,99.29336548,4.757,"[{""rating"":99.29336547851562,""responseTime"":4.756999999999948}]",space,5.3093,,424.8219,Not at all,0,424.8283,,,[],,0,10,10,10,1,audio/Narrative8Situation1.wav,audio/Narrative7Situation1.wav,audio/Narrative6Situation1.wav,audio/Narrative5Situation1.wav,5,2,2,5,,,,,,,,,,,,,,,,,,,,,,,,,,,,,,,,,,,,,,,
,,,,,,63eba3f11d699385d1d4075d,2024-05-13_10h55.13.181,group3.1-3.2-social-tom,2023.2.2,MacIntel,59.52380952,65c5074098b851296ff0b7ed,6642375c79e5a7ce5fef947f,,,,,,,,,,,,,,,,,,,,,,,,,,,,,424.8286,1,audio/Narrative7Situation2.wav,427.839,,427.8391,435.3223,"[[48.7,416],[48.9,499],[48.9,582],[49,683],[49,765],[47.4,849],[44.2,933],[39.2,1016],[35.3,1098],[35.3,1183],[35.3,1265],[35.3,1348],[35.3,1433],[35.3,1516],[35.3,1599],[35.3,1683],[35.3,1766],[35.4,1850],[36.1,1932],[38.3,2016],[45,2099],[51.8,2182],[53.4,2266],[57.7,2349],[58.9,2433],[58.9,2516],[58.9,2599],[58.9,2683],[58.9,2765],[58.9,2849],[58.9,2933],[58.8,3016],[58.9,3098],[59,3183],[59,3265],[59,3348],[59,3433],[59.2,3515],[59.3,3599],[59.4,3683],[59.7,3766],[59.8,3849],[59.8,3932],[59.8,4016],[59.8,4099],[59.9,4182],[59.9,4265],[59.9,4349],[59.9,4433],[60.1,4516],[60.1,4598],[60.1,4683],[60.2,4766],[62.7,4849],[73.3,4932],[78.9,5016],[86.4,5100],[90.8,5182],[90.9,5265],[91.2,5349],[93.9,5432],[98.8,5516],[99.5,5598],[99.5,5683],[99.5,5766],[99.5,5849],[99.5,5932],[99.5,6016],[99.5,6099],[99.5,6183],[99.5,6265],[99.5,6349],[99.5,6433],[99.5,6516],[99.5,6600],[99.5,6683],[99.5,6765],[99.4,6849],[99.4,6933],[99.4,7016],[99.4,7099],[99.4,7182],[99.4,7265],[99.3,7349],[99.3,7433]]",1,0,435.3226,437.4725,99.92682139,1.0593,"[{""rating"":99.92682139078777,""responseTime"":1.0592999999969948}]",space,1.6042,,437.4725,Partially,50,437.4775,,,[],,0,11,11,11,1,audio/Narrative8Situation2.wav,audio/Narrative7Situation2.wav,audio/Narrative6Situation2.wav,audio/Narrative5Situation2.wav,3,3,3,3,,,,,,,,,,,,,,,,,,,,,,,,,,,,,,,,,,,,,,,
,,,,,,63eba3f11d699385d1d4075d,2024-05-13_10h55.13.181,group3.1-3.2-social-tom,2023.2.2,MacIntel,59.52380952,65c5074098b851296ff0b7ed,6642375c79e5a7ce5fef947f,,,,,,,,,,,,,,,,,,,,,,,,,,,,,437.4777,1,audio/Narrative7Situation3.wav,445.4883,,445.4884,454.7385,"[[92.9,768],[91.5,852],[84.8,933],[81.3,1017],[76.4,1100],[76.3,1183],[76.3,1267],[76.3,1349],[76.3,1433],[76.3,1516],[76.3,1600],[76.3,1683],[76.3,1767],[76.3,1850],[76.3,1933],[76.3,2067],[76.3,2150],[76.3,2232],[76.3,2316],[76.3,2400],[76.3,2483],[76.3,2567],[76.3,2650],[76.3,2733],[76.3,2816],[76.3,2900],[76.6,2984],[76.7,3066],[77,3150],[77.1,3234],[77.2,3317],[77.2,3400],[77.2,3484],[77.3,3567],[77.3,3649],[77.4,3733],[77.4,3816],[77.5,3900],[77.6,3983],[77.9,4067],[78.1,4150],[78.4,4236],[78.8,4316],[79.2,4399],[79.4,4483],[79.6,4567],[79.9,4650],[80.1,4733],[80.4,4816],[80.7,4899],[81.1,4983],[81.5,5066],[81.8,5150],[82.1,5234],[82.2,5316],[82.5,5400],[82.9,5483],[83.5,5566],[84,5650],[84.3,5733],[84.3,5817],[84.3,5900],[84.3,5984],[84.3,6066],[84.3,6149],[84.3,6233],[84.3,6316],[85.3,6400],[85.3,6484],[83.3,6567],[77.8,6649],[73.9,6733],[71.4,6817],[71,6900],[70.9,6983],[70.9,7066],[70.9,7150],[70.9,7233],[70.9,7317],[70.9,7400],[70.9,7482],[71,7566],[70.7,7650],[69.2,7733],[63.2,7817],[57.3,7900],[53.1,7983],[51.6,8066],[51.6,8149],[51.6,8233],[51.6,8316],[51.6,8400],[51.6,8483],[51.6,8567],[51.6,8650],[51.3,8734],[50.1,8817],[47.6,8900],[44.8,9011],[44.6,9083],[44.5,9167],[44.1,9249]]",1,0,454.7386,459.6059,27.0518748,4.4257,"[{""rating"":22.10699717203776,""responseTime"":3.2082000000029893},{""rating"":27.05187479654948,""responseTime"":4.425700000002962}]",space,4.3167,,459.6059,Not at all,0,459.6117,,,[],,0,12,12,12,1,audio/Narrative8Situation3.wav,audio/Narrative7Situation3.wav,audio/Narrative6Situation3.wav,audio/Narrative5Situation3.wav,4,8,5,3,,,,,,,,,,,,,,,,,,,,,,,,,,,,,,,,,,,,,,,
,,,,,,63eba3f11d699385d1d4075d,2024-05-13_10h55.13.181,group3.1-3.2-social-tom,2023.2.2,MacIntel,59.52380952,65c5074098b851296ff0b7ed,6642375c79e5a7ce5fef947f,,,,,,,,,,,,,,,,,,,,,,,,,,,,,459.6121,1,audio/Narrative7Situation4.wav,462.6223,,462.6224,474.3559,"[[27.5,1682],[28.7,1766],[28.7,1850],[28.7,1932],[28.7,2016],[28.7,2099],[28.7,2183],[28.7,2266],[28.7,2349],[28.7,2433],[28.5,2516],[28.3,2599],[26.2,2683],[24,2766],[22.7,2850],[21.3,2933],[20.5,3015],[20.2,3100],[20,3182],[18.6,3266],[18.6,3349],[18.6,3433],[18.6,3515],[17.6,3599],[16.9,3682],[16,3766],[16,3849],[16,3932],[16,4016],[16,4099],[16,4183],[16,4266],[16,4349],[16,4433],[15,4515],[10.9,4599],[8.4,4682],[4.9,4766],[3.3,4849],[2.5,4932],[2.5,5015],[2.4,5099],[1.8,5183],[1.8,5266],[1.8,5349],[1.8,5432],[1.8,5515],[1.8,5599],[1.8,5682],[1.8,5766],[1.8,5849],[1.8,5932],[1.8,6016],[1.9,6099],[2.2,6183],[7.5,6266],[17.5,6349],[36,6432],[54.5,6516],[79.5,6599],[85.7,6682],[88,6766],[97.7,6849],[98.9,6933],[98.9,7016],[98.9,7099],[98.9,7182],[98.4,7266],[97.6,7349],[97.6,7433],[97.6,7516],[97.6,7599],[97.5,7683],[97.2,7766],[97,7849],[96.1,7933],[95.1,8016],[86.5,8099],[82,8182],[76.8,8266],[74.5,8349],[74.4,8433],[74.4,8515],[74,8599],[71.6,8683],[55.5,8766],[48.1,8849],[48.1,8932],[48.1,9015],[49.2,9099],[51.2,9182],[51.2,9266],[51.2,9349],[51.2,9432],[50.2,9515],[50.1,9599],[50.1,9682],[50.1,9765],[50.1,9850],[50.1,9932],[50.1,10015],[50.1,10099],[50.1,10183],[50.1,10265],[50.1,10349],[50.1,10432],[50.1,10515],[50.1,10598],[50.1,10682],[50.1,10766],[50.1,10848],[50.1,10932],[50.1,11016],[50.1,11098],[50.1,11182],[50.1,11265],[50.1,11348],[50.1,11432],[50.1,11516],[50.1,11599],[50.3,11682]]",1,0,474.356,476.9215,76.33539836,2.1081,"[{""rating"":76.3353983561198,""responseTime"":2.1080999999940673}]",space,2.019,,476.9216,Partially,50,476.9255,,,[],,0,13,13,13,1,audio/Narrative8Situation4.wav,audio/Narrative7Situation4.wav,audio/Narrative6Situation4.wav,audio/Narrative5Situation4.wav,3,3,2,1,,,,,,,,,,,,,,,,,,,,,,,,,,,,,,,,,,,,,,,
,,,,,,63eba3f11d699385d1d4075d,2024-05-13_10h55.13.181,group3.1-3.2-social-tom,2023.2.2,MacIntel,59.52380952,65c5074098b851296ff0b7ed,6642375c79e5a7ce5fef947f,,,,,,,,,,,,,,,,,,,,,,,,,,,,,476.9258,1,audio/Narrative7Situation5.wav,481.9388,,481.9389,490.4384,"[[33.7,1500],[33.7,1583],[33.7,1666],[33.7,1750],[33.7,1833],[33.7,1916],[33.7,1999],[33.7,2083],[40.1,2166],[43.8,2249],[48.7,2333],[48.8,2415],[48.8,2499],[48.8,2582],[48.8,2665],[48.8,2749],[48.8,2832],[48.8,2916],[48.9,3000],[48.9,3083],[48.9,3167],[48.8,3250],[48.8,3332],[48.5,3415],[48.2,3499],[47.5,3583],[45.7,3666],[43.9,3749],[41.3,3833],[40.2,3916],[40.2,4000],[40.2,4083],[40.2,4166],[40.2,4249],[40.2,4332],[40.1,4416],[39.5,4500],[39.4,4583],[39.4,4666],[39.2,4750],[38.9,4833],[38.8,4916],[38.8,4999],[38.8,5083],[38.8,5167],[38.8,5249],[38.8,5332],[38.8,5415],[38.8,5500],[38.8,5583],[38.8,5666],[38.8,5750],[40.5,5833],[43.4,5916],[46.7,5999],[48.7,6082],[52.5,6165],[52.7,6249],[52.7,6332],[52.7,6416],[52.8,6500],[53.1,6583],[54.7,6666],[58.8,6750],[59.6,6833],[60.2,6916],[61.2,7000],[61.8,7083],[62.3,7166],[63.6,7249],[66,7332],[67.3,7416],[68.2,7499],[69.3,7582],[70.5,7666],[72.5,7750],[73,7832],[73.2,7916],[73.2,7999],[73.2,8083],[73.2,8166],[73.2,8249],[73.2,8333],[73.2,8416],[73.2,8499]]",1,0,490.4385,492.8724,48.57117335,1.9556,"[{""rating"":48.57117335001628,""responseTime"":1.9556000000089853}]",space,1.9006,,492.8725,Not at all,0,492.877,,,[],,0,14,14,14,1,audio/Narrative8Situation5.wav,audio/Narrative7Situation5.wav,audio/Narrative6Situation5.wav,audio/Narrative5Situation5.wav,2,5,2,5,,,,,,,,,,,,,,,,,,,,,,,,,,,,,,,,,,,,,,,
,,,,,,63eba3f11d699385d1d4075d,2024-05-13_10h55.13.181,group3.1-3.2-social-tom,2023.2.2,MacIntel,59.52380952,65c5074098b851296ff0b7ed,6642375c79e5a7ce5fef947f,,,,,,,,,,,,,,,,,,,,,,,,,,,,,492.8773,1,audio/Narrative7Situation6.wav,495.8886,,495.8886,505.8553,"[[46.1,1266],[46.1,1349],[46.1,1433],[46.1,1516],[46.2,1599],[46.8,1683],[47.1,1766],[47.2,1850],[47.5,1933],[48.4,2015],[48.4,2100],[48.4,2183],[48.4,2266],[53.2,2349],[68.4,2433],[82.7,2516],[90.1,2600],[96.5,2683],[100,2766],[100,2849],[100,2932],[100,3016],[100,3100],[100,3183],[100,3266],[100,3350],[100,3433],[100,3517],[100,3600],[99.5,3683],[99.2,3766],[99.1,3849],[99.1,3933],[99.1,4016],[99.1,4100],[99.1,4183],[99.2,4266],[99.5,4349],[99.5,4432],[99.5,4516],[99.5,4600],[99.5,4683],[99.7,4766],[99.9,4849],[100,4932],[100,5016],[100,5099],[100,5183],[100,5266],[100,5350],[100,5433],[100,5515],[100,5599],[100,5682],[100,5766],[100,5850],[100,5933],[100,6016],[100,6099],[100,6183],[100,6267],[100,6349],[100,6432],[100,6516],[100,6599],[100,6682],[100,6765],[100,6849],[100,6932],[100,7015],[100,7100],[100,7182],[100,7266],[100,7349],[100,7432],[100,7516],[100,7599],[100,7682],[100,7765],[100,7849],[100,7933],[100,8016],[100,8099],[100,8182],[100,8266],[100,8349],[100,8432],[100,8516],[100,8599],[100,8682],[100,8765],[100,8850],[100,8933],[100,9016],[100,9100],[100,9183],[100,9265],[100,9350],[100,9433],[100,9516],[100,9599],[100,9685],[100,9766],[100,9849],[100,9933]]",1,0,505.8555,507.8721,99.83291626,1.0402,"[{""rating"":99.83291625976562,""responseTime"":1.040200000002983}]",space,1.4688,,507.8722,Definitely yes,100,507.8759,,,[],,0,15,15,15,1,audio/Narrative8Situation6.wav,audio/Narrative7Situation6.wav,audio/Narrative6Situation6.wav,audio/Narrative5Situation6.wav,2,3,2,3,,,,,,,,,,,,,,,,,,,,,,,,,,,,,,,,,,,,,,,
,,,,,,63eba3f11d699385d1d4075d,2024-05-13_10h55.13.181,group3.1-3.2-social-tom,2023.2.2,MacIntel,59.52380952,65c5074098b851296ff0b7ed,6642375c79e5a7ce5fef947f,,,,,,,,,,,,,,,,,,,,,,,,,,,,,507.8761,1,audio/Narrative7Situation7.wav,512.8891,,512.8891,530.0714,"[[61.7,165],[61.7,248],[61.7,332],[61.6,416],[61.4,499],[61.2,582],[60.8,666],[59.5,750],[58.4,833],[57.1,916],[56.5,999],[56.5,1082],[56.5,1166],[56.5,1248],[56.3,1333],[56.2,1415],[56.2,1499],[61.5,1582],[66.3,1665],[68.2,1749],[71.4,1832],[72.4,1915],[72.4,1998],[72.4,2083],[72.4,2165],[72.4,2248],[71.7,2332],[71.7,2416],[71.7,2498],[71.7,2582],[71.8,2666],[74.9,2749],[83.3,2832],[91.3,2916],[95,2999],[99.7,3083],[99.9,3166],[99.9,3248],[99.9,3332],[99.9,3415],[99.9,3499],[99.8,3582],[100,3666],[100,3749],[100,3832],[100,3916],[100,3999],[100,4083],[100,4166],[100,4248],[100,4333],[100,4416],[100,4499],[100,4582],[100,4666],[100,4748],[100,4833],[100,4915],[100,4999],[100,5082],[100,5166],[100,5249],[100,5332],[100,5416],[100,5499],[100,5582],[100,5666],[100,5749],[100,5832],[100,5916],[100,5999],[100,6082],[100,6167],[100,6249],[100,6332],[100,6416],[100,6499],[100,6582],[100,6665],[100,6749],[100,6832],[100,6915],[100,6999],[100,7082],[100,7166],[100,7248],[100,7333],[100,7415],[100,7499],[100,7582],[100,7666],[100,7748],[100,7833],[100,7916],[100,7999],[100,8082],[100,8166],[100,8249],[100,8332],[100,8416],[100,8499],[100,8582],[100,8666],[100,8749],[100,8832],[100,8915],[100,8999],[100,9082],[100,9166],[100,9248],[100,9333],[100,9416],[100,9499],[100,9582],[100,9666],[100,9749],[100,9832],[100,9916],[100,9999],[100,10083],[100,10165],[100,10249],[100,10333],[100,10415],[100,10499],[100,10583],[100,10665],[100,10749],[100,10832],[100,10915],[99.8,10999],[99.4,11081],[99.2,11166],[99,11249],[99,11332],[99,11415],[98.9,11499],[98.8,11583],[98.8,11666],[98.6,11750],[98.2,11832],[97.8,11916],[97.2,12000],[96.9,12082],[95,12165],[94.3,12249],[92.1,12332],[85.2,12415],[77.6,12499],[68.3,12583],[63.7,12665],[59.2,12749],[58.7,12832],[58.2,12915],[54.4,12999],[54.3,13082],[54.3,13165],[54.3,13249],[54.3,13332],[54.3,13415],[54.3,13499],[54.3,13582],[54.3,13665],[54.3,13749],[54.1,13832],[53.6,13916],[52.6,13999],[52.2,14082],[51.9,14165],[51.4,14249],[51.4,14332],[51.4,14415],[51.4,14499],[51.4,14582],[51.4,14666],[51.4,14749],[51.4,14832],[51.4,14915],[51.4,14999],[51.4,15082],[51.4,15166],[51.4,15249],[51.4,15332],[51.4,15415],[51.4,15499],[51.4,15583],[51.4,15665],[51.4,15749],[51.4,15832],[51.4,15915],[51.4,15999],[51.4,16082],[51.4,16166],[50,16249],[49.7,16332],[49.3,16416],[49.2,16499],[49.2,16582],[49.2,16665],[49.2,16749],[49.2,16832],[49.2,16915],[49.2,16999],[49.2,17082],[49.2,17165]]",1,0,530.0716,534.0555,99.97599284,1.9044,"[{""rating"":99.97599283854166,""responseTime"":1.904400000006035}]",space,3.4433,,534.0556,Partially,50,534.0592,,,[],,0,16,16,16,1,audio/Narrative8Situation7.wav,audio/Narrative7Situation7.wav,audio/Narrative6Situation7.wav,audio/Narrative5Situation7.wav,3,5,5,4,,,,,,,,,,,,,,,,,,,,,,,,,,,,,,,,,,,,,,,
,,,,,,63eba3f11d699385d1d4075d,2024-05-13_10h55.13.181,group3.1-3.2-social-tom,2023.2.2,MacIntel,59.52380952,65c5074098b851296ff0b7ed,6642375c79e5a7ce5fef947f,,,,,,,,,,,,,,,,,,,,,,,,,,,,,534.0595,1,audio/Narrative7Situation8.wav,536.0723,,536.0725,546.1053,"[[97.9,1600],[95.9,1682],[92,1765],[92,1849],[92,1932],[91.9,2016],[90.6,2099],[89.6,2182],[87.3,2266],[87.3,2349],[87.3,2432],[87.3,2516],[87.3,2599],[87.3,2682],[87.3,2766],[84.3,2849],[79.5,2932],[79.2,3016],[79.2,3099],[78,3183],[77.8,3266],[78.1,3350],[78.1,3432],[77.9,3515],[76.9,3598],[76.9,3682],[76.7,3766],[76.7,3849],[76.6,3932],[76.6,4016],[76.6,4098],[76.6,4182],[76.6,4266],[76.6,4349],[76.6,4432],[76.5,4516],[75.4,4599],[74.6,4683],[73.5,4765],[72.9,4849],[72.8,4932],[72.8,5016],[72.8,5099],[72.8,5182],[72.8,5265],[72.8,5349],[72.8,5432],[72.8,5516],[72.3,5599],[72,5682],[72,5765],[72,5849],[70.9,5933],[67.5,6015],[64.4,6099],[63.9,6182],[63.9,6265],[63.9,6349],[63.9,6432],[63.9,6516],[63.9,6599],[63.9,6682],[63.9,6765],[63.6,6849],[62.7,6932],[60.4,7016],[60.1,7100],[59.7,7182],[59.7,7265],[59.5,7349],[59.4,7432],[59.4,7516],[59.4,7599],[59.4,7682],[59.4,7766],[59.4,7849],[59.4,7932],[59.4,8015],[59.4,8098],[59.4,8182],[59.4,8265],[59.4,8348],[59.4,8432],[59.4,8516],[64.2,8599],[96.3,8682],[100,8765],[100,8849],[100,8932],[100,9015],[100,9099],[100,9182],[100,9265],[100,9349],[100,9432],[100,9516],[100,9599],[100,9682],[100,9766],[100,9849],[100,9933],[100,10016]]",1,0,546.1055,549.505,99.94918823,0.798,"[{""rating"":99.94918823242188,""responseTime"":0.7980000000000018}]",space,2.8536,,549.5051,Not at all,0,549.5244,,,[],,0,17,17,17,1,audio/Narrative8Situation8.wav,audio/Narrative7Situation8.wav,audio/Narrative6Situation8.wav,audio/Narrative5Situation8.wav,3,2,5,3,,,,,,,,,,,,,,,,,,,,,,,,,,,,,,,,,,,,,,,
,,,,,,63eba3f11d699385d1d4075d,2024-05-13_10h55.13.181,group3.1-3.2-social-tom,2023.2.2,MacIntel,59.52380952,65c5074098b851296ff0b7ed,6642375c79e5a7ce5fef947f,,,,,,,,,,,,,,,,,,,,,,,,,,,,,549.5246,1,audio/Narrative7Situation9.wav,551.5382,,551.5382,560.1555,"[[89,84],[88.9,167],[88.8,250],[88.7,334],[88.2,416],[88,500],[87.7,583],[86.9,683],[86.4,766],[84.3,850],[83.5,933],[83.3,1016],[83.3,1100],[83.3,1183],[83.3,1267],[83.3,1349],[83.3,1433],[83.3,1516],[83.3,1600],[83.4,1684],[84.6,1766],[94,1850],[100,1934],[100,2017],[100,2099],[100,2183],[100,2267],[100,2350],[100,2433],[100,2517],[100,2599],[100,2683],[100,2766],[100,2850],[99.9,2933],[99.7,3017],[99.7,3100],[99.7,3183],[99.7,3267],[99.7,3350],[99.7,3433],[99.7,3517],[100,3599],[100,3683],[100,3767],[100,3850],[100,3933],[100,4016],[100,4099],[100,4183],[100,4266],[100,4350],[100,4433],[100,4516],[100,4600],[100,4683],[100,4766],[100,4850],[100,4933],[100,5016],[100,5100],[100,5183],[100,5266],[100,5350],[100,5432],[100,5516],[100,5600],[100,5683],[100,5766],[100,5850],[100,5933],[100,6016],[100,6099],[100,6183],[100,6266],[100,6349],[100,6433],[100,6516],[100,6600],[100,6683],[100,6766],[100,6850],[100,6933],[100,7017],[100,7100],[100,7183],[100,7266],[100,7349],[100,7433],[100,7516],[100,7600],[100,7683],[100,7767],[100,7850],[100,7933],[100,8016],[100,8099],[100,8183],[100,8266],[100,8350],[100,8433],[100,8516],[100,8599]]",1,0,560.1556,562.2224,99.86509959,1.4805,"[{""rating"":99.86509958902995,""responseTime"":1.4805000000000064}]",space,1.5181,,562.2224,Partially,50,562.2275,,,[],,0,18,18,18,1,audio/Narrative8Situation9.wav,audio/Narrative7Situation9.wav,audio/Narrative6Situation9.wav,audio/Narrative5Situation9.wav,3,2,4,3,,,,,,,,,,,,,,,,,,,,,,,,,,,,,,,,,,,,,,,
,,,,,,63eba3f11d699385d1d4075d,2024-05-13_10h55.13.181,group3.1-3.2-social-tom,2023.2.2,MacIntel,59.52380952,65c5074098b851296ff0b7ed,6642375c79e5a7ce5fef947f,,,,,,,,,,,,,,,,,,,,,,,,,,,566.3392,568.9053,568.9231,2,audio/Narrative13Situation2.wav,568.9232,,568.9232,598.6722,"[[98.9,832],[96.5,914],[94,999],[84.9,1082],[76.8,1165],[72.6,1247],[72.6,1332],[72.6,1414],[72.6,1499],[72.6,1581],[72.7,1665],[72.2,1748],[71.7,1832],[71.5,1915],[71.5,1999],[71.5,2081],[71.4,2165],[71.4,2248],[71.4,2332],[71,2415],[66.8,2499],[61.5,2581],[56.1,2665],[51.4,2748],[49.4,2832],[49.4,2915],[49.4,2999],[49.4,3082],[49.4,3165],[49.1,3248],[47.1,3332],[40.6,3414],[36,3499],[35.6,3582],[34.9,3664],[34.5,3749],[34.5,3831],[34.5,3914],[34.3,3998],[33.4,4082],[32.7,4165],[32,4249],[31.5,4332],[31.5,4415],[31.5,4498],[31.5,4581],[31.5,4665],[31.5,4749],[31.5,4832],[31.5,4915],[31.5,4998],[31.5,5082],[31.6,5165],[31.8,5248],[31.8,5332],[30.8,5415],[29,5498],[23.9,5582],[19.3,5665],[17,5749],[16,5832],[16,5914],[16,5998],[16,6082],[16,6165],[16,6249],[16,6332],[15.9,6416],[15.5,6499],[15,6581],[14.5,6665],[14.5,6748],[14.2,6831],[14.1,6915],[13.9,6998],[13.5,7081],[13.3,7165],[13.2,7248],[13.1,7331],[13,7414],[13,7498],[13,7582],[12.3,7665],[12.2,7749],[12.2,7832],[12.2,7914],[16.5,7999],[48.8,8081],[79.9,8164],[80.9,8249],[87.8,8332],[92.4,8415],[94.1,8499],[97.2,8582],[97.9,8665],[98.3,8749],[100,8832],[100,8915],[100,8999],[100,9081],[100,9165],[100,9248],[100,9332],[100,9415],[100,9498],[100,9582],[100,9665],[100,9748],[100,9832],[100,9915],[100,9998],[100,10082],[100,10165],[100,10249],[100,10332],[100,10415],[100,10499],[100,10581],[100,10664],[100,10748],[99.8,10832],[99.7,10915],[99.7,10997],[99.5,11082],[99.5,11165],[99.5,11249],[99.5,11331],[99.5,11415],[99.6,11498],[99.6,11581],[99.7,11665],[99.7,11749],[99.8,11832],[99.8,11914],[99.8,11998],[99.8,12082],[99.8,12165],[99.8,12248],[99.8,12332],[99.8,12415],[99.8,12499],[99.8,12581],[99.8,12665],[99.8,12748],[99.8,12831],[99.8,12914],[99.8,12998],[99.8,13082],[99.8,13165],[99.8,13248],[99.8,13331],[99.8,13414],[99.8,13498],[99.8,13582],[99.8,13665],[99.8,13749],[99.8,13832],[99.8,13914],[99.8,13999],[99.8,14081],[99.8,14165],[99.8,14249],[99.8,14331],[99.8,14415],[99.8,14499],[99.8,14582],[99.8,14665],[99.8,14747],[99.8,14832],[99.8,14915],[99.8,14999],[99.8,15082],[99.8,15165],[99.8,15248],[99.8,15332],[99.8,15414],[99.8,15498],[99.8,15582],[99.8,15665],[99.8,15747],[99.8,15832],[99.8,15915],[99.8,15999],[99.8,16081],[99.8,16164],[99.8,16249],[99.8,16332],[99.8,16415],[99.8,16499],[99.8,16581],[99.8,16665],[99.8,16747],[99.8,16831],[99.8,16915],[99.8,16998],[98.2,17082],[96.9,17165],[94.8,17248],[88.3,17331],[83.1,17414],[83.1,17498],[83.1,17582],[83.1,17665],[83.1,17748],[83.1,17832],[83.3,17915],[83,17998],[79.4,18081],[71,18164],[64.8,18248],[62.1,18331],[59.9,18414],[57.7,18497],[54.4,18581],[53.5,18664],[53.5,18747],[53.5,18831],[53.5,18915],[53.5,18998],[53.5,19081],[53.4,19165],[52.8,19248],[51.7,19331],[50.5,19415],[50.1,19499],[50,19581],[49.9,19665],[49.6,19748],[49.2,19832],[48.7,19914],[47.5,19998],[46.1,20082],[44.4,20164],[41.7,20249],[39.8,20331],[37.1,20415],[37.2,20498],[37.3,20581],[37.3,20665],[37.3,20748],[37.3,20831],[37.3,20915],[37.3,20998],[37.3,21082],[37.3,21165],[37.4,21248],[37.1,21331],[36.2,21415],[34.5,21498],[33.4,21581],[32.3,21665],[31.8,21749],[30.8,21832],[29.7,21914],[29.1,21998],[28.1,22081],[26.6,22165],[25.2,22248],[24.5,22332],[24.2,22414],[23.8,22499],[23.8,22581],[23.8,22665],[23.8,22749],[23.8,22832],[23.8,22915],[23.8,22998],[23.8,23081],[23.8,23165],[23.8,23248],[23.4,23332],[23.1,23415],[22,23498],[21.9,23582],[21.8,23665],[21.7,23749],[21.6,23831],[21.5,23915],[21.4,23999],[21.3,24081],[21.3,24165],[21.3,24248],[21.3,24332],[21.3,24414],[21,24499],[20.8,24581],[20.8,24665],[20.8,24749],[20.8,24832],[20.8,24914],[20.8,24999],[20.8,25082],[20.8,25165],[20.8,25249],[20.8,25332],[20.8,25414],[20.8,25498],[20.8,25582],[20.8,25665],[20.8,25748],[20.8,25832],[20.8,25914],[20.8,25998],[20.8,26082],[20.8,26164],[20.8,26248],[20.8,26332],[21.1,26415],[21.1,26498],[21.1,26581],[21.1,26664],[20.9,26748],[20.6,26832],[19.4,26915],[18.6,26999],[18.5,27082],[18.3,27164],[17.5,27248],[16.8,27332],[16.2,27415],[15.7,27499],[14.7,27581],[14,27665],[13.9,27749],[13.6,27832],[13.6,27915],[13.4,27999],[13.4,28082],[13.4,28164],[13.3,28248],[13.1,28332],[13.1,28415],[13.1,28499],[13.1,28581],[13.1,28665],[13.1,28748],[13.1,28832],[12.9,28915],[12.7,28999],[12.6,29081],[12.6,29165],[12.4,29249],[12.2,29332],[12.1,29414],[12,29499],[11.9,29582],[11.5,29665],[11.1,29748]]",1,0,598.6725,598.676,,,[],,,,598.676,Not at all,0,598.6802,,,[],,0,0,0,0,1,audio/Narrative13Situation2.wav,audio/Narrative13Situation2.wav,audio/Narrative13Situation2.wav,audio/Narrative13Situation2.wav,2,2,2,2,,,,,562.2286,566.3233,space,3.5693,,,,,,,,,,,,,,,,,,,,,,,,,,,,,,,
,,,,,,63eba3f11d699385d1d4075d,2024-05-13_10h55.13.181,group3.1-3.2-social-tom,2023.2.2,MacIntel,59.52380952,65c5074098b851296ff0b7ed,6642375c79e5a7ce5fef947f,,,,,,,,,,,,,,,,,,,,,,,,,,,,,598.6805,2,audio/Narrative6Situation1.wav,600.6886,,600.6887,627.2724,"[[9.1,1333],[9.5,1416],[9.5,1500],[9.5,1583],[9.5,1665],[9.5,1749],[9.5,1833],[9.5,1915],[9,1999],[9,2083],[9,2166],[9,2250],[9,2333],[9,2415],[9,2499],[9,2583],[9,2666],[9,2749],[9,2833],[9,2916],[9,3000],[8.4,3083],[7.5,3166],[5.7,3249],[4.8,3333],[2.3,3417],[1.3,3500],[1.3,3583],[1.3,3666],[1.1,3749],[0.9,3832],[0.9,3916],[0.9,4000],[0.9,4083],[0.9,4166],[0.9,4250],[0.9,4333],[1,4416],[1.1,4500],[1.1,4582],[1.1,4666],[1.1,4749],[1.1,4833],[1.1,4916],[1.1,5000],[3.5,5083],[21.9,5166],[63.3,5250],[91.3,5333],[93,5416],[93,5500],[93,5583],[96.7,5667],[98.9,5749],[98.9,5833],[98.9,5916],[98.9,6000],[99.5,6084],[99.2,6166],[99.2,6250],[99.2,6333],[99.2,6415],[99.2,6500],[99.2,6583],[99.3,6666],[100,6750],[100,6833],[100,6916],[100,6999],[100,7082],[100,7166],[100,7250],[100,7332],[100,7416],[100,7500],[100,7583],[100,7666],[100,7749],[100,7832],[100,7916],[100,7999],[100,8082],[100,8166],[100,8250],[100,8333],[100,8415],[100,8500],[100,8583],[100,8666],[100,8749],[100,8833],[100,8916],[100,9000],[100,9082],[100,9166],[100,9250],[100,9333],[100,9416],[100,9499],[100,9583],[100,9666],[100,9749],[100,9833],[100,9917],[100,9999],[100,10083],[100,10167],[100,10250],[100,10333],[100,10415],[100,10499],[100,10582],[100,10666],[100,10750],[100,10833],[100,10916],[100,10999],[100,11082],[100,11166],[100,11250],[100,11333],[100,11416],[100,11500],[99.7,11583],[96.5,11666],[95.1,11749],[94.1,11833],[93.1,11917],[91.4,11999],[88.8,12083],[86.1,12167],[83.4,12249],[79.7,12333],[76.9,12417],[74.3,12499],[73.3,12583],[70.8,12666],[68.9,12749],[67.1,12832],[67.1,12916],[67.1,13000],[67.1,13082],[67.1,13166],[67.1,13250],[66.8,13333],[65.7,13417],[62.2,13500],[54.3,13583],[43.9,13666],[33,13750],[25.4,13833],[23.7,13915],[24.4,13999],[24.4,14083],[24.4,14166],[24.4,14249],[24.7,14332],[24.8,14417],[25,14500],[25.7,14583],[26.2,14666],[26.2,14749],[26.2,14833],[26.2,14916],[26.2,15000],[26.2,15082],[30.4,15166],[44.3,15250],[50.6,15332],[51.7,15416],[51.7,15499],[51.7,15583],[51.4,15666],[46.8,15749],[36.1,15832],[31.3,15915],[28.9,15999],[27.4,16083],[27.1,16166],[27.1,16249],[26.3,16332],[24.4,16416],[23.6,16499],[23,16582],[23,16666],[23,16749],[23,16833],[23,16916],[23,16999],[23,17082],[23,17166],[23,17249],[22.4,17333],[20.7,17416],[20,17500],[19.8,17582],[18.4,17666],[17.9,17749],[17.2,17833],[16.3,17916],[15.9,17999],[15.3,18082],[14.8,18166],[14.1,18249],[13.2,18333],[11.5,18416],[9.9,18499],[8.2,18582],[8,18666],[8,18749],[8,18832],[8,18916],[8,19000],[8.1,19082],[7.7,19166],[7.1,19249],[6.5,19332],[6,19416],[5.7,19499],[5.6,19583],[5.6,19666],[5.6,19749],[5.6,19833],[5.4,19916],[5.2,19999],[5,20083],[5,20166],[4.9,20249],[4.6,20332],[4.5,20416],[4.3,20499],[4.3,20582],[4.3,20666],[4.3,20749],[4.3,20832],[4.3,20916],[4.5,21000],[5.6,21087],[18.9,21166],[55.3,21250],[80.9,21333],[88.3,21416],[90.8,21499],[92.5,21583],[94.7,21666],[97.2,21749],[97.2,21832],[97.2,21916],[97.2,21999],[97.6,22083],[98.7,22166],[99.2,22250],[99.4,22333],[99.5,22416],[99.2,22500],[98.9,22583],[98.8,22666],[98.8,22749],[98.8,22833],[98.8,22916],[98.8,22999],[98.8,23082],[98.8,23165],[98.8,23249],[98.8,23333],[98.8,23416],[98.8,23499],[98.7,23582],[98.7,23665],[98.7,23749],[98.7,23833],[98.7,23916],[98.7,24000],[98.7,24083],[98.9,24166],[99.1,24249],[99.2,24332],[99.4,24417],[99.4,24499],[99.4,24583],[99.4,24666],[99.4,24749],[99.4,24833],[99.4,24915],[99.4,24999],[99.5,25082],[99.9,25166],[100,25249],[100,25332],[100,25416],[100,25499],[100,25583],[100,25666],[100,25749],[100,25832],[100,25916],[100,25999],[100,26082],[100,26166],[100,26249],[100,26332],[100,26416],[100,26499],[100,26583]]",1,0,627.2727,630.4717,99.77736155,1.5466,"[{""rating"":99.77736155192058,""responseTime"":1.5465999999939868}]",space,2.6656,,630.4717,Partially,50,630.4764,,,[],,0,1,1,1,1,audio/Narrative7Situation1.wav,audio/Narrative8Situation1.wav,audio/Narrative5Situation1.wav,audio/Narrative6Situation1.wav,2,5,5,2,,,,,,,,,,,,,,,,,,,,,,,,,,,,,,,,,,,,,,,
,,,,,,63eba3f11d699385d1d4075d,2024-05-13_10h55.13.181,group3.1-3.2-social-tom,2023.2.2,MacIntel,59.52380952,65c5074098b851296ff0b7ed,6642375c79e5a7ce5fef947f,,,,,,,,,,,,,,,,,,,,,,,,,,,,,630.4767,2,audio/Narrative6Situation2.wav,633.4886,,633.4888,662.0057,"[[97.5,684],[95.4,768],[94,850],[93.9,933],[93.9,1015],[93.6,1100],[93.3,1183],[92.5,1266],[91.1,1350],[87.3,1432],[78.4,1516],[73,1599],[73,1683],[73,1766],[73,1850],[73,1933],[73,2017],[73,2099],[73,2182],[73.1,2266],[67.3,2350],[48.4,2433],[22.2,2516],[17.9,2600],[15,2683],[11.9,2766],[11,2849],[11,2932],[11,3016],[11,3100],[11,3182],[11,3267],[11,3349],[11,3433],[11,3516],[10.7,3599],[9.8,3683],[8.8,3766],[7.9,3849],[7.9,3933],[7.9,4016],[7.9,4099],[9.2,4182],[11.8,4266],[19.6,4349],[20.5,4432],[22.1,4516],[25.4,4600],[29.7,4684],[32.4,4766],[32.5,4850],[32.5,4933],[32.5,5016],[32.5,5100],[32.5,5183],[32.5,5266],[32.7,5349],[32.9,5433],[34,5516],[34.9,5599],[34.9,5683],[34.9,5767],[34.9,5850],[34.9,5933],[34.9,6016],[35.1,6100],[39,6182],[44.1,6266],[47.2,6350],[49.2,6433],[49.6,6516],[49.6,6600],[49.6,6683],[49.6,6766],[49.6,6849],[49.6,6933],[49.7,7016],[50,7099],[50.3,7183],[51.3,7266],[52,7350],[53,7432],[53.5,7516],[55,7599],[56.1,7683],[57.3,7766],[58.5,7849],[60.4,7932],[60.5,8016],[60.5,8099],[60.5,8183],[60.5,8266],[60.5,8349],[60.5,8433],[60.5,8515],[60.6,8599],[60.8,8682],[61.5,8766],[62.3,8850],[63,8933],[63.7,9016],[64.3,9099],[64.9,9183],[64.9,9266],[64.9,9350],[64.9,9433],[64.9,9516],[65,9599],[65.1,9683],[65.2,9766],[65.5,9850],[66,9933],[66.5,10016],[67.9,10099],[71.3,10182],[71.9,10266],[71.9,10349],[71.9,10433],[71.9,10516],[71.9,10599],[71.9,10683],[71.9,10765],[71.9,10850],[71.9,10932],[72,11016],[72.2,11099],[72.2,11183],[72.2,11266],[72.2,11349],[72.5,11433],[72.7,11516],[72.9,11600],[73,11682],[73.1,11766],[73.1,11850],[73.1,11932],[73.1,12015],[73.1,12099],[73.1,12182],[73.1,12266],[73.1,12349],[73.1,12432],[73.1,12516],[72.3,12599],[71.5,12682],[70.6,12766],[69.1,12850],[67.8,12932],[66.5,13016],[63.3,13100],[61.4,13183],[59.7,13266],[57.8,13349],[57.2,13433],[57.2,13515],[57.2,13599],[57.2,13682],[57.2,13766],[57.2,13849],[57.4,13933],[57.4,14016],[56.6,14099],[55.5,14183],[54,14266],[53.8,14349],[53.8,14433],[53.7,14516],[53.7,14599],[53.7,14682],[53.7,14766],[53.7,14849],[53.7,14932],[53.7,15016],[53.7,15099],[53.7,15182],[53.7,15266],[53.7,15349],[53.7,15432],[53.7,15516],[53.7,15600],[53.7,15682],[53.7,15766],[53.7,15849],[53.7,15932],[53.7,16015],[53.7,16099],[53.7,16182],[53.7,16266],[53.7,16349],[53.7,16433],[53.7,16516],[53.7,16599],[53.7,16682],[53.7,16766],[53.7,16849],[53.7,16933],[53.7,17016],[53.7,17100],[53.7,17183],[53.7,17266],[53.7,17349],[53.7,17433],[53.7,17516],[53.7,17600],[53.4,17683],[53.3,17766],[53.3,17850],[53.2,17932],[53.2,18015],[55.4,18099],[56.8,18182],[59.1,18266],[60,18349],[61.4,18433],[62.1,18516],[63,18600],[63,18683],[63,18766],[63,18849],[62.9,18932],[63.3,19016],[64.7,19099],[71.5,19182],[78.9,19266],[82.5,19349],[86.7,19433],[90.2,19516],[91.6,19600],[91.6,19683],[91.6,19766],[91.6,19849],[91.6,19932],[91.6,20016],[92.2,20100],[93.5,20182],[94.3,20265],[94.8,20349],[95.5,20433],[96.2,20516],[96.4,20599],[96.8,20683],[97,20767],[97,20849],[97,20932],[97,21016],[97.1,21099],[97.3,21182],[97.4,21266],[97.4,21350],[97.5,21432],[97.5,21516],[97.5,21599],[97.6,21683],[97.6,21766],[97.8,21849],[97.9,21932],[97.9,22016],[97.9,22099],[97.9,22182],[97.9,22266],[97.9,22349],[97.9,22432],[97.9,22516],[98.1,22599],[98.2,22683],[98.3,22766],[98.5,22849],[98.5,22932],[98.5,23016],[98.5,23099],[98.5,23182],[98.5,23266],[98.5,23349],[98.5,23432],[98.5,23516],[98.5,23599],[98.5,23683],[98.5,23766],[98.5,23849],[98.5,23933],[98.5,24015],[98.5,24099],[98.5,24183],[98.5,24266],[98.5,24353],[98.5,24432],[98.5,24515],[98.9,24599],[99.6,24682],[100,24766],[100,24849],[100,24932],[100,25016],[100,25100],[100,25182],[100,25266],[100,25349],[100,25432],[100,25515],[100,25599],[100,25682],[100,25765],[100,25849],[100,25932],[100,26016],[100,26099],[100,26182],[100,26266],[100,26349],[100,26433],[100,26516],[100,26599],[100,26682],[100,26766],[100,26850],[100,26932],[100,27016],[100,27099],[100,27183],[100,27266],[100,27350],[100,27432],[100,27516],[100,27599],[100,27683],[100,27766],[100,27849],[100,27933],[100,28015],[100,28100],[100,28182],[100,28265],[100,28350],[100,28432],[100,28516]]",1,0,662.0059,663.8546,99.99500275,1.4061,"[{""rating"":99.99500274658203,""responseTime"":1.4060999999940123}]",space,1.3005,,663.8547,Not at all,0,668.7221,0.140317281,4.318,"[{""rating"":0.14031728108723773,""responseTime"":4.318000000000097}]",space,0,2,2,2,1,audio/Narrative7Situation2.wav,audio/Narrative8Situation2.wav,audio/Narrative5Situation2.wav,audio/Narrative6Situation2.wav,3,3,3,3,,,4.336,,,,,,,,,,,,,,,,,,,,,,,,,,,,,,,,,,,,
,,,,,,63eba3f11d699385d1d4075d,2024-05-13_10h55.13.181,group3.1-3.2-social-tom,2023.2.2,MacIntel,59.52380952,65c5074098b851296ff0b7ed,6642375c79e5a7ce5fef947f,,,,,,,,,,,,,,,,,,,,,,,,,,,,,668.7227,2,audio/Narrative6Situation3.wav,673.7387,,673.7387,686.339,"[[0.2,1099],[0.2,1183],[0.4,1266],[1.4,1350],[15,1433],[40.9,1516],[50.9,1599],[53,1683],[53,1765],[53,1849],[53,1932],[53,2016],[53,2099],[53,2183],[53.6,2266],[61.6,2349],[72.9,2433],[90,2516],[93,2600],[93,2682],[93,2766],[93,2849],[93,2932],[93,3016],[93.3,3099],[93.5,3182],[93.7,3266],[93.7,3349],[93.7,3432],[93.7,3516],[93.8,3599],[94,3683],[94.4,3766],[94.7,3850],[95.5,3932],[95.8,4016],[96.1,4099],[96.6,4183],[96.9,4267],[97,4350],[97,4432],[97,4516],[97,4599],[97,4682],[97,4766],[94.8,4849],[92.6,4933],[85,5016],[69.2,5099],[63.9,5183],[63.7,5266],[63.5,5349],[62.9,5432],[62.9,5516],[62.6,5599],[61.9,5682],[60.7,5767],[59.4,5850],[58.3,5932],[58,6015],[57.6,6099],[57.5,6182],[57.5,6266],[57.2,6349],[57.1,6432],[57.1,6516],[65.9,6599],[84,6682],[94.8,6766],[97.7,6850],[98.7,6933],[99.8,7016],[100,7099],[100,7183],[100,7265],[100,7350],[100,7433],[100,7516],[100,7600],[100,7682],[100,7766],[100,7850],[100,7933],[100,8015],[100,8100],[100,8182],[100,8266],[100,8350],[100,8433],[100,8516],[100,8599],[100,8683],[100,8766],[100,8850],[100,8933],[100,9016],[100,9100],[100,9183],[100,9266],[100,9349],[100,9433],[100,9516],[100,9600],[100,9683],[100,9766],[100,9850],[100,9933],[100,10016],[100,10100],[100,10183],[100,10266],[100,10349],[100,10432],[100,10516],[100,10600],[100,10683],[100,10766],[100,10849],[100,10933],[100,11015],[100,11100],[100,11183],[100,11266],[100,11350],[100,11433],[100,11516],[100,11600],[100,11683],[100,11766],[100,11850],[100,11933],[100,12016],[100,12100],[100,12183],[100,12266],[100,12350],[100,12432],[100,12516],[100,12600]]",1,0,686.3393,688.1391,99.72409566,0.8488,"[{""rating"":99.72409566243489,""responseTime"":0.84880000001192}]",space,1.252,,688.1392,Partially,50,688.1452,,,[],,0,3,3,3,1,audio/Narrative7Situation3.wav,audio/Narrative8Situation3.wav,audio/Narrative5Situation3.wav,audio/Narrative6Situation3.wav,8,4,3,5,,,,,,,,,,,,,,,,,,,,,,,,,,,,,,,,,,,,,,,
,,,,,,63eba3f11d699385d1d4075d,2024-05-13_10h55.13.181,group3.1-3.2-social-tom,2023.2.2,MacIntel,59.52380952,65c5074098b851296ff0b7ed,6642375c79e5a7ce5fef947f,,,,,,,,,,,,,,,,,,,,,,,,,,,,,688.1454,2,audio/Narrative6Situation4.wav,690.1555,,690.1556,702.7725,"[[99,750],[79.3,834],[61.3,916],[58.1,999],[58.1,1082],[58.1,1166],[58.1,1249],[58.1,1332],[58.1,1416],[57.6,1500],[55.9,1583],[52.7,1666],[51.2,1749],[50.1,1833],[50.1,1915],[50.1,1999],[50.1,2082],[50.1,2166],[50.1,2250],[50.1,2333],[50.1,2415],[50.4,2500],[50.4,2583],[49,2666],[47.4,2750],[44.9,2832],[43,2916],[42.4,3000],[41.6,3083],[40.4,3167],[39,3250],[37.2,3333],[36.2,3416],[36.2,3500],[36.2,3582],[36.2,3666],[36.2,3749],[36.3,3833],[36.3,3915],[35.8,4000],[34.6,4083],[33,4166],[32.2,4250],[31.8,4333],[31.7,4415],[31.6,4500],[31.6,4583],[31.6,4666],[31.6,4750],[31.6,4833],[31.6,4916],[31.6,5000],[31.8,5082],[32.3,5166],[32.4,5249],[32.5,5333],[32.5,5416],[32.5,5499],[32.5,5583],[32.5,5665],[32.5,5748],[32.5,5833],[32.5,5916],[32.7,5999],[32.7,6083],[32.8,6166],[32.9,6250],[33,6333],[33.1,6416],[33.2,6500],[33.2,6583],[33.3,6666],[33.6,6750],[34.4,6833],[34.6,6916],[35,6999],[35.3,7082],[35.4,7166],[35.7,7250],[35.9,7333],[36.1,7416],[36.3,7499],[36.6,7583],[36.7,7666],[36.8,7750],[36.9,7832],[36.9,7915],[37,7999],[37,8082],[37,8166],[37,8250],[37,8333],[37.1,8416],[37.1,8499],[37.2,8583],[37.2,8666],[37.2,8750],[37.2,8832],[37.2,8915],[37.2,8999],[37.2,9082],[37.2,9166],[37.2,9249],[37.2,9333],[37.2,9416],[37.2,9500],[37.2,9583],[37.2,9666],[37.2,9749],[37.2,9833],[37.1,9916],[37.1,10000],[37,10083],[37,10166],[37,10249],[37,10332],[37,10416],[37,10499],[37,10583],[36.7,10666],[36.1,10750],[35.2,10833],[33.7,10917],[31.3,11000],[28.6,11082],[28,11167],[27.7,11249],[27.4,11333],[27.4,11417],[27.2,11499],[26.9,11583],[26.8,11666],[26.8,11749],[26.8,11833],[26.8,11916],[26.7,12000],[26.6,12083],[26.6,12166],[26.6,12249],[26.6,12333],[26.6,12415],[26.5,12499],[26.2,12582]]",1,0,702.7727,705.5046,11.21358871,1.4634,"[{""rating"":11.21358871459961,""responseTime"":1.4633999999911111}]",space,2.1915,,705.5047,Definitely yes,100,705.509,,,[],,0,4,4,4,1,audio/Narrative7Situation4.wav,audio/Narrative8Situation4.wav,audio/Narrative5Situation4.wav,audio/Narrative6Situation4.wav,3,3,1,2,,,,,,,,,,,,,,,,,,,,,,,,,,,,,,,,,,,,,,,
,,,,,,63eba3f11d699385d1d4075d,2024-05-13_10h55.13.181,group3.1-3.2-social-tom,2023.2.2,MacIntel,59.52380952,65c5074098b851296ff0b7ed,6642375c79e5a7ce5fef947f,,,,,,,,,,,,,,,,,,,,,,,,,,,,,705.5093,2,audio/Narrative6Situation5.wav,707.5223,,707.5223,715.4896,"[[23.1,833],[18.8,916],[16.8,1000],[16.8,1082],[16.8,1166],[16.8,1250],[16.8,1333],[16.8,1415],[16.8,1500],[16.9,1582],[16.9,1666],[16.9,1750],[16.9,1832],[16.9,1916],[16.9,1999],[16.9,2082],[17.3,2166],[17.4,2249],[17.5,2333],[17.6,2416],[17.7,2500],[18,2583],[19.6,2666],[23.4,2750],[23.5,2833],[23.5,2915],[23.5,3000],[23.5,3083],[23.5,3166],[23.5,3250],[23.6,3333],[24.2,3416],[24.4,3500],[24.9,3582],[25.5,3666],[27.5,3749],[30.4,3833],[31.6,3915],[32,3999],[32,4083],[32,4166],[32,4249],[32,4333],[32,4415],[32,4499],[32,4583],[32,4665],[32,4750],[32,4833],[32,4916],[32,4999],[32,5082],[32,5166],[32,5249],[32,5332],[31.9,5415],[31.6,5500],[31.4,5582],[31.3,5666],[31.3,5749],[31.5,5832],[35.3,5916],[38.5,6000],[39.6,6082],[39.6,6166],[39.6,6249],[39.6,6333],[39.6,6415],[39.6,6499],[39.6,6583],[39.6,6666],[39.6,6749],[39.6,6833],[39.7,6916],[39.9,6999],[40.4,7082],[40.6,7166],[40.7,7250],[40.7,7333],[40.6,7416],[40.4,7499],[40.2,7582],[39.5,7665],[37.9,7750],[36.6,7832],[32.7,7916]]",1,0,715.4897,717.3056,14.25057729,1.0279,"[{""rating"":14.250577290852867,""responseTime"":1.0279000000059568}]",space,1.2753,,717.3058,Definitely yes,100,717.3089,,,[],,0,5,5,5,1,audio/Narrative7Situation5.wav,audio/Narrative8Situation5.wav,audio/Narrative5Situation5.wav,audio/Narrative6Situation5.wav,5,2,5,2,,,,,,,,,,,,,,,,,,,,,,,,,,,,,,,,,,,,,,,
,,,,,,63eba3f11d699385d1d4075d,2024-05-13_10h55.13.181,group3.1-3.2-social-tom,2023.2.2,MacIntel,59.52380952,65c5074098b851296ff0b7ed,6642375c79e5a7ce5fef947f,,,,,,,,,,,,,,,,,,,,,,,,,,,,,717.3093,2,audio/Narrative6Situation6.wav,719.3222,,719.3222,730.406,"[[17.4,166],[17.4,250],[17.4,333],[17.4,416],[17.4,499],[17.4,582],[17.2,666],[17.2,750],[17.2,834],[17.2,916],[17.2,999],[17.2,1082],[17.2,1166],[17.2,1249],[17.2,1333],[17.2,1416],[17.2,1500],[17.2,1583],[17.2,1666],[17.2,1749],[17.2,1832],[17.2,1916],[17.2,1999],[17.2,2083],[17.2,2166],[17.2,2250],[17.2,2332],[17.2,2415],[17.2,2500],[17.2,2582],[17.2,2666],[17.2,2750],[17.2,2833],[17.2,2916],[17.2,3000],[17.2,3083],[17.2,3166],[17.2,3249],[17.2,3333],[18,3416],[18.3,3500],[18.5,3583],[18.6,3666],[18.7,3750],[18.7,3833],[18.8,3916],[19,3999],[19.1,4082],[19.3,4166],[19.3,4250],[19.3,4333],[19.3,4416],[19.3,4499],[19.3,4582],[19.3,4666],[19.3,4750],[19.3,4832],[19.1,4916],[18.8,4999],[18.5,5083],[18.1,5166],[17.9,5249],[17.8,5333],[17.5,5415],[17.2,5500],[16.8,5583],[15.9,5665],[15.6,5750],[15.4,5833],[15.1,5916],[14.8,6000],[14.5,6083],[14.2,6166],[14,6249],[13.8,6332],[13.7,6416],[13.6,6500],[13.3,6583],[13.3,6666],[13.1,6750],[12.9,6832],[12.8,6916],[12.8,6999],[12.5,7083],[12.1,7166],[12,7249],[12,7333],[12,7416],[12,7499],[12,7583],[12,7666],[12,7750],[12,7832],[12,7915],[12,8000],[12,8083],[12,8165],[12,8250],[12,8333],[12,8416],[12,8500],[12,8582],[12,8666],[12,8749],[12,8833],[12,8915],[12,9000],[12,9083],[12,9166],[12,9249],[12,9333],[12,9416],[12,9500],[12,9583],[12,9666],[12,9750],[12,9833],[12,9915],[12,10000],[12,10082],[12,10165],[12,10250],[12,10333],[12,10416],[12,10500],[12,10582],[12,10666],[12,10750],[12,10833],[12,10916],[12,10999],[11.8,11083]]",1,0,730.4064,732.4057,4.935646057,0.8292,"[{""rating"":4.935646057128906,""responseTime"":0.8292000000029702}]",space,1.4568,,732.4058,Partially,50,732.4117,,,[],,0,6,6,6,1,audio/Narrative7Situation6.wav,audio/Narrative8Situation6.wav,audio/Narrative5Situation6.wav,audio/Narrative6Situation6.wav,3,2,3,2,,,,,,,,,,,,,,,,,,,,,,,,,,,,,,,,,,,,,,,
,,,,,,63eba3f11d699385d1d4075d,2024-05-13_10h55.13.181,group3.1-3.2-social-tom,2023.2.2,MacIntel,59.52380952,65c5074098b851296ff0b7ed,6642375c79e5a7ce5fef947f,,,,,,,,,,,,,,,,,,,,,,,,,,,,,732.4121,2,audio/Narrative6Situation7.wav,737.4223,,737.4225,762.2888,"[[7.4,767],[6.7,850],[6.2,933],[6.1,1015],[5.8,1099],[5.8,1183],[5.8,1266],[5.8,1349],[5.9,1433],[6.2,1516],[6.3,1600],[6.4,1682],[6.6,1766],[6.7,1849],[6.7,1932],[6.7,2016],[6.7,2099],[6.7,2183],[6.7,2266],[6.7,2348],[6.7,2433],[6.7,2516],[6.5,2599],[6.4,2683],[6.2,2766],[6,2849],[5.8,2932],[5.5,3015],[5.3,3099],[5,3183],[4.8,3266],[4.7,3349],[4.6,3433],[4.5,3516],[4.4,3600],[4.3,3682],[4.1,3765],[4.1,3849],[4,3932],[3.9,4016],[3.9,4099],[3.8,4183],[3.6,4266],[3.5,4349],[3.4,4433],[3.3,4515],[3.3,4598],[3.3,4682],[3.3,4766],[3.2,4849],[3.2,4932],[3.1,5015],[3.1,5100],[3.1,5183],[3.1,5265],[3,5349],[3,5433],[3,5516],[2.9,5599],[2.9,5682],[2.9,5766],[2.9,5849],[2.9,5932],[2.9,6015],[2.9,6099],[2.9,6182],[2.9,6265],[2.7,6349],[2.7,6433],[2.5,6516],[2.4,6599],[2.3,6683],[2.2,6765],[2.1,6850],[1.8,6932],[0.9,7016],[0.6,7100],[0.4,7182],[0.4,7266],[0.3,7349],[0.3,7433],[0.3,7516],[0.3,7599],[0.3,7682],[0.3,7766],[0.3,7849],[0,7932],[0.1,8848],[0.1,8932],[0.3,9016],[0.4,9099],[0.4,9183],[0.7,9265],[1.7,9350],[5.3,9432],[39.7,9516],[83.6,9600],[97.6,9682],[100,9766],[100,9849],[100,9932],[100,10016],[100,10199],[100,10283],[100,10366],[100,10449],[100,10533],[100,10615],[100,10699],[99.8,10783],[99.8,10866],[99.8,10950],[99.8,11032],[100,11116],[100,11199],[100,11283],[100,11366],[100,11449],[100,11532],[100,11616],[100,11699],[100,11783],[100,11866],[100,11948],[100,12032],[100,12115],[100,12199],[100,12283],[100,12366],[100,12449],[100,12532],[100,12616],[100,12699],[100,12783],[100,12866],[100,12949],[100,13032],[100,13116],[100,13199],[100,13282],[100,13366],[100,13449],[100,13532],[100,13616],[100,13699],[100,13783],[100,13866],[100,13948],[100,14032],[100,14115],[100,14199],[100,14282],[100,14366],[100,14449],[100,14532],[100,14615],[100,14699],[100,14782],[100,14866],[100,14948],[100,15033],[100,15116],[100,15199],[100,15282],[100,15366],[100,15448],[100,15532],[100,15616],[100,15699],[100,15782],[100,15865],[100,15948],[100,16032],[100,16115],[100,16199],[100,16282],[100,16366],[100,16449],[100,16532],[100,16616],[100,16699],[100,16783],[100,16866],[100,16949],[100,17032],[100,17116],[100,17199],[100,17282],[100,17365],[100,17449],[100,17532],[100,17616],[100,17699],[100,17783],[100,17866],[100,17948],[100,18032],[100,18115],[100,18199],[100,18283],[100,18366],[100,18449],[100,18532],[100,18615],[100,18699],[100,18782],[100,18866],[100,18949],[100,19032],[100,19116],[100,19198],[100,19282],[100,19366],[100,19449],[100,19532],[100,19615],[100,19699],[100,19783],[100,19866],[100,19949],[100,20033],[100,20116],[100,20199],[100,20283],[100,20366],[100,20449],[100,20533],[100,20615],[100,20699],[100,20782],[100,20866],[100,20949],[100,21032],[100,21115],[100,21199],[100,21282],[100,21366],[100,21448],[100,21533],[100,21616],[100,21699],[100,21783],[100,21865],[100,21949],[100,22032],[100,22115],[100,22199],[100,22282],[100,22366],[100,22449],[100,22533],[100,22615],[100,22698],[100,22783],[100,22865],[100,22949],[100,23032],[100,23116],[100,23199],[100,23282],[100,23366],[100,23448],[100,23533],[100,23616],[100,23699],[100,23782],[100,23866],[100,23948],[100,24032],[100,24115],[100,24199],[100,24283],[100,24365],[100,24449],[100,24532],[100,24616],[100,24699],[100,24782],[100,24866]]",1,0,762.289,765.6554,99.84442393,1.9914,"[{""rating"":99.84442392985027,""responseTime"":1.9914000000059104}]",space,2.8395,,765.6555,Partially,50,765.6581,,,[],,0,7,7,7,1,audio/Narrative7Situation7.wav,audio/Narrative8Situation7.wav,audio/Narrative5Situation7.wav,audio/Narrative6Situation7.wav,5,3,4,5,,,,,,,,,,,,,,,,,,,,,,,,,,,,,,,,,,,,,,,
,,,,,,63eba3f11d699385d1d4075d,2024-05-13_10h55.13.181,group3.1-3.2-social-tom,2023.2.2,MacIntel,59.52380952,65c5074098b851296ff0b7ed,6642375c79e5a7ce5fef947f,,,,,,,,,,,,,,,,,,,,,,,,,,,,,765.6585,2,audio/Narrative6Situation8.wav,770.6717,,770.6718,777.5383,"[[87.9,682],[85.8,750],[81.1,833],[77.4,916],[73.5,999],[72.1,1083],[72.1,1166],[72.1,1250],[72.1,1333],[72.1,1416],[72.1,1499],[72.1,1582],[72.1,1666],[72.4,1749],[72.4,1833],[70.7,1917],[65.6,1999],[62.5,2083],[60.6,2167],[58.8,2249],[57.3,2333],[56.6,2416],[56.5,2499],[56.5,2582],[56.5,2666],[56.5,2749],[56.5,2832],[56.5,2916],[56.5,2999],[56.5,3084],[56.4,3166],[55.5,3251],[52.7,3333],[49.5,3416],[47.8,3500],[45.9,3583],[43.3,3667],[39.7,3750],[35,3833],[28.3,3916],[25.9,4000],[25.9,4082],[25.9,4166],[25.9,4250],[25.9,4332],[25.9,4416],[25.9,4500],[25.9,4583],[26,4666],[25.2,4750],[19.1,4833],[12.3,4917],[9.5,4999],[7.7,5083],[3.2,5166],[2.2,5250],[0.9,5333],[0.2,5416],[0.2,5499],[0.2,5583],[0.2,5666],[0.2,5749],[0.2,5833],[0.2,5916],[0.2,5999],[0.3,6083],[0.2,6166],[0.2,6249],[0.2,6332],[0.2,6416],[0.2,6499],[0.2,6583],[0.2,6666],[0.2,6749],[0.2,6833]]",1,0,777.5385,779.5048,0.142930349,0.9251,"[{""rating"":0.14293034871419308,""responseTime"":0.9250999999940177}]",space,1.4332,,779.5048,Partially,50,779.5079,,,[],,0,8,8,8,1,audio/Narrative7Situation8.wav,audio/Narrative8Situation8.wav,audio/Narrative5Situation8.wav,audio/Narrative6Situation8.wav,2,3,3,5,,,,,,,,,,,,,,,,,,,,,,,,,,,,,,,,,,,,,,,
,,,,,,63eba3f11d699385d1d4075d,2024-05-13_10h55.13.181,group3.1-3.2-social-tom,2023.2.2,MacIntel,59.52380952,65c5074098b851296ff0b7ed,6642375c79e5a7ce5fef947f,,,,,,,,,,,,,,,,,,,,,,,,,,,,,779.5083,2,audio/Narrative6Situation9.wav,783.5223,,783.5223,793.4715,"[[0.7,2183],[1.6,2266],[1.9,2350],[2,2432],[2,2515],[2,2599],[2,2682],[2,2766],[2,2850],[2.1,2932],[2.3,3016],[2.3,3100],[2.3,3182],[2.3,3266],[2.3,3349],[2.3,3433],[2.3,3516],[2.3,3599],[2.3,3683],[2.7,3766],[2.7,3849],[2.7,3932],[3,4016],[3,4100],[3.2,4182],[3.3,4266],[3.3,4350],[3.4,4432],[3.6,4515],[3.7,4599],[3.8,4682],[3.8,4765],[3.9,4849],[3.9,4933],[4,5016],[4,5100],[4,5182],[4,5266],[4.1,5348],[4.1,5433],[4.1,5516],[4.2,5599],[4.3,5683],[4.3,5765],[4.3,5849],[4.3,5932],[4.3,6015],[4.3,6099],[3.7,6183],[2.9,6266],[2.7,6349],[2.5,6432],[2,6515],[1.9,6599],[1.8,6682],[1.7,6766],[1.6,6850],[1.6,6933],[1.6,7016],[1.6,7100],[1.6,7182],[1.6,7265],[1.6,7349],[1.6,7432],[1.6,7515],[1.6,7599],[1.6,7682],[1.6,7765],[1.6,7849],[1.6,7932],[1.6,8015],[1.6,8099],[1.6,8182],[1.5,8266],[1.2,8349],[1.2,8432],[1.2,8515],[1.2,8599],[1.2,8682],[1.2,8766],[1.2,8849],[1.2,8932],[1.2,9016],[1.2,9099],[1.2,9182],[1.2,9266],[1.2,9349],[1.2,9432],[1.2,9515],[1.2,9599],[1.2,9682],[1.2,9766],[1.2,9849],[1,9933]]",1,0,793.4716,795.4556,0.001106262,0.8736,"[{""rating"":0.0011062622070290296,""responseTime"":0.8736000000088779}]",space,1.4514,,795.4556,Not at all,0,795.4605,,,[],,0,9,9,9,1,audio/Narrative7Situation9.wav,audio/Narrative8Situation9.wav,audio/Narrative5Situation9.wav,audio/Narrative6Situation9.wav,2,3,3,4,,,,,,,,,,,,,,,,,,,,,,,,,,,,,,,,,,,,,,,
,,,,,,63eba3f11d699385d1d4075d,2024-05-13_10h55.13.181,group3.1-3.2-social-tom,2023.2.2,MacIntel,59.52380952,65c5074098b851296ff0b7ed,6642375c79e5a7ce5fef947f,,,,,,,,,,,,,,,,,,,,,,,,,,,,,795.4608,2,audio/Narrative5Situation1.wav,800.4716,,800.4716,813.7723,"[[0.3,1600],[0.3,1683],[0.4,1766],[4.4,1850],[9.2,1933],[9.7,2017],[9.8,2100],[10.6,2183],[11.9,2266],[12.1,2350],[12.1,2433],[12.1,2517],[12.1,2600],[12.1,2683],[11.8,2766],[11.5,2849],[11.3,2933],[11.3,3016],[11.2,3100],[11.2,3183],[11.2,3267],[11.4,3350],[11.4,3432],[11.8,3516],[11.8,3600],[11.8,3683],[11.8,3767],[11.8,3850],[11.8,3933],[11.8,4016],[11.9,4100],[11.9,4182],[12,4266],[12.1,4350],[12.4,4433],[12.9,4517],[12.9,4600],[13.1,4683],[13.2,4767],[13.2,4850],[13.3,4933],[13.3,5016],[13.4,5099],[13.5,5183],[13.6,5267],[13.7,5349],[13.9,5433],[14.6,5516],[15.2,5599],[16.8,5683],[16.8,5766],[17.1,5850],[17.4,5933],[17.5,6016],[17.5,6099],[17.5,6183],[17.5,6266],[17.5,6349],[17.5,6433],[17.5,6516],[17.5,6599],[17.6,6683],[17.7,6767],[17.7,6849],[18,6932],[18.4,7074],[18.4,7149],[18.4,7233],[18.4,7316],[18.4,7400],[18.4,7483],[18.4,7566],[18.4,7649],[18.4,7733],[18.4,7816],[18.4,7900],[18.5,7983],[18.5,8066],[18.5,8150],[18.5,8233],[18.5,8317],[18.5,8399],[18.5,8483],[18.6,8567],[18.6,8650],[18.6,8733],[18.6,8817],[18.6,8899],[18.6,8983],[18.6,9066],[18.6,9150],[18.6,9233],[18.6,9317],[18.6,9399],[18.6,9483],[18.6,9566],[18.7,9650],[19,9733],[19,9817],[19.1,9899],[19.3,9984],[19.3,10066],[19.3,10150],[19.3,10233],[19.3,10316],[19.5,10399],[19.5,10483],[19.5,10566],[19.5,10650],[19.5,10734],[19.5,10816],[19.5,10899],[19.5,10983],[20.7,11067],[21.7,11150],[21.7,11233],[21.7,11316],[22.7,11399],[24.4,11484],[24.6,11567],[24.6,11650],[24.6,11733],[24.6,11817],[24.6,11899],[24.6,11983],[24.6,12067],[24.6,12150],[24.6,12233],[24.6,12317],[24.6,12399],[24.6,12483],[24.6,12566],[24.6,12650],[24.6,12733],[24.6,12816],[24.6,12899],[24.6,12982],[24.6,13066],[24.6,13150],[24.6,13233]]",1,0,813.7725,815.489,24.02375539,0.7707,"[{""rating"":24.0237553914388,""responseTime"":0.7707000000029893}]",space,1.1863,,815.4892,Not at all,0,815.4917,,,[],,0,10,10,10,1,audio/Narrative8Situation1.wav,audio/Narrative7Situation1.wav,audio/Narrative6Situation1.wav,audio/Narrative5Situation1.wav,5,2,2,5,,,,,,,,,,,,,,,,,,,,,,,,,,,,,,,,,,,,,,,
,,,,,,63eba3f11d699385d1d4075d,2024-05-13_10h55.13.181,group3.1-3.2-social-tom,2023.2.2,MacIntel,59.52380952,65c5074098b851296ff0b7ed,6642375c79e5a7ce5fef947f,,,,,,,,,,,,,,,,,,,,,,,,,,,,,815.492,2,audio/Narrative5Situation2.wav,818.5047,,818.5048,847.9559,"[[21.8,934],[21.7,1017],[21.6,1100],[20.5,1183],[20.4,1267],[20.4,1350],[20.4,1432],[20.4,1516],[20.4,1600],[20.8,1683],[20.9,1766],[21.1,1850],[21.1,1934],[21.1,2017],[21.1,2100],[21.1,2183],[21.1,2267],[21.1,2350],[21.1,2433],[21,2517],[21,2599],[21,2683],[21,2766],[21,2850],[21.3,2934],[21.4,3017],[21.5,3100],[21.6,3183],[22,3266],[22.4,3349],[23.4,3433],[23.4,3517],[23.4,3599],[23.4,3683],[23.4,3766],[23.4,3850],[23.4,3933],[23.5,4016],[23.8,4100],[23.8,4183],[23.8,4267],[23.8,4350],[23.8,4433],[24,4517],[24,4600],[24.1,4683],[24.2,4766],[24.2,4850],[24.4,4933],[24.5,5016],[24.5,5100],[24.5,5183],[24.5,5267],[24.5,5350],[24.5,5432],[24.6,5517],[24.6,5600],[24.7,5683],[24.8,5766],[24.8,5850],[24.8,5933],[24.8,6017],[24.8,6100],[24.8,6182],[24.9,6267],[24.9,6350],[24.9,6434],[25,6516],[25,6600],[25,6684],[25,6766],[25,6850],[24.9,6933],[23.6,7016],[21.9,7099],[19.9,7183],[17.5,7266],[15.4,7349],[14,7433],[13.8,7517],[13.8,7599],[13.8,7683],[13.8,7766],[13.8,7849],[13.8,7933],[14,8016],[14.1,8100],[14.2,8183],[14.3,8267],[18.9,8350],[35.8,8434],[38.5,8516],[38.5,8599],[38.5,8683],[37.9,8766],[36.6,8850],[35.9,8932],[35.5,9017],[35.4,9099],[35.4,9183],[35.4,9266],[35.4,9349],[35.4,9433],[35.4,9516],[35.4,9599],[35.4,9683],[35.4,9766],[35.4,9849],[35.4,9933],[35.4,10016],[35.4,10099],[35.4,10183],[35.4,10266],[35.4,10349],[35.4,10433],[35.8,10517],[36.2,10600],[36.6,10683],[37.1,10766],[37.7,10850],[37.7,10934],[37.7,11016],[38.1,11099],[38.1,11184],[38.1,11266],[38.1,11349],[38.1,11433],[38.1,11516],[38.1,11599],[38.3,11683],[38.5,11766],[39,11849],[40.3,11933],[40.6,12016],[40.6,12100],[40.8,12183],[41.2,12266],[42.1,12350],[42.9,12433],[44.1,12517],[47.3,12601],[50.8,12684],[59.1,12767],[64,12850],[64,12934],[64,13017],[62.6,13101],[60.3,13183],[58.6,13266],[58.2,13350],[58.1,13434],[58.1,13517],[58,13599],[57.4,13683],[56.9,13767],[56.2,13849],[55.4,13934],[54.8,14017],[54.6,14099],[54.5,14183],[54.1,14267],[53.7,14350],[53.4,14433],[53.3,14517],[52.8,14601],[52.7,14683],[52.4,14767],[52.2,14850],[51.9,14934],[51.7,15017],[51.5,15100],[51.4,15183],[51.4,15267],[51.4,15350],[51.4,15433],[51.4,15517],[51.4,15600],[51.4,15683],[51.4,15767],[51.4,15850],[51.4,15933],[51.4,16017],[51.4,16099],[51.4,16183],[51.4,16267],[51.4,16350],[51.4,16434],[51.4,16517],[51.4,16600],[51.4,16683],[51.6,16766],[51.6,16850],[51.7,16934],[51.8,17017],[51.8,17100],[51.9,17184],[52,17266],[52.1,17349],[52.5,17433],[52.5,17517],[52.5,17600],[52.7,17683],[52.7,17767],[52.7,17850],[52.7,17934],[52.7,18017],[52.7,18100],[52.7,18183],[52.8,18267],[52.8,18350],[52.9,18434],[52.9,18517],[52.9,18600],[52.9,18684],[52.9,18766],[52.9,18850],[52.9,18934],[52.9,19017],[52.9,19100],[52.9,19184],[52.9,19267],[52.9,19349],[52.9,19434],[52.9,19517],[52.9,19600],[52.9,19683],[52.8,19766],[52.8,19849],[52.8,19934],[52.7,20017],[52.7,20100],[52.7,20183],[52.7,20267],[52.7,20350],[52.7,20433],[52.7,20517],[52.6,20601],[52.6,20683],[52.6,20766],[52.6,20850],[52.6,20934],[52.6,21017],[52.6,21100],[52.6,21183],[52.5,21266],[52.5,21349],[52.5,21433],[52.5,21517],[52.5,21601],[52.5,21683],[52.5,21767],[52.4,21850],[52.4,21933],[52.4,22017],[52.4,22100],[52.3,22184],[52.3,22267],[52.2,22350],[52.2,22434],[52.2,22517],[52.1,22599],[52.1,22683],[52.1,22766],[52.1,22849],[52,22934],[51.8,23017],[51.8,23101],[51.7,23184],[51.7,23267],[51.7,23351],[51.6,23433],[51.6,23517],[51.5,23600],[51.5,23684],[51.5,23767],[51.5,23850],[51.5,23933],[51.5,24017],[51.5,24100],[51.5,24184],[51.5,24267],[51.5,24350],[51.5,24433],[51.5,24517],[51.5,24601],[51.5,24683],[51.5,24767],[51.5,24850],[51.3,24933],[51.3,25017],[51.3,25101],[51.3,25184],[51.3,25267],[51.3,25350],[51.3,25433],[51.3,25517],[51.3,25600],[51.3,25683],[51.2,25767],[51.2,25851],[51.1,25933],[51.1,26017],[50.9,26100],[50.9,26183],[50.9,26267],[50.9,26350],[50.9,26434],[50.8,26517],[50.8,26599],[50.8,26684],[50.8,26766],[50.8,26850],[50.8,26934],[50.8,27017],[50.8,27100],[50.8,27183],[50.8,27266],[50.8,27350],[50.8,27433],[50.8,27517],[50.8,27600],[50.8,27684],[50.8,27767],[50.8,27850],[50.8,27933],[50.8,28017],[50.8,28100],[50.8,28184],[50.8,28267],[50.8,28350],[50.8,28433],[50.8,28517],[50.8,28599],[50.8,28684],[50.8,28766],[50.8,28850],[50.8,28934],[50.8,29017],[50.8,29100],[50.8,29184],[50.8,29267],[50.8,29350],[50.8,29433]]",1,0,847.956,849.8391,49.68571345,1.1139,"[{""rating"":49.68571345011393,""responseTime"":1.1139000000059696}]",space,1.3446,,849.8391,Not at all,0,849.8417,,,[],,0,11,11,11,1,audio/Narrative8Situation2.wav,audio/Narrative7Situation2.wav,audio/Narrative6Situation2.wav,audio/Narrative5Situation2.wav,3,3,3,3,,,,,,,,,,,,,,,,,,,,,,,,,,,,,,,,,,,,,,,
,,,,,,63eba3f11d699385d1d4075d,2024-05-13_10h55.13.181,group3.1-3.2-social-tom,2023.2.2,MacIntel,59.52380952,65c5074098b851296ff0b7ed,6642375c79e5a7ce5fef947f,,,,,,,,,,,,,,,,,,,,,,,,,,,,,849.8421,2,audio/Narrative5Situation3.wav,852.8555,,852.8556,866.7725,"[[51,83],[50.9,166],[50.9,249],[50.8,332],[50.7,416],[50.7,499],[50.7,583],[50,666],[49.1,750],[48.4,834],[47.8,916],[47.7,1000],[47.7,1083],[47.4,1166],[47.1,1250],[46.9,1333],[46.1,1415],[45.6,1499],[44.7,1582],[44.2,1666],[44,1749],[44,1833],[44,1916],[44,1999],[44,2082],[44,2166],[44,2250],[44,2332],[44,2416],[43.6,2500],[43.2,2583],[42.5,2666],[41,2750],[38.6,2832],[37.3,2915],[37.2,2999],[37.1,3082],[37,3166],[36.5,3249],[36.3,3333],[36.1,3417],[35.7,3500],[35.8,3582],[35.8,3665],[35.8,3750],[35.8,3833],[35.8,3916],[35.8,4000],[35.8,4083],[35.8,4166],[35.8,4249],[35.8,4333],[35.5,4415],[35.4,4500],[35.1,4583],[35.1,4666],[35.1,4749],[35.2,4832],[37.6,4915],[38.4,4999],[39,5082],[39,5166],[39,5250],[39,5333],[38.6,5416],[39.2,5499],[57.3,5583],[80.6,5666],[82,5750],[86.1,5832],[91.9,5916],[92.4,6000],[95.8,6082],[97.4,6167],[97.8,6249],[98.8,6333],[98.8,6415],[99.2,6499],[99.2,6583],[99.2,6666],[99.2,6749],[99.2,6833],[99.2,6915],[99.3,7000],[99.3,7083],[99.5,7166],[99.6,7250],[99.7,7333],[99.9,7416],[99.9,7499],[99.9,7582],[99.9,7666],[99.9,7750],[99.9,7833],[99.9,7917],[99.9,7999],[99.9,8083],[99.9,8166],[99.9,8249],[99.9,8333],[99.9,8416],[99.9,8499],[99.9,8582],[99.9,8666],[99.9,8750],[99.9,8833],[99.9,8915],[99.9,8999],[99.9,9082],[99.9,9166],[99.9,9249],[99.9,9333],[99.9,9416],[99.9,9500],[99.9,9582],[99.9,9666],[99.9,9750],[99.9,9832],[99.9,9916],[99.9,10000],[99.9,10083],[99.9,10166],[99.9,10249],[99.9,10333],[99.9,10416],[99.9,10499],[99.9,10583],[99.9,10666],[99.9,10749],[99.9,10832],[99.9,10915],[99.9,11000],[99.9,11083],[99.9,11165],[99.9,11249],[99.9,11333],[99.9,11416],[99.9,11500],[99.9,11582],[99.9,11666],[99.9,11749],[99.9,11832],[99.9,11916],[99.9,12000],[99.9,12083],[99.9,12166],[99.9,12249],[99.9,12333],[99.9,12415],[99.9,12499],[99.9,12583],[99.9,12666],[99.9,12750],[99.9,12833],[99.9,12917],[99.9,12999],[99.9,13082],[99.9,13166],[99.9,13250],[99.9,13333],[99.9,13415],[99.9,13498],[99.9,13582],[99.9,13666],[99.9,13750],[99.9,13832],[99.9,13916]]",1,0,866.7726,869.455,99.94403839,0.8945,"[{""rating"":99.94403839111328,""responseTime"":0.8944999999999936}]",space,2.1445,,869.455,Definitely yes,100,869.4592,,,[],,0,12,12,12,1,audio/Narrative8Situation3.wav,audio/Narrative7Situation3.wav,audio/Narrative6Situation3.wav,audio/Narrative5Situation3.wav,4,8,5,3,,,,,,,,,,,,,,,,,,,,,,,,,,,,,,,,,,,,,,,
,,,,,,63eba3f11d699385d1d4075d,2024-05-13_10h55.13.181,group3.1-3.2-social-tom,2023.2.2,MacIntel,59.52380952,65c5074098b851296ff0b7ed,6642375c79e5a7ce5fef947f,,,,,,,,,,,,,,,,,,,,,,,,,,,,,869.4596,2,audio/Narrative5Situation4.wav,870.4719,,870.472,890.8558,"[[98.8,83],[98.8,166],[98.7,249],[97.2,333],[95.2,417],[92.3,500],[88.6,582],[82.8,667],[80.9,749],[80.4,832],[80.5,916],[80.5,1000],[80.5,1083],[80.5,1166],[80.5,1250],[80.5,1333],[80.5,1416],[80.5,1500],[80.5,1583],[80.5,1666],[80.5,1750],[80.5,1833],[79.9,1916],[77.8,1999],[75.5,2083],[74.7,2167],[75,2249],[74.9,2332],[74.9,2417],[74.9,2499],[74.9,2583],[74.9,2666],[74.9,2750],[74.9,2833],[74.9,2916],[74.8,3000],[73.9,3083],[73.5,3166],[73.2,3250],[72.3,3333],[70.1,3416],[65.1,3499],[61.8,3583],[59.4,3667],[58.7,3750],[58.4,3832],[58.4,3916],[58.4,4000],[58.4,4083],[58.4,4167],[58.4,4250],[58.4,4333],[58.4,4416],[58.4,4499],[58.6,4583],[58.6,4666],[58.4,4750],[58.1,4833],[55.9,4917],[55.2,4999],[54.3,5083],[53.5,5167],[53.2,5249],[52.5,5333],[52.3,5416],[51.9,5500],[51.5,5583],[51,5666],[50.8,5750],[50.6,5833],[50.4,5917],[50.3,6000],[51,6083],[51,6175],[51,6250],[51,6332],[51,6416],[51,6499],[51,6583],[51,6666],[50.7,6749],[50.5,6833],[50.4,6916],[50.4,7000],[50.4,7083],[50.4,7166],[50.4,7250],[50.4,7333],[50.3,7416],[50.3,7499],[50.1,7583],[50,7667],[50,7750],[50,7833],[49.9,7916],[49.7,7999],[48.2,8083],[46.9,8166],[45.6,8249],[45.5,8333],[45.1,8417],[44.3,8499],[43.6,8583],[42.6,8667],[42.1,8749],[41.2,8832],[41.2,8917],[41.2,9000],[41.2,9083],[41.2,9165],[41.2,9250],[41.3,9333],[41.3,9416],[41.4,9500],[41.4,9583],[41.4,9666],[41.4,9750],[41.5,9833],[42,9916],[44.7,9999],[47.9,10083],[49.2,10166],[49.2,10250],[49.2,10333],[49.2,10417],[49.2,10499],[49.2,10583],[49.2,10666],[49.2,10750],[49.2,10833],[49.2,10916],[49.2,11000],[49.5,11083],[49.7,11166],[50,11249],[50.3,11333],[50.7,11416],[50.9,11500],[50.9,11583],[50.9,11666],[50.9,11751],[51,11833],[51.1,11917],[51.3,12000],[51.6,12083],[51.6,12167],[51.8,12250],[51.9,12333],[52,12416],[52,12499],[52,12583],[52,12666],[52,12750],[52,12833],[52,12916],[52,13000],[52.1,13083],[52.1,13166],[52.1,13250],[52.1,13333],[52.2,13416],[52.2,13500],[52.2,13583],[52.2,13666],[52.2,13750],[52.2,13832],[52.2,13916],[52.2,13999],[52.2,14083],[52.3,14167],[52.8,14250],[53.3,14333],[53.6,14417],[53.6,14500],[53.6,14583],[53.6,14666],[53.6,14750],[55,14833],[58.8,14916],[59.1,15000],[59.1,15082],[59.1,15166],[59.1,15250],[58.7,15333],[58.7,15416],[58.7,15500],[58.8,15583],[60.5,15667],[67.2,15750],[73.5,15833],[77.8,15916],[90.2,15999],[95.4,16083],[95.9,16167],[96.4,16250],[96.4,16333],[96.4,16416],[96.4,16499],[96.4,16583],[96.5,16666],[97.2,16749],[97.4,16833],[97.8,16916],[97.9,17000],[98.1,17083],[98.2,17166],[98.3,17249],[98.8,17332],[98.9,17415],[98.9,17499],[98.9,17583],[98.9,17666],[98.9,17749],[98.9,17832],[99,17917],[99,18000],[99,18082],[99.1,18166],[99.1,18250],[99.1,18332],[99.1,18416],[99.1,18499],[99.1,18583],[99.1,18666],[99.1,18749],[99.1,18833],[99.1,18916],[99.1,18999],[99.1,19083],[99.1,19166],[99.1,19250],[99.1,19332],[99.1,19416],[99.1,19500],[99.1,19583],[99.1,19666],[99.1,19750],[99.1,19833],[99.1,19916],[99.3,19999],[99.3,20083],[99.3,20166],[99.3,20249],[99.3,20333]]",1,0,890.856,892.7387,99.8311615,0.8585,"[{""rating"":99.83116149902344,""responseTime"":0.8584999999999354}]",space,1.3377,,892.7388,Definitely yes,100,892.7407,,,[],,0,13,13,13,1,audio/Narrative8Situation4.wav,audio/Narrative7Situation4.wav,audio/Narrative6Situation4.wav,audio/Narrative5Situation4.wav,3,3,2,1,,,,,,,,,,,,,,,,,,,,,,,,,,,,,,,,,,,,,,,
,,,,,,63eba3f11d699385d1d4075d,2024-05-13_10h55.13.181,group3.1-3.2-social-tom,2023.2.2,MacIntel,59.52380952,65c5074098b851296ff0b7ed,6642375c79e5a7ce5fef947f,,,,,,,,,,,,,,,,,,,,,,,,,,,,,892.7411,2,audio/Narrative5Situation5.wav,897.7554,,897.7554,913.1724,"[[88.8,916],[85.3,1000],[84.8,1082],[84.8,1166],[84.8,1249],[84.8,1333],[84.8,1416],[84.8,1499],[84.8,1582],[84.8,1667],[84.8,1749],[84.8,1833],[84.8,1917],[84.9,2000],[84.9,2082],[84.8,2166],[84.6,2250],[84.4,2332],[83.3,2416],[82.2,2500],[80.8,2582],[78.6,2666],[76.2,2749],[72.5,2833],[69.9,2916],[69.9,3000],[69.9,3082],[69.9,3166],[69.9,3250],[69.9,3333],[69.9,3416],[69.9,3499],[69.9,3583],[69.8,3667],[69.7,3749],[69.2,3833],[68.5,3916],[68,3999],[67.7,4083],[67.5,4167],[67.2,4249],[67.1,4333],[67,4417],[66.9,4499],[66.7,4583],[66.6,4667],[66.4,4749],[66.3,4833],[66.1,4916],[66,5000],[65.9,5082],[65.9,5166],[65.7,5250],[65.7,5332],[65.7,5416],[65.7,5500],[65.7,5583],[65.7,5666],[65.7,5749],[65.7,5833],[65.7,5916],[65.7,5999],[65.7,6083],[65.7,6166],[65.7,6250],[65.7,6333],[65.7,6417],[65.7,6500],[65.7,6582],[65.7,6666],[66,6750],[66,6833],[66.1,6916],[66.2,6999],[66.2,7083],[66.3,7166],[66.3,7250],[66.4,7333],[66.4,7417],[66.5,7500],[66.5,7583],[66.5,7666],[66.6,7750],[66.6,7833],[66.6,7916],[66.6,7999],[66.6,8083],[66.6,8166],[66.6,8250],[66.6,8333],[66.6,8416],[66.6,8506],[66.6,8583],[66.6,8666],[66.6,8750],[64.9,8832],[64.8,8916],[64.8,9000],[67.7,9082],[76,9167],[82.1,9250],[82.1,9333],[82.1,9416],[82.1,9500],[82.1,9582],[82.1,9666],[82.8,9749],[85.8,9833],[85.9,9915],[85.9,9999],[85.9,10083],[85.9,10167],[85.9,10249],[85.9,10332],[85.9,10416],[85.9,10500],[85.9,10583],[85.9,10666],[85.9,10749],[85.9,10833],[85.9,10917],[85.9,11000],[85.9,11082],[85.9,11166],[85.9,11249],[85.9,11332],[85.9,11417],[86,11500],[86.2,11583],[86.6,11667],[87,11749],[87.1,11833],[87.2,11916],[87.2,11999],[87.2,12083],[87.2,12166],[87.1,12250],[87.1,12333],[87.1,12416],[87.1,12499],[87.1,12583],[87.1,12665],[87.5,12750],[88.2,12832],[88.8,12916],[88.8,12999],[88.8,13083],[88.8,13166],[88.8,13248],[88.8,13333],[88.8,13416],[88.8,13500],[88.8,13583],[88.8,13666],[88.8,13749],[88.8,13832],[88.8,13916],[88.8,14000],[88.8,14083],[88.8,14166],[88.8,14250],[88.8,14333],[88.8,14416],[88.8,14500],[88.8,14582],[88.8,14665],[88.8,14750],[88.8,14833],[88.8,14916],[88.8,15000],[88.8,15083],[88.8,15166],[88.8,15249],[88.8,15333],[88.8,15416]]",1,0,913.1727,915.5223,92.21299489,0.923,"[{""rating"":92.21299489339192,""responseTime"":0.9230000000000018}]",space,1.7994,,915.5224,Definitely yes,100,915.5253,,,[],,0,14,14,14,1,audio/Narrative8Situation5.wav,audio/Narrative7Situation5.wav,audio/Narrative6Situation5.wav,audio/Narrative5Situation5.wav,2,5,2,5,,,,,,,,,,,,,,,,,,,,,,,,,,,,,,,,,,,,,,,
