exp_question,consent.started,consent.stopped,consentResponse.keys,consentResponse.rt,consentResponse.duration,participantID,date,expName,psychopyVersion,OS,frameRate,STUDY_ID,SESSION_ID,opening1.started,opening1.stopped,keyEndingOpening1.keys,keyEndingOpening1.rt,keyEndingOpening1.duration,volumeAdjust.started,volumeAdjust.stopped,endingAdjust.keys,endingAdjust.rt,endingAdjust.duration,opening2.started,opening2.stopped,keyEndingOpening.keys,keyEndingOpening.rt,keyEndingOpening.duration,mouse.x,mouse.y,mouse.leftButton,mouse.midButton,mouse.rightButton,mouse.time,instructionLoop.thisRepN,instructionLoop.thisTrialN,instructionLoop.thisN,instructionLoop.thisIndex,instructionLoop.ran,readyForAudio.started,readyForAudio.stopped,fixation.started,run,audio_played,fixation.stopped,endPractice.keys,audioPre.started,audioPre.stopped,continuousResponses_audio,continuousSlider.response,continuousSlider.rt,intRating.started,intRating.stopped,intQuestionSlider.response,intQuestionSlider.rt,intQuestionSlider.history,confirmResponse.keys,confirmResponse.rt,confirmResponse.duration,catchQuestion.started,catch_label,catch_value,catchQuestion.stopped,catchQuestionSlider.response,catchQuestionSlider.rt,catchQuestionSlider.history,confirmResponse_2.keys,audioRunLoop.thisRepN,audioRunLoop.thisTrialN,audioRunLoop.thisN,audioRunLoop.thisIndex,audioRunLoop.ran,conditions1_1,conditions2_1,conditions1_2,conditions2_2,dur1_1,dur2_1,dur1_2,dur2_2,endPractice.rt,endPractice.duration,confirmResponse_2.rt,confirmResponse_2.duration,runIntervalBreak.started,runIntervalBreak.stopped,endingBreakKey.keys,endingBreakKey.rt,endingBreakKey.duration,connection.started,connection.stopped,connectionEnding.keys,connectionEnding.rt,connectionEnding.duration,readyForText.started,readyForText.stopped,textPre.started,run_dup,textPre.stopped,continuousResponses_text,textRunLoop.thisRepN,textRunLoop.thisTrialN,textRunLoop.thisN,textRunLoop.thisIndex,textRunLoop.ran,text1_1,text1_2,text2_1,text2_2,runBreakText.started,runBreakText.stopped,endingBreakKey_2.keys,endingBreakKey_2.rt,endingBreakKey_2.duration,ending.started,ending.stopped,endingEnding.keys,endingEnding.rt,endingEnding.duration
tom,0.0003,4.7524,y,4.4344,,63ed1fa5c88ecae92bf0c920,2024-02-08_16h03.27.063,group3.1-3.2-social-tom,2023.2.2,Win32,59.88023952,65c5074098b851296ff0b7ed,65c54192d99af06b3aa52799,,,,,,,,,,,,,,,,,,,,,,,,,,,,,,,,,,,,,,,,,,,,,,,,,,,,,,,,,,,,,,,,,,,,,,,,,,,,,,,,,,,,,,,,,,,,,,,,,,,,,,,,,,
,,,,,,63ed1fa5c88ecae92bf0c920,2024-02-08_16h03.27.063,group3.1-3.2-social-tom,2023.2.2,Win32,59.88023952,65c5074098b851296ff0b7ed,65c54192d99af06b3aa52799,4.7531,14.2531,space,9.452,,,,,,,,,,,,,,,,,,,,,,,,,,,,,,,,,,,,,,,,,,,,,,,,,,,,,,,,,,,,,,,,,,,,,,,,,,,,,,,,,,,,,,,,,,,,,,,,,,,,,,
,,,,,,63ed1fa5c88ecae92bf0c920,2024-02-08_16h03.27.063,group3.1-3.2-social-tom,2023.2.2,Win32,59.88023952,65c5074098b851296ff0b7ed,65c54192d99af06b3aa52799,,,,,,14.2532,26.837,space,12.2575,,,,,,,,,,,,,,,,,,,,,,,,,,,,,,,,,,,,,,,,,,,,,,,,,,,,,,,,,,,,,,,,,,,,,,,,,,,,,,,,,,,,,,,,,,,,,,,,,
,,,,,,63ed1fa5c88ecae92bf0c920,2024-02-08_16h03.27.063,group3.1-3.2-social-tom,2023.2.2,Win32,59.88023952,65c5074098b851296ff0b7ed,65c54192d99af06b3aa52799,,,,,,,,,,,26.8437,41.9543,space,15.0844,,[],[],[],[],[],[],0,0,0,0,1,,,,,,,,,,,,,,,,,,,,,,,,,,,,,,,,,,,,,,,,,,,,,,,,,,,,,,,,,,,,,,,,,,,,,,,,,,,,,,,,
,,,,,,63ed1fa5c88ecae92bf0c920,2024-02-08_16h03.27.063,group3.1-3.2-social-tom,2023.2.2,Win32,59.88023952,65c5074098b851296ff0b7ed,65c54192d99af06b3aa52799,,,,,,,,,,,41.9547,61.3357,space,19.2972,,[],[],[],[],[],[],1,0,1,0,1,,,,,,,,,,,,,,,,,,,,,,,,,,,,,,,,,,,,,,,,,,,,,,,,,,,,,,,,,,,,,,,,,,,,,,,,,,,,,,,,
,,,,,,63ed1fa5c88ecae92bf0c920,2024-02-08_16h03.27.063,group3.1-3.2-social-tom,2023.2.2,Win32,59.88023952,65c5074098b851296ff0b7ed,65c54192d99af06b3aa52799,,,,,,,,,,,61.3419,83.2693,space,21.9026,,[],[],[],[],[],[],2,0,2,0,1,,,,,,,,,,,,,,,,,,,,,,,,,,,,,,,,,,,,,,,,,,,,,,,,,,,,,,,,,,,,,,,,,,,,,,,,,,,,,,,,
,,,,,,63ed1fa5c88ecae92bf0c920,2024-02-08_16h03.27.063,group3.1-3.2-social-tom,2023.2.2,Win32,59.88023952,65c5074098b851296ff0b7ed,65c54192d99af06b3aa52799,,,,,,,,,,,83.2753,104.8517,space,21.5493,,[],[],[],[],[],[],3,0,3,0,1,,,,,,,,,,,,,,,,,,,,,,,,,,,,,,,,,,,,,,,,,,,,,,,,,,,,,,,,,,,,,,,,,,,,,,,,,,,,,,,,
,,,,,,63ed1fa5c88ecae92bf0c920,2024-02-08_16h03.27.063,group3.1-3.2-social-tom,2023.2.2,Win32,59.88023952,65c5074098b851296ff0b7ed,65c54192d99af06b3aa52799,,,,,,,,,,,104.8626,117.7038,space,12.8251,,[],[],[],[],[],[],4,0,4,0,1,,,,,,,,,,,,,,,,,,,,,,,,,,,,,,,,,,,,,,,,,,,,,,,,,,,,,,,,,,,,,,,,,,,,,,,,,,,,,,,,
,,,,,,63ed1fa5c88ecae92bf0c920,2024-02-08_16h03.27.063,group3.1-3.2-social-tom,2023.2.2,Win32,59.88023952,65c5074098b851296ff0b7ed,65c54192d99af06b3aa52799,,,,,,,,,,,,,,,,,,,,,,,,,,,117.729,120.3024,120.327,1,audio/Narrative13Situation2.wav,122.336,,122.3368,152.0873,"[[999,2],[999,131],[999,215],[999,298],[999,382],[999,464],[999,548],[999,631],[999,715],[999,798],[999,882],[47.9,965],[47.8,1048],[49.8,1132],[49.8,1215],[49.8,1298],[49.8,1381],[49.7,1465],[48.9,1549],[47.4,1632],[47.4,1714],[47.4,1798],[47.4,1881],[47.3,1965],[43.9,2048],[33.4,2132],[26.9,2215],[10.3,2298],[5.4,2382],[5.4,2465],[5.4,2548],[5.4,2631],[5.4,2715],[5.4,2798],[5.4,2882],[5.4,2966],[5.4,3049],[5.4,3131],[5.4,3215],[5.4,3299],[5.4,3382],[5.4,3466],[5.3,3548],[2.7,3632],[2.4,3716],[2.4,3798],[2.4,3881],[2.4,3964],[2.4,4049],[2.4,4132],[2.4,4216],[2.4,4298],[2.4,4381],[2.4,4466],[2.8,4549],[3.9,4632],[4.3,4715],[4.3,4798],[4.3,4882],[4.3,4966],[4.4,5048],[4.4,5131],[4.4,5214],[4.4,5298],[4.4,5381],[4.4,5465],[4.4,5548],[4.4,5632],[4.4,5716],[4.4,5799],[4.4,5881],[4.4,5964],[4.4,6048],[4.4,6131],[4.4,6216],[4.4,6298],[4.4,6382],[4.4,6464],[4.4,6549],[4.4,6632],[4.4,6715],[4.4,6798],[4.4,6882],[4.4,6964],[4.4,7049],[4.4,7131],[4.4,7214],[4.4,7298],[4.4,7381],[4.4,7464],[4.4,7548],[4.4,7631],[4.4,7715],[4.4,7799],[4.4,7881],[4.4,7964],[4.4,8049],[4.4,8132],[4.4,8215],[4.4,8299],[4.4,8381],[4.4,8465],[4.4,8548],[4.4,8631],[4.4,8715],[4.4,8798],[4.4,8882],[4.4,8965],[4.4,9048],[4.4,9132],[4.4,9214],[4.4,9298],[4.4,9382],[4.4,9465],[4.4,9548],[4.4,9631],[4.4,9715],[4.4,9798],[4.4,9881],[4.4,9966],[4.4,10048],[4.4,10132],[4.4,10215],[4.4,10298],[4.4,10382],[4.4,10466],[4.4,10548],[4.4,10632],[4.4,10714],[4.4,10798],[4.4,10881],[4.4,10964],[4.4,11047],[4.4,11132],[4.4,11215],[4.4,11299],[4.4,11382],[4.4,11464],[4.4,11548],[4.4,11632],[4.4,11715],[4.4,11798],[4.4,11882],[4.4,11966],[5,12066],[8,12149],[13,12232],[17.1,12315],[17.9,12398],[22.5,12482],[26.4,12565],[27.1,12649],[27.6,12732],[27.6,12816],[27.6,12898],[28.9,12982],[29.5,13064],[29.5,13148],[29.5,13231],[29.5,13315],[29.5,13399],[29.5,13482],[29.5,13566],[29.5,13648],[29.5,13732],[29.5,13815],[29.5,13899],[29.5,13982],[29.5,14066],[29.5,14148],[29.5,14231],[29.5,14315],[29.5,14399],[29.5,14482],[29.5,14565],[29.5,14648],[29.5,14731],[29.5,14815],[29.5,14898],[29.5,14982],[29.5,15066],[29.5,15149],[29.5,15231],[29.5,15315],[29.5,15399],[29.5,15482],[29.5,15565],[29.5,15648],[29.5,15732],[29.5,15814],[29.5,15898],[29.5,15981],[29.5,16065],[29.5,16148],[29.5,16232],[29.5,16314],[29.5,16398],[28.9,16497],[28.3,16565],[27.6,16655],[27,16731],[26.6,16821],[26.4,16904],[26.3,16982],[26.3,17065],[26.3,17148],[26.3,17232],[26.3,17314],[26.3,17398],[26.6,17481],[26.9,17566],[26.9,17647],[26.9,17731],[26.9,17815],[26.9,17898],[26.9,17982],[26.9,18065],[26.9,18148],[26.9,18238],[26.9,18315],[26.9,18398],[26.9,18481],[26.9,18564],[26.9,18648],[26.9,18732],[26.9,18816],[26.9,18905],[26.9,18981],[26.9,19064],[26.9,19155],[27.3,19231],[27.9,19316],[28.1,19405],[28.2,19481],[28.2,19564],[28.2,19648],[28.2,19732],[28.2,19816],[28.2,19898],[28.2,19981],[28.2,20066],[28.2,20148],[28.2,20239],[28.2,20314],[28.2,20398],[28.2,20481],[28.2,20571],[28.2,20648],[28.2,20731],[28.2,20816],[28.2,20898],[28.2,20982],[28.2,21065],[28.8,21149],[31.1,21239],[35.7,21322],[41.9,21405],[45.6,21489],[46.8,21564],[49,21655],[51.1,21739],[51.4,21815],[51.4,21897],[51.4,21982],[51,22065],[50.7,22154],[50.6,22239],[50.6,22316],[50.4,22398],[50.4,22482],[50.4,22565],[50.4,22655],[50.4,22731],[50.4,22816],[50.4,22897],[50.4,22981],[50.4,23071],[50.4,23148],[50.4,23238],[50.4,23314],[50.4,23398],[50.4,23481],[50.4,23565],[50.4,23648],[50.4,23731],[50.4,23816],[50,23906],[49.6,23990],[49.2,24066],[49.1,24148],[49.1,24232],[49.1,24314],[49.1,24398],[49.1,24481],[49.1,24564],[49.4,24657],[49.5,24739],[49.5,24814],[49.5,24898],[49.5,24981],[49.5,25066],[49.7,25148],[49.9,25239],[50,25316],[50,25398],[50,25488],[50,25565],[50,25647],[50,25738],[50,25815],[50,25898],[50,25982],[50,26065],[48.4,26149],[46.9,26240],[46.9,26314],[46.9,26397],[46.8,26482],[46.8,26565],[46.8,26648],[46.8,26732],[46.8,26822],[46.8,26898],[46.8,26982],[46.8,27064],[46.8,27148],[46.8,27231],[46.8,27315],[46.8,27398],[46.8,27482],[46.8,27564],[46.8,27648],[46.8,27731],[46.8,27814],[46.8,27899],[46.7,27982],[46.7,28064],[46.6,28148],[46.6,28232],[46.5,28315],[47.5,28407],[49.9,28490],[50.3,28566],[50.3,28648],[50.4,28731],[50.4,28814],[50.4,28897],[50.4,28981],[50.2,29071],[50.2,29148],[50.2,29238],[50.2,29315],[50.2,29397],[50.2,29482],[50.1,29565],[49.9,29648],[49.9,29731]]",1,0,152.0881,161.6853,29.6875,3.9731,"[{""rating"":29.6875,""responseTime"":3.9730999999977428}]",space,9.0536,,161.691,All the time,100,161.6942,,,[],,0,0,0,0,1,audio/Narrative13Situation2.wav,audio/Narrative13Situation2.wav,audio/Narrative13Situation2.wav,audio/Narrative13Situation2.wav,2,2,2,2,,,,,,,,,,,,,,,,,,,,,,,,,,,,,,,,,,,,,,,
,,,,,,63ed1fa5c88ecae92bf0c920,2024-02-08_16h03.27.063,group3.1-3.2-social-tom,2023.2.2,Win32,59.88023952,65c5074098b851296ff0b7ed,65c54192d99af06b3aa52799,,,,,,,,,,,,,,,,,,,,,,,,,,,,,161.6944,1,audio/Narrative7Situation1.wav,166.7845,space,166.7845,222.6677,"[[51.1,667],[51.1,751],[51.1,834],[51.1,917],[51.1,1000],[50.8,1083],[50.8,1167],[50.8,1250],[50.8,1333],[50.8,1417],[50.8,1500],[50.8,1584],[50.8,1668],[50.8,1750],[50.8,1834],[50.8,1917],[50.4,2001],[50.3,2084],[50.3,2166],[50.3,2250],[50.3,2334],[50.3,2417],[50.3,2500],[50.3,2584],[49.9,2667],[40.2,2750],[22.9,2833],[17.6,2917],[17.6,3000],[17.6,3083],[17.6,3166],[17.6,3250],[17.6,3333],[16.8,3417],[9.5,3500],[8.8,3584],[8.8,3666],[8.8,3750],[8.5,3833],[8.5,3917],[8.5,4000],[8.5,4084],[8.5,4167],[8.5,4250],[8.5,4333],[8.5,4416],[8.5,4500],[8.5,4583],[8.5,4666],[8.5,4750],[8.5,4834],[8.8,4917],[8.9,5000],[8.9,5084],[8.9,5166],[8.9,5250],[8.9,5333],[8.9,5417],[8.9,5500],[8.9,5584],[8.9,5667],[8.9,5750],[8.9,5834],[8.9,5917],[8.9,6000],[8.9,6083],[8.9,6167],[8.9,6250],[8.9,6334],[8.9,6417],[8.9,6500],[8.9,6583],[8.9,6667],[8.9,6750],[8.9,6833],[8.9,6917],[8.9,7000],[8.9,7084],[8.9,7167],[8.9,7250],[8.9,7334],[8.9,7417],[8.9,7500],[8.9,7584],[8.9,7667],[8.9,7750],[8.9,7833],[8.9,7917],[8.9,8000],[8.9,8084],[8.9,8167],[8.9,8250],[8.9,8334],[8.9,8416],[8.9,8500],[8.9,8584],[8.9,8667],[8.9,8749],[8.9,8834],[9.2,8917],[10.7,9000],[12.4,9084],[14,9167],[14.1,9250],[14.1,9334],[14.3,9417],[14.5,9500],[14.6,9584],[14.6,9667],[14.6,9750],[14.6,9834],[14.6,9916],[14.6,10000],[14.6,10084],[14.6,10166],[14.6,10249],[14.6,10334],[14.7,10417],[14.9,10500],[17.6,10584],[22.2,10667],[30.9,10751],[42.6,10833],[44.5,10917],[45.6,11001],[48.5,11083],[50.9,11167],[50.9,11249],[50.9,11334],[50.9,11417],[53,11500],[59.8,11584],[67.7,11667],[67.9,11749],[67.9,11833],[67.9,11917],[67.9,12000],[67.9,12083],[67.9,12166],[67.9,12249],[67.9,12334],[67.9,12418],[67.9,12500],[67.9,12584],[67.9,12667],[67.9,12750],[67.9,12833],[67.9,12917],[67.9,13000],[67.9,13084],[67.9,13167],[67.9,13250],[67.9,13334],[67.9,13417],[67.9,13500],[68,13583],[68.1,13666],[68.1,13751],[68.1,13834],[68.1,13916],[68.1,13999],[68.1,14083],[68.1,14166],[68.1,14250],[68.1,14334],[68.1,14417],[68.1,14500],[68.1,14584],[68.1,14666],[68.1,14749],[68.1,14834],[68.1,14917],[68.1,15000],[68.1,15083],[68.1,15167],[68.1,15250],[68.1,15334],[68.1,15417],[68.1,15500],[68.1,15584],[68.1,15667],[68.1,15749],[68.1,15834],[68.1,15917],[68.1,16000],[68.1,16084],[68.1,16167],[68.1,16250],[68.1,16334],[68.1,16417],[68.1,16500],[68.1,16584],[68.1,16667],[68.1,16750],[68,16833],[68,16917],[67.9,17000],[67.8,17083],[66.8,17167],[65.2,17251],[62.7,17334],[61.3,17417],[60,17500],[59.4,17584],[59.3,17666],[59.2,17750],[59.2,17834],[59.6,17917],[63.1,18000],[64.4,18084],[64.9,18167],[66.4,18250],[69.6,18333],[75.5,18417],[75.7,18500],[75.7,18584],[75.7,18667],[75.7,18750],[75.7,18834],[75.7,18917],[75.7,19000],[75.7,19083],[77.9,19167],[78.9,19250],[78.9,19333],[79.7,19417],[82.2,19500],[82.3,19583],[82.3,19667],[82.3,19750],[82.3,19833],[82.3,19917],[82.3,20000],[82.3,20083],[82.3,20166],[82.3,20250],[82.3,20334],[82.3,20417],[82.3,20500],[82.3,20583],[82.3,20666],[82.3,20750],[82.3,20833],[82.3,20917],[82.3,21000],[82.3,21083],[82.3,21167],[82.3,21249],[82.3,21333],[82.3,21416],[82.3,21500],[82.3,21584],[82.3,21666],[82.3,21750],[82.3,21834],[82.3,21917],[82.6,22000],[82.7,22083],[82.7,22167],[82.7,22250],[82.8,22334],[83.2,22417],[83.5,22500],[83.6,22584],[83.9,22667],[84.4,22750],[85.1,22833],[85.3,22917],[86.6,23000],[86.8,23084],[87,23167],[87.1,23250],[87.3,23333],[87.8,23417],[88.3,23500],[88.4,23583],[88.4,23666],[88.4,23750],[88.4,23834],[88.4,23917],[88.4,24000],[88.4,24083],[88.4,24167],[88.4,24251],[88.4,24334],[88.4,24417],[88.4,24499],[88.4,24583],[88.4,24667],[88.4,24750],[88.4,24833],[88.4,24917],[88.4,25000],[88,25084],[87.2,25166],[86.8,25250],[86.5,25334],[85.2,25417],[83.5,25500],[81.9,25584],[81.6,25667],[81.6,25750],[81.6,25833],[81.6,25917],[81.6,26001],[81.6,26084],[81.6,26166],[81.6,26250],[81.6,26334],[81.6,26417],[81.6,26500],[81.6,26584],[81.6,26666],[81.6,26750],[82.2,26834],[82.4,26917],[82.8,27000],[83.2,27083],[83.3,27167],[83.8,27252],[83.9,27334],[84.1,27417],[84.5,27500],[84.5,27584],[84.5,27667],[84.5,27750],[84.5,27834],[84.5,27916],[84.5,28000],[84.5,28084],[84.5,28167],[84.5,28250],[84.5,28333],[84.5,28417],[84.5,28500],[84.5,28583],[84.5,28667],[84.5,28750],[84.5,28833],[84.5,28916],[84.5,29000],[84.5,29083],[84.5,29166],[84.5,29250],[84.5,29333],[84.5,29417],[84.5,29500],[84.5,29584],[84.5,29666],[85.6,29751],[85.6,29833],[85.7,29916],[85.7,30000],[85.7,30083],[85.7,30167],[85.7,30250],[85.7,30333],[85.7,30416],[85.7,30500],[85.7,30584],[86.3,30667],[87.4,30750],[88.2,30834],[88.4,30916],[89.1,31000],[89.1,31084],[89.1,31166],[89.1,31249],[89.1,31333],[89.1,31417],[89.1,31501],[89.1,31583],[89.1,31667],[89.1,31750],[89.1,31833],[89.1,31916],[89.1,32000],[89.1,32083],[89.1,32166],[89.1,32250],[89.1,32333],[89.1,32416],[89.1,32499],[89.1,32583],[89,32666],[89,32750],[89,32834],[89,32916],[89,32999],[89,33083],[89,33166],[89,33251],[89,33333],[89,33417],[89,33499],[89,33584],[89,33666],[89,33750],[89,33833],[89,33916],[89,33999],[89,34084],[89,34167],[89,34250],[88.6,34334],[88.5,34416],[88.5,34500],[88.5,34583],[88.5,34667],[88.5,34749],[88.5,34833],[88.5,34917],[88.5,34999],[88.5,35083],[88.5,35166],[88.3,35250],[88.2,35333],[88.2,35417],[88.2,35500],[88.1,35583],[88.1,35666],[88.1,35750],[88.1,35833],[88,35917],[88,36000],[88,36084],[88,36166],[88,36250],[88,36333],[88,36417],[88,36500],[88,36583],[88,36667],[88,36750],[88,36833],[88,36917],[88,36999],[88.3,37084],[88.6,37166],[88.9,37250],[89.2,37334],[89.3,37416],[89.3,37500],[89.4,37584],[89.5,37667],[89.5,37749],[89.6,37834],[89.6,37916],[89.6,37999],[89.6,38084],[89.6,38167],[89.6,38250],[89.6,38334],[89.6,38417],[89.6,38500],[89.6,38583],[89.6,38666],[89.6,38749],[89.6,38834],[89.6,38916],[89.6,38999],[89.6,39083],[89.6,39167],[89.6,39249],[89.6,39334],[89.6,39416],[89.7,39500],[90.7,39584],[91.7,39667],[92.3,39750],[92.9,39833],[94.4,39917],[96.5,40000],[96.5,40083],[96.5,40167],[96.9,40250],[97.5,40334],[97.5,40417],[97.5,40499],[97.5,40584],[97.5,40667],[97.5,40750],[97.5,40833],[97.5,40916],[97.5,40999],[97.5,41083],[97.5,41166],[97.5,41249],[97.5,41333],[97.5,41416],[97.5,41500],[97.5,41583],[97.5,41666],[97.5,41749],[97.5,41834],[97.5,41916],[97.5,42000],[97.5,42083],[97.5,42166],[97.5,42250],[97.5,42333],[97.5,42416],[97.5,42500],[97.5,42583],[97.5,42666],[97.5,42749],[97.5,42834],[97.5,42916],[97.5,42999],[97.5,43083],[97.5,43167],[97.5,43250],[97.5,43333],[97.5,43417],[97.5,43500],[97.5,43583],[97.5,43666],[97.4,43749],[97.4,43833],[97.4,43916],[97.4,44000],[97.4,44083],[97.4,44167],[97.4,44250],[97.4,44333],[97.4,44417],[97.3,44500],[96.1,44583],[95.7,44667],[95.6,44750],[95.6,44833],[95.6,44917],[95.6,45000],[95.6,45083],[95.6,45166],[95.6,45249],[95.6,45334],[95.6,45416],[95.6,45500],[95.6,45584],[95.6,45666],[95.6,45750],[95.6,45834],[95.6,45916],[95.6,45999],[95.6,46083],[95.6,46166],[95.6,46249],[95.6,46333],[95.6,46416],[95.6,46499],[95.6,46583],[95.6,46667],[95.6,46750],[95.6,46833],[95.6,46917],[95.6,46999],[95.6,47083],[95.6,47167],[95.6,47250],[95.6,47333],[95.6,47417],[95.6,47500],[95.6,47583],[95.6,47667],[95.6,47750],[95.6,47833],[95.6,47916],[95.6,47999],[95.6,48083],[95.6,48167],[95.6,48250],[95.6,48334],[95.6,48416],[95.6,48499],[95.6,48583],[95.6,48667],[95.6,48751],[95.6,48834],[95.6,48917],[95.6,48999],[95.6,49084],[95.6,49167],[96.3,49250],[97.2,49333],[97.4,49417],[97.4,49499],[97.4,49583],[97.4,49666],[97.4,49749],[97.4,49833],[97.4,49916],[97.4,50000],[97.4,50083],[97.4,50166],[97.4,50249],[97.4,50333],[97.4,50416],[97.4,50499],[97.4,50583],[97.4,50666],[97.4,50750],[97.4,50833],[97.4,50916],[97.4,51000],[97.4,51083],[97.3,51166],[97.3,51250],[97.3,51334],[97.2,51417],[97.1,51499],[97.1,51582],[97.1,51667],[97,51750],[96.8,51833],[96.6,51917],[96.1,52000],[90.8,52084],[86.1,52167],[81.5,52250],[77.3,52333],[65.1,52417],[56.9,52500],[56.9,52583],[56.9,52666],[56.9,52750],[60.1,52833],[65.2,52916],[71.7,53000],[75.9,53084],[77.1,53167],[77.5,53250],[85.6,53334],[87.7,53416],[87.7,53500],[87.7,53583],[87.7,53666],[88.8,53750],[97.8,53833],[99.5,53917],[99.5,54000],[99.5,54083],[99.7,54167],[100,54250],[100,54333],[100,54416],[100,54499],[100,54583],[100,54666],[100,54750],[100,54833],[100,54916],[99.9,55001],[96.8,55083],[96.6,55166],[96.6,55250],[96.6,55333],[96.6,55416],[96.6,55500],[96.6,55583],[96.6,55666],[96.6,55749],[96.6,55833]]",1,0,222.668,228.518,95,2.2837,"[{""rating"":95,""responseTime"":2.2837000000029946}]",space,5.3231,,228.5181,Not at all,0,228.5263,,,[],,0,1,1,1,1,audio/Narrative7Situation1.wav,audio/Narrative8Situation1.wav,audio/Narrative5Situation1.wav,audio/Narrative6Situation1.wav,2,5,5,2,5.0703,,,,,,,,,,,,,,,,,,,,,,,,,,,,,,,,,,,,,,
,,,,,,63ed1fa5c88ecae92bf0c920,2024-02-08_16h03.27.063,group3.1-3.2-social-tom,2023.2.2,Win32,59.88023952,65c5074098b851296ff0b7ed,65c54192d99af06b3aa52799,,,,,,,,,,,,,,,,,,,,,,,,,,,,,228.5264,1,audio/Narrative7Situation2.wav,231.5347,,231.5348,239.0183,"[[999,0],[999,82],[999,166],[999,249],[999,333],[999,416],[999,499],[999,582],[999,667],[999,750],[999,833],[999,916],[999,1000],[999,1082],[999,1166],[999,1249],[999,1333],[999,1416],[999,1500],[67.1,1582],[63.6,1667],[55.2,1750],[44.7,1833],[43,1916],[41.3,1999],[37.1,2083],[33.5,2167],[31.8,2249],[31.7,2333],[31.7,2416],[31.7,2499],[31.7,2582],[31.7,2666],[31.7,2749],[33.2,2832],[35.3,2917],[37.8,2999],[41.1,3083],[44.3,3166],[44.7,3249],[44.7,3333],[44.7,3416],[45.1,3499],[45.9,3582],[49,3667],[50.4,3750],[50.4,3834],[50.4,3916],[50.4,4000],[54.4,4083],[66.4,4166],[75,4249],[75.7,4332],[75.7,4416],[75.7,4499],[75.7,4582],[75.7,4666],[75.7,4749],[75.7,4832],[75.7,4916],[75.7,4999],[75.5,5083],[75.4,5166],[75.4,5249],[75.4,5332],[75.4,5416],[75.4,5500],[75.4,5583],[75.3,5666],[75.3,5750],[75.3,5833],[75.3,5917],[75.3,5999],[75.3,6083],[75.3,6166],[75.3,6249],[75.3,6332],[75.3,6416],[77.8,6499],[82.6,6583],[85.6,6666],[89.3,6749],[90.9,6832],[91,6916],[91,6999],[91,7083],[91,7166],[91,7250],[91,7333],[91,7417]]",1,0,239.0184,245.7018,99.58333333,1.9412,"[{""rating"":99.58333333333333,""responseTime"":1.941200000002965}]",space,6.1338,,245.7019,Not at all,0,259.6681,0,6.4689,"[{""rating"":0,""responseTime"":6.4689000000022645}]",space,0,2,2,2,1,audio/Narrative7Situation2.wav,audio/Narrative8Situation2.wav,audio/Narrative5Situation2.wav,audio/Narrative6Situation2.wav,3,3,3,3,,,13.4218,,,,,,,,,,,,,,,,,,,,,,,,,,,,,,,,,,,,
,,,,,,63ed1fa5c88ecae92bf0c920,2024-02-08_16h03.27.063,group3.1-3.2-social-tom,2023.2.2,Win32,59.88023952,65c5074098b851296ff0b7ed,65c54192d99af06b3aa52799,,,,,,,,,,,,,,,,,,,,,,,,,,,,,259.6741,1,audio/Narrative7Situation3.wav,267.6841,,267.6842,276.9517,"[[999,6],[999,83],[999,166],[999,250],[999,333],[999,416],[999,500],[999,583],[999,666],[999,750],[999,834],[999,916],[999,999],[999,1083],[999,1166],[999,1250],[999,1333],[999,1416],[999,1499],[999,1583],[999,1667],[999,1750],[999,1833],[999,1916],[999,2000],[999,2083],[999,2166],[999,2250],[999,2333],[999,2416],[999,2500],[999,2584],[999,2666],[999,2749],[999,2833],[999,2916],[999,3000],[999,3083],[999,3166],[63.4,3251],[64.6,3333],[66.9,3417],[66.6,3500],[66.6,3583],[66.6,3666],[69,3750],[70,3833],[70,3916],[70,3999],[70,4083],[70,4167],[70,4250],[70,4333],[70,4417],[70,4500],[70,4583],[70,4667],[70,4750],[69.9,4833],[69.9,4917],[69.9,5000],[72.2,5083],[73.5,5167],[74.1,5250],[74.6,5333],[74.8,5417],[74.8,5500],[74.8,5583],[74.8,5666],[74.8,5749],[74.8,5833],[74.8,5916],[74.8,5999],[74.8,6083],[74.8,6167],[74.8,6250],[74.8,6333],[74.8,6416],[74.8,6499],[76,6583],[77.7,6666],[77.7,6750],[77.7,6833],[77.7,6916],[77.7,6999],[77.7,7083],[77.7,7167],[77.7,7250],[77.7,7332],[77.7,7417],[77.6,7500],[77.4,7583],[80.5,8250],[80.6,8333],[80.6,8416],[80.6,8500],[80.6,8583],[80.6,8666],[80.6,8750],[80.6,8833],[80.6,8916],[80.6,9000],[80.6,9083],[80.6,9167],[80.4,9250]]",1,0,276.9518,282.9172,59.47916667,3.0823,"[{""rating"":59.47916666666666,""responseTime"":3.082300000000714}]",space,5.4172,,282.9173,Not at all,0,282.9186,,,[],,0,3,3,3,1,audio/Narrative7Situation3.wav,audio/Narrative8Situation3.wav,audio/Narrative5Situation3.wav,audio/Narrative6Situation3.wav,8,4,3,5,,,,,,,,,,,,,,,,,,,,,,,,,,,,,,,,,,,,,,,
,,,,,,63ed1fa5c88ecae92bf0c920,2024-02-08_16h03.27.063,group3.1-3.2-social-tom,2023.2.2,Win32,59.88023952,65c5074098b851296ff0b7ed,65c54192d99af06b3aa52799,,,,,,,,,,,,,,,,,,,,,,,,,,,,,282.9187,1,audio/Narrative7Situation4.wav,285.9342,,285.9343,297.6674,"[[999,6],[999,82],[999,167],[999,250],[999,334],[999,416],[999,499],[999,582],[999,667],[999,750],[999,833],[999,916],[999,999],[999,1082],[999,1167],[999,1250],[999,1333],[69.5,1417],[70.4,1500],[70.4,1583],[70.4,1666],[70.4,1750],[70.4,1832],[70.4,1916],[70.4,2000],[70.4,2082],[70.4,2166],[70.4,2250],[70.4,2332],[70.4,2416],[70.4,2500],[70.4,2582],[70.4,2667],[70.4,2749],[70.4,2833],[70.4,2916],[70.4,2999],[70.4,3082],[70.4,3166],[70.4,3249],[70.4,3332],[70.2,3416],[61.7,3500],[43.3,3584],[31.7,3666],[25,3749],[20.8,3833],[19.4,3917],[18.6,4000],[12.2,4083],[11.4,4167],[11.4,4249],[11.4,4333],[11.4,4416],[11.4,4499],[11.4,4583],[11.4,4666],[11.4,4749],[11.4,4833],[11.4,4917],[11.4,5000],[11.4,5083],[11.5,5166],[11.8,5249],[12.2,5333],[12.2,5416],[12.2,5499],[12.2,5583],[12.2,5666],[12.2,5750],[12.2,5833],[12.2,5917],[12.2,6000],[12.2,6083],[12.2,6166],[12.2,6250],[12.2,6332],[12.2,6416],[12.2,6499],[12.2,6582],[12.2,6667],[12.2,6749],[12.2,6833],[12.2,6916],[12.2,6999],[12.2,7083],[12.2,7166],[12.2,7249],[12.2,7332],[12.2,7416],[12.2,7499],[13.4,7583],[19.9,7666],[34.5,7749],[44.6,7833],[46.5,7916],[46.5,7999],[47,8083],[49.1,8166],[49.8,8249],[49.8,8333],[49.8,8416],[49.8,8499],[49.9,8583],[49.9,8666],[49.9,8749],[49.9,8833],[49.9,8916],[49.9,8999],[49.9,9083],[49.9,9166],[49.9,9249],[49.9,9332],[49.9,9416],[49.9,9500],[49.9,9583],[49.9,9667],[49.9,9750],[49.9,9833],[49.9,9916],[49.9,9999],[49.9,10082],[49.9,10167],[49.9,10249],[49.9,10333],[49.9,10416],[49.9,10499],[49.9,10583],[49.9,10666],[49.9,10749],[49.9,10832],[49.9,10916],[49.9,10999],[49.9,11082],[49.9,11166],[49.9,11249],[49.9,11332],[49.9,11416],[49.9,11499],[49.9,11582],[49.9,11666]]",1,0,297.6675,301.8676,50.20833333,1.1415,"[{""rating"":50.208333333333336,""responseTime"":1.1415000000000077}]",space,3.667,,301.8678,Not at all,0,301.8691,,,[],,0,4,4,4,1,audio/Narrative7Situation4.wav,audio/Narrative8Situation4.wav,audio/Narrative5Situation4.wav,audio/Narrative6Situation4.wav,3,3,1,2,,,,,,,,,,,,,,,,,,,,,,,,,,,,,,,,,,,,,,,
,,,,,,63ed1fa5c88ecae92bf0c920,2024-02-08_16h03.27.063,group3.1-3.2-social-tom,2023.2.2,Win32,59.88023952,65c5074098b851296ff0b7ed,65c54192d99af06b3aa52799,,,,,,,,,,,,,,,,,,,,,,,,,,,,,301.8693,1,audio/Narrative7Situation5.wav,306.8839,,306.8839,315.3681,"[[46.5,1333],[19,1917],[23,1999],[27.1,2083],[27.6,2167],[27.6,2250],[27.6,2333],[27.6,2416],[27.6,2499],[27.6,2583],[27.6,2667],[27.6,2750],[27.6,2834],[27.6,2916],[27.6,2999],[27.6,3083],[27.6,3167],[27.5,3250],[27.2,3333],[27.2,3416],[27.2,3499],[27.1,3583],[26.9,3666],[26.9,3750],[26.9,3833],[26.9,3917],[26.8,4000],[26.8,4083],[26.8,4167],[26.8,4250],[26.8,4333],[26.8,4416],[28.2,4500],[39.4,4583],[53,4667],[57,4750],[57,4834],[57,4917],[57,5000],[57,5083],[57,5167],[57,5250],[57,5333],[57,5416],[57,5500],[57,5583],[57,5667],[57,5750],[57,5834],[57,5916],[57,6000],[57,6083],[57,6166],[57,6249],[57,6332],[57,6416],[57,6500],[57,6583],[57,6666],[57,6750],[57,6833],[57,6916],[57,7000],[57,7083],[57,7166],[57,7250],[57,7333],[57,7416],[57,7500],[57,7583],[57,7667],[57,7750],[57,7833],[57,7916],[57,8000],[57,8084],[57,8166],[57,8249],[57,8334],[57,8416]]",1,0,315.3683,321.2842,68.02083333,3.252,"[{""rating"":58.64583333333333,""responseTime"":1.8865999999977703},{""rating"":68.02083333333333,""responseTime"":3.2520000000000095}]",space,5.3671,,321.2842,Half the time,50,321.2863,,,[],,0,5,5,5,1,audio/Narrative7Situation5.wav,audio/Narrative8Situation5.wav,audio/Narrative5Situation5.wav,audio/Narrative6Situation5.wav,5,2,5,2,,,,,,,,,,,,,,,,,,,,,,,,,,,,,,,,,,,,,,,
,,,,,,63ed1fa5c88ecae92bf0c920,2024-02-08_16h03.27.063,group3.1-3.2-social-tom,2023.2.2,Win32,59.88023952,65c5074098b851296ff0b7ed,65c54192d99af06b3aa52799,,,,,,,,,,,,,,,,,,,,,,,,,,,,,321.2865,1,audio/Narrative7Situation6.wav,324.3014,,324.3014,334.2843,"[[999,5],[999,82],[999,166],[999,249],[999,332],[999,415],[999,499],[999,582],[999,666],[999,749],[999,833],[999,915],[999,999],[999,1082],[999,1165],[999,1249],[999,1332],[999,1415],[999,1499],[999,1582],[999,1665],[999,1749],[999,1832],[999,1915],[999,1999],[999,2082],[999,2166],[999,2248],[999,2332],[999,2416],[999,2499],[999,2583],[999,2665],[999,2749],[999,2832],[999,2916],[999,2999],[999,3082],[999,3165],[999,3249],[999,3332],[999,3415],[999,3499],[999,3582],[999,3665],[999,3749],[999,3832],[999,3916],[999,3999],[999,4082],[999,4165],[999,4249],[999,4332],[999,4416],[999,4499],[999,4582],[999,4665],[999,4748],[999,4832],[999,4916],[999,4999],[999,5082],[999,5165],[999,5248],[999,5332],[999,5416],[999,5499],[999,5582],[999,5666],[999,5749],[999,5833],[999,5915],[50.5,5998],[50.5,6083],[50.5,6165],[50.5,6249],[50.5,6332],[50.5,6415],[50.5,6499],[50.5,6582],[50.5,6666],[50.5,6749],[50.5,6832],[50.4,6915],[51.3,6999],[52.6,7083],[56.6,7166],[59.3,7249],[62,7333],[62.1,7415],[63.3,7499],[64.6,7583],[65,7666],[65.2,7749],[66.1,7832],[67.2,7916],[67.3,7999],[67.3,8082],[67.4,8166],[67.9,8249],[70.2,8332],[70.5,8416],[71.1,8499],[74.1,8583],[74.5,8666],[74.5,8749],[74.5,8832],[74.5,8915],[74.5,8998],[74.5,9082],[74.5,9165],[74.5,9249],[74.3,9332],[74.1,9415],[74.1,9499],[74,9583],[74,9666],[74,9749],[74,9833],[74,9916]]",1,0,334.2843,339.1337,81.14583333,2.5438,"[{""rating"":81.14583333333334,""responseTime"":2.543800000000772}]",space,4.3171,,339.1338,Half the time,50,339.1352,,,[],,0,6,6,6,1,audio/Narrative7Situation6.wav,audio/Narrative8Situation6.wav,audio/Narrative5Situation6.wav,audio/Narrative6Situation6.wav,3,2,3,2,,,,,,,,,,,,,,,,,,,,,,,,,,,,,,,,,,,,,,,
,,,,,,63ed1fa5c88ecae92bf0c920,2024-02-08_16h03.27.063,group3.1-3.2-social-tom,2023.2.2,Win32,59.88023952,65c5074098b851296ff0b7ed,65c54192d99af06b3aa52799,,,,,,,,,,,,,,,,,,,,,,,,,,,,,339.1353,1,audio/Narrative7Situation7.wav,344.1506,,344.1506,361.3174,"[[999,6],[999,83],[999,166],[999,251],[999,333],[999,416],[999,500],[999,583],[999,667],[999,750],[999,834],[999,916],[999,1000],[999,1083],[999,1167],[999,1249],[999,1333],[999,1416],[999,1500],[29.4,1583],[29.3,1667],[29.3,1749],[29.3,1832],[29.3,1916],[29.3,2000],[29.3,2083],[29.3,2167],[29.3,2249],[29.3,2333],[29.3,2416],[29.3,2500],[29.3,2583],[29.3,2666],[29.3,2750],[29.3,2833],[29.3,2916],[29.3,2999],[29.3,3083],[29.3,3166],[29.3,3249],[29.3,3333],[29.3,3416],[29.3,3499],[29.4,3583],[32.7,3666],[36,3749],[43.8,3833],[45.1,3917],[46.7,4000],[49.7,4083],[50.3,4166],[50.3,4250],[50.3,4332],[50.3,4416],[50.3,4500],[50.3,4582],[50.3,4666],[50.3,4750],[50,4832],[49.8,4917],[49.5,5000],[49.3,5082],[49.3,5166],[49.3,5250],[49.3,5333],[49.3,5417],[49.3,5501],[49.3,5583],[49.3,5666],[49.3,5750],[49.3,5833],[49.3,5916],[49.3,6000],[49.3,6083],[49.3,6166],[49.3,6249],[49.3,6334],[49.3,6416],[49.3,6500],[49.2,6582],[49.2,6666],[49.2,6750],[48.6,6833],[47,6916],[45.4,7000],[42.9,7083],[40.8,7166],[40.6,7250],[38.6,7333],[35.7,7416],[35.7,7500],[35.7,7583],[35.7,7666],[35.7,7750],[35.3,7833],[34.9,7916],[34.9,8000],[34.9,8083],[34.9,8166],[34.8,8250],[34.7,8333],[34,8416],[34,8500],[33.6,8583],[33.6,8666],[33.6,8749],[33.6,8833],[33.4,8916],[33.2,8999],[33.2,9083],[33.2,9166],[33,9250],[33,9333],[33,9416],[33,9500],[32.5,9583],[32.3,9667],[32.3,9750],[32.2,9833],[32.1,9916],[32.1,9999],[32.1,10083],[32.1,10166],[32.1,10249],[32.1,10334],[32.1,10416],[32.1,10499],[32.1,10583],[32.1,10666],[32,10749],[32,10833],[32,10916],[32,11000],[32,11083],[32,11166],[32,11250],[32,11333],[32,11416],[32,11500],[32,11582],[32,11666],[32,11749],[32,11833],[32,11916],[32,12000],[32,12083],[32,12166],[32,12250],[32,12332],[32,12416],[32,12500],[32,12583],[32,12666],[32,12750],[32,12833],[32,12917],[32,13000],[32,13083],[32,13166],[32,13249],[32,13333],[32,13416],[32,13500],[32.7,13583],[34,13666],[35.9,13750],[36.5,13833],[36.8,13916],[36.9,13999],[36.9,14082],[37,14166],[37.1,14250],[37.1,14333],[37.1,14416],[37.1,14500],[37.1,14582],[37.1,14667],[37.1,14750],[37.1,14832],[37.1,14917],[37.1,15000],[37.1,15083],[37.1,15166],[37.1,15250],[37.1,15333],[37.6,15416],[38.9,15500],[41.3,15583],[41.3,15666],[41.3,15750],[41.3,15832],[41.6,15917],[41.8,16000],[42.1,16083],[42.6,16166],[42.6,16250],[42.6,16332],[42.6,16417],[42.6,16500],[42.6,16583],[50.4,16666],[60.8,16750],[65.8,16834],[65.8,16916],[65.8,16999],[65.8,17083],[65.8,17166]]",1,0,361.3175,368.4669,26.66666667,4.8816,"[{""rating"":26.666666666666668,""responseTime"":4.881599999997775}]",space,6.6003,,368.4669,Not at all,0,368.4688,,,[],,0,7,7,7,1,audio/Narrative7Situation7.wav,audio/Narrative8Situation7.wav,audio/Narrative5Situation7.wav,audio/Narrative6Situation7.wav,5,3,4,5,,,,,,,,,,,,,,,,,,,,,,,,,,,,,,,,,,,,,,,
,,,,,,63ed1fa5c88ecae92bf0c920,2024-02-08_16h03.27.063,group3.1-3.2-social-tom,2023.2.2,Win32,59.88023952,65c5074098b851296ff0b7ed,65c54192d99af06b3aa52799,,,,,,,,,,,,,,,,,,,,,,,,,,,,,368.469,1,audio/Narrative7Situation8.wav,370.4852,,370.4852,380.5174,"[[999,0],[999,81],[999,165],[999,248],[999,331],[999,415],[999,499],[999,581],[999,665],[999,748],[999,831],[999,915],[999,999],[999,1081],[999,1165],[999,1248],[999,1332],[999,1415],[999,1498],[999,1581],[999,1665],[999,1749],[999,1832],[51.3,1915],[51.3,1998],[60.8,2081],[76.8,2248],[76.8,2332],[76.8,2415],[76.8,2498],[76.8,2582],[76.8,2665],[75.9,2748],[75.3,2831],[75,2915],[74.7,2999],[74.6,3081],[74.4,3165],[74.2,3248],[74.1,3331],[73.4,3416],[72.5,3498],[71.6,3582],[71.1,3665],[70.6,3748],[70.5,3832],[70.5,3915],[70.5,3998],[70.5,4081],[70.5,4165],[70.5,4248],[70.5,4332],[70.5,4415],[69.3,4498],[65.4,4582],[60.3,4665],[56,4749],[55.8,4831],[55.8,4915],[55.8,4998],[55.8,5081],[55.6,5165],[53.5,5248],[51.5,5332],[50.5,5415],[50.2,5498],[50.2,5581],[50.2,5665],[50.2,5748],[50.2,5831],[50.2,5915],[50.2,5998],[50.3,6082],[50.4,6165],[50.4,6248],[50.4,6332],[50.4,6416],[50.4,6498],[50.3,6583],[49.7,6665],[49.3,6748],[49.2,6832],[49.2,6915],[49.2,6998],[49.1,7082],[48.5,7165],[45.3,7248],[45,7332],[44.2,7415],[42.4,7498],[42.3,7582],[42.3,7665],[42.1,7748],[42,7831],[42,7915],[42,7998],[41.8,8082],[41.4,8164],[41.3,8249],[41.3,8332],[41.3,8415],[41.3,8498],[41.3,8581],[41.3,8664],[40.8,8748],[38.9,8832],[37.8,8915],[37.1,8998],[36.6,9081],[36.4,9165],[36.4,9248],[36.4,9331],[36.4,9415],[36.4,9498],[36.4,9581],[36.4,9665],[36.4,9748],[36.4,9831],[36.4,9915],[36.4,9998]]",1,0,380.5174,385.8179,23.4375,3.9245,"[{""rating"":23.4375,""responseTime"":3.9244999999999663}]",space,4.7551,,385.8179,All the time,100,385.8203,,,[],,0,8,8,8,1,audio/Narrative7Situation8.wav,audio/Narrative8Situation8.wav,audio/Narrative5Situation8.wav,audio/Narrative6Situation8.wav,2,3,3,5,,,,,,,,,,,,,,,,,,,,,,,,,,,,,,,,,,,,,,,
,,,,,,63ed1fa5c88ecae92bf0c920,2024-02-08_16h03.27.063,group3.1-3.2-social-tom,2023.2.2,Win32,59.88023952,65c5074098b851296ff0b7ed,65c54192d99af06b3aa52799,,,,,,,,,,,,,,,,,,,,,,,,,,,,,385.8205,1,audio/Narrative7Situation9.wav,387.8339,,387.8339,396.467,"[[999,0],[999,82],[999,166],[999,249],[999,333],[999,416],[999,499],[999,582],[999,666],[999,750],[999,833],[999,916],[999,1000],[999,1082],[999,1167],[999,1250],[999,1333],[999,1416],[47.3,1500],[49.1,1583],[49.1,1666],[49.1,1749],[49.1,1832],[49.1,1916],[49.6,1999],[50,2082],[50.2,2166],[50.6,2250],[50.7,2333],[50.7,2416],[50.7,2499],[50.7,2583],[50.7,2666],[50.7,2749],[50.7,2832],[50.7,2916],[50.8,2999],[51.3,3082],[52.7,3166],[57.8,3249],[67.3,3333],[73.3,3416],[74.2,3499],[75.6,3582],[76.4,3666],[76.5,3749],[76.9,3833],[77.9,3916],[79.1,4001],[80.3,4082],[80.7,4166],[81,4250],[81.3,4332],[81.6,4416],[81.6,4499],[81.8,4582],[83,4666],[83,4749],[83.1,4832],[83.8,4917],[83.8,4999],[83.8,5082],[84.1,5166],[84.1,5249],[84.2,5333],[84.4,5416],[84.4,5500],[84.4,5582],[84.7,5666],[84.8,5749],[84.8,5832],[85.7,5916],[88,5999],[90.9,6084],[92.3,6166],[94.5,6250],[97,6332],[97.6,6417],[97.6,6499],[97.6,6582],[97.6,6666],[97.6,6749],[97.2,6833],[96.5,6917],[95.6,7000],[95,7082],[94.9,7165],[94.9,7250],[94.9,7333],[94.9,7415],[94.9,7500],[94.9,7583],[94.9,7666],[94.9,7750],[94.9,7833],[94.9,7915],[94.9,8000],[94.9,8082],[94.9,8166],[94.9,8250],[94.9,8333],[94.9,8416],[94.9,8500],[94.9,8583]]",1,0,396.4671,400.2338,95.3125,1.7917,"[{""rating"":95.3125,""responseTime"":1.7916999999992527}]",space,3.2203,,400.2339,All the time,100,400.2352,,,[],,0,9,9,9,1,audio/Narrative7Situation9.wav,audio/Narrative8Situation9.wav,audio/Narrative5Situation9.wav,audio/Narrative6Situation9.wav,2,3,3,4,,,,,,,,,,,,,,,,,,,,,,,,,,,,,,,,,,,,,,,
,,,,,,63ed1fa5c88ecae92bf0c920,2024-02-08_16h03.27.063,group3.1-3.2-social-tom,2023.2.2,Win32,59.88023952,65c5074098b851296ff0b7ed,65c54192d99af06b3aa52799,,,,,,,,,,,,,,,,,,,,,,,,,,,,,400.2353,1,audio/Narrative8Situation1.wav,405.2505,,405.2506,421.1838,"[[93.5,833],[93.2,916],[89.8,1000],[82.4,1083],[81.1,1166],[80.3,1249],[80,1333],[79.8,1416],[79.8,1500],[79.2,1584],[76.1,1666],[76.1,1749],[76.1,1832],[76.1,1915],[76.1,2000],[75.1,2083],[74.8,2166],[74.7,2249],[74.7,2332],[74.7,2415],[74.7,2499],[74.7,2582],[74.7,2666],[74.7,2749],[74.7,2832],[74.4,2916],[70,3000],[55.5,3083],[42.3,3166],[39.7,3250],[39.7,3332],[39.7,3415],[39.7,3500],[39.3,3582],[37.1,3666],[29.4,3750],[27.6,3832],[27.6,3915],[27.6,4000],[27.6,4082],[27.6,4165],[27.6,4250],[27.6,4332],[27.6,4416],[27.6,4499],[27.6,4583],[27.6,4666],[27.6,4749],[27.6,4832],[27.6,4916],[27.6,5000],[27.6,5082],[27.6,5165],[27.6,5250],[27.6,5332],[27.6,5415],[27.6,5499],[27.6,5582],[27.6,5666],[27.6,5749],[27.6,5833],[27.6,5916],[27.6,5999],[27.6,6083],[27.6,6166],[27.6,6250],[27.5,6332],[27.5,6416],[27.5,6499],[27.5,6582],[27.5,6666],[27.5,6749],[27.4,6832],[26.6,6916],[26.3,6999],[26.3,7082],[26.3,7165],[26.3,7249],[26.3,7332],[26.3,7415],[26.3,7499],[26.3,7582],[26.3,7666],[26.3,7749],[26.3,7833],[26.3,7916],[26.3,8000],[26.3,8082],[26.3,8166],[26.3,8249],[26.3,8334],[26.3,8417],[26.3,8499],[26.3,8582],[26.3,8666],[26.3,8749],[26.3,8832],[26.3,8917],[26.3,8999],[26.3,9083],[26.3,9166],[26.3,9249],[26.3,9332],[26.3,9415],[26.3,9499],[26.3,9584],[26.3,9666],[26.3,9749],[26.3,9833],[26.3,9916],[26.3,9999],[26.3,10083],[26.3,10166],[26.3,10249],[26.3,10332],[26.3,10416],[26.3,10499],[26.3,10583],[26.3,10666],[26.3,10749],[26.3,10833],[26.3,10916],[26.3,10999],[26.3,11083],[26,11166],[26,11249],[26,11333],[26,11415],[26,11499],[26,11582],[26,11666],[24.3,11750],[22.5,11833],[22.4,11916],[22.4,12000],[22.4,12082],[22.4,12166],[22.4,12249],[22.4,12333],[22.4,12416],[22.4,12499],[22.4,12583],[22.4,12665],[22.4,12750],[22.4,12832],[22.4,12916],[22.4,12999],[22.4,13082],[22.4,13165],[22.4,13249],[22.4,13332],[22.4,13416],[22.4,13499],[22.4,13583],[22.4,13666],[22.4,13749],[22.4,13833],[22.2,13916],[21.6,13999],[21.6,14083],[21.6,14166],[21.6,14250],[21.6,14332],[21.6,14416],[21.6,14499],[21.6,14582],[21.6,14666],[21.6,14749],[21.6,14833],[21.6,14916],[21.6,14999],[21.6,15082],[21.6,15166],[21.6,15249],[21.6,15332],[21.6,15415],[21.6,15499],[21.6,15582],[21.6,15665],[21.6,15749],[21.6,15833],[21.6,15916]]",1,0,421.1839,425.1165,8.75,1.6911,"[{""rating"":8.750000000000002,""responseTime"":1.6911000000014837}]",space,3.4042,,425.1165,Not at all,0,425.1183,,,[],,0,10,10,10,1,audio/Narrative8Situation1.wav,audio/Narrative7Situation1.wav,audio/Narrative6Situation1.wav,audio/Narrative5Situation1.wav,5,2,2,5,,,,,,,,,,,,,,,,,,,,,,,,,,,,,,,,,,,,,,,
,,,,,,63ed1fa5c88ecae92bf0c920,2024-02-08_16h03.27.063,group3.1-3.2-social-tom,2023.2.2,Win32,59.88023952,65c5074098b851296ff0b7ed,65c54192d99af06b3aa52799,,,,,,,,,,,,,,,,,,,,,,,,,,,,,425.1185,1,audio/Narrative8Situation2.wav,428.1337,,428.1337,438.2666,"[[999,6],[999,83],[999,166],[999,250],[999,333],[999,416],[999,500],[999,582],[999,667],[999,750],[999,833],[999,917],[999,999],[28.3,1083],[27.8,1167],[27.5,1250],[27.4,1332],[26.6,1416],[26.3,1499],[26,1583],[26,1665],[25.9,1749],[25.5,1832],[23.9,1917],[22.7,2000],[21.5,2083],[19.5,2167],[19.2,2250],[18.4,2333],[18.3,2416],[18.1,2500],[18,2583],[18,2666],[17.9,2750],[17.8,2833],[17.8,2916],[17.8,3000],[17.8,3082],[17.8,3165],[17.8,3250],[17.8,3333],[17.8,3416],[17.8,3500],[17.8,3583],[17.8,3666],[17.8,3749],[17.8,3834],[17.8,3916],[17.8,3999],[17.8,4083],[18.9,4166],[20.3,4250],[23.1,4333],[25.3,4416],[30.4,4500],[33.3,4582],[34.5,4666],[35.9,4750],[36.8,4832],[39.4,4917],[43,5000],[47,5082],[51.5,5166],[51.5,5249],[51.5,5332],[51.5,5416],[51.4,5500],[50.3,5583],[50.3,5666],[50.3,5749],[50.3,5832],[50.3,5916],[50.3,6000],[50.3,6083],[50.3,6165],[50.3,6250],[51.4,6333],[54.5,6417],[56.8,6500],[58.6,6583],[60.6,6666],[63.6,6750],[66.3,6833],[67.7,6916],[69.2,7000],[69.2,7083],[69.2,7166],[69.2,7250],[69.2,7333],[69.2,7416],[69.2,7500],[69,7583],[68.6,7666],[68.6,7749],[68.6,7832],[68.6,7916],[68.6,7999],[68.6,8082],[68.6,8166],[68.6,8249],[68.6,8333],[68.6,8415],[68.6,8499],[68.6,8582],[68.6,8666],[68.6,8750],[68.6,8833],[68.6,8916],[68.6,8999],[68.6,9083],[68.6,9166],[68.6,9250],[68.6,9333],[68.6,9416],[68.6,9499],[68.6,9583],[68.6,9666],[68.6,9749],[68.6,9832],[68.8,9916],[69.5,9999],[70.2,10082]]",1,0,438.2668,442.217,76.77083333,1.4251,"[{""rating"":76.77083333333333,""responseTime"":1.4251000000014642}]",space,3.4172,,442.217,All the time,100,442.2247,,,[],,0,11,11,11,1,audio/Narrative8Situation2.wav,audio/Narrative7Situation2.wav,audio/Narrative6Situation2.wav,audio/Narrative5Situation2.wav,3,3,3,3,,,,,,,,,,,,,,,,,,,,,,,,,,,,,,,,,,,,,,,
,,,,,,63ed1fa5c88ecae92bf0c920,2024-02-08_16h03.27.063,group3.1-3.2-social-tom,2023.2.2,Win32,59.88023952,65c5074098b851296ff0b7ed,65c54192d99af06b3aa52799,,,,,,,,,,,,,,,,,,,,,,,,,,,,,442.2249,1,audio/Narrative8Situation3.wav,446.2333,,446.2334,468.6179,"[[999,6],[999,82],[999,166],[999,249],[999,333],[999,416],[999,500],[999,583],[999,667],[999,750],[999,834],[999,916],[999,1000],[999,1082],[999,1166],[999,1250],[999,1333],[999,1416],[999,1500],[999,1583],[999,1667],[999,1749],[999,1833],[999,1916],[999,2000],[999,2083],[999,2167],[999,2249],[999,2333],[999,2416],[999,2499],[999,2583],[999,2667],[999,2750],[999,2833],[999,2916],[999,2999],[999,3082],[999,3166],[999,3249],[999,3333],[999,3416],[999,3500],[999,3582],[999,3665],[999,3749],[999,3832],[999,3916],[999,4000],[999,4083],[999,4167],[999,4249],[999,4333],[999,4417],[999,4500],[999,4583],[999,4666],[999,4750],[999,4833],[999,4916],[999,4999],[999,5083],[999,5166],[999,5250],[999,5332],[999,5417],[999,5500],[999,5582],[999,5667],[999,5749],[999,5833],[999,5916],[999,5999],[999,6083],[999,6166],[999,6250],[999,6333],[999,6417],[999,6500],[999,6583],[999,6666],[999,6749],[999,6833],[999,6918],[999,7000],[999,7083],[999,7166],[999,7250],[999,7332],[999,7416],[999,7500],[999,7583],[999,7666],[999,7750],[999,7833],[999,7916],[999,8000],[999,8083],[999,8166],[999,8250],[999,8333],[999,8416],[999,8500],[999,8583],[999,8666],[999,8750],[999,8833],[999,8917],[999,9000],[69.4,9084],[73.5,9167],[73.6,9249],[73.6,9332],[76.3,9416],[81,9500],[85,9582],[85,9666],[85,9749],[85,9832],[85,9916],[85,9999],[85,10082],[85,10166],[84.8,10251],[81.9,10334],[74.9,10416],[67.5,10500],[59.6,10583],[47.9,10666],[39.3,10750],[38.8,10833],[36.5,10916],[35.1,11000],[33.4,11083],[31.7,11166],[31.3,11249],[30.9,11333],[30.8,11416],[30.8,11500],[30.8,11583],[30.8,11666],[30.8,11750],[30.8,11833],[30.8,11916],[30.8,11999],[30.8,12082],[30.8,12166],[30.8,12250],[30.8,12333],[30.8,12416],[30.8,12500],[30.8,12583],[30.8,12666],[30.8,12750],[33.6,12833],[45.6,12917],[50,13000],[50,13083],[50,13165],[50,13250],[50,13333],[55.5,13417],[79.1,13500],[89.6,13583],[89.6,13665],[89.6,13750],[89.6,13834],[89.6,13916],[89.6,13999],[89.6,14082],[89.6,14166],[89.6,14250],[89.6,14332],[89.6,14416],[90.8,14499],[92.2,14583],[93,14666],[93.1,14749],[93.1,14833],[93.1,14916],[93.1,15000],[93.4,15083],[93.6,15167],[94,15250],[94.3,15333],[94.5,15416],[94.8,15499],[95.2,15583],[95.9,15666],[96.8,15750],[96.8,15833],[96.8,15916],[96.8,15999],[96.8,16083],[96.8,16166],[96.8,16249],[96.8,16333],[96.8,16416],[96.8,16499],[96.8,16583],[96.8,16666],[96.8,16750],[96.8,16833],[96.8,16917],[96.8,16999],[96.8,17083],[96.8,17166],[96.8,17249],[96.8,17333],[97.4,17416],[97.5,17500],[97.6,17583],[97.9,17666],[98,17750],[98,17833],[98,17917],[98,18000],[98,18083],[98,18166],[98,18250],[98,18333],[98,18416],[98,18499],[98,18583],[98,18667],[98,18749],[98,18833],[98,18916],[98,18999],[98,19083],[98,19166],[98,19250],[98,19333],[98,19416],[98,19499],[98,19582],[98,19666],[98,19749],[98,19832],[98,19916],[98,19999],[98,20082],[98,20166],[98,20250],[98,20332],[98,20416],[98,20500],[98,20583],[98,20666],[98,20749],[98,20833],[98,20916],[98,21000],[98,21083],[98,21166],[98,21250],[98,21333],[98,21416],[98,21501],[98,21583],[98,21666],[98.2,21749],[99,21833],[99.4,21917],[99.4,22000],[99.4,22083],[99.4,22167],[99.4,22249],[99.4,22333]]",1,0,468.618,474.8504,90.83333333,3.9953,"[{""rating"":98.4375,""responseTime"":1.946199999999294},{""rating"":90.83333333333333,""responseTime"":3.995300000000782}]",space,5.6878,,474.8504,Half the time,50,474.8524,,,[],,0,12,12,12,1,audio/Narrative8Situation3.wav,audio/Narrative7Situation3.wav,audio/Narrative6Situation3.wav,audio/Narrative5Situation3.wav,4,8,5,3,,,,,,,,,,,,,,,,,,,,,,,,,,,,,,,,,,,,,,,
,,,,,,63ed1fa5c88ecae92bf0c920,2024-02-08_16h03.27.063,group3.1-3.2-social-tom,2023.2.2,Win32,59.88023952,65c5074098b851296ff0b7ed,65c54192d99af06b3aa52799,,,,,,,,,,,,,,,,,,,,,,,,,,,,,474.8525,1,audio/Narrative8Situation4.wav,477.8666,,477.8666,492.0496,"[[999,0],[999,83],[999,166],[999,249],[999,332],[999,417],[999,499],[999,582],[999,667],[999,750],[999,833],[999,917],[999,1001],[999,1083],[999,1166],[999,1250],[999,1332],[999,1417],[999,1500],[999,1583],[999,1667],[999,1749],[999,1832],[78.2,1917],[78.3,2000],[78.3,2083],[78.3,2166],[78.3,2250],[78.3,2333],[78.2,2416],[75.4,2500],[64.3,2583],[56.3,2668],[54.4,2750],[54.2,2833],[54.2,2917],[54.2,2999],[54.2,3083],[54.2,3165],[54.2,3251],[54.2,3333],[54.2,3416],[54.2,3499],[54.3,3582],[54.3,3666],[54.3,3749],[54.3,3832],[54.3,3916],[54.6,3999],[55.8,4083],[57.2,4167],[59.6,4250],[61.5,4333],[62.7,4416],[62.9,4500],[62.9,4583],[62.9,4666],[62.9,4749],[62.9,4833],[62.9,4916],[62.9,4999],[62.9,5082],[62.9,5166],[62.9,5250],[62.9,5333],[62.9,5416],[62.9,5500],[62.9,5583],[62.9,5667],[62.9,5750],[62.9,5833],[62.9,5917],[62.9,5999],[62.9,6082],[62.9,6167],[62.9,6250],[62.9,6333],[62.9,6416],[62.9,6500],[62.9,6583],[62.9,6666],[62.9,6750],[62.9,6832],[62.9,6915],[62.9,7000],[62.9,7083],[62.9,7166],[62.9,7250],[63.4,7333],[65,7416],[66.6,7500],[69.1,7583],[71.6,7667],[71.9,7750],[71.9,7832],[71.9,7916],[71.9,8000],[71.9,8083],[71.9,8165],[71.9,8250],[71.9,8332],[71.9,8416],[71.9,8500],[71.9,8583],[71.9,8666],[71.9,8749],[71.9,8833],[71.9,8916],[71.9,8999],[71.9,9083],[71.9,9166],[71.9,9249],[71.9,9332],[71.9,9417],[71.9,9499],[71.9,9582],[71.9,9666],[71.9,9749],[71.9,9833],[71.9,9916],[71.9,9999],[71.9,10083],[71.9,10166],[71.9,10249],[71.9,10333],[71.9,10416],[71.9,10499],[71.9,10583],[71.9,10666],[71.9,10749],[72.1,10833],[72.4,10917],[75.4,11000],[77,11083],[77,11166],[77,11249],[77.4,11333],[77.5,11416],[77.5,11500],[77.5,11583],[77.5,11666],[77.5,11749],[77.5,11833],[77.5,11916],[77.5,12001],[77.5,12083],[77.5,12166],[77.5,12250],[77.5,12332],[77.5,12416],[77.5,12500],[77.5,12583],[77.5,12666],[77.5,12749],[77.5,12832],[77.5,12916],[77.5,12999],[77.5,13082],[77.5,13167],[77.5,13249],[77.5,13333],[77.5,13416],[77.5,13500],[77.5,13583],[77.5,13666],[77.6,13749],[77.6,13833],[77.6,13916],[77.6,14000],[77.6,14082],[77.6,14167]]",1,0,492.0496,496.3164,79.0625,1.2482,"[{""rating"":79.0625,""responseTime"":1.2481999999992581}]",space,3.7421,,496.3165,Not at all,0,496.3237,,,[],,0,13,13,13,1,audio/Narrative8Situation4.wav,audio/Narrative7Situation4.wav,audio/Narrative6Situation4.wav,audio/Narrative5Situation4.wav,3,3,2,1,,,,,,,,,,,,,,,,,,,,,,,,,,,,,,,,,,,,,,,
,,,,,,63ed1fa5c88ecae92bf0c920,2024-02-08_16h03.27.063,group3.1-3.2-social-tom,2023.2.2,Win32,59.88023952,65c5074098b851296ff0b7ed,65c54192d99af06b3aa52799,,,,,,,,,,,,,,,,,,,,,,,,,,,,,496.3238,1,audio/Narrative8Situation5.wav,498.3331,,498.3331,506.583,"[[66.1,3167],[66.7,3250],[67.2,3333],[67.7,3417],[67.7,3500],[67.7,3583],[67.7,3666],[67.7,3750],[67.7,3833],[70.1,3916],[73.6,4000],[77.3,4083],[79.8,4166],[82.8,4249],[82.8,4333],[82.8,4416],[82.8,4500],[82.8,4583],[82.8,4667],[82.8,4750],[82.8,4834],[82.8,4916],[82.8,5000],[82.8,5083],[82.8,5166],[82.8,5250],[82.8,5333],[82.8,5416],[82.8,5500],[82.8,5583],[82.8,5666],[82.8,5750],[82.8,5833],[82.8,5916],[82.8,5999],[82.8,6083],[82.8,6166],[82.8,6250],[82.8,6333],[82.8,6416],[82.8,6499],[82.8,6583],[82.8,6666],[82.8,6750],[82.8,6833],[82.8,6916],[84.6,6999],[86.5,7083],[86.9,7166],[87,7249],[87.1,7333],[87.1,7416],[87.1,7500],[87.3,7583],[87.7,7666],[87.9,7749],[87.9,7833],[87.9,7917],[87.9,7999],[87.5,8083],[87.4,8166],[87.4,8249]]",1,0,506.5831,511.7326,90.9375,1.2631,"[{""rating"":90.9375,""responseTime"":1.2630999999977917}]",space,4.6041,,511.7327,Half the time,50,511.74,,,[],,0,14,14,14,1,audio/Narrative8Situation5.wav,audio/Narrative7Situation5.wav,audio/Narrative6Situation5.wav,audio/Narrative5Situation5.wav,2,5,2,5,,,,,,,,,,,,,,,,,,,,,,,,,,,,,,,,,,,,,,,
,,,,,,63ed1fa5c88ecae92bf0c920,2024-02-08_16h03.27.063,group3.1-3.2-social-tom,2023.2.2,Win32,59.88023952,65c5074098b851296ff0b7ed,65c54192d99af06b3aa52799,,,,,,,,,,,,,,,,,,,,,,,,,,,,,511.7402,1,audio/Narrative8Situation6.wav,513.7497,,513.7498,520.2162,"[[999,0],[999,83],[999,166],[999,250],[999,332],[999,417],[999,499],[999,583],[999,666],[999,750],[999,833],[999,916],[999,1000],[999,1083],[999,1166],[999,1249],[999,1333],[999,1417],[999,1500],[999,1582],[999,1666],[999,1750],[999,1832],[999,1916],[999,1999],[999,2083],[999,2166],[999,2249],[999,2333],[999,2417],[999,2499],[999,2583],[999,2666],[999,2749],[999,2833],[999,2916],[999,2999],[999,3083],[999,3166],[999,3249],[999,3333],[999,3416],[999,3501],[999,3583],[999,3666],[999,3749],[999,3833],[999,3917],[999,3999],[999,4083],[999,4166],[999,4249],[999,4333],[999,4416],[999,4499],[999,4583],[999,4667],[999,4749],[999,4833],[999,4916],[999,4999],[999,5083],[999,5166],[999,5249],[999,5332],[999,5416],[999,5499],[999,5583],[999,5666],[55.1,5749],[54.1,5833],[53.6,5916],[53,6000],[50.9,6084],[48.5,6166],[43.3,6249],[42.9,6333],[42.9,6416]]",1,0,520.2164,523.0009,17.60416667,1.6644,"[{""rating"":17.604166666666664,""responseTime"":1.6644000000022743}]",space,2.2339,,523.001,All the time,100,523.0027,,,[],,0,15,15,15,1,audio/Narrative8Situation6.wav,audio/Narrative7Situation6.wav,audio/Narrative6Situation6.wav,audio/Narrative5Situation6.wav,2,3,2,3,,,,,,,,,,,,,,,,,,,,,,,,,,,,,,,,,,,,,,,
,,,,,,63ed1fa5c88ecae92bf0c920,2024-02-08_16h03.27.063,group3.1-3.2-social-tom,2023.2.2,Win32,59.88023952,65c5074098b851296ff0b7ed,65c54192d99af06b3aa52799,,,,,,,,,,,,,,,,,,,,,,,,,,,,,523.0028,1,audio/Narrative8Situation7.wav,526.0161,,526.0162,538.1163,"[[999,0],[999,83],[999,166],[999,250],[999,333],[999,416],[999,500],[999,583],[999,666],[999,750],[999,833],[999,916],[999,1000],[999,1083],[999,1167],[999,1250],[999,1333],[999,1416],[999,1500],[999,1583],[999,1666],[999,1749],[999,1833],[999,1916],[999,2000],[999,2083],[999,2167],[999,2249],[999,2333],[999,2416],[999,2500],[999,2583],[999,2667],[999,2749],[999,2833],[999,2916],[999,3000],[999,3083],[999,3167],[999,3250],[999,3333],[999,3417],[999,3500],[999,3583],[999,3666],[999,3750],[999,3833],[999,3916],[999,4000],[999,4083],[999,4166],[999,4250],[999,4333],[53.6,4418],[54.1,4500],[54.3,4583],[54.3,4666],[54.3,4749],[55.3,4833],[63.4,4916],[69.5,5000],[70.2,5083],[70.5,5166],[70.5,5250],[70.5,5333],[70.5,5417],[70.5,5500],[70.5,5582],[70.5,5666],[70.5,5750],[70.5,5833],[70.5,5917],[70.5,6000],[70.5,6083],[70.5,6167],[70.5,6250],[70.5,6332],[69.4,6417],[63.4,6500],[58.9,6584],[51.8,6667],[45.7,6750],[39.2,6833],[28.4,6916],[23.6,7000],[22.6,7083],[22.5,7166],[21.8,7250],[20.4,7333],[14.4,7416],[8,7500],[7.9,7582],[7.9,7666],[7.9,7749],[7.9,7833],[8.9,7917],[8.9,8000],[8.9,8083],[8.9,8166],[8.9,8250],[8.9,8333],[8.9,8417],[8.9,8500],[8.9,8583],[8.9,8666],[8.9,8750],[8.9,8833],[8.9,8916],[8.9,9000],[8.9,9083],[8.9,9166],[8.9,9250],[8.9,9333],[8.9,9417],[8.9,9500],[8.9,9583],[8.8,9666],[8.8,9750],[8.8,9833],[8.8,9917],[8.8,10000],[8.8,10082],[10.7,10167],[28.4,10251],[37.7,10333],[44.6,10416],[50.5,10500],[51.1,10583],[52.2,10667],[52.2,10749],[55.2,10833],[64.4,10916],[64.4,11000],[64.4,11083],[64.4,11166],[64.4,11250],[64.4,11333],[64.4,11417],[64.4,11500],[64.4,11582],[64.3,11667],[64.3,11749],[64.1,11833],[60.2,11917],[56.7,12000],[55.9,12083]]",1,0,538.1165,542.9166,41.25,3.1294,"[{""rating"":50,""responseTime"":2.3911999999992304},{""rating"":41.25,""responseTime"":3.1293999999984408}]",space,4.2677,,542.9166,Not at all,0,542.9215,,,[],,0,16,16,16,1,audio/Narrative8Situation7.wav,audio/Narrative7Situation7.wav,audio/Narrative6Situation7.wav,audio/Narrative5Situation7.wav,3,5,5,4,,,,,,,,,,,,,,,,,,,,,,,,,,,,,,,,,,,,,,,
,,,,,,63ed1fa5c88ecae92bf0c920,2024-02-08_16h03.27.063,group3.1-3.2-social-tom,2023.2.2,Win32,59.88023952,65c5074098b851296ff0b7ed,65c54192d99af06b3aa52799,,,,,,,,,,,,,,,,,,,,,,,,,,,,,542.9222,1,audio/Narrative8Situation8.wav,545.9334,,545.9336,558.7994,"[[999,0],[999,82],[999,165],[999,248],[999,332],[999,415],[999,499],[999,582],[999,666],[999,749],[999,833],[999,916],[999,999],[999,1082],[999,1165],[999,1248],[999,1332],[999,1416],[999,1499],[999,1582],[999,1666],[999,1749],[999,1833],[999,1916],[999,1998],[999,2082],[999,2166],[999,2249],[49.9,2333],[49.9,2416],[49.9,2499],[48.9,2583],[45,2666],[37.6,2750],[29.6,2833],[28.1,2915],[27.6,2999],[27,3083],[26.8,3166],[26.8,3249],[26.8,3332],[26.8,3416],[26.8,3499],[26.9,3583],[28.3,3665],[30.1,3749],[40.3,3833],[54.1,3916],[58.2,3999],[58.6,4082],[59.1,4166],[59.9,4249],[60,4332],[60,4415],[60,4499],[60,4583],[60,4665],[60,4749],[60,4832],[60,4915],[60,4999],[60,5082],[60,5165],[60,5249],[60,5333],[60,5415],[60,5498],[59.6,5583],[58.9,5665],[58.8,5748],[58.8,5832],[58.8,5915],[58.8,5998],[58.8,6082],[58.8,6165],[63.3,6249],[72.2,6333],[77.2,6416],[85.6,6500],[87.3,6583],[87.3,6665],[87.3,6750],[87.5,6833],[88.2,6916],[88.2,6999],[88.2,7082],[88.2,7166],[88.2,7248],[88.2,7332],[88.2,7417],[88.2,7498],[88.2,7583],[88.2,7665],[88.2,7748],[88.2,7833],[88.2,7915],[88.2,7999],[88.2,8083],[88.2,8165],[88.2,8249],[88.2,8332],[88.2,8415],[88.2,8499],[88.2,8582],[88.2,8665],[88.2,8749],[88.2,8832],[88.2,8915],[88.2,8999],[88.2,9082],[88.2,9165],[88.2,9249],[88.2,9332],[88.2,9415],[88.2,9499],[88.2,9582],[88.2,9666],[88.2,9749],[88.2,9832],[88.2,9915],[88.2,9999],[88.2,10082],[88.2,10165],[88.2,10249],[88.2,10332],[88.2,10415],[88.2,10499],[88.2,10582],[88.2,10665],[88.2,10749],[88.2,10832],[88.2,10915],[88.2,10998],[88.2,11082],[88.2,11165],[88.2,11248],[88.2,11332],[88.6,11416],[88.8,11498],[89.1,11582],[89.5,11666],[89.6,11748],[90.3,11833],[90.3,11916],[90.3,11998],[90.3,12082],[90.3,12166],[90.3,12249],[90.3,12332],[90.3,12415],[90.3,12498],[90.3,12583],[90.3,12665],[90.5,12749],[90.9,12832]]",1,0,558.7995,561.3834,98.02083333,0.9414,"[{""rating"":98.02083333333333,""responseTime"":0.9413999999985663}]",space,2.0504,,561.3835,Not at all,0,561.385,,,[],,0,17,17,17,1,audio/Narrative8Situation8.wav,audio/Narrative7Situation8.wav,audio/Narrative6Situation8.wav,audio/Narrative5Situation8.wav,3,2,5,3,,,,,,,,,,,,,,,,,,,,,,,,,,,,,,,,,,,,,,,
,,,,,,63ed1fa5c88ecae92bf0c920,2024-02-08_16h03.27.063,group3.1-3.2-social-tom,2023.2.2,Win32,59.88023952,65c5074098b851296ff0b7ed,65c54192d99af06b3aa52799,,,,,,,,,,,,,,,,,,,,,,,,,,,,,561.3853,1,audio/Narrative8Situation9.wav,564.3993,,564.3993,575.7332,"[[999,5],[999,82],[999,167],[999,249],[999,333],[999,416],[999,500],[999,583],[999,667],[999,750],[999,834],[999,917],[999,1000],[999,1083],[999,1167],[999,1250],[74.6,1333],[74.6,1416],[74.4,1500],[74.3,1583],[74.3,1667],[74.3,1750],[74.3,1833],[74.3,1917],[74.3,2000],[74.3,2083],[74.2,2166],[74.2,2250],[74.2,2333],[74.2,2416],[74.2,2499],[74.2,2583],[74.2,2666],[74.2,2750],[74.2,2833],[74.2,2916],[74.2,3000],[73.3,3083],[73,3167],[73,3250],[73,3333],[73,3417],[73,3500],[73,3582],[73,3666],[73.6,3749],[76.3,3833],[76.8,3917],[77.7,4000],[79.1,4083],[80.2,4167],[82.4,4250],[84.6,4334],[86.5,4416],[87.1,4500],[88.5,4582],[88.5,4666],[88.5,4750],[88.5,4833],[88.8,4916],[88.8,4999],[88.8,5083],[88.9,5166],[88.9,5249],[88.9,5333],[88.9,5416],[88.9,5500],[88.9,5582],[88.9,5666],[89.5,5750],[91,5832],[91.4,5917],[91.4,5999],[91.8,6082],[91.8,6167],[92.1,6250],[96,6333],[97.8,6416],[98,6499],[98,6582],[98.1,6666],[98.4,6750],[99.1,6833],[99.7,6917],[100,7000],[100,7082],[100,7167],[100,7249],[100,7332],[100,7417],[99.6,7500],[99.5,7583],[99.1,7667],[98.2,7750],[98.1,7833],[98.1,7916],[98.1,8000],[98,8083],[98,8166],[98,8250],[98,8333],[98,8417],[98,8500],[98,8582],[98,8667],[98,8750],[98,8832],[98,8917],[98,9000],[98,9083],[98,9166],[98,9250],[98,9333],[98,9417],[98,9500],[98,9583],[98,9666],[98,9750],[98,9832],[98,9917],[98,10000],[98,10083],[98,10167],[98,10250],[98,10333],[98,10417],[98,10500],[98,10583],[98,10667],[98,10750],[98,10832],[98,10916],[98,11000],[98,11082],[98,11166],[98,11250],[98,11333]]",1,0,575.7334,579.1494,98.02083333,1.9657,"[{""rating"":98.02083333333333,""responseTime"":1.9657000000029257}]",space,2.8861,,579.1494,Not at all,0,579.1507,,,[],,0,18,18,18,1,audio/Narrative8Situation9.wav,audio/Narrative7Situation9.wav,audio/Narrative6Situation9.wav,audio/Narrative5Situation9.wav,3,2,4,3,,,,,,,,,,,,,,,,,,,,,,,,,,,,,,,,,,,,,,,
,,,,,,63ed1fa5c88ecae92bf0c920,2024-02-08_16h03.27.063,group3.1-3.2-social-tom,2023.2.2,Win32,59.88023952,65c5074098b851296ff0b7ed,65c54192d99af06b3aa52799,,,,,,,,,,,,,,,,,,,,,,,,,,,588.956,591.5322,591.5408,2,audio/Narrative13Situation2.wav,591.5409,,591.5409,621.2822,"[[999,0],[999,75],[999,158],[999,241],[999,325],[999,407],[999,491],[999,575],[999,658],[999,743],[999,825],[999,908],[999,991],[999,1075],[999,1158],[999,1242],[81.9,1325],[61.6,1408],[58.1,1491],[57.6,1574],[52.3,1658],[51.3,1741],[50.9,1825],[50.8,1908],[50.7,1992],[50.7,2075],[50.3,2158],[49.4,2242],[49.4,2325],[49.3,2408],[49.3,2491],[49.1,2575],[49.1,2658],[49.2,2741],[49.3,2824],[49.5,2908],[49.8,2992],[49.8,3074],[49.8,3158],[49.8,3241],[49.8,3324],[49.8,3408],[49.8,3491],[49.8,3575],[49.8,3658],[49.8,3741],[49.8,3825],[49.8,3908],[49.8,3991],[49.8,4075],[49.8,4158],[49.8,4242],[49.8,4325],[49.8,4408],[49.8,4491],[49.8,4575],[49.8,4658],[49.8,4741],[48.6,4825],[45.5,4908],[40.2,4992],[36.8,5075],[30.7,5158],[24.9,5242],[22,5326],[19.6,5408],[16.7,5491],[15.5,5575],[13,5658],[6.7,5741],[4.7,5824],[4.7,5907],[4.7,5992],[4.7,6075],[4.7,6158],[4.7,6241],[4.7,6325],[4.7,6408],[4.7,6491],[4.7,6575],[4.7,6658],[4.7,6741],[4.7,6825],[4.7,6908],[4.7,6991],[4.7,7075],[4.7,7158],[4.7,7241],[4.7,7325],[4.7,7408],[4.7,7492],[4.7,7574],[4.7,7658],[4.7,7741],[4.7,7825],[4.7,7908],[4.7,7991],[4.7,8074],[4.7,8158],[4.7,8242],[4.7,8325],[4.7,8407],[4.7,8491],[4.7,8574],[4.7,8658],[4.7,8741],[4.7,8824],[4.7,8908],[4.7,8991],[4.7,9075],[4.7,9158],[4.7,9241],[4.7,9324],[4.7,9407],[4.7,9492],[4.7,9574],[4.7,9658],[4.7,9741],[4.7,9825],[4.9,9908],[4.9,9991],[4.9,10075],[5.5,10158],[6.1,10241],[6.7,10325],[7.7,10408],[8.2,10491],[8.2,10574],[8.4,10658],[8.5,10741],[8.9,10825],[9.1,10908],[9.7,10992],[10.4,11075],[10.5,11158],[10.6,11241],[10.6,11324],[10.6,11408],[10.6,11491],[10.6,11575],[10.6,11658],[10.6,11741],[10.6,11825],[10.6,11908],[10.6,11992],[10.6,12075],[10.6,12158],[10.6,12241],[10.6,12325],[10.6,12408],[10.6,12491],[10.6,12575],[10.6,12658],[10.6,12741],[10.6,12825],[10.6,12908],[10.6,12991],[10.6,13075],[10.6,13158],[10.6,13241],[10.6,13324],[10.6,13408],[10.6,13491],[10.6,13575],[10.8,13657],[10.8,13741],[10.8,13825],[10.8,13908],[10.8,13991],[10.8,14074],[10.8,14157],[10.8,14242],[10.8,14324],[10.8,14408],[10.8,14491],[10.8,14575],[10.8,14658],[10.8,14742],[10.8,14824],[10.8,14907],[11.4,14992],[12.4,15075],[12.4,15158],[12.4,15241],[12.4,15324],[12.4,15408],[12.4,15491],[12.4,15575],[12.4,15658],[12.4,15741],[12.4,15825],[12.4,15908],[12.4,15991],[12.4,16075],[12.4,16158],[12.4,16241],[12.4,16324],[12.4,16408],[12.4,16491],[12.4,16575],[12.4,16658],[12.4,16741],[12.4,16825],[12.4,16908],[12.4,16991],[12.4,17075],[12.4,17158],[12.4,17240],[12.4,17325],[12.4,17408],[12.4,17491],[12.4,17575],[12.4,17658],[12.4,17741],[12.4,17824],[12.4,17907],[12.4,17991],[12.4,18074],[12.4,18158],[12.4,18242],[12.4,18325],[12.4,18408],[12.4,18491],[12.4,18574],[12.4,18658],[12.1,18741],[11.6,18824],[11.5,18907],[10.7,18991],[10.3,19074],[10,19158],[9.5,19243],[9.1,19324],[9.1,19408],[9.1,19491],[9.1,19575],[9.1,19658],[9.1,19741],[9.1,19824],[9.1,19908],[9.1,19991],[9.1,20075],[9.1,20158],[9.1,20241],[9.1,20325],[9.1,20408],[9.1,20491],[9.1,20574],[9.1,20658],[9.1,20741],[9.1,20825],[9.1,20907],[9.1,20991],[9.1,21074],[9.1,21158],[9.1,21241],[9.1,21325],[9.1,21408],[9.1,21491],[9.1,21574],[9.1,21658],[9.1,21741],[9.1,21825],[10.6,21908],[11.5,21992],[12.2,22075],[12.3,22158],[12.3,22241],[12.3,22324],[12.3,22408],[12.3,22493],[12.3,22575],[12.3,22658],[12.3,22741],[12.3,22824],[12.3,22908],[12.3,22990],[12.3,23075],[12.3,23158],[12.3,23241],[12.3,23325],[12.3,23407],[12.5,23491],[13.8,23575],[14.4,23657],[14.6,23741],[14.6,23825],[14.6,23907],[14.7,23991],[14.8,24075],[14.8,24158],[14.8,24241],[14.8,24324],[14.6,24408],[14.6,24492],[14.6,24575],[14.6,24658],[14.6,24742],[14.6,24824],[14.6,24907],[14.6,24992],[14.6,25074],[16.9,25159],[18.1,25241],[24.6,25324],[28,25408],[28.6,25491],[28.6,25575],[29.2,25658],[29.5,25741],[29.5,25824],[29.5,25907],[29.5,25991],[29.5,26075],[29.5,26158],[29.5,26241],[29.5,26324],[29.5,26408],[29.5,26491],[29.5,26574],[29.7,26658],[30,26741],[30.3,26825],[30.5,26907],[30.8,26990],[31,27075],[31.4,27158],[31.6,27241],[31.6,27324],[31.6,27407],[31.8,27491],[31.9,27575],[31.9,27658],[32,27741],[32,27825],[32,27908],[32,27991],[32,28075],[32,28157],[32,28241],[32,28325],[32,28407],[32,28491],[32,28574],[32,28658],[32,28741],[32,28824],[32,28908],[32,28991],[32,29074],[32,29158],[32,29241],[32,29325],[32,29408],[32,29491],[32,29575],[32,29658],[32,29741]]",1,0,621.2825,621.2839,,,[],,,,621.2839,Half the time,50,621.2856,,,[],,0,0,0,0,1,audio/Narrative13Situation2.wav,audio/Narrative13Situation2.wav,audio/Narrative13Situation2.wav,audio/Narrative13Situation2.wav,2,2,2,2,,,,,579.1513,588.9502,space,9.2672,,,,,,,,,,,,,,,,,,,,,,,,,,,,,,,
,,,,,,63ed1fa5c88ecae92bf0c920,2024-02-08_16h03.27.063,group3.1-3.2-social-tom,2023.2.2,Win32,59.88023952,65c5074098b851296ff0b7ed,65c54192d99af06b3aa52799,,,,,,,,,,,,,,,,,,,,,,,,,,,,,621.2859,2,audio/Narrative5Situation1.wav,626.2993,,626.2993,639.582,"[[31.9,1666],[31.9,1750],[31.9,1833],[31.9,1916],[31.4,1999],[30.6,2082],[30.2,2167],[29.4,2249],[28.2,2332],[27.4,2416],[26.7,2500],[26.3,2583],[26,2666],[26,2749],[25.8,2833],[25.7,2917],[25.6,3000],[25.6,3082],[25.3,3166],[24.1,3250],[22.8,3333],[22.7,3416],[22.7,3499],[22.4,3583],[22.3,3666],[22.3,3749],[22.3,3834],[22.3,3916],[22.3,3999],[22.3,4083],[23,4166],[24.1,4249],[24.7,4333],[24.8,4416],[25,4499],[25.2,4582],[26.3,4667],[26.6,4749],[26.7,4833],[26.8,4916],[26.9,4999],[26.9,5082],[26.9,5166],[26.9,5249],[26.9,5333],[26.9,5417],[26.9,5499],[26.9,5583],[26.9,5666],[26.9,5749],[26.9,5832],[26.9,5916],[26.9,6000],[26.9,6082],[26.9,6166],[26.9,6249],[26.9,6333],[26.9,6416],[26.9,6499],[26.9,6584],[26.9,6666],[27.1,6749],[27.4,6832],[27.9,6917],[29.2,7000],[29.9,7083],[31.4,7167],[32.1,7250],[32.1,7332],[32.1,7416],[32.1,7499],[32.1,7582],[32.1,7666],[32.3,7749],[33.2,7832],[34.4,7917],[35.1,8000],[35.8,8083],[36,8166],[36.3,8249],[36.3,8334],[36.3,8416],[36.3,8499],[36.3,8583],[36.3,8666],[36.3,8749],[36.3,8833],[36.3,8917],[36.3,9000],[36.3,9084],[36.4,9166],[36.5,9251],[36.7,9333],[36.9,9417],[37.4,9499],[37.4,9583],[37.4,9667],[37.4,9750],[37.5,9832],[37.6,9916],[37.6,9999],[37.6,10082],[37.6,10166],[37.6,10249],[37.6,10332],[37.6,10416],[37.6,10499],[37.6,10583],[37.7,10665],[37.7,10750],[37.7,10833],[37.8,10916],[38.1,10999],[39.3,11083],[43.3,11166],[46.7,11249],[48.6,11333],[49.7,11416],[49.8,11499],[49.8,11582],[49.9,11666],[49.9,11749],[49.9,11832],[49.9,11915],[49.9,11999],[49.9,12083],[49.9,12166],[49.9,12249],[49.9,12332],[49.9,12416],[49.9,12499],[49.9,12583],[49.9,12666],[49.9,12749],[49.9,12832],[49.9,12915],[49.9,12999],[49.9,13082],[49.9,13166],[49.9,13250]]",1,0,639.5822,645.5828,26.77083333,1.915,"[{""rating"":26.770833333333332,""responseTime"":1.9149999999999636}]",space,5.4527,,645.5829,All the time,100,645.5903,,,[],,0,1,1,1,1,audio/Narrative7Situation1.wav,audio/Narrative8Situation1.wav,audio/Narrative5Situation1.wav,audio/Narrative6Situation1.wav,2,5,5,2,,,,,,,,,,,,,,,,,,,,,,,,,,,,,,,,,,,,,,,
,,,,,,63ed1fa5c88ecae92bf0c920,2024-02-08_16h03.27.063,group3.1-3.2-social-tom,2023.2.2,Win32,59.88023952,65c5074098b851296ff0b7ed,65c54192d99af06b3aa52799,,,,,,,,,,,,,,,,,,,,,,,,,,,,,645.5904,2,audio/Narrative5Situation2.wav,648.5991,,648.5991,678.0659,"[[26.4,166],[26.4,249],[26.4,332],[26.4,416],[26.4,500],[26.4,583],[26.4,666],[26.4,749],[26.4,832],[26.4,916],[26.5,999],[29.4,1083],[29.8,1166],[29.8,1249],[29.8,1333],[29.8,1416],[29.8,1499],[29.9,1583],[29.9,1666],[29.9,1750],[29.9,1833],[29.9,1915],[29.9,2000],[29.9,2082],[29.9,2166],[29.9,2249],[29.9,2332],[29.9,2416],[29.9,2499],[29.9,2583],[29.9,2666],[29.9,2749],[29.9,2832],[29.9,2915],[29.9,2999],[29.9,3083],[29.9,3166],[29.9,3249],[29.9,3333],[29.9,3416],[29.9,3499],[29.9,3582],[29.9,3667],[29.9,3749],[29.9,3832],[29.9,3916],[29.9,3999],[29.9,4082],[29.9,4166],[29.9,4249],[29.9,4332],[29.9,4416],[29.9,4500],[29.9,4583],[29.9,4666],[29.9,4749],[29.9,4833],[29.9,4916],[29.9,4999],[29.9,5082],[29.9,5166],[29.9,5249],[29.9,5332],[29.9,5416],[29.9,5499],[29.9,5582],[29.9,5666],[29.9,5750],[29.9,5833],[29.9,5916],[29.9,5999],[29.9,6082],[29.9,6166],[29.9,6249],[29.9,6332],[29.9,6416],[29.9,6500],[29.9,6582],[29.9,6666],[29.6,6750],[29.2,6832],[28.5,6917],[27.8,7000],[26.9,7082],[26.1,7165],[25.4,7249],[25.1,7333],[24.6,7416],[24.1,7500],[24,7583],[24.4,7666],[31.9,7749],[49.6,7833],[54.8,7916],[54.9,8000],[55.1,8083],[55.1,8166],[55.1,8249],[55.1,8333],[55.7,8416],[56.3,8500],[56.4,8582],[56.6,8667],[56.9,8749],[57.2,8832],[58.4,8916],[59.7,8999],[59.8,9082],[59.8,9166],[59.9,9249],[59.9,9333],[59.9,9416],[59.9,9499],[59.9,9582],[59.9,9666],[59.9,9749],[59.9,9833],[59.9,9916],[59.9,10000],[59.9,10082],[59.9,10166],[59.9,10249],[59.9,10333],[59.9,10417],[59.9,10499],[59.9,10583],[59.9,10666],[59.9,10750],[59.9,10832],[59.9,10916],[59.9,10999],[60.4,11083],[61,11165],[64,11249],[65.6,11333],[66.4,11417],[69.4,11500],[70.4,11584],[71.6,11667],[73.9,11749],[75.7,11833],[76.4,11916],[76.5,11999],[76.5,12084],[76.5,12166],[76.5,12250],[76.5,12332],[76.5,12416],[76.5,12499],[76.5,12582],[76.5,12665],[76.5,12749],[76.5,12833],[76.5,12916],[76.5,12999],[76.5,13082],[76.5,13167],[76.5,13249],[76.5,13333],[76.5,13416],[75.9,13501],[75.7,13583],[75.4,13666],[75.1,13749],[75,13833],[75,13916],[75,13999],[74.9,14082],[74.9,14166],[74.9,14249],[74.8,14333],[74.8,14416],[74.8,14499],[74.8,14583],[74.8,14666],[74.8,14750],[74.8,14833],[74.8,14916],[74.8,14999],[74.8,15082],[74.8,15166],[74.8,15250],[74.8,15332],[76.8,15416],[77.6,15499],[78.4,15582],[78.6,15666],[78.6,15749],[78.6,15832],[78.6,15916],[78.6,15999],[78.6,16083],[78.6,16165],[78.6,16250],[78.6,16332],[78.6,16416],[78.6,16500],[78.6,16582],[78.6,16666],[78.2,16751],[77.7,16833],[75.2,16916],[74.8,17000],[73.8,17083],[73.5,17166],[70.8,17250],[70.8,17332],[70.8,17416],[70.8,17499],[70.8,17582],[70.8,17666],[70.8,17749],[70.8,17833],[70.8,17915],[70.8,18000],[70.8,18082],[70.8,18166],[70.8,18249],[70.8,18334],[70.8,18415],[70.8,18500],[70.8,18582],[70.8,18666],[70.8,18749],[72.5,18833],[75.8,18916],[76.7,19000],[78.3,19082],[80.6,19167],[81.5,19250],[81.8,19332],[82.1,19417],[82.6,19500],[84.4,19583],[90,20167],[90.5,20250],[90.9,20333],[91,20416],[91,20499],[91,20583],[91,20667],[91,20749],[91,20832],[91,20915],[90.6,20999],[90.1,21083],[90,21166],[89.8,21250],[88.6,21332],[88.5,21416],[88.4,21499],[88.3,21582],[88.2,21666],[88,21749],[87.9,21833],[87.9,21916],[87.9,21999],[87.7,22082],[87.7,22166],[87.7,22250],[87.8,22333],[87.9,22416],[88,22499],[88,22583],[88,22666],[88,22749],[88,22832],[88,22915],[88.6,23000],[90.1,23082],[91.5,23167],[92.6,23249],[93.2,23333],[94,23417],[94.3,23499],[94.3,23582],[94.3,23666],[94.2,23749],[93.3,23833],[93.3,23915],[93.3,23999],[93.3,24083],[92.9,24166],[92,24249],[91.7,24332],[91.6,24416],[91.6,24499],[91.6,24583],[91.6,24666],[91.6,24749],[91.6,24833],[91.6,24915],[91.6,24999],[91.6,25083],[91.6,25165],[91.6,25249],[91.6,25333],[91.6,25416],[91.6,25499],[91.6,25583],[91.6,25666],[91.6,25749],[91.6,25833],[91.6,25916],[91.5,25999],[91.5,26082],[91.5,26165],[91.5,26249],[91.5,26332],[91.5,26415],[91.5,26499],[91.5,26582],[91.5,26666],[91.5,26749],[91.5,26833],[91.5,26916],[91.5,26999],[91.5,27083],[91.5,27166],[91.5,27249],[91.5,27332],[91.5,27416],[91.5,27499],[91.5,27582],[91.8,27666],[92.2,27749],[92.5,27833],[93,27916],[93.6,28000],[94.2,28082],[94.2,28166],[94.2,28249],[94.2,28332],[94.2,28416],[94.2,28499],[94.2,28584],[94.2,28666],[94.1,28749],[93.3,28832],[93.1,28916],[93.1,28999],[93.1,29082],[93.1,29166],[93.1,29249],[93.1,29332],[93.1,29416]]",1,0,678.066,680.8825,93.125,1.0746,"[{""rating"":93.125,""responseTime"":1.0746000000015101}]",space,2.2837,,680.8826,Half the time,50,680.8845,,,[],,0,2,2,2,1,audio/Narrative7Situation2.wav,audio/Narrative8Situation2.wav,audio/Narrative5Situation2.wav,audio/Narrative6Situation2.wav,3,3,3,3,,,,,,,,,,,,,,,,,,,,,,,,,,,,,,,,,,,,,,,
,,,,,,63ed1fa5c88ecae92bf0c920,2024-02-08_16h03.27.063,group3.1-3.2-social-tom,2023.2.2,Win32,59.88023952,65c5074098b851296ff0b7ed,65c54192d99af06b3aa52799,,,,,,,,,,,,,,,,,,,,,,,,,,,,,680.8846,2,audio/Narrative5Situation3.wav,683.8987,,683.8987,697.7986,"[[999,5],[999,83],[999,167],[999,250],[999,334],[999,416],[999,499],[999,584],[999,666],[999,750],[999,834],[999,916],[999,999],[999,1083],[77.7,1167],[79.3,1249],[79.6,1333],[79.7,1416],[79.7,1499],[79.7,1583],[78.4,1667],[75.6,1750],[73.1,1833],[70.8,1916],[69,2000],[68.2,2083],[68.2,2166],[68.2,2249],[68.2,2332],[68.2,2416],[68.2,2499],[68.2,2583],[68.2,2666],[68.2,2750],[68.2,2833],[68.2,2916],[68.2,3001],[68.2,3083],[68.2,3166],[68.2,3249],[68.2,3332],[68.2,3416],[68.2,3499],[68.2,3584],[68.2,3666],[68.2,3750],[68.2,3832],[68.2,3917],[68.2,4000],[68.2,4083],[68.2,4166],[68.2,4250],[68.2,4333],[68,4416],[68,4500],[66.1,4584],[64,4668],[62.5,4750],[60.7,4834],[59.5,4917],[59,5000],[58.9,5083],[58.8,5166],[58.8,5250],[58.4,5333],[57.7,5416],[57.6,5500],[57.5,5583],[57.4,5667],[57.3,5750],[57.2,5833],[57.2,5917],[57.2,6000],[57.2,6083],[57.2,6166],[57.2,6250],[57.3,6334],[57.4,6416],[58,6500],[59.4,6583],[61.1,6666],[62.3,6749],[63.3,6832],[64,6916],[64,7000],[64,7083],[64,7166],[64,7249],[64,7332],[64.1,7416],[64.1,7500],[64.1,7583],[64.1,7667],[64.1,7749],[64.1,7833],[64.1,7916],[64.1,7999],[64.1,8083],[64.1,8167],[64.1,8250],[64.1,8333],[64.1,8417],[64.1,8500],[64.1,8583],[64.1,8667],[64.1,8750],[64.1,8833],[64.1,8916],[64.6,9000],[65.4,9083],[65.4,9166],[65.5,9250],[65.6,9333],[65.8,9416],[65.9,9499],[66.3,9583],[66.4,9666],[66.5,9749],[66.7,9833],[66.7,9916],[66.8,10000],[67.2,10083],[67.5,10166],[67.9,10250],[68.4,10333],[68.4,10416],[68.5,10499],[68.6,10584],[68.6,10666],[68.6,10750],[68.6,10834],[68.6,10917],[68.6,11000],[68.6,11083],[68.6,11166],[68.6,11250],[68.6,11333],[69.2,11417],[69.5,11499],[69.5,11583],[70.1,11667],[70.4,11749],[70.4,11834],[70.4,11916],[70.5,11999],[70.9,12084],[71.4,12166],[71.4,12249],[72.2,12334],[73,12416],[73.1,12499],[73.1,12582],[73.1,12666],[73.1,12750],[73.1,12833],[73.1,12916],[73.1,12999],[73.1,13082],[73.1,13166],[73.1,13249],[73.1,13332],[73.1,13416],[73.1,13500],[73.1,13582],[73.1,13666],[73.1,13749],[73.1,13833]]",1,0,697.7987,703.315,60.41666667,2.5415,"[{""rating"":79.375,""responseTime"":1.2583000000007587},{""rating"":60.416666666666664,""responseTime"":2.541499999999928}]",space,4.9838,,703.3151,Not at all,0,713.3321,0.104166667,5.9927,"[{""rating"":0.1041666666666663,""responseTime"":5.992699999999331}]",space,0,3,3,3,1,audio/Narrative7Situation3.wav,audio/Narrative8Situation3.wav,audio/Narrative5Situation3.wav,audio/Narrative6Situation3.wav,8,4,3,5,,,9.4833,,,,,,,,,,,,,,,,,,,,,,,,,,,,,,,,,,,,
,,,,,,63ed1fa5c88ecae92bf0c920,2024-02-08_16h03.27.063,group3.1-3.2-social-tom,2023.2.2,Win32,59.88023952,65c5074098b851296ff0b7ed,65c54192d99af06b3aa52799,,,,,,,,,,,,,,,,,,,,,,,,,,,,,713.3381,2,audio/Narrative5Situation4.wav,714.3486,,714.3486,734.7486,"[[999,0],[999,84],[999,166],[999,249],[999,332],[999,416],[999,500],[999,583],[999,666],[999,750],[999,833],[999,916],[999,999],[999,1083],[999,1167],[999,1250],[999,1333],[999,1416],[999,1500],[999,1582],[999,1666],[999,1749],[999,1832],[999,1917],[999,2000],[999,2082],[999,2166],[999,2250],[999,2332],[999,2416],[999,2500],[999,2582],[999,2666],[999,2750],[999,2833],[999,2916],[999,3000],[999,3082],[999,3166],[999,3250],[999,3334],[48.9,3416],[51,3499],[51.5,3583],[51.5,3666],[51.5,3749],[51.5,3833],[51.5,3916],[51.5,3999],[51.5,4082],[51.5,4166],[51.5,4249],[51.5,4333],[51.5,4417],[51.5,4500],[51.5,4584],[51.5,4666],[51.5,4750],[51.5,4833],[51.5,4916],[51.5,4999],[51.5,5083],[51.5,5166],[51.4,5249],[46.4,5332],[43.5,5416],[43.3,5500],[43.3,5583],[43.3,5666],[43.3,5750],[43.3,5832],[43.3,5916],[43.3,6000],[43.2,6083],[43.1,6166],[43.1,6250],[43.1,6332],[43.1,6416],[43.1,6499],[43.1,6582],[43.1,6667],[43.1,6750],[42.9,6833],[42.7,6917],[42.6,7000],[42.6,7082],[42.6,7166],[42.6,7249],[42.6,7333],[42.6,7416],[42.6,7499],[42.6,7583],[42.6,7667],[42.6,7750],[42.6,7833],[42.6,7917],[42.6,7999],[42.6,8083],[42.6,8167],[42.6,8250],[42.6,8333],[42.6,8417],[42.6,8500],[42.6,8583],[42.6,8666],[42.6,8749],[42.6,8833],[42.6,8915],[42.6,8999],[42.6,9083],[42.6,9166],[42.6,9249],[42.6,9333],[42.6,9416],[42.6,9499],[42.6,9582],[42.6,9666],[42.6,9750],[42.6,9833],[42.6,9915],[42.6,10000],[42.6,10083],[42.6,10166],[42.6,10249],[42.5,10333],[42.2,10415],[42,10500],[41.6,10583],[39.8,10667],[39.1,10750],[38.3,10833],[38,10916],[37.4,11000],[37.2,11083],[37.2,11165],[37.2,11250],[37.2,11333],[37.2,11416],[37.2,11499],[37.2,11583],[37.2,11666],[37.2,11750],[37.2,11833],[37.2,11916],[37.2,11999],[37.2,12083],[37.2,12166],[37.2,12250],[37.2,12332],[37.2,12416],[37.2,12500],[37.2,12583],[37.2,12666],[37.2,12749],[37.2,12832],[37.2,12916],[37.2,13000],[37.2,13082],[37.2,13166],[37.2,13249],[37.2,13333],[37.2,13416],[37.2,13500],[37.2,13583],[37.2,13666],[37.2,13749],[37.2,13832],[37.2,13917],[37.2,14000],[37.2,14083],[37.1,14167],[36.7,14250],[35.4,14333],[33.3,14417],[33.3,14500],[32.6,14583],[30.4,14666],[30.1,14750],[30,14832],[30,14916],[30,14999],[30,15083],[30,15166],[30,15249],[30,15333],[30,15416],[29.9,15500],[29.9,15583],[29.9,15667],[29.9,15750],[29.9,15833],[29.9,15916],[29.9,15999],[29.9,16082],[29.9,16166],[29.9,16249],[29.9,16333],[29.9,16416],[29.9,16500],[29.9,16583],[29.9,16666],[29.9,16750],[29.9,16833],[29.9,16915],[29.9,17000],[29.9,17083],[29.9,17166],[29.9,17250],[29.9,17332],[29.9,17416],[29.9,17499],[29.9,17584],[29.9,17667],[29.9,17750],[29.9,17832],[29.9,17916],[32.5,18000],[34.8,18083],[34.8,18166],[34.8,18250],[34.9,18332],[34.9,18415],[34.9,18500],[34.9,18583],[34.9,18666],[34.9,18750],[35.8,18833],[53,18916],[57.4,19000],[57.4,19083],[57.4,19166],[57.4,19249],[57.4,19332],[57.4,19416],[57.4,19500],[57.4,19583],[57.4,19666],[57.4,19750],[57.4,19833],[57.4,19916],[57.4,19999],[57.4,20082],[57.4,20167],[57.4,20250],[57.4,20332]]",1,0,734.7487,737.6654,58.22916667,1.0842,"[{""rating"":58.229166666666664,""responseTime"":1.0841999999993277}]",space,2.3837,,737.6655,All the time,100,737.6672,,,[],,0,4,4,4,1,audio/Narrative7Situation4.wav,audio/Narrative8Situation4.wav,audio/Narrative5Situation4.wav,audio/Narrative6Situation4.wav,3,3,1,2,,,,,,,,,,,,,,,,,,,,,,,,,,,,,,,,,,,,,,,
,,,,,,63ed1fa5c88ecae92bf0c920,2024-02-08_16h03.27.063,group3.1-3.2-social-tom,2023.2.2,Win32,59.88023952,65c5074098b851296ff0b7ed,65c54192d99af06b3aa52799,,,,,,,,,,,,,,,,,,,,,,,,,,,,,737.6674,2,audio/Narrative5Situation5.wav,742.6817,,742.6817,758.1148,"[[999,6],[999,83],[999,166],[999,249],[999,333],[999,416],[999,499],[999,583],[999,666],[999,750],[999,834],[999,916],[999,1000],[999,1083],[999,1166],[999,1250],[999,1333],[999,1416],[999,1500],[999,1583],[999,1666],[999,1750],[64.1,1833],[76.4,2833],[75.9,2917],[75.9,3000],[75.9,3083],[75.9,3166],[75.9,3250],[75.9,3333],[75.9,3416],[75.9,3500],[75.9,3583],[75.9,3667],[77,3750],[77.4,3833],[77.5,3916],[77.5,3999],[77.5,4083],[77.5,4166],[77.5,4250],[77.8,4332],[77.8,4416],[77.9,4499],[78.6,4583],[83.4,4667],[87.2,4750],[87.7,4833],[87.8,4916],[87.8,5000],[87.8,5083],[87.8,5166],[87.8,5250],[87.8,5333],[87.8,5416],[87.8,5500],[87.8,5583],[87.8,5666],[87.8,5749],[87.8,5833],[87.8,5916],[87.8,6000],[87.8,6083],[87.8,6166],[87.8,6250],[87.8,6333],[87.8,6416],[87.8,6500],[87.8,6583],[87.8,6666],[87.8,6750],[87.8,6833],[87.8,6916],[87.8,7000],[87.8,7083],[87.8,7166],[87.8,7250],[87.8,7333],[87.8,7416],[87.8,7501],[87.8,7583],[87.8,7666],[87.8,7751],[87.8,7833],[87.8,7916],[87.8,7999],[87.8,8082],[87.8,8166],[87.8,8249],[87.8,8333],[87.8,8416],[87.8,8500],[87.8,8583],[87.8,8666],[87.8,8750],[87.8,8832],[87.8,8916],[87.8,9000],[87.8,9083],[87.8,9166],[87.8,9249],[87.8,9333],[87.8,9416],[87.8,9499],[87.8,9583],[87.8,9667],[87.8,9750],[87.8,9833],[87.6,9916],[86.6,10000],[85.3,10083],[84.7,10166],[84.2,10250],[83.5,10333],[82.7,10416],[82.7,10500],[82.4,10583],[82.2,10666],[82.2,10749],[82.1,10833],[82,10916],[81.8,11000],[81.7,11082],[81.7,11167],[81.6,11250],[81.5,11332],[81.4,11417],[81.3,11500],[81.3,11583],[81.3,11667],[81.3,11750],[81.3,11833],[81,11917],[79.8,12000],[79.4,12084],[79.4,12168],[79.4,12250],[79.3,12333],[79.2,12416],[79.2,12499],[79.2,12583],[79.2,12666],[79.2,12750],[79.2,12833],[79.2,12916],[79.2,12999],[79.2,13082],[79.2,13166],[79.2,13250],[79.2,13333],[79.2,13416],[79.2,13500],[79.2,13582],[79,13666],[78,13750],[76.9,13833],[76.4,13917],[75.9,14000],[75.1,14083],[74.5,14166],[73.6,14249],[73.2,14332],[73.1,14416],[72.5,14500],[72.3,14583],[72.2,14666],[72.2,14749],[72.2,14833],[72.1,14916],[72.1,15000],[72.1,15083],[72.1,15166],[72.1,15250],[72.1,15333],[72.1,15416]]",1,0,758.115,761.7982,75.52083333,1.8582,"[{""rating"":75.52083333333333,""responseTime"":1.858199999999215}]",space,3.1575,,761.7983,Not at all,0,761.8001,,,[],,0,5,5,5,1,audio/Narrative7Situation5.wav,audio/Narrative8Situation5.wav,audio/Narrative5Situation5.wav,audio/Narrative6Situation5.wav,5,2,5,2,,,,,,,,,,,,,,,,,,,,,,,,,,,,,,,,,,,,,,,
,,,,,,63ed1fa5c88ecae92bf0c920,2024-02-08_16h03.27.063,group3.1-3.2-social-tom,2023.2.2,Win32,59.88023952,65c5074098b851296ff0b7ed,65c54192d99af06b3aa52799,,,,,,,,,,,,,,,,,,,,,,,,,,,,,761.8003,2,audio/Narrative5Situation6.wav,764.8145,,764.8145,770.4815,"[[999,0],[999,83],[999,167],[999,250],[999,333],[999,417],[999,500],[999,584],[999,667],[999,751],[999,834],[999,917],[999,1000],[999,1083],[999,1166],[999,1250],[999,1334],[999,1417],[999,1500],[999,1584],[999,1666],[999,1750],[999,1834],[999,1917],[999,2002],[999,2084],[999,2167],[999,2250],[999,2333],[68.2,2416],[66.5,2500],[65.4,2583],[62.4,2666],[62.4,2749],[62.4,2834],[62.4,2917],[62.4,3000],[62.4,3083],[62.4,3167],[62.4,3250],[62.4,3334],[62.4,3416],[62.4,3500],[62.4,3583],[62.4,3667],[62.3,3750],[62.3,3833],[62.3,3917],[61.8,4000],[61,4084],[61,4167],[60.8,4250],[60,4334],[59.5,4417],[59.2,4500],[58.8,4583],[58.4,4666],[58.4,4750],[58.4,4834],[58.4,4916],[58.4,5000],[58.4,5083],[58.4,5166],[58.4,5250],[58.4,5333],[58.4,5417],[58.4,5500],[58.4,5583],[58.4,5666]]",1,0,770.4815,776.9154,91.04166667,3.1418,"[{""rating"":59.47916666666666,""responseTime"":1.2416000000014265},{""rating"":91.04166666666667,""responseTime"":3.1418000000006714}]",space,5.8853,,776.9154,All the time,100,776.9172,,,[],,0,6,6,6,1,audio/Narrative7Situation6.wav,audio/Narrative8Situation6.wav,audio/Narrative5Situation6.wav,audio/Narrative6Situation6.wav,3,2,3,2,,,,,,,,,,,,,,,,,,,,,,,,,,,,,,,,,,,,,,,
,,,,,,63ed1fa5c88ecae92bf0c920,2024-02-08_16h03.27.063,group3.1-3.2-social-tom,2023.2.2,Win32,59.88023952,65c5074098b851296ff0b7ed,65c54192d99af06b3aa52799,,,,,,,,,,,,,,,,,,,,,,,,,,,,,776.9173,2,audio/Narrative5Situation7.wav,780.9316,,780.9316,801.9817,"[[999,6],[999,83],[999,166],[999,249],[999,332],[999,417],[999,499],[999,582],[999,667],[63.4,750],[60.5,833],[59.6,917],[58.3,1000],[56.6,1083],[54.1,1166],[51.8,1249],[46.1,1332],[41.6,1417],[41.4,1499],[41.4,1582],[41.4,1666],[41.3,1750],[41,1833],[40.9,1916],[40.9,2000],[40.9,2082],[40.9,2166],[40.9,2249],[40.9,2333],[40.9,2416],[40.9,2499],[40.9,2583],[40.8,2666],[40.8,2749],[40.8,2833],[40.8,2916],[40.8,2999],[40.8,3082],[40.8,3166],[40.8,3249],[40.7,3333],[40.7,3416],[40.7,3499],[40.7,3583],[43.1,3666],[52.2,3750],[56,3832],[56.7,3916],[58.9,4000],[59,4083],[60.2,4166],[62,4249],[63,4333],[63.9,4416],[64.8,4500],[65.4,4583],[66.6,4666],[67.3,4749],[67.4,4833],[67.8,4916],[68,4999],[68,5083],[68,5166],[68,5250],[68,5332],[68,5416],[68,5499],[68,5583],[68.3,5667],[68.6,5749],[68.8,5832],[68.8,5916],[68.8,6000],[68.8,6083],[68.8,6167],[68.8,6250],[68.8,6333],[68.8,6416],[68.8,6500],[68.8,6583],[68.8,6666],[68.8,6750],[68.8,6833],[68.8,6916],[69.3,6999],[69.9,7082],[69.9,7166],[69.9,7249],[69.9,7332],[69.9,7416],[69.9,7499],[69.9,7583],[69.9,7666],[69.9,7750],[69.9,7832],[69.9,7916],[69.9,7999],[70.1,8083],[71,8166],[71.6,8249],[71.7,8333],[71.8,8416],[71.8,8499],[71.8,8583],[71.8,8666],[71.6,8749],[71.6,8833],[71.6,8916],[71.5,8999],[71.5,9083],[71.5,9166],[71.5,9250],[71.5,9332],[72,9416],[73.4,9499],[74,9583],[74,9666],[74,9749],[74,9832],[74,9916],[74,9999],[74,10083],[74,10167],[74,10250],[74,10333],[74,10417],[74,10500],[74,10583],[74,10666],[74,10750],[74,10834],[74,10916],[74,10999],[74,11082],[74,11167],[74,11250],[74,11333],[74,11416],[74,11499],[74,11583],[74,11666],[74,11750],[74,11832],[74,11916],[74,12000],[74,12082],[74,12166],[74,12250],[74,12333],[74,12416],[74,12499],[74,12583],[74,12666],[74,12749],[74,12833],[74,12916],[74,13000],[74,13082],[74,13166],[74,13250],[74,13333],[74,13416],[74,13499],[74,13583],[74,13666],[74,13749],[74,13832],[74,13916],[74,14000],[74,14083],[74,14166],[74,14250],[74,14333],[74,14416],[74,14500],[74,14583],[74,14666],[74.7,14750],[74.9,14833],[75.1,14916],[75.1,14999],[75.1,15083],[75.5,15167],[77,15249],[77.8,15332],[78.2,15416],[78.2,15499],[78.2,15583],[78.2,15666],[78.2,15749],[78.2,15833],[78.2,15916],[78.2,15999],[79,16082],[83,16166],[85.2,16249],[85.2,16333],[85.2,16416],[85.2,16499],[85.2,16583],[85.2,16666],[85.2,16749],[85.2,16832],[85.2,16916],[85.2,16999],[85.2,17083],[85.2,17166],[85.2,17250],[85.2,17333],[85.2,17416],[85.2,17499],[85.2,17582],[85.2,17666],[85.2,17749],[85.2,17832],[85.2,17917],[85.2,17999],[85.2,18082],[85.2,18166],[85.2,18250],[85.2,18332],[85.2,18416],[85.2,18500],[85.2,18583],[85.2,18666],[85.2,18750],[85.2,18832],[85.2,18917],[85.2,18999],[85.2,19083],[85.2,19166],[85.2,19250],[85.2,19332],[85.2,19416],[85.2,19499],[85.2,19582],[85.2,19666],[85.2,19749],[85.2,19834],[85.2,19916],[85.2,19999],[85,20082],[85,20167],[84.9,20250],[84.8,20332],[84.8,20416],[84.8,20499],[84.8,20583],[84.8,20666],[84.8,20749],[84.8,20832],[84.8,20916],[84.8,21000]]",1,0,801.9818,804.5478,86.97916667,1.7979,"[{""rating"":86.97916666666667,""responseTime"":1.797900000002187}]",space,2.0213,,804.5478,Not at all,0,804.5496,,,[],,0,7,7,7,1,audio/Narrative7Situation7.wav,audio/Narrative8Situation7.wav,audio/Narrative5Situation7.wav,audio/Narrative6Situation7.wav,5,3,4,5,,,,,,,,,,,,,,,,,,,,,,,,,,,,,,,,,,,,,,,
,,,,,,63ed1fa5c88ecae92bf0c920,2024-02-08_16h03.27.063,group3.1-3.2-social-tom,2023.2.2,Win32,59.88023952,65c5074098b851296ff0b7ed,65c54192d99af06b3aa52799,,,,,,,,,,,,,,,,,,,,,,,,,,,,,804.5497,2,audio/Narrative5Situation8.wav,807.5645,,807.5645,816.382,"[[70.6,667],[70.7,751],[70.8,833],[70.8,917],[70.8,1000],[70.8,1083],[70.8,1167],[70.8,1250],[70.8,1333],[70.8,1417],[70.8,1500],[70.8,1583],[70.8,1666],[70.8,1750],[70.8,1833],[70.8,1917],[70.8,1999],[70.8,2083],[70.8,2167],[70.8,2250],[70.8,2333],[70.8,2417],[70.8,2500],[70.8,2583],[70.8,2666],[70.8,2750],[70.8,2833],[70.8,2916],[70.8,2999],[70.8,3084],[70.8,3166],[71,3250],[73.4,3333],[74.4,3417],[74.5,3500],[74.9,3583],[75.7,3667],[75.7,3750],[75.7,3833],[75.7,3918],[75.7,4000],[75.7,4083],[75.7,4166],[75.7,4250],[75.7,4333],[75.7,4416],[75.7,4500],[75.7,4583],[75.7,4666],[75.7,4750],[75.7,4833],[75.7,4916],[75.7,5000],[75.7,5084],[75.7,5166],[75.7,5250],[75.7,5332],[75.7,5417],[76,5500],[82.2,5584],[87.9,5666],[92.6,5750],[95.9,5834],[97.3,5916],[97.8,5999],[98,6084],[98.1,6166],[99.2,6250],[99.2,6333],[99.2,6416],[99.2,6499],[99.2,6583],[99.2,6666],[99.2,6749],[99.2,6833],[99.2,6917],[99.2,7000],[99.2,7083],[99.2,7167],[99.2,7249],[99.2,7333],[99.2,7417],[99.2,7500],[99.2,7583],[99.2,7666],[99.2,7750],[99.2,7833],[99.2,7916],[99.2,8000],[99.2,8083],[99.2,8166],[99.2,8250],[99.2,8333],[99.2,8417],[99.2,8500],[99.2,8583],[99.2,8666],[99.2,8750]]",1,0,816.3821,818.6816,99.16666667,0.8244,"[{""rating"":99.16666666666667,""responseTime"":0.8243999999984908}]",space,1.7505,,818.6816,All the time,100,818.6834,,,[],,0,8,8,8,1,audio/Narrative7Situation8.wav,audio/Narrative8Situation8.wav,audio/Narrative5Situation8.wav,audio/Narrative6Situation8.wav,2,3,3,5,,,,,,,,,,,,,,,,,,,,,,,,,,,,,,,,,,,,,,,
,,,,,,63ed1fa5c88ecae92bf0c920,2024-02-08_16h03.27.063,group3.1-3.2-social-tom,2023.2.2,Win32,59.88023952,65c5074098b851296ff0b7ed,65c54192d99af06b3aa52799,,,,,,,,,,,,,,,,,,,,,,,,,,,,,818.6836,2,audio/Narrative5Situation9.wav,821.6975,,821.6975,861.2312,"[[76.1,9416],[76.1,9500],[76.1,9583],[76.1,9667],[76.1,9750],[76.1,9833],[76.1,9916],[75.4,10000],[75.4,10083],[75.4,10168],[75.4,10250],[73.9,10333],[73.9,10417],[73.9,10501],[73.9,10583],[75.5,10667],[77.6,10750],[77.8,10833],[77.8,10916],[77.8,11000],[80.8,11084],[83.1,11167],[83.1,11250],[83.5,11334],[84.6,11417],[85.2,11500],[87,11583],[87.1,11667],[87.1,11750],[87.1,11833],[87.1,11917],[87.1,12000],[87.3,12083],[87.3,12166],[87.3,12250],[87.3,12334],[87.3,12416],[87.2,12500],[87.2,12583],[87.2,12666],[87.2,12750],[87.2,12834],[87.2,12916],[87.2,13000],[87.2,13083],[87.2,13167],[87.2,13250],[87.2,13333],[87.2,13416],[87.2,13500],[85.1,13584],[82,13667],[77,13751],[73.5,13833],[70.4,13917],[69,14000],[68.9,14083],[68.3,14168],[67,14250],[65.2,14334],[65.1,14417],[65.1,14500],[65.1,14583],[65.1,14666],[65.1,14750],[65.1,14833],[65.1,14916],[65.1,15000],[65.4,15083],[66.4,15166],[66.5,15250],[66.5,15333],[66.5,15417],[66.5,15500],[66.5,15583],[66.5,15667],[66.5,15750],[66.5,15833],[66.5,15916],[66.5,16000],[66.5,16083],[66.5,16168],[66.5,16250],[66.5,16334],[66.5,16416],[66.5,16500],[66.5,16583],[66.5,16666],[66.5,16750],[66.5,16833],[66.5,16916],[66.5,17000],[66.5,17083],[67.7,17167],[70.5,17250],[72,17334],[72.7,17416],[72.8,17499],[72.8,17583],[73.5,17667],[74.2,17750],[74.4,17833],[74.8,17917],[75.3,18000],[76.1,18084],[76.7,18167],[76.7,18250],[76.7,18333],[76.7,18416],[76.7,18500],[76.7,18584],[76.7,18667],[76.7,18750],[76.7,18833],[76.7,18917],[76.7,19000],[76.7,19084],[76.7,19167],[76.7,19250],[76.7,19333],[76.7,19417],[76.7,19499],[76.7,19583],[76.7,19667],[76.7,19750],[76.7,19833],[76.7,19916],[76.5,20000],[75.1,20084],[73.8,20167],[72.2,20250],[69.8,20333],[68,20417],[66.8,20500],[63.8,20583],[63,20667],[60.7,20750],[58.5,20833],[54.5,20916],[52.5,21000],[50,21084],[47.5,21167],[46.4,21251],[46.1,21333],[46.1,21416],[46.1,21500],[46.1,21583],[46.1,21666],[44.9,21750],[43.9,21833],[42.7,21917],[42.2,22001],[41.9,22084],[41.9,22166],[41.9,22250],[41.9,22333],[41.9,22416],[41.9,22499],[41.9,22583],[41.9,22666],[41.9,22750],[41.9,22833],[41.9,22916],[41.9,23000],[42.5,23083],[45.3,23167],[46.5,23250],[47.7,23333],[49,23417],[49.2,23499],[49.5,23584],[50.3,23667],[50.4,23750],[50.4,23833],[50.5,23916],[52.3,24000],[52.4,24083],[52.4,24167],[52.4,24250],[52.9,24333],[52.9,24416],[52.9,24500],[53,24583],[53.1,24666],[53.1,24750],[53.1,24833],[53.1,24916],[53.1,25000],[53.1,25083],[53.1,25166],[53.1,25250],[53.1,25333],[53.1,25416],[53.1,25500],[53.1,25583],[53,25666],[53,25750],[52.9,25833],[52.7,25917],[52.5,26001],[52.4,26084],[52.3,26167],[52.2,26250],[52.2,26333],[52.1,26416],[52.1,26499],[52.1,26583],[52.1,26666],[52.1,26750],[52.1,26833],[52.1,26917],[52.3,27000],[52.5,27083],[52.5,27167],[52.5,27250],[52.5,27333],[52.5,27417],[52.5,27500],[52.5,27583],[52.5,27666],[52.5,27750],[52.5,27835],[52.5,27917],[52.5,28000],[52.5,28084],[52.5,28167],[52.5,28250],[52.5,28333],[52.4,28418],[51.6,28501],[50.1,28583],[49,28667],[47.8,28750],[47.6,28833],[47.2,28916],[47,29000],[46.9,29083],[46.9,29166],[46.9,29250],[46.9,29333],[46.9,29416],[46.9,29500],[46.9,29583],[46.9,29667],[46.9,29750],[46.8,29833],[46.4,29917],[46.4,29999],[46.4,30083],[46.4,30166],[46.4,30250],[48.1,30334],[52.6,30417],[53.8,30500],[54.6,30584],[56,30667],[57.8,30750],[60.3,30833],[62,30917],[62.1,31000],[62.5,31083],[63,31167],[63.1,31250],[63.3,31334],[64.3,31418],[64.5,31500],[64.5,31583],[64.5,31667],[64.6,31750],[65.8,31834],[66.4,31917],[66.4,32000],[66.4,32083],[66.4,32166],[67.6,32250],[69.2,32333],[73.4,32416],[74.9,32500],[77.2,32584],[79.8,32667],[79.8,32749],[80.1,32833],[80.1,32916],[80.1,33000],[80.1,33083],[80.1,33166],[80.1,33250],[80.1,33333],[80.1,33417],[80.1,33500],[80.1,33583],[80.1,33666],[80.1,33750],[80.1,33833],[80.1,33917],[80.1,34000],[80.1,34083],[80.1,34166],[80.1,34250],[80.1,34333],[80.1,34417],[80.1,34500],[80.1,34582],[80.1,34667],[80.1,34750],[80.1,34833],[80.1,34916],[80.1,35000],[80.1,35083],[80.1,35167],[80.1,35250],[80.1,35333],[80.1,35416],[80.1,35500],[80.1,35583],[80.1,35667],[80.6,35750],[81.4,35834],[81.8,35916],[81.9,36000],[81.9,36084],[81.9,36166],[81.9,36251],[81.9,36333],[81.9,36416],[81.9,36500],[81.9,36583],[81.9,36667],[81.9,36749],[81.9,36833],[81.9,36916],[81.9,37000],[81.9,37083],[81.9,37167],[81.8,37250],[81.8,37333],[81.7,37417],[81.7,37500],[81.7,37583],[81.6,37667],[81.6,37749],[81.6,37833],[81.6,37916],[81.6,38000],[81.6,38083],[81.6,38166],[81.6,38249],[81.6,38333],[81.6,38416],[81.6,38500],[81.6,38583],[81.6,38666],[81.6,38749],[81.6,38833],[81.6,38916],[81.6,39000],[81.6,39083],[81.6,39166],[81.6,39249],[81.6,39333],[81.6,39416],[81.6,39500]]",1,0,861.2315,865.0655,69.6875,2.1293,"[{""rating"":69.6875,""responseTime"":2.1293000000007396}]",space,3.3003,,865.0656,Not at all,0,865.0678,,,[],,0,9,9,9,1,audio/Narrative7Situation9.wav,audio/Narrative8Situation9.wav,audio/Narrative5Situation9.wav,audio/Narrative6Situation9.wav,2,3,3,4,,,,,,,,,,,,,,,,,,,,,,,,,,,,,,,,,,,,,,,
,,,,,,63ed1fa5c88ecae92bf0c920,2024-02-08_16h03.27.063,group3.1-3.2-social-tom,2023.2.2,Win32,59.88023952,65c5074098b851296ff0b7ed,65c54192d99af06b3aa52799,,,,,,,,,,,,,,,,,,,,,,,,,,,,,865.0679,2,audio/Narrative6Situation1.wav,867.0814,,867.0814,893.6645,"[[69.2,1083],[69.1,1166],[69.1,1250],[68.9,1332],[67.6,1416],[67.2,1499],[67.2,1582],[67.2,1666],[67.2,1749],[67.2,1833],[65.9,1917],[64.3,2000],[62.4,2082],[62,2166],[62,2250],[62,2332],[60.7,2416],[52.9,2500],[52.7,2583],[52.6,2666],[52.2,2750],[51.7,2833],[51.5,2916],[51.5,2999],[51.5,3083],[51.5,3166],[51.5,3249],[51.4,3332],[51.4,3416],[51.4,3499],[51.4,3582],[51.4,3666],[51.4,3750],[51.4,3832],[51.4,3915],[51.4,3999],[51.4,4082],[51.4,4166],[51.4,4249],[51.4,4332],[51.4,4416],[51.4,4499],[51.4,4582],[51.4,4666],[51.4,4749],[51.4,4833],[51.4,4916],[51.4,4999],[51.4,5083],[51.4,5165],[51.4,5249],[51.4,5333],[51.4,5415],[51.4,5499],[51.4,5583],[53.3,5665],[55.3,5749],[55.5,5832],[55.7,5916],[56.7,5999],[56.8,6082],[56.9,6166],[56.9,6250],[56.9,6333],[56.8,6416],[56.8,6500],[56.8,6582],[56.8,6666],[56.7,6749],[56.6,6832],[56.5,6916],[56.5,6999],[56.5,7082],[56.5,7166],[56.5,7249],[56.5,7332],[56.5,7416],[56.5,7499],[56.5,7582],[56.5,7666],[56.5,7749],[56.5,7833],[56.5,7916],[57.3,8000],[59.4,8082],[61.6,8166],[61.6,8249],[61.6,8332],[61.6,8416],[61.6,8500],[61.6,8582],[61.5,8666],[60.8,8749],[60.3,8833],[58.8,8916],[57.6,8999],[56.3,9084],[52.8,9165],[52.2,9249],[52.2,9333],[52.2,9417],[52.2,9499],[52.2,9583],[52.2,9666],[52.2,9750],[52.2,9833],[52.2,9916],[52.2,9999],[52.2,10083],[52.2,10165],[52.4,10249],[53,10333],[53.1,10416],[53.2,10499],[54.3,10583],[55.3,10666],[57.9,10751],[62.6,10833],[70.3,10917],[75.6,11000],[74.5,11083],[74.5,11165],[74.5,11250],[74.5,11332],[74.5,11415],[74.5,11499],[72,11583],[70.4,11665],[70.4,11749],[71,11833],[74.2,11916],[74.9,11999],[75.4,12082],[77.4,12166],[78.4,12249],[78.9,12332],[79.8,12416],[81.1,12499],[81.3,12582],[81.3,12666],[82.1,12749],[82.1,12832],[82.1,12916],[82.1,12999],[82.1,13082],[82.2,13166],[82.2,13249],[82.2,13332],[82.2,13416],[82.2,13499],[82.2,13583],[82.2,13666],[82,13750],[81.6,13832],[81.5,13915],[81.5,13999],[81.4,14083],[81.4,14165],[81.4,14249],[81.4,14332],[81.4,14416],[81.4,14499],[81.4,14583],[81.4,14665],[81.4,14749],[81.4,14833],[81.4,14915],[81.3,14999],[81.3,15083],[81.3,15166],[81.3,15249],[81.3,15332],[81.3,15417],[81.3,15499],[81.3,15583],[81.3,15666],[81.3,15749],[81.3,15832],[81.3,15916],[81.3,15999],[81.3,16083],[81.3,16166],[81.7,16249],[82.5,16332],[83.1,16415],[83.2,16499],[83.4,16582],[83.4,16666],[83.4,16749],[83.4,16832],[83.4,16915],[83.4,16999],[83.4,17082],[83.4,17165],[83.4,17249],[83.4,17333],[83.4,17416],[83.4,17499],[83.4,17582],[83.4,17666],[83.4,17749],[83.4,17832],[83.4,17916],[83.4,17999],[83.4,18082],[83.4,18166],[83.4,18249],[83.4,18332],[83.4,18415],[83.4,18500],[83.4,18582],[83.4,18665],[83.4,18750],[83.4,18832],[83.4,18915],[83.4,18999],[83.4,19083],[83.4,19165],[83.4,19249],[83.4,19333],[83.4,19416],[83.4,19499],[83.4,19582],[83.4,19666],[83.4,19749],[83.4,19832],[83.4,19915],[83.4,20000],[83.4,20082],[83.4,20165],[83.4,20249],[83.4,20332],[83.4,20416],[83.4,20500],[83.4,20583],[83.4,20666],[83.4,20749],[83.4,20833],[83.4,20916],[83.4,20999],[83.4,21082],[83.4,21166],[84,21249],[84.4,21332],[84.6,21416],[85.2,21499],[85.8,21583],[86.1,21665],[86.1,21749],[86.1,21833],[86.1,21915],[86.1,22000],[86.1,22082],[86.1,22166],[86.1,22249],[86.1,22332],[86.1,22415],[86.1,22499],[86.1,22583],[86.1,22667],[86.1,22749],[86.1,22833],[86.1,22916],[86.1,22999],[86.1,23082],[86.1,23165],[86.1,23250],[86.1,23332],[86,23416],[86,23499],[86,23582],[86,23666],[86,23749],[86,23832],[86,23916],[85.9,24000],[85.9,24083],[85.9,24166],[85.9,24249],[85.9,24332],[85.9,24415],[85.8,24499],[85.8,24582],[85.8,24665],[85.8,24749],[85.8,24832],[85.8,24915],[85.8,24999],[85.8,25082],[85.8,25166],[85.8,25249],[85.8,25332],[85.9,25416],[87.3,25499],[91.6,25582],[91.7,25665],[91.7,25749],[91.8,25833],[91.9,25917],[92,25999],[94.3,26083],[96.9,26167],[100,26249],[100,26333],[100,26416],[100,26499],[100,26583]]",1,0,893.6647,897.3471,92.70833333,1.3745,"[{""rating"":92.70833333333333,""responseTime"":1.3745000000000118}]",space,3.1505,,897.3471,All the time,100,897.3544,,,[],,0,10,10,10,1,audio/Narrative8Situation1.wav,audio/Narrative7Situation1.wav,audio/Narrative6Situation1.wav,audio/Narrative5Situation1.wav,5,2,2,5,,,,,,,,,,,,,,,,,,,,,,,,,,,,,,,,,,,,,,,
,,,,,,63ed1fa5c88ecae92bf0c920,2024-02-08_16h03.27.063,group3.1-3.2-social-tom,2023.2.2,Win32,59.88023952,65c5074098b851296ff0b7ed,65c54192d99af06b3aa52799,,,,,,,,,,,,,,,,,,,,,,,,,,,,,897.3545,2,audio/Narrative6Situation2.wav,900.3643,,900.3643,928.8803,"[[999,0],[999,82],[999,168],[999,249],[999,333],[999,417],[999,500],[999,583],[69.4,666],[64.4,751],[63.4,833],[63.4,916],[63.4,1000],[63.4,1082],[63.4,1166],[63.4,1249],[63.4,1334],[63.4,1416],[63.4,1499],[63.4,1583],[63.4,1666],[63.4,1749],[63.4,1833],[63.4,1916],[63.4,1999],[63.4,2082],[63.4,2165],[63.4,2249],[63.4,2332],[63.4,2416],[63.4,2499],[63.4,2584],[63.4,2666],[63.4,2750],[63.4,2833],[63.4,2916],[63.4,3000],[63.4,3082],[63.4,3166],[63.4,3249],[63.4,3332],[63.4,3416],[63.4,3499],[63.4,3583],[63.4,3666],[63.4,3749],[63.4,3832],[63.4,3916],[63.4,4000],[63.4,4083],[63.4,4166],[63.4,4250],[63.4,4332],[63.4,4416],[63.4,4499],[63.4,4583],[63.4,4666],[63.4,4749],[63.4,4832],[63.5,4916],[64.8,5000],[66.1,5083],[68.2,5167],[70.7,5249],[70.8,5333],[70.8,5416],[70.8,5499],[70.8,5583],[70.8,5666],[70.8,5749],[70.8,5833],[70.8,5916],[70.8,5999],[70.8,6083],[70.8,6166],[70.8,6249],[70.8,6332],[70.8,6416],[70.8,6499],[70.8,6583],[70.8,6666],[70.8,6749],[70.8,6832],[70.8,6916],[70.8,6999],[70.8,7082],[70.8,7167],[70.8,7250],[70.8,7333],[70.8,7416],[70.8,7499],[70.8,7582],[70.8,7666],[70.8,7749],[70.8,7833],[70.8,7916],[70.8,7999],[70.8,8083],[70.8,8166],[70.8,8249],[70.8,8333],[70.8,8416],[70.8,8500],[70.7,8583],[70.7,8666],[70.7,8749],[70.7,8832],[70.7,8915],[70.7,8999],[70.7,9082],[70.7,9166],[70.7,9249],[70.7,9333],[70.7,9416],[70.7,9499],[71,9582],[73.1,9666],[75.3,9750],[76.4,9833],[77.5,9916],[79,10000],[80.9,10082],[81.9,10167],[84,10250],[84,10333],[84,10415],[84,10499],[84,10583],[83.9,10666],[83.8,10749],[83.6,10832],[83.6,10916],[83.5,11000],[83.4,11083],[83.4,11166],[83.3,11249],[83.2,11332],[83.2,11415],[83.1,11499],[83.1,11582],[83.1,11666],[83.1,11749],[83.1,11832],[83.1,11916],[82.9,11999],[82.9,12082],[82.9,12166],[82.9,12249],[82.8,12332],[82.8,12416],[82.8,12499],[82.8,12582],[82.8,12666],[82.8,12749],[82.7,12832],[82.7,12916],[82.7,12999],[82.7,13083],[82.7,13166],[82.7,13249],[82.7,13333],[82.7,13416],[82.7,13500],[82.7,13582],[82.7,13666],[82.7,13750],[82.7,13833],[82.7,13916],[82.7,13999],[82.7,14083],[82.7,14166],[82.7,14249],[82.7,14332],[82.7,14415],[82.7,14500],[82.7,14582],[82.6,14666],[82.6,14749],[82.6,14832],[82.6,14916],[82.6,14999],[82.6,15083],[82.6,15166],[82.6,15249],[82.6,15333],[82.5,15416],[82.4,15500],[82.4,15582],[82.3,15666],[82.3,15749],[82.2,15832],[82.1,15917],[82.1,15999],[82.1,16082],[82.1,16165],[82.1,16249],[82.1,16333],[82,16416],[82,16499],[81.9,16582],[81.9,16666],[81.9,16749],[81.9,16833],[81.9,16915],[81.9,17000],[81.9,17082],[81.9,17166],[81.9,17250],[82.3,17333],[82.9,17415],[82.9,17500],[82.9,17583],[82.9,17666],[82.9,17749],[82.9,17832],[82.9,17916],[82.9,17999],[82.9,18084],[82.9,18166],[82.9,18249],[82.9,18332],[82.9,18416],[82.9,18499],[82.7,18583],[82,18666],[81.9,18750],[81.9,18832],[81.9,18916],[81.9,18999],[81.9,19083],[81.8,19166],[81.7,19250],[81.7,19332],[81.6,19416],[81.6,19499],[81.6,19583],[81.6,19666],[82.1,19750],[83,19832],[84.3,19916],[84.4,20000],[84.8,20083],[85.5,20166],[85.8,20249],[85.9,20332],[85.9,20416],[85.9,20499],[85.9,20582],[85.8,20666],[85.8,20749],[85.8,20833],[85.8,20916],[85.8,20999],[85.8,21083],[85.8,21166],[85.8,21249],[85.8,21332],[85.8,21416],[85.8,21499],[85.8,21583],[85.8,21666],[85.8,21749],[85.7,21832],[85.7,21916],[85.7,21999],[85.7,22083],[85.7,22166],[85.7,22249],[85.7,22332],[85.7,22416],[85.7,22499],[85.7,22582],[85.6,22666],[85.6,22750],[85.5,22833],[85.5,22915],[85.5,22999],[85.5,23082],[85.5,23166],[85.5,23249],[85.5,23332],[85.5,23415],[85.5,23499],[85.5,23583],[85.5,23666],[85.5,23749],[85.5,23832],[85.5,23916],[85.5,23999],[85.5,24082],[85.5,24165],[85.5,24249],[85.5,24333],[85.5,24416],[85.4,24499],[85.4,24583],[85.4,24665],[85.4,24749],[85.4,24832],[85.4,24916],[85.4,24999],[85.4,25083],[85.4,25166],[85.4,25249],[85.4,25332],[85.4,25415],[85.4,25499],[85.4,25582],[85.3,25666],[85.3,25750],[85.3,25833],[85.3,25916],[85.3,26000],[85.3,26083],[85.3,26166],[85.3,26249],[85.3,26333],[85.3,26416],[85.3,26499],[85.3,26582],[85.6,26667],[86.6,26749],[87.2,26833],[89.1,26917],[91.9,26999],[91.9,27082],[91.9,27166],[91.9,27249],[91.9,27332],[91.9,27416],[91.9,27499],[91.9,27582],[91.9,27666],[91.9,27749],[92,27833],[93.5,27916],[94.5,28000],[95.2,28083],[96.7,28167],[97.6,28249],[97.6,28333],[97.6,28416],[97.6,28499]]",1,0,928.8805,934.964,94.16666667,1.8153,"[{""rating"":94.16666666666667,""responseTime"":1.815300000000775}]",space,5.5536,,934.964,Half the time,50,934.9712,,,[],,0,11,11,11,1,audio/Narrative8Situation2.wav,audio/Narrative7Situation2.wav,audio/Narrative6Situation2.wav,audio/Narrative5Situation2.wav,3,3,3,3,,,,,,,,,,,,,,,,,,,,,,,,,,,,,,,,,,,,,,,
