exp_question,consent.started,consent.stopped,consentResponse.keys,consentResponse.rt,consentResponse.duration,participantID,date,expName,psychopyVersion,OS,frameRate,STUDY_ID,SESSION_ID,opening1.started,opening1.stopped,keyEndingOpening1.keys,keyEndingOpening1.rt,keyEndingOpening1.duration,volumeAdjust.started,volumeAdjust.stopped,endingAdjust.keys,endingAdjust.rt,endingAdjust.duration,opening2.started,opening2.stopped,keyEndingOpening.keys,keyEndingOpening.rt,keyEndingOpening.duration,mouse.x,mouse.y,mouse.leftButton,mouse.midButton,mouse.rightButton,mouse.time,instructionLoop.thisRepN,instructionLoop.thisTrialN,instructionLoop.thisN,instructionLoop.thisIndex,instructionLoop.ran,readyForAudio.started,readyForAudio.stopped,fixation.started,run,audio_played,fixation.stopped,endPractice.keys,audioPre.started,audioPre.stopped,continuousResponses_audio,continuousSlider.response,continuousSlider.rt,intRating.started,intRating.stopped,intQuestionSlider.response,intQuestionSlider.rt,intQuestionSlider.history,confirmResponse.keys,confirmResponse.rt,confirmResponse.duration,catchQuestion.started,catch_label,catch_value,catchQuestion.stopped,catchQuestionSlider.response,catchQuestionSlider.rt,catchQuestionSlider.history,confirmResponse_2.keys,audioRunLoop.thisRepN,audioRunLoop.thisTrialN,audioRunLoop.thisN,audioRunLoop.thisIndex,audioRunLoop.ran,conditions1_1,conditions2_1,conditions1_2,conditions2_2,dur1_1,dur2_1,dur1_2,dur2_2,endPractice.rt,endPractice.duration,confirmResponse_2.rt,confirmResponse_2.duration,runIntervalBreak.started,runIntervalBreak.stopped,endingBreakKey.keys,endingBreakKey.rt,endingBreakKey.duration,connection.started,connection.stopped,connectionEnding.keys,connectionEnding.rt,connectionEnding.duration,readyForText.started,readyForText.stopped,textPre.started,run_dup,textPre.stopped,continuousResponses_text,textRunLoop.thisRepN,textRunLoop.thisTrialN,textRunLoop.thisN,textRunLoop.thisIndex,textRunLoop.ran,text1_1,text1_2,text2_1,text2_2,runBreakText.started,runBreakText.stopped,endingBreakKey_2.keys,endingBreakKey_2.rt,endingBreakKey_2.duration,ending.started,ending.stopped,endingEnding.keys,endingEnding.rt,endingEnding.duration
social,0.001,293.079,y,292.771,,64626c991bcb3a8bbd2880d8,2024-02-08_16h04.53.835,group3.1-3.2-social-tom,2023.2.2,Win32,144.092219,65c5074098b851296ff0b7ed,65c5418192e80e58c4afef12,,,,,,,,,,,,,,,,,,,,,,,,,,,,,,,,,,,,,,,,,,,,,,,,,,,,,,,,,,,,,,,,,,,,,,,,,,,,,,,,,,,,,,,,,,,,,,,,,,,,,,,,,,
,,,,,,64626c991bcb3a8bbd2880d8,2024-02-08_16h04.53.835,group3.1-3.2-social-tom,2023.2.2,Win32,144.092219,65c5074098b851296ff0b7ed,65c5418192e80e58c4afef12,293.079,298.628,space,5.524,,,,,,,,,,,,,,,,,,,,,,,,,,,,,,,,,,,,,,,,,,,,,,,,,,,,,,,,,,,,,,,,,,,,,,,,,,,,,,,,,,,,,,,,,,,,,,,,,,,,,,
,,,,,,64626c991bcb3a8bbd2880d8,2024-02-08_16h04.53.835,group3.1-3.2-social-tom,2023.2.2,Win32,144.092219,65c5074098b851296ff0b7ed,65c5418192e80e58c4afef12,,,,,,298.628,331.664,space,32.722,,,,,,,,,,,,,,,,,,,,,,,,,,,,,,,,,,,,,,,,,,,,,,,,,,,,,,,,,,,,,,,,,,,,,,,,,,,,,,,,,,,,,,,,,,,,,,,,,
,,,,,,64626c991bcb3a8bbd2880d8,2024-02-08_16h04.53.835,group3.1-3.2-social-tom,2023.2.2,Win32,144.092219,65c5074098b851296ff0b7ed,65c5418192e80e58c4afef12,,,,,,,,,,,331.666,340.636,space,8.947,,[],[],[],[],[],[],0,0,0,0,1,,,,,,,,,,,,,,,,,,,,,,,,,,,,,,,,,,,,,,,,,,,,,,,,,,,,,,,,,,,,,,,,,,,,,,,,,,,,,,,,
,,,,,,64626c991bcb3a8bbd2880d8,2024-02-08_16h04.53.835,group3.1-3.2-social-tom,2023.2.2,Win32,144.092219,65c5074098b851296ff0b7ed,65c5418192e80e58c4afef12,,,,,,,,,,,340.637,355.135,space,14.421,,[],[],[],[],[],[],1,0,1,0,1,,,,,,,,,,,,,,,,,,,,,,,,,,,,,,,,,,,,,,,,,,,,,,,,,,,,,,,,,,,,,,,,,,,,,,,,,,,,,,,,
,,,,,,64626c991bcb3a8bbd2880d8,2024-02-08_16h04.53.835,group3.1-3.2-social-tom,2023.2.2,Win32,144.092219,65c5074098b851296ff0b7ed,65c5418192e80e58c4afef12,,,,,,,,,,,355.135,380.649,space,25.473,,"[-0.23259881077299754,0.2570828961175236]","[-0.7723880597014925,-0.4763681592039801]","[1,1]","[0,0]","[0,0]","[11.454999999999984,24.99000000000001]",2,0,2,0,1,,,,,,,,,,,,,,,,,,,,,,,,,,,,,,,,,,,,,,,,,,,,,,,,,,,,,,,,,,,,,,,,,,,,,,,,,,,,,,,,
,,,,,,64626c991bcb3a8bbd2880d8,2024-02-08_16h04.53.835,group3.1-3.2-social-tom,2023.2.2,Win32,144.092219,65c5074098b851296ff0b7ed,65c5418192e80e58c4afef12,,,,,,,,,,,380.65,397.233,space,16.559,,[],[],[],[],[],[],3,0,3,0,1,,,,,,,,,,,,,,,,,,,,,,,,,,,,,,,,,,,,,,,,,,,,,,,,,,,,,,,,,,,,,,,,,,,,,,,,,,,,,,,,
,,,,,,64626c991bcb3a8bbd2880d8,2024-02-08_16h04.53.835,group3.1-3.2-social-tom,2023.2.2,Win32,144.092219,65c5074098b851296ff0b7ed,65c5418192e80e58c4afef12,,,,,,,,,,,397.234,403.102,space,5.845,,[],[],[],[],[],[],4,0,4,0,1,,,,,,,,,,,,,,,,,,,,,,,,,,,,,,,,,,,,,,,,,,,,,,,,,,,,,,,,,,,,,,,,,,,,,,,,,,,,,,,,
,,,,,,64626c991bcb3a8bbd2880d8,2024-02-08_16h04.53.835,group3.1-3.2-social-tom,2023.2.2,Win32,144.092219,65c5074098b851296ff0b7ed,65c5418192e80e58c4afef12,,,,,,,,,,,,,,,,,,,,,,,,,,,403.103,405.684,405.696,1,audio/Narrative13Situation2.wav,407.699,,407.699,437.436,"[[92.6,1603],[88.1,1687],[62.7,2603],[61.9,2687],[60.7,2771],[57.5,2853],[55.8,2937],[53.7,3021],[52.8,3103],[51,3187],[50.9,3269],[50.9,3353],[50.9,3437],[50.9,3519],[50.9,3603],[50.9,3687],[50.9,3771],[50.9,3853],[50.9,3937],[50.9,4019],[50.9,4103],[50.9,4187],[50.9,4271],[50.9,4353],[50.9,4437],[50.9,4519],[50.9,4603],[50.9,4687],[50.9,4771],[50.9,4853],[50.9,4937],[50.9,5021],[50.9,5103],[50.9,5187],[50.9,5269],[50.9,5358],[50.7,5437],[50.6,5521],[50.6,5603],[50.6,5687],[50.6,5769],[50.6,5853],[50.6,5937],[50.6,6021],[50.6,6103],[50.6,6187],[50.6,6271],[50.6,6353],[50.6,6437],[58.4,6521],[70.6,6603],[72.3,6687],[72.5,6771],[74.6,6853],[75.1,6937],[76.1,7019],[76.1,7103],[76.1,7187],[76.1,7269],[76.1,7353],[76.1,7437],[76.1,7521],[76.1,7603],[76.1,7687],[76.1,7769],[76.1,7853],[76.1,7937],[76.1,8021],[76.1,8103],[76.1,8187],[76.1,8271],[76.1,8353],[76.1,8437],[76.1,8519],[76.1,8603],[76.1,8687],[76.1,8771],[76.1,8853],[77.8,8937],[84.3,9019],[89.1,9103],[89.8,9187],[89.8,9269],[89.8,9353],[89.8,9437],[89.8,9519],[89.8,9603],[89.8,9690],[89.8,9771],[89.8,9853],[89.8,9937],[89.8,10019],[89.8,10103],[89.8,10187],[89.8,10269],[89.8,10353],[89.8,10437],[89.8,10521],[89.8,10603],[89.8,10687],[89.8,10771],[89.8,10855],[89.8,10937],[89.8,11021],[89.8,11103],[89.8,11187],[89.8,11269],[89.8,11353],[89.8,11437],[89.8,11521],[89.8,11603],[89.8,11687],[89.8,11771],[89.8,11853],[89.8,11937],[89.8,12021],[89.8,12103],[89.8,12187],[89.8,12271],[89.8,12353],[89.8,12437],[89.8,12519],[89.8,12603],[89.8,12694],[89.8,12776],[89.8,12860],[89.8,12946],[89.8,13026],[89.8,13110],[89.8,13194],[89.8,13276],[89.8,13360],[89.8,13444],[89.8,13528],[89.8,13610],[89.8,13694],[89.8,13776],[89.8,13860],[89.8,13944],[89.8,14028],[89.8,14110],[89.8,14199],[89.8,14276],[89.8,14360],[89.8,14444],[89.8,14528],[89.8,14610],[89.8,14694],[89.8,14776],[89.8,14860],[89.8,14944],[89.8,15028],[89.8,15110],[89.8,15194],[89.8,15276],[89.8,15360],[89.8,15444],[89.8,15528],[89.8,15610],[89.8,15694],[89.8,15778],[89.8,15860],[89.8,15944],[89.8,16026],[89.8,16110],[89.8,16194],[89.8,16278],[89.8,16360],[89.8,16444],[89.8,16526],[89.8,16610],[89.8,16702],[89.5,16785],[83.9,16867],[69.7,16951],[63.4,17033],[59.8,17201],[59.8,17285],[59.8,17367],[59.8,17451],[59.5,17535],[55.8,17617],[46.1,17702],[43.9,17783],[43.9,17867],[43.9,17951],[43.9,18033],[43.9,18117],[43.9,18201],[43.9,18283],[43.9,18367],[43.9,18452],[43.8,18533],[42.2,18617],[40.3,18701],[40.3,18785],[40.3,18867],[40.3,18952],[40.3,19035],[40.3,19117],[40.3,19201],[40.3,19283],[40.3,19367],[40.3,19451],[40.3,19533],[40.3,19617],[40.3,19702],[40.3,19785],[40.3,19867],[40.3,19951],[40.3,20035],[40.3,20117],[40.3,20202],[40.3,20283],[40.3,20367],[40.3,20452],[40.3,20533],[40.3,20617],[40.3,20701],[40.3,20785],[40.3,20867],[40.3,20951],[40.3,21035],[40.3,21117],[40.3,21201],[40.3,21285],[40.3,21367],[40.3,21452],[40.3,21535],[40.3,21617],[40.3,21709],[40.3,21791],[40.3,21875],[40.3,21961],[40.3,22040],[40.3,22125],[40.3,22208],[37.2,22291],[32.1,22375],[31.7,22458],[31.7,22541],[31.7,22625],[31.7,22708],[31.7,22793],[32.9,22875],[37.4,22959],[37.8,23040],[37.8,23125],[37.9,23208],[39.1,23290],[40.8,23375],[43.5,23458],[43.9,23540],[45.1,23625],[46.1,23708],[46.2,23791],[46.7,23875],[47,23958],[47,24040],[47,24125],[47,24208],[47,24291],[47,24375],[47,24458],[47,24540],[47,24625],[47,24708],[47,24790],[47,24874],[47,24958],[47,25041],[47,25125],[47,25208],[47,25291],[47,25374],[47,25459],[47,25540],[47,25627],[47,25714],[47.2,25798],[55.6,25882],[62,25966],[63.8,26048],[63.8,26132],[65.1,26214],[67.5,26298],[67.7,26382],[67.9,26464],[69.3,26548],[71.6,26639],[71.7,26721],[71.7,26805],[71.7,26889],[71.7,26971],[71.7,27055],[71.7,27139],[71.7,27221],[71.7,27305],[71.7,27389],[71.7,27471],[71.7,27555],[71.7,27639],[71.7,27721],[71.7,27807],[71.7,27889],[71.7,27971],[71.7,28055],[71.7,28139],[71.7,28221],[71.7,28305],[71.7,28389],[71.7,28471],[71.7,28555],[71.7,28639],[71.7,28721],[71.7,28805],[71.7,28889],[71.7,28971],[71.7,29055],[71.7,29141],[71.7,29221],[71.7,29305],[71.7,29387],[71.7,29473],[71.7,29555],[66.5,29646],[63.9,29728]]",1,0,437.436,446.324,53.59057915,7.245,"[{""rating"":53.59057914675621,""responseTime"":7.2450000000000045}]",space,8.368,,446.325,Partially,50,446.327,,,[],,0,0,0,0,1,audio/Narrative13Situation2.wav,audio/Narrative13Situation2.wav,audio/Narrative13Situation2.wav,audio/Narrative13Situation2.wav,2,2,2,2,,,,,,,,,,,,,,,,,,,,,,,,,,,,,,,,,,,,,,,
,,,,,,64626c991bcb3a8bbd2880d8,2024-02-08_16h04.53.835,group3.1-3.2-social-tom,2023.2.2,Win32,144.092219,65c5074098b851296ff0b7ed,65c5418192e80e58c4afef12,,,,,,,,,,,,,,,,,,,,,,,,,,,,,446.328,1,audio/Narrative7Situation1.wav,447.692,space,447.692,503.561,"[[56.3,2841],[68.1,2923],[72.3,3007],[74.2,3090],[80.2,3173],[80.3,3257],[78.8,3340],[73.1,3423],[68.6,3507],[65.4,3591],[63.2,3673],[62.9,3757],[59.9,3840],[56.4,3923],[53.6,4007],[47.8,4090],[38.9,4173],[30.9,4257],[26.9,4340],[26.1,4423],[24.3,4507],[24.3,4590],[24.3,4675],[24.3,4757],[24.3,4841],[24.3,4923],[24.3,5007],[24.3,5090],[24.3,5173],[16.7,5257],[15.8,5340],[15.7,5423],[13.9,5507],[12.4,5590],[12.4,5673],[12.4,5757],[12.4,5841],[12.4,5923],[12.4,6007],[12.4,6091],[12.4,6173],[12.4,6257],[12.4,6341],[12.4,6423],[12.4,6507],[12.4,6590],[12.4,6673],[12.4,6757],[12.4,6841],[12.4,6923],[12.4,7007],[12.4,7091],[12.4,7173],[12.4,7257],[12.4,7341],[12.4,7423],[12.4,7507],[12.4,7590],[12.4,7673],[12.4,7757],[12.4,7841],[12.4,7923],[12.4,8007],[12.4,8091],[12.7,8173],[25.3,8257],[44.4,8340],[46.1,8423],[46.3,8512],[49.1,8591],[56.3,8673],[57,8757],[57.2,8840],[57.5,8923],[61.6,9007],[63,9090],[63.1,9173],[63.1,9257],[63.1,9340],[63.1,9423],[63.1,9507],[63.1,9591],[63.1,9673],[63.1,9757],[63.1,9841],[63.1,9923],[63.1,10007],[63.1,10090],[63.1,10173],[63.1,10257],[63.1,10341],[63.1,10423],[63.1,10507],[63.1,10590],[63.1,10673],[63.1,10757],[63.1,10841],[63.1,10923],[63.1,11007],[63.1,11090],[63.1,11173],[63.1,11257],[63.1,11341],[63.1,11423],[63.1,11507],[63.1,11591],[63.1,11673],[63.1,11757],[63.1,11841],[63.1,11923],[63.5,12007],[65.9,12091],[71.1,12173],[71.7,12257],[71.7,12341],[71.7,12423],[71.7,12507],[71.7,12590],[71.7,12673],[71.7,12757],[71.7,12841],[71.7,12923],[71.7,13007],[71.7,13091],[71.7,13173],[71.7,13257],[71.7,13340],[71.7,13423],[71.7,13507],[71.7,13591],[71.7,13673],[71.7,13757],[71.7,13840],[71.7,13923],[71.7,14007],[71.7,14091],[71.7,14173],[71.7,14259],[71.7,14341],[71.7,14423],[71.7,14507],[71.7,14590],[71.7,14673],[71.7,14757],[71.7,14841],[71.7,14923],[71.7,15007],[72.8,15091],[74.2,15173],[74.2,15257],[74.2,15341],[71.4,15423],[70.1,15507],[73.7,15591],[77.8,15673],[78.7,15757],[78.7,15841],[78.7,15923],[78.7,16007],[80.7,16090],[82.4,16173],[82.8,16257],[82.8,16340],[73.5,16423],[64.6,16507],[62.6,16591],[62.6,16673],[61.2,16757],[60,16840],[56.3,16923],[54.4,17007],[51.2,17091],[51.2,17173],[51.2,17257],[51.2,17340],[51.2,17423],[51.2,17507],[51.2,17591],[51.2,17673],[51.2,17757],[51.2,17840],[51.2,17923],[51.2,18007],[51.2,18090],[51.2,18173],[51.2,18257],[51.2,18341],[51.2,18423],[51.2,18507],[51.2,18591],[51.2,18673],[51.2,18757],[51.2,18840],[51.2,18923],[51.2,19007],[51.2,19091],[51.7,19173],[51.8,19257],[53.4,19340],[58.4,19423],[64.6,19507],[67.3,19591],[67.9,19673],[68.3,19757],[68.6,19841],[68.6,19923],[68.6,20007],[68.6,20091],[68.6,20173],[68.6,20257],[68.6,20343],[68.6,20423],[68.6,20507],[68.6,20591],[68.6,20673],[68.6,20757],[68.6,20841],[68.6,20923],[68.6,21007],[68.6,21091],[68.6,21173],[68.6,21257],[68.6,21341],[68.6,21423],[68.2,21507],[68.1,21591],[68.1,21680],[68.1,21764],[68.1,21848],[68.1,21930],[68.1,22014],[68.1,22096],[68.1,22180],[68.1,22264],[68.1,22348],[68.3,22430],[70.7,22514],[72.7,22598],[73,22682],[73,22764],[73,22846],[73,22930],[73,23014],[73.1,23098],[73.1,23180],[73.1,23264],[73.1,23348],[73.1,23430],[73.1,23514],[72.1,23598],[69,23680],[68.1,23764],[68.1,23848],[67.6,23930],[66.7,24014],[65.7,24096],[65.1,24180],[64.1,24264],[63.7,24348],[63,24430],[63,24514],[63,24598],[63,24680],[63,24764],[63,24846],[64.2,24930],[64.5,25016],[64.5,25096],[64.5,25180],[63.7,25264],[60.5,25346],[59.9,25430],[61.7,25514],[67.8,25596],[71,25680],[72.1,25766],[72.1,25846],[72.3,25930],[72.8,26014],[73.3,26098],[74.2,26182],[74.5,26268],[74.7,26348],[74.8,26430],[75,26514],[75,26596],[75,26680],[75,26764],[75,26848],[75,26932],[75,27014],[75,27098],[75,27180],[75,27264],[75,27348],[75,27430],[75,27514],[75,27598],[75,27680],[74.7,27764],[73.9,27848],[73.9,27930],[73.7,28014],[73.6,28098],[73.6,28180],[73.6,28264],[73.6,28348],[73.6,28430],[73.6,28514],[73.6,28598],[73.6,28680],[73.6,28764],[73.6,28848],[73.6,28930],[73.6,29014],[73.6,29098],[73.6,29180],[73.6,29264],[73.6,29346],[73.5,29430],[71.4,29514],[69.6,29598],[69.6,29680],[69.6,29764],[69.6,29848],[69.6,29930],[69.6,30014],[69.6,30098],[69.6,30180],[69.6,30264],[69.6,30348],[69.6,30430],[69.6,30514],[69.6,30598],[69.6,30680],[69.6,30764],[68.6,30848],[66.8,30930],[66.6,31014],[66.6,31098],[66.6,31180],[66.6,31264],[66.6,31346],[66.6,31430],[66.6,31514],[66.6,31598],[66.6,31680],[66.6,31764],[66.6,31848],[66.6,31930],[66.6,32014],[66.6,32098],[66.6,32180],[66.6,32264],[66.6,32346],[66.6,32430],[66.6,32514],[66.6,32601],[66.6,32680],[66.6,32764],[66.6,32848],[66.6,32930],[66.6,33014],[66.6,33098],[66.3,33182],[65.8,33264],[65.8,33348],[65.9,33430],[69.4,33514],[71.6,33598],[72.3,33682],[72.4,33764],[72.4,33848],[72.4,33930],[72.4,34016],[72.4,34098],[72.4,34180],[72.4,34264],[72.4,34348],[72.4,34432],[72.4,34514],[72.4,34598],[72.4,34680],[72.4,34764],[72.4,34848],[72.4,34930],[72.4,35014],[72.4,35098],[72.4,35180],[72.4,35266],[72.4,35348],[72.4,35432],[72.4,35514],[72.4,35598],[72.4,35680],[69.1,35848],[68.8,35932],[69.1,36014],[69.8,36098],[70,36180],[70,36264],[70,36348],[70,36432],[70,36514],[70,36598],[70,36680],[70,36764],[70,36846],[70,36930],[70,37014],[70,37098],[70,37180],[70,37264],[70,37348],[70,37432],[70,37514],[70,37598],[70,37680],[70,37764],[70,37848],[70,37932],[70,38014],[70,38098],[70,38180],[70,38264],[70,38348],[70,38430],[70,38514],[70,38598],[70,38682],[70,38764],[70,38848],[70,38932],[70,39014],[70,39098],[70,39180],[70,39266],[70,39348],[70,39430],[70,39516],[70,39598],[70,39680],[70,39764],[70,39848],[70,39930],[70,40014],[70,40098],[70,40182],[69.9,40264],[69.9,40348],[69.9,40430],[69.9,40514],[69.9,40598],[69.9,40680],[69.6,40764],[69.6,40848],[69.3,40930],[69,41014],[68.4,41098],[62.1,41180],[54.2,41264],[53.5,41348],[57.9,41430],[67.9,41514],[72.6,41598],[74.7,41689],[78.2,41771],[79.2,41855],[81.7,41937],[82.8,42021],[85.3,42105],[86,42187],[86,42271],[86,42355],[86,42437],[86,42521],[86,42605],[86,42687],[86,42771],[86,42855],[86,42937],[86,43021],[86,43105],[86,43187],[86,43271],[86,43357],[85.7,43439],[84.5,43521],[84.5,43605],[84.5,43687],[84.1,43771],[84.1,43855],[85.2,43937],[90.3,44021],[90.5,44105],[90.5,44187],[90.5,44271],[90.5,44353],[90.5,44437],[90.5,44521],[90.5,44605],[90.5,44687],[90.5,44771],[90.5,44855],[90.5,44941],[90.5,45021],[90.5,45105],[90.5,45187],[90.5,45271],[90.5,45353],[90.5,45437],[90.5,45521],[90.5,45605],[90.5,45687],[90.5,45771],[90.5,45855],[90.5,45939],[90.5,46021],[90.4,46105],[89.8,46187],[88.6,46271],[87.7,46357],[87.7,46439],[87.5,46520],[87.5,46605],[87.5,46687],[87.5,46770],[87,46855],[86.7,46937],[86.7,47022],[86.7,47105],[86.7,47187],[86.7,47272],[86.7,47355],[87.4,47437],[87.5,47520],[87.5,47605],[87.5,47687],[87.5,47772],[87.5,47855],[87.5,47937],[87.5,48022],[87.5,48105],[87.5,48187],[87.5,48272],[88.9,48355],[89.1,48438],[89.1,48522],[89.2,48605],[89.9,48687],[92.2,48772],[93.5,48854],[94.1,48937],[94.1,49022],[94.1,49105],[94.1,49187],[94.1,49272],[94.1,49355],[94.1,49438],[94.1,49520],[94.1,49605],[94.1,49687],[94.1,49770],[94.1,49855],[94.1,49937],[94.1,50022],[94.1,50105],[94.1,50187],[94.1,50272],[94.1,50355],[94.1,50437],[94.1,50522],[94.1,50605],[94.1,50687],[91.2,50772],[87.5,50855],[87,50938],[86.6,51020],[86.6,51106],[86.6,51187],[86.1,51272],[85.4,51356],[85.2,51437],[85.2,51522],[85.2,51605],[85.2,51687],[85.2,51772],[85.2,51855],[85.2,51937],[85.2,52020],[85.2,52105],[85.2,52187],[85.2,52272],[85.2,52355],[85.2,52440],[85.2,52520],[85.2,52605],[85.2,52687],[85.2,52772],[85.2,52855],[85.2,52938],[85.2,53022],[85.2,53105],[85.2,53187],[85.2,53272],[85.2,53355],[85.2,53437],[85.2,53522],[85.9,53605],[86.8,53687],[87.3,53772],[88.1,53855],[88.4,53938],[88.4,54020],[88.5,54105],[88.5,54187],[88.5,54272],[88.5,54355],[88.5,54437],[88.5,54522],[88.5,54605],[88.5,54687],[88.5,54772],[88.5,54855],[88.5,54937],[88.5,55022],[88.5,55105],[88.5,55188],[88.5,55272],[88.5,55355],[88.5,55438],[88.5,55523],[88.5,55606],[88.5,55687],[88.5,55772],[88.5,55855]]",1,0,503.561,507.145,72.89577823,2.22,"[{""rating"":72.89577823149942,""responseTime"":2.2200000000000273}]",space,3.072,,507.145,Partially,50,507.147,,,[],,0,1,1,1,1,audio/Narrative7Situation1.wav,audio/Narrative8Situation1.wav,audio/Narrative5Situation1.wav,audio/Narrative6Situation1.wav,2,5,5,2,1.351,,,,,,,,,,,,,,,,,,,,,,,,,,,,,,,,,,,,,,
,,,,,,64626c991bcb3a8bbd2880d8,2024-02-08_16h04.53.835,group3.1-3.2-social-tom,2023.2.2,Win32,144.092219,65c5074098b851296ff0b7ed,65c5418192e80e58c4afef12,,,,,,,,,,,,,,,,,,,,,,,,,,,,,507.147,1,audio/Narrative7Situation2.wav,510.147,,510.147,517.61,"[[72.4,343],[72.4,427],[72.3,510],[72.3,593],[72.3,677],[72.3,760],[72.3,844],[72.3,927],[72.3,1010],[72.3,1094],[72.3,1177],[72.3,1261],[72.3,1344],[69.1,1427],[62.4,1510],[58.9,1593],[55.8,1677],[55.6,1760],[54.2,1844],[53,1927],[52,2011],[52,2094],[52,2177],[52,2261],[52,2343],[52,2427],[52.3,2510],[53.2,2594],[53.3,2677],[53.7,2760],[54.3,2846],[61.6,2927],[66.8,3010],[70.3,3096],[70.3,3177],[69.9,3260],[69.9,3344],[69.9,3427],[69.9,3510],[69.9,3594],[69.9,3676],[69.9,3760],[69.9,3844],[69.9,3927],[69.9,4010],[69.9,4094],[69.9,4177],[69.9,4260],[69.9,4343],[69.9,4427],[69.9,4510],[69.9,4593],[69.9,4676],[69.9,4761],[69.9,4843],[69.9,4927],[69.9,5011],[69.9,5094],[69.9,5177],[69.9,5260],[69.9,5343],[69.9,5427],[69.9,5511],[69.9,5593],[69.9,5679],[69.9,5761],[69.9,5844],[69.9,5927],[69.9,6010],[69.9,6094],[69.9,6177],[69.9,6260],[69.9,6344],[69.9,6427],[69.9,6510],[69.9,6594],[69.9,6677],[69.9,6760],[69.9,6844],[69.9,6927],[69.9,7010],[69.9,7094],[69.9,7178],[70.6,7260],[72.4,7344],[75.6,7427]]",1,0,517.61,521.443,79.89041558,2.08,"[{""rating"":79.89041558104407,""responseTime"":2.080000000000041}]",space,3.32,,521.443,Partially,50,521.444,,,[],,0,2,2,2,1,audio/Narrative7Situation2.wav,audio/Narrative8Situation2.wav,audio/Narrative5Situation2.wav,audio/Narrative6Situation2.wav,3,3,3,3,,,,,,,,,,,,,,,,,,,,,,,,,,,,,,,,,,,,,,,
,,,,,,64626c991bcb3a8bbd2880d8,2024-02-08_16h04.53.835,group3.1-3.2-social-tom,2023.2.2,Win32,144.092219,65c5074098b851296ff0b7ed,65c5418192e80e58c4afef12,,,,,,,,,,,,,,,,,,,,,,,,,,,,,521.445,1,audio/Narrative7Situation3.wav,529.451,,529.451,538.686,"[[78.6,1082],[77,1165],[74.7,1249],[74.6,1332],[74.6,1415],[74.6,1499],[74.6,1582],[70.1,1665],[63.7,1749],[63.7,1832],[63.7,1915],[63.7,1999],[59.7,2081],[55.8,2165],[54.6,2249],[54.6,2331],[54.6,2415],[54.6,2499],[54.6,2581],[54.6,2665],[54.6,2750],[54.6,2832],[54.6,2915],[54.6,2999],[54.6,3082],[54.6,3165],[54.6,3250],[54.6,3331],[54.6,3415],[54.6,3499],[54.6,3582],[54.6,3664],[54.6,3749],[54.6,3831],[54.6,3923],[54.6,4005],[54.6,4090],[54.6,4172],[54.6,4256],[54.6,4340],[54.6,4423],[54.6,4505],[54.6,4588],[54.6,4672],[54.6,4758],[54.6,4840],[54.6,4923],[54.6,5006],[54.6,5088],[54.6,5173],[54.6,5258],[54.6,5340],[54.6,5423],[54.7,5505],[55.2,5590],[55.2,5673],[55.2,5755],[55.2,5838],[55.2,5929],[55.2,6013],[55.2,6096],[55.2,6179],[55.2,6263],[55.2,6346],[55.2,6429],[55.2,6514],[55.2,6596],[55.2,6679],[55.2,6763],[55.2,6846],[55.2,6929],[55.2,7013],[55.2,7096],[55.2,7182],[55.2,7264],[55.2,7346],[55.2,7429],[55.2,7513],[55.2,7596],[55.2,7679],[55.2,7763],[55.2,7846],[55.2,7929],[55.2,8013],[55.2,8096],[55.2,8179],[55.2,8263],[55.2,8346],[55.2,8428],[55.2,8513],[55.2,8596],[55.2,8679],[55.2,8763],[55.2,8846],[55.2,8928],[55.2,9013],[55.2,9096],[55.2,9179]]",1,0,538.687,579.486,33.79575545,39.364,"[{""rating"":33.79575544754486,""responseTime"":39.36400000000003}]",space,40.29,,579.486,Partially,50,579.491,,,[],,0,3,3,3,1,audio/Narrative7Situation3.wav,audio/Narrative8Situation3.wav,audio/Narrative5Situation3.wav,audio/Narrative6Situation3.wav,8,4,3,5,,,,,,,,,,,,,,,,,,,,,,,,,,,,,,,,,,,,,,,
,,,,,,64626c991bcb3a8bbd2880d8,2024-02-08_16h04.53.835,group3.1-3.2-social-tom,2023.2.2,Win32,144.092219,65c5074098b851296ff0b7ed,65c5418192e80e58c4afef12,,,,,,,,,,,,,,,,,,,,,,,,,,,,,579.492,1,audio/Narrative7Situation4.wav,582.493,,582.493,594.201,"[[999,0],[999,82],[999,165],[999,250],[999,331],[999,415],[999,498],[999,582],[999,665],[999,750],[999,832],[999,919],[999,1000],[999,1082],[999,1166],[999,1248],[999,1332],[999,1415],[999,1500],[999,1581],[999,1666],[999,1750],[999,1832],[999,1915],[999,2000],[999,2082],[999,2166],[999,2248],[999,2332],[999,2415],[999,2500],[999,2582],[999,2665],[999,2750],[51.8,2832],[34.5,3582],[34.4,3665],[34.4,3748],[30.4,3853],[27.2,3937],[25.1,4020],[24.9,4102],[23.1,4187],[23.1,4269],[23.1,4353],[23.1,4437],[23.1,4520],[23.1,4603],[23.1,4687],[23.1,4769],[23.1,4853],[23.1,4937],[23.1,5020],[23.1,5103],[23.1,5187],[23.1,5270],[23.1,5353],[23.1,5437],[23.1,5519],[23.1,5603],[23.1,5687],[23.1,5770],[23.1,5853],[23.1,5937],[23.1,6019],[23.1,6103],[23.1,6187],[23.1,6270],[23.1,6353],[23.1,6437],[23.1,6519],[23.1,6602],[23.1,6687],[23.1,6769],[23.1,6853],[23.1,6937],[23.1,7020],[23.1,7103],[23.1,7188],[23.1,7270],[23.1,7353],[23.1,7437],[23.1,7519],[23.1,7602],[23.1,7687],[23.1,7770],[23.1,7853],[23.1,7937],[23.1,8019],[23.1,8103],[23.1,8187],[23.1,8270],[23.1,8353],[23.1,8437],[23.1,8520],[23.1,8602],[23.1,8687],[23.1,8769],[23.1,8853],[23.1,8937],[23.1,9019],[23.1,9103],[23.1,9187],[23.1,9270],[23.1,9353],[23.1,9437],[23.1,9520],[23.1,9602],[23.1,9687],[23.1,9770],[23.1,9853],[23.1,9937],[23.1,10020],[23.1,10102],[23.1,10187],[23.1,10269],[23.1,10353],[23.1,10437],[23.1,10521],[23.1,10603],[23.1,10690],[23.1,10770],[23.1,10853],[23.1,10937],[23.1,11020],[23.1,11103],[23.1,11187],[23.1,11269],[23.1,11353],[23.1,11437],[23.1,11519],[23.1,11603],[23.1,11687]]",1,0,594.201,598.777,3.089297483,2.784,"[{""rating"":3.0892974830438567,""responseTime"":2.783999999999992}]",space,4.063,,598.777,Not at all,0,598.78,,,[],,0,4,4,4,1,audio/Narrative7Situation4.wav,audio/Narrative8Situation4.wav,audio/Narrative5Situation4.wav,audio/Narrative6Situation4.wav,3,3,1,2,,,,,,,,,,,,,,,,,,,,,,,,,,,,,,,,,,,,,,,
,,,,,,64626c991bcb3a8bbd2880d8,2024-02-08_16h04.53.835,group3.1-3.2-social-tom,2023.2.2,Win32,144.092219,65c5074098b851296ff0b7ed,65c5418192e80e58c4afef12,,,,,,,,,,,,,,,,,,,,,,,,,,,,,598.781,1,audio/Narrative7Situation5.wav,603.785,,603.785,612.25,"[[999,1],[999,81],[999,167],[999,250],[999,333],[999,416],[999,499],[999,590],[999,677],[999,756],[999,841],[999,923],[999,1007],[999,1089],[999,1174],[999,1256],[999,1340],[999,1426],[999,1507],[999,1589],[999,1673],[999,1756],[999,1840],[999,1923],[999,2006],[999,2090],[999,2174],[999,2257],[999,2339],[999,2423],[999,2507],[999,2590],[999,2673],[999,2757],[999,2840],[999,2924],[999,3007],[999,3090],[999,3173],[999,3257],[999,3340],[999,3424],[999,3507],[999,3589],[999,3673],[999,3756],[999,3841],[999,3923],[999,4006],[999,4090],[999,4173],[999,4257],[999,4340],[999,4423],[999,4506],[999,4590],[999,4673],[999,4756],[999,4840],[999,4923],[999,5006],[999,5090],[999,5173],[999,5256],[999,5340],[999,5423],[999,5506],[999,5590],[999,5673],[999,5757],[999,5839],[999,5924],[999,6007],[999,6089],[999,6174],[999,6256],[999,6340],[999,6423],[999,6506],[999,6590],[999,6674],[999,6757],[999,6843],[999,6923],[999,7007],[999,7089],[999,7173],[999,7256],[999,7340],[999,7424],[999,7507],[999,7590],[999,7673],[999,7756],[999,7839],[999,7923],[999,8006],[999,8090],[999,8174],[999,8257],[999,8340],[999,8423]]",1,0,612.25,1079.653,35.12473654,466.099,"[{""rating"":37.43296686930807,""responseTime"":1.8949999999999818},{""rating"":35.12473654395834,""responseTime"":466.09899999999993}]",space,466.886,,1079.653,Definitely yes,100,1079.657,,,[],,0,5,5,5,1,audio/Narrative7Situation5.wav,audio/Narrative8Situation5.wav,audio/Narrative5Situation5.wav,audio/Narrative6Situation5.wav,5,2,5,2,,,,,,,,,,,,,,,,,,,,,,,,,,,,,,,,,,,,,,,
,,,,,,64626c991bcb3a8bbd2880d8,2024-02-08_16h04.53.835,group3.1-3.2-social-tom,2023.2.2,Win32,144.092219,65c5074098b851296ff0b7ed,65c5418192e80e58c4afef12,,,,,,,,,,,,,,,,,,,,,,,,,,,,,1079.657,1,audio/Narrative7Situation6.wav,1082.659,,1082.659,1092.617,"[[999,2],[999,103],[999,187],[999,270],[999,355],[999,437],[999,520],[999,605],[999,687],[999,770],[999,853],[999,936],[999,1020],[999,1103],[999,1186],[999,1271],[999,1355],[999,1437],[999,1520],[999,1603],[999,1688],[999,1770],[999,1856],[999,1936],[999,2020],[999,2103],[67,2187],[69,2270],[69.1,2353],[69.1,2436],[70,2520],[74.5,2603],[76.5,2686],[76.5,2770],[76.5,2855],[76.5,2937],[76.5,3021],[76.5,3105],[76.5,3187],[76.5,3270],[76.5,3355],[76.5,3436],[76.5,3520],[76.5,3603],[76.5,3686],[76.5,3770],[76.5,3855],[76.5,3937],[76.5,4020],[76.5,4103],[76.5,4187],[76.5,4270],[76.5,4353],[76.5,4436],[76.5,4520],[76.5,4605],[76.5,4686],[76.5,4770],[76.5,4853],[76.5,4937],[76.5,5020],[76.5,5103],[76.5,5187],[76.5,5270],[76.5,5353],[76.5,5437],[76.5,5520],[76.5,5603],[76.5,5687],[76.5,5770],[76.5,5853],[76.5,5937],[76.5,6020],[76.5,6103],[76.5,6187],[76.5,6274],[76.5,6355],[76.5,6437],[76.5,6520],[76.5,6603],[76.5,6687],[76.5,6770],[76.5,6853],[76.5,6936],[76.5,7020],[76.5,7103],[76.5,7187],[76.5,7270],[76.5,7355],[76.5,7437],[76.5,7520],[76.5,7603],[76.5,7686],[76.5,7770],[76.5,7855],[76.5,7937],[76.5,8020],[76.5,8103],[76.5,8187],[76.5,8269],[76.5,8355],[76.5,8436],[76.5,8523],[76.5,8603],[76.5,8687],[76.5,8770],[76.5,8853],[76.5,8937],[76.5,9020],[76.5,9105],[76.5,9187],[76.5,9270],[76.5,9355],[76.5,9436],[76.5,9520],[76.5,9603],[76.5,9693],[76.5,9777],[76.5,9860],[76.5,9944]]",1,0,1092.617,1095.381,84.36698348,1.282,"[{""rating"":84.36698348475262,""responseTime"":1.2820000000001528}]",space,2.251,,1095.381,Partially,50,1095.384,,,[],,0,6,6,6,1,audio/Narrative7Situation6.wav,audio/Narrative8Situation6.wav,audio/Narrative5Situation6.wav,audio/Narrative6Situation6.wav,3,2,3,2,,,,,,,,,,,,,,,,,,,,,,,,,,,,,,,,,,,,,,,
,,,,,,64626c991bcb3a8bbd2880d8,2024-02-08_16h04.53.835,group3.1-3.2-social-tom,2023.2.2,Win32,144.092219,65c5074098b851296ff0b7ed,65c5418192e80e58c4afef12,,,,,,,,,,,,,,,,,,,,,,,,,,,,,1095.385,1,audio/Narrative7Situation7.wav,1100.389,,1100.389,1117.552,[],1,0,1117.552,1120.868,60.93494836,2.153,"[{""rating"":60.93494836377808,""responseTime"":2.1529999999997926}]",space,2.8,,1120.868,Partially,50,1120.87,,,[],,0,7,7,7,1,audio/Narrative7Situation7.wav,audio/Narrative8Situation7.wav,audio/Narrative5Situation7.wav,audio/Narrative6Situation7.wav,5,3,4,5,,,,,,,,,,,,,,,,,,,,,,,,,,,,,,,,,,,,,,,
,,,,,,64626c991bcb3a8bbd2880d8,2024-02-08_16h04.53.835,group3.1-3.2-social-tom,2023.2.2,Win32,144.092219,65c5074098b851296ff0b7ed,65c5418192e80e58c4afef12,,,,,,,,,,,,,,,,,,,,,,,,,,,,,1120.87,1,audio/Narrative7Situation8.wav,1122.875,,1122.875,1132.882,[],1,0,1132.882,1212.723,48.41454751,79.186,"[{""rating"":48.414547508093165,""responseTime"":79.18599999999992}]",space,79.328,,1212.723,Partially,50,1212.726,,,[],,0,8,8,8,1,audio/Narrative7Situation8.wav,audio/Narrative8Situation8.wav,audio/Narrative5Situation8.wav,audio/Narrative6Situation8.wav,2,3,3,5,,,,,,,,,,,,,,,,,,,,,,,,,,,,,,,,,,,,,,,
,,,,,,64626c991bcb3a8bbd2880d8,2024-02-08_16h04.53.835,group3.1-3.2-social-tom,2023.2.2,Win32,144.092219,65c5074098b851296ff0b7ed,65c5418192e80e58c4afef12,,,,,,,,,,,,,,,,,,,,,,,,,,,,,1212.727,1,audio/Narrative7Situation9.wav,1214.73,,1214.73,1223.349,"[[60,4340],[65.3,4423],[67.9,4508],[69.3,4589],[73.3,4681],[76.5,4763],[77.5,4847],[77.5,4931],[77.5,5013],[77.5,5096],[77.5,5181],[77.5,5263],[77.5,5346],[77.5,5431],[77.5,5513],[77.5,5596],[77.5,5681],[77.5,5768],[77.5,5847],[77.5,5931],[77.5,6013],[77.5,6097],[77.5,6181],[77.5,6263],[77.5,6346],[77.5,6431],[77.5,6513],[77.5,6597],[77.5,6681],[77.5,6765],[77.5,6849],[77.5,6931],[77.5,7017],[77.5,7097],[77.5,7181],[77.5,7265],[77.5,7346],[77.5,7431],[77.5,7513],[77.5,7596],[77.5,7681],[77.5,7763],[77.5,7847],[77.5,7931],[77.5,8013],[77.5,8099],[77.5,8181],[77.5,8265],[77.5,8346],[77.5,8432],[77.5,8515],[77.5,8597]]",1,0,1223.349,1225.64,87.16483842,1.594,"[{""rating"":87.1648384245705,""responseTime"":1.594000000000051}]",space,1.78,,1225.641,Definitely yes,100,1225.644,,,[],,0,9,9,9,1,audio/Narrative7Situation9.wav,audio/Narrative8Situation9.wav,audio/Narrative5Situation9.wav,audio/Narrative6Situation9.wav,2,3,3,4,,,,,,,,,,,,,,,,,,,,,,,,,,,,,,,,,,,,,,,
,,,,,,64626c991bcb3a8bbd2880d8,2024-02-08_16h04.53.835,group3.1-3.2-social-tom,2023.2.2,Win32,144.092219,65c5074098b851296ff0b7ed,65c5418192e80e58c4afef12,,,,,,,,,,,,,,,,,,,,,,,,,,,,,1225.644,1,audio/Narrative8Situation1.wav,1230.647,,1230.647,1246.558,"[[86.3,917],[82.7,1000],[81.4,1083],[81.4,1167],[81.4,1250],[81.4,1333],[81.4,1417],[81.4,1500],[81.4,1583],[81.4,1667],[81.4,1753],[81.4,1834],[81.4,1917],[80,2000],[77.4,2083],[72.6,2167],[68.2,2250],[64,2333],[60.2,2417],[56.5,2500],[51.3,2584],[46.2,2667],[44,2750],[44,2834],[44,2917],[44,3000],[44,3084],[44,3167],[44,3250],[44,3333],[44,3417],[44,3500],[44,3583],[44,3667],[44,3750],[44,3833],[44,3917],[44,4000],[44,4084],[44,4167],[44,4250],[44,4334],[44,4417],[44,4500],[44,4583],[44,4667],[44,4760],[44,4840],[44,4923],[44,5007],[44,5091],[44,5173],[44,5257],[44,5341],[44,5423],[44,5507],[44,5591],[44,5673],[44,5757],[44,5841],[44,5923],[44,6007],[44,6091],[44,6173],[44,6258],[44,6341],[44,6423],[44,6507],[44,6591],[44,6673],[44,6757],[44,6840],[44,6923],[44,7007],[44,7090],[44,7173],[44,7257],[44,7340],[44,7423],[44,7507],[44,7590],[44,7673],[44,7757],[44,7841],[44,7923],[44,8007],[44,8090],[44,8173],[44,8257],[44,8340],[44,8423],[44,8507],[44,8590],[44,8673],[44,8757],[44,8841],[44,8923],[44,9007],[44,9091],[44,9173],[44,9257],[44,9341],[44,9423],[44,9507],[44,9591],[44,9673],[44,9757],[44,9841],[44,9923],[44,10008],[44,10091],[44,10173],[44,10257],[44,10340],[44,10423],[44,10507],[44,10591],[44,10673],[44,10758],[44,10840],[44,10923],[44,11007],[44,11091],[44,11173],[44,11258],[44,11341],[44,11423],[44,11508],[44,11591],[44,11673],[44,11757],[44,11840],[44,11923],[44,12007],[44,12091],[44,12173],[44,12257],[44,12343],[44,12425],[44,12507],[44,12591],[44,12673],[44,12757],[44,12841],[44,12923],[44,13007],[44,13091],[44,13173],[44,13258],[44,13340],[44,13423],[44,13507],[44,13590],[44,13673],[44,13757],[44,13841],[44,13923],[44,14008],[44,14093],[44,14173],[44,14257],[44,14341],[44,14423],[44,14507],[44,14591],[44,14673],[44,14757],[44,14840],[44,14923],[44,15008],[44,15091],[44,15173],[44,15258],[44,15341],[44,15423],[44,15508],[44,15591],[44,15673],[44,15757],[44,15840]]",1,0,1246.558,1316.898,59.74586001,69.664,"[{""rating"":59.745860014355486,""responseTime"":69.66399999999999}]",space,69.82,,1316.898,Partially,50,1316.903,,,[],,0,10,10,10,1,audio/Narrative8Situation1.wav,audio/Narrative7Situation1.wav,audio/Narrative6Situation1.wav,audio/Narrative5Situation1.wav,5,2,2,5,,,,,,,,,,,,,,,,,,,,,,,,,,,,,,,,,,,,,,,
,,,,,,64626c991bcb3a8bbd2880d8,2024-02-08_16h04.53.835,group3.1-3.2-social-tom,2023.2.2,Win32,144.092219,65c5074098b851296ff0b7ed,65c5418192e80e58c4afef12,,,,,,,,,,,,,,,,,,,,,,,,,,,,,1316.903,1,audio/Narrative8Situation2.wav,1319.905,,1319.905,1330.01,[],1,0,1330.011,1332.426,4.6281177,1.94,"[{""rating"":4.628117699943673,""responseTime"":1.9400000000000546}]",space,1.896,,1332.427,Not at all,0,1332.429,,,[],,0,11,11,11,1,audio/Narrative8Situation2.wav,audio/Narrative7Situation2.wav,audio/Narrative6Situation2.wav,audio/Narrative5Situation2.wav,3,3,3,3,,,,,,,,,,,,,,,,,,,,,,,,,,,,,,,,,,,,,,,
,,,,,,64626c991bcb3a8bbd2880d8,2024-02-08_16h04.53.835,group3.1-3.2-social-tom,2023.2.2,Win32,144.092219,65c5074098b851296ff0b7ed,65c5418192e80e58c4afef12,,,,,,,,,,,,,,,,,,,,,,,,,,,,,1332.429,1,audio/Narrative8Situation3.wav,1336.434,,1336.434,1358.802,"[[58.4,10040],[55.8,10124],[55.7,10208],[54.9,10290],[54.9,10375],[54.9,10458],[52,10540],[51.2,10624],[51.2,10708],[51.2,10790],[51.2,10874],[51.2,10958],[51.2,11042],[51.2,11124],[51.2,11207],[52.6,11290],[52.9,11374],[53.2,11458],[52.3,11540],[50.4,11625],[49.2,11708],[49.2,11790],[49.2,11875],[49.2,11958],[49.2,12042],[46.9,12125],[42.3,12208],[42.3,12290],[42.3,12374],[43.5,12457],[50,12540],[50,12625],[50.2,12707],[54.4,12790],[54.4,12875],[54.3,12958],[53.8,13040],[52,13124],[50.9,13208],[49.6,13290],[49.6,13375],[49.6,13458],[45.8,13540],[40.9,13625],[40.9,13708],[40.9,13790],[40.9,13875],[40.9,13965],[40.9,14048],[40.9,14131],[40.9,14215],[40.9,14298],[40.9,14382],[40.9,14465],[40.9,14548],[40.9,14631],[40.9,14713],[40.9,14798],[40.9,14881],[40.9,14963],[40.9,15048],[40.9,15131],[40.9,15215],[40.9,15298],[40.9,15381],[40.9,15463],[40.9,15548],[40.9,15632],[40.9,15715],[40.9,15798],[40.9,15881],[40.9,15965],[40.9,16048],[40.9,16131],[40.9,16215],[40.9,16298],[40.9,16381],[43.3,16463],[43.3,16548],[43.3,16632],[43.3,16715],[43.3,16798],[43.6,16882],[43.7,16965],[43.7,17048],[43.7,17132],[43.7,17215],[43.7,17298],[43.7,17382],[43.7,17465],[43.7,17548],[43.7,17631],[43.7,17715],[43.7,17798],[43.7,17881],[43.7,17965],[43.7,18048],[43.7,18132],[43.7,18215],[43.7,18298],[43.7,18382],[43.7,18465],[43.7,18548],[43.7,18631],[43.7,18715],[43.7,18798],[43.7,18882],[43.7,18965],[43.7,19048],[43.7,19131],[43.8,19215],[48.2,19298],[53.3,19382],[55.6,19465],[58.1,19548],[58.4,19632],[58.4,19715],[58.4,19798],[58.4,19882],[58.4,19967],[58.4,20048],[58.4,20132],[58.4,20215],[58.4,20298],[58.4,20381],[58.4,20465],[58.4,20548],[59.7,20631],[59.7,20715],[59.7,20798],[59.7,20882],[59.7,20965],[59.7,21048],[57.4,21131],[56.1,21215],[56.1,21298],[56.1,21382],[56.1,21465],[56.1,21548],[56.1,21632],[56.1,21715],[56.1,21798],[56.1,21882],[56.1,21965],[56.1,22048],[56.1,22131],[56.1,22213],[56.1,22298]]",1,0,1358.802,1360.815,54.98950662,1.788,"[{""rating"":54.98950661666513,""responseTime"":1.788000000000011}]",space,1.495,,1360.816,Definitely yes,100,1360.818,,,[],,0,12,12,12,1,audio/Narrative8Situation3.wav,audio/Narrative7Situation3.wav,audio/Narrative6Situation3.wav,audio/Narrative5Situation3.wav,4,8,5,3,,,,,,,,,,,,,,,,,,,,,,,,,,,,,,,,,,,,,,,
,,,,,,64626c991bcb3a8bbd2880d8,2024-02-08_16h04.53.835,group3.1-3.2-social-tom,2023.2.2,Win32,144.092219,65c5074098b851296ff0b7ed,65c5418192e80e58c4afef12,,,,,,,,,,,,,,,,,,,,,,,,,,,,,1360.818,1,audio/Narrative8Situation4.wav,1363.823,,1363.823,1377.982,"[[50.9,2256],[48.6,2339],[48.6,2423],[49.2,2506],[53.3,2588],[63.7,2673],[64.3,2755],[61.8,2839],[55.1,2923],[54.9,3005],[54.9,3089],[54.9,3173],[54.9,3259],[54.9,3339],[54.9,3423],[54.7,3506],[48.4,3589],[47.2,3673],[45.8,3756],[45.8,3839],[45.8,3923],[45.8,4006],[45.8,4089],[45.8,4173],[45.8,4256],[45.8,4340],[45.8,4423],[45.8,4505],[45.8,4589],[45.8,4673],[45.8,4755],[45.8,4839],[45.8,4923],[45.8,5005],[45.8,5089],[45.8,5173],[45.8,5256],[45.8,5338],[45.8,5423],[45.8,5506],[45.8,5589],[45.8,5673],[45.8,5755],[45.8,5840],[45.8,5923],[45.8,6006],[45.8,6089],[45.8,6173],[45.8,6256],[45.8,6339],[45.8,6423],[45.8,6509],[45.8,6595],[45.8,6673],[45.8,6756],[45.8,6839],[45.8,6923],[45.7,7006],[45.7,7089],[45.7,7173],[45.7,7255],[45.7,7339],[45.7,7423],[45.7,7506],[45.7,7589],[45.7,7673],[45.7,7756],[45.7,7841],[45.7,7923],[45.7,8005],[45.7,8089],[45.7,8173],[45.7,8255],[45.7,8339],[45.7,8423],[45.7,8506],[45.7,8589],[45.7,8673],[45.7,8756],[45.7,8839],[45.7,8923],[45.7,9006],[45.7,9089],[45.7,9173],[45.7,9255],[45.7,9339],[45.7,9423],[45.7,9506],[45.7,9589],[45.7,9673],[45.7,9756],[45.7,9839],[45.7,9923],[45.7,10006],[45.7,10089],[45.7,10174],[45.7,10255],[45.7,10339],[45.7,10423],[45.7,10512],[45.7,10596],[45.7,10680],[45.7,10763],[45.7,10846],[45.7,10929],[45.7,11013],[45.7,11096],[45.7,11179],[45.7,11263],[45.7,11346],[45.7,11430],[45.7,11512],[45.7,11596],[45.7,11682],[45.7,11765],[45.7,11846],[45.7,11929],[45.7,12013],[45.7,12096],[45.7,12180],[45.7,12263],[45.7,12346],[45.7,12429],[45.7,12513],[45.7,12596],[45.7,12680],[45.7,12762],[45.7,12846],[45.7,12929],[45.7,13013],[45.7,13096],[45.7,13179],[45.7,13262],[45.7,13346],[45.7,13429],[45.7,13513],[45.7,13596],[45.7,13679],[45.7,13762],[45.7,13846],[45.7,13929],[45.7,14015],[45.7,14096]]",1,0,1377.983,1389.332,73.03567098,10.664,"[{""rating"":73.0356709784903,""responseTime"":10.663999999999987}]",space,10.831,,1389.332,Definitely yes,100,1389.334,,,[],,0,13,13,13,1,audio/Narrative8Situation4.wav,audio/Narrative7Situation4.wav,audio/Narrative6Situation4.wav,audio/Narrative5Situation4.wav,3,3,2,1,,,,,,,,,,,,,,,,,,,,,,,,,,,,,,,,,,,,,,,
,,,,,,64626c991bcb3a8bbd2880d8,2024-02-08_16h04.53.835,group3.1-3.2-social-tom,2023.2.2,Win32,144.092219,65c5074098b851296ff0b7ed,65c5418192e80e58c4afef12,,,,,,,,,,,,,,,,,,,,,,,,,,,,,1389.335,1,audio/Narrative8Situation5.wav,1391.338,,1391.338,1399.573,"[[999,0],[999,82],[999,165],[999,249],[999,333],[999,415],[999,499],[999,582],[999,664],[999,749],[999,832],[999,915],[999,999],[999,1083],[999,1164],[999,1249],[999,1332],[999,1415],[999,1499],[999,1582],[999,1670],[999,1749],[999,1833],[999,1915],[999,1999],[999,2082],[999,2164],[999,2249],[999,2333],[999,2415],[999,2499],[999,2582],[999,2664],[999,2749],[999,2832],[999,2915],[999,2998],[999,3082],[999,3164],[999,3249],[999,3333],[999,3414],[999,3499],[999,3583],[999,3665],[999,3749],[999,3834],[999,3914],[999,3999],[999,4082],[999,4165],[999,4249],[999,4332],[999,4414],[999,4499],[999,4582],[999,4665],[999,4749],[999,4832],[999,4914],[999,4998],[999,5082],[999,5165],[999,5249],[999,5332],[999,5415],[999,5499],[999,5583],[999,5665],[999,5749],[999,5832],[999,5915],[999,5999],[999,6082],[999,6165],[999,6249],[999,6333],[999,6415],[999,6499],[999,6582],[999,6664],[999,6749],[999,6832],[999,6915],[999,7000],[999,7083],[999,7168],[999,7249],[999,7332],[999,7415],[999,7499],[999,7582],[999,7665],[999,7749],[999,7833],[999,7915],[999,7999],[999,8082],[999,8165]]",1,0,1399.573,1486.86,64.99183803,86.677,"[{""rating"":55.05945299016059,""responseTime"":86.27700000000004},{""rating"":64.99183802651399,""responseTime"":86.67699999999991}]",space,86.772,,1486.86,Not at all,0,1494.713,0,6.761,"[{""rating"":0,""responseTime"":4.645999999999958},{""rating"":1.5504772661440347,""responseTime"":6.086999999999989},{""rating"":0,""responseTime"":6.760999999999967}]",space,0,14,14,14,1,audio/Narrative8Situation5.wav,audio/Narrative7Situation5.wav,audio/Narrative6Situation5.wav,audio/Narrative5Situation5.wav,2,5,2,5,,,7.339,,,,,,,,,,,,,,,,,,,,,,,,,,,,,,,,,,,,
,,,,,,64626c991bcb3a8bbd2880d8,2024-02-08_16h04.53.835,group3.1-3.2-social-tom,2023.2.2,Win32,144.092219,65c5074098b851296ff0b7ed,65c5418192e80e58c4afef12,,,,,,,,,,,,,,,,,,,,,,,,,,,,,1494.714,1,audio/Narrative8Situation6.wav,1496.714,,1496.714,1503.166,"[[999,0],[999,83],[999,166],[999,249],[999,332],[999,416],[999,500],[999,583],[999,673],[999,756],[999,839],[999,922],[999,1006],[999,1089],[999,1175],[999,1256],[999,1340],[999,1423],[999,1506],[999,1589],[999,1680],[999,1763],[999,1846],[999,1930],[999,2013],[999,2096],[999,2180],[999,2264],[999,2346],[999,2429],[999,2513],[999,2596],[999,2680],[999,2763],[999,2846],[999,2930],[999,3013],[999,3096],[999,3179],[999,3263],[999,3346],[999,3430],[999,3513],[999,3596],[999,3680],[999,3763],[999,3846],[999,3930],[999,4013],[999,4096],[999,4180],[999,4263],[999,4346],[999,4429],[999,4514],[999,4596],[999,4680],[999,4763],[999,4846],[999,4930],[999,5013],[999,5096],[999,5180],[999,5263],[999,5346],[999,5430],[999,5513],[999,5596],[999,5680],[999,5763],[999,5846],[999,5930],[999,6013],[999,6096],[999,6179],[999,6263],[999,6346],[999,6430]]",1,0,1503.166,1506.498,48.20470839,2.295,"[{""rating"":48.20470838760682,""responseTime"":2.2950000000000728}]",space,2.813,,1506.498,Definitely yes,100,1506.502,,,[],,0,15,15,15,1,audio/Narrative8Situation6.wav,audio/Narrative7Situation6.wav,audio/Narrative6Situation6.wav,audio/Narrative5Situation6.wav,2,3,2,3,,,,,,,,,,,,,,,,,,,,,,,,,,,,,,,,,,,,,,,
,,,,,,64626c991bcb3a8bbd2880d8,2024-02-08_16h04.53.835,group3.1-3.2-social-tom,2023.2.2,Win32,144.092219,65c5074098b851296ff0b7ed,65c5418192e80e58c4afef12,,,,,,,,,,,,,,,,,,,,,,,,,,,,,1506.502,1,audio/Narrative8Situation7.wav,1509.509,,1509.509,1521.574,"[[48.1,9933],[44.6,10017],[60.5,11267],[61.6,11350],[61.9,11433],[62.1,11517],[62.1,11600],[62.1,11683],[62.1,11768],[63.9,11849],[64.4,11932],[60.2,12017]]",1,0,1521.575,1524.582,22.46444294,1.505,"[{""rating"":22.46444294128253,""responseTime"":1.5049999999998818}]",space,2.494,,1524.582,Definitely yes,100,1524.584,,,[],,0,16,16,16,1,audio/Narrative8Situation7.wav,audio/Narrative7Situation7.wav,audio/Narrative6Situation7.wav,audio/Narrative5Situation7.wav,3,5,5,4,,,,,,,,,,,,,,,,,,,,,,,,,,,,,,,,,,,,,,,
,,,,,,64626c991bcb3a8bbd2880d8,2024-02-08_16h04.53.835,group3.1-3.2-social-tom,2023.2.2,Win32,144.092219,65c5074098b851296ff0b7ed,65c5418192e80e58c4afef12,,,,,,,,,,,,,,,,,,,,,,,,,,,,,1524.584,1,audio/Narrative8Situation8.wav,1527.588,,1527.588,1540.43,"[[39.3,11335],[44.6,11418],[44.6,11500],[44.6,11584],[44.6,11667],[44.6,11750],[44.6,11841],[44.6,11924],[44.6,12007],[44.6,12091],[44.6,12173],[44.6,12258],[44.6,12341],[44.6,12423],[44.3,12508],[42.5,12591],[41.6,12673],[41.6,12758],[40.6,12842]]",1,0,1540.43,1543.637,28.20004557,2.141,"[{""rating"":19.666588001464675,""responseTime"":1.2870000000000346},{""rating"":28.200045567909136,""responseTime"":2.1410000000000764}]",space,2.687,,1543.637,Definitely yes,100,1543.64,,,[],,0,17,17,17,1,audio/Narrative8Situation8.wav,audio/Narrative7Situation8.wav,audio/Narrative6Situation8.wav,audio/Narrative5Situation8.wav,3,2,5,3,,,,,,,,,,,,,,,,,,,,,,,,,,,,,,,,,,,,,,,
,,,,,,64626c991bcb3a8bbd2880d8,2024-02-08_16h04.53.835,group3.1-3.2-social-tom,2023.2.2,Win32,144.092219,65c5074098b851296ff0b7ed,65c5418192e80e58c4afef12,,,,,,,,,,,,,,,,,,,,,,,,,,,,,1543.64,1,audio/Narrative8Situation9.wav,1546.644,,1546.644,1557.95,"[[34.4,7847],[34.4,7931],[34.4,8015],[34.4,8097],[34.4,8181],[26.9,8263],[26.1,8347],[24.5,8431],[23.9,8515],[23.6,8597],[23.5,8683],[22.4,8763],[22.4,8847],[23.9,8931],[24.4,9015],[25.3,9097],[26.3,9181],[26.2,9265],[24.1,9347],[22.3,9433],[22.3,9513],[22.3,9596],[21.9,9682],[17.9,9763],[17.5,9847],[17.5,9931],[17.5,10017],[17.5,10097],[17.5,10181],[17.5,10265],[17.5,10347],[17.5,10431],[17.5,10517],[17.5,10597],[17.5,10682],[17.5,10765],[17.5,10847],[16,10932],[16,11017],[16,11097],[16,11181],[16,11265]]",1,0,1557.95,1559.749,9.454417471,0.734,"[{""rating"":9.454417471129489,""responseTime"":0.7339999999999236}]",space,1.286,,1559.749,Partially,50,1559.751,,,[],,0,18,18,18,1,audio/Narrative8Situation9.wav,audio/Narrative7Situation9.wav,audio/Narrative6Situation9.wav,audio/Narrative5Situation9.wav,3,2,4,3,,,,,,,,,,,,,,,,,,,,,,,,,,,,,,,,,,,,,,,
,,,,,,64626c991bcb3a8bbd2880d8,2024-02-08_16h04.53.835,group3.1-3.2-social-tom,2023.2.2,Win32,144.092219,65c5074098b851296ff0b7ed,65c5418192e80e58c4afef12,,,,,,,,,,,,,,,,,,,,,,,,,,,1619.751,1622.326,1622.335,2,audio/Narrative13Situation2.wav,1622.335,,1622.335,1652.069,"[[999,0],[999,88],[999,172],[999,257],[999,337],[999,421],[999,504],[999,587],[999,672],[999,754],[999,838],[999,921],[999,1004],[999,1088],[999,1172],[999,1254],[999,1337],[999,1422],[999,1504],[999,1588],[999,1671],[999,1754],[999,1837],[999,1922],[999,2009],[999,2088],[999,2171],[999,2254],[999,2337],[30.4,2422],[26.9,2504],[26.9,2587],[26.9,2671],[26.9,2754],[26.9,2837],[27.1,2922],[27.2,3004],[28.8,3087],[32.2,3172],[34.6,3254],[38.4,3337],[43.9,3422],[47.4,3504],[47.9,3587],[50,3671],[51.2,3754],[51.2,3838],[51.2,3922],[50.3,4007],[50.3,4090],[50.3,4173],[49.6,4254],[47.7,4337],[47.7,4422],[48.2,4504],[46.5,4588],[44.9,4672],[43.9,4756],[43.8,4838],[42.8,4922],[42.5,5004],[41.2,5087],[35.7,5172],[28.2,5254],[25.2,5337],[23.8,5422],[21.6,5504],[20.3,5589],[17.6,5672],[17.6,5754],[17.6,5838],[17.6,5922],[17.6,6004],[17.6,6088],[17.6,6172],[17.6,6256],[17.6,6337],[17.6,6421],[17.6,6504],[17.6,6587],[17.6,6672],[17.6,6754],[17.6,6837],[17.6,6922],[17.6,7004],[17.6,7087],[17.6,7172],[17.6,7256],[17.6,7337],[17.6,7422],[17.6,7504],[17.6,7590],[17.6,7671],[17.6,7754],[18.3,7837],[25.2,7922],[37,8004],[77.2,8587],[78.1,8672],[78.6,8754],[78.6,8838],[78.6,8922],[78.6,9011],[78.6,9096],[78.6,9179],[79.9,9261],[82.1,9345],[82.1,9429],[82.1,9511],[83.2,9595],[86,9679],[86.1,9761],[86.2,9846],[86.2,9931],[86.2,10011],[86.2,10096],[86.2,10177],[86.2,10262],[86.2,10345],[86.2,10429],[86.2,10511],[86.2,10596],[86.2,10680],[86.2,10761],[86.2,10845],[86.3,10929],[87.3,11011],[87.3,11095],[87.3,11179],[87.3,11261],[87.3,11346],[87.3,11427],[87.3,11511],[87.3,11595],[87.3,11682],[85,11761],[84.3,11846],[84.3,11929],[84.3,12012],[84.3,12095],[84.3,12179],[84.3,12261],[84.3,12345],[84.3,12429],[84.3,12511],[84.3,12595],[84.3,12677],[84.3,12761],[84.3,12846],[84.3,12929],[84.3,13011],[84.3,13096],[84.3,13179],[84.3,13261],[84.3,13345],[84.3,13429],[84.3,13511],[84.3,13595],[84.3,13679],[84.3,13761],[84.3,13846],[84.3,13929],[84.3,14011],[84.3,14095],[84.3,14179],[84.3,14261],[84.3,14346],[84.3,14429],[84.3,14511],[84.3,14596],[84.3,14679],[84.3,14762],[84.3,14848],[84.3,14929],[84.3,15011],[84.3,15096],[84.3,15179],[84.3,15261],[84.3,15347],[84.3,15429],[84.3,15511],[84.3,15596],[84.3,15679],[84.3,15761],[84.3,15845],[84.3,15929],[84.3,16011],[84.3,16095],[84.3,16179],[84.3,16261],[84.3,16345],[84.3,16429],[84.3,16511],[84.3,16596],[84.3,16679],[84.3,16761],[84.3,16845],[84.3,16929],[84.3,17011],[84.3,17096],[83.3,17179],[82.1,17262],[81.3,17346],[80.5,17429],[80.4,17511],[79.8,17595],[79.7,17679],[79.7,17762],[79.7,17845],[79.7,17929],[79.7,18011],[79.7,18095],[79.7,18179],[79.7,18261],[79.7,18345],[79.7,18429],[79.7,18512],[79.7,18595],[79.7,18679],[79.7,18761],[79.7,18846],[79.7,18929],[79.7,19011],[79.7,19095],[79.7,19179],[79.7,19261],[79.7,19345],[79.7,19429],[79.7,19511],[79.7,19596],[79.7,19677],[79.7,19761],[79.7,19846],[79.7,19929],[79.7,20011],[79.7,20096],[79.7,20179],[79.7,20261],[79.7,20346],[79.7,20429],[79.7,20511],[79.7,20596],[79.7,20679],[79.7,20761],[79.7,20845],[79.7,20929],[79.7,21011],[79.7,21096],[79.7,21179],[79.7,21261],[79.7,21346],[79.7,21432],[79.7,21511],[79.7,21595],[79.7,21679],[79.9,21763],[80.5,21845],[81.8,21929],[80.3,22011],[70.7,22096],[65.2,22179],[64.3,22262],[62.5,22345],[57.1,22429],[55.8,22511],[54.3,22596],[53.7,22679],[53,22761],[47.5,22845],[39.8,22929],[36.5,23011],[36.2,23096],[36.2,23179],[36.1,23261],[34.8,23345],[30.9,23429],[30.2,23514],[30.2,23595],[30.2,23677],[30.2,23762],[30.2,23846],[30.2,23929],[30.2,24011],[30.2,24095],[30.2,24179],[30.2,24261],[30.2,24346],[30.2,24429],[30.2,24512],[30.2,24596],[30.2,24679],[30.2,24761],[30.2,24846],[30.2,24927],[30.2,25012],[30.2,25095],[30.2,25179],[30.2,25261],[30.2,25346],[30.2,25429],[30.2,25511],[30.2,25596],[30.2,25679],[30.2,25762],[30.2,25845],[30.2,25929],[30.2,26011],[30.2,26096],[30.2,26179],[30.2,26262],[30.2,26346],[30.2,26429],[30.2,26511],[30.3,26596],[30.3,26679],[30.3,26761],[30.4,26845],[30.5,26929],[30.6,27011],[30.7,27096],[30.8,27179],[30.9,27261],[30.9,27345],[30.9,27429],[30.9,27511],[30.9,27596],[30.9,27679],[30.9,27761],[31.1,27845],[31.2,27929],[31.2,28019],[31.2,28103],[31.3,28185],[31.6,28269],[31.9,28353],[32.5,28435],[32.5,28519],[32.9,28603],[32.9,28685],[32.9,28769],[32.9,28853],[32.9,28935],[32.9,29019],[32.9,29101],[32.9,29184],[32.9,29269],[32.9,29351],[32.9,29435],[32.9,29519],[32.9,29603],[32.9,29684]]",1,0,1652.07,1652.074,,,[],,,,1652.074,Partially,50,1652.076,,,[],,0,0,0,0,1,audio/Narrative13Situation2.wav,audio/Narrative13Situation2.wav,audio/Narrative13Situation2.wav,audio/Narrative13Situation2.wav,2,2,2,2,,,,,1559.752,1619.75,,,,,,,,,,,,,,,,,,,,,,,,,,,,,,,,,
,,,,,,64626c991bcb3a8bbd2880d8,2024-02-08_16h04.53.835,group3.1-3.2-social-tom,2023.2.2,Win32,144.092219,65c5074098b851296ff0b7ed,65c5418192e80e58c4afef12,,,,,,,,,,,,,,,,,,,,,,,,,,,,,1652.076,2,audio/Narrative5Situation1.wav,1657.076,,1657.076,1670.343,"[[40.9,834],[40.9,916],[41.2,1002],[41.2,1084],[41.2,1166],[41.1,1250],[41.1,1334],[41.1,1417],[41.1,1500],[41.1,1584],[41.1,1667],[41.1,1753],[41.8,1834],[44.9,1916],[48.2,2000],[50.4,2084],[52,2166],[52.6,2250],[52.6,2333],[52.6,2416],[53.7,2501],[53.9,2584],[53.5,2666],[50.3,2750],[44.4,2834],[43.1,2916],[41.6,3000],[38,3084],[36.3,3166],[33.5,3250],[33.3,3334],[33.3,3416],[33.3,3500],[33.3,3584],[33.3,3666],[33.3,3750],[33.3,3834],[33.3,3917],[33.3,4000],[33.3,4084],[33.3,4166],[33.3,4250],[33.3,4334],[33.3,4416],[33.3,4502],[33.3,4584],[33.3,4666],[33.3,4750],[33.3,4834],[33.3,4916],[33.3,5000],[33.3,5084],[33.3,5167],[33.3,5250],[33.3,5334],[33.3,5416],[33.3,5500],[33.3,5584],[33.3,5666],[33.3,5750],[33.3,5834],[33.3,5916],[33.3,6000],[33.3,6084],[33.3,6166],[33.3,6250],[33.3,6340],[33.3,6423],[33.3,6507],[33.3,6590],[33.3,6673],[33.3,6759],[33.3,6840],[33.3,6924],[33.3,7007],[33.3,7090],[33.3,7177],[33.3,7265],[33.3,7346],[33.3,7432],[33.3,7513],[33.3,7597],[33.3,7681],[33.3,7763],[33.3,7847],[33.3,7931],[33.3,8013],[33.3,8097],[33.3,8181],[33.3,8265],[33.3,8347],[33.3,8431],[33.3,8513],[33.3,8597],[33.3,8682],[33.3,8763],[33.3,8847],[33.3,8932],[33.3,9015],[33.3,9097],[33.3,9181],[33.3,9270],[33.3,9355],[33.3,9438],[33.3,9520],[33.3,9604],[33.3,9689],[33.3,9771],[33.3,9855],[33.3,9938],[33.3,10020],[33.3,10105],[33.3,10189],[33.3,10271],[33.3,10355],[33.3,10438],[33.3,10521],[33.3,10604],[33.3,10688],[33.3,10770],[33.3,10855],[33.3,10939],[33.3,11021],[33.3,11105],[33.3,11189],[33.3,11271],[33.3,11355],[33.3,11438],[33.3,11521],[33.3,11604],[33.3,11688],[33.3,11770],[33.3,11855],[33.3,11939],[33.3,12020],[33.3,12105],[33.3,12188],[33.3,12270],[33.3,12355],[33.3,12438],[33.3,12521],[33.3,12606],[33.3,12688],[33.3,12770],[33.3,12855],[33.3,12938],[33.3,13020],[33.3,13105],[33.3,13188]]",1,0,1670.343,1674.153,46.52599542,2.51,"[{""rating"":46.525995423716104,""responseTime"":2.509999999999991}]",space,3.292,,1674.154,Not at all,0,1674.157,,,[],,0,1,1,1,1,audio/Narrative7Situation1.wav,audio/Narrative8Situation1.wav,audio/Narrative5Situation1.wav,audio/Narrative6Situation1.wav,2,5,5,2,,,,,,,,,,,,,,,,,,,,,,,,,,,,,,,,,,,,,,,
,,,,,,64626c991bcb3a8bbd2880d8,2024-02-08_16h04.53.835,group3.1-3.2-social-tom,2023.2.2,Win32,144.092219,65c5074098b851296ff0b7ed,65c5418192e80e58c4afef12,,,,,,,,,,,,,,,,,,,,,,,,,,,,,1674.157,2,audio/Narrative5Situation2.wav,1677.16,,1677.16,1706.613,"[[999,0],[999,82],[999,166],[999,258],[999,340],[999,423],[999,506],[999,589],[999,673],[999,756],[999,839],[999,923],[999,1006],[999,1089],[999,1173],[999,1263],[999,1347],[999,1429],[999,1513],[999,1596],[999,1681],[999,1763],[999,1846],[999,1931],[999,2013],[999,2096],[999,2181],[999,2263],[999,2346],[999,2431],[999,2513],[999,2599],[999,2681],[999,2763],[999,2846],[999,2931],[999,3013],[999,3099],[999,3181],[999,3263],[999,3347],[999,3429],[999,3513],[999,3596],[999,3681],[999,3763],[999,3847],[999,3931],[999,4013],[999,4097],[999,4181],[999,4263],[999,4351],[999,4432],[999,4513],[999,4596],[999,4681],[999,4763],[999,4847],[999,4931],[999,5013],[999,5096],[999,5183],[999,5263],[40.6,5346],[40.6,5431],[40.6,5513],[40.6,5597],[40.6,5681],[40.6,5763],[40.6,5846],[40.6,5931],[40.6,6013],[40.6,6097],[40.6,6179],[40.6,6263],[40.6,6346],[40.6,6429],[40.6,6513],[40.6,6596],[40.6,6681],[40.6,6763],[40.6,6846],[40.6,6931],[40.6,7014],[40.6,7096],[40.6,7181],[40.6,7263],[40.6,7346],[40.6,7429],[40.6,7513],[40.6,7597],[40.6,7681],[40.6,7763],[40.6,7847],[40.6,7931],[40.6,8013],[40.6,8096],[40.6,8182],[40.6,8263],[40.6,8348],[40.6,8429],[40.6,8513],[40.6,8596],[40.6,8681],[40.6,8763],[40.6,8847],[40.6,8931],[40.6,9014],[40.6,9096],[40.6,9188],[40.6,9270],[40.6,9355],[40.6,9437],[40.6,9520],[40.6,9604],[40.6,9687],[40.6,9771],[40.6,9854],[40.6,9936],[40.6,10020],[40.6,10104],[40.6,10186],[40.6,10271],[40.6,10355],[40.6,10437],[40.6,10520],[40.6,10605],[40.6,10687],[40.6,10771],[40.6,10854],[41.7,10936],[45.6,11020],[47.7,11105],[47.7,11189],[47.7,11270],[47.7,11355],[47.7,11437],[47.7,11521],[47.7,11604],[47.2,11687],[43.5,11770],[39.8,13110],[37.4,13201],[36.4,13284],[35.7,13367],[40.5,13451],[46.9,13534],[50.9,13618],[47,13701],[32.3,13784],[32.3,13868],[32.2,13951],[30,14034],[29.7,14117],[29.5,14208],[29.5,14291],[29.5,14375],[29.5,14458],[29.5,14541],[28.2,14625],[27.9,14707],[27.9,14791],[27.9,14875],[27.9,14958],[27.9,15041],[27.9,15125],[27.9,15207],[27.9,15291],[27.4,15375],[26.6,15457],[26.5,15541],[26.5,15625],[26.5,15708],[26.5,15791],[26.5,15875],[26.5,15958],[26.5,16041],[26.5,16125],[26.5,16208],[26.5,16291],[26.5,16375],[26.5,16458],[26.5,16541],[26.5,16625],[26.5,16707],[26.5,16791],[26.5,16875],[26.5,16958],[27.7,17042],[30.7,17125],[30.9,17208],[30.9,17291],[30.9,17375],[30.9,17458],[30.9,17541],[30.9,17625],[30.9,17707],[30.9,17791],[30.9,17875],[30.9,17957],[30.9,18041],[30.9,18125],[30.9,18207],[30.9,18292],[30.9,18375],[30.9,18460],[30.9,18541],[30.9,18625],[30.9,18708],[30.9,18792],[30.9,18875],[30.9,18958],[30.9,19041],[30.9,19125],[30.9,19215],[30.9,19298],[30.9,19383],[30.9,19464],[30.9,19548],[30.9,19631],[30.9,19714],[30.9,19798],[30.9,19881],[30.9,19965],[30.9,20048],[30.9,20133],[30.9,20214],[30.9,20298],[30.9,20381],[30.9,20465],[30.9,20548],[30.9,20634],[30.9,20715],[30.9,20798],[30.9,20881],[30.9,20964],[30.9,21048],[30.9,21131],[30.9,21215],[30.9,21298],[30.9,21381],[30.9,21465],[30.9,21548],[30.9,21633],[31.1,21715],[31.2,21798],[31.2,21883],[31.2,21965],[31.2,22048],[31.2,22131],[31.2,22214],[31.2,22298],[30.7,22381],[27.5,22465],[26.9,22548],[26.1,22631],[27.9,22715],[30.7,22798],[30.9,22883],[21,22965],[17.2,23048],[17.2,23131],[17.4,23214],[23.6,23298],[26.1,23381],[26.2,23465],[26.2,23548],[26.3,23631],[26.5,23715],[26.8,23798],[26.9,23881],[26.9,23965],[26.9,24048],[26.9,24131],[27.4,24215],[28.3,24299],[28.5,24383],[28.5,24465],[28.5,24548],[28.5,24633],[25.6,24715],[22.2,24799],[21.6,24881],[20.3,24965],[19.4,25050],[19.4,25131],[19.4,25214],[19.4,25298],[19.1,25383],[19.1,25465],[19.1,25548],[19.1,25633],[19.1,25714],[19.1,25799],[19.1,25881],[19.1,25965],[19.1,26048],[19.1,26131],[19.1,26214],[19.1,26298],[19.1,26383],[19.1,26464],[19.1,26548],[19.1,26633],[19.8,26714],[22.3,26798],[22.7,26883],[22.7,26965],[22.7,27048],[23.9,27131],[25.6,27214],[25.7,27298],[25.7,27381],[25.7,27465],[25.7,27548],[25.7,27631],[26.2,27715],[26.7,27798],[26.9,27883],[27.2,27965],[27.4,28048],[27.4,28133],[27.4,28215],[27.4,28298],[27.4,28381],[27.4,28465],[27.4,28548],[27.4,28631],[27.4,28714],[26.3,28799],[25.5,28881],[25.2,28965],[25.1,29048],[25.1,29133],[24.6,29214],[20.7,29299],[18.5,29381]]",1,0,1706.613,1709.515,15.32991284,1.321,"[{""rating"":15.32991284474699,""responseTime"":1.3209999999999127}]",space,2.382,,1709.515,Not at all,0,1709.517,,,[],,0,2,2,2,1,audio/Narrative7Situation2.wav,audio/Narrative8Situation2.wav,audio/Narrative5Situation2.wav,audio/Narrative6Situation2.wav,3,3,3,3,,,,,,,,,,,,,,,,,,,,,,,,,,,,,,,,,,,,,,,
,,,,,,64626c991bcb3a8bbd2880d8,2024-02-08_16h04.53.835,group3.1-3.2-social-tom,2023.2.2,Win32,144.092219,65c5074098b851296ff0b7ed,65c5418192e80e58c4afef12,,,,,,,,,,,,,,,,,,,,,,,,,,,,,1709.518,2,audio/Narrative5Situation3.wav,1712.522,,1712.522,1726.418,"[[17,1423],[20.8,1507],[21,1590],[21.1,1673],[21.1,1757],[21.1,1840],[21.8,1923],[32.1,2007],[33.1,2090],[33.1,2173],[33.1,2257],[33.1,2340],[33.1,2423],[33.1,2507],[33.1,2590],[33.1,2673],[33.1,2756],[33.1,2840],[33.1,2923],[33.1,3007],[33.1,3090],[33.1,3176],[33.1,3257],[33.1,3340],[33.1,3423],[33.1,3507],[33.1,3590],[33.1,3673],[33.1,3757],[33.1,3841],[33.1,3923],[33.1,4006],[33.1,4090],[33.1,4173],[33.1,4257],[33.1,4340],[33.1,4423],[33.1,4506],[33.1,4590],[33.1,4673],[33.1,4757],[33.1,4840],[33.1,4923],[33.1,5007],[33.1,5090],[33.1,5173],[33.1,5257],[33.1,5340],[33.1,5423],[33.1,5506],[33.1,5591],[33.1,5673],[33.1,5757],[33.1,5840],[33.1,5923],[33.1,6007],[33.1,6090],[33.1,6173],[33.1,6256],[33.1,6340],[33.1,6423],[33.1,6507],[33.1,6590],[33.1,6673],[33.1,6757],[33.1,6840],[33.1,6923],[33.1,7007],[33.1,7090],[33.1,7173],[33.1,7257],[33.1,7340],[33.1,7423],[33.1,7506],[33.1,7590],[33.1,7673],[33.1,7757],[33.1,7841],[33.1,7923],[33.1,8007],[33.1,8090],[33.1,8173],[33.1,8257],[33.1,8341],[33.1,8423],[33.1,8507],[33.1,8590],[33.1,8673],[33.1,8756],[33.1,8840],[33.1,8923],[33.1,9006],[33.1,9090],[33.1,9173],[33.1,9257],[33.1,9340],[33.1,9423],[33.1,9507],[33.1,9591],[33.1,9676],[33.1,9756],[33.1,9840],[33.1,9923],[33.1,10007],[33.1,10090],[33.1,10173],[33.1,10256],[33.1,10340],[33.1,10423],[33.1,10507],[33.1,10591],[33.1,10677],[33.1,10756],[33.1,10841],[33.1,10923],[33.1,11007],[33.1,11090],[33.1,11173],[33.1,11257],[33.1,11340],[33.1,11423],[33.1,11507],[33.1,11590],[33.1,11673],[33.1,11757],[33.1,11840],[33.1,11923],[33.1,12007],[33.1,12091],[33.1,12173],[33.1,12257],[33.1,12341],[33.1,12423],[33.1,12507],[33.1,12591],[33.1,12673],[33.1,12757],[33.1,12840],[33.1,12923],[33.1,13007],[33.1,13090],[33.1,13173],[33.1,13257],[33.1,13340],[33.1,13423],[33.1,13507],[33.1,13590],[33.1,13673],[33.1,13757],[33.1,13841]]",1,0,1726.419,1774.911,59.11634265,47.593,"[{""rating"":59.11634265289648,""responseTime"":47.59299999999985}]",space,47.974,,1774.911,Partially,50,1781.432,49.95336772,4.213,"[{""rating"":49.95336772499299,""responseTime"":4.212999999999965}]",space,0,3,3,3,1,audio/Narrative7Situation3.wav,audio/Narrative8Situation3.wav,audio/Narrative5Situation3.wav,audio/Narrative6Situation3.wav,8,4,3,5,,,6.009,,,,,,,,,,,,,,,,,,,,,,,,,,,,,,,,,,,,
,,,,,,64626c991bcb3a8bbd2880d8,2024-02-08_16h04.53.835,group3.1-3.2-social-tom,2023.2.2,Win32,144.092219,65c5074098b851296ff0b7ed,65c5418192e80e58c4afef12,,,,,,,,,,,,,,,,,,,,,,,,,,,,,1781.433,2,audio/Narrative5Situation4.wav,1782.433,,1782.433,1802.808,"[[999,0],[999,82],[999,165],[999,249],[999,332],[999,415],[999,500],[999,583],[999,665],[999,749],[999,833],[999,915],[999,1000],[999,1082],[999,1168],[999,1249],[999,1333],[999,1415],[999,1500],[999,1583],[999,1665],[999,1749],[999,1833],[999,1923],[999,2006],[999,2089],[999,2173],[999,2257],[999,2339],[999,2423],[999,2507],[999,2589],[999,2673],[999,2756],[999,2839],[999,2923],[999,3007],[999,3089],[999,3173],[999,3256],[999,3338],[999,3423],[999,3507],[999,3589],[999,3673],[999,3757],[999,3839],[999,3923],[999,4007],[999,4089],[999,4173],[999,4256],[999,4339],[999,4423],[999,4506],[40.6,4589],[40.6,4673],[42.7,4757],[42.7,4838],[41.1,4923],[35.6,5007],[33.6,5089],[33.5,5173],[33.5,5256],[33.5,5339],[33.9,5423],[34.4,5506],[28.6,5589],[21.6,5673],[18.7,5756],[17.5,5839],[16,5923],[16,6006],[16,6089],[16,6173],[16,6257],[16,6339],[16,6423],[16,6507],[16,6589],[16,6673],[16,6756],[16,6839],[16,6923],[16,7006],[16,7089],[16,7173],[16,7257],[16,7339],[16,7423],[16,7506],[16,7589],[16,7673],[16,7757],[16,7839],[16,7923],[16,8007],[16,8088],[16,8173],[16,8256],[16,8339],[16,8423],[16,8507],[16,8589],[16,8673],[16,8757],[16,8839],[16,8923],[16,9006],[16,9089],[16,9173],[16,9257],[16,9339],[16,9423],[16,9509],[16,9589],[16,9673],[16,9757],[16,9839],[16,9923],[16,10007],[16,10089],[16,10173],[16,10256],[16,10339],[16,10423],[16,10506],[16,10589],[16,10673],[16,10756],[16,10838],[16,10923],[16,11006],[16,11089],[16,11173],[16,11256],[16,11339],[16,11423],[16,11507],[16,11588],[16,11673],[16,11756],[16,11843],[16,11923],[16,12007],[16,12088],[16,12173],[16,12256],[16,12338],[16,12423],[16,12506],[16,12589],[16,12673],[16,12756],[16,12839],[16,12923],[16,13007],[16,13089],[16,13173],[16,13257],[16,13339],[16,13423],[16,13506],[16,13589],[16,13673],[16,13756],[16,13839],[16,13923],[16,14007],[16,14089],[16,14173],[16,14257],[16,14339],[16,14424],[16,14507],[16,14589],[16,14673],[16,14756],[16,14838],[16,14923],[16,15007],[16,15089],[16,15173],[16,15257],[16,15339],[16,15423],[16,15506],[16,15589],[16,15673],[16,15756],[16,15839],[16,15923],[16,16006],[16,16089],[16,16173],[16,16257],[16,16339],[16,16423],[16,16507],[16,16589],[16,16674],[17.4,16757],[28.9,16839],[47.4,16923],[55.7,17006],[64.3,17089],[65.1,17173],[70.5,17256],[73.2,17339],[83.7,17423],[84,17507],[84,17589],[84,17673],[84,17757],[84,17839],[84,17930],[84,18014],[84,18096],[84,18180],[84,18264],[84,18346],[84,18430],[84,18514],[84,18596],[84,18681],[84,18764],[84,18846],[84,18937],[84,19019],[84,19104],[84,19187],[84,19270],[84,19353],[84,19437],[84,19519],[84,19604],[84,19687],[84,19770],[84,19854],[84,19937],[84,20020],[84,20104],[84,20187],[84,20270],[84,20354]]",1,0,1802.809,1863.371,95.97808148,59.191,"[{""rating"":98.70599005131915,""responseTime"":58.60799999999995},{""rating"":95.97808148499676,""responseTime"":59.19100000000003}]",space,60.043,,1863.372,Definitely yes,100,1863.377,,,[],,0,4,4,4,1,audio/Narrative7Situation4.wav,audio/Narrative8Situation4.wav,audio/Narrative5Situation4.wav,audio/Narrative6Situation4.wav,3,3,1,2,,,,,,,,,,,,,,,,,,,,,,,,,,,,,,,,,,,,,,,
,,,,,,64626c991bcb3a8bbd2880d8,2024-02-08_16h04.53.835,group3.1-3.2-social-tom,2023.2.2,Win32,144.092219,65c5074098b851296ff0b7ed,65c5418192e80e58c4afef12,,,,,,,,,,,,,,,,,,,,,,,,,,,,,1863.377,2,audio/Narrative5Situation5.wav,1868.378,,1868.378,1883.788,"[[85.7,840],[73.3,923],[65.1,1007],[65.1,1090],[65.1,1173],[64.5,1257],[59.8,1341],[57.3,1423],[55.3,1507],[53.9,1591],[53.2,1673],[53.2,1757],[54.3,1841],[55.7,1923],[56.2,2006],[56.2,2091],[56.2,2173],[56.2,2257],[56.2,2341],[56.2,2423],[56.2,2507],[56.2,2590],[56.2,2673],[56.2,2757],[56.2,2840],[56.2,2923],[56.2,3008],[56.2,3091],[56.2,3173],[56.2,3257],[56.2,3340],[56.2,3423],[56.2,3507],[56.2,3591],[56.2,3673],[56.2,3757],[56.2,3840],[56.2,3923],[56.2,4007],[56.2,4091],[56.2,4173],[56.2,4257],[56.2,4340],[56.2,4423],[56.2,4507],[56.2,4590],[56.2,4673],[56.2,4757],[56.2,4840],[56.2,4923],[56.2,5007],[56.2,5091],[56.2,5173],[56.2,5257],[56.2,5341],[56.2,5423],[56.2,5507],[56.2,5591],[56.2,5673],[56.2,5757],[56.2,5841],[56.2,5923],[56.2,6007],[56.2,6090],[56.2,6173],[56.2,6257],[56.2,6340],[56.2,6423],[56.2,6507],[56.2,6590],[56.2,6673],[56.2,6757],[56.2,6841],[56.2,6923],[56.2,7007],[56.2,7090],[56.2,7173],[55.4,7257],[50.7,7340],[45.8,7423],[45.8,7507],[45.8,7590],[45.8,7673],[44.4,7757],[41.8,7840],[40.6,7923],[40.6,8006],[40.6,8091],[40.6,8173],[39.5,8257],[33.9,8341],[34.2,8423],[34.5,8507],[34.5,8590],[34.5,8673],[34.5,8757],[34.5,8843],[34.5,8923],[34.5,9014],[34.5,9096],[34.5,9181],[34.5,9264],[34.5,9348],[34.5,9430],[34.5,9514],[34.5,9596],[34.5,9681],[34.5,9764],[34.5,9846],[34.5,9932],[34.5,10014],[34.5,10096],[34.5,10181],[36.3,12681],[35.6,12764],[34.9,12846],[36.7,12931],[37.9,13014],[37.9,13096],[37.9,13181],[37.8,13264],[37.7,13348],[37.2,13431],[35.3,13514],[31.2,13596],[30.3,13681],[30.1,13764],[30.1,13848],[30.1,13930],[30.1,14015],[30.1,14096],[29.5,14181],[29.3,14264],[29.3,14346],[29.3,14431],[29.2,14515],[29.2,14596],[29.2,14681],[29.2,14764],[29.2,14846],[29.2,14931],[29.2,15014],[29.3,15096],[29.5,15180],[30.2,15264],[32.4,15348]]",1,0,1883.788,1887.122,21.90487195,1.984,"[{""rating"":21.904871953318956,""responseTime"":1.9839999999999236}]",space,2.82,,1887.122,Definitely yes,100,1887.123,,,[],,0,5,5,5,1,audio/Narrative7Situation5.wav,audio/Narrative8Situation5.wav,audio/Narrative5Situation5.wav,audio/Narrative6Situation5.wav,5,2,5,2,,,,,,,,,,,,,,,,,,,,,,,,,,,,,,,,,,,,,,,
,,,,,,64626c991bcb3a8bbd2880d8,2024-02-08_16h04.53.835,group3.1-3.2-social-tom,2023.2.2,Win32,144.092219,65c5074098b851296ff0b7ed,65c5418192e80e58c4afef12,,,,,,,,,,,,,,,,,,,,,,,,,,,,,1887.124,2,audio/Narrative5Situation6.wav,1890.129,,1890.131,1895.796,"[[24.8,3761],[30.9,3845],[38.6,3927],[39.6,4010],[39.6,4095],[39.6,4177],[39.6,4261],[39.6,4345],[44.6,4427],[49.6,4510],[50.6,4595],[50.6,4677],[50.9,4761],[51.5,4845],[52.6,4927],[53.3,5010],[53.3,5093],[53.3,5177],[53.3,5260],[53.3,5345],[53.3,5426],[53.3,5510],[53.3,5593]]",1,0,1895.796,1899.872,38.1324306,2.781,"[{""rating"":38.13243060426254,""responseTime"":2.780999999999949}]",space,3.557,,1899.872,Not at all,0,1899.878,,,[],,0,6,6,6,1,audio/Narrative7Situation6.wav,audio/Narrative8Situation6.wav,audio/Narrative5Situation6.wav,audio/Narrative6Situation6.wav,3,2,3,2,,,,,,,,,,,,,,,,,,,,,,,,,,,,,,,,,,,,,,,
,,,,,,64626c991bcb3a8bbd2880d8,2024-02-08_16h04.53.835,group3.1-3.2-social-tom,2023.2.2,Win32,144.092219,65c5074098b851296ff0b7ed,65c5418192e80e58c4afef12,,,,,,,,,,,,,,,,,,,,,,,,,,,,,1899.879,2,audio/Narrative5Situation7.wav,1903.886,,1903.886,1924.906,"[[39.8,12354],[51.2,12437],[53.8,12519],[55.9,12604],[61.2,12688],[65.7,12770],[65.7,12854],[65.7,12937],[65.7,13020],[65.7,13104],[65.7,13187],[65.7,13271],[65.7,13354],[65.7,13437],[65.7,13519],[65.7,13604],[65.7,13687],[65.7,13771],[65.7,13854],[65.7,13937],[65.7,14019],[65.7,14104],[65.7,14187],[65.7,14270],[65.7,14354],[65.7,14437],[65.7,14525],[65.7,14604],[65.7,14688],[65.7,14771],[65.7,14854],[65.7,14937],[65.7,15019],[65.7,15104],[65.7,15188],[65.7,15270],[62.7,15353],[59.1,15437],[57.5,15519],[57.5,15603],[57.4,15687],[56.4,15769],[56.4,15854],[56.4,15937],[56.4,16020],[56.4,16103],[56.4,16187],[56.3,16270],[55,16354],[55,16439],[55.8,16521],[56.1,16604],[56.1,16688],[56.1,16770],[56.1,16854],[56.1,16937],[56.1,17020],[56.1,17104],[56.1,17187],[56.1,17269],[56.1,17354],[56.1,17437],[56.1,17519],[56.1,17604],[56.1,17687],[56.1,17769],[55.5,17854],[55,17937],[55,18019],[55,18104],[55,18187],[54.4,18270],[53.9,18354],[53.1,18438],[53,18519],[52.2,18604],[51.5,18687],[51.5,18769],[54.7,18854],[57.7,18938],[58.6,19020],[59.7,19103],[59.9,19187],[59.9,19270],[59.9,19354],[60.2,19437],[60.3,19520],[59.7,19604],[53.7,19687],[52.1,19770],[49.3,19854],[47,19937],[43.2,20020],[42.3,20104],[42.3,20187],[42.3,20270],[42.3,20354],[38,20437],[36.8,20520],[36.8,20604],[36.2,20687],[32.1,20770],[28.3,20854],[28.3,20938],[28.3,21019]]",1,0,1924.906,1926.76,24.84261964,0.872,"[{""rating"":24.84261964012771,""responseTime"":0.8720000000000709}]",space,1.341,,1926.761,Not at all,0,1926.763,,,[],,0,7,7,7,1,audio/Narrative7Situation7.wav,audio/Narrative8Situation7.wav,audio/Narrative5Situation7.wav,audio/Narrative6Situation7.wav,5,3,4,5,,,,,,,,,,,,,,,,,,,,,,,,,,,,,,,,,,,,,,,
,,,,,,64626c991bcb3a8bbd2880d8,2024-02-08_16h04.53.835,group3.1-3.2-social-tom,2023.2.2,Win32,144.092219,65c5074098b851296ff0b7ed,65c5418192e80e58c4afef12,,,,,,,,,,,,,,,,,,,,,,,,,,,,,1926.763,2,audio/Narrative5Situation8.wav,1929.768,,1929.768,1938.574,"[[26.6,2089],[40.6,2173],[43.8,2257],[51.4,2339],[57.7,2423],[59.1,2507],[58.4,2589],[57.4,2673],[56.5,2757],[56.4,2839],[56.4,2923],[56.4,3007],[56.4,3089],[56.4,3173],[57.8,3257],[62.1,3340],[65.1,3423],[65.4,3507],[64.2,3589],[62.1,3673],[60.2,3756],[57.7,3839],[57.3,3923],[57.1,4008],[57.1,4089],[57.1,4173],[58.3,4256],[62.6,4339],[64.9,4423],[64.9,4507],[64.9,4589],[64.9,4673],[64.9,4757],[65,4839],[65,4923],[65,5007],[65,5090],[65,5173],[65,5257],[65.2,5339],[65.4,5423],[65.4,5507],[65.4,5589],[65.4,5673],[65.4,5757],[64.3,5839],[63,5923],[61,6006],[59.7,6090],[57.5,6173],[52.2,6257],[50.2,6339],[49.7,6424],[48.5,6506],[43.2,6589],[37,6673],[27.1,6757],[27.1,6840],[27.1,6923],[27.1,7007],[27.1,7089],[27.1,7176],[27.1,7257],[27.1,7339],[27.1,7423],[27.1,7507],[27.1,7589],[27.1,7673],[25.4,7757],[24.9,7839],[23.7,7923],[21.1,8007],[17.6,8089],[16.7,8173],[16.2,8257],[16,8339],[14.8,8423],[13.4,8506],[13.4,8589],[13.4,8673],[13.4,8757]]",1,0,1938.574,1940.902,6.376777037,1.337,"[{""rating"":13.44136076036993,""responseTime"":0.8669999999999618},{""rating"":6.37677703732985,""responseTime"":1.336999999999989}]",space,1.816,,1940.902,Partially,50,1940.906,,,[],,0,8,8,8,1,audio/Narrative7Situation8.wav,audio/Narrative8Situation8.wav,audio/Narrative5Situation8.wav,audio/Narrative6Situation8.wav,2,3,3,5,,,,,,,,,,,,,,,,,,,,,,,,,,,,,,,,,,,,,,,
,,,,,,64626c991bcb3a8bbd2880d8,2024-02-08_16h04.53.835,group3.1-3.2-social-tom,2023.2.2,Win32,144.092219,65c5074098b851296ff0b7ed,65c5418192e80e58c4afef12,,,,,,,,,,,,,,,,,,,,,,,,,,,,,1940.907,2,audio/Narrative5Situation9.wav,1943.908,,1943.908,1983.432,"[[11.2,6756],[27.4,6840],[32.3,6922],[32.8,7006],[36.5,7089],[42.3,7173],[42.7,7256],[43.3,7339],[52.4,7423],[55.6,7506],[55.1,7589],[52.6,7673],[51.9,7755],[51.9,7839],[51.9,7923],[51.9,8006],[52.6,8089],[52.7,8172],[52.7,8256],[53.3,8341],[53.7,8422],[53.8,8506],[53.8,8589],[53.4,8673],[50.2,8756],[49.7,8839],[49.5,8923],[49.5,9006],[50.2,9090],[50.4,9172],[50.5,9256],[52.6,9340],[54.5,9422],[54.7,9506],[54.7,9589],[55.3,9673],[57.5,9756],[58.7,9839],[59.1,9922],[59.1,10005],[59.1,10089],[59.1,10172],[59.1,10256],[59.1,10339],[59.1,10426],[59.1,10506],[59.1,10589],[59.1,10672],[59.1,10756],[59.1,10840],[59.1,10923],[59.1,11006],[59.1,11089],[59.1,11172],[59.1,11256],[59.1,11339],[58.4,11423],[57.7,11506],[57.7,11590],[57.7,11672],[57.6,11756],[57.5,11840],[57.3,11922],[57.2,12008],[57.2,12089],[56.3,12173],[56.1,12255],[56.1,12339],[56.1,12423],[56.1,12513],[56.1,12596],[56.1,12680],[56.1,12762],[56.4,12847],[57.4,12929],[58.1,13013],[58.1,13099],[58.1,13179],[58.1,13262],[58.1,13346],[58.1,13436],[58.1,13520],[58.1,13603],[58.2,13687],[58.2,13770],[58.2,13853],[58.2,13937],[58.2,14020],[58.2,14103],[58.2,14187],[58.2,14270],[58.2,14353],[58.2,14437],[58.2,14520],[58.2,14603],[58.2,14687],[59.1,14770],[61.2,14853],[61.2,14937],[61.2,15020],[61.2,15103],[61.2,15187],[61.2,15270],[61.2,15353],[61.2,15437],[61.2,15520],[61.2,15603],[61.2,15686],[61.2,15770],[60.3,15853],[60.2,15936],[60.2,16020],[61.4,16103],[62.6,16186],[62.6,16270],[62.6,16353],[62.6,16436],[62.6,16520],[62.6,16603],[62.6,16686],[62.6,16769],[63.3,16853],[63.7,16936],[63.9,17020],[63.9,17103],[62.4,17186],[62.4,17270],[61.9,17353],[61.9,17437],[61.6,17520],[61.6,17603],[61.6,17686],[61.6,17771],[61.6,17854],[61.6,17937],[61.6,18020],[61.6,18103],[61.6,18186],[61.6,18269],[61.6,18354],[61.6,18436],[61.6,18519],[61.6,18604],[61.6,18686],[61.6,18770],[61.6,18853],[61.6,18937],[61.6,19020],[61.6,19104],[61.6,19186],[61.6,19270],[61.6,19353],[61.6,19436],[61.6,19520],[61.6,19603],[61.6,19687],[61.6,19770],[61.6,19853],[61.6,19936],[61.6,20020],[61.6,20103],[61.6,20187],[61.6,20270],[61.6,20353],[61.6,20437],[61.6,20520],[61.6,20603],[61.6,20687],[61.6,20770],[61.6,20853],[61.6,20936],[61.6,21019],[61.6,21103],[61.6,21186],[61.6,21270],[61.6,21353],[61.6,21437],[61.6,21520],[61.6,21604],[61.6,21687],[61.6,21770],[61.6,21853],[61.6,21937],[61.6,22020],[61.6,22103],[61.6,22187],[61.6,22270],[61.6,22353],[61.6,22438],[61.6,22520],[61.6,22603],[61.6,22686],[61.6,22770],[61.6,22853],[61.6,22936],[61.6,23020],[61.6,23103],[61.6,23187],[61.6,23270],[61.6,23353],[61.6,23437],[61.6,23520],[61.6,23603],[62.3,23687],[62.9,23770],[63.1,23854],[63.2,23937],[62.6,24020],[61.8,24103],[61.8,24187],[61.8,24270],[61.8,24354],[61.8,24437],[61.8,24520],[61.8,24603],[61.8,24686],[61.8,24770],[61.8,24853],[61.8,24937],[61.8,25020],[61.8,25103],[61.8,25187],[61.8,25270],[61.8,25353],[62.4,25437],[63,25520],[63.1,25603],[63.1,25686],[63.1,25770],[63.1,25853],[63.1,25936],[63.1,26020],[63,26103],[63,26187],[63,26270],[63,26353],[63,26436],[63,26520],[63,26604],[63,26687],[63,26770],[63,26853],[63,26937],[63,27020],[63,27103],[63,27187],[63,27270],[63.3,27353],[63.5,27436],[63.9,27520],[64.4,27603],[64.5,27687],[64.5,27770],[64.5,27854],[64.5,27936],[64.5,28020],[64.5,28103],[64.5,28187],[64.5,28270],[64.5,28353],[64.5,28438],[64.5,28520],[64.5,28603],[64.5,28686],[64.5,28770],[64.5,28854],[64.5,28936],[64.5,29020],[64.5,29103],[64.5,29187],[63.4,29270],[62.6,29354],[62.5,29437],[62.5,29520],[62.5,29603],[63.7,29687],[63.8,29772],[64.4,29853],[65,29937],[65,30020],[65,30104],[65,30186],[65,30270],[65,30353],[65,30437],[65,30520],[65,30604],[64.7,30687],[64.5,30770],[64,30854],[63.8,30937],[63.7,31020],[63.7,31104],[63.7,31187],[63.7,31270],[63.7,31354],[63.7,31437],[63.5,31520],[63.4,31603],[63.4,31687],[63.4,31770],[63.4,31854],[64,31936],[64.9,32020],[66.7,32104],[67,32187],[67.1,32270],[65.7,32353],[65,32436],[65,32522],[65,32603],[65,32686],[65,32770],[65,32853],[65,32936],[65,33021],[65,33103],[65,33187],[65,33270],[65,33354],[65,33436],[65,33520],[65,33604],[65,33687],[65,33770],[65,33853],[65,33937],[65,34022],[65,34103],[65,34187],[65,34270],[65,34353],[65,34436],[65,34520],[65,34604],[65,34687],[65,34770],[65,34853],[65,34936],[65,35020],[65.1,35104],[65.1,35187],[65.1,35272],[65.1,35353],[65.1,35438],[65.1,35520],[65.1,35603],[65.1,35686],[65.1,35770],[65.1,35854],[65.1,35937],[65.1,36020],[65.1,36103],[65.1,36187],[65.1,36270],[65.1,36354],[65.1,36437],[65.1,36525],[65.1,36605],[65.1,36687],[65.1,36774],[65.1,36854],[65.1,36937],[65.1,37020],[65.1,37104],[65.1,37187],[65.1,37274],[65.1,37354],[65.1,37437],[65.1,37520],[65.1,37604],[65.1,37687],[65.1,37770],[65.1,37854],[65.1,37936],[65.1,38020],[65.1,38103],[65.1,38187],[65.1,38271],[65.1,38354],[65.1,38436],[65.1,38521],[65.1,38604],[65.1,38687],[64.7,38771],[63.6,38855],[63,38936],[62.1,39020],[60.4,39104],[59.2,39187],[58.6,39272],[58.6,39354],[58.6,39437],[58.6,39523]]",1,0,1983.432,1987.692,52.54138354,2.128,"[{""rating"":52.5413835443245,""responseTime"":2.1280000000001564}]",space,3.742,,1987.693,Definitely yes,100,1987.696,,,[],,0,9,9,9,1,audio/Narrative7Situation9.wav,audio/Narrative8Situation9.wav,audio/Narrative5Situation9.wav,audio/Narrative6Situation9.wav,2,3,3,4,,,,,,,,,,,,,,,,,,,,,,,,,,,,,,,,,,,,,,,
,,,,,,64626c991bcb3a8bbd2880d8,2024-02-08_16h04.53.835,group3.1-3.2-social-tom,2023.2.2,Win32,144.092219,65c5074098b851296ff0b7ed,65c5418192e80e58c4afef12,,,,,,,,,,,,,,,,,,,,,,,,,,,,,1987.697,2,audio/Narrative6Situation1.wav,1989.7,,1989.7,2016.269,"[[40.6,3673],[31.4,3755],[25.1,3839],[22.4,3923],[22.3,4005],[22.3,4089],[22.3,4173],[22.3,4257],[22.3,4338],[22.3,4423],[22.3,4505],[22.3,4588],[22.3,4673],[22.3,4755],[22.3,4839],[22.3,4923],[22.3,5005],[22.3,5088],[22.3,5173],[22.3,5255],[22.3,5338],[22.3,5423],[22.3,5505],[22.3,5588],[22.3,5673],[22.3,5755],[22.3,5838],[22.3,5923],[22.3,6007],[22.3,6088],[22.3,6173],[22.3,6255],[22.3,6338],[22.3,6423],[22.3,6505],[22.3,6589],[22.3,6673],[22.3,6757],[22.3,6838],[22.3,6923],[22.3,7005],[22.3,7089],[22.3,7173],[22.3,7255],[22.3,7338],[22.3,7423],[22.3,7505],[22.3,7588],[22.3,7673],[22.3,7757],[22.3,7839],[22.3,7922],[22.3,8007],[22.3,8088],[22.3,8173],[22.3,8255],[22.3,8339],[22.3,8423],[22.3,8505],[22.3,8590],[22.3,8678],[22.3,8762],[22.3,8846],[22.3,8928],[22.3,9013],[22.3,9096],[22.3,9180],[22.3,9263],[22.3,9346],[22.3,9430],[22.3,9513],[22.3,9596],[22.3,9680],[22.3,9762],[22.3,9846],[22.3,9930],[22.3,10014],[22.3,10096],[22.3,10180],[22.3,10262],[22.3,10347],[22.3,10430],[22.3,10512],[22.3,10596],[22.3,10678],[22.3,10762],[22.3,10846],[22.3,10930],[22.3,11012],[22.3,11096],[22.3,11180],[22.3,11262],[22.3,11346],[22.3,11430],[22.3,11514],[22.3,11597],[22.3,11680],[22.3,11762],[22.3,11846],[22.3,11928],[22.3,12013],[22.3,12096],[22.3,12180],[22.3,12262],[22.3,12346],[22.3,12428],[22.3,12512],[22.3,12596],[22.3,12680],[22.3,12763],[22.3,12846],[22.3,12930],[22.3,13012],[22.3,13096],[22.3,13180],[22.3,13262],[22.3,13346],[22.3,13428],[22.3,13512],[22.3,13596],[22.3,13680],[22.3,13762],[22.3,13846],[22.3,13930],[22.3,14012],[22.3,14096],[22.3,14180],[22.3,14262],[22.3,14346],[22.3,14430],[22.3,14512],[22.3,14596],[22.3,14680],[22.3,14763],[22.3,14846],[22.3,14930],[22.3,15012],[22.3,15096],[22.3,15182],[22.3,15262],[22.3,15346],[22.3,15430],[22.3,15512],[22.3,15596],[22.3,15680],[22.3,15762],[22.3,15846],[22.3,15930],[22.3,16012],[22.3,16096],[22.3,16180],[22.3,16262],[22.3,16346],[22.3,16430],[22.3,16514],[22.3,16596],[22.3,16680],[22.3,16762],[22.3,16846],[22.3,16930],[22.3,17013],[22.3,17096],[22.3,17180],[23.4,17262],[23.6,17346],[23.6,17430],[23.6,17513],[24.2,17596],[31.8,17680],[34.4,17762],[34.4,17846],[34.4,17930],[34.4,18013],[34.4,18096],[34.4,18180],[34.4,18263],[34.4,18346],[34.4,18430],[34.4,18513],[34.4,18596],[34.4,18686],[34.4,18769],[34.4,18854],[34.4,18936],[34.4,19021],[34.4,19104],[34.4,19186],[34.4,19269],[33.7,19354],[33.1,19436],[69.8,20103],[72.9,20186],[73.9,20269],[77,20354],[80,20436],[80,20520],[80,20603],[80,20686],[80,20769],[80,20854],[80,20936],[80,21019],[80,21104],[80,21186],[81.2,21270],[84,21353],[85.7,21436],[85.7,21519],[85.7,21604],[85.7,21693],[85.7,21778],[84.2,21860],[80,21943],[79.9,22028],[79.9,22110],[82.5,22193],[84,22277],[84,22359],[84,22443],[84,22527],[84,22610],[84,22693],[84,22778],[84,22859],[84,22943],[84,23027],[84,23109],[86.6,23193],[87.4,23277],[87.5,23360],[87.5,23442],[87.5,23528],[87.5,23610],[87.5,23693],[87.5,23777],[87.5,23859],[87.5,23943],[87.5,24027],[87.5,24109],[87.5,24193],[87.5,24278],[86.3,24360],[85.9,24443],[85.9,24527],[85.9,24610],[85.9,24693],[85.9,24779],[85.9,24859],[85.9,24943],[85.9,25027],[85.9,25110],[85.9,25193],[85.9,25278],[84.5,25360],[83.3,25444],[83.3,25527],[84.5,25610],[86.1,25693],[86.3,25778],[86.3,25859],[86.3,25943],[86.3,26028],[86.3,26110],[86.3,26193],[86.3,26277],[86.3,26360],[84.5,26443],[82.3,26527]]",1,0,2016.269,2018.332,78.70132723,1.135,"[{""rating"":81.70902129192565,""responseTime"":0.31899999999996},{""rating"":78.70132723162149,""responseTime"":1.134999999999991}]",space,1.549,,2018.332,Definitely yes,100,2018.334,,,[],,0,10,10,10,1,audio/Narrative8Situation1.wav,audio/Narrative7Situation1.wav,audio/Narrative6Situation1.wav,audio/Narrative5Situation1.wav,5,2,2,5,,,,,,,,,,,,,,,,,,,,,,,,,,,,,,,,,,,,,,,
,,,,,,64626c991bcb3a8bbd2880d8,2024-02-08_16h04.53.835,group3.1-3.2-social-tom,2023.2.2,Win32,144.092219,65c5074098b851296ff0b7ed,65c5418192e80e58c4afef12,,,,,,,,,,,,,,,,,,,,,,,,,,,,,2018.334,2,audio/Narrative6Situation2.wav,2021.34,,2021.34,2049.825,"[[68.9,2915],[65.1,2998],[64.4,3082],[64.3,3166],[64.3,3248],[64.3,3332],[64.3,3415],[64.3,3498],[62.5,3582],[61.4,3668],[63.4,3748],[73.9,3831],[78.6,3915],[79.7,3998],[79.7,4082],[79.7,4166],[79.7,4248],[79.7,4332],[81.7,4415],[82.5,4498],[82.5,4583],[82.5,4665],[83.5,4748],[86.3,4834],[88,4915],[88.1,4999],[88.1,5082],[88.1,5165],[88.1,5248],[88.1,5332],[88.1,5416],[88.1,5498],[88.1,5581],[88.1,5665],[88.1,5751],[88.1,5832],[88.1,5915],[88.1,5998],[88.1,6081],[88.1,6165],[88.1,6248],[88.1,6332],[88.1,6415],[88.1,6499],[88.1,6581],[88.1,6665],[88.1,6749],[88.1,6832],[88.1,6918],[88.1,6998],[88.1,7082],[88.1,7166],[88.1,7248],[88.1,7332],[88.1,7415],[88.1,7499],[88.1,7582],[88.1,7665],[88.1,7748],[88.1,7832],[88.1,7915],[88.1,7999],[88.1,8082],[88.1,8165],[88.1,8249],[88.1,8332],[88.1,8416],[88.1,8498],[88.1,8582],[88.1,8665],[88.1,8752],[88.1,8832],[88.1,8915],[88.1,8999],[88.1,9080],[88.1,9165],[88.1,9248],[88.1,9332],[88.1,9415],[88.1,9500],[88.1,9582],[88.1,9667],[88.1,9749],[88.1,9833],[88.1,9915],[88.1,9999],[88.1,10082],[88.1,10165],[88.1,10249],[88.1,10332],[88.1,10415],[88.1,10500],[88.1,10581],[88.1,10665],[88.1,10748],[88.1,10831],[88.1,10914],[88.1,10998],[88.1,11081],[88.1,11164],[88.1,11248],[88.1,11331],[88.1,11414],[88.1,11500],[88.1,11581],[88.1,11664],[88.1,11748],[88.1,11831],[88.1,11914],[88.1,11998],[88.1,12081],[88.1,12166],[88.1,12248],[88.1,12331],[88.1,12415],[88.1,12498],[88.1,12581],[88.1,12665],[88.1,12748],[88.1,12831],[88.1,12914],[88.1,12998],[88.1,13083],[88.1,13164],[88.1,13251],[88.1,13331],[88.1,13420],[88.1,13498],[88.1,13581],[88.1,13665],[88.1,13751],[88.1,13831],[88.1,13914],[88.1,13998],[88.1,14083],[88.1,14164],[88.1,14248],[88.1,14331],[88.1,14415],[88.1,14498],[88.1,14585],[88.1,14664],[88.1,14748],[88.1,14833],[88.1,14914],[88.1,15000],[88.1,15081],[88.1,15164],[88.1,15248],[88.1,15331],[88.1,15415],[88.1,15498],[88.1,15581],[88.1,15664],[88.1,15748],[88.1,15831],[88.1,15914],[88.1,16000],[88.1,16081],[88.1,16164],[88.1,16248],[88.1,16331],[88.1,16414],[88.1,16498],[88.1,16581],[88.1,16664],[88.1,16748],[88.1,16831],[88.1,16914],[88.1,17007],[88.1,17088],[88.1,17172],[88.1,17255],[88.1,17338],[88.1,17422],[88.1,17504],[88.1,17587],[88.1,17672],[88.1,17755],[88.1,17838],[88.1,17922],[88.1,18005],[88.1,18088],[88.1,18172],[88.1,18255],[88.1,18338],[88.1,18422],[88.1,18504],[88.1,18587],[88.1,18672],[88.1,18755],[88.1,18838],[88.1,18922],[88.1,19005],[88.1,19088],[88.1,19172],[88.1,19255],[88.1,19338],[88.1,19422],[88.1,19505],[88.1,19588],[88.1,19672],[88.1,19754],[88.1,19838],[88.1,19922],[88.1,20005],[88.1,20088],[88.1,20172],[88.1,20254],[88.1,20338],[88.1,20422],[88.1,20504],[88.1,20588],[88.1,20672],[88.1,20754],[88.1,20838],[88.1,20922],[88.1,21005],[88.1,21088],[88.1,21172],[88.1,21255],[88.1,21338],[88.1,21422],[88.1,21505],[88.1,21588],[88.1,21672],[88.1,21755],[88.1,21838],[88.1,21922],[88.1,22005],[88.1,22088],[88.1,22172],[88.1,22255],[88.1,22338],[88.1,22422],[88.1,22505],[88.1,22588],[88.1,22672],[88.1,22754],[88.1,22838],[88.1,22922],[88.1,23005],[88.1,23088],[88.1,23172],[88.1,23254],[88.1,23338],[88.1,23422],[88.1,23504],[88.1,23588],[88.1,23672],[88.1,23755],[88.1,23838],[88.1,23922],[88.1,24005],[88.1,24088],[88.1,24172],[88.1,24254],[88.1,24338],[88.1,24422],[88.1,24505],[88.1,24588],[88.1,24672],[88.1,24755],[88.1,24838],[88.1,24922],[88.1,25005],[88.1,25088],[88.1,25172],[88.1,25255],[88.1,25338],[88.1,25422],[88.1,25505],[88.1,25589],[88.1,25672],[88.1,25755],[88.1,25838],[88.1,25922],[87.7,26005],[87.3,26088],[87.2,26172],[87,26254],[87,26338],[87,26422],[87,26505],[87,26588],[86.6,26672],[86.1,26755],[85.4,26838],[85.4,26922],[85.4,27011],[85.4,27096],[86.6,27179],[88.5,27262],[88.9,27346],[88.9,27429],[88.9,27512],[86.8,27596],[85.7,27679],[85.7,27762],[85.7,27846],[85.7,27931],[85.6,28012],[84.7,28096],[82.6,28179],[79.2,28262],[79.1,28346],[79.1,28429]]",1,0,2049.826,2052.673,89.05339051,0.921,"[{""rating"":89.05339050894756,""responseTime"":0.9209999999998217}]",space,2.335,,2052.673,Definitely yes,100,2052.675,,,[],,0,11,11,11,1,audio/Narrative8Situation2.wav,audio/Narrative7Situation2.wav,audio/Narrative6Situation2.wav,audio/Narrative5Situation2.wav,3,3,3,3,,,,,,,,,,,,,,,,,,,,,,,,,,,,,,,,,,,,,,,
,,,,,,64626c991bcb3a8bbd2880d8,2024-02-08_16h04.53.835,group3.1-3.2-social-tom,2023.2.2,Win32,144.092219,65c5074098b851296ff0b7ed,65c5418192e80e58c4afef12,,,,,,,,,,,,,,,,,,,,,,,,,,,,,2052.675,2,audio/Narrative6Situation3.wav,2057.68,,2057.68,2070.276,"[[999,0],[999,83],[999,166],[999,249],[999,333],[999,416],[999,499],[999,582],[999,666],[999,749],[999,832],[999,916],[999,999],[999,1082],[999,1166],[999,1249],[999,1332],[999,1416],[999,1500],[999,1582],[999,1667],[999,1749],[999,1833],[47.7,1916],[47.2,2001],[47.2,2083],[49.6,2166],[50.5,2249],[50.5,2332],[50.5,2414],[50.5,2499],[50.5,2583],[50.5,2666],[50.5,2749],[50.5,2833],[50.5,2916],[50.5,3000],[50.5,3083],[50.5,3166],[50.5,3250],[50.5,3332],[50.5,3414],[50.5,3499],[50.5,3583],[50.5,3666],[50.5,3749],[50.5,3832],[50.5,3916],[50.5,4000],[51.2,4082],[52,4166],[52.3,4249],[52.3,4332],[52.3,4416],[52.3,4499],[52.3,4583],[52.3,4666],[52.3,4749],[52.3,4832],[52.3,4916],[52.3,4999],[52.3,5083],[52.3,5166],[52.3,5249],[52.3,5333],[52.3,5416],[52.3,5499],[52.3,5583],[52.3,5666],[52.3,5750],[52.3,5833],[52.3,5916],[52.3,5999],[52.3,6083],[52.3,6166],[52.3,6250],[52.3,6333],[52.3,6416],[52.3,6500],[52.3,6582],[52.3,6666],[52.3,6749],[52.3,6833],[53,6916],[60.9,7000],[71.3,7082],[75.4,7166],[75.4,7249],[77.1,7333],[83.8,7416],[89.5,7499],[91,7582],[91,7666],[91,7749],[91,7833],[91,7916],[91,7999],[91,8083],[91,8166],[91,8249],[91,8333],[91,8416],[91.3,8500],[91.3,8583],[91.3,8673],[91.3,8756],[91.3,8840],[91.3,8923],[91.3,9006],[91.3,9090],[91.3,9173],[91.3,9256],[91.3,9339],[91.9,9423],[91.9,9507],[91.9,9589],[91.9,9673],[91.9,9757],[91.8,9840],[91.7,9923],[91,10007],[90.4,10089],[90.4,10173],[90.4,10256],[90.4,10340],[90.4,10423],[90.4,10506],[90.4,10590],[90.4,10673],[90.4,10757],[90.4,10840],[90.4,10923],[90.4,11007],[90.4,11089],[90.4,11173],[90.4,11256],[90.4,11339],[90.4,11423],[90.4,11506],[90.4,11589],[90.4,11673],[90.4,11757],[90.4,11840],[90.4,11923],[90.4,12006],[90.4,12090],[90.4,12173],[90.4,12256],[90.4,12339],[90.4,12423],[90.4,12507],[90.4,12589]]",1,0,2070.277,2072.437,89.40312238,1.066,"[{""rating"":89.40312237642478,""responseTime"":1.0659999999998035}]",space,1.646,,2072.437,Not at all,0,2072.44,,,[],,0,12,12,12,1,audio/Narrative8Situation3.wav,audio/Narrative7Situation3.wav,audio/Narrative6Situation3.wav,audio/Narrative5Situation3.wav,4,8,5,3,,,,,,,,,,,,,,,,,,,,,,,,,,,,,,,,,,,,,,,
,,,,,,64626c991bcb3a8bbd2880d8,2024-02-08_16h04.53.835,group3.1-3.2-social-tom,2023.2.2,Win32,144.092219,65c5074098b851296ff0b7ed,65c5418192e80e58c4afef12,,,,,,,,,,,,,,,,,,,,,,,,,,,,,2072.441,2,audio/Narrative6Situation4.wav,2074.443,,2074.443,2087.041,"[[86.6,1832],[82.6,1916],[81.2,2000],[76.3,2082],[69.2,2166],[65.2,2250],[59.9,2332],[59.2,2416],[56,2500],[52.6,2583],[52.3,2666],[52.3,2750],[52.3,2833],[52.3,2918],[52.3,3000],[52.3,3083],[52.3,3166],[52.3,3250],[52.3,3332],[52.3,3416],[52.3,3500],[52.3,3582],[52.3,3666],[52.3,3750],[52.3,3833],[52.3,3916],[52.3,4000],[52.3,4082],[52.3,4166],[52.3,4250],[52.3,4333],[52.3,4416],[52.3,4500],[52.3,4583],[52.3,4666],[52.3,4751],[52.3,4833],[52.3,4916],[52.3,5001],[52.3,5083],[52.3,5166],[52.3,5251],[52.3,5332],[52.3,5416],[52.3,5502],[52.3,5582],[52.3,5666],[52.3,5753],[52.3,5833],[52.3,5916],[52.3,6000],[52.3,6083],[52.3,6166],[52.3,6250],[52.3,6333],[52.3,6416],[52.3,6500],[52.3,6582],[52.3,6666],[52.3,6750],[52.3,6832],[52.3,6916],[52.3,7000],[52.3,7082],[52.3,7166],[52.3,7250],[52.3,7333],[52.3,7416],[52.3,7500],[52.3,7583],[52.3,7666],[52.3,7750],[52.3,7833],[58.5,7923],[63.7,8007],[67,8089],[67,8173],[67,8256],[67,8340],[67,8423],[67,8506],[67,8590],[67,8673],[67,8757],[67,8840],[67,8923],[67,9006],[67,9089],[67,9173],[67,9257],[67,9340],[67,9423],[67,9506],[67,9589],[67,9673],[67,9756],[67,9840],[67,9924],[67,10006],[67,10090],[67,10173],[67,10257],[67,10340],[67,10423],[67,10507],[67,10590],[67,10673],[67,10756],[67,10840],[67,10923],[67,11006],[67,11089],[67,11174],[67,11256],[67,11340],[67,11423],[67,11507],[67,11590],[67,11674],[67,11757],[67,11839],[67,11923],[67,12007],[67.1,12090],[67.1,12173],[67,12256],[66.9,12340],[66.7,12423],[65.1,12506],[60.2,12590]]",1,0,2087.041,2089.896,31.20773963,1.741,"[{""rating"":31.20773962821334,""responseTime"":1.7409999999999854}]",space,2.337,,2089.896,Definitely yes,100,2089.902,,,[],,0,13,13,13,1,audio/Narrative8Situation4.wav,audio/Narrative7Situation4.wav,audio/Narrative6Situation4.wav,audio/Narrative5Situation4.wav,3,3,2,1,,,,,,,,,,,,,,,,,,,,,,,,,,,,,,,,,,,,,,,
,,,,,,64626c991bcb3a8bbd2880d8,2024-02-08_16h04.53.835,group3.1-3.2-social-tom,2023.2.2,Win32,144.092219,65c5074098b851296ff0b7ed,65c5418192e80e58c4afef12,,,,,,,,,,,,,,,,,,,,,,,,,,,,,2089.903,2,audio/Narrative6Situation5.wav,2091.909,,2091.909,2099.854,"[[31.9,2165],[38.9,2250],[41.7,2333],[43.3,2416],[47.9,2500],[52,2583],[52.8,2666],[52.9,2753],[52.9,2833],[52.9,2915],[52.9,3000],[55.3,3083],[61.8,3166],[63,3250],[63,3333],[63,3416],[63,3500],[63,3583],[63,3666],[62.4,3750],[61.9,3833],[61.9,3915],[61.9,4000],[61.8,4083],[61.8,4166],[61.8,4250],[61.8,4333],[61.8,4416],[61.8,4500],[61.8,4585],[61.8,4665],[61.8,4750],[61.8,4833],[61.8,4916],[61.8,5000],[61.8,5083],[61.8,5166],[61.8,5250],[61.8,5333],[61.8,5415],[61.8,5500],[61.8,5583],[61.8,5666],[61.8,5750],[61.8,5835],[61.8,5916],[61.8,6000],[61.8,6083],[61.8,6165],[61.8,6250],[61.8,6333],[61.8,6415],[61.8,6500],[61.8,6583],[61.8,6665],[61.8,6750],[61.8,6835],[61.4,6916],[60.7,7000],[60.2,7083],[59.7,7165],[59.1,7250],[58.1,7333],[55.5,7416],[54.7,7507],[54.7,7589],[54.7,7672],[53.7,7757],[50.5,7839],[50.4,7922]]",1,0,2099.854,2102.076,50.37304597,0.969,"[{""rating"":50.373045965965666,""responseTime"":0.9690000000000509}]",space,1.709,,2102.076,Partially,50,2102.079,,,[],,0,14,14,14,1,audio/Narrative8Situation5.wav,audio/Narrative7Situation5.wav,audio/Narrative6Situation5.wav,audio/Narrative5Situation5.wav,2,5,2,5,,,,,,,,,,,,,,,,,,,,,,,,,,,,,,,,,,,,,,,
,,,,,,64626c991bcb3a8bbd2880d8,2024-02-08_16h04.53.835,group3.1-3.2-social-tom,2023.2.2,Win32,144.092219,65c5074098b851296ff0b7ed,65c5418192e80e58c4afef12,,,,,,,,,,,,,,,,,,,,,,,,,,,,,2102.08,2,audio/Narrative6Situation6.wav,2104.082,,2104.083,2115.145,"[[50.8,9585],[48.7,9668],[43.5,9750],[31.9,9834],[30.2,9916],[30.2,10001],[30.2,10084],[30.2,10168],[30.2,10251],[30.2,10334],[30.2,10416],[30.2,10501],[30.2,10584],[30.2,10668],[30.2,10750],[30.2,10834],[30.2,10916],[30.2,11001]]",1,0,2115.145,2117.07,29.1792948,0.956,"[{""rating"":29.17929479684539,""responseTime"":0.9559999999996762}]",space,1.41,,2117.07,Definitely yes,100,2117.072,,,[],,0,15,15,15,1,audio/Narrative8Situation6.wav,audio/Narrative7Situation6.wav,audio/Narrative6Situation6.wav,audio/Narrative5Situation6.wav,2,3,2,3,,,,,,,,,,,,,,,,,,,,,,,,,,,,,,,,,,,,,,,
,,,,,,64626c991bcb3a8bbd2880d8,2024-02-08_16h04.53.835,group3.1-3.2-social-tom,2023.2.2,Win32,144.092219,65c5074098b851296ff0b7ed,65c5418192e80e58c4afef12,,,,,,,,,,,,,,,,,,,,,,,,,,,,,2117.072,2,audio/Narrative6Situation7.wav,2122.076,,2122.076,2146.917,"[[32.3,840],[35.6,923],[35.6,1007],[35.6,1090],[35.6,1172],[35.6,1257],[34.3,1340],[34.2,1427],[37.1,1507],[41.6,1590],[43.2,1673],[43.2,1757],[43.2,1840],[43.8,1922],[46.2,2007],[52.1,2090],[53.7,2173],[53.7,2259],[53.7,2340],[53.7,2423],[53.3,2507],[53,2590],[52.9,2672],[52.9,2757],[52.9,2840],[52.9,2922],[52.9,3007],[52.9,3090],[52.9,3173],[52.9,3260],[52.9,3340],[52.9,3422],[52.9,3507],[52.9,3590],[52.9,3672],[52.9,3757],[52.9,3840],[52.9,3923],[52.9,4007],[52.9,4090],[52.9,4172],[52.9,4257],[52.9,4340],[52.9,4422],[52.9,4507],[52.9,4590],[52.9,4672],[53,4757],[55.3,4840],[56.4,4923],[56.4,5007],[56.4,5090],[56.4,5173],[56.4,5257],[57.1,5340],[57.7,5423],[57.7,5507],[57.7,5590],[57.7,5673],[57.7,5757],[57.7,5840],[57.7,5923],[57.7,6007],[57.7,6090],[57.7,6172],[57.7,6257],[57.7,6340],[57.7,6425],[57.7,6507],[57.7,6592],[57.7,6673],[58,6757],[58.6,6840],[59.5,6923],[60.7,7007],[60.9,7090],[60.9,7172],[60.9,7257],[60.9,7340],[60.9,7422],[60.9,7507],[60.9,7590],[60.9,7673],[60.9,7755],[60.9,7840],[60.9,7922],[60.9,8007],[60.9,8090],[60.9,8172],[60.9,8260],[58.6,8340],[58.4,8423],[58.4,8507],[59.1,8590],[60.9,8673],[62.2,8757],[62.5,8840],[62.9,8925],[63.5,9007],[64.6,9090],[65.7,9173],[66.8,9262],[67.7,9347],[70.3,9431],[71.4,9514],[71.4,9597],[71.4,9679],[71.4,9764],[71.4,9847],[71.4,9931],[71.4,10012],[70.8,10097],[70,10179],[69.7,10262],[69.7,10347],[69.7,10431],[69.7,10514],[69.7,10597],[69.7,10681],[69.7,10764],[69.7,10847],[69.7,10929],[69.7,11016],[69.7,11097],[69.7,11179],[69.7,11262],[69.7,11347],[69.7,11434],[69.7,11514],[69.7,11597],[69.7,11681],[69.7,11764],[69.7,11847],[69.7,11931],[69.7,12014],[69.7,12097],[69.7,12181],[69.7,12264],[69.7,12347],[69.7,12429],[69.7,12514],[69.7,12597],[69.7,12681],[69.7,12764],[69.7,12847],[69.7,12931],[69.7,13014],[69.7,13097],[69.7,13181],[69.7,13266],[69.7,13347],[69.7,13431],[69.7,13514],[69.7,13597],[69.7,13679],[69.7,13764],[69.7,13847],[69.7,13929],[69.7,14014],[69.7,14097],[69.7,14179],[69.7,14264],[69.7,14347],[71.4,14431],[71.8,14514],[71.8,14597],[71.8,14681],[71.8,14762],[71.8,14847],[71.8,14929],[71.8,15014],[71.8,15097],[71.8,15179],[71.8,15266],[71.8,15347],[71.8,15431],[71.8,15514],[71.8,15597],[71.6,15681],[71.2,15764],[71.2,15847],[71.4,15931],[77.7,16014],[79.7,16097],[79.7,16181],[79.7,16264],[79,16347],[77.1,16429],[76.1,16514],[75.4,16597],[75.4,16681],[75.4,16764],[75.4,16847],[75.4,16931],[75.4,17014],[75.4,17097],[75.4,17179],[75.4,17271],[75.4,17353],[75.4,17436],[75.4,17521],[75.4,17603],[75.4,17688],[75.4,17771],[75.4,17855],[75.4,17936],[74.5,18021],[73.7,18103],[73.7,18188],[73.7,18271],[73.6,18353],[73.6,18436],[73.6,18521],[73.6,18605],[73.6,18688],[73.6,18771],[73.6,18853],[73.6,18938],[73.6,19021],[73.6,19103],[73.6,19188],[74,19271],[74.7,19353],[75.4,19438],[76.3,19521],[77.2,19605],[77.6,19688],[77.6,19771],[77.6,19855],[76.5,19938],[75.5,20021],[75.5,20105],[75.5,20186],[75.5,20271],[75.5,20353],[76,20438],[78.6,20521],[78.7,20605],[78.7,20688],[75.8,20771],[74.5,20853],[74.5,20938],[74.5,21021],[74.5,21103],[74.5,21186],[74,21271],[73.2,21355],[72.8,21438],[72.8,21525],[72.8,21603],[72.8,21688],[72.8,21771],[72.8,21853],[72.8,21938],[72.8,22021],[72.8,22105],[72.1,22188],[70.7,22271],[70,22355],[69.6,22438],[69.4,22521],[69.3,22605],[69.3,22688],[69.2,22771],[69,22855],[68.5,22936],[68.4,23023],[68.4,23103],[68.4,23188],[68.4,23271],[64.9,23353],[62.3,23436],[62.3,23521],[62.3,23603],[68.4,23686],[75.8,23771],[80.6,23855],[80.7,23938],[80.7,24021],[80.3,24103],[79.7,24188],[78.8,24271],[78.8,24353],[78.8,24436],[78.8,24521],[78.8,24605],[78.8,24688],[78.9,24771]]",1,0,2146.917,2149.056,80.31009382,0.975,"[{""rating"":80.31009382201675,""responseTime"":0.974999999999909}]",space,1.628,,2149.056,Not at all,0,2149.06,,,[],,0,16,16,16,1,audio/Narrative8Situation7.wav,audio/Narrative7Situation7.wav,audio/Narrative6Situation7.wav,audio/Narrative5Situation7.wav,3,5,5,4,,,,,,,,,,,,,,,,,,,,,,,,,,,,,,,,,,,,,,,
,,,,,,64626c991bcb3a8bbd2880d8,2024-02-08_16h04.53.835,group3.1-3.2-social-tom,2023.2.2,Win32,144.092219,65c5074098b851296ff0b7ed,65c5418192e80e58c4afef12,,,,,,,,,,,,,,,,,,,,,,,,,,,,,2149.061,2,audio/Narrative6Situation8.wav,2154.062,,2154.062,2160.903,[],1,0,2160.903,2164.507,1.760316387,2.664,"[{""rating"":1.7603163866303784,""responseTime"":2.6640000000002146}]",space,3.083,,2164.507,Definitely yes,100,2164.51,,,[],,0,17,17,17,1,audio/Narrative8Situation8.wav,audio/Narrative7Situation8.wav,audio/Narrative6Situation8.wav,audio/Narrative5Situation8.wav,3,2,5,3,,,,,,,,,,,,,,,,,,,,,,,,,,,,,,,,,,,,,,,
,,,,,,64626c991bcb3a8bbd2880d8,2024-02-08_16h04.53.835,group3.1-3.2-social-tom,2023.2.2,Win32,144.092219,65c5074098b851296ff0b7ed,65c5418192e80e58c4afef12,,,,,,,,,,,,,,,,,,,,,,,,,,,,,2164.511,2,audio/Narrative6Situation9.wav,2168.515,,2168.515,2178.453,"[[2.3,3756],[2.6,3838],[2.6,3923],[2.6,4006],[2,4172],[5.3,4256],[12.2,4338],[32.8,4423],[49.6,4506],[50.2,4590],[50.2,4673],[49.5,4756],[48,4840],[48,4922],[49.1,5006],[51.1,5090],[51.1,5172],[51.1,5256],[50.9,5338],[50.6,5423],[50.6,5506],[50.6,5588],[50.6,5673],[50.6,5756],[50.6,5838],[50.6,5923],[50.6,6006],[50.6,6088],[50.6,6173],[50.6,6256],[50.6,6338],[50.6,6423],[50.6,6506],[50.6,6588],[50.6,6673],[50.6,6757],[50.6,6838],[50.6,6923],[50.6,7006],[50.6,7088],[50.6,7173],[50.6,7257],[50.6,7340],[50.6,7423],[50.6,7506],[50.6,7590],[50.6,7673],[50.6,7756],[50.6,7838],[50.6,7923],[50.6,8005],[50.6,8093],[50.6,8173],[50.6,8256],[50.6,8338],[50.6,8423],[50.6,8507],[50.6,8588],[50.6,8673],[50.6,8756],[50.6,8838],[50.6,8923],[50.6,9006],[50.6,9090],[50.6,9172],[50.6,9256],[50.6,9338],[50.6,9423],[50.6,9506],[50.6,9590],[50.6,9672],[50.6,9756],[50.6,9840],[50.6,9923]]",1,0,2178.453,2423.296,4.6281177,243.984,"[{""rating"":2.949404736052963,""responseTime"":3.0299999999997453},{""rating"":4.628117699943673,""responseTime"":243.98399999999992}]",space,244.325,,2423.296,Definitely yes,100,2423.298,,,[],,0,18,18,18,1,audio/Narrative8Situation9.wav,audio/Narrative7Situation9.wav,audio/Narrative6Situation9.wav,audio/Narrative5Situation9.wav,3,2,4,3,,,,,,,,,,,,,,,,,,,,,,,,,,,,,,,,,,,,,,,
,,,,,,64626c991bcb3a8bbd2880d8,2024-02-08_16h04.53.835,group3.1-3.2-social-tom,2023.2.2,Win32,144.092219,65c5074098b851296ff0b7ed,65c5418192e80e58c4afef12,,,,,,,,,,,,,,,,,,,,,,,,,,,,,,,,,,,,,,,,,,,,,,,,,,,,,,,,,,,,,,,,,,,,,,,,2423.298,2425.26,space,1.45,,2425.26,2438.206,space,12.637,,,,,,,,,,,,,,,,,,,,,,,,,,
