exp_question,consent.started,consent.stopped,consentResponse.keys,consentResponse.rt,consentResponse.duration,participantID,date,expName,psychopyVersion,OS,frameRate,STUDY_ID,SESSION_ID,opening1.started,opening1.stopped,keyEndingOpening1.keys,keyEndingOpening1.rt,keyEndingOpening1.duration,volumeAdjust.started,volumeAdjust.stopped,endingAdjust.keys,endingAdjust.rt,endingAdjust.duration,opening2.started,opening2.stopped,keyEndingOpening.keys,keyEndingOpening.rt,keyEndingOpening.duration,mouse.x,mouse.y,mouse.leftButton,mouse.midButton,mouse.rightButton,mouse.time,instructionLoop.thisRepN,instructionLoop.thisTrialN,instructionLoop.thisN,instructionLoop.thisIndex,instructionLoop.ran,readyForAudio.started,readyForAudio.stopped,fixation.started,run,audio_played,fixation.stopped,endPractice.keys,audioPre.started,audioPre.stopped,continuousResponses_audio,continuousSlider.response,continuousSlider.rt,intRating.started,intRating.stopped,intQuestionSlider.response,intQuestionSlider.rt,intQuestionSlider.history,confirmResponse.keys,confirmResponse.rt,confirmResponse.duration,catchQuestion.started,catch_label,catch_value,catchQuestion.stopped,catchQuestionSlider.response,catchQuestionSlider.rt,catchQuestionSlider.history,confirmResponse_2.keys,confirmResponse_2.rt,confirmResponse_2.duration,audioRunLoop.thisRepN,audioRunLoop.thisTrialN,audioRunLoop.thisN,audioRunLoop.thisIndex,audioRunLoop.ran,conditions1_1,conditions2_1,conditions1_2,conditions2_2,dur1_1,dur2_1,dur1_2,dur2_2,endPractice.rt,endPractice.duration,runIntervalBreak.started,runIntervalBreak.stopped,endingBreakKey.keys,endingBreakKey.rt,endingBreakKey.duration,connection.started,connection.stopped,connectionEnding.keys,connectionEnding.rt,connectionEnding.duration,readyForText.started,readyForText.stopped,textPre.started,run_dup,textPre.stopped,continuousResponses_text,textRunLoop.thisRepN,textRunLoop.thisTrialN,textRunLoop.thisN,textRunLoop.thisIndex,textRunLoop.ran,text1_1,text1_2,text2_1,text2_2,runBreakText.started,runBreakText.stopped,endingBreakKey_2.keys,endingBreakKey_2.rt,endingBreakKey_2.duration,ending.started,ending.stopped,endingEnding.keys,endingEnding.rt,endingEnding.duration
social,0,4.23,y,3.911,,64abee38a80dfb5e45212487,2024-05-13_11h56.56.934,group3.1-3.2-social-tom,2023.2.2,Win32,75.07507508,65c5074098b851296ff0b7ed,6642381e9762d29237281727,,,,,,,,,,,,,,,,,,,,,,,,,,,,,,,,,,,,,,,,,,,,,,,,,,,,,,,,,,,,,,,,,,,,,,,,,,,,,,,,,,,,,,,,,,,,,,,,,,,,,,,,,,
,,,,,,64abee38a80dfb5e45212487,2024-05-13_11h56.56.934,group3.1-3.2-social-tom,2023.2.2,Win32,75.07507508,65c5074098b851296ff0b7ed,6642381e9762d29237281727,4.231,9.993,space,5.744,,,,,,,,,,,,,,,,,,,,,,,,,,,,,,,,,,,,,,,,,,,,,,,,,,,,,,,,,,,,,,,,,,,,,,,,,,,,,,,,,,,,,,,,,,,,,,,,,,,,,,
,,,,,,64abee38a80dfb5e45212487,2024-05-13_11h56.56.934,group3.1-3.2-social-tom,2023.2.2,Win32,75.07507508,65c5074098b851296ff0b7ed,6642381e9762d29237281727,,,,,,9.993,27.16,space,16.856,,,,,,,,,,,,,,,,,,,,,,,,,,,,,,,,,,,,,,,,,,,,,,,,,,,,,,,,,,,,,,,,,,,,,,,,,,,,,,,,,,,,,,,,,,,,,,,,,
,,,,,,64abee38a80dfb5e45212487,2024-05-13_11h56.56.934,group3.1-3.2-social-tom,2023.2.2,Win32,75.07507508,65c5074098b851296ff0b7ed,6642381e9762d29237281727,,,,,,,,,,,27.164,34.522,space,7.342,,[],[],[],[],[],[],0,0,0,0,1,,,,,,,,,,,,,,,,,,,,,,,,,,,,,,,,,,,,,,,,,,,,,,,,,,,,,,,,,,,,,,,,,,,,,,,,,,,,,,,,
,,,,,,64abee38a80dfb5e45212487,2024-05-13_11h56.56.934,group3.1-3.2-social-tom,2023.2.2,Win32,75.07507508,65c5074098b851296ff0b7ed,6642381e9762d29237281727,,,,,,,,,,,34.522,46.887,space,12.293,,[],[],[],[],[],[],1,0,1,0,1,,,,,,,,,,,,,,,,,,,,,,,,,,,,,,,,,,,,,,,,,,,,,,,,,,,,,,,,,,,,,,,,,,,,,,,,,,,,,,,,
,,,,,,64abee38a80dfb5e45212487,2024-05-13_11h56.56.934,group3.1-3.2-social-tom,2023.2.2,Win32,75.07507508,65c5074098b851296ff0b7ed,6642381e9762d29237281727,,,,,,,,,,,46.887,74.843,space,27.916,,[],[],[],[],[],[],2,0,2,0,1,,,,,,,,,,,,,,,,,,,,,,,,,,,,,,,,,,,,,,,,,,,,,,,,,,,,,,,,,,,,,,,,,,,,,,,,,,,,,,,,
,,,,,,64abee38a80dfb5e45212487,2024-05-13_11h56.56.934,group3.1-3.2-social-tom,2023.2.2,Win32,75.07507508,65c5074098b851296ff0b7ed,6642381e9762d29237281727,,,,,,,,,,,74.845,93.103,space,18.235,,[],[],[],[],[],[],3,0,3,0,1,,,,,,,,,,,,,,,,,,,,,,,,,,,,,,,,,,,,,,,,,,,,,,,,,,,,,,,,,,,,,,,,,,,,,,,,,,,,,,,,
,,,,,,64abee38a80dfb5e45212487,2024-05-13_11h56.56.934,group3.1-3.2-social-tom,2023.2.2,Win32,75.07507508,65c5074098b851296ff0b7ed,6642381e9762d29237281727,,,,,,,,,,,93.104,105.267,space,12.145,,[],[],[],[],[],[],4,0,4,0,1,,,,,,,,,,,,,,,,,,,,,,,,,,,,,,,,,,,,,,,,,,,,,,,,,,,,,,,,,,,,,,,,,,,,,,,,,,,,,,,,
,,,,,,64abee38a80dfb5e45212487,2024-05-13_11h56.56.934,group3.1-3.2-social-tom,2023.2.2,Win32,75.07507508,65c5074098b851296ff0b7ed,6642381e9762d29237281727,,,,,,,,,,,,,,,,,,,,,,,,,,,105.269,107.842,107.852,1,audio/Narrative13Situation2.wav,109.856,,109.856,139.6,"[[40.4,1040],[43.8,1119],[48.3,1439],[48.2,1520],[47.3,1599],[47.3,1679],[47.3,1760],[47.2,1840],[47.1,1920],[46.8,2000],[46.8,2080],[46.8,2159],[46.8,2239],[46.8,2320],[46.8,2400],[46.8,2480],[46.8,2560],[46.8,2640],[47.5,2720],[48.2,2800],[48.9,2881],[49.2,2959],[49.2,3040],[49.2,3120],[49.2,3200],[49.2,3280],[49.2,3360],[49.2,3440],[49.2,3520],[49.2,3600],[49.2,3680],[49.2,3760],[49.2,3840],[49.2,3920],[49.2,4001],[49.2,4080],[49.2,4160],[49.2,4241],[49.2,4320],[49.2,4400],[49.2,4480],[49.2,4561],[49.2,4641],[49.2,4721],[49,4801],[48.6,4881],[47.9,4961],[47.7,5041],[47.7,5121],[47.7,5201],[47.7,5280],[47.7,5361],[47.7,5441],[47.7,5521],[47.7,5601],[47.7,5681],[47.7,5762],[47.7,5841],[47.2,5921],[46.8,6001],[46.1,6081],[44.9,6161],[43.8,6241],[43.6,6321],[43.6,6401],[43.6,6482],[43.6,6561],[43.6,6641],[45.2,6721],[54.3,6802],[82.1,6882],[92.5,6961],[92.6,7041],[94.7,7122],[97.4,7202],[99.1,7281],[99.2,7363],[99.3,7442],[99.4,7521],[99.4,7601],[99.4,7683],[99.4,7762],[99.4,7841],[99.4,7922],[99.4,8003],[99.4,8083],[99.4,8162],[99.4,8242],[99.4,8322],[99.4,8403],[99.6,8482],[99.6,8563],[99.6,8643],[99.6,8722],[99.8,8803],[99.8,8882],[99.8,8963],[99.8,9043],[99.8,9123],[99.8,9202],[100,9283],[100,9363],[100,9444],[100,9523],[100,9604],[100,9683],[100,9763],[100,9843],[100,9922],[100,10004],[100,10083],[94.1,10162],[64.4,10244],[37.9,10643],[39.9,10724],[50.2,10803],[76.7,10884],[82.1,10964],[86.4,11043],[89,11124],[91.3,11203],[95.6,11284],[96.9,11363],[98.1,11444],[98.6,11524],[99.3,11604],[99.4,11684],[99.5,11763],[99.5,11844],[99.5,11923],[99.6,12004],[97.5,12084],[81.8,12564],[80.2,12643],[82.5,12725],[90.3,12804],[92,12884],[92,12964],[92,13043],[92.4,13125],[95.8,13204],[96.4,13285],[95.3,13364],[93.8,13445],[88,13524],[71.1,13605],[53.9,13684],[43,13763],[42.5,13845],[42.5,13924],[42.5,14004],[47.1,14084],[51.4,14165],[49.3,14885],[49.5,14964],[48.4,15046],[47.9,15125],[48.1,15204],[48.2,15285],[48.4,15366],[48.5,15445],[48.6,15525],[48.6,15606],[48.6,15684],[48.6,15766],[48.6,15845],[48.6,15926],[48.6,16006],[49,16084],[55.6,16166],[64.7,16244],[83.8,16326],[91.5,16405],[91.5,16486],[91.5,16565],[91.7,16646],[98.5,16726],[100,16805],[100,16886],[100,16965],[100,17046],[100,17125],[100,17206],[100,17285],[100,17366],[100,17446],[100,17525],[100,17606],[100,17686],[100,17767],[100,17845],[100,17927],[100,18006],[100,18087],[100,18166],[100,18245],[100,18327],[100,18405],[100,18487],[100,18566],[100,18646],[100,18726],[100,18807],[100,18887],[100,18967],[100,19047],[100,19126],[100,19207],[100,19286],[100,19367],[100,19446],[100,19527],[100,19607],[100,19686],[100,19767],[100,19846],[100,19928],[100,20006],[100,20087],[100,20166],[100,20248],[100,20327],[100,20408],[100,20488],[100,20567],[100,20647],[100,20726],[100,20808],[100,20887],[100,20967],[100,21047],[100,21128],[100,21208],[100,21287],[100,21368],[100,21447],[100,21528],[100,21607],[100,21688],[100,21768],[100,21848],[100,21928],[100,22006],[100,22088],[100,22167],[100,22248],[100,22327],[100,22408],[100,22488],[100,22567],[100,22648],[100,22729],[86.5,22808],[74.2,22887],[73.5,22969],[67.3,23047],[62.8,23129],[61.5,23208],[58.2,23287],[53.3,23368],[52.9,23448],[52.2,23528],[50.1,23608],[50.1,23689],[50.1,23768],[50.1,23849],[50.1,23928],[50.1,24009],[50.1,24089],[50.1,24168],[50.1,24249],[50.1,24328],[50.1,24409],[50.1,24488],[50.1,24569],[50.1,24649],[50.1,24729],[50.1,24809],[50.1,24888],[50.1,24969],[50.1,25048],[50.1,25129],[50.1,25208],[50.1,25289],[47.8,25369],[42.3,25448],[38.5,25529],[36.1,25608],[35.9,25690],[35.9,25769],[35.9,25850],[35.7,25929],[34.3,26010],[32.9,26089],[29.6,26170],[27.6,26250],[26.5,26328],[26.5,26410],[26.5,26489],[26.3,26569],[26.3,26649],[26.3,26730],[26.3,26809],[26.3,26890],[26.3,26970],[26.3,27048],[26.3,27129],[26.3,27209],[26.3,27290],[26.3,27369],[26.3,27451],[26.3,27530],[26.3,27610],[26.3,27690],[26.3,27771],[26.3,27850],[26.3,27929],[26.3,28010],[26.3,28089],[26.3,28171],[26.3,28250],[24.3,28330],[24,28410],[19.7,28489],[18,28570],[16,28649],[15.8,28730],[15.8,28809],[15.8,28891],[15.8,28970],[15.8,29051],[15.8,29130],[15.8,29209],[15.8,29290],[15.8,29370],[15.9,29450],[16,29530],[24.2,29611],[48,29690]]",1,0,139.6,154.072,0,12.221,"[{""rating"":15.937499999999998,""responseTime"":7.957999999999998},{""rating"":0,""responseTime"":12.221000000000004}]",space,13.942,,154.072,Partially,50,161.956,50,5.882,"[{""rating"":50,""responseTime"":5.882000000000005}]",space,7.351,,0,0,0,0,1,audio/Narrative13Situation2.wav,audio/Narrative13Situation2.wav,audio/Narrative13Situation2.wav,audio/Narrative13Situation2.wav,2,2,2,2,,,,,,,,,,,,,,,,,,,,,,,,,,,,,,,,,,,,,
,,,,,,64abee38a80dfb5e45212487,2024-05-13_11h56.56.934,group3.1-3.2-social-tom,2023.2.2,Win32,75.07507508,65c5074098b851296ff0b7ed,6642381e9762d29237281727,,,,,,,,,,,,,,,,,,,,,,,,,,,,,161.956,1,audio/Narrative8Situation1.wav,164.209,space,164.209,180.135,"[[999,1],[999,80],[999,159],[999,240],[999,319],[999,400],[999,480],[999,560],[999,641],[999,719],[999,800],[999,881],[999,961],[999,1040],[999,1120],[999,1200],[999,1280],[999,1360],[999,1441],[999,1521],[999,1599],[999,1680],[999,1760],[999,1841],[999,1921],[999,2001],[999,2081],[999,2161],[999,2241],[999,2320],[53.1,2401],[64.5,2480],[67.1,2561],[67.1,2641],[67.1,2722],[67.2,2801],[74.5,2881],[79.5,2962],[79.5,3040],[79.6,3121],[79.6,3201],[79,3281],[78.3,3361],[78.3,3442],[78.1,3522],[78.1,3600],[77.7,3682],[77.7,3762],[77.8,3841],[80.6,3921],[84.5,4001],[84.7,4081],[84.7,4162],[84.7,4242],[85.1,4320],[85.6,4401],[85.6,4480],[85.6,4562],[85.6,4641],[90.3,4721],[92.1,4802],[94.4,4882],[97.2,4962],[98.4,5042],[99.2,5122],[99.3,5201],[99.4,5282],[100,5361],[100,5442],[100,5522],[100,5603],[100,5682],[100,5763],[100,5842],[100,5921],[100,6002],[100,6082],[100,6162],[100,6242],[99.9,6322],[87.2,6402],[84.8,6483],[77.6,6563],[72.6,6643],[64.9,6723],[64.7,6802],[64.7,6883],[64.9,6962],[68.8,7043],[72.2,7123],[75.3,7201],[75.3,7283],[75.3,7363],[75.3,7443],[75.3,7522],[75.3,7603],[75.3,7682],[75.3,7763],[75.3,7843],[75.3,7923],[75.3,8003],[75.3,8082],[75.3,8163],[75.3,8242],[75.3,8323],[75.3,8403],[75.3,8483],[75.3,8563],[75.3,8643],[75.3,8723],[75.3,8802],[75.3,8883],[75.3,8962],[75.3,9043],[75.3,9123],[75.3,9203],[75.3,9284],[75.3,9364],[75.3,9443],[75.3,9524],[76.3,9604],[76.4,9683],[76.5,9764],[82.8,9843],[89.9,9924],[91.1,10004],[91.1,10082],[92.7,10164],[94.5,10244],[97.7,10324],[99.7,10403],[100,10484],[100,10563],[100,10644],[100,10724],[100,10804],[100,10884],[100,10963],[100,11044],[100,11125],[100,11204],[100,11284],[100,11365],[100,11444],[100,11524],[100,11604],[100,11685],[100,11765],[100,11843],[100,11925],[100,12004],[100,12085],[100,12165],[100,12245],[100,12325],[100,12405],[100,12484],[100,12563],[100,12645],[100,12726],[100,12805],[100,12885],[100,12965],[100,13045],[100,13123],[100,13205],[100,13284],[100,13366],[100,13444],[100,13525],[100,13605],[100,13685],[100,13765],[100,13844],[100,13925],[100,14004],[100,14085],[100,14165],[99.8,14246],[99.7,14325],[99.5,14405],[99.3,14486],[99.3,14564],[99.3,14645],[98.9,14726],[98.5,14805],[98.1,14885],[98,14965],[98,15045],[98,15126],[98,15206],[98,15286],[98.1,15366],[98.3,15445],[98.9,15526],[99.1,15605],[99.2,15685],[99.2,15766],[99.2,15846],[99.2,15926]]",1,0,180.135,192.126,100,9.671,"[{""rating"":100,""responseTime"":9.670999999999992}]",space,11.458,,192.126,Definitely yes,100,192.129,,,[],,,,0,1,1,1,1,audio/Narrative7Situation1.wav,audio/Narrative8Situation1.wav,audio/Narrative5Situation1.wav,audio/Narrative6Situation1.wav,2,5,5,2,2.238,,,,,,,,,,,,,,,,,,,,,,,,,,,,,,,,,,,,
,,,,,,64abee38a80dfb5e45212487,2024-05-13_11h56.56.934,group3.1-3.2-social-tom,2023.2.2,Win32,75.07507508,65c5074098b851296ff0b7ed,6642381e9762d29237281727,,,,,,,,,,,,,,,,,,,,,,,,,,,,,192.129,1,audio/Narrative8Situation2.wav,195.141,,195.141,205.264,"[[999,0],[999,78],[999,159],[999,239],[999,318],[999,399],[999,479],[999,560],[999,638],[999,719],[999,798],[999,879],[50.9,959],[49.5,1039],[49.4,1120],[49.4,1199],[49.4,1278],[49.4,1359],[49.4,1439],[49.4,1519],[49.4,1599],[49.4,1679],[49.4,1759],[49.4,1840],[49.4,1919],[49.4,2000],[49.4,2079],[49.4,2161],[50.1,2239],[50.1,2319],[50.1,2400],[50.1,2480],[50.1,2560],[50.1,2639],[50.1,2719],[50.1,2800],[50.1,2879],[50.1,2960],[50.1,3040],[50.1,3120],[50.1,3200],[46.8,3280],[35.6,3360],[29.5,3441],[18.4,3519],[17.8,3600],[17.8,3680],[17.8,3760],[17.8,3840],[17.8,3920],[17.8,4000],[17.8,4080],[17.8,4161],[17.7,4240],[17.5,4320],[17.5,4400],[17.5,4480],[17.5,4560],[17.5,4640],[17.5,4721],[17.5,4800],[17.5,4881],[17.5,4960],[17.5,5040],[17.5,5121],[17.5,5200],[17.5,5280],[17.5,5361],[17.5,5441],[17.5,5521],[17.5,5600],[17.5,5680],[17.5,5762],[17.5,5841],[17.5,5920],[17.5,6001],[18.4,6081],[20.1,6161],[23.2,6240],[23.6,6322],[23.8,6401],[23.8,6481],[20.4,6561],[18.6,6641],[18,6721],[18,6801],[18,6881],[18,6961],[18,7042],[18,7121],[18,7201],[18,7282],[18,7361],[18,7441],[18,7522],[18,7602],[18,7681],[18,7762],[18,7841],[18,7921],[18,8002],[18,8081],[18,8162],[18,8242],[18,8322],[18,8402],[18,8482],[18,8561],[18,8641],[18,8721],[18,8802],[18,8882],[18,8962],[18,9042],[18,9123],[18,9201],[18,9282],[18,9361],[18,9442],[18,9522],[18,9602],[18,9682],[18,9762],[18,9841],[18,9923],[18,10002],[18,10082]]",1,0,205.264,211.066,0,4.473,"[{""rating"":0,""responseTime"":3.740000000000009},{""rating"":0,""responseTime"":4.472999999999985}]",space,5.278,,211.066,Not at all,0,211.069,,,[],,,,0,2,2,2,1,audio/Narrative7Situation2.wav,audio/Narrative8Situation2.wav,audio/Narrative5Situation2.wav,audio/Narrative6Situation2.wav,3,3,3,3,,,,,,,,,,,,,,,,,,,,,,,,,,,,,,,,,,,,,
,,,,,,64abee38a80dfb5e45212487,2024-05-13_11h56.56.934,group3.1-3.2-social-tom,2023.2.2,Win32,75.07507508,65c5074098b851296ff0b7ed,6642381e9762d29237281727,,,,,,,,,,,,,,,,,,,,,,,,,,,,,211.07,1,audio/Narrative8Situation3.wav,215.081,,215.081,237.464,"[[999,1],[999,79],[999,159],[999,239],[999,319],[999,400],[999,479],[999,560],[999,640],[999,719],[999,799],[999,879],[51.5,960],[51.5,1039],[50.9,1120],[50.9,1200],[50.9,1281],[50.8,1360],[50.8,1439],[50.4,1519],[50.2,1600],[50.1,1680],[50,1760],[50,1840],[50,1920],[50,2001],[50,2080],[50,2161],[50,2240],[50,2320],[50,2400],[50,2480],[50,2560],[50,2640],[50,2721],[50,2800],[50,2881],[50,2960],[50,3040],[50,3121],[50,3200],[50,3281],[50,3360],[50,3441],[50.1,3520],[50.4,3602],[51.1,3681],[52.6,3760],[53.3,3840],[57.1,3921],[61.1,4001],[66.6,4081],[73.6,4161],[73.6,4241],[73.8,4322],[73.8,4401],[73.8,4481],[73.8,4560],[73.8,4640],[73.8,4721],[73.8,4801],[73.8,4881],[63,4961],[50.6,5043],[50.6,5121],[50.1,5201],[49.7,5281],[49.7,5361],[49.7,5441],[49.7,5521],[49.7,5602],[49.7,5682],[49.7,5762],[49.7,5841],[49.7,5921],[49.7,6001],[49.7,6081],[49.7,6162],[49.7,6241],[49.7,6322],[49.7,6401],[49.7,6481],[49.7,6561],[49.7,6641],[49.4,6722],[49.4,6802],[49.4,6882],[49.4,6961],[49.4,7043],[50.4,7122],[51.8,7201],[51.9,7282],[51.6,7363],[50.6,7442],[50.3,7521],[50.3,7602],[50.3,7682],[50.3,7763],[50.3,7842],[50.3,7923],[50.3,8002],[50.3,8082],[50.3,8162],[50.3,8242],[50.3,8322],[50.3,8402],[50.3,8483],[50.3,8562],[50.3,8643],[50.3,8723],[50.2,8802],[50.2,8882],[50.1,8962],[50,9043],[50,9122],[50,9203],[50,9283],[50,9364],[50,9442],[50,9522],[50,9603],[50,9683],[50,9763],[50,9843],[50,9924],[50,10003],[50,10084],[50,10163],[50,10245],[50,10323],[50,10403],[50,10483],[50,10564],[50,10643],[50,10723],[50,10804],[50,10884],[50,10963],[50.1,11044],[50.2,11125],[50.8,11204],[52.2,11284],[57.2,11364],[59.6,11443],[64.2,11525],[66.1,11604],[66.4,11683],[68.3,11763],[70.4,11844],[71.4,11924],[74.3,12004],[81,12084],[81.3,12164],[81.5,12245],[81.9,12323],[82.2,12405],[83.3,12484],[83.3,12564],[83.6,12644],[85.1,12724],[85.2,12805],[85.8,12884],[85.8,12965],[86.8,13044],[87,13123],[87.9,13203],[89,13284],[90.1,13364],[90.1,13444],[90.1,13525],[90.1,13604],[90.1,13685],[90.1,13764],[90.1,13844],[90.2,13925],[90.4,14004],[90.4,14084],[90.4,14164],[90.4,14245],[90.4,14324],[90.4,14405],[90.4,14485],[90.4,14566],[90.4,14644],[90.7,14724],[90.7,14805],[90.9,14885],[91.6,14965],[92.4,15044],[92.4,15125],[92.4,15205],[92.4,15286],[91.5,15365],[90.6,15445],[89.5,15525],[82.6,15605],[80.8,15685],[80.4,15765],[79.6,15846],[78.9,15925],[78.9,16006],[77.6,16085],[77.4,16165],[76.8,16245],[74.7,16326],[74.2,16406],[74.1,16485],[74.1,16566],[74.1,16645],[74.1,16726],[72.2,16805],[70.9,16885],[70.7,16965],[70.7,17045],[70.7,17126],[70.7,17205],[70.7,17286],[70.7,17365],[70.7,17447],[70.7,17525],[70.7,17607],[70.7,17686],[70.7,17766],[70.8,17846],[70.8,17926],[70.9,18007],[70.9,18086],[70.9,18167],[70.9,18246],[71,18327],[71,18406],[71,18486],[71,18566],[71,18646],[71,18727],[71,18806],[71.1,18887],[71.1,18966],[71.3,19046],[71.4,19126],[71.4,19206],[71.5,19287],[71.6,19366],[71.7,19447],[71.7,19527],[71.7,19608],[71.7,19687],[71.7,19766],[71.7,19846],[71.7,19926],[71.7,20007],[71.7,20086],[72.1,20168],[72.3,20247],[72.3,20327],[72.3,20407],[72.3,20488],[72.3,20566],[71.7,20647],[65.6,20727],[59.2,20806],[53.1,20888],[49,20967],[48.3,21048],[48.3,21126],[48.3,21208],[54.1,21287],[56,21367],[56.8,21447],[58,21527],[59.2,21608],[60,21687],[60.2,21768],[60.4,21847],[61,21927],[63.2,22007],[65.1,22087],[65.3,22168],[65.4,22247],[65.4,22327]]",1,0,237.464,243.158,49.89583333,3.66,"[{""rating"":49.895833333333336,""responseTime"":3.659999999999968}]",space,5.163,,243.158,Partially,50,243.162,,,[],,,,0,3,3,3,1,audio/Narrative7Situation3.wav,audio/Narrative8Situation3.wav,audio/Narrative5Situation3.wav,audio/Narrative6Situation3.wav,8,4,3,5,,,,,,,,,,,,,,,,,,,,,,,,,,,,,,,,,,,,,
,,,,,,64abee38a80dfb5e45212487,2024-05-13_11h56.56.934,group3.1-3.2-social-tom,2023.2.2,Win32,75.07507508,65c5074098b851296ff0b7ed,6642381e9762d29237281727,,,,,,,,,,,,,,,,,,,,,,,,,,,,,243.162,1,audio/Narrative8Situation4.wav,246.172,,246.172,260.352,"[[49.9,480],[49.9,560],[49.9,640],[49.8,721],[49.8,800],[49.8,880],[49.8,961],[49.8,1040],[49.8,1120],[49.8,1200],[49.8,1281],[49.8,1360],[49.8,1442],[49.8,1520],[49.8,1600],[49.8,1680],[49.8,1760],[49.8,1841],[49.8,1920],[49.8,2000],[49.8,2081],[49.8,2161],[49.8,2241],[49.8,2322],[49.8,2401],[49.8,2481],[49.8,2560],[49.8,2641],[50.1,2721],[51.7,2800],[55.9,2880],[58.2,2961],[59.3,3040],[60.3,3121],[62.5,3200],[66.1,3281],[69.5,3361],[70.7,3442],[70.8,3521],[71.9,3600],[73.4,3680],[73.6,3762],[74,3841],[75.4,3921],[76.6,4002],[77.2,4081],[79.9,4163],[79.9,4241],[79.9,4322],[79.9,4401],[80.5,4481],[80.7,4562],[81.3,4641],[81.3,4721],[81.3,4802],[81.3,4882],[81.3,4961],[81.3,5041],[81.3,5122],[81.7,5201],[82.4,5282],[83.5,5363],[84.2,5442],[87.8,5521],[88.9,5603],[88.9,5682],[88.9,5762],[88.9,5841],[88.9,5923],[88.9,6002],[88.9,6082],[88.9,6163],[88.9,6242],[89.1,6322],[92,6402],[95.8,6483],[96.5,6562],[97.2,6642],[97.9,6722],[97.9,6802],[99,6882],[99.1,6962],[100,7043],[100,7122],[100,7202],[100,7282],[100,7363],[100,7442],[100,7524],[100,7603],[100,7682],[100,7762],[100,7843],[100,7923],[100,8003],[100,8084],[100,8163],[100,8242],[100,8324],[100,8403],[100,8483],[100,8563],[100,8644],[100,8722],[100,8802],[100,8883],[100,8963],[100,9043],[100,9123],[100,9204],[100,9283],[100,9363],[100,9444],[100,9524],[100,9603],[100,9683],[100,9764],[100,9843],[100,9923],[100,10003],[100,10084],[100,10163],[100,10243],[100,10324],[100,10403],[100,10484],[100,10563],[100,10644],[100,10723],[100,10805],[100,10884],[100,10963],[100,11044],[100,11123],[100,11204],[100,11284],[100,11365],[100,11444],[100,11524],[100,11604],[100,11685],[100,11764],[100,11843],[100,11923],[100,12004],[100,12084],[100,12164],[100,12245],[100,12324],[100,12404],[100,12484],[100,12564],[100,12645],[100,12724],[100,12805],[100,12884],[100,12964],[100,13044],[100,13125],[100,13204],[100,13284],[100,13365],[100,13444],[100,13524],[100,13604],[100,13685],[100,13764],[100,13846],[100,13925],[100,14004],[100,14086],[100,14165]]",1,0,260.352,264.046,99.6875,2.831,"[{""rating"":99.6875,""responseTime"":2.8310000000000173}]",space,3.171,,264.046,Not at all,0,264.049,,,[],,,,0,4,4,4,1,audio/Narrative7Situation4.wav,audio/Narrative8Situation4.wav,audio/Narrative5Situation4.wav,audio/Narrative6Situation4.wav,3,3,1,2,,,,,,,,,,,,,,,,,,,,,,,,,,,,,,,,,,,,,
,,,,,,64abee38a80dfb5e45212487,2024-05-13_11h56.56.934,group3.1-3.2-social-tom,2023.2.2,Win32,75.07507508,65c5074098b851296ff0b7ed,6642381e9762d29237281727,,,,,,,,,,,,,,,,,,,,,,,,,,,,,264.05,1,audio/Narrative8Situation5.wav,266.06,,266.06,274.303,"[[50.7,319],[50.7,399],[50.8,480],[50.8,560],[50.8,639],[50.2,720],[50.2,800],[50.2,879],[50.2,961],[50.2,1040],[50.2,1120],[50.2,1201],[50.2,1280],[50.2,1360],[50.2,1441],[50.2,1519],[50.2,1600],[50.2,1680],[50.2,1759],[50.2,1840],[50.2,1920],[50.2,2001],[50.2,2079],[50.2,2161],[50.2,2240],[50.5,2321],[50.9,2401],[54.4,2480],[56.8,2561],[58.4,2641],[60.6,2721],[65.6,2800],[67.3,2881],[71.7,2961],[74.9,3040],[78,3120],[85.1,3201],[89.1,3281],[93.8,3360],[95.1,3441],[95.1,3521],[95.1,3600],[95.1,3682],[95.7,3761],[96.9,3841],[97.3,3920],[97.3,4001],[97.8,4081],[98.2,4162],[99,4240],[99.5,4322],[99.5,4401],[99.5,4482],[99.5,4562],[99.6,4641],[100,4721],[100,4800],[100,4882],[100,4961],[100,5042],[100,5122],[100,5201],[100,5281],[100,5362],[100,5442],[100,5521],[100,5602],[100,5680],[100,5761],[100,5841],[100,5920],[100,6002],[100,6081],[100,6161],[100,6240],[100,6322],[100,6401],[100,6482],[100,6562],[100,6641],[100,6721],[100,6802],[100,6882],[100,6961],[100,7043],[100,7122],[100,7201],[100,7281],[100,7363],[100,7442],[100,7523],[100,7603],[100,7682],[100,7763],[100,7843],[100,7923],[100,8002],[100,8083],[100,8163],[100,8242]]",1,0,274.303,278.918,99.6875,3.85,"[{""rating"":99.6875,""responseTime"":3.849999999999966}]",space,4.086,,278.918,Definitely yes,100,278.921,,,[],,,,0,5,5,5,1,audio/Narrative7Situation5.wav,audio/Narrative8Situation5.wav,audio/Narrative5Situation5.wav,audio/Narrative6Situation5.wav,5,2,5,2,,,,,,,,,,,,,,,,,,,,,,,,,,,,,,,,,,,,,
,,,,,,64abee38a80dfb5e45212487,2024-05-13_11h56.56.934,group3.1-3.2-social-tom,2023.2.2,Win32,75.07507508,65c5074098b851296ff0b7ed,6642381e9762d29237281727,,,,,,,,,,,,,,,,,,,,,,,,,,,,,278.922,1,audio/Narrative8Situation6.wav,280.932,,280.932,287.401,"[[52.8,79],[52.3,158],[52.1,240],[52.1,319],[52.1,399],[51.9,480],[51.7,560],[51.7,639],[50.4,719],[50.4,800],[50.4,879],[50.6,959],[51.8,1040],[52.1,1120],[52.1,1199],[53.2,1279],[56.7,1360],[61.1,1440],[65.6,1521],[78.6,1599],[87,1680],[89.1,1760],[92.8,1841],[100,1920],[100,2000],[100,2081],[100,2161],[100,2240],[100,2319],[100,2401],[100,2480],[100,2560],[100,2641],[100,2721],[100,2800],[100,2880],[100,2961],[100,3040],[100,3120],[100,3201],[100,3281],[100,3360],[100,3440],[100,3521],[100,3600],[100,3680],[100,3760],[100,3841],[100,3920],[100,4000],[100,4081],[100,4161],[100,4240],[100,4322],[100,4401],[100,4481],[100,4562],[100,4641],[100,4721],[100,4802],[100,4882],[100,4961],[100,5040],[100,5120],[100,5201],[100,5281],[100,5361],[100,5442],[100,5521],[100,5601],[100,5682],[100,5760],[100,5841],[100,5921],[100,6002],[100,6081],[100,6161],[100,6242],[100,6322],[100,6401]]",1,0,287.401,293.297,89.58333333,4.756,"[{""rating"":89.58333333333333,""responseTime"":4.755999999999972}]",space,5.369,,293.297,Not at all,0,293.3,,,[],,,,0,6,6,6,1,audio/Narrative7Situation6.wav,audio/Narrative8Situation6.wav,audio/Narrative5Situation6.wav,audio/Narrative6Situation6.wav,3,2,3,2,,,,,,,,,,,,,,,,,,,,,,,,,,,,,,,,,,,,,
,,,,,,64abee38a80dfb5e45212487,2024-05-13_11h56.56.934,group3.1-3.2-social-tom,2023.2.2,Win32,75.07507508,65c5074098b851296ff0b7ed,6642381e9762d29237281727,,,,,,,,,,,,,,,,,,,,,,,,,,,,,293.3,1,audio/Narrative8Situation7.wav,296.311,,296.311,308.396,"[[999,0],[999,79],[999,159],[999,239],[50.4,479],[50.4,560],[50.4,639],[50.4,719],[50.4,799],[50.4,879],[50.4,959],[50.4,1039],[50.4,1119],[50.4,1199],[50.4,1279],[50.4,1360],[50.4,1439],[50.4,1519],[50.4,1600],[50.4,1680],[50.4,1759],[50.4,1840],[50.4,1920],[50.4,2000],[50.4,2080],[50.4,2161],[50.4,2240],[50.4,2320],[50.4,2400],[50.4,2479],[50.4,2560],[50.4,2640],[50.4,2720],[50.4,2800],[50.4,2879],[50.4,2960],[50.4,3040],[50.4,3120],[50.4,3200],[50.4,3280],[50.4,3360],[50.4,3440],[50.4,3521],[50.4,3600],[50.4,3681],[50.4,3760],[50.4,3840],[50.4,3920],[50.4,4000],[50.4,4080],[50.4,4161],[50.4,4240],[51.8,4322],[52.2,4400],[52.4,4481],[52.4,4560],[52.4,4641],[52.4,4721],[52.4,4801],[52.6,4881],[52.6,4961],[53.8,5041],[56.6,5121],[58.4,5201],[62,5281],[62.5,5361],[62.5,5440],[63.8,5521],[65.9,5601],[66.3,5681],[68.1,5762],[69.6,5841],[69.8,5920],[69.8,6001],[69.8,6081],[69.8,6161],[69.3,6241],[69.2,6322],[68.4,6401],[66.6,6481],[65.2,6561],[61.9,6641],[56.9,6721],[53.8,6801],[52.6,6882],[52.1,6961],[51.5,7042],[51,7122],[51,7201],[50.9,7281],[50.7,7361],[50.4,7441],[50.4,7522],[50.4,7601],[50.4,7682],[50.4,7762],[50.4,7842],[50.4,7923],[50.4,8002],[50.4,8082],[50.4,8162],[50.4,8242],[50.4,8322],[50.4,8402],[50.4,8482],[50.4,8563],[50.4,8642],[50.4,8722],[50.4,8803],[50.4,8882],[50.4,8962],[50.4,9043],[50.4,9122],[50.4,9203],[50.4,9283],[50.4,9363],[50.4,9443],[50.4,9524],[50.4,9602],[50.4,9683],[50.4,9762],[50.4,9843],[50.4,9923],[50.4,10003],[50.4,10082],[50.4,10162],[50.4,10242],[50.4,10323],[50.4,10403],[50.4,10483],[50.4,10562],[50.4,10642],[50.4,10723],[50.4,10802],[50.4,10883],[50.4,10963],[50.4,11043],[50.5,11123],[50.5,11203],[50.5,11283],[50.5,11363],[50.5,11443],[50.5,11524],[50.5,11603],[50.5,11683],[50.5,11763],[50.6,11843],[50.6,11923],[50.7,12004],[50.8,12084]]",1,0,308.396,311.823,0.104166667,1.196,"[{""rating"":0.1041666666666663,""responseTime"":1.1959999999999695}]",space,2.899,,311.823,Definitely yes,100,311.825,,,[],,,,0,7,7,7,1,audio/Narrative7Situation7.wav,audio/Narrative8Situation7.wav,audio/Narrative5Situation7.wav,audio/Narrative6Situation7.wav,5,3,4,5,,,,,,,,,,,,,,,,,,,,,,,,,,,,,,,,,,,,,
,,,,,,64abee38a80dfb5e45212487,2024-05-13_11h56.56.934,group3.1-3.2-social-tom,2023.2.2,Win32,75.07507508,65c5074098b851296ff0b7ed,6642381e9762d29237281727,,,,,,,,,,,,,,,,,,,,,,,,,,,,,311.826,1,audio/Narrative8Situation8.wav,314.837,,314.837,327.696,"[[999,1],[999,81],[999,161],[999,241],[999,321],[999,401],[999,480],[999,561],[999,641],[999,721],[999,801],[999,881],[999,961],[48.9,1040],[47.5,1121],[48.3,1201],[49.5,1281],[49.5,1361],[49.8,1441],[49.9,1522],[49.9,1602],[49.9,1682],[49.9,1761],[49.9,1841],[49.9,1922],[49.9,2002],[49.9,2081],[49.9,2162],[49.9,2241],[49.9,2322],[49.9,2402],[49.9,2482],[49.9,2562],[49.9,2641],[49.9,2722],[49.9,2802],[49.9,2881],[49.9,2962],[49.9,3042],[49.9,3122],[49.9,3201],[49.9,3282],[49.9,3362],[49.9,3442],[49.9,3522],[49.9,3602],[49.9,3682],[49.9,3761],[49.9,3842],[49.9,3922],[46.6,4002],[34.4,4081],[21.7,4162],[15.6,4242],[15.3,4322],[13.8,4402],[11.8,4482],[5.9,4563],[5.5,4643],[5.3,4722],[5.1,4802],[5.1,4882],[5.1,4963],[5.1,5043],[5.1,5123],[5.1,5203],[5.1,5283],[5.1,5363],[5.1,5443],[5.1,5523],[5.1,5603],[4.9,5682],[3.5,5762],[2.3,5843],[1.9,5923],[1.4,6003],[0.4,6083],[0.5,10324],[13.5,10403],[52.9,10965],[42.2,11045],[46.7,11124],[51.3,11205],[52.4,11284],[52.4,11365],[50.9,11444],[50.9,11525],[50.9,11605],[50,11685],[49.4,11765],[49.4,11845],[49.4,11925],[49.4,12004],[49.4,12085],[49.4,12165],[49.4,12245],[49.4,12326],[49.4,12405],[49.4,12485],[49.4,12564],[49.4,12646],[49.4,12725],[49.4,12805]]",1,0,327.696,331.164,14.79166667,2.904,"[{""rating"":15.416666666666668,""responseTime"":1.6870000000000118},{""rating"":14.791666666666664,""responseTime"":2.9039999999999964}]",space,2.945,,331.164,Not at all,0,331.168,,,[],,,,0,8,8,8,1,audio/Narrative7Situation8.wav,audio/Narrative8Situation8.wav,audio/Narrative5Situation8.wav,audio/Narrative6Situation8.wav,2,3,3,5,,,,,,,,,,,,,,,,,,,,,,,,,,,,,,,,,,,,,
,,,,,,64abee38a80dfb5e45212487,2024-05-13_11h56.56.934,group3.1-3.2-social-tom,2023.2.2,Win32,75.07507508,65c5074098b851296ff0b7ed,6642381e9762d29237281727,,,,,,,,,,,,,,,,,,,,,,,,,,,,,331.168,1,audio/Narrative8Situation9.wav,334.178,,334.178,345.502,"[[999,0],[999,81],[999,161],[999,240],[999,321],[999,401],[999,480],[999,561],[999,639],[48.1,720],[50.9,800],[59.1,881],[56.5,961],[52.3,1040],[49.9,1121],[50,1199],[50,1280],[50,1360],[50,1439],[49.8,1521],[49.7,1600],[49.7,1681],[49.7,1759],[49.7,1840],[49.7,1920],[49.7,2001],[42.9,2081],[17.3,2161],[13.8,2240],[13.6,2321],[13.6,2400],[13.6,2480],[13.6,2561],[13.6,2641],[13.6,2721],[13.6,2800],[13.6,2881],[13.6,2961],[13.6,3040],[13.6,3121],[13.6,3201],[13.6,3281],[13.6,3360],[13.6,3441],[13.6,3521],[13.6,3600],[15.1,3681],[16.5,3762],[19.5,3841],[26,3920],[32,4002],[32.8,4081],[33.2,4162],[33.2,4240],[33.2,4322],[33.2,4401],[33.2,4480],[33.2,4562],[33.2,4641],[33.2,4722],[33.3,4800],[37.8,4881],[44.2,4961],[44.5,5042],[44.8,5122],[44.8,5201],[46.6,5282],[51.3,5362],[52.1,5443],[52.1,5521],[52.1,5602],[51.9,5682],[51.8,5762],[51.7,5841],[50.9,5922],[50.5,6002],[50.1,6083],[50,6163],[50,6242],[50,6322],[50,6401],[50,6482],[50,6562],[50,6641],[50,6723],[50,6802],[50,6882],[50,6963],[50,7042],[50,7122],[50,7203],[50,7283],[50,7363],[50,7443],[50,7523],[50,7603],[50,7682],[50,7763],[50,7843],[50,7923],[50,8004],[50,8083],[50,8163],[50,8242],[50,8323],[50,8403],[50,8483],[50,8562],[50,8644],[50,8723],[50,8804],[50,8883],[50,8963],[50,9044],[50,9124],[50,9204],[50,9283],[50,9364],[50,9443],[50,9523],[50,9603],[50,9684],[49.9,9764],[49.8,9843],[49.6,9923],[49.6,10004],[49.5,10084],[49.5,10163],[49.5,10242],[49.5,10323],[49.5,10403],[49.5,10484],[49.5,10562],[49.5,10644],[49.5,10723],[49.5,10804],[49.5,10884],[49.5,10963],[49.5,11044],[49.5,11124],[49.5,11204],[49.5,11283]]",1,0,345.503,348.103,50.3125,0.725,"[{""rating"":50.31250000000001,""responseTime"":0.7250000000000227}]",space,2.074,,348.103,Not at all,0,348.105,,,[],,,,0,9,9,9,1,audio/Narrative7Situation9.wav,audio/Narrative8Situation9.wav,audio/Narrative5Situation9.wav,audio/Narrative6Situation9.wav,2,3,3,4,,,,,,,,,,,,,,,,,,,,,,,,,,,,,,,,,,,,,
,,,,,,64abee38a80dfb5e45212487,2024-05-13_11h56.56.934,group3.1-3.2-social-tom,2023.2.2,Win32,75.07507508,65c5074098b851296ff0b7ed,6642381e9762d29237281727,,,,,,,,,,,,,,,,,,,,,,,,,,,,,348.105,1,audio/Narrative7Situation1.wav,350.117,,350.117,406.005,"[[999,0],[999,79],[999,159],[999,240],[999,319],[999,401],[999,480],[999,560],[999,639],[999,719],[999,800],[999,879],[999,961],[999,1040],[999,1120],[50.2,1200],[50.4,1281],[50.4,1360],[50.4,1440],[50.3,1519],[50.2,1600],[50.2,1680],[50.2,1760],[50.2,1841],[50.2,1920],[50.2,2000],[50.2,2081],[50.2,2161],[50.2,2240],[50.2,2320],[50.2,2401],[50.2,2480],[50.2,2560],[50.1,2641],[50.1,2721],[50.1,2800],[50.1,2882],[50.1,2961],[50.1,3041],[50.1,3122],[50.1,3200],[50.1,3281],[50.1,3360],[50.1,3440],[50.1,3521],[50.1,3600],[50.1,3680],[50.1,3760],[50.1,3841],[50.1,3921],[50.1,4002],[50.1,4081],[50.1,4161],[50.1,4240],[50.1,4322],[50.1,4401],[50.1,4480],[50.1,4562],[50.1,4641],[50.1,4723],[50.1,4801],[50.1,4882],[50.1,4961],[50.1,5041],[50.1,5122],[50.1,5202],[50.1,5281],[50.1,5361],[50.1,5442],[50.1,5522],[50.1,5601],[50.1,5682],[50.1,5762],[50.1,5841],[50.1,5921],[50.1,6002],[50.1,6081],[50.1,6163],[50.1,6242],[50.1,6322],[50.1,6402],[50.1,6481],[50.1,6562],[50.1,6642],[50.1,6723],[50.1,6802],[50.1,6882],[50.1,6962],[50.1,7043],[50.1,7122],[50.1,7202],[50.1,7283],[50.1,7363],[50.1,7442],[50.1,7522],[50.1,7601],[50.1,7682],[50.1,7762],[50.1,7843],[50.1,7923],[50.1,8002],[50.1,8082],[50.1,8163],[50.1,8243],[50.1,8322],[50.1,8402],[50.1,8483],[50.1,8562],[50.1,8642],[50.1,8723],[50.1,8803],[50.1,8882],[50.1,8962],[50.1,9043],[50.1,9123],[50.1,9202],[50.1,9283],[50.1,9363],[50.1,9444],[50.1,9524],[50.1,9603],[50.1,9683],[50.1,9764],[50.1,9843],[50.1,9923],[50.1,10004],[50.1,10084],[50.1,10163],[50.1,10243],[50.1,10324],[50.1,10403],[50.1,10483],[50.1,10563],[50.1,10644],[50.1,10723],[50.1,10803],[50.1,10884],[50.1,10964],[50.1,11043],[50.1,11123],[50.1,11204],[50.1,11284],[50.1,11363],[50.1,11444],[50.1,11524],[50.1,11603],[50.1,11685],[50.1,11764],[50.1,11843],[50.1,11923],[50.1,12004],[50.1,12084],[50.1,12163],[50.1,12245],[50.1,12324],[50.1,12403],[50.1,12485],[50.1,12563],[50.1,12644],[50.1,12724],[50.1,12805],[50.1,12884],[50.1,12964],[50.1,13045],[50.5,13125],[50.5,13204],[50.5,13284],[50.5,13365],[50.5,13444],[50.5,13524],[50,13605],[49.5,13685],[48.9,13766],[48.5,13846],[42.8,13925],[34.1,14004],[32.5,14086],[32.5,14164],[32.5,14245],[27.8,14324],[21.8,14406],[21.8,14485],[21.8,14564],[21.8,14644],[21.8,14726],[21.8,14805],[21.8,14885],[21.8,14966],[21.9,15045],[22.1,15125],[22.1,15206],[22.1,15284],[22.1,15365],[22.1,15445],[22.1,15526],[22.1,15605],[22.1,15685],[22.1,15766],[18.4,15846],[8.4,15925],[1.4,16005],[1,16086],[1.6,18567],[21.1,18646],[36.5,18726],[42,18807],[45,18887],[47.7,18966],[47.7,19046],[48.2,19127],[48.8,19207],[50,19286],[50,19367],[50,19447],[50,19526],[50,19606],[50,19687],[50,19766],[50,19848],[50,19927],[50,20007],[50,20086],[50,20166],[50,20247],[49.9,20327],[46.9,20408],[30.9,20488],[13.4,20567],[9.3,20647],[6.6,20728],[14.6,22089],[34.9,22168],[54,22247],[54,22327],[54,22408],[54,22488],[54,22569],[51.4,22647],[50.5,22728],[49.9,22808],[49.7,22889],[49.7,22968],[49.7,23048],[49.7,23129],[49.7,23207],[49.7,23288],[49.7,23368],[49.7,23447],[49.7,23528],[49.7,23610],[49.7,23688],[49.7,23769],[49.7,23849],[49.7,23928],[49.7,24009],[49.7,24089],[49.7,24168],[49.7,24248],[49.7,24329],[49.7,24409],[49.7,24488],[49.7,24569],[49.7,24649],[49.7,24728],[49.7,24808],[49.7,24889],[49.7,24969],[49.7,25050],[49.7,25129],[49.7,25209],[49.7,25288],[49.7,25370],[49.7,25449],[49.7,25529],[49.7,25608],[49.7,25689],[49.7,25769],[49.7,25848],[49.7,25930],[49.7,26009],[49.7,26089],[49.7,26170],[49.7,26250],[49.7,26329],[49.7,26409],[49.7,26490],[49.7,26569],[49.7,26649],[49.7,26730],[49.7,26810],[49.7,26889],[49.7,26969],[49.7,27050],[49.7,27130],[49.7,27209],[49.7,27289],[49.7,27370],[49.7,27450],[49.7,27529],[49.7,27610],[49.7,27689],[49.7,27769],[49.7,27849],[49.7,27930],[49.7,28010],[49.7,28089],[49.7,28170],[49.7,28250],[49.7,28331],[49.7,28411],[49.7,28490],[49.7,28569],[49.7,28651],[49.7,28730],[49.7,28810],[49.7,28891],[49.7,28971],[49.7,29050],[49.7,29130],[49.7,29209],[49.7,29290],[49.7,29370],[49.7,29450],[49.7,29531],[49.7,29610],[49.7,29690],[49.7,29771],[49.7,29851],[49.7,29930],[49.7,30010],[49.7,30091],[49.7,30170],[49.7,30250],[49.7,30331],[49.7,30411],[49.7,30490],[49.7,30570],[49.7,30651],[49.7,30731],[49.7,30810],[49.7,30891],[49.7,30971],[49.7,31050],[49.7,31130],[49.7,31211],[49.7,31291],[49.7,31372],[49.7,31452],[49.7,31531],[49.7,31611],[49.7,31692],[49.7,31771],[49.7,31851],[49.7,31932],[49.7,32012],[49.7,32091],[49.7,32171],[49.7,32252],[50.1,32331],[50.2,32411],[50.3,32492],[50.5,32572],[50.5,32651],[50.5,32731],[50.5,32812],[50.5,32891],[50.5,32971],[50.5,33051],[50.5,33132],[50.5,33212],[50.5,33293],[50.5,33372],[50.4,33452],[50.2,33531],[50.1,33613],[50.1,33692],[50.1,33772],[50.1,33851],[50.1,33932],[50.1,34012],[50.1,34091],[50.1,34173],[50.1,34252],[50.1,34331],[50.1,34413],[50.1,34492],[50.1,34572],[50.1,34652],[50.1,34733],[50.1,34812],[50.1,34892],[50.1,34971],[50.1,35053],[50.1,35132],[50.1,35212],[50.1,35293],[50.1,35372],[50.1,35452],[50.1,35533],[50.1,35613],[50.1,35692],[50.1,35772],[50.1,35853],[50.1,35932],[50.1,36014],[50.1,36093],[50.1,36173],[50.1,36254],[50.1,36332],[50.1,36413],[50.1,36493],[50.1,36574],[50.1,36652],[50.1,36733],[50.1,36813],[50.1,36894],[50.1,36973],[50.1,37053],[50.1,37132],[50.1,37214],[50.1,37293],[50.1,37373],[50.1,37454],[50.1,37533],[50.1,37613],[50.1,37694],[50.1,37774],[50.1,37853],[50.1,37933],[50.1,38014],[50.1,38093],[50.1,38173],[50.1,38254],[50.1,38334],[50.1,38413],[50.1,38493],[50.1,38574],[50.1,38654],[50.1,38733],[50.1,38813],[50.1,38894],[50.1,38973],[50.1,39053],[50.1,39134],[50.1,39214],[50.1,39293],[50.1,39375],[50.1,39454],[50.1,39533],[50.1,39613],[50.1,39694],[50.1,39774],[50.1,39855],[50.1,39935],[50.1,40014],[50.1,40094],[50.1,40175],[50.1,40254],[50.1,40334],[50.1,40414],[50.1,40495],[50.1,40574],[50.1,40654],[50.1,40735],[50.1,40815],[50.1,40894],[50.1,40974],[50.1,41055],[50.1,41134],[50.1,41214],[50.1,41295],[50.1,41375],[50.1,41454],[50.1,41534],[50.1,41615],[50.1,41695],[50.1,41774],[50.1,41855],[50.1,41935],[50.1,42014],[50.1,42094],[50.1,42175],[50.1,42255],[50.1,42334],[50.1,42416],[50.1,42495],[50.1,42575],[50.1,42654],[50.1,42735],[50.1,42815],[50.1,42896],[50.1,42976],[50.1,43055],[50.1,43135],[50.1,43214],[50.1,43295],[50.1,43375],[50.1,43456],[50.1,43536],[50.1,43615],[50.1,43697],[50.1,43776],[50.1,43855],[50.1,43935],[50.1,44016],[50.1,44096],[50.1,44175],[50.1,44255],[50.1,44336],[50.6,44416],[51.1,44495],[51.3,44577],[51.3,44656],[51.3,44735],[51.3,44815],[51.3,44896],[51.3,44976],[51.3,45055],[51.3,45135],[51.3,45216],[51.3,45296],[50.9,45377],[50.8,45456],[50.5,45536],[50.4,45617],[50.4,45697],[50.1,45776],[50,45856],[50,45935],[50,46016],[50,46096],[50,46176],[50,46257],[50,46336],[50,46416],[50,46497],[50,46577],[50,46656],[50,46736],[50,46817],[50,46896],[50,46978],[50,47057],[50,47137],[50,47216],[50,47298],[50,47377],[50,47457],[50,47536],[50,47617],[50,47697],[50,47777],[50,47858],[50,47938],[50,48017],[50,48096],[50,48178],[50,48257],[50,48337],[50,48418],[50,48498],[50,48577],[50,48658],[50,48738],[50,48817],[50,48899],[50,48978],[50,49057],[50,49137],[50,49218],[50,49298],[50,49379],[50,49457],[50,49538],[50,49617],[50,49697],[50,49777],[50,49858],[50,49938],[50,50017],[50,50098],[50,50178],[50,50259],[50,50337],[50,50418],[50,50498],[50,50579],[50,50658],[50,50738],[50,50819],[50,50899],[50,50978],[50,51057],[50,51139],[50,51218],[50,51298],[50,51379],[50,51459],[50,51538],[50,51618],[50,51699],[50,51779],[50,51858],[50,51938],[50,52019],[50,52099],[50,52178],[50,52259],[50,52339],[50,52418],[50,52498],[50,52579],[50,52659],[50,52738],[50,52819],[50,52899],[50,52978],[50,53060],[50,53139],[50,53219],[50,53300],[50,53379],[50,53459],[50,53539],[50,53620],[50,53699],[50,53779],[50,53860],[50,53940],[50,54019],[50,54099],[50,54180],[50,54259],[50,54341],[50,54420],[50,54500],[50,54579],[50,54661],[50,54740],[50,54819],[50,54899],[50,54980],[50,55060],[50,55139],[50,55219],[50,55300],[50,55380],[50,55459],[50,55541],[56,55620],[71.9,55699],[89.1,55781],[97.2,55860]]",1,0,406.005,409.259,99.47916667,2.237,"[{""rating"":99.47916666666667,""responseTime"":2.2369999999999663}]",space,2.729,,409.259,Not at all,0,409.261,,,[],,,,0,10,10,10,1,audio/Narrative8Situation1.wav,audio/Narrative7Situation1.wav,audio/Narrative6Situation1.wav,audio/Narrative5Situation1.wav,5,2,2,5,,,,,,,,,,,,,,,,,,,,,,,,,,,,,,,,,,,,,
,,,,,,64abee38a80dfb5e45212487,2024-05-13_11h56.56.934,group3.1-3.2-social-tom,2023.2.2,Win32,75.07507508,65c5074098b851296ff0b7ed,6642381e9762d29237281727,,,,,,,,,,,,,,,,,,,,,,,,,,,,,409.261,1,audio/Narrative7Situation2.wav,412.274,,412.274,419.757,"[[999,0],[999,79],[999,158],[999,240],[999,319],[999,399],[999,478],[999,559],[999,639],[999,720],[49.6,799],[49.4,879],[50.3,959],[50.5,1038],[50.5,1120],[50.3,1199],[49.8,1280],[49.7,1360],[49.7,1439],[49.7,1519],[49.7,1600],[49.7,1680],[49.7,1759],[49.7,1840],[49.7,1920],[49.7,2000],[49.7,2079],[49.7,2160],[49.7,2240],[49.7,2319],[49.7,2400],[49.7,2480],[49.7,2561],[49.7,2641],[49.7,2721],[49.7,2800],[49.7,2879],[49.7,2961],[49.7,3040],[49.7,3120],[49.7,3199],[49.7,3280],[49.7,3360],[49.7,3439],[49.7,3521],[49.7,3600],[49.7,3680],[49.7,3761],[49.7,3841],[49.7,3920],[49.7,4001],[49.7,4081],[49.7,4161],[49.7,4240],[49.7,4321],[49.7,4401],[49.7,4480],[49.7,4561],[49.7,4641],[49.7,4721],[49.7,4800],[49.7,4881],[49.7,4961],[49.7,5042],[49.7,5120],[49.7,5201],[49.7,5281],[49.7,5362],[49.7,5442],[49.7,5521],[49.7,5602],[49.7,5680],[49.7,5761],[49.7,5841],[49.7,5920],[49.7,6001],[49.7,6081],[49.7,6162],[49.7,6240],[49.7,6322],[49.7,6401],[49.7,6480],[49.7,6561],[49.7,6641],[49.7,6722],[49.7,6802],[49.7,6882],[49.7,6961],[49.7,7042],[49.7,7122],[49.7,7201],[49.7,7281],[49.7,7362],[50.3,7442]]",1,0,419.757,424.078,99.89583333,1.219,"[{""rating"":99.89583333333334,""responseTime"":1.218999999999994}]",space,3.789,,424.078,Definitely yes,100,424.081,,,[],,,,0,11,11,11,1,audio/Narrative8Situation2.wav,audio/Narrative7Situation2.wav,audio/Narrative6Situation2.wav,audio/Narrative5Situation2.wav,3,3,3,3,,,,,,,,,,,,,,,,,,,,,,,,,,,,,,,,,,,,,
,,,,,,64abee38a80dfb5e45212487,2024-05-13_11h56.56.934,group3.1-3.2-social-tom,2023.2.2,Win32,75.07507508,65c5074098b851296ff0b7ed,6642381e9762d29237281727,,,,,,,,,,,,,,,,,,,,,,,,,,,,,424.081,1,audio/Narrative7Situation3.wav,432.081,,432.081,441.337,"[[999,2],[999,79],[999,158],[999,240],[999,319],[999,399],[999,478],[999,560],[999,639],[999,719],[51.8,800],[51.9,879],[50.9,959],[50.6,1040],[50.3,1120],[50.3,1199],[50.3,1279],[50.3,1360],[50.3,1439],[50.3,1519],[50.3,1599],[50.3,1680],[50.3,1759],[50.3,1839],[50.3,1920],[50.3,2000],[50.3,2081],[50.5,2159],[52.3,2240],[59.7,2320],[81,2399],[89.2,2480],[89.2,2560],[90.1,2639],[95.8,2721],[99.7,2800],[100,2879],[100,2961],[100,3040],[100,3120],[100,3199],[100,3279],[100,3360],[100,3439],[100,3521],[100,3600],[100,3680],[100,3760],[100,3841],[100,3920],[99.9,4000],[99.9,4081],[99.9,4161],[99.9,4242],[99.9,4320],[99.7,4401],[99.7,4481],[99.7,4560],[99.7,4641],[99.7,4721],[99.7,4802],[98.4,4882],[98.3,4961],[98.3,5040],[98.3,5122],[98.3,5201],[98.3,5281],[98.3,5361],[98.3,5442],[98.3,5521],[98.3,5600],[98,5680],[97.9,5762],[97.9,5841],[97.1,5920],[95.4,6002],[87.9,6081],[84.9,6161],[80.5,6242],[70.4,6320],[65.6,6401],[61.4,6481],[55.7,6562],[54.6,6641],[54,6721],[52.7,6802],[50.9,6882],[49.6,6961],[49.4,7041],[49.4,7122],[49.4,7202],[49.4,7281],[49.4,7361],[49.4,7442],[49.4,7521],[49.4,7603],[49.4,7682],[49.4,7762],[49.4,7843],[49.4,7923],[49.4,8002],[49.4,8081],[49.4,8161],[49.4,8242],[49.4,8322],[49.4,8401],[49.2,8483],[49.2,8562],[49.2,8642],[49.2,8723],[48.9,8802],[44.3,8882],[40.1,8962],[36.8,9041],[36.6,9122],[36.6,9202]]",1,0,441.337,444.126,19.27083333,1.225,"[{""rating"":19.270833333333332,""responseTime"":1.224999999999966}]",space,2.264,,444.126,Partially,50,444.129,,,[],,,,0,12,12,12,1,audio/Narrative8Situation3.wav,audio/Narrative7Situation3.wav,audio/Narrative6Situation3.wav,audio/Narrative5Situation3.wav,4,8,5,3,,,,,,,,,,,,,,,,,,,,,,,,,,,,,,,,,,,,,
,,,,,,64abee38a80dfb5e45212487,2024-05-13_11h56.56.934,group3.1-3.2-social-tom,2023.2.2,Win32,75.07507508,65c5074098b851296ff0b7ed,6642381e9762d29237281727,,,,,,,,,,,,,,,,,,,,,,,,,,,,,444.129,1,audio/Narrative7Situation4.wav,447.139,,447.139,458.865,"[[999,0],[999,81],[999,161],[999,240],[999,319],[999,401],[999,480],[999,560],[999,641],[999,721],[999,800],[999,879],[999,961],[999,1040],[999,1120],[999,1201],[999,1281],[49.3,1360],[37.8,1440],[30.3,1521],[17.2,1600],[14.5,1680],[14.5,1761],[15.1,1841],[20.2,1920],[28.3,2000],[31.7,2081],[36.9,2161],[43.4,2240],[44.2,2321],[47.8,2401],[52.1,2480],[52.2,2560],[52.5,2641],[51.6,2721],[50.6,2802],[50.3,2880],[50.3,2961],[50.3,3040],[50.3,3122],[50.3,3201],[50.3,3281],[50.3,3362],[50.3,3442],[50.1,3521],[50,3601],[50,3680],[50,3762],[50,3841],[50,3922],[50,4002],[50,4081],[50,4161],[50,4242],[50,4322],[50,4401],[50,4482],[50,4562],[50,4641],[50,4721],[50,4802],[50,4882],[50,4963],[50,5041],[50,5122],[50,5202],[50,5283],[50,5362],[50,5442],[50,5523],[50,5601],[50,5682],[49.7,5762],[42.1,5843],[35,5922],[22.5,6002],[13,6083],[9.4,6161],[5.4,6242],[0.7,6322]]",1,0,458.865,460.944,0,1.588,"[{""rating"":0,""responseTime"":1.5880000000000223}]",space,1.548,,460.945,Not at all,0,460.948,,,[],,,,0,13,13,13,1,audio/Narrative8Situation4.wav,audio/Narrative7Situation4.wav,audio/Narrative6Situation4.wav,audio/Narrative5Situation4.wav,3,3,2,1,,,,,,,,,,,,,,,,,,,,,,,,,,,,,,,,,,,,,
,,,,,,64abee38a80dfb5e45212487,2024-05-13_11h56.56.934,group3.1-3.2-social-tom,2023.2.2,Win32,75.07507508,65c5074098b851296ff0b7ed,6642381e9762d29237281727,,,,,,,,,,,,,,,,,,,,,,,,,,,,,460.949,1,audio/Narrative7Situation5.wav,465.959,,465.959,474.443,"[[0.3,800],[1,881],[1,961],[1,1040],[0.7,1120],[0.5,1201],[0.4,1281],[0.4,1360],[0.4,1441],[0.4,1521],[0.3,1600],[0.2,1680],[0.1,1761],[0.1,1841],[0.1,1920],[0.1,2001],[0.1,2081],[0.1,2161],[0.1,2240],[0.1,2322],[0.1,2401],[0.1,2482],[0.1,2560],[0.1,2641],[0.1,2721],[0.1,2800],[0.1,2882],[0.1,2961],[0.1,3042],[0.1,3122],[0.1,3201],[0.1,3281],[0.1,3360],[0.1,3442],[0.1,3521],[0.1,3602],[0.1,3682],[0.1,3762],[0.1,3841],[0.1,3922],[0.1,4002],[0.1,4081],[0.1,4162],[0.1,4242],[0.7,4322],[1.1,4401],[2.7,4483],[3,4562],[3,4641],[4.5,4723],[5.2,4802],[5.5,4882],[5.7,4961],[5.7,5042],[5.7,5122],[5.7,5201],[5.7,5283],[5.7,5363],[5.7,5442],[5.7,5521],[5.7,5602],[5.8,5682],[5.8,5762],[5.8,5843],[6.8,5923],[11.4,6002],[17.9,6083],[20.9,6163],[26.9,6242],[29,6322],[31.7,6401],[34.6,6483],[37.8,6562],[39.8,6643],[43.8,6723],[44,6802],[44,6882],[44,6963],[45.4,7043],[45.7,7122],[45.9,7203],[46.7,7283],[47.5,7363],[48,7442],[48.2,7524],[49.1,7603],[49.2,7684],[49.2,7763],[49.2,7843],[49.3,7924],[49.3,8004],[49.3,8083],[50.2,8163],[50.3,8244],[50.3,8322],[50.3,8403],[50.3,8483]]",1,0,474.443,477.217,11.77083333,2.41,"[{""rating"":2.708333333333335,""responseTime"":1.4160000000000537},{""rating"":11.770833333333336,""responseTime"":2.410000000000025}]",space,2.249,,477.217,Definitely yes,100,477.219,,,[],,,,0,14,14,14,1,audio/Narrative8Situation5.wav,audio/Narrative7Situation5.wav,audio/Narrative6Situation5.wav,audio/Narrative5Situation5.wav,2,5,2,5,,,,,,,,,,,,,,,,,,,,,,,,,,,,,,,,,,,,,
,,,,,,64abee38a80dfb5e45212487,2024-05-13_11h56.56.934,group3.1-3.2-social-tom,2023.2.2,Win32,75.07507508,65c5074098b851296ff0b7ed,6642381e9762d29237281727,,,,,,,,,,,,,,,,,,,,,,,,,,,,,477.22,1,audio/Narrative7Situation6.wav,480.232,,480.232,490.209,"[[999,0],[999,79],[999,159],[999,240],[999,319],[999,399],[999,479],[999,560],[999,639],[13.4,719],[10.5,799],[9.8,879],[9.7,959],[9.7,1039],[11.4,1120],[11.4,1199],[11.4,1279],[11.4,1360],[11.4,1439],[11.4,1519],[11.4,1599],[11.4,1680],[11.4,1759],[11.4,1839],[11.4,1919],[11.4,2000],[11.4,2079],[11.4,2161],[11.4,2240],[12.8,2320],[18.5,2399],[26.3,2480],[33.9,2560],[36.6,2639],[39.3,2721],[43.5,2800],[43.9,2880],[44.9,2959],[51.8,3040],[67.6,3120],[72.6,3199],[77.8,3281],[88.4,3360],[95.3,3439],[97.1,3520],[99.1,3600],[99.2,3680],[100,3760],[100,3841],[100,3920],[100,4000],[100,4080],[100,4161],[100,4240],[100,4320],[100,4401],[100,4480],[100,4560],[100,4640],[100,4721],[100,4800],[100,4880],[100,4960],[100,5040],[100,5120],[100,5200],[100,5281],[100,5361],[100,5440],[100,5521],[100,5600],[100,5681],[100,5762],[100,5841],[100,5920],[100,6002],[100,6080],[100,6161],[100,6241],[100,6322],[100,6401],[100,6481],[100,6561],[100,6641],[100,6721],[100,6801],[100,6882],[100,6961],[100,7041],[100,7121],[100,7201],[100,7281],[100,7363],[100,7442],[100,7521],[100,7603],[100,7682],[100,7762],[100,7841],[100,7923],[100,8002],[100,8081],[100,8161],[100,8241],[100,8322],[100,8402],[100,8481],[100,8562],[100,8642],[100,8721],[100,8802],[100,8882],[100,8962],[100,9043],[100,9122],[100,9201],[100,9282],[100,9363],[100,9442],[100,9522],[100,9603],[100,9683],[100,9764],[100,9842],[100,9923]]",1,0,490.209,491.303,99.79166667,0.731,"[{""rating"":99.79166666666667,""responseTime"":0.7309999999999945}]",space,0.567,,491.303,Not at all,0,491.307,,,[],,,,0,15,15,15,1,audio/Narrative8Situation6.wav,audio/Narrative7Situation6.wav,audio/Narrative6Situation6.wav,audio/Narrative5Situation6.wav,2,3,2,3,,,,,,,,,,,,,,,,,,,,,,,,,,,,,,,,,,,,,
,,,,,,64abee38a80dfb5e45212487,2024-05-13_11h56.56.934,group3.1-3.2-social-tom,2023.2.2,Win32,75.07507508,65c5074098b851296ff0b7ed,6642381e9762d29237281727,,,,,,,,,,,,,,,,,,,,,,,,,,,,,491.308,1,audio/Narrative7Situation7.wav,496.318,,496.318,513.497,"[[98.6,560],[98.6,639],[99.4,719],[99.4,800],[99.5,879],[99.8,959],[100,1038],[100,1119],[100,1200],[100,1279],[100,1360],[100,1440],[100,1519],[100,1600],[100,1680],[100,1759],[100,1840],[100,1918],[100,2000],[100,2080],[100,2160],[100,2240],[100,2321],[100,2399],[100,2480],[100,2560],[100,2639],[100,2720],[100,2801],[100,2880],[100,2961],[100,3040],[100,3120],[100,3200],[100,3281],[100,3360],[100,3440],[100,3521],[100,3600],[100,3681],[100,3759],[100,3841],[100,3921],[100,4000],[100,4081],[100,4161],[100,4240],[100,4321],[100,4401],[100,4480],[100,4561],[100,4641],[100,4721],[100,4802],[100,4880],[100,4961],[100,5041],[100,5120],[100,5200],[100,5281],[100,5360],[100,5440],[100,5521],[100,5600],[100,5681],[100,5762],[100,5840],[100,5920],[100,6002],[100,6080],[100,6161],[100,6242],[100,6321],[100,6401],[100,6481],[100,6561],[100,6641],[100,6721],[100,6801],[100,6882],[100,6961],[100,7041],[100,7122],[100,7201],[100,7281],[100,7362],[100,7441],[100,7521],[100,7601],[100,7681],[100,7762],[100,7841],[100,7921],[100,8002],[100,8081],[100,8161],[100,8242],[100,8321],[100,8402],[100,8481],[100,8561],[100,8642],[100,8723],[100,8801],[100,8882],[100,8963],[100,9042],[100,9122],[100,9202],[100,9282],[100,9362],[100,9442],[100,9522],[100,9603],[100,9681],[100,9762],[100,9843],[100,9922],[100,10002],[100,10082],[100,10162],[100,10242],[100,10322],[100,10402],[100,10483],[100,10562],[100,10643],[100,10723],[100,10802],[100,10883],[100,10963],[100,11043],[100,11122],[100,11204],[100,11283],[100,11363],[100,11442],[100,11523],[100,11603],[100,11682],[100,11763],[100,11843],[100,11922],[100,12003],[100,12084],[100,12162],[100,12243],[100,12324],[100,12403],[100,12483],[100,12564],[100,12644],[100,12723],[100,12803],[100,12883],[100,12964],[100,13043],[100,13123],[100,13204],[100,13285],[100,13364],[100,13444],[100,13523],[100,13603],[100,13684],[100,13763],[100,13843],[100,13925],[100,14004],[100,14084],[100,14165],[100,14243],[100,14324],[100,14404],[100,14484],[100,14564],[100,14644],[100,14724],[100,14803],[100,14883],[100,14964],[100,15045],[100,15124],[100,15204],[99.9,15285],[99.6,15364],[99.1,15444],[98.1,15524],[97.3,15605],[97.3,15685],[99.8,15764],[100,15845],[100,15925],[100,16004],[100,16085],[100,16165],[100,16245],[100,16325],[100,16404],[100,16485],[100,16565],[100,16646],[100,16725],[100,16805],[100,16886],[100,16965],[100,17045],[100,17125]]",1,0,513.498,514.618,99.89583333,0.804,"[{""rating"":99.89583333333334,""responseTime"":0.8039999999999736}]",space,0.588,,514.618,Partially,50,514.62,,,[],,,,0,16,16,16,1,audio/Narrative8Situation7.wav,audio/Narrative7Situation7.wav,audio/Narrative6Situation7.wav,audio/Narrative5Situation7.wav,3,5,5,4,,,,,,,,,,,,,,,,,,,,,,,,,,,,,,,,,,,,,
,,,,,,64abee38a80dfb5e45212487,2024-05-13_11h56.56.934,group3.1-3.2-social-tom,2023.2.2,Win32,75.07507508,65c5074098b851296ff0b7ed,6642381e9762d29237281727,,,,,,,,,,,,,,,,,,,,,,,,,,,,,514.621,1,audio/Narrative7Situation8.wav,516.632,,516.632,526.649,"[[97.5,79],[97.1,159],[95.6,238],[95.5,319],[95.5,399],[95.5,479],[95.5,559],[97.4,638],[100,719],[100,799],[100,879],[95.5,959],[95.6,1040],[95.7,1120],[96.3,1199],[98,1279],[99,1359],[99.8,1439],[100,1519],[100,1599],[100,1680],[100,1760],[100,1839],[100,1919],[100,2000],[100,2079],[100,2159],[100,2239],[100,2320],[100,2399],[100,2479],[100,2559],[100,2640],[100,2721],[100,2800],[100,2880],[100,2960],[100,3039],[100,3120],[100,3200],[100,3279],[100,3360],[100,3439],[100,3520],[100,3600],[100,3680],[100,3760],[100,3839],[100,3920],[100,4000],[100,4079],[98.5,4160],[97.5,4240],[95.2,4320],[95.1,4400],[90.6,4480],[86.7,4560],[86.5,4641],[86.5,4721],[86.3,4800],[85.6,4880],[84.7,4961],[83.8,5041],[82.8,5121],[81.1,5200],[78.8,5281],[78.1,5360],[77.9,5440],[76.7,5521],[76.5,5601],[76.5,5681],[76.5,5760],[76.5,5841],[76.5,5920],[76.5,6000],[76.5,6081],[76.5,6161],[76.6,6241],[76.6,6322],[76.6,6401],[76.6,6481],[76.6,6561],[76.6,6641],[76.6,6721],[76.6,6802],[76.6,6881],[76.6,6961],[76.9,7042],[77.2,7122],[77.3,7202],[77.3,7281],[77.4,7361],[77.4,7441],[77.4,7522],[77.3,7601],[77.3,7682],[77.3,7762],[77.2,7842],[77.2,7921],[77.2,8002],[77.2,8082],[77.2,8161],[77.2,8241],[77.2,8322],[77.2,8402],[77.2,8482],[77.2,8562],[77.2,8642],[77.2,8722],[77.2,8802],[77.2,8882],[77.2,8962],[77.2,9041],[77.2,9122],[77.2,9202],[77.2,9282],[77.2,9362],[77.2,9442],[77.2,9522],[77.2,9602],[77.2,9682],[77.2,9762],[77.2,9842],[77.2,9923],[77.2,10002]]",1,0,526.649,528.342,86.66666667,0.863,"[{""rating"":86.66666666666667,""responseTime"":0.8630000000000564}]",space,1.165,,528.342,Partially,50,528.345,,,[],,,,0,17,17,17,1,audio/Narrative8Situation8.wav,audio/Narrative7Situation8.wav,audio/Narrative6Situation8.wav,audio/Narrative5Situation8.wav,3,2,5,3,,,,,,,,,,,,,,,,,,,,,,,,,,,,,,,,,,,,,
,,,,,,64abee38a80dfb5e45212487,2024-05-13_11h56.56.934,group3.1-3.2-social-tom,2023.2.2,Win32,75.07507508,65c5074098b851296ff0b7ed,6642381e9762d29237281727,,,,,,,,,,,,,,,,,,,,,,,,,,,,,528.346,1,audio/Narrative7Situation9.wav,530.357,,530.357,538.987,"[[999,0],[83.2,80],[82.7,160],[82.7,240],[82.6,320],[81.8,399],[81.8,480],[81.8,560],[81.8,639],[82.3,720],[83.6,800],[83.6,879],[83.8,960],[83.8,1040],[83.8,1120],[83.8,1200],[83.8,1280],[83.8,1360],[83.8,1440],[83.8,1520],[83.8,1600],[83.8,1680],[83.8,1759],[83.8,1840],[83.8,1921],[83.8,2000],[83.8,2080],[83.8,2161],[84.3,2240],[88,2320],[89.6,2401],[90.9,2480],[92.5,2560],[93.5,2639],[96.3,2720],[98,2801],[98.6,2881],[99.5,2960],[99.9,3041],[100,3121],[100,3201],[100,3281],[100,3360],[100,3441],[100,3521],[100,3600],[100,3681],[100,3761],[100,3841],[100,3921],[100,4001],[100,4080],[100,4161],[100,4240],[100,4321],[100,4401],[100,4480],[100,4561],[100,4641],[100,4721],[100,4801],[100,4881],[100,4961],[100,5041],[100,5121],[100,5201],[100,5282],[100,5362],[100,5442],[100,5522],[100,5602],[100,5682],[100,5761],[100,5841],[100,5922],[100,6002],[100,6081],[100,6162],[100,6242],[100,6322],[100,6402],[100,6482],[100,6562],[100,6642],[100,6722],[100,6802],[100,6882],[100,6961],[100,7042],[100,7123],[100,7201],[100,7282],[100,7363],[100,7442],[100,7522],[100,7602],[100,7682],[100,7762],[100,7843],[100,7922],[100,8003],[100,8083],[100,8163],[100,8243],[100,8322],[100,8402],[100,8482],[100,8562]]",1,0,538.987,540.093,99.79166667,0.698,"[{""rating"":99.79166666666667,""responseTime"":0.6980000000000928}]",space,0.577,,540.094,Not at all,0,545.216,0,4.046,"[{""rating"":0,""responseTime"":4.045999999999935}]",space,4.594,,0,18,18,18,1,audio/Narrative8Situation9.wav,audio/Narrative7Situation9.wav,audio/Narrative6Situation9.wav,audio/Narrative5Situation9.wav,3,2,4,3,,,,,,,,,,,,,,,,,,,,,,,,,,,,,,,,,,,,,
,,,,,,64abee38a80dfb5e45212487,2024-05-13_11h56.56.934,group3.1-3.2-social-tom,2023.2.2,Win32,75.07507508,65c5074098b851296ff0b7ed,6642381e9762d29237281727,,,,,,,,,,,,,,,,,,,,,,,,,,,559.929,562.502,562.51,2,audio/Narrative13Situation2.wav,562.51,,562.51,592.26,"[[46,1111],[46.7,1192],[47.7,1272],[49.5,1351],[51,1432],[51,1512],[51,1591],[50.6,1672],[50.3,1753],[50.3,1831],[50.3,1913],[50.3,1992],[45.5,2072],[40.6,2152],[39.4,2233],[38.4,2312],[37.1,2393],[26.9,2473],[12,2552],[12,2633],[12.9,2712],[36.9,2793],[46,2873],[38.4,2952],[38.4,3033],[38.4,3113],[38.4,3192],[40.4,3273],[41,3353],[44.6,3432],[46.3,3512],[50.2,3593],[52.1,3673],[53.6,3753],[53.3,3832],[51.5,3913],[51.4,3993],[50.3,4072],[50.3,4153],[50.3,4233],[50.3,4312],[50.3,4393],[50.3,4473],[50.3,4552],[50.3,4634],[50.3,4712],[50.3,4793],[50.3,4874],[50.2,4954],[50.2,5033],[50,5114],[47,5194],[43.1,5274],[41.9,5354],[41.3,5433],[41.1,5514],[39.9,5594],[39.9,5673],[39.9,5753],[39.7,5834],[38.9,5913],[35.2,5993],[34.9,6074],[34.4,6153],[33.1,6234],[32,6313],[29.3,6394],[29.3,6474],[29.2,6553],[29.2,6634],[29.2,6714],[29.2,6793],[29.2,6874],[29.2,6954],[29.2,7033],[29.2,7114],[29.2,7194],[29.2,7274],[29.2,7354],[29.2,7433],[29.2,7514],[29.2,7594],[29.2,7675],[29.2,7754],[29.3,7835],[30.6,7914],[35.5,7994],[44.2,8075],[52,8153],[56.7,8235],[58.3,8313],[59.7,8394],[61.9,8475],[63.9,8555],[68.2,8634],[73.1,8715],[75,8795],[75.5,8875],[75.9,8955],[75.9,9034],[76,9115],[77.1,9195],[78,9276],[78,9355],[78,9435],[78,9514],[78,9595],[78,9675],[78,9755],[78,9835],[78,9914],[78,9995],[78,10075],[78,10156],[78.8,10235],[80.6,10316],[83.3,10394],[84.7,10476],[84.8,10556],[84.9,10635],[84.9,10715],[84.9,10795],[84.9,10875],[84.9,10956],[84.9,11036],[84.9,11115],[85.1,11196],[86.8,11276],[88.2,11355],[89.9,11436],[89.9,11515],[89.9,11595],[89.9,11676],[89.8,11755],[89.7,11836],[89.7,11916],[89.7,11995],[89.7,12076],[89.1,12156],[85.9,12235],[84.8,12316],[84.2,12397],[84.1,12476],[84.1,12556],[84.1,12637],[84,12716],[84,12796],[84,12877],[83.9,12956],[83.9,13037],[83.9,13117],[83.9,13196],[83.9,13277],[83.9,13355],[83.9,13437],[83.9,13515],[84.7,13596],[85.9,13677],[87.4,13757],[90,13836],[95.8,13917],[96,13997],[96.4,14076],[97.7,14157],[98.6,14236],[99.1,14317],[99.9,14397],[99.9,14476],[100,14557],[100,14637],[100,14716],[100,14797],[100,14877],[100,14956],[100,15038],[100,15117],[100,15197],[100,15277],[100,15356],[100,15437],[100,15517],[100,15598],[100,15677],[100,15757],[100,15836],[100,15917],[99.8,15997],[99.7,16076],[99.7,16157],[99.7,16238],[98.5,16317],[92.9,16398],[89.6,16478],[87.5,16557],[81.7,16638],[81.3,16716],[78.9,16798],[77.6,16878],[75.2,16957],[69.1,17038],[64.5,17118],[62.6,17197],[57.3,17278],[54.7,17358],[52.6,17437],[51.5,17517],[51.5,17598],[51.5,17677],[51.4,17758],[51,17839],[49.9,17918],[48,17998],[43.3,18077],[39,18158],[33.2,18239],[30.8,18319],[25.7,18398],[21.4,18478],[19.8,18558],[15.1,18639],[7.7,18718],[6.4,18798],[3.3,18878],[1.1,18959],[0.6,19038],[0.1,19118],[0.5,23039],[2.6,23120],[2.6,23201],[2.6,23281],[2.6,23360],[2.8,23441],[2.9,23519],[2.9,23600],[2.9,23681],[4.2,23760],[4.4,23840],[4.4,23921],[4.4,24000],[4.4,24081],[4.4,24161],[4.4,24240],[4.4,24321],[4.4,24401],[4.4,24480],[4.4,24561],[4.4,24640],[4.4,24721],[4.4,24801],[6.6,24879],[10.6,24961],[10.7,25041],[10.7,25120],[10.7,25201],[10.7,25281],[6.9,25360],[2.7,25441],[0.1,25521]]",1,0,592.26,592.264,,,[],,,,592.265,Not at all,0,592.267,,,[],,,,0,0,0,0,1,audio/Narrative13Situation2.wav,audio/Narrative13Situation2.wav,audio/Narrative13Situation2.wav,audio/Narrative13Situation2.wav,2,2,2,2,,,545.216,559.928,space,14.195,,,,,,,,,,,,,,,,,,,,,,,,,,,,,,,
,,,,,,64abee38a80dfb5e45212487,2024-05-13_11h56.56.934,group3.1-3.2-social-tom,2023.2.2,Win32,75.07507508,65c5074098b851296ff0b7ed,6642381e9762d29237281727,,,,,,,,,,,,,,,,,,,,,,,,,,,,,592.267,2,audio/Narrative6Situation1.wav,594.274,,594.274,620.857,"[[999,0],[999,80],[999,159],[999,239],[999,318],[999,399],[999,480],[999,560],[999,639],[999,720],[999,799],[999,879],[999,960],[999,1039],[999,1120],[999,1200],[999,1278],[999,1360],[999,1440],[999,1519],[999,1600],[999,1680],[999,1759],[999,1840],[999,1919],[999,2000],[999,2080],[999,2159],[999,2240],[999,2320],[999,2399],[51.5,2480],[50.9,2561],[50.8,2640],[50.6,2720],[50.3,2799],[50.3,2880],[49.9,2961],[49.8,3041],[49.8,3120],[49.8,3201],[49.8,3279],[49.8,3360],[49.8,3440],[47,3520],[40.5,3600],[38.3,3681],[37.3,3759],[34.9,3841],[34.1,3921],[34.1,4000],[34.1,4080],[33.6,4159],[33.6,4240],[33,4321],[32.8,4400],[32.8,4480],[32.8,4560],[32.8,4640],[32.8,4721],[32.8,4802],[32.8,4880],[32.8,4961],[32.8,5041],[32.8,5120],[32.8,5201],[36.3,5281],[44.3,5361],[50.2,5441],[51.9,5522],[54.4,5600],[58.2,5682],[64,5760],[66.9,5841],[69.1,5922],[70.2,6001],[70.6,6081],[71.1,6162],[72.1,6241],[73.1,6322],[73.6,6402],[74.8,6480],[78.2,6562],[81.5,6642],[82.2,6721],[83.2,6802],[83.3,6882],[83.3,6961],[83.3,7042],[83.3,7121],[83.3,7202],[83.4,7282],[83.4,7363],[83.4,7442],[83.4,7522],[83.4,7601],[83.5,7682],[85.4,7762],[86.9,7841],[90.6,7922],[93.6,8001],[99.5,8082],[99.7,8162],[99.7,8243],[99.8,8322],[99.8,8403],[99.8,8483],[99.8,8562],[100,8643],[100,8722],[100,8802],[100,8883],[100,8961],[100,9043],[100,9123],[100,9202],[100,9283],[100,9363],[100,9442],[100,9523],[100,9603],[100,9682],[100,9763],[100,9842],[100,9923],[100,10003],[100,10082],[100,10163],[100,10243],[100,10322],[100,10403],[100,10483],[100,10562],[100,10643],[100,10724],[100,10802],[100,10883],[100,10962],[100,11043],[100,11123],[100,11202],[100,11283],[100,11364],[100,11442],[100,11523],[100,11604],[99.1,11683],[96.4,11763],[92.3,11842],[87.1,11923],[77.9,12003],[68.4,12084],[61.4,12163],[55.5,12244],[49.8,12322],[46.1,12403],[44.4,12484],[39,12563],[33.5,12644],[28.2,12724],[27.7,12803],[26.4,12884],[25.5,12964],[25.5,13043],[25.5,13124],[25.4,13204],[25.4,13283],[25.1,13364],[24.4,13443],[24,13524],[23.6,13605],[22.7,13683],[22.5,13764],[21.4,13844],[20.8,13923],[20.8,14004],[20.7,14084],[20.7,14163],[20.7,14244],[20.7,14323],[20.7,14403],[20.7,14484],[20.7,14563],[20.7,14644],[20.7,14724],[20.7,14803],[20.7,14884],[20.7,14964],[21.5,15044],[21.7,15124],[21.7,15204],[21.7,15284],[21.5,15365],[21.5,15445],[21.5,15524],[19.9,15605],[18.1,15685],[17.9,15764],[17.6,15845],[17.1,15924],[16.1,16004],[15.5,16085],[15.5,16164],[15.5,16245],[15.5,16325],[15.5,16406],[15.5,16485],[15.5,16565],[15.5,16644],[15.5,16725],[15.5,16805],[15.5,16884],[15.5,16965],[15.5,17046],[15.5,17125],[15.5,17206],[15.5,17284],[15.5,17365],[15.5,17446],[15.5,17525],[15.5,17605],[15.5,17686],[15.5,17765],[15.5,17846],[15.5,17927],[15.5,18005],[15.5,18086],[15.5,18166],[15.5,18246],[15.5,18326],[15.5,18407],[15.5,18486],[15.5,18566],[15.5,18647],[15.5,18726],[15,18806],[13.2,18885],[12.5,18966],[11.6,19046],[11.6,19125],[11.6,19206],[11.6,19287],[10.2,19366],[8.9,19446],[8.5,19525],[8.5,19605],[8.5,19686],[8.4,19767],[8.4,19846],[8.4,19927],[8.4,20007],[8.4,20086],[8.4,20166],[8.4,20245],[8.4,20327],[8.4,20407],[8.4,20485],[8.4,20567],[8.5,20647],[8.8,20726],[8.8,20807],[8.8,20887],[8.9,20966],[9.4,21047],[9.5,21126],[9.5,21206],[9.5,21287],[9.6,21366],[9.6,21447],[9.6,21527],[9.6,21606],[9.7,21687],[9.7,21768],[9.7,21846],[9.7,21927],[9.7,22008],[9.8,22087],[9.8,22167],[9.8,22246],[9.8,22327],[10,22408],[10,22486],[10.1,22567],[10.4,22647],[10.9,22726],[10.9,22807],[11.3,22888],[13.5,22967],[14.6,23048],[14.6,23128],[14.6,23207],[14.7,23288],[18.4,23368],[31,23447],[55.1,23768],[62.1,23847],[63,23928],[64.1,24008],[65.4,24087],[68.3,24168],[71.9,24249],[74.6,24327],[76.5,24408],[78.2,24488],[79.4,24567],[80.6,24648],[81.6,24728],[83.1,24808],[84.3,24888],[86.6,24969],[86.6,25048],[86.6,25129],[86.6,25207],[86.6,25288],[86,25368],[84.7,25447],[84,25528],[83.2,25608],[81.5,25688],[76.1,25768],[73.2,25849],[72.1,25928],[71.9,26008],[71.9,26087],[71.9,26168],[71.7,26249],[71.7,26329],[71.7,26408],[72.2,26489],[72.8,26568]]",1,0,620.857,624.392,100,2.976,"[{""rating"":97.70833333333333,""responseTime"":2.4680000000000746},{""rating"":100,""responseTime"":2.975999999999999}]",space,3.002,,624.392,Partially,50,624.397,,,[],,,,0,1,1,1,1,audio/Narrative7Situation1.wav,audio/Narrative8Situation1.wav,audio/Narrative5Situation1.wav,audio/Narrative6Situation1.wav,2,5,5,2,,,,,,,,,,,,,,,,,,,,,,,,,,,,,,,,,,,,,
,,,,,,64abee38a80dfb5e45212487,2024-05-13_11h56.56.934,group3.1-3.2-social-tom,2023.2.2,Win32,75.07507508,65c5074098b851296ff0b7ed,6642381e9762d29237281727,,,,,,,,,,,,,,,,,,,,,,,,,,,,,624.397,2,audio/Narrative6Situation2.wav,627.406,,627.406,655.909,"[[99.4,319],[100,399],[100,479],[100,558],[100,639],[100,719],[100,799],[100,879],[100,959],[100,1039],[100,1119],[100,1199],[100,1279],[100,1358],[100,1439],[100,1519],[100,1599],[100,1679],[100,1759],[100,1839],[100,1919],[100,2000],[100,2079],[100,2160],[100,2240],[100,2319],[100,2400],[100,2479],[100,2560],[100,2639],[100,2721],[100,2800],[100,2880],[100,2960],[100,3039],[100,3120],[100,3199],[100,3280],[100,3360],[100,3440],[99.7,3520],[99.7,3600],[99.7,3679],[99.7,3759],[99.7,3841],[99.7,3920],[99.7,4000],[99.7,4080],[99.7,4160],[99.7,4240],[99.6,4320],[99.6,4400],[99.6,4480],[99.6,4560],[99.6,4640],[99.6,4721],[99.6,4800],[99.6,4880],[99.6,4961],[99.6,5041],[99.6,5120],[99.6,5201],[99.6,5280],[99.6,5360],[99.6,5441],[99.6,5520],[96.9,5600],[89.5,5680],[89.5,5760],[89,5840],[87.8,5921],[86.7,6001],[84.5,6081],[82.2,6161],[82.2,6241],[81.5,6322],[81.1,6401],[79.6,6481],[79.4,6561],[79.4,6641],[79.4,6721],[79.4,6801],[79.4,6880],[79.4,6961],[79.3,7041],[78.4,7121],[72.6,7201],[65,7281],[59.3,7361],[58.8,7441],[56.8,7521],[53.8,7601],[53.8,7681],[53.4,7761],[52.5,7841],[52.3,7921],[51.7,8001],[51,8081],[51,8161],[50.8,8241],[50.7,8322],[50.7,8401],[50.7,8482],[50.7,8562],[50.7,8641],[50.7,8721],[50.7,8802],[50.7,8881],[51.8,8961],[52.7,9042],[52.7,9122],[52.7,9202],[52.3,9282],[51.5,9362],[50.9,9442],[50.8,9522],[50.8,9602],[50.8,9682],[50.8,9761],[50.8,9842],[50.8,9923],[50.8,10002],[50.8,10082],[50.8,10162],[50.8,10242],[50.8,10323],[50.8,10402],[50.8,10482],[50.8,10562],[50.8,10642],[50.8,10722],[50.8,10802],[50.8,10883],[50.8,10962],[50.8,11042],[50.8,11123],[50.9,11202],[51.1,11283],[51.3,11363],[51.6,11443],[51.8,11524],[52.2,11603],[52.2,11682],[52.2,11762],[52.2,11843],[52.9,11923],[53,12003],[53,12083],[53,12163],[53,12243],[50.9,12323],[49.8,12404],[49.7,12483],[48.6,12564],[48.4,12643],[47.6,12723],[46.1,12803],[46.1,12883],[46.1,12963],[46.1,13044],[46.1,13123],[46.1,13203],[46.1,13284],[46.1,13363],[46.1,13443],[45.8,13524],[42.9,13603],[39.9,13683],[38.9,13764],[37.6,13844],[37.6,13924],[37.6,14003],[37.6,14084],[37.6,14164],[37.6,14243],[37.6,14324],[37.6,14404],[37.6,14484],[38,14564],[39.3,14644],[39.3,14724],[40.7,14804],[44.9,14884],[49,14964],[50.7,15044],[50.8,15123],[50.8,15204],[50.8,15284],[50.9,15364],[52,15444],[53.4,15524],[54.8,15604],[57.1,15684],[57.6,15765],[58.4,15846],[59.9,15925],[60.4,16005],[60.4,16084],[60.4,16164],[60.4,16244],[60.4,16324],[60.4,16405],[60.4,16485],[60.4,16564],[60.4,16644],[60.4,16724],[60.4,16805],[60.4,16885],[60.4,16965],[60.4,17045],[60.4,17125],[60.4,17204],[60.4,17285],[60.4,17365],[60.4,17445],[60.4,17525],[60.4,17605],[60.4,17685],[60.4,17765],[60.4,17846],[60.4,17925],[60.4,18005],[60.4,18085],[60.4,18165],[60.4,18245],[60.4,18325],[60.4,18405],[60.4,18485],[60.4,18565],[60.5,18645],[41.6,19285],[40,19366],[68.5,20246],[73.8,20327],[73.8,20406],[75.6,20486],[79,20566],[80.8,20646],[81.1,20726],[81,20806],[80.9,20886],[83.2,20967],[83.2,21046],[85.5,21126],[88.1,21206],[98,21286],[99.6,21366],[100,21447],[100,21526],[100,21606],[100,21686],[100,21766],[100,21846],[100,21926],[100,22006],[100,22086],[100,22167],[100,22247],[100,22327],[100,22407],[100,22487],[100,22567],[100,22647],[100,22726],[100,22807],[100,22887],[100,22967],[100,23048],[100,23127],[100,23207],[100,23287],[100,23367],[100,23447],[100,23527],[100,23607],[100,23688],[100,23768],[100,23847],[100,23927],[100,24007],[100,24088],[100,24167],[100,24247],[100,24327],[100,24407],[100,24487],[100,24568],[100,24649],[100,24728],[100,24807],[100,24888],[100,24968],[100,25048],[100,25128],[100,25208],[100,25287],[100,25368],[100,25448],[100,25527],[100,25608],[100,25687],[100,25768],[100,25848],[100,25928],[100,26008],[100,26087],[100,26168],[100,26248],[100,26328],[100,26408],[100,26488],[100,26569],[100,26649],[100,26729],[100,26808],[100,26888],[100,26968],[100,27049],[100,27129],[100,27208],[100,27289],[100,27368],[100,27448],[100,27529],[100,27609],[100,27689],[100,27769],[100,27849],[100,27928],[100,28009],[100,28089],[100,28169],[100,28250],[100,28328],[100,28409],[100,28489]]",1,0,655.909,660.218,100,3.656,"[{""rating"":99.27083333333333,""responseTime"":2.479000000000042},{""rating"":100,""responseTime"":3.6560000000000628}]",space,3.775,,660.218,Partially,50,660.22,,,[],,,,0,2,2,2,1,audio/Narrative7Situation2.wav,audio/Narrative8Situation2.wav,audio/Narrative5Situation2.wav,audio/Narrative6Situation2.wav,3,3,3,3,,,,,,,,,,,,,,,,,,,,,,,,,,,,,,,,,,,,,
,,,,,,64abee38a80dfb5e45212487,2024-05-13_11h56.56.934,group3.1-3.2-social-tom,2023.2.2,Win32,75.07507508,65c5074098b851296ff0b7ed,6642381e9762d29237281727,,,,,,,,,,,,,,,,,,,,,,,,,,,,,660.22,2,audio/Narrative6Situation3.wav,665.232,,665.232,677.85,"[[999,1],[999,81],[999,161],[999,240],[999,320],[999,401],[999,480],[88.3,561],[92.6,641],[94.3,721],[96.4,801],[98.4,881],[99.7,961],[100,1041],[100,1120],[100,1201],[100,1282],[100,1360],[100,1441],[100,1521],[100,1600],[100,1682],[100,1761],[100,1841],[100,1922],[100,2001],[100,2081],[100,2162],[100,2242],[100,2321],[100,2401],[100,2480],[100,2561],[100,2642],[100,2721],[100,2802],[100,2881],[100,2961],[100,3041],[100,3121],[100,3201],[100,3282],[100,3360],[100,3442],[100,3522],[100,3602],[100,3682],[100,3762],[100,3841],[100,3922],[100,4002],[100,4081],[100,4162],[100,4243],[100,4322],[100,4402],[100,4482],[100,4562],[100,4643],[100,4722],[100,4802],[100,4882],[99.8,4961],[98,5042],[96.1,5122],[92.7,5203],[90.3,5283],[88.4,5362],[87.9,5442],[87.9,5522],[86.6,5602],[85.2,5682],[83,5762],[80.7,5843],[79.2,5923],[78.2,6003],[78.2,6083],[77.8,6162],[76.9,6243],[75.3,6323],[74.7,6403],[73.3,6483],[73.2,6562],[73.1,6643],[73,6723],[72.8,6802],[72.8,6883],[72.8,6963],[74.4,7043],[78.9,7123],[80.4,7203],[84.8,7283],[86.4,7364],[89.4,7442],[92.9,7523],[96.3,7603],[97.3,7684],[98.6,7764],[99.6,7844],[100,7924],[100,8003],[100,8083],[100,8163],[100,8244],[100,8324],[100,8403],[100,8484],[100,8564],[100,8644],[100,8724],[100,8804],[100,8884],[100,8964],[100,9043],[100,9123],[100,9204],[100,9283],[100,9364],[100,9444],[100,9524],[100,9604],[100,9685],[100,9764],[100,9844],[100,9924],[100,10004],[100,10084],[100,10163],[100,10245],[100,10324],[100,10403],[100,10484],[100,10564],[100,10645],[100,10724],[100,10804],[100,10884],[100,10965],[100,11045],[100,11124],[100,11204],[100,11285],[100,11365],[100,11445],[100,11525],[100,11605],[100,11685],[100,11764],[100,11845],[100,11925],[100,12004],[100,12084],[100,12165],[100,12245],[100,12325],[100,12405],[100,12485],[100,12565]]",1,0,677.851,681.158,99.58333333,1.929,"[{""rating"":99.58333333333333,""responseTime"":1.9289999999999736}]",space,2.774,,681.158,Partially,50,681.16,,,[],,,,0,3,3,3,1,audio/Narrative7Situation3.wav,audio/Narrative8Situation3.wav,audio/Narrative5Situation3.wav,audio/Narrative6Situation3.wav,8,4,3,5,,,,,,,,,,,,,,,,,,,,,,,,,,,,,,,,,,,,,
,,,,,,64abee38a80dfb5e45212487,2024-05-13_11h56.56.934,group3.1-3.2-social-tom,2023.2.2,Win32,75.07507508,65c5074098b851296ff0b7ed,6642381e9762d29237281727,,,,,,,,,,,,,,,,,,,,,,,,,,,,,681.16,2,audio/Narrative6Situation4.wav,683.172,,683.172,695.79,"[[99.6,480],[100,561],[100,640],[100,721],[100,799],[100,880],[100,961],[100,1040],[100,1120],[100,1201],[100,1280],[100,1360],[100,1441],[100,1520],[100,1600],[100,1681],[100,1760],[100,1841],[100,1920],[100,2000],[100,2081],[100,2162],[100,2240],[100,2321],[100,2401],[100,2480],[100,2562],[100,2640],[100,2721],[100,2800],[100,2881],[100,2961],[96.3,3040],[95.4,3121],[95.4,3201],[95.4,3282],[95.4,3360],[95.4,3442],[95.4,3520],[95.4,3601],[95.4,3682],[95.4,3761],[95.4,3841],[95.4,3922],[95.4,4001],[95.3,4081],[92,4162],[90.3,4241],[88.6,4322],[86.5,4403],[84.2,4481],[83.1,4562],[81,4643],[79,4722],[77.6,4802],[76.9,4881],[76.8,4962],[76.8,5042],[76.3,5122],[75.3,5202],[74.3,5282],[73.2,5362],[72.8,5442],[72.3,5521],[71.7,5601],[70.8,5682],[70.2,5763],[69.9,5841],[69.9,5923],[69.9,6002],[69.2,6082],[68.6,6163],[68.6,6241],[68.6,6322],[68.6,6403],[68.6,6482],[68.6,6562],[68.6,6641],[68.6,6722],[68.6,6802],[68.6,6883],[68.6,6962],[69.8,7043],[70,7122],[70.1,7202],[72,7283],[73,7362],[73.2,7442],[73.6,7523],[74.1,7602],[74.8,7683],[75.2,7763],[75.3,7843],[75.3,7923],[75.3,8004],[75.3,8082],[75.3,8163],[75.3,8244],[75.3,8323],[75.3,8403],[75.3,8484],[75.3,8563],[75.3,8644],[75.3,8723],[75.3,8803],[75.3,8884],[75.3,8962],[75.3,9043],[75.3,9124],[75.3,9203],[75.3,9283],[75.3,9364],[75.3,9443],[75.3,9524],[75.3,9603],[75.3,9683],[75.3,9764],[75.3,9843],[75.3,9923],[75.3,10004],[75.3,10083],[75.3,10163],[75.3,10244],[75.3,10324],[75.3,10404],[75.3,10484],[75.3,10563],[75.3,10644],[75.3,10725],[75.3,10804],[75.3,10884],[75.3,10965],[75.3,11044],[75.3,11124],[75.3,11205],[75.3,11284],[75.3,11365],[75.3,11444],[75.3,11524],[75.3,11605],[75.3,11684],[75.3,11764],[75.3,11845],[75.3,11924],[75.3,12004],[75.3,12085],[75.3,12164],[75.3,12245],[75.3,12324],[75.3,12404],[75.3,12485],[75.3,12564]]",1,0,695.791,700.486,0,4.27,"[{""rating"":0.3124999999999989,""responseTime"":2.9349999999999454},{""rating"":0,""responseTime"":4.269999999999982}]",space,4.172,,700.486,Not at all,0,700.489,,,[],,,,0,4,4,4,1,audio/Narrative7Situation4.wav,audio/Narrative8Situation4.wav,audio/Narrative5Situation4.wav,audio/Narrative6Situation4.wav,3,3,1,2,,,,,,,,,,,,,,,,,,,,,,,,,,,,,,,,,,,,,
,,,,,,64abee38a80dfb5e45212487,2024-05-13_11h56.56.934,group3.1-3.2-social-tom,2023.2.2,Win32,75.07507508,65c5074098b851296ff0b7ed,6642381e9762d29237281727,,,,,,,,,,,,,,,,,,,,,,,,,,,,,700.49,2,audio/Narrative6Situation5.wav,702.5,,702.5,710.449,"[[24.9,80],[22.2,158],[18,240],[1.5,560],[0.4,639],[0.1,1120],[0.1,1200],[0.1,1279],[0.1,1360],[0.1,1440],[0.1,1519],[0.3,1600],[0.5,1680],[0.9,1760],[1.3,1841],[4.2,1919],[7.5,2000],[8,2080],[8,2161],[8,2240],[8,2321],[8.1,2400],[10,2480],[10.1,2561],[10.1,2640],[10.1,2720],[10.1,2801],[10.1,2880],[10.1,2961],[10.1,3041],[10.1,3120],[10.1,3201],[10.1,3281],[10.1,3360],[10.5,3441],[10.8,3520],[10.9,3600],[12,3681],[14.3,3760],[17.7,3841],[17.8,3921],[17.8,4000],[17.8,4081],[17.8,4161],[17.8,4240],[19.7,4321],[21.7,4400],[21.7,4480],[21.7,4561],[21.7,4640],[21.7,4721],[21.7,4801],[21.7,4880],[21.7,4961],[21.7,5041],[21.7,5121],[21.7,5201],[21.7,5282],[21.7,5360],[21.7,5442],[21.7,5522],[21.7,5601],[21.7,5682],[22,5762],[23.4,5841],[23.4,5922],[23.5,6002],[25.2,6081],[25.3,6162],[25.9,6241],[25.9,6321],[25.9,6402],[25.9,6481],[25.9,6562],[25.9,6642],[25.9,6721],[25.9,6802],[27.6,6882],[31.4,6961],[39,7042],[42.6,7121],[46.3,7201],[49.7,7282],[50,7361],[52.4,7442],[52.5,7522],[52.5,7601],[52.5,7682],[52.1,7762],[51.6,7841],[51.1,7923]]",1,0,710.45,713.277,50.20833333,1.041,"[{""rating"":50.208333333333336,""responseTime"":1.04099999999994}]",space,2.299,,713.277,Not at all,0,713.278,,,[],,,,0,5,5,5,1,audio/Narrative7Situation5.wav,audio/Narrative8Situation5.wav,audio/Narrative5Situation5.wav,audio/Narrative6Situation5.wav,5,2,5,2,,,,,,,,,,,,,,,,,,,,,,,,,,,,,,,,,,,,,
,,,,,,64abee38a80dfb5e45212487,2024-05-13_11h56.56.934,group3.1-3.2-social-tom,2023.2.2,Win32,75.07507508,65c5074098b851296ff0b7ed,6642381e9762d29237281727,,,,,,,,,,,,,,,,,,,,,,,,,,,,,713.279,2,audio/Narrative6Situation6.wav,715.291,,715.291,726.361,"[[50.4,320],[50.4,399],[49.9,479],[49.9,559],[49.9,639],[49.9,719],[49.9,800],[49.9,879],[49.9,959],[49.9,1040],[49.9,1120],[49.9,1200],[49.9,1280],[49.9,1359],[49.9,1440],[49.9,1519],[49.9,1600],[49.9,1679],[49.9,1760],[49.9,1841],[49.9,1920],[49.9,2000],[49.9,2080],[49.9,2159],[49.9,2240],[49.9,2320],[49.9,2400],[49.9,2480],[49.9,2559],[49.9,2639],[49.9,2721],[49.9,2799],[49.9,2880],[49.9,2961],[49.9,3040],[49.9,3120],[49.9,3200],[49.9,3280],[49.9,3360],[49.9,3440],[49.9,3521],[49.9,3600],[49.9,3681],[49.9,3760],[49.9,3841],[49.9,3921],[49.9,4000],[49.9,4080],[49.9,4161],[49.9,4240],[49.9,4320],[49.9,4401],[49.9,4481],[49.9,4562],[49.9,4641],[49.9,4721],[49.9,4800],[49.9,4881],[49.9,4961],[49.9,5041],[49.9,5121],[49.9,5201],[49.9,5280],[49.9,5361],[49.9,5440],[49.9,5521],[49.9,5601],[49.9,5681],[49.9,5761],[49.9,5841],[49.9,5921],[49.5,6002],[48.4,6082],[46.5,6161],[43.1,6241],[40.7,6322],[39.2,6401],[39.1,6481],[39.1,6562],[39.1,6642],[38.9,6721],[38.9,6801],[38.9,6882],[38.9,6962],[39,7043],[39,7122],[39,7202],[39,7282],[39,7361],[39,7442],[39,7522],[39,7601],[39,7682],[39,7762],[39.1,7842],[39.1,7923],[39.1,8002],[39.1,8081],[39.2,8163],[39.3,8242],[39.9,8322],[41.7,8402],[45.3,8482],[49.8,8562],[52,8642],[52,8722],[52,8802],[52,8882],[52,8962],[51.4,9043],[51,9122],[50.1,9202],[49.8,9282],[49.8,9363],[49.7,9442],[49.5,9522],[49.5,9603],[49,9682],[48.8,9762],[48.6,9843],[48.5,9923],[48.5,10002],[48.5,10083],[48.2,10163],[46.3,10243],[40.5,10323],[36.3,10402],[36.3,10483],[36.3,10564],[36.3,10644],[36.3,10723],[36.3,10803],[36.3,10883],[36.3,10963],[36.3,11044]]",1,0,726.362,728.496,28.95833333,0.942,"[{""rating"":28.95833333333333,""responseTime"":0.9420000000000073}]",space,1.6,,728.496,Not at all,0,728.498,,,[],,,,0,6,6,6,1,audio/Narrative7Situation6.wav,audio/Narrative8Situation6.wav,audio/Narrative5Situation6.wav,audio/Narrative6Situation6.wav,3,2,3,2,,,,,,,,,,,,,,,,,,,,,,,,,,,,,,,,,,,,,
,,,,,,64abee38a80dfb5e45212487,2024-05-13_11h56.56.934,group3.1-3.2-social-tom,2023.2.2,Win32,75.07507508,65c5074098b851296ff0b7ed,6642381e9762d29237281727,,,,,,,,,,,,,,,,,,,,,,,,,,,,,728.498,2,audio/Narrative6Situation7.wav,733.498,,733.498,758.347,"[[999,0],[999,79],[999,159],[999,240],[999,319],[999,399],[999,478],[999,558],[999,639],[999,719],[999,799],[999,879],[999,959],[999,1040],[999,1120],[999,1199],[999,1279],[999,1360],[999,1439],[30.1,1520],[22.9,1599],[22.9,1680],[23.3,1759],[26,1839],[26.1,1919],[26.1,2000],[26.3,2079],[26.3,2160],[26.3,2240],[26.3,2319],[26.3,2400],[26.3,2480],[26.3,2559],[26.3,2640],[26.3,2721],[26.3,2799],[26.3,2880],[26.3,2961],[26.3,3040],[26.3,3120],[26.3,3200],[26.3,3280],[26.3,3360],[26.3,3440],[26.3,3520],[26.3,3600],[26.3,3680],[26.3,3760],[26.3,3841],[26.3,3920],[26.3,4000],[26.3,4081],[26.3,4160],[26.3,4240],[26.3,4320],[26.3,4400],[26.3,4480],[26.3,4560],[26.3,4640],[26.3,4721],[26.3,4801],[26.3,4880],[26.3,4961],[26.3,5040],[26.3,5121],[26.3,5201],[26.3,5280],[26.3,5360],[26.3,5442],[26.3,5520],[26.3,5601],[26.3,5682],[26.4,5761],[26.4,5841],[26.4,5921],[26.4,6001],[26.4,6081],[26.4,6161],[26.4,6241],[26.4,6322],[26.4,6401],[26.4,6481],[26.6,6562],[26.8,6641],[29.7,6721],[29.8,6801],[29.8,6881],[29.8,6961],[35.5,7041],[47.3,7121],[65.6,7201],[69.5,7281],[70.5,7361],[71.8,7442],[73.1,7521],[75.3,7601],[77.3,7682],[77.3,7762],[79.7,7841],[83.2,7921],[88.3,8001],[96.3,8082],[99.4,8161],[100,8242],[100,8322],[100,8401],[100,8481],[100,8562],[100,8641],[100,8722],[100,8802],[100,8881],[100,8962],[100,9043],[100,9122],[100,9202],[100,9283],[100,9362],[100,9442],[100,9524],[100,9602],[100,9682],[100,9762],[100,9842],[100,9923],[100,10002],[100,10082],[100,10163],[100,10243],[100,10322],[100,10402],[100,10482],[100,10562],[100,10642],[100,10722],[100,10802],[100,10882],[100,10963],[100,11043],[100,11123],[100,11203],[100,11283],[100,11363],[100,11442],[100,11522],[100,11603],[100,11683],[100,11764],[100,11843],[100,11923],[100,12004],[100,12083],[100,12163],[100,12243],[100,12323],[100,12403],[100,12483],[100,12563],[100,12644],[100,12723],[100,12803],[100,12884],[100,12963],[100,13043],[100,13125],[100,13203],[100,13284],[100,13365],[100,13443],[100,13524],[100,13605],[100,13683],[100,13764],[100,13844],[100,13923],[100,14004],[100,14084],[100,14164],[100,14243],[100,14323],[100,14404],[100,14485],[100,14564],[100,14644],[100,14724],[100,14804],[100,14884],[100,14964],[100,15044],[100,15125],[100,15204],[100,15284],[100,15365],[100,15444],[100,15524],[100,15605],[100,15684],[100,15764],[100,15846],[100,15925],[100,16005],[100,16086],[100,16165],[100,16245],[100,16324],[100,16405],[100,16485],[100,16565],[100,16644],[100,16726],[100,16805],[100,16885],[100,16966],[100,17044],[100,17125],[100,17206],[94.7,17285],[88.4,17365],[85.1,17445],[84.4,17525],[84.4,17605],[85,17685],[89.6,17765],[90.6,17846],[92.2,17925],[92.4,18006],[92.4,18086],[92.8,18165],[95.6,18245],[96.3,18327],[97.4,18405],[98.3,18485],[99.7,18565],[100,18645],[100,18726],[100,18807],[100,18886],[100,18966],[100,19046],[100,19126],[100,19206],[100,19286],[100,19366],[100,19447],[100,19525],[100,19605],[100,19687],[100,19766],[100,19846],[100,19926],[100,20006],[100,20087],[100,20166],[100,20246],[100,20327],[100,20406],[100,20486],[100,20567],[100,20646],[100,20726],[100,20807],[100,20886],[100,20967],[100,21046],[100,21126],[100,21207],[100,21286],[100,21367],[100,21447],[100,21527],[100,21606],[100,21687],[100,21767],[100,21846],[100,21926],[100,22007],[100,22087],[100,22168],[100,22247],[100,22327],[100,22408],[100,22487],[100,22567],[100,22647],[100,22727],[100,22807],[100,22886],[100,22967],[100,23048],[100,23127],[100,23207],[100,23288],[100,23367],[100,23447],[100,23527],[100,23607],[100,23687],[100,23767],[100,23847],[100,23927],[100,24009],[100,24088],[100,24168],[100,24247],[100,24328],[100,24408],[100,24488],[100,24567],[100,24649],[100,24728],[100,24808]]",1,0,758.348,762.762,100,3.942,"[{""rating"":99.16666666666667,""responseTime"":3.5259999999999536},{""rating"":100,""responseTime"":3.9420000000000073}]",space,3.894,,762.762,Partially,50,762.765,,,[],,,,0,7,7,7,1,audio/Narrative7Situation7.wav,audio/Narrative8Situation7.wav,audio/Narrative5Situation7.wav,audio/Narrative6Situation7.wav,5,3,4,5,,,,,,,,,,,,,,,,,,,,,,,,,,,,,,,,,,,,,
,,,,,,64abee38a80dfb5e45212487,2024-05-13_11h56.56.934,group3.1-3.2-social-tom,2023.2.2,Win32,75.07507508,65c5074098b851296ff0b7ed,6642381e9762d29237281727,,,,,,,,,,,,,,,,,,,,,,,,,,,,,762.766,2,audio/Narrative6Situation8.wav,767.777,,767.777,774.633,"[[999,0],[999,79],[40.1,1040],[32.6,1120],[25.8,1199],[0.2,1920],[0.5,2000],[0.9,2639],[4.2,2721],[4.2,2799],[5,2880],[27.3,2961],[68.8,3040],[92.7,3120],[94.7,3201],[94.8,3280],[100,3360],[100,3440],[100,3520],[100,3600],[100,3680],[100,3760],[100,3841],[100,3921],[100,4000],[100,4081],[100,4160],[100,4241],[100,4322],[99.9,4401],[95.6,4480],[89.4,4562],[85.2,4640],[80,4721],[75.4,4802],[71.5,4881],[69.3,4961],[65,5040],[60.6,5121],[53.6,5201],[50,5280],[49.7,5361],[48.5,5442],[47.7,5521],[45.9,5601],[44.3,5682],[43.1,5760],[41,5841],[38.8,5921],[37,6001],[32.8,6081],[29.1,6161],[27.4,6241],[27.1,6322],[26.8,6401],[26.6,6481],[25.9,6562],[22.1,6641],[16.9,6722],[12,6802]]",1,0,774.633,777.113,0,2.005,"[{""rating"":0,""responseTime"":0.8659999999999854},{""rating"":0,""responseTime"":2.0049999999999955}]",space,1.953,,777.113,Not at all,0,777.116,,,[],,,,0,8,8,8,1,audio/Narrative7Situation8.wav,audio/Narrative8Situation8.wav,audio/Narrative5Situation8.wav,audio/Narrative6Situation8.wav,2,3,3,5,,,,,,,,,,,,,,,,,,,,,,,,,,,,,,,,,,,,,
,,,,,,64abee38a80dfb5e45212487,2024-05-13_11h56.56.934,group3.1-3.2-social-tom,2023.2.2,Win32,75.07507508,65c5074098b851296ff0b7ed,6642381e9762d29237281727,,,,,,,,,,,,,,,,,,,,,,,,,,,,,777.116,2,audio/Narrative6Situation9.wav,781.129,,781.129,791.079,"[[0.9,960],[0.6,1039],[0.1,1120],[0.9,6322],[2.5,6402],[3.1,6480],[3.1,6562],[3.2,6643],[3.3,6721],[3.3,6802],[3.3,6881],[2.8,6961],[1.7,7042],[0.1,7121]]",1,0,791.079,793.68,0,2.131,"[{""rating"":0,""responseTime"":2.130999999999972}]",space,2.067,,793.68,Definitely yes,100,793.683,,,[],,,,0,9,9,9,1,audio/Narrative7Situation9.wav,audio/Narrative8Situation9.wav,audio/Narrative5Situation9.wav,audio/Narrative6Situation9.wav,2,3,3,4,,,,,,,,,,,,,,,,,,,,,,,,,,,,,,,,,,,,,
,,,,,,64abee38a80dfb5e45212487,2024-05-13_11h56.56.934,group3.1-3.2-social-tom,2023.2.2,Win32,75.07507508,65c5074098b851296ff0b7ed,6642381e9762d29237281727,,,,,,,,,,,,,,,,,,,,,,,,,,,,,793.684,2,audio/Narrative5Situation1.wav,798.695,,798.695,811.98,"[[50.4,240],[50.4,319],[50.5,399],[50.5,479],[50.5,558],[50.5,639],[50.2,719],[50.1,799],[50.1,879],[50.1,959],[49.9,1039],[49.8,1120],[49.8,1200],[49.6,1279],[49.5,1360],[49.5,1440],[49.4,1519],[49.4,1599],[49.6,2640],[48.9,2721],[48.8,2800],[49,2880],[50.8,2961],[50.9,3040],[50.9,3120],[50.9,3201],[50.9,3280],[50.9,3360],[50.9,3442],[50.2,3520],[49.8,3600],[49.8,3680],[49.8,3760],[49.8,3841],[49.8,3920],[49.8,4000],[49.8,4081],[49.8,4161],[49.8,4240],[49.7,4322],[49.7,4400],[49.7,4480],[49.7,4560],[49.7,4641],[49.7,4721],[49.7,4801],[49.7,4881],[49.7,4961],[49.7,5041],[49.7,5121],[49.7,5201],[49.7,5281],[49.7,5361],[49.7,5442],[49.7,5521],[49.7,5601],[49.7,5682],[49.7,5761],[49.7,5841],[49.7,5921],[49.7,6002],[49.7,6081],[49.7,6163],[49.7,6242],[49.7,6322],[49.7,6401],[49.7,6481],[49.7,6562],[49.7,6641],[49.7,6722],[49.7,6802],[49.7,6881],[49.7,6962],[49.7,7041],[49.7,7121],[49.7,7202],[49.7,7283],[49.7,7361],[49.7,7442],[49.7,7522],[49.7,7602],[49.7,7682],[49.7,7761],[49.7,7842],[49.7,7923],[49.7,8002],[49.7,8081],[49.7,8161],[49.7,8242],[49.7,8322],[49.7,8401],[49.7,8482],[49.7,8562],[49.7,8641],[49.7,8722],[49.7,8803],[49.7,8882],[49.7,8962],[49.5,9043],[45.6,9122],[37.3,9203],[26.6,9283],[16.8,9362],[15.1,9442],[9.8,9524],[6.1,9602],[4.4,9682],[2.8,9762],[2.2,9843],[2.2,9923],[2.1,10003],[1.4,10083]]",1,0,811.98,813.994,0,1.664,"[{""rating"":0.3124999999999989,""responseTime"":1.19399999999996},{""rating"":0,""responseTime"":1.6639999999999873}]",space,1.489,,813.994,Not at all,0,813.996,,,[],,,,0,10,10,10,1,audio/Narrative8Situation1.wav,audio/Narrative7Situation1.wav,audio/Narrative6Situation1.wav,audio/Narrative5Situation1.wav,5,2,2,5,,,,,,,,,,,,,,,,,,,,,,,,,,,,,,,,,,,,,
,,,,,,64abee38a80dfb5e45212487,2024-05-13_11h56.56.934,group3.1-3.2-social-tom,2023.2.2,Win32,75.07507508,65c5074098b851296ff0b7ed,6642381e9762d29237281727,,,,,,,,,,,,,,,,,,,,,,,,,,,,,813.996,2,audio/Narrative5Situation2.wav,816.996,,816.996,846.459,"[[3.8,238],[3.8,319],[3.8,399],[3.8,479],[2.7,559],[1.5,639],[0.4,719],[12.9,25449],[38.1,25528],[55.6,25608],[55.7,25687],[55.8,25768],[55.8,25848],[49.8,25928],[48.6,26009],[43.6,26089],[34,26168],[32.8,26248],[20,26329],[5.6,26408],[0.6,27208],[1,27288],[1,27369],[0.7,27449],[0.2,27528]]",1,0,846.459,848.1,0.104166667,0.575,"[{""rating"":0.1041666666666663,""responseTime"":0.5749999999999318}]",space,1.107,,848.1,Partially,50,848.104,,,[],,,,0,11,11,11,1,audio/Narrative8Situation2.wav,audio/Narrative7Situation2.wav,audio/Narrative6Situation2.wav,audio/Narrative5Situation2.wav,3,3,3,3,,,,,,,,,,,,,,,,,,,,,,,,,,,,,,,,,,,,,
,,,,,,64abee38a80dfb5e45212487,2024-05-13_11h56.56.934,group3.1-3.2-social-tom,2023.2.2,Win32,75.07507508,65c5074098b851296ff0b7ed,6642381e9762d29237281727,,,,,,,,,,,,,,,,,,,,,,,,,,,,,848.104,2,audio/Narrative5Situation3.wav,851.114,,851.114,865.027,"[[0.1,559],[1,3280],[1,3360],[1.8,3441],[4.3,3520],[4.4,3600],[4.4,3680],[4.4,3761],[4.4,3841],[4.4,3920],[4.4,4000],[4.4,4081],[4.4,4161],[4.4,4241],[4.4,4321],[4.4,4400],[4.4,4481],[4.4,4562],[4.4,4641],[4.4,4721],[4.4,4802],[4.4,4881],[4.4,4962],[4.4,5042],[4.4,5121],[5.2,5201],[11.4,5281],[19.9,5361],[27.7,5442],[36.7,5521],[46.4,5601],[56.9,5682],[56.9,5761],[59.7,5841],[61.9,5922],[65.3,6001],[68.5,6082],[74.9,6161],[77.8,6241],[79.5,6322],[84.2,6401],[87.9,6482],[90.1,6562],[93.3,6643],[94.8,6722],[96.1,6802],[97.1,6882],[97.7,6961],[98,7043],[98.3,7122],[99.1,7202],[99.4,7283],[99.5,7362],[99.8,7442],[100,7523],[100,7602],[100,7682],[100,7763],[100,7842],[100,7923],[100,8002],[100,8082],[100,8163],[100,8242],[100,8322],[100,8403],[100,8482],[100,8562],[100,8643],[100,8723],[100,8802],[100,8884],[100,8962],[100,9043],[100,9124],[100,9203],[100,9283],[100,9362],[100,9443],[100,9523],[100,9603],[100,9683],[100,9764],[100,9842],[100,9923],[100,10004],[100,10082],[100,10163],[100,10244],[100,10322],[100,10403],[100,10483],[100,10563],[100,10644],[100,10723],[100,10802],[100,10884],[100,10963],[100,11043],[100,11124],[100,11203],[100,11283],[100,11364],[100,11443],[100,11524],[100,11603],[99.9,11683],[99.1,11764],[98.9,11845],[98.9,11923],[98.1,12004],[98.1,12084],[99,12163],[100,12245],[100,12323],[100,12403],[100,12485],[100,12564],[100,12644],[100,12725],[100,12804],[100,12884],[100,12963],[100,13044],[100,13125],[100,13204],[100,13284],[100,13365],[100,13444],[100,13524],[100,13603],[100,13684],[100,13764],[100,13845]]",1,0,865.027,867.747,99.89583333,1.655,"[{""rating"":99.89583333333334,""responseTime"":1.6549999999999727}]",space,2.187,,867.748,Partially,50,867.749,,,[],,,,0,12,12,12,1,audio/Narrative8Situation3.wav,audio/Narrative7Situation3.wav,audio/Narrative6Situation3.wav,audio/Narrative5Situation3.wav,4,8,5,3,,,,,,,,,,,,,,,,,,,,,,,,,,,,,,,,,,,,,
,,,,,,64abee38a80dfb5e45212487,2024-05-13_11h56.56.934,group3.1-3.2-social-tom,2023.2.2,Win32,75.07507508,65c5074098b851296ff0b7ed,6642381e9762d29237281727,,,,,,,,,,,,,,,,,,,,,,,,,,,,,867.75,2,audio/Narrative5Situation4.wav,868.761,,868.761,889.155,"[[99.6,79],[99.5,158],[99.2,240],[99.1,320],[99.1,400],[99.1,480],[99.1,560],[99.1,639],[99.5,719],[100,879],[100,959],[99.9,1040],[99.9,1120],[99.9,1200],[99.9,1280],[99.9,1360],[99.9,1440],[99.9,1520],[99.9,1600],[99.9,1680],[99.9,1759],[99.9,1840],[99.9,1920],[99.9,2000],[99.9,2081],[99.9,2161],[99.9,2240],[99.9,2320],[99.9,2401],[99.9,2480],[99.9,2561],[99.9,2639],[99.8,2721],[99.8,2801],[99.8,2881],[99.8,2961],[99.8,3041],[99.8,3121],[99.8,3201],[99.8,3281],[99.8,3360],[99.8,3441],[98.4,3521],[95.5,3600],[92.4,3680],[88.2,3761],[85,3841],[81.3,3921],[76.8,4001],[71.3,4081],[68,4161],[63.8,4241],[62.3,4321],[61.4,4401],[58.9,4480],[57.7,4561],[57.2,4641],[56.5,4722],[54.9,4802],[53.1,4881],[51.8,4961],[50.9,5041],[50.5,5122],[50.5,5201],[50.5,5281],[50.4,5360],[50.4,5442],[50.3,5521],[50.1,5602],[50,5682],[49,5761],[48.5,5842],[47.7,5921],[46.5,6002],[44.9,6081],[42.8,6161],[42.5,6242],[42.3,6322],[41.9,6402],[41.7,6482],[40.9,6562],[39.8,6642],[38.9,6722],[36.7,6802],[30.9,6882],[29.1,6961],[28.6,7042],[27.4,7122],[24.3,7201],[21.3,7282],[15.7,7362],[13,7442],[11.1,7522],[10.2,7602],[9.6,7682],[9.2,7762],[8.3,7842],[7.9,7922],[7.8,8002],[7.8,8081],[7.8,8162],[7.8,8243],[7.2,8323],[6.8,8403],[6.8,8483],[6.8,8562],[6.8,8642],[6.8,8723],[6.8,8802],[6.8,8883],[6.8,8963],[6.8,9043],[6.8,9123],[6.8,9203],[6.8,9283],[6.8,9363],[6.8,9443],[6.8,9523],[6.8,9603],[6.8,9684],[6.8,9763],[6.8,9843],[6.8,9923],[6.8,10003],[6.8,10084],[6.8,10163],[6.8,10244],[6.8,10324],[6.8,10403],[6.8,10484],[6.8,10562],[6.8,10643],[6.4,10724],[6.4,10802],[6.4,10884],[6.4,10963],[6.4,11043],[6.4,11123],[6.4,11204],[6.4,11283],[6.4,11364],[6.4,11443],[6.4,11524],[7.7,11604],[12.5,11684],[20.8,11764],[21.8,11844],[25.3,11924],[30.4,12004],[35.4,12085],[35.4,12163],[35.4,12244],[37.8,12324],[41.7,12403],[45.9,12484],[47.8,12565],[49.4,12644],[50.1,12724],[51.1,12804],[51.1,12884],[50.6,12965],[50.6,13044],[50.6,13125],[50.2,13205],[50.1,13283],[49.7,13364],[49.1,13444],[49.1,13524],[49.2,13605],[49.5,13685],[49.8,13764],[49.8,13845],[49.8,13925],[49.8,14004],[49.8,14084],[49.8,14165],[49.8,14244],[49.8,14325],[49.8,14403],[49.8,14485],[49.8,14565],[49.8,14645],[49.8,14725],[50.9,14805],[52.2,14884],[53.1,14965],[53.1,15046],[53.1,15125],[53.1,15205],[56.3,15285],[61.1,15365],[65.4,15445],[71.8,15525],[79.2,15605],[80.4,15685],[84.4,15764],[86.7,15846],[86.7,15925],[86.7,16004],[86.7,16085],[86.7,16166],[86.7,16246],[86.8,16326],[90.6,16406],[93.3,16485],[97.6,16566],[97.6,16646],[98.2,16725],[98.8,16805],[98.8,16886],[99.1,16966],[100,17046],[100,17126],[100,17206],[100,17286],[100,17366],[100,17445],[100,17526],[100,17605],[100,17686],[100,17766],[100,17846],[100,17926],[100,18007],[100,18086],[100,18166],[100,18246],[100,18327],[100,18406],[100,18485],[100,18566],[100,18647],[100,18726],[100,18806],[100,18886],[100,18966],[100,19047],[100,19127],[100,19206],[100,19287],[100,19367],[100,19447],[100,19527],[99.9,19607],[99,19687],[95.9,19767],[90.2,19847],[85.4,19927],[84.8,20007],[84.9,20086],[86.3,20166],[86.3,20247],[86.3,20327]]",1,0,889.156,893.436,100,3.676,"[{""rating"":99.6875,""responseTime"":2.6769999999999072},{""rating"":100,""responseTime"":3.675999999999931}]",space,3.757,,893.436,Partially,50,893.439,,,[],,,,0,13,13,13,1,audio/Narrative8Situation4.wav,audio/Narrative7Situation4.wav,audio/Narrative6Situation4.wav,audio/Narrative5Situation4.wav,3,3,2,1,,,,,,,,,,,,,,,,,,,,,,,,,,,,,,,,,,,,,
,,,,,,64abee38a80dfb5e45212487,2024-05-13_11h56.56.934,group3.1-3.2-social-tom,2023.2.2,Win32,75.07507508,65c5074098b851296ff0b7ed,6642381e9762d29237281727,,,,,,,,,,,,,,,,,,,,,,,,,,,,,893.439,2,audio/Narrative5Situation5.wav,898.452,,898.452,913.87,"[[100,480],[100,560],[100,639],[100,719],[99.8,800],[99.6,879],[99.6,959],[99.6,1039],[99.6,1120],[99.6,1201],[99.6,1278],[99.6,1360],[99.6,1440],[99.6,1519],[99.6,1600],[99.6,1680],[99.6,1759],[99.6,1840],[99.6,1919],[99.6,2000],[99.6,2080],[99.6,2161],[99.6,2240],[99.6,2320],[99.6,2399],[99.6,2480],[96.8,2561],[94.9,2639],[87.8,2720],[79.8,2801],[74.7,2879],[74.1,2961],[73.8,3041],[73.1,3120],[70.2,3201],[69.1,3281],[67.8,3360],[66.1,3440],[63.2,3520],[61.7,3600],[61.4,3680],[61,3760],[60.6,3841],[60.6,3919],[60.6,4000],[60.6,4081],[60.6,4159],[60.5,4240],[60.5,4321],[60.5,4401],[60.5,4480],[60.1,4561],[56.6,4640],[55.6,4721],[53.8,4801],[53.1,4880],[52.1,4961],[51.5,5042],[50.9,5120],[50.1,5201],[50,5281],[50,5360],[50,5441],[50,5522],[50.1,5601],[50.2,5681],[50.2,5762],[50.2,5841],[50.2,5921],[50.4,6000],[50.4,6081],[50.7,6161],[50.8,6240],[51,6321],[51,6401],[51,6481],[51,6561],[51.1,6643],[51.6,6721],[52.1,6802],[52.8,6882],[53.4,6961],[53.4,7042],[53.4,7121],[53.4,7201],[53.4,7282],[53.4,7361],[53.4,7442],[53.4,7522],[53.4,7601],[53.4,7682],[53.4,7763],[53.4,7841],[53.4,7923],[53.4,8002],[53.4,8081],[53.4,8163],[53.4,8243],[53.4,8322],[53.4,8403],[53.4,8481],[53.4,8562],[53.4,8643],[53.4,8721],[53.4,8802],[53.4,8882],[53.4,8961],[53.4,9043],[53.4,9123],[53.4,9202],[53.4,9282],[53.4,9363],[53.4,9442],[53,9523],[52.4,9603],[51.8,9682],[51.6,9763],[51.1,9842],[50.6,9923],[50.4,10003],[50.2,10082],[50.1,10163],[50,10243],[50,10322],[50,10403],[50,10483],[50,10562],[50,10644],[50,10722],[50,10802],[50,10883],[50,10962],[50,11043],[50,11123],[50,11202],[50,11283],[50,11364],[50,11443],[50,11524],[50,11604],[50,11682],[50,11764],[50,11842],[50,11923],[50,12004],[50,12084],[50,12163],[50,12244],[50,12323],[50,12403],[50,12484],[50,12563],[50,12644],[50,12725],[50,12803],[50,12884],[50,12964],[50,13044],[50,13124],[50,13204],[50,13284],[50,13365],[50,13445],[50,13524],[50,13604],[50,13683],[50,13764],[50,13844],[50,13923],[50,14004],[50,14085],[50,14163],[50,14245],[50,14325],[50,14403],[50,14484],[50,14565],[50,14644],[50,14724],[50,14805],[50,14884],[50,14964],[50,15044],[50,15125],[50,15205],[50,15284],[50,15365]]",1,0,913.871,917.965,38.02083333,3.655,"[{""rating"":50.31250000000001,""responseTime"":1.143000000000029},{""rating"":38.02083333333333,""responseTime"":3.6549999999999727}]",space,3.572,,917.965,Partially,50,917.967,,,[],,,,0,14,14,14,1,audio/Narrative8Situation5.wav,audio/Narrative7Situation5.wav,audio/Narrative6Situation5.wav,audio/Narrative5Situation5.wav,2,5,2,5,,,,,,,,,,,,,,,,,,,,,,,,,,,,,,,,,,,,,
,,,,,,64abee38a80dfb5e45212487,2024-05-13_11h56.56.934,group3.1-3.2-social-tom,2023.2.2,Win32,75.07507508,65c5074098b851296ff0b7ed,6642381e9762d29237281727,,,,,,,,,,,,,,,,,,,,,,,,,,,,,917.967,2,audio/Narrative5Situation6.wav,920.967,,920.967,926.649,"[[50.8,399],[50.7,480],[50.7,558],[50.7,639],[50.7,720],[50.7,800],[50.7,879],[50.7,960],[50.6,1038],[49.9,1120],[48,1200],[45.5,1279],[40.6,1360],[35.8,1440],[28.6,1519],[28.2,1600],[29.7,1680],[30.9,1759],[34.9,1840],[35.1,1920],[35.1,2000],[35.1,2080],[35.1,2160],[35.1,2240],[35.1,2320],[35.1,2401],[35.1,2480],[35.1,2560],[35.1,2641],[35.1,2721],[35.1,2800],[35.1,2879],[35.1,2960],[35.1,3040],[35.1,3120],[35.1,3200],[35.1,3279],[35.1,3360],[35.1,3440],[35.1,3519],[35.1,3600],[35.1,3680],[35.1,3761],[35.1,3840],[35.1,3921],[35.1,4000],[35.1,4080],[35.1,4160],[35.1,4240],[35.1,4321],[35.1,4401],[35.1,4481],[35.1,4561],[35.1,4641],[35.1,4721],[35.1,4801],[35.1,4880],[35.1,4961],[35.1,5041],[35.1,5120],[35.1,5201],[35.1,5281],[35.1,5360],[35.1,5441],[35.1,5521],[35.1,5600],[35.1,5681]]",1,0,926.649,933.158,100,6.042,"[{""rating"":100,""responseTime"":6.04200000000003}]",space,5.987,,933.158,Definitely yes,100,933.161,,,[],,,,0,15,15,15,1,audio/Narrative8Situation6.wav,audio/Narrative7Situation6.wav,audio/Narrative6Situation6.wav,audio/Narrative5Situation6.wav,2,3,2,3,,,,,,,,,,,,,,,,,,,,,,,,,,,,,,,,,,,,,
,,,,,,64abee38a80dfb5e45212487,2024-05-13_11h56.56.934,group3.1-3.2-social-tom,2023.2.2,Win32,75.07507508,65c5074098b851296ff0b7ed,6642381e9762d29237281727,,,,,,,,,,,,,,,,,,,,,,,,,,,,,933.161,2,audio/Narrative5Situation7.wav,937.172,,937.172,958.207,"[[99,399],[100,480],[100,559],[100,639],[100,721],[100,800],[100,880],[100,961],[100,1039],[100,1120],[100,1201],[100,1279],[100,1360],[100,1439],[100,1520],[100,1600],[100,1681],[100,1760],[100,1841],[100,1920],[100,2000],[100,2081],[100,2160],[100,2240],[100,2321],[100,2400],[100,2480],[100,2561],[100,2640],[100,2721],[100,2800],[100,2880],[100,2961],[100,3040],[100,3120],[100,3201],[100,3280],[100,3360],[100,3442],[100,3520],[100,3600],[100,3682],[100,3760],[100,3841],[100,3922],[100,4001],[100,4081],[100,4160],[100,4241],[100,4321],[100,4401],[100,4481],[100,4561],[100,4641],[100,4721],[100,4800],[100,4881],[100,4961],[100,5042],[100,5121],[100,5201],[100,5283],[100,5362],[100,5442],[100,5521],[100,5601],[100,5682],[100,5761],[100,5841],[100,5922],[100,6001],[100,6081],[100,6163],[100,6242],[100,6322],[100,6401],[100,6482],[100,6562],[100,6643],[100,6722],[100,6802],[100,6883],[100,6962],[100,7043],[100,7122],[100,7202],[100,7282],[100,7362],[100,7442],[100,7521],[100,7602],[100,7682],[100,7763],[100,7842],[100,7923],[100,8002],[100,8082],[100,8163],[100,8242],[100,8322],[100,8403],[100,8484],[100,8563],[100,8643],[100,8722],[100,8803],[100,8884],[100,8963],[100,9043],[100,9122],[100,9203],[100,9283],[100,9362],[100,9443],[100,9524],[100,9602],[100,9683],[100,9764],[100,9843],[100,9923],[100,10004],[100,10083],[100,10163],[100,10244],[99.3,10323],[77.5,10403],[65.1,10484],[64.9,10563],[62.8,10644],[57,10723],[50,10803],[45.3,10884],[45.2,10963],[44.8,11043],[43.5,11124],[41,11203],[40,11283],[40,11364],[40,11444],[40,11524],[40,11605],[40,11684],[40,11764],[39.4,11845],[39.2,11924],[38.6,12004],[38.6,12085],[35.8,12163],[29.2,12245],[21.3,12324],[19.5,12404],[19.4,12484],[19.3,12564],[19.3,12644],[19.2,12725],[19.2,12804],[19.1,12884],[18.8,12965],[18.8,13043],[18.8,13125],[18.8,13205],[18.3,13284],[17.2,13365],[17.1,13444],[16.3,13524],[13.6,13605],[10.2,13686],[7.7,13764],[4.5,13845]]",1,0,958.207,961.595,0,3.012,"[{""rating"":0.2083333333333326,""responseTime"":1.4069999999999254},{""rating"":0,""responseTime"":3.0119999999999436}]",space,2.858,,961.595,Partially,50,961.599,,,[],,,,0,16,16,16,1,audio/Narrative8Situation7.wav,audio/Narrative7Situation7.wav,audio/Narrative6Situation7.wav,audio/Narrative5Situation7.wav,3,5,5,4,,,,,,,,,,,,,,,,,,,,,,,,,,,,,,,,,,,,,
,,,,,,64abee38a80dfb5e45212487,2024-05-13_11h56.56.934,group3.1-3.2-social-tom,2023.2.2,Win32,75.07507508,65c5074098b851296ff0b7ed,6642381e9762d29237281727,,,,,,,,,,,,,,,,,,,,,,,,,,,,,961.599,2,audio/Narrative5Situation8.wav,964.609,,964.609,973.426,"[[5.8,399],[5.2,480],[4.7,559],[3.8,639],[3.2,720],[2,799],[0.8,879]]",1,0,973.426,975.546,0,1.28,"[{""rating"":0,""responseTime"":1.2799999999999727}]",space,1.595,,975.546,Not at all,0,975.549,,,[],,,,0,17,17,17,1,audio/Narrative8Situation8.wav,audio/Narrative7Situation8.wav,audio/Narrative6Situation8.wav,audio/Narrative5Situation8.wav,3,2,5,3,,,,,,,,,,,,,,,,,,,,,,,,,,,,,,,,,,,,,
