exp_question,consent.started,consent.stopped,consentResponse.keys,consentResponse.rt,consentResponse.duration,participantID,date,expName,psychopyVersion,OS,frameRate,STUDY_ID,SESSION_ID,opening1.started,opening1.stopped,keyEndingOpening1.keys,keyEndingOpening1.rt,keyEndingOpening1.duration,volumeAdjust.started,volumeAdjust.stopped,endingAdjust.keys,endingAdjust.rt,endingAdjust.duration,opening2.started,opening2.stopped,keyEndingOpening.keys,keyEndingOpening.rt,keyEndingOpening.duration,mouse.x,mouse.y,mouse.leftButton,mouse.midButton,mouse.rightButton,mouse.time,instructionLoop.thisRepN,instructionLoop.thisTrialN,instructionLoop.thisN,instructionLoop.thisIndex,instructionLoop.ran,readyForAudio.started,readyForAudio.stopped,fixation.started,run,audio_played,fixation.stopped,endPractice.keys,audioPre.started,audioPre.stopped,continuousResponses_audio,continuousSlider.response,continuousSlider.rt,intRating.started,intRating.stopped,intQuestionSlider.response,intQuestionSlider.rt,intQuestionSlider.history,confirmResponse.keys,confirmResponse.rt,confirmResponse.duration,catchQuestion.started,catch_label,catch_value,catchQuestion.stopped,catchQuestionSlider.response,catchQuestionSlider.rt,catchQuestionSlider.history,confirmResponse_2.keys,audioRunLoop.thisRepN,audioRunLoop.thisTrialN,audioRunLoop.thisN,audioRunLoop.thisIndex,audioRunLoop.ran,conditions1_1,conditions2_1,conditions1_2,conditions2_2,dur1_1,dur2_1,dur1_2,dur2_2,endPractice.rt,endPractice.duration,confirmResponse_2.rt,confirmResponse_2.duration,runIntervalBreak.started,runIntervalBreak.stopped,endingBreakKey.keys,endingBreakKey.rt,endingBreakKey.duration,connection.started,connection.stopped,connectionEnding.keys,connectionEnding.rt,connectionEnding.duration,readyForText.started,readyForText.stopped,textPre.started,run_dup,textPre.stopped,continuousResponses_text,textRunLoop.thisRepN,textRunLoop.thisTrialN,textRunLoop.thisN,textRunLoop.thisIndex,textRunLoop.ran,text1_1,text1_2,text2_1,text2_2,runBreakText.started,runBreakText.stopped,endingBreakKey_2.keys,endingBreakKey_2.rt,endingBreakKey_2.duration,ending.started,ending.stopped,endingEnding.keys,endingEnding.rt,endingEnding.duration
social,0.0003,79.7941,y,79.4479,,651bfba19f10300bf4c9a12f,2024-02-08_14h12.04.601,group3.1-3.2-social-tom,2023.2.2,Win32,59.52380952,65c5074098b851296ff0b7ed,65c515cb356881ff77cd4b55,,,,,,,,,,,,,,,,,,,,,,,,,,,,,,,,,,,,,,,,,,,,,,,,,,,,,,,,,,,,,,,,,,,,,,,,,,,,,,,,,,,,,,,,,,,,,,,,,,,,,,,,,,
,,,,,,651bfba19f10300bf4c9a12f,2024-02-08_14h12.04.601,group3.1-3.2-social-tom,2023.2.2,Win32,59.52380952,65c5074098b851296ff0b7ed,65c515cb356881ff77cd4b55,79.7945,84.8043,space,4.9591,,,,,,,,,,,,,,,,,,,,,,,,,,,,,,,,,,,,,,,,,,,,,,,,,,,,,,,,,,,,,,,,,,,,,,,,,,,,,,,,,,,,,,,,,,,,,,,,,,,,,,
,,,,,,651bfba19f10300bf4c9a12f,2024-02-08_14h12.04.601,group3.1-3.2-social-tom,2023.2.2,Win32,59.52380952,65c5074098b851296ff0b7ed,65c515cb356881ff77cd4b55,,,,,,84.8045,142.3009,space,57.176,,,,,,,,,,,,,,,,,,,,,,,,,,,,,,,,,,,,,,,,,,,,,,,,,,,,,,,,,,,,,,,,,,,,,,,,,,,,,,,,,,,,,,,,,,,,,,,,,
,,,,,,651bfba19f10300bf4c9a12f,2024-02-08_14h12.04.601,group3.1-3.2-social-tom,2023.2.2,Win32,59.52380952,65c5074098b851296ff0b7ed,65c515cb356881ff77cd4b55,,,,,,,,,,,142.3276,492.2772,space,349.9037,,[],[],[],[],[],[],0,0,0,0,1,,,,,,,,,,,,,,,,,,,,,,,,,,,,,,,,,,,,,,,,,,,,,,,,,,,,,,,,,,,,,,,,,,,,,,,,,,,,,,,,
,,,,,,651bfba19f10300bf4c9a12f,2024-02-08_14h12.04.601,group3.1-3.2-social-tom,2023.2.2,Win32,59.52380952,65c5074098b851296ff0b7ed,65c515cb356881ff77cd4b55,,,,,,,,,,,492.2778,1093.2734,space,600.7774,,[],[],[],[],[],[],1,0,1,0,1,,,,,,,,,,,,,,,,,,,,,,,,,,,,,,,,,,,,,,,,,,,,,,,,,,,,,,,,,,,,,,,,,,,,,,,,,,,,,,,,
,,,,,,651bfba19f10300bf4c9a12f,2024-02-08_14h12.04.601,group3.1-3.2-social-tom,2023.2.2,Win32,59.52380952,65c5074098b851296ff0b7ed,65c515cb356881ff77cd4b55,,,,,,,,,,,1093.2745,1261.1919,space,167.8309,,[],[],[],[],[],[],2,0,2,0,1,,,,,,,,,,,,,,,,,,,,,,,,,,,,,,,,,,,,,,,,,,,,,,,,,,,,,,,,,,,,,,,,,,,,,,,,,,,,,,,,
,,,,,,651bfba19f10300bf4c9a12f,2024-02-08_14h12.04.601,group3.1-3.2-social-tom,2023.2.2,Win32,59.52380952,65c5074098b851296ff0b7ed,65c515cb356881ff77cd4b55,,,,,,,,,,,1261.2097,1354.2117,p,92.954,,[],[],[],[],[],[],3,0,3,0,1,,,,,,,,,,,,,,,,,,,,,,,,,,,,,,,,,,,,,,,,,,,,,,,,,,,,,,,,,,,,,,,,,,,,,,,,,,,,,,,,
,,,,,,651bfba19f10300bf4c9a12f,2024-02-08_14h12.04.601,group3.1-3.2-social-tom,2023.2.2,Win32,59.52380952,65c5074098b851296ff0b7ed,65c515cb356881ff77cd4b55,,,,,,,,,,,1354.2282,1354.9913,p,0.7018,,[],[],[],[],[],[],4,0,4,0,1,,,,,,,,,,,,,,,,,,,,,,,,,,,,,,,,,,,,,,,,,,,,,,,,,,,,,,,,,,,,,,,,,,,,,,,,,,,,,,,,
,,,,,,651bfba19f10300bf4c9a12f,2024-02-08_14h12.04.601,group3.1-3.2-social-tom,2023.2.2,Win32,59.52380952,65c5074098b851296ff0b7ed,65c515cb356881ff77cd4b55,,,,,,,,,,,1354.9922,1355.7351,p,0.6635,,[],[],[],[],[],[],5,0,5,0,1,,,,,,,,,,,,,,,,,,,,,,,,,,,,,,,,,,,,,,,,,,,,,,,,,,,,,,,,,,,,,,,,,,,,,,,,,,,,,,,,
,,,,,,651bfba19f10300bf4c9a12f,2024-02-08_14h12.04.601,group3.1-3.2-social-tom,2023.2.2,Win32,59.52380952,65c5074098b851296ff0b7ed,65c515cb356881ff77cd4b55,,,,,,,,,,,1355.7361,1423.1357,space,67.3722,,"[-0.739385065885798,0.11859443631039532]","[0.1981279251170047,-0.28861154446177845]","[1,1]","[0,0]","[0,0]","[3.972899999976107,5.449000000000069]",6,0,6,0,1,,,,,,,,,,,,,,,,,,,,,,,,,,,,,,,,,,,,,,,,,,,,,,,,,,,,,,,,,,,,,,,,,,,,,,,,,,,,,,,,
,,,,,,651bfba19f10300bf4c9a12f,2024-02-08_14h12.04.601,group3.1-3.2-social-tom,2023.2.2,Win32,59.52380952,65c5074098b851296ff0b7ed,65c515cb356881ff77cd4b55,,,,,,,,,,,1423.1549,1427.9363,space,4.6283,,[],[],[],[],[],[],7,0,7,0,1,,,,,,,,,,,,,,,,,,,,,,,,,,,,,,,,,,,,,,,,,,,,,,,,,,,,,,,,,,,,,,,,,,,,,,,,,,,,,,,,
,,,,,,651bfba19f10300bf4c9a12f,2024-02-08_14h12.04.601,group3.1-3.2-social-tom,2023.2.2,Win32,59.52380952,65c5074098b851296ff0b7ed,65c515cb356881ff77cd4b55,,,,,,,,,,,1427.9514,1432.8274,space,4.8202,,[],[],[],[],[],[],8,0,8,0,1,,,,,,,,,,,,,,,,,,,,,,,,,,,,,,,,,,,,,,,,,,,,,,,,,,,,,,,,,,,,,,,,,,,,,,,,,,,,,,,,
,,,,,,651bfba19f10300bf4c9a12f,2024-02-08_14h12.04.601,group3.1-3.2-social-tom,2023.2.2,Win32,59.52380952,65c5074098b851296ff0b7ed,65c515cb356881ff77cd4b55,,,,,,,,,,,1432.8414,1438.3238,space,5.4593,,[],[],[],[],[],[],9,0,9,0,1,,,,,,,,,,,,,,,,,,,,,,,,,,,,,,,,,,,,,,,,,,,,,,,,,,,,,,,,,,,,,,,,,,,,,,,,,,,,,,,,
,,,,,,651bfba19f10300bf4c9a12f,2024-02-08_14h12.04.601,group3.1-3.2-social-tom,2023.2.2,Win32,59.52380952,65c5074098b851296ff0b7ed,65c515cb356881ff77cd4b55,,,,,,,,,,,1438.3396,1445.3782,space,7.0177,,[],[],[],[],[],[],10,0,10,0,1,,,,,,,,,,,,,,,,,,,,,,,,,,,,,,,,,,,,,,,,,,,,,,,,,,,,,,,,,,,,,,,,,,,,,,,,,,,,,,,,
,,,,,,651bfba19f10300bf4c9a12f,2024-02-08_14h12.04.601,group3.1-3.2-social-tom,2023.2.2,Win32,59.52380952,65c5074098b851296ff0b7ed,65c515cb356881ff77cd4b55,,,,,,,,,,,,,,,,,,,,,,,,,,,1445.3977,1447.9781,1448.0258,1,audio/Narrative13Situation2.wav,1450.0318,,1450.0331,1479.7919,"[[44.4,20128],[39,20210],[33.9,20293],[33.3,20376],[34.2,20462],[53.4,20546],[58.5,20631],[58.8,20713],[67.6,20798],[69.3,20881],[69.3,20964],[69.3,21048],[69.3,21132],[69.3,21227],[69.3,21311],[69.3,21394],[69.3,21482],[69.3,21566],[69.3,21649],[69.3,21733],[69.3,21817],[69.3,21900],[69.3,21984],[69.3,22080],[69.3,22165],[69.3,22247],[69.3,22333],[69.3,22415],[69.3,22499],[69.3,22582],[69.3,22666],[68.9,22751],[68.7,22838],[68.7,22920],[68.7,23004],[68.7,23087],[68.7,23170],[68.7,23260],[68.7,23347],[68.7,23430],[68.7,23522],[68.7,23605],[68.7,23687],[68.7,23771],[68.3,23863],[67,23950],[65.7,24034],[61.9,24121],[55.9,24208],[55.6,24291],[55.4,24374],[55.4,24457],[55.4,24553],[55.4,24635],[55.4,24721],[55.4,24804],[55.4,24893],[55.4,24976],[55.4,25059],[55.4,25154],[55.4,25239],[55.4,25324],[55.4,25407],[55.4,25490],[50.1,25578],[44.7,25664],[44.4,25750],[44.4,25837],[44.4,25929],[44.4,26020],[44.4,26110],[44.4,26193],[44.4,26276],[44.4,26361],[44.4,26442],[44.4,26517],[44.4,26597],[44.4,26679],[44.4,26764],[44.4,26850],[44.4,26930],[44.4,27015],[44.4,27097],[44.4,27181],[42.7,27266],[41.5,27348],[41.1,27433],[38,27519],[34.6,27604],[34.2,27686],[34.2,27766],[34.2,27850],[34.2,27937],[34.2,28018],[34.2,28101],[34.2,28185],[34.2,28268],[34.2,28352],[34.2,28438],[34.2,28518],[34.2,28601],[34.2,28688],[34.2,28769],[34.2,28865],[34.2,28941],[34.2,29021],[34.2,29103],[34.2,29193],[33,29273],[32.6,29358],[32.6,29443],[30.8,29522],[30.8,29605],[30.8,29694]]",1,0,1479.7932,1497.7245,39.16544656,5.5234,"[{""rating"":39.165446559297216,""responseTime"":5.523399999976164}]",space,17.3745,,1497.7411,Definitely yes,100,1497.7482,,,[],,0,0,0,0,1,audio/Narrative13Situation2.wav,audio/Narrative13Situation2.wav,audio/Narrative13Situation2.wav,audio/Narrative13Situation2.wav,2,2,2,2,,,,,,,,,,,,,,,,,,,,,,,,,,,,,,,,,,,,,,,
,,,,,,651bfba19f10300bf4c9a12f,2024-02-08_14h12.04.601,group3.1-3.2-social-tom,2023.2.2,Win32,59.52380952,65c5074098b851296ff0b7ed,65c515cb356881ff77cd4b55,,,,,,,,,,,,,,,,,,,,,,,,,,,,,1497.7486,1,audio/Narrative7Situation1.wav,1614.0421,space,1614.0422,1669.9317,"[[999,17],[999,106],[999,194],[999,278],[999,362],[999,445],[999,527],[999,611],[999,698],[999,792],[999,879],[999,959],[999,1044],[999,1126],[999,1209],[999,1294],[999,1376],[999,1460],[999,1543],[999,1627],[999,1713],[999,1794],[999,1877],[999,1962],[999,2045],[999,2128],[999,2213],[999,2295],[999,2380],[999,2464],[999,2546],[999,2630],[999,2713],[999,2797],[999,2882],[999,2964],[999,3047],[999,3132],[999,3214],[999,3298],[999,3383],[999,3466],[999,3549],[999,3634],[999,3716],[999,3800],[999,3884],[999,3967],[999,4051],[999,4134],[999,4219],[999,4303],[999,4385],[999,4470],[999,4553],[999,4635],[999,4720],[999,4805],[999,4887],[999,4972],[999,5053],[999,5138],[999,5223],[999,5305],[999,5387],[999,5472],[999,5556],[999,5639],[999,5724],[999,5807],[999,5889],[999,5974],[999,6057],[999,6140],[999,6223],[999,6310],[999,6391],[999,6475],[999,6559],[999,6641],[999,6725],[999,6809],[999,6909],[999,6990],[999,7079],[999,7162],[999,7260],[999,7358],[999,7443],[999,7527],[999,7610],[999,7693],[999,7778],[999,7862],[999,7948],[999,8032],[999,8129],[999,8212],[999,8296],[999,8384],[999,8479],[999,8563],[999,8646],[999,8732],[999,8814],[999,8896],[999,8980],[999,9063],[999,9148],[999,9231],[999,9311],[999,9396],[999,9481],[999,9562],[999,9644],[999,9733],[85.6,9818],[86,9914],[86,9994],[86,10076],[86,10159],[86,10242],[86,10321],[86,10405],[86,10489],[86,10571],[86,10657],[86,10739],[86,10823],[86,10906],[86,10990],[86,11074],[86,11158],[86,11241],[86,11325],[86,11409],[86,11491],[86,11575],[86,11659],[86,11742],[86,11825],[86,11909],[86,11992],[86,12076],[86,12161],[86,12243],[86,12327],[86,12411],[86,12494],[86,12578],[86,12661],[86,12744],[86,12828],[86,12911],[86,12995],[86,13079],[86,13162],[86,13246],[86,13330],[86,13413],[86,13498],[86,13580],[86,13666],[86,13748],[86,13831],[86,13927],[86,14011],[86,14096],[86,14179],[86,14262],[86,14346],[86,14430],[86,14513],[86,14598],[86,14674],[86,14754],[86,14835],[86,14920],[86,15004],[86,15085],[86,15170],[86,15251],[86,15335],[86,15420],[86,15503],[86,15588],[86,15675],[86,15755],[86,15839],[86,15921],[86,16007],[86,16091],[86,16171],[86,16259],[86,16339],[86,16424],[86,16505],[86,16589],[86,16676],[86,16760],[86,16843],[86,16923],[86,17010],[86,17092],[86,17177],[86,17258],[86,17348],[86,17424],[86,17526],[86,17609],[86,17706],[86,17789],[86,17873],[86,17957],[86,18040],[86,18122],[86,18207],[86,18290],[86,18373],[86,18456],[86,18540],[86,18623],[86,18707],[86,18791],[86,18876],[86,18959],[86,19041],[86,19125],[86,19225],[86,19309],[86,19395],[86,19480],[86,19564],[84.6,19648],[85.6,20914],[85.3,20998],[85.3,21079],[85.3,21163],[85.3,21247],[85.1,21329],[85.1,21414],[85.1,21498],[85.1,21581],[85.1,21661],[85.1,21748],[85.1,21832],[85.1,21915],[85.1,21998],[85.1,22083],[85.1,22168],[85.1,22249],[85.1,22335],[85.1,22416],[85.1,22499],[85.1,22583],[85.1,22668],[85.1,22752],[85.1,22839],[85.1,22924],[85.1,23007],[85.1,23090],[85.1,23177],[85.1,23261],[85.1,23347],[85.1,23424],[85.1,23509],[85.1,23605],[85.1,23690],[85.1,23772],[85.1,23856],[85.1,23940],[85.1,24027],[85.1,24112],[85.1,24200],[85.1,24284],[85.1,24372],[85.1,24459],[85.1,24541],[85.1,24625],[85.1,24708],[85.1,24791],[85.1,24877],[85.1,24954],[85.1,25035],[85.1,25116],[85.1,25201],[85.1,25280],[85.1,25363],[85.1,25448],[85.1,25534],[85.1,25615],[85.1,25697],[85.1,25782]]",1,0,1669.9328,1678.8763,78.25768668,7.4254,"[{""rating"":78.25768667642751,""responseTime"":7.42539999997598}]",space,8.4033,,1678.8765,Not at all,0,1678.8982,,,[],,0,1,1,1,1,audio/Narrative7Situation1.wav,audio/Narrative8Situation1.wav,audio/Narrative5Situation1.wav,audio/Narrative6Situation1.wav,2,5,5,2,116.2671,,,,,,,,,,,,,,,,,,,,,,,,,,,,,,,,,,,,,,
,,,,,,651bfba19f10300bf4c9a12f,2024-02-08_14h12.04.601,group3.1-3.2-social-tom,2023.2.2,Win32,59.52380952,65c5074098b851296ff0b7ed,65c515cb356881ff77cd4b55,,,,,,,,,,,,,,,,,,,,,,,,,,,,,1678.8989,1,audio/Narrative7Situation2.wav,1681.9096,,1681.91,1689.3939,"[[999,2],[999,89],[999,174],[999,255],[999,340],[999,419],[999,506],[999,591],[999,668],[999,759],[999,842],[999,927],[999,1009],[999,1092],[999,1176],[999,1260],[999,1344],[999,1426],[999,1510],[999,1596],[999,1677],[999,1762],[999,1846],[999,1928],[999,2011],[999,2096],[999,2178],[999,2262],[999,2347],[999,2429],[999,2514],[999,2597],[999,2680],[999,2765],[999,2847],[999,2930],[999,3015],[999,3097],[999,3182],[999,3267],[999,3348],[999,3433],[999,3516],[999,3600],[999,3685],[999,3766],[999,3884],[999,3967],[999,4053],[999,4135],[999,4217],[999,4297],[999,4385],[999,4470],[999,4551],[999,4635],[999,4720],[999,4803],[999,4887],[999,4972],[999,5054],[999,5137],[999,5219],[999,5304],[999,5388],[999,5472],[999,5555],[999,5638],[999,5723],[999,5805],[999,5890],[999,5974],[999,6062],[999,6157],[999,6240],[999,6324],[999,6408],[999,6490],[999,6570],[999,6660],[999,6738],[999,6818],[999,6903],[999,6983],[999,7064],[999,7147],[999,7232],[999,7314],[999,7400],[999,7482]]",1,0,1689.3948,1694.7515,81.03953148,4.7321,"[{""rating"":81.03953147877013,""responseTime"":4.73210000002382}]",space,4.8268,,1694.7516,Definitely yes,100,1694.7602,,,[],,0,2,2,2,1,audio/Narrative7Situation2.wav,audio/Narrative8Situation2.wav,audio/Narrative5Situation2.wav,audio/Narrative6Situation2.wav,3,3,3,3,,,,,,,,,,,,,,,,,,,,,,,,,,,,,,,,,,,,,,,
,,,,,,651bfba19f10300bf4c9a12f,2024-02-08_14h12.04.601,group3.1-3.2-social-tom,2023.2.2,Win32,59.52380952,65c5074098b851296ff0b7ed,65c515cb356881ff77cd4b55,,,,,,,,,,,,,,,,,,,,,,,,,,,,,1694.7606,1,audio/Narrative7Situation3.wav,1702.7632,,1702.7635,1712.1805,"[[999,17],[999,109],[999,190],[999,271],[999,359],[999,439],[999,527],[999,608],[999,689],[999,778],[999,862],[999,944],[999,1029],[999,1128],[999,1208],[999,1295],[999,1378],[999,1464],[999,1551],[999,1634],[999,1719],[999,1803],[999,1899],[999,1974],[999,2052],[999,2135],[999,2220],[999,2304],[999,2392],[999,2470],[999,2559],[999,2638],[999,2721],[999,2807],[999,2889],[999,2973],[999,3055],[999,3141],[999,3223],[999,3307],[999,3389],[999,3473],[999,3560],[999,3640],[999,3724],[999,3810],[999,3891],[999,3974],[999,4062],[999,4141],[999,4232],[999,4308],[999,4400],[999,4475],[999,4564],[999,4646],[999,4727],[999,4813],[999,4897],[999,4978],[999,5063],[999,5158],[999,5245],[999,5345],[999,5453],[999,5543],[999,5626],[999,5703],[999,5791],[999,5878],[999,5960],[999,6044],[999,6149],[999,6266],[999,6361],[999,6444],[999,6532],[999,9311],[999,9416]]",1,0,1712.1807,1721.2068,33.1625183,7.6332,"[{""rating"":33.16251830161055,""responseTime"":7.633199999988165}]",space,8.4882,,1721.2069,Definitely yes,100,1721.2129,,,[],,0,3,3,3,1,audio/Narrative7Situation3.wav,audio/Narrative8Situation3.wav,audio/Narrative5Situation3.wav,audio/Narrative6Situation3.wav,8,4,3,5,,,,,,,,,,,,,,,,,,,,,,,,,,,,,,,,,,,,,,,
,,,,,,651bfba19f10300bf4c9a12f,2024-02-08_14h12.04.601,group3.1-3.2-social-tom,2023.2.2,Win32,59.52380952,65c5074098b851296ff0b7ed,65c515cb356881ff77cd4b55,,,,,,,,,,,,,,,,,,,,,,,,,,,,,1721.2138,1,audio/Narrative7Situation4.wav,1724.2147,,1724.2148,1735.9484,"[[999,1],[999,76],[999,153],[999,240],[999,322],[999,406],[999,489],[999,573],[999,663],[999,750],[999,833],[999,922],[999,1005],[999,1087],[999,1171],[999,1253],[999,1350],[999,1434],[999,1522],[999,1601],[999,1687],[999,1779],[999,1862],[999,1955],[999,2038],[999,2123],[999,2206],[999,2292],[999,2370],[999,2457],[999,2538],[999,2624],[999,2701],[999,2788],[999,2870],[999,2960],[999,3059],[999,3136],[999,3223],[999,3309],[999,3387],[999,3476],[999,3560],[999,3639],[999,3727],[999,3807],[999,3894],[999,3974],[999,4067],[999,4150],[999,4240],[999,4325],[999,4412],[999,4497],[999,4575],[999,4663],[999,4741],[999,4826],[999,4914],[999,4998],[999,5096],[999,5184],[999,5269],[999,5364],[999,5451],[999,5539],[999,5619],[999,5701],[999,5786],[999,5870],[999,5952],[999,6036],[999,6121],[999,6203],[999,6286],[999,6370],[999,6455],[999,6538],[999,6622],[999,6704],[999,6790],[999,6872],[999,6956],[999,7040],[999,7122],[999,7207],[999,7289],[999,7374],[999,7458],[999,7542],[999,7624],[999,7708],[999,7791],[999,7874],[999,7959],[999,8041],[999,8126],[999,8210],[999,8293],[999,8393],[999,8476],[999,8560],[999,8643],[999,8728],[999,8810],[999,8895],[999,8977],[999,9061],[999,9146],[999,9228],[999,9313],[999,9408],[999,9490],[999,9576],[999,9652],[999,9741],[999,9826],[999,9910],[999,9995],[999,10080],[999,10165],[999,10247],[999,10331],[999,10416],[999,10498],[999,10583],[999,10665],[999,10749],[999,10834],[999,10917],[999,11012],[999,11097],[999,11178],[999,11265],[999,11363],[999,11449],[999,11538],[999,11624],[999,11715]]",1,0,1735.9499,1738.6597,22.62079063,1.8186,"[{""rating"":22.620790629575403,""responseTime"":1.8186000000239346}]",space,2.1631,,1738.6603,Not at all,0,1738.6666,,,[],,0,4,4,4,1,audio/Narrative7Situation4.wav,audio/Narrative8Situation4.wav,audio/Narrative5Situation4.wav,audio/Narrative6Situation4.wav,3,3,1,2,,,,,,,,,,,,,,,,,,,,,,,,,,,,,,,,,,,,,,,
,,,,,,651bfba19f10300bf4c9a12f,2024-02-08_14h12.04.601,group3.1-3.2-social-tom,2023.2.2,Win32,59.52380952,65c5074098b851296ff0b7ed,65c515cb356881ff77cd4b55,,,,,,,,,,,,,,,,,,,,,,,,,,,,,1738.667,1,audio/Narrative7Situation5.wav,1743.6712,,1743.6712,1752.146,[],1,0,1752.1461,1755.9042,11.6398243,2.7037,"[{""rating"":11.639824304538799,""responseTime"":2.7036999999879754}]",space,3.2125,,1755.9043,Partially,50,1755.9117,,,[],,0,5,5,5,1,audio/Narrative7Situation5.wav,audio/Narrative8Situation5.wav,audio/Narrative5Situation5.wav,audio/Narrative6Situation5.wav,5,2,5,2,,,,,,,,,,,,,,,,,,,,,,,,,,,,,,,,,,,,,,,
,,,,,,651bfba19f10300bf4c9a12f,2024-02-08_14h12.04.601,group3.1-3.2-social-tom,2023.2.2,Win32,59.52380952,65c5074098b851296ff0b7ed,65c515cb356881ff77cd4b55,,,,,,,,,,,,,,,,,,,,,,,,,,,,,1755.9122,1,audio/Narrative7Situation6.wav,1758.9138,,1758.914,1768.9024,"[[999,14],[999,99],[999,182],[999,267],[999,351],[999,433],[999,517],[999,613],[999,699],[999,781],[999,865],[999,954],[999,1040],[999,1125],[999,1213],[999,1293],[999,1383],[999,1464],[999,1547],[999,1632],[999,1716],[999,1794],[999,1883],[999,1967],[999,2051],[999,2139],[999,2221],[999,2304],[999,2389],[999,2472],[999,2557],[999,2639],[999,2723],[999,2807],[999,2891],[999,2975],[999,3057],[999,3141],[999,3225],[999,3320],[999,3403],[999,3488],[84.3,3573],[87.6,3671],[87.9,3755],[87.9,3838],[87.9,3921],[87.9,4005],[87.9,4084],[87.9,4172],[87.9,4257],[87.9,4341],[87.8,4431],[87.8,4514],[87.8,4594],[87.8,4679],[87.8,4777],[87.8,4862],[87.8,4947],[87.8,5028],[87.8,5113],[87.8,5197],[87.8,5293],[87.8,5375],[87.8,5464],[87.8,5547],[87.8,5630],[87.8,5727],[87.8,5811],[87.8,5894],[87.8,5972],[87.8,6061],[87.8,6146],[87.8,6229],[87.8,6312],[87.8,6396],[87.8,6484],[87.8,6567],[87.8,6663],[87.8,6748],[87.8,6830],[87.8,6914],[87.8,6997],[87.8,7081],[87.8,7165],[87.8,7248],[87.8,7332],[87.8,7416],[87.8,7499],[87.8,7586],[87.8,7669],[87.8,7753],[87.8,7837],[87.8,7920],[87.8,8018],[87.8,8101],[87.8,8185],[87.8,8269],[87.8,8351],[87.8,8436],[87.8,8515],[87.8,8609],[87.8,8700],[87.8,8789],[87.8,8885],[87.8,8970],[87.8,9054],[87.8,9137],[87.8,9219],[87.8,9295],[87.8,9382],[87.8,9469],[87.8,9553],[87.8,9642],[87.8,9734],[87.8,9821],[87.8,9904],[87.8,9988]]",1,0,1768.9027,1784.8654,62.29868228,15.4056,"[{""rating"":62.29868228404099,""responseTime"":15.405599999964124}]",space,15.4169,,1784.8655,Partially,50,1784.8726,,,[],,0,6,6,6,1,audio/Narrative7Situation6.wav,audio/Narrative8Situation6.wav,audio/Narrative5Situation6.wav,audio/Narrative6Situation6.wav,3,2,3,2,,,,,,,,,,,,,,,,,,,,,,,,,,,,,,,,,,,,,,,
,,,,,,651bfba19f10300bf4c9a12f,2024-02-08_14h12.04.601,group3.1-3.2-social-tom,2023.2.2,Win32,59.52380952,65c5074098b851296ff0b7ed,65c515cb356881ff77cd4b55,,,,,,,,,,,,,,,,,,,,,,,,,,,,,1784.873,1,audio/Narrative7Situation7.wav,1789.8773,,1789.8774,1807.0744,"[[63.2,16764],[63.2,16850],[65.2,16937],[66.4,17020],[66.5,17114],[66.5,17196]]",1,0,1807.0745,1813.6289,68.00878477,5.6194,"[{""rating"":68.00878477306003,""responseTime"":5.619399999976167}]",space,6.0198,,1813.6292,Not at all,0,1813.6375,,,[],,0,7,7,7,1,audio/Narrative7Situation7.wav,audio/Narrative8Situation7.wav,audio/Narrative5Situation7.wav,audio/Narrative6Situation7.wav,5,3,4,5,,,,,,,,,,,,,,,,,,,,,,,,,,,,,,,,,,,,,,,
,,,,,,651bfba19f10300bf4c9a12f,2024-02-08_14h12.04.601,group3.1-3.2-social-tom,2023.2.2,Win32,59.52380952,65c5074098b851296ff0b7ed,65c515cb356881ff77cd4b55,,,,,,,,,,,,,,,,,,,,,,,,,,,,,1813.6378,1,audio/Narrative7Situation8.wav,1815.6423,,1815.6424,1825.6663,"[[59.8,9482]]",1,0,1825.6665,1832.0311,41.65446559,5.3564,"[{""rating"":41.65446559297218,""responseTime"":5.356399999976247}]",space,5.8214,,1832.0314,Partially,50,1832.0362,,,[],,0,8,8,8,1,audio/Narrative7Situation8.wav,audio/Narrative8Situation8.wav,audio/Narrative5Situation8.wav,audio/Narrative6Situation8.wav,2,3,3,5,,,,,,,,,,,,,,,,,,,,,,,,,,,,,,,,,,,,,,,
,,,,,,651bfba19f10300bf4c9a12f,2024-02-08_14h12.04.601,group3.1-3.2-social-tom,2023.2.2,Win32,59.52380952,65c5074098b851296ff0b7ed,65c515cb356881ff77cd4b55,,,,,,,,,,,,,,,,,,,,,,,,,,,,,1832.0365,1,audio/Narrative7Situation9.wav,1834.0517,,1834.0518,1842.7042,"[[49.9,5574],[56.9,5657],[65.4,5739],[66.5,5815],[66.5,5905],[66.8,5994],[67.1,6079],[67.3,6160],[70.1,6246],[72.4,6331],[72.5,6412],[72.5,6495],[72.5,6578],[72.5,6661],[72.5,6745],[72.7,6832],[73.9,6919],[74.7,7002],[74.7,7084],[74.7,7169],[74.7,7252],[74.7,7335],[74.7,7433],[74.6,7534],[74.6,7632],[74.6,7715],[74.6,7799],[74.6,7884],[74.6,7966],[74.6,8050],[74.6,8135],[74.6,8218],[74.6,8302],[74.6,8386],[74.6,8465],[74.6,8555],[74.6,8651]]",1,0,1842.7046,1845.8022,74.59736457,0.9237,"[{""rating"":74.59736456808199,""responseTime"":0.92369999998823}]",space,2.5506,,1845.8023,Not at all,0,1845.8086,,,[],,0,9,9,9,1,audio/Narrative7Situation9.wav,audio/Narrative8Situation9.wav,audio/Narrative5Situation9.wav,audio/Narrative6Situation9.wav,2,3,3,4,,,,,,,,,,,,,,,,,,,,,,,,,,,,,,,,,,,,,,,
,,,,,,651bfba19f10300bf4c9a12f,2024-02-08_14h12.04.601,group3.1-3.2-social-tom,2023.2.2,Win32,59.52380952,65c5074098b851296ff0b7ed,65c515cb356881ff77cd4b55,,,,,,,,,,,,,,,,,,,,,,,,,,,,,1845.8089,1,audio/Narrative8Situation1.wav,1850.8121,,1850.8122,1866.7689,[],1,0,1866.7691,1878.1718,79.57540264,4.7334,"[{""rating"":69.03367496339679,""responseTime"":1.9224999999999},{""rating"":79.57540263543193,""responseTime"":4.7333999999762}]",space,10.866,,1878.1719,Partially,50,1878.1966,,,[],,0,10,10,10,1,audio/Narrative8Situation1.wav,audio/Narrative7Situation1.wav,audio/Narrative6Situation1.wav,audio/Narrative5Situation1.wav,5,2,2,5,,,,,,,,,,,,,,,,,,,,,,,,,,,,,,,,,,,,,,,
,,,,,,651bfba19f10300bf4c9a12f,2024-02-08_14h12.04.601,group3.1-3.2-social-tom,2023.2.2,Win32,59.52380952,65c5074098b851296ff0b7ed,65c515cb356881ff77cd4b55,,,,,,,,,,,,,,,,,,,,,,,,,,,,,1878.197,1,audio/Narrative8Situation2.wav,1881.2025,,1881.2028,1891.3212,"[[999,17],[999,96],[999,175],[999,260],[999,356],[999,441],[999,523],[999,604],[999,688],[999,774],[999,858],[999,942],[999,1025],[999,1109],[999,1192],[999,1276],[999,1360],[999,1446],[71.1,1544],[75,1634],[76.4,1720],[76.5,1801],[76.5,1883],[76.5,1978],[76.5,2062],[77.1,2148],[77.7,2232],[78.7,2317],[78.7,2399],[79.1,2497],[79.3,2580],[79.3,2662],[79.7,2748],[79.7,2831],[79.7,2914],[79.7,2992],[79.7,3081],[79.7,3164],[79.7,3249],[79.7,3347],[79.7,3432],[79.7,3519],[79.7,3603],[79.7,3687],[79.7,3780],[78.7,3866],[49.9,3951],[34.6,4619],[35.8,4702],[35.8,4783],[35.8,4868],[39,4953],[39.5,5035],[40.3,5115],[40.3,5201],[40.3,5285],[40.3,5368],[40.3,5452],[40.3,5531],[40.3,5619],[40.3,5703],[40.3,5785],[40.3,5870],[40.3,5954],[40.3,6038],[40.3,6121],[40.3,6204],[40.3,6288],[40.3,6371],[40.3,6455],[40.2,6538],[40.2,6623],[40.2,6706],[40.2,6789],[40.2,6873],[40.2,6957],[40.2,7041],[39.9,7125],[39.3,7208],[39.2,7291],[39.2,7375],[39.2,7457],[39.2,7541],[39.2,7641],[39.2,7726],[39.2,7809],[38.4,7900],[38.4,7980],[38.4,8064],[38,8149],[38,8230],[38,8317],[38,8399],[38,8482],[38,8577],[38,8664],[38,8744],[38,8823],[38,8901],[38,8983],[38,9067],[38,9152],[38,9238],[38,9323],[38,9432],[38,9517],[38,9600],[38,9683],[38,9767],[38,9849],[38,9933],[38,10017],[38,10100]]",1,0,1891.3213,1899.7441,47.65739385,8.0569,"[{""rating"":66.83748169838945,""responseTime"":3.9076999999879263},{""rating"":47.657393850658856,""responseTime"":8.05690000003574}]",space,7.8836,,1899.7445,Definitely yes,100,1899.7542,,,[],,0,11,11,11,1,audio/Narrative8Situation2.wav,audio/Narrative7Situation2.wav,audio/Narrative6Situation2.wav,audio/Narrative5Situation2.wav,3,3,3,3,,,,,,,,,,,,,,,,,,,,,,,,,,,,,,,,,,,,,,,
,,,,,,651bfba19f10300bf4c9a12f,2024-02-08_14h12.04.601,group3.1-3.2-social-tom,2023.2.2,Win32,59.52380952,65c5074098b851296ff0b7ed,65c515cb356881ff77cd4b55,,,,,,,,,,,,,,,,,,,,,,,,,,,,,1899.7547,1,audio/Narrative8Situation3.wav,1903.7644,,1903.7648,1926.152,"[[999,17],[999,103],[999,189],[999,271],[999,354],[999,441],[999,524],[999,608],[999,708],[999,796],[999,891],[999,974],[999,1057],[999,1141],[999,1224],[999,1309],[999,1392],[999,1475],[999,1560],[999,1642],[999,1725],[999,1810],[999,1893],[999,1976],[999,2061],[999,2144],[999,2227],[999,2312],[999,2396],[999,2482],[999,2573],[999,2662],[999,2745],[999,2828],[999,2911],[999,2994],[999,3079],[999,3163],[999,3239],[999,3329],[999,3412],[999,3498],[999,3576],[999,3663],[999,3745],[999,3826],[999,3914],[999,3998],[999,4077],[999,4164],[999,4245],[999,4332],[999,4416],[999,4494],[999,4582],[999,4666],[999,4743],[999,4828],[999,4915],[999,5001],[999,5086],[999,5170],[999,5254],[999,5336],[999,5421],[999,5504],[999,5588],[999,5673],[999,5757],[999,5841],[999,5923],[999,6004],[999,6089],[999,6173],[999,6271],[999,6355],[999,6438],[999,6523],[999,6607],[999,6700],[999,6783],[999,6873],[999,6953],[999,7041],[999,7125],[999,7208],[999,7309],[999,7388],[999,7475],[999,7559],[999,7642],[999,7727],[999,7806],[999,7893],[999,7976],[999,8057],[999,8147],[999,8243],[999,8322],[999,8411],[999,8496],[999,8575],[999,8664],[999,8747],[999,8829],[999,8912],[999,8993],[999,9078],[999,9163],[999,9242],[999,9332],[999,9414],[999,9494],[999,9581],[999,9669],[68.9,9768],[70.6,9854],[70.9,9946],[70.9,10033],[72,10116],[72.5,10198],[72.7,10281],[72.7,10365],[72.7,10449],[72.7,10532],[72.7,10612],[72.7,10700],[72.8,10783],[73,10867],[73,10950],[73.4,11034],[73.4,11117],[73.4,11201],[73.4,11284],[73.4,11368],[71.8,11454],[68.9,11537],[68.9,11618],[67.9,11704],[66.4,13124],[68.2,13542],[68.4,13627],[69.2,13709],[70.4,13793],[70.8,13877],[70.9,13958],[71.4,14042],[71.4,14126],[71.5,14209],[72,14293],[73,14377],[75,14461],[77.2,14545],[79,14629],[79,14710],[79,14797],[79,14876],[79,14955],[79,15035],[79,15118],[79,15203],[79,15285],[79,15368],[79,15454],[79,15535],[79,15620],[79,15701],[79,15796],[79,15895],[80,15990]]",1,0,1926.1521,1938.6333,69.6193265,4.1101,"[{""rating"":69.61932650073206,""responseTime"":4.110099999964177}]",space,11.9349,,1938.6334,Definitely yes,100,1938.6536,,,[],,0,12,12,12,1,audio/Narrative8Situation3.wav,audio/Narrative7Situation3.wav,audio/Narrative6Situation3.wav,audio/Narrative5Situation3.wav,4,8,5,3,,,,,,,,,,,,,,,,,,,,,,,,,,,,,,,,,,,,,,,
,,,,,,651bfba19f10300bf4c9a12f,2024-02-08_14h12.04.601,group3.1-3.2-social-tom,2023.2.2,Win32,59.52380952,65c5074098b851296ff0b7ed,65c515cb356881ff77cd4b55,,,,,,,,,,,,,,,,,,,,,,,,,,,,,1938.6539,1,audio/Narrative8Situation4.wav,1941.6626,,1941.6628,1955.8494,"[[999,2],[999,83],[999,171],[999,251],[999,335],[999,419],[999,498],[999,584],[999,670],[999,755],[999,843],[999,931],[999,1013],[999,1095],[999,1189],[999,1276],[999,1362],[999,1462],[999,1563],[999,1643],[999,1730],[999,1814],[999,1894],[999,1981],[999,2064],[999,2140],[999,2230],[999,2315],[999,2393],[999,2481],[999,2564],[999,2653],[999,2739],[999,2839],[999,2933],[999,3015],[999,3109],[999,3189],[999,3272],[999,3355],[999,3439],[999,3523],[999,3606],[999,3689],[999,3773],[999,3857],[999,3940],[999,4023],[999,4116],[999,4202],[999,4287],[999,4371],[999,4453],[999,4537],[999,4616],[999,4704],[999,4780],[999,4872],[999,4951],[999,5038],[999,5122],[999,5205],[999,5286],[999,5372],[999,5457],[999,5536],[999,5619],[999,5707],[999,5791],[999,5875],[999,5959],[999,6037],[999,6126],[999,6211],[999,6286],[999,6364],[999,6452],[999,6533],[999,6618],[999,6699],[999,6788],[999,6868],[999,6952],[999,7033],[999,7120],[73.7,7224],[74,7317],[74,7414],[74,7500],[74,7575],[74.5,7663],[74.5,7741],[74.9,7825],[75,7905],[78.1,7994],[78.8,8078],[79,8159],[79,8240],[79,8324],[79,8403],[79,8489],[79,8572],[79,8656],[79,8739],[79,8826],[79,8917],[79,8999],[80,9083],[81.3,9168],[81.9,9265],[81.9,9349],[81.9,9437],[81.9,9520],[81.9,9603],[81.9,9686],[81.9,9769],[81.9,9854],[81.9,9938],[81.9,10016],[81.9,10096],[81.9,10175],[81.9,10263],[81.9,10342],[82.1,10430]]",1,0,1955.8496,1964.5513,78.40409956,3.3224,"[{""rating"":78.40409956076135,""responseTime"":3.3223999999761418}]",space,8.1553,,1964.5513,Not at all,0,1964.5697,,,[],,0,13,13,13,1,audio/Narrative8Situation4.wav,audio/Narrative7Situation4.wav,audio/Narrative6Situation4.wav,audio/Narrative5Situation4.wav,3,3,2,1,,,,,,,,,,,,,,,,,,,,,,,,,,,,,,,,,,,,,,,
,,,,,,651bfba19f10300bf4c9a12f,2024-02-08_14h12.04.601,group3.1-3.2-social-tom,2023.2.2,Win32,59.52380952,65c5074098b851296ff0b7ed,65c515cb356881ff77cd4b55,,,,,,,,,,,,,,,,,,,,,,,,,,,,,1964.5699,1,audio/Narrative8Situation5.wav,1966.5796,,1966.5798,1974.8131,"[[999,1],[999,84],[999,164],[999,250],[999,334],[999,415],[999,498],[999,582],[999,668],[999,753],[999,837],[999,918],[999,1000],[999,1083],[999,1167],[999,1251],[999,1337],[999,1420],[999,1505],[999,1584],[999,1672],[999,1757],[999,1837],[999,1925],[999,2005],[999,2088],[999,2174],[999,2255],[999,2342],[999,2430],[999,2513],[999,2595],[999,2679],[999,2765],[999,2849],[999,2962],[999,3038],[999,3132],[999,3220],[999,3305],[999,3391],[999,3485],[999,3572],[999,3660],[999,3754],[999,3839],[999,3938],[999,4021],[999,4105],[999,4190],[999,4275],[999,4359],[999,4459],[999,4573],[999,4672],[999,4755],[999,4842],[999,4931],[999,5018],[999,5108],[999,5190],[999,5275],[999,5357],[999,5441],[999,5538],[999,5626],[999,5711],[999,5795],[999,5898],[999,5980],[999,6076],[999,6164],[999,6248],[999,6330],[999,6425],[999,6515],[999,6612],[999,6693],[999,6773],[999,6861],[999,6948],[999,7024],[999,7112],[999,7196],[999,7274],[999,7362],[999,7442],[999,7525],[999,7611],[999,7701],[999,7785],[999,7868],[999,7952],[999,8047],[999,8131],[999,8210]]",1,0,1974.8133,1982.023,75.76866764,1.8714,"[{""rating"":75.76866764275256,""responseTime"":1.8714000000356918}]",space,6.6563,,1982.0239,Definitely yes,100,1982.0443,,,[],,0,14,14,14,1,audio/Narrative8Situation5.wav,audio/Narrative7Situation5.wav,audio/Narrative6Situation5.wav,audio/Narrative5Situation5.wav,2,5,2,5,,,,,,,,,,,,,,,,,,,,,,,,,,,,,,,,,,,,,,,
,,,,,,651bfba19f10300bf4c9a12f,2024-02-08_14h12.04.601,group3.1-3.2-social-tom,2023.2.2,Win32,59.52380952,65c5074098b851296ff0b7ed,65c515cb356881ff77cd4b55,,,,,,,,,,,,,,,,,,,,,,,,,,,,,1982.0447,1,audio/Narrative8Situation6.wav,1984.0539,,1984.0541,1990.5236,"[[999,0],[999,87],[999,170],[999,256],[999,353],[999,451],[999,534],[999,617],[999,703],[999,786],[999,869],[999,954],[999,1036],[999,1119],[999,1204],[999,1287],[999,1369],[999,1454],[999,1537],[999,1622],[999,1705],[999,1788],[999,1873],[999,1955],[999,2038],[999,2123],[999,2205],[999,2290],[999,2373],[999,2456],[999,2540],[999,2624],[999,2707],[999,2791],[999,2876],[999,2957],[999,3042],[999,3125],[999,3209],[999,3292],[999,3375],[999,3460],[999,3547],[999,3628],[999,3712],[999,3794],[999,3877],[999,3961],[999,4047],[999,4129],[999,4211],[999,4297],[999,4380],[999,4463],[999,4549],[999,4633],[999,4712],[999,4798],[999,4882],[999,4966],[999,5047],[999,5132],[999,5214],[999,5299],[999,5405],[999,5503],[999,5608],[999,5704],[999,5793],[999,5883],[999,5967],[999,6045],[999,6134],[999,6217],[999,6300],[999,6386],[999,6468]]",1,0,1990.5236,1993.7986,64.0556369,1.8406,"[{""rating"":64.05563689604685,""responseTime"":1.8405999999642972}]",space,2.7469,,1993.7987,Partially,50,1993.8061,,,[],,0,15,15,15,1,audio/Narrative8Situation6.wav,audio/Narrative7Situation6.wav,audio/Narrative6Situation6.wav,audio/Narrative5Situation6.wav,2,3,2,3,,,,,,,,,,,,,,,,,,,,,,,,,,,,,,,,,,,,,,,
,,,,,,651bfba19f10300bf4c9a12f,2024-02-08_14h12.04.601,group3.1-3.2-social-tom,2023.2.2,Win32,59.52380952,65c5074098b851296ff0b7ed,65c515cb356881ff77cd4b55,,,,,,,,,,,,,,,,,,,,,,,,,,,,,1993.8065,1,audio/Narrative8Situation7.wav,1996.8234,,1996.8235,2008.9125,"[[999,0],[999,86],[999,182],[999,266],[999,348],[999,431],[999,514],[999,601],[999,682],[999,769],[999,867],[999,951],[999,1040],[999,1118],[999,1204],[999,1286],[999,1371],[999,1453],[999,1537],[999,1621],[999,1705],[999,1787],[999,1872],[999,1955],[999,2038],[999,2122],[999,2206],[999,2288],[999,2374],[999,2455],[999,2540],[999,2624],[999,2706],[999,2793],[999,2877],[999,2956],[999,3045],[999,3137],[999,3218],[999,3307],[999,3393],[999,3482],[999,3576],[67.3,3679],[67.6,3765],[67.6,3846],[67.6,3929],[67.6,4025],[67.6,4111],[67.6,4195],[74,4284],[77.8,4369],[79.1,4454],[79.1,4542],[79.1,4625],[79.1,4702],[79.1,4785],[79.1,4866],[79.6,4951],[80.2,5041],[80.5,5129],[80.5,5208],[80.5,5289],[80.5,5368],[80.5,5451],[80.6,5536],[80.6,5621],[80.6,5701],[80.6,5792],[80.6,5868],[80.6,5952],[80.6,6036],[80.6,6123],[80.6,6203],[80.6,6291],[80.6,6376],[80.6,6454],[80.6,6538],[80.6,6621],[80.6,6705],[80.6,6790],[80.6,6871],[80.6,6955],[80.6,7041],[80.6,7122],[80.6,7207],[80.6,7288],[80.6,7373],[80.6,7458],[80.6,7540],[80.6,7623],[81.3,7712],[82.2,7795]]",1,0,2008.9131,2013.9187,64.64128843,4.5388,"[{""rating"":64.64128843338214,""responseTime"":4.538800000012088}]",space,4.4634,,2013.9187,Partially,50,2013.9237,,,[],,0,16,16,16,1,audio/Narrative8Situation7.wav,audio/Narrative7Situation7.wav,audio/Narrative6Situation7.wav,audio/Narrative5Situation7.wav,3,5,5,4,,,,,,,,,,,,,,,,,,,,,,,,,,,,,,,,,,,,,,,
,,,,,,651bfba19f10300bf4c9a12f,2024-02-08_14h12.04.601,group3.1-3.2-social-tom,2023.2.2,Win32,59.52380952,65c5074098b851296ff0b7ed,65c515cb356881ff77cd4b55,,,,,,,,,,,,,,,,,,,,,,,,,,,,,2013.9249,1,audio/Narrative8Situation8.wav,2016.9252,,2016.9252,2029.7657,"[[65.2,12654],[65.2,12739],[65.2,12824]]",1,0,2029.766,2033.5229,59.66325037,2.7549,"[{""rating"":59.663250366032216,""responseTime"":2.754900000035832}]",space,3.2245,,2033.523,Not at all,0,2033.5307,,,[],,0,17,17,17,1,audio/Narrative8Situation8.wav,audio/Narrative7Situation8.wav,audio/Narrative6Situation8.wav,audio/Narrative5Situation8.wav,3,2,5,3,,,,,,,,,,,,,,,,,,,,,,,,,,,,,,,,,,,,,,,
,,,,,,651bfba19f10300bf4c9a12f,2024-02-08_14h12.04.601,group3.1-3.2-social-tom,2023.2.2,Win32,59.52380952,65c5074098b851296ff0b7ed,65c515cb356881ff77cd4b55,,,,,,,,,,,,,,,,,,,,,,,,,,,,,2033.5311,1,audio/Narrative8Situation9.wav,2036.5317,,2036.5319,2047.847,"[[60.4,1542],[61.7,1642],[62.2,1725],[63.3,1821],[64.5,1907],[64.6,1984],[64.6,2065],[65.4,2150],[65.8,2230],[67.1,2318],[67.3,2400],[67.3,2481],[67.4,2561],[67.4,2643],[67.4,2726],[67.4,2810],[67.4,2896],[67.4,2977],[67.4,3064],[67.4,3150],[67.4,3233],[67.3,3321],[67.3,3424],[67.3,3518],[67.3,3611],[67.3,3713],[68.3,3804],[72.3,3903],[75,4008],[75.2,4097],[75.3,4195],[75.8,4275],[75.9,4354],[76.2,4440],[76.2,4523],[76.2,4599],[76.2,4682],[76.2,4767],[76.2,4852],[76.2,4933],[76.2,5021],[76.2,5102],[76.2,5186],[76.2,5268],[76.2,5350],[76.2,5433],[76.2,5519],[76.9,5602],[82.4,5685],[83.1,5768],[83.1,5852],[83.1,5937],[82.8,6023],[82.7,6102],[82.5,6186],[82.5,6269],[82.4,6356],[82.1,6437],[81.3,6521],[79,6609],[77.8,6692],[76.2,6776],[76.1,6854],[75.9,6942],[75.9,7021],[75.9,7106],[75.9,7187],[75.9,7272],[75.9,7358],[75.9,7439],[75.9,7524],[75.9,7606],[75.9,7689],[75.9,7772],[75.9,7857],[75.9,7943],[75.9,8024],[75.9,8108],[75.9,8192],[75.9,8274],[75.9,8359],[75.9,8442],[75.9,8529],[75.9,8609],[75.9,8693],[75.9,8777],[75.9,8860],[75.9,8946],[75.9,9027],[75.9,9112],[75.8,9194],[75.8,9277],[75.8,9362],[75.8,9443],[75.8,9528],[75.8,9615],[75.8,9695],[75.8,9782],[75.8,9863],[75.8,9946],[75.8,10032],[75.8,10113],[75.8,10197],[75.8,10280],[75.8,10367],[75.8,10452],[75.8,10533],[75.8,10616],[75.8,10702],[75.8,10788],[75.8,10869],[75.8,10954],[75.8,11045],[75.8,11152],[75.8,11245]]",1,0,2047.8473,2055.4748,70.05856515,6.8604,"[{""rating"":76.06149341142022,""responseTime"":2.3736999999882755},{""rating"":70.05856515373353,""responseTime"":6.86039999997638}]",space,7.0925,,2055.4751,Definitely yes,100,2067.6827,99.78038067,9.7937,"[{""rating"":99.78038067349927,""responseTime"":9.793699999987894}]",space,0,18,18,18,1,audio/Narrative8Situation9.wav,audio/Narrative7Situation9.wav,audio/Narrative6Situation9.wav,audio/Narrative5Situation9.wav,3,2,4,3,,,11.6646,,,,,,,,,,,,,,,,,,,,,,,,,,,,,,,,,,,,
,,,,,,651bfba19f10300bf4c9a12f,2024-02-08_14h12.04.601,group3.1-3.2-social-tom,2023.2.2,Win32,59.52380952,65c5074098b851296ff0b7ed,65c515cb356881ff77cd4b55,,,,,,,,,,,,,,,,,,,,,,,,,,,2127.6925,2130.2634,2130.2877,2,audio/Narrative13Situation2.wav,2130.2879,,2130.288,2160.0373,[],1,0,2160.0374,2160.0603,,,[],,,,2160.0604,Not at all,0,2160.0639,,,[],,0,0,0,0,1,audio/Narrative13Situation2.wav,audio/Narrative13Situation2.wav,audio/Narrative13Situation2.wav,audio/Narrative13Situation2.wav,2,2,2,2,,,,,2067.6854,2127.6761,,,,,,,,,,,,,,,,,,,,,,,,,,,,,,,,,
,,,,,,651bfba19f10300bf4c9a12f,2024-02-08_14h12.04.601,group3.1-3.2-social-tom,2023.2.2,Win32,59.52380952,65c5074098b851296ff0b7ed,65c515cb356881ff77cd4b55,,,,,,,,,,,,,,,,,,,,,,,,,,,,,2160.0644,2,audio/Narrative5Situation1.wav,2165.0749,,2165.0752,2178.3529,"[[999,18],[999,104],[999,189],[999,270],[999,355],[999,439],[999,523],[999,601],[999,692],[999,774],[999,861],[999,957],[999,1039],[999,1126],[999,1208],[999,1291],[999,1369],[999,1458],[999,1537],[999,1625],[999,1708],[999,1792],[999,1876],[999,1956],[999,2038],[999,2119],[999,2204],[999,2292],[999,2371],[999,2454],[999,2544],[999,2621],[999,2710],[999,2793],[999,2872],[999,2959],[999,3044],[999,3123],[999,3212],[999,3291],[999,3374],[999,3462],[999,3542],[999,3628],[999,3713],[999,3797],[999,3880],[999,3964],[999,4042],[999,4130],[999,4227],[999,4315],[999,4397],[999,4482],[999,4561],[999,4649],[999,4732],[999,4810],[999,4899],[77.5,5323],[77.5,5406],[77.4,5491],[77.2,5573],[77.2,5657],[77.2,5740],[77.2,5824],[77.2,5907],[76.2,5991],[75.8,6075],[74.5,6158],[70.2,6243],[68,6325],[68,6408],[68,6491],[68,6576],[68,6659],[68,6743],[67.9,6826],[66.8,6927],[66.3,7010],[64.2,7099],[64.5,8030],[70.2,8115],[71.7,8201],[72.5,8286],[72.5,8377],[72.5,8456],[72.5,8545],[72.5,8622],[72.5,8710],[72.5,8795],[72.5,8878],[72.5,8964],[72.5,9044],[72.5,9121],[72.5,9205],[72.5,9283],[72.5,9366],[72.5,9451],[72.5,9536],[72.5,9618],[72.5,9701],[72.5,9786],[72.5,9870],[72.5,9953],[72.5,10038],[72.5,10121],[72.5,10206],[72.5,10288],[72.5,10373],[72.5,10456],[72.5,10539],[72.5,10623],[72.5,10704],[72.5,10788],[72.5,10871],[72.5,10958],[72.5,11038],[72.5,11122],[72.5,11206],[72.5,11293],[72.5,11373],[72.5,11456],[72.5,11540],[72.5,11624],[72.5,11706],[72.5,11790],[72.5,11875],[72.5,11957],[72.5,12041],[72.5,12125],[72.5,12208],[72.5,12292],[72.5,12375],[72.5,12459],[72.5,12541],[72.5,12625],[72.5,12710],[72.5,12793],[72.5,12876],[72.5,12960],[72.5,13042],[72.5,13127],[72.5,13211]]",1,0,2178.3535,2182.6871,79.72181552,3.628,"[{""rating"":72.5475841874085,""responseTime"":0.9010999999645719},{""rating"":79.72181551976574,""responseTime"":3.6280000000001564}]",space,3.8018,,2182.6874,Not at all,0,2209.7266,0,25.5079,"[{""rating"":0,""responseTime"":25.50789999997596}]",space,0,1,1,1,1,audio/Narrative7Situation1.wav,audio/Narrative8Situation1.wav,audio/Narrative5Situation1.wav,audio/Narrative6Situation1.wav,2,5,5,2,,,26.4935,,,,,,,,,,,,,,,,,,,,,,,,,,,,,,,,,,,,
,,,,,,651bfba19f10300bf4c9a12f,2024-02-08_14h12.04.601,group3.1-3.2-social-tom,2023.2.2,Win32,59.52380952,65c5074098b851296ff0b7ed,65c515cb356881ff77cd4b55,,,,,,,,,,,,,,,,,,,,,,,,,,,,,2209.7276,2,audio/Narrative5Situation2.wav,2212.741,,2212.741,2242.1973,"[[999,0],[999,89],[999,171],[999,269],[999,354],[999,439],[999,531],[999,639],[999,741],[999,837],[999,922],[999,1021],[999,1104],[999,1183],[999,1273],[999,1355],[999,1437],[999,1529],[999,1628],[999,1719],[999,1808],[999,1891],[999,1973],[999,2060],[999,2144],[999,2228],[999,2311],[999,2394],[999,2492],[999,2574],[999,2660],[999,2740],[999,2821],[999,2909],[999,2997],[999,3079],[999,3163],[999,3246],[999,3342],[999,3427],[999,3511],[999,3593],[999,3677],[999,3754],[999,3838],[999,3927],[999,4005],[999,4093],[999,4169],[999,4257],[999,4340],[999,4423],[999,4512],[999,4596],[999,4675],[999,4762],[999,4846],[999,4929],[999,5013],[999,5097],[999,5177],[999,5266],[999,5348],[999,5428],[999,5515],[999,5593],[999,5675],[999,5765],[999,5852],[999,5937],[999,6020],[999,6105],[999,6200],[999,6284],[999,6368],[999,6451],[999,6529],[999,6618],[999,6702],[999,6785],[999,6861],[999,6952],[999,7029],[999,7119],[999,7201],[999,7286],[999,7370],[999,7453],[999,7528],[999,7621],[999,7704],[999,7789],[999,7871],[999,7955],[999,8033],[999,8122],[999,8205],[999,8287],[999,8373],[999,8462],[999,8544],[999,8627],[999,8713],[999,8811],[999,8910],[999,9002],[999,9089],[999,9176],[999,9264],[999,9347],[999,9427],[999,9502],[999,9582],[999,9664],[999,9750],[999,9913],[999,9995],[999,10078],[999,10177],[999,10262],[999,10343],[999,10432],[999,10513],[999,10593],[999,10676],[999,10763],[999,10842],[999,10932],[999,11012],[999,11095],[999,11181],[999,11263],[999,11339],[999,11420],[999,11511],[999,11591],[999,11676],[999,11754],[999,11839],[999,11926],[999,12006],[999,12092],[999,12172],[999,12254],[999,12339],[999,12423],[999,12507],[999,12594],[999,12673],[999,12757],[999,12844],[999,12923],[999,13010],[999,13090],[999,13174],[999,13259],[999,13341],[999,13424],[999,13508],[999,13594],[999,13676],[999,13763],[999,13845],[999,13926],[999,14013],[999,14094],[999,14177],[999,14261],[999,14348],[999,14427],[999,14511],[999,14598],[999,14677],[999,14762],[999,14849],[999,14930],[999,15016],[999,15097],[999,15180],[999,15262],[999,15348],[999,15429],[999,15514],[999,15598],[999,15681],[999,15764],[999,15847],[999,15932],[999,16014],[999,16099],[999,16182],[999,16266],[999,16350],[999,16433],[999,16517],[999,16600],[999,16684],[999,16768],[999,16851],[999,16933],[999,17017],[999,17100],[999,17185],[999,17268],[999,17352],[999,17435],[999,17518],[999,17603],[999,17686],[999,17769],[999,17853],[999,17937],[999,18020],[999,18105],[999,18187],[999,18271],[999,18355],[999,18437],[999,18522],[999,18606],[999,18688],[999,18773],[999,18857],[999,18940],[999,19023],[999,19107],[999,19190],[999,19274],[999,19362],[999,19444],[999,19528],[999,19615],[999,19692],[999,19781],[999,19860],[999,19943],[999,20028],[999,20113],[999,20195],[999,20276],[999,20365],[999,20446],[999,20527],[999,20612],[999,20697],[999,20783],[999,20863],[999,20946],[999,21029],[999,21117],[999,21200],[999,21280],[999,21367],[999,21452],[999,21541],[999,21625],[999,21702],[999,21784],[999,21864],[999,21949],[999,22031],[999,22118],[999,22200],[999,22283],[999,22370],[999,22450],[999,22537],[999,22618],[999,22703],[999,22788],[999,22866],[999,22956],[999,23034],[999,23123],[999,23203],[999,23289],[999,23376],[999,23452],[999,23537],[999,23621],[999,23705],[999,23789],[999,23872],[999,23956],[999,24041],[999,24122],[999,24207],[999,24290],[999,24370],[999,24455],[999,24539],[999,24627],[999,24709],[999,24792],[999,24872],[999,24955],[999,25040],[999,25129],[999,25212],[58.9,25312],[58.9,25403],[58.9,25486],[58.9,25570],[58.9,25653],[58.9,25737],[58.9,25818],[58.9,25904],[59.2,25988],[59.5,26079],[60,26160],[60.7,26244],[62.2,26327],[63.9,26409],[67.6,26494],[73.1,26578],[76.9,26660],[77.5,26743],[77.5,26828],[77.5,26911],[77.5,26994],[77.5,27078],[77.4,27162],[77.4,27246],[77.4,27330],[77.4,27413],[77.2,27495],[77.2,27579],[77.1,27663],[77.1,27747],[77.1,27830],[77.1,27914],[77.1,27998],[77.1,28080],[77.1,28164],[77.1,28247],[77.1,28331],[77.1,28414],[77.1,28500],[77.1,28583],[77.1,28666],[77.1,28749],[77.1,28838],[77.1,28916],[77.1,29000],[76.8,29085],[76.1,29168],[73.6,29254],[73.6,29335],[73.6,29418]]",1,0,2242.1977,2260.892,60.98096633,5.1751,"[{""rating"":60.980966325036604,""responseTime"":5.175099999964459}]",space,18.1478,,2260.8921,Partially,50,2260.9152,,,[],,0,2,2,2,1,audio/Narrative7Situation2.wav,audio/Narrative8Situation2.wav,audio/Narrative5Situation2.wav,audio/Narrative6Situation2.wav,3,3,3,3,,,,,,,,,,,,,,,,,,,,,,,,,,,,,,,,,,,,,,,
,,,,,,651bfba19f10300bf4c9a12f,2024-02-08_14h12.04.601,group3.1-3.2-social-tom,2023.2.2,Win32,59.52380952,65c5074098b851296ff0b7ed,65c515cb356881ff77cd4b55,,,,,,,,,,,,,,,,,,,,,,,,,,,,,2260.9158,2,audio/Narrative5Situation3.wav,2263.9275,,2263.9278,2277.8354,"[[999,2],[999,102],[999,187],[999,265],[999,355],[999,435],[999,518],[999,606],[999,692],[999,773],[999,858],[999,951],[999,1039],[999,1122],[999,1204],[999,1295],[999,1377],[999,1461],[999,1543],[999,1627],[999,1712],[999,1795],[999,1878],[999,1963],[999,2045],[999,2129],[999,2213],[999,2296],[999,2380],[999,2464],[999,2547],[999,2630],[999,2714],[999,2797],[999,2881],[999,2964],[999,3059],[999,3144],[999,3227],[999,3312],[999,3396],[999,3478],[999,3562],[999,3646],[999,3729],[999,3812],[999,3897],[999,3981],[999,4064],[999,4142],[999,4231],[999,4308],[999,4397],[999,4482],[999,4566],[999,4650],[999,4732],[999,4815],[999,4900],[999,4984],[999,5067],[999,5150],[999,5233],[999,5312],[999,5395],[999,5482],[999,5567],[999,5651],[999,5734],[999,5818],[999,5902],[999,5980],[999,6069],[999,6144],[999,6234],[999,6314],[999,6404],[999,6495],[999,6576],[999,6670],[999,6752],[999,6833],[999,6921],[999,7004],[999,7086],[999,7169],[999,7257],[999,7334],[999,7422],[999,7507],[999,7586],[999,7674],[999,7758],[999,7836],[999,7925],[999,8013],[999,8095],[999,8179],[999,8274],[999,8360],[999,8444],[999,8526],[999,8607],[999,8693],[999,8771],[999,8859],[999,8942],[999,9027],[999,9112],[999,9192],[999,9278],[999,9362],[999,9440],[999,9529],[999,9614],[999,9691],[999,9780],[999,9863],[999,9947],[999,10029],[999,10114],[999,10215],[999,10303],[999,10398],[999,10476],[999,10565],[999,10649],[999,10731],[999,10815],[999,10902],[999,10986],[999,11068],[999,11156],[999,11251],[999,11335],[999,11416],[999,11494],[999,11583],[999,11667],[999,11752],[999,11836],[999,11918],[999,11996],[999,12084],[999,12165],[999,12253],[999,12336],[999,12420],[999,12506],[999,12586],[999,12664],[999,12753],[999,12837],[999,12922],[999,13005],[999,13088],[999,13172],[999,13255],[51.2,13354],[46.8,13441],[46.3,13523],[46.3,13606],[46.5,13690],[47.1,13774],[48.1,13857]]",1,0,2277.8356,2283.895,42.5329429,5.4126,"[{""rating"":42.532942898975115,""responseTime"":5.412599999964186}]",space,5.5231,,2283.8954,Not at all,0,2283.8996,,,[],,0,3,3,3,1,audio/Narrative7Situation3.wav,audio/Narrative8Situation3.wav,audio/Narrative5Situation3.wav,audio/Narrative6Situation3.wav,8,4,3,5,,,,,,,,,,,,,,,,,,,,,,,,,,,,,,,,,,,,,,,
,,,,,,651bfba19f10300bf4c9a12f,2024-02-08_14h12.04.601,group3.1-3.2-social-tom,2023.2.2,Win32,59.52380952,65c5074098b851296ff0b7ed,65c515cb356881ff77cd4b55,,,,,,,,,,,,,,,,,,,,,,,,,,,,,2283.8999,2,audio/Narrative5Situation4.wav,2284.9101,,2284.9103,2305.3098,"[[42.7,332],[42.8,417],[43.1,500],[43.1,583],[43.1,670],[43.1,755],[43.1,839],[43.1,921],[43.4,1002],[44.1,1090],[45.3,1171],[55,1253],[63.6,1340],[63.9,1420],[63.9,1506],[63.8,1587],[63.8,1669],[63.8,1752],[63.8,1838],[63.8,1920],[63.8,2010],[63.8,2089],[63.8,2172],[63.8,2254],[63.8,2345],[63.6,2428],[63.6,2505],[63.6,2589],[63.6,2672],[63.6,2757],[63.6,2840],[63.6,2924],[63.6,3007],[63.6,3090],[63.6,3174],[63.6,3256],[63.6,3342],[63.6,3425],[63.6,3507],[63.6,3594],[63.6,3674],[63.6,3759],[63.6,3844],[63.6,3926],[63.6,4008],[63.6,4093],[63.6,4180],[63.6,4261],[63.6,4349],[63.6,4428],[63.6,4511],[63.6,4594],[63.6,4678],[63.6,4764],[63.6,4847],[63.6,4935],[63.6,5017],[63.6,5097],[63.6,5181],[63.6,5263],[63.6,5347],[63.6,5431],[63.6,5518],[63.6,5599],[63.6,5684],[63.6,5765],[63.6,5848],[63.6,5934],[63.6,6016],[63.6,6100],[63.6,6186],[63.6,6268],[63.6,6351],[62.2,6456],[62,6541],[62,6633],[61.7,6717],[61.4,6801],[61,6883],[58.5,6970],[56.7,7053],[56.3,7148],[56.3,7230],[56.3,7319],[54,7402],[49.1,7486],[47.7,7574],[47.5,7668],[47.5,7749],[47.5,7835],[47.5,7916],[47.5,8001],[47.5,8087],[46,8187],[45.5,8264],[44.9,8355],[43.7,8441],[43.4,8523],[43.4,8617],[43.4,8702],[42.8,8788],[42.8,8885],[44.3,8975],[54,9061],[54.7,9154],[54.7,9237],[54.7,9320],[56.9,9410],[62.3,10829],[58.1,10912],[58.1,10994],[58.1,11077],[58.1,11163],[58.1,11245],[58.1,11329],[58.1,11413],[59.4,11496],[59.8,11580],[59.8,11663],[59.8,11747],[60,11831],[60.4,11914],[60.4,12004],[60.4,12080],[60.4,12165],[60.4,12259],[60.4,12346],[60.4,12427],[60.4,12510],[60.4,12594],[60.2,12683],[60.2,12761],[60.2,12845],[60.2,12928],[60.2,13013],[60.2,13096],[60.2,13179],[60.2,13263],[60.2,13342],[60.2,13425],[60.2,13513],[60.2,13598],[60.2,13682],[60.2,13765],[60.2,13848],[60.2,13931],[60.2,14015],[60.2,14097],[60.2,14182],[60.2,14266],[60.2,14347],[60.2,14432],[60.2,14518],[60.2,14602],[60.2,14681],[60.2,14766],[61,14850],[62.3,14939],[62.3,15020],[62.3,15102],[62.3,15188],[62.3,15270],[62.3,15354],[62.3,15439],[62.3,15522],[62.3,15604],[62.3,15689],[62.3,15775],[62.3,15871],[62.3,15955],[62.3,16039],[62.4,16123],[62.6,16207],[62.6,16290],[62.6,16372],[62.6,16457],[62.6,16541]]",1,0,2305.3101,2309.6612,57.75988287,3.7098,"[{""rating"":57.75988286969253,""responseTime"":3.70980000001191}]",space,3.8131,,2309.6613,Partially,50,2309.6675,,,[],,0,4,4,4,1,audio/Narrative7Situation4.wav,audio/Narrative8Situation4.wav,audio/Narrative5Situation4.wav,audio/Narrative6Situation4.wav,3,3,1,2,,,,,,,,,,,,,,,,,,,,,,,,,,,,,,,,,,,,,,,
,,,,,,651bfba19f10300bf4c9a12f,2024-02-08_14h12.04.601,group3.1-3.2-social-tom,2023.2.2,Win32,59.52380952,65c5074098b851296ff0b7ed,65c515cb356881ff77cd4b55,,,,,,,,,,,,,,,,,,,,,,,,,,,,,2309.6678,2,audio/Narrative5Situation5.wav,2314.6695,,2314.6695,2330.1014,"[[58.3,1356],[59.2,1438],[59.7,1521],[59.7,1604],[59.8,1689],[59.8,1771],[60.5,1873],[62,1965],[63.2,2049],[64.1,2128],[64.2,2223],[65.7,2305],[67.6,2384],[70.2,2461],[71.1,2544],[71.1,2629],[71.1,2711],[70.8,2798],[70.6,2878],[70.6,2960],[70.6,3045],[70.6,3132],[70.6,3213],[70.5,3298],[70.4,3378],[70.1,3462],[69.6,3548],[69.5,3629],[69.5,3714],[58.8,3804],[41.8,3881],[33.5,3965],[32.4,4052],[21.4,4135],[21.3,4216],[21.4,4299],[26.4,4391],[32.1,4471],[32.7,4551],[33.7,4637],[34.3,4721],[35.8,4808],[37,4891],[38.1,4976],[38.7,5062],[38.7,5144],[39.8,5235],[39.9,5321],[39.9,5406],[39.9,5499],[39.9,5581],[39.9,5665],[39.9,5750],[39.9,5832],[39.9,5916],[39.9,6000],[39.9,6081],[39.9,6167],[39.9,6250],[39.9,6337],[39.9,6422],[39.9,6518],[39.9,6601],[39.9,6684],[39.9,6769],[39.8,6853],[39.8,6934],[39.8,7022],[39.8,7107],[39.8,7190],[39.8,7274],[39.8,7358],[39.8,7441],[39.8,7524],[39.8,7608],[39.9,7705],[39.9,7788],[39.9,7872],[39.9,7955],[40.5,8042],[40.8,8139],[40.9,8228],[40.9,8323],[40.9,8410],[40.9,8494],[40.9,8579],[40.9,8673],[40.9,8757],[40.9,8836],[40.9,8924],[40.9,9009],[40.9,9092],[40.9,9175],[40.9,9255],[40.9,9341],[40.9,9424],[40.9,9506],[40.9,9596],[40.9,9679],[40.9,9762],[40.9,9847],[40.9,9930],[40.9,10013],[40.9,10097],[40.9,10180],[40.9,10265],[40.9,10347],[40.9,10431],[40.9,10514],[40.9,10598],[40.9,10682],[40.9,10766],[40.9,10850],[40.9,10933],[40.8,11017],[36.5,11102],[35.7,11184],[35.7,11267],[35.8,11351],[36.2,11434],[36.8,11519],[37.4,11604],[38,11686],[38.1,11769],[38.1,11852],[38.1,11936],[38.1,12019],[38.1,12102],[38.1,12186],[38.1,12269],[38.1,12354],[38.1,12436],[38.1,12521],[38.1,12604],[38.1,12688],[38.1,12770],[38.1,12855],[38.1,12939],[38.1,13021],[38.1,13105],[38.1,13190],[38.1,13273],[38.1,13357],[38.1,13439],[38.1,13523],[38.1,13606],[38.1,13691],[38.1,13773],[38.1,13857],[38.1,13940],[38.1,14026],[38.1,14121],[38.1,14205],[38.1,14290],[38.1,14372],[38.1,14454],[38.1,14536],[38.1,14623],[38.1,14704],[38.3,14791],[38.7,14877],[39.5,14963],[39.5,15044],[40,15146],[40,15227],[40.2,15313],[41.1,15397]]",1,0,2330.1015,2334.1769,65.66617862,3.2871,"[{""rating"":65.66617862371888,""responseTime"":3.2871000000236563}]",space,3.5262,,2334.177,Partially,50,2334.1828,,,[],,0,5,5,5,1,audio/Narrative7Situation5.wav,audio/Narrative8Situation5.wav,audio/Narrative5Situation5.wav,audio/Narrative6Situation5.wav,5,2,5,2,,,,,,,,,,,,,,,,,,,,,,,,,,,,,,,,,,,,,,,
,,,,,,651bfba19f10300bf4c9a12f,2024-02-08_14h12.04.601,group3.1-3.2-social-tom,2023.2.2,Win32,59.52380952,65c5074098b851296ff0b7ed,65c515cb356881ff77cd4b55,,,,,,,,,,,,,,,,,,,,,,,,,,,,,2334.1832,2,audio/Narrative5Situation6.wav,2337.185,,2337.1852,2342.8729,[],1,0,2342.8734,2347.6454,55.71010249,4.1776,"[{""rating"":55.71010248901903,""responseTime"":4.177600000024086}]",space,4.2125,,2347.6456,Not at all,0,2347.6526,,,[],,0,6,6,6,1,audio/Narrative7Situation6.wav,audio/Narrative8Situation6.wav,audio/Narrative5Situation6.wav,audio/Narrative6Situation6.wav,3,2,3,2,,,,,,,,,,,,,,,,,,,,,,,,,,,,,,,,,,,,,,,
,,,,,,651bfba19f10300bf4c9a12f,2024-02-08_14h12.04.601,group3.1-3.2-social-tom,2023.2.2,Win32,59.52380952,65c5074098b851296ff0b7ed,65c515cb356881ff77cd4b55,,,,,,,,,,,,,,,,,,,,,,,,,,,,,2347.6529,2,audio/Narrative5Situation7.wav,2351.6798,,2351.6798,2372.727,"[[62,704],[62.3,798],[62.4,898],[62.4,993],[62.4,1076],[62.4,1162],[62.4,1246],[62.4,1346],[62.7,1431],[65.4,1528],[69.2,1625],[69.3,1712],[69.3,1796],[69.3,1879],[69.2,1961],[68.9,2044],[68.7,2129],[68.7,2228],[68.7,2313],[68.7,2394],[67,2480],[62.7,2565],[62,2647],[61.9,2730],[60.1,2815],[58.5,2899],[56.9,2983],[56.4,3065],[56.3,3148],[55.6,3232],[49.9,3320],[44.9,3403],[44.9,3486],[44.9,3570],[44.9,3653],[44.9,3737],[44.9,3821],[44.9,3903],[44.9,3988],[44.9,4071],[44.9,4154],[44.9,4238],[44.9,4322],[44.9,4405],[44.9,4489],[44.9,4572],[44.9,4655],[44.9,4739],[44.9,4822],[44.9,4907],[44.9,4989],[44.9,5073],[44.9,5157],[44.9,5242],[44.9,5325],[44.9,5409],[44.9,5492],[44.9,5576],[44.9,5659],[44.9,5743],[44.9,5826],[44.9,5910],[44.9,5994],[44.9,6076],[44.9,6160],[44.9,6244],[44.9,6326],[44.9,6411],[44.9,6495],[44.9,6579],[44.9,6661],[44.9,6744],[44.9,6840],[44.9,6926],[44.9,7010],[44.9,7093],[44.9,7179],[44.9,7260],[44.9,7345],[44.9,7426],[44.9,7505],[44.9,7590],[44.9,7675],[44.9,7759],[44.9,7844],[44.9,7929],[44.9,8012],[44.9,8094],[44.9,8177],[44.9,8258],[44.9,8341],[44.9,8434],[44.9,8517],[44.9,8618],[44.9,8703],[44.9,8794],[44.9,8880],[44.9,8965],[44.9,9049],[44.9,9131],[44.9,9215],[44.9,9304],[44.9,9386],[44.9,9470],[44.9,9553],[44.9,9636],[44.9,9720],[44.9,9804],[44.9,9901],[44.9,9984],[44.9,10068],[44.9,10152],[44.9,10234],[44.9,10326],[44.9,10416],[44.9,10503],[44.9,10583],[44.9,10668],[44.9,10752],[44.9,10840],[44.9,10937],[44.9,11019],[44.9,11104],[44.9,11184],[44.9,11265],[44.9,11357],[44.9,11441],[44.9,11525],[44.9,11607],[44.9,11692],[44.9,11775],[44.9,11860],[44.9,11942],[44.9,12038],[44.9,12122],[44.9,12205],[44.9,12289],[44.9,12372],[44.9,12457],[44.9,12538],[44.9,12623],[44.9,12705],[44.9,12790],[44.9,12874],[44.9,12957],[44.9,13041],[44.9,13119],[44.9,13208],[44.9,13291],[44.9,13376],[44.9,13458],[44.9,13542],[44.9,13626],[44.9,13710],[44.9,13793],[44.9,13877],[44.9,13955],[44.9,14044],[44.9,14126],[44.9,14211],[44.9,14293],[44.9,14376],[44.9,14461],[44.9,14546],[44.9,14627],[44.9,14712],[44.9,14796],[44.9,14876],[44.9,14962],[45,15058],[50.3,15151],[50.7,15230],[50.7,15308],[50.4,15398],[50.1,15481],[48.1,15568],[46.5,15647],[42.7,15733],[42.1,15816],[42.1,15899],[42.1,15982],[42.1,16065],[42.1,16150],[42.1,16235],[42.1,16320],[42.1,16402],[42.1,16484],[42.1,16570],[42.1,16652],[42.1,16735],[42.1,16820],[42.1,16907],[42.1,16990],[42.1,17074],[42.1,17158],[42.1,17253],[42.1,17338],[42.1,17421],[42.1,17506],[42.1,17589],[42.1,17672],[42.1,17756],[42.1,17835],[42.1,17923],[42.1,18006],[42.1,18091],[42.1,18170],[42.1,18256],[42.1,18340],[42.1,18424],[42.1,18507],[42.1,18590],[42.1,18672],[42.1,18759],[42.1,18851],[42.1,18929],[42.1,19021],[42.1,19110],[41.8,19194],[41.1,19294],[41.1,19373],[40.9,19460],[40.8,19546],[39.9,19629],[39.9,19714],[39.9,19812],[39.9,19897],[40,19994],[40,20079],[40,20163],[40.2,20248],[40.3,20332],[40.5,20429],[40.5,20513],[40.6,20596],[40.6,20682],[40.6,20761],[42.5,20847],[42.5,20929],[42.5,21011]]",1,0,2372.7271,2376.7875,39.89751098,3.1604,"[{""rating"":39.897510980966324,""responseTime"":3.160399999976107}]",space,3.527,,2376.7877,Not at all,0,2376.7915,,,[],,0,7,7,7,1,audio/Narrative7Situation7.wav,audio/Narrative8Situation7.wav,audio/Narrative5Situation7.wav,audio/Narrative6Situation7.wav,5,3,4,5,,,,,,,,,,,,,,,,,,,,,,,,,,,,,,,,,,,,,,,
,,,,,,651bfba19f10300bf4c9a12f,2024-02-08_14h12.04.601,group3.1-3.2-social-tom,2023.2.2,Win32,59.52380952,65c5074098b851296ff0b7ed,65c515cb356881ff77cd4b55,,,,,,,,,,,,,,,,,,,,,,,,,,,,,2376.7923,2,audio/Narrative5Situation8.wav,2379.801,,2379.8011,2388.6264,"[[51.2,1238],[51.5,1329],[51.5,1419],[51.5,1500],[51.5,1584],[51.8,1668],[54.5,1756],[58.1,1843],[58.3,1934],[58.3,2017],[58.3,2101],[59.5,2189],[61.3,2273],[61.4,2355],[61.4,2438],[61.4,2522],[61.4,2606],[61.4,2690],[61.4,2785],[61.6,2879],[66.1,2961],[66.8,3039],[66.8,3123],[66.8,3208],[66.8,3291],[66.8,3373],[66.8,3458],[66.7,3542],[66.7,3626],[66.7,3708],[66.7,3791],[66.7,3877],[66.7,3960],[66.7,4044],[66.7,4125],[66.7,4209],[66.7,4293],[66.7,4378],[66.7,4460],[66.7,4544],[66.7,4642],[66.7,4727],[66.7,4812],[66.7,4908],[66.7,4991],[66.7,5074],[66.7,5158],[66.5,5241],[66.5,5325],[66.5,5408],[66.5,5492],[66.5,5576],[66.5,5659],[66.5,5742],[66.4,5826],[66.4,5910],[66.4,5993],[66.4,6077],[66.4,6161],[66.4,6245],[66.4,6324],[66.4,6411],[66.4,6491],[66.4,6574],[66.4,6663],[66.4,6745],[66.4,6829],[66.4,6913],[66.4,6997],[66.4,7081],[66.4,7164],[66.4,7247],[66.4,7331],[66.4,7415],[66.4,7500],[66.4,7582],[66.4,7668],[66.4,7750],[66.4,7833],[66.4,7921],[66.4,8002],[66.4,8084],[66.4,8170],[66.4,8251],[66.4,8336],[66.4,8418],[66.3,8502],[66.3,8586],[65.4,8674],[21.4,8773]]",1,0,2388.6265,2391.5023,41.80087848,2.5376,"[{""rating"":41.800878477306,""responseTime"":2.537600000023758}]",space,2.3427,,2391.5024,Not at all,0,2391.5091,,,[],,0,8,8,8,1,audio/Narrative7Situation8.wav,audio/Narrative8Situation8.wav,audio/Narrative5Situation8.wav,audio/Narrative6Situation8.wav,2,3,3,5,,,,,,,,,,,,,,,,,,,,,,,,,,,,,,,,,,,,,,,
,,,,,,651bfba19f10300bf4c9a12f,2024-02-08_14h12.04.601,group3.1-3.2-social-tom,2023.2.2,Win32,59.52380952,65c5074098b851296ff0b7ed,65c515cb356881ff77cd4b55,,,,,,,,,,,,,,,,,,,,,,,,,,,,,2391.5095,2,audio/Narrative5Situation9.wav,2394.5274,,2394.5278,2434.077,"[[41.9,1346],[41.9,1429],[41.9,1513],[41.9,1595],[41.9,1680],[41.9,1764],[46,1848],[55.1,1932],[57.9,2016],[57.9,2097],[57.9,2181],[57.9,2265],[57.9,2348],[57.9,2431],[57.9,2514],[57.9,2598],[57.9,2683],[57.9,2766],[57.9,2850],[57.9,2936],[57.9,3017],[57.9,3101],[57.9,3186],[58.1,3268],[63.9,3355],[64.5,3451],[64.5,3540],[64.5,3635],[64.5,3722],[64.3,3802],[64.2,3887],[64.2,3969],[64.1,4050],[64.1,4137],[63.5,4223],[62.6,4307],[62.6,4391],[62.3,4490],[61.1,4586],[61.1,4673],[61.1,4752],[61.1,4838],[61.1,4923],[61.1,5010],[61.1,5092],[61.1,5188],[61.1,5274],[61.1,5354],[61.1,5439],[61.1,5528],[61.1,5613],[61.1,5707],[61.1,5791],[61.1,5874],[61.1,5960],[61,6043],[60,6138],[59.7,6226],[59.5,6307],[59.5,6384],[59.5,6463],[59.5,6552],[59.5,6637],[59.5,6715],[59.5,6802],[59.5,6884],[59.5,6971],[59.5,7048],[59.5,7139],[59.5,7216],[59.5,7303],[59.5,7382],[59.5,7465],[59.5,7550],[59.5,7633],[59.5,7717],[59.5,7800],[59.5,7884],[59.5,7967],[59.5,8051],[59.5,8133],[59.5,8217],[59.5,8301],[59.5,8386],[59.5,8468],[59.5,8551],[59.5,8636],[59.5,8719],[59.5,8804],[59.5,8887],[59.5,8973],[59.5,9054],[59.5,9137],[59.5,9222],[59.5,9304],[59.5,9388],[59.5,9471],[59.5,9555],[59.5,9638],[59.5,9722],[59.5,9806],[59.5,9890],[59.5,9972],[59.5,10058],[59.5,10140],[59.5,10226],[59.5,10306],[59.5,10389],[59.5,10477],[59.5,10557],[59.5,10642],[59.5,10729],[59.5,10809],[59.5,10894],[59.5,10977],[59.5,11059],[59.5,11145],[59.5,11226],[59.5,11309],[59.5,11397],[59.5,11476],[59.5,11561],[59.5,11646],[59.5,11727],[59.5,11814],[59.5,11894],[59.5,11977],[59.5,12065],[59.5,12146],[59.5,12231],[59.5,12313],[59.5,12400],[59.5,12483],[59.5,12567],[59.5,12649],[59.5,12732],[59.5,12819],[59.5,12899],[59.5,12988],[59.5,13069],[59.5,13150],[59.5,13236],[59.5,13318],[59.5,13401],[59.5,13487],[59.5,13569],[59.5,13651],[59.5,13738],[59.5,13818],[59.5,13901],[59.5,13988],[59.5,14068],[59.5,14155],[59.5,14239],[59.5,14323],[59.5,14402],[59.5,14485],[59.5,14573],[59.5,14655],[59.5,14739],[59.5,14822],[59.5,14905],[59.5,14986],[59.5,15070],[59.5,15156],[59.5,15244],[59.5,15324],[59.5,15406],[59.5,15492],[59.5,15575],[59.5,15660],[59.5,15739],[59.5,15824],[59.5,15909],[59.5,15990],[59.5,16073],[59.5,16161],[59.5,16245],[59.5,16324],[59.5,16410],[59.5,16492],[59.5,16576],[59.5,16658],[59.5,16742],[59.5,16827],[59.5,16913],[59.5,16991],[59.5,17074],[59.5,17160],[59.5,17242],[59.5,17326],[59.5,17410],[59.5,17494],[59.5,17577],[59.5,17661],[59.5,17744],[59.5,17828],[59.5,17912],[59.5,17995],[59.5,18077],[59.5,18163],[59.5,18244],[59.5,18329],[59.5,18415],[59.5,18497],[59.5,18582],[59.5,18662],[59.5,18745],[59.5,18836],[59.5,18914],[59.5,18997],[59.5,19085],[59.5,19166],[59.5,19248],[59.5,19330],[59.5,19416],[59.5,19497],[59.5,19582],[59.5,19667],[59.5,19748],[59.5,19835],[59.5,19915],[59.5,20001],[59.5,20084],[59.5,20166],[59.5,20250],[59.5,20337],[59.5,20417],[59.5,20501],[59.5,20586],[59.5,20671],[59.5,20751],[59.5,20836],[59.5,20922],[59.5,21016],[59.5,21099],[59.5,21183],[59.5,21266],[59.5,21349],[59.5,21434],[59.5,21516],[59.5,21600],[59.5,21686],[59.5,21767],[59.5,21851],[59.5,21937],[59.5,22018],[59.5,22103],[59.5,22188],[59.5,22269],[59.5,22353],[59.5,22436],[59.5,22521],[59.5,22606],[59.5,22689],[59.5,22772],[59.5,22859],[59.5,22937],[59.5,23020],[59.5,23108],[59.5,23187],[59.5,23274],[59.5,23355],[59.5,23439],[59.5,23524],[59.5,23605],[59.5,23689],[59.5,23775],[59.5,23857],[59.5,23942],[59.5,24025],[59.5,24109],[59.5,24191],[59.5,24275],[59.5,24359],[59.5,24443],[59.5,24525],[59.5,24609],[59.5,24693],[59.5,24776],[59.5,24863],[59.5,24943],[59.5,25027],[59.5,25110],[59.5,25196],[59.5,25278],[59.5,25362],[59.5,25446],[59.5,25528],[59.5,25613],[59.5,25695],[59.5,25778],[59.5,25864],[59.5,25950],[59.5,26029],[59.5,26115],[53.7,26220],[52.8,26304],[52.8,26396],[52.8,26480],[52.9,26564],[55.6,26648],[59.8,26731],[60.5,26814],[60.8,26894],[61,26981],[61.1,27064],[61.4,27149],[61.6,27232],[61.6,27315],[61.6,27399],[61.6,27481],[61.6,27566],[61.6,27646],[61.6,27731],[61.6,27816],[61.6,27899],[61.6,27983],[61.6,28068],[61.6,28151],[61.6,28234],[61.6,28318],[61.4,28402],[61.4,28485],[61.4,28568],[61.4,28652],[61.9,28733],[62.7,28820],[62.9,28903],[63.2,28988],[63.6,29071],[64.1,29155],[64.1,29237],[64.1,29321],[64.1,29403],[65.7,29488],[67.6,29572],[67.6,29654],[67.6,29738],[67.6,29822],[67.4,29909],[67.4,29990],[67.4,30075],[67.4,30155],[67.4,30241],[67.4,30322],[67.4,30406],[67.4,30489],[67.4,30572],[67.4,30657],[67.6,30740],[67.6,30824],[67.6,30909],[69.2,30994],[69.2,31075],[69.2,31159],[69.3,31241],[69.3,31326],[70.2,31412],[72.7,31509],[73.4,31602],[73.4,31692],[73.4,31796],[73.4,31889],[73.4,31992],[73.4,32081],[73.4,32172],[73.4,32264],[73.4,32365],[73.4,32468],[79.9,35496],[79.6,35588],[79,35682],[78.8,35769],[78.8,35857],[78.8,35936],[78.8,36052],[78.8,36141],[78.8,36231],[78.8,36325],[78.8,36408]]",1,0,2434.0773,2436.7343,61.12737921,2.3571,"[{""rating"":61.127379209370424,""responseTime"":2.357099999964248}]",space,2.1144,,2436.7343,Definitely yes,100,2436.7419,,,[],,0,9,9,9,1,audio/Narrative7Situation9.wav,audio/Narrative8Situation9.wav,audio/Narrative5Situation9.wav,audio/Narrative6Situation9.wav,2,3,3,4,,,,,,,,,,,,,,,,,,,,,,,,,,,,,,,,,,,,,,,
,,,,,,651bfba19f10300bf4c9a12f,2024-02-08_14h12.04.601,group3.1-3.2-social-tom,2023.2.2,Win32,59.52380952,65c5074098b851296ff0b7ed,65c515cb356881ff77cd4b55,,,,,,,,,,,,,,,,,,,,,,,,,,,,,2436.7423,2,audio/Narrative6Situation1.wav,2438.7572,,2438.7572,2465.338,"[[61.1,788],[61.1,870],[63,972],[63.3,1050],[64.6,1137],[65.7,1237],[67.6,1324],[69.6,1413],[69.9,1495],[69.9,1576],[69.9,1671],[69.9,1765],[69.8,1870],[69.8,1953],[69.8,2039],[69.6,2120],[68.9,2203],[68.7,2281],[66.5,2370],[66.3,2448],[64.6,2535],[63.8,2617],[63.8,2695],[63.8,2778],[63.8,2866],[63.8,2946],[63.8,3027],[63.8,3113],[63.8,3195],[63.8,3279],[63.8,3364],[63.8,3445],[63.8,3532],[63.8,3613],[63.8,3697],[63.8,3793],[64.2,3877],[67.3,3961],[69.8,4045],[69.9,4126],[69.9,4210],[69.9,4295],[69.9,4378],[69.9,4462],[69.8,4555],[69.6,4644],[69.6,4727],[69.6,4811],[69.6,4894],[69.6,4978],[69.6,5062],[69.6,5146],[69.6,5230],[69.6,5312],[69.6,5396],[69.6,5480],[69.6,5563],[69.6,5648],[69.6,5731],[69.6,5812],[69.6,5898],[69.6,5981],[69.6,6064],[69.6,6148],[69.6,6231],[69.6,6315],[69.6,6397],[69.6,6482],[69.6,6566],[69.6,6649],[69.6,6733],[69.6,6817],[69.6,6901],[69.6,6982],[69.6,7067],[69.6,7150],[69.6,7234],[69.6,7318],[69.6,7401],[69.6,7485],[69.6,7566],[69.6,7650],[69.6,7736],[69.6,7822],[69.6,7904],[69.6,7987],[69.6,8068],[69.6,8153],[69.6,8238],[69.6,8323],[69.6,8406],[69.6,8488],[69.6,8575],[69.6,8656],[69.6,8739],[69.6,8823],[69.6,8910],[69.6,8984],[69.6,9061],[69.6,9145],[69.6,9229],[69.6,9312],[69.6,9398],[69.6,9481],[69.6,9561],[69.6,9647],[69.6,9731],[69.6,9815],[69.6,9899],[69.6,9982],[69.6,10064],[69.6,10149],[69.6,10235],[69.6,10320],[69.6,10398],[69.6,10483],[69.6,10565],[69.6,10649],[69.6,10733],[69.6,10816],[69.6,10903],[69.6,10990],[69.6,11069],[69.6,11150],[69.6,11235],[69.6,11318],[69.6,11401],[69.6,11483],[69.6,11569],[69.6,11654],[69.6,11739],[69.6,11818],[69.6,11906],[69.6,11995],[69.6,12073],[69.6,12154],[69.6,12235],[69.6,12319],[69.6,12404],[69.6,12487],[69.6,12573],[69.6,12653],[69.6,12738],[69.6,12820],[69.6,12904],[69.6,12988],[69.6,13071],[69.6,13155],[69.6,13239],[69.6,13322],[69.6,13407],[69.6,13490],[69.6,13572],[69.6,13657],[69.6,13750],[69.6,13823],[69.6,13908],[69.6,13990],[69.6,14075],[69.6,14157],[69.6,14242],[69.6,14325],[69.6,14409],[69.6,14493],[69.6,14575],[69.6,14659],[69.6,14742],[69.6,14825],[69.6,14915],[69.6,14994],[69.6,15076],[69.6,15160],[69.6,15246],[69.6,15329],[69.6,15412],[69.6,15501],[69.6,15578],[69.6,15662],[69.6,15748],[69.6,15828],[69.6,15913],[69.6,15998],[69.6,16080],[69.6,16164],[69.6,16250],[69.6,16331],[69.6,16415],[69.6,16497],[69.6,16580],[69.6,16665],[69.6,16747],[69.6,16831],[69.6,16915],[69.6,16998],[69.6,17082],[69.6,17166],[69.6,17250],[69.6,17333],[69.6,17423],[69.6,17500],[69.6,17588],[69.6,17668],[69.6,17753],[69.6,17839],[69.6,17922],[69.6,18006],[69.6,18091],[69.6,18171],[69.6,18253],[69.6,18340],[69.6,18427],[69.6,18508],[69.6,18595],[69.6,18681],[69.6,18760],[69.6,18839],[69.6,18924],[69.6,19005],[69.6,19090],[69.6,19174],[69.5,19282],[69.5,19368],[69.5,19446],[69.5,19525],[69.5,19611],[69.5,19693],[69.5,19774],[69.5,19860],[69.5,19946],[69.5,20032],[69.5,20113],[69.5,20192],[69.5,20276],[69.5,20360],[69.5,20445],[69.5,20532],[69.5,20613],[69.5,20697],[69.5,20787],[69.5,20864],[69.5,20946],[69.5,21030],[69.5,21113],[69.5,21195],[69.5,21278],[69.5,21364],[69.5,21445],[69.5,21527],[69.5,21616],[69.5,21699],[69.5,21784],[69.5,21865],[69.5,21951],[69.5,22035],[69.5,22113],[69.5,22200],[69.5,22285],[69.5,22370],[69.5,22454],[69.5,22536],[69.5,22617],[69.5,22700],[69.5,22785],[69.5,22875],[69.6,22956],[69.6,23034],[70.1,23122],[71.2,23208],[71.4,23285],[71.4,23367],[72.4,23451],[72.4,23534],[72.5,23617],[72.8,23703],[73,23784],[73.3,23876],[73.4,23951],[73.4,24034],[73.4,24119],[73.4,24203],[73.4,24286],[73.4,24368],[73.4,24452],[73.6,24537],[73.9,24619],[74,24702],[74,24788],[74,24869],[74,24955],[74,25045],[74,25127],[74,25206],[74,25289]]",1,0,2465.3382,2470.2154,59.3704246,4.5932,"[{""rating"":68.74084919472914,""responseTime"":2.398299999952087},{""rating"":59.37042459736457,""responseTime"":4.593199999987974}]",space,4.3376,,2470.216,Not at all,0,2470.2211,,,[],,0,10,10,10,1,audio/Narrative8Situation1.wav,audio/Narrative7Situation1.wav,audio/Narrative6Situation1.wav,audio/Narrative5Situation1.wav,5,2,2,5,,,,,,,,,,,,,,,,,,,,,,,,,,,,,,,,,,,,,,,
,,,,,,651bfba19f10300bf4c9a12f,2024-02-08_14h12.04.601,group3.1-3.2-social-tom,2023.2.2,Win32,59.52380952,65c5074098b851296ff0b7ed,65c515cb356881ff77cd4b55,,,,,,,,,,,,,,,,,,,,,,,,,,,,,2470.2215,2,audio/Narrative6Situation2.wav,2473.2368,,2473.2369,2501.7314,"[[59.5,5615],[60,5717],[60.4,5813],[61,5897],[61,5975],[61.1,6063],[62.9,6151],[64.3,6245],[64.3,6327],[64.3,6413],[64.3,6498],[64.3,6581],[64.3,6664],[64.3,6753],[64.3,6836],[64.3,6918],[64.3,7003],[64.3,7101],[64.3,7186],[64.3,7270],[64.3,7363],[64.3,7449],[64.3,7534],[64.3,7619],[64.3,7701],[64.3,7789],[64.3,7886],[64.3,7963],[64.3,8048],[64.3,8136],[64.3,8221],[64.3,8304],[64.6,8388],[64.6,8467],[64.6,8552],[64.6,8635],[64.6,8719],[64.6,8804],[64.6,8887],[64.6,8970],[64.9,9050],[64.9,9132],[65.1,9220],[65.4,9306],[65.4,9389],[65.4,9471],[65.4,9552],[65.7,9638],[65.7,9722],[65.7,9805],[65.7,9889],[65.7,9972],[65.7,10057],[65.7,10139],[65.8,10224],[65.8,10306],[66.7,10392],[66.8,10471],[67,10557],[63,10644],[58.1,10727],[58.1,10807],[58.1,10892],[58.1,10976],[57.9,11059],[57.9,11142],[58.9,11227],[61.6,11310],[64.9,11394],[65.8,11477],[66.5,11560],[66.7,11644],[67,11728],[67.1,11811],[68.7,11896],[70.5,11979],[70.5,12061],[70.6,12144],[70.6,12228],[70.6,12312],[70.6,12397],[70.5,12480],[70.5,12563],[70.5,12645],[70.5,12730],[70.5,12813],[70.5,12896],[70.5,12980],[70.4,13064],[70.4,13144],[70.2,13232],[70.2,13317],[70.2,13402],[70.2,13480],[70.2,13557],[70.1,13644],[69.9,13729],[69.9,13807],[69.9,13889],[69.9,13972],[69.9,14057],[69.9,14144],[69.9,14222],[69.9,14307],[69.9,14394],[69.8,14474],[69.8,14557],[69.8,14644],[69.6,14726],[69.2,14812],[69.2,14893],[69,14980],[69,15061],[69,15142],[69,15226],[69,15312],[69,15394],[68.9,15482],[68.9,15561],[68.9,15644],[68.6,15736],[68.4,15813],[68.4,15897],[68.4,15981],[68.4,16062],[68.4,16149],[68.4,16231],[68.4,16313],[68.4,16394],[68.4,16481],[68.4,16563],[68.4,16646],[68.4,16732],[67.7,16819],[67,16896],[67,16979],[67,17067],[67,17152],[67,17230],[67,17327],[67,17406],[67,17494],[67,17580],[67,17663],[67,17747],[67,17844],[67,17929],[67,18011],[67,18096],[67,18178],[67,18261],[67,18346],[67,18428],[67,18512],[67,18596],[67,18679],[67,18763],[67,18847],[67,18929],[67,19014],[67,19097],[67,19181],[67,19265],[67,19347],[67,19431],[67,19515],[67,19598],[67,19682],[67,19763],[67,19849],[67,19933],[67,20016],[67,20100],[67,20183],[67,20267],[67,20350],[67,20434],[67,20518],[67,20601],[67,20686],[67,20768],[67,20852],[67,20932],[67,21019],[67,21103],[67,21186],[67,21269],[67,21354],[67,21437],[67,21520],[67,21605],[67,21687],[67,21771],[67,21855],[67,21937],[67,22021],[67,22106],[67,22189],[67,22273],[67,22355],[67,22440],[67,22526],[67,22607],[67,22690],[67,22774],[67,22857],[67,22942],[67,23027],[67,23110],[67,23193],[67,23278],[67,23360],[67,23444],[67,23529],[67,23616],[67,23701],[67,23794],[67,23879],[67,23962],[67,24045],[67,24129],[67,24213],[67,24296],[67,24380],[67,24463],[67,24548],[67,24631],[67,24715],[67,24798],[67,24881],[67,24966],[67,25051],[67,25133],[67,25217],[67,25299],[67,25382],[67,25467],[67,25550],[67,25649],[67,25741],[67,25821],[67,25903],[67,25988],[67,26071],[67,26154],[67,26239],[67,26322],[67,26405],[67,26488],[67,26572],[67,26660],[67,26751],[67,26835],[67,26919],[67,27000],[67,27087],[67,27172],[67,27254],[67,27338],[67,27423],[67,27504],[67,27588],[67,27675],[67,27760],[67,27842],[67,27925],[67,28010],[67,28092],[67,28176],[67,28261],[67,28343],[67,28426]]",1,0,2501.7318,2508.92,56.44216691,2.745,"[{""rating"":56.442166910688144,""responseTime"":2.744999999999891}]",space,6.6431,,2508.9201,Partially,50,2508.939,,,[],,0,11,11,11,1,audio/Narrative8Situation2.wav,audio/Narrative7Situation2.wav,audio/Narrative6Situation2.wav,audio/Narrative5Situation2.wav,3,3,3,3,,,,,,,,,,,,,,,,,,,,,,,,,,,,,,,,,,,,,,,
,,,,,,651bfba19f10300bf4c9a12f,2024-02-08_14h12.04.601,group3.1-3.2-social-tom,2023.2.2,Win32,59.52380952,65c5074098b851296ff0b7ed,65c515cb356881ff77cd4b55,,,,,,,,,,,,,,,,,,,,,,,,,,,,,2508.9393,2,audio/Narrative6Situation3.wav,2513.9513,,2513.9516,2526.5796,"[[999,21],[999,110],[999,190],[999,278],[999,363],[999,459],[51.8,543],[61,634],[61.7,717],[61.7,813],[61.7,894],[61.7,979],[62,1062],[64.5,1146],[66.8,1235],[67.1,1328],[67.1,1410],[67.1,1495],[67.1,1578],[67.1,1662],[67.1,1746],[67.1,1830],[67.1,1913],[67.1,1997],[67.1,2080],[67.1,2164],[67.1,2247],[67.1,2330],[67.1,2414],[67.1,2494],[67.1,2581],[67.1,2665],[67.1,2750],[67.1,2838],[67.1,2920],[67.1,3003],[67.1,3096],[67.1,3185],[67.1,3269],[67.1,3352],[67.1,3438],[67.1,3529],[67.1,3606],[67.1,3697],[67.1,3802],[67.1,3883],[67.1,3971],[67.1,4054],[67.1,4137],[67.1,4222],[67.1,4305],[67.1,4388],[67.1,4475],[67.1,4560],[67.1,4642],[67.1,4740],[67.1,4832],[67.1,4921],[67.1,5008],[67.1,5100],[67.1,5190],[67.1,5268],[67.1,5347],[67.1,5429],[67.1,5513],[67.1,5601],[67.1,5682],[67.1,5762],[67.1,5856],[67.1,5933],[67.3,6030],[67.3,6113],[67.3,6196],[67.1,6293],[67.1,6376],[67.1,6461],[67.1,6547],[67.1,6634],[67.1,6725],[67.1,6808],[67.1,6895],[67.1,6974],[67.1,7062],[67.1,7146],[67.1,7228],[67.1,7311],[67.1,7395],[67.1,7478],[67.1,7562],[67.1,7643],[67.1,7729],[67.1,7814],[67.1,7900],[67.1,7983],[67.1,8067],[67.1,8151],[67.1,8235],[67.1,8318],[67.1,8402],[67.1,8485],[67.1,8569],[67.1,8652],[67.1,8736],[67.1,8820],[67.1,8903],[67.1,8988],[67.1,9082],[67.1,9166],[67.1,9249],[67.1,9327],[67.1,9416],[67.1,9500],[67.1,9583],[67.1,9666],[67.1,9747],[67.1,9834],[67.1,9918],[67.1,10001],[67.1,10085],[67.1,10169],[67.1,10254],[67.1,10339],[67.1,10419],[67,10510],[67,10592],[67,10674],[67,10758],[67,10841],[67,10927],[69.3,11010],[70.6,11093],[70.6,11177],[70.6,11260],[70.6,11344],[70.6,11426],[70.6,11510],[70.6,11594],[70.6,11677],[70.6,11761],[70.6,11846],[70.6,11928],[70.6,12012],[70.6,12107],[70.6,12192],[70.6,12276],[70.6,12359],[70.6,12446],[70.6,12530],[70.6,12627]]",1,0,2526.5798,2530.0426,59.07759883,2.7903,"[{""rating"":59.07759882869692,""responseTime"":2.790300000011939}]",space,2.9274,,2530.0426,Partially,50,2530.0482,,,[],,0,12,12,12,1,audio/Narrative8Situation3.wav,audio/Narrative7Situation3.wav,audio/Narrative6Situation3.wav,audio/Narrative5Situation3.wav,4,8,5,3,,,,,,,,,,,,,,,,,,,,,,,,,,,,,,,,,,,,,,,
,,,,,,651bfba19f10300bf4c9a12f,2024-02-08_14h12.04.601,group3.1-3.2-social-tom,2023.2.2,Win32,59.52380952,65c5074098b851296ff0b7ed,65c515cb356881ff77cd4b55,,,,,,,,,,,,,,,,,,,,,,,,,,,,,2530.0486,2,audio/Narrative6Situation4.wav,2532.0646,,2532.0647,2544.6707,"[[60.2,1601],[60.5,1685],[60.8,1770],[60.8,1849],[60.8,1932],[60.8,2017],[61,2100],[61.6,2185],[62.7,2287],[62.7,2376],[63.2,2456],[63.3,2539],[64.5,2621],[64.8,2707],[65.1,2791],[65.1,2874],[65.1,2967],[65.1,3052],[65.1,3136],[65.1,3219],[65.1,3298],[65.1,3393],[65.1,3488],[65.1,3573],[65.1,3656],[65.1,3738],[65.1,3824],[65.1,3911],[65.1,3993],[65.1,4079],[65.1,4161],[65.1,4243],[65.1,4327],[65.1,4410],[65.1,4500],[65.1,4590],[65.1,4675],[65.1,4759],[65.1,4843],[65.1,4926],[65.1,5005],[65.4,5092],[72.4,5182],[76.2,5601],[75.3,5695],[51.9,5783]]",1,0,2544.6714,2553.8191,54.24597365,8.8128,"[{""rating"":51.756954612005856,""responseTime"":7.192000000000007},{""rating"":54.24597364568082,""responseTime"":8.812799999952404}]",space,8.6084,,2553.8191,Not at all,0,2553.8258,,,[],,0,13,13,13,1,audio/Narrative8Situation4.wav,audio/Narrative7Situation4.wav,audio/Narrative6Situation4.wav,audio/Narrative5Situation4.wav,3,3,2,1,,,,,,,,,,,,,,,,,,,,,,,,,,,,,,,,,,,,,,,
,,,,,,651bfba19f10300bf4c9a12f,2024-02-08_14h12.04.601,group3.1-3.2-social-tom,2023.2.2,Win32,59.52380952,65c5074098b851296ff0b7ed,65c515cb356881ff77cd4b55,,,,,,,,,,,,,,,,,,,,,,,,,,,,,2553.8263,2,audio/Narrative6Situation5.wav,2555.8388,,2555.839,2563.7841,"[[54.4,438],[55.9,525],[56.1,608],[56.3,712],[56.3,809],[56.3,906],[60.8,1007],[61.9,1094],[62.6,1175],[63.2,1274],[63.3,1359],[63.5,1456],[64.3,1541],[65.5,1646],[65.5,1739],[65.5,1825],[65.5,1908],[65.5,1990],[65.5,2074],[65.5,2159],[65.5,2243],[65.4,2322],[65.4,2411],[65.4,2509],[65.4,2593],[65.4,2683],[65.4,2762],[65.4,2847],[65.4,2938],[65.5,3027],[65.7,3112],[65.7,3194],[65.8,3276],[65.8,3358],[65.8,3449],[65.8,3532],[65.8,3615],[66,3712],[66.8,3798],[67.3,3877],[67.7,3961],[67.7,4033],[67.7,4119],[67.9,4203],[68.9,4290],[69.8,4372],[69.8,4452],[70.5,4535],[70.5,4620],[70.9,4707],[71.2,4786],[71.7,4876],[71.7,4955],[71.7,5035],[71.7,5120],[71.7,5208],[71.7,5286],[71.7,5372],[71.7,5454],[71.7,5537],[71.7,5626],[71.7,5705],[71.4,5788],[71.4,5875],[71.4,5967],[71.4,6042],[71.4,6123],[71.4,6210],[71.4,6292],[71.4,6372],[71.4,6457],[71.4,6540],[71.4,6631],[71.4,6710],[71.4,6793],[71.4,6874],[71.4,6959],[71.4,7046],[71.4,7126],[71.4,7211],[71.4,7292],[71.4,7377],[71.4,7463],[71.4,7544],[71.4,7627],[71.4,7711],[71.4,7799],[71.4,7878]]",1,0,2563.7843,2567.787,60.10248902,3.7367,"[{""rating"":60.102489019033676,""responseTime"":3.7366999999881045}]",space,3.4533,,2567.7873,Definitely yes,100,2567.7939,,,[],,0,14,14,14,1,audio/Narrative8Situation5.wav,audio/Narrative7Situation5.wav,audio/Narrative6Situation5.wav,audio/Narrative5Situation5.wav,2,5,2,5,,,,,,,,,,,,,,,,,,,,,,,,,,,,,,,,,,,,,,,
,,,,,,651bfba19f10300bf4c9a12f,2024-02-08_14h12.04.601,group3.1-3.2-social-tom,2023.2.2,Win32,59.52380952,65c5074098b851296ff0b7ed,65c515cb356881ff77cd4b55,,,,,,,,,,,,,,,,,,,,,,,,,,,,,2567.7954,2,audio/Narrative6Situation6.wav,2569.8111,,2569.8112,2580.8776,"[[59.8,604],[59.8,690],[59.8,770],[59.8,853],[59.8,938],[59.8,1020],[60.7,1106],[61.9,1205],[64.5,1288],[65.8,1371],[67.4,1456],[68.3,1538],[69.2,1623],[78.6,1707],[100,1790],[100,1870],[100,1956],[100,2039],[64.9,2125],[58.3,4050],[62.9,4133],[65.5,4217],[65.5,4300],[65.5,4383],[65.5,4469],[49.7,4569],[37,4652],[56.7,5765],[56.6,5841],[56.6,5922],[56.6,6008],[56.6,6089],[56.7,6173],[56.7,6261],[57,6342],[61.7,6435],[62.2,6513],[63,6599],[63.3,6682],[63.3,6757],[63.3,6841],[63.3,6925],[63.6,7015],[63.6,7092],[63.6,7178],[63.6,7259],[63.6,7347],[63.6,7426],[63.6,7511],[63.6,7598],[63.6,7679],[63.6,7760],[63.6,7846],[63.6,7930],[63.6,8014],[64.1,8101],[64.5,8183],[64.5,8260],[64.9,8351],[64.9,8429],[64.9,8517],[65.5,8609],[66.8,8695],[67.1,8786],[68.2,8872],[68.2,8951],[68.2,9047],[68.2,9151],[68.2,9241],[68.2,9336],[68.2,9446],[68.2,9538],[68.2,9639],[68.2,9737],[68.2,9829],[68.2,9918],[68.2,10012],[68.2,10100],[68.2,10185],[68.2,10270],[68.2,10356],[68.2,10446],[68.2,10530],[68.2,10613],[68.2,10699],[67.7,10788],[66.1,10874],[66.1,10965],[66.1,11048]]",1,0,2580.8778,2586.8422,61.71303075,5.7326,"[{""rating"":64.49487554904832,""responseTime"":4.461900000035712},{""rating"":61.71303074670571,""responseTime"":5.732600000023922}]",space,5.4094,,2586.8423,Partially,50,2586.8498,,,[],,0,15,15,15,1,audio/Narrative8Situation6.wav,audio/Narrative7Situation6.wav,audio/Narrative6Situation6.wav,audio/Narrative5Situation6.wav,2,3,2,3,,,,,,,,,,,,,,,,,,,,,,,,,,,,,,,,,,,,,,,
,,,,,,651bfba19f10300bf4c9a12f,2024-02-08_14h12.04.601,group3.1-3.2-social-tom,2023.2.2,Win32,59.52380952,65c5074098b851296ff0b7ed,65c515cb356881ff77cd4b55,,,,,,,,,,,,,,,,,,,,,,,,,,,,,2586.8503,2,audio/Narrative6Situation7.wav,2591.8535,,2591.8536,2616.7067,"[[59.5,436],[59.4,515],[59.2,603],[59.2,687],[59.2,771],[59.2,856],[59.2,938],[60.8,1023],[61.3,1105],[61.7,1190],[62,1271],[62.7,1356],[62.9,1439],[62.9,1522],[62.9,1608],[62.9,1690],[62.9,1773],[62.9,1856],[62.9,1942],[62.9,2023],[62.9,2108],[62.9,2190],[64.3,2275],[64.5,2359],[64.8,2443],[65.7,2526],[65.7,2610],[65.7,2692],[65.7,2776],[65.7,2860],[65.7,2942],[65.7,3026],[65.7,3111],[65.7,3193],[65.7,3278],[65.7,3360],[65.7,3444],[65.7,3528],[65.7,3612],[65.4,3696],[65.4,3780],[65.4,3862],[65.4,3947],[65.4,4032],[65.4,4113],[65.4,4198],[65.4,4283],[65.2,4363],[65.2,4449],[65.2,4531],[65.2,4614],[65.2,4716],[65.2,4795],[65.2,4880],[65.2,4964],[65.2,5050],[65.2,5134],[65.2,5216],[65.2,5301],[65.1,5380],[65.1,5467],[65.1,5552],[65.1,5635],[65.1,5719],[65.1,5797],[65.1,5878],[65.1,5955],[65.1,6041],[65.1,6123],[65.1,6206],[65.1,6291],[65.1,6374],[65.1,6458],[65.1,6541],[65.1,6624],[65.1,6711],[65.1,6794],[65.1,6875],[65.1,6958],[65.1,7045],[65.1,7128],[65.1,7213],[65.2,7293],[65.2,7377],[65.2,7460],[65.2,7543],[65.2,7627],[65.2,7713],[65.2,7793],[65.2,7881],[65.2,7969],[65.2,8050],[65.2,8129],[65.2,8218],[65.2,8296],[65.2,8384],[65.2,8465],[65.2,8546],[65.2,8631],[65.2,8712],[65.2,8795],[65.2,8881],[65.2,8963],[65.2,9046],[65.2,9130],[65.2,9214],[65.2,9298],[65.2,9382],[65.2,9465],[65.2,9548],[65.2,9633],[65.2,9715],[65.4,9812],[65.4,9887],[65.4,9967],[65.4,10053],[65.4,10132],[65.4,10217],[65.4,10304],[65.4,10384],[65.4,10467],[65.4,10554],[65.4,10635],[65.4,10719],[65.4,10806],[65.4,10885],[65.4,10968],[65.4,11056],[65.4,11137],[65.4,11219],[65.4,11302],[65.4,11389],[65.4,11471],[65.4,11556],[65.4,11637],[65.4,11722],[65.4,11807],[65.4,11888],[65.4,11972],[65.4,12054],[65.4,12138],[65.4,12223],[65.4,12306],[65.4,12389],[65.4,12473],[65.4,12557],[65.4,12640],[65.4,12724],[65.4,12807],[65.4,12891],[65.4,12973],[65.4,13058],[65.4,13142],[65.4,13224],[65.4,13309],[65.4,13392],[65.4,13476],[65.4,13561],[65.4,13647],[65.4,13731],[65.4,13815],[65.4,13896],[65.4,13980],[65.4,14062],[65.4,14145],[65.4,14230],[65.4,14312],[65.4,14396],[65.4,14482],[65.4,14566],[65.4,14649],[65.4,14733],[65.4,14816],[65.4,14899],[65.4,14983],[65.4,15064],[65.4,15147],[65.4,15230],[65.4,15314],[65.4,15398],[65.4,15481],[65.4,15570],[65.4,15650],[65.4,15735],[65.4,15820],[65.4,15904],[65.4,15989],[65.4,16073],[65.4,16152],[65.4,16239],[65.4,16318],[65.4,16403],[65.4,16485],[65.4,16568],[65.4,16654],[65.4,16735],[65.4,16820],[65.4,16912],[65.4,16994],[65.4,17072],[65.4,17157],[65.4,17236],[65.4,17324],[65.4,17404],[65.4,17493],[65.4,17573],[65.4,17657],[65.4,17742],[65.4,17829],[65.4,17925],[65.4,18012],[65.4,18101],[65.4,18182],[65.4,18266],[65.4,18351],[65.4,18434],[65.4,18518],[65.4,18602],[65.4,18690],[65.4,18773],[65.4,18856],[65.4,18940],[63.3,19036],[63,19119],[63,19203],[63.3,19287],[64.1,19372],[64.2,19455],[64.5,19538],[64.5,19621],[64.5,19703],[64.8,19788],[64.8,19872],[64.8,19955],[64.8,20039],[64.8,20122],[64.8,20207],[64.8,20290],[64.8,20372],[64.8,20456],[64.8,20536],[64.8,20616],[64.8,20707],[64.8,20791],[64.8,20873],[64.8,20959],[64.8,21042],[64.8,21126],[64.8,21208],[64.8,21292],[64.8,21376],[64.8,21464],[64.8,21548],[64.8,21631],[64.8,21715],[64.8,21798],[64.8,21882],[64.8,21965],[64.8,22049],[64.8,22134],[64.8,22234],[64.8,22331]]",1,0,2616.7071,2621.1554,62.00585652,4.1531,"[{""rating"":62.00585651537336,""responseTime"":4.15309999996407}]",space,3.9132,,2621.1556,Not at all,0,2621.1631,,,[],,0,16,16,16,1,audio/Narrative8Situation7.wav,audio/Narrative7Situation7.wav,audio/Narrative6Situation7.wav,audio/Narrative5Situation7.wav,3,5,5,4,,,,,,,,,,,,,,,,,,,,,,,,,,,,,,,,,,,,,,,
,,,,,,651bfba19f10300bf4c9a12f,2024-02-08_14h12.04.601,group3.1-3.2-social-tom,2023.2.2,Win32,59.52380952,65c5074098b851296ff0b7ed,65c515cb356881ff77cd4b55,,,,,,,,,,,,,,,,,,,,,,,,,,,,,2621.1635,2,audio/Narrative6Situation8.wav,2626.1698,,2626.1699,2633.0335,"[[62.2,1333],[62.2,1423],[66.7,1506],[69.5,1588],[69.6,1671],[69.6,1763],[69.6,1851],[69.6,1935],[69.6,2013],[69.3,2103],[67.6,2194],[66.8,2276],[66.8,2357],[66.8,2439],[66.8,2535],[66.8,2618],[66.8,2704],[66.8,2787],[66.8,2869],[66.8,2955],[66.8,3036],[66.8,3120],[66.8,3206],[66.8,3293],[66.8,3389],[66.8,3473],[66.8,3574],[66.8,3674],[66.7,3756],[66.7,3841],[66.7,3918],[66.7,4007],[66.7,4097],[66.7,4182],[66.7,4261],[66.7,4343],[66.7,4427],[66.7,4512],[66.7,4595],[66.7,4678],[66.7,4762],[66.7,4846],[66.7,4929],[66.7,5012],[66.7,5097],[66.7,5192],[66.7,5276],[66.7,5359],[66.7,5441],[66.7,5526],[66.7,5609],[66.7,5693],[66.7,5776],[66.7,5860],[66.7,5943],[66.7,6027],[66.7,6112],[66.7,6195],[66.7,6278],[66.7,6362],[66.7,6445],[66.7,6530],[66.7,6611],[66.7,6697],[66.7,6778],[66.7,6863]]",1,0,2633.0336,2639.4189,45.60761347,6.101,"[{""rating"":45.60761346998536,""responseTime"":6.101000000000113}]",space,5.8452,,2639.419,Not at all,0,2639.4255,,,[],,0,17,17,17,1,audio/Narrative8Situation8.wav,audio/Narrative7Situation8.wav,audio/Narrative6Situation8.wav,audio/Narrative5Situation8.wav,3,2,5,3,,,,,,,,,,,,,,,,,,,,,,,,,,,,,,,,,,,,,,,
,,,,,,651bfba19f10300bf4c9a12f,2024-02-08_14h12.04.601,group3.1-3.2-social-tom,2023.2.2,Win32,59.52380952,65c5074098b851296ff0b7ed,65c515cb356881ff77cd4b55,,,,,,,,,,,,,,,,,,,,,,,,,,,,,2639.4258,2,audio/Narrative6Situation9.wav,2643.4282,,2643.4282,2653.3739,"[[45.6,1122],[45.6,1209],[50.7,1295],[52.5,1389],[53.5,1477],[55,1562],[57.2,1653],[60.1,1743],[62.6,1833],[62.6,1912],[62.7,1994],[62.7,2076],[62.7,2160],[62.6,2246],[62.6,2328],[62.6,2410],[62.6,2494],[62.6,2578],[62.4,2661],[62.4,2745],[62.4,2830],[62.4,2922],[62.4,3008],[62.4,3094],[62.4,3178],[62.4,3261],[62.4,3341],[62.4,3424],[62.3,3510],[62.3,3594],[62.3,3678],[62.3,3761],[62.3,3849],[62.3,3944],[62.3,4033],[62.3,4118],[62.3,4217],[62.3,4310],[62.3,4406],[62.3,4489],[62.3,4582],[62.3,4664],[62.2,4764],[62.2,4852],[62.2,4934],[62.2,5019],[62.2,5101],[62.2,5184],[62.2,5288],[62.2,5369],[62.2,5467],[62.2,5547],[62.2,5632],[62.2,5720],[62.2,5800],[62.2,5885],[62.2,5967],[62.2,6049],[62.2,6133],[62.2,6218],[62.2,6301],[62.2,6384],[62.3,6470],[62.6,6553],[64.5,6637],[65.4,6720],[65.8,6802],[66.1,6888],[66.3,6971],[66.3,7052],[66.3,7137],[66.1,7222],[62.7,7305],[55.6,7389],[50,7472],[47.2,7556],[47.2,7637],[44.9,7723],[41.8,7807],[41.5,7888],[41.5,7972],[41.4,8057],[40,8140],[39.3,8223],[39.3,8307],[39.3,8390],[39.3,8473],[39.3,8558],[39.3,8640],[37.3,8726],[37.1,8807],[37.1,8891],[37.1,8975],[37.1,9059],[37.1,9143],[37.1,9228],[37.1,9309],[37.1,9393],[37.1,9477],[37.1,9559],[37.1,9643],[37.1,9728],[37.1,9810],[37.1,9895]]",1,0,2653.3741,2656.2018,34.33382138,2.6242,"[{""rating"":34.333821376281115,""responseTime"":2.6242000000474945}]",space,2.2757,,2656.2019,Not at all,0,2656.2075,,,[],,0,18,18,18,1,audio/Narrative8Situation9.wav,audio/Narrative7Situation9.wav,audio/Narrative6Situation9.wav,audio/Narrative5Situation9.wav,3,2,4,3,,,,,,,,,,,,,,,,,,,,,,,,,,,,,,,,,,,,,,,
,,,,,,651bfba19f10300bf4c9a12f,2024-02-08_14h12.04.601,group3.1-3.2-social-tom,2023.2.2,Win32,59.52380952,65c5074098b851296ff0b7ed,65c515cb356881ff77cd4b55,,,,,,,,,,,,,,,,,,,,,,,,,,,,,,,,,,,,,,,,,,,,,,,,,,,,,,,,,,,,,,,,,,,,,,,,2656.2078,2659.0429,space,2.3086,,2659.0435,2671.3784,space,12.0103,,,,,,,,,,,,,,,,,,,,,,,,,,
,,,,,,651bfba19f10300bf4c9a12f,2024-02-08_14h12.04.601,group3.1-3.2-social-tom,2023.2.2,Win32,59.52380952,65c5074098b851296ff0b7ed,65c515cb356881ff77cd4b55,,,,,,,,,,,,,,,,,,,,,,,,,,,,,2673.9842,1,audio/Narrative8Situation9.wav,2676.0013,,,,,,,2707.939,2711.2633,35.79795022,2.5051,"[{""rating"":35.797950219619324,""responseTime"":2.5051000000235035}]",space,2.7727,,2707.9334,Partially,50,2707.9389,,,[],,,,,,,,,,,2,2,2,2,,,,,,,,,,,,,,,2671.3992,2673.9614,2676.0026,3,2707.9325,"[[34.2,618],[45.5,2249],[45.5,2328],[45.5,2410],[39.6,2499],[35.2,2586],[35.2,2660],[35.2,2746],[36.1,2832],[36.2,2912],[37,2994],[42.7,3078],[45.3,3162],[45.6,3247],[45.8,3327],[45.8,3412],[45.8,3495],[45.8,3578],[44.4,3663],[43.1,3745],[43,3829],[42.1,3913],[42.1,3997],[42.1,4080],[42.1,4164],[42.1,4248],[42.1,4330],[42.1,4413],[50,4499],[55.7,4587],[55.7,4672],[55.7,4747],[55.7,4832],[55.7,4917],[55.7,4998],[55.7,5086],[53.2,5166],[48.4,5258],[48.2,5336],[48.2,5424],[46.2,5509],[44,5588],[42.8,5674],[42.4,5751],[42.4,5836],[42.4,5917],[42.4,6002],[42.4,6089],[42.4,6169],[42.4,6252],[42.4,6337],[42.4,6420],[42.4,6507],[42.4,6586],[42.4,6672],[42.4,6753],[42.4,6836],[42.4,6922],[42.4,7003],[42.4,7092],[42.4,7171],[42.4,7258],[42.4,7338],[42.4,7424],[42.4,7505],[42.4,7588],[42.4,7677],[42.4,7760],[42.4,7839],[42.4,7924],[42.4,8014],[42.4,8092],[42.4,8176],[42.5,8263],[42.5,8346],[42.5,8429],[42.7,8515],[43.4,8597],[43.4,8675],[43.7,8762],[43.7,8846],[43.7,8928],[43.7,9010],[43.7,9093],[43.7,9180],[43.7,9261],[43.7,9351],[42.4,9439],[41.5,9527],[41.4,9607],[41.4,9695],[41.4,9775],[40.9,9862],[40.9,9944],[40.8,10026],[40.6,10132],[40.5,10227],[40.5,10311],[40.5,10394],[40.5,10482],[40.5,10576],[40.5,10662],[40.5,10746],[40.5,10824],[40.5,10900],[40.5,10986],[40.5,11068],[40.5,11152],[40.6,11236],[40.6,11317],[40.6,11406],[40.6,11493],[40.6,11588],[40.6,11678],[40.6,11758],[40.6,11839],[40.6,11918],[40.6,12008],[40.8,12086],[40.8,12169],[40.8,12253],[40.8,12338],[40.8,12429],[40.8,12514],[40.8,12589],[40.8,12670],[40.8,12753],[40.8,12837],[40.8,12920],[40.8,13003],[40.8,13087],[40.8,13171],[40.8,13255],[40.8,13338],[40.8,13421],[40.8,13509],[40.8,13589],[40.8,13672],[40.8,13757],[40.8,13839],[40.8,13923],[40.8,14007],[40.8,14089],[40.6,14173],[40.6,14257],[39.8,14341],[39.2,14425],[38.4,14509],[38,14592],[37.8,14674],[37.8,14759],[37.8,14843],[37.8,14925],[37.8,15010],[37.8,15092],[37.8,15177],[37.8,15264],[37.8,15343],[37.8,15434],[37.8,15514],[37.8,15593],[37.8,15679],[37.8,15766],[37.8,15845],[37.8,15928],[37.8,16012],[37.8,16097],[37.8,16183],[37.8,16262],[37.8,16348],[37.8,16430],[37.8,16514],[37.8,16599],[37.8,16681],[37.8,16763],[37.8,16849],[37.8,16930],[37.8,17019],[37.8,17099],[37.8,17181],[38.1,17266],[39.5,17350],[39.6,17433],[39.6,17515],[39.6,17601],[39.6,17684],[39.6,17768],[39.2,17858],[38.9,17939],[38.6,18022],[38.6,18107],[38.4,18191],[38.3,18283],[38.3,18366],[38.3,18449],[38.3,18533],[38.3,18615],[38.3,18700],[38.3,18784],[38.3,18867],[38.3,18953],[38.3,19035],[38.3,19116],[38.3,19202],[38.3,19292],[38.3,19385],[38.3,19467],[38.3,19551],[38.3,19636],[38.3,19716],[38.3,19802],[38.3,19886],[38.3,19972],[38.3,20050],[38,20141],[36.8,20226],[36.4,20311],[36.2,20403],[36.2,20487],[36.2,20565],[36.2,20653],[36.2,20734],[36.2,20823],[36.2,20906],[36.2,20988],[36.2,21074],[36.2,21156],[36.2,21241],[36.2,21321],[36.2,21411],[36.2,21494],[36.2,21577],[36.2,21675],[36.2,21758],[36.2,21842],[36.2,21925],[36.2,22008],[36.2,22095],[36.2,22179],[36.2,22275],[36.2,22357],[36.2,22447],[36.2,22529],[36.2,22612],[36.2,22696],[36.2,22780],[36.2,22864],[36.2,22948],[36.2,23031],[36.2,23115],[36.2,23198],[36.2,23281],[36.2,23378],[36.2,23471],[36.2,23560],[36.2,23644],[36.2,23730],[36.2,23811],[36.2,23897],[36.2,23979],[36.2,24068],[36.2,24150],[36.2,24235],[36.2,24317],[36.8,24414],[37.8,24499],[38.3,24581],[38.6,24665],[38.6,24748],[38.6,24832],[38.6,24914],[38.4,25002],[38,25088],[37.8,25170],[37.8,25254],[37.8,25336],[37.8,25420],[37.8,25505],[37.8,25587],[37.8,25672],[37.8,25754],[37.8,25838],[37.4,25922],[36.7,26006],[36.4,26092],[36.4,26173],[36.4,26256],[36.4,26339],[36.4,26435],[36.4,26520],[36.2,26604],[36.2,26686],[36.2,26773],[36.2,26853],[36.2,26937],[36.2,27020],[36.2,27106],[37.4,27191],[37.7,27273],[37.8,27356],[37.8,27437],[37.8,27522],[37.8,27607],[37.8,27695],[37.8,27791],[37.8,27874],[37.8,27961],[37.8,28057],[37.8,28144],[37.8,28229],[37.8,28312],[37.8,28395],[37.8,28479],[37.8,28563],[37.8,28648],[37.8,28741],[37.8,28826],[37.8,28910],[37.8,28992],[37.8,29086],[37.8,29169],[37.8,29253],[37.8,29332],[37.8,29416],[37.8,29501],[37.8,29583],[37.8,29665],[37.8,29764],[37.8,29847],[37.1,29946],[36.1,30039],[35.9,30135],[35.9,30217],[35.9,30313],[35.9,30398],[35.9,30480],[35.9,30561],[35.9,30649],[35.9,30733],[35.9,30816],[35.9,30899],[35.9,30983],[35.9,31066],[35.9,31151],[36.8,31235],[38.7,31333],[38.7,31421],[38.7,31505],[38.7,31587],[38.7,31671],[38.7,31768],[38.7,31863]]",0,0,0,0,1,"Larry had recently lost his family, job and home, and was now living on his own in the park. He had most of his belongings, including some clothes, a blanket, and his mother’s special necklace. His family had been very important to him and he felt as though he did not have much going for him. One of his first days in the park he came across a family that did not have much food and looked very cold. He decided to give them some of his food and his blanket.","Larry had recently lost his family, job and home, and was now living on his own in the park. He had most of his belongings, including some clothes, a blanket, and his mother’s special necklace. His family had been very important to him and he felt as though he did not have much going for him. One of his first days in the park he came across a family that did not have much food and looked very cold. He decided to give them some of his food and his blanket.","Larry had recently lost his family, job and home, and was now living on his own in the park. He had most of his belongings, including some clothes, a blanket, and his mother’s special necklace. His family had been very important to him and he felt as though he did not have much going for him. One of his first days in the park he came across a family that did not have much food and looked very cold. He decided to give them some of his food and his blanket.","Larry had recently lost his family, job and home, and was now living on his own in the park. He had most of his belongings, including some clothes, a blanket, and his mother’s special necklace. His family had been very important to him and he felt as though he did not have much going for him. One of his first days in the park he came across a family that did not have much food and looked very cold. He decided to give them some of his food and his blanket.",,,,,,,,,,
