exp_question,consent.started,consent.stopped,consentResponse.keys,consentResponse.rt,consentResponse.duration,participantID,date,expName,psychopyVersion,OS,frameRate,STUDY_ID,SESSION_ID,opening1.started,opening1.stopped,keyEndingOpening1.keys,keyEndingOpening1.rt,keyEndingOpening1.duration,volumeAdjust.started,volumeAdjust.stopped,endingAdjust.keys,endingAdjust.rt,endingAdjust.duration,opening2.started,opening2.stopped,keyEndingOpening.keys,keyEndingOpening.rt,keyEndingOpening.duration,mouse.x,mouse.y,mouse.leftButton,mouse.midButton,mouse.rightButton,mouse.time,instructionLoop.thisRepN,instructionLoop.thisTrialN,instructionLoop.thisN,instructionLoop.thisIndex,instructionLoop.ran,readyForAudio.started,readyForAudio.stopped,fixation.started,run,audio_played,fixation.stopped,endPractice.keys,audioPre.started,audioPre.stopped,continuousResponses_audio,continuousSlider.response,continuousSlider.rt,intRating.started,intRating.stopped,intQuestionSlider.response,intQuestionSlider.rt,intQuestionSlider.history,confirmResponse.keys,confirmResponse.rt,confirmResponse.duration,catchQuestion.started,catch_label,catch_value,catchQuestion.stopped,catchQuestionSlider.response,catchQuestionSlider.rt,catchQuestionSlider.history,confirmResponse_2.keys,audioRunLoop.thisRepN,audioRunLoop.thisTrialN,audioRunLoop.thisN,audioRunLoop.thisIndex,audioRunLoop.ran,conditions1_1,conditions2_1,conditions1_2,conditions2_2,dur1_1,dur2_1,dur1_2,dur2_2,endPractice.rt,endPractice.duration,confirmResponse_2.rt,confirmResponse_2.duration,runIntervalBreak.started,runIntervalBreak.stopped,endingBreakKey.keys,endingBreakKey.rt,endingBreakKey.duration,connection.started,connection.stopped,connectionEnding.keys,connectionEnding.rt,connectionEnding.duration,readyForText.started,readyForText.stopped,textPre.started,run_dup,textPre.stopped,continuousResponses_text,textRunLoop.thisRepN,textRunLoop.thisTrialN,textRunLoop.thisN,textRunLoop.thisIndex,textRunLoop.ran,text1_1,text1_2,text2_1,text2_2,runBreakText.started,runBreakText.stopped,endingBreakKey_2.keys,endingBreakKey_2.rt,endingBreakKey_2.duration,ending.started,ending.stopped,endingEnding.keys,endingEnding.rt,endingEnding.duration
social,0.0004,9.4978,y,9.1841,,651ec39e94e965c024ee25c6,2024-02-08_16h06.31.031,group3.1-3.2-social-tom,2023.2.2,Win32,60.24096386,65c5074098b851296ff0b7ed,65c54192226867aa5ea6037e,,,,,,,,,,,,,,,,,,,,,,,,,,,,,,,,,,,,,,,,,,,,,,,,,,,,,,,,,,,,,,,,,,,,,,,,,,,,,,,,,,,,,,,,,,,,,,,,,,,,,,,,,,
,,,,,,651ec39e94e965c024ee25c6,2024-02-08_16h06.31.031,group3.1-3.2-social-tom,2023.2.2,Win32,60.24096386,65c5074098b851296ff0b7ed,65c54192226867aa5ea6037e,9.4985,43.0828,space,33.4602,,,,,,,,,,,,,,,,,,,,,,,,,,,,,,,,,,,,,,,,,,,,,,,,,,,,,,,,,,,,,,,,,,,,,,,,,,,,,,,,,,,,,,,,,,,,,,,,,,,,,,
,,,,,,651ec39e94e965c024ee25c6,2024-02-08_16h06.31.031,group3.1-3.2-social-tom,2023.2.2,Win32,60.24096386,65c5074098b851296ff0b7ed,65c54192226867aa5ea6037e,,,,,,43.0832,74.0735,space,30.6688,,,,,,,,,,,,,,,,,,,,,,,,,,,,,,,,,,,,,,,,,,,,,,,,,,,,,,,,,,,,,,,,,,,,,,,,,,,,,,,,,,,,,,,,,,,,,,,,,
,,,,,,651ec39e94e965c024ee25c6,2024-02-08_16h06.31.031,group3.1-3.2-social-tom,2023.2.2,Win32,60.24096386,65c5074098b851296ff0b7ed,65c54192226867aa5ea6037e,,,,,,,,,,,74.1245,74.1881,space,0.0253,,[],[],[],[],[],[],0,0,0,0,1,,,,,,,,,,,,,,,,,,,,,,,,,,,,,,,,,,,,,,,,,,,,,,,,,,,,,,,,,,,,,,,,,,,,,,,,,,,,,,,,
,,,,,,651ec39e94e965c024ee25c6,2024-02-08_16h06.31.031,group3.1-3.2-social-tom,2023.2.2,Win32,60.24096386,65c5074098b851296ff0b7ed,65c54192226867aa5ea6037e,,,,,,,,,,,74.19,105.451,space,31.1086,,[],[],[],[],[],[],1,0,1,0,1,,,,,,,,,,,,,,,,,,,,,,,,,,,,,,,,,,,,,,,,,,,,,,,,,,,,,,,,,,,,,,,,,,,,,,,,,,,,,,,,
,,,,,,651ec39e94e965c024ee25c6,2024-02-08_16h06.31.031,group3.1-3.2-social-tom,2023.2.2,Win32,60.24096386,65c5074098b851296ff0b7ed,65c54192226867aa5ea6037e,,,,,,,,,,,105.4812,151.6989,space,46.1211,,[],[],[],[],[],[],2,0,2,0,1,,,,,,,,,,,,,,,,,,,,,,,,,,,,,,,,,,,,,,,,,,,,,,,,,,,,,,,,,,,,,,,,,,,,,,,,,,,,,,,,
,,,,,,651ec39e94e965c024ee25c6,2024-02-08_16h06.31.031,group3.1-3.2-social-tom,2023.2.2,Win32,60.24096386,65c5074098b851296ff0b7ed,65c54192226867aa5ea6037e,,,,,,,,,,,151.7274,174.1415,space,22.3732,,[],[],[],[],[],[],3,0,3,0,1,,,,,,,,,,,,,,,,,,,,,,,,,,,,,,,,,,,,,,,,,,,,,,,,,,,,,,,,,,,,,,,,,,,,,,,,,,,,,,,,
,,,,,,651ec39e94e965c024ee25c6,2024-02-08_16h06.31.031,group3.1-3.2-social-tom,2023.2.2,Win32,60.24096386,65c5074098b851296ff0b7ed,65c54192226867aa5ea6037e,,,,,,,,,,,174.1706,183.102,space,8.8903,,[],[],[],[],[],[],4,0,4,0,1,,,,,,,,,,,,,,,,,,,,,,,,,,,,,,,,,,,,,,,,,,,,,,,,,,,,,,,,,,,,,,,,,,,,,,,,,,,,,,,,
,,,,,,651ec39e94e965c024ee25c6,2024-02-08_16h06.31.031,group3.1-3.2-social-tom,2023.2.2,Win32,60.24096386,65c5074098b851296ff0b7ed,65c54192226867aa5ea6037e,,,,,,,,,,,,,,,,,,,,,,,,,,,183.1351,185.7032,185.7861,1,audio/Narrative13Situation2.wav,187.7877,,187.7885,217.5914,"[[999,4],[999,231],[999,315],[999,398],[999,481],[999,565],[999,648],[999,731],[999,815],[999,899],[999,982],[999,1065],[999,1148],[999,1232],[999,1315],[999,1400],[999,1482],[999,1565],[999,1648],[999,1732],[999,1816],[999,1900],[999,1985],[999,2065],[999,2151],[999,2232],[999,2316],[999,2399],[999,2483],[999,2565],[999,2651],[999,2734],[999,2817],[999,2900],[999,2982],[999,3066],[999,3149],[999,3232],[999,3316],[999,3399],[999,3483],[999,3566],[999,3649],[999,3733],[999,3816],[999,3899],[999,3983],[999,4066],[999,4149],[999,4233],[999,4316],[999,4399],[999,4485],[999,4567],[999,4650],[999,4733],[999,4817],[999,4900],[999,4983],[999,5066],[999,5150],[999,5233],[999,5316],[999,5400],[999,5483],[999,5567],[999,5653],[999,5734],[999,5822],[999,5900],[999,5984],[999,6067],[999,6150],[999,6234],[999,6317],[999,6400],[999,6484],[999,6567],[999,6651],[999,6734],[999,6817],[999,6901],[999,6984],[999,7069],[999,7152],[999,7234],[999,7318],[999,7401],[999,7484],[999,7570],[999,7651],[999,7734],[999,7820],[999,7901],[999,7984],[999,8068],[999,8151],[999,8235],[999,8320],[999,8402],[999,8486],[999,8568],[999,8652],[999,8735],[999,8820],[999,8902],[999,8985],[999,9068],[999,9152],[999,9236],[999,9320],[999,9402],[999,9485],[999,9569],[999,9652],[999,9736],[999,9820],[999,9902],[999,9986],[999,10070],[999,10152],[999,10236],[999,10319],[999,10403],[999,10486],[999,10569],[999,10652],[999,10737],[999,10819],[999,10903],[999,10986],[999,11070],[999,11153],[999,11236],[999,11319],[999,11403],[999,11486],[999,11570],[999,11653],[999,11736],[999,11820],[999,11903],[999,11987],[999,12070],[999,12153],[999,12236],[999,12320],[999,12403],[999,12487],[999,12570],[999,12653],[999,12737],[999,12820],[999,12904],[999,12987],[999,13070],[999,13154],[999,13237],[999,13320],[999,13404],[999,13487],[999,13570],[999,13654],[999,13737],[999,13821],[999,13904],[999,13987],[999,14071],[999,14154],[999,14237],[999,14321],[999,14404],[999,14491],[999,14572],[999,14654],[999,14740],[999,14821],[999,14904],[999,14988],[999,15071],[999,15155],[999,15240],[999,15321],[999,15405],[999,15488],[999,15571],[999,15655],[999,15738],[999,15822],[999,15904],[999,15988],[999,16071],[999,16155],[999,16238],[999,16321],[999,16405],[999,16488],[999,16572],[999,16655],[999,16738],[999,16821],[999,16905],[999,16988],[999,17072],[999,17155],[999,17238],[999,17322],[999,17405],[999,17488],[999,17572],[999,17656],[999,17741],[999,17822],[999,17906],[999,17990],[999,18073],[999,18156],[999,18239],[999,18323],[999,18406],[999,18489],[999,18573],[999,18656],[999,18739],[999,18824],[999,18906],[999,18989],[999,19073],[999,19157],[999,19240],[999,19323],[999,19407],[999,19490],[999,19573],[999,19660],[999,19740],[999,19823],[999,19907],[999,19990],[999,20073],[999,20157],[999,20240],[999,20324],[999,20410],[999,20490],[999,20574],[999,20659],[999,20741],[999,20824],[999,20907],[999,20990],[999,21074],[999,21157],[999,21241],[999,21324],[999,21407],[999,21491],[999,21574],[999,21661],[999,21741],[999,21824],[999,21907],[999,21991],[999,22075],[999,22158],[999,22241],[999,22325],[999,22410],[999,22491],[999,22575],[999,22660],[999,22741],[999,22825],[999,22909],[999,22992],[999,23075],[999,23160],[999,23242],[999,23325],[999,23408],[999,23492],[999,23575],[999,23658],[999,23742],[999,23825],[999,23911],[999,23992],[999,24075],[999,24158],[999,24242],[999,24325],[999,24409],[999,24492],[999,24575],[999,24660],[999,24742],[999,24826],[999,24910],[999,24992],[999,25076],[999,25160],[999,25243],[999,25326],[999,25409],[999,25492],[999,25576],[999,25659],[999,25743],[999,25826],[999,25909],[999,25993],[999,26076],[999,26159],[999,26244],[999,26327],[999,26410],[999,26493],[999,26576],[999,26660],[999,26743],[999,26827],[999,26910],[999,26993],[999,27077],[999,27160],[999,27243],[999,27327],[999,27410],[999,27494],[999,27577],[999,27660],[999,27743],[999,27827],[999,27910],[999,27994],[999,28077],[999,28161],[999,28244],[999,28330],[999,28411],[999,28494],[999,28580],[999,28661],[999,28744],[999,28828],[999,28911],[999,28994],[999,29080],[999,29161],[999,29244],[999,29328],[999,29411],[999,29494],[999,29578],[999,29681],[999,29761]]",1,0,217.5923,234.0016,83.27505287,10.8349,"[{""rating"":82.39632165438134,""responseTime"":9.051299999952334},{""rating"":83.27505287388503,""responseTime"":10.834899999976159}]",space,15.8762,,234.03,Not at all,0,234.0431,,,[],,0,0,0,0,1,audio/Narrative13Situation2.wav,audio/Narrative13Situation2.wav,audio/Narrative13Situation2.wav,audio/Narrative13Situation2.wav,2,2,2,2,,,,,,,,,,,,,,,,,,,,,,,,,,,,,,,,,,,,,,,
,,,,,,651ec39e94e965c024ee25c6,2024-02-08_16h06.31.031,group3.1-3.2-social-tom,2023.2.2,Win32,60.24096386,65c5074098b851296ff0b7ed,65c54192226867aa5ea6037e,,,,,,,,,,,,,,,,,,,,,,,,,,,,,234.0441,1,audio/Narrative7Situation1.wav,243.9718,space,243.9719,299.8546,"[[999,27],[999,140],[999,223],[999,306],[999,390],[999,473],[999,557],[999,641],[999,726],[999,807],[999,890],[999,973],[999,1057],[999,1140],[999,1224],[999,1307],[999,1390],[999,1474],[999,1557],[999,1640],[999,1730],[999,1808],[999,1891],[999,1975],[999,2057],[999,2141],[999,2224],[999,2307],[999,2391],[999,2477],[999,2557],[999,2641],[999,2726],[999,2808],[999,2891],[999,2977],[999,3058],[999,3141],[999,3224],[999,3308],[999,3391],[999,3477],[999,3558],[999,3641],[999,3727],[999,3808],[999,3891],[999,3975],[999,4058],[999,4141],[999,4224],[999,4308],[999,4391],[999,4475],[999,4558],[999,4642],[999,4725],[999,4808],[999,4892],[999,4976],[999,5058],[999,5142],[999,5226],[999,5309],[999,5392],[999,5476],[999,5559],[999,5642],[999,5725],[999,5809],[999,5892],[999,5977],[999,6060],[999,6143],[999,6226],[999,6309],[999,6392],[999,6476],[999,6559],[999,6647],[999,6727],[999,6810],[999,6893],[999,6976],[999,7059],[999,7143],[999,7226],[999,7310],[999,7393],[999,7476],[999,7560],[999,7643],[999,7726],[999,7810],[999,7893],[999,7977],[999,8060],[999,8144],[999,8227],[999,8310],[999,8394],[999,8477],[999,8560],[999,8643],[999,8727],[999,8810],[999,8894],[999,8977],[999,9061],[999,9144],[999,9227],[999,9311],[999,9394],[999,9478],[999,9561],[999,9644],[999,9727],[999,9810],[999,9894],[999,9978],[999,10061],[999,10144],[999,10228],[999,10311],[999,10397],[999,10480],[999,10561],[999,10647],[999,10728],[999,10811],[999,10894],[999,10978],[999,11061],[999,11147],[999,11228],[999,11311],[999,11395],[999,11478],[999,11561],[999,11647],[999,11728],[999,11812],[999,11897],[999,11978],[999,12062],[999,12147],[999,12228],[999,12312],[999,12396],[999,12478],[999,12562],[999,12646],[999,12729],[999,12812],[999,12896],[999,12979],[999,13062],[999,13145],[999,13229],[999,13313],[999,13396],[999,13479],[999,13562],[999,13646],[999,13729],[999,13812],[999,13896],[999,13979],[999,14063],[999,14147],[999,14230],[999,14313],[999,14396],[999,14479],[999,14563],[999,14646],[999,14729],[999,14813],[999,14896],[999,14980],[999,15063],[999,15147],[999,15230],[999,15313],[999,15397],[999,15480],[999,15564],[999,15646],[999,15731],[999,15813],[999,15897],[999,15980],[999,16063],[999,16147],[999,16230],[999,16313],[999,16397],[999,16480],[999,16564],[999,16647],[999,16730],[999,16814],[999,16897],[999,16981],[999,17064],[999,17147],[999,17230],[999,17314],[999,17398],[999,17481],[999,17564],[999,17647],[999,17731],[999,17821],[999,17897],[999,17981],[999,18064],[999,18148],[999,18231],[999,18317],[999,18398],[999,18481],[999,18566],[999,18648],[999,18731],[999,18815],[999,18898],[999,18981],[999,19067],[999,19148],[999,19232],[999,19316],[999,19399],[999,19482],[999,19566],[999,19649],[999,19732],[999,19816],[999,19899],[999,19982],[999,20067],[999,20149],[999,20232],[999,20317],[999,20399],[999,20482],[999,20566],[999,20649],[999,20732],[999,20816],[999,20899],[999,20982],[999,21066],[999,21149],[999,21232],[999,21316],[999,21399],[999,21483],[999,21567],[999,21649],[999,21733],[999,21817],[999,21899],[999,21983],[999,22066],[999,22149],[999,22233],[999,22316],[999,22400],[999,22483],[999,22567],[999,22650],[999,22733],[999,22816],[999,22900],[999,22983],[999,23067],[999,23150],[999,23233],[999,23317],[999,23400],[999,23483],[999,23567],[999,23650],[999,23733],[999,23817],[999,23900],[999,23984],[999,24067],[999,24151],[999,24236],[999,24317],[999,24401],[999,24486],[999,24567],[999,24651],[999,24737],[999,24817],[999,24901],[999,24987],[999,25067],[999,25151],[999,25238],[999,25319],[999,25401],[999,25488],[999,25567],[999,25651],[999,25735],[999,25818],[999,25902],[999,25990],[999,26070],[999,26153],[999,26235],[999,26318],[999,26402],[999,26487],[999,26569],[85.9,26653],[73,26752],[56.6,26837],[52.5,26918],[50.9,27002],[48.6,27086],[48.6,27169],[48.6,27252],[48.6,27335],[48.6,27418],[48.6,27502],[48.6,27586],[48.6,27669],[48.9,27753],[49.2,27836],[49.6,27919],[50.2,28003],[50.6,28085],[51.4,28170],[52.5,28256],[54,28337],[58.7,28420],[64.4,28506],[66.8,28587],[67.2,28670],[67.2,28753],[67.2,28837],[67.2,28920],[67.2,29003],[67.2,29086],[67.2,29169],[67.2,29253],[67.2,29336],[67.2,29419],[67.2,29503],[67.2,29586],[67.2,29669],[67.2,29753],[67.2,29836],[67.2,29920],[67.2,30004],[67.3,30086],[67.3,30170],[67.3,30253],[67.3,30336],[67.3,30420],[67.3,30503],[67.3,30587],[67.3,30670],[67.3,30753],[67.3,30837],[67.3,30920],[67.3,31004],[67.3,31087],[67.3,31170],[67.3,31253],[67.3,31337],[67.3,31420],[67.3,31507],[67.3,31587],[67.3,31670],[67.3,31754],[67.3,31837],[67.3,31920],[67.3,32004],[67.3,32087],[67.3,32171],[67.3,32254],[67.3,32337],[67.3,32421],[67.3,32506],[67.3,32587],[67.3,32671],[67.3,32755],[67.3,32838],[67.3,32921],[67.3,33007],[67.3,33088],[67.3,33171],[67.3,33255],[67.3,33338],[67.3,33422],[67.3,33504],[67.3,33588],[67.5,33688],[67.5,33771],[67.5,33856],[67.5,33938],[67.5,34022],[67.5,34105],[67.5,34189],[67.5,34272],[67.5,34357],[67.5,34438],[67.5,34522],[67.5,34605],[67.5,34688],[67.5,34772],[67.5,34857],[67.5,34939],[67.5,35022],[67.5,35107],[67.5,35189],[67.5,35272],[67.5,35355],[67.5,35439],[67.5,35522],[67.5,35606],[67.5,35689],[67.5,35772],[67.5,35856],[67.5,35940],[67.5,36022],[67.5,36106],[67.5,36189],[67.5,36273],[67.5,36356],[67.5,36439],[67.5,36523],[67.5,36606],[67.5,36689],[67.5,36773],[67.5,36856],[67.5,36939],[67.5,37023],[67.5,37107],[67.5,37190],[67.5,37273],[67.5,37357],[67.5,37440],[67.5,37523],[67.5,37606],[67.5,37690],[67.5,37774],[67.5,37856],[67.9,37942],[68.1,38027],[68.2,38108],[68.2,38190],[68.2,38277],[68.4,38359],[68.4,38442],[68.4,38527],[68.4,38609],[68.7,38694],[66.9,39944],[66.9,40027],[66.9,40108],[66.8,40192],[66.8,40278],[66.8,40359],[66.5,40443],[66.5,40528],[66.5,40610],[66.6,40696],[66.6,40777],[66.6,40861],[66.8,40945],[66.2,41030],[66.5,41110],[66.5,41192],[66.5,41276],[65.9,41361],[65.7,41442],[65.1,41526],[64.7,41610],[64.7,41694],[64.7,41777],[63.8,41862],[63.2,41945],[64.1,42027],[64.1,42109],[64.1,42193],[64.1,42277],[64.1,42360],[64.3,42447],[64.4,42528],[64.4,42609],[64.4,42692],[64.4,42776],[64.4,42859],[64.4,42944],[64.6,43028],[64.6,43111],[64.6,43196],[64.6,43276],[64.6,43361],[64.6,43446],[64.6,43526],[64.6,43611],[64.7,43697],[64.8,43778],[65.4,43861],[65.4,43947],[65.4,44028],[65.4,44111],[66.9,44198],[65.7,44276],[65.7,44361],[65.9,44444],[65.9,44526],[66.2,44610],[66.2,44697],[66.3,44778],[67,44868],[67,44947],[67.2,45031],[66.9,45113],[66.9,45197],[66.9,45277],[66.9,45360],[66.8,45447],[66.9,45529],[66.9,45612],[66.8,45698],[66.6,45779],[66.6,45862],[66,45948],[65.9,46029],[65.6,46113],[65.4,46197],[65.1,46280],[65.4,46364],[65.4,46447],[65.6,46530],[66,46612],[66,46698],[66,46779],[66,46863],[66,46947],[66,47028],[66,47113],[66,47198],[66,47279],[66.5,47365],[66.9,47447],[66.9,47529],[66.9,47614],[66.6,47699],[66.6,47780],[66.6,47865],[66.6,47948],[66.6,48030],[66.8,48113],[66.8,48197],[66.9,48281],[67,48365],[67.2,48450],[67.3,48530],[67.3,48613],[67.9,48696],[67.8,48780],[67.8,48863],[67.8,48948],[67.8,49030],[67.8,49114],[67.8,49199],[67.8,49280],[67,49365],[67,49447],[67,49530],[66.9,49614],[66.9,49698],[66.6,49780],[66.6,49862],[66.6,49945],[66.6,50029],[66.6,50115],[66.6,50196],[66.6,50279],[66.6,50362],[66.3,50448],[66.3,50529],[66.3,50613],[66.3,50696],[66.2,50779],[66.2,50863],[66.2,50946],[66.2,51029],[66.2,51113],[66.2,51198],[66,51279],[65.7,51366],[65.6,51448],[65.6,51529],[65.6,51617],[65.7,51699],[66.2,51779],[66.3,51863],[66.3,51946],[66.3,52029],[66.3,52113],[66.3,52196],[66.3,52280],[66.5,52367],[66.5,52448],[66.5,52531],[66.2,52620],[66.2,52700],[67,52782],[67,52867],[67,52949],[67,53032],[67,53117],[67,53199],[67,53282],[67,53367],[67,53447],[67,53532],[67,53617],[67,53699],[67,53781],[67.2,53867],[67.2,53947],[67.2,54031],[67.2,54117],[67.3,54199],[67.8,54282]]",1,0,299.8558,307.5912,57.49878156,6.4797,"[{""rating"":57.35232099705232,""responseTime"":6.40749999999997},{""rating"":57.4987815636854,""responseTime"":6.479699999928471}]",space,7.1914,,307.5915,Definitely yes,100,307.6042,,,[],,0,1,1,1,1,audio/Narrative7Situation1.wav,audio/Narrative8Situation1.wav,audio/Narrative5Situation1.wav,audio/Narrative6Situation1.wav,2,5,5,2,9.8721,,,,,,,,,,,,,,,,,,,,,,,,,,,,,,,,,,,,,,
,,,,,,651ec39e94e965c024ee25c6,2024-02-08_16h06.31.031,group3.1-3.2-social-tom,2023.2.2,Win32,60.24096386,65c5074098b851296ff0b7ed,65c54192226867aa5ea6037e,,,,,,,,,,,,,,,,,,,,,,,,,,,,,307.6049,1,audio/Narrative7Situation2.wav,310.609,,310.6091,318.0786,"[[999,2],[999,115],[999,199],[999,283],[999,366],[999,449],[999,533],[999,616],[999,700],[999,784],[999,869],[999,950],[999,1033],[999,1117],[999,1200],[999,1283],[999,1366],[999,1450],[999,1533],[999,1616],[999,1700],[999,1783],[999,1867],[999,1950],[999,2034],[999,2120],[999,2200],[999,2283],[999,2369],[999,2450],[999,2533],[999,2617],[999,2700],[999,2783],[999,2868],[999,2950],[999,3034],[999,3117],[999,3200],[999,3283],[999,3368],[999,3450],[999,3534],[999,3618],[999,3701],[999,3784],[999,3871],[999,3951],[999,4034],[999,4117],[999,4201],[999,4285],[999,4369],[999,4451],[999,4535],[999,4620],[999,4701],[999,4785],[999,4869],[999,4951],[999,5034],[999,5119],[999,5201],[999,5285],[999,5369],[999,5451],[999,5535],[999,5618],[999,5702],[999,5785],[999,5868],[999,5952],[999,6035],[999,6119],[999,6202],[999,6285],[999,6369],[999,6452],[999,6535],[999,6619],[999,6702],[999,6785],[999,6869],[999,6952],[999,7035],[999,7119],[999,7202],[999,7286],[999,7369],[999,7453]]",1,0,318.0789,322.4644,24.83907279,2.8616,"[{""rating"":24.839072793647183,""responseTime"":2.8616000000238273}]",space,3.8537,,322.4647,Definitely yes,100,322.4729,,,[],,0,2,2,2,1,audio/Narrative7Situation2.wav,audio/Narrative8Situation2.wav,audio/Narrative5Situation2.wav,audio/Narrative6Situation2.wav,3,3,3,3,,,,,,,,,,,,,,,,,,,,,,,,,,,,,,,,,,,,,,,
,,,,,,651ec39e94e965c024ee25c6,2024-02-08_16h06.31.031,group3.1-3.2-social-tom,2023.2.2,Win32,60.24096386,65c5074098b851296ff0b7ed,65c54192226867aa5ea6037e,,,,,,,,,,,,,,,,,,,,,,,,,,,,,322.4745,1,audio/Narrative7Situation3.wav,330.4846,,330.4848,339.7393,"[[999,30],[999,149],[999,234],[999,316],[999,400],[999,483],[999,566],[999,653],[999,733],[999,816],[999,900],[999,983],[999,1066],[999,1150],[999,1233],[999,1316],[999,1400],[999,1484],[999,1567],[999,1650],[999,1733],[999,1817],[999,1900],[999,1983],[999,2067],[999,2150],[999,2233],[999,2317],[999,2400],[999,2483],[999,2567],[999,2650],[999,2733],[999,2817],[999,2900],[999,2984],[999,3067],[999,3150],[999,3234],[999,3317],[999,3401],[999,3484],[999,3567],[999,3651],[999,3734],[999,3818],[999,3901],[999,3984],[999,4067],[999,4153],[999,4235],[999,4318],[999,4404],[999,4485],[999,4568],[999,4654],[999,4734],[999,4818],[999,4904],[999,4984],[999,5068],[999,5153],[999,5235],[999,5318],[999,5404],[999,5485],[999,5568],[999,5651],[999,5735],[999,5819],[999,5904],[999,5985],[999,6068],[999,6153],[999,6235],[999,6319],[999,6403],[999,6485],[999,6569],[999,6653],[999,6735],[999,6819],[999,6903],[999,6986],[999,7069],[999,7152],[999,7235],[999,7319],[999,7403],[999,7485],[999,7569],[999,7653],[999,7736],[999,7819],[999,7902],[999,7986],[999,8069],[999,8153],[999,8236],[999,8319],[999,8403],[999,8486],[999,8569],[999,8653],[999,8736],[999,8819],[999,8903],[999,8986],[999,9070],[999,9153],[999,9237]]",1,0,339.7399,344.732,97.4812934,3.477,"[{""rating"":97.48129340331404,""responseTime"":3.4770000000000323}]",space,4.4432,,344.7322,Partially,50,344.7428,,,[],,0,3,3,3,1,audio/Narrative7Situation3.wav,audio/Narrative8Situation3.wav,audio/Narrative5Situation3.wav,audio/Narrative6Situation3.wav,8,4,3,5,,,,,,,,,,,,,,,,,,,,,,,,,,,,,,,,,,,,,,,
,,,,,,651ec39e94e965c024ee25c6,2024-02-08_16h06.31.031,group3.1-3.2-social-tom,2023.2.2,Win32,60.24096386,65c5074098b851296ff0b7ed,65c54192226867aa5ea6037e,,,,,,,,,,,,,,,,,,,,,,,,,,,,,344.7436,1,audio/Narrative7Situation4.wav,347.7494,,347.7496,359.4816,"[[999,2],[999,125],[999,209],[999,292],[999,376],[999,460],[999,542],[999,625],[999,710],[999,794],[999,875],[999,959],[999,1042],[999,1126],[999,1210],[999,1292],[999,1376],[999,1459],[999,1543],[999,1629],[999,1709],[999,1793],[999,1878],[999,1959],[999,2043],[999,2129],[999,2210],[999,2293],[999,2379],[999,2460],[999,2543],[999,2628],[999,2710],[999,2794],[999,2879],[999,2960],[999,3043],[999,3129],[999,3210],[999,3293],[999,3377],[999,3460],[999,3544],[999,3629],[999,3711],[999,3794],[999,3877],[999,3961],[999,4044],[999,4129],[999,4210],[999,4294],[999,4379],[999,4461],[999,4544],[999,4628],[999,4711],[999,4794],[999,4882],[999,4961],[999,5045],[999,5128],[999,5211],[999,5294],[999,5378],[999,5461],[999,5545],[999,5628],[999,5711],[999,5795],[999,5879],[999,5961],[999,6045],[999,6128],[999,6211],[999,6295],[999,6378],[999,6461],[999,6545],[999,6628],[999,6711],[999,6795],[999,6879],[999,6962],[999,7045],[999,7128],[999,7212],[999,7295],[999,7379],[999,7462],[999,7545],[999,7629],[999,7712],[999,7795],[999,7879],[999,7962],[999,8046],[999,8129],[999,8212],[999,8299],[999,8379],[999,8463],[999,8546],[999,8629],[999,8712],[999,8796],[999,8879],[999,8963],[999,9049],[999,9130],[999,9213],[999,9299],[999,9380],[999,9463],[999,9549],[999,9629],[999,9713],[999,9799],[999,9880],[999,9963],[999,10046],[999,10130],[999,10213],[999,10298],[999,10380],[999,10463],[999,10548],[999,10630],[999,10713],[999,10798],[999,10880],[999,10964],[999,11048],[999,11130],[999,11214],[999,11299],[999,11380],[999,11464],[999,11549],[999,11631],[999,11714]]",1,0,359.4821,366.2414,84.15379214,6.1449,"[{""rating"":84.1537921384624,""responseTime"":6.1448999999761895}]",space,6.2347,,366.2416,Not at all,0,366.2485,,,[],,0,4,4,4,1,audio/Narrative7Situation4.wav,audio/Narrative8Situation4.wav,audio/Narrative5Situation4.wav,audio/Narrative6Situation4.wav,3,3,1,2,,,,,,,,,,,,,,,,,,,,,,,,,,,,,,,,,,,,,,,
,,,,,,651ec39e94e965c024ee25c6,2024-02-08_16h06.31.031,group3.1-3.2-social-tom,2023.2.2,Win32,60.24096386,65c5074098b851296ff0b7ed,65c54192226867aa5ea6037e,,,,,,,,,,,,,,,,,,,,,,,,,,,,,366.2491,1,audio/Narrative7Situation5.wav,371.2613,,371.2614,379.7401,[],1,0,379.7402,383.6751,34.50517252,3.4384,"[{""rating"":34.505172523703614,""responseTime"":3.132100000023854},{""rating"":34.505172523703614,""responseTime"":3.438399999976184}]",space,3.3843,,383.6753,Partially,50,383.6832,,,[],,0,5,5,5,1,audio/Narrative7Situation5.wav,audio/Narrative8Situation5.wav,audio/Narrative5Situation5.wav,audio/Narrative6Situation5.wav,5,2,5,2,,,,,,,,,,,,,,,,,,,,,,,,,,,,,,,,,,,,,,,
,,,,,,651ec39e94e965c024ee25c6,2024-02-08_16h06.31.031,group3.1-3.2-social-tom,2023.2.2,Win32,60.24096386,65c5074098b851296ff0b7ed,65c54192226867aa5ea6037e,,,,,,,,,,,,,,,,,,,,,,,,,,,,,383.6838,1,audio/Narrative7Situation6.wav,386.693,,386.6931,396.6753,"[[999,24],[999,140],[999,225],[999,307],[999,390],[999,475],[999,557],[999,646],[999,725],[999,809],[999,891],[999,976],[999,1058],[999,1144],[999,1225],[999,1309],[999,1391],[999,1475],[999,1559],[999,1641],[999,1718],[999,1808],[999,1893],[999,1974],[999,2058],[999,2141],[999,2227],[999,2308],[999,2384],[999,2467],[999,2560],[999,2641],[999,2723],[999,2806],[999,2892],[999,2976],[999,3058],[999,3135],[999,3224],[999,3310],[999,3392],[999,3475],[999,3551],[999,3641],[999,3728],[999,3809],[999,3895],[999,3977],[999,4060],[999,4135],[999,4226],[999,4309],[999,4391],[999,4469],[999,4557],[999,4635],[999,4726],[999,4810],[999,4894],[999,4976],[999,5060],[999,5145],[999,5226],[999,5309],[999,5393],[999,5475],[999,5560],[999,5636],[999,5727],[999,5810],[999,5886],[999,5976],[999,6060],[999,6145],[999,6228],[999,6310],[999,6395],[999,6476],[999,6560],[999,6646],[999,6726],[999,6811],[999,6895],[999,6978],[999,7060],[999,7136],[999,7224],[999,7310],[999,7386],[999,7477],[999,7560],[999,7645],[999,7728],[999,7803],[999,7896],[999,7977],[999,8058],[999,8143],[999,8229],[999,8311],[999,8396],[999,8477],[999,8561],[999,8645],[999,8727],[999,8810],[999,8899],[999,8979],[999,9061],[999,9146],[999,9228],[999,9313],[999,9395],[999,9479],[999,9561],[999,9638],[999,9728],[999,9806],[999,9895],[999,9981]]",1,0,396.6757,399.9657,82.98213979,2.4625,"[{""rating"":82.98213978569257,""responseTime"":2.4624999999999773}]",space,2.7493,,399.9662,Definitely yes,100,399.9743,,,[],,0,6,6,6,1,audio/Narrative7Situation6.wav,audio/Narrative8Situation6.wav,audio/Narrative5Situation6.wav,audio/Narrative6Situation6.wav,3,2,3,2,,,,,,,,,,,,,,,,,,,,,,,,,,,,,,,,,,,,,,,
,,,,,,651ec39e94e965c024ee25c6,2024-02-08_16h06.31.031,group3.1-3.2-social-tom,2023.2.2,Win32,60.24096386,65c5074098b851296ff0b7ed,65c54192226867aa5ea6037e,,,,,,,,,,,,,,,,,,,,,,,,,,,,,399.9749,1,audio/Narrative7Situation7.wav,404.9849,,404.985,422.1587,[],1,0,422.1589,427.329,98.65294576,3.7004,"[{""rating"":98.65294575608391,""responseTime"":3.7003999999761277}]",space,4.64,,427.3292,Not at all,0,427.3391,,,[],,0,7,7,7,1,audio/Narrative7Situation7.wav,audio/Narrative8Situation7.wav,audio/Narrative5Situation7.wav,audio/Narrative6Situation7.wav,5,3,4,5,,,,,,,,,,,,,,,,,,,,,,,,,,,,,,,,,,,,,,,
,,,,,,651ec39e94e965c024ee25c6,2024-02-08_16h06.31.031,group3.1-3.2-social-tom,2023.2.2,Win32,60.24096386,65c5074098b851296ff0b7ed,65c54192226867aa5ea6037e,,,,,,,,,,,,,,,,,,,,,,,,,,,,,427.3399,1,audio/Narrative7Situation8.wav,429.3486,,429.3487,439.359,"[[999,1],[999,120],[999,204],[999,287],[999,363],[999,454],[999,540],[999,621],[999,705],[999,789],[999,872],[999,954],[999,1039],[999,1121],[999,1204],[999,1287],[999,1371],[999,1455],[999,1539],[999,1622],[999,1704],[999,1791],[999,1870],[999,1955],[999,2037],[999,2122],[999,2205],[999,2288],[999,2373],[999,2455],[999,2541],[999,2622],[999,2706],[999,2789],[999,2874],[999,2955],[999,3040],[999,3122],[999,3205],[999,3289],[999,3372],[999,3453],[999,3540],[999,3624],[999,3706],[999,3791],[999,3872],[999,3959],[999,4040],[999,4122],[999,4206],[999,4282],[999,4372],[999,4456],[999,4541],[999,4623],[999,4709],[999,4790],[999,4874],[999,4956],[999,5041],[999,5123],[999,5207],[999,5283],[999,5374],[999,5449],[999,5539],[999,5617],[999,5706],[999,5791],[999,5873],[999,5959],[999,6040],[999,6122],[999,6210],[999,6290],[999,6373],[999,6458],[999,6540],[999,6623],[999,6710],[999,6791],[999,6875],[999,6959],[999,7038],[999,7116],[999,7200],[999,7290],[999,7373],[999,7460],[999,7540],[999,7624],[999,7709],[999,7791],[999,7875],[999,7959],[999,8042],[999,8124],[999,8210],[999,8291],[999,8374],[999,8460],[999,8541],[999,8625],[999,8709],[999,8792],[999,8875],[999,8960],[999,9041],[999,9126],[999,9210],[999,9293],[999,9375],[999,9461],[999,9540],[999,9625],[999,9709],[999,9791],[999,9875],[999,9959]]",1,0,439.3593,450.2549,46.22166387,9.4275,"[{""rating"":46.221663871107275,""responseTime"":9.427500000000009}]",space,10.3563,,450.255,Definitely yes,100,450.2633,,,[],,0,8,8,8,1,audio/Narrative7Situation8.wav,audio/Narrative8Situation8.wav,audio/Narrative5Situation8.wav,audio/Narrative6Situation8.wav,2,3,3,5,,,,,,,,,,,,,,,,,,,,,,,,,,,,,,,,,,,,,,,
,,,,,,651ec39e94e965c024ee25c6,2024-02-08_16h06.31.031,group3.1-3.2-social-tom,2023.2.2,Win32,60.24096386,65c5074098b851296ff0b7ed,65c54192226867aa5ea6037e,,,,,,,,,,,,,,,,,,,,,,,,,,,,,450.2639,1,audio/Narrative7Situation9.wav,452.2724,,452.2724,460.8932,"[[999,1],[999,116],[999,199],[999,283],[999,366],[999,450],[999,533],[999,617],[999,700],[999,783],[999,867],[999,950],[999,1035],[999,1117],[999,1200],[999,1286],[999,1367],[999,1450],[999,1533],[999,1617],[999,1700],[999,1783],[999,1867],[999,1951],[999,2036],[999,2117],[999,2201],[999,2286],[999,2367],[999,2451],[999,2535],[999,2617],[999,2701],[999,2784],[999,2867],[999,2951],[999,3036],[999,3118],[999,3201],[999,3285],[999,3368],[999,3459],[999,3536],[999,3618],[999,3701],[999,3785],[999,3868],[999,3951],[999,4035],[999,4118],[999,4201],[999,4285],[999,4368],[999,4452],[999,4535],[999,4618],[999,4702],[999,4786],[999,4868],[999,4952],[999,5035],[999,5118],[999,5202],[999,5285],[999,5369],[999,5452],[999,5535],[999,5619],[999,5702],[999,5785],[999,5869],[999,5952],[999,6036],[999,6119],[999,6202],[999,6286],[999,6369],[999,6453],[999,6536],[999,6619],[999,6702],[999,6786],[999,6869],[999,6952],[999,7036],[999,7119],[999,7203],[999,7286],[999,7369],[999,7453],[999,7536],[999,7620],[999,7703],[999,7786],[999,7872],[999,7956],[999,8037],[999,8120],[999,8205],[999,8286],[999,8370],[999,8453],[999,8536],[999,8620]]",1,0,460.8934,464.071,86.64354937,2.5466,"[{""rating"":86.64354936556148,""responseTime"":2.5466000000238864}]",space,2.6576,,464.0711,Not at all,0,464.0782,,,[],,0,9,9,9,1,audio/Narrative7Situation9.wav,audio/Narrative8Situation9.wav,audio/Narrative5Situation9.wav,audio/Narrative6Situation9.wav,2,3,3,4,,,,,,,,,,,,,,,,,,,,,,,,,,,,,,,,,,,,,,,
,,,,,,651ec39e94e965c024ee25c6,2024-02-08_16h06.31.031,group3.1-3.2-social-tom,2023.2.2,Win32,60.24096386,65c5074098b851296ff0b7ed,65c54192226867aa5ea6037e,,,,,,,,,,,,,,,,,,,,,,,,,,,,,464.0799,1,audio/Narrative8Situation1.wav,469.0973,,469.0974,485.0375,[],1,0,485.038,487.6133,91.76951634,2.0122,"[{""rating"":91.769516341319,""responseTime"":2.0121999999284412}]",space,2.0411,,487.6134,Not at all,0,487.6203,,,[],,0,10,10,10,1,audio/Narrative8Situation1.wav,audio/Narrative7Situation1.wav,audio/Narrative6Situation1.wav,audio/Narrative5Situation1.wav,5,2,2,5,,,,,,,,,,,,,,,,,,,,,,,,,,,,,,,,,,,,,,,
,,,,,,651ec39e94e965c024ee25c6,2024-02-08_16h06.31.031,group3.1-3.2-social-tom,2023.2.2,Win32,60.24096386,65c5074098b851296ff0b7ed,65c54192226867aa5ea6037e,,,,,,,,,,,,,,,,,,,,,,,,,,,,,487.6221,1,audio/Narrative8Situation2.wav,490.6232,,490.6235,500.7445,[],1,0,500.7447,505.9138,90.30494286,3.9895,"[{""rating"":90.30494285528299,""responseTime"":3.989499999999964}]",space,4.6386,,505.9139,Partially,50,505.9248,,,[],,0,11,11,11,1,audio/Narrative8Situation2.wav,audio/Narrative7Situation2.wav,audio/Narrative6Situation2.wav,audio/Narrative5Situation2.wav,3,3,3,3,,,,,,,,,,,,,,,,,,,,,,,,,,,,,,,,,,,,,,,
,,,,,,651ec39e94e965c024ee25c6,2024-02-08_16h06.31.031,group3.1-3.2-social-tom,2023.2.2,Win32,60.24096386,65c5074098b851296ff0b7ed,65c54192226867aa5ea6037e,,,,,,,,,,,,,,,,,,,,,,,,,,,,,505.9258,1,audio/Narrative8Situation3.wav,509.9319,,509.9321,532.3257,"[[999,28],[999,149],[999,233],[999,316],[999,399],[999,483],[999,566],[999,651],[999,736],[999,817],[999,900],[999,986],[999,1066],[999,1150],[999,1233],[999,1316],[999,1400],[999,1485],[999,1566],[999,1650],[999,1733],[999,1816],[999,1900],[999,1983],[999,2067],[999,2150],[999,2233],[999,2317],[999,2400],[999,2484],[999,2567],[999,2650],[999,2734],[999,2817],[999,2901],[999,2986],[999,3067],[999,3157],[999,3236],[999,3317],[999,3401],[999,3485],[999,3567],[999,3651],[999,3735],[999,3817],[999,3901],[999,3985],[999,4067],[999,4151],[999,4234],[999,4318],[999,4401],[999,4486],[999,4568],[999,4651],[999,4734],[999,4818],[999,4901],[999,4985],[999,5068],[999,5151],[999,5235],[999,5318],[999,5401],[999,5485],[999,5568],[999,5652],[999,5735],[999,5818],[999,5902],[999,5986],[999,6069],[999,6152],[999,6235],[999,6319],[999,6402],[999,6485],[999,6569],[999,6652],[999,6735],[999,6819],[999,6902],[999,6985],[999,7069],[999,7152],[999,7236],[999,7319],[999,7403],[999,7486],[999,7569],[999,7653],[999,7736],[999,7820],[999,7903],[999,7986],[999,8069],[999,8155],[999,8236],[999,8320],[999,8403],[999,8486],[999,8569],[999,8658],[999,8736],[999,8820],[999,8903],[999,8986],[999,9071],[999,9156],[999,9236],[999,9320],[999,9405],[999,9486],[999,9570],[999,9655],[999,9737],[999,9820],[999,9903],[999,9987],[999,10071],[999,10155],[999,10237],[999,10321],[999,10404],[999,10487],[999,10571],[999,10655],[999,10737],[999,10821],[999,10906],[999,10987],[999,11071],[999,11155],[999,11237],[999,11321],[999,11406],[999,11488],[999,11571],[999,11655],[999,11738],[999,11821],[999,11905],[999,11988],[999,12071],[999,12155],[999,12238],[999,12321],[999,12406],[999,12489],[999,12572],[999,12655],[999,12738],[999,12821],[999,12905],[999,12988],[999,13072],[999,13155],[999,13239],[999,13322],[999,13405],[999,13489],[999,13572],[999,13655],[999,13739],[999,13822],[999,13905],[999,13989],[999,14072],[999,14155],[999,14239],[999,14322],[999,14406],[999,14489],[999,14572],[999,14656],[999,14739],[999,14822],[999,14906],[999,14989],[999,15072],[999,15156],[999,15240],[999,15323],[999,15406],[999,15490],[999,15574],[999,15656],[999,15740],[999,15823],[999,15906],[999,15990],[999,16074],[999,16156],[999,16240],[999,16325],[999,16407],[999,16490],[999,16576],[999,16657],[999,16740],[999,16825],[999,16907],[999,16990],[999,17076],[999,17157],[999,17240],[999,17323],[999,17407],[999,17490],[999,17575],[999,17657],[999,17741],[999,17826],[999,17907],[999,17991],[999,18075],[999,18158],[999,18241],[999,18326],[999,18407],[999,18491],[999,18575],[999,18658],[999,18741],[999,18826],[999,18908],[999,18991],[999,19074],[999,19158],[999,19241],[999,19325],[999,19408],[999,19491],[999,19574],[999,19658],[999,19742],[999,19829],[999,19908],[999,19992],[999,20075],[999,20158],[999,20242],[999,20325],[999,20408],[999,20492],[999,20575],[999,20659],[999,20742],[999,20826],[999,20908],[999,20992],[999,21076],[999,21158],[999,21242],[999,21325],[999,21409],[999,21492],[999,21575],[999,21659],[999,21742],[999,21826],[999,21909],[999,21993],[999,22076],[999,22159],[999,22242],[999,22326]]",1,0,532.3261,539.6288,78.73491207,4.3983,"[{""rating"":78.73491207451242,""responseTime"":4.398300000071458}]",space,6.7595,,539.6291,Definitely yes,100,539.639,,,[],,0,12,12,12,1,audio/Narrative8Situation3.wav,audio/Narrative7Situation3.wav,audio/Narrative6Situation3.wav,audio/Narrative5Situation3.wav,4,8,5,3,,,,,,,,,,,,,,,,,,,,,,,,,,,,,,,,,,,,,,,
,,,,,,651ec39e94e965c024ee25c6,2024-02-08_16h06.31.031,group3.1-3.2-social-tom,2023.2.2,Win32,60.24096386,65c5074098b851296ff0b7ed,65c54192226867aa5ea6037e,,,,,,,,,,,,,,,,,,,,,,,,,,,,,539.6396,1,audio/Narrative8Situation4.wav,542.6476,,542.6476,556.8042,"[[72.5,13007],[72.5,13090],[72.5,13171],[72.5,13254],[72.5,13341],[72.5,13422]]",1,0,556.8045,559.3707,95.57736235,1.9783,"[{""rating"":95.5773623525999,""responseTime"":1.9783000000716129}]",space,2.0188,,559.3708,Not at all,0,559.3784,,,[],,0,13,13,13,1,audio/Narrative8Situation4.wav,audio/Narrative7Situation4.wav,audio/Narrative6Situation4.wav,audio/Narrative5Situation4.wav,3,3,2,1,,,,,,,,,,,,,,,,,,,,,,,,,,,,,,,,,,,,,,,
,,,,,,651ec39e94e965c024ee25c6,2024-02-08_16h06.31.031,group3.1-3.2-social-tom,2023.2.2,Win32,60.24096386,65c5074098b851296ff0b7ed,65c54192226867aa5ea6037e,,,,,,,,,,,,,,,,,,,,,,,,,,,,,559.3796,1,audio/Narrative8Situation5.wav,561.3884,,561.3885,569.6421,[],1,0,569.6423,573.4603,71.55856957,3.3834,"[{""rating"":71.55856957155507,""responseTime"":3.3833999999760636}]",space,3.2813,,573.4605,Not at all,0,573.4662,,,[],,0,14,14,14,1,audio/Narrative8Situation5.wav,audio/Narrative7Situation5.wav,audio/Narrative6Situation5.wav,audio/Narrative5Situation5.wav,2,5,2,5,,,,,,,,,,,,,,,,,,,,,,,,,,,,,,,,,,,,,,,
,,,,,,651ec39e94e965c024ee25c6,2024-02-08_16h06.31.031,group3.1-3.2-social-tom,2023.2.2,Win32,60.24096386,65c5074098b851296ff0b7ed,65c54192226867aa5ea6037e,,,,,,,,,,,,,,,,,,,,,,,,,,,,,573.4672,1,audio/Narrative8Situation6.wav,575.4784,,575.4785,581.9475,[],1,0,581.9478,587.4681,46.36811639,5.0734,"[{""rating"":46.36811639266665,""responseTime"":5.073399999976232}]",space,4.9916,,587.4683,Definitely yes,100,587.478,,,[],,0,15,15,15,1,audio/Narrative8Situation6.wav,audio/Narrative7Situation6.wav,audio/Narrative6Situation6.wav,audio/Narrative5Situation6.wav,2,3,2,3,,,,,,,,,,,,,,,,,,,,,,,,,,,,,,,,,,,,,,,
,,,,,,651ec39e94e965c024ee25c6,2024-02-08_16h06.31.031,group3.1-3.2-social-tom,2023.2.2,Win32,60.24096386,65c5074098b851296ff0b7ed,65c54192226867aa5ea6037e,,,,,,,,,,,,,,,,,,,,,,,,,,,,,587.4787,1,audio/Narrative8Situation7.wav,590.4928,,590.4929,602.5832,"[[46.1,2210],[45.9,2293],[45.7,2376],[45.7,2459],[45.7,2542],[45.7,2626],[45.7,2709],[45.7,2795],[45.7,2876],[45.7,2959],[45.7,3045],[45.7,3126],[45.7,3209],[45.7,3294],[45.7,3376],[45.7,3459],[45.7,3543],[45.7,3626],[45.7,3710],[45.7,3793],[45.7,3876],[45.7,3960],[45.7,4044],[45.7,4126],[45.7,4210],[45.7,4295],[45.7,4376],[45.7,4460],[45.7,4544],[45.7,4627],[45.7,4710],[45.7,4794],[45.7,4877],[45.7,4960],[45.7,5044],[45.7,5127],[45.7,5210],[45.7,5294],[45.7,5377],[45.7,5460],[45.7,5544],[45.7,5627],[45.7,5710],[45.7,5794],[45.7,5877],[45.7,5961],[45.7,6044],[45.7,6127],[45.7,6211],[45.7,6295],[45.7,6377],[45.7,6461],[45.7,6544],[45.7,6627],[45.7,6711],[45.7,6794],[45.7,6878],[45.7,6961],[45.7,7044],[45.7,7128],[45.7,7211],[45.7,7295],[45.7,7378],[45.7,7461],[45.7,7544],[45.7,7628],[45.7,7711],[45.7,7795],[45.7,7878],[45.7,7961],[45.7,8045],[45.7,8128],[45.7,8212],[45.7,8295],[45.7,8378],[45.7,8462],[45.7,8545],[45.7,8628],[45.7,8714],[45.7,8795],[45.7,8879],[45.7,8963],[45.7,9045],[45.7,9128],[45.7,9212],[64.8,10137],[64.8,10219],[64.8,10305],[64.8,10389],[64.4,10475],[64.1,10555],[64,10637],[64,10720],[65.4,10805],[67.9,10888],[69.5,10972],[71.1,11057],[71.1,11139],[71.3,11223],[71.3,11305],[71.3,11388],[71.3,11470],[71.3,11556],[71.6,11638],[71.7,11722],[71.7,11803],[71.7,11888],[71.7,11971],[71.7,12056]]",1,0,602.5836,610.6604,73.02312697,4.3169,"[{""rating"":73.02312696744366,""responseTime"":4.316899999976158}]",space,7.5284,,610.6605,Not at all,0,610.6908,,,[],,0,16,16,16,1,audio/Narrative8Situation7.wav,audio/Narrative7Situation7.wav,audio/Narrative6Situation7.wav,audio/Narrative5Situation7.wav,3,5,5,4,,,,,,,,,,,,,,,,,,,,,,,,,,,,,,,,,,,,,,,
,,,,,,651ec39e94e965c024ee25c6,2024-02-08_16h06.31.031,group3.1-3.2-social-tom,2023.2.2,Win32,60.24096386,65c5074098b851296ff0b7ed,65c54192226867aa5ea6037e,,,,,,,,,,,,,,,,,,,,,,,,,,,,,610.6914,1,audio/Narrative8Situation8.wav,613.6947,,613.6948,626.551,[],1,0,626.5512,632.3542,96.89546723,5.0189,"[{""rating"":96.89546722692913,""responseTime"":5.018900000095414}]",space,5.2709,,632.3544,Definitely yes,100,632.364,,,[],,0,17,17,17,1,audio/Narrative8Situation8.wav,audio/Narrative7Situation8.wav,audio/Narrative6Situation8.wav,audio/Narrative5Situation8.wav,3,2,5,3,,,,,,,,,,,,,,,,,,,,,,,,,,,,,,,,,,,,,,,
,,,,,,651ec39e94e965c024ee25c6,2024-02-08_16h06.31.031,group3.1-3.2-social-tom,2023.2.2,Win32,60.24096386,65c5074098b851296ff0b7ed,65c54192226867aa5ea6037e,,,,,,,,,,,,,,,,,,,,,,,,,,,,,632.3648,1,audio/Narrative8Situation9.wav,635.3715,,635.3716,646.694,[],1,0,646.6942,654.0638,61.45309619,6.9007,"[{""rating"":61.45309618667307,""responseTime"":6.900700000047664}]",space,6.8239,,654.0639,Definitely yes,100,682.7765,99.53167698,26.501,"[{""rating"":99.53167697558757,""responseTime"":26.43360000002383},{""rating"":99.53167697558757,""responseTime"":26.500999999999976}]",space,0,18,18,18,1,audio/Narrative8Situation9.wav,audio/Narrative7Situation9.wav,audio/Narrative6Situation9.wav,audio/Narrative5Situation9.wav,3,2,4,3,,,28.1619,,,,,,,,,,,,,,,,,,,,,,,,,,,,,,,,,,,,
,,,,,,651ec39e94e965c024ee25c6,2024-02-08_16h06.31.031,group3.1-3.2-social-tom,2023.2.2,Win32,60.24096386,65c5074098b851296ff0b7ed,65c54192226867aa5ea6037e,,,,,,,,,,,,,,,,,,,,,,,,,,,742.8145,745.3709,745.4109,2,audio/Narrative13Situation2.wav,745.4111,,745.4111,775.1699,"[[999,0],[999,93],[999,176],[999,259],[999,343],[999,426],[999,510],[999,593],[999,678],[999,762],[999,845],[999,928],[999,1015],[999,1096],[999,1178],[999,1262],[999,1345],[999,1427],[999,1512],[999,1594],[999,1677],[999,1760],[999,1846],[999,1929],[999,2010],[999,2094],[999,2180],[999,2261],[999,2344],[999,2427],[999,2510],[999,2594],[999,2677],[999,2761],[999,2844],[999,2927],[999,3014],[999,3096],[999,3177],[999,3265],[999,3349],[999,3430],[999,3514],[999,3594],[999,3679],[999,3761],[999,3844],[999,3928],[999,4015],[999,4095],[999,4178],[999,4262],[999,4346],[999,4430],[999,4515],[999,4596],[999,4680],[999,4762],[999,4845],[999,4928],[999,5015],[999,5095],[999,5178],[999,5262],[999,5345],[999,5429],[999,5516],[999,5597],[999,5680],[999,5762],[999,5845],[999,5929],[999,6012],[999,6096],[999,6179],[999,6265],[999,6347],[999,6431],[999,6515],[999,6596],[999,6681],[999,6765],[999,6847],[999,6931],[999,7015],[999,7097],[999,7181],[999,7263],[999,7346],[999,7429],[999,7513],[999,7598],[999,7681],[999,7765],[999,7848],[999,7932],[999,8015],[999,8097],[999,8181],[999,8265],[999,8348],[999,8432],[999,8515],[999,8596],[999,8680],[999,8763],[999,8847],[999,8930],[999,9014],[999,9097],[999,9180],[999,9263],[999,9347],[999,9430],[999,9516],[999,9599],[999,9680],[999,9764],[999,9849],[999,9931],[999,10016],[999,10099],[999,10183],[999,10264],[999,10349],[999,10434],[999,10514],[999,10597],[999,10685],[999,10766],[999,10849],[999,10934],[999,11016],[999,11099],[999,11184],[999,11267],[999,11350],[999,11431],[999,11514],[999,11599],[999,11681],[999,11765],[999,11850],[999,11934],[999,12015],[999,12100],[999,12182],[999,12267],[999,12350],[999,12432],[999,12517],[999,12600],[999,12682],[999,12767],[999,12848],[999,12932],[999,13017],[999,13099],[999,13182],[999,13267],[999,13351],[999,13435],[999,13517],[999,13599],[999,13683],[999,13767],[999,13849],[999,13936],[999,14018],[999,14099],[999,14182],[999,14267],[999,14351],[999,14435],[999,14516],[999,14599],[999,14683],[999,14766],[999,14849],[999,14933],[999,15018],[999,15101],[999,15184],[999,15267],[999,15350],[999,15439],[999,15518],[999,15602],[999,15685],[999,15768],[999,15852],[999,15935],[999,16018],[999,16102],[999,16186],[999,16269],[999,16350],[999,16436],[999,16519],[999,16603],[999,16685],[999,16769],[999,16853],[999,16936],[999,17018],[999,17101],[999,17184],[999,17267],[999,17353],[999,17436],[999,17518],[999,17605],[999,17684],[999,17767],[999,17851],[999,17934],[999,18018],[999,18101],[999,18184],[999,18269],[999,18355],[999,18434],[999,18518],[999,18605],[999,18686],[999,18770],[999,18851],[999,18936],[999,19020],[999,19105],[999,19186],[999,19269],[999,19355],[999,19437],[999,19520],[999,19601],[999,19689],[999,19768],[999,19854],[999,19937],[999,20020],[999,20106],[999,20189],[999,20270],[999,20352],[999,20437],[999,20520],[999,20605],[999,20687],[999,20770],[999,20852],[999,20935],[999,21019],[999,21102],[999,21187],[999,21271],[999,21355],[999,21436],[999,21519],[999,21605],[999,21687],[999,21772],[999,21856],[999,21936],[999,22019],[999,22103],[999,22186],[999,22271],[999,22355],[999,22438],[999,22521],[999,22605],[999,22686],[999,22770],[999,22853],[999,22936],[999,23020],[999,23105],[999,23188],[999,23272],[999,23356],[999,23437],[999,23522],[999,23605],[999,23688],[999,23773],[999,23853],[999,23937],[999,24023],[999,24103],[999,24187],[999,24270],[999,24354],[999,24437],[999,24523],[999,24606],[999,24689],[999,24773],[999,24854],[999,24939],[999,25024],[999,25106],[999,25187],[999,25275],[999,25354],[999,25437],[999,25524],[999,25606],[999,25687],[999,25771],[999,25854],[999,25938],[999,26025],[999,26104],[999,26193],[999,26275],[999,26357],[999,26440],[999,26521],[999,26605],[999,26688],[999,26775],[999,26857],[999,26940],[999,27025],[999,27105],[999,27190],[999,27275],[999,27357],[999,27440],[999,27525],[999,27605],[999,27689],[999,27775],[999,27855],[999,27940],[999,28022],[999,28105],[999,28191],[999,28276],[999,28358],[999,28441],[999,28522],[999,28607],[999,28691],[999,28775],[999,28858],[999,28941],[999,29025],[999,29107],[999,29191],[999,29275],[999,29357],[999,29441],[999,29526],[999,29607],[999,29691]]",1,0,775.1705,775.2083,,,[],,,,775.2084,Definitely yes,100,775.212,,,[],,0,0,0,0,1,audio/Narrative13Situation2.wav,audio/Narrative13Situation2.wav,audio/Narrative13Situation2.wav,audio/Narrative13Situation2.wav,2,2,2,2,,,,,682.8029,742.7888,,,,,,,,,,,,,,,,,,,,,,,,,,,,,,,,,
,,,,,,651ec39e94e965c024ee25c6,2024-02-08_16h06.31.031,group3.1-3.2-social-tom,2023.2.2,Win32,60.24096386,65c5074098b851296ff0b7ed,65c54192226867aa5ea6037e,,,,,,,,,,,,,,,,,,,,,,,,,,,,,775.2127,2,audio/Narrative5Situation1.wav,780.2205,,780.2206,793.5094,"[[999,29],[999,150],[999,234],[999,316],[999,399],[999,482],[999,566],[999,650],[999,735],[999,817],[999,900],[999,985],[999,1066],[999,1150],[999,1233],[999,1316],[999,1400],[999,1483],[999,1566],[999,1650],[999,1734],[999,1817],[999,1900],[999,1985],[999,2067],[999,2150],[999,2234],[999,2317],[999,2400],[999,2484],[999,2567],[999,2650],[999,2734],[999,2817],[999,2900],[999,2985],[999,3067],[999,3150],[999,3234],[999,3317],[999,3400],[999,3484],[999,3567],[999,3650],[999,3734],[999,3817],[999,3901],[999,3984],[999,4067],[999,4151],[999,4234],[999,4317],[999,4401],[999,4484],[999,4567],[999,4651],[999,4735],[999,4818],[999,4901],[999,4984],[999,5068],[999,5151],[999,5235],[999,5318],[999,5401],[999,5485],[999,5568],[999,5651],[999,5735],[999,5818],[999,5902],[999,5985],[999,6068],[999,6152],[999,6235],[999,6318],[999,6402],[999,6485],[999,6568],[999,6652],[999,6735],[999,6818],[999,6902],[999,6985],[999,7069],[999,7154],[999,7235],[999,7319],[999,7402],[999,7485],[999,7569],[999,7654],[999,7736],[999,7819],[999,7902],[999,7986],[999,8069],[999,8154],[999,8236],[999,8319],[999,8403],[999,8486],[999,8570],[999,8653],[999,8736],[999,8819],[999,8905],[999,8986],[999,9069],[999,9153],[999,9236],[999,9320],[999,9404],[999,9487],[999,9570],[999,9653],[999,9737],[999,9820],[999,9904],[999,9987],[999,10070],[999,10153],[999,10237],[999,10320],[999,10405],[999,10487],[999,10571],[999,10653],[999,10737],[999,10826],[999,10904],[999,10987],[999,11070],[999,11154],[999,11237],[999,11321],[999,11404],[999,11487],[999,11571],[999,11654],[999,11738],[999,11821],[999,11904],[999,11988],[999,12071],[999,12154],[999,12238],[999,12321],[999,12405],[999,12488],[999,12571],[999,12654],[999,12738],[999,12821],[999,12905],[999,12988],[999,13072],[999,13155],[999,13238]]",1,0,793.5098,798.4875,93.08762122,3.5055,"[{""rating"":93.08762121564823,""responseTime"":3.5054999999999836}]",space,4.4378,,798.4878,Definitely yes,100,798.4925,,,[],,0,1,1,1,1,audio/Narrative7Situation1.wav,audio/Narrative8Situation1.wav,audio/Narrative5Situation1.wav,audio/Narrative6Situation1.wav,2,5,5,2,,,,,,,,,,,,,,,,,,,,,,,,,,,,,,,,,,,,,,,
,,,,,,651ec39e94e965c024ee25c6,2024-02-08_16h06.31.031,group3.1-3.2-social-tom,2023.2.2,Win32,60.24096386,65c5074098b851296ff0b7ed,65c54192226867aa5ea6037e,,,,,,,,,,,,,,,,,,,,,,,,,,,,,798.4938,2,audio/Narrative5Situation2.wav,801.4963,,801.4964,830.9617,"[[999,1],[999,109],[999,190],[999,266],[999,361],[999,440],[999,526],[999,609],[999,692],[999,774],[999,858],[999,941],[999,1024],[999,1110],[999,1191],[999,1275],[999,1358],[999,1442],[999,1523],[999,1604],[999,1690],[999,1767],[999,1859],[999,1942],[999,2020],[999,2110],[999,2191],[999,2274],[999,2360],[999,2441],[999,2527],[999,2608],[999,2693],[999,2775],[999,2858],[999,2941],[999,3028],[999,3101],[999,3191],[999,3277],[999,3359],[999,3443],[999,3525],[999,3610],[999,3685],[999,3768],[999,3851],[999,3942],[999,4025],[999,4109],[999,4192],[999,4276],[999,4352],[999,4435],[999,4529],[999,4609],[999,4693],[999,4769],[999,4858],[999,4942],[999,5026],[999,5110],[999,5192],[999,5276],[999,5360],[999,5444],[999,5526],[999,5611],[999,5693],[999,5777],[999,5861],[999,5943],[999,6026],[999,6110],[999,6193],[999,6278],[999,6361],[999,6443],[999,6527],[999,6610],[999,6695],[999,6778],[999,6861],[999,6943],[999,7029],[999,7111],[999,7194],[999,7269],[999,7360],[999,7445],[999,7529],[999,7610],[999,7694],[999,7779],[999,7860],[999,7944],[999,8030],[999,8110],[999,8191],[999,8279],[999,8362],[999,8444],[999,8527],[999,8610],[999,8694],[999,8780],[999,8861],[999,8946],[999,9029],[999,9112],[999,9195],[999,9279],[999,9361],[999,9444],[999,9521],[999,9612],[999,9697],[999,9779],[999,9863],[999,9945],[999,10030],[999,10111],[999,10197],[999,10279],[999,10361],[999,10445],[999,10529],[999,10612],[999,10695],[999,10779],[999,10862],[999,10947],[999,11030],[999,11113],[999,11195],[999,11280],[999,11362],[999,11445],[999,11528],[999,11605],[999,11695],[999,11779],[999,11863],[999,11945],[999,12030],[999,12112],[999,12195],[999,12279],[999,12364],[999,12446],[999,12530],[999,12614],[999,12696],[999,12780],[999,12863],[999,12949],[999,13030],[999,13115],[999,13198],[999,13280],[999,13357],[999,13449],[999,13531],[999,13613],[999,13699],[999,13780],[999,13865],[999,13949],[999,14030],[999,14113],[999,14196],[999,14281],[999,14364],[999,14444],[999,14530],[999,14615],[999,14691],[999,14773],[999,14856],[999,14939],[999,15023],[999,15110],[999,15191],[999,15273],[999,15360],[999,15441],[999,15525],[999,15607],[999,15690],[999,15773],[999,15857],[999,15940],[999,16025],[999,16107],[999,16192],[999,16275],[999,16360],[999,16442],[999,16524],[999,16610],[999,16692],[999,16775],[999,16859],[999,16942],[999,17026],[999,17107],[999,17191],[999,17276],[999,17360],[999,17442],[999,17526],[999,17610],[999,17691],[999,17774],[999,17857],[999,17941],[999,18024],[999,18110],[999,18191],[999,18276],[999,18360],[999,18443],[999,18526],[999,18610],[999,18691],[999,18774],[999,18858],[999,18941],[999,19025],[999,19108],[999,19191],[999,19275],[999,19358],[999,19443],[999,19527],[999,19610],[999,19693],[999,19775],[999,19858],[999,19942],[999,20025],[999,20110],[999,20193],[999,20278],[999,20359],[999,20442],[999,20528],[999,20610],[999,20694],[999,20778],[999,20861],[999,20942],[999,21025],[999,21109],[999,21194],[999,21279],[999,21361],[999,21444],[999,21529],[999,21611],[999,21693],[999,21778],[999,21862],[999,21944],[999,22026],[999,22111],[999,22193],[999,22276],[999,22360],[999,22443],[999,22530],[999,22610],[999,22693],[999,22777],[999,22860],[999,22945],[999,23030],[999,23112],[999,23193],[999,23277],[999,23360],[999,23445],[999,23530],[999,23610],[999,23695],[999,23781],[999,23860],[999,23944],[999,24029],[999,24110],[999,24193],[999,24277],[999,24360],[999,24446],[999,24529],[999,24611],[999,24696],[999,24780],[999,24860],[999,24944],[999,25028],[999,25111],[999,25194],[999,25277],[999,25361],[999,25444],[999,25528],[999,25611],[999,25694],[999,25778],[999,25861],[999,25944],[999,26028],[999,26111],[999,26196],[999,26278],[999,26361],[999,26447],[999,26531],[999,26613],[999,26697],[999,26778],[999,26861],[999,26945],[999,27028],[999,27112],[999,27195],[999,27278],[999,27362],[999,27449],[999,27530],[999,27612],[999,27695],[999,27779],[999,27862],[999,27947],[999,28031],[999,28114],[999,28199],[999,28279],[999,28362],[999,28449],[999,28529],[999,28612],[999,28699],[999,28779],[999,28864],[999,28946],[999,29031],[999,29114],[999,29200],[999,29281],[999,29363],[999,29451]]",1,0,830.9623,835.1163,82.83568726,3.6553,"[{""rating"":82.83568726413317,""responseTime"":3.6552999999523763}]",space,3.6186,,835.1173,Partially,50,835.1242,,,[],,0,2,2,2,1,audio/Narrative7Situation2.wav,audio/Narrative8Situation2.wav,audio/Narrative5Situation2.wav,audio/Narrative6Situation2.wav,3,3,3,3,,,,,,,,,,,,,,,,,,,,,,,,,,,,,,,,,,,,,,,
,,,,,,651ec39e94e965c024ee25c6,2024-02-08_16h06.31.031,group3.1-3.2-social-tom,2023.2.2,Win32,60.24096386,65c5074098b851296ff0b7ed,65c54192226867aa5ea6037e,,,,,,,,,,,,,,,,,,,,,,,,,,,,,835.1253,2,audio/Narrative5Situation3.wav,838.1371,,838.1372,852.0532,"[[82.7,4470],[82.7,4543],[82.7,4627],[82.7,4711],[82.7,4794],[82.7,4878],[82.7,4961],[82.7,5044],[82.7,5128],[82.7,5211],[82.7,5294],[82.7,5378],[82.7,5461],[82.7,5544],[82.7,5627],[82.7,5711],[82.7,5794],[82.7,5878],[82.7,5961],[82.7,6045],[82.7,6128],[82.7,6211],[82.7,6294],[82.7,6378],[82.7,6461],[82.7,6544],[82.7,6628],[82.7,6711],[82.7,6795],[82.7,6878],[82.7,6963],[82.7,7045],[82.7,7129],[82.7,7212],[82.7,7297],[82.7,7379],[82.7,7462],[82.7,7545],[82.7,7628],[82.7,7712],[82.7,7795],[82.7,7879],[82.7,7962],[82.7,8045],[82.7,8128],[82.7,8212],[82.7,8295],[82.7,8379],[82.7,8462],[82.7,8545],[82.7,8629],[82.7,8712],[82.7,8797],[82.7,8879],[82.7,8965],[82.7,9045],[82.7,9129],[82.7,9212],[82.7,9296],[82.7,9379],[82.7,9462],[82.7,9547],[82.7,9629],[82.7,9712],[82.7,9796],[82.7,9879],[82.7,9962],[82.7,10047],[82.7,10129],[82.7,10212],[82.7,10297],[82.7,10379],[82.7,10463],[82.7,10547],[82.7,10630],[82.7,10713],[82.7,10797],[82.7,10880],[82.7,10963],[82.7,11047],[82.7,11130],[82.7,11213],[82.7,11298],[82.7,11380],[82.7,11463],[82.7,11547],[82.7,11630],[82.7,11713],[82.7,11797],[82.7,11880],[82.7,11964],[82.7,12047],[82.7,12130],[82.7,12214],[82.7,12297],[82.7,12380],[82.7,12464],[82.7,12548],[82.7,12631],[82.7,12714],[82.7,12797],[82.7,12881],[82.7,12964],[82.7,13047],[82.7,13131],[82.7,13214],[82.7,13298],[82.7,13381],[82.7,13469],[82.7,13548],[82.7,13631],[82.7,13715],[82.7,13798],[82.7,13881]]",1,0,852.0536,855.8143,87.37582806,2.4102,"[{""rating"":87.37582806350575,""responseTime"":1.27410000002385},{""rating"":87.37582806350575,""responseTime"":2.4102000000476664}]",space,3.2204,,855.8145,Not at all,0,855.8225,,,[],,0,3,3,3,1,audio/Narrative7Situation3.wav,audio/Narrative8Situation3.wav,audio/Narrative5Situation3.wav,audio/Narrative6Situation3.wav,8,4,3,5,,,,,,,,,,,,,,,,,,,,,,,,,,,,,,,,,,,,,,,
,,,,,,651ec39e94e965c024ee25c6,2024-02-08_16h06.31.031,group3.1-3.2-social-tom,2023.2.2,Win32,60.24096386,65c5074098b851296ff0b7ed,65c54192226867aa5ea6037e,,,,,,,,,,,,,,,,,,,,,,,,,,,,,855.824,2,audio/Narrative5Situation4.wav,856.8391,,856.8394,877.2307,"[[87,126],[87,207],[86.8,289],[86.7,372],[86.2,450],[85.2,539],[84.3,624],[83.6,706],[80.8,793],[78.6,872],[77.9,955],[77.9,1038],[77.9,1115],[77.9,1206],[77.9,1292],[77.9,1373],[77.9,1457],[77.9,1540],[77.9,1623],[77.9,1709],[77.9,1790],[77.9,1874],[77.9,1957],[77.9,2042],[77.9,2116],[77.9,2208],[77.9,2290],[77.9,2366],[77.9,2457],[77.9,2540],[77.9,2627],[77.9,2708],[77.9,2791],[77.9,2873],[77.9,2957],[77.9,3041],[77.9,3124],[77.6,3206],[75.1,3295],[55,4211],[53.1,4294],[53,4380],[53,4458],[53.1,4545],[53.1,4626],[53.1,4709],[53.1,4791],[53.1,4878],[53.4,4960],[53.6,5041],[53.6,5126],[53.6,5208],[53.6,5292],[53.6,5376],[53.6,5459],[53.6,5541],[53.7,5621],[53.7,5708],[53.3,9570],[52.4,9986],[52.2,10321],[53,10403],[53,10486],[53,10569],[53,10653],[53,10736],[53,10820],[53,10903],[52.8,10987],[52.8,11070],[52.4,11155],[51.5,11237],[50.1,11321],[48,11404],[42.6,11487],[39.8,11570],[33.2,11654],[29,11737],[26.8,11820],[26,11903],[24.7,11987],[23,12071],[21.6,12156],[20.5,12237],[20.5,12320],[20.5,12406],[20.5,12487],[20.5,12570],[20.5,12654],[20.5,12737],[20.5,12820],[20.6,12905],[20.6,12987],[23.1,13072],[24.7,13157],[24.6,13238],[26.3,13321],[26.8,13405],[26.3,13489],[27.1,13571],[27.2,13654],[27.5,13738],[26.5,13821],[27.3,13906],[26.5,13988],[27.9,14073],[28.7,14156],[29.4,14238],[29.5,14322],[31,14411],[33.5,14488],[33.8,14572],[32.2,14656],[29.5,14739],[30.7,14822],[28.2,14904],[28.7,14989]]",1,0,877.231,886.5689,71.412109,7.754,"[{""rating"":34.065806913951775,""responseTime"":1.9194000000952656},{""rating"":71.41210900492196,""responseTime"":7.753999999999905}]",space,8.7909,,886.5692,Partially,50,886.5805,,,[],,0,4,4,4,1,audio/Narrative7Situation4.wav,audio/Narrative8Situation4.wav,audio/Narrative5Situation4.wav,audio/Narrative6Situation4.wav,3,3,1,2,,,,,,,,,,,,,,,,,,,,,,,,,,,,,,,,,,,,,,,
,,,,,,651ec39e94e965c024ee25c6,2024-02-08_16h06.31.031,group3.1-3.2-social-tom,2023.2.2,Win32,60.24096386,65c5074098b851296ff0b7ed,65c54192226867aa5ea6037e,,,,,,,,,,,,,,,,,,,,,,,,,,,,,886.5816,2,audio/Narrative5Situation5.wav,891.587,,891.5872,907.0112,"[[67,11505],[66.6,11588],[66.6,11671],[66.6,11754],[66.6,11838],[66.6,11921],[66.6,12005],[66.6,12088],[66.6,12171],[66.6,12255],[66.6,12338],[66.6,12421],[66.6,12504],[66.8,12588],[67.8,12671],[68.9,12758],[70.1,12839],[70.1,12922],[70.1,13005],[70.1,13088],[70.1,13171],[70.1,13258],[70.4,13339],[70.4,13421],[70.4,13505],[70.4,13588],[70.4,13672],[70.3,13758],[70.3,13839],[70,13923]]",1,0,907.0116,915.4152,90.89076903,7.6263,"[{""rating"":69.94755160903338,""responseTime"":6.281200000047761},{""rating"":70.3869172187852,""responseTime"":6.345100000023876},{""rating"":90.89076903166793,""responseTime"":7.626300000071524}]",space,7.86,,915.4155,Definitely yes,100,923.3358,100,6.8747,"[{""rating"":100,""responseTime"":6.87470000004771}]",space,0,5,5,5,1,audio/Narrative7Situation5.wav,audio/Narrative8Situation5.wav,audio/Narrative5Situation5.wav,audio/Narrative6Situation5.wav,5,2,5,2,,,7.3726,,,,,,,,,,,,,,,,,,,,,,,,,,,,,,,,,,,,
,,,,,,651ec39e94e965c024ee25c6,2024-02-08_16h06.31.031,group3.1-3.2-social-tom,2023.2.2,Win32,60.24096386,65c5074098b851296ff0b7ed,65c54192226867aa5ea6037e,,,,,,,,,,,,,,,,,,,,,,,,,,,,,923.3373,2,audio/Narrative5Situation6.wav,926.3532,,926.3534,932.0294,"[[999,1],[999,100],[999,188],[999,274],[999,356],[999,442],[999,523],[999,606],[999,693],[999,774],[999,860],[999,943],[999,1023],[999,1106],[999,1192],[999,1274],[999,1358],[999,1442],[999,1525],[999,1607],[999,1693],[999,1773],[999,1862],[999,1941],[999,2025],[999,2107],[999,2193],[999,2274],[999,2358],[999,2442],[999,2524],[999,2607],[999,2693],[999,2775],[999,2857],[999,2942],[999,3023],[999,3108],[999,3191],[999,3275],[999,3350],[999,3434],[999,3524],[999,3611],[999,3692],[999,3776],[999,3857],[999,3942],[999,4024],[999,4108],[999,4184],[999,4274],[999,4357],[999,4442],[999,4526],[999,4608],[999,4692],[999,4775],[999,4858],[999,4942],[999,5025],[999,5110],[999,5193],[999,5276],[999,5360],[999,5444],[999,5525],[999,5608]]",1,0,932.0297,936.9078,75.65933672,3.7577,"[{""rating"":75.6593367161021,""responseTime"":3.7577000000477483}]",space,4.3343,,936.908,Definitely yes,100,936.9153,,,[],,0,6,6,6,1,audio/Narrative7Situation6.wav,audio/Narrative8Situation6.wav,audio/Narrative5Situation6.wav,audio/Narrative6Situation6.wav,3,2,3,2,,,,,,,,,,,,,,,,,,,,,,,,,,,,,,,,,,,,,,,
,,,,,,651ec39e94e965c024ee25c6,2024-02-08_16h06.31.031,group3.1-3.2-social-tom,2023.2.2,Win32,60.24096386,65c5074098b851296ff0b7ed,65c54192226867aa5ea6037e,,,,,,,,,,,,,,,,,,,,,,,,,,,,,936.916,2,audio/Narrative5Situation7.wav,940.9257,,940.9259,961.9595,"[[999,28],[999,141],[999,223],[999,308],[999,390],[999,473],[999,550],[999,641],[999,726],[999,809],[999,883],[999,974],[999,1060],[999,1140],[999,1225],[999,1309],[999,1392],[999,1474],[999,1559],[999,1641],[999,1724],[999,1809],[999,1891],[999,1974],[999,2050],[999,2142],[999,2227],[999,2301],[999,2384],[999,2476],[999,2559],[999,2643],[999,2725],[999,2807],[999,2891],[999,2975],[999,3059],[999,3142],[999,3225],[999,3309],[999,3391],[999,3475],[999,3551],[999,3642],[999,3726],[999,3809],[999,3891],[999,3975],[999,4059],[999,4141],[999,4225],[999,4309],[999,4392],[999,4478],[999,4559],[999,4644],[999,4726],[999,4808],[999,4891],[999,4976],[999,5060],[999,5142],[999,5230],[999,5310],[999,5394],[999,5475],[999,5559],[999,5643],[999,5728],[999,5811],[999,5893],[999,5977],[999,6060],[999,6144],[999,6226],[999,6311],[999,6387],[999,6476],[999,6560],[999,6637],[999,6726],[999,6810],[999,6895],[999,6979],[999,7061],[999,7143],[999,7230],[999,7309],[999,7393],[999,7470],[999,7560],[999,7643],[999,7728],[999,7811],[999,7893],[999,7970],[999,8060],[999,8145],[999,8228],[999,8310],[999,8394],[999,8477],[999,8560],[999,8644],[999,8727],[999,8811],[999,8895],[999,8978],[999,9062],[999,9144],[999,9228],[999,9311],[999,9394],[999,9479],[999,9561],[999,9645],[999,9728],[999,9813],[999,9894],[999,9980],[999,10062],[999,10148],[999,10228],[999,10311],[999,10394],[999,10478],[999,10561],[999,10649],[999,10730],[999,10811],[999,10898],[999,10979],[999,11063],[999,11144],[999,11229],[999,11312],[999,11395],[999,11479],[999,11562],[999,11646],[999,11730],[999,11813],[999,11895],[999,11980],[999,12055],[999,12145],[999,12228],[999,12305],[999,12395],[999,12480],[999,12563],[999,12646],[999,12729],[999,12812],[999,12899],[999,12979],[999,13062],[999,13147],[999,13229],[999,13313],[999,13399],[999,13480],[999,13564],[999,13642],[999,13730],[999,13813],[999,13899],[999,13980],[999,14057],[999,14147],[999,14230],[999,14314],[999,14393],[999,14481],[999,14563],[999,14650],[999,14730],[999,14813],[999,14896],[999,14980],[999,15065],[999,15139],[999,15223],[999,15313],[999,15400],[999,15480],[999,15565],[999,15649],[999,15730],[999,15814],[999,15899],[999,15980],[999,16064],[999,16149],[999,16231],[999,16315],[999,16399],[999,16482],[999,16566],[999,16648],[999,16731],[999,16814],[999,16898],[999,16981],[999,17065],[999,17148],[999,17231],[999,17314],[999,17399],[999,17481],[999,17558],[999,17649],[999,17733],[999,17815],[999,17891],[999,17981],[999,18058],[999,18145],[999,18231],[999,18315],[999,18399],[999,18481],[999,18558],[999,18641],[999,18731],[999,18816],[999,18891],[999,18981],[999,19058],[999,19148],[999,19225],[999,19308],[999,19391],[999,19475],[999,19558],[999,19650],[999,19732],[999,19816],[999,19899],[999,19983],[999,20059],[999,20150],[999,20232],[999,20316],[999,20392],[999,20484],[999,20566],[999,20650],[999,20732],[999,20816],[999,20901],[999,20983]]",1,0,961.9601,965.7206,69.94755161,2.4685,"[{""rating"":69.94755160903338,""responseTime"":2.423999999999978},{""rating"":69.94755160903338,""responseTime"":2.4685000000000628}]",space,3.2295,,965.7208,Definitely yes,100,965.7283,,,[],,0,7,7,7,1,audio/Narrative7Situation7.wav,audio/Narrative8Situation7.wav,audio/Narrative5Situation7.wav,audio/Narrative6Situation7.wav,5,3,4,5,,,,,,,,,,,,,,,,,,,,,,,,,,,,,,,,,,,,,,,
,,,,,,651ec39e94e965c024ee25c6,2024-02-08_16h06.31.031,group3.1-3.2-social-tom,2023.2.2,Win32,60.24096386,65c5074098b851296ff0b7ed,65c54192226867aa5ea6037e,,,,,,,,,,,,,,,,,,,,,,,,,,,,,965.7289,2,audio/Narrative5Situation8.wav,968.7381,,968.7382,977.5589,"[[999,25],[999,133],[999,216],[999,300],[999,383],[999,466],[999,549],[999,633],[999,717],[999,801],[999,883],[999,967],[999,1050],[999,1133],[999,1216],[999,1300],[999,1384],[999,1467],[999,1550],[999,1634],[999,1717],[999,1800],[999,1883],[999,1967],[999,2050],[999,2134],[999,2217],[999,2301],[999,2387],[999,2467],[999,2550],[999,2634],[999,2717],[999,2801],[999,2884],[999,2967],[999,3051],[999,3134],[999,3218],[999,3301],[999,3384],[999,3468],[999,3551],[999,3635],[999,3718],[999,3801],[999,3886],[999,3968],[999,4051],[999,4136],[999,4218],[999,4302],[999,4386],[999,4468],[999,4552],[999,4636],[999,4718],[999,4802],[999,4886],[999,4969],[999,5052],[999,5135],[999,5218],[999,5302],[999,5386],[999,5470],[999,5552],[999,5636],[999,5719],[999,5802],[999,5886],[999,5969],[999,6052],[999,6135],[999,6219],[999,6302],[999,6385],[999,6469],[999,6552],[999,6635],[999,6719],[999,6802],[999,6886],[999,6969],[999,7052],[999,7136],[999,7219],[999,7303],[999,7386],[999,7470],[999,7553],[999,7636],[999,7720],[999,7803],[999,7887],[999,7970],[999,8053],[999,8136],[999,8220],[999,8303],[999,8387],[999,8470],[999,8553],[999,8637],[999,8720],[999,8803]]",1,0,977.5592,980.1937,20.15247143,1.7896,"[{""rating"":20.152471427641487,""responseTime"":1.7896000000238246}]",space,2.0855,,980.1938,Not at all,0,980.2007,,,[],,0,8,8,8,1,audio/Narrative7Situation8.wav,audio/Narrative8Situation8.wav,audio/Narrative5Situation8.wav,audio/Narrative6Situation8.wav,2,3,3,5,,,,,,,,,,,,,,,,,,,,,,,,,,,,,,,,,,,,,,,
,,,,,,651ec39e94e965c024ee25c6,2024-02-08_16h06.31.031,group3.1-3.2-social-tom,2023.2.2,Win32,60.24096386,65c5074098b851296ff0b7ed,65c54192226867aa5ea6037e,,,,,,,,,,,,,,,,,,,,,,,,,,,,,980.2012,2,audio/Narrative5Situation9.wav,983.2117,,983.2118,1022.7549,"[[19.3,1294],[19.3,1374],[19.3,1457],[19.3,1542],[19.3,1624],[19.3,1707],[19.3,1793],[19.3,1875],[19.3,1957],[19.3,2043],[19.3,2124],[19.3,2209],[19.3,2293],[19.3,2375],[19.3,2456],[19.3,2542],[19.3,2624],[19.3,2707],[19.3,2791],[19.3,2874],[19.3,2951],[19.3,3043],[19.3,3126],[19.3,3208],[19.3,3293],[19.3,3375],[19.3,3457],[19.3,3534],[19.3,3624],[19.3,3708],[19.3,3793],[19.3,3876],[19.3,3958],[19.3,4044],[19.3,4125],[19.3,4210],[19.3,4293],[19.3,4377],[19.3,4458],[19.3,4535],[19.3,4625],[19.3,4709],[19.3,4793],[19.3,4875],[19.3,4959],[19.3,5043],[19.3,5127],[19.3,5209],[19.3,5294],[19.3,5376],[19.3,5460],[19.3,5543],[19.3,5627],[19.3,5702],[19.3,5792],[19.3,5869],[19.3,5959],[19.3,6035],[19.3,6126],[19.3,6211],[19.3,6293],[19.3,6379],[19.3,6459],[19.3,6543],[19.3,6626],[19.3,6712],[19.3,6794],[19.3,6879],[19.3,6960],[19.3,7043],[19.3,7126],[19.3,7202],[19.3,7293],[19.3,7376],[19.3,7460],[19.3,7544],[19.3,7623],[19.3,7710],[19.3,7793],[19.3,7877],[19.3,7960],[19.3,8044],[19.3,8127],[19.3,8211],[19.3,8293],[18.7,8380],[14.2,13309],[38.9,13405],[35.8,13489],[28.1,13573],[27.2,13656],[28.7,13739],[31.2,13824],[31.2,13906],[31.1,13989],[31.1,14072],[31.1,14155],[31.1,14239],[31.1,14323],[30.6,14406],[30,14493],[32.9,15917],[30.9,15998],[30.6,16081],[30.6,16164],[30.6,16249],[30.6,16333],[30.6,16416],[30.6,16497],[30.6,16580],[30.6,16664],[30.6,16747],[30.6,16831],[30.6,16914],[30.6,16999],[30.6,17081],[30.6,17165],[30.6,17248],[30.6,17334],[30.6,17415],[30.6,17498],[30.3,17583],[29.2,18166],[29.8,18248],[29.8,18333],[29.8,18415],[29.8,18491],[30,18581],[30,18664],[30,18741],[30,18825],[30,18915],[30,18999],[30.1,19083],[30.1,19165],[30.3,19249],[30.3,19332],[30.3,19415],[30.3,19499],[30.4,19584],[30.4,19665],[30.4,19750],[30.4,19833],[30.4,19915],[30.4,19999],[30.4,20084],[30.4,20165],[30.4,20242],[30.4,20332],[30.4,20409],[30.4,20498],[30.4,20580],[30.4,20659],[30.4,20749],[30.4,20833],[30.4,20916],[30.4,21002],[30.4,21083],[30.4,21167],[30.4,21249],[30.3,21333],[30.3,21416],[30,21499],[30,21584],[30,21666],[30,21747],[29.8,21834],[29.7,21918],[29.5,22000],[29.5,22085],[29.4,22165],[29.4,22249],[29.2,22333],[29.2,22416],[29.2,22501],[29.1,22584],[29.1,22669],[32.3,22754],[42,22835],[46.7,22918],[46.8,22994],[46.8,23084],[46.8,23168],[46.8,23249],[46.8,23333],[46.8,23419],[46.8,23503],[46.8,23585],[46.8,23667],[46.8,23752],[46.8,23834],[46.8,23917],[46.8,24003],[46.8,24086],[46.8,24169],[46.8,24253],[46.8,24335],[46.7,24418],[46.7,24503],[46.7,24584],[46.7,24668],[47.3,24755],[51.8,24837],[52.5,24918],[51.8,25005],[47.6,25086],[47.3,25168],[48.3,25254],[48.7,25336],[48.9,25418],[49,25504],[50.6,25588],[51.1,25668],[51.1,25754],[51.1,25836],[51.1,25919],[51.2,25998],[55,26085],[61.8,26172],[62.4,26251],[62.5,26328],[62.5,26418],[62.5,26495],[62.5,26585],[62.5,26670],[62.5,26754],[62.5,26840],[62.4,26918],[62.2,27004],[62.2,27085],[62.2,27170],[62.2,27253],[62.2,27336],[62.2,27419],[62.2,27503],[62.2,27586],[62.2,27669],[62.2,27754],[62.2,27836],[62.2,27925],[62.2,28003],[62.2,28086],[62.2,28169],[62.2,28253],[62.2,28336],[62.2,28419],[62.2,28495],[62.2,28579],[62.2,28662],[62.2,28746],[62.2,28829],[62.2,28919],[62.2,28996],[62.2,29079],[62.2,29169],[62.2,29254],[62.2,29337],[62.2,29413],[62.2,29503],[62.2,29581],[62.2,29670],[62.2,29746],[62.2,29829],[62.2,29921],[62.2,30003],[62.2,30080],[62.2,30173],[62.2,30254],[62.2,30337],[62.2,30420],[62.2,30500],[62.2,30587],[62.2,30674],[62.2,30754],[62.2,30838],[62.2,30920],[62.2,31005],[62.2,31087],[62.2,31170],[62.2,31254],[62.2,31334],[62.2,31426],[62.2,31504],[62.2,31588],[62.2,31671],[62.2,31755],[62.2,31838],[62.2,31924],[62.2,32004],[62.2,32088],[62.2,32173],[62.2,32256],[62.2,32338],[62.2,32423],[62.2,32506],[62.2,32588],[62.2,32674],[62.2,32754],[62.2,32840],[62.2,32923],[62.2,33005],[62.2,33088],[62.2,33172],[62.2,33254],[62.2,33337],[62.2,33414],[62.2,33505],[62.2,33589],[62.2,33673],[62.2,33756],[62.2,33838],[62.2,33924],[62.2,34005],[62.2,34092],[62.2,34173],[62.2,34255],[62.2,34339],[62.2,34423],[62.2,34505],[62.2,34582],[62.2,34665],[62.2,34748],[62.2,34840],[62.2,34923],[62.2,35007],[62.2,35089],[62.2,35174],[62.2,35255],[62.2,35339],[62.2,35423],[62.2,35505],[62.2,35582],[62.2,35672],[62.2,35749],[62.2,35839],[62.2,35924],[62.2,36005],[62.2,36082],[62.2,36172],[62.2,36256],[62.2,36339],[62.2,36422],[62.2,36499],[62.2,36593],[62.2,36674],[62.2,36756],[62.2,36844],[62.2,36923],[62.2,37008],[62.2,37083],[62.2,37174],[62.2,37256],[62.2,37340],[62.2,37424],[62.2,37507],[62.2,37591],[62.2,37675],[62.2,37758],[62.2,37840],[62.2,37925],[62.2,38001],[62.2,38096],[62.2,38174],[62.2,38257],[62.2,38342],[62.2,38424],[62.2,38509],[62.2,38593],[62.2,38675],[62.2,38757],[62.2,38844],[62.2,38924],[62.2,39001],[62.2,39093],[62.2,39174],[62.2,39259],[62.2,39343],[62.2,39426],[62.2,39508]]",1,0,1022.7558,1026.0474,61.45309619,2.7366,"[{""rating"":61.74600927486553,""responseTime"":0.8207999999524418},{""rating"":61.45309618667307,""responseTime"":2.7055999999047344},{""rating"":61.45309618667307,""responseTime"":2.7365999999046835}]",space,2.7493,,1026.0475,Not at all,0,1026.0524,,,[],,0,9,9,9,1,audio/Narrative7Situation9.wav,audio/Narrative8Situation9.wav,audio/Narrative5Situation9.wav,audio/Narrative6Situation9.wav,2,3,3,4,,,,,,,,,,,,,,,,,,,,,,,,,,,,,,,,,,,,,,,
,,,,,,651ec39e94e965c024ee25c6,2024-02-08_16h06.31.031,group3.1-3.2-social-tom,2023.2.2,Win32,60.24096386,65c5074098b851296ff0b7ed,65c54192226867aa5ea6037e,,,,,,,,,,,,,,,,,,,,,,,,,,,,,1026.0531,2,audio/Narrative6Situation1.wav,1028.0648,,1028.0649,1054.6441,"[[61.3,1525],[61.3,1609],[61.3,1691],[61.3,1774],[61.3,1859],[61.3,1942],[61.3,2026],[61.2,2111],[61.2,2191],[61.2,2276],[61.2,2359],[61.2,2441],[61.2,2525],[61.2,2601],[61.2,2684],[61.2,2775],[61.2,2861],[61.2,2942],[61.2,3026],[61.2,3109],[61,3192],[61,3275],[61,3359],[61,3441],[61,3526],[61,3609],[61,3691],[61,3776],[61.2,3863],[61.2,3943],[61.2,4025],[61.2,4111],[61,4192],[61,4278],[60.9,4360],[60.9,4442],[60.7,4525],[60.7,4609],[60.7,4693],[60.7,4778],[60.7,4861],[60.7,4939],[60.7,5026],[60.7,5102],[60.7,5194],[60.7,5275],[60.7,5352],[60.7,5435],[60.7,5526],[60.7,5610],[60.7,5693],[60.7,5776],[60.7,5860],[60.7,5944],[60.7,6026],[60.7,6112],[60.7,6193],[60.7,6278],[60.7,6360],[60.7,6443],[60.7,6527],[60.7,6610],[60.7,6693],[60.7,6776],[60.7,6861],[60.7,6944],[60.7,7028],[60.7,7111],[60.7,7195],[60.3,7303],[60.3,7386],[60.3,7469],[60.3,7552],[60.3,7636],[60.3,7719],[60.3,7803],[60.3,7886],[60.3,7970],[60.3,8053],[60.2,8136],[60,8220],[60,8303],[59.9,8386],[59.9,8470],[59.9,8553],[59.9,8637],[59.9,8720],[59.9,8803],[59.9,8889],[59.9,8970],[59.9,9054],[59.9,9138],[59.9,9221],[59.9,9304],[59.9,9387],[60,9470],[60,9554],[60,9639],[60,9721],[59.9,9804],[59.9,9887],[59.9,9971],[59.9,10054],[59.9,10137],[59.9,10221],[59.9,10304],[59.9,10390],[59.9,10471],[59.9,10554],[59.9,10640],[59.9,10721],[59.9,10804],[59.9,10888],[59.9,10971],[59.9,11054],[59.7,11140],[59.7,11221],[59.7,11304],[59.7,11388],[59.7,11472],[59.7,11555],[59.7,11638],[59.7,11721],[59.7,11805],[59.7,11888],[59.6,11971],[59.6,12055],[59.6,12138],[59.6,12221],[59.6,12305],[59.6,12389],[59.6,12472],[59.7,12555],[59.7,12638],[59.7,12722],[59.7,12805],[59.7,12888],[60,12973],[60.3,13055],[60.3,13139],[60.3,13222],[60.3,13306],[60.2,13389],[60.2,13472],[60.2,13556],[60,13640],[60,13722],[60,13806],[60,13889],[59.9,13974],[59.9,14056],[59.9,14139],[59.9,14223],[59.9,14306],[59.9,14390],[59.9,14473],[59.9,14556],[59.9,14639],[59.9,14723],[59.9,14806],[59.9,14889],[59.9,14973],[59.9,15056],[59.9,15140],[59.9,15223],[59.7,15307],[59.7,15389],[59.7,15473],[59.7,15556],[59.6,15640],[59.4,15723],[59.4,15806],[59.4,15890],[59.4,15973],[59.4,16056],[59.4,16140],[59.4,16223],[59.1,16307],[59.1,16390],[59,16474],[59,16560],[59,16640],[59,16724],[59,16807],[59,16890],[59,16974],[59,17060],[59,17141],[59,17224],[59,17307],[59,17390],[59.1,17474],[59.3,17560],[59.3,17641],[59.3,17724],[59.3,17809],[59.3,17891],[59.7,17974],[59.7,18059],[59.7,18141],[59.7,18224],[59.7,18309],[59.7,18391],[59.7,18475],[59.7,18559],[59.7,18641],[59.7,18724],[59.7,18808],[59.9,18892],[59.9,18974],[59.9,19060],[59.9,19142],[59.9,19225],[59.9,19308],[59.9,19391],[59.9,19475],[59.9,19560],[59.9,19642],[59.9,19725],[59.9,19809],[59.9,19892],[59.9,19975],[59.9,20060],[59.9,20142],[60,20225],[60.2,20310],[60.2,20392],[60.2,20475],[60.2,20558],[60.2,20643],[60.2,20725],[60.2,20809],[60.2,20892],[60.2,20975],[60.2,21059],[60.2,21142],[60.2,21225],[60.2,21309],[60,21393],[60,21476],[60,21559],[60,21643],[60,21726],[60,21809],[60,21893],[60,21976],[60,22059],[60,22143],[60,22226],[60,22310],[60,22393],[60,22480],[60,22560],[60,22643],[60,22726],[60,22810],[60,22893],[60,22977],[60,23060],[60,23143],[60,23226],[60,23310],[60,23393],[60,23477],[60,23560],[60,23643],[60,23727],[60,23810],[60,23894],[60,23977],[60,24060],[60,24143],[59.9,24227],[59.9,24310],[59.9,24394],[59.9,24478],[59.9,24560],[59.9,24644],[59.9,24730],[59.6,24811],[59.4,24894],[59.4,24977],[59.4,25061],[59.4,25145],[59.4,25230],[59.4,25311],[59.4,25394],[59.4,25477],[59.4,25561],[59.4,25644],[59.4,25729],[59.4,25811],[59.4,25894],[59.4,25979],[59.4,26061],[59.4,26144],[59.4,26229],[59.6,26311],[59.6,26394],[59.7,26479],[59.7,26561]]",1,0,1054.6445,1057.8283,58.81688644,1.5063,"[{""rating"":58.81688643801461,""responseTime"":1.4712999999521799},{""rating"":58.81688643801461,""responseTime"":1.5062999999522617}]",space,2.6536,,1057.8284,Definitely yes,100,1057.8353,,,[],,0,10,10,10,1,audio/Narrative8Situation1.wav,audio/Narrative7Situation1.wav,audio/Narrative6Situation1.wav,audio/Narrative5Situation1.wav,5,2,2,5,,,,,,,,,,,,,,,,,,,,,,,,,,,,,,,,,,,,,,,
,,,,,,651ec39e94e965c024ee25c6,2024-02-08_16h06.31.031,group3.1-3.2-social-tom,2023.2.2,Win32,60.24096386,65c5074098b851296ff0b7ed,65c54192226867aa5ea6037e,,,,,,,,,,,,,,,,,,,,,,,,,,,,,1057.8361,2,audio/Narrative6Situation2.wav,1060.8465,,1060.8467,1089.3589,"[[59.7,3285],[59.7,3384],[59.7,3468],[59.7,3551],[59.7,3634],[59.7,3717],[59.7,3802],[59.7,3884],[59.7,3968],[59.7,4051],[59.7,4134],[59.7,4218],[59.7,4301],[59.7,4384],[59.7,4468],[59.7,4551],[59.7,4634],[59.9,4718],[59.9,4801],[59.9,4885],[59.7,4968],[59.7,5051],[59.7,5134],[59.7,5218],[59.3,5301],[59.3,5387],[58.7,5469],[59.3,5553],[59.3,5639],[59.3,5718],[59.3,5802],[59.3,5885],[59.3,5969],[57.4,6053],[57.2,6138],[49.8,6802],[51.4,6889],[55,6969],[55.3,7052],[55.3,7138],[55.3,7219],[55.3,7303],[55.6,7386],[55.6,7469],[55.6,7552],[55.6,7636],[55.6,7719],[55.6,7803],[55.6,7887],[55.9,7970],[58.7,8638],[58.8,8720],[59,8803],[59,8887],[56.9,8970],[56.9,9053],[57.1,9138],[57.4,9221],[57.5,9305],[59.1,9387],[58.7,9471],[60.9,9554],[63.8,9638],[63.2,9721],[62.4,9804],[62.4,9887],[62.4,9970],[62.4,10054],[62.6,10139],[63.1,10221],[63.1,10307],[63.1,10387],[63.1,10471],[63.1,10553],[63.1,10637],[63.1,10721],[63.1,10804],[63.1,10887],[63.1,10971],[63.1,11054],[63.1,11137],[63.1,11221],[63.1,11304],[63.1,11388],[63.1,11471],[63.1,11554],[63.1,11638],[63.1,11721],[63.1,11805],[63.1,11888],[63.1,11971],[63.1,12055],[63.1,12138],[63.1,12222],[63.1,12304],[63.2,12388],[63.2,12471],[63.2,12555],[63.2,12638],[63.2,12721],[63.2,12805],[63.2,12888],[63.2,12971],[63.2,13055],[63.2,13138],[63.2,13222],[63.2,13305],[63.2,13388],[63.2,13472],[63.2,13557],[63.2,13639],[63.2,13722],[63.2,13807],[63.2,13889],[63.2,13972],[63.2,14055],[63.2,14139],[63.2,14222],[63.2,14307],[63.2,14389],[63.2,14472],[63.2,14556],[63.2,14639],[63.2,14722],[63.2,14806],[63.2,14889],[63.2,14973],[63.2,15056],[63.2,15139],[63.2,15222],[63.2,15306],[63.2,15389],[63.2,15473],[63.2,15558],[63.2,15639],[63.2,15723],[63.2,15806],[63.2,15890],[63.2,15973],[63.2,16056],[63.2,16140],[63.2,16223],[63.2,16307],[63.2,16390],[63.2,16473],[63.2,16556],[63.2,16640],[63.2,16723],[63.2,16807],[63.2,16890],[63.2,16973],[63.2,17057],[63.2,17140],[63.2,17223],[63.2,17307],[63.2,17390],[63.2,17473],[63.2,17557],[63.2,17640],[63.2,17723],[63.2,17807],[63.2,17890],[63.2,17974],[63.2,18057],[63.2,18140],[63.2,18224],[63.2,18307],[63.2,18391],[63.2,18474],[63.2,18557],[64.8,18658],[64.8,18741],[64.8,18824],[64.8,18907],[64.8,18991],[64.8,19074],[64.8,19157],[64.8,19241],[64.8,19324],[65,19407],[65,19492],[65,19575],[65,19658],[65,19742],[65,19825],[65,19908],[65,19992],[65,20075],[64.1,20159],[56.4,20242],[51.8,20326],[51.8,20408],[51.8,20492],[51.8,20575],[51.8,20658],[51.8,20741],[51.8,20825],[51.8,20909],[51.7,20992],[51.7,21077],[51.5,21158],[51.4,21242],[51.3,21326],[53.3,21409],[55.3,21493],[57.8,21576],[58.3,21659],[58.8,21742],[59,21825],[59,21908],[59,21992],[59,22076],[59,22159],[59,22242],[59,22328],[59,22411],[59,22493],[59,22576],[59,22659],[59.1,22743],[59.1,22826],[59.1,22909],[59.3,22992],[59.3,23076],[59.3,23159],[59.3,23243],[59.3,23327],[59.3,23410],[59.3,23493],[59.3,23576],[59.3,23660],[59.3,23744],[59.3,23827],[59.3,23910],[59.3,23994],[59.3,24076],[59.3,24160],[59.3,24244],[59.3,24328],[59.3,24410],[59.3,24493],[59.3,24577],[59.3,24660],[59.3,24743],[59.4,24827],[59.4,24910],[59.4,24994],[59.4,25077],[59.4,25160],[59.4,25244],[59.7,25327],[59.7,25410],[59.7,25494],[59.9,25577],[60,25661],[60,25744],[60,25827],[60,25911],[60,25994],[60,26078],[60.2,26161],[60.3,26244],[60.3,26327],[60.5,26411],[60.5,26494],[60.5,26577],[60.5,26661],[60.5,26744],[60.5,26828],[60.5,26911],[60.6,26994],[60.6,27077],[60.6,27161],[60.6,27248],[60.6,27328],[60.6,27411],[60.6,27495],[60.6,27578],[60.6,27662],[60.6,27745],[60.7,27828],[60.7,27912],[60.9,27996],[60.9,28078],[60.9,28162],[60.9,28245],[60.9,28329],[60.9,28412],[60.9,28495]]",1,0,1089.3591,1091.3604,71.412109,1.3836,"[{""rating"":60.86727001028815,""responseTime"":0.39230000007160015},{""rating"":71.41210900492196,""responseTime"":1.3836000000237618}]",space,1.467,,1091.3609,Definitely yes,100,1091.3686,,,[],,0,11,11,11,1,audio/Narrative8Situation2.wav,audio/Narrative7Situation2.wav,audio/Narrative6Situation2.wav,audio/Narrative5Situation2.wav,3,3,3,3,,,,,,,,,,,,,,,,,,,,,,,,,,,,,,,,,,,,,,,
,,,,,,651ec39e94e965c024ee25c6,2024-02-08_16h06.31.031,group3.1-3.2-social-tom,2023.2.2,Win32,60.24096386,65c5074098b851296ff0b7ed,65c54192226867aa5ea6037e,,,,,,,,,,,,,,,,,,,,,,,,,,,,,1091.3703,2,audio/Narrative6Situation3.wav,1096.3789,,1096.379,1109.0194,"[[999,25],[999,133],[999,216],[999,299],[999,384],[999,467],[999,550],[999,636],[999,718],[999,800],[999,884],[999,967],[999,1050],[999,1136],[999,1217],[999,1300],[999,1383],[999,1467],[999,1550],[999,1633],[999,1717],[999,1800],[999,1883],[999,1967],[999,2051],[999,2135],[999,2217],[999,2300],[999,2384],[999,2468],[999,2551],[999,2636],[999,2717],[999,2801],[999,2884],[999,2967],[999,3051],[999,3135],[999,3218],[999,3301],[999,3385],[999,3468],[999,3551],[999,3634],[999,3718],[999,3801],[999,3884],[999,3968],[999,4051],[999,4135],[999,4218],[999,4302],[999,4385],[999,4468],[999,4552],[999,4635],[999,4718],[999,4801],[999,4885],[999,4968],[999,5052],[999,5135],[999,5218],[999,5302],[999,5385],[999,5468],[999,5552],[999,5635],[999,5719],[999,5802],[999,5885],[999,5969],[999,6052],[999,6136],[999,6219],[999,6302],[999,6386],[999,6469],[999,6553],[999,6639],[999,6719],[999,6803],[999,6886],[999,6969],[999,7056],[999,7136],[999,7220],[999,7303],[999,7386],[999,7470],[999,7553],[999,7636],[999,7720],[999,7805],[999,7887],[999,7970],[999,8055],[999,8136],[999,8220],[999,8303],[999,8386],[999,8470],[999,8555],[999,8637],[999,8720],[999,8803],[999,8887],[999,8970],[999,9055],[999,9137],[999,9221],[999,9305],[999,9387],[999,9470],[999,9556],[999,9637],[999,9721],[999,9805],[999,9887],[999,9971],[999,10055],[999,10137],[999,10221],[999,10305],[999,10387],[999,10471],[999,10555],[999,10637],[999,10721],[999,10804],[999,10888],[999,10971],[999,11054],[999,11138],[999,11221],[999,11305],[999,11388],[999,11471],[999,11554],[999,11638],[999,11727],[999,11805],[999,11888],[999,11972],[999,12056],[999,12140],[999,12222],[999,12305],[999,12389],[999,12476],[999,12556],[999,12639]]",1,0,1109.0197,1111.6863,76.97744159,1.2615,"[{""rating"":76.97744159043137,""responseTime"":1.1956999999283653},{""rating"":76.97744159043137,""responseTime"":1.2615000000000691}]",space,2.1218,,1111.6865,Definitely yes,100,1111.6921,,,[],,0,12,12,12,1,audio/Narrative8Situation3.wav,audio/Narrative7Situation3.wav,audio/Narrative6Situation3.wav,audio/Narrative5Situation3.wav,4,8,5,3,,,,,,,,,,,,,,,,,,,,,,,,,,,,,,,,,,,,,,,
,,,,,,651ec39e94e965c024ee25c6,2024-02-08_16h06.31.031,group3.1-3.2-social-tom,2023.2.2,Win32,60.24096386,65c5074098b851296ff0b7ed,65c54192226867aa5ea6037e,,,,,,,,,,,,,,,,,,,,,,,,,,,,,1111.6933,2,audio/Narrative6Situation4.wav,1113.7048,,1113.705,1126.3266,"[[76,541],[73,621],[72.9,705],[72.8,790],[72.8,872],[72.6,959],[72.6,1040],[72.6,1124],[72.3,1205],[72.3,1291],[72.3,1373],[72.3,1455],[72.3,1539],[72.3,1623],[71.9,1710],[71.9,1790],[71.9,1866],[71.7,1956],[71.7,2041],[71.7,2123],[71.7,2207],[71.7,2291],[71.7,2370],[71.7,2456],[71.9,2544],[72,2624],[72.2,2709],[72.2,2787],[72.2,2873],[72.2,2956],[72.2,3040],[72.2,3124],[72.2,3207],[71.4,9142],[70.6,9230],[70.6,9310],[70.6,9394],[70.6,9476],[70.4,9562],[70.3,9643],[70.3,9730],[70.3,9810],[70.3,9893],[70.3,9975],[70.3,10061],[69.4,10144],[64.1,10230],[61,10311],[60.6,10394],[57.1,10481],[56.5,10562],[56.5,10645],[56.5,10727],[56.5,10811],[56.5,10893],[56.5,10980],[56.5,11060],[56.5,11140],[56.5,11227],[56.5,11312],[56.4,11394],[56.4,11477],[56.4,11561],[56.4,11644],[56.4,11730],[56.4,11811],[56.4,11895],[56.4,11978],[56.4,12062],[56.4,12144],[56.4,12230],[56.4,12311],[56.4,12395],[56.4,12479],[56.3,12560]]",1,0,1126.3273,1128.2605,56.32712921,1.0413,"[{""rating"":56.32712921091556,""responseTime"":0.12569999992842895},{""rating"":56.32712921091556,""responseTime"":1.0412999999523436}]",space,1.3828,,1128.2606,Not at all,0,1128.2692,,,[],,0,13,13,13,1,audio/Narrative8Situation4.wav,audio/Narrative7Situation4.wav,audio/Narrative6Situation4.wav,audio/Narrative5Situation4.wav,3,3,2,1,,,,,,,,,,,,,,,,,,,,,,,,,,,,,,,,,,,,,,,
,,,,,,651ec39e94e965c024ee25c6,2024-02-08_16h06.31.031,group3.1-3.2-social-tom,2023.2.2,Win32,60.24096386,65c5074098b851296ff0b7ed,65c54192226867aa5ea6037e,,,,,,,,,,,,,,,,,,,,,,,,,,,,,1128.2698,2,audio/Narrative6Situation5.wav,1130.2775,,1130.2775,1138.2351,"[[47.4,526],[38,609],[32.3,694],[31.6,779],[30,859],[30,940],[32.8,1026],[34.7,1109],[34.8,1191],[34.7,1275],[33.8,1358],[19.3,1779],[14.7,1860],[9.9,1945],[7.4,2029],[7.4,2109],[7.3,2192],[7.1,2268],[7.1,2357],[7.1,2442],[7.1,2527],[8,2611],[8.3,2692],[9.2,2777],[9.5,2859],[10.1,2942],[10.2,3027],[10.2,3108],[10.2,3192],[10.2,3274],[10.2,3359],[10.2,3442],[10.2,3527],[10.1,3609],[9.9,3688],[9.8,3768],[9.8,3853],[9.6,3935],[9.6,4018],[9.6,4103],[9.6,4188],[9.6,4270],[9.3,4353],[9.3,4437],[9.3,4518],[9.3,4602],[9.3,4685],[9.3,4768],[9.3,4854],[9.3,4940],[8.9,5018],[8.9,5102],[8.9,5186],[8.9,5268],[8.9,5352],[8.9,5436],[8.9,5519],[8.7,5605]]",1,0,1138.2354,1140.9249,24.25324662,1.6025,"[{""rating"":24.253246617262263,""responseTime"":1.6024999999999636}]",space,2.1525,,1140.925,Definitely yes,100,1140.9324,,,[],,0,14,14,14,1,audio/Narrative8Situation5.wav,audio/Narrative7Situation5.wav,audio/Narrative6Situation5.wav,audio/Narrative5Situation5.wav,2,5,2,5,,,,,,,,,,,,,,,,,,,,,,,,,,,,,,,,,,,,,,,
,,,,,,651ec39e94e965c024ee25c6,2024-02-08_16h06.31.031,group3.1-3.2-social-tom,2023.2.2,Win32,60.24096386,65c5074098b851296ff0b7ed,65c54192226867aa5ea6037e,,,,,,,,,,,,,,,,,,,,,,,,,,,,,1140.9349,2,audio/Narrative6Situation6.wav,1142.9359,,1142.9362,1154.0218,"[[999,1],[999,113],[999,198],[999,280],[999,363],[999,448],[999,530],[999,613],[999,697],[999,781],[999,864],[999,947],[999,1030],[999,1114],[999,1197],[999,1280],[999,1365],[999,1447],[999,1530],[999,1614],[999,1697],[999,1780],[999,1864],[999,1947],[999,2030],[999,2114],[999,2197],[999,2281],[999,2364],[999,2448],[999,2531],[999,2617],[999,2698],[999,2781],[999,2864],[999,2948],[999,3031],[999,3115],[999,3198],[999,3281],[999,3365],[999,3448],[999,3531],[999,3615],[999,3698],[999,3781],[999,3865],[999,3948],[999,4031],[999,4115],[999,4198],[999,4282],[999,4365],[999,4448],[999,4532],[999,4615],[999,4698],[999,4782],[999,4865],[999,4949],[999,5032],[999,5115],[999,5199],[999,5282],[999,5366],[999,5449],[999,5532],[999,5618],[999,5699],[999,5782],[999,5872],[999,5949],[999,6033],[999,6118],[999,6199],[999,6282],[999,6366],[999,6449],[999,6533],[999,6617],[999,6699],[999,6783],[999,6868],[999,6949],[999,7033],[999,7116],[999,7200],[999,7283],[999,7367],[999,7450],[999,7533],[999,7616],[999,7700],[999,7784],[999,7866],[999,7950],[999,8033],[999,8118],[999,8201],[999,8284],[999,8368],[999,8450],[999,8534],[999,8617],[999,8700],[999,8784],[999,8867],[999,8951],[999,9034],[999,9117],[999,9200],[999,9284],[999,9367],[999,9451],[999,9535],[999,9618],[999,9701],[999,9784],[999,9868],[999,9951],[999,10034],[999,10117],[999,10201],[999,10284],[999,10368],[999,10451],[999,10535],[999,10618],[999,10701],[999,10785],[999,10868],[999,10952],[999,11035]]",1,0,1154.0223,1158.4907,85.91127067,3.7842,"[{""rating"":85.91127066761716,""responseTime"":3.7842000000478038}]",space,3.9441,,1158.4909,Not at all,0,1158.5007,,,[],,0,15,15,15,1,audio/Narrative8Situation6.wav,audio/Narrative7Situation6.wav,audio/Narrative6Situation6.wav,audio/Narrative5Situation6.wav,2,3,2,3,,,,,,,,,,,,,,,,,,,,,,,,,,,,,,,,,,,,,,,
,,,,,,651ec39e94e965c024ee25c6,2024-02-08_16h06.31.031,group3.1-3.2-social-tom,2023.2.2,Win32,60.24096386,65c5074098b851296ff0b7ed,65c54192226867aa5ea6037e,,,,,,,,,,,,,,,,,,,,,,,,,,,,,1158.5014,2,audio/Narrative6Situation7.wav,1163.5091,,1163.5092,1188.3621,"[[999,26],[999,136],[999,218],[999,301],[999,386],[999,468],[999,551],[999,634],[999,718],[999,802],[999,886],[999,966],[999,1050],[999,1133],[999,1217],[999,1300],[999,1385],[999,1468],[999,1550],[999,1633],[999,1717],[999,1800],[999,1884],[999,1969],[999,2052],[999,2136],[999,2219],[999,2300],[999,2384],[999,2467],[999,2551],[999,2634],[999,2717],[999,2801],[999,2884],[999,2969],[999,3051],[999,3134],[999,3218],[999,3304],[999,3387],[999,3469],[999,3554],[999,3637],[999,3719],[999,3803],[999,3886],[999,3968],[999,4051],[999,4134],[999,4218],[999,4301],[999,4385],[999,4470],[999,4554],[999,4636],[999,4720],[999,4805],[999,4885],[999,4968],[999,5052],[999,5136],[999,5221],[999,5302],[999,5387],[999,5470],[999,5555],[999,5635],[999,5720],[999,5804],[999,5885],[999,5971],[999,6055],[999,6137],[999,6221],[999,6302],[999,6387],[999,6471],[999,6553],[999,6636],[999,6722],[999,6803],[999,6888],[999,6971],[999,7056],[999,7136],[999,7219],[999,7306],[999,7386],[999,7470],[999,7556],[999,7636],[999,7721],[999,7803],[999,7886],[999,7971],[999,8057],[999,8138],[999,8222],[999,8303],[999,8386],[999,8470],[999,8553],[999,8637],[999,8720],[999,8806],[999,8887],[999,8970],[999,9056],[999,9137],[999,9221],[999,9305],[999,9389],[999,9472],[999,9555],[999,9637],[999,9720],[999,9808],[999,9891],[999,9972],[999,10054],[999,10137],[999,10223],[999,10308],[999,10391],[999,10476],[999,10555],[999,10638],[999,10722],[999,10807],[73,10913],[73.8,10998],[75,11079],[78.8,11165],[82,11414],[82,11497],[81.4,11578],[81.3,11655],[81.2,11745],[81.2,11828],[81.2,11911],[81.1,11990],[81.1,12076],[81.1,12162],[81.1,12246],[81,12329],[80.7,12412],[80.7,12496],[80.7,12580],[80.7,12665],[80.6,12746],[80.6,12830],[80.6,12912],[80.6,12997],[77.7,13082],[77.6,13164],[77.6,13247],[77.6,13330],[77.6,13416],[77.6,13499],[77.6,13580],[77.6,13665],[77.6,13747],[77.6,13831],[77.6,13915],[77.6,13998],[77.6,14080],[77.6,14163],[77.6,14240],[77.6,14331],[77.6,14406],[77.6,14496],[77.6,14580],[77.6,14666],[77.6,14748],[77.6,14830],[77.6,14915],[77.6,14997],[77.6,15082],[77.6,15164],[77.6,15247],[77.6,15331],[77.6,15414],[77.6,15499],[77.6,15580],[77.6,15665],[77.6,15747],[77.6,15832],[77.4,15917],[77.4,15999],[77.4,16080],[77.4,16163],[77.4,16240],[77.4,16331],[77.2,16417],[77.2,16499],[77.1,16580],[77.1,16665],[77.1,16749],[77.1,16829],[76.9,16916],[76.7,16998],[76.4,17074],[75.5,17165],[75.4,17241],[73.5,17331],[72,18084],[71.4,18165],[71.4,18248],[71.4,18331],[71.4,18416],[71.4,18495],[71.4,18577],[71.4,18665],[71.4,18750],[71.4,18832],[71.3,18917],[71.3,19000],[71.3,19083],[71.3,19166],[71.3,19242],[71.1,19328],[71.1,19416],[71,19500],[71,19584],[71,19667],[71,19745],[71,19832],[71,19912],[71,19999],[71,20082],[71,20166],[71,20242],[71,20332],[71,20415],[71,20499],[71,20588],[70.9,20667],[70.9,20751],[70.7,20836],[70.7,20917],[70.7,20996],[70.7,21083],[70.7,21159],[70.7,21249],[70.7,21326],[70.6,21417],[70.6,21501],[70.6,21585],[70.6,21666],[70.6,21750],[70.6,21835],[70.6,21918],[70.6,22000],[70.6,22086],[70.6,22168],[70.6,22252],[70.6,22334],[70.5,22418],[70.5,22500],[70.5,22584],[70.5,22666],[70.7,22751],[70.7,22835],[70.7,22917],[70.7,23001],[70.7,23086],[70.7,23167],[70.7,23252],[70.7,23335],[70.7,23417],[70.7,23500],[70.9,23587],[71.1,23668],[71.1,23751],[71.1,23834],[71.1,23919],[71.1,24001],[71.1,24085],[71.1,24167],[71.1,24250],[71.1,24333],[71.4,24419],[71.4,24504],[71.6,24585],[71.7,24670],[71.9,24752],[71.9,24839]]",1,0,1188.3625,1194.1405,78.58845955,4.6904,"[{""rating"":78.58845955295304,""responseTime"":4.690399999976307}]",space,5.2421,,1194.1408,Partially,50,1194.1498,,,[],,0,16,16,16,1,audio/Narrative8Situation7.wav,audio/Narrative7Situation7.wav,audio/Narrative6Situation7.wav,audio/Narrative5Situation7.wav,3,5,5,4,,,,,,,,,,,,,,,,,,,,,,,,,,,,,,,,,,,,,,,
,,,,,,651ec39e94e965c024ee25c6,2024-02-08_16h06.31.031,group3.1-3.2-social-tom,2023.2.2,Win32,60.24096386,65c5074098b851296ff0b7ed,65c54192226867aa5ea6037e,,,,,,,,,,,,,,,,,,,,,,,,,,,,,1194.1516,2,audio/Narrative6Situation8.wav,1199.1584,,1199.1585,1206.0207,"[[85.1,4227],[94.6,4312],[95.2,4392],[95.2,4477],[95.5,4558],[95.3,4635],[95.2,4727],[93.7,4810],[93.4,4892],[93.3,4976],[93.1,5058],[92.7,5142],[92.2,5228],[78.6,5311],[70.6,5394],[70.6,5476],[70.6,5561],[70.4,5643],[70.4,5727],[70.4,5810],[70.6,5897],[72.8,5978],[74.5,6061],[75.8,6137],[76.9,6227],[77.9,6312],[79.2,6395],[79.2,6478],[79.2,6560],[79.1,6647],[79.1,6727],[79.1,6810]]",1,0,1206.0211,1208.83,81.956948,2.0506,"[{""rating"":81.9569479995558,""responseTime"":2.0505999999047617}]",space,2.2688,,1208.8302,Not at all,0,1208.8386,,,[],,0,17,17,17,1,audio/Narrative8Situation8.wav,audio/Narrative7Situation8.wav,audio/Narrative6Situation8.wav,audio/Narrative5Situation8.wav,3,2,5,3,,,,,,,,,,,,,,,,,,,,,,,,,,,,,,,,,,,,,,,
,,,,,,651ec39e94e965c024ee25c6,2024-02-08_16h06.31.031,group3.1-3.2-social-tom,2023.2.2,Win32,60.24096386,65c5074098b851296ff0b7ed,65c54192226867aa5ea6037e,,,,,,,,,,,,,,,,,,,,,,,,,,,,,1208.8393,2,audio/Narrative6Situation9.wav,1212.8484,,1212.8487,1222.8054,"[[76.9,482],[76.9,566],[76.9,649],[76.7,734],[76.6,816],[76.6,900],[76.6,983],[76.6,1066],[76.5,1149],[76.5,1235],[76.5,1316],[76.5,1399],[76.4,1485],[76.4,1566],[76.4,1650],[76.4,1733],[76.4,1816],[76.4,1899],[76.4,1983],[76.4,2066],[76.4,2149],[76.3,2233],[76.3,2316],[76.3,2399],[76.1,2484],[76,2567],[76,2650],[76,2733],[75.1,2817],[75.1,2900],[73.8,2984],[73.8,3067],[73.8,3151],[73.8,3235],[73.8,3317],[73.8,3400],[73.8,3485],[73.8,3567],[73.8,3650],[73.8,3736],[73.8,3817],[73.8,3900],[73.8,3984],[73.8,4067],[73.8,4150],[73.8,4234],[73.8,4317],[73.8,4400],[73.8,4484],[73.8,4567],[73.8,4651],[73.8,4735],[73.8,4818],[73.8,4901],[73.8,4985],[73.8,5068],[73.8,5151],[73.8,5235],[72.3,7086],[72.3,7169],[72.3,7252],[72.3,7335],[72.3,7419],[72.3,7502],[72.3,7586],[72.3,7669],[72.3,7753],[72.3,7836],[72.3,7919],[72.3,8003],[72.3,8086],[72.3,8169],[72.3,8252],[72.3,8336],[72.3,8419],[72.3,8503],[73.8,9336],[73.9,9421],[73.8,9505],[73.8,9587],[73.8,9670],[73.8,9755],[74.1,9837],[74,9920]]",1,0,1222.8058,1226.3875,71.26565648,3.2633,"[{""rating"":71.2656564833626,""responseTime"":3.2632999999523236}]",space,3.0367,,1226.3876,Definitely yes,100,1226.3957,,,[],,0,18,18,18,1,audio/Narrative8Situation9.wav,audio/Narrative7Situation9.wav,audio/Narrative6Situation9.wav,audio/Narrative5Situation9.wav,3,2,4,3,,,,,,,,,,,,,,,,,,,,,,,,,,,,,,,,,,,,,,,
,,,,,,651ec39e94e965c024ee25c6,2024-02-08_16h06.31.031,group3.1-3.2-social-tom,2023.2.2,Win32,60.24096386,65c5074098b851296ff0b7ed,65c54192226867aa5ea6037e,,,,,,,,,,,,,,,,,,,,,,,,,,,,,,,,,,,,,,,,,,,,,,,,,,,,,,,,,,,,,,,,,,,,,,,,1226.3965,1231.0739,space,4.1557,,1231.0764,1315.9971,space,84.5914,,,,,,,,,,,,,,,,,,,,,,,,,,
,,,,,,651ec39e94e965c024ee25c6,2024-02-08_16h06.31.031,group3.1-3.2-social-tom,2023.2.2,Win32,60.24096386,65c5074098b851296ff0b7ed,65c54192226867aa5ea6037e,,,,,,,,,,,,,,,,,,,,,,,,,,,,,1318.6204,1,audio/Narrative8Situation9.wav,1320.6334,,,,,,,1352.5426,1357.2466,80.63884313,1.9666,"[{""rating"":80.63884312522654,""responseTime"":1.9666000000238455}]",space,4.1699,,1352.5135,Not at all,0,1352.5424,,,[],,,,,,,,,,,2,2,2,2,,,,,,,,,,,,,,,1316.0264,1318.5809,1320.6345,3,1352.5131,"[[999,1],[999,128],[999,211],[999,295],[999,378],[999,462],[999,545],[999,628],[999,711],[999,795],[999,878],[999,962],[999,1045],[999,1129],[999,1212],[999,1295],[999,1379],[999,1463],[999,1545],[999,1628],[999,1712],[999,1795],[999,1879],[999,1962],[999,2046],[999,2129],[999,2212],[999,2296],[999,2379],[999,2463],[999,2546],[999,2629],[999,2712],[999,2796],[999,2879],[999,2962],[999,3046],[999,3129],[999,3213],[999,3296],[999,3389],[999,3463],[999,3546],[999,3630],[999,3713],[999,3796],[999,3880],[999,3963],[999,4046],[999,4130],[999,4213],[999,4297],[999,4380],[999,4463],[999,4547],[999,4630],[999,4713],[999,4797],[999,4880],[999,4964],[999,5048],[999,5130],[999,5214],[999,5297],[999,5381],[999,5464],[999,5547],[999,5630],[999,5714],[999,5797],[999,5881],[999,5964],[999,6047],[999,6131],[999,6214],[999,6298],[999,6381],[999,6465],[999,6548],[999,6631],[999,6723],[999,6798],[999,6881],[999,6964],[999,7048],[999,7131],[999,7215],[999,7298],[999,7381],[999,7465],[999,7548],[999,7632],[999,7715],[999,7798],[999,7882],[999,7965],[999,8048],[999,8132],[999,8215],[999,8298],[999,8382],[999,8465],[999,8548],[999,8632],[999,8715],[999,8800],[999,8882],[999,8965],[999,9049],[999,9132],[999,9215],[999,9299],[999,9382],[999,9466],[999,9549],[999,9632],[999,9716],[999,9799],[999,9883],[999,9966],[999,10059],[999,10132],[999,10216],[999,10299],[999,10383],[999,10466],[999,10549],[999,10633],[999,10716],[999,10799],[999,10883],[999,10966],[999,11049],[999,11133],[999,11216],[999,11299],[999,11383],[999,11466],[999,11550],[999,11633],[999,11717],[999,11800],[999,11883],[999,11967],[999,12050],[999,12133],[999,12217],[999,12300],[999,12383],[999,12467],[999,12551],[999,12634],[999,12717],[999,12800],[999,12884],[999,12967],[999,13050],[999,13134],[999,13217],[999,13301],[999,13393],[999,13468],[999,13554],[999,13642],[999,13718],[999,13801],[999,13885],[999,13976],[999,14054],[999,14135],[999,14226],[999,14301],[999,14391],[999,14468],[999,14552],[999,14635],[999,14725],[999,14808],[999,14892],[999,14975],[999,15058],[999,15136],[999,15219],[999,15302],[999,15392],[999,15475],[999,15552],[999,15639],[999,15726],[999,15809],[999,15885],[999,15975],[999,16052],[999,16142],[999,16219],[999,16302],[999,16389],[999,16471],[999,16553],[999,16636],[999,16742],[999,16819],[999,16902],[999,16986],[999,17069],[999,17152],[999,17236],[999,17319],[999,17402],[999,17486],[999,17569],[999,17653],[999,17736],[999,17819],[999,17903],[999,17986],[999,18069],[999,18153],[999,18236],[999,18320],[999,18403],[999,18486],[999,18570],[999,18653],[999,18736],[999,18820],[999,18903],[999,18986],[999,19070],[999,19153],[999,19237],[999,19320],[999,19403],[999,19487],[999,19570],[999,19654],[999,19737],[999,19820],[999,19904],[999,19987],[999,20074],[999,20154],[999,20237],[999,20320],[999,20404],[999,20487],[999,20570],[999,20654],[999,20737],[999,20821],[999,20904],[999,20987],[999,21071],[999,21154],[999,21237],[999,21321],[999,21404],[999,21488],[999,21571],[999,21654],[999,21738],[999,21821],[999,21904],[999,21988],[999,22071],[999,22155],[999,22238],[999,22322],[999,22405],[999,22488],[999,22571],[999,22655],[999,22738],[999,22821],[999,22905],[999,22988],[999,23072],[999,23155],[999,23238],[999,23322],[999,23406],[999,23489],[999,23572],[999,23655],[999,23739],[999,23822],[999,23905],[999,23989],[999,24072],[999,24156],[999,24239],[999,24322],[999,24406],[999,24489],[999,24572],[999,24656],[999,24739],[999,24822],[999,24906],[999,24989],[999,25073],[999,25156],[999,25239],[999,25323],[999,25406],[999,25489],[999,25573],[999,25656],[999,25740],[999,25823],[999,25906],[999,25990],[999,26073],[83,26157],[83,26256],[83,26340],[83,26423],[83,26506],[83,26590],[83,26673],[83,26757],[83,26848],[83,26931],[83,27007],[83,27098],[83,27180],[83,27258],[83,27346],[83,27424],[83,27508],[83,27593],[83,27681],[83,27764],[83,27847],[83,27931],[83,28014],[83,28098],[83,28181],[83,28258],[83,28348],[83,28428],[83,28510],[83,28592],[83,28675],[83,28765],[83,28841],[83,28932],[83,29008],[83,29091],[83,29175],[83,29258],[83,29348],[83,29425],[83,29515],[83,29592],[83,29682],[83,29758],[83,29848],[83,29932],[83,30016],[83,30108],[83,30192],[83,30275],[83,30358],[83,30442],[83,30525],[83,30608],[83,30692],[83,30775],[83,30859],[83,30942],[83,31025],[83,31109],[83,31192],[83,31275],[83,31359],[83,31442],[83,31526],[83,31609],[83,31692],[83,31776],[83,31859]]",0,0,0,0,1,"Larry had recently lost his family, job and home, and was now living on his own in the park. He had most of his belongings, including some clothes, a blanket, and his mother’s special necklace. His family had been very important to him and he felt as though he did not have much going for him. One of his first days in the park he came across a family that did not have much food and looked very cold. He decided to give them some of his food and his blanket.","Larry had recently lost his family, job and home, and was now living on his own in the park. He had most of his belongings, including some clothes, a blanket, and his mother’s special necklace. His family had been very important to him and he felt as though he did not have much going for him. One of his first days in the park he came across a family that did not have much food and looked very cold. He decided to give them some of his food and his blanket.","Larry had recently lost his family, job and home, and was now living on his own in the park. He had most of his belongings, including some clothes, a blanket, and his mother’s special necklace. His family had been very important to him and he felt as though he did not have much going for him. One of his first days in the park he came across a family that did not have much food and looked very cold. He decided to give them some of his food and his blanket.","Larry had recently lost his family, job and home, and was now living on his own in the park. He had most of his belongings, including some clothes, a blanket, and his mother’s special necklace. His family had been very important to him and he felt as though he did not have much going for him. One of his first days in the park he came across a family that did not have much food and looked very cold. He decided to give them some of his food and his blanket.",,,,,,,,,,
