exp_question,consent.started,consent.stopped,consentResponse.keys,consentResponse.rt,consentResponse.duration,participantID,date,expName,psychopyVersion,OS,frameRate,STUDY_ID,SESSION_ID,opening1.started,opening1.stopped,keyEndingOpening1.keys,keyEndingOpening1.rt,keyEndingOpening1.duration,volumeAdjust.started,volumeAdjust.stopped,endingAdjust.keys,endingAdjust.rt,endingAdjust.duration,opening2.started,opening2.stopped,keyEndingOpening.keys,keyEndingOpening.rt,keyEndingOpening.duration,mouse.x,mouse.y,mouse.leftButton,mouse.midButton,mouse.rightButton,mouse.time,instructionLoop.thisRepN,instructionLoop.thisTrialN,instructionLoop.thisN,instructionLoop.thisIndex,instructionLoop.ran,readyForAudio.started,readyForAudio.stopped,fixation.started,run,audio_played,fixation.stopped,endPractice.keys,audioPre.started,audioPre.stopped,continuousResponses_audio,continuousSlider.response,continuousSlider.rt,intRating.started,intRating.stopped,intQuestionSlider.response,intQuestionSlider.rt,intQuestionSlider.history,confirmResponse.keys,confirmResponse.rt,confirmResponse.duration,catchQuestion.started,catch_label,catch_value,catchQuestion.stopped,catchQuestionSlider.response,catchQuestionSlider.rt,catchQuestionSlider.history,confirmResponse_2.keys,audioRunLoop.thisRepN,audioRunLoop.thisTrialN,audioRunLoop.thisN,audioRunLoop.thisIndex,audioRunLoop.ran,conditions1_1,conditions2_1,conditions1_2,conditions2_2,dur1_1,dur2_1,dur1_2,dur2_2,endPractice.rt,endPractice.duration,confirmResponse_2.rt,confirmResponse_2.duration,runIntervalBreak.started,runIntervalBreak.stopped,endingBreakKey.keys,endingBreakKey.rt,endingBreakKey.duration,connection.started,connection.stopped,connectionEnding.keys,connectionEnding.rt,connectionEnding.duration,readyForText.started,readyForText.stopped,textPre.started,run_dup,textPre.stopped,continuousResponses_text,textRunLoop.thisRepN,textRunLoop.thisTrialN,textRunLoop.thisN,textRunLoop.thisIndex,textRunLoop.ran,text1_1,text1_2,text2_1,text2_2,runBreakText.started,runBreakText.stopped,endingBreakKey_2.keys,endingBreakKey_2.rt,endingBreakKey_2.duration,ending.started,ending.stopped,endingEnding.keys,endingEnding.rt,endingEnding.duration
social,0.001,4.305,y,3.988,,654a8c7f29438b574d5b9fee,2024-05-13_11h54.15.876,group3.1-3.2-social-tom,2023.2.2,MacIntel,30.3030303,65c5074098b851296ff0b7ed,664236b3be7fd189343809c1,,,,,,,,,,,,,,,,,,,,,,,,,,,,,,,,,,,,,,,,,,,,,,,,,,,,,,,,,,,,,,,,,,,,,,,,,,,,,,,,,,,,,,,,,,,,,,,,,,,,,,,,,,
,,,,,,654a8c7f29438b574d5b9fee,2024-05-13_11h54.15.876,group3.1-3.2-social-tom,2023.2.2,MacIntel,30.3030303,65c5074098b851296ff0b7ed,664236b3be7fd189343809c1,4.305,9.405,space,5.065,,,,,,,,,,,,,,,,,,,,,,,,,,,,,,,,,,,,,,,,,,,,,,,,,,,,,,,,,,,,,,,,,,,,,,,,,,,,,,,,,,,,,,,,,,,,,,,,,,,,,,
,,,,,,654a8c7f29438b574d5b9fee,2024-05-13_11h54.15.876,group3.1-3.2-social-tom,2023.2.2,MacIntel,30.3030303,65c5074098b851296ff0b7ed,664236b3be7fd189343809c1,,,,,,9.406,16.006,space,6.233,,,,,,,,,,,,,,,,,,,,,,,,,,,,,,,,,,,,,,,,,,,,,,,,,,,,,,,,,,,,,,,,,,,,,,,,,,,,,,,,,,,,,,,,,,,,,,,,,
,,,,,,654a8c7f29438b574d5b9fee,2024-05-13_11h54.15.876,group3.1-3.2-social-tom,2023.2.2,MacIntel,30.3030303,65c5074098b851296ff0b7ed,664236b3be7fd189343809c1,,,,,,,,,,,16.013,28.209,space,12.173,,[],[],[],[],[],[],0,0,0,0,1,,,,,,,,,,,,,,,,,,,,,,,,,,,,,,,,,,,,,,,,,,,,,,,,,,,,,,,,,,,,,,,,,,,,,,,,,,,,,,,,
,,,,,,654a8c7f29438b574d5b9fee,2024-05-13_11h54.15.876,group3.1-3.2-social-tom,2023.2.2,MacIntel,30.3030303,65c5074098b851296ff0b7ed,664236b3be7fd189343809c1,,,,,,,,,,,28.213,59.94,space,31.635,,[],[],[],[],[],[],1,0,1,0,1,,,,,,,,,,,,,,,,,,,,,,,,,,,,,,,,,,,,,,,,,,,,,,,,,,,,,,,,,,,,,,,,,,,,,,,,,,,,,,,,
,,,,,,654a8c7f29438b574d5b9fee,2024-05-13_11h54.15.876,group3.1-3.2-social-tom,2023.2.2,MacIntel,30.3030303,65c5074098b851296ff0b7ed,664236b3be7fd189343809c1,,,,,,,,,,,59.941,89.908,space,29.929,,[],[],[],[],[],[],2,0,2,0,1,,,,,,,,,,,,,,,,,,,,,,,,,,,,,,,,,,,,,,,,,,,,,,,,,,,,,,,,,,,,,,,,,,,,,,,,,,,,,,,,
,,,,,,654a8c7f29438b574d5b9fee,2024-05-13_11h54.15.876,group3.1-3.2-social-tom,2023.2.2,MacIntel,30.3030303,65c5074098b851296ff0b7ed,664236b3be7fd189343809c1,,,,,,,,,,,89.909,147.777,space,57.838,,[],[],[],[],[],[],3,0,3,0,1,,,,,,,,,,,,,,,,,,,,,,,,,,,,,,,,,,,,,,,,,,,,,,,,,,,,,,,,,,,,,,,,,,,,,,,,,,,,,,,,
,,,,,,654a8c7f29438b574d5b9fee,2024-05-13_11h54.15.876,group3.1-3.2-social-tom,2023.2.2,MacIntel,30.3030303,65c5074098b851296ff0b7ed,664236b3be7fd189343809c1,,,,,,,,,,,147.778,157.976,space,10.172,,[],[],[],[],[],[],4,0,4,0,1,,,,,,,,,,,,,,,,,,,,,,,,,,,,,,,,,,,,,,,,,,,,,,,,,,,,,,,,,,,,,,,,,,,,,,,,,,,,,,,,
,,,,,,654a8c7f29438b574d5b9fee,2024-05-13_11h54.15.876,group3.1-3.2-social-tom,2023.2.2,MacIntel,30.3030303,65c5074098b851296ff0b7ed,664236b3be7fd189343809c1,,,,,,,,,,,,,,,,,,,,,,,,,,,157.981,160.545,160.567,1,audio/Narrative13Situation2.wav,162.578,,162.579,192.381,"[[39,4131],[40.7,4197],[42.8,4263],[46.1,4330],[49.4,4397],[51.8,4464],[54.6,4530],[56.3,4597],[56.3,4663],[56.3,4730],[56.4,4796],[57.6,4863],[59.2,4930],[60.8,4997],[61.9,5063],[62.9,5131],[64.6,5196],[68.9,5263],[71.5,5330],[72.2,5397],[73.8,5463],[74.6,5530],[75.1,5597],[75.8,5663],[76.4,5730],[77.1,5798],[79.3,5864],[80.8,5930],[81.8,5997],[81.8,6064],[81.8,6131],[81.8,6197],[88.2,6263],[94.2,6330],[95.7,6397],[95.8,6464],[95.8,6530],[95.8,6597],[95.7,6664],[95.7,6731],[95.7,6796],[95.7,6864],[95.7,6930],[95.7,6997],[95.7,7064],[95.7,7131],[95.7,7197],[95.7,7263],[95.7,7330],[95.7,7397],[94.6,7463],[93.5,7530],[93.3,7597],[93.3,7664],[93.2,7730],[93.2,7798],[93.1,7864],[93.1,7930],[92.9,7997],[92.9,8064],[92.9,8131],[92.9,8197],[92.9,8264],[92.9,8330],[92.9,8397],[92.9,8463],[92.9,8530],[92.9,8597],[92.9,8664],[92.9,8730],[92.9,8798],[92.9,8864],[92.9,8930],[92.9,8997],[92.9,9064],[92.9,9131],[92.9,9197],[92.9,9264],[92.9,9330],[92.9,9397],[92.9,9464],[92.9,9530],[92.9,9597],[92.9,9664],[92.9,9730],[92.9,9798],[92.9,9864],[92.9,9931],[92.9,9996],[92.9,10064],[92.9,10131],[92.9,10197],[92.9,10264],[93.3,10330],[67.2,16597],[65.8,16664],[65.8,16732],[65.8,16798],[65.8,16864],[65.8,16931],[65.8,16997],[65.8,17064],[65.8,17131],[65.8,17198],[65.8,17263],[63.9,17330],[56,17397],[52.6,17463],[51.8,17530],[51.5,17597],[51.4,17664],[51.4,17732],[51.4,17798],[51.1,17864],[50.6,17931],[50.1,17997],[50.1,18064],[50.1,18131],[50.1,18197],[50.1,18264],[50.1,18331],[50.1,18399],[50.1,18464],[50.1,18531],[50.1,18598],[50.1,18664],[50.1,18732],[50.1,18796],[50.1,18864],[50.1,18931],[50.1,18998],[50.1,19064],[50.1,19131],[50.1,19197],[50.1,19264],[50.1,19331],[50.1,19397],[49.4,19464],[47.4,19531],[44.7,19597],[43.5,19664],[42.9,19732],[41,19798],[37.2,19864],[33.1,19931],[30.7,19997],[28.8,20064],[28.8,20131],[28.8,20198],[28.8,20264],[28.8,20331],[28.8,20399],[28.8,20464],[28.8,20531],[28.8,20597],[28.8,20664],[28.8,20732],[28.8,20798],[28.8,20864],[28.8,20931],[28.8,20998],[28.8,21064],[28.8,21131],[28.8,21198],[28.8,21264],[28.8,21331],[28.8,21399],[28.8,21464],[28.8,21531],[28.8,21598],[28.8,21664],[28.8,21732],[28.8,21798],[28.8,21864],[28.8,21931],[28.8,21998],[28.8,22064],[28.8,22131],[28.8,22198],[28.5,22263],[22.6,22331],[11.8,22399],[9.3,22465],[9,22531],[9,22598],[9,22664],[9,22732],[9,22798],[9,22864],[9,22931],[8.6,22998],[6.5,23064],[4.3,23131],[3.2,23198],[2.9,23264],[2.9,23330],[2.5,23397],[2.5,23464],[2.5,23531],[2.5,23598],[2.2,23664],[1.9,23732],[1.9,23798],[1.9,23864],[1.9,23931],[1.9,23998],[1.9,24064],[1.9,24131],[1.9,24198],[1.9,24264],[2.2,24331],[2.6,24399],[10.3,24464],[31.9,24531],[34.2,24598],[34.2,24664],[34.2,24732],[34.2,24798],[34.2,24864],[34.2,24931],[34.2,24998],[34.2,25064],[34.2,25131],[34.2,25198],[34.2,25264],[34.2,25331],[34.2,25397],[36.4,25464],[47.2,25531],[54,25598],[58.6,25664],[62.2,25732],[62.2,25798],[62.2,25864],[62.2,25931],[62.2,25998],[62.4,26064],[64.3,26131],[69.2,26198],[72.8,26264],[73.9,26331],[74.3,26397],[74.3,26466],[74.3,26531],[74.3,26598],[74.3,26664],[74.3,26732],[74.3,26798],[74.3,26864],[74.3,26931],[74.3,26997],[74.3,27066],[74.3,27131],[74.3,27198],[74.3,27264],[74.3,27331],[74.3,27399],[74.3,27465],[74.3,27531],[74.3,27598],[74.3,27665],[74.3,27732],[74.3,27798],[74.3,27865],[74.3,27931],[74.3,28000],[74.3,28064],[74.3,28131],[74.3,28198],[74.3,28265],[74.3,28331],[74.3,28399],[74.3,28464],[74.3,28531],[74.3,28598],[74.3,28665],[74.3,28732],[74.3,28798],[74.3,28865],[74.3,28931],[74.3,28997],[74.3,29066],[74.3,29131],[74.3,29198],[74.3,29265],[74.3,29331],[73.6,29399],[52.4,29464],[7.1,29531],[0.7,29598],[0.4,29664],[0.4,29732],[0.4,29798]]",1,0,192.382,203.181,50,8.469,"[{""rating"":50.416666666666664,""responseTime"":4.1839999999999975},{""rating"":51.388888888888886,""responseTime"":5.135999999999996},{""rating"":51.388888888888886,""responseTime"":5.467999999999989},{""rating"":50,""responseTime"":8.468999999999994}]",space,10.216,,203.184,Partially,50,203.19,,,[],,0,0,0,0,1,audio/Narrative13Situation2.wav,audio/Narrative13Situation2.wav,audio/Narrative13Situation2.wav,audio/Narrative13Situation2.wav,2,2,2,2,,,,,,,,,,,,,,,,,,,,,,,,,,,,,,,,,,,,,,,
,,,,,,654a8c7f29438b574d5b9fee,2024-05-13_11h54.15.876,group3.1-3.2-social-tom,2023.2.2,MacIntel,30.3030303,65c5074098b851296ff0b7ed,664236b3be7fd189343809c1,,,,,,,,,,,,,,,,,,,,,,,,,,,,,203.19,1,audio/Narrative8Situation1.wav,207.645,space,207.645,223.612,"[[999,2],[999,66],[999,132],[999,199],[999,266],[999,332],[999,399],[999,466],[999,533],[999,599],[999,666],[999,732],[999,799],[999,867],[999,933],[999,1000],[999,1066],[999,1133],[999,1199],[999,1266],[999,1333],[999,1399],[999,1466],[999,1532],[999,1600],[999,1666],[999,1732],[999,1799],[999,1866],[999,1933],[999,2000],[999,2066],[999,2133],[999,2199],[999,2266],[999,2333],[999,2399],[63.9,2466],[64.7,2533],[65.4,2599],[65.4,2666],[65.4,2732],[65.4,2799],[65.6,2866],[68.3,2933],[71.1,2998],[71.7,3066],[71.7,3133],[71.7,3199],[71.7,3266],[71.7,3333],[71.7,3399],[71.7,3466],[71.7,3533],[71.7,3599],[71.7,3666],[71.7,3733],[71.7,3799],[71.7,3866],[71.7,3932],[71.7,4000],[71.7,4066],[71.7,4133],[71.7,4199],[71.7,4266],[71.7,4333],[71.7,4399],[71.7,4467],[71.7,4533],[71.7,4600],[71.7,4666],[71.7,4733],[71.7,4799],[71.7,4866],[71.8,4932],[74.2,5000],[79.4,5065],[79.7,5132],[78.5,5199],[77.5,5266],[78.1,5333],[82.4,5399],[86.8,5466],[89.4,5533],[91.9,5598],[93.2,5665],[94.4,5733],[95.3,5800],[95.4,5866],[95.7,5933],[95.8,6000],[95.8,6066],[95.8,6133],[95.8,6200],[95.4,6266],[93.2,6333],[86.4,6399],[81.7,6465],[78.6,6532],[75.3,6599],[74.2,6666],[74.2,6733],[74.2,6799],[74.2,6866],[74.2,6933],[74.2,7000],[74.2,7066],[74.2,7133],[74.2,7199],[74.2,7266],[74.2,7333],[74.2,7400],[74.2,7466],[74.2,7533],[74.2,7600],[74.2,7666],[74.2,7733],[74.2,7800],[74.2,7866],[74.2,7933],[74.2,8000],[74.2,8066],[74.2,8133],[74.2,8200],[74,8266],[73.3,8333],[72.8,8400],[72.5,8466],[72.5,8533],[72.5,8601],[72.5,8666],[72.5,8733],[72.5,8800],[72.5,8866],[72.5,8933],[72.5,9000],[72.5,9066],[72.5,9133],[72.5,9199],[72.5,9266],[72.5,9333],[72.5,9400],[72.5,9466],[72.5,9533],[72.5,9601],[72.5,9666],[72.5,9733],[72.5,9800],[72.5,9866],[72.5,9932],[74,10001],[86.7,10066],[94.7,10133],[97.1,10200],[98.2,10266],[98.8,10333],[100,10399],[100,10466],[99.9,10533],[98.8,10601],[98.1,10666],[97.9,10733],[97.9,10800],[97.9,10866],[97.9,10933],[97.9,11000],[97.9,11066],[97.6,11133],[93.5,11200],[83.8,11266],[76.1,11333],[74.7,11400],[74.7,11466],[74.7,11533],[74.7,11601],[73.6,11667],[68.1,11733],[62.2,11800],[58.5,11866],[57.6,11933],[57.6,12000],[57.6,12066],[57.6,12133],[57.6,12200],[57.6,12266],[57.6,12333],[57.6,12399],[57.6,12466],[57.6,12533],[57.6,12599],[57.6,12666],[57.6,12733],[57.6,12800],[57.6,12866],[57.6,12933],[57.6,13000],[57.6,13066],[57.6,13133],[57.6,13200],[57.6,13268],[57.6,13333],[57.6,13399],[57.6,13466],[57.6,13533],[57.6,13601],[57.6,13667],[57.6,13733],[57.6,13800],[57.6,13867],[57.6,13932],[57.6,14000],[57.6,14067],[57.6,14133],[57.6,14200],[57.6,14268],[57.6,14333],[57.6,14400],[57.6,14466],[57.6,14533],[57.6,14601],[57.6,14667],[57.6,14733],[57.6,14800],[57.6,14867],[57.6,14933],[57.6,15000],[57.6,15066],[57.6,15133],[57.6,15200],[57.6,15268],[57.6,15333],[57.6,15400],[57.6,15467],[57.6,15533],[57.6,15601],[61.8,15666]]",1,0,223.613,229.013,99.30555556,2.087,"[{""rating"":99.30555555555556,""responseTime"":2.086999999999989}]",space,4.853,,229.013,Definitely yes,100,234.414,99.72222222,4.137,"[{""rating"":99.72222222222223,""responseTime"":4.1370000000000005}]",space,0,1,1,1,1,audio/Narrative7Situation1.wav,audio/Narrative8Situation1.wav,audio/Narrative5Situation1.wav,audio/Narrative6Situation1.wav,2,5,5,2,4.432,,4.834,,,,,,,,,,,,,,,,,,,,,,,,,,,,,,,,,,,,
,,,,,,654a8c7f29438b574d5b9fee,2024-05-13_11h54.15.876,group3.1-3.2-social-tom,2023.2.2,MacIntel,30.3030303,65c5074098b851296ff0b7ed,664236b3be7fd189343809c1,,,,,,,,,,,,,,,,,,,,,,,,,,,,,234.415,1,audio/Narrative8Situation2.wav,237.448,,237.448,247.647,"[[999,0],[999,64],[999,131],[999,198],[999,264],[999,331],[999,397],[999,465],[999,531],[999,597],[999,663],[999,732],[999,798],[999,866],[999,931],[999,998],[999,1064],[999,1131],[999,1197],[999,1264],[999,1331],[999,1399],[999,1465],[999,1531],[999,1598],[999,1664],[999,1732],[999,1798],[999,1864],[999,1931],[999,1997],[999,2064],[999,2131],[999,2197],[999,2264],[999,2331],[999,2397],[999,2465],[999,2532],[999,2597],[999,2664],[999,2732],[999,2798],[999,2864],[999,2931],[999,2997],[999,3064],[999,3131],[999,3198],[999,3264],[999,3331],[999,3399],[999,3465],[999,3531],[999,3598],[999,3664],[999,3732],[999,3798],[86.5,3864],[81.8,3931],[81.7,3998],[81.7,4064],[80.4,4131],[69.3,4197],[58.5,4264],[54,4331],[51.1,4399],[48.2,4465],[42.6,4531],[41.4,4598],[41.4,4664],[41.4,4732],[41.4,4801],[41.4,4865],[41.5,4931],[43.1,4998],[44.2,5064],[44.3,5131],[43.6,5197],[40.7,5264],[29.6,5331],[20,5399],[18.2,5465],[18.2,5531],[18.2,5598],[18.2,5664],[18.2,5732],[18.2,5798],[18.2,5864],[18.2,5930],[18.2,5998],[18.2,6064],[18.2,6131],[18.2,6198],[18.2,6265],[18.2,6331],[18.2,6399],[18.2,6465],[18.2,6531],[18.2,6598],[18.2,6664],[18.2,6732],[18.2,6798],[18.8,6864],[19.6,6931],[19.9,6998],[19.6,7064],[6.7,9065],[6.7,9132],[6.7,9197],[6.8,9264],[8.2,9331],[12.9,9397],[10.8,9798],[8.3,9865],[6.5,9932],[5.8,9998],[5.6,10065],[5.1,10132],[4.9,10199]]",1,0,247.648,250.348,0,1.038,"[{""rating"":0,""responseTime"":1.038000000000011}]",space,2.109,,250.348,Definitely yes,100,250.353,,,[],,0,2,2,2,1,audio/Narrative7Situation2.wav,audio/Narrative8Situation2.wav,audio/Narrative5Situation2.wav,audio/Narrative6Situation2.wav,3,3,3,3,,,,,,,,,,,,,,,,,,,,,,,,,,,,,,,,,,,,,,,
,,,,,,654a8c7f29438b574d5b9fee,2024-05-13_11h54.15.876,group3.1-3.2-social-tom,2023.2.2,MacIntel,30.3030303,65c5074098b851296ff0b7ed,664236b3be7fd189343809c1,,,,,,,,,,,,,,,,,,,,,,,,,,,,,250.354,1,audio/Narrative8Situation3.wav,254.381,,254.381,276.816,"[[999,2],[999,65],[999,132],[999,199],[999,266],[999,332],[999,399],[999,466],[999,533],[999,600],[999,665],[999,733],[999,798],[999,868],[999,932],[999,1000],[999,1065],[999,1132],[999,1199],[999,1266],[999,1332],[999,1399],[999,1466],[999,1533],[999,1598],[999,1666],[999,1733],[999,1798],[999,1865],[999,1932],[999,2000],[999,2064],[999,2132],[999,2199],[51,2266],[49.3,2332],[49,2399],[49,2466],[48.8,2533],[43.1,2598],[10.3,3199],[15.4,3266],[27.1,3332],[27.1,3399],[27.1,3466],[27.1,3533],[28.5,3598],[35.8,3665],[41.9,3733],[42.1,3800],[42.1,3865],[42.1,3932],[42.2,4000],[43.8,4065],[48.3,4132],[54.2,4199],[56.7,4266],[56.8,4332],[56.8,4399],[57.8,4466],[68.9,4533],[81.5,4600],[86.8,4665],[86.8,4733],[86.8,4800],[86.8,4865],[87.5,4932],[90,5000],[90.7,5065],[90.7,5132],[90.7,5199],[92.2,5266],[95.6,5332],[96.4,5399],[96.5,5466],[96.4,5533],[95.3,5600],[93.2,5666],[92.4,5733],[92.4,5800],[92.4,5865],[92.4,5932],[93.6,6000],[95.4,6065],[96.4,6132],[96.7,6199],[96.7,6266],[97.4,6332],[98.1,6399],[98.1,6466],[98.1,6533],[98.1,6600],[98.1,6665],[98.1,6733],[98.1,6800],[98.1,6867],[97.4,6932],[94.9,7000],[90.7,7065],[81.5,7466],[70.3,7533],[66.9,7600],[65.8,7665],[65.6,7733],[65.6,7800],[65.6,7867],[65.6,7932],[65.6,7999],[65.6,8065],[65.6,8132],[65.6,8199],[65.6,8266],[65.6,8332],[65.6,8399],[65.6,8466],[65.7,8533],[71.8,8600],[89.6,8665],[95.1,8733],[95.1,8800],[95.1,8867],[95.1,8932],[95.1,9000],[95.1,9067],[95.1,9132],[95.1,9199],[96,9266],[96.5,9332],[96.5,9399],[95.6,9466],[95.3,9533],[95.3,9600],[95.4,9665],[95.7,9733],[96.4,9800],[97.4,9867],[98.2,9932],[98.2,10000],[98.2,10067],[98.2,10132],[98.2,10199],[98.2,10266],[98.2,10332],[98.2,10399],[98.2,10466],[98.2,10533],[98.2,10600],[98.2,10666],[98.2,10733],[98.2,10800],[98.2,10867],[98.2,10932],[98.2,11000],[98.2,11067],[98.2,11132],[98.2,11199],[98.2,11266],[98.2,11332],[98.2,11399],[98.2,11466],[98.2,11533],[98.2,11600],[98.2,11666],[98.2,11733],[98.2,11800],[98.2,11867],[98.2,11932],[98.2,12000],[98.2,12067],[98.2,12132],[98.2,12199],[98.2,12266],[98.2,12331],[98.2,12399],[98.2,12466],[98.2,12533],[98.2,12600],[98.2,12666],[98.2,12733],[98.2,12800],[98.2,12867],[98.2,12934],[98.2,13000],[98.2,13067],[98.2,13132],[98.2,13201],[98.2,13266],[98.2,13332],[98.2,13399],[98.2,13466],[98.2,13533],[98.2,13600],[98.2,13666],[98.2,13733],[98.2,13800],[98.2,13867],[98.2,13932],[98.2,14000],[98.2,14067],[98.2,14132],[98.2,14199],[98.2,14266],[98.2,14332],[98.2,14399],[98.2,14466],[98.2,14533],[98.2,14600],[98.2,14666],[98.2,14733],[98.2,14800],[98.2,14867],[98.2,14932],[98.2,15000],[98.2,15067],[98.2,15132],[98.2,15199],[98.1,15266],[90.4,15332],[81.5,15399],[79.4,15466],[78.6,15533],[78.3,15600],[77.8,15666],[76.5,15733],[74.6,15800],[74,15867],[73.9,15934],[73.9,16000],[73.9,16067],[73.9,16134],[73.9,16199],[73.9,16266],[73.9,16332],[73.9,16399],[73.9,16466],[73.9,16533],[73.9,16600],[73.9,16666],[73.9,16733],[73.9,16800],[73.9,16867],[73.9,16934],[73.9,17000],[73.9,17067],[73.9,17134],[73.9,17199],[73.9,17266],[73.9,17332],[73.9,17401],[73.9,17466],[73.9,17533],[73.9,17600],[73.9,17666],[73.9,17733],[73.9,17800],[73.9,17867],[73.9,17932],[73.9,18000],[73.9,18067],[73.9,18132],[73.9,18199],[73.9,18266],[73.9,18334],[73.9,18399],[73.9,18466],[73.9,18533],[73.9,18600],[73.9,18666],[73.9,18733],[73.9,18800],[73.9,18867],[73.9,18934],[73.9,19000],[73.9,19067],[73.9,19134],[73.9,19199],[73.9,19266],[73.9,19332],[73.9,19401],[73.9,19466],[73.9,19533],[74.3,19600],[83.5,19665],[92.1,19733],[94.6,19800],[95.4,19867],[96.4,19932],[97.2,20000],[97.4,20067],[97.4,20134],[97.4,20199],[97.4,20266],[97.4,20334],[97.4,20399],[97.4,20466],[97.5,20533],[97.6,20600],[97.8,20666],[97.8,20733],[97.8,20800],[97.8,20867],[97.8,20934],[97.8,21000],[97.8,21069],[97.8,21134],[97.8,21199],[97.8,21266],[97.8,21334],[97.1,21399],[83.9,21466]]",1,0,276.816,279.949,99.44444444,1.736,"[{""rating"":99.44444444444444,""responseTime"":1.7360000000000468}]",space,2.535,,279.949,Partially,50,279.956,,,[],,0,3,3,3,1,audio/Narrative7Situation3.wav,audio/Narrative8Situation3.wav,audio/Narrative5Situation3.wav,audio/Narrative6Situation3.wav,8,4,3,5,,,,,,,,,,,,,,,,,,,,,,,,,,,,,,,,,,,,,,,
,,,,,,654a8c7f29438b574d5b9fee,2024-05-13_11h54.15.876,group3.1-3.2-social-tom,2023.2.2,MacIntel,30.3030303,65c5074098b851296ff0b7ed,664236b3be7fd189343809c1,,,,,,,,,,,,,,,,,,,,,,,,,,,,,279.956,1,audio/Narrative8Situation4.wav,282.982,,282.982,297.182,"[[999,0],[999,65],[999,132],[999,199],[999,266],[999,333],[999,399],[999,466],[999,533],[999,600],[999,665],[999,733],[999,800],[999,865],[999,932],[999,1000],[999,1065],[999,1132],[999,1199],[999,1266],[999,1333],[999,1399],[999,1466],[999,1533],[999,1600],[999,1665],[999,1733],[999,1800],[999,1865],[999,1932],[999,2000],[999,2065],[999,2132],[999,2199],[999,2266],[999,2333],[999,2399],[999,2466],[999,2533],[999,2600],[73.6,2665],[76.3,2733],[79.7,2800],[80.1,2865],[80.1,2934],[80.1,3000],[80.1,3067],[80.1,3132],[80.1,3199],[80.1,3266],[81.1,3333],[85.7,3399],[93.5,3466],[96,3533],[96.4,3600],[96.4,3666],[96.4,3733],[97.4,3800],[97.8,3867],[97.8,3932],[97.8,4000],[97.9,4065],[98.6,4134],[98.6,4199],[98.6,4266],[98.6,4333],[98.6,4399],[98.6,4466],[98.6,4533],[98.5,4600],[95.8,4665],[89,4733],[63.2,5533],[62.8,5600],[62.8,5666],[62.8,5733],[62.8,5800],[62.8,5867],[62.8,5932],[62.8,6000],[62.8,6067],[62.8,6132],[62.8,6199],[62.8,6266],[62.8,6333],[62.8,6399],[62.8,6466],[64.7,6533],[73.3,6600],[86.9,6666],[92.4,6733],[92.4,6800],[92.4,6867],[92.5,6932],[94.2,7000],[97.1,7065],[98.1,7132],[98.5,7199],[98.6,7266],[99,7333],[99.4,7399],[99.4,7466],[99.4,7533],[99.4,7598],[99.4,7666],[99.4,7733],[99.4,7798],[99.4,7867],[99.3,7932],[88.2,8000],[75.4,8065],[71.7,8132],[71.7,8199],[71.7,8266],[71.7,8333],[71.7,8399],[71.7,8466],[71.4,8533],[69.7,8598],[69,8665],[69,8733],[69,8800],[69,8867],[69,8934],[69,9000],[69,9067],[69,9134],[69,9199],[69,9266],[69,9333],[69,9399],[69,9466],[69,9533],[70.3,9600],[85.4,9666],[100,9733],[100,9800],[100,9867],[100,9932],[100,10000],[100,10067],[100,10132],[100,10199],[100,10266],[100,10333],[100,10399],[100,10466],[100,10533],[100,10600],[100,10666],[100,10733],[100,10800],[100,10867],[100,10932],[100,11000],[100,11067],[100,11132],[100,11199],[100,11266],[100,11334],[100,11399],[100,11466],[100,11533],[97.4,11600],[83.3,11666],[80,11733],[78.8,11800],[77.8,11867],[76.3,11932],[74.2,12000],[72.4,12067],[71.9,12134],[71.9,12199],[71.9,12266],[71.9,12333],[71.9,12399],[71.9,12466],[70,12533],[69.4,12600],[70.1,12666],[72.5,12733],[72.9,12800],[72.8,12867],[71.7,12934],[69.7,13000],[68.5,13065],[67.9,13134],[67.9,13200],[68.8,13266],[71.3,13333],[72.8,13399],[72.9,13466],[72.9,13533],[72.9,13600],[72.9,13666],[72.9,13733],[72.9,13800],[72.9,13867],[72.9,13934],[72.9,14000],[72.9,14067],[72.9,14134],[75.1,14199]]",1,0,297.182,299.316,99.58333333,1.072,"[{""rating"":99.58333333333333,""responseTime"":1.0720000000000596}]",space,1.571,,299.317,Definitely yes,100,299.324,,,[],,0,4,4,4,1,audio/Narrative7Situation4.wav,audio/Narrative8Situation4.wav,audio/Narrative5Situation4.wav,audio/Narrative6Situation4.wav,3,3,1,2,,,,,,,,,,,,,,,,,,,,,,,,,,,,,,,,,,,,,,,
,,,,,,654a8c7f29438b574d5b9fee,2024-05-13_11h54.15.876,group3.1-3.2-social-tom,2023.2.2,MacIntel,30.3030303,65c5074098b851296ff0b7ed,664236b3be7fd189343809c1,,,,,,,,,,,,,,,,,,,,,,,,,,,,,299.325,1,audio/Narrative8Situation5.wav,301.349,,301.35,309.65,"[[97.9,1730],[93.8,1798],[91.1,1865],[90,1932],[89.9,1997],[90.6,2066],[92.1,2132],[94.7,2197],[96.8,2266],[97.5,2331],[97.6,2399],[97.6,2465],[97.6,2531],[98.2,2598],[98.5,2665],[98.5,2733],[98.5,2798],[98.5,2865],[98.5,2932],[98.5,2999],[98.5,3066],[98.5,3132],[98.5,3199],[98.5,3266],[98.5,3332],[98.5,3399],[98.5,3466],[98.5,3531],[98.5,3598],[98.5,3665],[98.5,3733],[98.5,3798],[95.1,3865],[88.5,3932],[83.3,3997],[81.1,4066],[79.3,4132],[77.2,4199],[75.4,4266],[74.4,4331],[74.3,4399],[74.3,4465],[74.3,4533],[74.3,4600],[74.3,4665],[74.3,4733],[74.3,4798],[74.3,4865],[74.3,4932],[74.3,4999],[74.3,5066],[74.3,5132],[74.3,5199],[74.3,5266],[74.3,5332],[74.3,5399],[74.3,5466],[73.6,5533],[70.4,5598],[67.9,5665]]",1,0,309.65,311.917,99.44444444,1.209,"[{""rating"":99.44444444444444,""responseTime"":1.2090000000000032}]",space,1.702,,311.917,Not at all,0,311.923,,,[],,0,5,5,5,1,audio/Narrative7Situation5.wav,audio/Narrative8Situation5.wav,audio/Narrative5Situation5.wav,audio/Narrative6Situation5.wav,5,2,5,2,,,,,,,,,,,,,,,,,,,,,,,,,,,,,,,,,,,,,,,
,,,,,,654a8c7f29438b574d5b9fee,2024-05-13_11h54.15.876,group3.1-3.2-social-tom,2023.2.2,MacIntel,30.3030303,65c5074098b851296ff0b7ed,664236b3be7fd189343809c1,,,,,,,,,,,,,,,,,,,,,,,,,,,,,311.924,1,audio/Narrative8Situation6.wav,313.95,,313.95,320.484,"[[99.2,5000],[98.9,5065],[99,5132],[99.4,5199],[99.4,5266],[99.4,5332],[99.4,5399],[99.4,5466],[99.4,5532],[99.4,5599],[99.4,5665],[99.4,5732],[99.4,5798],[99.4,5866],[99.4,5932],[99.4,6000],[99.4,6067],[99.4,6132],[99.4,6199],[99.4,6266],[99.4,6332],[99.4,6399],[99.4,6466],[99.4,6532]]",1,0,320.484,323.751,99.58333333,2.304,"[{""rating"":99.58333333333333,""responseTime"":2.3040000000000305}]",space,2.683,,323.751,Definitely yes,100,323.757,,,[],,0,6,6,6,1,audio/Narrative7Situation6.wav,audio/Narrative8Situation6.wav,audio/Narrative5Situation6.wav,audio/Narrative6Situation6.wav,3,2,3,2,,,,,,,,,,,,,,,,,,,,,,,,,,,,,,,,,,,,,,,
,,,,,,654a8c7f29438b574d5b9fee,2024-05-13_11h54.15.876,group3.1-3.2-social-tom,2023.2.2,MacIntel,30.3030303,65c5074098b851296ff0b7ed,664236b3be7fd189343809c1,,,,,,,,,,,,,,,,,,,,,,,,,,,,,323.757,1,audio/Narrative8Situation7.wav,326.784,,326.784,338.918,"[[99.2,1331],[99,1398],[99,1465],[99,1532],[99,1599],[99,1664],[99,1733],[99,1799],[99,1865],[99,1932],[99,2000],[99,2065],[99,2132],[99,2199],[99,2265],[99,2332],[99,2399],[99,2465],[99,2532],[99,2599],[98.9,2665],[98.5,2733],[97.9,2799],[97.6,2865],[97.6,2932],[97.6,3000],[97.6,3065],[97.6,3132],[97.6,3199],[97.6,3265],[97.6,3332],[97.6,3399],[97.6,3466],[97.6,3532],[97.6,3599],[97.6,3665],[96.8,3733],[96.3,3798],[95.7,3865],[95.6,3932],[95.6,3998],[95.3,4065],[91,4132],[86.4,4199],[83.8,4265],[82.9,4332],[82.9,4399],[83.5,4465],[84.2,4532],[85.8,4599],[88.8,4665],[90.4,4733],[90.4,4799],[90.4,4865],[90.4,4933],[90.4,5000],[90.4,5065],[90.4,5132],[90.1,5199],[86.8,5265],[69.4,5332],[58.2,5398],[56.3,5465],[56.3,5532],[56.3,5599],[56,5666],[55.4,5733],[55.1,5799],[55.1,5865],[55.1,5932],[55.1,6000],[55.1,6065],[53.1,6132],[47.4,6199],[46.9,6265],[46.9,6332],[47.8,6398],[48.5,6465],[49.2,6532],[49.6,6599],[49.9,6665],[50,6733],[50,6799],[50,6865],[50,6932],[50,6998],[50,7065],[50,7132],[50,7199],[49.3,7265],[37.9,7332],[28.8,7399],[26.9,7465],[26.8,7531],[26.8,7599],[26.8,7665],[26.8,7733],[26.8,7799],[26.8,7866],[26.8,7932],[26.8,8000],[26.8,8067],[26.8,8132],[26.8,8199],[26.8,8265],[26.8,8332],[26.8,8399],[26.8,8466],[26.8,8532],[26.8,8599],[26.8,8665],[26.8,8733],[26.8,8799],[28.5,8865],[38.8,8932],[51.5,8998],[55.4,9067],[55.4,9132],[55.4,9199],[55.4,9266],[55.4,9332],[55.6,9398],[59.3,9466],[67.4,9532],[69.4,9599],[69.6,9666],[69.6,9733],[69.6,9798],[69.6,9866],[69.6,9931],[69.6,10000],[69.9,10065],[72.5,10132],[73.8,10199],[73.9,10266],[73.9,10334],[73.9,10399],[73.9,10466],[73.9,10532],[73.9,10599],[73.9,10666],[73.9,10733],[73.9,10799],[73.9,10866],[73.9,10932],[73.9,10998],[73.9,11067],[73.9,11132],[73.9,11200],[73.9,11266],[73.9,11332],[73.9,11399],[73.9,11466],[72.5,11532],[45.1,11599],[8.1,11666],[0.3,11733],[0.6,11799],[3.2,11866],[8.1,11932],[14.9,12000],[20.4,12065],[26.4,12132]]",1,0,338.918,343.051,22.36111111,3.119,"[{""rating"":22.36111111111111,""responseTime"":1.2040000000000077},{""rating"":22.36111111111111,""responseTime"":3.1189999999999714}]",space,3.591,,343.052,Partially,50,343.059,,,[],,0,7,7,7,1,audio/Narrative7Situation7.wav,audio/Narrative8Situation7.wav,audio/Narrative5Situation7.wav,audio/Narrative6Situation7.wav,5,3,4,5,,,,,,,,,,,,,,,,,,,,,,,,,,,,,,,,,,,,,,,
,,,,,,654a8c7f29438b574d5b9fee,2024-05-13_11h54.15.876,group3.1-3.2-social-tom,2023.2.2,MacIntel,30.3030303,65c5074098b851296ff0b7ed,664236b3be7fd189343809c1,,,,,,,,,,,,,,,,,,,,,,,,,,,,,343.059,1,audio/Narrative8Situation8.wav,346.085,,346.085,358.985,"[[22.2,2266],[22.2,2332],[22.4,2399],[22.8,2466],[23.3,2533],[23.3,2598],[23.3,2664],[23.1,2733],[22.9,2798],[22.8,2865],[22.8,2932],[22.8,3000],[22.8,3065],[22.8,3132],[22.8,3199],[22.8,3266],[22.8,3332],[22.8,3399],[22.8,3466],[22.8,3533],[22.8,3598],[22.8,3665],[22.8,3733],[22.8,3798],[22.8,3865],[22.8,3932],[22.8,3998],[22.8,4065],[22.8,4132],[22.8,4199],[22.8,4266],[22.8,4332],[22.8,4399],[22.8,4466],[22.2,4531],[17.9,4598],[13.8,4665],[11.5,4733],[9.6,4800],[8.1,4865],[7.4,4932],[7.4,5000],[7.4,5065],[7.4,5132],[3.8,5199],[1.7,5266],[1.5,5332],[1.4,5399],[1.3,5464],[1.3,5533],[1.3,5599],[1.3,5665],[1.3,5733],[1.3,5800],[1.7,5865],[8.5,5932],[32.2,6000],[54.4,6533],[54.7,6599],[54.7,6665],[54.7,6733],[54.7,6800],[54.7,6865],[54.7,6932],[54.7,7000],[54.7,7065],[54.7,7132],[55.1,7199],[56.1,7266],[56.4,7332],[56.7,7399],[56.7,7466],[56.7,7533],[57.2,7599],[58.8,7665],[60.7,7733],[61.4,7800],[61.7,7865],[61.7,7932],[61.8,8000],[61.9,8065],[62.2,8132],[62.9,8199],[63.5,8266],[63.6,8332],[63.6,8399],[63.6,8466],[63.6,8533],[63.6,8599],[63.6,8665],[63.6,8733],[63.8,8800],[63.8,8865],[63.8,8932],[63.8,9000],[63.8,9065],[63.8,9132],[63.8,9199],[64,9266],[64.2,9332],[64.2,9399],[64.2,9466],[64.2,9533],[64.2,9599],[64.2,9665],[64.2,9733],[64.2,9800],[64.2,9865],[64.2,9932],[64.2,10000],[64.2,10065],[64.2,10132],[64.4,10199],[64.4,10266],[64.4,10332],[64.4,10399],[64.4,10466],[64.4,10533],[65.1,10599],[76.1,10665],[89.2,10733],[93.6,10798],[93.6,10865],[93.6,10932],[93.6,11000],[93.6,11067],[93.9,11132],[95.6,11199],[97.8,11266],[98.8,11332],[98.9,11401],[98.9,11466],[99,11533],[99.4,11599],[99.6,11666],[99.6,11733],[99.6,11798],[99.6,11867],[99.6,11932],[99.6,12000],[99.6,12067],[99.6,12132],[99.6,12199],[99.6,12266],[99.6,12332],[99.6,12399],[99.6,12466],[99.6,12533],[99.6,12599],[99.6,12666],[99.6,12733],[99.6,12800],[99.6,12867]]",1,0,358.986,368.12,50.41666667,8.471,"[{""rating"":86.11111111111111,""responseTime"":2.81899999999996},{""rating"":73.47222222222223,""responseTime"":4.853999999999985},{""rating"":50.416666666666664,""responseTime"":8.471000000000004}]",space,8.561,,368.12,Partially,50,368.124,,,[],,0,8,8,8,1,audio/Narrative7Situation8.wav,audio/Narrative8Situation8.wav,audio/Narrative5Situation8.wav,audio/Narrative6Situation8.wav,2,3,3,5,,,,,,,,,,,,,,,,,,,,,,,,,,,,,,,,,,,,,,,
,,,,,,654a8c7f29438b574d5b9fee,2024-05-13_11h54.15.876,group3.1-3.2-social-tom,2023.2.2,MacIntel,30.3030303,65c5074098b851296ff0b7ed,664236b3be7fd189343809c1,,,,,,,,,,,,,,,,,,,,,,,,,,,,,368.125,1,audio/Narrative8Situation9.wav,371.152,,371.153,382.52,"[[999,1],[999,66],[999,132],[999,199],[999,266],[999,331],[999,399],[999,466],[999,531],[999,598],[999,665],[999,732],[999,799],[999,865],[999,932],[999,999],[999,1066],[999,1132],[999,1199],[999,1266],[999,1331],[999,1399],[999,1466],[999,1531],[999,1598],[999,1665],[999,1732],[999,1799],[999,1865],[999,1932],[999,1999],[999,2066],[999,2132],[999,2199],[999,2266],[999,2331],[999,2398],[999,2466],[999,2531],[999,2598],[999,2665],[999,2732],[999,2799],[999,2865],[999,2932],[999,2999],[999,3066],[999,3132],[999,3199],[999,3266],[999,3331],[999,3399],[999,3466],[999,3533],[999,3598],[999,3665],[999,3733],[999,3799],[999,3865],[999,3932],[999,3999],[999,4066],[999,4132],[999,4199],[999,4266],[999,4331],[999,4399],[50.6,4466],[50.4,4531],[50.4,4598],[50.4,4665],[50.3,4732],[50.1,4799],[50.1,4865],[50.1,4932],[50.1,5000],[50.1,5066],[50.1,5132],[50.1,5199],[50.1,5266],[50.1,5333],[50.1,5399],[50.1,5465],[50.1,5533],[50.1,5598],[50.1,5665],[50.1,5733],[50.1,5799],[50.1,5865],[50.1,5932],[50.1,5999],[50.1,6066],[50.1,6132],[50.1,6199],[50.1,6266],[50.1,6333],[50.1,6399],[50.1,6466],[50.1,6533],[50.1,6598],[50.1,6668],[50.1,6733],[50.1,6799],[50.1,6865],[50.1,6932],[50.1,7000],[50.1,7066],[50.1,7132],[50.1,7199],[50.1,7266],[50.1,7333],[50.1,7399],[50.1,7466],[50.4,7531],[57.4,7598],[61.4,7999],[61,8066],[61,8132],[61,8199],[61,8266],[61,8333],[61,8399],[61,8466],[61,8533],[61,8598],[61,8665],[61.1,8733],[61.1,8799],[61.1,8865],[61.1,8932],[61.1,8999],[61.1,9066],[61.5,9132],[63.1,9199],[64.7,9266],[64.9,9333],[64.9,9399],[64.9,9466],[64.9,9531],[64.9,9598],[64.9,9665],[64.6,9733],[63.1,9799],[60.4,9865],[56.5,9932],[55.4,9999],[55,10066],[54.2,10132],[53.5,10199],[52.6,10266],[51.4,10333],[50.4,10399],[49.7,10466],[49.4,10533],[49.4,10600],[49.4,10665],[49.4,10732],[49.4,10800],[49.4,10865],[49.4,10932],[49.4,10999],[49.4,11066],[49.4,11132],[49.4,11199],[49.4,11266],[49.4,11333]]",1,0,382.521,386.387,49.72222222,0.954,"[{""rating"":49.72222222222222,""responseTime"":0.9540000000000077}]",space,3.278,,386.387,Partially,50,386.394,,,[],,0,9,9,9,1,audio/Narrative7Situation9.wav,audio/Narrative8Situation9.wav,audio/Narrative5Situation9.wav,audio/Narrative6Situation9.wav,2,3,3,4,,,,,,,,,,,,,,,,,,,,,,,,,,,,,,,,,,,,,,,
,,,,,,654a8c7f29438b574d5b9fee,2024-05-13_11h54.15.876,group3.1-3.2-social-tom,2023.2.2,MacIntel,30.3030303,65c5074098b851296ff0b7ed,664236b3be7fd189343809c1,,,,,,,,,,,,,,,,,,,,,,,,,,,,,386.395,1,audio/Narrative7Situation1.wav,388.42,,388.42,444.356,"[[50,3865],[49.9,3932],[49.9,4000],[49.9,4067],[49.6,4132],[49.6,4199],[49.6,4266],[49.6,4334],[49.6,4400],[49.6,4466],[49.6,4533],[49.6,4600],[49.6,4665],[41.9,4732],[35.4,4799],[33.6,4867],[31.8,4932],[30.1,5000],[29.9,5066],[29.4,5133],[29.4,5199],[29.3,5266],[28.5,5333],[28.5,5400],[28.5,5466],[28.5,5533],[28.5,5600],[28.5,5665],[28.5,5733],[28.5,5800],[28.5,5865],[28.5,5932],[28.5,6000],[28.5,6066],[32.1,6133],[39.2,6199],[44.7,6266],[87.9,7266],[81.1,7331],[73.9,7400],[71.5,7466],[71.5,7533],[71.5,7600],[71.5,7665],[71.5,7733],[71.5,7800],[71.5,7865],[71.5,7932],[71.5,8000],[71.5,8066],[71.5,8133],[71.5,8199],[71.5,8264],[71.5,8333],[71.5,8400],[71.5,8466],[71.5,8532],[71.5,8600],[71.5,8667],[71.5,8732],[71.5,8800],[71.5,8865],[71.5,8932],[71.5,9000],[71.5,9066],[71.5,9133],[71.5,9199],[71.5,9266],[71.5,9333],[71.5,9400],[71.5,9466],[71.5,9533],[71.5,9600],[71.5,9665],[71.5,9733],[71.5,9800],[71.5,9867],[71.5,9932],[71.5,10000],[71.5,10067],[71.5,10133],[71.5,10199],[71.5,10266],[71.5,10333],[71.5,10400],[71.5,10466],[72.4,10533],[72.5,10601],[71.7,10665],[71.7,10732],[71.7,10799],[71.7,10865],[71.7,10932],[71.7,11000],[71.7,11067],[71.7,11133],[71.7,11199],[71.7,11266],[71.7,11333],[71.7,11400],[71.7,11467],[71.7,11533],[71.7,11600],[71.7,11667],[71.7,11733],[71.7,11800],[71.7,11867],[71.7,11932],[71.7,12000],[71.7,12067],[71.7,12133],[71.7,12199],[71.7,12266],[71.8,12333],[74.3,12400],[76.8,12466],[76.9,12533],[77.2,12600],[81,12665],[83.1,12733],[83.2,12800],[83.2,12867],[83.2,12932],[83.2,13000],[83.2,13067],[83.2,13133],[83.2,13199],[83.2,13266],[83.2,13333],[83.2,13400],[83.2,13467],[83.2,13533],[83.2,13600],[83.2,13667],[83.2,13732],[83.2,13800],[83.2,13867],[83.2,13932],[83.2,14000],[83.2,14067],[83.2,14133],[83.2,14199],[83.2,14266],[83.2,14333],[83.2,14400],[83.2,14467],[83.2,14533],[83.2,14600],[83.2,14667],[83.2,14733],[83.2,14800],[83.2,14867],[83.2,14932],[83.2,15000],[83.2,15067],[83.2,15134],[83.2,15199],[83.2,15266],[83.2,15334],[83.2,15400],[83.2,15467],[83.2,15533],[83.2,15600],[83.2,15667],[83.2,15733],[83.2,15800],[83.2,15867],[83.2,15932],[83.2,16000],[83.2,16066],[83.2,16133],[83.2,16199],[83.2,16266],[83.2,16333],[83.2,16400],[83.2,16467],[83.2,16533],[83.2,16600],[83.2,16667],[83.2,16733],[83.2,16800],[83.2,16867],[83.2,16932],[83.2,17000],[81.4,17067],[71,17133],[48.8,17600],[50,17667],[50,17734],[50,17800],[50,17867],[50,17932],[50,18000],[50,18067],[50,18133],[50,18199],[50,18266],[50,18333],[50,18400],[50,18467],[50,18533],[50,18600],[50,18667],[50,18733],[50,18800],[50,18867],[50,18934],[50,19000],[50,19067],[50,19134],[50,19199],[50,19266],[50,19334],[50,19400],[50,19467],[50,19533],[50,19600],[50,19669],[49.9,19733],[49.9,19800],[49.9,19865],[49.9,19934],[49.9,20000],[49.9,20067],[49.9,20133],[49.9,20199],[49.9,20266],[49.9,20334],[49.9,20399],[49.9,20467],[49.9,20533],[49.9,20600],[49.9,20667],[49.9,20734],[49.9,20800],[49.9,20867],[49.9,20934],[49.9,21000],[49.9,21066],[49.9,21134],[49.9,21199],[49.9,21266],[49.9,21333],[49.9,21400],[49.9,21467],[49.9,21533],[49.9,21600],[49.9,21667],[49.9,21734],[49.9,21800],[49.9,21867],[49.9,21934],[49.9,22000],[49.9,22067],[49.9,22134],[49.9,22201],[49.9,22266],[49.9,22334],[49.9,22400],[49.9,22467],[49.9,22533],[49.9,22600],[49.9,22667],[49.9,22734],[49.9,22800],[49.9,22867],[49.9,22934],[49.9,23000],[49.9,23067],[49.9,23133],[49.9,23199],[49.9,23266],[49.9,23333],[49.9,23399],[49.9,23466],[49.9,23533],[49.9,23600],[49.9,23667],[49.9,23734],[49.9,23800],[49.7,23867],[45,23934],[35.1,24000],[29.7,24066],[28.6,24133],[28.5,24201],[28.3,24266],[27.5,24334],[26.4,24400],[24.2,24467],[22.6,24533],[22.5,24598],[22.5,24667],[22.5,24734],[22.5,24800],[22.5,24867],[22.5,24934],[21.5,25000],[16.1,25067],[10.8,25133],[8.3,25199],[8.1,25266],[8.1,25334],[8.1,25399],[8.1,25467],[8.1,25533],[8.1,25600],[8.1,25667],[8.1,25734],[8.8,25800],[13.1,25867],[21.4,25934],[23.6,26000],[23.8,26066],[23.8,26134],[23.8,26201],[23.8,26266],[23.8,26333],[23.8,26400],[23.8,26467],[23.8,26533],[23.8,26600],[23.8,26665],[23.8,26734],[23.8,26800],[24,26867],[25.7,26934],[27.5,27000],[27.5,27067],[27.5,27134],[27.5,27201],[26.3,27266],[47.6,40468],[47.8,40533],[48.2,40601],[48.5,40668],[48.8,40734],[49,40800],[49,40867],[49,40934],[48.9,41000],[48.8,41068],[48.8,41134],[48.8,41201],[48.8,41268],[48.8,41334],[48.8,41401],[48.8,41468],[48.8,41533],[48.8,41601],[48.8,41668],[48.9,41734],[48.9,41800],[48.9,41867],[48.9,41935],[48.9,42000],[48.9,42068],[48.9,42134],[48.9,42201],[48.8,42268],[48.8,42334],[48.8,42401],[48.8,42468],[48.9,42535],[48.9,42601],[48.9,42668],[48.9,42735],[48.9,42802],[48.9,42867],[48.9,42934],[48.9,43000],[48.9,43067],[48.9,43134],[48.9,43201],[48.9,43268],[49,43335],[49.2,43401],[49.3,43468],[49.3,43535],[49.3,43601],[49.3,43668],[50.8,43734],[53.2,43800],[55.8,43867],[57.5,43935],[57.9,44000],[58.1,44068],[59,44134],[59.7,44201],[59.7,44268],[59.7,44334],[60.3,44401],[61.7,44468],[63.3,44533],[64.7,44601],[65,44669],[65,44735],[65,44800],[65,44867],[65,44935],[65,45000],[65,45068],[65,45134],[65,45201],[65,45268],[65,45335],[65,45401],[65,45468],[65,45535],[65,45601],[65,45668],[65,45735],[65,45800],[65,45867],[65,45935],[65,46000],[65,46067],[65,46134],[65,46201],[65,46268],[65,46335],[65,46401],[65,46468],[65,46535],[65,46601],[65,46668],[61.1,46735],[51.8,46800],[48.8,46867],[48.8,46935],[49.4,47000],[50.1,47068],[51.1,47134],[54.6,47201],[58.5,47268],[59.7,47335],[59.9,47401],[59.9,47468],[59.9,47535],[60.1,47601],[60.4,47668],[60.4,47735],[60.4,47800],[60,47867],[59.9,47935],[62.1,48000],[64.2,48068],[64.3,48134],[64.3,48201],[64.3,48269],[64.3,48335],[65.6,48401],[66.7,48468],[67.4,48535],[67.5,48601],[67.5,48668],[67.4,48735],[66.9,48800],[66.7,48867],[66.5,48935],[66.3,49000],[65.6,49068],[65,49134],[64.4,49201],[63.5,49268],[62.1,49335],[61.5,49401],[61.5,49468],[61.5,49535],[61.5,49602],[61.7,49668],[61.7,49735],[61.7,49802],[61.7,49867],[61.7,49935],[61.7,50002],[61.7,50068],[61.7,50134],[61.7,50202],[61.7,50268],[61.7,50335],[61.7,50401],[61.7,50468],[61.7,50535],[61.7,50601],[61.7,50668],[61.7,50735],[61.7,50800],[61.8,50867],[61.8,50935],[61.8,51000],[61.8,51068],[61.8,51134],[61.8,51202],[61.8,51268],[61.8,51335],[61.8,51401],[61.8,51468],[61.8,51535],[61.8,51602],[61.8,51667],[61.8,51735],[61.8,51800],[61.8,51867],[61.8,51934],[61.8,52002],[61.8,52068],[61.8,52134],[61.8,52202],[61.8,52269],[61.8,52335],[61.8,52401],[61.8,52468],[61.8,52535],[61.8,52602],[61.8,52668],[61.8,52735],[61.8,52802],[61.8,52867],[61.8,52935],[61.8,53002],[61.8,53068],[61.8,53134],[61.8,53202],[61.8,53269],[61.8,53335],[61.8,53401],[61.8,53468],[61.8,53535],[61.8,53602],[79.3,54735],[80,54802],[80.6,54867],[81.3,54935],[81.8,55002],[81.9,55068],[81.9,55134],[81.9,55202],[81.9,55268],[81.8,55335],[78.1,55401]]",1,0,444.357,450.289,38.75,4.77,"[{""rating"":48.888888888888886,""responseTime"":1.9710000000000036},{""rating"":38.75,""responseTime"":4.770000000000039}]",space,5.364,,450.289,Not at all,0,450.296,,,[],,0,10,10,10,1,audio/Narrative8Situation1.wav,audio/Narrative7Situation1.wav,audio/Narrative6Situation1.wav,audio/Narrative5Situation1.wav,5,2,2,5,,,,,,,,,,,,,,,,,,,,,,,,,,,,,,,,,,,,,,,
,,,,,,654a8c7f29438b574d5b9fee,2024-05-13_11h54.15.876,group3.1-3.2-social-tom,2023.2.2,MacIntel,30.3030303,65c5074098b851296ff0b7ed,664236b3be7fd189343809c1,,,,,,,,,,,,,,,,,,,,,,,,,,,,,450.297,1,audio/Narrative7Situation2.wav,453.322,,453.322,460.823,"[[42.1,4467],[51,4533],[63.9,4602],[66.8,4667],[67.1,4733],[67.5,4800],[71.1,4867],[78.6,4934],[79.9,5000],[79.9,5067],[79.9,5134],[79.9,5200],[79.9,5267],[79.9,5334],[79.9,5400],[79.9,5467],[79.9,5534],[80,5600],[82.9,5666],[87.9,5734],[91.7,5800],[92.9,5868],[93.3,5934],[93.3,6000],[93.3,6067],[93.6,6134],[95,6200],[96.7,6267],[97.1,6334],[97.1,6400],[97.2,6466],[97.5,6534],[97.8,6600],[97.9,6667],[97.9,6734],[97.9,6800],[97.9,6866],[97.6,6933],[95.6,7000],[94.3,7067],[94.3,7134],[94.3,7200],[94.3,7267],[94.3,7333],[94.3,7400],[94.3,7467]]",1,0,460.824,464.757,99.58333333,1.385,"[{""rating"":99.58333333333333,""responseTime"":1.384999999999991}]",space,3.353,,464.757,Partially,50,464.766,,,[],,0,11,11,11,1,audio/Narrative8Situation2.wav,audio/Narrative7Situation2.wav,audio/Narrative6Situation2.wav,audio/Narrative5Situation2.wav,3,3,3,3,,,,,,,,,,,,,,,,,,,,,,,,,,,,,,,,,,,,,,,
,,,,,,654a8c7f29438b574d5b9fee,2024-05-13_11h54.15.876,group3.1-3.2-social-tom,2023.2.2,MacIntel,30.3030303,65c5074098b851296ff0b7ed,664236b3be7fd189343809c1,,,,,,,,,,,,,,,,,,,,,,,,,,,,,464.767,1,audio/Narrative7Situation3.wav,472.79,,472.791,482.091,"[[999,0],[999,64],[999,132],[999,197],[999,264],[999,331],[999,397],[999,464],[999,531],[999,598],[999,665],[999,731],[999,798],[999,865],[999,931],[999,998],[999,1064],[999,1132],[999,1198],[999,1265],[999,1331],[999,1399],[999,1464],[999,1531],[999,1598],[999,1664],[999,1731],[999,1798],[999,1864],[999,1931],[999,1998],[999,2064],[999,2132],[999,2198],[999,2264],[999,2331],[999,2399],[999,2464],[999,2531],[999,2597],[999,2664],[999,2731],[999,2798],[82.6,2864],[82.1,2931],[81.5,2997],[81,3064],[80.3,3132],[79.9,3198],[79.9,3264],[79.9,3331],[79.9,3399],[79.9,3464],[77.5,3531],[58.2,3598],[37.1,3664],[30.3,3731],[29.9,3798],[29.9,3864],[29.9,3931],[29.9,3998],[29.9,4065],[28.1,4132],[22.1,4198],[17.8,4264],[16.1,4331],[14.9,4399],[14.3,4464],[13.5,4531],[13.1,4598],[13.1,4664],[13.1,4731],[13.1,4798],[13.1,4867],[13.1,4931],[13.3,4998],[16.8,5064],[19.9,5132],[20.8,5198],[21.5,5264],[21.9,5331],[22.4,5399],[22.4,5464],[22.5,5531],[22.9,5599],[23.1,5664],[23.1,5731],[22.9,5798],[22.2,5864],[21.7,5931],[19.4,5998],[11.1,6064],[7.8,6132],[7.2,6198],[7.1,6264],[6.7,6331],[6.7,6399],[6.7,6464],[6.7,6530],[7.4,6598],[8.2,6664],[9.6,6730],[11,6798],[11.7,6865],[12.1,6931],[12.1,6997],[12.1,7064],[12.1,7132],[12.1,7198],[12.1,7264],[12.1,7331],[12.1,7397],[12.1,7465],[12.1,7531],[12.1,7598],[12.2,7664],[12.4,7730],[12.4,7798],[12.4,7864],[12.4,7931],[12.4,7998],[12.4,8065],[12.4,8130],[12.4,8198],[12.4,8265],[12.4,8331],[12.4,8399],[12.4,8465],[12.4,8531],[12.4,8598],[12.4,8665],[12.4,8731],[12.4,8798],[12.4,8865],[12.4,8931],[12.4,8998],[12.4,9065],[12.4,9132],[12.4,9198],[12.4,9264]]",1,0,482.092,485.523,5.972222222,1.67,"[{""rating"":5.972222222222223,""responseTime"":1.670000000000016}]",space,2.852,,485.523,Not at all,0,485.531,,,[],,0,12,12,12,1,audio/Narrative8Situation3.wav,audio/Narrative7Situation3.wav,audio/Narrative6Situation3.wav,audio/Narrative5Situation3.wav,4,8,5,3,,,,,,,,,,,,,,,,,,,,,,,,,,,,,,,,,,,,,,,
,,,,,,654a8c7f29438b574d5b9fee,2024-05-13_11h54.15.876,group3.1-3.2-social-tom,2023.2.2,MacIntel,30.3030303,65c5074098b851296ff0b7ed,664236b3be7fd189343809c1,,,,,,,,,,,,,,,,,,,,,,,,,,,,,485.531,1,audio/Narrative7Situation4.wav,488.557,,488.558,500.325,"[[13.3,7199],[21.7,7266],[36,7332],[39.9,7399],[39.9,7466],[39.9,7532],[39.9,7599],[39.9,7666],[39.9,7732],[39.9,7798],[39.9,7866],[40.8,7933],[44.6,7999],[46,8066],[46.5,8132],[47.4,8199],[48.2,8266],[48.5,8332],[48.5,8398],[48.9,8465],[49.3,8532],[49.3,8599],[49.3,8666],[49.4,8733],[49.4,8799],[49.4,8866],[49.4,8932],[49.4,8999],[49.4,9066],[49.4,9132],[49.3,9199],[49.2,9266],[49.2,9333],[49.2,9399],[49.2,9466],[49.2,9533],[49.2,9599],[49.2,9666],[49.2,9733],[47.8,9799],[41.8,9866],[37.5,9932],[35.3,9999],[34,10066],[31.9,10133],[26.9,10199],[24.4,10266],[23.5,10332],[22.2,10401],[21,10466],[20.4,10533],[20.3,10599],[20.3,10665],[20.3,10732],[20.3,10799],[20.3,10866],[20.3,10933],[20.3,10999],[20.3,11066],[20.3,11133],[20.3,11199],[20.3,11266],[20.3,11333],[20.3,11399],[20.3,11466],[20.3,11533],[20.3,11599],[20.3,11666],[20.3,11733]]",1,0,500.326,502.758,20,0.954,"[{""rating"":20,""responseTime"":0.9540000000000077}]",space,1.86,,502.758,Not at all,0,502.762,,,[],,0,13,13,13,1,audio/Narrative8Situation4.wav,audio/Narrative7Situation4.wav,audio/Narrative6Situation4.wav,audio/Narrative5Situation4.wav,3,3,2,1,,,,,,,,,,,,,,,,,,,,,,,,,,,,,,,,,,,,,,,
,,,,,,654a8c7f29438b574d5b9fee,2024-05-13_11h54.15.876,group3.1-3.2-social-tom,2023.2.2,MacIntel,30.3030303,65c5074098b851296ff0b7ed,664236b3be7fd189343809c1,,,,,,,,,,,,,,,,,,,,,,,,,,,,,502.762,1,audio/Narrative7Situation5.wav,507.791,,507.791,516.292,"[[19.9,3798],[15.4,3867],[10.8,3932],[7.5,4000],[6.5,4067],[6.5,4133],[5.8,4201],[4.3,4267],[2.8,4333],[2.2,4400],[1.3,4466],[0.7,4533],[0.7,4600],[0.7,4667],[0.7,4733],[0.7,4800],[1.4,4867],[5.6,4934],[7.1,5000],[25.6,5066],[31.3,5134],[31.3,5199],[31.4,5267],[35.3,6934],[37.5,7000],[38.1,7334],[39.6,7400],[41.7,7466],[42.1,7533],[42.1,7600],[42.1,7667],[42.1,7734],[42.1,7800],[42.1,7867],[42.1,7934],[42.1,8000],[42.1,8067],[42.1,8134],[42.1,8200],[41.5,8267],[31.5,8334]]",1,0,516.292,519.092,0.277777778,1.804,"[{""rating"":0.2777777777777768,""responseTime"":1.8039999999999736}]",space,2.202,,519.092,Partially,50,519.097,,,[],,0,14,14,14,1,audio/Narrative8Situation5.wav,audio/Narrative7Situation5.wav,audio/Narrative6Situation5.wav,audio/Narrative5Situation5.wav,2,5,2,5,,,,,,,,,,,,,,,,,,,,,,,,,,,,,,,,,,,,,,,
,,,,,,654a8c7f29438b574d5b9fee,2024-05-13_11h54.15.876,group3.1-3.2-social-tom,2023.2.2,MacIntel,30.3030303,65c5074098b851296ff0b7ed,664236b3be7fd189343809c1,,,,,,,,,,,,,,,,,,,,,,,,,,,,,519.097,1,audio/Narrative7Situation6.wav,522.125,,522.125,532.159,"[[999,0],[999,66],[999,132],[999,199],[999,269],[999,333],[999,399],[999,466],[999,533],[999,600],[999,667],[999,732],[999,799],[999,867],[999,932],[999,1000],[999,1066],[999,1132],[999,1199],[999,1266],[999,1332],[999,1399],[999,1466],[999,1533],[999,1600],[999,1667],[999,1732],[999,1799],[999,1866],[999,1932],[999,2000],[999,2066],[999,2132],[999,2199],[999,2266],[999,2332],[999,2399],[999,2466],[999,2533],[999,2600],[999,2667],[999,2732],[999,2799],[999,2865],[999,2932],[999,3000],[999,3067],[999,3132],[999,3199],[999,3266],[999,3332],[999,3399],[999,3466],[999,3533],[999,3600],[999,3667],[999,3732],[999,3799],[999,3866],[999,3932],[999,4000],[999,4067],[999,4132],[999,4199],[999,4266],[999,4333],[999,4399],[999,4466],[999,4533],[999,4600],[999,4667],[999,4732],[999,4799],[999,4866],[999,4932],[999,5000],[999,5067],[999,5132],[999,5199],[999,5266],[999,5333],[999,5399],[999,5466],[999,5533],[999,5600],[25.8,5667],[50.1,5732],[76.5,6066],[84.2,6132],[86.4,6199],[86.5,6266],[86.3,6332],[85.1,6399],[84.6,6466],[84.2,6533],[82.9,6600],[81.7,6667],[81.3,6733],[81.1,6799],[81.1,6866],[81.1,6932],[81.1,7000],[81.5,7067],[86.1,7134],[90.3,7199],[93.1,7266],[94.7,7333],[95.7,7399],[96,7467],[96,7533],[96,7600],[96.1,7665],[97.2,7732],[97.8,7799],[97.9,7866],[97.9,7933],[98.1,8000],[98.5,8066],[98.5,8134],[98.5,8199],[98.5,8266],[98.5,8332],[98.5,8399],[98.5,8466],[98.5,8533],[98.5,8598],[97.9,8667],[95.4,8733],[92.5,8799],[89.3,8866],[87.9,8932],[87.6,9000],[87.6,9067],[87.6,9134],[87.6,9199],[87.6,9266],[87.6,9333],[87.6,9399],[87.6,9466],[87.6,9533],[87.6,9600],[87.6,9667],[87.9,9733],[89.3,9800],[91.1,9866],[92.5,9933],[92.8,10000]]",1,0,532.16,534.692,99.16666667,1.204,"[{""rating"":99.16666666666667,""responseTime"":1.2039999999999509}]",space,1.962,,534.693,Partially,50,534.697,,,[],,0,15,15,15,1,audio/Narrative8Situation6.wav,audio/Narrative7Situation6.wav,audio/Narrative6Situation6.wav,audio/Narrative5Situation6.wav,2,3,2,3,,,,,,,,,,,,,,,,,,,,,,,,,,,,,,,,,,,,,,,
,,,,,,654a8c7f29438b574d5b9fee,2024-05-13_11h54.15.876,group3.1-3.2-social-tom,2023.2.2,MacIntel,30.3030303,65c5074098b851296ff0b7ed,664236b3be7fd189343809c1,,,,,,,,,,,,,,,,,,,,,,,,,,,,,534.697,1,audio/Narrative7Situation7.wav,539.726,,539.726,556.96,"[[999,0],[999,66],[999,132],[999,199],[999,265],[999,332],[999,399],[999,466],[999,531],[999,599],[999,665],[999,732],[999,799],[999,865],[999,932],[999,999],[999,1066],[999,1132],[999,1199],[999,1265],[999,1332],[999,1399],[999,1465],[999,1533],[999,1599],[999,1665],[999,1732],[999,1799],[999,1865],[999,1932],[999,2000],[999,2066],[999,2132],[999,2199],[999,2265],[999,2332],[999,2399],[999,2466],[999,2533],[999,2599],[999,2665],[70,2732],[68.6,2799],[68.1,2865],[67.1,2932],[66.5,3000],[66.3,3066],[66.3,3132],[66.3,3199],[66.3,3266],[66.3,3332],[66.4,3399],[66.8,3466],[66.8,3533],[66.7,3599],[66.7,3667],[67.4,3732],[68.5,3799],[68.6,3865],[68.6,3932],[68.6,4000],[68.6,4066],[68.8,4132],[68.9,4200],[69.3,4265],[69.3,4332],[69.6,4399],[69.7,4466],[69.9,4533],[70.3,4599],[70.6,4665],[71,4732],[71.5,4799],[71.8,4866],[71.8,4932],[71.8,5000],[71.8,5067],[71.8,5134],[71.8,5199],[71.8,5265],[71.8,5332],[71.8,5399],[71.8,5466],[71.8,5533],[71.8,5599],[71.8,5665],[71.8,5732],[71.3,5799],[70.3,5865],[69.6,5932],[69.3,5999],[69.3,6067],[69.3,6132],[69.3,6199],[69.3,6265],[69.3,6332],[69.3,6399],[69.3,6466],[69.3,6533],[69.3,6599],[69.3,6667],[69.3,6732],[69.3,6799],[69.3,6865],[69.3,6932],[69.3,6999],[69.3,7067],[69.3,7134],[69.3,7199],[69.3,7266],[69.3,7332],[69.3,7399],[69.3,7466],[69.3,7533],[69.3,7600],[69.3,7667],[69.3,7732],[69.3,7799],[69.3,7866],[69.3,7932],[69.3,8000],[69.3,8066],[69.3,8132],[69.3,8199],[69.3,8266],[69.3,8332],[69.3,8399],[69.3,8466],[69.3,8533],[69.3,8599],[69.3,8667],[69.3,8732],[69.3,8799],[69.3,8866],[69.3,8932],[69.3,9000],[69.3,9067],[69.3,9132],[69.3,9199],[69.3,9265],[69.3,9332],[69.3,9399],[69.3,9466],[69.3,9533],[69.3,9599],[69.3,9667],[69.3,9732],[69.3,9799],[69.3,9866],[69.3,9932],[69.3,10000],[69.3,10067],[69.3,10132],[69.3,10199],[69.3,10266],[69.3,10332],[69.3,10399],[69.3,10466],[69.3,10533],[69.3,10601],[69.3,10667],[69.3,10732],[69.3,10799],[69.3,10866],[69.3,10932],[69.3,11000],[69.3,11067],[69.3,11132],[69.3,11199],[69.3,11266],[69.3,11332],[69.3,11399],[69.3,11466],[69.3,11533],[69.3,11599],[69.3,11667],[69.3,11732],[69.3,11799],[69.3,11866],[69.3,11932],[69.3,12000],[69.3,12067],[69.3,12132],[69.3,12199],[69.3,12266],[69.3,12332],[69.3,12399],[69.3,12466],[69.3,12533],[69.3,12599],[69.3,12667],[69.3,12733],[69.3,12799],[69.3,12866],[86.3,14067],[89,14132],[92.5,14199],[94.7,14266],[95.8,14333],[96.1,14399],[96.1,14466],[96.1,14533],[96.1,14601],[96.3,14668],[97.4,14733],[98.6,14799],[99.2,14866],[99.2,14932],[99.2,15000],[99.2,15067],[99.2,15134],[99.2,15199],[99.2,15266],[99.2,15333],[99.2,15399],[99.2,15466],[99.2,15533],[99.2,15598],[99.2,15667],[99.2,15733],[99.2,15799],[99.2,15866],[99.2,15933],[99.2,16000],[99.2,16067],[99.2,16134],[99.2,16199],[99.2,16265],[99.2,16332],[99.2,16399],[99.2,16466],[99.2,16533],[99.2,16599],[99.2,16665],[99.2,16733],[99.2,16799],[99.2,16866],[99.2,16933],[99.2,17000],[99.2,17067],[99.2,17134],[99.2,17199]]",1,0,556.961,570.228,99.58333333,1.386,"[{""rating"":99.58333333333333,""responseTime"":1.3859999999999673}]",space,12.676,,570.228,Definitely yes,100,570.236,,,[],,0,16,16,16,1,audio/Narrative8Situation7.wav,audio/Narrative7Situation7.wav,audio/Narrative6Situation7.wav,audio/Narrative5Situation7.wav,3,5,5,4,,,,,,,,,,,,,,,,,,,,,,,,,,,,,,,,,,,,,,,
,,,,,,654a8c7f29438b574d5b9fee,2024-05-13_11h54.15.876,group3.1-3.2-social-tom,2023.2.2,MacIntel,30.3030303,65c5074098b851296ff0b7ed,664236b3be7fd189343809c1,,,,,,,,,,,,,,,,,,,,,,,,,,,,,570.237,1,audio/Narrative7Situation8.wav,572.261,,572.261,582.329,"[[999,1],[999,66],[999,133],[999,198],[999,265],[999,332],[999,399],[999,466],[999,533],[999,599],[999,665],[999,733],[999,798],[999,866],[999,932],[999,999],[999,1066],[999,1133],[999,1198],[999,1265],[999,1332],[999,1399],[999,1466],[999,1533],[999,1599],[999,1665],[999,1733],[999,1798],[999,1865],[999,1932],[999,1999],[999,2066],[999,2132],[999,2198],[999,2265],[999,2336],[999,2399],[999,2466],[999,2533],[999,2599],[999,2665],[999,2733],[999,2798],[999,2865],[999,2932],[999,2999],[999,3066],[999,3133],[999,3198],[999,3265],[999,3332],[999,3399],[999,3466],[999,3533],[999,3600],[999,3665],[999,3733],[999,3799],[999,3865],[999,3932],[999,3999],[999,4066],[999,4133],[999,4200],[999,4265],[999,4332],[999,4399],[999,4466],[999,4533],[999,4599],[999,4665],[999,4733],[999,4799],[999,4865],[999,4932],[999,4999],[999,5066],[999,5133],[999,5200],[999,5264],[999,5332],[999,5399],[999,5465],[999,5533],[999,5600],[999,5665],[999,5733],[999,5799],[999,5865],[999,5932],[999,6000],[999,6066],[999,6133],[999,6200],[999,6265],[999,6331],[999,6399],[999,6466],[999,6533],[999,6599],[999,6665],[999,6733],[999,6799],[999,6865],[999,6932],[999,7000],[999,7066],[999,7133],[999,7200],[999,7265],[999,7332],[999,7399],[999,7466],[999,7533],[999,7600],[999,7668],[999,7733],[999,7799],[999,7865],[999,7932],[999,7999],[999,8066],[999,8133],[999,8200],[999,8265],[999,8332],[999,8399],[999,8466],[999,8533],[999,8600],[999,8665],[999,8733],[999,8799],[999,8865],[999,8932],[999,9000],[999,9066],[999,9133],[999,9200],[999,9265],[999,9332],[999,9399],[999,9466],[999,9533],[999,9600],[999,9665],[999,9733],[999,9799],[999,9865],[999,9936],[999,10000],[999,10066]]",1,0,582.329,588.494,99.16666667,5.371,"[{""rating"":99.16666666666667,""responseTime"":5.370999999999981}]",space,5.573,,588.494,Partially,50,588.502,,,[],,0,17,17,17,1,audio/Narrative8Situation8.wav,audio/Narrative7Situation8.wav,audio/Narrative6Situation8.wav,audio/Narrative5Situation8.wav,3,2,5,3,,,,,,,,,,,,,,,,,,,,,,,,,,,,,,,,,,,,,,,
,,,,,,654a8c7f29438b574d5b9fee,2024-05-13_11h54.15.876,group3.1-3.2-social-tom,2023.2.2,MacIntel,30.3030303,65c5074098b851296ff0b7ed,664236b3be7fd189343809c1,,,,,,,,,,,,,,,,,,,,,,,,,,,,,588.502,1,audio/Narrative7Situation9.wav,590.528,,590.528,599.195,"[[999,0],[999,65],[999,131],[999,199],[999,265],[999,332],[999,399],[999,466],[999,532],[999,599],[999,665],[999,732],[999,799],[999,866],[999,932],[999,1000],[999,1067],[999,1132],[999,1199],[999,1266],[999,1332],[999,1399],[999,1466],[999,1532],[999,1599],[999,1666],[999,1732],[999,1799],[999,1865],[999,1932],[999,2000],[78.6,2064],[78.8,2132],[78.8,2199],[78.8,2266],[78.8,2332],[78.8,2399],[79.3,2466],[83.3,2532],[86.4,2598],[86.9,2666],[86.9,2731],[87.1,2798],[88.8,2865],[94.2,2932],[99,3000],[99.9,3065],[100,3131],[100,3199],[100,3267],[100,3332],[100,3399],[100,3466],[100,3532],[100,3599],[100,3666],[100,3732],[97.1,3799],[88.2,3866],[78.8,3931],[76.1,3998],[76.1,4067],[76.1,4132],[76.1,4199],[76.1,4266],[76.1,4332],[76.1,4398],[76.1,4466],[76.1,4532],[76.1,4599],[76.1,4666],[76.1,4732],[76.1,4799],[76.1,4865],[76.1,4932],[76.1,5000],[76.1,5067],[76.1,5132],[76.1,5199],[76,5265],[75.8,5332],[75.8,5399],[75.7,5466],[75.6,5532],[75.4,5599],[75.4,5666],[75.4,5732],[75.4,5799],[75.4,5866],[75.4,5932],[75.4,6000],[75.4,6067],[75.4,6132],[75.3,6199],[75.3,6266],[75.3,6332],[75.1,6399],[74.7,6466],[74.4,6532],[74.2,6599],[74.2,6666],[74,6732],[74,6800],[74,6866],[74,6932],[74,7000],[74,7067],[74,7132],[74,7199],[74,7266],[74,7333],[74,7399],[74,7466],[74,7532],[74,7599],[74,7666],[74,7732],[74,7799],[74,7866],[74,7932],[74,8000],[74,8065],[74,8133],[74,8199],[74,8266],[74,8332],[74.2,8399],[75.8,8466],[81.5,8532],[92.2,8599],[93.8,8666]]",1,0,599.196,602.262,99.72222222,1.152,"[{""rating"":99.72222222222223,""responseTime"":1.15199999999993}]",space,2.484,,602.262,Definitely yes,100,602.268,,,[],,0,18,18,18,1,audio/Narrative8Situation9.wav,audio/Narrative7Situation9.wav,audio/Narrative6Situation9.wav,audio/Narrative5Situation9.wav,3,2,4,3,,,,,,,,,,,,,,,,,,,,,,,,,,,,,,,,,,,,,,,
,,,,,,654a8c7f29438b574d5b9fee,2024-05-13_11h54.15.876,group3.1-3.2-social-tom,2023.2.2,MacIntel,30.3030303,65c5074098b851296ff0b7ed,664236b3be7fd189343809c1,,,,,,,,,,,,,,,,,,,,,,,,,,,646.666,649.229,649.236,2,audio/Narrative13Situation2.wav,649.236,,649.236,679.032,"[[999,0],[999,61],[999,126],[999,193],[999,259],[999,326],[999,394],[999,461],[999,527],[999,593],[999,660],[999,726],[999,793],[999,861],[999,927],[999,994],[999,1061],[999,1126],[999,1193],[999,1260],[999,1327],[999,1394],[999,1461],[999,1528],[999,1593],[999,1660],[999,1727],[999,1793],[999,1860],[999,1927],[999,1994],[999,2061],[999,2128],[999,2193],[999,2259],[999,2327],[999,2394],[999,2461],[80.3,2528],[80.3,2593],[80.3,2660],[80.3,2727],[79.7,2794],[74.3,2860],[63.2,2927],[58.5,2994],[57.5,3061],[57.2,3128],[56.5,3193],[54.7,3260],[53.1,3327],[52.4,3394],[52.4,3461],[52.4,3527],[52.4,3593],[52.4,3660],[52.4,3726],[52.4,3793],[52.2,3860],[51.8,3927],[51.4,3994],[51.1,4061],[51,4126],[51,4193],[51,4260],[51,4327],[51,4394],[51,4461],[51,4528],[51,4593],[51,4660],[51,4726],[51,4793],[51,4860],[51,4927],[51,4995],[51,5061],[51,5128],[51,5193],[51,5260],[51,5327],[51,5394],[51,5461],[51,5528],[51,5593],[51,5660],[51,5727],[51,5793],[51,5860],[51,5927],[51,5994],[51,6061],[51,6128],[51,6193],[51,6260],[51,6327],[51,6394],[51,6461],[51,6528],[51,6595],[51,6660],[51,6726],[51,6794],[51,6860],[51,6927],[51,6995],[51,7061],[51,7128],[51,7194],[51,7261],[51,7327],[51,7394],[51,7461],[51,7528],[51,7593],[51,7660],[51,7727],[51,7794],[51,7860],[51,7927],[51,7994],[51,8061],[51,8128],[51,8194],[51,8260],[51,8327],[53.5,8394],[66.1,8461],[80.8,8528],[82.1,8595],[82.1,8660],[82.1,8727],[82.1,8794],[81.9,8860],[80.8,8927],[79.3,8995],[78.6,9061],[78.5,9128],[78.5,9193],[78.5,9260],[78.5,9327],[78.5,9394],[78.5,9461],[78.5,9528],[78.5,9595],[78.5,9660],[78.5,9727],[78.5,9794],[78.5,9860],[78.5,9927],[78.5,9995],[78.5,10061],[78.5,10128],[78.9,10194],[87.2,10260],[91.3,10327],[92.9,10394],[94.2,10461],[95.4,10527],[95.8,10595],[95.8,10660],[96.4,10726],[97.2,10793],[97.4,10860],[97.5,10927],[97.6,10994],[96.7,11061],[96.1,11128],[96.3,11194],[96.8,11260],[97.6,11327],[97.9,11394],[98.2,11461],[98.5,11528],[98.5,11595],[98.5,11660],[98.5,11727],[98.5,11794],[98.5,11860],[98.5,11927],[98.5,11995],[98.5,12061],[98.5,12128],[98.5,12194],[94.4,12260],[82.4,12327],[76.9,12394],[76,12461],[76,12528],[76,12595],[76,12660],[76,12727],[76,12794],[76,12860],[76,12927],[76,12995],[76,13061],[76,13128],[76,13194],[76,13264],[76,13327],[76,13394],[76,13461],[76,13528],[76,13595],[76,13660],[76,13727],[76,13793],[76,13860],[76,13927],[76,13995],[76,14062],[76,14128],[76,14194],[76,14260],[76.1,14327],[76.3,14394],[76.5,14461],[76.5,14528],[76.5,14593],[76.7,14662],[76.9,14727],[76.9,14794],[76.9,14860],[76.9,14927],[76.9,14995],[76.9,15062],[76.9,15128],[76.9,15194],[76.9,15261],[76.9,15327],[76.9,15394],[76.9,15461],[76.9,15528],[76.9,15595],[76.9,15662],[76.9,15727],[76.9,15794],[76.9,15861],[76.9,15927],[76.9,15995],[76.9,16061],[76.9,16128],[76.9,16193],[76.9,16261],[76.9,16327],[76.9,16394],[76.9,16461],[76.9,16528],[76.9,16595],[76.5,16662],[76.3,16727],[76.1,16793],[76.1,16861],[76.1,16927],[76.1,16995],[76.1,17062],[76,17129],[72.8,17194],[46.5,17260],[29.4,17327],[26.8,17394],[26.8,17461],[26.8,17528],[26.8,17595],[26.8,17662],[26.8,17727],[26.8,17794],[26.1,17860],[23.5,17927],[19.6,17995],[19,18061],[19,18128],[19,18194],[19,18261],[18.9,18327],[18.6,18394],[18.3,18461],[17.6,18528],[16.7,18595],[16.3,18660],[16.3,18727],[16.3,18794],[16.3,18861],[16.3,18927],[16.3,18995],[16.3,19062],[14,19128],[7.6,19194],[2.1,19261],[0.3,19328],[9.3,21327],[21.1,21394],[23.5,21461],[23.5,21528],[23.5,21595],[23.5,21662],[23.5,21727],[23.5,21794],[23.5,21861],[23.5,21927],[23.5,21995],[23.5,22062],[23.5,22128],[23.5,22194],[23.5,22261],[23.5,22327],[23.5,22394],[23.5,22461],[23.5,22528],[23.5,22595],[23.5,22662],[23.5,22729],[23.5,22794],[23.5,22861],[23.5,22928],[23.5,22995],[23.5,23062],[23.5,23129],[23.5,23194],[23.5,23261],[23.5,23328],[23.5,23394],[23.5,23461],[23.5,23528],[23.5,23595],[23.5,23662],[23.5,23729],[23.5,23794],[23.5,23861],[23.5,23928],[23.5,23995],[23.5,24062],[23.5,24129],[23.5,24194],[23.5,24261],[23.5,24328],[23.5,24394],[23.5,24461],[23.5,24528],[23.5,24595],[23.5,24662],[23.5,24729],[23.5,24794],[23.5,24861],[23.5,24928],[23.5,24995],[23.5,25062],[23.5,25129],[23.5,25194],[23.6,25261],[23.9,25327],[23.9,25394],[23.9,25461],[23.9,25528],[24.3,25595],[27.9,25662],[33.9,25729],[37.6,25794],[38.2,25861],[38.2,25928],[38.2,25995],[38.2,26062],[38.2,26129],[38.3,26194],[40.7,26261],[43.9,26328],[44.7,26394],[44.7,26461],[44.7,26528],[45.4,26595],[46,26660],[46,26729],[46.1,26794],[46.3,26861],[46.3,26928],[46.3,26995],[46.3,27062],[46.1,27129],[46.1,27194],[45.8,27261],[43.1,27327],[37.4,27394],[34.3,27461],[33.2,27528],[33.1,27595],[33.1,27662],[33.1,27729],[32.5,27794],[29.4,27861],[27.5,27928],[26.8,27995],[26.1,28062],[25.6,28128],[24.6,28194],[23.9,28261],[23.6,28328],[23.6,28394],[23.6,28461],[23.6,28528],[23.6,28595],[23.6,28660],[23.6,28729],[23.6,28794],[23.6,28860],[23.6,28928],[23.6,28995],[23.5,29062],[18.2,29129],[10.8,29194],[7.9,29261],[7.2,29328],[7.2,29394],[7.5,29461],[7.5,29528],[7.2,29595],[6.9,29662],[6.8,29729],[6.9,29794]]",1,0,679.033,679.037,,,[],,,,679.037,Partially,50,679.041,,,[],,0,0,0,0,1,audio/Narrative13Situation2.wav,audio/Narrative13Situation2.wav,audio/Narrative13Situation2.wav,audio/Narrative13Situation2.wav,2,2,2,2,,,,,602.27,646.665,space,43.853,,,,,,,,,,,,,,,,,,,,,,,,,,,,,,,
,,,,,,654a8c7f29438b574d5b9fee,2024-05-13_11h54.15.876,group3.1-3.2-social-tom,2023.2.2,MacIntel,30.3030303,65c5074098b851296ff0b7ed,664236b3be7fd189343809c1,,,,,,,,,,,,,,,,,,,,,,,,,,,,,679.041,2,audio/Narrative6Situation1.wav,681.066,,681.066,707.703,"[[999,0],[999,64],[999,131],[999,198],[999,264],[999,331],[999,399],[999,465],[999,531],[999,598],[999,665],[999,731],[999,798],[999,865],[999,931],[999,998],[999,1065],[999,1131],[999,1198],[999,1264],[999,1331],[999,1399],[999,1465],[999,1531],[999,1598],[999,1665],[999,1731],[999,1798],[999,1864],[40.8,1931],[43.3,1997],[45.4,2065],[46.5,2131],[48.1,2197],[49.2,2265],[49.3,2331],[49.6,2397],[49.6,2464],[49.6,2531],[49.6,2598],[49.6,2665],[49.6,2731],[49.6,2798],[49.6,2865],[49.6,2931],[49.6,2998],[49.6,3065],[49.6,3131],[49.6,3198],[49.6,3265],[49.6,3331],[49.6,3399],[49.6,3465],[49.6,3531],[49.6,3598],[49.6,3665],[49.6,3731],[48.3,3798],[28.1,3865],[16.3,3931],[14.3,3998],[14.2,4065],[14,4131],[12.1,4198],[10.4,4265],[10,4331],[9.6,4399],[9.2,4465],[8.9,4531],[7.5,4598],[6.1,4665],[6.1,4731],[6.1,4798],[6.1,4865],[6.1,4931],[6.1,4998],[6.1,5065],[22.4,5131],[38.3,5331],[89.4,5531],[89.4,5598],[90,5664],[94.7,5731],[96.8,5798],[96.7,5865],[96.1,5931],[96.3,5998],[97.1,6065],[97.8,6131],[98.5,6198],[99,6265],[99.6,6332],[99.7,6399],[99.7,6464],[99.7,6531],[99.6,6598],[99.6,6665],[99.6,6731],[99.6,6798],[99.6,6865],[99.6,6931],[99.6,6998],[99.6,7065],[99.6,7131],[99.6,7198],[99.6,7265],[99.6,7331],[99.6,7399],[99.6,7465],[99.6,7531],[99.6,7597],[99.6,7665],[99.6,7732],[99.6,7798],[99.6,7865],[99.6,7931],[97.4,7998],[88.8,8065],[80.3,8131],[76.1,8197],[73.5,8264],[71.9,8331],[71.4,8397],[71.3,8465],[71.3,8531],[71.3,8598],[71.3,8665],[71.3,8732],[71.3,8798],[71.3,8865],[71.3,8932],[71.3,8998],[71.3,9064],[71.3,9132],[71.3,9198],[71.3,9265],[71.3,9332],[71.3,9399],[71.3,9465],[71.3,9532],[71.3,9598],[71.3,9664],[71.3,9732],[71.3,9798],[71.3,9865],[71.3,9932],[71.3,9998],[71.3,10065],[71.3,10131],[71.3,10198],[71.3,10266],[71.3,10331],[71.3,10399],[71.3,10465],[71.3,10532],[71.3,10598],[71.3,10665],[71.3,10732],[71.3,10798],[71.3,10865],[71.3,10932],[71.3,10998],[70.6,11065],[64.3,11132],[60.1,11198],[52.8,11265],[41.7,11332],[36.4,11399],[35.7,11465],[35.7,11532],[35.7,11598],[35.7,11665],[35.3,11732],[29.7,11798],[17.1,11865],[14.6,11932],[14.3,12000],[10.6,12065],[4.9,12131],[3.2,12198],[1.9,12265],[1.7,12332],[3.3,12399],[8.2,12465],[12.5,12532],[14,12597],[14.9,12665],[15.4,12732],[15.6,12798],[16,12865],[16.1,12932],[16.3,12998],[17.9,13065],[19.7,13132],[20.8,13198],[22.1,13265],[23.2,13332],[23.8,13399],[23.9,13465],[23.9,13532],[24,13599],[24.2,13665],[24.2,13732],[24.2,13799],[24.2,13865],[24.2,13934],[24.2,13998],[24.2,14065],[24.2,14132],[24.2,14198],[24.2,14265],[24.2,14332],[24.2,14399],[24.2,14465],[24.2,14532],[24.2,14598],[24.2,14665],[24.2,14732],[24.2,14798],[24.2,14865],[24.2,14932],[24.2,15000],[24.2,15065],[24.2,15135],[24.2,15199],[24.3,15265],[28.2,15332],[36.1,15399],[38.6,15465],[38.6,15532],[38.6,15599],[38.6,15665],[38.6,15732],[42.8,15798],[46.1,15865],[46.5,15932],[46.5,15998],[46.5,16065],[46.5,16132],[46.5,16199],[46.5,16265],[46.5,16332],[46.5,16399],[46.7,16465],[47.4,16531],[47.8,16598],[48.2,16665],[48.2,16732],[48.2,16799],[48.2,16865],[48.2,16932],[48.2,17000],[48.2,17065],[48.2,17132],[48.2,17199],[48.2,17265],[48.2,17332],[48.2,17399],[48.2,17465],[48.2,17532],[48.2,17599],[48.2,17665],[48.2,17732],[48.2,17799],[48.2,17865],[48.2,17932],[48.2,18000],[48.2,18065],[48.2,18132],[48.2,18198],[48.2,18264],[48.3,18332],[48.6,18399],[48.9,18464],[49.3,18532],[49.4,18599],[49.4,18665],[49.4,18732],[49.4,18799],[49.4,18865],[49.4,18932],[49.4,19000],[49.4,19065],[49.4,19132],[49.4,19199],[49.4,19265],[49.4,19332],[49.4,19399],[49.4,19465],[48.9,19532],[40.8,19599],[14.6,19665],[6.4,19732],[2.8,19798],[1.5,19865],[0.8,19932],[0.7,19998],[0.7,20065],[0.6,20132],[0.6,20199],[0.6,20265],[0.6,20332],[0.6,20399],[0.6,20465],[0.6,20532],[1.1,20599],[10.6,20665],[33.2,20732],[50.1,20799],[55.6,20865],[55.6,20932],[55.6,21000],[55.6,21065],[59.9,21131],[66.8,21198],[71.9,21265],[72.5,21332],[72.5,21399],[72.6,21465],[74.6,21531],[79.2,21598],[79.6,21665],[78.8,21732],[78.8,21799],[83.5,21865],[87.1,21932],[87.2,22000],[87.2,22065],[87.2,22132],[90.3,22199],[92.9,22265],[93.1,22332],[93.1,22399],[93.3,22465],[92.8,22531],[90.3,22599],[90.1,22665],[91.5,22732],[93.3,22798],[93.2,22865],[89.4,22932],[86.1,23000],[83.6,23065],[83.1,23132],[82.9,23199],[82.9,23265],[82.9,23333],[82.9,23399],[82.9,23466],[82.9,23532],[82.9,23599],[82.9,23665],[82.9,23732],[82.9,23799],[82.9,23866],[82.9,23932],[82.9,24000],[84,24065],[89.9,24132],[96.8,24199],[98.8,24265],[98.9,24331],[98.9,24399],[98.9,24466],[98.9,24532],[99.2,24599],[99.2,24666],[99.2,24732],[99.2,24798],[99.2,24866],[99.2,24932],[99.2,25000],[99.2,25066],[99.2,25132],[99.2,25199],[99.2,25266],[99.2,25331],[99.2,25399],[98.1,25465],[93.8,25532],[90.4,25599],[89.2,25666],[89.2,25731],[89.2,25799],[89.2,25866],[89.2,25931],[89.2,26000],[89.2,26066],[89.2,26132],[89.2,26199],[89.2,26266],[89.2,26331],[89.2,26400],[89.2,26466],[89.2,26532],[89.2,26599]]",1,0,707.704,716.803,49.72222222,4.049,"[{""rating"":49.72222222222222,""responseTime"":4.049000000000092}]",space,8.518,,716.804,Definitely yes,100,722.634,99.30555556,4.101,"[{""rating"":99.30555555555556,""responseTime"":4.100999999999999}]",space,0,1,1,1,1,audio/Narrative7Situation1.wav,audio/Narrative8Situation1.wav,audio/Narrative5Situation1.wav,audio/Narrative6Situation1.wav,2,5,5,2,,,5.235,,,,,,,,,,,,,,,,,,,,,,,,,,,,,,,,,,,,
,,,,,,654a8c7f29438b574d5b9fee,2024-05-13_11h54.15.876,group3.1-3.2-social-tom,2023.2.2,MacIntel,30.3030303,65c5074098b851296ff0b7ed,664236b3be7fd189343809c1,,,,,,,,,,,,,,,,,,,,,,,,,,,,,722.635,2,audio/Narrative6Situation2.wav,725.667,,725.667,754.202,"[[999,1],[999,65],[999,132],[999,199],[999,265],[999,332],[999,399],[999,465],[999,532],[999,599],[999,665],[999,732],[999,799],[999,866],[999,933],[999,1000],[999,1065],[999,1132],[999,1199],[999,1265],[999,1332],[999,1399],[999,1465],[999,1532],[999,1599],[999,1665],[999,1732],[999,1799],[999,1865],[999,1933],[999,2000],[999,2065],[999,2132],[999,2199],[999,2266],[999,2332],[999,2399],[999,2465],[999,2532],[999,2599],[999,2666],[999,2733],[999,2799],[999,2866],[999,2933],[999,3000],[999,3065],[999,3132],[999,3199],[999,3265],[999,3332],[999,3399],[999,3466],[999,3532],[999,3599],[999,3666],[999,3732],[999,3799],[999,3865],[999,3933],[999,4000],[46.9,4066],[46.8,4132],[46.8,4199],[46.8,4266],[46.8,4332],[46.1,4399],[45.6,4465],[45.8,4532],[47.2,4599],[48.5,4665],[48.9,4731],[48.9,4799],[48.5,4865],[36.7,4933],[18.1,4998],[13.3,5066],[13.1,5132],[13.1,5199],[11.7,5265],[8.1,5332],[5.3,5399],[4,5466],[2.8,5532],[1.8,5599],[1.5,5666],[1.5,5732],[2.9,5799],[8.8,5865],[17.6,5933],[26.5,6000],[31.7,6066],[33.1,6132],[47.5,6199],[47.5,6266],[47.5,6332],[49,6399],[52.6,6466],[53.9,6532],[53.9,6599],[52.4,6666],[51.4,6732],[51,6799],[50.8,6865],[50.6,6933],[50.6,7000],[50.6,7066],[51.9,7132],[52.2,7198],[50.6,7265],[47.6,7332],[47.5,7399],[48.1,7466],[48.6,7532],[48.1,7599],[48.1,7666],[45.4,7732],[36.1,7799],[30,7865],[28.9,7933],[28.6,8000],[28.6,8066],[28.6,8132],[28.6,8199],[28.6,8266],[28.6,8332],[29.3,8399],[35.4,8466],[43.3,8532],[47.5,8598],[48.6,8666],[49.7,8732],[50,8799],[50.7,8866],[50.8,8933],[50.8,8998],[50.8,9066],[50.8,9133],[50.8,9199],[50.8,9266],[50.8,9332],[50.8,9399],[51,9466],[56,9532],[66.7,9599],[70.4,9666],[70.6,9733],[70.6,9799],[70.6,9866],[70.6,9933],[70.6,10000],[70.6,10066],[70.6,10132],[70.6,10199],[70.6,10266],[70.6,10332],[70.6,10399],[70.6,10466],[70.6,10533],[70.6,10599],[70.6,10666],[70.6,10732],[70.6,10799],[70.6,10866],[70.6,10933],[71,11000],[71.3,11066],[71.5,11132],[72.2,11198],[72.5,11266],[72.6,11333],[72.6,11399],[72.6,11466],[72.6,11533],[72.6,11599],[72.6,11666],[72.6,11733],[72.6,11799],[72.6,11866],[72.6,11933],[72.6,12000],[72.6,12066],[72.6,12132],[72.6,12199],[72.6,12266],[72.6,12333],[72.6,12399],[72.8,12466],[73.2,12532],[73.8,12598],[73.9,12666],[73.9,12733],[73.9,12799],[73.9,12866],[73.9,12933],[73.9,13000],[73.9,13066],[73.8,13132],[73.8,13199],[73.8,13266],[73.8,13333],[73.8,13399],[73.8,13465],[73.8,13532],[73.8,13599],[73.8,13666],[73.8,13732],[73.8,13799],[73.8,13865],[73.8,13933],[73.8,14000],[73.8,14066],[73.8,14133],[73.8,14199],[73.8,14266],[73.8,14333],[73.8,14399],[73.8,14466],[73.8,14533],[73.8,14599],[73.8,14666],[73.8,14733],[73.8,14799],[73.8,14866],[74.6,14933],[78.9,15000],[81.5,15066],[86.3,15133],[91.9,15200],[94.2,15266],[94.2,15333],[94.2,15399],[94.2,15466],[94.3,15533],[96.9,15601],[99.3,15666],[99.6,15733],[99.6,15799],[99.6,15866],[99.6,15933],[99.6,16000],[99.6,16066],[99.6,16132],[99.4,16199],[99.4,16266],[99.4,16333],[99.4,16399],[99.4,16466],[99.4,16533],[99.4,16599],[99.4,16666],[99.4,16733],[99.4,16799],[99.4,16866],[99.4,16933],[99.4,17000],[99.4,17066],[99.4,17133],[99.4,17199],[99.4,17266],[99.4,17333],[99.4,17399],[99.4,17466],[99.4,17533],[99.4,17599],[99.4,17666],[99.4,17733],[99.4,17799],[99.4,17865],[99.4,17933],[99.4,18000],[99.4,18066],[99.4,18133],[99.4,18200],[99.4,18266],[99.4,18333],[99.4,18399],[99.4,18466],[99.4,18533],[99.4,18601],[99.4,18666],[99.4,18733],[99.4,18800],[99.4,18866],[99.4,18933],[99.4,19000],[99.2,19066],[73.5,19733],[72.9,19800],[72.9,19866],[72.9,19933],[72.9,20000],[72.9,20066],[72.8,20133],[70.7,20200],[65.4,20266],[56.3,20333],[52.9,20400],[52.6,20466],[52.6,20533],[52.6,20601],[52.6,20666],[52.6,20733],[52.6,20800],[51.7,20866],[47.6,20933],[41.9,21000],[37.5,21066],[35,21133],[33.9,21199],[33.6,21266],[33.6,21333],[33.6,21400],[33.6,21466],[33.6,21533],[33.6,21601],[33.6,21666],[33.6,21733],[33.6,21799],[33.6,21866],[33.6,21933],[33.6,22000],[33.6,22067],[33.6,22133],[33.6,22200],[33.6,22266],[33.6,22333],[33.6,22400],[33.6,22466],[33.6,22533],[33.6,22601],[33.6,22665],[33.6,22733],[33.6,22800],[33.6,22866],[33.6,22933],[33.6,23000],[33.6,23066],[33.6,23133],[33.6,23200],[33.6,23266],[33.6,23333],[33.6,23400],[33.6,23466],[33.6,23533],[34,23601],[43.6,23666],[59.9,23733],[66.3,23800],[66.3,23866],[66.3,23933],[66.3,24000],[76.5,24066],[93.8,24133],[97.9,24200],[97.9,24266],[97.9,24333],[97.9,24400],[98.1,24466],[98.3,24533],[98.3,24601],[98.3,24667],[98.3,24733],[98.3,24800],[98.3,24866],[98.3,24933],[98.3,25000],[98.3,25066],[98.3,25133],[98.3,25200],[98.3,25267],[97.5,25333],[85.6,25466],[83.2,25533],[82.4,25601],[81.1,25666],[80.3,25733],[79.7,25800],[79.6,25866],[79.6,25933],[79.4,26000],[79.4,26067],[79.4,26133],[79.4,26200],[79.4,26266],[79.4,26333],[79.4,26400],[79.4,26466],[79.4,26533],[79.4,26601],[79.4,26667],[79.4,26733],[79.4,26800],[79.4,26867],[79.4,26933],[79.4,27000],[79.4,27066],[79.4,27133],[79.4,27199],[79.4,27267],[79.4,27333],[79.4,27400],[79.4,27466],[79.4,27533],[79.4,27601],[79.4,27667],[79.4,27733],[79.4,27800],[79.4,27866],[79.4,27933],[79.4,28000],[79.4,28067],[79.4,28133],[79.4,28199],[79.4,28267],[79.4,28333],[79.4,28400],[79.4,28467],[79.4,28533]]",1,0,754.203,759.269,75.27777778,4.171,"[{""rating"":77.22222222222221,""responseTime"":2.1860000000000355},{""rating"":75.27777777777777,""responseTime"":4.171000000000049}]",space,4.485,,759.269,Not at all,0,759.275,,,[],,0,2,2,2,1,audio/Narrative7Situation2.wav,audio/Narrative8Situation2.wav,audio/Narrative5Situation2.wav,audio/Narrative6Situation2.wav,3,3,3,3,,,,,,,,,,,,,,,,,,,,,,,,,,,,,,,,,,,,,,,
,,,,,,654a8c7f29438b574d5b9fee,2024-05-13_11h54.15.876,group3.1-3.2-social-tom,2023.2.2,MacIntel,30.3030303,65c5074098b851296ff0b7ed,664236b3be7fd189343809c1,,,,,,,,,,,,,,,,,,,,,,,,,,,,,759.275,2,audio/Narrative6Situation3.wav,764.302,,764.302,776.936,"[[76.7,3933],[75.4,4000],[71.9,4066],[68.9,4133],[68.9,4199],[68.9,4267],[64.7,4333],[39.4,4400],[23.1,4466],[16,4533],[14.7,4600],[14.7,4666],[14.7,4733],[12.2,4800],[6.8,4866],[3.9,4933],[2.6,5000],[1.8,5066],[1.5,5133],[1.4,5200],[1.1,5268],[0.6,5334],[0.6,5399],[0.6,5467],[0.6,5533],[0.6,5600],[0.6,5667],[0.6,5733],[1.4,5800],[15.1,5866],[42.5,5933],[53.2,6467],[51,6533],[50.4,6599],[50.4,6667],[54.6,6733],[73.3,6799],[80.6,6866],[80.6,6933],[80.6,7000],[82.5,7067],[96.5,7133],[99.9,7200],[100,7267],[100,7333],[100,7400],[100,7467],[100,7533],[99.9,7600],[99.9,7667],[99.9,7733],[99.9,7800],[99.9,7867],[99.9,7934],[99.9,8000],[99.9,8067],[99.9,8134],[99.9,8200],[99.9,8267],[99.9,8333],[99.9,8400],[99.9,8467],[99.9,8533],[99.9,8600],[99.9,8667],[99.9,8733],[99.9,8800],[99.9,8867],[99.9,8933],[99.9,9000],[99.9,9067],[99.9,9133],[99.9,9200],[99.9,9267],[99.3,9333],[92.4,9400],[89.3,9467],[88.9,9533],[89.2,9600],[89.2,9667],[89.2,9734],[89.2,9800],[89.2,9867],[89.2,9933],[89.2,10000],[89.2,10067],[89.2,10134],[89.2,10200],[89.2,10267],[89.2,10334],[89.2,10400],[89.2,10467],[89.2,10534],[89.2,10600],[89.2,10667],[89.2,10733],[89.2,10800],[89.2,10866],[89.2,10934],[89.2,11000],[89.2,11067],[86.3,11132],[81.1,11200],[78.6,11267],[77.4,11333],[76.8,11400],[76.8,11467],[76.8,11533],[76.8,11600],[76.8,11667],[76.8,11733],[76.8,11800],[76.8,11867],[76.8,11933],[76.8,12000],[76.8,12067],[76.8,12133],[76.8,12200],[76.8,12267],[76.8,12333],[76.8,12401],[76.8,12466],[76.8,12533],[76.8,12600]]",1,0,776.937,780.641,50.69444444,1.786,"[{""rating"":50.69444444444444,""responseTime"":1.7859999999999445}]",space,3.123,,780.641,Definitely yes,100,780.647,,,[],,0,3,3,3,1,audio/Narrative7Situation3.wav,audio/Narrative8Situation3.wav,audio/Narrative5Situation3.wav,audio/Narrative6Situation3.wav,8,4,3,5,,,,,,,,,,,,,,,,,,,,,,,,,,,,,,,,,,,,,,,
,,,,,,654a8c7f29438b574d5b9fee,2024-05-13_11h54.15.876,group3.1-3.2-social-tom,2023.2.2,MacIntel,30.3030303,65c5074098b851296ff0b7ed,664236b3be7fd189343809c1,,,,,,,,,,,,,,,,,,,,,,,,,,,,,780.648,2,audio/Narrative6Situation4.wav,782.67,,782.67,795.337,"[[999,0],[999,66],[999,131],[999,199],[999,266],[999,331],[999,399],[999,466],[999,532],[999,599],[999,666],[999,731],[999,798],[999,867],[999,932],[999,1000],[999,1066],[999,1131],[999,1199],[999,1266],[999,1331],[999,1399],[999,1466],[999,1532],[999,1599],[999,1666],[999,1733],[999,1798],[999,1865],[999,1932],[999,1999],[999,2066],[999,2131],[999,2199],[52.2,2266],[50.4,2331],[49.3,2399],[49.2,2466],[49.6,2532],[50.1,2599],[50.3,2665],[50.3,2733],[50.3,2798],[50.3,2865],[50.3,2932],[50.3,2999],[50.3,3066],[50.3,3133],[50.3,3199],[50.3,3266],[50.3,3332],[50.3,3399],[50.3,3466],[50.3,3533],[50.3,3599],[50.3,3666],[50.3,3733],[50.3,3798],[50.3,3865],[50.3,3932],[50.3,3999],[50.3,4066],[50.6,4133],[52.6,4199],[58.3,4266],[63.6,4332],[64.6,4399],[64.6,4466],[64.6,4533],[64.6,4599],[64.6,4666],[64.6,4733],[64.6,4798],[64.6,4865],[64.6,4932],[64.6,4999],[64.6,5066],[64.6,5131],[64.6,5199],[64.6,5266],[64.6,5332],[64.6,5399],[64.9,5466],[65.6,5533],[66.1,5599],[66.7,5666],[67.8,5733],[68.9,5798],[69.3,5865],[69.6,5932],[69.7,5999],[69.7,6065],[69.7,6133],[65.7,6199],[54.6,6266],[50.3,6332],[50,6399],[50,6466],[50,6533],[50,6599],[50,6666],[50,6733],[50,6798],[50,6865],[50,6932],[50,6999],[50,7066],[50,7133],[50,7199],[50,7266],[47.6,7332],[34.7,7399],[29.6,7466],[27.2,7533],[25.8,7599],[25.1,7665],[23.9,7733],[22.2,7798],[21.5,7865],[21,7932],[20.7,7999],[20.7,8066],[20.7,8133],[20.7,8199],[20.7,8266],[20.7,8332],[20.7,8399],[20.7,8465],[20.6,8533],[20.6,8600],[20.6,8666],[20.6,8731],[20.6,8798],[20.6,8865],[20.6,8932],[20.6,8999],[20.6,9066],[20.6,9133],[20.6,9199],[20.7,9266],[22.2,9332],[27.2,9399],[37.8,9466],[45,9533],[45,9599],[45.1,9666],[45.3,9733],[45.6,9798],[45.8,9865],[47.9,9932],[59,9999],[67.1,10066],[69,10133],[69.2,10199],[69.2,10266],[69.2,10332],[69.2,10399],[69.2,10466],[69.2,10533],[69.2,10599],[71.4,10666],[75.3,10731],[76.8,10798],[77.1,10865],[77.1,10932],[77.1,11000],[77.1,11066],[77.1,11133],[77.1,11200],[77.1,11264],[77.1,11332],[77.1,11399],[77.1,11466],[77.1,11533],[77.1,11600],[77.1,11666],[77.1,11733],[77.1,11800],[77.1,11865],[77.1,11932],[77.1,12000],[77.1,12065],[77.1,12133],[77.1,12200],[77.1,12266],[77.1,12332],[77.1,12399],[77.1,12465],[77.1,12533],[77.1,12600],[77.1,12667]]",1,0,795.338,804.037,21.38888889,8.17,"[{""rating"":0.5555555555555536,""responseTime"":1.5850000000000364},{""rating"":17.22222222222222,""responseTime"":4.2700000000000955},{""rating"":21.38888888888889,""responseTime"":8.170000000000073}]",space,8.123,,804.037,Not at all,0,804.043,,,[],,0,4,4,4,1,audio/Narrative7Situation4.wav,audio/Narrative8Situation4.wav,audio/Narrative5Situation4.wav,audio/Narrative6Situation4.wav,3,3,1,2,,,,,,,,,,,,,,,,,,,,,,,,,,,,,,,,,,,,,,,
,,,,,,654a8c7f29438b574d5b9fee,2024-05-13_11h54.15.876,group3.1-3.2-social-tom,2023.2.2,MacIntel,30.3030303,65c5074098b851296ff0b7ed,664236b3be7fd189343809c1,,,,,,,,,,,,,,,,,,,,,,,,,,,,,804.043,2,audio/Narrative6Situation5.wav,806.07,,806.071,814.038,"[[999,2],[999,67],[999,133],[999,200],[999,267],[999,333],[999,400],[999,467],[999,533],[999,600],[999,667],[999,733],[999,800],[999,866],[999,932],[999,1000],[999,1067],[999,1133],[999,1200],[999,1266],[24.2,1333],[23.9,1400],[23.8,1467],[23.8,1533],[23.8,1600],[23.8,1667],[23.8,1733],[23.8,1800],[23.8,1867],[23.8,1934],[23.6,2000],[16.9,2067],[11.4,2133],[9.7,2200],[7.1,2267],[6.5,2334],[6.1,2400],[4.6,2467],[3.9,2533],[3.8,2600],[3.2,2667],[2.6,2733],[2.2,2800],[2.1,2867],[2.1,2932],[2.4,3000],[2.6,3067],[2.8,3134],[2.9,3200],[3.1,3267],[5.8,3333],[13.8,3400],[18.6,3467],[21.3,3533],[22.8,3600],[24.4,3667],[25.6,3733],[25.8,3800],[25.8,3869],[25.8,3934],[24.7,4000],[23.3,4067],[21.8,4134],[20.6,4200],[19.7,4267],[18.8,4334],[16.9,4399],[16.3,4466],[16,4533],[15.7,4600],[15.6,4667],[15.6,4734],[15.6,4800],[15.7,4867],[16.3,4934],[17.8,5000],[18.9,5067],[19.6,5133],[19.7,5200],[19.7,5267],[19.7,5334],[19.7,5400],[19.7,5467],[19.7,5533],[19.7,5600],[19.7,5666],[19.7,5734],[19.7,5800],[19.7,5867],[19.7,5934],[26,6000],[49.7,6067],[80,6867],[81,6934],[81,7000],[81,7067],[81,7134],[83.1,7200],[85,7267],[85.8,7334],[86,7400],[86,7467],[86,7533],[86,7600],[86,7667],[86,7734],[86,7800],[86,7867],[86,7934]]",1,0,814.038,817.105,17.77777778,1.919,"[{""rating"":17.777777777777775,""responseTime"":1.9189999999999827}]",space,2.491,,817.105,Partially,50,817.111,,,[],,0,5,5,5,1,audio/Narrative7Situation5.wav,audio/Narrative8Situation5.wav,audio/Narrative5Situation5.wav,audio/Narrative6Situation5.wav,5,2,5,2,,,,,,,,,,,,,,,,,,,,,,,,,,,,,,,,,,,,,,,
,,,,,,654a8c7f29438b574d5b9fee,2024-05-13_11h54.15.876,group3.1-3.2-social-tom,2023.2.2,MacIntel,30.3030303,65c5074098b851296ff0b7ed,664236b3be7fd189343809c1,,,,,,,,,,,,,,,,,,,,,,,,,,,,,817.111,2,audio/Narrative6Situation6.wav,819.138,,819.138,830.271,"[[17.5,1532],[17.2,1598],[17.2,1665],[17.2,1732],[17.2,1798],[17.2,1865],[17.2,1932],[17.2,1998],[17.2,2065],[17.2,2132],[17.2,2199],[17.2,2265],[17.2,2332],[17.2,2399],[17.2,2465],[17.2,2531],[17.2,2598],[17.2,2665],[17.2,2731],[17.2,2798],[17.2,2865],[17.2,2932],[17.2,2998],[17.2,3065],[17.2,3131],[17.2,3198],[17.2,3265],[17.2,3332],[17.2,3399],[17.2,3465],[17.2,3532],[17.2,3598],[17.2,3665],[17.2,3732],[17.2,3799],[17.2,3865],[17.2,3932],[17.2,3998],[17.2,4065],[17.2,4132],[17.2,4198],[17.2,4265],[17.2,4332],[17.2,4399],[17.2,4465],[17.2,4532],[17.2,4599],[17.2,4665],[17.2,4732],[17.2,4798],[17.2,4865],[17.2,4932],[17.2,5000],[17.2,5065],[17.2,5131],[17.2,5199],[17.2,5265],[17.4,5332],[17.4,5399],[17.4,5465],[17.4,5532],[17.4,5598],[18.2,5665],[21.4,5732],[21.9,5799],[21.7,5864],[20.8,5932],[19.4,5998],[18.5,6065],[17.6,6132],[17.1,6198],[17.1,6265],[17.1,6332],[17.1,6399],[17.1,6465],[17.1,6532],[17.1,6599],[17.1,6665],[17.1,6732],[17.1,6799],[17.1,6865],[17.1,6932],[17.1,7000],[17.1,7064],[17.1,7132],[17.1,7199],[17.1,7265],[17.2,7332],[18.1,7399],[18.5,7464],[18.8,7532],[18.8,7599],[18.8,7665],[18.8,7732],[18.8,7801],[18.8,7865],[18.8,7932],[18.8,8000],[18.8,8065],[18.8,8132],[18.8,8199],[18.8,8265],[18.8,8332],[19.2,8399],[20.6,8465],[22.8,8532],[24.6,8599],[25.1,8665],[25.1,8732],[25.1,8799],[25.1,8865],[25.1,8932],[25.1,9000],[25.1,9065],[25.1,9132],[25.1,9199],[25.1,9265],[25.1,9331],[25.1,9399],[25.1,9465],[25.1,9532],[25.1,9599],[25.1,9665],[25.1,9732],[25.1,9799],[25.1,9865],[25.1,9932],[25.1,10000],[25.1,10066],[25.1,10132],[25.1,10199],[25.1,10265],[25.1,10332],[25.1,10399],[25.1,10465],[25.1,10532],[25.1,10599],[25.1,10665],[25.1,10732],[25.1,10799],[25.1,10864],[25.1,10932],[25.1,11000],[25.1,11065],[25.1,11132]]",1,0,830.272,833.905,16.94444444,1.321,"[{""rating"":16.944444444444446,""responseTime"":1.3210000000000264}]",space,3.04,,833.905,Not at all,0,833.91,,,[],,0,6,6,6,1,audio/Narrative7Situation6.wav,audio/Narrative8Situation6.wav,audio/Narrative5Situation6.wav,audio/Narrative6Situation6.wav,3,2,3,2,,,,,,,,,,,,,,,,,,,,,,,,,,,,,,,,,,,,,,,
,,,,,,654a8c7f29438b574d5b9fee,2024-05-13_11h54.15.876,group3.1-3.2-social-tom,2023.2.2,MacIntel,30.3030303,65c5074098b851296ff0b7ed,664236b3be7fd189343809c1,,,,,,,,,,,,,,,,,,,,,,,,,,,,,833.911,2,audio/Narrative6Situation7.wav,838.939,,838.939,863.84,"[[16.8,2666],[16.7,2733],[16.7,2798],[16.7,2865],[16.7,2932],[16.7,2999],[16.7,3066],[16.7,3133],[16.7,3199],[16.7,3265],[16.7,3332],[16.7,3399],[16.7,3466],[16.7,3533],[16.7,3599],[16.7,3666],[16.7,3733],[16.7,3798],[16.7,3865],[16.7,3932],[16.8,3999],[16.8,4066],[16.9,4132],[16.9,4199],[17.1,4265],[17.1,4331],[17.2,4399],[17.2,4466],[17.2,4533],[17.4,4599],[17.4,4666],[17.4,4733],[17.4,4798],[17.4,4865],[17.4,4932],[17.4,4999],[17.4,5066],[17.4,5132],[17.4,5199],[17.4,5265],[17.4,5331],[17.4,5399],[14.7,5465],[8.8,5532],[5.3,5599],[3.8,5666],[2.9,5731],[1.8,5798],[1.1,5865],[1,5932],[1,5999],[1,6066],[1,6133],[1,6199],[1,6265],[1,6332],[1,6399],[1,6466],[3.3,6533],[24.4,6598],[74.9,6999],[97.4,7066],[99.9,7133],[99.9,7199],[99.9,7267],[99.9,7332],[99.9,7399],[99.9,7466],[99.7,7533],[99.4,7599],[99.4,7666],[99.4,7733],[99.4,7798],[99.4,7865],[99.4,7932],[99.4,7999],[99.4,8065],[99.4,8133],[99.4,8200],[99.4,8265],[99.4,8332],[98.9,8399],[91.5,8466],[81,8533],[76.9,8599],[76.3,8666],[76.3,8733],[76.3,8800],[76.3,8865],[76.3,8932],[76.3,8999],[76.3,9066],[76.3,9133],[76.3,9200],[76.3,9265],[76.3,9332],[77.9,9399],[80.7,9466],[81.1,9533],[81.1,9599],[81.1,9666],[81.1,9733],[81.1,9800],[81.1,9865],[83.2,9932],[91,10000],[95.8,10066],[96.9,10133],[96.9,10199],[96.9,10265],[96.9,10332],[96.9,10399],[96.9,10466],[97.1,10533],[97.6,10599],[98.5,10666],[99,10733],[99.3,10798],[99.3,10865],[99.3,10932],[99.3,11000],[99.3,11066],[99.3,11133],[99.3,11200],[99.3,11267],[99.3,11332],[99.3,11399],[99.3,11466],[99.3,11533],[99.3,11600],[99.3,11666],[99.4,11733],[99.4,11800],[99.4,11865],[99.4,11932],[99.4,12000],[99.4,12066],[99.4,12133],[99.4,12200],[99.4,12265],[99.4,12332],[99.4,12399],[99.4,12466],[99.4,12532],[99.4,12600],[99.4,12666],[99.4,12731],[99.4,12798],[99.4,12865],[99.4,12932],[99.4,12999],[99.4,13067],[99.4,13133],[99.4,13200],[99.4,13265],[99.4,13332],[99.4,13399],[99.4,13466],[99.4,13533],[99.4,13600],[99.4,13666],[99.4,13733],[99.4,13800],[99.4,13865],[99.4,13932],[99.4,14000],[99.3,14066],[98.2,14133],[97.2,14200],[96.9,14265],[96.9,14332],[96.9,14399],[96.9,14466],[96.9,14532],[96.9,14600],[96.9,14667],[96.9,14733],[96.9,14800],[96.7,14865],[94.4,14932],[92.5,15000],[92.5,15066],[92.5,15133],[92.5,15200],[92.5,15265],[92.5,15332],[92.5,15399],[91.3,15466],[87.6,15533],[83.8,15600],[80,15666],[77.9,15733],[77.5,15800],[77.5,15865],[77.5,15932],[77.5,16000],[77.5,16066],[77.5,16133],[77.5,16200],[77.5,16265],[77.5,16332],[77.5,16399],[77.5,16466],[77.5,16533],[77.5,16600],[77.2,16666],[76.7,16733],[76.5,16800],[76.5,16865],[76.5,16932],[76.5,17000],[76.5,17067],[76.5,17133],[76.5,17200],[76.4,17265],[76.3,17332],[76.1,17402],[76,17466],[76,17533],[76,17600],[76,17667],[76,17733],[76,17800],[75.8,17865],[75.6,17932],[75.1,18000],[75,18067],[75,18133],[75,18200],[75,18265],[75,18332],[75,18399],[75,18466],[75,18533],[75,18600],[75.1,18667],[75.1,18733],[75.1,18800],[75.1,18866],[75.1,18932],[75.1,19000],[75.1,19067],[75.1,19133],[75.1,19200],[75.1,19267],[75.1,19332],[75.1,19399],[75.1,19466],[75.1,19533],[75.1,19600],[75.1,19667],[75.1,19733],[75.1,19800],[75.1,19866],[75.1,19932],[75.1,20000],[75.1,20067],[75.1,20133],[75.1,20200],[75.1,20269],[75.1,20332],[75.1,20399],[75.1,20466],[75.1,20533],[75.1,20600],[75.1,20667],[75.1,20733],[75.1,20798],[75.1,20866],[75.1,20932],[75.1,21000],[75.1,21067],[75.1,21134],[75.1,21199],[75.1,21267],[75.1,21332],[75.1,21399],[75.1,21466],[75.1,21533],[75.1,21600],[75.1,21667],[75.1,21733],[75.1,21800],[75.1,21866],[75.1,21933],[75.1,22000],[74.9,22067],[74.2,22133],[73.5,22200],[73.2,22267],[73.2,22332],[73.2,22399],[73.2,22466],[73.2,22533],[73.2,22600],[73.2,22667],[73.2,22733],[73.2,22800],[73.2,22865],[73.2,22932],[73.2,23000],[72.9,23067],[71,23133],[68.9,23200],[68.2,23267],[68.1,23332],[68.1,23399],[68.1,23466],[68.1,23533],[68.1,23600],[68.1,23667],[68.1,23733],[68.1,23798],[68.1,23866],[68.1,23933],[68.1,24000],[68.1,24067],[68.1,24134],[68.1,24200],[68.1,24267],[68.1,24332],[68.1,24399],[68.1,24466],[68.1,24533],[68.1,24600],[68.1,24666],[68.1,24734],[68.1,24800],[68.1,24866]]",1,0,863.841,869.374,60.41666667,4.738,"[{""rating"":50,""responseTime"":1.6539999999999964},{""rating"":58.05555555555556,""responseTime"":2.8199999999999363},{""rating"":60.416666666666664,""responseTime"":4.737999999999943}]",space,4.944,,869.374,Not at all,0,869.379,,,[],,0,7,7,7,1,audio/Narrative7Situation7.wav,audio/Narrative8Situation7.wav,audio/Narrative5Situation7.wav,audio/Narrative6Situation7.wav,5,3,4,5,,,,,,,,,,,,,,,,,,,,,,,,,,,,,,,,,,,,,,,
,,,,,,654a8c7f29438b574d5b9fee,2024-05-13_11h54.15.876,group3.1-3.2-social-tom,2023.2.2,MacIntel,30.3030303,65c5074098b851296ff0b7ed,664236b3be7fd189343809c1,,,,,,,,,,,,,,,,,,,,,,,,,,,,,869.38,2,audio/Narrative6Situation8.wav,874.407,,874.407,881.307,"[[999,2],[999,66],[999,132],[999,199],[999,266],[999,333],[999,399],[999,466],[999,533],[999,599],[999,666],[999,733],[999,799],[999,866],[999,933],[999,999],[999,1066],[999,1133],[999,1199],[999,1266],[999,1333],[999,1399],[999,1466],[999,1533],[999,1599],[999,1666],[999,1733],[999,1799],[999,1866],[999,1933],[999,1999],[999,2066],[999,2133],[999,2200],[999,2266],[999,2333],[999,2399],[999,2466],[999,2532],[999,2599],[999,2666],[999,2733],[999,2799],[999,2866],[999,2933],[999,2999],[999,3066],[999,3133],[999,3199],[999,3266],[999,3333],[999,3399],[999,3466],[999,3533],[999,3600],[999,3666],[999,3733],[999,3799],[999,3866],[999,3933],[999,3999],[999,4066],[999,4133],[999,4200],[999,4266],[999,4333],[999,4399],[999,4466],[999,4533],[999,4599],[999,4666],[999,4732],[999,4800],[999,4866],[999,4933],[999,4999],[999,5066],[999,5133],[999,5200],[999,5266],[999,5333],[999,5400],[999,5466],[999,5532],[999,5599],[999,5666],[999,5733],[999,5800],[999,5866],[999,5933],[999,6000],[999,6066],[999,6133],[999,6199],[999,6266],[999,6333],[999,6399],[999,6466],[999,6533],[999,6600],[999,6666],[999,6733],[999,6799],[999,6866]]",1,0,881.308,883.674,0.277777778,1.371,"[{""rating"":0.2777777777777768,""responseTime"":1.370999999999981}]",space,1.783,,883.674,Definitely yes,100,883.681,,,[],,0,8,8,8,1,audio/Narrative7Situation8.wav,audio/Narrative8Situation8.wav,audio/Narrative5Situation8.wav,audio/Narrative6Situation8.wav,2,3,3,5,,,,,,,,,,,,,,,,,,,,,,,,,,,,,,,,,,,,,,,
,,,,,,654a8c7f29438b574d5b9fee,2024-05-13_11h54.15.876,group3.1-3.2-social-tom,2023.2.2,MacIntel,30.3030303,65c5074098b851296ff0b7ed,664236b3be7fd189343809c1,,,,,,,,,,,,,,,,,,,,,,,,,,,,,883.681,2,audio/Narrative6Situation9.wav,887.707,,887.707,897.708,"[[15.4,2066],[14.6,2133],[13.5,2200],[12.8,2265],[12.5,2332],[12.5,2399],[12.5,2466],[12.5,2533],[12.5,2600],[12.5,2667],[12.5,2732],[12.5,2799],[12.5,2866],[12.5,2932],[12.5,3000],[12.5,3067],[12.5,3133],[12.5,3200],[12.5,3266],[12.5,3332],[12.5,3399],[12.5,3466],[12.5,3533],[12.5,3600],[12.5,3667],[12.5,3732],[12.5,3799],[12.5,3866],[12.5,3932],[12.5,4000],[12.5,4067],[12.5,4133],[12.5,4198],[12.5,4266],[12.5,4332],[12.5,4399],[12.5,4466],[12.5,4533],[12.5,4600],[12.5,4667],[12.5,4732],[12.5,4799],[12.5,4866],[12.5,4932],[12.4,5000],[12.4,5067],[12.4,5133],[12.4,5200],[12.4,5266],[12.4,5332],[12.4,5399],[8.9,5466],[4.6,5533],[2.2,5600],[1.1,5665],[0.6,5734],[0.4,5799],[0.4,5866],[0.4,5932],[0.4,6000],[0.4,6067],[0.4,6133],[0.4,6200],[0.4,6266],[0.4,6331],[0.4,6399],[0.4,6466],[0.4,6533],[0.4,6600],[0.4,6667],[0.4,6732],[0.4,6799],[0.4,6867],[0.4,6932],[0.4,7000],[0.4,7067],[0.4,7133],[0.4,7200],[0.4,7266],[0.4,7333],[0.4,7399],[0.4,7466],[0.4,7533],[0.4,7600],[0.4,7667],[0.6,7732],[0.7,7799],[1,7865],[2.4,7932],[11,8000],[23.5,9933],[22.5,10000]]",1,0,897.708,900.308,0,1.304,"[{""rating"":0,""responseTime"":1.3040000000000873}]",space,2.016,,900.308,Definitely yes,100,900.312,,,[],,0,9,9,9,1,audio/Narrative7Situation9.wav,audio/Narrative8Situation9.wav,audio/Narrative5Situation9.wav,audio/Narrative6Situation9.wav,2,3,3,4,,,,,,,,,,,,,,,,,,,,,,,,,,,,,,,,,,,,,,,
,,,,,,654a8c7f29438b574d5b9fee,2024-05-13_11h54.15.876,group3.1-3.2-social-tom,2023.2.2,MacIntel,30.3030303,65c5074098b851296ff0b7ed,664236b3be7fd189343809c1,,,,,,,,,,,,,,,,,,,,,,,,,,,,,900.312,2,audio/Narrative5Situation1.wav,905.341,,905.341,918.675,"[[0.1,1598],[0.6,1665],[0.7,1732],[0.7,1798],[0.7,1866],[0.7,1932],[0.7,2000],[0.7,2067],[0.7,2132],[0.7,2199],[0.6,2266],[0.4,2332],[0.3,2399],[0.3,2466],[0.1,2533],[0.1,2600],[0.1,2667],[0.1,2732],[0.1,2799],[0.1,2866],[0.1,2932],[0.1,3000],[0.1,3066],[0.1,3132],[0.1,3199],[0.1,3266],[0.1,3332],[0.1,3399],[0.1,3466],[0.1,3533],[0.1,3600],[0.1,3667],[0.1,3732],[0.1,3799],[1.3,3866],[17.1,3933],[54.6,4600],[54.9,4667],[55,4732],[55.3,4799],[55.3,4865],[54.9,4932],[53.6,5000],[52.2,5067],[51.3,5132],[50.8,5199],[50.7,5266],[50.7,5332],[50.6,5399],[50.6,5466],[50.6,5533],[50.6,5600],[50.6,5665],[50.6,5732],[50.6,5800],[50.6,5866],[50.6,5932],[50.6,6000],[50.6,6067],[50.6,6132],[50.6,6199],[50.7,6266],[50.8,6332],[50.8,6399],[50.8,6466],[50.8,6533],[50.8,6600],[50.8,6667],[50.8,6733],[50.8,6799],[48.5,6866],[39.9,6932],[27.9,7000],[23.8,7067],[22.4,7132],[21.1,7199],[19.7,7266],[19,7332],[19,7399],[19,7466],[19,7533],[19,7600],[19,7665],[19,7733],[19,7799],[19,7866],[19,7932],[19,8000],[19,8066],[19,8132],[19,8199],[19,8266],[19,8333],[19,8399],[19,8466],[19,8533],[19,8600],[19,8667],[19,8733],[19,8799],[18.9,8866],[18.5,8932],[18.1,9000],[18.1,9067],[18.1,9134],[18.1,9199],[18.1,9266],[18.1,9333],[18.1,9399],[18.5,9466],[19.2,9533],[21.7,9600],[23.3,9667],[23.3,9733],[23.3,9799],[23.6,9866],[28.9,9933],[52.8,10000],[79.4,10533],[80.7,10600],[81.4,10667],[81.8,10733],[81.8,10799],[81.8,10866],[81.8,10933],[81.8,11000],[78.8,11067],[73.1,11134],[69.4,11199],[68.3,11266],[68.3,11333],[68.6,11399],[69.3,11466],[70.8,11533],[72.9,11600],[75.1,11667],[75.4,11733],[75.4,11799],[75.4,11867],[75.8,11933],[76,12000],[76,12067],[75.8,12134],[75.8,12199],[75.8,12265],[75.8,12333],[75.8,12399],[75.8,12466],[75.8,12533],[75.8,12600],[75.8,12667],[75.8,12733],[75.8,12799],[75.8,12866],[75.8,12933],[75.8,13000],[75.8,13067],[75.8,13134],[75.8,13201],[75.8,13266],[75.8,13333]]",1,0,918.676,922.975,76.80555556,2.785,"[{""rating"":76.80555555555554,""responseTime"":2.785000000000082}]",space,3.718,,922.975,Partially,50,922.981,,,[],,0,10,10,10,1,audio/Narrative8Situation1.wav,audio/Narrative7Situation1.wav,audio/Narrative6Situation1.wav,audio/Narrative5Situation1.wav,5,2,2,5,,,,,,,,,,,,,,,,,,,,,,,,,,,,,,,,,,,,,,,
,,,,,,654a8c7f29438b574d5b9fee,2024-05-13_11h54.15.876,group3.1-3.2-social-tom,2023.2.2,MacIntel,30.3030303,65c5074098b851296ff0b7ed,664236b3be7fd189343809c1,,,,,,,,,,,,,,,,,,,,,,,,,,,,,922.981,2,audio/Narrative5Situation2.wav,926.009,,926.009,955.51,"[[75,932],[54.6,999],[34.4,1065],[33.6,1399],[35.4,1466],[35.4,1533],[35.4,1598],[35.4,1665],[35.4,1732],[35.4,1799],[35.4,1865],[35.4,1932],[35.4,1999],[35.4,2065],[35.4,2132],[35.4,2199],[35.4,2265],[35.4,2332],[35.4,2399],[35.4,2466],[35.4,2531],[35.4,2600],[35.4,2665],[35.4,2732],[35.4,2799],[35.4,2865],[35.4,2932],[35.4,3000],[35.4,3065],[35.4,3132],[35.4,3199],[35.4,3265],[41.3,3332],[52.2,3399],[54.6,3466],[54.6,3533],[54.6,3598],[54.6,3665],[54.9,3732],[61.1,3798],[68.8,3865],[70.8,3932],[70.8,3999],[70.8,4065],[70.8,4132],[70.8,4199],[70.8,4265],[70.8,4332],[70.8,4399],[69.6,4466],[62.5,4533],[55.3,4600],[51.5,4665],[49.2,4731],[48.2,4799],[47.9,4865],[47.9,4932],[47.9,5000],[47.9,5065],[47.9,5134],[48.1,5199],[48.8,5265],[49,5332],[49,5399],[49,5466],[49.2,5533],[49.3,5598],[49.9,5665],[50,5732],[50,5799],[50,5865],[50,5932],[50,6000],[50,6065],[50,6131],[50,6199],[50,6265],[50,6332],[50,6399],[50,6466],[50,6533],[50,6598],[50,6665],[50,6732],[50,6799],[50,6865],[50,6932],[50,7000],[50,7065],[50,7132],[50,7198],[50,7265],[50,7331],[50,7399],[50,7466],[50,7533],[50,7600],[50,7665],[50,7732],[50,7798],[50,7865],[50,7932],[50,8000],[50,8065],[50,8132],[50,8199],[50.1,8265],[54,8332],[71.1,8399],[80.3,8466],[80.8,8533],[80.8,8600],[80.8,8665],[80.8,8732],[80.8,8799],[80.8,8865],[80.8,8932],[81.9,9000],[82.5,9065],[82.8,9131],[83.3,9199],[83.6,9265],[84.2,9333],[84.2,9399],[83.6,9466],[81,9533],[78.5,9600],[77.5,9665],[77.5,9732],[77.5,9799],[77.2,9866],[76.8,9932],[76,9999],[75.3,10065],[75.3,10132],[75.3,10199],[75.3,10265],[75.3,10332],[75.3,10399],[75.3,10466],[75.3,10533],[75.3,10600],[75.3,10665],[76.3,10732],[78.6,10799],[82.4,10865],[83.5,10932],[83.6,11000],[83.6,11065],[86,11132],[87.8,11199],[88.6,11265],[89.9,11332],[90.3,11399],[87.5,11466],[77.4,11533],[73.3,11600],[72.5,11666],[72.5,11732],[72.5,11799],[72.6,11866],[72.8,11932],[72.9,11999],[72.9,12066],[72.9,12132],[72.9,12199],[72.9,12266],[72.9,12332],[72.9,12399],[72.9,12466],[72.9,12533],[72.9,12600],[72.9,12665],[74.6,12732],[83.2,12799],[89.7,12865],[90.1,12932],[90.1,13000],[90.1,13065],[90.1,13132],[90.1,13199],[90.4,13266],[90.6,13332],[90.6,13400],[90.6,13466],[90.6,13533],[90.6,13600],[90.6,13666],[90.6,13732],[90.6,13799],[90.6,13866],[90.6,13932],[90.6,14000],[90.6,14066],[90.6,14132],[90.6,14199],[90.6,14266],[90.6,14332],[90.6,14399],[90.6,14466],[90.6,14533],[90.6,14600],[90.6,14666],[90.6,14732],[90.6,14798],[90.6,14866],[90.6,14932],[90.6,14999],[90.6,15066],[89.9,15132],[87.9,15199],[83.8,15265],[80.8,15332],[80.4,15399],[80.4,15466],[80.4,15533],[80.4,15598],[78.8,15666],[76.4,15732],[75.4,15799],[74.4,15866],[73.8,15932],[72.9,16000],[72.6,16065],[72.6,16132],[72.6,16199],[72.4,16266],[71.9,16332],[71.7,16399],[71.5,16466],[71.5,16533],[71.5,16600],[71.5,16666],[71.5,16732],[71.5,16799],[71.5,16866],[71.5,16932],[71.5,17000],[71.5,17066],[72.4,17132],[73.6,17199],[73.9,17266],[73.9,17332],[73.9,17399],[73.9,17466],[73.9,17533],[73.9,17600],[73.9,17666],[73.9,17732],[73.9,17799],[73.9,17866],[73.9,17932],[73.9,18000],[73.9,18065],[73.9,18132],[73.9,18199],[74.2,18266],[74.3,18332],[74.6,18399],[74.9,18466],[74.9,18533],[74.9,18600],[74.9,18666],[74.9,18733],[74.9,18799],[74.9,18866],[74.9,18932],[74.9,19000],[74.9,19066],[74.9,19134],[74.9,19201],[74.9,19266],[74.9,19333],[74.9,19399],[74.9,19466],[74.9,19533],[74.9,19600],[74.9,19666],[74.9,19733],[74.9,19799],[74.9,19866],[74.9,19933],[74.9,20000],[74.9,20066],[74.9,20134],[74.9,20199],[74.7,20266],[70.6,20333],[60.4,20399],[56.5,20466],[54.2,20533],[52.2,20600],[50.1,20666],[49,20733],[48.9,20799],[48.9,20866],[48.9,20933],[48.9,21000],[48.9,21066],[49.3,21132],[49.6,21199],[49.7,21267],[49.7,21333],[49.7,21399],[49.7,21466],[49.7,21533],[49.7,21600],[49.7,21666],[49.7,21733],[49.7,21799],[49.7,21865],[49.7,21933],[49.7,22000],[49.7,22066],[49.7,22134],[49.7,22199],[49.7,22266],[49.7,22333],[49.7,22399],[49.7,22466],[49.7,22533],[49.7,22601],[49.7,22666],[49.7,22733],[51.1,22799],[71,22866],[87.6,22933],[87.6,23000],[87.6,23066],[87.6,23134],[87.6,23199],[87.1,23266],[83.9,23333],[81.4,23399],[80,23466],[78.5,23533],[77.9,23600],[77.8,23666],[77.8,23733],[77.8,23799],[77.8,23866],[77.8,23933],[77.8,24000],[77.6,24066],[75.1,24134],[73.3,24199],[72.1,24266],[71.4,24333],[71.3,24399],[71.1,24466],[71.1,24533],[71.1,24600],[71.1,24666],[71.1,24733],[71.1,24799],[71.1,24867],[71.1,24932],[71.3,25000],[71.9,25066],[72.8,25134],[73.2,25199],[73.5,25266],[74,25333],[74.2,25399],[74.2,25466],[74.2,25533],[74.2,25601],[74.2,25666],[74.2,25733],[74.2,25800],[74.2,25866],[74.2,25933],[74.2,26000],[74.2,26066],[74.2,26134],[74.2,26199],[74.2,26266],[74.2,26333],[74.2,26400],[74.2,26466],[74.2,26533],[74.2,26601],[74.2,26666],[74.2,26733],[74.2,26799],[74.2,26866],[74.2,26933],[74.2,27000],[74.2,27066],[74.2,27134],[74.2,27199],[74.2,27266],[74.2,27333],[74.2,27399],[74.2,27466],[74.2,27533],[74.2,27601],[74.2,27666],[74.2,27733],[74.2,27799],[74.2,27866],[74.2,27933],[74.2,28000],[74.2,28066],[74.2,28134],[74.2,28199],[74.2,28266],[74.2,28333],[74.2,28400],[74.2,28466],[74.2,28533],[74.2,28601],[74.2,28666],[74.2,28733],[74.2,28800],[74.2,28866],[74.2,28933],[74.2,29000],[74.2,29066],[74.2,29134],[74.2,29201],[74.2,29266],[74.2,29333],[74.2,29399],[74.2,29466]]",1,0,955.511,959.444,75.27777778,2.754,"[{""rating"":75.27777777777777,""responseTime"":2.754000000000019}]",space,3.356,,959.444,Partially,50,959.452,,,[],,0,11,11,11,1,audio/Narrative8Situation2.wav,audio/Narrative7Situation2.wav,audio/Narrative6Situation2.wav,audio/Narrative5Situation2.wav,3,3,3,3,,,,,,,,,,,,,,,,,,,,,,,,,,,,,,,,,,,,,,,
