exp_question,consent.started,consent.stopped,consentResponse.keys,consentResponse.rt,consentResponse.duration,participantID,date,expName,psychopyVersion,OS,frameRate,STUDY_ID,SESSION_ID,opening1.started,opening1.stopped,keyEndingOpening1.keys,keyEndingOpening1.rt,keyEndingOpening1.duration,volumeAdjust.started,volumeAdjust.stopped,endingAdjust.keys,endingAdjust.rt,endingAdjust.duration,opening2.started,opening2.stopped,keyEndingOpening.keys,keyEndingOpening.rt,keyEndingOpening.duration,mouse.x,mouse.y,mouse.leftButton,mouse.midButton,mouse.rightButton,mouse.time,instructionLoop.thisRepN,instructionLoop.thisTrialN,instructionLoop.thisN,instructionLoop.thisIndex,instructionLoop.ran,readyForAudio.started,readyForAudio.stopped,fixation.started,run,audio_played,fixation.stopped,endPractice.keys,audioPre.started,audioPre.stopped,continuousResponses_audio,continuousSlider.response,continuousSlider.rt,intRating.started,intRating.stopped,intQuestionSlider.response,intQuestionSlider.rt,intQuestionSlider.history,confirmResponse.keys,confirmResponse.rt,confirmResponse.duration,catchQuestion.started,catch_label,catch_value,catchQuestion.stopped,catchQuestionSlider.response,catchQuestionSlider.rt,catchQuestionSlider.history,confirmResponse_2.keys,confirmResponse_2.rt,confirmResponse_2.duration,audioRunLoop.thisRepN,audioRunLoop.thisTrialN,audioRunLoop.thisN,audioRunLoop.thisIndex,audioRunLoop.ran,conditions1_1,conditions2_1,conditions1_2,conditions2_2,dur1_1,dur2_1,dur1_2,dur2_2,endPractice.rt,endPractice.duration,runIntervalBreak.started,runIntervalBreak.stopped,endingBreakKey.keys,endingBreakKey.rt,endingBreakKey.duration,connection.started,connection.stopped,connectionEnding.keys,connectionEnding.rt,connectionEnding.duration,readyForText.started,readyForText.stopped,textPre.started,run_dup,textPre.stopped,continuousResponses_text,textRunLoop.thisRepN,textRunLoop.thisTrialN,textRunLoop.thisN,textRunLoop.thisIndex,textRunLoop.ran,text1_1,text1_2,text2_1,text2_2,runBreakText.started,runBreakText.stopped,endingBreakKey_2.keys,endingBreakKey_2.rt,endingBreakKey_2.duration,ending.started,ending.stopped,endingEnding.keys,endingEnding.rt,endingEnding.duration
social,1E-04,3.7375,y,3.4181,,655f8b6cb4482d62ae248259,2024-02-08_15h20.23.485,group3.1-3.2-social-tom,2023.2.2,MacIntel,60.24096386,65c5074098b851296ff0b7ed,65c545697304e12e1ac54f5d,,,,,,,,,,,,,,,,,,,,,,,,,,,,,,,,,,,,,,,,,,,,,,,,,,,,,,,,,,,,,,,,,,,,,,,,,,,,,,,,,,,,,,,,,,,,,,,,,,,,,,,,,,
,,,,,,655f8b6cb4482d62ae248259,2024-02-08_15h20.23.485,group3.1-3.2-social-tom,2023.2.2,MacIntel,60.24096386,65c5074098b851296ff0b7ed,65c545697304e12e1ac54f5d,3.7379,5.8374,space,2.077,,,,,,,,,,,,,,,,,,,,,,,,,,,,,,,,,,,,,,,,,,,,,,,,,,,,,,,,,,,,,,,,,,,,,,,,,,,,,,,,,,,,,,,,,,,,,,,,,,,,,,
,,,,,,655f8b6cb4482d62ae248259,2024-02-08_15h20.23.485,group3.1-3.2-social-tom,2023.2.2,MacIntel,60.24096386,65c5074098b851296ff0b7ed,65c545697304e12e1ac54f5d,,,,,,5.8377,13.3203,space,7.1552,,,,,,,,,,,,,,,,,,,,,,,,,,,,,,,,,,,,,,,,,,,,,,,,,,,,,,,,,,,,,,,,,,,,,,,,,,,,,,,,,,,,,,,,,,,,,,,,,
,,,,,,655f8b6cb4482d62ae248259,2024-02-08_15h20.23.485,group3.1-3.2-social-tom,2023.2.2,MacIntel,60.24096386,65c5074098b851296ff0b7ed,65c545697304e12e1ac54f5d,,,,,,,,,,,13.3241,17.337,space,4,,[],[],[],[],[],[],0,0,0,0,1,,,,,,,,,,,,,,,,,,,,,,,,,,,,,,,,,,,,,,,,,,,,,,,,,,,,,,,,,,,,,,,,,,,,,,,,,,,,,,,,
,,,,,,655f8b6cb4482d62ae248259,2024-02-08_15h20.23.485,group3.1-3.2-social-tom,2023.2.2,MacIntel,60.24096386,65c5074098b851296ff0b7ed,65c545697304e12e1ac54f5d,,,,,,,,,,,17.3374,23.5877,space,6.2102,,[],[],[],[],[],[],1,0,1,0,1,,,,,,,,,,,,,,,,,,,,,,,,,,,,,,,,,,,,,,,,,,,,,,,,,,,,,,,,,,,,,,,,,,,,,,,,,,,,,,,,
,,,,,,655f8b6cb4482d62ae248259,2024-02-08_15h20.23.485,group3.1-3.2-social-tom,2023.2.2,MacIntel,60.24096386,65c5074098b851296ff0b7ed,65c545697304e12e1ac54f5d,,,,,,,,,,,23.5882,25.8714,space,2.2506,,[],[],[],[],[],[],2,0,2,0,1,,,,,,,,,,,,,,,,,,,,,,,,,,,,,,,,,,,,,,,,,,,,,,,,,,,,,,,,,,,,,,,,,,,,,,,,,,,,,,,,
,,,,,,655f8b6cb4482d62ae248259,2024-02-08_15h20.23.485,group3.1-3.2-social-tom,2023.2.2,MacIntel,60.24096386,65c5074098b851296ff0b7ed,65c545697304e12e1ac54f5d,,,,,,,,,,,25.872,40.2051,space,14.3161,,[],[],[],[],[],[],3,0,3,0,1,,,,,,,,,,,,,,,,,,,,,,,,,,,,,,,,,,,,,,,,,,,,,,,,,,,,,,,,,,,,,,,,,,,,,,,,,,,,,,,,
,,,,,,655f8b6cb4482d62ae248259,2024-02-08_15h20.23.485,group3.1-3.2-social-tom,2023.2.2,MacIntel,60.24096386,65c5074098b851296ff0b7ed,65c545697304e12e1ac54f5d,,,,,,,,,,,40.2055,43.5385,space,3.3172,,[],[],[],[],[],[],4,0,4,0,1,,,,,,,,,,,,,,,,,,,,,,,,,,,,,,,,,,,,,,,,,,,,,,,,,,,,,,,,,,,,,,,,,,,,,,,,,,,,,,,,
,,,,,,655f8b6cb4482d62ae248259,2024-02-08_15h20.23.485,group3.1-3.2-social-tom,2023.2.2,MacIntel,60.24096386,65c5074098b851296ff0b7ed,65c545697304e12e1ac54f5d,,,,,,,,,,,,,,,,,,,,,,,,,,,43.5412,46.1221,46.1469,1,audio/Narrative13Situation2.wav,48.1554,,48.1557,77.9067,"[[999,2],[999,99],[999,182],[999,266],[999,348],[999,432],[999,516],[999,599],[999,682],[999,766],[999,848],[999,932],[999,1016],[999,1098],[999,1182],[999,1266],[999,1349],[999,1432],[999,1516],[999,1599],[999,1682],[999,1765],[999,1849],[999,1932],[999,2016],[999,2099],[999,2182],[999,2266],[999,2349],[999,2432],[999,2515],[999,2599],[999,2681],[999,2766],[999,2849],[999,2932],[999,3015],[999,3099],[999,3182],[999,3266],[999,3349],[999,3431],[999,3516],[999,3599],[999,3682],[999,3766],[999,3849],[999,3932],[999,4016],[999,4099],[999,4182],[999,4266],[999,4349],[999,4432],[999,4516],[999,4599],[999,4681],[999,4765],[999,4849],[999,4932],[999,5016],[999,5099],[999,5182],[999,5266],[999,5348],[999,5432],[999,5516],[999,5599],[999,5682],[999,5766],[999,5848],[999,5932],[999,6016],[999,6098],[999,6181],[999,6265],[999,6349],[999,6431],[999,6516],[999,6598],[999,6682],[999,6766],[999,6849],[999,6931],[999,7016],[999,7099],[999,7182],[999,7265],[999,7349],[999,7432],[999,7516],[999,7599],[999,7682],[999,7765],[999,7848],[999,7933],[999,8016],[999,8099],[999,8183],[999,8265],[999,8349],[999,8432],[999,8515],[999,8598],[999,8682],[999,8766],[999,8848],[999,8933],[999,9016],[999,9098],[999,9183],[999,9266],[999,9349],[999,9432],[999,9516],[999,9599],[999,9682],[999,9765],[999,9849],[999,9932],[999,10016],[999,10099],[999,10182],[999,10266],[999,10349],[999,10433],[999,10515],[999,10599],[999,10682],[999,10765],[999,10849],[999,10932],[999,11015],[999,11099],[999,11182],[999,11266],[999,11349],[999,11432],[999,11516],[999,11599],[999,11683],[999,11765],[999,11849],[999,11932],[999,12016],[999,12099],[999,12183],[999,12266],[999,12349],[999,12433],[999,12516],[999,12599],[999,12683],[999,12766],[999,12849],[999,12932],[999,13015],[999,13099],[999,13183],[999,13265],[999,13348],[999,13433],[999,13516],[999,13599],[999,13683],[999,13766],[999,13849],[999,13931],[999,14016],[999,14099],[999,14182],[999,14266],[999,14349],[999,14432],[999,14516],[999,14599],[999,14682],[999,14765],[999,14849],[999,14933],[999,15016],[999,15098],[999,15182],[999,15266],[999,15349],[999,15433],[999,15516],[999,15599],[999,15683],[50.4,15766],[50.7,15849],[50.7,15933],[50.4,16017],[50.2,16100],[49.9,16182],[49.9,16265],[49.9,16349],[49.9,16433],[49.9,16516],[49.9,16600],[49.9,16683],[49.9,16766],[49.9,16849],[49.9,16933],[49.9,17016],[49.9,17099],[49.9,17183],[49.9,17266],[49.9,17349],[49.9,17433],[49.9,17516],[49.9,17600],[49.9,17683],[49.9,17766],[49.9,17849],[49.9,17933],[50.5,18017],[56.8,18100],[60.6,18182],[61.4,18267],[61.4,18349],[61.4,18433],[61.4,18516],[61.4,18599],[61.4,18683],[61.4,18766],[61.4,18850],[61.4,18933],[61.4,19016],[61.4,19099],[61.4,19183],[61.4,19266],[61.4,19350],[61.4,19433],[61.4,19515],[61.4,19599],[61.4,19682],[61.4,19765],[61.4,19849],[61.4,19933],[61.4,20016],[61.4,20100],[61.4,20183],[61.4,20265],[61.4,20350],[61.4,20433],[61.4,20516],[61.4,20599],[61.4,20682],[61.4,20766],[61.4,20850],[61.4,20933],[61.4,21016],[61.4,21100],[61.4,21182],[61.4,21266],[61.4,21350],[61.4,21433],[61.4,21516],[61.4,21599],[61.4,21683],[61.4,21766],[61.4,21849],[61.4,21932],[61.4,22016],[61.4,22099],[61.4,22183],[61.4,22266],[61.4,22350],[61.4,22433],[61.4,22517],[61.4,22599],[61.4,22683],[61.4,22766],[61.4,22850],[61.4,22933],[61.4,23016],[61.4,23099],[61.4,23183],[61.4,23266],[61.4,23349],[61.4,23433],[61.4,23516],[61.4,23600],[61.4,23683],[61.4,23766],[61.4,23850],[61.4,23933],[61.4,24016],[61.4,24100],[61.4,24183],[61.4,24265],[61.4,24350],[61.4,24433],[61.4,24516],[61.4,24600],[61.4,24683],[61.4,24765],[61.4,24850],[61.4,24933],[61.4,25016],[61.4,25099],[61.4,25183],[61.4,25267],[61.4,25350],[61.4,25433],[61.4,25516],[61.4,25600],[61.4,25683],[61.4,25766],[61.4,25850],[61.4,25933],[61.4,26016],[61.4,26100],[61.4,26183],[61.4,26267],[61.4,26350],[61.4,26433],[61.4,26517],[61.4,26600],[61.4,26683],[61.4,26767],[61.4,26850],[61.4,26933],[61.4,27017],[61.4,27100],[61.4,27183],[61.4,27266],[61.4,27350],[61.4,27433],[61.4,27517],[61.4,27600],[61.4,27682],[61.4,27766],[61.4,27850],[61.4,27933],[61.4,28017],[61.4,28099],[61.4,28183],[61.4,28267],[61.4,28350],[61.4,28433],[61.4,28515],[61.4,28599],[61.4,28683],[61.4,28766],[61.4,28850],[61.4,28933],[61.4,29017],[61.4,29100],[61.4,29183],[61.4,29266],[61.4,29349],[61.4,29433],[61.4,29516],[61.4,29599],[60.6,29683]]",1,0,77.9069,82.9911,50.69010417,4.4806,"[{""rating"":40.70746527777778,""responseTime"":2.9981000000238396},{""rating"":50.69010416666667,""responseTime"":4.480600000023841}]",space,4.5433,,82.9916,Partially,50,89.0247,49.88769531,5.6537,"[{""rating"":49.8876953125,""responseTime"":3.078900000035773},{""rating"":49.8876953125,""responseTime"":5.4629000000357735},{""rating"":49.8876953125,""responseTime"":5.653699999988078}]",space,5.4943,,0,0,0,0,1,audio/Narrative13Situation2.wav,audio/Narrative13Situation2.wav,audio/Narrative13Situation2.wav,audio/Narrative13Situation2.wav,2,2,2,2,,,,,,,,,,,,,,,,,,,,,,,,,,,,,,,,,,,,,
,,,,,,655f8b6cb4482d62ae248259,2024-02-08_15h20.23.485,group3.1-3.2-social-tom,2023.2.2,MacIntel,60.24096386,65c5074098b851296ff0b7ed,65c545697304e12e1ac54f5d,,,,,,,,,,,,,,,,,,,,,,,,,,,,,89.0256,1,audio/Narrative8Situation1.wav,90.5904,space,90.5905,106.5235,"[[49.9,1833],[48.1,1916],[47.5,1998],[45.7,2083],[45.2,2165],[45.1,2248],[45.1,2332],[45.1,2416],[45.1,2499],[45.1,2582],[45.1,2665],[45.1,2749],[45.1,2833],[45.1,2915],[45.1,2999],[45.1,3082],[45.1,3166],[45.1,3249],[45.1,3332],[45.1,3416],[45.1,3499],[45.1,3582],[45.1,3666],[45.1,3749],[45.1,3832],[45.1,3916],[45.1,3999],[45.1,4083],[45.1,4166],[45.1,4249],[45.1,4332],[45.1,4416],[45.1,4499],[45.1,4582],[45.1,4665],[45.1,4749],[45.1,4832],[45.1,4916],[45.1,4999],[45.1,5082],[45.1,5166],[45.1,5249],[45.1,5332],[45.1,5416],[45.1,5499],[45.1,5582],[45.1,5666],[45.1,5748],[45.1,5832],[45.1,5915],[45.1,5999],[45.1,6082],[45.1,6166],[45.1,6249],[45.1,6333],[45.1,6416],[45.1,6499],[45.1,6583],[45.1,6666],[45.1,6749],[45.1,6832],[45.1,6915],[45.1,6998],[45.1,7083],[45.1,7165],[45.1,7249],[45.1,7332],[45.1,7415],[45.1,7499],[45.1,7583],[45.1,7666],[45.1,7749],[45.1,7833],[45.1,7915],[45.1,7998],[45.1,8083],[45.1,8166],[45.1,8249],[45.1,8332],[45.1,8415],[45.1,8499],[45.1,8583],[45.1,8666],[45.1,8750],[45.1,8833],[45.1,8916],[45.1,8998],[45.1,9083],[45.1,9166],[45.1,9249],[45.1,9333],[45.1,9416],[45.1,9499],[45.1,9583],[45.1,9665],[45.1,9749],[45.1,9833],[45.1,9916],[45.1,9999],[45.1,10083],[45.1,10166],[45.1,10249],[45.1,10333],[45.1,10416],[45.1,10500],[45.1,10583],[45.1,10666],[45.1,10749],[45.1,10833],[45.1,10916],[45.1,11000],[45.1,11082],[45.1,11166],[45.1,11250],[45.1,11333],[45.1,11416],[45.1,11499],[45.1,11583],[45.1,11666],[45.1,11748],[45.1,11833],[45.1,11915],[45.1,11998],[45.1,12082],[45.1,12165],[45.1,12250],[45.1,12332],[45.1,12416],[45.1,12499],[45.1,12582],[45.1,12666],[45.1,12750],[45.1,12833],[45.1,12915],[45.1,12999],[45.1,13083],[45.1,13166],[45.1,13248],[45.1,13333],[45.1,13416],[45.1,13499],[45.1,13583],[45.1,13666],[45.1,13749],[45.1,13833],[45.1,13916],[45.1,13999],[45.1,14082],[45.1,14165],[45.1,14250],[45.1,14333],[45.1,14416],[45.1,14500],[45.1,14583],[45.1,14666],[45.1,14750],[45.1,14833],[45.1,14916],[45.1,14998],[45.1,15083],[45.1,15166],[45.1,15250],[45.1,15333],[45.1,15417],[45.1,15500],[45.1,15583],[45.1,15666],[45.1,15750],[45.1,15832],[45.1,15916]]",1,0,106.5239,108.7242,50.00054253,1.105,"[{""rating"":50.00054253472223,""responseTime"":1.105000000000004}]",space,1.6677,,108.7243,Not at all,0,108.7291,,,[],,,,0,1,1,1,1,audio/Narrative7Situation1.wav,audio/Narrative8Situation1.wav,audio/Narrative5Situation1.wav,audio/Narrative6Situation1.wav,2,5,5,2,1.5402,,,,,,,,,,,,,,,,,,,,,,,,,,,,,,,,,,,,
,,,,,,655f8b6cb4482d62ae248259,2024-02-08_15h20.23.485,group3.1-3.2-social-tom,2023.2.2,MacIntel,60.24096386,65c5074098b851296ff0b7ed,65c545697304e12e1ac54f5d,,,,,,,,,,,,,,,,,,,,,,,,,,,,,108.7293,1,audio/Narrative8Situation2.wav,109.9408,space,109.9409,120.0749,"[[49.3,8165],[49.3,8250],[49.3,8333],[49.3,8416],[49.3,8499],[49.3,8582],[49.3,8666],[49.3,8749],[49.3,8833],[49.3,8916],[48.1,9000],[43.9,9083],[37.7,9166],[36.2,9249],[36.2,9332],[34.6,9417],[32.2,9500],[31.6,9583],[31.6,9666],[31.6,9750],[31.6,9833],[31.6,9916],[31.6,10000],[31.6,10083]]",1,0,120.0751,123.6915,4.763454861,2.998,"[{""rating"":4.763454861111111,""responseTime"":2.9979999999999905}]",space,3.0803,,123.6917,Definitely yes,100,123.6958,,,[],,,,0,2,2,2,1,audio/Narrative7Situation2.wav,audio/Narrative8Situation2.wav,audio/Narrative5Situation2.wav,audio/Narrative6Situation2.wav,3,3,3,3,1.2,,,,,,,,,,,,,,,,,,,,,,,,,,,,,,,,,,,,
,,,,,,655f8b6cb4482d62ae248259,2024-02-08_15h20.23.485,group3.1-3.2-social-tom,2023.2.2,MacIntel,60.24096386,65c5074098b851296ff0b7ed,65c545697304e12e1ac54f5d,,,,,,,,,,,,,,,,,,,,,,,,,,,,,123.6961,1,audio/Narrative8Situation3.wav,125.6918,space,125.6918,148.0759,[],1,0,148.0761,152.8593,56.11707899,3.7215,"[{""rating"":51.271158854166664,""responseTime"":1.5375999999642431},{""rating"":56.11707899305556,""responseTime"":3.721499999999992}]",space,4.2358,,152.8594,Definitely yes,100,152.862,,,[],,,,0,3,3,3,1,audio/Narrative7Situation3.wav,audio/Narrative8Situation3.wav,audio/Narrative5Situation3.wav,audio/Narrative6Situation3.wav,8,4,3,5,1.989,,,,,,,,,,,,,,,,,,,,,,,,,,,,,,,,,,,,
,,,,,,655f8b6cb4482d62ae248259,2024-02-08_15h20.23.485,group3.1-3.2-social-tom,2023.2.2,MacIntel,60.24096386,65c5074098b851296ff0b7ed,65c545697304e12e1ac54f5d,,,,,,,,,,,,,,,,,,,,,,,,,,,,,152.8623,1,audio/Narrative8Situation4.wav,153.6594,space,153.6594,167.8432,"[[999,0],[999,82],[999,166],[999,249],[999,332],[999,416],[999,499],[999,583],[999,666],[999,749],[999,832],[999,916],[999,999],[999,1083],[999,1166],[999,1248],[999,1331],[999,1416],[999,1499],[999,1583],[999,1665],[999,1749],[999,1833],[999,1916],[999,1998],[999,2083],[999,2166],[999,2249],[999,2333],[999,2416],[999,2499],[999,2583],[999,2666],[999,2749],[999,2833],[999,2916],[999,2998],[999,3083],[999,3166],[999,3249],[999,3332],[999,3416],[999,3499],[999,3582],[999,3665],[999,3749],[999,3833],[999,3916],[999,3998],[999,4083],[999,4165],[999,4249],[999,4333],[999,4416],[999,4499],[999,4583],[999,4666],[999,4749],[999,4833],[999,4915],[999,4998],[999,5082],[999,5166],[999,5249],[999,5333],[999,5416],[999,5498],[999,5583],[999,5666],[999,5749],[999,5833],[999,5915],[999,5998],[999,6083],[999,6165],[999,6249],[999,6333],[999,6416],[999,6499],[999,6583],[999,6666],[999,6749],[999,6833],[999,6916],[999,6998],[999,7083],[999,7166],[999,7249],[999,7333],[999,7416],[999,7500],[999,7583],[999,7666],[999,7750],[999,7832],[999,7916],[999,7999],[999,8083],[999,8165],[999,8249],[999,8332],[999,8416],[999,8500],[999,8583],[999,8666],[999,8750],[999,8832],[999,8916],[999,8999],[999,9083],[999,9166],[999,9249],[999,9333],[999,9416],[999,9499],[999,9583],[999,9665],[999,9749],[999,9833],[999,9915],[999,10000],[999,10083],[999,10166],[999,10249],[999,10332],[999,10415],[999,10498],[999,10583],[999,10666],[999,10750],[999,10833],[999,10916],[999,11000],[999,11083],[999,11165],[999,11250],[999,11333],[999,11416],[999,11499],[999,11582],[999,11666],[999,11750],[999,11833],[999,11916],[999,12000],[999,12083],[999,12166],[999,12249],[999,12332],[999,12416],[999,12500],[999,12582],[999,12665],[999,12750],[999,12833],[999,12916],[999,13000],[999,13083],[999,13166],[999,13250],[999,13333],[999,13416],[999,13500],[999,13583],[999,13665],[999,13750],[999,13833],[999,13916],[999,14000],[999,14082],[999,14166]]",1,0,167.8434,171.0266,20.91471354,2.736,"[{""rating"":22.24609375,""responseTime"":1.4105000000000132},{""rating"":12.501085069444445,""responseTime"":2.0536000000238346},{""rating"":20.914713541666668,""responseTime"":2.73599999999999}]",space,2.6608,,171.0267,Definitely yes,100,171.0292,,,[],,,,0,4,4,4,1,audio/Narrative7Situation4.wav,audio/Narrative8Situation4.wav,audio/Narrative5Situation4.wav,audio/Narrative6Situation4.wav,3,3,1,2,0.7911,,,,,,,,,,,,,,,,,,,,,,,,,,,,,,,,,,,,
,,,,,,655f8b6cb4482d62ae248259,2024-02-08_15h20.23.485,group3.1-3.2-social-tom,2023.2.2,MacIntel,60.24096386,65c5074098b851296ff0b7ed,65c545697304e12e1ac54f5d,,,,,,,,,,,,,,,,,,,,,,,,,,,,,171.0296,1,audio/Narrative8Situation5.wav,172.7099,space,172.71,180.9605,"[[23.9,1666],[42.8,1750],[49.1,1832],[49.1,1916],[49.1,1999],[52.3,2083],[55.4,2167],[55.7,2249],[55.7,2333],[55.7,2416],[55.7,2498],[55.7,2583],[55.7,2666],[55.7,2749],[55.7,2833],[55.7,2916],[55.7,2998],[55.7,3083],[55.7,3166],[55.7,3248],[55.7,3333],[55.7,3416],[55.7,3499],[55.7,3583],[55.7,3666],[55.7,3749],[55.7,3832],[55.7,3916],[55.7,4000],[55.7,4082],[55.7,4166],[55.7,4249],[54.3,4332],[51,4416],[50.5,4500],[50.5,4583],[50.5,4666],[50.5,4750],[50.5,4832],[50.5,4916],[50.5,4998],[50.5,5083],[50.5,5166],[50.5,5250],[50.5,5333],[50.5,5416],[50.5,5500],[50.5,5583],[50.5,5666],[50.5,5748],[50.5,5833],[50.5,5916],[50.5,6000],[50.5,6083],[50.5,6166],[50.5,6250],[50.5,6333],[50.5,6416],[50.5,6499],[50.5,6583],[50.5,6666],[50.5,6749],[50.5,6833],[50.5,6916],[50.5,6998],[50.5,7083],[50.5,7166],[50.5,7249],[50.5,7333],[50.5,7416],[50.5,7500],[50.5,7583],[50.5,7666],[50.5,7750],[50.5,7832],[50.5,7915],[50.5,8000],[50.5,8083],[50.5,8166],[50.5,8250]]",1,0,180.9608,182.6769,50.10742188,1.3141,"[{""rating"":50.107421875,""responseTime"":1.3140999999642418}]",space,1.1679,,182.6772,Not at all,0,182.681,,,[],,,,0,5,5,5,1,audio/Narrative7Situation5.wav,audio/Narrative8Situation5.wav,audio/Narrative5Situation5.wav,audio/Narrative6Situation5.wav,5,2,5,2,1.6728,,,,,,,,,,,,,,,,,,,,,,,,,,,,,,,,,,,,
,,,,,,655f8b6cb4482d62ae248259,2024-02-08_15h20.23.485,group3.1-3.2-social-tom,2023.2.2,MacIntel,60.24096386,65c5074098b851296ff0b7ed,65c545697304e12e1ac54f5d,,,,,,,,,,,,,,,,,,,,,,,,,,,,,182.6814,1,audio/Narrative8Situation6.wav,184.6927,,184.6928,191.1609,[],1,0,191.1611,192.5441,1.06499566,0.9535,"[{""rating"":1.0649956597222232,""responseTime"":0.9534999999999911}]",space,0.844,,192.5442,Partially,50,192.5482,,,[],,,,0,6,6,6,1,audio/Narrative7Situation6.wav,audio/Narrative8Situation6.wav,audio/Narrative5Situation6.wav,audio/Narrative6Situation6.wav,3,2,3,2,,,,,,,,,,,,,,,,,,,,,,,,,,,,,,,,,,,,,
,,,,,,655f8b6cb4482d62ae248259,2024-02-08_15h20.23.485,group3.1-3.2-social-tom,2023.2.2,MacIntel,60.24096386,65c5074098b851296ff0b7ed,65c545697304e12e1ac54f5d,,,,,,,,,,,,,,,,,,,,,,,,,,,,,192.5484,1,audio/Narrative8Situation7.wav,193.8937,space,193.8938,206.011,"[[4.1,11084],[45.9,11167],[52.1,11499],[50,11583],[49.2,11667],[49.2,11749],[49.2,11833],[49.2,11917],[40.1,12001],[26.5,12084]]",1,0,206.011,207.3936,23.65614149,0.8309,"[{""rating"":23.656141493055554,""responseTime"":0.8308999999761397}]",space,0.8435,,207.3937,Partially,50,207.3962,,,[],,,,0,7,7,7,1,audio/Narrative7Situation7.wav,audio/Narrative8Situation7.wav,audio/Narrative5Situation7.wav,audio/Narrative6Situation7.wav,5,3,4,5,1.3368,,,,,,,,,,,,,,,,,,,,,,,,,,,,,,,,,,,,
,,,,,,655f8b6cb4482d62ae248259,2024-02-08_15h20.23.485,group3.1-3.2-social-tom,2023.2.2,MacIntel,60.24096386,65c5074098b851296ff0b7ed,65c545697304e12e1ac54f5d,,,,,,,,,,,,,,,,,,,,,,,,,,,,,207.3965,1,audio/Narrative8Situation8.wav,208.9613,space,208.9614,221.8287,[],1,0,221.8288,224.6609,29.48350694,2.4696,"[{""rating"":29.483506944444443,""responseTime"":2.469599999964231}]",space,2.2952,,224.661,Partially,50,224.6636,,,[],,,,0,8,8,8,1,audio/Narrative7Situation8.wav,audio/Narrative8Situation8.wav,audio/Narrative5Situation8.wav,audio/Narrative6Situation8.wav,2,3,3,5,1.5486,,,,,,,,,,,,,,,,,,,,,,,,,,,,,,,,,,,,
,,,,,,655f8b6cb4482d62ae248259,2024-02-08_15h20.23.485,group3.1-3.2-social-tom,2023.2.2,MacIntel,60.24096386,65c5074098b851296ff0b7ed,65c545697304e12e1ac54f5d,,,,,,,,,,,,,,,,,,,,,,,,,,,,,224.6639,1,audio/Narrative8Situation9.wav,227.6787,,227.6788,239.0126,[],1,0,239.0127,241.9121,17.87706163,2.6378,"[{""rating"":11.090494791666666,""responseTime"":2.0373000000118964},{""rating"":17.877061631944446,""responseTime"":2.6378000000119073}]",space,2.3579,,241.9121,Not at all,0,241.9154,,,[],,,,0,9,9,9,1,audio/Narrative7Situation9.wav,audio/Narrative8Situation9.wav,audio/Narrative5Situation9.wav,audio/Narrative6Situation9.wav,2,3,3,4,,,,,,,,,,,,,,,,,,,,,,,,,,,,,,,,,,,,,
,,,,,,655f8b6cb4482d62ae248259,2024-02-08_15h20.23.485,group3.1-3.2-social-tom,2023.2.2,MacIntel,60.24096386,65c5074098b851296ff0b7ed,65c545697304e12e1ac54f5d,,,,,,,,,,,,,,,,,,,,,,,,,,,,,241.9156,1,audio/Narrative7Situation1.wav,243.9293,,243.9293,299.8143,"[[16.3,6499],[0.6,7250],[12.3,7333],[16.1,7417],[16.1,7500],[16.1,7583],[16.1,7665],[16.1,7749],[16.1,7833],[16.1,7917],[16.1,7999],[16.1,8082],[16.1,8166],[16.1,8249],[16.1,8333],[16.1,8416],[16.1,8500],[16.1,8582],[16.1,8666],[16.1,8749],[16.1,8832],[16.1,8916],[16.1,8999],[16.1,9083],[16.1,9165],[16.1,9250],[16.1,9332],[16.1,9416],[16.1,9499],[16.1,9583],[16.1,9666],[16.1,9749],[16.1,9833],[16.1,9915],[16.1,10000],[16.1,10082],[16.1,10166],[16.1,10250],[16.1,10332],[16.1,10416],[16.2,10500],[16.9,10582],[17.1,10666],[17.8,10750],[18.2,10833],[18.2,10916],[18.2,11000],[18.2,11083],[18.2,11166],[18.2,11250],[18.2,11333],[18.2,11416],[18.2,11500],[18.2,11582],[18.2,11665],[18.2,11749],[24.9,11834],[39.6,11915],[42.1,11999],[42.1,12083],[42.1,12166],[42.1,12250],[42.1,12333],[42.1,12417],[42.1,12500],[42.1,12583],[42.1,12667],[42.1,12750],[42.1,12832],[42.1,12915],[42.1,13000],[42.1,13083],[42.1,13166],[42.1,13249],[42.1,13332],[42.1,13417],[42.1,13500],[42.1,13583],[42.1,13667],[42.1,13750],[42.1,13832],[42.1,13917],[42.1,14000],[42.1,14083],[42.1,14167],[42.1,14250],[42.1,14333],[42.1,14417],[42.1,14500],[42.1,14582],[42.1,14667],[42.1,14750],[42.1,14833],[42.1,14917],[42.1,14999],[39.9,15083],[35.6,15167],[30.8,15250],[28.9,15334],[25.2,15416],[20.1,15500],[19.3,15584],[19.3,15667],[18.8,15749],[18.6,15833],[18.6,15917],[18.6,16000],[18.6,16083],[18.6,16167],[18.6,16250],[18.6,16332],[18.6,16415],[18.6,16500],[18.6,16583],[18.6,16665],[18.6,16750],[18.6,16833],[18.6,16916],[18.6,17000],[18.6,17083],[18.6,17167],[20.4,17250],[19.5,17334],[12.6,17417],[11.3,17501],[11.3,17583],[11.3,17665],[11.3,17750],[11.3,17833],[4.8,17916],[0.7,18000],[0.6,18083],[0.6,18167],[0.7,18250],[1.4,18334],[8.1,18416],[9.2,18500],[9.2,18583],[9.2,18666],[9.2,18750],[18.9,21751],[19.3,21834],[18.6,21916],[18.5,22000],[18.5,22084],[18.5,22166],[18.5,22250],[18.5,22333],[18.5,22417],[18.5,22500],[18.5,22582],[18.5,22666],[18.5,22750],[18.5,22834],[18.5,22916],[18.5,22999],[18.5,23083],[18.5,23165],[18.5,23250],[18.5,23333],[18.5,23415],[18.5,23500],[18.5,23583],[18.5,23667],[18.5,23750],[18.5,23834],[18.5,23917],[18.5,24000],[18.5,24084],[18.5,24166],[18.5,24250],[18.5,24333],[18.5,24417],[18.5,24500],[18.5,24584],[18.5,24667],[18.5,24749],[18.5,24834],[18.5,24916],[18.5,25000],[18.5,25084],[18.5,25167],[18.5,25250],[18.5,25334],[18.5,25417],[18.5,25499],[18.5,25583],[18.5,25666],[18.5,25750],[18.5,25834],[18.5,25917],[18.5,26000],[18.5,26084],[18.5,26167],[18.5,26250],[18.5,26334],[18.5,26417],[18.5,26500],[18.5,26584],[18.5,26667],[18.5,26750],[18.5,26834],[18.5,26917],[18.5,27000],[18.5,27084],[18.5,27167],[18.5,27250],[18.5,27334],[18.5,27417],[18.5,27500],[18.5,27584],[18.5,27667],[18.5,27750],[18.5,27833],[18.5,27916],[18.5,28000],[18.5,28084],[18.7,28167],[20.8,28250],[22.5,28333],[22.9,28418],[23,28500],[23,28584],[23,28667],[23,28749],[23,28833],[23,28917],[23,29000],[23,29084],[23,29166],[23,29250],[23,29333],[23,29417],[23,29500],[23,29583],[23,29667],[23,29750],[23,29834],[23,29917],[23,30000],[23,30084],[23,30167],[23,30250],[23,30334],[27.6,30417],[37.9,30500],[40.5,30584],[40.6,30666],[40.6,30750],[40.6,30833],[44.9,30918],[51.5,31000],[51.8,31084],[51.3,31166],[51.1,31251],[51,31334],[51,31417],[51,31501],[50.6,31584],[50.5,31668],[50.5,31750],[50.3,31834],[50.3,31917],[50.3,32000],[50.3,32084],[50.2,32167],[50.2,32250],[50.2,32334],[50.2,32417],[50.2,32500],[50.2,32584],[50.2,32667],[50.2,32751],[50.2,32834],[50.2,32917],[50.2,33001],[50.2,33083],[50.2,33167],[50.2,33250],[50.2,33334],[50.2,33416],[50.2,33501],[50.2,33583],[50.2,33667],[50.2,33750],[50.2,33833],[50.2,33916],[50.2,34001],[50.2,34083],[50.2,34166],[50.2,34250],[50.2,34334],[50.2,34417],[50.2,34501],[50.2,34584],[50.2,34667],[50.2,34751],[50.2,34834],[50.2,34917],[50.2,35001],[50.2,35084],[50.2,35168],[50.2,35250],[50.2,35334],[50.2,35416],[50.2,35500],[50.2,35584],[50.2,35667],[50.2,35751],[50.2,35834],[50.2,35916],[50.2,36000],[50.2,36083],[50.2,36167],[50.2,36251],[50.2,36334],[50.2,36416],[50.2,36501],[50.2,36584],[50.2,36667],[50.2,36750],[50.2,36834],[50.2,36917],[50.2,37001],[50.2,37084],[50.2,37167],[50.2,37251],[50.2,37333],[50.2,37417],[50.2,37500],[50.2,37584],[50.2,37668],[50.2,37751],[50.2,37833],[50.2,37916],[50.2,38000],[50.2,38084],[50.2,38167],[50.2,38251],[50.2,38334],[50.2,38418],[50.2,38500],[50.2,38584],[50.2,38666],[50.2,38751],[50.2,38834],[50.2,38918],[50.2,39001],[50.2,39084],[50.2,39167],[50.2,39251],[50.2,39334],[50.2,39417],[50.2,39501],[50.2,39583],[50.2,39667],[50.2,39751],[50.2,39834],[50.2,39917],[50.2,40001],[49.9,40084],[49.4,40167],[49.3,40251],[49.3,40334],[49.3,40418],[49.3,40502],[49,40585],[49,40667],[49,40751],[48.8,40834],[47.5,40918],[46.4,41001],[46.7,41085],[47.9,41168],[48.6,41251],[48.9,41334],[48.9,41417],[49.1,41501],[49.1,41585],[49.1,41668],[49,41751],[49,41833],[49,41918],[49,42001],[49,42084],[49,42168],[49,42251],[49,42334],[48.8,42418],[44.9,42500],[43.5,42584],[44.6,42667],[44.7,42751],[44.5,42833],[44.5,42917],[44.5,43000],[44.5,43084],[44.5,43167],[44.5,43250],[44.5,43334],[43.4,43418],[40.5,43501],[40.1,43584],[40.1,43668],[40.1,43750],[40.2,43835],[40.2,43918],[40,44001],[39.9,44084],[39.9,44168],[39.9,44251],[39.9,44334],[39.9,44418],[39.9,44501],[39.9,44584],[39.9,44667],[39.9,44751],[39.9,44834],[39.9,44918],[39.9,45000],[39.9,45083],[39.9,45168],[39.9,45250],[39.9,45334],[39.9,45418],[39.9,45501],[39.9,45583],[39.9,45668],[39.9,45751],[39.9,45833],[39.9,45918],[39.9,46001],[39.9,46084],[39.9,46168],[39.9,46251],[39.9,46334],[39.9,46417],[39.9,46501],[39.9,46583],[39.9,46668],[39.9,46751],[39.9,46834],[39.9,46918],[39.9,47001],[39.9,47084],[39.9,47168],[38.7,47251],[28.7,47335],[37,48917],[37.1,49001],[37.1,49083],[37.1,49168],[37.1,49250],[37.1,49333],[37.1,49417],[37.1,49500],[37.1,49584],[37.1,49667],[37.1,49750],[37.1,49834],[37.1,49917],[37.1,50000],[37.1,50084],[37.1,50167],[37.1,50251],[37.1,50334],[37.1,50417],[37.1,50501],[37.1,50584],[37.1,50666],[37.1,50751],[37.1,50833],[37.1,50917],[37.1,51001],[37.1,51084],[37.1,51167],[37.1,51251],[37.1,51334],[37.1,51418],[37.1,51501],[37.1,51583],[37.1,51667],[37.1,51751],[37.1,51834],[37.1,51916],[37.1,52001],[37.1,52084],[37.1,52168],[37.1,52251],[37.1,52333],[37.1,52418],[37.1,52501],[37.1,52584],[37.1,52668],[37.1,52750],[37.1,52835],[37.1,52918],[37.1,53001],[37.1,53084],[37.1,53167],[37.1,53250],[37.1,53334],[37.1,53417],[37.1,53501],[37.1,53585],[37.1,53668],[37.1,53751],[37.1,53834],[37.1,53918],[37.1,54001],[37.1,54085],[37.1,54167],[37.1,54251],[37.1,54335],[37.1,54418],[37.1,54500],[37.1,54585],[37.1,54668],[37.1,54751],[37.1,54834],[37.1,54918],[37.1,55001],[37.1,55085],[37.1,55168],[37.1,55251],[37.1,55335],[37.1,55417],[37.1,55500],[37.1,55585],[37.1,55668],[37.1,55751],[37.1,55835]]",1,0,299.8148,417.3187,80.59624566,117.1262,"[{""rating"":80.59624565972221,""responseTime"":117.1261999999881}]",space,116.9639,,417.3188,Definitely yes,100,417.3221,,,[],,,,0,10,10,10,1,audio/Narrative8Situation1.wav,audio/Narrative7Situation1.wav,audio/Narrative6Situation1.wav,audio/Narrative5Situation1.wav,5,2,2,5,,,,,,,,,,,,,,,,,,,,,,,,,,,,,,,,,,,,,
,,,,,,655f8b6cb4482d62ae248259,2024-02-08_15h20.23.485,group3.1-3.2-social-tom,2023.2.2,MacIntel,60.24096386,65c5074098b851296ff0b7ed,65c545697304e12e1ac54f5d,,,,,,,,,,,,,,,,,,,,,,,,,,,,,417.3224,1,audio/Narrative7Situation2.wav,419.219,space,419.219,426.7024,"[[81.5,6750],[100,7415]]",1,0,426.7026,431.6862,99.61642795,4.4981,"[{""rating"":99.61642795138889,""responseTime"":4.498099999964211}]",space,4.4505,,431.6863,Partially,50,431.6895,,,[],,,,0,11,11,11,1,audio/Narrative8Situation2.wav,audio/Narrative7Situation2.wav,audio/Narrative6Situation2.wav,audio/Narrative5Situation2.wav,3,3,3,3,1.8751,,,,,,,,,,,,,,,,,,,,,,,,,,,,,,,,,,,,
,,,,,,655f8b6cb4482d62ae248259,2024-02-08_15h20.23.485,group3.1-3.2-social-tom,2023.2.2,MacIntel,60.24096386,65c5074098b851296ff0b7ed,65c545697304e12e1ac54f5d,,,,,,,,,,,,,,,,,,,,,,,,,,,,,431.6898,1,audio/Narrative7Situation3.wav,434.1695,space,434.1697,443.437,"[[83.1,8915],[2.9,9249]]",1,0,443.4371,444.9366,0.291341146,0.6968,"[{""rating"":0.2913411458333348,""responseTime"":0.6967999999523045}]",space,0.9533,,444.9366,Partially,50,444.9389,,,[],,,,0,12,12,12,1,audio/Narrative8Situation3.wav,audio/Narrative7Situation3.wav,audio/Narrative6Situation3.wav,audio/Narrative5Situation3.wav,4,8,5,3,2.4618,,,,,,,,,,,,,,,,,,,,,,,,,,,,,,,,,,,,
,,,,,,655f8b6cb4482d62ae248259,2024-02-08_15h20.23.485,group3.1-3.2-social-tom,2023.2.2,MacIntel,60.24096386,65c5074098b851296ff0b7ed,65c545697304e12e1ac54f5d,,,,,,,,,,,,,,,,,,,,,,,,,,,,,444.9394,1,audio/Narrative7Situation4.wav,446.62,space,446.6201,458.3528,"[[999,0],[999,82],[999,165],[999,249],[999,332],[999,416],[999,500],[999,583],[999,666],[999,748],[999,833],[999,916],[999,998],[999,1083],[999,1166],[999,1249],[999,1333],[999,1416],[999,1499],[999,1583],[999,1666],[999,1749],[999,1832],[999,1916],[999,1999],[999,2083],[999,2166],[999,2249],[999,2333],[999,2416],[999,2499],[999,2582],[999,2666],[999,2749],[999,2833],[999,2916],[999,2999],[999,3083],[999,3166],[999,3249],[999,3333],[999,3416],[999,3499],[999,3582],[999,3666],[999,3749],[999,3833],[999,3916],[999,3999],[999,4083],[999,4166],[999,4249],[999,4333],[999,4416],[999,4499],[999,4583],[999,4666],[999,4749],[999,4833],[999,4915],[999,4999],[999,5083],[999,5166],[999,5249],[999,5333],[999,5416],[999,5499],[999,5583],[999,5666],[999,5749],[999,5833],[999,5915],[999,5998],[999,6083],[999,6166],[999,6249],[999,6333],[999,6416],[999,6500],[999,6583],[999,6665],[999,6749],[999,6833],[999,6916],[999,6999],[999,7083],[999,7166],[999,7249],[999,7333],[999,7416],[999,7500],[999,7583],[999,7665],[999,7750],[999,7832],[999,7916],[999,7998],[999,8083],[999,8166],[999,8249],[999,8332],[999,8416],[999,8499],[999,8583],[999,8665],[999,8749],[999,8832],[999,8916],[999,9000],[999,9082],[999,9165],[999,9250],[999,9333],[999,9416],[999,9499],[999,9583],[999,9666],[999,9749],[999,9833],[999,9915],[999,9998],[999,10082],[999,10165],[999,10250],[999,10332],[999,10415],[999,10499],[999,10583],[999,10665],[999,10749],[999,10833],[999,10915],[999,11000],[61.6,11083],[61.9,11166],[61.2,11249],[61.1,11333],[61,11416],[61,11499],[61,11582],[61,11665]]",1,0,458.353,459.8871,60.96950955,1.0971,"[{""rating"":60.969509548611114,""responseTime"":1.0970999999642572}]",space,1.001,,459.8872,Definitely yes,100,459.8912,,,[],,,,0,13,13,13,1,audio/Narrative8Situation4.wav,audio/Narrative7Situation4.wav,audio/Narrative6Situation4.wav,audio/Narrative5Situation4.wav,3,3,2,1,1.6642,,,,,,,,,,,,,,,,,,,,,,,,,,,,,,,,,,,,
,,,,,,655f8b6cb4482d62ae248259,2024-02-08_15h20.23.485,group3.1-3.2-social-tom,2023.2.2,MacIntel,60.24096386,65c5074098b851296ff0b7ed,65c545697304e12e1ac54f5d,,,,,,,,,,,,,,,,,,,,,,,,,,,,,459.8915,1,audio/Narrative7Situation5.wav,462.8373,space,462.8373,471.3374,"[[57.2,8250],[19.9,8333],[14.6,8415],[14.1,8499]]",1,0,471.3374,473.0208,0.188802083,1.2141,"[{""rating"":0.1888020833333337,""responseTime"":1.2141000000238478}]",space,1.1419,,473.0209,Not at all,0,473.0241,,,[],,,,0,14,14,14,1,audio/Narrative8Situation5.wav,audio/Narrative7Situation5.wav,audio/Narrative6Situation5.wav,audio/Narrative5Situation5.wav,2,5,2,5,2.9399,,,,,,,,,,,,,,,,,,,,,,,,,,,,,,,,,,,,
,,,,,,655f8b6cb4482d62ae248259,2024-02-08_15h20.23.485,group3.1-3.2-social-tom,2023.2.2,MacIntel,60.24096386,65c5074098b851296ff0b7ed,65c545697304e12e1ac54f5d,,,,,,,,,,,,,,,,,,,,,,,,,,,,,473.0245,1,audio/Narrative7Situation6.wav,476.0378,,476.0378,486.0221,"[[999,11],[999,83],[999,166],[999,249],[999,333],[999,416],[999,499],[999,583],[999,666],[999,749],[999,833],[999,915],[999,999],[999,1083],[999,1165],[999,1249],[999,1332],[999,1416],[999,1499],[999,1583],[999,1666],[999,1749],[999,1833],[999,1915],[999,2000],[999,2082],[999,2166],[999,2250],[999,2332],[999,2416],[999,2498],[999,2583],[999,2666],[999,2749],[999,2833],[999,2916],[999,2999],[999,3083],[999,3166],[999,3250],[999,3333],[999,3416],[999,3499],[999,3583],[999,3666],[999,3749],[999,3833],[999,3915],[999,3999],[999,4083],[999,4165],[999,4248],[999,4333],[999,4417],[999,4500],[999,4583],[999,4666],[53.3,4750],[83.4,4833],[84.9,4916],[85,5000],[99.4,5415],[99.4,5500],[99.4,5583],[98.9,5666],[98.7,5750],[99,5833],[99.1,5915],[99.1,5998],[99.8,6083],[100,6166],[100,6250],[100,6333],[100,6415],[100,6499],[100,6583],[100,6666],[100,6750],[100,6833],[100,6916],[100,7000],[100,7083],[100,7166],[100,7250],[100,7333],[100,7415],[100,7500],[100,7583],[100,7665],[100,7749],[100,7833],[98,7917],[91.2,8000],[90.2,8082],[90.2,8165],[90.2,8250],[90.2,8333],[90.2,8415],[90.2,8500],[90.2,8582],[90.2,8666],[90.2,8750],[90.2,8832],[90.2,8916],[90.2,9000],[90.2,9083],[90.2,9165],[90.2,9249],[94.1,9332],[98.2,9417],[98.7,9500],[98.7,9583],[98.9,9667],[99,9750],[99.2,9833],[99.2,9917]]",1,0,486.0226,487.1886,99.82042101,0.7286,"[{""rating"":99.82042100694444,""responseTime"":0.7285999999642172}]",space,0.6185,,487.1887,Not at all,0,487.1913,,,[],,,,0,15,15,15,1,audio/Narrative8Situation6.wav,audio/Narrative7Situation6.wav,audio/Narrative6Situation6.wav,audio/Narrative5Situation6.wav,2,3,2,3,,,,,,,,,,,,,,,,,,,,,,,,,,,,,,,,,,,,,
,,,,,,655f8b6cb4482d62ae248259,2024-02-08_15h20.23.485,group3.1-3.2-social-tom,2023.2.2,MacIntel,60.24096386,65c5074098b851296ff0b7ed,65c545697304e12e1ac54f5d,,,,,,,,,,,,,,,,,,,,,,,,,,,,,487.1916,1,audio/Narrative7Situation7.wav,488.2042,space,488.2043,505.3727,"[[80.2,17000]]",1,0,505.3731,507.4725,98.73480903,1.7138,"[{""rating"":98.73480902777779,""responseTime"":1.7137999999523572}]",space,1.551,,507.4726,Definitely yes,100,507.4763,,,[],,,,0,16,16,16,1,audio/Narrative8Situation7.wav,audio/Narrative7Situation7.wav,audio/Narrative6Situation7.wav,audio/Narrative5Situation7.wav,3,5,5,4,1.0079,,,,,,,,,,,,,,,,,,,,,,,,,,,,,,,,,,,,
,,,,,,655f8b6cb4482d62ae248259,2024-02-08_15h20.23.485,group3.1-3.2-social-tom,2023.2.2,MacIntel,60.24096386,65c5074098b851296ff0b7ed,65c545697304e12e1ac54f5d,,,,,,,,,,,,,,,,,,,,,,,,,,,,,507.4767,1,audio/Narrative7Situation8.wav,509.489,,509.4891,519.522,"[[90.7,2750],[66.1,2832],[63.5,2915],[63.5,2999],[63.5,3083],[63.5,3166],[63.5,3249],[63.5,3333],[63.5,3416],[63.5,3499],[63.5,3583],[63.5,3666],[63.5,3749],[63.5,3833],[63.5,3916],[63.5,3999],[63.5,4082],[63.5,4166],[63.5,4249],[63.5,4333],[63.5,4416],[63.5,4499],[63.5,4583],[63.5,4666],[63.5,4749],[63.5,4833],[63.5,4916],[63.5,5000],[63.5,5083],[63.5,5165],[63.5,5249],[63.5,5333],[63.5,5416],[63.5,5499],[63.5,5583],[63.5,5666],[63.5,5750],[63.5,5833],[63.5,5915],[63.5,5999],[63.5,6082],[63.5,6165],[63.5,6250],[63.5,6333],[63.5,6416],[63.5,6500],[63.5,6583],[63.5,6666],[63.5,6750],[63.5,6833],[63.5,6916],[63.5,7000],[63.5,7083],[63.5,7166],[63.5,7250],[63.5,7332],[63.5,7416],[63.5,7500],[63.5,7583],[63.5,7666],[63.5,7749],[63.5,7832],[63.5,7916],[63.5,7999],[63.5,8083],[63.5,8165],[63.5,8250],[63.5,8333],[58,8416],[54.8,8499],[53.4,8582],[53,8667],[53,8750],[53.4,8833],[55.1,8917],[58.5,9000],[68,9082],[71.3,9167],[71.9,9250],[72.6,9332],[73,9417],[73.2,9500],[73.2,9583],[73.2,9666],[73.2,9750],[73.2,9833],[73.2,9916],[73.2,10000]]",1,0,519.5222,521.3561,98.34798177,1.4322,"[{""rating"":98.34798177083333,""responseTime"":1.432199999988029}]",space,1.3087,,521.3562,Partially,50,521.3597,,,[],,,,0,17,17,17,1,audio/Narrative8Situation8.wav,audio/Narrative7Situation8.wav,audio/Narrative6Situation8.wav,audio/Narrative5Situation8.wav,3,2,5,3,,,,,,,,,,,,,,,,,,,,,,,,,,,,,,,,,,,,,
,,,,,,655f8b6cb4482d62ae248259,2024-02-08_15h20.23.485,group3.1-3.2-social-tom,2023.2.2,MacIntel,60.24096386,65c5074098b851296ff0b7ed,65c545697304e12e1ac54f5d,,,,,,,,,,,,,,,,,,,,,,,,,,,,,521.36,1,audio/Narrative7Situation9.wav,523.373,,523.373,532.006,"[[97.6,5915],[97,6000],[97.6,6083],[98.3,6165],[98.1,6250],[97.5,6332],[97.6,6416],[99.5,6500],[99.6,6582],[99.6,6666],[99.6,6749],[99.6,6833],[99.6,6916],[99.6,6999],[99.6,7083],[99.6,7166],[99.6,7249],[99.6,7333],[99.6,7416],[99.6,7500],[99.6,7583],[99.6,7667],[99.6,7749],[99.6,7833],[99.6,7916],[99.6,8000],[99.6,8083],[99.6,8166],[99.6,8249],[99.6,8333],[99.6,8416],[99.6,8499],[99.6,8583]]",1,0,532.0062,533.6055,99.58170573,1.1161,"[{""rating"":99.58170572916667,""responseTime"":1.1161000000238346}]",space,1.0638,,533.6056,Not at all,0,538.6734,0.666775174,4.4808,"[{""rating"":0.6667751736111116,""responseTime"":4.480800000011982}]",space,4.5266,,0,18,18,18,1,audio/Narrative8Situation9.wav,audio/Narrative7Situation9.wav,audio/Narrative6Situation9.wav,audio/Narrative5Situation9.wav,3,2,4,3,,,,,,,,,,,,,,,,,,,,,,,,,,,,,,,,,,,,,
,,,,,,655f8b6cb4482d62ae248259,2024-02-08_15h20.23.485,group3.1-3.2-social-tom,2023.2.2,MacIntel,60.24096386,65c5074098b851296ff0b7ed,65c545697304e12e1ac54f5d,,,,,,,,,,,,,,,,,,,,,,,,,,,540.8572,543.4403,543.4603,2,audio/Narrative13Situation2.wav,543.4603,,543.4603,573.2083,"[[1.7,7313],[13.4,7396],[78,13230],[90.4,13312],[93.3,13397],[98.8,13480],[100,13563],[99.9,13647],[100,13730],[100,13814],[100,13896],[100,13980],[100,14064],[100,14147],[100,14229],[100,14313],[99.9,14397],[99.7,14480],[99.7,14563],[99.7,14646],[99.7,14730],[99.7,14812],[99.7,14896],[99.7,14980],[99.7,15063],[99.7,15147],[99.7,15230],[99.7,15313],[99.7,15397],[99.7,15480],[99.7,15563],[99.7,15646],[99.7,15730],[99.7,15813],[99.7,15897],[99.7,15979],[99.7,16063],[99.3,16147],[98.5,16230],[93.7,16314],[90.1,16397],[89.4,16479],[89.5,16564],[89.5,16647],[89.5,16730],[89.5,16813],[89.5,16896],[89.5,16980],[89.5,17062],[89.5,17146],[89.5,17230],[89.5,17313],[89.5,17397],[89.5,17480],[89.5,17563],[89.5,17647],[89.5,17730],[89.5,17814],[89.5,17897],[89.5,17980],[89.5,18063],[89.5,18147],[89.5,18230],[89.5,18313],[89.5,18397],[89.5,18480],[89.5,18563],[89.5,18647],[89.5,18730],[89.5,18813],[89.5,18897],[89.5,18980],[89.5,19063],[89.5,19146],[89.5,19230],[89.5,19313],[89.5,19397],[89.5,19480],[89.5,19563],[89.5,19647],[89.5,19730],[89.5,19813],[89.5,19897],[89.5,19980],[89.5,20064],[89.5,20146],[89.5,20230],[89.5,20314],[89.5,20396],[89.5,20480],[89.5,20564],[89.5,20647],[89.5,20730],[89.5,20814],[89.5,20897],[89.5,20979],[89.5,21063],[89.5,21147],[89.5,21230],[89.5,21313],[89.5,21396],[89.5,21480],[89.5,21564],[89.5,21646],[89.5,21730],[89.5,21813],[89.5,21897],[89.5,21980],[89.5,22064],[89.5,22147],[89.5,22230],[89.5,22314],[89.5,22397],[89.5,22479],[89.5,22564],[89.5,22646],[89.5,22729],[89.5,22814],[89.5,22897],[89.5,22980],[89.5,23063],[89.5,23147],[89.5,23230],[89.5,23314],[89.5,23397],[89.5,23480],[89.5,23563],[89.5,23647],[89.5,23730],[89.5,23813],[89.5,23896],[89.5,23980],[89.5,24064],[89.5,24147],[89.5,24230],[89.5,24313],[89.5,24397],[89.5,24480],[89.5,24563],[89.5,24647],[89.5,24730],[89.5,24814],[89.5,24897],[89.5,24979],[89.5,25064],[89.5,25147],[89.5,25230],[89.5,25314],[89.5,25397],[89.5,25480],[89.5,25564],[89.5,25646],[89.5,25730],[89.5,25814],[89.5,25897],[89.5,25980],[89.5,26064],[89.5,26146],[89.5,26230],[89.5,26314],[89.5,26397],[89.5,26479],[89.5,26563],[89.5,26647],[89.5,26729],[89.5,26814],[89.5,26897],[89.5,26980],[89.5,27064],[89.5,27146],[89.5,27230],[89.5,27314],[89.5,27396],[89.5,27479],[89.5,27563],[89.5,27647],[89.5,27730],[89.5,27814],[89.5,27896],[89.5,27980],[89.5,28064],[89.5,28147],[89.5,28229],[89.5,28314],[89.5,28397],[89.5,28480],[89.5,28564],[89.5,28646],[89.5,28730],[89.5,28814],[89.5,28897],[89.5,28980],[89.5,29064],[89.5,29147],[89.5,29230],[89.5,29314],[89.5,29396],[89.5,29481],[89.5,29564],[89.5,29647],[89.5,29730]]",1,0,573.2087,573.2206,,,[],,,,573.2207,Not at all,0,573.2212,,,[],,,,0,0,0,0,1,audio/Narrative13Situation2.wav,audio/Narrative13Situation2.wav,audio/Narrative13Situation2.wav,audio/Narrative13Situation2.wav,2,2,2,2,,,538.6744,540.8565,space,1.6596,,,,,,,,,,,,,,,,,,,,,,,,,,,,,,,
,,,,,,655f8b6cb4482d62ae248259,2024-02-08_15h20.23.485,group3.1-3.2-social-tom,2023.2.2,MacIntel,60.24096386,65c5074098b851296ff0b7ed,65c545697304e12e1ac54f5d,,,,,,,,,,,,,,,,,,,,,,,,,,,,,573.2213,2,audio/Narrative6Situation1.wav,575.2249,,575.2251,601.8081,"[[999,0],[999,82],[999,165],[999,249],[999,331],[999,416],[999,499],[999,582],[999,666],[999,748],[999,832],[999,915],[999,999],[999,1083],[999,1166],[999,1249],[97.9,1333],[94.2,1416],[91.3,1500],[91.9,1582],[94.6,1665],[96,1749],[96.6,1832],[96.6,1916],[96.6,1999],[96.6,2082],[96.6,2166],[96.6,2248],[96.6,2331],[96.6,2416],[96.6,2499],[89.6,2583],[64.7,2749],[64.7,2832],[63.2,2916],[53.7,2999],[51.6,3081],[51.1,3166],[50.9,3249],[50.9,3332],[50.9,3416],[50.9,3499],[50.9,3582],[57.1,3666],[86.8,3749],[89.5,3832],[89.5,3916],[92.2,4000],[93.7,4083],[92.7,4166],[91.9,4249],[91.9,4333],[91.9,4415],[91.9,4499],[91.9,4581],[91.9,4665],[91.9,4749],[91.9,4832],[91.9,4916],[91.9,4998],[91.9,5083],[93.2,5166],[98.1,5248],[98.4,5333],[98.3,5415],[98.3,5498],[98.3,5582],[97.9,5665],[95.3,5749],[93.9,5833],[93.8,5916],[93.8,5999],[91.6,6081],[77.8,20500],[73.7,21416],[65.5,21500],[65,21583],[65,21667],[65,21750],[64.1,21833],[60.3,21917],[59.9,22000],[59.9,22082],[59.9,22167],[59.9,22249],[59.9,22332],[59.9,22417],[59.9,22500],[59.9,22582],[59.9,22667],[59.9,22750],[59.9,22833],[59.9,22916],[59.9,23000],[59.9,23082],[59.9,23167],[59.9,23249],[59.9,23332],[59.9,23417],[60,23500],[53.3,23583],[47.1,23667],[48.1,23750],[49,23834],[49,23917],[49,23999],[49,24083],[49,24167],[49,24250],[49,24332],[49,24417],[49,24500],[49,24583],[49,24666],[49,24750],[49,24833],[49,24916],[49,25000],[49,25083],[49,25167],[49,25250],[49,25333],[49,25417],[49,25500],[49,25582],[49,25666],[49,25750],[49,25833],[49.3,25917],[51.7,25999],[51.8,26083],[48.6,26250],[49,26334],[49.8,26417],[50.1,26501],[50.1,26582]]",1,0,601.8082,603.2424,53.93446181,0.9322,"[{""rating"":53.93446180555556,""responseTime"":0.932199999988029}]",space,0.9,,603.2425,Partially,50,603.2461,,,[],,,,0,1,1,1,1,audio/Narrative7Situation1.wav,audio/Narrative8Situation1.wav,audio/Narrative5Situation1.wav,audio/Narrative6Situation1.wav,2,5,5,2,,,,,,,,,,,,,,,,,,,,,,,,,,,,,,,,,,,,,
,,,,,,655f8b6cb4482d62ae248259,2024-02-08_15h20.23.485,group3.1-3.2-social-tom,2023.2.2,MacIntel,60.24096386,65c5074098b851296ff0b7ed,65c545697304e12e1ac54f5d,,,,,,,,,,,,,,,,,,,,,,,,,,,,,603.2464,2,audio/Narrative6Situation2.wav,605.9249,space,605.925,634.4271,"[[53.6,7083],[53.6,7167],[53.6,7250],[53.6,7334],[53.6,7417],[53.6,7500],[53.6,7583],[53.6,7667],[53.6,7750],[52.9,7834],[49.6,7917],[47.5,8000],[47.5,8084],[49.1,8167],[49.2,8249],[49.2,8334],[46.9,8417],[43.9,8501],[43.4,8583],[44.1,8668],[45.7,8750],[45.7,8834],[45.7,8917],[47.2,9001],[50.3,9084],[50.4,9167],[50.4,9250],[50.4,9334],[50.4,9418],[50.4,9500],[50.4,9584],[50.4,9667],[50.4,9751],[50.4,9833],[50.4,9916],[50.4,10001],[50.4,10084],[50.4,10167],[50.4,10250],[50.4,10334],[50.4,10417],[50.4,10501],[50.4,10584],[50.4,10666],[50.4,10750],[50.4,10833],[50.4,10917],[50.4,11001],[50.4,11083],[50.4,11167],[50.4,11250],[50.4,11334],[50.4,11417],[50.4,11501],[50.4,11584],[50.4,11667],[50.4,11750],[50.4,11834],[50.4,11917],[50.4,12001],[50.4,12084],[50.4,12166],[49.2,12250],[42.1,12334],[38.7,12417],[38.5,12500],[38.6,12584],[38.6,12667],[38.6,12750],[35.7,12834],[34.2,12916],[34.2,13000],[34.2,13083],[34.2,13167],[34.2,13251],[34.2,13334],[34.2,13416],[34.5,13500],[49.4,13584],[55.5,13667],[55.5,13751],[55.5,13834],[58.5,13917],[60.1,14001],[60.3,14084],[60.3,14166],[60.3,14251],[60.3,14333],[60.3,14417],[60.3,14500],[60.3,14584],[60.3,14667],[60.6,14750],[63.5,14833],[64.3,14918],[64.3,15001],[64.3,15083],[64.6,15168],[64.7,15250],[64.7,15334],[64.7,15417],[64.7,15501],[64.7,15583],[64.7,15667],[64.7,15751],[64.7,15833],[64.7,15917],[64.7,16001],[64.7,16083],[64.7,16167],[64.7,16251],[64.7,16333],[64.7,16417],[64.7,16500],[64.7,16583],[64.7,16667],[64.7,16751],[64.7,16834],[64.7,16917],[64.7,17000],[64.7,17084],[64.7,17166],[64.7,17251],[64.7,17334],[66.3,17418],[70.1,17501],[70.4,17584],[70.6,17667],[70.7,17751],[70.6,17833],[70.6,17917],[70.6,18001],[70.6,18084],[70.6,18167],[72.8,18251],[73.5,18334],[73.5,18417],[73.5,18501],[73.7,18583],[73.7,18668],[73.7,18751],[73.7,18834],[73.7,18917],[85.2,19000],[97,19085],[96.7,19167],[96,19251],[95.2,19333],[95.8,19418],[99.3,19501],[100,19584],[100,19668],[100,19751],[100,19834],[100,19917],[100,20000],[100,20084],[100,20168],[100,20251],[100,20334],[100,20418],[100,20501],[100,20584],[100,20667],[100,20751],[99.6,20835],[98.7,20918],[96.3,21001],[97.1,22585],[98.1,22668],[97.7,22751],[97.6,22835],[98.1,22918],[98.4,23000],[98.5,23084],[98.5,23168],[96.1,23251],[92.6,23334],[92.3,23418],[92.3,23501],[92.3,23584],[92.3,23668],[92.3,23751],[92.3,23834],[92.3,23918],[92.3,24001],[92.3,24084],[92.3,24168],[92.3,24251],[92.3,24334],[92.3,24418],[92.3,24501],[92.3,24584],[92.3,24668],[92.3,24751],[92.3,24834],[92.3,24918],[92.3,25001],[92.3,25084],[92.3,25168],[92.3,25251],[92.3,25334],[92.3,25418],[92.3,25501],[92.3,25584],[92.3,25668],[92.3,25751],[92.3,25834],[92.3,25918],[92.3,26000],[92.3,26084],[92.3,26168],[92.3,26251],[92.3,26335],[92.3,26418],[92.3,26500],[92.3,26583],[92.3,26668],[92.3,26751],[92.3,26834],[92.3,26918],[92.3,27001],[92.3,27084],[92.3,27168],[92.3,27251],[92.3,27334],[92.3,27418],[92.3,27501],[92.3,27584],[92.3,27668],[96,27751],[98.9,27835],[99.1,27917],[99.2,28001],[99.5,28085],[99.5,28167],[99.5,28251],[99.5,28333],[99.5,28417],[99.5,28501]]",1,0,634.4277,636.043,98.99251302,1.1797,"[{""rating"":98.99251302083334,""responseTime"":1.17970000004766}]",space,1.0776,,636.0431,Definitely yes,100,636.0462,,,[],,,,0,2,2,2,1,audio/Narrative7Situation2.wav,audio/Narrative8Situation2.wav,audio/Narrative5Situation2.wav,audio/Narrative6Situation2.wav,3,3,3,3,2.6594,,,,,,,,,,,,,,,,,,,,,,,,,,,,,,,,,,,,
,,,,,,655f8b6cb4482d62ae248259,2024-02-08_15h20.23.485,group3.1-3.2-social-tom,2023.2.2,MacIntel,60.24096386,65c5074098b851296ff0b7ed,65c545697304e12e1ac54f5d,,,,,,,,,,,,,,,,,,,,,,,,,,,,,636.0466,2,audio/Narrative6Situation3.wav,638.2605,space,638.2606,650.8777,[],1,0,650.8778,652.8102,86.14257813,1.5716,"[{""rating"":86.142578125,""responseTime"":1.5715999999642918}]",space,1.3867,,652.8103,Not at all,0,652.8129,,,[],,,,0,3,3,3,1,audio/Narrative7Situation3.wav,audio/Narrative8Situation3.wav,audio/Narrative5Situation3.wav,audio/Narrative6Situation3.wav,8,4,3,5,2.1979,,,,,,,,,,,,,,,,,,,,,,,,,,,,,,,,,,,,
,,,,,,655f8b6cb4482d62ae248259,2024-02-08_15h20.23.485,group3.1-3.2-social-tom,2023.2.2,MacIntel,60.24096386,65c5074098b851296ff0b7ed,65c545697304e12e1ac54f5d,,,,,,,,,,,,,,,,,,,,,,,,,,,,,652.8133,2,audio/Narrative6Situation4.wav,654.8265,,654.8266,667.4278,"[[84.6,10250],[80.8,10334],[29.6,11251],[0,12417],[0,12501],[0,12584]]",1,0,667.428,669.2448,0.004340278,0.23,"[{""rating"":0.004340277777775681,""responseTime"":0.2300000000000182}]",space,1.2843,,669.245,Definitely yes,100,669.2487,,,[],,,,0,4,4,4,1,audio/Narrative7Situation4.wav,audio/Narrative8Situation4.wav,audio/Narrative5Situation4.wav,audio/Narrative6Situation4.wav,3,3,1,2,,,,,,,,,,,,,,,,,,,,,,,,,,,,,,,,,,,,,
,,,,,,655f8b6cb4482d62ae248259,2024-02-08_15h20.23.485,group3.1-3.2-social-tom,2023.2.2,MacIntel,60.24096386,65c5074098b851296ff0b7ed,65c545697304e12e1ac54f5d,,,,,,,,,,,,,,,,,,,,,,,,,,,,,669.2492,2,audio/Narrative6Situation5.wav,669.928,space,669.9281,677.8951,"[[999,0],[999,83],[999,166],[999,249],[999,332],[999,416],[999,499],[999,583],[999,666],[999,748],[999,833],[999,915],[999,999],[999,1083],[999,1166],[999,1249],[999,1333],[999,1415],[999,1499],[999,1582],[999,1667],[999,1750],[48.4,1833],[48.8,1916],[49.4,2000],[49.4,2082],[49.4,2166],[49.4,2249],[49.4,2333],[49.4,2416],[49.4,2499],[49.4,2583],[49.4,2666],[49.4,2749],[49.4,2833],[49.4,2916],[49.4,2999],[49.4,3082],[49.4,3166],[49.4,3249],[49.4,3332],[49.4,3416],[49.4,3498],[49.4,3583],[49.4,3666],[49.4,3749],[49.4,3832],[49.4,3916],[49.4,3999],[50.3,4083],[52.9,4166],[52.9,4250],[52.4,4333],[51.3,4416],[51.1,4499],[51,4583],[51,4666],[51,4750],[50.7,4833],[50.6,4916],[50.6,5000],[50.6,5082],[50.6,5166],[50.6,5250],[50.6,5332],[50.6,5416],[50.6,5499],[50.6,5583],[50.6,5665],[50.6,5749],[50.6,5833],[50.6,5916],[50.6,6000],[50.6,6083],[50.6,6165],[50.6,6250],[50.6,6332],[50.6,6416],[50.6,6500],[50.6,6583],[50.6,6666],[50.6,6749],[50.6,6833],[50.6,6916],[50.6,6999],[50.6,7083],[50.6,7167],[50.6,7250],[50.6,7333],[50.6,7416],[50.6,7500],[50.6,7583],[50.6,7666],[50.6,7750],[50.6,7832],[50.6,7916]]",1,0,677.8954,678.8118,50.59407552,0.3207,"[{""rating"":50.594075520833336,""responseTime"":0.3206999999880509}]",space,0.3666,,678.812,Definitely yes,100,678.8145,,,[],,,,0,5,5,5,1,audio/Narrative7Situation5.wav,audio/Narrative8Situation5.wav,audio/Narrative5Situation5.wav,audio/Narrative6Situation5.wav,5,2,5,2,0.6739,,,,,,,,,,,,,,,,,,,,,,,,,,,,,,,,,,,,
,,,,,,655f8b6cb4482d62ae248259,2024-02-08_15h20.23.485,group3.1-3.2-social-tom,2023.2.2,MacIntel,60.24096386,65c5074098b851296ff0b7ed,65c545697304e12e1ac54f5d,,,,,,,,,,,,,,,,,,,,,,,,,,,,,678.8148,2,audio/Narrative6Situation6.wav,679.5953,space,679.5953,690.6787,"[[52.1,8416],[46.5,8499],[29.7,8582],[26.9,8666],[26.9,8749],[23.4,8833],[6.1,8916],[4.4,8999],[4.1,9083],[3.8,9167],[3.5,9250],[3.3,9332],[3.3,9415],[3.3,9500],[3.3,9583],[3.3,9666],[3.4,9750],[3.8,9832],[4,9916],[4,9999],[4,10082],[4.1,10166],[4.5,10249],[5.2,10333],[5.3,10415],[4.8,10499],[4.8,10581],[4.3,10666],[4.3,10748],[4.3,10832],[4.3,10915],[5,11000],[5.8,11083]]",1,0,690.6788,691.4455,6.092664931,0.305,"[{""rating"":6.092664930555558,""responseTime"":0.30500000000006366}]",space,0.2268,,691.4457,Not at all,0,691.4487,,,[],,,,0,6,6,6,1,audio/Narrative7Situation6.wav,audio/Narrative8Situation6.wav,audio/Narrative5Situation6.wav,audio/Narrative6Situation6.wav,3,2,3,2,0.7648,,,,,,,,,,,,,,,,,,,,,,,,,,,,,,,,,,,,
,,,,,,655f8b6cb4482d62ae248259,2024-02-08_15h20.23.485,group3.1-3.2-social-tom,2023.2.2,MacIntel,60.24096386,65c5074098b851296ff0b7ed,65c545697304e12e1ac54f5d,,,,,,,,,,,,,,,,,,,,,,,,,,,,,691.449,2,audio/Narrative6Situation7.wav,693.9292,space,693.9294,718.7965,"[[10.1,7250],[93,7666],[93.7,7749],[97.7,8000],[98.3,8082],[98.4,8167],[98.4,8250],[98.7,8332],[99.1,8415],[99.2,8499],[99.4,8582],[99.7,8666],[100,8750],[100,8833],[100,8916],[100,8999],[100,9083],[100,9166],[100,9250],[100,9333],[100,9416],[100,9500],[100,9583],[100,9666],[100,9749],[100,9831],[100,9916],[100,9999],[100,10083],[100,10165],[100,10249],[100,10333],[100,10416],[100,10499],[100,10583],[100,10666],[100,10749],[100,10833],[100,10916],[100,10999],[100,11082],[100,11165],[100,11249],[100,11333],[100,11416],[100,11499],[100,11582],[100,11665],[100,11750],[100,11832],[100,11916],[100,11998],[100,12082],[100,12166],[100,12249],[100,12333],[100,12416],[100,12499],[100,12583],[100,12666],[100,12749],[100,12833],[100,12916],[100,12999],[100,13083],[100,13166],[100,13250],[100,13333],[100,13416],[100,13500],[100,13582],[100,13666],[100,13748],[100,13833],[100,13916],[100,14000],[100,14083],[100,14166],[100,14250],[100,14333],[100,14415],[100,14500],[100,14583],[100,14666],[100,14750],[100,14832],[100,14916],[100,15000],[100,15082],[100,15166],[100,15250],[100,15333],[100,15416],[100,15499],[100,15583],[100,15666],[100,15749],[100,15833],[100,15916],[100,15999],[100,16083],[100,16166],[100,16249],[100,16332],[100,16416],[100,16500],[100,16583],[100,16666],[100,16749],[100,16833],[100,16916],[100,16999],[100,17082],[100,17166],[100,17250],[100,17332],[100,17416],[100,17499],[100,17583],[100,17665],[100,17750],[100,17832],[100,17916],[100,18000],[100,18083],[100,18165],[100,18250],[100,18333],[100,18416],[100,18499],[100,18583],[100,18666],[100,18749],[100,18833],[100,18916],[100,19000],[100,19083],[100,19167],[100,19250],[100,19333],[100,19416],[100,19500],[100,19583],[100,19666],[100,19750],[100,19833],[100,19915],[100,19999],[100,20083],[100,20166],[100,20250],[100,20332],[100,20417],[100,20499],[100,20583],[100,20666],[100,20750],[100,20833],[100,20916],[100,21000],[100,21083],[100,21166],[100,21250],[100,21333],[100,21415],[100,21500],[100,21583],[100,21666],[100,21750],[100,21833],[100,21916],[100,21999],[100,22083],[100,22167],[100,22250],[100,22333],[100,22417],[100,22500],[100,22583],[100,22667],[100,22750],[100,22833],[100,22917],[100,22999],[100,23082],[100,23167],[100,23250],[100,23333],[100,23415],[100,23499],[100,23592],[100,23667],[100,23750],[100,23833],[100,23915],[100,24000],[100,24083],[100,24165],[100,24250],[98.6,24334],[95.4,24584],[96.1,24666],[94.3,24749],[92.9,24834]]",1,0,718.7967,721.2135,99.36523438,1.8305,"[{""rating"":99.365234375,""responseTime"":1.830500000000029}]",space,1.8779,,721.2135,Definitely yes,100,721.2167,,,[],,,,0,7,7,7,1,audio/Narrative7Situation7.wav,audio/Narrative8Situation7.wav,audio/Narrative5Situation7.wav,audio/Narrative6Situation7.wav,5,3,4,5,2.4636,,,,,,,,,,,,,,,,,,,,,,,,,,,,,,,,,,,,
,,,,,,655f8b6cb4482d62ae248259,2024-02-08_15h20.23.485,group3.1-3.2-social-tom,2023.2.2,MacIntel,60.24096386,65c5074098b851296ff0b7ed,65c545697304e12e1ac54f5d,,,,,,,,,,,,,,,,,,,,,,,,,,,,,721.217,2,audio/Narrative6Situation8.wav,722.2957,space,722.2957,729.1472,[],1,0,729.1474,730.6805,1.199001736,1.0361,"[{""rating"":1.1990017361111105,""responseTime"":1.0361000000237937}]",space,1.0107,,730.6806,Partially,50,730.6838,,,[],,,,0,8,8,8,1,audio/Narrative7Situation8.wav,audio/Narrative8Situation8.wav,audio/Narrative5Situation8.wav,audio/Narrative6Situation8.wav,2,3,3,5,1.0648,,,,,,,,,,,,,,,,,,,,,,,,,,,,,,,,,,,,
,,,,,,655f8b6cb4482d62ae248259,2024-02-08_15h20.23.485,group3.1-3.2-social-tom,2023.2.2,MacIntel,60.24096386,65c5074098b851296ff0b7ed,65c545697304e12e1ac54f5d,,,,,,,,,,,,,,,,,,,,,,,,,,,,,730.6841,2,audio/Narrative6Situation9.wav,731.8971,space,731.8972,741.848,"[[3.4,6665],[5.7,6750],[2.3,6999],[0.2,7083],[0.1,7167],[0.1,7250],[0.1,7333],[1.1,9333]]",1,0,741.8481,744.0474,0.393337674,1.7487,"[{""rating"":0.3933376736111105,""responseTime"":1.7486999999880481}]",space,1.6594,,744.0475,Not at all,0,744.0508,,,[],,,,0,9,9,9,1,audio/Narrative7Situation9.wav,audio/Narrative8Situation9.wav,audio/Narrative5Situation9.wav,audio/Narrative6Situation9.wav,2,3,3,4,1.2061,,,,,,,,,,,,,,,,,,,,,,,,,,,,,,,,,,,,
,,,,,,655f8b6cb4482d62ae248259,2024-02-08_15h20.23.485,group3.1-3.2-social-tom,2023.2.2,MacIntel,60.24096386,65c5074098b851296ff0b7ed,65c545697304e12e1ac54f5d,,,,,,,,,,,,,,,,,,,,,,,,,,,,,744.0511,2,audio/Narrative5Situation1.wav,745.1147,space,745.1147,758.4147,"[[0.5,11000],[30.8,11250],[31.6,11331],[31.6,11416],[34.6,11500],[50.3,11833],[51.8,11915],[50.5,11999],[49.9,12081],[49.9,12166],[50,12249],[50.2,12333],[50.2,12416],[50.2,12499],[50.2,12582],[50.2,12666],[50.2,12749],[50.2,12833],[50.2,12916],[50.2,12999],[50.2,13083],[50.2,13166],[50.2,13249]]",1,0,758.4149,760.7482,50.19205729,0.6984,"[{""rating"":50.19205729166667,""responseTime"":0.6983999999762318}]",space,1.7889,,760.7483,Definitely yes,100,760.7523,,,[],,,,0,10,10,10,1,audio/Narrative8Situation1.wav,audio/Narrative7Situation1.wav,audio/Narrative6Situation1.wav,audio/Narrative5Situation1.wav,5,2,2,5,1.0433,,,,,,,,,,,,,,,,,,,,,,,,,,,,,,,,,,,,
,,,,,,655f8b6cb4482d62ae248259,2024-02-08_15h20.23.485,group3.1-3.2-social-tom,2023.2.2,MacIntel,60.24096386,65c5074098b851296ff0b7ed,65c545697304e12e1ac54f5d,,,,,,,,,,,,,,,,,,,,,,,,,,,,,760.7525,2,audio/Narrative5Situation2.wav,761.715,space,761.7151,791.1828,"[[49.8,10833],[38.9,10917],[26.3,10998],[25,11083],[25,11166],[25,11250],[25,11333],[23.5,11417],[22.7,11500],[22.7,11582],[22.7,11665],[22.5,11749],[22.5,11833],[22.5,11916],[22.5,11999],[22.5,12083],[22.5,12166],[22.5,12249],[22.5,12333],[22.5,12416],[22.5,12499],[22.5,12583],[22.5,12666],[22.5,12749],[22.5,12833],[22.5,12916],[22.5,13000],[22.5,13083],[22.5,13166],[22.5,13250],[22.5,13333],[22.5,13415],[22.5,13499],[22.5,13583],[22.5,13666],[22.5,13749],[22.5,13833],[22.5,13916],[22.5,13999],[22.5,14083],[22.5,14166],[22.5,14249],[22.5,14332],[22.5,14415],[22.5,14500],[22.5,14583],[22.5,14666],[22.5,14749],[22.5,14833],[22.5,14916],[22.5,15000],[22.5,15082],[22.5,15165],[22.5,15250],[22.5,15333],[22.5,15416],[22.5,15500],[22.5,15583],[22.5,15666],[22.5,15749],[22.5,15833],[22.5,15915],[22.5,16000],[22.5,16083],[22.5,16166],[22.5,16250],[22.5,16333],[22.5,16415],[22.5,16499],[22.5,16583],[22.5,16665],[22.5,16749],[22.5,16833],[22.5,16915],[22.5,17000],[22.5,17083],[22.5,17165],[22.5,17249],[22.5,17332],[22.5,17415],[22.5,17500],[22.5,17583],[22.5,17667],[22.5,17750],[22.5,17833],[22.5,17917],[22.5,18000],[22.5,18083],[22.5,18165],[22.5,18250],[22.5,18332],[22.5,18416],[22.5,18499],[22.5,18583],[22.5,18666],[22.5,18750],[22.5,18833],[22.5,18916],[22.5,19000],[22.5,19083],[22.5,19166],[22.5,19250],[22.5,19333],[22.5,19417],[22.5,19500],[22.5,19583],[22.5,19667],[22.5,19749],[22.5,19832],[22.5,19917],[22.5,20000],[22.5,20083],[22.5,20167],[22.5,20250],[22.5,20333],[22.5,20417],[22.5,20500],[22.5,20583],[22.5,20666],[22.5,20750],[22.5,20833],[22.5,20917],[22.5,21000],[22.5,21083],[22.5,21166],[22.5,21249],[22.5,21333],[22.5,21417],[22.5,21500],[22.5,21582],[22.5,21666],[22.5,21750],[22.5,21833],[22.5,21917],[22.5,21999],[22.5,22083],[22.5,22167],[22.5,22250],[22.5,22333],[22.5,22416],[22.5,22500],[22.5,22583],[22.5,22666],[22.5,22750],[22.5,22833],[22.5,22917],[22.5,23000],[22.5,23082],[22.5,23167],[22.5,23250],[22.5,23333],[22.5,23417],[22.5,23500],[22.5,23583],[22.5,23667],[22.5,23750],[22.5,23833],[22.5,23917],[22.5,24000],[22.9,24084],[27.8,24167],[30.6,24250],[30.6,24333],[30.6,24417],[30.6,24500],[30.6,24582],[30.6,24667],[30.6,24750],[30.6,24832],[30.6,24916],[30.6,24999],[30.6,25083],[30.6,25166],[30.6,25250],[30.6,25333],[30.6,25416],[30.6,25500],[30.6,25582],[30.6,25667],[30.6,25750],[30.6,25833],[30.6,25917],[30.6,26000],[30.6,26083],[30.6,26166],[30.6,26250],[30.6,26334],[30.6,26417],[30.6,26500],[30.6,26582],[30.6,26667],[30.6,26750],[30.6,26833],[30.6,26917],[30.6,27000],[30.6,27083],[30.6,27166],[30.6,27250],[30.6,27334],[30.6,27417],[30.6,27499],[30.6,27583],[30.6,27667],[30.6,27750],[30.6,27833],[30.6,27917],[30.6,27999],[30.6,28083],[30.6,28167],[30.6,28250],[30.6,28333],[30.6,28416],[30.6,28500],[30.6,28583],[30.6,28667],[30.6,28750],[37.8,28833],[41.1,28916],[39,29000],[37.3,29084],[37.3,29166],[38.7,29251],[38.8,29334],[38.8,29416]]",1,0,791.183,792.3651,43.07942708,0.6635,"[{""rating"":43.079427083333336,""responseTime"":0.6634999999999991}]",space,0.6344,,792.3652,Definitely yes,100,792.3676,,,[],,,,0,11,11,11,1,audio/Narrative8Situation2.wav,audio/Narrative7Situation2.wav,audio/Narrative6Situation2.wav,audio/Narrative5Situation2.wav,3,3,3,3,0.9508,,,,,,,,,,,,,,,,,,,,,,,,,,,,,,,,,,,,
,,,,,,655f8b6cb4482d62ae248259,2024-02-08_15h20.23.485,group3.1-3.2-social-tom,2023.2.2,MacIntel,60.24096386,65c5074098b851296ff0b7ed,65c545697304e12e1ac54f5d,,,,,,,,,,,,,,,,,,,,,,,,,,,,,792.3679,2,audio/Narrative5Situation3.wav,795.3828,,795.3828,809.2991,"[[43.2,10083],[44.9,10167],[48.9,10249],[49.4,10333],[49,10416],[48.9,10500],[48.7,10583],[48.7,10665],[48.7,10749],[48.7,10833],[48.7,10915],[48.7,10999],[48.7,11083],[48.7,11166],[48.7,11249],[48.7,11332],[48.7,11416],[48.7,11500],[48.7,11583],[48.7,11666],[48.7,11749],[48.7,11833],[48.7,11916],[48.7,12000],[48.7,12083],[48.7,12166],[48.7,12250],[48.7,12332],[48.7,12416],[48.7,12500],[74.3,12583],[100,12916],[100,13000],[100,13084],[100,13166],[100,13250],[100,13333],[100,13416],[100,13500],[100,13582],[100,13667],[100,13750],[100,13833],[100,13915]]",1,0,809.2993,810.9329,99.5968967,1.2818,"[{""rating"":99.59689670138889,""responseTime"":1.2818000000119127}]",space,1.1015,,810.933,Not at all,0,810.9366,,,[],,,,0,12,12,12,1,audio/Narrative8Situation3.wav,audio/Narrative7Situation3.wav,audio/Narrative6Situation3.wav,audio/Narrative5Situation3.wav,4,8,5,3,,,,,,,,,,,,,,,,,,,,,,,,,,,,,,,,,,,,,
,,,,,,655f8b6cb4482d62ae248259,2024-02-08_15h20.23.485,group3.1-3.2-social-tom,2023.2.2,MacIntel,60.24096386,65c5074098b851296ff0b7ed,65c545697304e12e1ac54f5d,,,,,,,,,,,,,,,,,,,,,,,,,,,,,810.9368,2,audio/Narrative5Situation4.wav,811.7495,space,811.7496,832.1341,"[[95.6,5834],[94.4,14250],[94.4,14334],[94.4,14417],[97.3,14499],[98.7,14584],[98.7,14667],[98.8,14749],[99.1,14834],[99.1,14916],[99.1,15000],[99.1,15084],[99.1,15167],[99.5,15251],[100,15334],[100,15417],[100,15500],[100,15584],[100,15667],[100,15749],[100,15834],[100,15917],[100,16000],[100,16083],[100,16167],[100,16250],[100,16334],[100,16417],[100,16500],[100,16584],[100,16666],[100,16750],[100,16833],[100,16917],[100,16999],[100,17084],[100,17167],[100,17250],[100,17334],[100,17417],[100,17501],[100,17584],[100,17667],[100,17750],[100,17834],[100,17917],[100,18000],[100,18084],[100,18167],[100,18251],[100,18334],[100,18417],[100,18500],[100,18584],[100,18667],[100,18749],[100,18833],[100,18917],[100,19000],[100,19083],[100,19167],[100,19251],[100,19334],[100,19417],[100,19501],[100,19583],[100,19667],[100,19750],[100,19834],[100,19917],[100,20001],[99.8,20084]]",1,0,832.1343,835.9342,100,3.281,"[{""rating"":98.21017795138889,""responseTime"":2.597100000023829},{""rating"":100,""responseTime"":3.2810000000000628}]",space,3.2686,,835.9344,Partially,50,835.9378,,,[],,,,0,13,13,13,1,audio/Narrative8Situation4.wav,audio/Narrative7Situation4.wav,audio/Narrative6Situation4.wav,audio/Narrative5Situation4.wav,3,3,2,1,0.7973,,,,,,,,,,,,,,,,,,,,,,,,,,,,,,,,,,,,
,,,,,,655f8b6cb4482d62ae248259,2024-02-08_15h20.23.485,group3.1-3.2-social-tom,2023.2.2,MacIntel,60.24096386,65c5074098b851296ff0b7ed,65c545697304e12e1ac54f5d,,,,,,,,,,,,,,,,,,,,,,,,,,,,,835.938,2,audio/Narrative5Situation5.wav,836.801,space,836.8011,852.2351,"[[98.8,5331],[70.5,5583],[69.5,5666],[71.3,5750],[58.5,5916],[55.6,6000],[55.6,6083],[55.7,6166],[55.7,6248],[55.7,6333],[55.7,6415],[54.6,6499],[51.1,6583],[50.9,6665],[50.8,6749],[50.8,6833],[50.8,6916],[50.8,6999],[50.8,7083],[50.8,7166],[50.8,7249],[50.8,7333],[50.8,7416],[50.8,7500],[50.8,7582],[50.8,7666],[50.8,7749],[50.8,7833],[50.8,7916],[50.8,8000],[50.8,8083],[50.8,8166],[50.8,8249],[50.8,8333],[50.8,8415],[50.8,8500],[50.8,8583],[50.8,8666],[50.8,8750],[50.8,8833],[50.8,8916],[50.8,8999],[50.8,9083],[50.8,9166],[50.8,9248],[50.8,9333],[50.8,9416],[50.8,9499],[50.8,9583],[50.8,9666],[50.8,9748],[50.8,9833],[50.8,9916],[50.8,9999],[50.8,10083],[50.8,10166],[50.8,10249],[50.8,10333],[50.8,10415],[50.8,10498],[50.8,10582],[50.8,10665],[50.8,10750],[50.8,10833],[50.8,10915],[50.8,11000],[50.8,11083],[50.8,11166],[50.8,11249],[50.8,11333],[50.8,11415],[50.8,11499],[50.8,11583],[50.8,11666],[50.8,11750],[50.8,11832],[50.8,11916],[50.8,12000],[50.8,12083],[50.8,12166],[50.8,12249],[50.8,12333],[50.8,12416],[50.8,12499],[50.8,12583],[50.8,12666],[50.8,12750],[50.8,12833],[50.8,12916],[50.8,13000],[50.8,13083],[50.8,13166],[50.8,13250],[50.8,13333],[50.8,13416],[50.8,13500],[50.8,13583],[50.8,13666],[50.8,13749],[50.8,13832],[50.8,13916],[50.8,14000],[50.8,14083],[50.8,14166],[50.8,14250],[50.8,14332],[50.8,14416],[50.8,14500],[50.8,14583],[52.7,14665],[66.9,14748],[70.6,14833],[68.3,14917],[61.6,15000],[60.5,15083],[59.9,15167],[57.8,15250],[57.2,15332],[55.4,15417]]",1,0,852.2352,853.5506,56.0687934,0.7638,"[{""rating"":56.06879340277777,""responseTime"":0.7637999999523117}]",space,0.7842,,853.5507,Definitely yes,100,853.5533,,,[],,,,0,14,14,14,1,audio/Narrative8Situation5.wav,audio/Narrative7Situation5.wav,audio/Narrative6Situation5.wav,audio/Narrative5Situation5.wav,2,5,2,5,0.8475,,,,,,,,,,,,,,,,,,,,,,,,,,,,,,,,,,,,
,,,,,,655f8b6cb4482d62ae248259,2024-02-08_15h20.23.485,group3.1-3.2-social-tom,2023.2.2,MacIntel,60.24096386,65c5074098b851296ff0b7ed,65c545697304e12e1ac54f5d,,,,,,,,,,,,,,,,,,,,,,,,,,,,,853.5535,2,audio/Narrative5Situation6.wav,854.3014,space,854.3015,859.985,[],1,0,859.9851,862.552,49.27897135,2.2538,"[{""rating"":49.278971354166664,""responseTime"":2.2538000000118927}]",space,2.0283,,862.552,Partially,50,862.5556,,,[],,,,0,15,15,15,1,audio/Narrative8Situation6.wav,audio/Narrative7Situation6.wav,audio/Narrative6Situation6.wav,audio/Narrative5Situation6.wav,2,3,2,3,0.7412,,,,,,,,,,,,,,,,,,,,,,,,,,,,,,,,,,,,
,,,,,,655f8b6cb4482d62ae248259,2024-02-08_15h20.23.485,group3.1-3.2-social-tom,2023.2.2,MacIntel,60.24096386,65c5074098b851296ff0b7ed,65c545697304e12e1ac54f5d,,,,,,,,,,,,,,,,,,,,,,,,,,,,,862.5558,2,audio/Narrative5Situation7.wav,863.2355,space,863.2356,884.2861,"[[50,9165],[51.2,9250],[51.5,9332],[51.6,9415],[51.6,9499],[51.6,9582],[51.6,9666],[51.6,9750],[51.6,9833],[51.6,9915],[51.6,9999],[51.6,10083],[51.6,10166],[51.6,10249],[51.5,10331],[51.5,10416],[51.5,10499],[51.5,10583],[51.5,10666],[51.5,10749],[51.5,10833],[51,10917],[50.5,11000],[50.3,11083],[50.4,11166],[50.6,11249],[50.6,11332],[50.6,11415],[50.6,11499],[50.5,11583],[50.5,11666],[50.5,11749],[50.5,11832],[50.5,11916],[50.5,11999],[50.5,12082],[50.5,12166],[50.5,12249],[50.5,12332],[50.5,12415],[50.5,12499],[50.5,12582],[50.5,12666],[50.5,12749],[50.5,12832],[50.5,12915],[50.5,12999],[50.5,13082],[50.5,13166],[50.5,13249],[50.5,13332],[50.5,13416],[50.5,13499],[50.5,13583],[50.5,13666],[50.5,13749],[50.5,13833],[50.5,13916],[50.5,13999],[50.5,14083],[50.5,14166],[50.5,14249],[50.5,14333],[50.5,14416],[50.5,14499],[50.5,14583],[50.5,14666],[50.5,14748],[50.5,14832],[50.5,14915],[50.5,14999],[50.5,15083],[50.5,15165],[50.5,15249],[50.5,15333],[50.5,15416],[50.5,15499],[50.5,15583],[50.5,15666],[50.5,15750],[50.5,15833],[50.5,15916],[50.5,15999],[50.5,16083],[50.5,16166],[50.5,16250],[50.5,16333],[50.5,16416],[50.5,16499],[50.5,16583],[50.5,16666],[50.5,16748],[50.5,16833],[50.5,16916],[50.5,16999],[50.5,17083],[50.5,17166],[50.5,17249],[50.5,17332],[50.5,17416],[50.5,17499],[50.5,17582],[50.5,17666],[50.5,17749],[50.5,17833],[50.5,17916],[50.5,17999],[50.5,18083],[50.5,18165],[50.5,18249],[50.5,18333],[50.5,18416],[50.5,18499],[50.5,18583],[50.5,18666],[50.5,18749],[50.5,18833],[50.5,18916],[50.5,19000],[50.5,19083],[50.5,19166],[50.5,19250],[50.5,19333],[50.5,19416],[50.5,19500],[50.5,19583],[50.5,19666],[50.5,19750],[50.5,19833],[50.5,19916],[50.5,19999],[50.5,20083],[50.5,20166],[50.5,20250],[50.5,20333],[50.5,20416],[50.5,20499],[50.5,20583],[50.5,20665],[50.5,20750],[50.5,20832],[50.5,20916],[50.5,21000]]",1,0,884.2864,886.1694,17.32638889,1.4133,"[{""rating"":17.32638888888889,""responseTime"":1.4133000000119864}]",space,1.3452,,886.1695,Definitely yes,100,886.1727,,,[],,,,0,16,16,16,1,audio/Narrative8Situation7.wav,audio/Narrative7Situation7.wav,audio/Narrative6Situation7.wav,audio/Narrative5Situation7.wav,3,5,5,4,0.6634,,,,,,,,,,,,,,,,,,,,,,,,,,,,,,,,,,,,
,,,,,,655f8b6cb4482d62ae248259,2024-02-08_15h20.23.485,group3.1-3.2-social-tom,2023.2.2,MacIntel,60.24096386,65c5074098b851296ff0b7ed,65c545697304e12e1ac54f5d,,,,,,,,,,,,,,,,,,,,,,,,,,,,,886.173,2,audio/Narrative5Situation8.wav,887.0017,space,887.0019,895.8357,[],1,0,895.836,898.103,0.446506076,2.0212,"[{""rating"":0.4465060763888862,""responseTime"":2.0211999999880845}]",space,1.7436,,898.1032,Not at all,0,898.1061,,,[],,,,0,17,17,17,1,audio/Narrative8Situation8.wav,audio/Narrative7Situation8.wav,audio/Narrative6Situation8.wav,audio/Narrative5Situation8.wav,3,2,5,3,0.8125,,,,,,,,,,,,,,,,,,,,,,,,,,,,,,,,,,,,
,,,,,,655f8b6cb4482d62ae248259,2024-02-08_15h20.23.485,group3.1-3.2-social-tom,2023.2.2,MacIntel,60.24096386,65c5074098b851296ff0b7ed,65c545697304e12e1ac54f5d,,,,,,,,,,,,,,,,,,,,,,,,,,,,,898.1064,2,audio/Narrative5Situation9.wav,898.6198,space,898.6198,938.1709,"[[1,7916],[17.6,8000],[29.5,8083],[29.6,8166],[29.6,8249],[29.6,8333],[29.6,8415],[29.6,8500],[29.6,8583],[29.6,8666],[29.6,8750],[29.6,8833],[29.6,8916],[29.6,9000],[29.6,9083],[29.6,9165],[29.6,9250],[29.6,9333],[29.6,9415],[29.6,9499],[29.6,9583],[31.2,9666],[48,9750],[51.7,9833],[51.7,9915],[51.7,10000],[51.7,10083],[51.7,10166],[51.7,10250],[51.7,10333],[51.7,10415],[51.7,10499],[51.7,10583],[51.7,10665],[51.7,10749],[51.7,10833],[51.7,10915],[51.7,11000],[51.7,11083],[51.7,11166],[51.7,11250],[51.7,11333],[51.7,11416],[51.7,11499],[51.7,11582],[51.7,11666],[51.7,11750],[51.7,11833],[51.7,11916],[51.7,12000],[51.7,12083],[51.7,12166],[51.7,12250],[51.7,12332],[51.7,12416],[51.7,12499],[51.7,12583],[51.7,12666],[51.7,12750],[51.7,12833],[51.7,12916],[51.7,13000],[51.7,13083],[51.7,13166],[51.7,13249],[51.7,13333],[51.7,13416],[57.7,13500],[90.4,13583],[92.2,13666],[92.2,13749],[92.2,13832],[95.1,13916],[96,14000],[96,14083],[96,14166],[96,14250],[96,14333],[96,14416],[96,14500],[96,14583],[96,14666],[84.2,14749],[76.5,14833],[76.5,14916],[76.5,15000],[76.5,15083],[76.5,15167],[76.5,15250],[76.5,15333],[76.5,15417],[76.5,15500],[76.5,15583],[76.5,15667],[76.5,15749],[76.5,15832],[76.5,15916],[76.5,15999],[76.5,16083],[76.5,16167],[76.6,16250],[80.5,16332],[65.9,16417],[53,16500],[54.8,16584],[61.1,16667],[63.5,16750],[63.9,16834],[63.7,16917],[62.6,16999],[60.5,17083],[60.2,17166],[60.4,17250],[60.6,17333],[60.6,17417],[60.6,17500],[60.6,17582],[60.6,17665],[60.6,17750],[60.6,17833],[60.6,17916],[60.6,18000],[60.6,18083],[60.6,18167],[60.6,18249],[60.6,18333],[60.6,18417],[60.6,18499],[60.8,18584],[61.6,18666],[62,18749],[62,18832],[62,18916],[62,19000],[62,19083],[62,19166],[62,19250],[62,19333],[62.7,19417],[64.3,19501],[64.9,19583],[65,19667],[65,19750],[65,19833],[65,19917],[65,19999],[65,20083],[65,20167],[65,20249],[65,20333],[65,20417],[65,20500],[65,20583],[65,20667],[65,20750],[65,20833],[65,20916],[65,21000],[65,21083],[65,21166],[65,21250],[65,21333],[65,21417],[65,21499],[65,21583],[65,21666],[65,21750],[65,21833],[71.8,21917],[75,22000],[73.8,22084],[73.9,22167],[74.9,22250],[74.7,22333],[74.5,22417],[73.2,22500],[72.6,22583],[72.5,22667],[73,22750],[73.4,22833],[73.4,22917],[73.4,22999],[73.4,23082],[73.4,23167],[73.4,23250],[73.4,23334],[73.4,23417],[73.2,23500],[73.7,23584],[73.9,23667],[73.9,23749],[73.6,23834],[72.5,23917],[72.4,24000],[72.4,24083],[72.4,24167],[72.4,24250],[72.4,24333],[72.4,24416],[72.4,24500],[72.4,24583],[72.4,24667],[72.4,24750],[72.4,24833],[72.4,24917],[72.4,25000],[72.4,25083],[72.4,25167],[72.4,25250],[72.4,25334],[72.4,25417],[72.4,25499],[72.4,25583],[72.4,25666],[72.4,25750],[72.4,25834],[72.4,25917],[72.4,26000],[72.4,26084],[72.4,26167],[68.2,26251],[61.7,26834],[62.3,26917],[62.3,27000],[62.3,27083],[62.3,27167],[62.8,27250],[64.7,27334],[68.6,27417],[70.2,27501],[70.5,27583],[70.5,27667],[71.2,27751],[72.8,27833],[72.7,27917],[72.7,27999],[72.7,28084],[72.7,28166],[72.7,28250],[72.7,28334],[72.7,28417],[72.7,28500],[72.7,28584],[72.7,28667],[72.7,28750],[72.7,28834],[72.7,28916],[72.7,29000],[72.7,29084],[72.7,29167],[72.7,29250],[72.7,29332],[72.7,29417],[72.7,29500],[72.7,29584],[72.7,29666],[72.7,29750],[72.7,29833],[72.7,29916],[72.7,30000],[72.7,30084],[72.7,30167],[72.7,30250],[72.7,30334],[72.7,30417],[72.7,30500],[72.7,30584],[72.7,30667],[72.7,30750],[72.7,30834],[72.7,30916],[72.7,31000],[72.7,31084],[72.7,31167],[72.7,31249],[72.7,31334],[72.7,31417],[72.7,31500],[72.7,31584],[72.7,31666],[72.7,31750],[72.7,31834],[72.7,31916],[72.7,32000],[72.7,32084],[72.7,32167],[72.7,32250],[72.7,32334],[72.7,32417],[72.7,32500],[72.7,32584],[72.7,32667],[72.7,32750],[72.7,32834],[72.7,32917],[72.7,33000],[72.7,33084],[72.7,33167],[72.7,33250],[72.7,33334],[72.7,33416],[72.7,33500],[72.7,33584],[72.7,33667],[72.7,33750],[72.7,33834],[72.7,33917],[72.7,34000],[73.2,34083],[73.5,34166],[73.6,34251],[73.6,34334],[74.3,34418],[75.2,34501],[76.2,34584],[76.7,34667],[77,34750],[77,34834],[77,34917],[77,35001],[77,35084],[77,35167],[77,35251],[77,35334],[77,35417],[77,35501],[77,35584],[77,35667],[77,35751],[77,35834],[77,35917],[77,36001],[77.1,36084],[77.3,36166],[77.7,36251],[78.3,36334],[78.9,36417],[79,36501],[79,36583],[79,36667],[79,36751],[79,36834],[79,36916],[79,37000],[79,37084],[79,37167],[79,37251],[79,37334],[79,37417],[77.1,37500],[75.7,37584],[75.7,37667],[75.9,37751],[76.6,37834],[77.6,37917],[78.1,38001],[78.1,38084],[78.1,38166],[78.1,38251],[78.1,38334],[78.1,38417],[78.1,38500],[78.1,38584],[78.1,38668],[78.1,38751],[78.1,38834],[78.1,38916],[78.1,39001],[78.1,39083],[78.1,39167],[78.1,39251],[78.1,39334],[78,39418],[74.4,39501]]",1,0,938.1711,940.2203,71.2749566,0.9812,"[{""rating"":71.27495659722223,""responseTime"":0.9811999999880072}]",space,1.5021,,940.2204,Partially,50,943.7714,50.63205295,3.1463,"[{""rating"":50.632052951388886,""responseTime"":3.146299999952248}]",space,3.0199,,0,18,18,18,1,audio/Narrative8Situation9.wav,audio/Narrative7Situation9.wav,audio/Narrative6Situation9.wav,audio/Narrative5Situation9.wav,3,2,4,3,0.5077,,,,,,,,,,,,,,,,,,,,,,,,,,,,,,,,,,,,
,,,,,,655f8b6cb4482d62ae248259,2024-02-08_15h20.23.485,group3.1-3.2-social-tom,2023.2.2,MacIntel,60.24096386,65c5074098b851296ff0b7ed,65c545697304e12e1ac54f5d,,,,,,,,,,,,,,,,,,,,,,,,,,,,,,,,,,,,,,,,,,,,,,,,,,,,,,,,,,,,,,,,,,,,,,,,943.7719,944.8882,space,0.5936,,944.8885,952.0395,space,6.821,,,,,,,,,,,,,,,,,,,,,,,,,,
,,,,,,655f8b6cb4482d62ae248259,2024-02-08_15h20.23.485,group3.1-3.2-social-tom,2023.2.2,MacIntel,60.24096386,65c5074098b851296ff0b7ed,65c545697304e12e1ac54f5d,,,,,,,,,,,,,,,,,,,,,,,,,,,,,954.6421,1,audio/Narrative7Situation9.wav,955.2719,space,,,,,,987.1279,988.7731,54.61480035,1.2594,"[{""rating"":54.61480034722223,""responseTime"":1.2593999999761536}]",space,1.1048,,987.1242,Not at all,0,987.1279,,,[],,,,,,,,,,,,,2,2,2,2,0.6248,,,,,,,,,,,,952.0505,954.6226,955.2723,3,987.124,"[[45.9,2333],[8.7,2416],[6.1,2500],[1.9,2583],[0.2,3916],[0.2,3999],[0.2,4082],[0.2,4165],[0.2,4249],[0.2,4332],[0.2,4416],[0.2,4498],[1.9,4583],[3.3,4666],[3.3,4750],[3.2,4832],[3.2,4916],[3.2,4999],[3.2,5082],[2.7,5166],[0.9,5248],[0.6,5332],[0.4,5416],[9.7,18916],[22.1,19000],[23.4,19082],[22.8,19166],[22.8,19250],[22.8,19333],[22.8,19416],[22.8,19500],[22.8,19583],[22.8,19666],[22.8,19750],[22.8,19833],[22.8,19915],[22.8,20000],[22.8,20083],[22.8,20166],[22.8,20250],[22.8,20333],[22.8,20416],[22.8,20500],[22.8,20583],[22.8,20665],[22.8,20750],[22.8,20833],[22.8,20916],[22.8,20999],[22.8,21082],[22.8,21165],[22.8,21250],[22.8,21333],[22.8,21416],[22.8,21500],[22.8,21582],[22.8,21666],[22.8,21750],[22.8,21833],[22.8,21916],[22.8,21999],[22.8,22083],[22.8,22165],[22.8,22250],[22.8,22332],[22.8,22416],[22.8,22500],[22.8,22582],[22.8,22666],[22.8,22750],[22.8,22833],[22.8,22916],[22.8,23000],[22.8,23083],[22.8,23166],[22.8,23250],[22.8,23333],[22.8,23416],[22.8,23500],[22.8,23583],[22.8,23666],[22.8,23750],[22.8,23833],[22.8,23916],[22.8,24000],[22.8,24083],[22.8,24165],[22.8,24250],[22.8,24333],[22.8,24416],[22.8,24500],[22.8,24583],[22.8,24666],[22.8,24749],[22.8,24833],[22.8,24917],[22.8,25000],[22.8,25083],[22.8,25166],[22.8,25250],[22.8,25333],[22.8,25417],[22.8,25500],[22.8,25582],[22.8,25666],[22.8,25750],[22.8,25832],[22.8,25917],[22.8,26000],[22.8,26083],[22.8,26166],[22.8,26249],[22.8,26333],[22.8,26417],[22.8,26500],[22.8,26583],[22.8,26666],[22.8,26750],[22.8,26833],[22.8,26916],[22.8,26999],[22.8,27083],[22.8,27167],[22.8,27250],[22.8,27333],[22.8,27417],[22.8,27500],[22.8,27583],[22.8,27666],[22.8,27750],[22.8,27833],[22.8,27916],[22.8,28000],[22.8,28083],[22.8,28167],[31.7,28250],[37.9,28332],[37.9,28416],[37.9,28500],[50.1,28582],[50.8,28667],[50.1,28750],[50.1,28832],[50,28916],[50,29000],[50.1,29083],[50.1,29167],[50.1,29250],[50.1,29334],[50.1,29416],[50.1,29500],[50.1,29583],[50.1,29667],[50.1,29750],[50.1,29834],[50.1,29917],[50.1,30000],[50.1,30082],[50.1,30166],[50.1,30250],[50.1,30333],[50.1,30416],[50.1,30499],[50.1,30582],[50.1,30666],[50.1,30749],[50.1,30833],[50.1,30917],[50.1,31000],[50.1,31082],[50.1,31167],[50.1,31250],[50.1,31332],[50.1,31416],[50.1,31500],[50.1,31583],[50.1,31667],[50.1,31749],[50.1,31834]]",0,0,0,0,1,"Larry had recently lost his family, job and home, and was now living on his own in the park. He had most of his belongings, including some clothes, a blanket, and his mother’s special necklace. His family had been very important to him and he felt as though he did not have much going for him. One of his first days in the park he came across a family that did not have much food and looked very cold. He decided to give them some of his food and his blanket.","Larry had recently lost his family, job and home, and was now living on his own in the park. He had most of his belongings, including some clothes, a blanket, and his mother’s special necklace. His family had been very important to him and he felt as though he did not have much going for him. One of his first days in the park he came across a family that did not have much food and looked very cold. He decided to give them some of his food and his blanket.","Larry had recently lost his family, job and home, and was now living on his own in the park. He had most of his belongings, including some clothes, a blanket, and his mother’s special necklace. His family had been very important to him and he felt as though he did not have much going for him. One of his first days in the park he came across a family that did not have much food and looked very cold. He decided to give them some of his food and his blanket.","Larry had recently lost his family, job and home, and was now living on his own in the park. He had most of his belongings, including some clothes, a blanket, and his mother’s special necklace. His family had been very important to him and he felt as though he did not have much going for him. One of his first days in the park he came across a family that did not have much food and looked very cold. He decided to give them some of his food and his blanket.",,,,,,,,,,
,,,,,,655f8b6cb4482d62ae248259,2024-02-08_15h20.23.485,group3.1-3.2-social-tom,2023.2.2,MacIntel,60.24096386,65c5074098b851296ff0b7ed,65c545697304e12e1ac54f5d,,,,,,,,,,,,,,,,,,,,,,,,,,,,,988.774,1,audio/Narrative7Situation9.wav,990.1064,space,,,,,,1013.9721,1015.9407,28.96158854,1.5994,"[{""rating"":28.961588541666668,""responseTime"":1.5994000000357573}]",space,1.443,,1013.9573,Not at all,0,1013.972,,,[],,,,,,,,,,,,,6,2,3,9,1.3197,,,,,,,,,,,,,,990.1065,3,1013.9572,[],0,1,1,1,1,"It was just another Sunday afternoon for Lucy, she was on her way to the farmer's market to pick up some produce. When she arrived at the old train depot that housed the market, she noticed two men fighting on the steps. Before she could call for help, one of the men crumpled to his knees. The other man dropped an object that appeared to be a knife and ran off. When Lucy approached the crime scene she realized that the man who had been murdered was the Mayor and that he had a gunshot wound.","One day at work, Margaret walked up to her partner, Al, to ask him to talk to the chief of staff at the local hospital where she worked as a nurse.","Luke always thought of himself as an honest man. That's why during his evening jog around the swamp, he pondered his recent affair with the receptionist at work. Luke looked up at the sky and asked God why he was so weak and unfaithful. He thought of the impact this would have on his family and told God of his conflicted feelings toward telling his wife Marta.","Linda and Amy had been best friends since kindergarten, they even found homes on the same street in the forest on the edge of town. Their biggest fight had been over who gets the bigger slice of cake, until Amy married Dan. Linda loathed Dan, she thought he was manipulative and had a violent temper. She only put up with him because Amy loved him. ",,,,,,,,,,
,,,,,,655f8b6cb4482d62ae248259,2024-02-08_15h20.23.485,group3.1-3.2-social-tom,2023.2.2,MacIntel,60.24096386,65c5074098b851296ff0b7ed,65c545697304e12e1ac54f5d,,,,,,,,,,,,,,,,,,,,,,,,,,,,,1015.9412,1,audio/Narrative7Situation9.wav,1016.9068,space,,,,,,1044.9252,1050.8086,97.61013455,5.4971,"[{""rating"":50.1318359375,""responseTime"":4.0398999999761145},{""rating"":97.61013454861111,""responseTime"":5.497099999964348}]",space,5.3443,,1043.0922,Partially,50,1044.925,99.76019965,1.0653,"[{""rating"":99.76019965277779,""responseTime"":1.06530000001203}]",space,1.2941,,,,,,,,,,,4,5,2,2,0.9462,,,,,,,,,,,,,,1016.9069,3,1043.0918,"[[29.4,19251],[71.4,19334],[100,19668],[100,19751],[100,19833],[100,19916],[100,20001],[100,20084],[100,20167],[100,20250],[100,20334],[100,20418],[100,20500],[100,20584],[100,20666],[100,20751],[100,20834],[100,20917],[100,21001],[100,21084],[100,21167],[100,21250],[100,21334],[100,21417],[100,21501],[100,21584],[100,21667],[100,21751],[100,21834],[100,21917],[100,22001],[100,22084],[100,22166],[100,22250],[100,22334],[100,22417],[100,22500],[100,22584],[100,22667],[100,22751],[100,22834],[100,22917],[100,23001],[100,23083],[100,23168],[100,23251],[100,23334],[100,23417],[100,23500],[100,23584],[100,23667],[100,23751],[100,23833],[100,23917],[100,24001],[100,24084],[100,24167],[100,24251],[100,24333],[100,24417],[100,24500],[100,24584],[100,24667],[100,24751],[100,24833],[100,24916],[100,25001],[100,25084],[100,25167],[100,25251],[100,25334],[100,25417],[100,25501],[100,25584],[100,25667],[100,25751],[100,25834],[100,25917],[100,26001],[100,26084],[100,26167]]",0,2,2,2,1,On the ground beside him was a pen that she had mistaken for a knife. Lucy looked for the gunman and saw a suspicious man in black with distinct pointy features darting into an alley across the street. Cops who were nearby chased the man who had fled and arrested him.,"While waiting outside the chief of staff's office, Al heard nondescript shouting and yelling, there was a loud clatter in the room and then an eerie silence. An unfamiliar employee ran hastily out of the office with a terrified look on their face.","Suddenly, Luke heard a woman call out his name and when he turned around he saw Carly, his receptionist, across the road with a gun in her hand. Carly ran to him and explained how she had followed him here to confess her love. She exclaimed if Luke didn't love her back that she would kill him and his family. Carly explained that the only way they could be together is to kill Marta.","This feeling of hate between Amy and Dan was mutual, Dan didn't like how much time his wife spent with her and thought Amy was creating distance between their marriage. That's why Dan decided to try and tarnish Linda's reputation with his wife, in hopes it would get rid of her. He came home one afternoon and exclaimed that Linda had tried to kiss him. Amy was taken aback and immediately called Linda to confront her about these accusations. When Linda arrived she denied having made a move on Dan, but discovered Dan had enlisted the help of his friend Will who said he witnessed it all happen.",,,,,,,,,,
,,,,,,655f8b6cb4482d62ae248259,2024-02-08_15h20.23.485,group3.1-3.2-social-tom,2023.2.2,MacIntel,60.24096386,65c5074098b851296ff0b7ed,65c545697304e12e1ac54f5d,,,,,,,,,,,,,,,,,,,,,,,,,,,,,1050.8091,1,audio/Narrative7Situation9.wav,1051.5584,space,,,,,,1074.0902,1076.0928,18.6859809,1.4998,"[{""rating"":18.68598090277778,""responseTime"":1.4998000000118736}]",space,1.4685,,1074.0763,Partially,50,1074.0902,,,[],,,,,,,,,,,,,2,2,1,4,0.7441,,,,,,,,,,,,,,1051.5586,3,1074.076,"[[87.7,3333],[85.3,3416],[85.3,3499],[85.3,3583],[85.3,3666],[85.3,3749],[85.3,3833],[85.3,3916],[85.3,3999],[85.3,4083],[85.3,4166],[85.3,4249],[85.3,4332],[85.3,4416],[85.3,4499],[85.3,4583],[85.3,4666],[85.3,4749],[85.3,4833],[85.3,4916],[85.3,5000],[85.3,5083],[85.3,5165],[85.3,5248],[85.3,5332],[85.3,5416],[85.3,5499],[85.3,5583],[85.3,5666],[85.3,5749],[85.3,5833],[85.3,5916],[85.3,5999],[85.3,6083],[85.3,6166],[85.3,6249],[85.3,6333],[85.3,6416],[85.3,6499],[85.3,6582],[85.3,6665],[85.3,6749],[85.3,6833],[85.3,6916],[85.3,6999],[85.3,7083],[85.3,7165],[85.3,7250],[85.3,7332],[85.3,7416],[85.3,7499],[85.3,7582],[85.3,7666],[85.3,7748],[85.3,7833],[85.3,7915],[85.3,8000],[85.3,8083],[85.3,8166],[85.3,8250],[85.3,8333],[85.3,8416],[85.3,8500],[85.3,8583],[85.3,8666],[85.3,8750],[85.3,8833],[85.3,8916],[85.3,8999],[85.3,9082],[85.3,9166],[85.3,9250],[85.3,9333],[85.3,9415],[85.3,9499],[85.3,9583],[85.3,9666],[85.3,9750],[85.3,9833],[85.3,9916],[85.3,10000],[85.3,10083],[85.3,10165],[85.3,10250],[85.3,10333],[85.3,10416],[85.3,10500],[85.3,10583],[85.3,10666],[85.3,10750],[85.3,10833],[85.3,10916],[85.3,10999],[85.3,11083],[85.3,11165],[85.3,11250],[85.3,11333],[85.3,11416],[85.3,11500],[85.3,11583],[85.3,11666],[85.3,11750],[85.3,11832],[85.3,11916],[85.3,12000],[85.3,12083],[85.3,12166],[85.3,12250],[85.3,12333],[85.3,12415],[85.3,12499],[85.3,12583],[85.3,12666],[85.3,12750],[85.3,12833],[85.3,12916],[85.3,13000],[85.3,13083],[85.3,13165],[85.3,13249],[85.3,13333],[85.3,13416],[85.3,13500],[85.3,13583],[85.3,13665],[85.3,13750],[85.3,13833],[85.3,13916],[85.3,14000],[85.3,14083],[85.3,14166],[85.3,14250],[85.3,14333],[85.3,14416],[85.3,14500],[85.3,14582],[85.3,14666],[85.3,14750],[85.3,14832],[85.3,14916],[85.3,15000],[85.3,15083],[85.3,15166],[85.3,15249],[85.3,15333],[85.3,15416],[85.3,15500],[85.3,15582],[85.3,15665],[85.3,15750],[85.3,15833],[85.3,15916],[85.3,15999],[85.3,16083],[85.3,16166],[85.3,16249],[85.3,16333],[85.3,16416],[85.3,16500],[85.3,16582],[85.3,16666],[85.3,16750],[85.3,16833],[85.3,16917],[85.3,17000],[85.3,17083],[85.3,17166],[85.3,17249],[85.3,17332],[85.3,17417],[85.3,17500],[85.3,17583],[85.3,17666],[85.3,17750],[85.3,17832],[85.3,17916],[85.3,18000],[85.3,18083],[85.3,18166],[85.3,18250],[85.3,18333],[85.3,18417],[85.3,18500],[85.3,18583],[85.3,18667],[85.3,18750],[85.3,18833],[85.3,18916],[85.3,18999],[85.3,19082],[85.3,19166],[85.3,19250],[85.3,19333],[85.3,19416],[85.3,19499],[85.3,19583],[85.3,19666],[85.3,19750],[85.3,19833],[85.3,19916],[85.3,20000],[85.3,20083],[85.3,20166],[85.3,20250],[85.3,20332],[85.3,20417],[85.3,20500],[85.3,20582],[85.3,20667],[85.3,20750],[85.3,20832],[85.3,20916],[85.3,21000],[85.3,21083],[85.3,21167],[85.3,21250],[85.3,21333],[85.3,21417],[85.3,21500],[85.3,21583],[85.3,21666],[85.3,21750],[85.3,21832],[85.3,21917],[85.3,22000],[85.3,22083],[85.3,22167],[85.3,22250],[85.3,22333],[85.3,22417],[85.3,22499]]",0,3,3,3,1,"But Lucy knew the charged man was innocent, which meant the killer was free. Lucy vowed to find out who the real murderer was and to stop him at all costs.","Al explained to the chief of staff that Margaret wanted to be excused from her absences last week. The chief of staff, Susan, revealed that she wanted to fire Margaret and never see her again. Susan and Al had been having an affair and she wanted Margaret ""out of the picture"". Al was conflicted, but agreed it would be for the best.","Luke thought of his child and felt like this was his only option. He agreed to the plan and called his wife to meet him at the swamp to watch the sunset with him. When she arrived, Marta called out for her husband, but found Carly waiting for her. She immediately drew her gun and shot her in the chest, knocking her unconscious.","Since it was their word against her own, she decided to go home and admit defeat. She knew how much it would hurt Amy to know the truth.",,,,,,,,,,
,,,,,,655f8b6cb4482d62ae248259,2024-02-08_15h20.23.485,group3.1-3.2-social-tom,2023.2.2,MacIntel,60.24096386,65c5074098b851296ff0b7ed,65c545697304e12e1ac54f5d,,,,,,,,,,,,,,,,,,,,,,,,,,,,,1076.0935,1,audio/Narrative7Situation9.wav,1077.1093,,,,,,,1099.646,1100.7424,42.01660156,0.5293,"[{""rating"":42.0166015625,""responseTime"":0.5293000000119719}]",space,0.5508,,1099.6428,Not at all,0,1099.646,,,[],,,,,,,,,,,,,1,1,3,3,,,,,,,,,,,,,,,1077.1094,3,1099.6427,"[[19.6,9667],[31.6,9750],[37.9,9833],[40.3,9915],[40.3,10000],[42,10082],[56,10165],[57.1,10249],[54.7,10333],[52.5,10417],[51.6,10500],[50.9,10584],[50.8,10666],[50.8,10750],[50.8,10833],[50.8,10916],[50.8,11000],[50.8,11083],[50.8,11167],[50.8,11250],[50.8,11333],[50.8,11415],[50.8,11500],[50.8,11583],[50.8,11666],[50.8,11750],[50.8,11833],[50.8,11916],[50.8,12000],[50.8,12083],[50.8,12165],[50.8,12250],[50.8,12333],[50.8,12416],[50.8,12499],[50.8,12583],[50.8,12667],[50.8,12750],[50.8,12833],[50.8,12917],[50.8,13000],[50.8,13083],[50.8,13167],[50.8,13249],[50.8,13332],[50.8,13417],[50.8,13500],[50.8,13583],[50.8,13667],[50.8,13750],[50.8,13833],[50.8,13917],[50.8,14000],[50.8,14083],[50.8,14167],[50.8,14249],[50.8,14333],[42.3,14416],[37.1,14500],[34.9,14584],[34.6,14666],[36,14750],[36.9,14833],[37,14917],[38,15000],[39.2,15083],[39.2,15166],[39.2,15249],[39.2,15333],[39.2,15417],[39.2,15499],[39.2,15582],[39.2,15667],[39.2,15750],[39.2,15833],[40.2,15917],[41.2,16000],[41.3,16083],[41.8,16167],[42.7,16250],[43,16333],[43,16416],[43,16500],[46.5,16582],[48.8,18834],[48.1,18917],[48.1,19000],[48.6,19083],[48.8,19167],[49,19250],[49,19334],[49,19417],[49,19500],[49,19583],[49,19666],[49,19750],[49,19833],[49,19917],[49,19999],[49,20083],[49,20166],[49,20249],[49,20332],[49,20417],[49,20500],[49,20582],[49,20666],[49,20750],[49,20833],[49,20917],[49,21000],[49,21083],[49,21167],[49,21250],[49,21333],[49,21416],[49,21500],[49,21583],[49,21667],[49,21750],[45.6,21834],[41.2,21917],[40.6,21999],[40.6,22084],[40.6,22166],[40.6,22250],[40.6,22334],[40.9,22417],[41.7,22500]]",0,4,4,4,1,"The next day the mayors successor, Mr. Smith, a man who was very unpopular due to his strong ties to the oil companies, took office. After a long day of brainstorming about the mysterious killer, Lucy decided to attend his welcome ceremony in the city. During the mayor's speech, she noticed one of the security guards looked strangely familiar. It dawned on her that this new mayor had motive to kill and that the man in black could've been the guard working for him.","Weeks passed and nobody had seen Margaret. Coworkers and friends searched the nearby city looking for her. One day on patrol in a nearby town, a police officer heard someone crying for help in the basement of a house and went in to investigate. Margaret yelled that she was being held captive and needed help.","Luke ran to Marta, and filled with regret over his decision to go along with Carly's plan, picked her up and rushed her to the hospital. The doctors tried to help Marta by taking her into emergency surgery but failed to save her life. Once the doctor called the time of death, Luke fell to his knees and sobbed over his rash decision.","Months later Dan had taken up a mistress, he was growing bored with his marriage ever since he got rid of Linda and was only still with Amy for her family's money. In a hotel room in a nearby town, Dan and his mistress, Nicole, conspired to secretly kill Amy while still obtaining her fortune.",,,,,,,,,,
,,,,,,655f8b6cb4482d62ae248259,2024-02-08_15h20.23.485,group3.1-3.2-social-tom,2023.2.2,MacIntel,60.24096386,65c5074098b851296ff0b7ed,65c545697304e12e1ac54f5d,,,,,,,,,,,,,,,,,,,,,,,,,,,,,1100.7431,1,audio/Narrative7Situation9.wav,1101.3436,space,,,,,,1128.5437,1130.8945,99.25998264,1.465,"[{""rating"":99.25998263888889,""responseTime"":1.4649999999999181}]",space,1.8271,,1128.5283,Definitely yes,100,1128.5437,,,[],,,,,,,,,,,,,3,1,3,3,0.5852,,,,,,,,,,,,,,1101.3437,3,1128.5281,"[[44.1,14000],[67,14083],[77.9,14167],[78.5,14250],[78.5,14333],[80.8,14417],[90.7,14500],[90.9,14582],[90.9,14666],[90.9,14750],[90.9,14833],[90.9,14917],[90.9,14999],[90.9,15083],[90.9,15167],[90.9,15249],[90.9,15333],[90.9,15417],[90.9,15499],[90.9,15583],[90.9,15667],[95.3,15750],[98.8,15833],[100,15916],[100,16000],[100,16084],[100,16166],[100,16250],[100,16333],[100,16417],[100,16500],[100,16583],[100,16666],[100,16750],[100,16833],[100,16916],[100,17000],[100,17083],[100,17167],[100,17250],[100,17333],[100,17417],[100,17500],[100,17583],[100,17667],[100,17750],[100,17832],[100,17917],[100,18000],[100,18082],[100,18167],[100,18250],[100,18333],[100,18417],[100,18500],[100,18583],[100,18667],[100,18750],[100,18832],[100,18917],[100,19000],[100,19083],[100,19166],[100,19250],[100,19333],[100,19417],[100,19500],[100,19582],[100,19667],[100,19750],[100,19833],[100,19917],[100,20000],[100,20083],[100,20167],[100,20250],[100,20333],[100,20416],[100,20500],[100,20582],[100,20667],[100,20750],[100,20833],[100,20917],[100,21000],[100,21083],[100,21167],[100,21250],[100,21333],[100,21417],[100,21500],[100,21583],[100,21667],[100,21750],[100,21834],[100,21917],[100,22000],[100,22084],[100,22167],[100,22250],[100,22334],[100,22417],[100,22500],[100,22584],[100,22667],[100,22750],[100,22834],[100,22917],[100,23000],[100,23084],[100,23167],[100,23250],[100,23334],[100,23416],[100,23500],[100,23584],[100,23667],[100,23750],[100,23834],[100,23917],[100,24000],[100,24084],[100,24167],[100,24250],[100,24334],[100,24417],[100,24500],[100,24583],[100,24667],[100,24750],[100,24834],[100,24917],[100,24999],[100,25084],[100,25167],[100,25249],[100,25334],[100,25417],[100,25500],[100,25584],[100,25667],[100,25750],[100,25834],[100,25917],[100,26000],[100,26084],[100,26167],[100,26250],[100,26334],[100,26417],[100,26500],[100,26584],[100,26667],[100,26750],[100,26834],[100,26917],[100,27000],[100,27084],[100,27167]]",0,5,5,5,1,"Lucy decided to confront the mayor after his ceremony. But when she tried to accuse him, the security guards threatened to hurt her if she went to the police with her theory. Before she could say another word a man pulled her from the crowd.","In a rush, the police officer broke down the door and was attacked by a man in the house. Without hesitation, the officer shot the man and the man fell to the floor.","He then saw Marta's brother Zach enter the hospital. Zach ran over to Luke and punched him. Zach screamed at Luke that it's his fault his sister is dead and that he knew about the affair. Luke quickly tried to explain that he felt horrible about Marta's death and that Carly had manipulated him into going along with her plan. Zach, still angry at his brother-in-law, realized his mistake in judgement and shifted his anger toward Carly.","They decided to have Dan invite her to the hotel room under the guise of a romantic date. Once she arrived, Nicole was there to tie her up. Once she was secured to a chair, Nicole demanded Amy's bank passwords. Amy obliged and gave her access to her bank accounts.",,,,,,,,,,
