exp_question,consent.started,consent.stopped,consentResponse.keys,consentResponse.rt,consentResponse.duration,participantID,date,expName,psychopyVersion,OS,frameRate,STUDY_ID,SESSION_ID,opening1.started,opening1.stopped,keyEndingOpening1.keys,keyEndingOpening1.rt,keyEndingOpening1.duration,volumeAdjust.started,volumeAdjust.stopped,endingAdjust.keys,endingAdjust.rt,endingAdjust.duration,opening2.started,opening2.stopped,keyEndingOpening.keys,keyEndingOpening.rt,keyEndingOpening.duration,mouse.x,mouse.y,mouse.leftButton,mouse.midButton,mouse.rightButton,mouse.time,instructionLoop.thisRepN,instructionLoop.thisTrialN,instructionLoop.thisN,instructionLoop.thisIndex,instructionLoop.ran,readyForAudio.started,readyForAudio.stopped,fixation.started,run,audio_played,fixation.stopped,endPractice.keys,audioPre.started,audioPre.stopped,continuousResponses_audio,continuousSlider.response,continuousSlider.rt,intRating.started,intRating.stopped,intQuestionSlider.response,intQuestionSlider.rt,intQuestionSlider.history,confirmResponse.keys,confirmResponse.rt,confirmResponse.duration,catchQuestion.started,catch_label,catch_value,catchQuestion.stopped,catchQuestionSlider.response,catchQuestionSlider.rt,catchQuestionSlider.history,confirmResponse_2.keys,audioRunLoop.thisRepN,audioRunLoop.thisTrialN,audioRunLoop.thisN,audioRunLoop.thisIndex,audioRunLoop.ran,conditions1_1,conditions2_1,conditions1_2,conditions2_2,dur1_1,dur2_1,dur1_2,dur2_2,endPractice.rt,endPractice.duration,confirmResponse_2.rt,confirmResponse_2.duration,runIntervalBreak.started,runIntervalBreak.stopped,endingBreakKey.keys,endingBreakKey.rt,endingBreakKey.duration,connection.started,connection.stopped,connectionEnding.keys,connectionEnding.rt,connectionEnding.duration,readyForText.started,readyForText.stopped,textPre.started,run_dup,textPre.stopped,continuousResponses_text,textRunLoop.thisRepN,textRunLoop.thisTrialN,textRunLoop.thisN,textRunLoop.thisIndex,textRunLoop.ran,text1_1,text1_2,text2_1,text2_2,runBreakText.started,runBreakText.stopped,endingBreakKey_2.keys,endingBreakKey_2.rt,endingBreakKey_2.duration,ending.started,ending.stopped,endingEnding.keys,endingEnding.rt,endingEnding.duration
social,0.0012,13.0879,y,12.7706,,65837158eeba09ad03e97f7d,2024-02-08_15h04.02.073,group3.1-3.2-social-tom,2023.2.2,Win32,59.88023952,65c5074098b851296ff0b7ed,65c5419327dceff9fd360b96,,,,,,,,,,,,,,,,,,,,,,,,,,,,,,,,,,,,,,,,,,,,,,,,,,,,,,,,,,,,,,,,,,,,,,,,,,,,,,,,,,,,,,,,,,,,,,,,,,,,,,,,,,
,,,,,,65837158eeba09ad03e97f7d,2024-02-08_15h04.02.073,group3.1-3.2-social-tom,2023.2.2,Win32,59.88023952,65c5074098b851296ff0b7ed,65c5419327dceff9fd360b96,13.0883,22.3545,space,9.2353,,,,,,,,,,,,,,,,,,,,,,,,,,,,,,,,,,,,,,,,,,,,,,,,,,,,,,,,,,,,,,,,,,,,,,,,,,,,,,,,,,,,,,,,,,,,,,,,,,,,,,
,,,,,,65837158eeba09ad03e97f7d,2024-02-08_15h04.02.073,group3.1-3.2-social-tom,2023.2.2,Win32,59.88023952,65c5074098b851296ff0b7ed,65c5419327dceff9fd360b96,,,,,,22.3546,45.0049,space,22.3126,,,,,,,,,,,,,,,,,,,,,,,,,,,,,,,,,,,,,,,,,,,,,,,,,,,,,,,,,,,,,,,,,,,,,,,,,,,,,,,,,,,,,,,,,,,,,,,,,
,,,,,,65837158eeba09ad03e97f7d,2024-02-08_15h04.02.073,group3.1-3.2-social-tom,2023.2.2,Win32,59.88023952,65c5074098b851296ff0b7ed,65c5419327dceff9fd360b96,,,,,,,,,,,45.0078,57.9719,space,12.941,,[],[],[],[],[],[],0,0,0,0,1,,,,,,,,,,,,,,,,,,,,,,,,,,,,,,,,,,,,,,,,,,,,,,,,,,,,,,,,,,,,,,,,,,,,,,,,,,,,,,,,
,,,,,,65837158eeba09ad03e97f7d,2024-02-08_15h04.02.073,group3.1-3.2-social-tom,2023.2.2,Win32,59.88023952,65c5074098b851296ff0b7ed,65c5419327dceff9fd360b96,,,,,,,,,,,57.9779,86.488,space,28.4229,,[],[],[],[],[],[],1,0,1,0,1,,,,,,,,,,,,,,,,,,,,,,,,,,,,,,,,,,,,,,,,,,,,,,,,,,,,,,,,,,,,,,,,,,,,,,,,,,,,,,,,
,,,,,,65837158eeba09ad03e97f7d,2024-02-08_15h04.02.073,group3.1-3.2-social-tom,2023.2.2,Win32,59.88023952,65c5074098b851296ff0b7ed,65c5419327dceff9fd360b96,,,,,,,,,,,86.4938,104.2215,space,17.6827,,[],[],[],[],[],[],2,0,2,0,1,,,,,,,,,,,,,,,,,,,,,,,,,,,,,,,,,,,,,,,,,,,,,,,,,,,,,,,,,,,,,,,,,,,,,,,,,,,,,,,,
,,,,,,65837158eeba09ad03e97f7d,2024-02-08_15h04.02.073,group3.1-3.2-social-tom,2023.2.2,Win32,59.88023952,65c5074098b851296ff0b7ed,65c5419327dceff9fd360b96,,,,,,,,,,,104.2279,130.6049,space,26.3672,,[],[],[],[],[],[],3,0,3,0,1,,,,,,,,,,,,,,,,,,,,,,,,,,,,,,,,,,,,,,,,,,,,,,,,,,,,,,,,,,,,,,,,,,,,,,,,,,,,,,,,
,,,,,,65837158eeba09ad03e97f7d,2024-02-08_15h04.02.073,group3.1-3.2-social-tom,2023.2.2,Win32,59.88023952,65c5074098b851296ff0b7ed,65c5419327dceff9fd360b96,,,,,,,,,,,130.6108,148.8717,space,18.2387,,[],[],[],[],[],[],4,0,4,0,1,,,,,,,,,,,,,,,,,,,,,,,,,,,,,,,,,,,,,,,,,,,,,,,,,,,,,,,,,,,,,,,,,,,,,,,,,,,,,,,,
,,,,,,65837158eeba09ad03e97f7d,2024-02-08_15h04.02.073,group3.1-3.2-social-tom,2023.2.2,Win32,59.88023952,65c5074098b851296ff0b7ed,65c5419327dceff9fd360b96,,,,,,,,,,,,,,,,,,,,,,,,,,,148.8787,151.4552,151.4697,1,audio/Narrative13Situation2.wav,153.4719,,153.472,183.2241,"[[999,0],[999,85],[999,167],[999,252],[999,332],[999,418],[999,502],[999,586],[999,668],[999,751],[999,832],[999,918],[999,999],[999,1084],[999,1166],[999,1249],[999,1332],[999,1420],[999,1501],[999,1586],[999,1666],[999,1750],[999,1832],[999,1916],[999,1999],[999,2086],[999,2168],[999,2249],[999,2335],[999,2418],[999,2502],[999,2587],[999,2668],[999,2751],[999,2836],[999,2916],[999,3001],[999,3086],[999,3168],[50.1,3251],[50.1,3335],[50.1,3418],[50.1,3502],[50.1,3586],[50.1,3668],[50.1,3752],[50.1,3835],[50.1,3918],[50.1,3999],[50.1,4085],[50.1,4166],[50.1,4249],[50.1,4337],[50.1,4416],[50.1,4502],[50.1,4582],[50.1,4668],[50.1,4751],[50.5,4835],[52.4,4919],[52.4,5001],[52.4,5083],[52.4,5168],[52.1,5251],[51.3,5335],[50.8,5416],[50.1,5502],[49.8,5582],[49.8,5666],[49.8,5753],[49.8,5834],[49.8,5916],[49,6001],[46,6085],[40.6,6168],[34.3,6252],[27.8,6335],[21.1,6419],[17.4,6502],[16,6587],[14.9,6668],[13.6,6752],[12.1,6835],[11.3,6918],[10.9,7001],[9.9,7085],[9,7169],[8.9,7249],[8.8,7335],[8.3,7419],[7.5,7502],[6.6,7587],[6,7668],[5.6,7749],[5.6,7833],[7.1,7918],[12,8002],[20,8085],[29.4,8168],[35.5,8252],[43.8,8335],[54.3,8418],[63.6,8502],[75.4,8587],[83.6,8670],[86,8752],[88.6,8835],[93.3,8918],[93.9,9002],[93.9,9083],[93.9,9168],[93.9,9249],[93.9,9333],[93.9,9416],[93.9,9499],[93.9,9583],[93.9,9668],[93.9,9751],[93.9,9834],[93.9,9916],[93.9,9999],[93.9,10086],[93.9,10166],[93.9,10249],[93.9,10335],[93.9,10416],[93.9,10499],[93.9,10586],[93.9,10668],[93.9,10749],[93.9,10833],[93.9,10918],[92.8,11002],[92.6,11085],[92.3,11169],[91.8,11252],[91.3,11335],[91.3,11416],[91.3,11499],[91.3,11583],[91.4,11668],[92.6,11752],[94.5,11835],[95.8,11918],[95.8,11999],[95.8,12084],[95.8,12168],[95.8,12251],[95.8,12333],[95.8,12416],[95.8,12499],[95.8,12582],[95.8,12668],[95.6,12749],[94,12835],[94,12916],[94,12999],[94,13085],[94,13166],[94,13249],[93.5,13335],[93.1,13416],[92.6,13499],[92.5,13583],[92.1,13666],[91.5,13752],[90.9,13835],[90,13918],[89.8,14001],[89.8,14087],[89.8,14168],[89.8,14249],[89.8,14333],[89.5,14418],[87.5,14503],[84.6,14587],[83.3,14669],[80.4,14752],[79.4,14835],[74.1,14919],[67,15002],[63.6,15085],[60.9,15168],[58.4,15252],[54.8,15336],[52.5,15419],[50.6,15504],[49.3,15586],[47.1,15669],[45.1,15752],[43.6,15835],[40.1,15920],[38.5,16002],[36.8,16086],[33.3,16168],[32,16252],[31.1,16335],[28.9,16419],[27.5,16499],[24.1,16587],[19.6,16668],[16.8,16752],[15.1,16836],[13.1,16919],[11.4,17002],[9.6,17086],[8.8,17169],[7.5,17252],[6.5,17335],[6,17416],[5,17502],[5,17590],[5,17666],[5,17749],[5,17833],[5.3,17918],[5.1,18002],[5.1,18083],[5.1,18166],[5.1,18249],[4,18335],[3.6,18416],[3.6,18499],[3.6,18583],[3.6,18666],[3.6,18752],[3.6,18832],[3.6,18916],[3.6,18999],[3.6,19083],[3.6,19166],[3.6,19249],[3.6,19333],[3.6,19416],[3.6,19499],[3.6,19583],[3.6,19666],[3.6,19751],[3.6,19832],[3.6,19916],[3.6,19999],[3.6,20087],[3.6,20166],[3.6,20249],[3.6,20333],[3.6,20418],[3.6,20499],[3.6,20583],[3.6,20666],[3.6,20749],[3.6,20833],[3.6,20916],[3.6,20999],[3.6,21082],[3.6,21166],[3.6,21249],[3.6,21333],[3.6,21418],[3.6,21499],[3.6,21583],[3.6,21666],[3.6,21749],[3.6,21832],[3.6,21916],[3.6,21999],[3.6,22083],[3.6,22168],[3.6,22249],[3.6,22332],[3.6,22416],[3.6,22499],[3.6,22583],[3.6,22668],[3.6,22749],[3.6,22833],[6,22919],[13.3,23002],[21.6,23086],[33.5,23169],[49.4,23252],[63.4,23336],[74.3,23418],[84.3,23502],[91,23587],[97.6,23668],[99.9,23752],[99.9,23833],[96.4,23918],[94.9,24001],[94.9,24083],[94.9,24166],[94.6,24252],[93,24335],[87.4,24418],[75.9,24502],[59.5,24591],[43,24670],[30.9,24753],[23.1,24835],[17.1,24918],[10.6,25003],[6.5,25087],[4,25170],[3,25253],[3,25333],[3,25416],[2.9,25499],[2.9,25587],[2.9,25666],[3,25749],[3.6,25832],[3.6,25916],[3.8,25999],[4,26084],[4.1,26170],[4.1,26249],[4.1,26333],[4.1,26416],[4.1,26499],[4.1,26583],[7.5,26669],[13.9,26752],[15,26835],[15,26916],[15,26999],[13.5,27083],[8.6,27168],[4.9,27252],[2.1,27335],[1.8,27419],[1.8,27499],[1.8,27583],[2.9,27668],[4.8,27752],[5.3,27835],[5.3,27916],[5.3,27999],[5.3,28084],[3.1,28168],[3,28249],[3,28333],[3.4,28418],[4.1,28502],[4.3,28583],[4.3,28666],[3.8,28752],[3.8,28833],[3.8,28916],[3.8,28999],[3.8,29086],[3.8,29167],[3.8,29249],[3.8,29334],[3.8,29416],[3.8,29499],[3.8,29583],[3.8,29666],[3.8,29751]]",1,0,183.2243,201.2389,29.625,10.7997,"[{""rating"":31.625000000000004,""responseTime"":9.995800000011911},{""rating"":29.625,""responseTime"":10.799700000047665}]",space,17.4789,,201.2445,Definitely yes,100,201.2471,,,[],,0,0,0,0,1,audio/Narrative13Situation2.wav,audio/Narrative13Situation2.wav,audio/Narrative13Situation2.wav,audio/Narrative13Situation2.wav,2,2,2,2,,,,,,,,,,,,,,,,,,,,,,,,,,,,,,,,,,,,,,,
,,,,,,65837158eeba09ad03e97f7d,2024-02-08_15h04.02.073,group3.1-3.2-social-tom,2023.2.2,Win32,59.88023952,65c5074098b851296ff0b7ed,65c5419327dceff9fd360b96,,,,,,,,,,,,,,,,,,,,,,,,,,,,,201.2473,1,audio/Narrative8Situation1.wav,203.7885,space,203.7885,219.7053,"[[999,0],[999,85],[999,166],[999,250],[999,333],[999,416],[999,500],[999,585],[999,668],[999,750],[999,833],[999,918],[999,1002],[44.4,1085],[46.6,1170],[47.8,1253],[48.6,1335],[49.4,1419],[49.5,1500],[49.8,1583],[50.5,1669],[50.5,1749],[50.5,1833],[50.5,1916],[50.5,1999],[50.5,2083],[50.5,2166],[50.5,2249],[50.5,2334],[50.5,2416],[50.5,2499],[50.5,2583],[50.5,2666],[50.5,2749],[50.5,2835],[50.5,2916],[50.5,3001],[50.5,3084],[50.5,3170],[50.5,3251],[49.5,3335],[44,3419],[38,3502],[33.8,3585],[28.3,3669],[21,3752],[16,3835],[12.4,3919],[10.9,4002],[10,4085],[9,4171],[9,4250],[8.9,4333],[8.9,4416],[8.9,4501],[8.9,4583],[8.9,4668],[8.9,4751],[8.9,4836],[8.9,4916],[18.3,5002],[43.6,5085],[56.1,5170],[61.8,5253],[65.8,5335],[68.9,5419],[74.4,5502],[76.8,5585],[78.3,5670],[80.4,5752],[84.1,5835],[88.4,5919],[90.1,6002],[91.4,6085],[92.8,6170],[92.8,6250],[92.8,6333],[92.8,6416],[92.8,6500],[92.8,6585],[92.8,6666],[92.8,6750],[92.8,6835],[92.8,6916],[92.8,7001],[92.8,7083],[92.8,7170],[92.8,7250],[92.8,7333],[92.8,7416],[92.8,7500],[92.8,7583],[92.1,7669],[87.3,7753],[78.8,7835],[73.6,7919],[67,8002],[61.1,8085],[56.8,8170],[51.8,8253],[47.3,8335],[45.5,8419],[45,8501],[44.8,8585],[44.8,8668],[44.8,8750],[44.8,8833],[44.8,8916],[44.5,9000],[43,9085],[39.9,9170],[36.8,9253],[33,9335],[28.9,9419],[25.3,9502],[21.9,9585],[19.4,9666],[20.1,9750],[59.1,9835],[85.8,9919],[88.5,10002],[88.6,10083],[88.6,10166],[88.6,10250],[88.6,10333],[90.6,10419],[92.6,10502],[94,10585],[94.4,10670],[94.4,10749],[94.4,10833],[94.4,10916],[94.4,10999],[94.4,11083],[94.4,11166],[94.4,11250],[94.4,11333],[94.4,11418],[94.4,11500],[94.4,11583],[94.5,11666],[94.5,11750],[94.5,11833],[94.5,11916],[94.5,12002],[94.5,12087],[94.5,12166],[92.4,12253],[90.1,12335],[90.1,12418],[90.1,12500],[90.1,12583],[90.1,12666],[90.1,12752],[89,12835],[87.6,12916],[87.4,13002],[86.5,13085],[86.4,13166],[86.3,13250],[86.3,13335],[86.5,13416],[88.6,13502],[91.1,13587],[92.5,13669],[92.8,13750],[92.8,13833],[92.8,13918],[92.8,14000],[92.8,14083],[92.8,14166],[92.8,14253],[92.8,14333],[92.8,14416],[92.8,14501],[92.6,14583],[92.4,14669],[92.3,14749],[91.8,14833],[91.5,14918],[91.5,15000],[91.5,15083],[91.5,15170],[91.5,15250],[91.5,15333],[91.5,15416],[91.5,15500],[91.5,15583],[91.5,15666],[91.5,15750],[91.5,15833],[91.5,15916]]",1,0,219.7054,228.672,90.5,7.1062,"[{""rating"":82.125,""responseTime"":3.6915999999642395},{""rating"":90.5,""responseTime"":7.1061999999880925}]",space,8.4259,,228.672,Definitely yes,100,228.6734,,,[],,0,1,1,1,1,audio/Narrative7Situation1.wav,audio/Narrative8Situation1.wav,audio/Narrative5Situation1.wav,audio/Narrative6Situation1.wav,2,5,5,2,2.53,,,,,,,,,,,,,,,,,,,,,,,,,,,,,,,,,,,,,,
,,,,,,65837158eeba09ad03e97f7d,2024-02-08_15h04.02.073,group3.1-3.2-social-tom,2023.2.2,Win32,59.88023952,65c5074098b851296ff0b7ed,65c5419327dceff9fd360b96,,,,,,,,,,,,,,,,,,,,,,,,,,,,,228.6736,1,audio/Narrative8Situation2.wav,231.6886,,231.6886,241.8053,"[[999,5],[999,83],[999,166],[999,249],[999,333],[999,419],[49.8,919],[49.6,1002],[49.6,1083],[49.6,1166],[49.6,1249],[49.6,1333],[49.6,1416],[49.6,1502],[49.6,1585],[49.6,1670],[49.6,1750],[49.6,1833],[49.6,1916],[49.6,2002],[49.6,2083],[48.5,2169],[41,2252],[33.1,2335],[27.3,2419],[23.3,2502],[20.8,2585],[18.8,2669],[16.8,2752],[15.8,2835],[13.4,2919],[10.5,3002],[8,3087],[5.1,3170],[3.6,3252],[3.6,3333],[3.5,3416],[3.4,3499],[3.4,3585],[3.4,3666],[3.4,3750],[3.4,3833],[3.4,3916],[3.4,4000],[3.4,4083],[3.4,4166],[3.4,4253],[3.4,4333],[3.4,4416],[3.4,4503],[3.4,4583],[3.4,4666],[3.4,4749],[3.4,4833],[3.4,4919],[3.4,5002],[3.4,5083],[3.4,5169],[3.4,5250],[3.4,5333],[3.4,5416],[3.4,5501],[3.4,5583],[3.4,5668],[3.4,5750],[3.4,5833],[3.4,5916],[3.4,6000],[3.4,6083],[3.4,6166],[3.4,6250],[3.4,6333],[3.4,6416],[3.4,6500],[3.4,6583],[3.4,6666],[3.4,6750],[3.4,6833],[3.4,6916],[3.4,6999],[3.4,7083],[3.4,7168],[3.4,7250],[3.4,7333],[3.4,7416],[3.4,7504],[3.4,7583],[3.4,7666],[3.4,7750],[3.4,7833],[3.4,7916],[3.4,8000],[3.4,8083],[3.4,8169],[3.4,8250],[3.4,8333],[3.4,8416],[3.4,8500],[3.4,8583],[3.4,8666],[3.4,8750],[3.4,8835],[3.4,8918],[3.4,9000],[3.4,9083],[3.4,9166],[3.4,9252],[3.4,9333],[3.4,9416],[3.4,9500],[3.4,9583],[3.4,9666],[3.4,9750],[3.4,9833],[3.4,9916],[3.4,10000],[3.4,10083]]",1,0,241.8055,248.4387,0,4.1527,"[{""rating"":0,""responseTime"":4.152699999988101}]",space,6.0836,,248.4387,Not at all,0,248.4413,,,[],,0,2,2,2,1,audio/Narrative7Situation2.wav,audio/Narrative8Situation2.wav,audio/Narrative5Situation2.wav,audio/Narrative6Situation2.wav,3,3,3,3,,,,,,,,,,,,,,,,,,,,,,,,,,,,,,,,,,,,,,,
,,,,,,65837158eeba09ad03e97f7d,2024-02-08_15h04.02.073,group3.1-3.2-social-tom,2023.2.2,Win32,59.88023952,65c5074098b851296ff0b7ed,65c5419327dceff9fd360b96,,,,,,,,,,,,,,,,,,,,,,,,,,,,,248.4414,1,audio/Narrative8Situation3.wav,252.4553,,252.4554,274.8555,"[[49.6,1002],[49.9,1085],[49.9,1166],[49.9,1249],[49.9,1335],[49.9,1416],[49.9,1500],[49.9,1583],[49.9,1666],[49.9,1750],[49.6,1833],[45.8,1919],[43,2002],[40.4,2085],[37.1,2169],[35,2252],[33.3,2335],[31,2419],[29.6,2504],[27.9,2585],[26.3,2669],[25.8,2753],[33.6,2835],[55.8,2918],[58.6,3002],[63.6,3085],[68.8,3168],[72.8,3252],[75.9,3335],[78,3419],[80.1,3504],[81,3585],[82.8,3669],[83,3752],[83.5,3836],[84,3916],[84.6,4002],[85,4086],[85.4,4166],[85.6,4250],[85.8,4335],[85.9,4416],[85.9,4500],[85.9,4585],[85.9,4666],[85.9,4749],[85.9,4833],[84.6,4919],[82.4,5002],[76.3,5085],[68.8,5169],[65.8,5252],[60.8,5335],[57.8,5419],[55,5503],[51,5588],[44.6,5669],[38.6,5752],[34.8,5835],[32.5,5919],[30.6,6002],[28.9,6086],[26.9,6169],[23.4,6252],[22.6,6333],[33.8,6419],[65.4,6504],[78.1,6587],[80.6,6669],[82,6752],[83.1,6835],[84.8,6919],[86.9,7004],[89.6,7088],[92.9,7168],[95.4,7252],[95.8,7333],[95.8,7418],[95.8,7503],[95.8,7583],[95.8,7666],[94.6,7752],[94,7833],[94,7916],[95.4,8002],[97,8085],[97.6,8166],[98,8249],[98,8333],[98,8416],[98,8504],[98,8584],[98,8666],[98,8750],[98,8833],[98,8916],[98,8999],[98,9083],[98,9168],[98,9250],[98,9333],[98,9416],[98,9504],[98,9583],[98,9666],[98,9750],[98,9833],[98,9916],[98,9999],[98,10083],[98,10166],[98,10249],[98,10333],[98,10416],[98,10500],[98,10583],[98,10669],[98,10749],[98,10835],[98,10916],[98,11000],[98,11083],[98,11168],[98,11251],[98,11333],[98,11416],[98,11502],[98,11583],[98,11666],[98,11750],[98,11833],[98,11916],[98,12000],[98,12083],[98,12166],[98,12249],[98,12333],[98,12416],[98,12500],[98,12583],[98,12666],[98,12750],[98,12833],[98,12916],[98,13000],[98,13083],[98,13166],[98,13249],[98,13335],[98,13416],[98,13503],[98,13583],[98,13666],[98,13750],[98,13833],[98,13916],[98,13999],[98,14083],[98,14166],[98,14249],[98,14333],[98,14416],[98,14499],[98,14583],[98,14666],[98,14749],[98,14833],[98,14916],[98,15000],[98,15083],[98,15168],[98,15250],[98,15333],[98,15416],[98,15500],[98,15583],[98,15666],[98,15753],[98,15833],[98,15916],[98,16000],[98,16083],[98,16166],[98,16249],[98,16333],[98,16416],[98,16500],[98,16583],[98,16669],[98,16750],[98,16833],[98,16918],[98,17000],[98,17083],[98,17166],[98,17254],[98,17333],[98,17416],[98,17502],[98,17583],[98,17668],[98,17750],[98,17833],[98,17916],[98,18000],[98,18083],[98,18166],[98,18250],[98,18333],[98,18416],[98,18500],[98,18583],[98,18666],[98,18751],[98,18833],[98,18918],[98,19000],[98,19083],[98,19166],[98,19250],[98,19333],[98,19416],[98,19500],[98,19583],[98,19668],[98,19750],[98,19833],[98,19916],[98,20000],[98,20083],[98,20166],[84.6,20253],[62.6,20336],[49.9,20419],[42,20502],[38.6,20586],[35.8,20669],[30.5,20752],[24.1,20836],[19.4,20919],[17.1,21002],[14.3,21085],[12,21169],[10.6,21252],[10.6,21333],[10.6,21419],[10.6,21500],[10.6,21583],[10.6,21666],[11.8,21752],[13.8,21835],[16,21919],[16.5,22002],[16.8,22085],[16.8,22166],[16.8,22249],[16.8,22333]]",1,0,274.8557,283.0722,89,2.7522,"[{""rating"":89,""responseTime"":2.752199999988079}]",space,7.6732,,283.0723,Definitely yes,100,283.0799,,,[],,0,3,3,3,1,audio/Narrative7Situation3.wav,audio/Narrative8Situation3.wav,audio/Narrative5Situation3.wav,audio/Narrative6Situation3.wav,8,4,3,5,,,,,,,,,,,,,,,,,,,,,,,,,,,,,,,,,,,,,,,
,,,,,,65837158eeba09ad03e97f7d,2024-02-08_15h04.02.073,group3.1-3.2-social-tom,2023.2.2,Win32,59.88023952,65c5074098b851296ff0b7ed,65c5419327dceff9fd360b96,,,,,,,,,,,,,,,,,,,,,,,,,,,,,283.0801,1,audio/Narrative8Situation4.wav,286.0889,,286.0889,300.289,"[[49.6,1252],[49.6,1333],[49.6,1416],[49.6,1500],[49.6,1585],[49.6,1666],[49.6,1749],[49.6,1833],[49.6,1916],[49.6,1999],[49.6,2083],[49.6,2166],[49.6,2249],[49.6,2333],[49.6,2416],[49.6,2500],[49.6,2583],[49.6,2666],[49.6,2751],[49.6,2834],[49.6,2916],[49.6,2999],[49.6,3083],[49.6,3166],[48,3252],[45.1,3333],[48.5,3418],[63.9,3502],[71.5,3585],[77.9,3669],[83.1,3752],[85.4,3835],[91.4,3921],[93.9,3999],[95.4,4085],[96.8,4169],[97.3,4250],[98.5,4335],[99.6,4416],[99.6,4502],[99.6,4583],[99.6,4668],[99.6,4749],[99.6,4833],[99.6,4916],[99.6,4999],[99.6,5083],[99.6,5166],[99.6,5249],[99.6,5333],[99.6,5416],[99.6,5499],[99.6,5583],[99.6,5666],[99.6,5750],[99.6,5833],[99.6,5916],[99.6,5999],[99.6,6083],[99.6,6166],[99.6,6249],[99.6,6333],[99.6,6416],[99.6,6500],[99.6,6583],[99.6,6666],[99.6,6750],[99.6,6833],[99.6,6916],[99.6,6999],[99.6,7083],[99.6,7166],[99.6,7249],[99.6,7333],[99.6,7416],[99.6,7499],[99.6,7583],[99.6,7666],[99.6,7749],[99.6,7835],[99.6,7916],[99.6,7999],[99.6,8083],[99.6,8166],[99.6,8249],[99.6,8336],[99.6,8418],[99.6,8499],[99.6,8583],[99.6,8667],[99.6,8750],[99.6,8833],[99.6,8916],[99.6,8999],[99.6,9083],[99.6,9166],[99.6,9249],[99.6,9335],[99.6,9416],[99.6,9500],[99.6,9583],[99.6,9666],[99.6,9749],[99.6,9833],[99.6,9916],[99.6,10000],[99.6,10083],[99.6,10166],[99.6,10249],[99.6,10333],[99.6,10416],[99.6,10502],[99.6,10583],[99.6,10666],[99.6,10750],[99.6,10834],[99.6,10916],[99.6,10999],[99.6,11083],[99.6,11170],[99.6,11249],[99.4,11333],[99.3,11418],[99.3,11502],[99.3,11583],[99.3,11666],[99.3,11749],[99.3,11833],[99.3,11916],[99.3,11999],[99.3,12083],[99.3,12166],[99.3,12249],[99.3,12333],[99.3,12416],[99.3,12499],[99.3,12583],[99.3,12668],[99.3,12750],[99.3,12835],[99.3,12916],[99.3,13000],[99.3,13083],[99.3,13166],[99.3,13250],[99.3,13333],[99.3,13418],[99.3,13500],[99.3,13583],[99.3,13666],[99.3,13750],[99.3,13833],[99.3,13916],[99.3,14000],[99.3,14087],[99.3,14166]]",1,0,300.289,306.9889,100,5.6046,"[{""rating"":100,""responseTime"":5.604600000023879}]",space,6.164,,306.989,Definitely yes,100,306.9902,,,[],,0,4,4,4,1,audio/Narrative7Situation4.wav,audio/Narrative8Situation4.wav,audio/Narrative5Situation4.wav,audio/Narrative6Situation4.wav,3,3,1,2,,,,,,,,,,,,,,,,,,,,,,,,,,,,,,,,,,,,,,,
,,,,,,65837158eeba09ad03e97f7d,2024-02-08_15h04.02.073,group3.1-3.2-social-tom,2023.2.2,Win32,59.88023952,65c5074098b851296ff0b7ed,65c5419327dceff9fd360b96,,,,,,,,,,,,,,,,,,,,,,,,,,,,,306.9902,1,audio/Narrative8Situation5.wav,309.0075,,309.0076,317.2391,"[[52.1,83],[51.8,167],[51.8,250],[51.6,333],[51.6,414],[51.6,497],[51.6,581],[51.6,664],[51.6,747],[51.6,831],[51.6,914],[51.6,997],[51.6,1081],[51.6,1164],[51.6,1250],[51.6,1334],[51.6,1414],[55.8,1500],[74,1584],[88,1667],[90.3,1750],[93,1833],[95,1917],[96.6,2000],[98.5,2083],[98.8,2164],[98.8,2247],[98.8,2331],[98.8,2414],[98.8,2500],[98.8,2583],[98.8,2666],[98.8,2747],[98.8,2831],[98.8,2914],[98.8,2997],[98.8,3081],[98.8,3164],[98.8,3247],[98.8,3331],[98.8,3414],[98.8,3498],[98.8,3581],[98.8,3664],[98.8,3747],[98.8,3831],[98.8,3914],[98.8,3997],[98.8,4083],[98.8,4164],[98.8,4247],[98.8,4333],[98.8,4414],[98.8,4497],[98.8,4581],[98.8,4664],[98.8,4747],[98.8,4831],[98.8,4916],[98.8,4997],[98.8,5081],[98.8,5164],[98.8,5247],[98.8,5331],[98.8,5414],[98.8,5497],[98.8,5582],[98.8,5668],[98.8,5752],[98.8,5834],[98.8,5914],[98.8,5997],[98.8,6081],[98.8,6164],[98.8,6249],[98.8,6331],[98.8,6414],[98.8,6498],[98.8,6583],[98.8,6664],[98.8,6748],[98.8,6831],[98.8,6916],[98.8,6998],[98.8,7083],[98.8,7164],[98.8,7247],[98.8,7331],[98.8,7414],[98.8,7497],[98.8,7584],[98.8,7664],[98.8,7747],[98.8,7831],[98.8,7914],[98.8,7997],[98.8,8081],[98.8,8164]]",1,0,317.2392,321.0558,100,2.503,"[{""rating"":100,""responseTime"":2.502999999999986}]",space,3.274,,321.0559,Definitely yes,100,321.057,,,[],,0,5,5,5,1,audio/Narrative7Situation5.wav,audio/Narrative8Situation5.wav,audio/Narrative5Situation5.wav,audio/Narrative6Situation5.wav,5,2,5,2,,,,,,,,,,,,,,,,,,,,,,,,,,,,,,,,,,,,,,,
,,,,,,65837158eeba09ad03e97f7d,2024-02-08_15h04.02.073,group3.1-3.2-social-tom,2023.2.2,Win32,59.88023952,65c5074098b851296ff0b7ed,65c5419327dceff9fd360b96,,,,,,,,,,,,,,,,,,,,,,,,,,,,,321.0571,1,audio/Narrative8Situation6.wav,323.0723,,323.0723,329.5389,"[[999,0],[999,83],[999,166],[999,249],[999,333],[999,416],[999,500],[49.3,585],[48.8,668],[48.8,752],[48.8,833],[48.9,916],[49.5,1002],[49.8,1086],[49.9,1166],[49.9,1249],[49.9,1333],[50,1416],[51,1502],[52.1,1585],[55.6,1668],[65.9,1752],[77.4,1837],[87,1919],[95.3,2002],[99.1,2085],[99.8,2169],[99.9,2249],[99.9,2333],[99.9,2416],[99.9,2500],[99.9,2585],[99.9,2666],[99.9,2749],[99.9,2833],[99.9,2916],[99.9,3000],[99.9,3083],[99.9,3166],[99.9,3253],[99.9,3333],[99.9,3416],[99.9,3502],[99.9,3583],[99.9,3666],[99.9,3750],[99.9,3833],[99.9,3916],[99.9,4000],[99.9,4085],[99.9,4166],[99.9,4250],[99.9,4333],[99.9,4416],[99.9,4503],[99.9,4583],[99.9,4666],[99.9,4750],[99.9,4833],[99.9,4918],[99.9,5000],[99.9,5083],[99.9,5166],[99.9,5249],[99.9,5333],[99.9,5416],[99.9,5500],[99.9,5583],[99.9,5666],[99.9,5749],[99.9,5833],[99.9,5916],[99.9,6000],[99.9,6083],[99.9,6170],[99.9,6250],[99.9,6333],[99.9,6416]]",1,0,329.539,336.5931,100,5.5313,"[{""rating"":100,""responseTime"":5.531300000011925}]",space,6.5328,,336.5932,Partially,50,336.5948,,,[],,0,6,6,6,1,audio/Narrative7Situation6.wav,audio/Narrative8Situation6.wav,audio/Narrative5Situation6.wav,audio/Narrative6Situation6.wav,3,2,3,2,,,,,,,,,,,,,,,,,,,,,,,,,,,,,,,,,,,,,,,
,,,,,,65837158eeba09ad03e97f7d,2024-02-08_15h04.02.073,group3.1-3.2-social-tom,2023.2.2,Win32,59.88023952,65c5074098b851296ff0b7ed,65c5419327dceff9fd360b96,,,,,,,,,,,,,,,,,,,,,,,,,,,,,336.5949,1,audio/Narrative8Situation7.wav,339.6058,,339.6058,351.6892,"[[999,6],[999,83],[999,166],[999,249],[999,333],[999,418],[50.3,502],[50.3,585],[50.3,666],[50.3,749],[50.3,833],[50.3,916],[50.3,1001],[50.3,1083],[50.3,1166],[50.3,1249],[50.3,1336],[50.3,1416],[50.3,1499],[50.3,1583],[50.3,1666],[49.6,1752],[49.1,1833],[48.1,1918],[47.4,2002],[47.1,2083],[47.1,2166],[47.1,2250],[47.1,2337],[47.1,2416],[52.4,2502],[59.3,2586],[62.8,2669],[66.8,2753],[69,2835],[70.5,2916],[70.5,2999],[70.5,3083],[70.5,3166],[68.6,3252],[51.6,3336],[39.4,3419],[31.6,3502],[28.6,3585],[27,3669],[25.8,3752],[24.4,3835],[22.6,3918],[20.8,4002],[19,4085],[17,4170],[14.4,4252],[12.4,4335],[11,4419],[9.8,4502],[8.9,4585],[7.5,4669],[7.3,4749],[7.3,4833],[7,4916],[6.5,4999],[6.5,5083],[6.5,5166],[6.5,5251],[6.5,5333],[6.5,5416],[6.5,5499],[6.5,5583],[6.5,5666],[6.5,5751],[6.5,5833],[6.5,5916],[6.5,6002],[6.5,6085],[6.5,6166],[6.5,6250],[6.5,6333],[6.5,6416],[6.5,6499],[6.5,6583],[6.5,6666],[6.5,6749],[6.5,6833],[6.5,6916],[6.5,6999],[6.1,7083],[4.5,7168],[3.9,7252],[3.6,7333],[3.6,7416],[3.6,7499],[3.6,7585],[3.6,7666],[3.6,7751],[3.6,7833],[3.6,7916],[3.6,7999],[3.6,8085],[3.6,8166],[3.6,8249],[3.6,8333],[3.6,8416],[3.6,8499],[3.1,8586],[2.9,8666],[2.9,8750],[2.9,8833],[2.9,8916],[2.9,9002],[2.9,9083],[2.9,9166],[2.9,9250],[2.9,9333],[2.9,9418],[2.9,9500],[2.9,9583],[2.9,9666],[2.9,9749],[2.9,9833],[2.9,9916],[2.9,9999],[2.9,10083],[3.3,10166],[6.6,10252],[14.4,10336],[24.4,10418],[36.4,10502],[38.4,10585],[38.4,10666],[38.4,10749],[38.4,10833],[38.4,10916],[38.4,10999],[30.6,11086],[20.4,11168],[13.8,11252],[9.6,11336],[5.4,11420],[3.1,11503],[2.9,11585],[2.9,11666],[2.9,11750],[2.9,11833],[2.9,11916],[2.9,12001],[2.9,12083]]",1,0,351.6894,355.6892,0,2.5626,"[{""rating"":0,""responseTime"":2.562600000023849}]",space,3.4437,,355.6893,Definitely yes,100,355.6918,,,[],,0,7,7,7,1,audio/Narrative7Situation7.wav,audio/Narrative8Situation7.wav,audio/Narrative5Situation7.wav,audio/Narrative6Situation7.wav,5,3,4,5,,,,,,,,,,,,,,,,,,,,,,,,,,,,,,,,,,,,,,,
,,,,,,65837158eeba09ad03e97f7d,2024-02-08_15h04.02.073,group3.1-3.2-social-tom,2023.2.2,Win32,59.88023952,65c5074098b851296ff0b7ed,65c5419327dceff9fd360b96,,,,,,,,,,,,,,,,,,,,,,,,,,,,,355.692,1,audio/Narrative8Situation8.wav,358.7057,,358.7057,371.5559,"[[999,0],[999,83],[999,166],[999,250],[999,333],[999,416],[999,500],[999,586],[999,669],[999,752],[999,835],[999,918],[48.6,1002],[48.8,1087],[48.8,1166],[48.8,1250],[48.8,1333],[48.8,1416],[48.8,1500],[48.8,1583],[48.8,1666],[48.8,1749],[48.8,1833],[48.6,1916],[47.6,2002],[44.9,2085],[40.4,2168],[35.1,2254],[31.5,2337],[27.3,2419],[21.6,2504],[14.9,2585],[10,2669],[6.1,2752],[4,2835],[2.6,2919],[1.3,3002],[0.5,3085],[0.5,3166],[0.5,3253],[0.5,3333],[0.5,3416],[0.5,3500],[0.5,3583],[0.5,3669],[0.5,3750],[0.5,3833],[0.5,3916],[0.5,4000],[0.5,4083],[0.5,4168],[0.5,4250],[0.5,4333],[0.5,4416],[0.5,4502],[0.5,4583],[0.5,4666],[0.5,4750],[0.5,4833],[0.5,4916],[0.5,5000],[0.5,5083],[0.5,5166],[0.5,5253],[0.5,5333],[0.5,5416],[0.5,5500],[0.5,5583],[0.5,5666],[0.5,5752],[0.5,5833],[0.5,5916],[0.5,6000],[0.5,6083],[0.5,6166],[0.5,6250],[12.8,6337],[33.8,6419],[42.8,6502],[44,6585],[44.6,6666],[45,6752],[45,6837],[45,6921],[46,7002],[47.1,7085],[50.3,7169],[53,7254],[54.1,7337],[55.8,7419],[57.4,7502],[58.4,7585],[58.8,7666],[58.8,7750],[58.8,7833],[58.8,7916],[58.8,8000],[57.9,8085],[55.1,8169],[54.4,8254],[53.5,8337],[52,8419],[50.8,8502],[48.6,8585],[42.6,8669],[36.1,8752],[30,8835],[25.8,8918],[21.3,9002],[18.1,9085],[14.5,9169],[11.1,9254],[8.4,9335],[7.3,9419],[7.3,9500],[33.6,9585],[69.5,9669],[78,9754],[82.4,9837],[83.5,9918],[84.1,10002],[84.5,10085],[85.5,10169],[86.5,10254],[87.3,10337],[87.3,10416],[87.5,10500],[87.6,10585],[87.9,10669],[88.1,10750],[88.3,10833],[88.3,10916],[88.4,11000],[88.4,11083],[88.4,11169],[88.4,11250],[88.4,11333],[88.4,11416],[88.4,11500],[88.4,11583],[88.4,11666],[88.4,11750],[88.4,11833],[88.4,11916],[88.4,12002],[88.4,12083],[88.4,12166],[88.4,12250],[88.4,12333],[88.4,12417],[88.4,12500],[88.4,12583],[88.4,12670],[88.4,12750],[88.4,12833]]",1,0,371.556,380.9749,49.5,2.4399,"[{""rating"":49.5,""responseTime"":2.4398999999761486}]",space,8.8813,,380.975,Definitely yes,100,380.9814,,,[],,0,8,8,8,1,audio/Narrative7Situation8.wav,audio/Narrative8Situation8.wav,audio/Narrative5Situation8.wav,audio/Narrative6Situation8.wav,2,3,3,5,,,,,,,,,,,,,,,,,,,,,,,,,,,,,,,,,,,,,,,
,,,,,,65837158eeba09ad03e97f7d,2024-02-08_15h04.02.073,group3.1-3.2-social-tom,2023.2.2,Win32,59.88023952,65c5074098b851296ff0b7ed,65c5419327dceff9fd360b96,,,,,,,,,,,,,,,,,,,,,,,,,,,,,380.9815,1,audio/Narrative8Situation9.wav,383.9892,,383.9892,395.3395,"[[49.5,85],[48.8,169],[48.9,250],[48.9,334],[49.5,419],[49.5,503],[49.5,583],[49.5,666],[49.5,751],[49.5,833],[49.5,916],[49.5,1000],[49.5,1083],[49.5,1168],[49.5,1249],[49.5,1335],[49.5,1416],[49.5,1499],[49.5,1586],[49.5,1666],[49.5,1750],[49.5,1833],[49.5,1920],[49.5,2002],[52.9,2085],[59.5,2169],[63.1,2252],[65.6,2335],[68.5,2419],[71.3,2502],[72.5,2586],[74.4,2669],[77.3,2752],[79.8,2835],[82.5,2919],[84.9,3002],[86.8,3085],[87.5,3168],[88.4,3252],[89.4,3339],[89.9,3418],[90.5,3500],[91.9,3586],[93.1,3669],[93.8,3752],[94.4,3835],[94.5,3916],[94.9,4000],[94.9,4083],[95.5,4166],[96,4252],[96.5,4333],[97,4416],[97.3,4502],[97.3,4583],[97.3,4666],[97.3,4750],[97.3,4833],[97.3,4919],[97.3,5000],[97.3,5083],[97.3,5166],[97.3,5249],[97.3,5335],[97.3,5416],[97.3,5500],[97.3,5583],[97.3,5666],[97.3,5750],[97.3,5833],[97.3,5916],[97.3,6000],[97.3,6084],[97.3,6166],[97.3,6250],[97.3,6338],[97.3,6416],[97.3,6500],[97.3,6583],[97.3,6666],[97.3,6751],[97.3,6833],[97.3,6916],[97.3,7000],[97.3,7083],[97.3,7166],[97.3,7250],[97.3,7333],[97.3,7416],[97.3,7500],[97.3,7586],[97.3,7666],[97.3,7750],[97.3,7833],[97.3,7916],[95.4,8003],[91.4,8085],[83,8169],[80.5,8252],[79.9,8333],[79.9,8416],[82.3,8502],[89.5,8586],[93.3,8669],[94.8,8752],[96.1,8835],[96.8,8919],[97.3,9002],[97.5,9086],[97.9,9170],[97.9,9250],[97.9,9333],[97.9,9416],[97.9,9500],[97.9,9583],[97.9,9666],[97.9,9749],[97.9,9833],[97.9,9916],[97.9,10000],[97.9,10083],[97.9,10166],[97.9,10250],[97.9,10333],[97.9,10416],[97.9,10500],[97.9,10586],[97.9,10666],[97.9,10750],[97.9,10833],[97.9,10916],[97.9,11000],[97.9,11083],[97.9,11166],[97.9,11250],[97.9,11333]]",1,0,395.3396,402.5774,98.375,3.6839,"[{""rating"":98.375,""responseTime"":3.683899999976177}]",space,6.6856,,402.5774,Not at all,0,402.5847,,,[],,0,9,9,9,1,audio/Narrative7Situation9.wav,audio/Narrative8Situation9.wav,audio/Narrative5Situation9.wav,audio/Narrative6Situation9.wav,2,3,3,4,,,,,,,,,,,,,,,,,,,,,,,,,,,,,,,,,,,,,,,
,,,,,,65837158eeba09ad03e97f7d,2024-02-08_15h04.02.073,group3.1-3.2-social-tom,2023.2.2,Win32,59.88023952,65c5074098b851296ff0b7ed,65c5419327dceff9fd360b96,,,,,,,,,,,,,,,,,,,,,,,,,,,,,402.5849,1,audio/Narrative7Situation1.wav,404.5894,,404.5894,460.4896,"[[56.1,3416],[53.5,3503],[52.5,3587],[52,3670],[51.9,3749],[50.9,3837],[50.4,3916],[50.4,4004],[50.4,4083],[50.4,4166],[50.4,4249],[50.4,4335],[49.9,4421],[48.3,4504],[42.9,4586],[35.9,4670],[29.3,4754],[24.1,4837],[18,4920],[16.3,5000],[13.3,5087],[10.3,5170],[10.3,5249],[10.3,5333],[10.3,5416],[10.3,5500],[10.3,5587],[10.3,5666],[10.3,5754],[10.3,5833],[10.3,5916],[10.3,5999],[10.3,6083],[10.3,6169],[10.3,6250],[10.3,6335],[10.3,6416],[10.3,6500],[10.3,6583],[10.3,6666],[10.3,6749],[10.3,6833],[10.3,6916],[10.3,6999],[10.3,7083],[10.3,7166],[10.3,7249],[10.3,7333],[10.3,7416],[10.3,7499],[10.3,7583],[10.3,7670],[10.3,7750],[10.3,7833],[13.5,7919],[25.6,8003],[43.9,8087],[59.3,8170],[70,8252],[76.1,8336],[79.5,8418],[82.9,8504],[85.3,8587],[87.5,8669],[89.3,8753],[89.4,8833],[89.4,8920],[89.4,9004],[89.4,9083],[89.4,9166],[89.4,9250],[89.4,9333],[89.4,9420],[89.4,9500],[88.5,9585],[83.9,9670],[77.5,9754],[69.8,9836],[63.9,9920],[59.1,10004],[55.4,10087],[51.3,10169],[48.4,10254],[47,10337],[46.5,10416],[45.9,10502],[45.1,10583],[43,10670],[39.4,10754],[34.5,10837],[26.8,10920],[19.9,11004],[15.6,11086],[13.1,11170],[9.9,11253],[7.9,11336],[5.8,11420],[4.5,11503],[4.5,11583],[4.5,11666],[4.5,11749],[4.5,11833],[4.5,11916],[4.5,12000],[4.5,12083],[4.5,12166],[3.5,12254],[3.1,12335],[2.5,12416],[2.1,12503],[2.1,12583],[2.1,12666],[2.1,12750],[2.1,12833],[2.4,12918],[3.1,13002],[3.4,13085],[3.4,13166],[3.4,13249],[3.4,13335],[3.4,13420],[3.4,13499],[3.4,13583],[3.4,13666],[3.4,13749],[3.4,13833],[3.4,13916],[3.4,14000],[3.4,14083],[3.4,14166],[3.4,14250],[3.4,14333],[3.4,14416],[3.4,14500],[3.4,14583],[3.4,14666],[3.4,14749],[3.4,14833],[3.4,14916],[3.4,15000],[3.4,15083],[3.4,15166],[3.4,15250],[3.4,15333],[3.4,15416],[3.4,15500],[3.4,15583],[3.4,15666],[3.4,15750],[3.4,15833],[3.4,15916],[3.4,16002],[3.4,16083],[3.4,16166],[3.4,16249],[3.4,16333],[3.4,16416],[3.4,16499],[3.4,16583],[3.4,16666],[3.4,16749],[3.4,16833],[5.5,16919],[8.5,17002],[10.9,17085],[13.6,17169],[15,17252],[16.1,17335],[16.6,17416],[16.6,17500],[16.9,17585],[16.9,17666],[16.9,17752],[16.9,17833],[16.9,17916],[16.9,18002],[16.9,18083],[16.9,18166],[16.4,18252],[12.3,18336],[8,18419],[5.3,18502],[3.9,18585],[1.5,18669],[0.6,18750],[0.6,18833],[2,18918],[5.1,19003],[5.6,19083],[5.6,19166],[5.6,19250],[5.6,19333],[5.6,19416],[5.6,19499],[5.1,19585],[3.3,19669],[3.3,19749],[8.8,19835],[26.6,19919],[36,20002],[39,20085],[39.1,20166],[39.1,20250],[39.1,20335],[39.1,20416],[35.8,20502],[25.8,20586],[16.5,20669],[13.5,20752],[12.8,20833],[18.8,20918],[42.1,21002],[50,21085],[50,21166],[50,21249],[50,21335],[50,21416],[50,21500],[49.5,21586],[49.4,21666],[49.4,21751],[49.4,21833],[49.4,21916],[49.4,22000],[49.4,22083],[49.4,22166],[48.1,22252],[44.9,22336],[44.9,22416],[44.9,22500],[45.1,22583],[45.3,22666],[47.9,22752],[50.5,22835],[53.9,22919],[58.4,23003],[61.3,23085],[63.5,23169],[66.3,23252],[68,23335],[69.9,23420],[71.4,23504],[72.9,23585],[73.8,23669],[74.5,23752],[74.5,23833],[74.5,23917],[74.5,24000],[74.5,24083],[74.5,24166],[74.5,24250],[74.5,24333],[74.5,24416],[74.5,24500],[74.5,24583],[74.5,24666],[74.5,24750],[74.5,24835],[74.5,24916],[74.5,25002],[74.5,25083],[74.5,25166],[74.5,25250],[74.5,25333],[74.5,25416],[74.5,25500],[74.5,25585],[74.5,25666],[74.5,25750],[74.5,25833],[74.5,25916],[74.5,26002],[74.5,26083],[74.5,26166],[77.5,26252],[78.9,26336],[81.3,26420],[81.8,26500],[81.9,26583],[81.9,26668],[82.1,26752],[83.4,26835],[83.8,26916],[83.8,27000],[83.8,27083],[83.8,27166],[83.8,27250],[83.8,27333],[83.8,27416],[83.8,27500],[83.8,27583],[83.8,27666],[83.8,27750],[83.8,27836],[83.8,27916],[83.8,27999],[83.8,28084],[83.8,28167],[83.8,28250],[83.8,28335],[83.8,28418],[83.8,28500],[83.8,28583],[83.8,28668],[83.8,28749],[83.8,28833],[83.8,28916],[83.8,29000],[83.8,29083],[83.8,29168],[83.8,29250],[83.8,29333],[83.8,29416],[83.8,29500],[83.8,29583],[83.8,29666],[83.8,29752],[83.1,29833],[71.4,29919],[52.5,30002],[36.5,30085],[27.4,30169],[21.6,30252],[21.1,30335],[17.9,30419],[15.3,30502],[12.1,30585],[10.4,30669],[8.8,30754],[7.5,30835],[6.8,30919],[6.6,31002],[6.6,31083],[7,31169],[7.9,31252],[7.9,31333],[9.1,31419],[9.1,31500],[9.1,31583],[9.1,31666],[9.3,31752],[9.3,31835],[9.3,31918],[9.3,32000],[9.3,32083],[9.3,32166],[9.3,32250],[9.3,32335],[9.3,32416],[9.3,32500],[9.3,32583],[9.3,32666],[9.3,32750],[9.3,32833],[9.3,32916],[9.3,33000],[9.3,33085],[9.3,33166],[9.3,33250],[9.3,33333],[9.3,33416],[9.3,33500],[14.1,33585],[29.4,33669],[47.9,33754],[57.1,33835],[62.6,33919],[68.5,34002],[71.3,34085],[74.1,34169],[75,34252],[77.1,34336],[78.9,34419],[80.6,34502],[82,34586],[82.1,34666],[82.1,34750],[82.1,34833],[82.1,34916],[82.1,35002],[82.1,35083],[82.1,35168],[81.9,35250],[77.9,35335],[75,35419],[74.1,35502],[73,35586],[72.1,35669],[72.1,35749],[72.1,35833],[72.1,35916],[72.1,36002],[72.1,36083],[72.1,36166],[72.1,36250],[72.1,36334],[72.1,36418],[72.1,36500],[72.1,36587],[72.6,36668],[73.5,36752],[75.4,36835],[77.5,36919],[79.6,37002],[82,37085],[83.3,37167],[84.5,37252],[84.5,37333],[84.5,37416],[84.5,37500],[84.5,37583],[84.5,37668],[84.5,37750],[84.5,37833],[84.5,37919],[84.5,38000],[84.5,38083],[84.5,38168],[84.5,38250],[84.5,38335],[84.5,38416],[84.5,38502],[84.5,38583],[84.5,38666],[84.5,38750],[84.5,38833],[84.5,38918],[84.5,39002],[84.5,39083],[84.5,39166],[84.5,39250],[84.5,39333],[84.5,39416],[84.5,39500],[84.5,39583],[84.5,39666],[84.5,39750],[84.5,39833],[84.5,39916],[85.6,40000],[85.6,40083],[83.6,40169],[82,40252],[76.3,40335],[70.3,40419],[58.8,40502],[44.1,40585],[32.1,40669],[23.1,40752],[18.8,40835],[13.6,40921],[13.5,41000],[13.5,41083],[14.6,41169],[31.8,41252],[56.4,41336],[79.3,41419],[90.1,41502],[93.4,41585],[94.1,41669],[95.9,41752],[96.6,41833],[97.4,41919],[97.4,42000],[97.4,42083],[97.4,42166],[97.4,42251],[97.4,42337],[97.4,42416],[97.4,42500],[97.4,42583],[97.4,42666],[97.4,42752],[97.4,42833],[97.4,42916],[97.4,43000],[97.4,43085],[97.4,43166],[97.4,43250],[97.4,43333],[97.4,43416],[97.4,43500],[97.4,43583],[97.4,43666],[97.4,43752],[97.4,43833],[97.4,43918],[97.4,44000],[97.4,44083],[97.4,44166],[97.4,44250],[97.4,44335],[97.4,44416],[97.4,44500],[97.4,44583],[97.4,44666],[97.4,44750],[97.4,44833],[97.4,44916],[97.4,45000],[97.4,45083],[97.4,45166],[97.4,45250],[97.4,45335],[97.4,45416],[97.4,45500],[97.4,45583],[97.4,45666],[97.4,45750],[97.4,45833],[97.4,45916],[97.4,46002],[83.8,46085],[60.9,46169],[48.6,46252],[36.3,46336],[26.5,46419],[18.5,46502],[14.8,46586],[10.8,46670],[7.4,46753],[6.8,46835],[6.8,46916],[6.8,47000],[6.8,47083],[25.1,47169],[70.8,47252],[90,47336],[96.3,47419],[100,47502],[100,47583],[100,47666],[100,47751],[100,47833],[100,47916],[100,48000],[100,48085],[99.9,48166],[99.5,48252],[99.4,48335],[99.4,48416],[99.4,48500],[99.4,48583],[99.4,48666],[99.4,48750],[99.4,48833],[99.4,48916],[99.4,49000],[99.4,49083],[99.4,49166],[99.4,49250],[99.4,49333],[99.4,49416],[99.4,49500],[99.4,49583],[99.4,49666],[99.4,49750],[99.4,49833],[99.4,49916],[99.4,50002],[99.4,50083],[99.4,50166],[99.4,50250],[99.4,50333],[99.4,50416],[98.5,50502],[98.1,50585],[98,50669],[97.9,50750],[97.8,50833],[97.5,50917],[97.5,51000],[97.5,51083],[97.5,51166],[97.5,51250],[97.5,51333],[97.5,51418],[97.5,51500],[97.4,51583],[96.6,51669],[96.3,51750],[95.9,51835],[95.4,51916],[95.3,52000],[95.3,52083],[95.3,52166],[95.3,52250],[95.3,52333],[95.3,52416],[95.3,52500],[95.3,52583],[95.3,52666],[95.3,52750],[95.3,52834],[95.3,52916],[95.3,53002],[95.3,53085],[95.4,53168],[95.9,53250],[96.4,53335],[96.9,53418],[97.3,53500],[97.6,53585],[97.8,53666],[97.8,53750],[97.8,53835],[97.8,53916],[97.8,54000],[97.8,54083],[97.8,54166],[97.8,54250],[97.8,54333],[97.8,54416],[97.8,54500],[97.8,54583],[97.8,54666],[97.8,54750],[97.8,54833],[97.8,54916],[97.8,55000],[97.8,55083],[97.8,55168],[97.8,55250],[97.8,55333],[97.8,55416],[97.8,55500],[97.8,55583],[97.8,55666],[97.8,55750],[97.8,55835]]",1,0,460.4898,465.3563,90.25,1.8119,"[{""rating"":78.375,""responseTime"":1.2685999999642377},{""rating"":90.25000000000001,""responseTime"":1.8118999999761627}]",space,4.3193,,465.3564,Not at all,0,465.3574,,,[],,0,10,10,10,1,audio/Narrative8Situation1.wav,audio/Narrative7Situation1.wav,audio/Narrative6Situation1.wav,audio/Narrative5Situation1.wav,5,2,2,5,,,,,,,,,,,,,,,,,,,,,,,,,,,,,,,,,,,,,,,
,,,,,,65837158eeba09ad03e97f7d,2024-02-08_15h04.02.073,group3.1-3.2-social-tom,2023.2.2,Win32,59.88023952,65c5074098b851296ff0b7ed,65c5419327dceff9fd360b96,,,,,,,,,,,,,,,,,,,,,,,,,,,,,465.3575,1,audio/Narrative7Situation2.wav,468.373,,468.373,475.8564,"[[50.5,584],[50.5,666],[50.5,749],[50.5,833],[50.5,916],[50.5,999],[50.5,1083],[50.5,1166],[50.5,1252],[50.5,1333],[50.5,1416],[50.9,1500],[58.3,1587],[65.9,1670],[71,1752],[76.5,1837],[80.3,1918],[83.8,2002],[85.4,2083],[86.1,2168],[88.6,2252],[91.5,2335],[92.6,2418],[94.1,2502],[100,2586],[100,2670],[100,2749],[100,2833],[100,2916],[100,3000],[100,3083],[100,3166],[100,3249],[100,3333],[100,3418],[100,3499],[100,3583],[100,3666],[100,3749],[100,3833],[100,3916],[100,3999],[100,4083],[100,4166],[100,4249],[100,4333],[100,4416],[100,4499],[100,4583],[100,4666],[100,4749],[100,4833],[100,4916],[100,4999],[100,5083],[100,5166],[100,5249],[100,5335],[100,5416],[100,5499],[100,5583],[100,5666],[100,5750],[100,5833],[100,5916],[100,6000],[100,6083],[100,6166],[100,6252],[100,6333],[100,6416],[100,6499],[100,6585],[100,6666],[100,6750],[100,6833],[100,6916],[100,7000],[100,7083],[100,7166],[100,7249],[100,7333],[100,7416]]",1,0,475.8564,487.1586,100,1.4535,"[{""rating"":100,""responseTime"":1.4534999999999627}]",space,10.7506,,487.1586,Partially,50,487.1658,,,[],,0,11,11,11,1,audio/Narrative8Situation2.wav,audio/Narrative7Situation2.wav,audio/Narrative6Situation2.wav,audio/Narrative5Situation2.wav,3,3,3,3,,,,,,,,,,,,,,,,,,,,,,,,,,,,,,,,,,,,,,,
,,,,,,65837158eeba09ad03e97f7d,2024-02-08_15h04.02.073,group3.1-3.2-social-tom,2023.2.2,Win32,59.88023952,65c5074098b851296ff0b7ed,65c5419327dceff9fd360b96,,,,,,,,,,,,,,,,,,,,,,,,,,,,,487.1661,1,audio/Narrative7Situation3.wav,495.1771,,495.1772,504.4275,"[[999,6],[999,83],[999,166],[49.6,250],[49.6,329],[49.6,416],[49.6,499],[49.6,579],[49.6,666],[49.6,745],[49.6,829],[49.6,912],[49.6,995],[49.6,1079],[49.6,1162],[49.6,1245],[49.6,1329],[50.4,1412],[55.8,1499],[59.4,1583],[60.8,1666],[60.8,1745],[60.8,1829],[55.5,1916],[46.8,1999],[44.9,2083],[42.9,2166],[39.6,2250],[36.5,2336],[33.3,2416],[28.9,2500],[25.8,2583],[22.5,2666],[19.8,2750],[16.8,2833],[15,2916],[14.6,2995],[14.4,3079],[14.4,3167],[14.4,3245],[14.4,3329],[14.4,3416],[13.1,3500],[12,3583],[12,3666],[12,3749],[12,3829],[14.4,3917],[49.9,3999],[86.3,4082],[95,4166],[98.3,4250],[96.5,4333],[83.9,4416],[73.8,4499],[66.5,4582],[59.1,4666],[48.6,4749],[37.6,4833],[30.5,4917],[27.4,4999],[24.1,5083],[24.4,5162],[29.3,5249],[26.5,5332],[26.5,5412],[46.5,5499],[66,5583],[68.9,5665],[69.3,5750],[70.5,5833],[70.5,5912],[70.5,5996],[70,6081],[59.6,6166],[45.8,6250],[38,6332],[33.8,6416],[33.5,6495],[46.6,6583],[60.8,6666],[66.3,6750],[70.6,6833],[73.8,6917],[76,6999],[78,7083],[81.4,7166],[81.9,7250],[81.9,7329],[72.6,7416],[51.8,7499],[37.1,7583],[28.9,7666],[23,7749],[18.8,7833],[15.5,7916],[11.9,7999],[10.9,8079],[10.5,8166],[10.1,8250],[10.1,8333],[10.1,8412],[10.1,8495],[9.8,8579],[7.8,8666],[7.6,8746],[7.6,8829],[7.4,8912],[7.4,8995],[7.4,9080],[8.1,9166],[11.5,9250]]",1,0,504.4276,508.0271,3.75,1.9822,"[{""rating"":3.749999999999998,""responseTime"":1.9821999999880973}]",space,3.0563,,508.0272,Not at all,0,508.0292,,,[],,0,12,12,12,1,audio/Narrative8Situation3.wav,audio/Narrative7Situation3.wav,audio/Narrative6Situation3.wav,audio/Narrative5Situation3.wav,4,8,5,3,,,,,,,,,,,,,,,,,,,,,,,,,,,,,,,,,,,,,,,
,,,,,,65837158eeba09ad03e97f7d,2024-02-08_15h04.02.073,group3.1-3.2-social-tom,2023.2.2,Win32,59.88023952,65c5074098b851296ff0b7ed,65c5419327dceff9fd360b96,,,,,,,,,,,,,,,,,,,,,,,,,,,,,508.0293,1,audio/Narrative7Situation4.wav,511.0398,,511.0399,522.79,"[[999,0],[999,83],[999,166],[999,249],[999,333],[999,416],[999,499],[51,588],[50.6,670],[50.4,753],[50.3,833],[50.3,916],[50.3,999],[50.3,1083],[50.3,1166],[50.3,1249],[50.3,1333],[50.3,1416],[47.1,1503],[44.3,1587],[38.3,1671],[33,1754],[26.5,1837],[22.1,1921],[18.3,2004],[14.6,2087],[11.4,2170],[8.4,2254],[5.6,2337],[3.6,2420],[2.4,2503],[2.4,2583],[2.4,2666],[2.4,2750],[2.4,2833],[2.4,2920],[2.4,3003],[2.4,3087],[2.4,3166],[2.4,3249],[2.4,3333],[2.4,3416],[2.4,3504],[2.4,3583],[2.4,3666],[2.4,3749],[2.4,3833],[2.4,3916],[2.4,4004],[2.4,4083],[2.4,4170],[2.4,4253],[2.4,4333],[2.4,4416],[2.4,4504],[2.4,4583],[2.4,4666],[2.4,4749],[2.4,4833],[2.4,4916],[2.4,5000],[2.4,5083],[2.4,5166],[2.4,5249],[2.4,5333],[2.4,5420],[2.4,5499],[2.4,5583],[5,5670],[10,5753],[16.8,5837],[26.9,5921],[44.9,6004],[65.6,6087],[75,6170],[81.8,6254],[85.3,6337],[87.3,6420],[89.1,6504],[90.3,6588],[91.4,6670],[91.4,6749],[91.4,6833],[84.3,6920],[52.8,7004],[13.5,7088],[0.3,7171],[1.3,7587],[1.3,7669],[1.3,7749],[1.3,7833],[1.3,7916],[1.3,7999],[1.3,8083],[1.3,8166],[1.3,8249],[1.3,8333],[1.3,8416],[1.3,8499],[1.3,8583],[1.3,8668],[1.3,8749],[1.3,8833],[1.3,8916],[1.3,9003],[1.3,9083],[1.3,9166],[1.3,9251],[1.3,9333],[1.4,9416],[1.4,9499],[1.4,9583],[1.4,9666],[1.4,9749],[1.4,9833],[1.4,9916],[1.4,9999],[1.4,10083],[1.4,10166],[1.4,10249],[1.4,10335],[1.4,10416],[1.4,10499],[1.4,10583],[1.4,10666],[1.4,10749],[1.4,10833],[1.4,10918],[1.4,11003],[1.4,11083],[1.4,11166],[1.4,11249],[1.4,11333],[1.4,11416],[1.4,11499],[1.4,11583],[1.4,11666],[1.4,11749]]",1,0,522.7902,526.1399,0,1.4518,"[{""rating"":0,""responseTime"":1.4518000000118718}]",space,2.807,,526.14,Definitely yes,100,526.1415,,,[],,0,13,13,13,1,audio/Narrative8Situation4.wav,audio/Narrative7Situation4.wav,audio/Narrative6Situation4.wav,audio/Narrative5Situation4.wav,3,3,2,1,,,,,,,,,,,,,,,,,,,,,,,,,,,,,,,,,,,,,,,
,,,,,,65837158eeba09ad03e97f7d,2024-02-08_15h04.02.073,group3.1-3.2-social-tom,2023.2.2,Win32,59.88023952,65c5074098b851296ff0b7ed,65c5419327dceff9fd360b96,,,,,,,,,,,,,,,,,,,,,,,,,,,,,526.1416,1,audio/Narrative7Situation5.wav,531.1565,,531.1565,539.64,"[[999,5],[999,83],[999,166],[999,249],[999,333],[999,416],[999,502],[43,583],[47.3,669],[48.6,752],[49.1,833],[49.1,916],[49.1,1000],[46.4,1085],[44.5,1169],[43.6,1252],[41.4,1335],[38.8,1420],[37.3,1504],[35.3,1587],[33.3,1669],[31.1,1752],[29.1,1835],[27.4,1919],[24.5,2002],[21,2085],[17.8,2168],[16.6,2251],[16.4,2333],[28.9,2419],[44.9,2502],[47.6,2585],[48.1,2668],[48.9,2750],[50.9,2835],[51.3,2919],[51.5,2999],[52,3085],[54.4,3169],[57.3,3252],[60.4,3336],[62.5,3420],[63.3,3503],[64.8,3585],[65.9,3669],[66.6,3750],[66.8,3833],[66.9,3916],[67.8,4002],[67.9,4083],[67.9,4166],[67.9,4250],[69.4,4335],[70.3,4418],[70.6,4500],[70.6,4583],[70.6,4666],[70.6,4749],[70.6,4833],[70.6,4916],[70.6,5000],[70.6,5083],[70.6,5166],[70.6,5250],[70.6,5333],[70.5,5416],[70.4,5500],[70.1,5583],[69.9,5669],[69.4,5752],[68.6,5836],[67.6,5920],[66.1,6002],[62.5,6086],[56.6,6169],[52.1,6252],[50.1,6336],[49.1,6419],[49.1,6500],[49.1,6583],[49.1,6666],[49.8,6752],[50.3,6833],[50.3,6916],[50.3,7001],[50.3,7083],[50.3,7166],[50.3,7249],[50.3,7333],[50.3,7416],[50.3,7500],[50.3,7583],[50.3,7669],[50.3,7750],[50.3,7833],[50.3,7916],[50.3,8000],[50.3,8083],[50.3,8166],[50.3,8250],[50.3,8333],[50.3,8416]]",1,0,539.64,546.6733,0,2.9361,"[{""rating"":0,""responseTime"":2.936100000023771}]",space,6.4849,,546.6734,Definitely yes,100,546.6801,,,[],,0,14,14,14,1,audio/Narrative8Situation5.wav,audio/Narrative7Situation5.wav,audio/Narrative6Situation5.wav,audio/Narrative5Situation5.wav,2,5,2,5,,,,,,,,,,,,,,,,,,,,,,,,,,,,,,,,,,,,,,,
,,,,,,65837158eeba09ad03e97f7d,2024-02-08_15h04.02.073,group3.1-3.2-social-tom,2023.2.2,Win32,59.88023952,65c5074098b851296ff0b7ed,65c5419327dceff9fd360b96,,,,,,,,,,,,,,,,,,,,,,,,,,,,,546.6803,1,audio/Narrative7Situation6.wav,549.6899,,549.69,559.6901,"[[999,7],[999,83],[999,166],[999,250],[999,333],[999,420],[999,500],[44.3,586],[46.8,669],[48.3,752],[48.4,833],[49.5,919],[50.1,1002],[50.1,1083],[51.5,1169],[54,1252],[54.1,1333],[54.1,1416],[54.6,1502],[56,1585],[61,1669],[66.6,1752],[72.8,1836],[78,1920],[81.1,2002],[83.9,2085],[87.1,2168],[89.3,2252],[91.8,2333],[95,2418],[95,2499],[95,2583],[95,2666],[95.3,2752],[95.4,2835],[95.4,2918],[95.4,3000],[95.4,3083],[95.4,3166],[95.4,3249],[95.4,3333],[95.4,3417],[95.4,3499],[95.4,3583],[95.4,3666],[95.4,3749],[95.4,3833],[95.4,3916],[95.4,3999],[95.4,4083],[95.4,4168],[95.4,4253],[95.4,4333],[95.4,4416],[95.4,4499],[95.4,4583],[95.4,4666],[95.4,4749],[95.4,4833],[95.4,4916],[95.4,4999],[95.4,5083],[95.4,5166],[95.4,5249],[95.4,5333],[95.4,5416],[95.4,5502],[95.4,5583],[95.4,5666],[95.4,5749],[95.4,5833],[95.4,5918],[95.4,5999],[95.4,6083],[95.4,6166],[95.4,6253],[95.4,6335],[95.4,6416],[95.4,6499],[95.4,6583],[95.4,6666],[95.4,6751],[95.4,6833],[95.4,6916],[95.4,6999],[95.4,7083],[95.4,7168],[95.4,7250],[95.4,7333],[95.4,7416],[95.4,7500],[95.4,7585],[95.4,7666],[95.4,7750],[95.4,7833],[95.4,7916],[95.4,7999],[95.4,8083],[95.4,8166],[95.4,8250],[95.4,8333],[95.4,8416],[95.4,8500],[95.4,8583],[95.4,8671],[95.4,8749],[95.4,8835],[95.4,8916],[95.4,9000],[95.4,9085],[95.4,9170],[95.4,9249],[95.4,9333],[95.4,9416],[95.4,9500],[95.4,9583],[95.4,9666],[95.4,9750],[95.4,9833],[95.4,9916],[95.4,9999]]",1,0,559.6901,563.04,99.75,1.8294,"[{""rating"":99.75,""responseTime"":1.8294000000357755}]",space,2.807,,563.04,Not at all,0,563.0416,,,[],,0,15,15,15,1,audio/Narrative8Situation6.wav,audio/Narrative7Situation6.wav,audio/Narrative6Situation6.wav,audio/Narrative5Situation6.wav,2,3,2,3,,,,,,,,,,,,,,,,,,,,,,,,,,,,,,,,,,,,,,,
,,,,,,65837158eeba09ad03e97f7d,2024-02-08_15h04.02.073,group3.1-3.2-social-tom,2023.2.2,Win32,59.88023952,65c5074098b851296ff0b7ed,65c5419327dceff9fd360b96,,,,,,,,,,,,,,,,,,,,,,,,,,,,,563.0417,1,audio/Narrative7Situation7.wav,568.0567,,568.0567,585.2402,"[[999,5],[999,83],[999,166],[999,249],[999,333],[999,416],[999,499],[999,583],[999,666],[999,749],[999,833],[999,916],[999,999],[999,1083],[999,1166],[999,1252],[49.3,1335],[49.5,1416],[49.5,1500],[50.3,1585],[50.3,1666],[50.3,1749],[50.3,1833],[50.3,1916],[48.8,2004],[43.1,2085],[36.9,2169],[32.4,2252],[28.3,2335],[25.4,2420],[20.4,2502],[21.1,2583],[50.9,2668],[69,2752],[72.4,2835],[75.8,2919],[77.6,3004],[79.9,3085],[83.4,3169],[85.6,3252],[86.3,3335],[88,3419],[89.6,3502],[90.5,3585],[91.9,3669],[92.3,3752],[92.3,3833],[92.3,3916],[92.3,4001],[92.3,4083],[85.4,4168],[69.9,4252],[63.8,4335],[56,4418],[53.9,4502],[53,4583],[50.8,4669],[50.6,4749],[53,4835],[58.5,4919],[65,5002],[71,5085],[75.4,5169],[78.3,5252],[81,5337],[84.3,5419],[87.9,5502],[89.6,5586],[91.4,5668],[92.3,5749],[92.4,5833],[92.4,5916],[92.4,6003],[92.4,6083],[92.4,6166],[92.4,6249],[92.4,6333],[92.4,6416],[92.4,6500],[94.4,6585],[96,6666],[96,6749],[96,6833],[96,6916],[96.9,7003],[97.4,7083],[97.4,7166],[97.4,7251],[97.4,7333],[97.4,7418],[97.4,7503],[97.4,7583],[97.4,7666],[97.4,7750],[97.4,7833],[97.4,7916],[97.4,7999],[97.4,8083],[97.4,8166],[97.4,8250],[97.4,8333],[97.4,8416],[97.4,8500],[97.4,8583],[97.4,8666],[97.4,8750],[97.4,8833],[97.4,8916],[97.4,9001],[97.4,9083],[97.4,9166],[97.4,9249],[97.4,9335],[97.4,9416],[97.4,9500],[97.4,9583],[97.4,9670],[97.4,9752],[97.4,9833],[97.4,9916],[97.4,10001],[97.4,10083],[97.4,10166],[97.4,10249],[97.4,10333],[97.4,10416],[97.4,10499],[97.4,10584],[97.4,10666],[97.4,10750],[86.6,10835],[67.8,10919],[54.9,11002],[50.5,11085],[46.5,11169],[43.4,11252],[42.5,11335],[42.5,11416],[42.5,11500],[39.5,11586],[39.5,11666],[52.1,11752],[69.6,11835],[73.5,11919],[76.5,12004],[82.9,12085],[86.9,12169],[90.3,12252],[93.9,12335],[95,12419],[96.3,12502],[96.8,12583],[96.8,12666],[96.8,12750],[96.8,12833],[96.8,12916],[96.8,13000],[96.8,13085],[96.8,13166],[96.8,13250],[96.8,13333],[96.8,13416],[96.8,13503],[96.8,13583],[96.8,13666],[96.8,13750],[96.8,13835],[96.8,13916],[96.8,14000],[96.8,14083],[96.8,14166],[96.8,14252],[96.8,14333],[96.8,14416],[96.8,14499],[96.8,14583],[96.8,14666],[96.8,14749],[96.8,14833],[96.8,14916],[96.8,15000],[96.8,15083],[96.8,15166],[96.8,15252],[96.8,15333],[96.8,15416],[96.8,15500],[96.8,15583],[96.8,15666],[96.8,15750],[96.8,15833],[96.8,15916],[96.8,16000],[96.8,16083],[96.8,16166],[96.8,16250],[96.8,16333],[96.8,16416],[96.8,16500],[96.8,16583],[96.8,16666],[96.8,16749],[96.8,16833],[96.8,16920],[96.8,17000],[96.8,17083],[96.8,17166]]",1,0,585.2403,587.6068,100,1.4392,"[{""rating"":100,""responseTime"":1.4392000000476628}]",space,1.8289,,587.6068,Definitely yes,100,587.6084,,,[],,0,16,16,16,1,audio/Narrative8Situation7.wav,audio/Narrative7Situation7.wav,audio/Narrative6Situation7.wav,audio/Narrative5Situation7.wav,3,5,5,4,,,,,,,,,,,,,,,,,,,,,,,,,,,,,,,,,,,,,,,
,,,,,,65837158eeba09ad03e97f7d,2024-02-08_15h04.02.073,group3.1-3.2-social-tom,2023.2.2,Win32,59.88023952,65c5074098b851296ff0b7ed,65c5419327dceff9fd360b96,,,,,,,,,,,,,,,,,,,,,,,,,,,,,587.6086,1,audio/Narrative7Situation8.wav,589.6235,,589.6235,599.6755,"[[100,1333],[57.1,1752],[56.4,1833],[55.5,1919],[52.5,2002],[51,2086],[50.9,2166],[50.9,2249],[51.5,2337],[51.1,2416],[50.3,2499],[50.3,2583],[49.5,2670],[45.4,2752],[36.8,2835],[33,2918],[25.3,3002],[21.1,3085],[18.8,3168],[16.8,3251],[13.4,3337],[11.1,3420],[10.9,3500],[10.9,3583],[11.4,3669],[11.8,3750],[13.5,3835],[16,3919],[16.5,3999],[16.5,4083],[16.5,4166],[14.1,4249],[13.9,4333],[13.9,4416],[16.3,4502],[20.4,4585],[26.8,4669],[32.3,4752],[34.9,4835],[39,4917],[44.4,5002],[54.3,5086],[66.6,5169],[76,5252],[79.4,5334],[82.5,5420],[85.3,5503],[88,5587],[89.1,5666],[89.1,5749],[90.4,5835],[95.1,5919],[95.4,6000],[95.4,6083],[95.4,6166],[95.4,6249],[95.4,6333],[95.4,6416],[95.4,6499],[95.4,6583],[95.4,6666],[95.4,6749],[95.4,6833],[95.4,6916],[95.4,7003],[95.4,7085],[95.4,7166],[95.4,7250],[95.4,7333],[95.4,7416],[95.4,7499],[95.4,7583],[95.4,7666],[95.4,7749],[95.4,7833],[95.4,7916],[95.4,7999],[95.4,8083],[95.4,8166],[95.4,8253],[95.4,8333],[95.4,8416],[95.4,8500],[95.4,8583],[95.4,8666],[95.4,8749],[95.4,8833],[95.4,8916],[95.4,9000],[95.4,9083],[95.4,9166],[95.4,9249],[95.4,9335],[95.4,9416],[95.4,9499],[95.4,9583],[95.4,9666],[95.4,9750],[95.4,9833],[95.4,9920],[95.4,9999]]",1,0,599.6756,604.6901,91.25,2.9278,"[{""rating"":91.25,""responseTime"":2.927800000011871}]",space,4.4716,,604.6902,Definitely yes,100,604.6911,,,[],,0,17,17,17,1,audio/Narrative8Situation8.wav,audio/Narrative7Situation8.wav,audio/Narrative6Situation8.wav,audio/Narrative5Situation8.wav,3,2,5,3,,,,,,,,,,,,,,,,,,,,,,,,,,,,,,,,,,,,,,,
,,,,,,65837158eeba09ad03e97f7d,2024-02-08_15h04.02.073,group3.1-3.2-social-tom,2023.2.2,Win32,59.88023952,65c5074098b851296ff0b7ed,65c5419327dceff9fd360b96,,,,,,,,,,,,,,,,,,,,,,,,,,,,,604.6913,1,audio/Narrative7Situation9.wav,606.7068,,606.7069,615.3403,"[[999,0],[999,83],[999,169],[999,253],[999,333],[999,418],[49.5,500],[50,586],[50,668],[50,750],[50,833],[50,916],[50,1000],[50,1083],[50,1166],[51,1254],[51,1333],[51,1416],[51,1499],[51,1583],[51,1666],[51,1749],[49.5,1835],[49.1,1916],[57.5,2002],[68.1,2085],[73.8,2168],[77.3,2253],[82,2337],[87.4,2418],[96,2502],[100,2583],[100,2668],[100,2749],[100,2833],[100,2916],[100,2999],[100,3083],[100,3166],[100,3249],[100,3336],[100,3416],[100,3499],[100,3583],[100,3666],[100,3749],[100,3833],[100,3916],[100,3999],[100,4083],[100,4166],[100,4249],[100,4333],[100,4416],[100,4499],[100,4583],[100,4666],[100,4749],[100,4833],[100,4918],[100,4999],[100,5083],[100,5166],[100,5249],[100,5333],[100,5416],[100,5500],[100,5583],[100,5666],[100,5749],[100,5833],[100,5920],[100,6000],[100,6085],[100,6166],[100,6250],[100,6333],[100,6416],[100,6499],[100,6583],[100,6666],[100,6749],[100,6833],[100,6916],[100,6999],[100,7083],[100,7166],[100,7250],[100,7337],[100,7416],[100,7501],[100,7583],[100,7666],[100,7749],[100,7833],[100,7916],[100,7999],[100,8083],[100,8167],[100,8250],[100,8333],[100,8416],[100,8500],[100,8583]]",1,0,615.3403,617.7569,100,1.33,"[{""rating"":100,""responseTime"":1.330000000000041}]",space,1.8724,,617.7569,Definitely yes,100,644.7237,100,21.272,"[{""rating"":99.75,""responseTime"":11.435099999964223},{""rating"":100,""responseTime"":14.708799999952362},{""rating"":100,""responseTime"":15.924000000000092},{""rating"":97.625,""responseTime"":17.024},{""rating"":94.75,""responseTime"":17.638000000000034},{""rating"":99.875,""responseTime"":20.15289999997617},{""rating"":99.875,""responseTime"":20.789899999976228},{""rating"":100,""responseTime"":21.272000000000048}]",space,0,18,18,18,1,audio/Narrative8Situation9.wav,audio/Narrative7Situation9.wav,audio/Narrative6Situation9.wav,audio/Narrative5Situation9.wav,3,2,4,3,,,26.4207,,,,,,,,,,,,,,,,,,,,,,,,,,,,,,,,,,,,
,,,,,,65837158eeba09ad03e97f7d,2024-02-08_15h04.02.073,group3.1-3.2-social-tom,2023.2.2,Win32,59.88023952,65c5074098b851296ff0b7ed,65c5419327dceff9fd360b96,,,,,,,,,,,,,,,,,,,,,,,,,,,652.7469,655.3238,655.3379,2,audio/Narrative13Situation2.wav,655.3379,,655.3379,685.0906,"[[999,0],[999,69],[999,152],[999,235],[999,319],[999,402],[999,485],[999,569],[999,653],[999,735],[999,822],[999,906],[999,987],[999,1069],[48,1154],[48.1,1238],[48.3,1321],[48.9,1404],[50,1488],[50.1,1571],[50.1,1652],[50.1,1735],[50.1,1819],[50.1,1904],[50.1,1985],[50.1,2069],[50,2152],[42.1,2238],[37.5,2322],[35.1,2405],[31.3,2488],[28.1,2571],[25.4,2655],[22,2738],[18,2821],[14.9,2905],[12,2988],[10.4,3071],[9.3,3155],[8.9,3238],[8.9,3319],[8.9,3402],[4.9,3488],[4.3,3571],[1.6,3654],[1.3,3735],[1.3,3819],[1.3,3904],[1.3,3987],[1.3,4070],[1.3,4152],[1.3,4235],[1.3,4319],[1.3,4402],[1.3,4485],[1.3,4569],[1.3,4652],[1.3,4735],[1.3,4819],[1.3,4902],[1.3,4985],[1.3,5069],[1.3,5152],[1.3,5239],[1.6,5319],[11.9,5404],[24.4,5488],[36.8,5572],[48.4,5654],[54.4,5738],[55.1,5821],[55.1,5904],[54.3,5988],[52.5,6071],[51.8,6154],[51.8,6236],[51.8,6319],[52.5,6404],[53.4,6485],[53.4,6569],[53.4,6652],[53.4,6735],[53.4,6819],[53.4,6904],[53.4,6987],[53.4,7069],[50.8,7155],[45.3,7238],[44.1,7321],[44.1,7402],[45.1,7487],[47.8,7571],[50.1,7655],[52.8,7738],[54.8,7821],[56.9,7905],[60.1,7988],[61.9,8071],[61.8,8152],[61.8,8235],[61.8,8319],[62.4,8404],[64.4,8488],[66,8572],[68.6,8654],[75.4,8738],[83.1,8821],[88.5,8904],[91.3,8988],[92.8,9069],[94.9,9154],[95.4,9235],[95.4,9319],[95.4,9402],[95.4,9485],[95.4,9569],[95.4,9654],[95.4,9738],[95.4,9821],[95.4,9902],[95.4,9985],[95.4,10069],[95.4,10152],[95.4,10235],[95.4,10319],[95.4,10402],[95.4,10485],[95.4,10571],[95.4,10654],[95.4,10735],[95.4,10819],[95.4,10902],[95.4,10989],[95.4,11069],[95.4,11154],[95.4,11239],[95.4,11319],[95.4,11402],[95.4,11485],[95.4,11569],[95.4,11652],[95.4,11735],[95.4,11819],[95.4,11902],[95.4,11985],[95.4,12069],[95.6,12160],[96.1,12235],[96.9,12321],[96.9,12404],[96.9,12485],[96.9,12571],[96.9,12652],[96.9,12735],[96.9,12819],[96.9,12902],[96.9,12985],[96.9,13069],[96.9,13154],[96.9,13235],[96.9,13319],[96.9,13402],[96.9,13485],[96.9,13569],[96.9,13652],[96.9,13735],[97.5,13821],[97.6,13902],[97.6,13989],[97.6,14069],[97.6,14152],[97.6,14235],[97.6,14319],[97.6,14404],[97.6,14485],[97.6,14569],[97.6,14654],[97.6,14738],[97.6,14819],[97.6,14902],[97.6,14985],[97.6,15069],[97.6,15154],[83.6,15238],[66.4,15321],[57,15406],[50,15488],[44.5,15571],[39.1,15655],[30.4,15739],[23,15821],[17,15905],[10.5,15988],[5.6,16071],[2.6,16156],[2.1,16237],[2.1,16319],[2,16402],[2,16485],[2,16572],[2,16652],[2,16738],[2,16819],[2,16902],[2,16985],[2,17069],[2,17152],[2,17238],[2,17319],[1.4,17405],[1.3,17485],[1.3,17569],[1.3,17652],[1.3,17735],[1.3,17821],[1.3,17902],[1.3,17985],[1.3,18069],[1.9,18154],[1.9,18239],[1.9,18322],[1.9,18404],[1.9,18485],[1.9,18569],[1.9,18652],[1.9,18735],[1.9,18819],[1.9,18902],[1.9,18985],[1.9,19069],[1.9,19152],[1.9,19235],[1.9,19319],[1.9,19402],[1.9,19485],[1.9,19569],[1.9,19652],[1.9,19739],[1.9,19819],[1.9,19902],[1.9,19985],[1.9,20069],[1.9,20152],[1.9,20235],[1.9,20319],[1.9,20402],[1.9,20485],[1.9,20569],[1.9,20652],[1.9,20735],[1.9,20819],[1.9,20902],[1.9,20985],[1.9,21071],[1.9,21152],[1.9,21235],[1.9,21319],[1.9,21402],[1.9,21485],[1.9,21569],[1.9,21654],[1.9,21735],[1.9,21819],[1.9,21902],[1.9,21985],[1.9,22069],[5.1,22162],[14.8,22240],[22,22322],[30.5,22406],[39,22489],[43.5,22573],[47.4,22656],[48.6,22740],[49.9,22821],[50.9,22904],[51,22985],[51.5,23071],[51.9,23154],[52,23238],[52,23319],[52,23402],[52,23487],[52,23569],[52,23652],[52,23735],[52,23819],[52,23902],[50.8,23988],[49.1,24073],[48,24157],[45.1,24238],[40.4,24321],[34.8,24404],[28.9,24488],[21.6,24571],[15.6,24655],[10.4,24738],[6.5,24821],[4,24902],[2,24988],[1,25071]]",1,0,685.0908,685.0977,,,[],,,,685.0977,Definitely yes,100,685.0983,,,[],,0,0,0,0,1,audio/Narrative13Situation2.wav,audio/Narrative13Situation2.wav,audio/Narrative13Situation2.wav,audio/Narrative13Situation2.wav,2,2,2,2,,,,,644.7299,652.7409,space,7.4976,,,,,,,,,,,,,,,,,,,,,,,,,,,,,,,
,,,,,,65837158eeba09ad03e97f7d,2024-02-08_15h04.02.073,group3.1-3.2-social-tom,2023.2.2,Win32,59.88023952,65c5074098b851296ff0b7ed,65c5419327dceff9fd360b96,,,,,,,,,,,,,,,,,,,,,,,,,,,,,685.0985,2,audio/Narrative6Situation1.wav,687.1093,,687.1093,713.6907,"[[14.8,83],[14.9,164],[14.9,249],[14.9,331],[14.9,414],[14.9,497],[14.9,581],[14.9,664],[14.9,750],[14.9,833],[14.9,914],[14.9,997],[14.9,1081],[14.9,1164],[14.9,1247],[14.9,1331],[16.6,1417],[17.6,1500],[17.6,1581],[17.6,1664],[13.4,1750],[11.3,1834],[10.3,1918],[10.3,1997],[9.6,2081],[6.6,2166],[5.8,2250],[4.1,2333],[3,2417],[2.8,2497],[2.8,2581],[2.8,2664],[2.8,2747],[2.8,2831],[2.8,2914],[2.8,2997],[2.8,3081],[2.8,3164],[2.8,3247],[4.3,3333],[6.3,3417],[8,3500],[9.4,3583],[9.9,3664],[9.6,3748],[5,3834],[3.3,3918],[2,4001],[1.6,4083],[1.6,4164],[1.6,4250],[3.6,4333],[7.5,4416],[9.5,4500],[9.6,4583],[9.8,4664],[9.8,4747],[9.8,4835],[9.8,4914],[9.8,4997],[9.8,5081],[9.8,5164],[9.8,5250],[9.8,5331],[9.8,5414],[10,5500],[22.6,5583],[53.1,5667],[68.8,5750],[75,5833],[83,5917],[90.6,6000],[92.5,6083],[93.5,6167],[94.3,6250],[94.3,6333],[94.6,6416],[94.8,6500],[94.8,6581],[94.3,6667],[94.3,6747],[94.3,6831],[94.3,6914],[94.3,6997],[94.5,7084],[94.9,7167],[94.9,7247],[94.9,7331],[94.9,7414],[94.9,7497],[94.9,7581],[94.9,7664],[94.9,7747],[95.4,7833],[95.4,7914],[95.4,7997],[95.4,8081],[95.4,8164],[95.4,8248],[95.4,8331],[95.4,8414],[95.4,8497],[95.4,8581],[95.4,8664],[95.4,8749],[95.4,8831],[95.4,8914],[95.4,8999],[95.4,9081],[95.4,9164],[95.4,9247],[95.4,9331],[95.4,9414],[95.4,9497],[95.4,9581],[95.4,9666],[95.4,9751],[95.4,9831],[95.4,9914],[95.4,9997],[95.4,10081],[95.4,10164],[95.4,10247],[95.4,10331],[95.4,10414],[95.4,10497],[95.4,10581],[95.4,10664],[95.4,10747],[95.4,10831],[95.4,10916],[95.4,10997],[95.4,11083],[95.4,11164],[95.4,11247],[95.4,11331],[95.4,11414],[95.4,11497],[95.4,11581],[95.4,11664],[95.4,11747],[95.4,11835],[95.4,11914],[95.4,11997],[95.4,12081],[95.4,12164],[95.4,12247],[95.4,12333],[95.4,12414],[95.4,12498],[95.4,12581],[95.4,12664],[88.3,12750],[63.3,12834],[40.3,12917],[30,13000],[19.9,13084],[15.4,13164],[10.1,13250],[6.9,13334],[6.6,13414],[5.5,13500],[3.9,13583],[3.4,13664],[3.4,13747],[3.4,13831],[3.4,13914],[13.1,14000],[43.5,14083],[60.6,14168],[67.4,14250],[71.9,14333],[75.9,14417],[79.8,14500],[82.1,14584],[87.1,14667],[87.3,14747],[87.3,14831],[84.4,14917],[65.8,15000],[55.4,15083],[52.4,15167],[52.4,15249],[52.4,15331],[52.1,15414],[51.6,15500],[51,15585],[50.9,15664],[50.9,15748],[50.9,15831],[50.9,15918],[50.9,15997],[50.9,16081],[50.9,16164],[50.9,16247],[50.9,16331],[50.9,16414],[50.9,16497],[50.9,16581],[50.8,16664],[50.5,16747],[50.5,16833],[50.5,16916],[50.5,16997],[50.5,17081],[50.5,17164],[50.5,17247],[50.5,17331],[50.5,17414],[50.5,17497],[50.5,17581],[50.5,17664],[50.5,17747],[50.5,17831],[48.3,17917],[36,18000],[23.3,18083],[14.9,18166],[9.3,18250],[6.1,18333],[4.3,18416],[1.9,18502],[1.9,18581],[1.9,18664],[1.9,18748],[1.9,18833],[1.9,18914],[1.9,18997],[1.9,19081],[1.9,19164],[1.9,19247],[2.3,19333],[2.3,19416],[2.3,19497],[2.3,19583],[2.3,19664],[2.3,19747],[2.3,19833],[2.3,19914],[2.3,20002],[2.3,20081],[2.3,20164],[2.3,20247],[2.3,20331],[2.3,20414],[2.3,20497],[7.1,20583],[21.8,20667],[37.8,20750],[64.1,21000],[67,21083],[71.4,21166],[73,21250],[74.3,21333],[76.6,21418],[77.9,21500],[79.6,21583],[79.9,21664],[79.9,21747],[79.9,21831],[79.9,21914],[79.9,21998],[81.1,22083],[83.5,22167],[85.4,22250],[87.4,22335],[88.8,22416],[90,22500],[90.9,22581],[90.9,22664],[91,22750],[91,22831],[91,22914],[91,22997],[91,23081],[91,23164],[91,23247],[90,23333],[86.1,23416],[84.8,23500],[84.6,23581],[84.6,23664],[88,23750],[91.3,23833],[92.6,23917],[92.8,23997],[93.3,24084],[94.1,24167],[94.5,24250],[95.1,24334],[95.8,24417],[96.8,24500],[96.8,24581],[96.8,24664],[96.8,24748],[96.8,24831],[96.8,24914],[96.8,24998],[96.8,25081],[96.8,25164],[96.8,25250],[96.8,25331],[96.8,25417],[96.8,25500],[96.8,25581],[96.8,25664],[96.8,25748],[96.8,25835],[96.8,25914],[96.8,25997],[96.8,26081],[96.8,26164],[96.8,26248],[96.8,26331],[96.8,26414],[96.8,26497],[96.8,26581]]",1,0,713.6908,719.324,78.375,2.0679,"[{""rating"":78.375,""responseTime"":2.0679000000357064}]",space,5.0945,,719.3241,Not at all,0,719.3257,,,[],,0,1,1,1,1,audio/Narrative7Situation1.wav,audio/Narrative8Situation1.wav,audio/Narrative5Situation1.wav,audio/Narrative6Situation1.wav,2,5,5,2,,,,,,,,,,,,,,,,,,,,,,,,,,,,,,,,,,,,,,,
,,,,,,65837158eeba09ad03e97f7d,2024-02-08_15h04.02.073,group3.1-3.2-social-tom,2023.2.2,Win32,59.88023952,65c5074098b851296ff0b7ed,65c5419327dceff9fd360b96,,,,,,,,,,,,,,,,,,,,,,,,,,,,,719.3259,2,audio/Narrative6Situation2.wav,722.3261,,722.3262,750.8243,"[[999,5],[999,81],[999,166],[999,251],[49,333],[49.1,416],[49.3,497],[49.3,581],[49.3,664],[49.3,751],[49.3,833],[49.3,914],[49.3,997],[49.3,1081],[49.3,1164],[49.3,1250],[49.3,1331],[49.3,1414],[49.3,1497],[49.3,1581],[49.3,1664],[49.3,1747],[49.3,1831],[49.3,1914],[49.3,1997],[49.3,2081],[49.3,2164],[49.3,2247],[49.3,2331],[49.3,2414],[49.3,2497],[49.3,2581],[49.3,2664],[49.3,2747],[49.3,2833],[49.3,2914],[49.3,2997],[49.3,3081],[49.3,3165],[49.3,3251],[49.3,3331],[49.3,3416],[49.3,3497],[49.3,3581],[49.3,3669],[49.3,3747],[48.5,3832],[48,3914],[49.5,3999],[60.5,4083],[73.6,4166],[76.5,4250],[77.1,4333],[78.5,4417],[80.6,4500],[82.9,4583],[85.1,4667],[87.6,4750],[88.9,4833],[90.8,4917],[91.3,5000],[91.5,5081],[91.5,5164],[92.4,5250],[93.4,5333],[94.1,5416],[94.9,5500],[96,5583],[97.1,5666],[97.6,5749],[97.6,5831],[97.6,5916],[97.6,5997],[97.6,6083],[97.6,6164],[97.6,6247],[97.6,6333],[97.6,6414],[97.6,6499],[97.6,6581],[97.6,6664],[97.6,6747],[97.6,6831],[97.6,6914],[97.6,6999],[97.6,7081],[97.6,7164],[97.6,7247],[97.6,7331],[97.6,7414],[97.6,7497],[97.6,7581],[97.6,7664],[97.6,7748],[97.6,7831],[97.6,7914],[97.6,8001],[97.6,8081],[97.6,8164],[97.6,8250],[97.6,8331],[97.6,8414],[97.6,8497],[96.5,8583],[94.4,8666],[90.6,8750],[84.9,8833],[80.9,8917],[78.3,9000],[74.1,9083],[72.1,9167],[72.1,9247],[72.1,9333],[72.1,9414],[71.8,9497],[71.8,9581],[76.6,9666],[82,9750],[86.4,9833],[89,9916],[91.4,10000],[93.8,10083],[95,10167],[95.9,10251],[95.9,10331],[94,10416],[76.6,10500],[62.1,10583],[49.5,10667],[36.9,10750],[28.9,10834],[22.5,10917],[17.8,11000],[13.5,11083],[10.1,11166],[8,11250],[7.6,11333],[6.3,11417],[4.5,11500],[3.3,11583],[2.3,11664],[2.3,11747],[2.3,11831],[2.3,11914],[2.3,11997],[3,12083],[4.8,12167],[13,12251],[34.9,12335],[51.8,12417],[62.9,12500],[72.6,12583],[79.9,12666],[84.5,12750],[88.9,12833],[91.3,12916],[93.1,13000],[95.1,13083],[96.1,13166],[96.9,13250],[96.9,13331],[96.9,13414],[96.9,13497],[96.9,13581],[96.9,13664],[96.6,13751],[96.6,13835],[96.6,13914],[96.6,13997],[96.6,14081],[96.6,14164],[96.6,14247],[96.6,14331],[96.6,14416],[96.6,14497],[96.6,14581],[96.6,14664],[96.6,14750],[96.6,14831],[96.3,14914],[73.4,15000],[36.8,15083],[17.3,15166],[9,15252],[6,15333],[4.6,15417],[3.5,15498],[3.1,15583],[2.9,15664],[2.9,15747],[2.9,15831],[2.9,15914],[3,15997],[3,16081],[3,16164],[3,16247],[3.6,16333],[5.5,16417],[6.1,16500],[7,16583],[8.4,16667],[9.6,16751],[11.8,16835],[16,16917],[18.3,17000],[20.6,17083],[24.8,17167],[27,17250],[28.3,17333],[30.1,17414],[37.6,17500],[52.1,17583],[63,17666],[69,17750],[73.3,17833],[76.8,17916],[79.6,18000],[82.9,18083],[84.3,18167],[84.3,18250],[84.5,18331],[85.6,18417],[88.3,18500],[88.3,18581],[89,18666],[90.6,18750],[91.3,18833],[92.3,18917],[92.9,18999],[93.5,19083],[93.5,19164],[93.8,19250],[94,19333],[94,19414],[94,19497],[94,19581],[94,19664],[93,19750],[84.6,19833],[62.1,19916],[25.6,20000],[12.6,20083],[8.3,20167],[8,20251],[12.4,20333],[44,20417],[76.9,20500],[86.5,20583],[93.8,20666],[96.1,20747],[96.1,20831],[96.1,20916],[96.1,20997],[96.1,21081],[96.1,21164],[96.1,21248],[96.1,21331],[96.1,21416],[96.1,21497],[96.1,21581],[96.1,21664],[96.1,21747],[96.1,21831],[96.1,21914],[96.1,21997],[96.1,22081],[96.1,22164],[96.1,22251],[96.1,22331],[96.1,22414],[96.1,22497],[96.1,22581],[96.1,22666],[96.1,22747],[96.1,22831],[96.1,22914],[96.1,22997],[96.1,23081],[96.1,23166],[96.1,23247],[96.1,23331],[96.1,23414],[96.1,23497],[96.1,23581],[96.1,23666],[96.1,23747],[96.1,23831],[96.1,23914],[96.1,23998],[96.1,24085],[96.1,24164],[96.1,24252],[96.1,24335],[96.1,24414],[96.1,24501],[96.1,24581],[96.1,24664],[96.1,24747],[96.1,24831],[96.1,24914],[96.1,24997],[96.1,25081],[96.1,25164],[96.1,25247],[96.1,25331],[96.1,25418],[96.1,25497],[96.1,25581],[96.1,25664],[96.1,25747],[96.1,25831],[96.1,25914],[96.1,25998],[96.1,26081],[96.1,26164],[96.1,26248],[96.1,26331],[96.1,26418],[96.1,26498],[96.1,26581],[96.1,26664],[96.1,26747],[96.1,26831],[96.1,26914],[96.1,26997],[96.1,27081],[96.1,27164],[96.1,27248],[96.1,27331],[96.1,27414],[96.1,27498],[96.1,27581],[96.1,27664],[96.1,27751],[96.1,27831],[96.1,27914],[96.1,27997],[96.1,28081],[96.1,28167],[96.1,28248],[96.1,28331],[96.1,28414],[96.1,28497]]",1,0,750.8245,754.4917,91.125,1.4529,"[{""rating"":91.125,""responseTime"":1.4528999999761254}]",space,3.1281,,754.4918,Partially,50,754.4935,,,[],,0,2,2,2,1,audio/Narrative7Situation2.wav,audio/Narrative8Situation2.wav,audio/Narrative5Situation2.wav,audio/Narrative6Situation2.wav,3,3,3,3,,,,,,,,,,,,,,,,,,,,,,,,,,,,,,,,,,,,,,,
,,,,,,65837158eeba09ad03e97f7d,2024-02-08_15h04.02.073,group3.1-3.2-social-tom,2023.2.2,Win32,59.88023952,65c5074098b851296ff0b7ed,65c5419327dceff9fd360b96,,,,,,,,,,,,,,,,,,,,,,,,,,,,,754.4935,2,audio/Narrative6Situation3.wav,759.5075,,759.5075,772.1077,"[[999,5],[999,83],[999,166],[999,249],[999,333],[999,416],[999,500],[999,586],[999,669],[999,752],[49.8,1086],[49.8,1166],[49.8,1250],[49.8,1336],[49.8,1416],[47.9,1502],[42.4,1585],[38.4,1669],[34.9,1752],[34.4,1833],[44.1,1919],[60.3,2002],[64,2085],[65,2169],[68.3,2252],[68.8,2333],[68.8,2416],[60.9,2502],[37.1,2585],[23.8,2671],[17.4,2752],[12.5,2837],[8.8,2919],[6.1,3002],[3.6,3085],[3.3,3166],[3,3252],[3,3333],[3,3416],[3,3499],[3,3583],[3,3666],[3,3750],[3,3833],[2.6,3919],[2.6,3999],[2.6,4083],[2.6,4166],[2.6,4253],[2.6,4335],[2.6,4416],[2.6,4500],[2.6,4583],[2.6,4666],[2.6,4750],[2.6,4833],[2.6,4916],[2.6,4999],[2.6,5083],[2.6,5168],[2.6,5249],[2.6,5333],[2.6,5416],[2.6,5500],[2.6,5583],[2.6,5666],[2.6,5750],[2.6,5833],[2.6,5920],[2.6,6001],[2.6,6083],[2.6,6166],[2.6,6250],[5.4,6341],[41.9,6419],[70.4,6502],[79.5,6585],[89.6,6669],[95.9,6752],[98.9,6836],[100,6916],[100,7000],[100,7087],[100,7166],[100,7249],[100,7333],[100,7416],[100,7500],[100,7583],[100,7668],[100,7750],[100,7833],[100,7916],[100,8000],[100,8085],[100,8166],[100,8249],[100,8333],[100,8416],[100,8499],[100,8583],[100,8666],[100,8750],[100,8833],[100,8916],[100,9000],[100,9083],[100,9166],[100,9250],[100,9335],[100,9418],[100,9499],[100,9583],[100,9666],[100,9751],[100,9833],[100,9916],[100,9999],[100,10083],[100,10166],[100,10249],[100,10333],[100,10416],[100,10500],[100,10583],[100,10666],[100,10750],[100,10833],[100,10916],[99.8,11000],[99.8,11083],[99.5,11166],[99.4,11250],[99.3,11333],[98.4,11419],[97.4,11503],[96.6,11585],[96.3,11666],[96.3,11750],[96.1,11835],[96.1,11916],[96.1,12000],[96.1,12085],[96.1,12166],[96.1,12250],[96.1,12333],[96.1,12416],[96.1,12500],[96.1,12583]]",1,0,772.1077,777.4098,49.75,2.8996,"[{""rating"":49.75,""responseTime"":2.899600000023838}]",space,4.7669,,777.4098,Partially,50,777.4106,,,[],,0,3,3,3,1,audio/Narrative7Situation3.wav,audio/Narrative8Situation3.wav,audio/Narrative5Situation3.wav,audio/Narrative6Situation3.wav,8,4,3,5,,,,,,,,,,,,,,,,,,,,,,,,,,,,,,,,,,,,,,,
,,,,,,65837158eeba09ad03e97f7d,2024-02-08_15h04.02.073,group3.1-3.2-social-tom,2023.2.2,Win32,59.88023952,65c5074098b851296ff0b7ed,65c5419327dceff9fd360b96,,,,,,,,,,,,,,,,,,,,,,,,,,,,,777.4108,2,audio/Narrative6Situation4.wav,779.4243,,779.4243,792.0577,"[[999,0],[999,83],[999,166],[999,249],[999,333],[999,416],[999,499],[999,583],[999,667],[999,750],[999,833],[999,916],[999,1000],[999,1083],[999,1166],[999,1249],[999,1333],[999,1416],[999,1499],[999,1583],[999,1666],[999,1749],[999,1833],[999,1916],[999,2002],[47.5,2085],[46.6,2169],[46.4,2252],[44.6,2335],[39.6,2419],[31.8,2502],[25.8,2585],[23.8,2668],[20.3,2752],[16.5,2835],[9.1,2918],[5.9,3002],[5.6,3085],[5.6,3170],[5.6,3249],[5.6,3333],[5.6,3416],[5.6,3499],[5.8,3585],[5.8,3666],[5.8,3749],[8.4,3835],[20.9,3919],[28.9,4003],[35,4085],[41.6,4169],[47.6,4252],[56.8,4335],[64.3,4419],[69,4502],[72.1,4585],[74.8,4669],[77.6,4752],[78,4833],[78,4916],[78,5000],[78.4,5085],[78.5,5166],[68.5,5252],[66,5333],[66,5416],[63.5,5502],[51.1,5585],[42.4,5668],[42.8,5750],[55.4,5835],[67.1,5918],[71,6002],[74.5,6087],[76.4,6170],[79.3,6252],[79.3,6333],[79.3,6416],[79.3,6502],[79.3,6583],[79.3,6668],[79.3,6749],[79.3,6833],[79.3,6918],[79.3,7000],[79.3,7085],[79.3,7166],[79.3,7251],[79.3,7333],[80,7418],[82.8,7504],[86.3,7587],[86.6,7666],[86.9,7749],[86.9,7833],[86.9,7916],[85.1,8002],[81.9,8086],[78.4,8169],[76,8252],[67.6,8335],[58.4,8418],[55.4,8502],[51.5,8585],[43.3,8668],[33.8,8752],[27.4,8835],[22.5,8918],[17.5,9000],[13,9087],[9.1,9169],[7.1,9252],[5.9,9335],[5.9,9416],[5.9,9499],[5.9,9583],[9.6,9669],[35.4,9752],[57,9835],[70,9919],[79.8,10002],[85.1,10086],[86.6,10169],[89.9,10252],[90.8,10333],[90.9,10416],[91,10500],[91,10583],[91,10666],[91,10750],[91,10833],[91,10916],[91,10999],[91.9,11086],[92,11166],[92.1,11251],[92.1,11333],[92.1,11416],[92.1,11499],[91.5,11583],[60.8,11668],[11,11837],[7.3,11920],[7.1,12000],[7.1,12083],[6.8,12169],[6.8,12249],[6.5,12333],[6.5,12418],[6.5,12501],[6.5,12583]]",1,0,792.0578,798.2932,17.125,4.0352,"[{""rating"":48.375,""responseTime"":2.3851999999881173},{""rating"":17.125,""responseTime"":4.0351999999880945}]",space,5.6871,,798.2933,Not at all,0,798.295,,,[],,0,4,4,4,1,audio/Narrative7Situation4.wav,audio/Narrative8Situation4.wav,audio/Narrative5Situation4.wav,audio/Narrative6Situation4.wav,3,3,1,2,,,,,,,,,,,,,,,,,,,,,,,,,,,,,,,,,,,,,,,
,,,,,,65837158eeba09ad03e97f7d,2024-02-08_15h04.02.073,group3.1-3.2-social-tom,2023.2.2,Win32,59.88023952,65c5074098b851296ff0b7ed,65c5419327dceff9fd360b96,,,,,,,,,,,,,,,,,,,,,,,,,,,,,798.2952,2,audio/Narrative6Situation5.wav,800.3098,,800.3098,808.291,"[[999,0],[35.8,83],[35.8,164],[35.8,250],[38.4,334],[48.6,667],[48.9,751],[49.1,831],[49.1,914],[49.1,997],[49.1,1081],[49.1,1164],[44.8,1251],[39.4,1333],[34.9,1416],[30.6,1500],[30.4,1581],[27,1667],[20.5,1752],[22,1833],[38.5,1917],[56,2000],[60.9,2083],[66.5,2167],[66.9,2250],[68.6,2333],[73.3,2416],[77.4,2500],[82.4,2583],[86.8,2667],[91.6,2752],[93.4,2833],[93.6,2916],[94,3000],[96.1,3083],[96.1,3164],[96.1,3247],[96.3,3331],[96.1,3416],[96.1,3500],[96.1,3581],[96.1,3664],[96.1,3747],[96.1,3831],[96.1,3914],[96.1,3997],[96.1,4081],[96.1,4164],[96.1,4247],[96.1,4331],[96.1,4414],[96.1,4497],[96.1,4581],[96.1,4664],[96.1,4747],[96.1,4831],[96.1,4914],[96.1,4997],[96.1,5081],[96.1,5164],[96.1,5247],[96.1,5331],[96.1,5414],[96.1,5497],[96.1,5581],[96.1,5664],[96.1,5747],[96.1,5831],[96.1,5914],[96.1,5997],[96.1,6083],[96.1,6164],[96.1,6247],[96.1,6331],[96.1,6414],[96.1,6497],[96.1,6581],[96.1,6664],[96.1,6747],[96.1,6831],[96.1,6914],[96.1,7001],[96.1,7081],[96.1,7164],[96.1,7251],[96.1,7331],[96.1,7414],[96.1,7497],[96.1,7581],[96.1,7664],[96.1,7747],[96.1,7831],[96.1,7914]]",1,0,808.2911,817.8578,80.375,7.4346,"[{""rating"":80.375,""responseTime"":7.43460000002392}]",space,9.036,,817.8578,Not at all,0,817.8588,,,[],,0,5,5,5,1,audio/Narrative7Situation5.wav,audio/Narrative8Situation5.wav,audio/Narrative5Situation5.wav,audio/Narrative6Situation5.wav,5,2,5,2,,,,,,,,,,,,,,,,,,,,,,,,,,,,,,,,,,,,,,,
,,,,,,65837158eeba09ad03e97f7d,2024-02-08_15h04.02.073,group3.1-3.2-social-tom,2023.2.2,Win32,59.88023952,65c5074098b851296ff0b7ed,65c5419327dceff9fd360b96,,,,,,,,,,,,,,,,,,,,,,,,,,,,,817.8589,2,audio/Narrative6Situation6.wav,819.8744,,819.8744,830.9432,"[[79.1,335],[66.5,419],[56.1,503],[53.6,583],[52.8,669],[47.6,752],[47.5,835],[47.5,916],[47.5,1000],[47.9,1087],[49.4,1169],[50.4,1252],[50.5,1333],[50.5,1416],[50.5,1500],[50.5,1583],[50.5,1666],[50.5,1749],[50.5,1835],[50.5,1916],[50.5,2004],[50.5,2085],[50.5,2166],[50.5,2252],[50.5,2333],[53.1,2418],[69.9,2504],[77.3,2585],[82.6,2668],[86.6,2752],[90.5,2835],[94.4,2918],[98.4,3002],[99.5,3083],[99.5,3166],[99.5,3250],[99.5,3333],[99.5,3416],[99.5,3502],[99.5,3586],[99.5,3666],[99.5,3750],[99.3,3835],[99.3,3916],[99.3,3999],[99.3,4085],[98.1,4169],[98,4250],[98,4333],[98,4416],[98,4500],[98,4583],[98,4666],[98,4749],[98,4833],[98,4921],[98,5000],[98,5083],[98,5166],[98,5250],[98,5333],[98,5416],[98,5499],[98,5583],[98,5666],[98,5749],[98,5833],[98,5916],[98,6000],[98,6083],[98,6166],[98,6252],[98,6333],[98,6416],[98,6500],[98,6583],[98,6666],[98,6750],[98,6833],[98,6916],[98,7000],[98,7083],[98,7166],[98,7250],[98,7333],[98,7416],[98,7500],[98,7583],[98,7668],[98,7750],[98,7837],[98,7916],[98,8000],[98,8083],[98,8166],[98,8249],[98,8333],[98,8416],[98,8499],[98,8584],[98,8666],[98,8749],[98,8835],[98,8917],[98,9000],[98,9083],[98,9166],[98,9250],[98,9333],[98,9416],[98,9500],[98,9583],[98,9666],[98,9750],[98,9833],[98,9916],[98,10000],[98,10083],[98,10168],[98,10250],[98,10333],[98,10416],[98,10500],[98,10583],[98,10666],[98,10750],[98,10833],[98,10918],[98,11001]]",1,0,830.9433,834.5579,95.75,2.4956,"[{""rating"":95.75,""responseTime"":2.495600000023842}]",space,3.0801,,834.5579,Partially,50,834.5593,,,[],,0,6,6,6,1,audio/Narrative7Situation6.wav,audio/Narrative8Situation6.wav,audio/Narrative5Situation6.wav,audio/Narrative6Situation6.wav,3,2,3,2,,,,,,,,,,,,,,,,,,,,,,,,,,,,,,,,,,,,,,,
,,,,,,65837158eeba09ad03e97f7d,2024-02-08_15h04.02.073,group3.1-3.2-social-tom,2023.2.2,Win32,59.88023952,65c5074098b851296ff0b7ed,65c5419327dceff9fd360b96,,,,,,,,,,,,,,,,,,,,,,,,,,,,,834.5594,2,audio/Narrative6Situation7.wav,839.5747,,839.5748,864.4435,"[[47.3,85],[47.9,166],[47.9,249],[47.9,332],[49,418],[50,501],[50.3,583],[50.3,668],[50.3,749],[50.3,832],[49.8,916],[49.8,999],[49.8,1082],[49.8,1166],[50.5,1252],[51.5,1335],[51.5,1416],[48.3,1500],[42,1585],[35.1,1668],[30.1,1752],[26.6,1835],[21.5,1918],[17.8,2003],[14.4,2085],[11.9,2168],[9.4,2252],[7.3,2335],[4.4,2418],[2.9,2502],[2.6,2582],[2.6,2669],[2.6,2749],[2.6,2832],[2.6,2916],[2.6,3000],[2.6,3082],[2.6,3168],[2.6,3249],[2.6,3334],[2.6,3416],[2.6,3499],[2.6,3585],[2.6,3666],[2.6,3749],[2.6,3832],[2.6,3916],[2.6,4001],[2.6,4086],[2.6,4168],[2.6,4249],[2.6,4332],[2.6,4416],[2.6,4502],[2.6,4585],[2.6,4666],[2.6,4749],[2.6,4833],[2.6,4917],[2.6,4999],[2.6,5082],[2.6,5166],[2.6,5249],[2.6,5332],[2.6,5416],[2.6,5499],[2.6,5582],[2.6,5666],[2.6,5749],[2.6,5832],[2.6,5916],[2.6,6003],[2.6,6085],[2.6,6166],[2.6,6249],[2.6,6332],[2.6,6416],[2.6,6499],[16.6,6585],[48.8,6668],[66.1,6752],[76,6835],[84.4,6918],[90.8,7004],[93.8,7085],[96.5,7168],[97.6,7249],[97.9,7333],[98.1,7416],[98.1,7501],[98.1,7582],[98.1,7666],[98.1,7749],[98.1,7832],[98.4,7919],[98.4,7999],[98.1,8085],[98.1,8166],[98.1,8249],[98.1,8333],[98.4,8416],[98.4,8499],[98.4,8582],[98.4,8666],[98.4,8749],[98.4,8832],[98.4,8916],[98.4,9002],[98.4,9082],[98.4,9166],[98.4,9249],[98.4,9332],[98.4,9416],[98.4,9499],[98.4,9582],[98.4,9666],[98.4,9749],[98.4,9832],[98.4,9916],[98.4,9999],[98.4,10082],[98.4,10166],[98.4,10249],[98.4,10332],[98.4,10418],[98.4,10499],[98.4,10582],[98.4,10666],[98.4,10749],[98.4,10832],[98.4,10916],[98.4,10999],[98.4,11082],[98.4,11168],[98.4,11249],[98.4,11333],[98.4,11416],[98.4,11499],[98.4,11582],[98.4,11666],[98.4,11749],[98.4,11832],[98.4,11916],[98.4,12002],[98.4,12082],[98.4,12166],[98.4,12249],[98.4,12332],[98.4,12416],[98.4,12500],[98.4,12583],[98.4,12666],[98.4,12749],[98.4,12832],[98.4,12916],[98.4,12999],[98.4,13083],[98.4,13168],[98.4,13249],[98.4,13332],[98.4,13416],[98.4,13499],[98.4,13582],[98.4,13666],[98.4,13751],[98.4,13833],[98.4,13916],[98.4,14002],[98.4,14082],[98.4,14166],[98.4,14253],[98.4,14332],[98.4,14418],[98.4,14499],[98.4,14583],[98.4,14666],[98.4,14749],[98.4,14832],[98.4,14916],[98.4,14999],[98.4,15082],[98.4,15166],[98.4,15249],[98.4,15332],[98.4,15416],[98.4,15499],[98.4,15583],[98.4,15666],[98.4,15749],[98.4,15832],[98.4,15916],[98.4,15999],[98.4,16083],[98.4,16166],[98.4,16249],[98.4,16332],[98.4,16416],[98.4,16499],[98.4,16582],[98.4,16666],[98.4,16751],[98.4,16833],[98.4,16916],[98.4,16999],[98.4,17083],[98.4,17166],[98.4,17249],[98.4,17332],[98.4,17416],[98.4,17499],[98.4,17582],[98.4,17666],[98.4,17749],[89.9,17835],[74.8,17918],[63.9,18002],[61.5,18085],[57.3,18168],[52.6,18252],[51,18335],[50.5,18416],[50.5,18499],[50.5,18586],[57.6,18670],[86.6,18752],[99.1,18835],[99.6,18916],[100,18999],[100,19083],[100,19166],[100,19249],[100,19333],[100,19416],[100,19499],[100,19582],[100,19666],[100,19749],[100,19833],[100,19916],[100,20002],[100,20083],[100,20166],[100,20249],[100,20333],[100,20416],[100,20499],[100,20583],[100,20666],[100,20749],[100,20833],[100,20916],[100,20999],[100,21083],[100,21166],[100,21249],[100,21332],[100,21416],[100,21499],[100,21582],[100,21668],[100,21749],[100,21832],[100,21916],[100,21999],[100,22083],[100,22166],[100,22249],[100,22333],[100,22416],[100,22501],[100,22584],[100,22666],[100,22749],[100,22835],[100,22916],[100,22999],[100,23082],[100,23166],[100,23249],[100,23332],[100,23416],[100,23499],[100,23583],[100,23666],[100,23749],[100,23833],[100,23916],[100,23999],[100,24082],[100,24166],[100,24249],[100,24332],[100,24416],[100,24499],[100,24582],[100,24666],[100,24749],[100,24832]]",1,0,864.4436,871.858,95.5,1.3776,"[{""rating"":95.5,""responseTime"":1.3775999999642181}]",space,6.8745,,871.858,Partially,50,871.8645,,,[],,0,7,7,7,1,audio/Narrative7Situation7.wav,audio/Narrative8Situation7.wav,audio/Narrative5Situation7.wav,audio/Narrative6Situation7.wav,5,3,4,5,,,,,,,,,,,,,,,,,,,,,,,,,,,,,,,,,,,,,,,
,,,,,,65837158eeba09ad03e97f7d,2024-02-08_15h04.02.073,group3.1-3.2-social-tom,2023.2.2,Win32,59.88023952,65c5074098b851296ff0b7ed,65c5419327dceff9fd360b96,,,,,,,,,,,,,,,,,,,,,,,,,,,,,871.8646,2,audio/Narrative6Situation8.wav,876.8747,,876.8747,883.7415,"[[999,5],[999,83],[999,166],[999,249],[999,333],[999,416],[999,503],[49.8,588],[49.9,668],[49.3,752],[49.1,833],[49.1,916],[50.1,1002],[50.1,1083],[50.1,1166],[50.1,1249],[50.1,1333],[50.1,1416],[50.1,1499],[50.1,1583],[50.1,1666],[50.1,1749],[49.5,1833],[45.6,1918],[39.8,2002],[31.4,2087],[23.4,2171],[16.9,2252],[9.5,2335],[5.4,2419],[3.5,2502],[2,2585],[2,2666],[2,2749],[2,2833],[2,2916],[2,2999],[2,3083],[2,3170],[2,3249],[2,3333],[2,3416],[2,3500],[2,3583],[2,3666],[2,3750],[2,3833],[2,3916],[2,3999],[2,4083],[2,4166],[2,4249],[2,4333],[2,4416],[2,4499],[2,4583],[2,4666],[2,4749],[2,4833],[2,4916],[2,4999],[2,5083],[2,5166],[2,5249],[2,5333],[2,5416],[2,5499],[2,5583],[2,5666],[0.9,5752],[0.9,5833],[0.9,5920],[0.9,5999],[0.9,6083],[0.5,6170],[0.5,6249],[0.5,6333],[0.5,6416],[0.5,6500],[0.5,6583],[0.5,6666],[0.5,6750],[0.5,6833]]",1,0,883.7415,887.0747,0,1.1716,"[{""rating"":0,""responseTime"":1.1716000000237727}]",space,2.7845,,887.0747,Not at all,0,887.0764,,,[],,0,8,8,8,1,audio/Narrative7Situation8.wav,audio/Narrative8Situation8.wav,audio/Narrative5Situation8.wav,audio/Narrative6Situation8.wav,2,3,3,5,,,,,,,,,,,,,,,,,,,,,,,,,,,,,,,,,,,,,,,
,,,,,,65837158eeba09ad03e97f7d,2024-02-08_15h04.02.073,group3.1-3.2-social-tom,2023.2.2,Win32,59.88023952,65c5074098b851296ff0b7ed,65c5419327dceff9fd360b96,,,,,,,,,,,,,,,,,,,,,,,,,,,,,887.0765,2,audio/Narrative6Situation9.wav,891.0793,,891.0793,901.0414,"[[47.6,83],[48.6,166],[48.6,245],[48.6,328],[49,415],[49,495],[49,578],[49,666],[48.5,749],[48.5,828],[48.5,912],[48.5,995],[48.5,1082],[47.4,1166],[36.8,1249],[26,1332],[19.3,1416],[14.4,1495],[8.5,1583],[5.8,1666],[2.5,1749],[1,1833]]",1,0,901.0415,903.5102,0,1.274,"[{""rating"":0,""responseTime"":1.274000000000001}]",space,1.902,,903.5102,Definitely yes,100,903.5121,,,[],,0,9,9,9,1,audio/Narrative7Situation9.wav,audio/Narrative8Situation9.wav,audio/Narrative5Situation9.wav,audio/Narrative6Situation9.wav,2,3,3,4,,,,,,,,,,,,,,,,,,,,,,,,,,,,,,,,,,,,,,,
,,,,,,65837158eeba09ad03e97f7d,2024-02-08_15h04.02.073,group3.1-3.2-social-tom,2023.2.2,Win32,59.88023952,65c5074098b851296ff0b7ed,65c5419327dceff9fd360b96,,,,,,,,,,,,,,,,,,,,,,,,,,,,,903.5122,2,audio/Narrative5Situation1.wav,908.5248,,908.5248,921.8249,"[[47,586],[49,670],[49.3,753],[49.5,837],[49.5,916],[49.5,999],[49.5,1083],[49.5,1166],[44.9,1253],[37,1337],[32.4,1420],[31.4,1504],[31.4,1583],[31.4,1666],[31.4,1749],[31.4,1833],[31.4,1920],[29.3,2003],[21.6,2087],[15,2170],[11.1,2254],[7.5,2337],[5.5,2420],[3.1,2503],[2.6,2587],[2.6,2666],[2.6,2750],[2.6,2833],[2.6,2916],[2.6,3000],[2.6,3083],[2.6,3166],[2.8,3250],[2.8,3336],[2.8,3416],[2.8,3500],[2.8,3583],[2.8,3670],[2.8,3754],[2.8,3833],[2.8,3916],[2.8,4000],[2.8,4083],[2.8,4166],[2.8,4250],[2.8,4337],[2.8,4419],[2.8,4500],[2.8,4583],[2.8,4666],[2.8,4750],[2.8,4833],[2.8,4916],[2.8,5000],[2.8,5085],[2.8,5166],[2.8,5250],[2.8,5333],[2.8,5416],[2.8,5499],[2.8,5583],[2.8,5666],[2.8,5750],[2.8,5833],[2.8,5916],[2.8,6003],[2.8,6083],[2.8,6171],[2.8,6253],[2.8,6336],[2.8,6418],[2.9,6500],[2.9,6583],[2.9,6666],[2.9,6750],[2.9,6833],[2.9,6920],[2.9,6999],[2.9,7083],[2.9,7166],[2.9,7250],[2.9,7333],[2.9,7416],[2.9,7500],[2.9,7583],[2.9,7666],[2.9,7751],[2.9,7833],[2.9,7916],[2.9,8004],[2.9,8083],[2.9,8166],[2.9,8249],[2.9,8333],[2.9,8416],[2.9,8500],[2.9,8583],[2.9,8666],[2.9,8749],[2.9,8833],[2.9,8916],[2.9,8999],[2.9,9083],[2.9,9166],[2.9,9250],[2.9,9333],[2.9,9416],[2.9,9500],[2.9,9583],[2.9,9666],[4,9759],[10.6,9837],[23.4,9920],[33,10004],[37.5,10087],[42,10171],[48.4,10254],[58.4,10337],[66.1,10420],[71.6,10504],[76.3,10587],[79.3,10670],[81,10754],[81.9,10837],[82.8,10920],[83.8,11004],[85.1,11087],[85.6,11170],[85.6,11250],[85.8,11337],[85.8,11416],[85.8,11503],[85.8,11587],[85.8,11666],[85.8,11749],[85.8,11833],[85.8,11916],[86.8,12003],[87.4,12083],[88.3,12170],[89.4,12253],[90.4,12337],[90.6,12416],[90.6,12500],[90.6,12583],[90.6,12666],[90.6,12750],[90.6,12833],[90.6,12916],[90.6,13000],[90.6,13083],[90.6,13166],[90.6,13249]]",1,0,921.825,929.0915,22.5,1.6197,"[{""rating"":22.499999999999996,""responseTime"":1.6196999999881427}]",space,6.7194,,929.0916,Definitely yes,100,929.0981,,,[],,0,10,10,10,1,audio/Narrative8Situation1.wav,audio/Narrative7Situation1.wav,audio/Narrative6Situation1.wav,audio/Narrative5Situation1.wav,5,2,2,5,,,,,,,,,,,,,,,,,,,,,,,,,,,,,,,,,,,,,,,
,,,,,,65837158eeba09ad03e97f7d,2024-02-08_15h04.02.073,group3.1-3.2-social-tom,2023.2.2,Win32,59.88023952,65c5074098b851296ff0b7ed,65c5419327dceff9fd360b96,,,,,,,,,,,,,,,,,,,,,,,,,,,,,929.0982,2,audio/Narrative5Situation2.wav,932.1083,,932.1083,961.5782,"[[999,5],[999,83],[999,166],[999,249],[999,333],[999,416],[999,503],[999,583],[999,666],[999,749],[999,833],[999,916],[999,999],[999,1083],[999,1166],[999,1252],[999,1335],[999,1418],[999,1502],[46.8,1585],[47.6,1670],[48,1749],[48,1833],[48,1916],[48.1,2000],[49.8,2085],[50.3,2168],[50.3,2251],[50.1,2333],[49.9,2418],[49.8,2499],[49.6,2583],[39.5,2668],[20.6,2919],[14.4,3166],[11.5,3252],[9.5,3335],[9.4,3416],[9.4,3499],[9.4,3583],[9,3666],[9,3749],[9,3833],[9,3916],[9.1,3999],[9.1,4083],[9.1,4166],[9.1,4249],[9.1,4333],[9.1,4416],[9.1,4503],[9.1,4583],[9.1,4666],[9.1,4749],[9.1,4833],[9.1,4916],[9.1,4999],[9.1,5083],[9.1,5166],[9.1,5249],[9.1,5333],[9.1,5416],[9.1,5499],[9.1,5583],[9.1,5666],[9.1,5750],[9.1,5833],[9.1,5916],[9.1,5999],[9.3,6083],[10,6166],[10,6249],[10,6333],[10,6416],[10,6500],[10,6585],[10,6666],[10,6749],[10,6836],[10,6916],[10,7000],[10,7083],[10,7166],[10,7249],[10,7333],[10,7416],[10,7499],[10,7583],[10,7668],[10,7749],[10,7833],[12.6,7920],[15.8,8002],[21.6,8085],[27.1,8168],[34,8252],[39.5,8335],[44.8,8419],[48.8,8502],[48.8,8582],[48.8,8666],[48.8,8749],[41.3,8835],[30.8,8920],[27.3,9002],[23.6,9085],[19.9,9169],[19.3,9250],[52.5,9335],[61.8,9419],[63.4,9500],[60.8,9585],[39.6,9668],[22,9752],[15.8,9835],[12.8,9919],[12.8,9999],[12.8,10083],[12.8,10166],[11.9,10251],[11.5,10337],[11.3,10420],[11.3,10499],[11.3,10583],[11.3,10666],[11.3,10749],[12.5,10837],[14.3,10916],[15.5,11002],[15.6,11083],[15.6,11166],[15.6,11250],[15.4,11333],[9.9,11419],[6.8,11502],[6.1,11583],[6.1,11666],[6.1,11749],[6.1,11833],[6.1,11918],[6.1,11999],[6.1,12083],[12.8,12169],[13.9,12250],[19.6,12335],[34.5,12418],[48,12502],[55.4,12585],[64.5,12669],[70.8,12752],[72.3,12835],[72.9,12918],[73.3,13000],[73.9,13085],[75.1,13169],[78,13253],[80.8,13338],[81.1,13416],[81.1,13499],[81.1,13583],[79.3,13668],[7.5,14252],[9.8,14335],[10.5,14416],[10.9,14500],[10.9,14583],[10.8,14670],[11.8,14754],[16.5,14836],[20.3,14919],[22.2,15002],[22.2,15083],[22.2,15166],[22.9,15250],[24.9,15335],[24.9,15416],[22.9,15502],[16.9,15589],[12.8,15669],[9,15752],[6.3,15835],[5,15919],[4.3,16002],[4,16085],[4,16166],[4,16249],[4,16333],[4,16416],[4,16500],[4,16585],[4,16668],[5,16752],[5,16835],[5,16916],[5,16999],[5,17083],[5,17166],[5,17249],[5,17333],[5,17418],[5,17499],[5,17587],[5,17666],[5,17752],[5,17837],[5,17920],[5,17999],[5,18085],[5,18166],[5,18249],[4.9,18333],[7.8,18919],[12.3,19002],[12.8,19083],[12.6,19167],[12.5,19249],[12.5,19335],[11,19419],[18.1,19502],[20,19585],[22,19669],[25.8,19752],[31.5,19836],[34.9,19918],[34.9,19999],[34.9,20083],[34.9,20168],[34.9,20249],[34.9,20333],[34.9,20416],[35.6,20503],[37.5,20583],[37.5,20666],[37.5,20752],[37.5,20833],[36.9,20919],[33.8,21002],[33.4,21085],[31.5,21169],[31.4,21250],[27.4,21336],[18.8,21419],[15.9,21502],[13.9,21586],[10.4,21669],[7.6,21752],[6.1,21835],[5.1,21919],[4.4,22003],[4.1,22086],[4,22168],[4,22250],[4,22333],[4.1,22416],[14.3,22502],[29.4,22585],[43.4,22669],[56.8,22752],[70.1,22835],[82.9,22920],[90.6,23002],[99.1,23085],[99.1,23166],[99.4,23249],[99.4,23333],[99.4,23416],[99.4,23500],[99.4,23583],[99.4,23666],[99.4,23749],[99.4,23837],[99.4,23916],[99.4,24000],[99.4,24083],[99.4,24166],[99.4,24250],[99.4,24333],[99.4,24416],[99.4,24500],[99.4,24583],[99.4,24666],[99.4,24749],[99.4,24836],[99.4,24916],[99.3,25002],[98.3,25085],[97.9,25169],[98.4,25252],[98.4,25333],[98.4,25416],[98.4,25500],[98.4,25583],[97.4,25669],[94.8,25753],[84.5,25836],[70.1,25919],[53.5,26002],[43.9,26086],[32.6,26169],[24,26252],[19,26337],[16,26419],[12.4,26502],[8.9,26585],[6.9,26669],[4.9,26752],[3.5,26837],[3.5,26916],[2.5,27002],[2.5,27083],[2.5,27166],[2.5,27249],[2.3,27333],[2.3,27416],[2.3,27500],[2.3,27583],[2.3,27666],[2.3,27750],[2.3,27837],[2.3,27916],[2.3,28000],[2.3,28083],[2.3,28166],[2.3,28252],[2.3,28333],[2.3,28416],[2.3,28501],[2.3,28583],[2.3,28666],[2.3,28750],[2.3,28836],[2.3,28916],[2.3,29000],[2.3,29085],[2.3,29166],[2.3,29250],[2.3,29335],[2.3,29416]]",1,0,961.5783,964.2623,4.75,1.2251,"[{""rating"":4.749999999999998,""responseTime"":1.2251000000238719}]",space,2.1214,,964.2623,Not at all,0,964.2642,,,[],,0,11,11,11,1,audio/Narrative8Situation2.wav,audio/Narrative7Situation2.wav,audio/Narrative6Situation2.wav,audio/Narrative5Situation2.wav,3,3,3,3,,,,,,,,,,,,,,,,,,,,,,,,,,,,,,,,,,,,,,,
,,,,,,65837158eeba09ad03e97f7d,2024-02-08_15h04.02.073,group3.1-3.2-social-tom,2023.2.2,Win32,59.88023952,65c5074098b851296ff0b7ed,65c5419327dceff9fd360b96,,,,,,,,,,,,,,,,,,,,,,,,,,,,,964.2643,2,audio/Narrative5Situation3.wav,967.275,,967.275,981.1771,"[[31.1,2002],[40.6,2085],[44.8,2169],[46.6,2252],[47.4,2333],[47.4,2418],[41.9,2502],[28.6,2586],[21.1,2669],[18,2754],[18,2837],[39.5,2919],[59.3,3002],[62.4,3086],[68.9,3169],[74.6,3253],[82,3336],[86.4,3419],[90.5,3502],[93.4,3586],[94.8,3670],[95.8,3753],[96.9,3833],[96.9,3917],[96.9,4000],[96.9,4083],[96.6,4168],[96.6,4253],[96.6,4333],[96.6,4416],[96.6,4500],[96.6,4585],[96.6,4666],[96.6,4750],[96.6,4833],[96.6,4916],[96.6,4999],[96.6,5083],[96.6,5166],[96.6,5250],[96.6,5335],[96.6,5416],[96.6,5501],[96.6,5583],[96.6,5670],[96.6,5750],[96.6,5833],[96.6,5918],[96.6,6000],[96.6,6083],[96.6,6166],[96.6,6249],[96.6,6333],[96.6,6416],[96.6,6500],[96.6,6583],[96.6,6669],[96.6,6750],[96.6,6835],[96.6,6916],[96.6,7002],[96.6,7085],[96.6,7170],[96.6,7253],[96.6,7333],[96.6,7418],[96.6,7502],[96.6,7583],[96.6,7668],[96.6,7750],[96.6,7835],[96.6,7916],[96.6,8002],[96.6,8083],[96.6,8168],[96.6,8251],[96.6,8335],[96.6,8416],[96.6,8500],[96.6,8587],[96.6,8670],[96.6,8752],[96.6,8835],[96.6,8916],[96.6,9000],[96.6,9085],[96.6,9166],[96.6,9252],[96.6,9335],[96.6,9416],[96.6,9502],[96.6,9585],[96.6,9668],[96.6,9750],[96.6,9833],[96.6,9918],[96.6,10000],[96.6,10083],[96.6,10167],[96.6,10250],[96.6,10335],[96.6,10416],[96.6,10500],[96.6,10584],[96.6,10666],[96.6,10750],[96.6,10833],[96.6,10916],[96.6,11000],[96.6,11083],[96.6,11167],[96.6,11252],[96.6,11335],[96.6,11416],[96.6,11503],[96.6,11587],[96.6,11668],[96.6,11750],[96.6,11833],[96.6,11917],[96.6,12002],[96.6,12085],[96.6,12166],[96.6,12252],[96.6,12335],[96.6,12416],[96.6,12500],[96.6,12585],[96.6,12667],[96.6,12752],[96.6,12835],[96.6,12916],[96.6,13003],[96.6,13085],[96.6,13166],[96.6,13250],[96.6,13333],[96.6,13416],[96.6,13500],[96.6,13585],[96.6,13666],[96.6,13750],[96.6,13833]]",1,0,981.1771,984.2103,99.75,1.2937,"[{""rating"":99.75,""responseTime"":1.2936999999880072}]",space,2.4922,,984.2103,Not at all,0,1002.9918,0,12.377,"[{""rating"":0,""responseTime"":5.083600000023807},{""rating"":0,""responseTime"":6.268300000011891},{""rating"":0,""responseTime"":6.638800000011884},{""rating"":0,""responseTime"":7.431199999988053},{""rating"":6.624999999999997,""responseTime"":8.133399999976177},{""rating"":0,""responseTime"":12.376999999999953}]",space,0,12,12,12,1,audio/Narrative8Situation3.wav,audio/Narrative7Situation3.wav,audio/Narrative6Situation3.wav,audio/Narrative5Situation3.wav,4,8,5,3,,,18.2364,,,,,,,,,,,,,,,,,,,,,,,,,,,,,,,,,,,,
,,,,,,65837158eeba09ad03e97f7d,2024-02-08_15h04.02.073,group3.1-3.2-social-tom,2023.2.2,Win32,59.88023952,65c5074098b851296ff0b7ed,65c5419327dceff9fd360b96,,,,,,,,,,,,,,,,,,,,,,,,,,,,,1002.9977,2,audio/Narrative5Situation4.wav,1004.0085,,1004.0085,1024.3921,"[[999,0],[999,83],[999,166],[999,252],[999,335],[999,418],[999,502],[999,585],[999,668],[999,750],[999,833],[999,919],[999,1004],[49.8,1085],[49.6,1166],[49.6,1250],[49.8,1333],[49.8,1416],[49.8,1502],[49.8,1586],[49.8,1668],[49.1,1752],[48.5,1835],[47.3,1919],[47.3,2001],[47.3,2083],[47.3,2166],[43.4,2252],[31,2336],[25.4,2420],[20.8,2502],[17.1,2585],[13.8,2669],[9.4,2752],[8.8,2833],[8.4,2918],[5.8,3002],[5.8,3083],[5.8,3166],[5.8,3250],[6.5,3333],[13.3,3419],[13.6,3500],[13.6,3586],[13.6,3666],[15.9,3752],[19.5,3837],[19.5,3916],[16,4002],[10.8,4086],[9.8,4169],[9.8,4250],[10.5,4335],[11.6,4418],[11.6,4500],[9,4585],[5.3,4668],[3.3,4752],[3.3,4833],[3.3,4916],[3.3,5001],[3.3,5085],[3.3,5166],[3.3,5249],[3.3,5333],[3.3,5416],[3.3,5500],[3.4,5586],[3.5,5666],[3.5,5750],[3.5,5833],[3.5,5916],[3.5,6000],[3.5,6083],[3.5,6166],[3.5,6252],[3.5,6333],[3.5,6416],[3.5,6500],[3.5,6583],[3.5,6666],[3.5,6750],[3.5,6833],[3.5,6916],[3.5,7000],[3.5,7083],[3.5,7166],[3.5,7250],[3.5,7333],[3.5,7416],[3.5,7500],[3.5,7585],[3.5,7666],[3.5,7750],[3.5,7833],[3.5,7918],[3.5,8000],[3.5,8083],[3.5,8166],[3.5,8250],[3.5,8333],[3.5,8416],[3.5,8500],[3.5,8583],[3.5,8668],[3.5,8750],[3.5,8833],[3.5,8916],[3.5,8999],[3.5,9083],[3.5,9166],[3.5,9249],[3.5,9333],[3.5,9416],[3.5,9499],[9,9585],[46.3,9670],[76.1,9752],[86.4,9835],[90.5,9919],[91.4,10002],[93,10085],[94.1,10169],[94.8,10252],[94.8,10333],[94.8,10416],[94.8,10502],[94.8,10585],[94.5,10668],[94.3,10750],[94.3,10833],[92.9,10918],[90.3,11002],[83.8,11086],[80.5,11170],[80.5,11250],[80.5,11333],[80.5,11416],[80.5,11499],[86.8,11586],[94.3,11669],[96.8,11752],[97.4,11835],[97.4,11918],[97.4,12000],[97.4,12083],[97.4,12166],[97.4,12250],[97.4,12333],[97.4,12416],[97.4,12500],[97.4,12587],[97.4,12668],[97.4,12750],[97.4,12833],[97.4,12918],[97.4,13000],[97.4,13083],[97.4,13166],[97.4,13250],[97.4,13335],[97.4,13416],[97.4,13500],[97.4,13583],[97.4,13666],[97.4,13750],[97.4,13833],[97.4,13919],[97.4,14002],[97.4,14086],[97.4,14166],[97.4,14250],[97.4,14333],[97.4,14416],[97.4,14499],[97.4,14583],[97.4,14666],[97.4,14750],[97.4,14833],[97.4,14916],[97.4,15000],[97.4,15083],[97.4,15166],[97.4,15250],[97.4,15333],[97.4,15416],[97.4,15500],[97.4,15584],[97.4,15666],[97.4,15750],[97.4,15833],[97.4,15916],[97.4,16000],[94.9,16085],[88.9,16169],[81,16252],[72.3,16335],[64.4,16419],[58.1,16502],[53.4,16586],[49.8,16669],[48.3,16752],[48.3,16833],[48.3,16916],[49.9,17004],[64.4,17085],[79.8,17169],[87,17252],[91.4,17335],[94.4,17419],[96.9,17502],[97.5,17585],[97.5,17666],[97.5,17751],[97.5,17833],[97.5,17916],[97.5,18000],[97.5,18083],[98.4,18169],[100,18254],[100,18336],[100,18421],[100,18500],[100,18583],[100,18666],[100,18752],[100,18833],[100,18917],[100,19002],[100,19083],[100,19166],[100,19251],[100,19333],[100,19418],[100,19502],[100,19583],[100,19666],[100,19750],[100,19833],[100,19918],[100,20000],[100,20083],[100,20166],[100,20250],[100,20333]]",1,0,1024.3921,1032.9754,69.25,2.5611,"[{""rating"":69.25,""responseTime"":2.5610999999644264}]",space,8.0348,,1032.9755,Not at all,0,1032.9818,,,[],,0,13,13,13,1,audio/Narrative8Situation4.wav,audio/Narrative7Situation4.wav,audio/Narrative6Situation4.wav,audio/Narrative5Situation4.wav,3,3,2,1,,,,,,,,,,,,,,,,,,,,,,,,,,,,,,,,,,,,,,,
,,,,,,65837158eeba09ad03e97f7d,2024-02-08_15h04.02.073,group3.1-3.2-social-tom,2023.2.2,Win32,59.88023952,65c5074098b851296ff0b7ed,65c5419327dceff9fd360b96,,,,,,,,,,,,,,,,,,,,,,,,,,,,,1032.9819,2,audio/Narrative5Situation5.wav,1037.9921,,1037.9921,1053.4254,"[[999,5],[999,83],[999,166],[999,249],[999,333],[999,420],[49.6,502],[49.6,587],[49.6,666],[49.6,749],[49.6,833],[49.6,916],[49.6,999],[49.6,1083],[49.6,1166],[49.6,1249],[49.6,1333],[50.3,1419],[50.3,1499],[50.3,1583],[50.5,1669],[50.5,1749],[50.5,1833],[50.5,1916],[50.5,1999],[47.1,2085],[34.8,2169],[23.8,2252],[13.8,2335],[4.8,2419],[1.9,2502],[1.8,2583],[1.8,2666],[1.8,2752],[1.8,2833],[1.8,2916],[1.8,2999],[1.8,3083],[1.8,3166],[1.8,3249],[1.8,3333],[1.8,3416],[1.8,3499],[1.8,3586],[1.8,3666],[1.8,3749],[1.8,3833],[1.8,3916],[1.8,3999],[1.8,4083],[1.8,4166],[1.8,4249],[1.8,4333],[1.8,4418],[1.8,4499],[1.8,4583],[1.8,4666],[1.8,4749],[1.8,4833],[1.8,4916],[1.8,5000],[1.8,5083],[1.8,5166],[1.8,5249],[1.8,5333],[1.8,5419],[1.8,5499],[1.8,5585],[1.8,5666],[1.8,5749],[1.8,5833],[1.8,5916],[1.8,5999],[18.6,6085],[70.5,6170],[100,6254],[100,6333],[100,6418],[100,6502],[99.1,6585],[98.1,6666],[98.1,6749],[98.1,6833],[98.1,6916],[98.1,6999],[98.1,7083],[98.1,7166],[98.1,7250],[98.1,7333],[98.1,7416],[98.1,7499],[94.6,7586],[94.1,7666],[94.1,7749],[93.9,7833],[90.5,7919],[88.5,8002],[88.4,8083],[87.9,8169],[87.9,8249],[83.4,8335],[78.1,8419],[75,8502],[72,8586],[65.1,8669],[59.6,8752],[54.6,8835],[49,8919],[43.1,9002],[41,9083],[56.4,9169],[86.6,9252],[91,9335],[91.1,9416],[91.1,9502],[91.3,9583],[93.8,9669],[97.1,9752],[97.1,9833],[97.1,9916],[97,10000],[97,10083],[97,10166],[97,10249],[95.5,10335],[89.1,10418],[83,10502],[76,10587],[72.5,10669],[72.3,10749],[71.8,10835],[72,10916],[71.9,11000],[62.3,11085],[49.6,11169],[37.6,11252],[28,11335],[24.3,11419],[23.9,11500],[18.8,11586],[13.5,11669],[11.5,11752],[7.4,11835],[5.3,11916],[5.3,12000],[5.3,12083],[5.3,12166],[21.5,12252],[67.8,12335],[86,12418],[95.4,12502],[100,12586],[100,12669],[100,12749],[100,12835],[100,12918],[100,12999],[100,13083],[100,13166],[100,13249],[100,13333],[100,13416],[100,13499],[100,13583],[100,13666],[100,13749],[100,13833],[100,13916],[100,13999],[100,14085],[100,14166],[100,14249],[100,14333],[100,14416],[100,14499],[100,14583],[100,14666],[100,14749],[100,14833],[100,14916],[100,14999],[100,15083],[100,15166],[100,15250],[100,15333],[100,15416]]",1,0,1053.4256,1059.3421,15.375,3.6277,"[{""rating"":15.375,""responseTime"":3.6276999999879536}]",space,5.371,,1059.3422,Not at all,0,1059.3433,,,[],,0,14,14,14,1,audio/Narrative8Situation5.wav,audio/Narrative7Situation5.wav,audio/Narrative6Situation5.wav,audio/Narrative5Situation5.wav,2,5,2,5,,,,,,,,,,,,,,,,,,,,,,,,,,,,,,,,,,,,,,,
