exp_question,consent.started,consent.stopped,consentResponse.keys,consentResponse.rt,consentResponse.duration,participantID,date,expName,psychopyVersion,OS,frameRate,STUDY_ID,SESSION_ID,opening1.started,opening1.stopped,keyEndingOpening1.keys,keyEndingOpening1.rt,keyEndingOpening1.duration,volumeAdjust.started,volumeAdjust.stopped,endingAdjust.keys,endingAdjust.rt,endingAdjust.duration,opening2.started,opening2.stopped,keyEndingOpening.keys,keyEndingOpening.rt,keyEndingOpening.duration,mouse.x,mouse.y,mouse.leftButton,mouse.midButton,mouse.rightButton,mouse.time,instructionLoop.thisRepN,instructionLoop.thisTrialN,instructionLoop.thisN,instructionLoop.thisIndex,instructionLoop.ran,readyForAudio.started,readyForAudio.stopped,fixation.started,run,audio_played,fixation.stopped,endPractice.keys,audioPre.started,audioPre.stopped,continuousResponses_audio,continuousSlider.response,continuousSlider.rt,intRating.started,intRating.stopped,intQuestionSlider.response,intQuestionSlider.rt,intQuestionSlider.history,confirmResponse.keys,confirmResponse.rt,confirmResponse.duration,catchQuestion.started,catch_label,catch_value,catchQuestion.stopped,catchQuestionSlider.response,catchQuestionSlider.rt,catchQuestionSlider.history,confirmResponse_2.keys,audioRunLoop.thisRepN,audioRunLoop.thisTrialN,audioRunLoop.thisN,audioRunLoop.thisIndex,audioRunLoop.ran,conditions1_1,conditions2_1,conditions1_2,conditions2_2,dur1_1,dur2_1,dur1_2,dur2_2,endPractice.rt,endPractice.duration,confirmResponse_2.rt,confirmResponse_2.duration,runIntervalBreak.started,runIntervalBreak.stopped,endingBreakKey.keys,endingBreakKey.rt,endingBreakKey.duration,connection.started,connection.stopped,connectionEnding.keys,connectionEnding.rt,connectionEnding.duration,readyForText.started,readyForText.stopped,textPre.started,run_dup,textPre.stopped,continuousResponses_text,textRunLoop.thisRepN,textRunLoop.thisTrialN,textRunLoop.thisN,textRunLoop.thisIndex,textRunLoop.ran,text1_1,text1_2,text2_1,text2_2,runBreakText.started,runBreakText.stopped,endingBreakKey_2.keys,endingBreakKey_2.rt,endingBreakKey_2.duration,ending.started,ending.stopped,endingEnding.keys,endingEnding.rt,endingEnding.duration
social,0.0002,9.4276,y,9.0942,,65b7ba948f5c3052140c24f8,2024-05-13_08h30.28.952,group3.1-3.2-social-tom,2023.2.2,Win32,60.24096386,65c5074098b851296ff0b7ed,664231601929a2231ab110f0,,,,,,,,,,,,,,,,,,,,,,,,,,,,,,,,,,,,,,,,,,,,,,,,,,,,,,,,,,,,,,,,,,,,,,,,,,,,,,,,,,,,,,,,,,,,,,,,,,,,,,,,,,
,,,,,,65b7ba948f5c3052140c24f8,2024-05-13_08h30.28.952,group3.1-3.2-social-tom,2023.2.2,Win32,60.24096386,65c5074098b851296ff0b7ed,664231601929a2231ab110f0,9.4288,29.0584,space,19.5511,,,,,,,,,,,,,,,,,,,,,,,,,,,,,,,,,,,,,,,,,,,,,,,,,,,,,,,,,,,,,,,,,,,,,,,,,,,,,,,,,,,,,,,,,,,,,,,,,,,,,,
,,,,,,65b7ba948f5c3052140c24f8,2024-05-13_08h30.28.952,group3.1-3.2-social-tom,2023.2.2,Win32,60.24096386,65c5074098b851296ff0b7ed,664231601929a2231ab110f0,,,,,,29.0589,38.7385,space,9.3475,,,,,,,,,,,,,,,,,,,,,,,,,,,,,,,,,,,,,,,,,,,,,,,,,,,,,,,,,,,,,,,,,,,,,,,,,,,,,,,,,,,,,,,,,,,,,,,,,
,,,,,,65b7ba948f5c3052140c24f8,2024-05-13_08h30.28.952,group3.1-3.2-social-tom,2023.2.2,Win32,60.24096386,65c5074098b851296ff0b7ed,664231601929a2231ab110f0,,,,,,,,,,,38.7508,45.9939,space,7.2202,,[],[],[],[],[],[],0,0,0,0,1,,,,,,,,,,,,,,,,,,,,,,,,,,,,,,,,,,,,,,,,,,,,,,,,,,,,,,,,,,,,,,,,,,,,,,,,,,,,,,,,
,,,,,,65b7ba948f5c3052140c24f8,2024-05-13_08h30.28.952,group3.1-3.2-social-tom,2023.2.2,Win32,60.24096386,65c5074098b851296ff0b7ed,664231601929a2231ab110f0,,,,,,,,,,,46.0027,62.249,space,16.159,,[],[],[],[],[],[],1,0,1,0,1,,,,,,,,,,,,,,,,,,,,,,,,,,,,,,,,,,,,,,,,,,,,,,,,,,,,,,,,,,,,,,,,,,,,,,,,,,,,,,,,
,,,,,,65b7ba948f5c3052140c24f8,2024-05-13_08h30.28.952,group3.1-3.2-social-tom,2023.2.2,Win32,60.24096386,65c5074098b851296ff0b7ed,664231601929a2231ab110f0,,,,,,,,,,,62.2579,78.6873,space,16.3848,,[],[],[],[],[],[],2,0,2,0,1,,,,,,,,,,,,,,,,,,,,,,,,,,,,,,,,,,,,,,,,,,,,,,,,,,,,,,,,,,,,,,,,,,,,,,,,,,,,,,,,
,,,,,,65b7ba948f5c3052140c24f8,2024-05-13_08h30.28.952,group3.1-3.2-social-tom,2023.2.2,Win32,60.24096386,65c5074098b851296ff0b7ed,664231601929a2231ab110f0,,,,,,,,,,,78.7188,103.8965,space,25.1406,,[],[],[],[],[],[],3,0,3,0,1,,,,,,,,,,,,,,,,,,,,,,,,,,,,,,,,,,,,,,,,,,,,,,,,,,,,,,,,,,,,,,,,,,,,,,,,,,,,,,,,
,,,,,,65b7ba948f5c3052140c24f8,2024-05-13_08h30.28.952,group3.1-3.2-social-tom,2023.2.2,Win32,60.24096386,65c5074098b851296ff0b7ed,664231601929a2231ab110f0,,,,,,,,,,,103.9301,118.1323,space,14.1692,,[],[],[],[],[],[],4,0,4,0,1,,,,,,,,,,,,,,,,,,,,,,,,,,,,,,,,,,,,,,,,,,,,,,,,,,,,,,,,,,,,,,,,,,,,,,,,,,,,,,,,
,,,,,,65b7ba948f5c3052140c24f8,2024-05-13_08h30.28.952,group3.1-3.2-social-tom,2023.2.2,Win32,60.24096386,65c5074098b851296ff0b7ed,664231601929a2231ab110f0,,,,,,,,,,,,,,,,,,,,,,,,,,,118.1709,120.7445,120.7677,1,audio/Narrative13Situation2.wav,122.7792,,122.7795,152.5447,"[[999,2],[999,137],[999,233],[999,319],[999,397],[999,482],[999,566],[999,649],[999,732],[999,816],[999,887],[999,982],[999,1066],[999,1149],[999,1229],[999,1316],[999,1390],[999,1482],[999,1557],[999,1649],[999,1723],[999,1816],[999,1894],[999,1970],[999,2065],[999,2149],[999,2224],[999,2317],[999,2399],[999,2482],[999,2566],[999,2641],[999,2732],[999,2815],[999,2900],[999,2975],[999,3066],[999,3149],[999,3224],[999,3316],[999,3390],[999,3483],[999,3565],[999,3649],[999,3732],[999,3808],[999,3899],[999,3983],[999,4066],[999,4140],[999,4232],[999,4316],[999,4400],[999,4475],[999,4568],[999,4649],[999,4721],[999,4807],[999,4900],[999,4982],[999,5067],[999,5150],[999,5234],[999,5317],[999,5400],[999,5483],[999,5567],[999,5650],[999,5724],[999,5816],[999,5899],[999,5974],[999,6066],[999,6150],[999,6221],[999,6309],[999,6400],[999,6483],[999,6558],[999,6649],[999,6724],[999,6817],[999,6900],[999,6984],[999,7066],[999,7141],[999,7233],[999,7308],[999,7400],[999,7484],[999,7558],[999,7650],[999,7733],[999,7817],[999,7900],[999,7984],[999,8059],[999,8150],[999,8226],[999,8317],[999,8400],[999,8484],[999,8567],[999,8651],[999,8733],[999,8806],[999,8900],[999,8984],[999,9059],[999,9142],[999,9234],[999,9309],[999,9400],[999,9475],[999,9568],[999,9650],[999,9734],[999,9808],[999,9901],[999,9975],[999,10068],[999,10142],[999,10229],[999,10309],[999,10401],[999,10484],[999,10568],[999,10651],[999,10734],[999,10810],[999,10902],[999,10985],[999,11069],[999,11152],[93.2,11244],[94.7,11323],[96.3,11406],[97.2,11489],[97.3,11573],[97.9,11657],[99.2,11740],[99.3,11823],[99.9,11907],[99.9,11989],[99.9,12073],[99.9,12159],[99.9,12240],[99.9,12323],[99.9,12406],[99.9,12503],[99.9,12586],[99.9,12668],[99.9,12752],[99.9,12827],[99.9,12911],[99.9,13001],[99.9,13077],[99.9,13169],[99.9,13252],[99.9,13335],[99.9,13411],[99.9,13502],[99.9,13586],[99.9,13661],[99.9,13752],[99.9,13835],[99.9,13919],[99.9,14002],[99.9,14077],[99.9,14169],[99.9,14244],[99.9,14337],[99.9,14410],[99.9,14502],[99.9,14586],[99.9,14669],[99.9,14753],[99.9,14835],[99.9,14919],[99.9,14994],[99.9,15086],[99.9,15170],[99.9,15253],[99.9,15336],[98.5,15424],[97.3,15508],[96.5,15590],[96.5,15673],[97,15759],[99.7,15841],[100,15924],[100,16007],[100,16091],[100,16183],[100,16269],[100,16344],[100,16436],[100,16518],[100,16603],[100,16686],[100,16770],[100,16852],[100,16937],[100,17019],[100,17103],[100,17186],[100,17269],[100,17353],[100,17435],[100,17519],[100,17591],[100,17686],[100,17769],[100,17852],[100,17936],[100,18019],[100,18119],[100,18202],[100,18288],[100,18369],[100,18444],[100,18536],[100,18620],[100,18703],[100,18786],[100,18869],[100,18945],[100,19036],[100,19120],[100,19788],[100,19871],[85.7,20372],[84.7,20455],[84.7,20529],[84.7,20620],[84.7,20694],[84.7,20787],[84.7,20870],[84.7,20954],[91.1,21039],[95.3,21121],[99,21205],[100,21288],[100,21370],[100,21446],[100,21537],[100,21621],[100,21704],[100,21779],[100,21870],[100,21946],[100,22037],[100,22112],[100,22196],[100,22287],[100,22371],[100,22451],[100,22529],[100,22620],[100,22703],[100,22788],[100,22870],[100,22947],[100,23029],[100,23121],[100,23195],[100,23287],[100,23363],[100,23453],[100,23529],[100,23620],[100,23704],[86.3,24956],[86.2,25038],[86.2,25122],[86.2,25204],[89.1,25289],[90.7,25372],[97.3,25457],[99.3,25539],[100,25622],[100,25705],[100,25788],[100,25872],[100,25955],[100,26042]]",1,0,152.5453,161.487,99.66666667,6.1884,"[{""rating"":99.66666666666666,""responseTime"":6.188399999976156}]",space,8.3917,,161.4873,Partially,50,161.4908,,,[],,0,0,0,0,1,audio/Narrative13Situation2.wav,audio/Narrative13Situation2.wav,audio/Narrative13Situation2.wav,audio/Narrative13Situation2.wav,2,2,2,2,,,,,,,,,,,,,,,,,,,,,,,,,,,,,,,,,,,,,,,
,,,,,,65b7ba948f5c3052140c24f8,2024-05-13_08h30.28.952,group3.1-3.2-social-tom,2023.2.2,Win32,60.24096386,65c5074098b851296ff0b7ed,664231601929a2231ab110f0,,,,,,,,,,,,,,,,,,,,,,,,,,,,,161.4911,1,audio/Narrative7Situation1.wav,164.6726,space,164.6727,220.5872,"[[100,3934],[61.8,5356],[59.3,5439],[58.5,5523],[58.1,5605],[58.1,5688],[58.1,5772],[58.1,5855],[58.1,5938],[58.1,6021],[58.1,6105],[58.1,6189],[58.1,6272],[58.1,6355],[58.1,6438],[58.1,6522],[58.1,6605],[58.1,6688],[58.1,6772],[58.1,6855],[58.1,6939],[58.1,7022],[58.1,7105],[58.1,7189],[58.1,7272],[58.1,7356],[58.1,7451],[58.1,7526],[58.1,7609],[56.5,7702],[55.2,7785],[54.2,7870],[52.5,7952],[51.7,8036],[51.1,8119],[50.9,8194],[50.9,8276],[50.9,8370],[50.9,8452],[50.9,8528],[50.9,8611],[50.9,8701],[50.9,8774],[50.9,8868],[50.9,8951],[50.9,9027],[50.9,9118],[50.9,9202],[50.9,9273],[50.9,9368],[50.9,9453],[50.9,9527],[50.9,9618],[50.9,9694],[50.9,9785],[50.9,9868],[50.9,9951],[50.9,10035],[50.9,10118],[50.9,10201],[50.9,10278],[50.9,10368],[50.9,10451],[50.9,10535],[50.9,10618],[50.9,10701],[50.9,10777],[50.9,10860],[50.9,10943],[50.9,11035],[50.9,11110],[50.9,11202],[50.9,11285],[50.9,11369],[50.9,11451],[50.9,11535],[50.9,11618],[50.9,11702],[50.9,11786],[50.9,11868],[50.9,11952],[50.9,12035],[50.9,12118],[50.9,12199],[50.9,12286],[50.9,12360],[50.9,12452],[50.9,12536],[50.9,12618],[50.9,12702],[50.9,12777],[50.9,12868],[50.9,12946],[50.9,13026],[50.9,13119],[50.9,13201],[50.9,13282],[50.9,13360],[50.9,13452],[50.9,13526],[50.9,13619],[50.9,13693],[50.9,13785],[50.9,13860],[50.9,13952],[50.9,14036],[50.9,14118],[50.9,14199],[50.9,14286],[50.9,14365],[50.9,14453],[50.9,14528],[50.9,14611],[50.9,14703],[50.9,14777],[50.9,14869],[50.9,14944],[50.9,15036],[50.9,15119],[50.9,15203],[50.9,15286],[50.9,15369],[50.9,15452],[50.9,15530],[50.9,15619],[50.9,15694],[50.9,15786],[50.9,15861],[50.9,15953],[50.9,16035],[50.9,16119],[50.9,16194],[50.9,16286],[50.9,16366],[50.9,16445],[50.9,16528],[50.9,16620],[50.9,16703],[50.9,16786],[50.9,16869],[50.9,16944],[50.9,17036],[50.9,17120],[50.9,17204],[50.9,17286],[50.9,17370],[50.9,17453],[50.9,17529],[50.9,17620],[50.9,17702],[50.9,17786],[50.9,17870],[50.9,17950],[50.9,18037],[50.9,18110],[50.9,18204],[50.9,18286],[50.9,18371],[50.9,18453],[50.9,18529],[50.9,18620],[50.9,18694],[50.9,18787],[50.9,18870],[50.9,18954],[50.9,19028],[50.9,19111],[50.9,19204],[50.9,19286],[50.9,19362],[50.9,19444],[50.9,19537],[50.9,19611],[50.9,19695],[50.9,19787],[50.9,19862],[50.9,19946],[50.9,20029],[50.9,20121],[50.9,20203],[50.9,20279],[50.9,20370],[50.9,20445],[50.9,20538],[50.9,20612],[50.9,20704],[50.9,20788],[50.9,20871],[50.9,20954],[50.9,21029],[50.9,21121],[50.9,21204],[50.9,21287],[50.9,21371],[50.9,21444],[50.9,21529],[50.9,21612],[50.9,21704],[50.9,21779],[50.9,21871],[50.9,21955],[50.9,22038],[50.9,22121],[50.9,22205],[50.9,22280],[50.9,22364],[50.9,22447],[50.9,22527],[50.9,22613],[50.9,22706],[50.9,22788],[50.9,22872],[50.9,22955],[50.9,23038],[50.9,23113],[50.9,23205],[50.9,23288],[50.9,23372],[50.9,23447],[50.9,23538],[50.9,23614],[50.9,23705],[50.9,23780],[50.9,23871],[50.9,23955],[50.9,24039],[50.9,24122],[50.9,24197],[50.9,24288],[50.9,24373],[50.9,24447],[50.9,24531],[50.9,24622],[50.9,24705],[50.9,24790],[50.9,24863],[50.9,24955],[50.9,25038],[50.9,25114],[50.9,25197],[50.9,25289],[50.9,25372],[50.9,25455],[50.9,25538],[50.9,25622],[50.9,25705],[50.9,25779],[50.9,25872],[50.9,25947],[50.9,26038],[50.9,26114],[50.9,26202],[50.9,26285],[50.9,26372],[50.9,26456],[50.9,26539],[50.9,26614],[50.9,26701],[50.9,26788],[50.9,26866],[50.9,26956],[50.9,27039],[50.9,27119],[50.9,27205],[50.9,27289],[50.9,27365],[50.9,27456],[50.9,27533],[50.9,27610],[50.9,27706],[50.9,27789],[50.9,27864],[50.9,27956],[50.9,28031],[50.9,28116],[50.9,28205],[50.9,28281],[50.9,28372],[50.9,28456],[50.9,28539],[50.9,28614],[50.9,28706],[50.9,28789],[50.9,28873],[50.9,28948],[50.9,29031],[50.9,29123],[50.9,29194],[50.9,29289],[50.9,29372],[50.9,29456],[50.9,29531],[50.9,29623],[50.9,29706],[50.9,29781],[50.9,29873],[50.9,29956],[50.9,30039],[50.9,30124],[50.9,30206],[50.9,30290],[50.9,30373],[50.9,30457],[50.9,30540],[50.9,30614],[50.9,30706],[50.9,30790],[50.9,30863],[50.9,30956],[50.9,31031],[50.9,31122],[50.9,31206],[50.9,31292],[50.9,31373],[50.9,31457],[50.9,31540],[50.9,31624],[50.9,31706],[50.9,31781],[50.9,31866],[50.9,31949],[50.9,32041],[50.9,32124],[50.9,32207],[50.9,32282],[50.9,32375],[50.9,32457],[50.9,32541],[50.9,32624],[50.9,32706],[50.9,32782],[50.9,32875],[50.9,32948],[50.9,33041],[50.9,33124],[50.9,33208],[50.9,33291],[50.9,33375],[50.9,33457],[50.9,33532],[50.9,33624],[50.9,33699],[50.9,33790],[50.9,33865],[50.9,33957],[50.9,34040],[50.9,34121],[50.9,34207],[50.9,34282],[50.9,34374],[50.9,34450],[50.9,34540],[50.9,34616],[50.9,34709],[50.9,34782],[50.9,34867],[50.9,34957],[50.9,35041],[50.9,35124],[50.9,35208],[50.9,35291],[50.9,35375],[50.9,35449],[50.9,35532],[50.9,35624],[50.9,35699],[50.9,35790],[50.9,35866],[50.9,35958],[50.9,36040],[50.9,36124],[50.9,36200],[50.9,36292],[50.9,36366],[50.9,36459],[50.9,36542],[50.9,36626],[50.9,36708],[50.9,36783],[50.9,36866],[50.9,36960],[50.9,37041],[50.9,37125],[50.9,37208],[50.9,37283],[50.9,37375],[50.9,37455],[50.9,37541],[50.9,37616],[50.9,37708],[50.9,37791],[50.9,37866],[50.9,37958],[50.9,38041],[50.9,38125],[50.9,38208],[50.9,38292],[50.9,38366],[50.9,38449],[50.9,38541],[50.9,38625],[50.9,38709],[50.9,38792],[50.9,38876],[50.9,38950],[50.9,39041],[50.9,39125],[50.9,39209],[50.9,39284],[50.9,39367],[50.9,39451],[50.9,39542],[50.9,39626],[50.9,39709],[50.9,39784],[50.9,39876],[50.9,39951],[50.9,40043],[50.9,40126],[50.9,40210],[50.9,40284],[50.9,40376],[50.9,40451],[50.9,40530],[50.9,40626],[50.9,40701],[50.9,40792],[50.9,40876],[50.9,40959],[50.9,41034],[50.9,41126],[50.9,41201],[50.9,41294],[50.9,41376],[50.9,41460],[50.9,41542],[50.9,41618],[50.9,41709],[50.9,41784],[50.9,41876],[50.9,41960],[50.9,42046],[50.9,42118],[50.9,42210],[50.9,42294],[50.9,42364],[50.9,42460],[50.9,42530],[50.9,42626],[50.9,42710],[50.9,42793],[50.9,42876],[50.9,42950],[50.9,43043],[50.9,43126],[50.9,43209],[50.9,43293],[50.9,43376],[50.9,43450],[50.9,43543],[50.9,43626],[50.9,43702],[50.9,43793],[50.9,43868],[50.9,43959],[50.9,44043],[50.9,44127],[50.9,44210],[50.9,44294],[50.9,44376],[50.9,44460],[50.9,44543],[50.9,44618],[50.9,44710],[50.9,44793],[50.9,44877],[50.9,44959],[50.9,45043],[50.9,45126],[50.9,45210],[50.9,45293],[50.9,45377],[50.9,45451],[50.9,45543],[50.9,45626],[50.9,45702],[50.9,45793],[50.9,45869],[50.9,45960],[50.9,46043],[50.9,46127],[50.9,46210],[50.9,46293],[50.9,46367],[50.9,46460],[50.9,46544],[50.9,46619],[50.9,46710],[50.9,46786],[50.9,46877],[50.9,46960],[50.9,47043],[50.9,47127],[50.9,47211],[50.9,47285],[50.9,47377],[50.9,47461],[50.9,47543],[50.9,47628],[50.9,47710],[50.9,47794],[50.9,47877],[50.9,47952],[50.9,48044],[50.9,48120],[50.9,48210],[50.9,48294],[50.9,48378],[50.9,48461],[50.9,48544],[50.9,48618],[50.9,48711],[50.9,48786],[50.9,48877],[50.9,48961],[50.9,49044],[50.9,49128],[50.9,49211],[50.9,49294],[50.9,49375],[50.9,49454],[50.9,49544],[50.9,49628],[50.9,49703],[50.9,49794],[50.9,49878],[50.9,49961],[50.9,50036],[50.9,50120],[50.9,50211],[50.9,50286],[50.9,50378],[50.9,50453],[50.9,50537],[50.9,50620],[50.9,50712],[50.9,50795],[50.9,50878],[50.9,50961],[50.9,51036],[50.9,51128],[50.9,51203],[50.9,51289],[50.9,51378],[50.9,51462],[50.9,51544],[50.9,51628],[50.9,51704],[50.9,51783],[50.9,51878],[50.9,51954],[50.9,52046],[50.9,52121],[50.9,52212],[50.9,52295],[50.9,52370],[50.9,52454],[50.9,52533],[50.9,52621],[50.9,52712],[50.9,52788],[50.9,52879],[50.9,52954],[50.9,53046],[50.9,53129],[50.9,53204],[50.9,53287],[50.9,53371],[50.9,53462],[50.9,53537],[50.9,53629],[50.9,53704],[50.9,53788],[50.9,53879],[50.9,53963],[50.9,54046],[50.9,54121],[50.9,54213],[50.9,54296],[50.9,54380],[50.9,54463],[50.9,54546],[50.9,54629],[50.9,54714],[50.9,54784],[50.9,54879],[50.9,54963],[50.9,55042],[50.9,55129],[50.9,55213],[50.9,55296],[50.9,55371],[50.9,55463],[50.9,55546],[50.9,55629],[50.9,55704],[50.9,55796],[50.9,55879]]",1,0,220.5874,230.5529,49.8,8.9257,"[{""rating"":49.8,""responseTime"":8.925700000047698}]",space,9.4188,,230.5532,Partially,50,230.5552,,,[],,0,1,1,1,1,audio/Narrative7Situation1.wav,audio/Narrative8Situation1.wav,audio/Narrative5Situation1.wav,audio/Narrative6Situation1.wav,2,5,5,2,3.1579,,,,,,,,,,,,,,,,,,,,,,,,,,,,,,,,,,,,,,
,,,,,,65b7ba948f5c3052140c24f8,2024-05-13_08h30.28.952,group3.1-3.2-social-tom,2023.2.2,Win32,60.24096386,65c5074098b851296ff0b7ed,664231601929a2231ab110f0,,,,,,,,,,,,,,,,,,,,,,,,,,,,,230.5554,1,audio/Narrative7Situation2.wav,233.5608,,233.5609,241.0469,"[[999,31],[999,110],[999,192],[999,279],[999,361],[999,443],[999,527],[999,611],[999,696],[999,770],[999,862],[999,945],[999,1016],[999,1103],[999,1196],[999,1270],[999,1362],[999,1444],[999,1528],[999,1603],[999,1683],[999,1779],[999,1862],[999,1936],[999,2021],[999,2112],[999,2186],[999,2279],[999,2363],[999,2446],[999,2528],[999,2600],[999,2695],[999,2770],[999,2861],[999,2936],[999,3028],[999,3112],[999,3196],[999,3275],[999,3353],[999,3436],[999,3520],[999,3612],[999,3695],[999,3772],[999,3862],[999,3936],[999,4029],[999,4103],[999,4187],[999,4279],[999,4362],[999,4440],[999,4520],[999,4604],[999,4695],[999,4770],[999,4862],[999,4937],[999,5028],[999,5104],[999,5195],[999,5267],[999,5357],[999,5436],[999,5521],[999,5604],[999,5684],[999,5780],[94.8,6118],[98.3,6202],[100,6285],[100,6367],[100,6450],[100,6534],[100,6617],[100,6701],[100,6796],[100,6880],[100,6963],[100,7047],[100,7122],[100,7214],[100,7288],[100,7380],[100,7463]]",1,0,241.0471,251.5445,99.4,9.8326,"[{""rating"":99.4,""responseTime"":9.832599999904602}]",space,9.9646,,251.5446,Definitely yes,100,263.2136,99.8,6.1358,"[{""rating"":99.8,""responseTime"":6.1358000000715265}]",space,0,2,2,2,1,audio/Narrative7Situation2.wav,audio/Narrative8Situation2.wav,audio/Narrative5Situation2.wav,audio/Narrative6Situation2.wav,3,3,3,3,,,11.1193,,,,,,,,,,,,,,,,,,,,,,,,,,,,,,,,,,,,
,,,,,,65b7ba948f5c3052140c24f8,2024-05-13_08h30.28.952,group3.1-3.2-social-tom,2023.2.2,Win32,60.24096386,65c5074098b851296ff0b7ed,664231601929a2231ab110f0,,,,,,,,,,,,,,,,,,,,,,,,,,,,,263.2226,1,audio/Narrative7Situation3.wav,271.2366,,271.2367,280.5007,"[[999,1],[999,98],[999,172],[999,257],[999,344],[999,420],[999,499],[999,587],[999,666],[999,761],[999,833],[999,920],[999,1011],[999,1085],[999,1177],[999,1262],[999,1344],[999,1428],[999,1512],[999,1587],[999,1680],[999,1762],[999,1846],[999,1928],[999,2004],[999,2095],[999,2166],[999,2250],[999,2345],[999,2430],[999,2512],[999,2596],[999,2679],[999,2762],[999,2846],[999,2928],[999,3012],[999,3096],[999,3173],[999,3262],[999,3346],[999,3420],[999,3500],[999,3596],[999,3667],[999,3763],[999,3837],[999,3930],[999,4013],[999,4096],[999,4179],[999,4262],[999,4337],[999,4430],[999,4504],[999,4583],[999,4679],[999,4762],[999,4837],[999,4929],[999,5004],[999,5096],[999,5179],[999,5257],[999,5346],[999,5417],[999,5504],[999,5596],[999,5670],[999,5762],[999,5846],[999,5917],[999,6012],[999,6088],[999,6180],[999,6262],[999,6346],[999,6421],[999,6513],[999,6584],[999,6667],[999,6762],[999,6834],[999,6929],[999,7005],[999,7096],[999,7179],[999,7263],[999,7338],[999,7417],[999,7505],[999,7597],[999,7672],[999,7755],[999,7846],[999,7920],[999,8013],[999,8097],[999,8180],[999,8255],[999,8339],[999,8421],[999,8514],[999,8596],[999,8680],[999,8754],[999,8847],[999,8922],[999,9005],[999,9096],[999,9181],[999,9263]]",1,0,280.5009,288.2698,0.4,5.6105,"[{""rating"":0.40000000000000036,""responseTime"":5.610500000000002}]",space,7.2112,,288.2699,Not at all,0,288.2733,,,[],,0,3,3,3,1,audio/Narrative7Situation3.wav,audio/Narrative8Situation3.wav,audio/Narrative5Situation3.wav,audio/Narrative6Situation3.wav,8,4,3,5,,,,,,,,,,,,,,,,,,,,,,,,,,,,,,,,,,,,,,,
,,,,,,65b7ba948f5c3052140c24f8,2024-05-13_08h30.28.952,group3.1-3.2-social-tom,2023.2.2,Win32,60.24096386,65c5074098b851296ff0b7ed,664231601929a2231ab110f0,,,,,,,,,,,,,,,,,,,,,,,,,,,,,288.2737,1,audio/Narrative7Situation4.wav,291.2752,,291.2754,303.0402,"[[999,13],[999,82],[999,166],[999,249],[999,332],[999,416],[999,500],[999,585],[999,666],[999,750],[999,833],[999,918],[999,999],[999,1083],[999,1166],[999,1250],[999,1335],[999,1417],[999,1501],[999,1584],[55.4,1667],[55.5,1752],[55.7,1833],[55.7,1916],[55.7,2000],[55.7,2084],[55.7,2167],[55.7,2250],[55.7,2333],[55.7,2417],[53.1,2504],[52.5,2584],[51.9,2667],[51.7,2750],[51.4,2834],[51.1,2917],[51.1,3000],[51,3084],[50.6,3169],[50.2,3252],[50.1,3333],[49.9,3418],[49.8,3500],[49.8,3583],[49.8,3667],[49.8,3751],[49.8,3833],[49.8,3917],[49.8,4001],[49.8,4083],[49.8,4167],[49.8,4251],[49.8,4334],[49.8,4417],[49.8,4501],[49.8,4584],[49.8,4667],[49.8,4751],[49.8,4834],[49.8,4917],[49.8,5001],[49.8,5084],[49.8,5167],[49.8,5251],[49.8,5334],[49.8,5418],[49.8,5501],[49.8,5584],[49.8,5668],[49.8,5751],[49.8,5834],[49.8,5918],[49.8,6001],[49.8,6084],[49.8,6168],[49.8,6251],[49.8,6334],[49.8,6417],[49.8,6501],[75.1,6614],[89.4,6698],[92.5,6781],[92.5,6863],[92.5,6937],[92.5,7030],[92.5,7104],[92.5,7196],[92.5,7267],[92.5,7363],[81.4,7447],[74.1,7531],[71.5,7615],[70.5,7697],[70.5,7780],[70.5,7854],[74.1,7947],[81.5,8625],[81,8701],[80.9,8789],[80.7,8880],[80.7,8963],[80.7,9038],[79.8,9131],[78.9,9214],[78.2,9298],[78.1,9371],[77.8,9463],[77.7,9539],[77.1,9632],[76.6,9714],[76.6,9797],[76.3,9872],[76.1,9963],[76.1,10038],[76.1,10129],[76.1,10205],[76.1,10297],[76.1,10379],[76.1,10455],[76.1,10547],[76.1,10621],[76.1,10713],[76.1,10797],[76.1,10880],[76.1,10955],[76.1,11047],[76.1,11130],[76.1,11213],[76.1,11296],[76.1,11373],[76.1,11464],[76.1,11547],[76.1,11630],[76.1,11714]]",1,0,303.0403,306.9745,49.8,2.9674,"[{""rating"":49.8,""responseTime"":2.9674000000953242}]",space,3.3928,,306.9746,Not at all,0,306.9763,,,[],,0,4,4,4,1,audio/Narrative7Situation4.wav,audio/Narrative8Situation4.wav,audio/Narrative5Situation4.wav,audio/Narrative6Situation4.wav,3,3,1,2,,,,,,,,,,,,,,,,,,,,,,,,,,,,,,,,,,,,,,,
,,,,,,65b7ba948f5c3052140c24f8,2024-05-13_08h30.28.952,group3.1-3.2-social-tom,2023.2.2,Win32,60.24096386,65c5074098b851296ff0b7ed,664231601929a2231ab110f0,,,,,,,,,,,,,,,,,,,,,,,,,,,,,306.9766,1,audio/Narrative7Situation5.wav,311.9796,,311.9796,320.4944,[],1,0,320.4945,325.9464,0,2.5419,"[{""rating"":0,""responseTime"":2.541899999976124}]",space,4.9027,,325.9467,Definitely yes,100,325.9579,,,[],,0,5,5,5,1,audio/Narrative7Situation5.wav,audio/Narrative8Situation5.wav,audio/Narrative5Situation5.wav,audio/Narrative6Situation5.wav,5,2,5,2,,,,,,,,,,,,,,,,,,,,,,,,,,,,,,,,,,,,,,,
,,,,,,65b7ba948f5c3052140c24f8,2024-05-13_08h30.28.952,group3.1-3.2-social-tom,2023.2.2,Win32,60.24096386,65c5074098b851296ff0b7ed,664231601929a2231ab110f0,,,,,,,,,,,,,,,,,,,,,,,,,,,,,325.9581,1,audio/Narrative7Situation6.wav,328.9674,,328.9676,338.9315,"[[999,1],[999,98],[999,179],[999,254],[999,345],[999,416],[999,500],[999,594],[999,670],[999,761],[999,837],[999,929],[999,1003],[999,1095],[17.3,1179],[47.5,2261],[48.6,2346],[49.2,2430],[50.1,2514],[50.3,2596],[50.3,2671],[50.3,2750],[50.3,2845],[50.3,2929],[50.3,3004],[50.3,3096],[50.3,3179],[50.3,3263],[50.3,3338],[50.3,3430],[50.3,3512],[50.3,3589],[50.3,3679],[50.3,3750],[50.3,3846],[50.3,3930],[50.3,4012],[50.3,4085],[50.3,4179],[50.3,4263],[50.3,4346],[50.3,4430],[50.3,4513],[50.3,4584],[50.3,4671],[50.3,4763],[50.3,4846],[50.3,4930],[50.3,5012],[50.3,5096],[50.3,5171],[50.3,5253],[57.8,5346],[71.6,5431],[85.1,5514],[88.5,5597],[89.9,5679],[89.9,5759],[89.9,5846],[93.4,5931],[97.4,6014],[98.7,6096],[98.8,6180],[99.6,6264],[99.7,6337],[99.9,6430],[100,6503],[100,6600],[100,6699],[100,6776],[100,6858],[100,6942],[100,7033],[100,7113],[100,7191],[100,7271],[100,7363],[100,7447],[100,7530],[100,7613],[100,7688],[100,7781],[100,7855],[100,7947],[100,8022],[100,8113],[100,8189],[100,8280],[100,8354],[100,8447],[100,8522],[100,8614],[100,8688],[100,8780],[100,8855],[100,8947],[100,9030],[100,9113],[100,9188],[100,9280],[100,9355],[100,9447],[100,9530],[100,9613],[100,9689],[100,9768],[100,9864],[100,9947]]",1,0,338.9317,342.2164,99.8,1.4678,"[{""rating"":99.8,""responseTime"":1.467800000071577}]",space,2.7515,,342.2165,Not at all,0,342.2193,,,[],,0,6,6,6,1,audio/Narrative7Situation6.wav,audio/Narrative8Situation6.wav,audio/Narrative5Situation6.wav,audio/Narrative6Situation6.wav,3,2,3,2,,,,,,,,,,,,,,,,,,,,,,,,,,,,,,,,,,,,,,,
,,,,,,65b7ba948f5c3052140c24f8,2024-05-13_08h30.28.952,group3.1-3.2-social-tom,2023.2.2,Win32,60.24096386,65c5074098b851296ff0b7ed,664231601929a2231ab110f0,,,,,,,,,,,,,,,,,,,,,,,,,,,,,342.2195,1,audio/Narrative7Situation7.wav,347.2223,,347.2224,364.4215,"[[97.5,1029],[66.5,1363],[63.9,1447],[63.8,1528],[63.8,1611],[63.8,1694],[63.8,1778],[61.3,1864],[58.9,1946],[58.2,2029],[56.5,2113],[54.7,2197],[54.1,2279],[53.9,2354],[53.9,2445],[78.5,2533],[81.4,2612],[81.4,2695],[81.4,2778],[81.4,2863],[81.4,2945],[88.2,3030],[96.7,3113],[98.7,3196],[98.8,3280],[99.1,3362],[99.4,3445],[99.6,3521],[99.9,3612],[99.9,3687],[99.9,3778],[99.9,3862],[99.9,3936],[99.9,4029],[99.9,4112],[99.9,4195],[99.7,4279],[99.5,4363],[99.5,4445],[99.5,4520],[99.5,4613],[99.5,4687],[99.5,4770],[99.5,4862],[99.5,4945],[99.5,5029],[99.5,5103],[99.5,5195],[99.5,5279],[99.5,5354],[99.5,5438],[99.5,5529],[99.5,5600],[99.5,5687],[99.5,5771],[99.5,5862],[99.5,5946],[99.5,6029],[99.5,6113],[99.5,6188],[99.5,6267],[99.5,6362],[99.5,6446],[99.5,6520],[99.5,6604],[99.5,6696],[99.5,6780],[99.5,6862],[99.5,6946],[99.5,7029],[99.5,7113],[99.5,7196],[99.5,7270],[99.5,7362],[99.5,7446],[99.5,7529],[99.5,7613],[99.5,7687],[99.5,7779],[99.5,7862],[99.5,7938],[99.5,8029],[99.5,8113],[99.5,8187],[99.5,8279],[99.5,8363],[99.5,8447],[99.5,8521],[99.5,8613],[99.5,8688],[99.5,8780],[99.5,8854],[99.5,8946],[99.5,9030],[99.5,9113],[99.5,9197],[99.5,9280],[99.5,9351],[99.5,9447],[99.5,9518],[99.5,9613],[99.5,9697],[99.5,9780],[99.5,9864],[99.5,9947],[99.5,10031],[99.5,10113],[99.5,10189],[99.5,10280],[99.5,10355],[99.5,10446],[99.5,10522],[99.5,10613],[99.5,10688],[99.5,10781],[99.5,10863],[99.5,10947],[99.5,11022],[99.5,11106],[99.5,11188],[99.5,11272],[99.5,11355],[99.5,11447],[99.5,11522],[99.5,11606],[99.5,11697],[99.5,11781],[99.5,11856],[99.5,11947],[99.5,12022],[99.5,12115],[99.5,12197],[99.5,12281],[99.5,12364],[99.5,12439],[99.5,12530],[99.5,12614],[99.5,12697],[99.5,12769],[99.5,12864],[99.5,12948],[99.5,13031],[99.5,13115],[99.5,13197],[99.5,13281],[99.5,13364],[99.5,13448],[99.5,13531],[99.5,13614],[99.5,13698],[99.5,13773],[99.5,13864],[99.5,13939],[99.5,14023],[99.5,14114],[99.5,14198],[99.5,14281],[99.5,14357],[99.5,14448],[99.5,14531],[99.5,14614],[99.5,14698],[99.5,14781],[99.5,14865],[99.5,14940],[99.5,15024],[99.5,15106],[99.5,15198],[99.5,15281],[99.5,15365],[99.5,15448],[99.5,15531],[99.5,15615],[99.5,15689],[99.5,15770],[99.5,15857],[99.5,15949],[99.5,16023],[99.5,16103],[99.5,16198],[99.5,16282],[99.5,16366],[99.5,16440],[99.5,16521],[99.5,16607],[99.5,16691],[99.5,16773],[99.5,16865],[99.5,16948],[99.5,17032],[99.5,17115],[99.5,17198]]",1,0,364.4217,367.2728,99.6,1.6912,"[{""rating"":99.6,""responseTime"":1.6911999999284717}]",space,2.3171,,367.2728,Definitely yes,100,367.276,,,[],,0,7,7,7,1,audio/Narrative7Situation7.wav,audio/Narrative8Situation7.wav,audio/Narrative5Situation7.wav,audio/Narrative6Situation7.wav,5,3,4,5,,,,,,,,,,,,,,,,,,,,,,,,,,,,,,,,,,,,,,,
,,,,,,65b7ba948f5c3052140c24f8,2024-05-13_08h30.28.952,group3.1-3.2-social-tom,2023.2.2,Win32,60.24096386,65c5074098b851296ff0b7ed,664231601929a2231ab110f0,,,,,,,,,,,,,,,,,,,,,,,,,,,,,367.2769,1,audio/Narrative7Situation8.wav,369.2777,,369.2778,379.3257,"[[999,0],[999,86],[999,166],[999,262],[999,336],[999,416],[999,503],[999,583],[999,678],[999,762],[999,845],[999,916],[999,1012],[999,1095],[999,1179],[999,1261],[999,1333],[999,1429],[999,1502],[999,1597],[999,1678],[999,1763],[999,1844],[999,1929],[999,2006],[999,2095],[999,2170],[999,2249],[999,2345],[999,2420],[999,2512],[999,2588],[999,2679],[999,2762],[999,2845],[999,2930],[999,3012],[999,3087],[999,3179],[999,3254],[999,3338],[999,3420],[999,3513],[999,3595],[999,3680],[999,3762],[999,3837],[999,3929],[999,4001],[999,4096],[999,4170],[999,4262],[999,4345],[999,4429],[999,4504],[999,4596],[999,4679],[999,4762],[999,4846],[999,4926],[999,5004],[999,5096],[999,5170],[999,5255],[999,5338],[999,5429],[999,5512],[999,5584],[999,5671],[999,5762],[999,5846],[999,5929],[999,6012],[999,6096],[999,6179],[999,6262],[999,6346],[999,6430],[999,6504],[999,6590],[999,6670],[999,6751],[999,6837],[999,6929],[999,7012],[999,7096],[999,7171],[999,7262],[999,7340],[999,7421],[999,7509],[999,7596],[999,7680],[999,7763],[999,7846],[999,7930],[999,8005],[999,8096],[999,8170],[999,8264],[999,8338],[999,8422],[999,8504],[999,8589],[999,8671],[999,8764],[999,8846],[999,8930],[999,9005],[999,9097],[999,9180],[999,9255],[999,9335],[999,9431],[999,9513],[999,9585],[999,9680],[999,9755],[999,9847],[999,9930],[999,10013]]",1,0,379.3258,382.5605,99.73333333,2.3084,"[{""rating"":99.73333333333333,""responseTime"":2.3084000000953893}]",space,2.6848,,382.5605,Not at all,0,382.5632,,,[],,0,8,8,8,1,audio/Narrative7Situation8.wav,audio/Narrative8Situation8.wav,audio/Narrative5Situation8.wav,audio/Narrative6Situation8.wav,2,3,3,5,,,,,,,,,,,,,,,,,,,,,,,,,,,,,,,,,,,,,,,
,,,,,,65b7ba948f5c3052140c24f8,2024-05-13_08h30.28.952,group3.1-3.2-social-tom,2023.2.2,Win32,60.24096386,65c5074098b851296ff0b7ed,664231601929a2231ab110f0,,,,,,,,,,,,,,,,,,,,,,,,,,,,,382.5635,1,audio/Narrative7Situation9.wav,384.565,,384.565,393.2059,"[[99.7,2429],[99.7,2512],[99.7,2588],[99.7,2671],[99.7,2754],[99.7,2837],[99.7,2922],[99.7,3012],[99.7,3096],[99.7,3179],[99.7,3263],[99.7,3345],[99.7,3430],[99.7,3512],[99.7,3586],[99.7,3678],[99.7,3762],[99.7,3845],[99.7,3928],[99.7,4004],[99.7,4084],[99.7,4179],[99.7,4253],[99.7,4346],[99.7,4420],[99.7,4512],[99.7,4584],[99.7,4678],[100,4764],[100,4837],[100,4929],[100,5012],[100,5083],[100,5179],[100,5262],[100,5345],[100,5430],[100,5504],[100,5596],[100,5671],[100,5763],[100,5846],[100,5930],[100,6012],[100,6096],[100,6179],[100,6254],[100,6346],[100,6429],[100,6504],[100,6596],[100,6680],[100,6752],[100,6837],[100,6929],[100,7005],[100,7096],[100,7171],[100,7263],[100,7337],[100,7430],[100,7513],[100,7596],[100,7679],[100,7763],[100,7843],[100,7921],[100,8004],[100,8097],[100,8180],[100,8263],[100,8347],[100,8421],[100,8514],[100,8596]]",1,0,393.206,396.8678,99.26666667,3.1771,"[{""rating"":99.26666666666665,""responseTime"":3.17710000002387}]",space,3.1079,,396.8678,Not at all,0,396.8713,,,[],,0,9,9,9,1,audio/Narrative7Situation9.wav,audio/Narrative8Situation9.wav,audio/Narrative5Situation9.wav,audio/Narrative6Situation9.wav,2,3,3,4,,,,,,,,,,,,,,,,,,,,,,,,,,,,,,,,,,,,,,,
,,,,,,65b7ba948f5c3052140c24f8,2024-05-13_08h30.28.952,group3.1-3.2-social-tom,2023.2.2,Win32,60.24096386,65c5074098b851296ff0b7ed,664231601929a2231ab110f0,,,,,,,,,,,,,,,,,,,,,,,,,,,,,396.8718,1,audio/Narrative8Situation1.wav,401.8856,,401.8856,417.8347,"[[83.9,6185],[70,6268],[66.3,6351],[65.5,6435],[65.5,6518],[65.5,6613],[65.5,6697],[56.7,6781],[54.1,6865],[52.5,6947],[51.3,7031],[50.9,7113],[50.9,7197],[50.9,7280],[50.9,7363],[50.9,7438],[50.9,7522],[50.9,7605],[50.9,7688],[50.9,7780],[50.9,7855],[50.9,7947],[50.9,8018],[50.9,8113],[50.9,8198],[50.9,8281],[50.9,8362],[50.9,8448],[50.9,8531],[50.9,8606],[50.9,8697],[50.9,8781],[50.9,8864],[50.9,8947],[50.9,9031],[50.9,9101],[50.9,9197],[50.9,9269],[50.9,9364],[50.9,9440],[50.9,9530],[50.9,9606],[50.9,9697],[50.9,9781],[50.9,9864],[50.9,9947],[50.9,10023],[50.9,10114],[50.9,10189],[50.9,10281],[50.9,10364],[50.9,10448],[50.9,10523],[50.9,10614],[50.9,10689],[50.9,10782],[57.8,10870],[64.5,10953],[69.9,11036],[72.7,11120],[80.7,11203],[90,11286],[93.6,11369],[95.3,11453],[96.4,11536],[97.9,11620],[98.8,11704],[98.9,11786],[98.9,11869],[98.9,11952],[99.2,12037],[99.5,12133],[99.6,12215],[99.6,12289],[99.6,12382],[99.6,12457],[99.6,12548],[99.6,12623],[99.6,12715],[99.6,12799],[99.6,12882],[99.6,12965],[99.6,13049],[99.6,13132],[99.6,13215],[99.6,13286],[99.6,13381],[99.6,13465],[99.6,13548],[99.6,13623],[99.6,13715],[99.6,13791],[99.6,13881],[99.6,13957],[99.6,14049],[99.6,14123],[99.6,14215],[99.6,14298],[99.6,14382],[99.6,14465],[99.6,14549],[99.6,14623],[99.6,14715],[99.6,14792],[99.6,14881],[99.6,14957],[99.6,15049],[99.6,15131],[99.6,15204],[99.6,15290],[99.6,15384],[99.6,15456],[99.6,15549],[99.6,15632],[99.6,15715],[99.6,15790],[99.6,15882]]",1,0,417.835,425.9205,99.53333333,7.3938,"[{""rating"":99.53333333333335,""responseTime"":7.393799999952364}]",space,7.5235,,425.9205,Not at all,0,425.9224,,,[],,0,10,10,10,1,audio/Narrative8Situation1.wav,audio/Narrative7Situation1.wav,audio/Narrative6Situation1.wav,audio/Narrative5Situation1.wav,5,2,2,5,,,,,,,,,,,,,,,,,,,,,,,,,,,,,,,,,,,,,,,
,,,,,,65b7ba948f5c3052140c24f8,2024-05-13_08h30.28.952,group3.1-3.2-social-tom,2023.2.2,Win32,60.24096386,65c5074098b851296ff0b7ed,664231601929a2231ab110f0,,,,,,,,,,,,,,,,,,,,,,,,,,,,,425.9228,1,audio/Narrative8Situation2.wav,428.9381,,428.9381,439.0463,"[[63.7,4171],[55.1,4255],[52.9,4339],[50.7,4422],[50.1,4505],[50.1,4588],[50.1,4671],[50.1,4755],[50.1,4838],[50.1,4922],[50.1,5005],[50.1,5088],[50.1,5172],[50.1,5268],[50.1,5350],[50.1,5434],[50.1,5517],[50.1,5588],[50.1,5684],[50.1,5759],[50.1,5850],[50.1,5925],[50.1,6017],[50.1,6092],[50.1,6184],[50.1,6267],[50.1,6350],[50.1,6435],[26.3,6519],[16.6,6601],[16.6,6684],[16.6,6760],[16.6,6851],[16.6,6937],[16.6,7018],[16.6,7102],[7.4,7185],[4.7,7268],[4.2,7351],[3.5,7435],[1.9,7519],[1.4,7601],[0.9,7685],[0.9,7768],[0.9,7851],[0.9,7935],[0.6,8019],[0.5,8102],[0.2,8185]]",1,0,439.0471,443.042,0,1.4423,"[{""rating"":0,""responseTime"":1.4423000000715547}]",space,3.4518,,443.042,Partially,50,443.0442,,,[],,0,11,11,11,1,audio/Narrative8Situation2.wav,audio/Narrative7Situation2.wav,audio/Narrative6Situation2.wav,audio/Narrative5Situation2.wav,3,3,3,3,,,,,,,,,,,,,,,,,,,,,,,,,,,,,,,,,,,,,,,
,,,,,,65b7ba948f5c3052140c24f8,2024-05-13_08h30.28.952,group3.1-3.2-social-tom,2023.2.2,Win32,60.24096386,65c5074098b851296ff0b7ed,664231601929a2231ab110f0,,,,,,,,,,,,,,,,,,,,,,,,,,,,,443.0443,1,audio/Narrative8Situation3.wav,447.0588,,447.0589,469.4526,"[[50.2,1268],[50.2,1349],[50.2,1424],[50.2,1517],[50.2,1591],[50.2,1683],[50.2,1757],[50.2,1842],[50.2,1932],[50.2,2017],[50.2,2099],[50.2,2183],[50.2,2262],[50.2,2350],[50.2,2433],[50.2,2517],[50.2,2600],[50.2,2671],[50.2,2766],[50.2,2842],[50.2,2933],[50.2,3016],[50.2,3100],[50.2,3183],[50.2,3259],[50.2,3350],[50.2,3434],[50.2,3517],[50.2,3600],[50.2,3683],[50.2,3759],[50.2,3850],[50.2,3933],[50.2,4017],[50.2,4100],[50.2,4184],[50.2,4259],[50.2,4350],[50.2,4433],[50.2,4518],[50.2,4601],[50.2,4676],[50.2,4769],[50.2,4851],[50.2,4934],[50.2,5005],[50.2,5101],[50.2,5184],[50.2,5267],[50.2,5350],[50.2,5434],[50.2,5517],[50.2,5593],[50.2,5683],[50.2,5759],[50.2,5850],[50.2,5934],[50.2,6017],[50.2,6092],[50.2,6184],[50.2,6267],[50.2,6343],[50.2,6434],[50.2,6518],[50.2,6592],[50.2,6684],[50.2,6759],[50.2,6851],[50.2,6935],[50.2,7010],[50.2,7101],[50.2,7172],[38.5,7273],[29.3,7356],[23.1,7439],[17.4,7523],[12.7,7607],[7,7690],[2.6,7773],[2.3,7856],[2.3,7939],[2.3,8027],[1.7,8119],[0.7,8202],[0.2,8287],[0.2,8368],[0.2,8444],[0.2,8535],[0.2,8610],[0.2,8701],[0.2,8784],[0.2,8868],[0.2,8943],[0.2,9035],[0.2,9118],[0.2,9202],[0.2,9277],[0.2,9368],[0.2,9443],[0.2,9523],[0.2,9618],[0.2,9701],[0.2,9785],[0.2,9869],[0.2,9952],[0.2,10026],[0.2,10119],[0.2,10193],[0.2,10285],[0.2,10360],[0.2,10440],[0.2,10527],[0.2,10619],[0.2,10702],[0.2,10786],[0.2,10869],[0.2,10952],[0.2,11027],[0.2,11111],[0.2,11201],[0.2,11285],[0.2,11369],[0.2,11452],[0.2,11535],[0.2,11610],[0.2,11702],[0.2,11777],[0.2,11869],[0.2,11943],[0.2,12035],[0.2,12111],[0.2,12202],[0.2,12286],[0.2,12370],[0.2,12443],[0.2,12536],[0.2,12619],[0.2,12702],[0.2,12786],[0.2,12869],[0.2,12952],[0.2,13036],[0.2,13107],[0.2,13202],[0.2,13278],[0.2,13370],[0.2,13445],[0.2,13537],[0.2,13620],[0.2,13701],[0.2,13787],[0.2,13861],[0.2,13954],[0.2,14036],[0.2,14112],[0.2,14203],[0.2,14286],[0.2,14370],[0.2,14452],[0.2,14537],[0.2,14611],[0.2,14691],[0.2,14787],[0.2,14858],[0.2,14953],[0.2,15038],[0.2,15120],[0.2,15194],[0.2,15287],[0.2,15370],[0.2,15453],[0.2,15528],[0.2,15620],[0.2,15694],[0.2,15787],[0.2,15870],[0.2,15954],[0.2,16036],[0.2,16113],[0.2,16203],[0.2,16278],[0.2,16370],[0.2,16453],[0.2,16537],[0.2,16611],[0.2,16691],[0.2,16778],[0.2,16869],[0.2,16954],[0.2,17037],[0.2,17112],[0.2,17204],[0.2,17279],[0.2,17363],[0.2,17454],[0.2,17528],[0.2,17620],[0.2,17703],[0.2,17787],[0.2,17870],[0.2,17954],[0.2,18029],[0.2,18121],[0.2,18204],[0.2,18280],[0.2,18367],[0.2,18454],[0.2,18537],[0.2,18612],[0.2,18704],[0.2,18778],[0.2,18870],[0.2,18954],[0.2,19037],[0.2,19112],[0.2,19204],[0.2,19287],[0.2,19371],[0.2,19454],[0.2,19538],[0.2,19612],[0.2,19704],[0.2,19779],[0.2,19863],[0.2,19946],[0.2,20039],[0.2,20120],[0.2,20204],[0.2,20288],[0.2,20371],[0.2,20454],[0.2,20529],[0.2,20620],[0.2,20696],[0.2,20780],[0.2,20863],[0.2,20942],[0.2,21037],[0.2,21113],[0.2,21204],[0.2,21276],[0.2,21371],[0.2,21455],[0.2,21539],[0.2,21621],[0.2,21704],[0.2,21779],[0.2,21872],[0.2,21954],[0.2,22038],[0.2,22121],[0.2,22205],[0.2,22288],[1.5,22383]]",1,0,469.4528,471.2487,0.333333333,1.5341,"[{""rating"":0.3333333333333355,""responseTime"":1.534100000023841}]",space,1.265,,471.2487,Partially,50,471.2502,,,[],,0,12,12,12,1,audio/Narrative8Situation3.wav,audio/Narrative7Situation3.wav,audio/Narrative6Situation3.wav,audio/Narrative5Situation3.wav,4,8,5,3,,,,,,,,,,,,,,,,,,,,,,,,,,,,,,,,,,,,,,,
,,,,,,65b7ba948f5c3052140c24f8,2024-05-13_08h30.28.952,group3.1-3.2-social-tom,2023.2.2,Win32,60.24096386,65c5074098b851296ff0b7ed,664231601929a2231ab110f0,,,,,,,,,,,,,,,,,,,,,,,,,,,,,471.2504,1,audio/Narrative8Situation4.wav,474.2506,,474.2507,488.4357,"[[31.8,1183],[37.5,1266],[40.1,1350],[41.2,1432],[41.2,1506],[41.2,1597],[41.2,1672],[41.2,1765],[47.5,1849],[52.9,1933],[53.9,2015],[53.9,2095],[53.9,2182],[53.9,2264],[53.9,2348],[53.9,2423],[53.9,2515],[53.9,2598],[53.9,2681],[53.9,2765],[53.9,2848],[53.9,2932],[53.9,3006],[53.9,3098],[53.9,3172],[53.9,3264],[53.9,3340],[53.9,3432],[53.9,3515],[53.9,3590],[53.9,3682],[53.9,3766],[53.9,3840],[53.9,3923],[53.9,4015],[53.9,4099],[53.9,4181],[53.9,4266],[53.9,4348],[53.9,4423],[53.9,4516],[53.9,4591],[53.9,4683],[53.9,4757],[53.9,4841],[53.9,4924],[53.9,5016],[53.9,5099],[53.9,5183],[53.9,5266],[53.9,5341],[53.9,5432],[53.9,5516],[53.9,5592],[53.9,5674],[53.9,5766],[53.9,5849],[53.9,5932],[53.9,6016],[53.9,6099],[53.9,6174],[53.9,6266],[53.9,6340],[53.9,6432],[53.9,6515],[53.9,6600],[53.9,6674],[53.9,6758],[53.9,6841],[53.9,6923],[53.9,7015],[53.9,7099],[53.9,7182],[53.9,7257],[53.9,7349],[53.9,7425],[53.9,7516],[53.9,7591],[53.9,7683],[53.9,7763],[53.9,7849],[53.9,7924],[53.9,8005],[53.9,8099],[53.9,8183],[53.9,8266],[53.9,8350],[53.9,8424],[53.9,8510],[53.9,8592],[53.9,8673],[53.9,8767],[53.9,8846],[53.9,8933],[53.9,9017],[53.9,9091],[53.9,9184],[53.9,9258],[53.9,9340],[53.9,9433],[53.9,9508],[53.9,9600],[53.9,9675],[53.9,9754],[53.9,9842],[53.9,9934],[53.9,10008],[53.9,10100],[53.9,10171],[53.9,10267],[53.9,10350],[53.9,10434],[53.9,10517],[53.9,10588],[53.9,10683],[53.9,10767],[53.9,10850],[53.9,10934],[53.9,11016],[53.9,11092],[53.9,11184],[53.9,11267],[53.9,11351],[53.9,11434],[53.9,11508],[65.9,11606],[72.3,11689],[74,11773],[79.1,11856],[85.5,11939],[86.4,12022],[86.4,12106],[86.4,12201],[86.4,12276],[95.4,12369],[98.2,12452],[99.5,12535],[99.6,12618],[99.7,12701],[99.7,12775],[99.7,12868],[99.7,12951],[99.7,13035],[99.7,13109],[99.7,13202],[99.7,13287],[99.7,13365],[100,13452],[100,13535],[100,13618],[100,13692],[100,13784],[100,13867],[100,13952],[100,14034],[100,14119]]",1,0,488.4359,490.8202,98.53333333,1.6836,"[{""rating"":98.53333333333335,""responseTime"":1.68360000002383}]",space,1.8223,,490.8202,Not at all,0,490.823,,,[],,0,13,13,13,1,audio/Narrative8Situation4.wav,audio/Narrative7Situation4.wav,audio/Narrative6Situation4.wav,audio/Narrative5Situation4.wav,3,3,2,1,,,,,,,,,,,,,,,,,,,,,,,,,,,,,,,,,,,,,,,
,,,,,,65b7ba948f5c3052140c24f8,2024-05-13_08h30.28.952,group3.1-3.2-social-tom,2023.2.2,Win32,60.24096386,65c5074098b851296ff0b7ed,664231601929a2231ab110f0,,,,,,,,,,,,,,,,,,,,,,,,,,,,,490.8233,1,audio/Narrative8Situation5.wav,492.827,,492.827,501.0727,[],1,0,501.0728,504.0073,99.13333333,1.5344,"[{""rating"":99.13333333333334,""responseTime"":1.5343999999761877}]",space,2.3932,,504.0074,Partially,50,504.0107,,,[],,0,14,14,14,1,audio/Narrative8Situation5.wav,audio/Narrative7Situation5.wav,audio/Narrative6Situation5.wav,audio/Narrative5Situation5.wav,2,5,2,5,,,,,,,,,,,,,,,,,,,,,,,,,,,,,,,,,,,,,,,
,,,,,,65b7ba948f5c3052140c24f8,2024-05-13_08h30.28.952,group3.1-3.2-social-tom,2023.2.2,Win32,60.24096386,65c5074098b851296ff0b7ed,664231601929a2231ab110f0,,,,,,,,,,,,,,,,,,,,,,,,,,,,,504.0109,1,audio/Narrative8Situation6.wav,506.0239,,506.0239,512.5086,[],1,0,512.5087,515.5101,99.73333333,2.4245,"[{""rating"":99.73333333333333,""responseTime"":2.4244999999999663}]",space,2.4678,,515.5101,Definitely yes,100,515.5122,,,[],,0,15,15,15,1,audio/Narrative8Situation6.wav,audio/Narrative7Situation6.wav,audio/Narrative6Situation6.wav,audio/Narrative5Situation6.wav,2,3,2,3,,,,,,,,,,,,,,,,,,,,,,,,,,,,,,,,,,,,,,,
,,,,,,65b7ba948f5c3052140c24f8,2024-05-13_08h30.28.952,group3.1-3.2-social-tom,2023.2.2,Win32,60.24096386,65c5074098b851296ff0b7ed,664231601929a2231ab110f0,,,,,,,,,,,,,,,,,,,,,,,,,,,,,515.5124,1,audio/Narrative8Situation7.wav,518.5273,,518.5273,530.6299,"[[79.5,7026],[50.5,7106],[46.2,7190],[46.2,7272],[46.2,7355],[46.2,7451],[40.7,7535],[28.1,7619],[27.4,7701],[27.4,7775],[27.4,7868],[27.4,7951],[24.4,8036],[18.3,8119],[18.2,8201],[18.2,8276],[18.2,8355],[18.2,8441],[18.2,8534],[18.2,8618],[18.2,8701],[18.2,8784],[18.2,8867],[18.2,8942],[18.2,9034],[18.2,9109],[18.2,9192],[18.2,9285],[18.2,9368],[18.2,9451],[18.2,9526],[18.2,9620],[18.2,9700],[18.2,9776],[18.2,9868],[18.2,9951],[18.2,10034],[18.2,10117],[18.2,10189],[13.1,10286],[11.9,10369],[10.2,10453],[8,10536],[4.1,10620],[2.5,10702],[1.9,10785],[1.4,10868],[1,10952],[0.7,11036],[0.7,11109],[0.7,11202],[0.7,11284],[0.7,11360],[0.7,11443],[0.7,11534],[0.7,11618],[0.7,11702],[0.7,11785],[0.7,11869],[0.7,11951],[0.7,12036]]",1,0,530.63,531.9135,0.066666667,1.0333,"[{""rating"":0.06666666666666488,""responseTime"":1.0332999999523054}]",space,0.751,,531.9135,Definitely yes,100,531.9151,,,[],,0,16,16,16,1,audio/Narrative8Situation7.wav,audio/Narrative7Situation7.wav,audio/Narrative6Situation7.wav,audio/Narrative5Situation7.wav,3,5,5,4,,,,,,,,,,,,,,,,,,,,,,,,,,,,,,,,,,,,,,,
,,,,,,65b7ba948f5c3052140c24f8,2024-05-13_08h30.28.952,group3.1-3.2-social-tom,2023.2.2,Win32,60.24096386,65c5074098b851296ff0b7ed,664231601929a2231ab110f0,,,,,,,,,,,,,,,,,,,,,,,,,,,,,531.9154,1,audio/Narrative8Situation8.wav,534.9222,,534.9224,547.7836,"[[31.8,1009],[35.4,1093],[36.5,1176],[36.7,1259],[36.7,1333],[36.7,1425],[36.7,1505],[36.7,1583],[36.7,1676],[36.7,1759],[41.9,1843],[47.7,1926],[48.1,2009],[48.1,2092],[48.1,2166],[48.1,2258],[48.1,2342],[48.1,2425],[48.1,2505],[48.1,2592],[48.1,2674],[48.1,2759],[48.1,2833],[48.1,2917],[48.1,3008],[48.1,3083],[48.1,3175],[48.1,3258],[48.1,3342],[48.1,3425],[48.1,3509],[48.1,3592],[48.1,3667],[48.1,3749],[48.1,3842],[48.1,3921],[48.1,4009],[48.1,4084],[48.1,4176],[48.1,4250],[48.1,4343],[48.1,4417],[48.1,4509],[48.1,4592],[48.1,4676],[48.1,4758],[48.1,4839],[48.1,4926],[48.1,5000],[48.1,5093],[48.1,5175],[48.1,5259],[48.1,5333],[48.1,5414],[48.1,5501],[48.1,5585],[48.1,5675],[48.1,5759],[48.1,5842],[48.1,5926],[48.1,6009],[48.1,6092],[48.1,6167],[48.1,6259],[48.1,6334],[48.1,6431],[48.5,6515],[49.3,6598],[49.7,6681],[49.7,6764],[49.7,6847],[49.7,6931],[49.7,7014],[49.7,7099],[49.7,7181],[49.7,7277],[49.7,7351],[49.7,7444],[49.7,7523],[49.7,7601],[49.7,7693],[49.7,7768],[49.7,7860],[49.7,7943],[49.7,8027],[49.7,8102],[49.7,8185],[49.7,8276],[49.7,8352],[49.7,8434],[49.7,8527],[49.7,8601],[49.7,8694],[49.7,8776],[49.7,8861],[49.7,8936],[49.7,9025],[49.7,9110],[49.7,9190],[49.7,9268],[49.7,9352],[49.7,9443],[49.7,9527],[49.7,9610],[49.7,9693],[49.7,9776],[49.7,9852],[49.7,9944],[49.7,10027],[49.7,10110],[49.7,10194],[49.7,10277],[49.7,10361],[49.7,10444],[49.7,10527],[49.7,10610],[49.7,10687],[49.7,10769],[49.7,10860],[49.7,10944],[49.7,11027],[49.7,11102],[49.7,11194],[49.7,11265],[49.7,11360],[49.7,11444],[49.7,11527],[49.7,11610],[49.7,11694],[49.7,11777],[49.7,11860],[49.7,11944],[49.7,12027],[49.7,12110],[49.7,12194],[49.7,12269],[49.7,12360],[49.7,12444],[49.7,12527],[49.7,12603],[49.7,12694],[49.7,12769],[49.7,12860]]",1,0,547.7839,549.8518,0.8,1.7345,"[{""rating"":0.8000000000000007,""responseTime"":1.7345000000000255}]",space,1.5336,,549.8518,Partially,50,549.8545,,,[],,0,17,17,17,1,audio/Narrative8Situation8.wav,audio/Narrative7Situation8.wav,audio/Narrative6Situation8.wav,audio/Narrative5Situation8.wav,3,2,5,3,,,,,,,,,,,,,,,,,,,,,,,,,,,,,,,,,,,,,,,
,,,,,,65b7ba948f5c3052140c24f8,2024-05-13_08h30.28.952,group3.1-3.2-social-tom,2023.2.2,Win32,60.24096386,65c5074098b851296ff0b7ed,664231601929a2231ab110f0,,,,,,,,,,,,,,,,,,,,,,,,,,,,,549.8547,1,audio/Narrative8Situation9.wav,552.8591,,552.8592,564.1715,"[[41.1,927],[47.7,1010],[50.5,1094],[51.2,1168],[51.2,1256],[51.2,1334],[51.2,1417],[51.2,1509],[51.2,1592],[51.2,1676],[51.2,1760],[51.2,1834],[51.2,1927],[51.2,2009],[51.2,2086],[51.2,2176],[51.2,2260],[21.7,2344],[9.1,2427],[7.4,2509],[5.7,2594],[2.5,2677],[1.4,2761],[0.9,2843],[0.7,2918],[0.7,3009],[0.7,3092],[0.7,3175],[0.7,3260],[0.7,3344],[0.5,3427],[0.1,3510]]",1,0,564.1716,566.7528,0.733333333,1.9887,"[{""rating"":0.7333333333333358,""responseTime"":1.9887000000477428}]",space,2.0508,,566.7528,Not at all,0,566.7562,,,[],,0,18,18,18,1,audio/Narrative8Situation9.wav,audio/Narrative7Situation9.wav,audio/Narrative6Situation9.wav,audio/Narrative5Situation9.wav,3,2,4,3,,,,,,,,,,,,,,,,,,,,,,,,,,,,,,,,,,,,,,,
,,,,,,65b7ba948f5c3052140c24f8,2024-05-13_08h30.28.952,group3.1-3.2-social-tom,2023.2.2,Win32,60.24096386,65c5074098b851296ff0b7ed,664231601929a2231ab110f0,,,,,,,,,,,,,,,,,,,,,,,,,,,572.0542,574.6405,574.6585,2,audio/Narrative13Situation2.wav,574.6587,,574.6587,604.4195,"[[1.5,6592],[2.3,6671],[2.4,6754],[3.5,6838],[3.5,6921],[3.5,7004],[3.5,7089],[3.9,7171],[4,7254],[4.3,7338],[4.9,7422],[4.9,7505],[4.3,7589],[3.1,7672],[0.7,7755],[0.5,7838],[0.5,7921],[0.5,8005],[0.5,8088],[0.3,8171],[0.2,8255],[0.1,8338],[0.1,8422],[26.7,9185],[29.9,9259],[29.9,9350],[29.9,9425],[32.5,9518],[45.1,9602],[45.3,9684],[45.3,9755],[45.3,9851],[65.9,9935],[89.3,10769],[90.1,10852],[90.9,10936],[91.9,11020],[97.1,11102],[98.5,11186],[98.5,11268],[98.5,11351],[98.5,11423],[98.5,11509],[99.1,11602],[99.2,11675],[99.5,11768],[99.6,11843],[100,11934],[100,12009],[100,12093],[100,12184],[100,12260],[100,12350],[100,12434],[100,12518],[100,12601],[100,12684],[100,12768],[100,12843],[100,12927],[100,13010],[100,13101],[100,13175],[100,13268],[100,13343],[100,13426],[100,13518],[100,13593],[100,13684],[100,13768],[100,13851],[100,13934],[100,14019],[100,14101],[100,14185],[100,14268],[100,14339],[100,14434],[100,14518],[100,14598],[100,14677],[100,14760],[100,14852],[100,14935],[100,15018],[100,15093],[100,15185],[100,15256],[100,15351],[100,15427],[100,15519],[100,15592],[100,15685],[100,15760],[100,15852],[100,15935],[100,16019],[100,16102],[100,16185],[100,16268],[100,16340],[100,16435],[100,16519],[100,16602],[100,16677],[100,16768],[100,16852],[100,16936],[100,17010],[100,17102],[100,17185],[100,17260],[100,17352],[100,17435],[100,17519],[100,17602],[100,17685],[100,17760],[100,17852],[100,17932],[100,18019],[100,18102],[100,18187],[100,18269],[100,18344],[100,18436],[100,18519],[100,18602],[100,18686],[100,18761],[100,18844],[100,18936],[100,19019],[100,19103],[100,19177],[100,19269],[100,19352],[100,19436],[100,19520],[100,19602],[100,19687],[100,19761],[100,19853],[100,19937],[100,20020],[100,20103],[100,20178],[100,20270],[100,20354],[100,20437],[100,20520],[100,20603],[100,20678],[100,20762],[100,20854],[100,20937],[100,21020],[100,21103],[100,21178],[100,21270],[100,21345],[100,21438],[100,21520],[100,21604],[100,21687],[100,21771],[100,21853],[100,21928],[100,22012],[100,22095],[100,22186],[100,22271],[100,22354],[100,22438],[100,22512],[100,22595],[100,22687],[100,22766],[100,22854],[100,22929],[100,23021],[100,23103],[100,23178],[100,23270],[100,23345],[100,23437],[100,23512],[100,23604],[100,23678],[100,23771],[100,23854],[100,23925],[100,24012],[100,24104],[100,24187],[100,24271],[100,24354],[100,24425],[100,24520],[100,24596],[100,24689],[100,24762],[100,24854],[100,24928],[100,25021],[100,25104],[100,25187],[100,25263],[100,25346],[100,25437],[100,25521],[100,25603],[100,25687],[100,25771],[100,25845],[100,25938],[100,26021],[100,26105],[100,26179],[100,26260],[100,26346],[100,26439],[100,26521],[100,26605],[100,26680],[100,26772],[100,26855],[100,26930],[100,27021],[100,27105],[100,27188],[100,27272],[100,27356],[100,27439],[100,27522],[100,27605],[100,27688],[100,27763],[100,27856],[100,27938],[100,28022],[100,28105],[100,28180],[100,28272],[100,28356],[100,28439],[100,28522],[100,28606],[100,28683],[100,28772],[100,28856],[100,28939],[100,29014],[100,29106],[100,29189],[100,29272],[100,29355],[100,29431],[99.1,29528],[99.1,29610],[99.1,29693]]",1,0,604.42,604.4242,,,[],,,,604.4243,Not at all,0,604.4287,,,[],,0,0,0,0,1,audio/Narrative13Situation2.wav,audio/Narrative13Situation2.wav,audio/Narrative13Situation2.wav,audio/Narrative13Situation2.wav,2,2,2,2,,,,,566.7572,572.0456,space,4.7676,,,,,,,,,,,,,,,,,,,,,,,,,,,,,,,
,,,,,,65b7ba948f5c3052140c24f8,2024-05-13_08h30.28.952,group3.1-3.2-social-tom,2023.2.2,Win32,60.24096386,65c5074098b851296ff0b7ed,664231601929a2231ab110f0,,,,,,,,,,,,,,,,,,,,,,,,,,,,,604.4294,2,audio/Narrative5Situation1.wav,609.4323,,609.4323,622.6941,"[[58,4189],[53.3,4272],[51.3,4356],[50.2,4438],[49.8,4522],[49.5,4605],[49.5,4689],[49.5,4772],[49.5,4868],[49.5,4942],[49.5,5034],[49.5,5110],[49.5,5189],[49.5,5276],[49.5,5368],[49.5,5443],[49.5,5535],[49.5,5609],[49.5,5702],[49.5,5776],[49.5,5868],[49.5,5943],[49.5,6026],[49.5,6118],[49.5,6195],[49.5,6285],[49.5,6364],[49.5,6451],[49.5,6532],[49.5,6606],[49.5,6693],[49.5,6787],[49.5,6868],[49.5,6952],[49.5,7035],[49.5,7118],[49.5,7202],[49.5,7285],[49.5,7368],[49.5,7444],[49.5,7535],[49.5,7618],[49.5,7702],[49.5,7776],[49.5,7868],[49.5,7952],[49.5,8035],[49.5,8118],[49.5,8202],[49.5,8277],[49.5,8369],[49.5,8443],[49.5,8528],[49.5,8618],[49.5,8702],[49.5,8777],[49.5,8862],[49.5,8952],[49.5,9027],[49.5,9119],[49.5,9194],[49.5,9285],[49.5,9360],[49.5,9452],[49.5,9536],[49.5,9619],[49.5,9702],[49.5,9786],[49.5,9869],[49.5,9952],[49.5,10027],[49.5,10110],[36.1,10210],[23.6,10291],[14.3,10374],[8.7,10457],[3.2,10541]]",1,0,622.6944,626.1211,0.333333333,3.1671,"[{""rating"":0,""responseTime"":2.16339999997615},{""rating"":0.3333333333333355,""responseTime"":3.1671000000237655}]",space,2.8925,,626.1212,Definitely yes,100,626.1241,,,[],,0,1,1,1,1,audio/Narrative7Situation1.wav,audio/Narrative8Situation1.wav,audio/Narrative5Situation1.wav,audio/Narrative6Situation1.wav,2,5,5,2,,,,,,,,,,,,,,,,,,,,,,,,,,,,,,,,,,,,,,,
,,,,,,65b7ba948f5c3052140c24f8,2024-05-13_08h30.28.952,group3.1-3.2-social-tom,2023.2.2,Win32,60.24096386,65c5074098b851296ff0b7ed,664231601929a2231ab110f0,,,,,,,,,,,,,,,,,,,,,,,,,,,,,626.1244,2,audio/Narrative5Situation2.wav,627.6256,space,627.6258,657.1027,"[[0.8,21621],[0.8,21704],[0.8,21787],[0.8,21873],[0.8,21966],[0.8,22050],[0.8,22125],[0.8,22216],[0.8,22301],[0.8,22383],[0.8,22466],[0.8,22549],[0.8,22633],[0.8,22716],[0.8,22791],[0.8,22883],[0.8,22958],[0.8,23042],[0.8,23125],[0.8,23217],[0.8,23291],[0.8,23383],[0.8,23467],[0.8,23542],[0.8,23633],[0.8,23717],[0.8,23800],[0.8,23883],[0.8,23967],[0.8,24051],[0.8,24133],[0.8,24209],[0.8,24300],[0.8,24375],[0.8,24467],[0.8,24550],[0.8,24633],[0.8,24717],[0.8,24801],[0.8,24884],[0.8,24968],[0.8,25050],[0.8,25134],[0.8,25217],[0.8,25294],[0.8,25384],[0.8,25467],[0.8,25550],[0.8,25625],[0.8,25717],[0.8,25800],[0.8,25884],[0.8,25967],[0.8,26050],[0.8,26133],[0.8,26217],[0.8,26300],[0.8,26375],[0.8,26467],[0.8,26550],[0.8,26627],[0.8,26717],[0.8,26801],[0.8,26884],[0.8,26959],[0.8,27050],[0.8,27125],[0.8,27217],[0.8,27301],[0.8,27384],[0.8,27467],[0.8,27551],[0.8,27634],[0.8,27718],[0.8,27793],[0.8,27875],[0.8,27967],[0.8,28042],[0.8,28134],[0.8,28218],[0.8,28301],[0.8,28376],[0.8,28468],[0.8,28552],[0.8,28635],[0.8,28710],[0.8,28793],[0.8,28884],[0.8,28968],[0.8,29052],[0.8,29135],[0.8,29206],[0.8,29301],[0.8,29376],[0.9,29476]]",1,0,657.1029,659.7833,0.666666667,2.3058,"[{""rating"":0.6666666666666654,""responseTime"":2.3057999999523418}]",space,2.1411,,659.7835,Not at all,0,659.7919,,,[],,0,2,2,2,1,audio/Narrative7Situation2.wav,audio/Narrative8Situation2.wav,audio/Narrative5Situation2.wav,audio/Narrative6Situation2.wav,3,3,3,3,1.4826,,,,,,,,,,,,,,,,,,,,,,,,,,,,,,,,,,,,,,
,,,,,,65b7ba948f5c3052140c24f8,2024-05-13_08h30.28.952,group3.1-3.2-social-tom,2023.2.2,Win32,60.24096386,65c5074098b851296ff0b7ed,664231601929a2231ab110f0,,,,,,,,,,,,,,,,,,,,,,,,,,,,,659.7924,2,audio/Narrative5Situation3.wav,662.8005,,662.8006,676.6987,"[[1.3,1930],[2,2012],[2.1,2095],[2.1,2171],[1.9,2262],[1.9,2346],[1.9,2429],[1.9,2503],[1.9,2587],[1.9,2671],[1.9,2762],[1.9,2837],[1.9,2929],[1.9,3012],[1.9,3095],[1.9,3178],[17.5,3263],[68.8,3346],[70.8,3429],[70.8,3512],[70.8,3594],[76.1,3680],[85.5,3762],[91,3847],[94.5,3929],[96.1,4013],[97.5,4096],[98.8,4180],[99.5,4264],[99.7,4346],[100,4430],[100,4513],[100,4596],[100,4679],[100,4762],[100,4846],[100,4929],[100,5012],[100,5095],[100,5179],[100,5262],[100,5346],[100,5421],[100,5512],[100,5596],[100,5672],[100,5754],[100,5846],[100,5929],[100,6012],[100,6088],[100,6180],[99.9,6263],[99.9,6346],[99.8,6429],[99.8,6513],[99.8,6596],[99.8,6671],[99.8,6763],[99.8,6847],[99.8,6929],[99.8,7005],[99.8,7096],[99.8,7171],[99.8,7263],[99.8,7346],[99.8,7429],[99.8,7513],[99.8,7596],[99.8,7680],[99.8,7763],[99.8,7838],[99.8,7930],[99.8,8013],[99.8,8096],[99.8,8181],[99.8,8263],[99.8,8347],[99.8,8429],[99.8,8513],[99.8,8597],[99.8,8680],[99.8,8764],[99.8,8847],[99.8,8930],[99.8,9014],[99.8,9097],[99.8,9180],[99.8,9263],[99.8,9347],[99.8,9430],[99.8,9505],[99.8,9596],[99.8,9680],[99.8,9764],[99.8,9847],[99.8,9930],[99.8,10014],[99.8,10098],[99.8,10181],[99.8,10256],[99.8,10339],[99.8,10431],[99.8,10514],[99.8,10585],[99.8,10680],[99.8,10765],[99.8,10847],[99.8,10923],[99.8,11014],[99.8,11088],[99.8,11169],[99.8,11256],[99.8,11348],[99.8,11423],[99.8,11506],[99.8,11589],[99.8,11673],[99.8,11764],[99.8,11847],[99.8,11931],[99.8,12014],[99.8,12086],[99.8,12181],[99.8,12264],[99.8,12338],[99.8,12423],[99.8,12514],[99.8,12598],[99.8,12681],[99.8,12765],[99.8,12839],[99.8,12931],[99.8,13014],[99.8,13098],[99.8,13181],[99.8,13264],[99.8,13339],[99.8,13431],[99.8,13515],[99.8,13598],[99.8,13681],[99.8,13764],[99.8,13839]]",1,0,676.6989,678.0673,99.33333333,0.7681,"[{""rating"":99.33333333333334,""responseTime"":0.7681000000238782}]",space,0.8334,,678.0673,Definitely yes,100,678.0696,,,[],,0,3,3,3,1,audio/Narrative7Situation3.wav,audio/Narrative8Situation3.wav,audio/Narrative5Situation3.wav,audio/Narrative6Situation3.wav,8,4,3,5,,,,,,,,,,,,,,,,,,,,,,,,,,,,,,,,,,,,,,,
,,,,,,65b7ba948f5c3052140c24f8,2024-05-13_08h30.28.952,group3.1-3.2-social-tom,2023.2.2,Win32,60.24096386,65c5074098b851296ff0b7ed,664231601929a2231ab110f0,,,,,,,,,,,,,,,,,,,,,,,,,,,,,678.0699,2,audio/Narrative5Situation4.wav,679.0741,,679.0742,699.4902,"[[99.4,15604],[99.1,15683],[99.1,15767],[99.1,15851],[99.1,15934],[99.5,16020],[99.5,16106],[99.6,16196],[99.7,16279],[100,16355],[100,16446],[100,16522],[100,16604],[100,16696],[100,16779],[100,16862],[100,16937],[100,17029],[100,17104],[100,17196],[100,17279],[100,17363],[100,17446],[100,17521],[100,17612],[100,17684],[100,17778],[100,17854],[100,17937],[100,18030],[100,18105],[100,18187],[100,18271],[100,18354],[100,18446],[100,18529],[100,18613],[100,18696],[100,18779],[100,18855],[100,18947],[100,19022],[100,19113],[100,19196],[100,19280],[100,19363],[100,19438],[100,19529],[100,19603],[100,19696],[100,19780],[100,19864],[100,19938],[100,20030],[100,20105],[100,20197],[100,20271],[100,20352]]",1,0,699.4904,700.623,99.66666667,0.8041,"[{""rating"":99.66666666666666,""responseTime"":0.8041000000238228}]",space,0.5845,,700.623,Partially,50,700.6254,,,[],,0,4,4,4,1,audio/Narrative7Situation4.wav,audio/Narrative8Situation4.wav,audio/Narrative5Situation4.wav,audio/Narrative6Situation4.wav,3,3,1,2,,,,,,,,,,,,,,,,,,,,,,,,,,,,,,,,,,,,,,,
,,,,,,65b7ba948f5c3052140c24f8,2024-05-13_08h30.28.952,group3.1-3.2-social-tom,2023.2.2,Win32,60.24096386,65c5074098b851296ff0b7ed,664231601929a2231ab110f0,,,,,,,,,,,,,,,,,,,,,,,,,,,,,700.6256,2,audio/Narrative5Situation5.wav,705.6278,,705.6279,721.0445,[],1,0,721.0446,723.8123,0.533333333,2.1081,"[{""rating"":0.5333333333333357,""responseTime"":2.1081000000237964}]",space,2.2308,,723.8123,Partially,50,723.8144,,,[],,0,5,5,5,1,audio/Narrative7Situation5.wav,audio/Narrative8Situation5.wav,audio/Narrative5Situation5.wav,audio/Narrative6Situation5.wav,5,2,5,2,,,,,,,,,,,,,,,,,,,,,,,,,,,,,,,,,,,,,,,
,,,,,,65b7ba948f5c3052140c24f8,2024-05-13_08h30.28.952,group3.1-3.2-social-tom,2023.2.2,Win32,60.24096386,65c5074098b851296ff0b7ed,664231601929a2231ab110f0,,,,,,,,,,,,,,,,,,,,,,,,,,,,,723.8148,2,audio/Narrative5Situation6.wav,726.8171,,726.8172,732.4976,"[[999,1],[999,93],[999,169],[999,260],[999,344],[999,428],[999,510],[999,594],[999,678],[999,753],[999,836],[999,927],[999,1011],[999,1086],[999,1165],[999,1253],[999,1345],[999,1419],[999,1512],[999,1592],[999,1665],[999,1762],[999,1846],[999,1928],[999,2011],[999,2095],[999,2179],[999,2253],[999,2346],[84.8,2437],[84.8,2517],[84.8,2599],[84.8,2682],[84.8,2766],[86.1,2851],[93.9,2935],[96.7,3018],[96.9,3100],[96.9,3183],[96.9,3266],[96.9,3362],[96.9,3445],[96.9,3528],[85,3613],[67,3696],[60.9,3779],[56.8,3862],[54.3,3947],[50.7,4030],[50.1,4112],[50.1,4187],[49.9,4278],[49.9,4353],[49.9,4445],[49.9,4520],[49.9,4612],[49.9,4694],[49.9,4779],[49.9,4862],[49.9,4935],[49.9,5029],[49.9,5104],[49.9,5195],[49.9,5279],[49.9,5354],[49.9,5446],[49.9,5525],[49.9,5612]]",1,0,732.4977,735.514,0.133333333,2.6906,"[{""rating"":0.1333333333333353,""responseTime"":2.6905999999046344}]",space,2.4836,,735.5141,Not at all,0,744.0344,0,7.2839,"[{""rating"":0.20000000000000018,""responseTime"":4.482799999952249},{""rating"":0,""responseTime"":7.283899999976143}]",space,0,6,6,6,1,audio/Narrative7Situation6.wav,audio/Narrative8Situation6.wav,audio/Narrative5Situation6.wav,audio/Narrative6Situation6.wav,3,2,3,2,,,7.9713,,,,,,,,,,,,,,,,,,,,,,,,,,,,,,,,,,,,
,,,,,,65b7ba948f5c3052140c24f8,2024-05-13_08h30.28.952,group3.1-3.2-social-tom,2023.2.2,Win32,60.24096386,65c5074098b851296ff0b7ed,664231601929a2231ab110f0,,,,,,,,,,,,,,,,,,,,,,,,,,,,,744.0346,2,audio/Narrative5Situation7.wav,748.0415,,748.0416,769.0886,"[[39.1,2426],[41.5,2510],[41.5,2584],[41.5,2676],[41.5,2751],[42.2,2835],[49.6,2927],[50,3009],[50,3093],[50,3176],[50,3259],[50,3334],[50,3413],[50,3509],[50,3592],[50,3675],[50,3759],[50,3842],[50,3917],[50,4009],[50,4092],[50,4176],[50,4259],[50,4343],[50,4418],[50,4509],[50,4592],[50,4676],[50,4759],[50,4843],[50,4926],[50,5010],[50,5084],[50,5169],[50,5259],[50,5344],[50,5417],[50,5502],[50,5585],[50,5676],[50,5751],[50,5843],[50,5918],[50,6009],[50,6083],[50,6177],[50,6251],[50,6343],[50,6419],[50,6501],[50,6592],[50,6664],[50,6759],[50,6843],[50,6927],[50,7001],[50,7093],[50,7176],[50,7252],[50,7343],[50,7419],[50,7502],[50,7593],[50,7676],[50,7760],[50,7835],[50,7927],[50,8002],[50,8094],[50,8176],[50,8260],[50,8343],[50,8426],[50,8510],[50,8593],[50,8677],[50,8761],[50,8843],[50,8918],[50,9011],[50,9094],[50,9167],[50,9260],[50,9341],[50,9427],[50,9511],[50,9590],[50,9677],[50,9760],[50,9843],[50,9927],[50,10010],[50,10093],[50,10177],[50,10260],[50,10336],[50,10426],[50,10511],[50,10586],[50,10677],[50,10761],[50,10844],[50,10927],[50,11010],[50,11095],[50,11177],[50,11261],[50,11345],[50,11428],[50,11511],[50,11594],[50,11678],[50,11761],[50,11844],[50,11919],[50,12011],[50,12086],[50,12178],[50,12252],[50,12344],[50,12427],[50,12503],[50,12595],[50,12678],[50,12761],[50,12845],[50,12928],[50,13012],[50,13086],[50,13170],[50,13261],[50,13345],[50,13428],[50,13512],[50,13587],[50,13678],[50,13761],[50,13845],[50,13919],[50,14012],[50,14095],[50,14179],[50,14253],[50,14345],[50,14428],[50,14511],[50,14587],[50,14679],[50,14753],[50,14845],[50,14928],[50,15006],[50,15086],[50,15179],[50,15262],[50,15345],[50,15419],[50,15511],[50,15595],[50,15667],[50,15753],[50,15838],[50,15920],[50,16012],[50,16095],[50,16170],[50,16261],[50,16345],[50,16428],[50,16504],[50,16588],[50,16670],[50,16762],[50,16845],[50,16929],[50,17003],[50,17096],[50,17179],[50,17262],[50,17346],[50,17429],[50,17504],[50,17588],[50,17678],[50,17757],[50,17846],[50,17920],[50,18012],[50,18088],[50,18179],[50,18262],[50,18346],[50,18425],[50,18513],[50,18596],[50,18671],[50,18755],[50,18846],[50,18930],[50,19013],[50,19096],[50,19180],[50,19254],[50,19345],[50,19430],[50,19513],[50,19597],[50,19680],[50,19763],[50,19846],[50,19930],[50,20013],[50,20087],[50,20180],[50,20254],[50,20348],[50,20421],[50,20501],[50,20588],[50,20680],[50,20763],[50,20846],[50,20930],[50,21013]]",1,0,769.0888,771.1235,0.066666667,1.5501,"[{""rating"":0.06666666666666488,""responseTime"":1.5501000000239173}]",space,1.4944,,771.1235,Not at all,0,771.1248,,,[],,0,7,7,7,1,audio/Narrative7Situation7.wav,audio/Narrative8Situation7.wav,audio/Narrative5Situation7.wav,audio/Narrative6Situation7.wav,5,3,4,5,,,,,,,,,,,,,,,,,,,,,,,,,,,,,,,,,,,,,,,
,,,,,,65b7ba948f5c3052140c24f8,2024-05-13_08h30.28.952,group3.1-3.2-social-tom,2023.2.2,Win32,60.24096386,65c5074098b851296ff0b7ed,664231601929a2231ab110f0,,,,,,,,,,,,,,,,,,,,,,,,,,,,,771.1251,2,audio/Narrative5Situation8.wav,774.1402,,774.1402,782.9763,[],1,0,782.9765,786.4437,0.133333333,2.4875,"[{""rating"":0.1333333333333353,""responseTime"":2.487500000000068}]",space,2.9181,,786.4438,Definitely yes,100,786.4466,,,[],,0,8,8,8,1,audio/Narrative7Situation8.wav,audio/Narrative8Situation8.wav,audio/Narrative5Situation8.wav,audio/Narrative6Situation8.wav,2,3,3,5,,,,,,,,,,,,,,,,,,,,,,,,,,,,,,,,,,,,,,,
,,,,,,65b7ba948f5c3052140c24f8,2024-05-13_08h30.28.952,group3.1-3.2-social-tom,2023.2.2,Win32,60.24096386,65c5074098b851296ff0b7ed,664231601929a2231ab110f0,,,,,,,,,,,,,,,,,,,,,,,,,,,,,786.4468,2,audio/Narrative5Situation9.wav,789.4487,,789.4487,829.0042,"[[15.9,1879],[22,1955],[23.2,2046],[23.2,2124],[23.2,2211],[23.2,2295],[23.2,2371],[23.2,2461],[23.2,2545],[23.2,2628],[23.2,2700],[23.2,2787],[23.2,2879],[23.2,2962],[23.2,3045],[23.2,3129],[23.2,3212],[23.2,3295],[23.2,3380],[28.2,3463],[47.6,3547],[53.1,3632],[53.1,3704],[53.1,3796],[53.1,3879],[74.8,3964],[92.4,4047],[92.4,4126],[92.4,4212],[92.4,4287],[92.4,4371],[97.9,4464],[99,4547],[99.2,4621],[99.3,4713],[99.5,4797],[99.7,4876],[100,4964],[100,5046],[100,5130],[100,5213],[100,5297],[100,5367],[100,5462],[100,5540],[100,5630],[100,5704],[100,5796],[100,5880],[100,5964],[100,6046],[100,6130],[100,6213],[100,6296],[100,6380],[100,6455],[100,6538],[100,6630],[100,6714],[100,6797],[100,6880],[100,6963],[100,7048],[100,7130],[100,7214],[100,7297],[100,7380],[100,7463],[100,7537],[100,7630],[100,7714],[100,7797],[100,7881],[100,7960],[100,8038],[100,8123],[100,8205],[100,8297],[100,8372],[100,8464],[100,8539],[100,8630],[100,8704],[100,8797],[100,8880],[100,8964],[36.3,9052],[2.2,9135],[2.1,9218],[2.1,9302],[2.1,9385],[1.7,9472],[1.3,9565],[1.4,9648],[1.5,9730],[1.4,9815],[0.5,9899],[0.2,9981],[0.2,10064],[0.2,10139],[0.2,10230],[0.2,10305],[0.2,10397],[0.2,10472],[0.2,10565],[0.2,10639],[0.2,10730],[0.2,10814],[0.2,10885],[0.2,10981],[0.2,11065],[0.2,11139],[0.2,11231],[0.2,11306],[0.2,11398],[0.2,11481],[0.2,11556],[0.2,11648],[0.2,11730],[0.2,11814],[0.2,11899],[0.2,11981],[0.2,12065],[0.2,12148],[0.2,12223],[0.2,12314],[0.2,12398],[0.2,12481],[0.2,12553],[0.2,12648],[0.2,12723],[0.2,12815],[0.2,12898],[0.2,12982],[0.2,13056],[0.2,13149],[0.2,13231],[0.2,13316],[0.2,13398],[0.2,13482],[0.2,13557],[0.2,13649],[0.2,13733],[0.2,13802],[0.2,13898],[0.2,13973],[0.2,14065],[0.2,14148],[0.2,14229],[0.2,14316],[0.2,14390],[0.2,14482],[0.2,14557],[0.2,14648],[0.2,14723],[0.2,14815],[0.2,14891],[0.2,14981],[0.2,15065],[0.2,15140],[0.2,15223],[0.2,15316],[0.2,15386],[0.2,15482],[0.2,15565],[0.2,15640],[0.2,15732],[0.2,15814],[0.2,15891],[0.2,15981],[0.2,16056],[0.2,16149],[0.2,16223],[0.2,16315],[0.2,16386],[0.2,16481],[0.2,16566],[0.2,16649],[0.2,16724],[0.2,16815],[0.2,16891],[0.2,16972],[0.2,17068],[0.2,17149],[0.2,17232],[0.2,17316],[0.2,17399],[0.2,17484],[0.2,17565],[0.2,17641],[0.2,17733],[0.2,17809],[0.2,17899],[0.2,17973],[0.2,18067],[0.2,18141],[0.2,18225],[0.2,18317],[0.2,18400],[0.2,18482],[0.2,18567],[0.2,18641],[0.2,18730],[0.2,18817],[0.2,18900],[0.2,18983],[0.2,19067],[0.2,19150],[0.2,19225],[0.2,19317],[0.2,19397],[0.2,19483],[0.2,19558],[0.2,19649],[0.2,19724],[0.2,19817],[0.2,19899],[0.2,19984],[0.2,20058],[0.2,20150],[0.2,20233],[0.2,20317],[0.2,20400],[0.2,20475],[0.2,20567],[0.2,20650],[0.2,20734],[0.2,20808],[0.2,20892],[0.2,20984],[0.2,21067],[0.2,21150],[0.2,21225],[0.2,21318],[0.2,21400],[0.3,21491],[0.3,21572],[77.6,34841],[77.6,34924],[77.6,35008],[77.6,35091],[88,35178],[95.1,35260],[97.1,35343],[97.8,35426],[98.8,35521],[99.9,35604],[100,35687],[100,35770],[100,35854],[100,35937],[100,36021],[100,36104],[100,36187],[100,36270],[100,36345],[100,36437],[100,36521],[100,36604],[100,36688],[100,36770],[100,36855],[100,36937],[100,37021],[100,37104],[100,37188],[100,37265],[100,37356],[100,37437],[100,37521],[100,37605],[100,37688],[100,37771],[100,37855],[100,37938],[100,38021],[100,38104],[100,38175],[100,38263],[100,38355],[100,38438],[100,38511],[100,38604],[100,38688],[100,38771],[100,38846],[100,38935],[100,39021],[100,39104],[100,39188],[100,39271],[100,39354],[100,39438],[100,39521]]",1,0,829.0044,831.8551,99.93333333,2.6833,"[{""rating"":98.86666666666667,""responseTime"":2.0909999999998945},{""rating"":99.93333333333334,""responseTime"":2.6833000000714264}]",space,2.3172,,831.8552,Definitely yes,100,831.8569,,,[],,0,9,9,9,1,audio/Narrative7Situation9.wav,audio/Narrative8Situation9.wav,audio/Narrative5Situation9.wav,audio/Narrative6Situation9.wav,2,3,3,4,,,,,,,,,,,,,,,,,,,,,,,,,,,,,,,,,,,,,,,
,,,,,,65b7ba948f5c3052140c24f8,2024-05-13_08h30.28.952,group3.1-3.2-social-tom,2023.2.2,Win32,60.24096386,65c5074098b851296ff0b7ed,664231601929a2231ab110f0,,,,,,,,,,,,,,,,,,,,,,,,,,,,,831.8571,2,audio/Narrative6Situation1.wav,833.8631,,833.8632,860.479,"[[99.8,16762],[99.8,16850],[99.9,16935],[100,17017],[100,17100],[100,17184],[100,17267],[100,17350],[100,17434],[100,17517],[100,17600],[100,17683],[100,17767],[100,17850],[100,17933],[100,18017],[100,18101],[100,18186],[100,18280],[100,18363],[100,18446],[100,18517],[100,18613],[100,18696],[100,18771],[100,18863],[100,18946],[100,19030],[100,19112],[100,19195],[100,19271],[100,19363],[100,19445],[100,19529],[100,19612],[100,19698],[100,19780],[100,19864],[95.3,19947],[84.1,20031],[83.4,20113],[83.4,20193],[83.4,20277],[83.4,20363],[83.4,20440],[83.4,20521],[65.8,20615],[59.8,20697],[59.5,20771],[59.5,20855],[59.5,20938],[59.5,21022],[48.3,21115],[46.2,21197],[46.2,21273],[46.2,21364],[46.2,21439],[46.2,21531],[46.2,21607],[46.2,21696],[46.2,21780],[46.2,21863],[46.2,21947],[46.2,22030],[46.2,22113],[46.2,22188],[46.2,22280],[27,22364],[14.4,22448],[13.1,22530],[13.1,22602],[13.1,22687],[13.1,22780],[7.1,22864],[2.8,22949],[0.9,23031],[0.1,23115],[6.4,24198],[67.9,24282],[72.4,24359],[72.4,24438],[72.4,24531],[84.1,24614],[94.9,24699],[95.9,24782],[96.3,24853],[98.8,24948],[98.9,25031],[99.1,25115],[99.2,25197],[99.3,25274],[99.6,25364],[99.7,25449],[99.7,25531],[99.7,25603],[99.7,25698],[99.7,25769],[99.7,25856],[99.7,25947],[99.7,26031],[99.7,26114],[99.7,26198],[99.7,26282],[99.7,26365],[99.7,26450],[99.7,26532],[99.7,26615]]",1,0,860.4791,862.0626,99.73333333,0.7497,"[{""rating"":99.73333333333333,""responseTime"":0.7497000000477101}]",space,1.0429,,862.0627,Not at all,0,862.0653,,,[],,0,10,10,10,1,audio/Narrative8Situation1.wav,audio/Narrative7Situation1.wav,audio/Narrative6Situation1.wav,audio/Narrative5Situation1.wav,5,2,2,5,,,,,,,,,,,,,,,,,,,,,,,,,,,,,,,,,,,,,,,
,,,,,,65b7ba948f5c3052140c24f8,2024-05-13_08h30.28.952,group3.1-3.2-social-tom,2023.2.2,Win32,60.24096386,65c5074098b851296ff0b7ed,664231601929a2231ab110f0,,,,,,,,,,,,,,,,,,,,,,,,,,,,,862.0655,2,audio/Narrative6Situation2.wav,865.0676,,865.0678,893.5702,"[[98.9,3115],[98.5,3196],[98.5,3280],[98.7,3362],[99.2,3446],[99.5,3521],[99.5,3612],[99.6,3696],[99.6,3779],[99.6,3861],[99.6,3945],[99.6,4020],[99.6,4112],[99.6,4196],[99.6,4279],[99.6,4353],[99.6,4446],[99.6,4528],[99.6,4612],[99.6,4695],[99.6,4778],[99.6,4853],[99.6,4945],[99.6,5029],[99.6,5112],[99.6,5196],[99.6,5279],[99.6,5362],[99.6,5446],[99.6,5520],[99.6,5612],[99.6,5687],[99.6,5771],[99.6,5853],[99.6,5946],[99.6,6021],[99.6,6113],[99.6,6195],[99.6,6272],[99.6,6354],[99.6,6445],[99.6,6521],[99.6,6612],[99.6,6696],[99.6,6779],[99.6,6854],[99.6,6946],[99.6,7021],[99.6,7101],[99.6,7188],[99.6,7270],[99.6,7362],[99.6,7446],[99.6,7529],[99.6,7604],[99.6,7696],[99.6,7779],[99.6,7855],[99.6,7946],[99.6,8029],[99.6,8105],[99.6,8187],[99.6,8268],[99.6,8355],[99.6,8446],[99.6,8530],[99.6,8613],[99.6,8696],[99.6,8771],[99.6,8855],[99.6,8938],[99.6,9021],[99.6,9105],[99.6,9197],[99.6,9280],[99.6,9355],[99.6,9447],[99.6,9521],[99.6,9604],[99.6,9696],[99.6,9780],[99.6,9855],[99.6,9939],[99.6,10030],[99.6,10102],[99.6,10197],[99.6,10280],[99.6,10363],[99.6,10438],[99.6,10530],[99.6,10604],[99.6,10697],[99.6,10772],[99.6,10863],[99.6,10947],[99.6,11023],[99.6,11114],[99.6,11189],[99.6,11280],[99.6,11365],[99.6,11435],[99.6,11522],[99.6,11614],[99.6,11697],[99.6,11781],[99.6,11864],[99.6,11939],[99.6,12033],[99.6,12105],[99.6,12190],[99.6,12281],[99.6,12356],[99.6,12447],[99.6,12523],[99.6,12606],[99.6,12698],[99.6,12780],[99.6,12856],[99.6,12947],[99.6,13031],[99.6,13115],[99.6,13198],[99.6,13281],[99.6,13366],[99.6,13447],[99.6,13531],[99.6,13615],[99.6,13697],[99.6,13774],[99.6,13864],[99.6,13948],[99.6,14030],[99.6,14115],[99.6,14197],[99.6,14272],[99.6,14364],[99.6,14447],[99.6,14531],[99.6,14615],[99.6,14689],[99.6,14781],[99.6,14864],[99.6,14948],[99.6,15031],[99.6,15102],[99.6,15199],[99.6,15281],[99.6,15365],[99.6,15440],[99.6,15532],[99.6,15607],[99.6,15699],[99.6,15782],[99.6,15865],[99.6,15948],[99.6,16019],[99.6,16115],[99.6,16199],[99.6,16282],[99.6,16356],[99.6,16449],[99.6,16528],[99.6,16615],[99.6,16690],[99.6,16782],[99.6,16865],[99.6,16949],[99.6,17032],[99.6,17116],[99.6,17191],[99.6,17282],[99.6,17366],[99.6,17449],[99.6,17532],[99.6,17616],[99.6,17699],[99.6,17783],[99.6,17857],[99.6,17940],[99.6,18032],[99.6,18116],[99.6,18191],[99.6,18274],[99.6,18366],[99.6,18441],[99.6,18533],[99.6,18607],[99.6,18700],[99.6,18776],[99.6,18857],[99.6,18949],[99.6,19032],[99.6,19116],[99.6,19191],[99.6,19275],[99.6,19366],[99.6,19449],[99.6,19532],[99.6,19616],[99.6,19692],[99.6,19782],[99.6,19867],[99.6,19941],[99.6,20033],[99.6,20116],[99.6,20200],[99.6,20283],[99.6,20366],[99.6,20450],[99.6,20525],[99.6,20616],[99.6,20700],[99.6,20782],[99.6,20866],[99.6,20949],[99.6,21033],[99.6,21115],[99.6,21199],[99.6,21283],[99.6,21365],[99.6,21446],[99.6,21533],[99.6,21608],[99.6,21699],[99.6,21774],[99.6,21866],[99.6,21941],[99.6,22033],[99.6,22116],[99.6,22200],[99.6,22274],[99.6,22359],[99.6,22441],[99.6,22533],[99.6,22608],[99.6,22688],[99.6,22783],[99.6,22866],[99.6,22941],[99.6,23033],[99.6,23117],[99.6,23188],[99.6,23275],[99.6,23367],[99.6,23450],[99.6,23534],[99.6,23617],[99.6,23701],[99.6,23775],[99.6,23868],[99.6,23942],[99.6,24034],[99.6,24117],[99.6,24192],[99.6,24284],[99.6,24358],[99.1,24455],[98.7,24539],[98.7,24622],[98.7,24705],[98.9,24790],[99.3,24873],[99.3,24955],[99.5,25039],[99.5,25122],[99.5,25205],[99.5,25289],[99.5,25386],[99.5,25458],[99.5,25550],[99.5,25634],[99.5,25718],[99.5,25801],[99.5,25884],[99.5,25959],[99.5,26051],[99.5,26126],[99.5,26209],[99.5,26292],[99.5,26385],[99.5,26459],[99.5,26551],[99.5,26634],[99.5,26718],[99.5,26794],[99.5,26884],[99.5,26968],[99.5,27051],[99.5,27135],[99.5,27218],[99.5,27302],[99.5,27385],[99.5,27459],[99.5,27551],[99.5,27629],[99.5,27706],[99.5,27793],[99.5,27882],[99.5,27968],[99.5,28052],[99.5,28135],[99.5,28210],[99.5,28302],[99.5,28376],[99.5,28469]]",1,0,893.5703,894.5364,99.53333333,0.2237,"[{""rating"":99.53333333333335,""responseTime"":0.2237000000476428}]",space,0.4191,,894.5366,Not at all,0,894.5392,,,[],,0,11,11,11,1,audio/Narrative8Situation2.wav,audio/Narrative7Situation2.wav,audio/Narrative6Situation2.wav,audio/Narrative5Situation2.wav,3,3,3,3,,,,,,,,,,,,,,,,,,,,,,,,,,,,,,,,,,,,,,,
,,,,,,65b7ba948f5c3052140c24f8,2024-05-13_08h30.28.952,group3.1-3.2-social-tom,2023.2.2,Win32,60.24096386,65c5074098b851296ff0b7ed,664231601929a2231ab110f0,,,,,,,,,,,,,,,,,,,,,,,,,,,,,894.5396,2,audio/Narrative6Situation3.wav,899.5427,,899.5427,912.1578,"[[98.9,1346],[97.9,1429],[98.1,1513],[98.5,1596],[99.1,1680],[99.2,1761],[99.2,1845],[99.3,1929],[99.3,2012],[99.3,2095],[99.5,2181],[99.5,2262],[99.6,2346],[99.7,2429],[99.7,2512],[99.7,2586],[99.7,2678],[99.7,2755],[99.7,2845],[99.7,2922],[99.7,3011],[99.7,3087],[99.7,3169],[99.7,3263],[99.7,3337],[99.7,3420],[99.7,3512],[99.7,3596],[99.7,3670],[99.7,3750],[99.7,3845],[99.7,3920],[99.7,4012],[99.7,4095],[99.7,4179],[99.7,4262],[99.7,4346],[99.7,4429],[99.7,4512],[99.7,4595],[99.7,4671],[99.7,4762],[99.7,4846],[99.7,4929],[99.7,5004],[99.7,5096],[99.7,5171],[99.7,5255],[99.7,5346],[99.7,5420],[99.7,5512],[99.7,5596],[99.7,5679],[99.7,5754],[99.7,5846],[99.7,5920],[99.7,6014],[99.7,6096],[99.7,6171],[99.7,6255],[99.7,6338],[99.7,6422],[99.7,6513],[99.7,6596],[99.7,6680],[99.7,6754],[99.7,6846],[99.7,6921],[99.7,7013],[99.7,7088],[99.7,7181],[99.7,7263],[99.7,7347],[99.7,7423],[99.7,7505],[99.7,7588],[99.7,7680],[99.7,7755],[99.7,7847],[99.7,7922],[99.7,8001],[99.7,8088],[99.7,8181],[99.7,8255],[99.7,8347],[99.7,8430],[99.7,8514],[99.7,8597],[99.7,8681],[99.7,8764],[99.7,8847],[99.7,8930],[99.7,9014],[99.7,9097],[99.7,9168],[99.7,9264],[99.7,9347],[99.7,9430],[99.7,9505],[99.7,9597],[99.7,9680],[99.7,9764],[99.7,9838],[99.7,9924],[99.7,10005],[99.7,10097],[99.7,10180],[99.7,10255],[99.7,10347],[99.7,10431],[99.7,10514],[99.7,10588],[99.7,10681],[99.7,10755],[99.7,10847],[99.7,10930],[99.7,11014],[99.7,11097],[99.7,11181],[99.7,11264],[99.7,11347],[99.7,11430],[99.7,11511],[99.7,11597],[99.7,11681],[99.7,11764],[99.7,11839],[99.7,11931],[99.7,12006],[99.7,12099],[99.7,12180],[99.7,12256],[99.7,12347],[99.7,12423],[99.7,12514],[99.7,12598]]",1,0,912.1579,913.1418,99.73333333,0.5013,"[{""rating"":99.73333333333333,""responseTime"":0.5012999999522663}]",space,0.4275,,913.1418,Not at all,0,913.1434,,,[],,0,12,12,12,1,audio/Narrative8Situation3.wav,audio/Narrative7Situation3.wav,audio/Narrative6Situation3.wav,audio/Narrative5Situation3.wav,4,8,5,3,,,,,,,,,,,,,,,,,,,,,,,,,,,,,,,,,,,,,,,
,,,,,,65b7ba948f5c3052140c24f8,2024-05-13_08h30.28.952,group3.1-3.2-social-tom,2023.2.2,Win32,60.24096386,65c5074098b851296ff0b7ed,664231601929a2231ab110f0,,,,,,,,,,,,,,,,,,,,,,,,,,,,,913.1436,2,audio/Narrative6Situation4.wav,915.1577,,915.1577,927.7786,"[[84.6,3428],[63.6,3506],[55.6,3589],[52.1,3673],[51.3,3756],[50.6,3840],[49.4,3922],[49.4,4006],[49.4,4089],[49.4,4173],[49.4,4256],[49.4,4339],[49.4,4423],[49.4,4518],[49.4,4593],[49.4,4685],[49.4,4768],[49.4,4840],[49.4,4935],[49.4,5019],[49.4,5093],[49.4,5178],[49.4,5268],[49.4,5343],[49.4,5435],[49.4,5510],[49.4,5595],[49.4,5685],[49.4,5768],[49.4,5843],[49.4,5935],[49.4,6019],[49.4,6094],[49.4,6185],[49.4,6260],[49.4,6352],[49.4,6436],[49.4,6510],[49.4,6599],[49.4,6686],[49.4,6768],[49.4,6844],[49.4,6935],[49.4,7019],[49.4,7094],[49.4,7186],[49.4,7270],[49.4,7352],[49.4,7436],[49.4,7519],[49.4,7594],[49.4,7686],[49.4,7760],[49.4,7852],[49.4,7927],[49.4,8014],[49.4,8102],[49.4,8177],[49.4,8269],[49.4,8344],[49.4,8436],[49.4,8511],[49.4,8602],[49.4,8678],[49.4,8769],[49.4,8852],[49.4,8937],[49.4,9016],[49.4,9091],[38.5,9192],[23.1,9274],[18.5,9358],[12.7,9440],[7.9,9524],[3.6,9608],[0.6,9691],[0.5,9774],[0.5,9857],[0.5,9940],[0.5,10024],[0.5,10108],[0.4,10191],[0.2,10275],[0.2,10357],[0.1,10446],[0.1,10537],[0.1,10611],[0.1,10703],[0.1,10786],[0.1,10870],[0.1,10953],[0.1,11037],[0.1,11120],[0.1,11203],[0.1,11286],[0.1,11362],[0.1,11453],[0.1,11528],[0.1,11619],[0.1,11695],[0.1,11787],[0.1,11869],[0.1,11953],[0.1,12037],[0.1,12120],[0.1,12191],[0.1,12286],[0.1,12362],[0.1,12453],[0.1,12529],[0.1,12620]]",1,0,927.7788,928.7458,0,0.7327,"[{""rating"":0,""responseTime"":0.7326999999283998}]",space,0.4293,,928.7459,Definitely yes,100,928.7489,,,[],,0,13,13,13,1,audio/Narrative8Situation4.wav,audio/Narrative7Situation4.wav,audio/Narrative6Situation4.wav,audio/Narrative5Situation4.wav,3,3,2,1,,,,,,,,,,,,,,,,,,,,,,,,,,,,,,,,,,,,,,,
,,,,,,65b7ba948f5c3052140c24f8,2024-05-13_08h30.28.952,group3.1-3.2-social-tom,2023.2.2,Win32,60.24096386,65c5074098b851296ff0b7ed,664231601929a2231ab110f0,,,,,,,,,,,,,,,,,,,,,,,,,,,,,928.7491,2,audio/Narrative6Situation5.wav,930.7622,,930.7623,938.7308,"[[16.9,1417],[34.3,1500],[37.1,1583],[37.1,1658],[37.1,1750],[37.1,1824],[41.4,1917],[44.8,2001],[45.3,2085],[45.3,2166],[45.3,2250],[45.6,2334],[47.5,2417],[48.8,2500],[49.3,2583],[49.6,2660],[49.6,2746],[49.6,2834],[49.6,2917],[49.6,2999],[49.6,3083],[49.6,3160],[49.6,3242],[49.6,3335],[49.6,3409],[49.6,3488],[49.6,3575],[49.6,3659],[49.6,3751],[49.6,3826],[49.6,3917],[49.6,3992],[49.6,4085],[49.6,4167],[49.6,4251],[49.6,4334],[49.6,4417],[49.6,4500],[49.6,4584],[49.6,4667],[49.6,4750],[49.6,4826],[0.3,6668],[0.9,6751],[1.2,6827],[1.2,6918],[1.2,7001],[1.2,7085],[1,7168],[0.9,7251],[0.7,7335],[0.7,7418],[0.7,7501],[0.7,7576],[0.7,7668],[0.7,7751],[0.7,7826],[0.7,7918]]",1,0,938.7309,939.6838,0.666666667,0.6503,"[{""rating"":0.6666666666666654,""responseTime"":0.6502999999522672}]",space,0.4003,,939.6838,Not at all,0,939.6938,,,[],,0,14,14,14,1,audio/Narrative8Situation5.wav,audio/Narrative7Situation5.wav,audio/Narrative6Situation5.wav,audio/Narrative5Situation5.wav,2,5,2,5,,,,,,,,,,,,,,,,,,,,,,,,,,,,,,,,,,,,,,,
,,,,,,65b7ba948f5c3052140c24f8,2024-05-13_08h30.28.952,group3.1-3.2-social-tom,2023.2.2,Win32,60.24096386,65c5074098b851296ff0b7ed,664231601929a2231ab110f0,,,,,,,,,,,,,,,,,,,,,,,,,,,,,939.6941,2,audio/Narrative6Situation6.wav,941.7141,,941.7141,952.8009,"[[2.1,3339],[2.4,3423],[2.4,3506],[2.3,3591],[0.6,3673],[0.2,3756],[0.2,3839],[0.2,3922],[0.2,4006],[0.2,4090],[0.2,4172],[0.2,4256],[0.2,4353],[0.2,4435],[0.2,4519],[0.2,4593],[0.2,4677],[0.2,4768],[0.2,4843],[0.2,4936],[0.2,5019],[0.2,5103],[0.2,5185],[0.2,5269],[0.2,5343],[0.2,5435],[0.2,5519],[0.2,5602],[0.2,5686],[0.2,5768],[0.2,5846],[0.2,5935],[0.2,6019],[0.2,6092],[0.2,6177],[0.2,6260],[0.2,6353],[0.2,6427],[0.2,6510],[0.2,6602],[0.2,6677],[0.2,6769],[0.2,6844],[0.2,6935],[0.2,7019],[0.2,7103],[0.2,7186],[0.2,7261],[0.2,7353],[0.2,7436],[0.2,7519],[0.2,7602],[0.2,7686],[0.2,7769],[0.2,7840],[0.2,7936],[0.2,8011],[0.2,8102],[0.2,8186],[0.2,8269],[0.2,8353],[0.2,8427],[0.2,8520],[0.2,8602],[0.2,8676],[0.2,8761],[0.2,8844],[0.2,8936],[0.2,9011],[0.2,9095],[0.2,9177],[0.2,9270],[0.2,9343],[0.2,9436],[0.2,9510],[0.2,9603],[0.2,9686],[0.2,9769],[0.2,9853],[0.2,9936],[0.2,10019],[0.2,10094],[0.2,10186],[0.2,10269],[0.2,10344],[0.2,10436],[0.2,10519],[0.2,10603],[0.2,10686],[0.2,10770],[0.2,10853],[0.2,10936],[0.2,11020]]",1,0,952.801,954.0021,0.133333333,0.9081,"[{""rating"":0.1333333333333353,""responseTime"":0.9081000000238646}]",space,0.6742,,954.0021,Not at all,0,954.0039,,,[],,0,15,15,15,1,audio/Narrative8Situation6.wav,audio/Narrative7Situation6.wav,audio/Narrative6Situation6.wav,audio/Narrative5Situation6.wav,2,3,2,3,,,,,,,,,,,,,,,,,,,,,,,,,,,,,,,,,,,,,,,
,,,,,,65b7ba948f5c3052140c24f8,2024-05-13_08h30.28.952,group3.1-3.2-social-tom,2023.2.2,Win32,60.24096386,65c5074098b851296ff0b7ed,664231601929a2231ab110f0,,,,,,,,,,,,,,,,,,,,,,,,,,,,,954.0042,2,audio/Narrative6Situation7.wav,959.0108,,959.0109,983.8768,"[[0.5,1509],[0.7,1592],[0.7,1675],[0.7,1758],[0.6,1843],[0.2,1926],[0.2,2009],[0.2,2091],[0.2,2175],[0.2,2250],[0.2,2342],[0.2,2416],[0.2,2497],[0.2,2593],[0.2,2676],[0.2,2750],[0.2,2843],[0.2,2925],[0.2,3000],[0.2,3092],[0.2,3167],[0.2,3258],[0.2,3333],[0.2,3414],[0.2,3500],[0.2,3592],[0.2,3667],[0.2,3759],[0.2,3834],[0.2,3926],[0.2,4000],[0.2,4084],[0.2,4176],[0.2,4259],[0.2,4342],[0.2,4427],[0.2,4509],[0.2,4593],[0.2,4677],[0.2,4751],[0.2,4843],[0.2,4918],[0.2,5002],[0.2,5092],[0.2,5176],[0.2,5251],[0.2,5336],[0.2,5417],[0.2,5509],[0.2,5584],[0.2,5676],[0.2,5751],[0.2,5843],[0.2,5917],[0.2,6010],[0.2,6093],[0.2,6176],[0.2,6251],[0.2,6342],[0.2,6426],[0.2,6509],[0.2,6593],[0.2,6668],[0.2,6759],[0.2,6831],[0.2,6926],[0.2,7010],[0.2,7093],[0.2,7176],[0.2,7260],[0.2,7344],[0.2,7427],[0.2,7502],[0.2,7588],[0.2,7677],[0.2,7760],[0.2,7843],[0.2,7918],[0.2,8010],[0.2,8085],[0.2,8177],[0.2,8251],[0.2,8332],[0.2,8418],[0.2,8501],[0.2,8593],[0.2,8673],[0.2,8760],[0.2,8835],[0.2,8927],[0.2,9010],[0.2,9094],[0.2,9168],[0.2,9259],[0.2,9343],[0.2,9427],[0.2,9510],[0.2,9594],[0.2,9668],[0.2,9760],[0.2,9840],[0.2,9927],[0.2,10010],[0.2,10093],[0.2,10169],[0.2,10251],[0.2,10343],[0.2,10427],[0.2,10511],[0.2,10586],[0.2,10677],[0.2,10760],[0.2,10843],[0.2,10927],[0.2,11002],[0.2,11088],[0.2,11176],[0.2,11261],[0.2,11344],[0.2,11420],[0.2,11510],[0.2,11595],[0.2,11677],[0.2,11752],[0.2,11844],[0.2,11927],[0.2,12010],[0.2,12094],[0.2,12177],[0.2,12252],[0.2,12345],[0.2,12419],[0.2,12511],[0.2,12594],[0.2,12669],[0.2,12761],[0.2,12841],[0.2,12920],[38.9,13016],[55.3,13099],[55.5,13183],[55.5,13278],[75.8,13362],[94.1,13446],[95.6,13528],[95.6,13612],[95.6,13694],[96.8,13779],[98.5,13863],[98.7,13944],[98.9,14028],[99.2,14112],[99.7,14187],[99.7,14278],[99.7,14353],[99.7,14437],[99.7,14520],[99.7,14602],[99.7,14695],[99.7,14769],[99.7,14861],[99.7,14944],[99.7,15028],[99.7,15113],[99.7,15195],[99.7,15270],[99.7,15361],[99.7,15445],[99.7,15529],[99.7,15604],[99.7,15695],[99.7,15778],[99.7,15861],[99.7,15946],[99.7,16028],[99.7,16100],[99.7,16196],[99.7,16270],[99.7,16361],[99.7,16437],[99.7,16520],[99.7,16603],[99.7,16695],[99.7,16778],[99.7,16862],[99.7,16945],[99.7,17020],[99.7,17112],[99.7,17187],[99.7,17271],[99.7,17353],[99.7,17433],[99.7,17520],[99.7,17612],[99.7,17695],[99.7,17779],[99.7,17854],[99.7,17945],[99.7,18029],[99.7,18112],[99.7,18196],[99.7,18279],[99.7,18354],[99.7,18445],[99.7,18517],[99.7,18612],[99.7,18684],[99.7,18779],[99.7,18850],[99.7,18946],[99.7,19029],[99.7,19112],[99.7,19195],[99.7,19279],[99.7,19362],[99.7,19446],[99.7,19529],[99.7,19613],[99.7,19688],[99.7,19771],[99.7,19863],[99.7,19938],[99.7,20021],[99.7,20112],[99.7,20188],[99.7,20279],[99.7,20354],[99.7,20446],[99.7,20521],[99.7,20613],[99.7,20688],[99.7,20772],[99.7,20855],[99.7,20945],[99.7,21022],[99.7,21114],[99.7,21189],[99.7,21280],[99.7,21355],[99.7,21446],[99.7,21522],[99.7,21614],[99.7,21689],[99.7,21781],[99.7,21855],[99.7,21947],[99.7,22030],[99.7,22114],[99.7,22189],[99.7,22281],[99.7,22355],[99.7,22439],[99.7,22530],[99.7,22614],[99.7,22697],[99.7,22780],[99.7,22864],[99.7,22947],[99.7,23021],[99.7,23114],[99.7,23197],[99.7,23280],[99.7,23356],[99.7,23447],[99.7,23523],[99.7,23614],[99.7,23690],[99.7,23781],[99.7,23864],[99.7,23939],[99.7,24018],[99.7,24105],[99.7,24197],[99.7,24272],[99.7,24364],[99.7,24439],[99.7,24531],[99.7,24605],[99.7,24697],[99.7,24772],[99.7,24865]]",1,0,983.8769,985.3593,99.73333333,0.7238,"[{""rating"":99.73333333333333,""responseTime"":0.7237999999522344}]",space,0.9415,,985.3594,Not at all,0,985.3608,,,[],,0,16,16,16,1,audio/Narrative8Situation7.wav,audio/Narrative7Situation7.wav,audio/Narrative6Situation7.wav,audio/Narrative5Situation7.wav,3,5,5,4,,,,,,,,,,,,,,,,,,,,,,,,,,,,,,,,,,,,,,,
,,,,,,65b7ba948f5c3052140c24f8,2024-05-13_08h30.28.952,group3.1-3.2-social-tom,2023.2.2,Win32,60.24096386,65c5074098b851296ff0b7ed,664231601929a2231ab110f0,,,,,,,,,,,,,,,,,,,,,,,,,,,,,985.361,2,audio/Narrative6Situation8.wav,990.377,,990.3771,997.2292,"[[99.4,1434],[99.5,1517],[99.6,1599],[99.7,1676],[99.7,1758],[99.7,1841],[99.7,1933],[99.7,2017],[99.7,2099],[99.7,2183],[99.7,2267],[99.7,2350],[99.7,2425],[99.7,2517],[99.7,2591],[99.7,2676],[99.7,2767],[99.7,2850],[99.7,2934],[99.7,3008],[99.7,3101],[99.7,3175],[99.7,3267],[99.7,3347],[99.7,3428],[99.7,3509],[99.7,3600],[99.7,3683],[99.7,3767],[99.7,3842],[99.7,3934],[99.7,4017],[99.7,4093],[99.7,4184],[99.7,4268],[99.7,4342],[99.7,4426],[99.7,4518],[99.7,4588],[99.7,4684],[99.7,4768],[99.7,4851],[99.7,4934],[99.7,5009],[99.7,5092],[99.7,5185],[99.7,5259],[99.7,5351],[99.7,5434],[99.7,5505],[99.7,5593],[99.7,5676],[99.7,5768],[99.7,5848],[99.7,5934],[99.7,6009],[99.7,6101],[99.7,6185],[99.7,6260],[99.7,6351],[99.7,6435],[99.7,6518],[99.7,6602],[99.7,6676],[99.7,6768],[99.7,6851]]",1,0,997.2292,999.3512,0.066666667,1.6776,"[{""rating"":0.06666666666666488,""responseTime"":1.6776000000238582}]",space,1.5907,,999.3513,Partially,50,999.3617,,,[],,0,17,17,17,1,audio/Narrative8Situation8.wav,audio/Narrative7Situation8.wav,audio/Narrative6Situation8.wav,audio/Narrative5Situation8.wav,3,2,5,3,,,,,,,,,,,,,,,,,,,,,,,,,,,,,,,,,,,,,,,
,,,,,,65b7ba948f5c3052140c24f8,2024-05-13_08h30.28.952,group3.1-3.2-social-tom,2023.2.2,Win32,60.24096386,65c5074098b851296ff0b7ed,664231601929a2231ab110f0,,,,,,,,,,,,,,,,,,,,,,,,,,,,,999.3623,2,audio/Narrative6Situation9.wav,1003.3638,,1003.3639,1013.3161,"[[14.9,2692],[56.1,2772],[58.4,2855],[58.4,2938],[58.4,3021],[58.4,3104],[58.4,3189],[58.4,3278],[58.4,3367],[55.5,3452],[53.9,3535],[52.3,3618],[51.8,3701],[51.4,3784],[51.1,3868],[51.1,3951],[50.7,4034],[50.6,4117],[50.6,4192],[50.6,4283],[50.6,4367],[50.6,4452],[50.6,4525],[50.6,4617],[50.6,4701],[50.6,4784],[50.6,4859],[50.6,4943],[50.6,5034],[50.6,5120],[50.6,5200],[50.6,5277],[50.6,5359],[50.6,5451],[50.6,5534],[50.6,5617],[50.6,5701],[50.6,5784],[50.6,5868],[50.6,5951],[50.6,6035],[50.6,6109],[50.6,6202],[50.6,6284],[50.6,6359],[50.6,6439],[50.6,6534],[50.6,6618],[50.6,6701],[36.7,6793],[25.3,6873],[17.3,6956],[12.8,7040],[8.1,7123],[2.9,7207],[1.1,7290]]",1,0,1013.3163,1014.0999,0.133333333,0.5328,"[{""rating"":0.1333333333333353,""responseTime"":0.5327999999522035}]",space,0.2184,,1014.0999,Definitely yes,100,1014.105,,,[],,0,18,18,18,1,audio/Narrative8Situation9.wav,audio/Narrative7Situation9.wav,audio/Narrative6Situation9.wav,audio/Narrative5Situation9.wav,3,2,4,3,,,,,,,,,,,,,,,,,,,,,,,,,,,,,,,,,,,,,,,
,,,,,,65b7ba948f5c3052140c24f8,2024-05-13_08h30.28.952,group3.1-3.2-social-tom,2023.2.2,Win32,60.24096386,65c5074098b851296ff0b7ed,664231601929a2231ab110f0,,,,,,,,,,,,,,,,,,,,,,,,,,,,,,,,,,,,,,,,,,,,,,,,,,,,,,,,,,,,,,,,,,,,,,,,1014.1054,1017.4065,space,2.7806,,1017.4067,1027.9047,space,10.1779,,,,,,,,,,,,,,,,,,,,,,,,,,
,,,,,,65b7ba948f5c3052140c24f8,2024-05-13_08h30.28.952,group3.1-3.2-social-tom,2023.2.2,Win32,60.24096386,65c5074098b851296ff0b7ed,664231601929a2231ab110f0,,,,,,,,,,,,,,,,,,,,,,,,,,,,,1030.5051,1,audio/Narrative8Situation9.wav,1032.5228,,,,,,,1064.4737,1069.3309,0,4.3098,"[{""rating"":0,""responseTime"":4.309800000071618}]",space,4.3111,,1064.4367,Definitely yes,100,1064.4736,,,[],,,,,,,,,,,2,2,2,2,,,,,,,,,,,,,,,1027.9146,1030.493,1032.5231,3,1064.4366,"[[1.1,11156],[1.3,11252],[1.3,11329],[1.1,11418],[0.6,11501]]",0,0,0,0,1,"Larry had recently lost his family, job and home, and was now living on his own in the park. He had most of his belongings, including some clothes, a blanket, and his mother’s special necklace. His family had been very important to him and he felt as though he did not have much going for him. One of his first days in the park he came across a family that did not have much food and looked very cold. He decided to give them some of his food and his blanket.","Larry had recently lost his family, job and home, and was now living on his own in the park. He had most of his belongings, including some clothes, a blanket, and his mother’s special necklace. His family had been very important to him and he felt as though he did not have much going for him. One of his first days in the park he came across a family that did not have much food and looked very cold. He decided to give them some of his food and his blanket.","Larry had recently lost his family, job and home, and was now living on his own in the park. He had most of his belongings, including some clothes, a blanket, and his mother’s special necklace. His family had been very important to him and he felt as though he did not have much going for him. One of his first days in the park he came across a family that did not have much food and looked very cold. He decided to give them some of his food and his blanket.","Larry had recently lost his family, job and home, and was now living on his own in the park. He had most of his belongings, including some clothes, a blanket, and his mother’s special necklace. His family had been very important to him and he felt as though he did not have much going for him. One of his first days in the park he came across a family that did not have much food and looked very cold. He decided to give them some of his food and his blanket.",,,,,,,,,,
,,,,,,65b7ba948f5c3052140c24f8,2024-05-13_08h30.28.952,group3.1-3.2-social-tom,2023.2.2,Win32,60.24096386,65c5074098b851296ff0b7ed,664231601929a2231ab110f0,,,,,,,,,,,,,,,,,,,,,,,,,,,,,1069.3331,1,audio/Narrative8Situation9.wav,1071.1728,space,,,,,,1104.7553,1106.3584,0,1.0175,"[{""rating"":0,""responseTime"":1.0174999999999272}]",space,1.0516,,1104.7256,Definitely yes,100,1104.7552,,,[],,,,,,,,,,,6,2,3,9,1.8157,,,,,,,,,,,,,,,,1071.1728,3,1104.7251,"[[13.7,3362],[13.7,3446],[13.7,3541],[13.7,3625],[26.9,3711],[26.9,3784],[26.9,3875],[26.9,3961],[42.5,4047],[49.2,4950],[52,5032],[52.3,5114],[52.3,5197],[52.3,5282],[52.3,5364],[52.3,5447],[52.3,5531],[52.3,5614],[52.3,5697],[52.3,5780],[52.3,5864],[52.3,5947],[52.3,6030],[52.3,6114],[52.3,6197],[52.3,6281],[52.3,6364],[52.3,6447],[52.3,6531],[52.3,6613],[52.3,6697],[52.3,6784],[52.3,6864],[52.3,6947],[52.3,7031],[52.3,7114],[52.3,7198],[52.3,7283],[52.3,7364],[52.3,7448],[52.3,7531],[52.3,7614],[52.3,7698],[52.3,7781],[52.3,7864],[52.3,7948],[52.3,8032],[52.3,8114],[52.3,8198],[52.3,8281],[52.3,8365],[52.3,8448],[52.3,8531],[52.3,8615],[52.3,8698],[52.3,8781],[52.3,8865],[52.3,8948],[52.3,9031],[52.3,9115],[52.3,9198],[52.3,9281],[52.3,9365],[52.3,9448],[52.3,9532],[52.3,9615],[52.3,9698],[52.3,9781],[52.3,9865],[52.3,9948],[52.3,10033],[52.3,10118],[52.3,10198],[52.3,10281],[52.3,10365],[52.3,10448],[52.3,10532],[52.3,10615],[52.3,10699],[52.3,10782],[52.3,10865],[52.3,10948],[52.3,11032],[52.3,11115],[52.3,11200],[52.3,11281],[52.3,11365],[52.3,11448],[52.3,11531],[52.3,11615],[52.3,11698],[52.3,11782],[52.3,11865],[52.3,11949],[52.3,12032],[52.3,12115],[52.3,12199],[52.3,12282],[52.3,12365],[52.3,12449],[52.3,12532],[52.3,12615],[52.3,12699],[52.3,12782],[52.3,12866],[52.3,12949],[52.3,13032],[52.3,13115],[52.3,13199],[52.3,13282],[52.3,13366],[52.3,13449],[52.3,13533],[52.3,13616],[52.3,13699],[52.3,13783],[52.3,13865],[52.3,13949],[52.3,14035],[52.3,14117],[52.3,14199],[52.3,14283],[52.3,14366],[52.3,14449],[52.3,14533],[52.3,14616],[52.3,14699],[52.3,14783],[52.3,14866],[52.3,14950],[52.3,15033],[52.3,15116],[52.3,15200],[52.3,15283],[52.3,15366],[52.3,15450],[52.3,15533],[52.3,15616],[52.3,15700],[52.3,15783],[52.3,15866],[52.3,15950],[52.3,16034],[52.3,16116],[52.3,16200],[52.3,16283],[52.3,16368],[52.3,16449],[52.3,16535],[52.3,16616],[52.3,16702],[52.3,16783],[52.3,16867],[52.3,16950],[52.3,17033],[52.3,17117],[52.3,17200],[52.3,17283],[52.3,17367],[52.3,17450],[52.3,17533],[52.3,17616],[52.3,17700],[52.3,17784],[52.3,17867],[52.3,17950],[52.3,18034],[52.3,18117],[52.3,18200],[52.3,18283],[52.3,18367],[52.3,18450],[52.3,18534],[52.3,18617],[52.3,18700],[52.3,18784],[52.3,18867],[52.3,18950],[52.3,19034],[52.3,19118],[52.3,19201],[52.3,19284],[52.3,19367],[52.3,19452],[52.3,19534],[52.3,19617],[52.3,19701],[52.3,19784],[52.3,19868],[52.3,19951],[52.3,20035],[52.3,20117],[52.3,20203],[52.3,20284],[52.3,20368],[52.3,20451],[52.3,20534],[52.3,20618],[52.3,20701],[52.3,20785],[52.3,20868],[52.3,20951],[52.3,21035],[52.3,21118],[52.3,21201],[52.3,21284],[52.3,21367],[52.3,21451],[52.3,21534],[52.3,21618],[52.3,21701],[52.3,21785],[52.3,21868],[52.3,21951],[52.3,22035],[52.3,22118],[52.3,22201],[52.3,22285],[52.3,22368],[12.6,22564],[12.6,22647],[12.6,22730],[12.6,22816],[9.7,22898],[8,22982],[5.6,23064],[2.9,23147],[1.9,23232],[1,23314],[0.3,23404],[0.1,23484],[0.1,23568],[0.1,23652],[0.1,23747],[0.1,23833],[0.1,23908],[0.1,23990],[0.1,24080],[0.1,24158],[0.1,24247],[0.1,24328],[0.1,24414],[0.1,24490],[0.1,24580],[0.1,24664],[0.1,24747],[0.1,24824],[0.1,24916],[0.1,24997],[0.1,25080],[0.1,25164],[0.1,25248],[0.1,25322],[0.1,25411],[0.1,25497],[0.1,25583],[0.1,25658],[0.1,25749],[0.1,25830],[0.1,25907],[0.1,25997],[0.1,26081],[0.1,26167],[0.1,26242],[0.1,26333],[0.1,26414],[0.1,26499],[0.1,26581],[0.1,26663],[0.1,26756],[0.1,26850],[0.1,26924],[0.1,27008],[0.1,27097],[0.1,27183],[0.1,27258],[0.1,27341],[0.1,27432],[0.1,27517],[0.1,27598],[0.1,27683],[0.1,27758],[0.1,27842],[0.1,27931],[0.1,28017],[0.1,28098],[0.1,28184],[0.1,28265],[0.1,28348],[0.1,28431],[0.1,28515],[0.1,28599],[0.1,28681],[0.1,28766],[0.1,28842],[0.1,28925],[0.1,29015],[0.1,29098],[0.1,29182],[0.1,29258],[0.1,29348],[0.1,29425],[0.1,29515],[0.1,29598],[0.1,29684],[0.1,29766],[0.1,29849],[0.1,29932],[0.1,30010],[0.1,30103],[0.1,30186],[0.1,30270],[0.1,30355],[0.1,30448],[0.1,30532],[0.1,30615],[0.1,30702],[0.1,30775],[0.1,30867],[0.1,30948],[0.1,31034],[0.1,31115],[0.1,31201],[0.1,31282],[0.1,31359],[0.1,31448],[0.1,31527],[0.1,31617],[0.1,31693],[0.1,31785],[0.1,31865],[0.1,31951],[0.1,32034],[0.1,32117],[0.1,32192],[0.1,32276],[0.1,32365],[0.1,32450],[0.1,32532],[0.1,32615],[0.1,32699],[0.1,32776],[0.1,32868],[0.1,32949],[0.1,33035],[0.1,33115],[0.1,33199],[0.1,33285],[0.1,33359],[0.1,33449],[0.1,33526]]",0,1,1,1,1,"It was just another Sunday afternoon for Lucy, she was on her way to the farmer's market to pick up some produce. When she arrived at the old train depot that housed the market, she noticed two men fighting on the steps. Before she could call for help, one of the men crumpled to his knees. The other man dropped an object that appeared to be a knife and ran off. When Lucy approached the crime scene she realized that the man who had been murdered was the Mayor and that he had a gunshot wound.","One day at work, Margaret walked up to her partner, Al, to ask him to talk to the chief of staff at the local hospital where she worked as a nurse.","Luke always thought of himself as an honest man. That's why during his evening jog around the swamp, he pondered his recent affair with the receptionist at work. Luke looked up at the sky and asked God why he was so weak and unfaithful. He thought of the impact this would have on his family and told God of his conflicted feelings toward telling his wife Marta.","Linda and Amy had been best friends since kindergarten, they even found homes on the same street in the forest on the edge of town. Their biggest fight had been over who gets the bigger slice of cake, until Amy married Dan. Linda loathed Dan, she thought he was manipulative and had a violent temper. She only put up with him because Amy loved him. ",,,,,,,,,,
,,,,,,65b7ba948f5c3052140c24f8,2024-05-13_08h30.28.952,group3.1-3.2-social-tom,2023.2.2,Win32,60.24096386,65c5074098b851296ff0b7ed,664231601929a2231ab110f0,,,,,,,,,,,,,,,,,,,,,,,,,,,,,1106.3592,1,audio/Narrative8Situation9.wav,1110.362,,,,,,,1128.9316,1132.6144,0.266666667,3.181,"[{""rating"":0.26666666666666505,""responseTime"":3.18100000000004}]",space,3.1185,,1128.896,Not at all,0,1128.9316,,,[],,,,,,,,,,,4,5,2,2,,,,,,,,,,,,,,,,,1110.3623,3,1128.8958,"[[0.3,4250],[0.2,4335]]",0,2,2,2,1,On the ground beside him was a pen that she had mistaken for a knife. Lucy looked for the gunman and saw a suspicious man in black with distinct pointy features darting into an alley across the street. Cops who were nearby chased the man who had fled and arrested him.,"While waiting outside the chief of staff's office, Al heard nondescript shouting and yelling, there was a loud clatter in the room and then an eerie silence. An unfamiliar employee ran hastily out of the office with a terrified look on their face.","Suddenly, Luke heard a woman call out his name and when he turned around he saw Carly, his receptionist, across the road with a gun in her hand. Carly ran to him and explained how she had followed him here to confess her love. She exclaimed if Luke didn't love her back that she would kill him and his family. Carly explained that the only way they could be together is to kill Marta.","This feeling of hate between Amy and Dan was mutual, Dan didn't like how much time his wife spent with her and thought Amy was creating distance between their marriage. That's why Dan decided to try and tarnish Linda's reputation with his wife, in hopes it would get rid of her. He came home one afternoon and exclaimed that Linda had tried to kiss him. Amy was taken aback and immediately called Linda to confront her about these accusations. When Linda arrived she denied having made a move on Dan, but discovered Dan had enlisted the help of his friend Will who said he witnessed it all happen.",,,,,,,,,,
