exp_question,consent.started,consent.stopped,consentResponse.keys,consentResponse.rt,consentResponse.duration,participantID,date,expName,psychopyVersion,OS,frameRate,STUDY_ID,SESSION_ID,opening1.started,opening1.stopped,keyEndingOpening1.keys,keyEndingOpening1.rt,keyEndingOpening1.duration,volumeAdjust.started,volumeAdjust.stopped,endingAdjust.keys,endingAdjust.rt,endingAdjust.duration,opening2.started,opening2.stopped,keyEndingOpening.keys,keyEndingOpening.rt,keyEndingOpening.duration,mouse.x,mouse.y,mouse.leftButton,mouse.midButton,mouse.rightButton,mouse.time,instructionLoop.thisRepN,instructionLoop.thisTrialN,instructionLoop.thisN,instructionLoop.thisIndex,instructionLoop.ran,readyForAudio.started,readyForAudio.stopped,fixation.started,run,audio_played,fixation.stopped,endPractice.keys,audioPre.started,audioPre.stopped,continuousResponses_audio,continuousSlider.response,continuousSlider.rt,intRating.started,intRating.stopped,intQuestionSlider.response,intQuestionSlider.rt,intQuestionSlider.history,confirmResponse.keys,confirmResponse.rt,confirmResponse.duration,catchQuestion.started,catch_label,catch_value,catchQuestion.stopped,catchQuestionSlider.response,catchQuestionSlider.rt,catchQuestionSlider.history,confirmResponse_2.keys,audioRunLoop.thisRepN,audioRunLoop.thisTrialN,audioRunLoop.thisN,audioRunLoop.thisIndex,audioRunLoop.ran,conditions1_1,conditions2_1,conditions1_2,conditions2_2,dur1_1,dur2_1,dur1_2,dur2_2,endPractice.rt,endPractice.duration,confirmResponse_2.rt,confirmResponse_2.duration,runIntervalBreak.started,runIntervalBreak.stopped,endingBreakKey.keys,endingBreakKey.rt,endingBreakKey.duration,connection.started,connection.stopped,connectionEnding.keys,connectionEnding.rt,connectionEnding.duration,readyForText.started,readyForText.stopped,textPre.started,run_dup,textPre.stopped,continuousResponses_text,textRunLoop.thisRepN,textRunLoop.thisTrialN,textRunLoop.thisN,textRunLoop.thisIndex,textRunLoop.ran,text1_1,text1_2,text2_1,text2_2,runBreakText.started,runBreakText.stopped,endingBreakKey_2.keys,endingBreakKey_2.rt,endingBreakKey_2.duration,ending.started,ending.stopped,endingEnding.keys,endingEnding.rt,endingEnding.duration
tom,0.0004,38.764,y,38.4563,,65c676a951589a3062bc6de2,2024-05-13_15h31.44.637,group3.1-3.2-social-tom,2023.2.2,Win32,60.24096386,65c5074098b851296ff0b7ed,6642315efdc49befc5961517,,,,,,,,,,,,,,,,,,,,,,,,,,,,,,,,,,,,,,,,,,,,,,,,,,,,,,,,,,,,,,,,,,,,,,,,,,,,,,,,,,,,,,,,,,,,,,,,,,,,,,,,,,
,,,,,,65c676a951589a3062bc6de2,2024-05-13_15h31.44.637,group3.1-3.2-social-tom,2023.2.2,Win32,60.24096386,65c5074098b851296ff0b7ed,6642315efdc49befc5961517,38.7645,55.2762,space,16.4192,,,,,,,,,,,,,,,,,,,,,,,,,,,,,,,,,,,,,,,,,,,,,,,,,,,,,,,,,,,,,,,,,,,,,,,,,,,,,,,,,,,,,,,,,,,,,,,,,,,,,,
,,,,,,65c676a951589a3062bc6de2,2024-05-13_15h31.44.637,group3.1-3.2-social-tom,2023.2.2,Win32,60.24096386,65c5074098b851296ff0b7ed,6642315efdc49befc5961517,,,,,,55.2762,104.4519,space,48.8444,,,,,,,,,,,,,,,,,,,,,,,,,,,,,,,,,,,,,,,,,,,,,,,,,,,,,,,,,,,,,,,,,,,,,,,,,,,,,,,,,,,,,,,,,,,,,,,,,
,,,,,,65c676a951589a3062bc6de2,2024-05-13_15h31.44.637,group3.1-3.2-social-tom,2023.2.2,Win32,60.24096386,65c5074098b851296ff0b7ed,6642315efdc49befc5961517,,,,,,,,,,,104.4995,153.3608,space,48.8243,,[],[],[],[],[],[],0,0,0,0,1,,,,,,,,,,,,,,,,,,,,,,,,,,,,,,,,,,,,,,,,,,,,,,,,,,,,,,,,,,,,,,,,,,,,,,,,,,,,,,,,
,,,,,,65c676a951589a3062bc6de2,2024-05-13_15h31.44.637,group3.1-3.2-social-tom,2023.2.2,Win32,60.24096386,65c5074098b851296ff0b7ed,6642315efdc49befc5961517,,,,,,,,,,,153.3965,238.6645,space,85.0795,,[],[],[],[],[],[],1,0,1,0,1,,,,,,,,,,,,,,,,,,,,,,,,,,,,,,,,,,,,,,,,,,,,,,,,,,,,,,,,,,,,,,,,,,,,,,,,,,,,,,,,
,,,,,,65c676a951589a3062bc6de2,2024-05-13_15h31.44.637,group3.1-3.2-social-tom,2023.2.2,Win32,60.24096386,65c5074098b851296ff0b7ed,6642315efdc49befc5961517,,,,,,,,,,,238.6936,273.4471,space,34.6846,,[],[],[],[],[],[],2,0,2,0,1,,,,,,,,,,,,,,,,,,,,,,,,,,,,,,,,,,,,,,,,,,,,,,,,,,,,,,,,,,,,,,,,,,,,,,,,,,,,,,,,
,,,,,,65c676a951589a3062bc6de2,2024-05-13_15h31.44.637,group3.1-3.2-social-tom,2023.2.2,Win32,60.24096386,65c5074098b851296ff0b7ed,6642315efdc49befc5961517,,,,,,,,,,,273.4829,329.8349,space,56.2923,,[],[],[],[],[],[],3,0,3,0,1,,,,,,,,,,,,,,,,,,,,,,,,,,,,,,,,,,,,,,,,,,,,,,,,,,,,,,,,,,,,,,,,,,,,,,,,,,,,,,,,
,,,,,,65c676a951589a3062bc6de2,2024-05-13_15h31.44.637,group3.1-3.2-social-tom,2023.2.2,Win32,60.24096386,65c5074098b851296ff0b7ed,6642315efdc49befc5961517,,,,,,,,,,,329.8627,357.5205,space,27.6214,,[],[],[],[],[],[],4,0,4,0,1,,,,,,,,,,,,,,,,,,,,,,,,,,,,,,,,,,,,,,,,,,,,,,,,,,,,,,,,,,,,,,,,,,,,,,,,,,,,,,,,
,,,,,,65c676a951589a3062bc6de2,2024-05-13_15h31.44.637,group3.1-3.2-social-tom,2023.2.2,Win32,60.24096386,65c5074098b851296ff0b7ed,6642315efdc49befc5961517,,,,,,,,,,,,,,,,,,,,,,,,,,,357.5602,360.1356,360.226,1,audio/Narrative13Situation2.wav,362.235,,362.2357,392.0048,[],1,0,392.0054,414.7084,77.23279649,15.6428,"[{""rating"":78.84333821376282,""responseTime"":3.166199999988123},{""rating"":78.25768667642751,""responseTime"":12.706299999997043},{""rating"":36.38360175695461,""responseTime"":14.298299999997027},{""rating"":77.23279648609078,""responseTime"":15.642799999997067}]",space,22.1672,,414.7221,Not at all,0,414.7274,,,[],,0,0,0,0,1,audio/Narrative13Situation2.wav,audio/Narrative13Situation2.wav,audio/Narrative13Situation2.wav,audio/Narrative13Situation2.wav,2,2,2,2,,,,,,,,,,,,,,,,,,,,,,,,,,,,,,,,,,,,,,,
,,,,,,65c676a951589a3062bc6de2,2024-05-13_15h31.44.637,group3.1-3.2-social-tom,2023.2.2,Win32,60.24096386,65c5074098b851296ff0b7ed,6642315efdc49befc5961517,,,,,,,,,,,,,,,,,,,,,,,,,,,,,414.7278,1,audio/Narrative7Situation1.wav,418.7085,space,418.7086,474.6107,"[[62,1129],[62,1213],[62,1296],[62,1379],[62,1462],[62,1546],[62,1629],[62,1712],[62,1795],[62,1879],[62,1962],[62,2045],[62,2129],[62,2212],[62,2295],[62,2379],[62,2462],[62,2545],[62,2628],[62,2712],[62,2795],[62,2878],[62,2961],[62,3045],[62,3128],[62,3211],[62,3295],[62,3378],[62,3461],[62,3545],[62,3628],[62,3711],[62,3795],[62,3878],[62,3961],[62,4044],[62,4127],[62,4211],[62,4294],[62,4378],[62,4461],[62,4544],[62,4627],[62,4711],[62,4794],[62,4877],[62,4961],[62,5044],[62,5127],[62,5211],[62,5294],[62,5377],[62,5460],[62,5544],[62,5627],[62,5710],[62,5793],[62,5877],[62,5960],[62,6043],[62,6127],[62,6210],[62,6293],[62,6377],[62,6460],[62,6543],[62,6627],[62,6710],[62,6793],[62,6876],[62,6959],[62,7043],[62,7126],[62,7209],[62,7293],[62,7376],[62,7459],[62,7543],[62,7626],[62,7709],[62,7793],[62,7876],[62,7959],[62,8042],[62,8125],[62,8209],[62,8292],[62,8376],[62,8459],[62,8542],[62,8625],[62,8709],[62,8792],[62,8875],[62,8959],[62,9042],[62,9125],[62,9208],[62,9292],[62,9375],[62,9458],[62,9542],[62,9625],[62,9708],[62,9791],[62,9875],[62,9958],[62,10041],[62,10124],[62,10208],[62,10291],[62,10374],[62,10458],[62,10541],[62,10624],[62,10707],[62,10791],[62,10874],[62,10957],[62,11041],[62,11124],[62,11207],[62,11290],[62,11374],[62,11457],[62,11540],[62,11624],[62,11707],[62,11790],[62,11874],[62,11957],[62,12040],[62,12123],[62,12207],[62,12290],[62,12373],[62,12457],[62,12540],[62,12623],[62,12707],[62,12790],[62,12873],[62,12957],[62,13040],[62,13123],[62,13206],[62,13290],[62,13373],[62,13456],[62,13539],[62,13623],[62,13706],[62,13789],[62,13872],[62,13956],[62,14039],[62,14122],[62,14206],[62,14289],[62,14372],[62,14456],[62,14539],[62,14622],[62,14706],[62,14789],[62,14872],[62,14955],[62,15038],[62,15122],[62,15205],[62,15288],[62,15372],[62,15455],[62,15538],[62,15622],[62,15705],[62,15788],[62,15872],[62,15955],[62,16038],[62,16121],[62,16205],[62,16288],[62,16371],[62,16455],[62,16538],[62,16621],[62,16704],[62,16788],[62,16871],[62,16954],[62,17038],[62,17121],[62,17204],[62,17288],[62,17371],[62,17454],[62,17537],[62,17621],[62,17704],[62,17787],[62,17870],[62,17954],[62,18037],[62,18120],[62,18204],[62,18287],[62,18370],[62.7,18454],[63.2,18537],[65.7,18620],[65.7,18703],[65.7,18787],[65.2,18870],[64.9,18953],[64.9,19036],[64.9,19120],[64.9,19203],[64.9,19286],[64.9,19370],[64.9,19453],[64.9,19537],[64.9,19619],[64.9,19703],[64.9,19786],[64.9,19869],[64.9,19953],[64.9,20036],[64.9,20119],[64.9,20202],[64.9,20286],[64.9,20369],[64.9,20452],[64.9,20536],[64.9,20619],[64.9,20702],[64.9,20786],[64.9,20869],[64.9,20952],[64.9,21035],[64.9,21119],[64.9,21202],[64.9,21285],[64.9,21368],[64.9,21452],[66.8,21536],[72.3,21619],[79.7,21702],[81.8,21785],[82.2,21868],[82.4,21952],[82.4,22035],[82.4,22118],[82.4,22202],[82.4,22285],[82.4,22368],[82.4,22452],[82.4,22535],[82.4,22618],[82.4,22702],[82.4,22785],[82.4,22868],[82.4,22951],[82.4,23035],[82.4,23118],[82.4,23201],[82.4,23285],[82.4,23368],[82.4,23451],[82.4,23534],[82.4,23618],[82.4,23701],[82.4,23784],[82.4,23868],[82.4,23951],[82.4,24034],[82.4,24117],[82.4,24201],[82.4,24284],[82.4,24367],[82.4,24451],[82.4,24534],[82.4,24617],[82.4,24700],[82.4,24784],[82.4,24867],[82.4,24950],[82.4,25034],[82.4,25117],[82.4,25200],[82.4,25283],[82.4,25367],[82.4,25450],[82.4,25533],[82.4,25617],[82.4,25700],[82.4,25783],[82.4,25867],[82.4,25950],[82.4,26033],[82.4,26116],[82.4,26200],[82.4,26283],[82.4,26366],[82.4,26449],[82.4,26533],[82.4,26616],[82.4,26699],[82.4,26783],[82.4,26866],[82.4,26949],[82.4,27033],[82.4,27116],[82.4,27199],[82.4,27283],[82.4,27366],[82.4,27449],[82.4,27532],[82.4,27616],[82.4,27699],[82.4,27782],[82.4,27865],[82.4,27949],[82.4,28032],[82.4,28115],[82.4,28198],[82.4,28283],[82.4,28365],[82.4,28449],[82.4,28532],[82.4,28615],[82.4,28699],[82.4,28782],[82.4,28865],[82.4,28948],[82.4,29032],[82.4,29115],[82.4,29198],[82.4,29281],[82.4,29365],[82.4,29448],[82.4,29531],[82.4,29615],[82.4,29698],[82.4,29781],[82.4,29865],[82.4,29948],[82.4,30031],[82.4,30114],[82.4,30198],[82.4,30281],[82.4,30364],[82.4,30448],[82.4,30531],[82.4,30614],[82.4,30697],[82.4,30781],[82.4,30864],[82.4,30947],[82.4,31031],[82.4,31114],[82.4,31197],[82.4,31280],[82.4,31364],[82.4,31447],[82.4,31530],[82.4,31614],[82.4,31697],[82.4,31780],[82.4,31864],[82.4,31947],[82.4,32030],[82.4,32113],[82.4,32197],[82.4,32280],[82.4,32363],[82.4,32447],[82.4,32530],[66.7,32630],[56.6,32714],[45.3,32797],[41.9,32880],[41.2,32963],[40.6,33047],[36.1,33130],[32.1,33213],[31.3,33296],[31.1,33379],[31.1,33463],[34.6,33546],[50.6,33630],[67,33713],[77.5,33796],[82.9,33880],[86.7,33963],[89.8,34046],[90.3,34129],[90.3,34212],[89.2,34296],[87.8,34380],[87,34462],[83.1,34546],[83.1,34629],[83.1,34712],[83.1,34795],[82.4,34879],[82.4,34962],[82.4,35045],[82.4,35128],[82.4,35212],[82.4,35295],[82.4,35378],[82.4,35462],[82.4,35545],[82.4,35629],[82.4,35711],[82.4,35795],[82.4,35878],[82.4,35961],[82.4,36045],[82.4,36128],[82.2,36211],[82.2,36295],[82.2,36378],[82.2,36461],[82.2,36545],[82.2,36628],[82.2,36711],[82.2,36794],[82.2,36878],[82.2,36961],[82.2,37044],[82.2,37127],[82.2,37211],[85.3,37294],[89.2,37377],[90.3,37461],[85.3,37877],[83.8,37960],[83.8,38043],[83.8,38127],[83.8,38210],[83.7,38293],[83.7,38377],[83.7,38460],[83.7,38543],[83.7,38626],[83.7,38710],[83.7,38793],[83.7,38876],[83.7,38960],[83.7,39043],[83.7,39126],[83.7,39209],[83.7,39293],[83.7,39376],[83.7,39459],[83.7,39543],[83.7,39626],[83.7,39709],[83.7,39793],[83.7,39876],[83.7,39959],[83.7,40043],[83.7,40126],[83.7,40209],[83.7,40292],[83.7,40376],[83.7,40459],[83.7,40542],[83.7,40625],[83.7,40709],[83.7,40792],[83.7,40875],[83.7,40959],[83.7,41042],[83.7,41125],[83.7,41209],[83.7,41292],[83.7,41375],[83.7,41458],[83.7,41542],[83.7,41625],[83.7,41708],[83.7,41792],[83.7,41875],[83.7,41958],[83.7,42041],[83.7,42125],[83.7,42208],[83.7,42291],[83.7,42375],[83.7,42458],[83.7,42541],[83.7,42625],[83.7,42708],[83.7,42791],[83.7,42874],[83.7,42958],[83.7,43041],[83.7,43124],[83.7,43207],[83.7,43291],[83.7,43374],[83.7,43457],[83.7,43541],[83.7,43624],[83.7,43707],[83.7,43791],[83.7,43874],[83.7,43957],[83.7,44040],[83.7,44124],[83.7,44207],[83.7,44290],[83.7,44373],[83.7,44457],[83.7,44540],[83.7,44623],[83.7,44707],[83.7,44790],[83.7,44873],[83.7,44957],[83.7,45040],[83.7,45123],[83.7,45206],[83.7,45290],[83.7,45373],[83.7,45456],[83.7,45540],[83.7,45623],[83.7,45706],[83.7,45790],[83.7,45873],[83.7,45956],[83.7,46039],[83.7,46123],[83.7,46206],[83.7,46289],[83.7,46372],[83.7,46456],[83.7,46539],[83.7,46622],[83.7,46706],[83.7,46789],[83.7,46872],[83.7,46956],[83.7,47039],[83.7,47122],[83.7,47205],[83.7,47289],[83.7,47372],[83.7,47455],[83.7,47539],[83.7,47622],[83.7,47705],[83.7,47788],[83.7,47872],[83.7,47955],[83.7,48038],[83.7,48122],[83.7,48205],[83.7,48288],[83.7,48372],[83.7,48455],[83.7,48538],[83.7,48621],[83.7,48705],[83.7,48788],[83.7,48871],[83.7,48954],[83.7,49038],[83.7,49121],[83.7,49204],[83.7,49288],[83.7,49371],[83.7,49454],[83.7,49538],[83.7,49621],[83.7,49704],[83.7,49788],[83.7,49871],[83.7,49954],[83.7,50037],[83.7,50121],[83.7,50204],[83.7,50287],[83.7,50370],[83.7,50454],[83.7,50537],[83.7,50620],[83.7,50704],[83.7,50787],[83.7,50870],[83.7,50954],[83.7,51037],[83.7,51120],[83.7,51203],[83.7,51287],[83.7,51370],[83.7,51453],[83.7,51537],[83.7,51620],[83.7,51703],[83.7,51786],[83.7,51870],[83.7,51953],[83.7,52036],[83.7,52120],[83.7,52203],[83.7,52286],[83.7,52370],[83.7,52453],[83.7,52536],[83.7,52619],[83.7,52703],[83.7,52786],[83.7,52869],[83.7,52952],[83.7,53036],[83.7,53119],[83.7,53202],[83.7,53286],[83.7,53369],[83.7,53452],[83.7,53536],[83.7,53619],[83.7,53702],[83.7,53785],[83.7,53869],[83.7,53952],[83.7,54035],[83.7,54118],[83.7,54202],[83.7,54285],[83.7,54368],[83.7,54452],[83.7,54535],[83.7,54618],[83.7,54702],[83.7,54785],[83.7,54868],[83.7,54952],[83.7,55035],[83.7,55118],[83.7,55202],[83.7,55285],[83.7,55368],[83.7,55451],[83.7,55534],[83.7,55618],[83.7,55701],[83.7,55787],[83.7,55868]]",1,0,474.6115,489.7063,75.76866764,8.1135,"[{""rating"":75.76866764275256,""responseTime"":8.113499999999988}]",space,14.5447,,489.7064,All the time,100,510.076,99.63396779,17.3782,"[{""rating"":99.63396778916544,""responseTime"":17.37820000000295}]",space,0,1,1,1,1,audio/Narrative7Situation1.wav,audio/Narrative8Situation1.wav,audio/Narrative5Situation1.wav,audio/Narrative6Situation1.wav,2,5,5,2,3.9621,,19.8309,,,,,,,,,,,,,,,,,,,,,,,,,,,,,,,,,,,,
,,,,,,65c676a951589a3062bc6de2,2024-05-13_15h31.44.637,group3.1-3.2-social-tom,2023.2.2,Win32,60.24096386,65c5074098b851296ff0b7ed,6642315efdc49befc5961517,,,,,,,,,,,,,,,,,,,,,,,,,,,,,510.077,1,audio/Narrative7Situation2.wav,513.0908,,513.0909,520.5708,"[[999,13],[999,116],[999,199],[69.5,283],[68.7,366]]",1,0,520.5711,535.0467,41.94729136,11.3789,"[{""rating"":41.94729136163983,""responseTime"":11.378900000005956}]",space,13.9296,,535.0469,All the time,100,535.054,,,[],,0,2,2,2,1,audio/Narrative7Situation2.wav,audio/Narrative8Situation2.wav,audio/Narrative5Situation2.wav,audio/Narrative6Situation2.wav,3,3,3,3,,,,,,,,,,,,,,,,,,,,,,,,,,,,,,,,,,,,,,,
,,,,,,65c676a951589a3062bc6de2,2024-05-13_15h31.44.637,group3.1-3.2-social-tom,2023.2.2,Win32,60.24096386,65c5074098b851296ff0b7ed,6642315efdc49befc5961517,,,,,,,,,,,,,,,,,,,,,,,,,,,,,535.0547,1,audio/Narrative7Situation3.wav,543.0592,,543.0592,552.3214,"[[999,32],[999,133],[999,216],[999,299],[999,383],[999,466],[999,549],[999,633],[999,716],[999,799],[999,884],[999,966],[48.2,1050],[49,1132],[49,1215],[49,1299],[49,1382],[49,1465],[49,1548],[49,1632],[49,1715],[49,1798],[49,1882],[49,1965],[49,2048],[49,2132],[49,2215],[49,2298],[49,2382],[49,2465],[49,2548],[49,2631],[49,2715],[49,2798],[49,2881],[49,2965],[49,3048],[49,3131],[49,3214],[49,3298],[49,3381],[49,3464],[49,3547],[49,3631],[49,3714],[49,3797],[49,3881],[49,3964],[49,4047],[49,4130],[49,4214],[49,4297],[49,4380],[49,4464],[49,4547],[49,4630],[49,4714],[49,4797],[49,4880],[49,4963],[49,5047],[49,5130],[49,5213],[49,5297],[49,5380],[49,5463],[49,5546],[49,5630],[49,5713],[49,5796],[49,5880],[49,5963],[49,6046],[49,6129],[49,6213],[49,6296],[49,6379],[49,6463],[49,6546],[49,6629],[49,6713],[49,6796],[49,6879],[49,6963],[49,7046],[49,7129],[49,7212],[49,7296],[49,7379],[49,7462],[49,7545],[49,7629],[49,7712],[49,7795],[49,7879],[49,7962],[49,8045],[49,8129],[49,8212],[49,8295],[49,8378],[49,8462],[49,8545],[49,8628],[49,8711],[49,8795],[49,8878],[49,8961],[49,9045],[49,9128],[49,9211]]",1,0,552.3216,565.1479,41.65446559,6.3152,"[{""rating"":41.65446559297218,""responseTime"":6.31520000000296}]",space,12.2791,,565.1481,Not at all,0,565.1908,,,[],,0,3,3,3,1,audio/Narrative7Situation3.wav,audio/Narrative8Situation3.wav,audio/Narrative5Situation3.wav,audio/Narrative6Situation3.wav,8,4,3,5,,,,,,,,,,,,,,,,,,,,,,,,,,,,,,,,,,,,,,,
,,,,,,65c676a951589a3062bc6de2,2024-05-13_15h31.44.637,group3.1-3.2-social-tom,2023.2.2,Win32,60.24096386,65c5074098b851296ff0b7ed,6642315efdc49befc5961517,,,,,,,,,,,,,,,,,,,,,,,,,,,,,565.1915,1,audio/Narrative7Situation4.wav,568.1963,,568.1964,579.9243,"[[54.2,11210],[54.2,11294],[54.2,11377],[54.2,11460],[54.2,11543],[54.2,11627],[54.2,11710]]",1,0,579.9247,588.2033,60.68814056,3.3065,"[{""rating"":60.688140556368964,""responseTime"":3.306500000000028}]",space,7.7316,,588.2035,Not at all,0,588.2408,,,[],,0,4,4,4,1,audio/Narrative7Situation4.wav,audio/Narrative8Situation4.wav,audio/Narrative5Situation4.wav,audio/Narrative6Situation4.wav,3,3,1,2,,,,,,,,,,,,,,,,,,,,,,,,,,,,,,,,,,,,,,,
,,,,,,65c676a951589a3062bc6de2,2024-05-13_15h31.44.637,group3.1-3.2-social-tom,2023.2.2,Win32,60.24096386,65c5074098b851296ff0b7ed,6642315efdc49befc5961517,,,,,,,,,,,,,,,,,,,,,,,,,,,,,588.2412,1,audio/Narrative7Situation5.wav,593.2503,,593.2504,601.7462,[],1,0,601.7464,612.4905,80.01464129,2.7817,"[{""rating"":80.01464128843338,""responseTime"":2.7817000000029566}]",space,10.1956,,612.4908,Half the time,50,612.5348,,,[],,0,5,5,5,1,audio/Narrative7Situation5.wav,audio/Narrative8Situation5.wav,audio/Narrative5Situation5.wav,audio/Narrative6Situation5.wav,5,2,5,2,,,,,,,,,,,,,,,,,,,,,,,,,,,,,,,,,,,,,,,
,,,,,,65c676a951589a3062bc6de2,2024-05-13_15h31.44.637,group3.1-3.2-social-tom,2023.2.2,Win32,60.24096386,65c5074098b851296ff0b7ed,6642315efdc49befc5961517,,,,,,,,,,,,,,,,,,,,,,,,,,,,,612.5355,1,audio/Narrative7Situation6.wav,615.5398,,615.54,625.5173,[],1,0,625.5176,633.9796,48.82869693,2.4338,"[{""rating"":48.82869692532943,""responseTime"":2.4337999999970634}]",space,7.9213,,633.9799,Half the time,50,634.0179,,,[],,0,6,6,6,1,audio/Narrative7Situation6.wav,audio/Narrative8Situation6.wav,audio/Narrative5Situation6.wav,audio/Narrative6Situation6.wav,3,2,3,2,,,,,,,,,,,,,,,,,,,,,,,,,,,,,,,,,,,,,,,
,,,,,,65c676a951589a3062bc6de2,2024-05-13_15h31.44.637,group3.1-3.2-social-tom,2023.2.2,Win32,60.24096386,65c5074098b851296ff0b7ed,6642315efdc49befc5961517,,,,,,,,,,,,,,,,,,,,,,,,,,,,,634.0186,1,audio/Narrative7Situation7.wav,639.027,,639.0271,656.202,"[[999,33],[999,132],[999,216],[999,299],[999,382],[999,465],[999,549],[999,632],[999,716],[999,799],[999,882],[999,965],[999,1049],[999,1132],[999,1215],[999,1299],[999,1382],[999,1465],[999,1548],[999,1632],[999,1715],[999,1798],[999,1881],[999,1965],[999,2048],[999,2131],[999,2215],[999,2298],[999,2381],[999,2465],[999,2548],[999,2631],[999,2714],[999,2798],[999,2881],[999,2964],[999,3048],[999,3131],[999,3214],[999,3298],[999,3381],[999,3464],[999,3547],[999,3631],[999,3714],[999,3797],[999,3881],[999,3964],[999,4047],[999,4130],[999,4214],[999,4297],[999,4380],[999,4464],[999,4547],[999,4630],[999,4713],[999,4797],[999,4880],[999,4963],[999,5046],[999,5130],[999,5213],[999,5297],[999,5380],[999,5463],[999,5546],[999,5629],[999,5713],[999,5796],[999,5879],[999,5963],[999,6046],[999,6129],[999,6213],[999,6296],[999,6379],[999,6462],[999,6546],[999,6629],[999,6712],[999,6795],[999,6879],[999,6962],[999,7045],[999,7129],[999,7212],[999,7295],[999,7379],[999,7462],[999,7545],[999,7629],[999,7712],[999,7795],[999,7878],[999,7961],[999,8045],[999,8128],[999,8211],[999,8295],[999,8378],[999,8461],[999,8545],[999,8628],[999,8711],[999,8795],[999,8878],[999,8961],[999,9045],[999,9128],[999,9211],[999,9294],[999,9378],[999,9461],[999,9544],[999,9628],[999,9711],[999,9794],[999,9877],[999,9961],[999,10044],[999,10127],[999,10211],[999,10294],[999,10377],[999,10461],[999,10544],[999,10627],[999,10711],[999,10794],[999,10877],[999,10960],[999,11044],[999,11127],[999,11210],[999,11293],[999,11377],[999,11460],[999,11543],[999,11627],[999,11710],[999,11793],[999,11876],[999,11960],[999,12043],[999,12126],[999,12210],[999,12293],[999,12376],[999,12459],[999,12543],[999,12626],[999,12709],[999,12793],[999,12876],[999,12959],[999,13043],[999,13126],[999,13209],[999,13293],[999,13376],[999,13459],[999,13542],[999,13625],[999,13709],[999,13792],[999,13875],[999,13959],[999,14042],[999,14125],[999,14209],[999,14292],[999,14375],[999,14458],[999,14542],[999,14625],[999,14708],[999,14792],[999,14875],[999,14958],[999,15041],[999,15125],[999,15208],[999,15291],[999,15375],[999,15458],[999,15541],[999,15625],[999,15708],[999,15791],[999,15875],[999,15958],[999,16041],[999,16124],[999,16208],[999,16291],[999,16374],[999,16457],[999,16541],[999,16624],[999,16707],[999,16791],[999,16874],[999,16957],[999,17040],[999,17124]]",1,0,656.2024,663.3145,99.63396779,5.3148,"[{""rating"":99.63396778916544,""responseTime"":5.314799999997035}]",space,6.5657,,663.3147,All the time,100,663.3245,,,[],,0,7,7,7,1,audio/Narrative7Situation7.wav,audio/Narrative8Situation7.wav,audio/Narrative5Situation7.wav,audio/Narrative6Situation7.wav,5,3,4,5,,,,,,,,,,,,,,,,,,,,,,,,,,,,,,,,,,,,,,,
,,,,,,65c676a951589a3062bc6de2,2024-05-13_15h31.44.637,group3.1-3.2-social-tom,2023.2.2,Win32,60.24096386,65c5074098b851296ff0b7ed,6642315efdc49befc5961517,,,,,,,,,,,,,,,,,,,,,,,,,,,,,663.3251,1,audio/Narrative7Situation8.wav,665.3301,,665.3301,675.3597,"[[999,1],[999,100],[999,183],[999,266],[999,349],[999,433],[999,516],[999,599],[999,683],[999,767],[999,850],[999,933],[999,1016],[999,1099],[999,1183],[999,1266],[999,1349],[999,1432],[999,1515],[999,1599],[999,1682],[999,1765],[999,1849],[999,1932],[999,2015],[999,2099],[999,2182],[999,2265],[999,2348],[999,2432],[999,2515],[999,2598],[999,2682],[999,2765],[999,2848],[999,2932],[999,3015],[999,3098],[999,3182],[999,3265],[999,3348],[999,3432],[999,3514],[999,3598],[999,3681],[999,3764],[999,3848],[999,3931],[999,4014],[999,4098],[999,4181],[999,4264],[999,4347],[999,4431],[999,4514],[999,4597],[999,4681],[999,4764],[999,4847],[999,4930],[999,5014],[999,5097],[999,5180],[999,5264],[999,5347],[999,5430],[999,5513],[999,5597],[999,5680],[999,5764],[999,5847],[999,5930],[999,6013],[999,6097],[999,6180],[999,6263],[999,6346],[999,6430],[999,6513],[999,6596],[999,6679],[999,6763],[999,6846],[999,6929],[999,7013],[999,7096],[999,7179],[999,7263],[999,7346],[999,7429],[999,7513],[999,7596],[999,7679],[999,7763],[999,7846],[999,7929],[999,8012],[999,8096],[999,8179],[999,8262],[999,8345],[999,8429],[999,8512],[999,8595],[999,8679],[999,8762],[999,8845],[999,8928],[999,9012],[999,9095],[999,9178],[999,9262],[999,9345],[999,9428],[999,9512],[999,9595],[999,9678],[999,9761],[999,9845],[999,9928],[999,10012]]",1,0,675.3601,681.905,99.78038067,3.0185,"[{""rating"":99.78038067349927,""responseTime"":3.0185000000000173}]",space,6.0028,,681.9051,All the time,100,681.9289,,,[],,0,8,8,8,1,audio/Narrative7Situation8.wav,audio/Narrative8Situation8.wav,audio/Narrative5Situation8.wav,audio/Narrative6Situation8.wav,2,3,3,5,,,,,,,,,,,,,,,,,,,,,,,,,,,,,,,,,,,,,,,
,,,,,,65c676a951589a3062bc6de2,2024-05-13_15h31.44.637,group3.1-3.2-social-tom,2023.2.2,Win32,60.24096386,65c5074098b851296ff0b7ed,6642315efdc49befc5961517,,,,,,,,,,,,,,,,,,,,,,,,,,,,,681.9292,1,audio/Narrative7Situation9.wav,683.9374,,683.9375,692.5835,"[[999,1],[999,116],[999,199],[999,283],[999,366],[999,449],[999,532],[999,615],[999,699],[999,782],[999,865],[999,949],[999,1032],[999,1115],[999,1199],[999,1282],[999,1365],[999,1449],[999,1532],[999,1615],[999,1698],[999,1782],[999,1865],[999,1948],[999,2032],[999,2115],[999,2198],[999,2282],[999,2365],[999,2448],[999,2531],[999,2615],[999,2698],[999,2781],[999,2865],[999,2948],[999,3031],[999,3114],[999,3198],[999,3281],[999,3364],[999,3447],[999,3531],[999,3614],[999,3697],[999,3781],[999,3864],[999,3947],[999,4031],[999,4114],[999,4197],[999,4281],[999,4364],[999,4447],[999,4530],[999,4614],[999,4697],[999,4780],[999,4864],[999,4947],[999,5030],[999,5113],[999,5197],[999,5280],[999,5363],[999,5447],[999,5530],[999,5613],[999,5696],[999,5780],[999,5863],[999,5946],[999,6030],[999,6113],[999,6196],[999,6279],[999,6363],[999,6446],[999,6529],[999,6613],[999,6696],[999,6779],[999,6863],[999,6946],[999,7029],[999,7112],[999,7196],[999,7279],[999,7362],[999,7445],[999,7529],[999,7612],[999,7695],[999,7779],[999,7862],[999,7946],[999,8028],[999,8112],[999,8195],[999,8278],[999,8362],[999,8445],[999,8528],[999,8611]]",1,0,692.5839,696.3978,89.238653,2.4806,"[{""rating"":89.23865300146413,""responseTime"":2.4805999999940695}]",space,3.2681,,696.3979,All the time,100,696.4028,,,[],,0,9,9,9,1,audio/Narrative7Situation9.wav,audio/Narrative8Situation9.wav,audio/Narrative5Situation9.wav,audio/Narrative6Situation9.wav,2,3,3,4,,,,,,,,,,,,,,,,,,,,,,,,,,,,,,,,,,,,,,,
,,,,,,65c676a951589a3062bc6de2,2024-05-13_15h31.44.637,group3.1-3.2-social-tom,2023.2.2,Win32,60.24096386,65c5074098b851296ff0b7ed,6642315efdc49befc5961517,,,,,,,,,,,,,,,,,,,,,,,,,,,,,696.4035,1,audio/Narrative8Situation1.wav,701.4121,,701.4121,717.3376,[],1,0,717.3378,723.5173,41.65446559,3.3494,"[{""rating"":41.65446559297218,""responseTime"":3.3494000000059714}]",space,5.638,,723.5175,Half the time,50,723.5601,,,[],,0,10,10,10,1,audio/Narrative8Situation1.wav,audio/Narrative7Situation1.wav,audio/Narrative6Situation1.wav,audio/Narrative5Situation1.wav,5,2,2,5,,,,,,,,,,,,,,,,,,,,,,,,,,,,,,,,,,,,,,,
,,,,,,65c676a951589a3062bc6de2,2024-05-13_15h31.44.637,group3.1-3.2-social-tom,2023.2.2,Win32,60.24096386,65c5074098b851296ff0b7ed,6642315efdc49befc5961517,,,,,,,,,,,,,,,,,,,,,,,,,,,,,723.5608,1,audio/Narrative8Situation2.wav,726.5654,,726.5654,736.6774,[],1,0,736.6776,741.491,50.58565154,1.6242,"[{""rating"":50.58565153733529,""responseTime"":1.624200000003043}]",space,4.2712,,741.4911,Not at all,0,741.5084,,,[],,0,11,11,11,1,audio/Narrative8Situation2.wav,audio/Narrative7Situation2.wav,audio/Narrative6Situation2.wav,audio/Narrative5Situation2.wav,3,3,3,3,,,,,,,,,,,,,,,,,,,,,,,,,,,,,,,,,,,,,,,
,,,,,,65c676a951589a3062bc6de2,2024-05-13_15h31.44.637,group3.1-3.2-social-tom,2023.2.2,Win32,60.24096386,65c5074098b851296ff0b7ed,6642315efdc49befc5961517,,,,,,,,,,,,,,,,,,,,,,,,,,,,,741.5088,1,audio/Narrative8Situation3.wav,745.5228,,745.523,767.9119,[],1,0,767.9123,773.5752,64.9341142,2.5043,"[{""rating"":64.93411420204977,""responseTime"":2.504299999996988}]",space,5.117,,773.5754,All the time,100,773.5844,,,[],,0,12,12,12,1,audio/Narrative8Situation3.wav,audio/Narrative7Situation3.wav,audio/Narrative6Situation3.wav,audio/Narrative5Situation3.wav,4,8,5,3,,,,,,,,,,,,,,,,,,,,,,,,,,,,,,,,,,,,,,,
,,,,,,65c676a951589a3062bc6de2,2024-05-13_15h31.44.637,group3.1-3.2-social-tom,2023.2.2,Win32,60.24096386,65c5074098b851296ff0b7ed,6642315efdc49befc5961517,,,,,,,,,,,,,,,,,,,,,,,,,,,,,773.5851,1,audio/Narrative8Situation4.wav,776.5903,,776.5904,790.7667,"[[999,28],[999,132],[999,216],[999,299],[999,382],[999,466],[999,549],[999,632],[999,716],[999,799],[999,882],[999,966],[999,1049],[999,1132],[999,1215],[999,1299],[999,1382],[999,1465],[999,1549],[999,1632],[999,1715],[999,1799],[999,1882],[999,1965],[999,2048],[999,2132],[999,2215],[999,2298],[999,2381],[999,2465],[999,2548],[999,2631],[999,2715],[999,2798],[999,2881],[999,2964],[999,3048],[999,3131],[999,3214],[999,3298],[999,3381],[999,3464],[999,3548],[999,3631],[999,3714],[999,3798],[999,3881],[999,3964],[999,4047],[999,4131],[999,4214],[999,4297],[999,4380],[999,4464],[999,4547],[999,4630],[999,4714],[999,4797],[999,4880],[999,4963],[999,5047],[999,5130],[999,5213],[999,5297],[999,5380],[999,5463],[999,5546],[999,5630],[999,5713],[999,5796],[999,5880],[999,5963],[999,6046],[999,6129],[999,6213],[999,6296],[999,6379],[999,6463],[999,6546],[999,6629],[999,6713],[999,6796],[999,6879],[999,6962],[999,7046],[999,7129],[999,7212],[999,7296],[999,7379],[999,7462],[999,7546],[999,7629],[999,7712],[999,7796],[999,7878],[999,7961],[999,8045],[999,8129],[999,8212],[999,8295],[999,8378],[999,8462],[999,8545],[999,8628],[999,8711],[999,8795],[999,8878],[999,8961],[999,9045],[999,9128],[999,9211],[999,9295],[999,9378],[999,9461],[999,9544],[999,9628],[999,9711],[999,9794],[999,9878],[999,9961],[999,10044],[999,10127],[999,10211],[999,10294],[999,10377],[999,10461],[999,10544],[999,10627],[999,10710],[999,10794],[999,10877],[999,10960],[999,11044],[999,11127],[999,11210],[999,11293],[999,11377],[999,11460],[999,11543],[999,11627],[999,11710],[999,11793],[999,11877],[999,11960],[999,12043],[999,12126],[999,12210],[999,12293],[999,12376],[999,12460],[999,12543],[999,12626],[999,12709],[999,12793],[999,12876],[999,12959],[999,13043],[999,13126],[999,13209],[999,13293],[999,13376],[999,13459],[999,13542],[999,13626],[999,13709],[999,13793],[999,13876],[999,13959],[999,14042],[999,14125]]",1,0,790.767,795.5637,83.6749634,3.2059,"[{""rating"":83.6749633967789,""responseTime"":3.205900000006068}]",space,4.2462,,795.5638,All the time,100,795.5672,,,[],,0,13,13,13,1,audio/Narrative8Situation4.wav,audio/Narrative7Situation4.wav,audio/Narrative6Situation4.wav,audio/Narrative5Situation4.wav,3,3,2,1,,,,,,,,,,,,,,,,,,,,,,,,,,,,,,,,,,,,,,,
,,,,,,65c676a951589a3062bc6de2,2024-05-13_15h31.44.637,group3.1-3.2-social-tom,2023.2.2,Win32,60.24096386,65c5074098b851296ff0b7ed,6642315efdc49befc5961517,,,,,,,,,,,,,,,,,,,,,,,,,,,,,795.5676,1,audio/Narrative8Situation5.wav,797.5799,,797.58,805.8255,"[[999,1],[999,116],[999,199],[999,282],[999,365],[999,449],[999,532],[999,615],[999,698],[999,782],[999,865],[999,948],[999,1032],[999,1115],[999,1198],[999,1282],[999,1365],[999,1448],[999,1532],[999,1615],[999,1698],[999,1781],[999,1865],[999,1948],[999,2031],[999,2115],[999,2198],[999,2281],[999,2364],[999,2448],[999,2531],[999,2614],[999,2698],[999,2781],[999,2864],[999,2947],[999,3031],[999,3114],[999,3197],[999,3281],[999,3364],[999,3447],[999,3530],[999,3614],[999,3697],[999,3780],[999,3864],[999,3947],[999,4030],[999,4114],[999,4197],[999,4280],[999,4363],[999,4447],[999,4530],[999,4613],[999,4696],[999,4780],[999,4863],[999,4946],[999,5029],[999,5113],[999,5196],[999,5279],[999,5363],[999,5446],[999,5529],[999,5613],[999,5696],[999,5779],[999,5862],[999,5946],[999,6030],[999,6112],[999,6196],[999,6279],[999,6362],[999,6446],[999,6529],[999,6612],[999,6696],[999,6779],[999,6862],[999,6946],[999,7029],[999,7112],[999,7195],[999,7279],[999,7362],[999,7445],[999,7529],[999,7612],[999,7695],[999,7778],[999,7862],[999,7945],[999,8028],[999,8112],[999,8195]]",1,0,805.8258,817.6861,92.60614934,5.7075,"[{""rating"":92.60614934114201,""responseTime"":5.707499999999982}]",space,11.3167,,817.6862,Not at all,0,817.7185,,,[],,0,14,14,14,1,audio/Narrative8Situation5.wav,audio/Narrative7Situation5.wav,audio/Narrative6Situation5.wav,audio/Narrative5Situation5.wav,2,5,2,5,,,,,,,,,,,,,,,,,,,,,,,,,,,,,,,,,,,,,,,
,,,,,,65c676a951589a3062bc6de2,2024-05-13_15h31.44.637,group3.1-3.2-social-tom,2023.2.2,Win32,60.24096386,65c5074098b851296ff0b7ed,6642315efdc49befc5961517,,,,,,,,,,,,,,,,,,,,,,,,,,,,,817.7189,1,audio/Narrative8Situation6.wav,819.735,,819.7351,826.2153,[],1,0,826.2155,832.9284,58.19912152,5.5017,"[{""rating"":99.04831625183016,""responseTime"":3.2537999999969998},{""rating"":58.199121522694,""responseTime"":5.501699999988091}]",space,6.1655,,832.9285,Not at all,0,832.9337,,,[],,0,15,15,15,1,audio/Narrative8Situation6.wav,audio/Narrative7Situation6.wav,audio/Narrative6Situation6.wav,audio/Narrative5Situation6.wav,2,3,2,3,,,,,,,,,,,,,,,,,,,,,,,,,,,,,,,,,,,,,,,
,,,,,,65c676a951589a3062bc6de2,2024-05-13_15h31.44.637,group3.1-3.2-social-tom,2023.2.2,Win32,60.24096386,65c5074098b851296ff0b7ed,6642315efdc49befc5961517,,,,,,,,,,,,,,,,,,,,,,,,,,,,,832.9342,1,audio/Narrative8Situation7.wav,835.9436,,835.9437,848.0374,[],1,0,848.0377,853.0682,29.35578331,2.5598,"[{""rating"":29.355783308931183,""responseTime"":2.5597999999970398}]",space,4.4842,,853.0683,Half the time,50,853.0776,,,[],,0,16,16,16,1,audio/Narrative8Situation7.wav,audio/Narrative7Situation7.wav,audio/Narrative6Situation7.wav,audio/Narrative5Situation7.wav,3,5,5,4,,,,,,,,,,,,,,,,,,,,,,,,,,,,,,,,,,,,,,,
,,,,,,65c676a951589a3062bc6de2,2024-05-13_15h31.44.637,group3.1-3.2-social-tom,2023.2.2,Win32,60.24096386,65c5074098b851296ff0b7ed,6642315efdc49befc5961517,,,,,,,,,,,,,,,,,,,,,,,,,,,,,853.0783,1,audio/Narrative8Situation8.wav,856.0837,,856.0839,868.9437,[],1,0,868.9439,873.9075,64.20204978,3.0849,"[{""rating"":64.20204978038068,""responseTime"":3.08489999999108}]",space,4.4262,,873.9077,All the time,100,873.9172,,,[],,0,17,17,17,1,audio/Narrative8Situation8.wav,audio/Narrative7Situation8.wav,audio/Narrative6Situation8.wav,audio/Narrative5Situation8.wav,3,2,5,3,,,,,,,,,,,,,,,,,,,,,,,,,,,,,,,,,,,,,,,
,,,,,,65c676a951589a3062bc6de2,2024-05-13_15h31.44.637,group3.1-3.2-social-tom,2023.2.2,Win32,60.24096386,65c5074098b851296ff0b7ed,6642315efdc49befc5961517,,,,,,,,,,,,,,,,,,,,,,,,,,,,,873.9179,1,audio/Narrative8Situation9.wav,876.9227,,876.9229,888.2503,"[[999,1],[999,116],[999,199],[999,282],[999,366],[999,450],[999,532],[999,616],[999,699],[999,782],[999,865],[999,949],[999,1032],[999,1115],[999,1199],[999,1282],[999,1365],[999,1448],[999,1532],[999,1615],[999,1698],[999,1781],[999,1865],[999,1948],[999,2031],[999,2115],[999,2198],[999,2281],[999,2365],[999,2448],[999,2531],[999,2614],[999,2698],[999,2781],[999,2864],[999,2948],[999,3031],[999,3114],[999,3197],[999,3281],[999,3364],[999,3447],[999,3531],[999,3614],[999,3697],[999,3780],[999,3864],[999,3947],[999,4030],[999,4114],[999,4197],[999,4280],[999,4364],[999,4447],[999,4530],[999,4613],[999,4697],[999,4780],[999,4863],[999,4947],[999,5030],[999,5113],[999,5196],[999,5280],[999,5363],[999,5446],[999,5530],[999,5613],[999,5696],[999,5780],[999,5863],[999,5946],[999,6029],[999,6113],[999,6196],[999,6279],[999,6363],[999,6446],[999,6529],[999,6612],[999,6696],[999,6779],[999,6862],[999,6946],[999,7029],[999,7112],[999,7195],[999,7279],[999,7362],[999,7445],[999,7529],[999,7612],[999,7696],[999,7778],[999,7862],[999,7945],[999,8029],[999,8112],[999,8195],[999,8278],[999,8362],[999,8445],[999,8528],[999,8611],[999,8695],[999,8778],[999,8861],[999,8945],[999,9028],[999,9111],[999,9194],[999,9278],[999,9361],[999,9444],[999,9528],[999,9611],[999,9694],[999,9777],[999,9861],[999,9944],[999,10027],[999,10110],[999,10194],[999,10277],[999,10360],[999,10444],[999,10527],[999,10610],[999,10694],[999,10777],[999,10860],[999,10943],[999,11027],[999,11110],[999,11193],[999,11277]]",1,0,888.2506,893.9807,92.60614934,2.305,"[{""rating"":92.60614934114201,""responseTime"":2.30499999999995}]",space,5.1835,,893.9808,Half the time,50,893.9902,,,[],,0,18,18,18,1,audio/Narrative8Situation9.wav,audio/Narrative7Situation9.wav,audio/Narrative6Situation9.wav,audio/Narrative5Situation9.wav,3,2,4,3,,,,,,,,,,,,,,,,,,,,,,,,,,,,,,,,,,,,,,,
,,,,,,65c676a951589a3062bc6de2,2024-05-13_15h31.44.637,group3.1-3.2-social-tom,2023.2.2,Win32,60.24096386,65c5074098b851296ff0b7ed,6642315efdc49befc5961517,,,,,,,,,,,,,,,,,,,,,,,,,,,903.3297,905.8912,905.9288,2,audio/Narrative13Situation2.wav,905.929,,905.9291,935.6941,[],1,0,935.6945,935.7319,,,[],,,,935.732,Half the time,50,935.7347,,,[],,0,0,0,0,1,audio/Narrative13Situation2.wav,audio/Narrative13Situation2.wav,audio/Narrative13Situation2.wav,audio/Narrative13Situation2.wav,2,2,2,2,,,,,894.0288,903.2953,space,8.7475,,,,,,,,,,,,,,,,,,,,,,,,,,,,,,,
,,,,,,65c676a951589a3062bc6de2,2024-05-13_15h31.44.637,group3.1-3.2-social-tom,2023.2.2,Win32,60.24096386,65c5074098b851296ff0b7ed,6642315efdc49befc5961517,,,,,,,,,,,,,,,,,,,,,,,,,,,,,935.7353,2,audio/Narrative5Situation1.wav,940.7401,,940.7402,954.0337,"[[999,32],[999,132],[999,216],[999,299],[999,382],[999,465],[999,549],[999,632],[999,715],[999,799],[999,882],[999,966],[999,1049],[999,1132],[999,1215],[999,1299],[999,1382],[999,1465],[999,1548],[999,1632],[999,1715],[999,1798],[999,1882],[999,1965],[999,2048],[999,2131],[999,2215],[999,2298],[999,2381],[999,2465],[999,2548],[999,2631],[999,2715],[999,2798],[999,2881],[999,2964],[999,3048],[999,3131],[999,3214],[999,3298],[999,3381],[999,3464],[999,3548],[999,3631],[999,3714],[999,3797],[999,3881],[999,3964],[999,4047],[999,4131],[999,4214],[999,4297],[999,4380],[999,4464],[999,4547],[999,4630],[999,4713],[999,4797],[999,4880],[999,4963],[999,5047],[999,5130],[999,5213],[999,5297],[999,5380],[999,5463],[999,5546],[999,5630],[999,5713],[999,5796],[999,5880],[999,5963],[999,6046],[999,6129],[999,6213],[999,6296],[999,6379],[999,6463],[999,6546],[999,6629],[999,6712],[999,6796],[999,6879],[999,6962],[999,7046],[999,7129],[999,7212],[999,7296],[999,7379],[999,7462],[999,7545],[999,7629],[999,7712],[999,7795],[999,7879],[999,7962],[999,8045],[999,8128],[999,8212],[999,8295],[999,8378],[999,8462],[999,8545],[999,8628],[999,8712],[999,8795],[999,8878],[999,8961],[999,9045],[999,9128],[999,9211],[999,9295],[999,9378],[999,9461],[999,9544],[999,9628],[999,9711],[999,9794],[999,9878],[999,9961],[999,10044],[999,10127],[999,10211],[999,10294],[999,10377],[999,10461],[999,10544],[999,10627],[999,10711],[999,10794],[999,10877],[999,10960],[999,11044],[999,11127],[999,11210],[999,11293],[999,11377],[999,11460],[999,11543],[999,11627],[999,11710],[999,11793],[999,11876],[999,11960],[999,12043],[999,12126],[999,12210],[999,12293],[999,12376],[999,12460],[999,12543],[999,12626],[999,12710],[999,12793],[999,12876],[999,12959],[999,13043],[999,13126],[999,13209],[999,13293]]",1,0,954.0339,959.6473,96.41288433,3.0216,"[{""rating"":96.41288433382138,""responseTime"":3.0215999999940095}]",space,5.0645,,959.6475,Half the time,50,959.6534,,,[],,0,1,1,1,1,audio/Narrative7Situation1.wav,audio/Narrative8Situation1.wav,audio/Narrative5Situation1.wav,audio/Narrative6Situation1.wav,2,5,5,2,,,,,,,,,,,,,,,,,,,,,,,,,,,,,,,,,,,,,,,
,,,,,,65c676a951589a3062bc6de2,2024-05-13_15h31.44.637,group3.1-3.2-social-tom,2023.2.2,Win32,60.24096386,65c5074098b851296ff0b7ed,6642315efdc49befc5961517,,,,,,,,,,,,,,,,,,,,,,,,,,,,,959.6541,2,audio/Narrative5Situation2.wav,962.6624,,962.6625,992.1311,"[[999,23],[999,115],[999,199],[999,282],[999,366],[999,449],[999,532],[999,615],[999,699],[999,782],[999,865],[999,949],[999,1032],[999,1115],[999,1199],[999,1282],[999,1365],[999,1448],[999,1532],[999,1616],[999,1698],[999,1782],[999,1865],[999,1948],[999,2031],[999,2115],[999,2198],[999,2281],[999,2365],[999,2448],[999,2531],[999,2614],[999,2698],[999,2781],[999,2864],[999,2948],[999,3031],[999,3114],[999,3197],[999,3281],[999,3364],[999,3447],[999,3531],[999,3614],[999,3697],[999,3781],[999,3864],[999,3947],[999,4030],[999,4114],[999,4197],[999,4280],[999,4364],[999,4447],[999,4530],[999,4613],[999,4697],[999,4780],[999,4863],[999,4947],[999,5030],[999,5113],[999,5197],[999,5280],[999,5363],[999,5446],[999,5530],[999,5613],[999,5696],[999,5779],[999,5863],[999,5946],[999,6030],[999,6113],[999,6196],[999,6279],[999,6363],[999,6446],[999,6529],[999,6612],[999,6696],[999,6779],[999,6862],[999,6946],[999,7029],[999,7112],[999,7196],[999,7279],[999,7362],[999,7445],[999,7529],[999,7612],[999,7695],[999,7778],[999,7862],[999,7945],[999,8028],[999,8112],[999,8195],[999,8278],[999,8362],[999,8445],[999,8528],[999,8611],[999,8695],[999,8778],[999,8861],[999,8945],[999,9028],[999,9111],[999,9195],[999,9278],[999,9361],[999,9444],[999,9528],[999,9611],[999,9694],[999,9778],[999,9861],[999,9944],[999,10027],[999,10110],[999,10194],[999,10277],[999,10360],[999,10444],[999,10527],[999,10610],[999,10694],[999,10777],[999,10860],[999,10944],[999,11027],[999,11110],[999,11193],[999,11277],[999,11360],[999,11443],[999,11527],[999,11610],[999,11693],[999,11776],[999,11860],[999,11943],[999,12026],[999,12110],[999,12193],[999,12276],[999,12360],[999,12443],[999,12526],[999,12609],[999,12693],[999,12776],[999,12859],[999,12943],[999,13026],[999,13110],[999,13192],[999,13276],[999,13359],[999,13442],[999,13526],[999,13609],[999,13692],[999,13776],[999,13860],[999,13942],[999,14025],[999,14109],[999,14192],[999,14275],[999,14359],[999,14442],[999,14525],[999,14608],[999,14692],[999,14775],[999,14858],[999,14942],[999,15025],[999,15108],[999,15191],[999,15275],[999,15358],[999,15441],[999,15525],[999,15608],[999,15691],[999,15774],[999,15858],[999,15941],[999,16024],[999,16108],[999,16191],[999,16274],[999,16358],[999,16441],[999,16524],[999,16607],[999,16691],[999,16774],[999,16857],[999,16941],[999,17024],[999,17107],[999,17190],[999,17274],[999,17357],[999,17440],[999,17524],[999,17607],[999,17690],[999,17773],[999,17857],[999,17940],[999,18023],[999,18107],[999,18190],[999,18273],[999,18356],[999,18440],[999,18523],[999,18606],[999,18690],[999,18773],[999,18856],[999,18940],[999,19023],[999,19106],[999,19189],[999,19273],[999,19356],[999,19439],[999,19522],[999,19606],[999,19689],[999,19773],[999,19856],[999,19939],[999,20022],[999,20105],[999,20189],[999,20272],[999,20355],[999,20439],[999,20522],[999,20605],[999,20689],[999,20772],[999,20855],[999,20938],[999,21022],[999,21105],[999,21188],[999,21272],[999,21355],[999,21438],[999,21522],[999,21605],[999,21688],[999,21771],[999,21855],[999,21938],[999,22021],[999,22105],[999,22188],[999,22271],[999,22355],[999,22437],[999,22521],[999,22604],[999,22687],[999,22771],[999,22854],[999,22937],[999,23021],[999,23104],[999,23187],[999,23270],[999,23354],[999,23437],[999,23520],[999,23604],[999,23687],[999,23770],[999,23853],[999,23937],[999,24020],[999,24103],[999,24187],[999,24270],[999,24353],[999,24437],[999,24520],[999,24603],[999,24687],[999,24770],[999,24853],[999,24936],[999,25020],[999,25103],[999,25186],[999,25270],[999,25353],[999,25436],[999,25519],[999,25603],[999,25686],[999,25769],[999,25853],[999,25936],[999,26019],[999,26103],[999,26186],[999,26269],[999,26352],[999,26436],[999,26519],[999,26602],[999,26686],[999,26769],[999,26852],[999,26935],[999,27019],[999,27102],[999,27185],[999,27269],[999,27352],[999,27435],[999,27519],[999,27602],[999,27685],[999,27768],[999,27852],[999,27935],[999,28018],[999,28101],[999,28185],[999,28268],[999,28351],[999,28435],[999,28518],[999,28601],[999,28685],[999,28768],[999,28851],[999,28935],[999,29018],[999,29101],[999,29184],[999,29268],[999,29351],[999,29434]]",1,0,992.1315,996.1122,93.9238653,2.9999,"[{""rating"":93.92386530014642,""responseTime"":2.9998999999911575}]",space,3.4401,,996.1124,All the time,100,1010.0383,99.4875549,11.8274,"[{""rating"":99.48755490483163,""responseTime"":11.827400000005923}]",space,0,2,2,2,1,audio/Narrative7Situation2.wav,audio/Narrative8Situation2.wav,audio/Narrative5Situation2.wav,audio/Narrative6Situation2.wav,3,3,3,3,,,13.3651,,,,,,,,,,,,,,,,,,,,,,,,,,,,,,,,,,,,
,,,,,,65c676a951589a3062bc6de2,2024-05-13_15h31.44.637,group3.1-3.2-social-tom,2023.2.2,Win32,60.24096386,65c5074098b851296ff0b7ed,6642315efdc49befc5961517,,,,,,,,,,,,,,,,,,,,,,,,,,,,,1010.0393,2,audio/Narrative5Situation3.wav,1013.053,,1013.053,1026.946,[],1,0,1026.9461,1031.5106,79.42898975,2.6216,"[{""rating"":79.42898975109809,""responseTime"":2.6215999999940323}]",space,4.0154,,1031.5109,All the time,100,1031.5161,,,[],,0,3,3,3,1,audio/Narrative7Situation3.wav,audio/Narrative8Situation3.wav,audio/Narrative5Situation3.wav,audio/Narrative6Situation3.wav,8,4,3,5,,,,,,,,,,,,,,,,,,,,,,,,,,,,,,,,,,,,,,,
,,,,,,65c676a951589a3062bc6de2,2024-05-13_15h31.44.637,group3.1-3.2-social-tom,2023.2.2,Win32,60.24096386,65c5074098b851296ff0b7ed,6642315efdc49befc5961517,,,,,,,,,,,,,,,,,,,,,,,,,,,,,1031.5167,2,audio/Narrative5Situation4.wav,1032.5263,,1032.5264,1052.9168,"[[999,0],[999,99],[999,183],[999,266],[999,349],[999,432],[999,516],[999,599],[999,682],[999,766],[999,849],[999,932],[999,1015],[999,1099],[999,1182],[999,1265],[999,1349],[999,1432],[999,1515],[999,1599],[999,1682],[999,1765],[999,1849],[999,1932],[999,2015],[999,2099],[999,2182],[999,2265],[999,2349],[999,2432],[999,2515],[999,2598],[999,2682],[999,2765],[999,2848],[999,2932],[999,3015],[999,3098],[999,3181],[999,3265],[999,3348],[999,3431],[999,3515],[999,3598],[999,3681],[999,3765],[999,3848],[999,3931],[999,4014],[999,4098],[999,4181],[999,4264],[999,4347],[999,4431],[999,4514],[999,4597],[999,4681],[999,4764],[999,4847],[999,4930],[999,5014],[999,5097],[999,5180],[999,5264],[999,5347],[999,5430],[999,5514],[999,5597],[999,5680],[999,5763],[999,5847],[999,5930],[999,6013],[999,6096],[999,6180],[999,6263],[999,6346],[999,6430],[999,6513],[999,6596],[999,6680],[999,6763],[999,6846],[999,6929],[999,7013],[999,7096],[999,7179],[999,7262],[999,7346],[999,7429],[999,7513],[999,7596],[999,7679],[999,7762],[999,7846],[999,7929],[999,8012],[999,8096],[999,8179],[999,8262],[999,8345],[999,8429],[999,8512],[999,8595],[999,8679],[999,8762],[999,8845],[999,8928],[999,9012],[999,9095],[999,9178],[999,9261],[999,9345],[999,9428],[999,9511],[999,9595],[999,9678],[999,9761],[999,9845],[999,9928],[999,10011],[999,10095],[999,10178],[999,10261],[999,10344],[999,10428],[999,10511],[999,10594],[999,10678],[999,10761],[999,10844],[999,10927],[999,11011],[999,11094],[999,11177],[999,11261],[999,11344],[999,11427],[999,11510],[999,11594],[999,11677],[999,11760],[999,11844],[999,11927],[999,12010],[999,12093],[999,12177],[999,12260],[999,12343],[999,12427],[999,12510],[999,12593],[999,12677],[999,12760],[999,12843],[999,12926],[999,13010],[999,13093],[999,13176],[999,13260],[999,13343],[999,13426],[999,13510],[999,13593],[999,13676],[999,13759],[999,13843],[999,13926],[999,14009],[999,14093],[999,14176],[999,14259],[999,14342],[999,14426],[999,14509],[999,14592],[999,14675],[999,14759],[999,14842],[999,14926],[999,15009],[999,15092],[999,15175],[999,15259],[999,15342],[999,15425],[999,15508],[999,15592],[999,15675],[999,15758],[999,15842],[999,15925],[999,16008],[999,16092],[999,16175],[999,16258],[999,16341],[999,16425],[999,16508],[999,16591],[999,16675],[999,16758],[999,16841],[999,16924],[999,17008],[999,17091],[999,17174],[999,17257],[999,17341],[999,17424],[999,17507],[999,17591],[999,17674],[999,17757],[999,17841],[999,17924],[999,18007],[999,18090],[999,18174],[999,18257],[999,18340],[999,18424],[999,18507],[999,18590],[999,18674],[999,18757],[999,18840],[999,18923],[999,19007],[999,19090],[999,19173],[999,19257],[999,19340],[999,19423],[999,19506],[999,19590],[999,19673],[999,19756],[999,19840],[999,19923],[999,20006],[999,20089],[999,20173],[999,20256],[999,20339]]",1,0,1052.9171,1059.3006,98.90190337,3.7647,"[{""rating"":98.90190336749633,""responseTime"":3.764700000003131}]",space,5.8605,,1059.3007,Half the time,50,1059.3315,,,[],,0,4,4,4,1,audio/Narrative7Situation4.wav,audio/Narrative8Situation4.wav,audio/Narrative5Situation4.wav,audio/Narrative6Situation4.wav,3,3,1,2,,,,,,,,,,,,,,,,,,,,,,,,,,,,,,,,,,,,,,,
,,,,,,65c676a951589a3062bc6de2,2024-05-13_15h31.44.637,group3.1-3.2-social-tom,2023.2.2,Win32,60.24096386,65c5074098b851296ff0b7ed,6642315efdc49befc5961517,,,,,,,,,,,,,,,,,,,,,,,,,,,,,1059.3317,2,audio/Narrative5Situation5.wav,1064.3438,,1064.3439,1079.7695,"[[999,34],[999,133],[999,216],[999,299],[999,383],[999,466],[999,549],[999,632],[999,716],[999,799],[999,882],[999,966],[999,1049],[999,1132],[999,1215],[999,1299],[999,1382],[999,1465],[999,1548],[999,1632],[999,1715],[999,1799],[999,1882],[999,1965],[999,2048],[999,2132],[999,2215],[999,2298],[999,2382],[999,2465],[999,2548],[999,2631],[999,2715],[999,2798],[999,2881],[999,2964],[999,3048],[999,3131],[999,3214],[999,3298],[999,3381],[999,3464],[999,3548],[999,3631],[999,3714],[999,3798],[999,3881],[999,3964],[999,4047],[999,4131],[999,4214],[999,4297],[999,4381],[999,4464],[999,4547],[999,4630],[999,4714],[999,4797],[999,4880],[999,4964],[999,5047],[999,5130],[999,5213],[999,5297],[999,5380],[999,5463],[999,5547],[999,5630],[999,5713],[999,5796],[999,5880],[999,5963],[999,6046],[999,6129],[999,6213],[999,6296],[999,6379],[999,6463],[999,6546],[999,6629],[999,6713],[999,6796],[999,6879],[999,6963],[999,7046],[999,7129],[999,7213],[999,7296],[999,7379],[999,7462],[999,7546],[999,7629],[999,7712],[999,7795],[999,7879],[999,7962],[999,8045],[999,8129],[999,8212],[999,8295],[999,8378],[999,8462],[999,8545],[999,8628],[999,8712],[999,8795],[999,8878],[999,8962],[999,9045],[999,9128],[999,9212],[999,9295],[999,9378],[999,9461],[999,9545],[999,9628],[999,9711],[999,9794],[999,9878],[999,9961],[999,10044],[999,10128],[999,10211],[999,10294],[999,10378],[999,10461],[999,10544],[999,10627],[999,10711],[999,10794],[999,10877],[999,10961],[999,11044],[999,11127],[999,11210],[999,11294],[999,11377],[999,11460],[999,11544],[999,11627],[999,11710],[999,11793],[999,11877],[999,11960],[999,12043],[999,12126],[999,12210],[999,12293],[999,12376],[999,12459],[999,12543],[999,12626],[999,12709],[999,12792],[999,12876],[999,12959],[999,13043],[999,13126],[999,13209],[999,13292],[999,13376],[999,13459],[999,13542],[999,13626],[999,13709],[999,13792],[999,13876],[999,13959],[999,14042],[999,14126],[999,14209],[999,14292],[999,14375],[999,14458],[999,14542],[999,14625],[999,14709],[999,14792],[999,14875],[999,14958],[999,15042],[999,15126],[999,15208],[999,15292],[999,15375]]",1,0,1079.7698,1086.3373,81.03953148,4.3636,"[{""rating"":68.00878477306003,""responseTime"":2.365000000000009},{""rating"":81.03953147877013,""responseTime"":4.363600000009001}]",space,6.0067,,1086.3375,All the time,100,1086.3459,,,[],,0,5,5,5,1,audio/Narrative7Situation5.wav,audio/Narrative8Situation5.wav,audio/Narrative5Situation5.wav,audio/Narrative6Situation5.wav,5,2,5,2,,,,,,,,,,,,,,,,,,,,,,,,,,,,,,,,,,,,,,,
,,,,,,65c676a951589a3062bc6de2,2024-05-13_15h31.44.637,group3.1-3.2-social-tom,2023.2.2,Win32,60.24096386,65c5074098b851296ff0b7ed,6642315efdc49befc5961517,,,,,,,,,,,,,,,,,,,,,,,,,,,,,1086.3466,2,audio/Narrative5Situation6.wav,1089.3482,,1089.3484,1095.0286,[],1,0,1095.0288,1100.0758,91.28843338,2.9541,"[{""rating"":91.28843338213764,""responseTime"":2.954099999994014}]",space,4.5049,,1100.0759,Not at all,0,1100.0865,,,[],,0,6,6,6,1,audio/Narrative7Situation6.wav,audio/Narrative8Situation6.wav,audio/Narrative5Situation6.wav,audio/Narrative6Situation6.wav,3,2,3,2,,,,,,,,,,,,,,,,,,,,,,,,,,,,,,,,,,,,,,,
,,,,,,65c676a951589a3062bc6de2,2024-05-13_15h31.44.637,group3.1-3.2-social-tom,2023.2.2,Win32,60.24096386,65c5074098b851296ff0b7ed,6642315efdc49befc5961517,,,,,,,,,,,,,,,,,,,,,,,,,,,,,1100.0872,2,audio/Narrative5Situation7.wav,1104.0901,,1104.0901,1125.1299,[],1,0,1125.1301,1130.4103,67.56954612,3.6093,"[{""rating"":67.56954612005856,""responseTime"":3.609300000011899}]",space,4.743,,1130.4104,All the time,100,1130.418,,,[],,0,7,7,7,1,audio/Narrative7Situation7.wav,audio/Narrative8Situation7.wav,audio/Narrative5Situation7.wav,audio/Narrative6Situation7.wav,5,3,4,5,,,,,,,,,,,,,,,,,,,,,,,,,,,,,,,,,,,,,,,
,,,,,,65c676a951589a3062bc6de2,2024-05-13_15h31.44.637,group3.1-3.2-social-tom,2023.2.2,Win32,60.24096386,65c5074098b851296ff0b7ed,6642315efdc49befc5961517,,,,,,,,,,,,,,,,,,,,,,,,,,,,,1130.4184,2,audio/Narrative5Situation8.wav,1133.4255,,1133.4255,1142.2544,[],1,0,1142.2546,1146.9522,98.75549048,2.4731,"[{""rating"":98.75549048316252,""responseTime"":2.4730999999940195}]",space,4.1614,,1146.9523,Not at all,0,1146.9614,,,[],,0,8,8,8,1,audio/Narrative7Situation8.wav,audio/Narrative8Situation8.wav,audio/Narrative5Situation8.wav,audio/Narrative6Situation8.wav,2,3,3,5,,,,,,,,,,,,,,,,,,,,,,,,,,,,,,,,,,,,,,,
,,,,,,65c676a951589a3062bc6de2,2024-05-13_15h31.44.637,group3.1-3.2-social-tom,2023.2.2,Win32,60.24096386,65c5074098b851296ff0b7ed,6642315efdc49befc5961517,,,,,,,,,,,,,,,,,,,,,,,,,,,,,1146.9621,2,audio/Narrative5Situation9.wav,1149.9671,,1149.9672,1189.5137,"[[999,34],[999,149],[999,232],[999,316],[999,399],[999,482],[999,565],[999,649],[999,732],[999,816],[999,899],[999,982],[999,1065],[999,1149],[999,1232],[999,1315],[999,1398],[999,1482],[999,1565],[999,1648],[999,1732],[999,1815],[999,1898],[999,1981],[999,2065],[999,2148],[999,2231],[999,2315],[999,2398],[999,2481],[999,2565],[999,2648],[999,2731],[999,2814],[999,2898],[999,2981],[999,3064],[999,3147],[999,3231],[999,3314],[999,3397],[999,3481],[999,3564],[999,3647],[999,3731],[999,3814],[999,3897],[999,3980],[999,4064],[999,4147],[999,4230],[999,4314],[999,4397],[999,4480],[999,4564],[999,4647],[999,4730],[999,4813],[999,4897],[999,4980],[999,5063],[999,5146],[999,5230],[999,5313],[999,5396],[999,5479],[999,5563],[999,5646],[999,5729],[999,5813],[999,5896],[999,5979],[999,6063],[999,6146],[999,6229],[999,6313],[999,6396],[999,6479],[999,6562],[999,6646],[999,6729],[999,6812],[999,6895],[999,6979],[999,7062],[999,7145],[999,7229],[999,7312],[999,7395],[999,7479],[999,7562],[999,7645],[999,7729],[999,7812],[999,7895],[999,7979],[999,8062],[999,8145],[999,8228],[999,8312],[999,8395],[999,8478],[999,8561],[999,8644],[999,8728],[999,8811],[999,8894],[999,8978],[999,9061],[999,9144],[999,9228],[999,9311],[999,9394],[999,9478],[999,9561],[999,9644],[999,9728],[999,9811],[999,9894],[999,9977],[999,10061],[999,10144],[999,10227],[999,10311],[999,10394],[999,10477],[999,10560],[999,10643],[999,10727],[999,10810],[999,10894],[999,10977],[999,11060],[999,11143],[999,11227],[999,11310],[999,11393],[999,11477],[999,11560],[999,11643],[999,11727],[999,11810],[999,11893],[999,11976],[999,12059],[999,12143],[999,12226],[999,12309],[999,12393],[999,12476],[999,12559],[999,12643],[999,12726],[999,12809],[999,12892],[999,12976],[999,13059],[999,13142],[999,13226],[999,13309],[999,13392],[999,13475],[999,13559],[999,13642],[999,13725],[999,13809],[999,13892],[999,13975],[999,14058],[999,14142],[999,14225],[999,14308],[999,14392],[999,14475],[999,14558],[999,14641],[999,14725],[999,14808],[999,14891],[999,14975],[999,15058],[999,15142],[999,15225],[999,15308],[999,15391],[999,15475],[999,15558],[999,15641],[999,15724],[999,15808],[999,15891],[999,15974],[999,16058],[999,16141],[999,16224],[999,16307],[999,16391],[999,16474],[999,16557],[999,16641],[999,16724],[999,16807],[999,16890],[999,16973],[999,17057],[999,17140],[999,17223],[999,17307],[999,17390],[999,17473],[999,17557],[999,17640],[999,17723],[999,17806],[999,17890],[999,17973],[999,18057],[999,18140],[999,18223],[999,18306],[999,18390],[999,18473],[999,18556],[999,18640],[999,18723],[999,18806],[999,18889],[999,18973],[999,19056],[999,19139],[999,19223],[999,19306],[999,19389],[999,19472],[999,19556],[999,19639],[999,19722],[999,19806],[999,19889],[999,19972],[999,20056],[999,20139],[999,20222],[999,20305],[999,20389],[999,20472],[999,20555],[999,20639],[999,20722],[999,20805],[999,20888],[999,20972],[999,21055],[999,21138],[999,21221],[999,21305],[999,21388],[999,21471],[999,21555],[999,21638],[999,21721],[999,21805],[999,21888],[999,21971],[999,22055],[999,22138],[999,22221],[999,22305],[999,22388],[999,22471],[999,22554],[999,22638],[999,22721],[999,22804],[999,22888],[999,22971],[999,23054],[999,23137],[999,23221],[999,23304],[999,23387],[999,23470],[999,23554],[999,23637],[999,23720],[999,23804],[999,23887],[999,23970],[999,24054],[999,24137],[999,24220],[999,24304],[999,24387],[999,24470],[999,24553],[999,24636],[999,24719],[999,24803],[999,24886],[999,24969],[999,25053],[999,25136],[999,25219],[999,25303],[999,25386],[999,25470],[999,25553],[999,25636],[999,25719],[999,25803],[999,25886],[999,25969],[999,26053],[999,26136],[999,26219],[999,26302],[999,26386],[999,26469],[999,26552],[999,26636],[999,26719],[999,26802],[999,26885],[999,26969],[999,27052],[999,27135],[999,27219],[999,27302],[999,27385],[999,27469],[999,27552],[999,27635],[999,27718],[999,27802],[999,27885],[999,27968],[999,28051],[999,28135],[999,28218],[999,28301],[999,28385],[999,28468],[999,28551],[999,28634],[999,28718],[999,28801],[999,28884],[999,28968],[999,29051],[999,29134],[999,29218],[999,29301],[999,29384],[999,29468],[999,29551],[999,29634],[999,29717],[999,29801],[999,29884],[999,29967],[999,30050],[999,30134],[999,30217],[999,30300],[999,30384],[999,30467],[999,30550],[999,30634],[999,30717],[999,30800],[999,30884],[999,30967],[999,31050],[999,31133],[999,31217],[999,31300],[999,31383],[999,31466],[999,31550],[999,31633],[999,31716],[999,31800],[999,31883],[999,31966],[999,32049],[999,32133],[999,32216],[999,32299],[999,32383],[999,32466],[999,32549],[999,32633],[999,32716],[999,32799],[999,32882],[999,32966],[999,33049],[999,33132],[999,33216],[999,33299],[999,33382],[999,33465],[999,33549],[999,33632],[999,33716],[999,33799],[999,33882],[999,33965],[999,34048],[999,34132],[999,34215],[999,34298],[999,34382],[999,34465],[999,34548],[999,34632],[999,34715],[999,34798],[999,34881],[999,34965],[999,35048],[999,35131],[999,35214],[999,35298],[999,35381],[999,35464],[999,35547],[999,35631],[999,35714],[999,35798],[999,35881],[999,35964],[999,36048],[999,36131],[999,36214],[999,36297],[999,36381],[999,36464],[999,36547],[999,36631],[999,36714],[999,36797],[999,36881],[999,36964],[999,37047],[999,37130],[999,37214],[999,37297],[999,37380],[999,37464],[999,37547],[999,37630],[999,37713],[999,37797],[999,37880],[999,37963],[999,38046],[999,38130],[999,38213],[999,38296],[999,38380],[999,38463],[999,38546],[999,38630],[999,38713],[999,38796],[999,38879],[999,38963],[999,39046],[999,39129],[999,39212],[999,39296],[999,39379],[999,39462],[999,39546]]",1,0,1189.5142,1194.6944,67.42313324,3.1331,"[{""rating"":67.42313323572475,""responseTime"":3.1331000000088807}]",space,4.6346,,1194.6945,Not at all,0,1194.6996,,,[],,0,9,9,9,1,audio/Narrative7Situation9.wav,audio/Narrative8Situation9.wav,audio/Narrative5Situation9.wav,audio/Narrative6Situation9.wav,2,3,3,4,,,,,,,,,,,,,,,,,,,,,,,,,,,,,,,,,,,,,,,
,,,,,,65c676a951589a3062bc6de2,2024-05-13_15h31.44.637,group3.1-3.2-social-tom,2023.2.2,Win32,60.24096386,65c5074098b851296ff0b7ed,6642315efdc49befc5961517,,,,,,,,,,,,,,,,,,,,,,,,,,,,,1194.7002,2,audio/Narrative6Situation1.wav,1196.7098,,1196.7099,1223.2969,"[[999,1],[999,99],[999,183],[999,266],[999,349],[999,433],[999,516],[999,599],[999,683],[999,767],[999,850],[999,933],[999,1016],[999,1099],[999,1182],[999,1266],[999,1349],[999,1433],[999,1515],[999,1599],[999,1682],[999,1765],[999,1849],[999,1932],[999,2015],[999,2098],[999,2182],[999,2265],[999,2348],[999,2432],[999,2515],[999,2598],[999,2682],[999,2765],[999,2848],[999,2931],[999,3015],[999,3098],[999,3181],[999,3265],[999,3348],[999,3431],[999,3514],[999,3598],[999,3681],[999,3764],[999,3847],[999,3931],[999,4014],[999,4097],[999,4181],[999,4264],[999,4347],[999,4431],[999,4514],[999,4597],[999,4680],[999,4764],[999,4847],[999,4930],[999,5014],[999,5097],[999,5180],[999,5263],[999,5347],[999,5430],[999,5513],[999,5597],[999,5680],[999,5763],[999,5846],[999,5930],[999,6013],[999,6096],[999,6180],[999,6263],[999,6346],[999,6430],[999,6513],[999,6596],[999,6680],[999,6763],[999,6846],[999,6929],[999,7013],[999,7096],[999,7179],[999,7263],[999,7346],[999,7429],[999,7513],[999,7596],[999,7679],[999,7762],[999,7845],[999,7929],[999,8012],[999,8095],[999,8179],[999,8262],[999,8345],[999,8428],[999,8512],[999,8595],[999,8679],[999,8762],[999,8845],[999,8928],[999,9012],[999,9095],[999,9178],[999,9262],[999,9345],[999,9428],[999,9511],[999,9595],[999,9678],[999,9762],[999,9845],[999,9928],[999,10011],[999,10094],[999,10178],[999,10261],[999,10344],[999,10428],[999,10511],[999,10594],[999,10678],[999,10761],[999,10844],[999,10927],[999,11011],[999,11094],[999,11177],[999,11260],[999,11344],[999,11427],[999,11510],[999,11594],[999,11677],[999,11760],[999,11843],[999,11927],[999,12010],[999,12093],[999,12177],[999,12260],[999,12343],[999,12426],[999,12510],[999,12593],[999,12676],[999,12760],[999,12843],[999,12926],[999,13010],[999,13093],[999,13176],[999,13259],[999,13343],[999,13426],[999,13509],[999,13593],[999,13676],[999,13759],[999,13843],[999,13926],[999,14009],[999,14093],[999,14176],[999,14259],[999,14342],[999,14425],[999,14509],[999,14592],[999,14675],[999,14759],[999,14841],[999,14925],[999,15009],[999,15092],[999,15175],[999,15259],[999,15342],[999,15425],[999,15508],[999,15592],[999,15674],[999,15758],[999,15841],[999,15924],[999,16008],[999,16091],[999,16174],[999,16258],[999,16341],[999,16424],[999,16508],[999,16591],[999,16674],[999,16758],[999,16841],[999,16924],[999,17007],[999,17091],[999,17174],[999,17257],[999,17341],[999,17424],[999,17507],[999,17591],[999,17674],[999,17757],[999,17841],[999,17924],[999,18007],[999,18090],[999,18174],[999,18257],[999,18340],[999,18423],[999,18507],[999,18591],[999,18673],[999,18757],[999,18840],[999,18923],[999,19006],[999,19089],[999,19173],[999,19256],[999,19340],[999,19423],[999,19506],[999,19589],[999,19673],[999,19756],[999,19839],[999,19923],[999,20006],[999,20089],[999,20173],[999,20256],[999,20339],[999,20423],[999,20506],[999,20589],[999,20672],[999,20756],[999,20839],[999,20923],[999,21006],[999,21089],[999,21172],[999,21255],[999,21339],[999,21422],[999,21505],[999,21588],[999,21672],[999,21755],[999,21838],[999,21922],[999,22005],[999,22088],[999,22172],[999,22255],[999,22338],[999,22422],[999,22505],[999,22588],[999,22671],[999,22755],[999,22838],[999,22921],[999,23004],[999,23088],[999,23171],[999,23254],[999,23338],[999,23421],[999,23504],[999,23587],[999,23671],[999,23754],[999,23837],[999,23921],[999,24004],[999,24087],[999,24171],[999,24254],[999,24337],[999,24420],[999,24504],[999,24587],[999,24670],[999,24754],[999,24837],[999,24920],[999,25003],[999,25086],[999,25170],[999,25253],[999,25336],[999,25420],[999,25503],[999,25586],[999,25670],[999,25753],[999,25836],[999,25919],[999,26003],[999,26086],[999,26169],[999,26253],[999,26336],[999,26419],[999,26503],[999,26586]]",1,0,1223.2973,1228.8602,57.75988287,3.8097,"[{""rating"":57.75988286969253,""responseTime"":3.8097000000029766}]",space,5.0166,,1228.8603,Half the time,50,1228.8695,,,[],,0,10,10,10,1,audio/Narrative8Situation1.wav,audio/Narrative7Situation1.wav,audio/Narrative6Situation1.wav,audio/Narrative5Situation1.wav,5,2,2,5,,,,,,,,,,,,,,,,,,,,,,,,,,,,,,,,,,,,,,,
,,,,,,65c676a951589a3062bc6de2,2024-05-13_15h31.44.637,group3.1-3.2-social-tom,2023.2.2,Win32,60.24096386,65c5074098b851296ff0b7ed,6642315efdc49befc5961517,,,,,,,,,,,,,,,,,,,,,,,,,,,,,1228.8701,2,audio/Narrative6Situation2.wav,1231.8752,,1231.8753,1260.3778,"[[999,15],[999,116],[999,199],[999,283],[999,366],[999,449],[999,532],[999,616],[999,700],[999,782],[999,866],[999,949],[999,1032],[999,1115],[999,1199],[999,1282],[999,1365],[999,1448],[999,1532],[999,1615],[999,1699],[999,1782],[999,1865],[999,1948],[999,2031],[999,2115],[999,2198],[999,2281],[999,2365],[999,2448],[999,2531],[999,2615],[999,2698],[999,2781],[999,2865],[999,2948],[999,3031],[999,3114],[999,3198],[999,3281],[999,3364],[999,3448],[999,3531],[999,3614],[999,3697],[999,3781],[999,3864],[999,3947],[999,4031],[999,4114],[999,4197],[999,4281],[999,4364],[999,4448],[999,4530],[999,4614],[999,4697],[999,4780],[999,4863],[999,4947],[999,5030],[999,5113],[999,5197],[999,5280],[999,5363],[999,5447],[999,5530],[999,5613],[999,5697],[999,5780],[999,5863],[999,5947],[999,6030],[999,6113],[999,6196],[999,6279],[999,6363],[999,6446],[999,6529],[999,6613],[999,6696],[999,6779],[999,6863],[999,6946],[999,7029],[999,7113],[999,7196],[999,7279],[999,7362],[999,7446],[999,7529],[999,7612],[999,7696],[999,7779],[999,7862],[999,7945],[999,8029],[999,8112],[999,8195],[999,8278],[999,8362],[999,8445],[999,8528],[999,8612],[999,8695],[999,8778],[999,8862],[999,8945],[999,9028],[999,9111],[999,9195],[999,9278],[999,9361],[999,9445],[999,9528],[999,9611],[999,9694],[999,9778],[999,9861],[999,9944],[999,10028],[999,10111],[999,10194],[999,10278],[999,10361],[999,10444],[999,10528],[999,10611],[999,10694],[999,10777],[999,10861],[999,10944],[999,11027],[999,11110],[999,11194],[999,11277],[999,11360],[999,11444],[999,11527],[999,11610],[999,11693],[999,11777],[999,11860],[999,11943],[999,12027],[999,12110],[999,12193],[999,12276],[999,12360],[999,12443],[999,12526],[999,12610],[999,12693],[999,12776],[999,12860],[999,12943],[999,13026],[999,13109],[999,13193],[999,13276],[999,13359],[999,13442],[999,13526],[999,13609],[999,13692],[999,13776],[999,13859],[999,13942],[999,14026],[999,14109],[999,14192],[999,14276],[999,14359],[999,14442],[999,14525],[999,14609],[999,14692],[999,14775],[999,14859],[999,14942],[999,15025],[999,15108],[999,15192],[999,15275],[999,15358],[999,15442],[999,15525],[999,15608],[999,15692],[999,15775],[999,15858],[999,15941],[999,16025],[999,16108],[999,16191],[999,16275],[999,16358],[999,16441],[999,16524],[999,16607],[999,16691],[999,16774],[999,16857],[999,16941],[999,17024],[999,17107],[999,17191],[999,17274],[999,17357],[999,17441],[999,17524],[999,17607],[999,17690],[999,17774],[999,17857],[999,17940],[999,18024],[999,18107],[999,18190],[999,18273],[999,18357],[999,18440],[999,18523],[999,18606],[999,18690],[999,18773],[999,18856],[999,18940],[999,19023],[999,19106],[999,19190],[999,19273],[999,19356],[999,19440],[999,19523],[999,19606],[999,19689],[999,19773],[999,19856],[999,19939],[999,20023],[999,20106],[999,20189],[999,20272],[999,20356],[999,20439],[999,20522],[999,20606],[999,20689],[999,20772],[999,20855],[999,20939],[999,21022],[999,21105],[999,21189],[999,21272],[999,21355],[999,21438],[999,21522],[999,21605],[999,21688],[999,21771],[999,21855],[999,21938],[999,22022],[999,22105],[999,22188],[999,22271],[999,22355],[999,22438],[999,22521],[999,22605],[999,22688],[999,22771],[999,22854],[999,22938],[999,23021],[999,23104],[999,23187],[999,23271],[999,23354],[999,23437],[999,23521],[999,23604],[999,23687],[999,23771],[999,23854],[999,23937],[999,24021],[999,24104],[999,24187],[999,24270],[999,24354],[999,24437],[999,24520],[999,24604],[999,24687],[999,24770],[999,24853],[999,24937],[999,25020],[999,25103],[999,25187],[999,25270],[999,25353],[999,25436],[999,25520],[999,25603],[999,25686],[999,25770],[999,25853],[999,25936],[999,26019],[999,26103],[999,26186],[999,26269],[999,26353],[999,26436],[999,26519],[999,26603],[999,26686],[999,26769],[999,26852],[999,26936],[999,27019],[999,27102],[999,27186],[999,27269],[999,27352],[999,27435],[999,27519],[999,27602],[999,27685],[999,27769],[999,27852],[999,27935],[999,28019],[999,28102],[999,28185],[999,28268],[999,28352],[999,28435]]",1,0,1260.3782,1264.5923,83.82137628,2.7774,"[{""rating"":83.82137628111273,""responseTime"":2.7774000000060823}]",space,3.6673,,1264.5925,All the time,100,1264.6011,,,[],,0,11,11,11,1,audio/Narrative8Situation2.wav,audio/Narrative7Situation2.wav,audio/Narrative6Situation2.wav,audio/Narrative5Situation2.wav,3,3,3,3,,,,,,,,,,,,,,,,,,,,,,,,,,,,,,,,,,,,,,,
,,,,,,65c676a951589a3062bc6de2,2024-05-13_15h31.44.637,group3.1-3.2-social-tom,2023.2.2,Win32,60.24096386,65c5074098b851296ff0b7ed,6642315efdc49befc5961517,,,,,,,,,,,,,,,,,,,,,,,,,,,,,1264.6018,2,audio/Narrative6Situation3.wav,1269.6062,,1269.6063,1282.2335,[],1,0,1282.2338,1286.3143,98.31625183,2.8547,"[{""rating"":98.31625183016106,""responseTime"":2.854700000002822}]",space,3.535,,1286.3144,Half the time,50,1286.3236,,,[],,0,12,12,12,1,audio/Narrative8Situation3.wav,audio/Narrative7Situation3.wav,audio/Narrative6Situation3.wav,audio/Narrative5Situation3.wav,4,8,5,3,,,,,,,,,,,,,,,,,,,,,,,,,,,,,,,,,,,,,,,
,,,,,,65c676a951589a3062bc6de2,2024-05-13_15h31.44.637,group3.1-3.2-social-tom,2023.2.2,Win32,60.24096386,65c5074098b851296ff0b7ed,6642315efdc49befc5961517,,,,,,,,,,,,,,,,,,,,,,,,,,,,,1286.3243,2,audio/Narrative6Situation4.wav,1288.3298,,1288.3299,1300.9571,"[[999,1],[999,116],[999,199],[999,283],[999,366],[999,449],[999,533],[999,616],[999,699],[999,783],[999,866],[999,949],[999,1033],[999,1116],[999,1199],[999,1282],[999,1365],[999,1449],[999,1532],[999,1615],[999,1699],[999,1782],[999,1865],[999,1949],[999,2032],[999,2115],[999,2198],[999,2282],[999,2365],[999,2448],[999,2531],[999,2615],[999,2698],[999,2781],[999,2865],[999,2948],[999,3031],[999,3115],[999,3198],[999,3281],[999,3364],[999,3447],[999,3531],[999,3614],[999,3697],[999,3781],[999,3864],[999,3947],[999,4030],[999,4114],[999,4197],[999,4281],[999,4364],[999,4447],[999,4530],[999,4614],[999,4697],[999,4780],[999,4864],[999,4947],[999,5030],[999,5114],[999,5197],[999,5280],[999,5363],[999,5447],[999,5530],[999,5613],[999,5697],[999,5780],[999,5863],[999,5946],[999,6030],[999,6113],[999,6196],[999,6280],[999,6363],[999,6446],[999,6529],[999,6613],[999,6696],[999,6779],[999,6863],[999,6946],[999,7029],[999,7113],[999,7196],[999,7279],[999,7362],[999,7446],[999,7529],[999,7612],[999,7696],[999,7779],[999,7862],[999,7945],[999,8029],[999,8112],[999,8195],[999,8279],[999,8362],[999,8445],[999,8529],[999,8613],[999,8695],[999,8778],[999,8862],[999,8945],[999,9028],[999,9112],[999,9195],[999,9278],[999,9361],[999,9445],[999,9528],[999,9611],[999,9695],[999,9778],[999,9861],[999,9944],[999,10028],[999,10111],[999,10194],[999,10278],[999,10361],[999,10444],[999,10528],[999,10611],[999,10694],[999,10777],[999,10861],[999,10944],[999,11027],[999,11111],[999,11194],[999,11277],[999,11360],[999,11444],[999,11527],[999,11610],[999,11694],[999,11777],[999,11860],[999,11943],[999,12027],[999,12110],[999,12193],[999,12277],[999,12360],[999,12443],[999,12527],[999,12610]]",1,0,1300.9573,1304.3093,73.13323572,1.5494,"[{""rating"":73.13323572474377,""responseTime"":1.5493999999910102}]",space,2.7995,,1304.3094,Half the time,50,1304.3132,,,[],,0,13,13,13,1,audio/Narrative8Situation4.wav,audio/Narrative7Situation4.wav,audio/Narrative6Situation4.wav,audio/Narrative5Situation4.wav,3,3,2,1,,,,,,,,,,,,,,,,,,,,,,,,,,,,,,,,,,,,,,,
,,,,,,65c676a951589a3062bc6de2,2024-05-13_15h31.44.637,group3.1-3.2-social-tom,2023.2.2,Win32,60.24096386,65c5074098b851296ff0b7ed,6642315efdc49befc5961517,,,,,,,,,,,,,,,,,,,,,,,,,,,,,1304.3137,2,audio/Narrative6Situation5.wav,1306.3211,,1306.3213,1314.2835,[],1,0,1314.2837,1319.1643,85.87115666,3.008,"[{""rating"":85.87115666178624,""responseTime"":3.008000000000038}]",space,4.3419,,1319.1644,Not at all,0,1319.1733,,,[],,0,14,14,14,1,audio/Narrative8Situation5.wav,audio/Narrative7Situation5.wav,audio/Narrative6Situation5.wav,audio/Narrative5Situation5.wav,2,5,2,5,,,,,,,,,,,,,,,,,,,,,,,,,,,,,,,,,,,,,,,
,,,,,,65c676a951589a3062bc6de2,2024-05-13_15h31.44.637,group3.1-3.2-social-tom,2023.2.2,Win32,60.24096386,65c5074098b851296ff0b7ed,6642315efdc49befc5961517,,,,,,,,,,,,,,,,,,,,,,,,,,,,,1319.1739,2,audio/Narrative6Situation6.wav,1321.1794,,1321.1795,1332.258,"[[999,0],[999,99],[999,183],[999,266],[999,349],[999,433],[999,516],[999,599],[999,683],[999,766],[999,850],[999,932],[999,1016],[999,1099],[999,1182],[999,1266],[999,1349],[999,1432],[999,1516],[999,1599],[999,1682],[999,1766],[999,1849],[999,1932],[999,2015],[999,2099],[999,2182],[999,2265],[999,2349],[999,2432],[999,2515],[999,2599],[999,2682],[999,2765],[999,2848],[999,2932],[999,3015],[999,3098],[999,3182],[999,3265],[999,3348],[999,3431],[999,3515],[999,3598],[999,3681],[999,3765],[999,3848],[999,3931],[999,4014],[999,4098],[999,4181],[999,4264],[999,4348],[999,4431],[999,4514],[999,4597],[999,4681],[999,4764],[999,4847],[999,4931],[999,5014],[999,5097],[999,5181],[999,5264],[999,5347],[999,5430],[999,5514],[999,5597],[999,5680],[999,5763],[999,5847],[999,5930],[999,6013],[999,6097],[999,6180],[999,6263],[999,6347],[999,6430],[999,6513],[999,6596],[999,6680],[999,6763],[999,6846],[999,6930],[999,7013],[999,7096],[999,7179],[999,7263],[999,7346],[999,7429],[999,7513],[999,7596],[999,7679],[999,7762],[999,7846],[999,7929],[999,8012],[999,8096],[999,8179],[999,8262],[999,8346],[999,8429],[999,8512],[999,8595],[999,8679],[999,8762],[999,8845],[999,8929],[999,9012],[999,9095],[999,9178],[999,9262],[999,9345],[999,9428],[999,9512],[999,9595],[999,9678],[999,9762],[999,9845],[999,9928],[999,10011],[999,10095],[999,10178],[999,10261],[999,10345],[999,10428],[999,10511],[999,10595],[999,10678],[999,10761],[999,10844],[999,10928],[999,11011]]",1,0,1332.2583,1335.0895,81.62518302,1.8843,"[{""rating"":81.62518301610542,""responseTime"":1.8842999999969834}]",space,2.2949,,1335.0896,All the time,100,1335.0987,,,[],,0,15,15,15,1,audio/Narrative8Situation6.wav,audio/Narrative7Situation6.wav,audio/Narrative6Situation6.wav,audio/Narrative5Situation6.wav,2,3,2,3,,,,,,,,,,,,,,,,,,,,,,,,,,,,,,,,,,,,,,,
,,,,,,65c676a951589a3062bc6de2,2024-05-13_15h31.44.637,group3.1-3.2-social-tom,2023.2.2,Win32,60.24096386,65c5074098b851296ff0b7ed,6642315efdc49befc5961517,,,,,,,,,,,,,,,,,,,,,,,,,,,,,1335.0996,2,audio/Narrative6Situation7.wav,1340.1035,,1340.1036,1364.9573,"[[999,30],[999,132],[999,216],[999,299],[999,382],[999,466],[999,549],[999,632],[999,715],[999,799],[999,882],[999,966],[999,1049],[999,1132],[999,1215],[999,1299],[999,1382],[999,1465],[999,1548],[999,1632],[999,1715],[999,1798],[999,1882],[999,1965],[999,2048],[999,2132],[999,2215],[999,2298],[999,2381],[999,2465],[999,2548],[999,2631],[999,2715],[999,2798],[999,2881],[999,2965],[999,3048],[999,3131],[999,3214],[999,3298],[999,3381],[999,3464],[999,3548],[999,3631],[999,3714],[999,3797],[999,3881],[999,3964],[999,4047],[999,4131],[999,4214],[999,4297],[999,4380],[999,4464],[999,4547],[999,4630],[999,4714],[999,4797],[999,4880],[999,4964],[999,5047],[999,5130],[999,5213],[999,5297],[999,5380],[999,5463],[999,5547],[999,5630],[999,5713],[999,5796],[999,5880],[999,5963],[999,6046],[999,6130],[999,6213],[999,6296],[999,6379],[999,6462],[999,6546],[999,6629],[999,6712],[999,6796],[999,6879],[999,6962],[999,7045],[999,7129],[999,7212],[999,7296],[999,7379],[999,7462],[999,7546],[999,7629],[999,7712],[999,7795],[999,7879],[999,7962],[999,8045],[999,8129],[999,8212],[999,8295],[999,8378],[999,8462],[999,8545],[999,8628],[999,8712],[999,8795],[999,8878],[999,8961],[999,9045],[999,9128],[999,9211],[999,9295],[999,9378],[999,9461],[999,9544],[999,9628],[999,9711],[999,9795],[999,9878],[999,9961],[999,10044],[999,10128],[999,10211],[999,10294],[999,10377],[999,10461],[999,10544],[999,10627],[999,10711],[999,10794],[999,10877],[999,10960],[999,11044],[999,11127],[999,11210],[999,11294],[999,11377],[999,11460],[999,11544],[999,11627],[999,11710],[999,11793],[999,11877],[999,11960],[999,12043],[999,12127],[999,12210],[999,12293],[999,12376],[999,12460],[999,12543],[999,12626],[999,12709],[999,12793],[999,12876],[999,12959],[999,13043],[999,13126],[999,13209],[999,13292],[999,13376],[999,13459],[999,13542],[999,13625],[999,13709],[999,13792],[999,13875],[999,13959],[999,14042],[999,14125],[999,14209],[999,14292],[999,14375],[999,14458],[999,14542],[999,14625],[999,14709],[999,14792],[999,14875],[999,14958],[999,15042],[999,15125],[999,15208],[999,15292],[999,15375],[999,15458],[999,15541],[999,15625],[999,15708],[999,15791],[999,15874],[999,15957],[999,16041],[999,16125],[999,16208],[999,16291],[999,16374],[999,16458],[999,16541],[999,16624],[999,16708],[999,16791],[999,16874],[999,16957],[999,17041],[999,17124],[999,17207],[999,17291],[999,17374],[999,17457],[999,17540],[999,17624],[999,17707],[999,17790],[999,17874],[999,17957],[999,18040],[999,18123],[999,18207],[999,18290],[999,18373],[999,18457],[999,18540],[999,18623],[999,18707],[999,18790],[999,18873],[999,18956],[999,19040],[999,19123],[999,19206],[999,19289],[999,19373],[999,19456],[999,19539],[999,19623],[999,19706],[999,19789],[999,19873],[999,19956],[999,20039],[999,20122],[999,20206],[999,20289],[999,20372],[999,20456],[999,20539],[999,20622],[999,20705],[999,20789],[999,20872],[999,20955],[999,21039],[999,21122],[999,21205],[999,21289],[999,21372],[999,21455],[999,21538],[999,21622],[999,21705],[999,21788],[999,21872],[999,21955],[999,22038],[999,22121],[999,22205],[999,22288],[999,22371],[999,22455],[999,22538],[999,22621],[999,22705],[999,22788],[999,22871],[999,22954],[999,23038],[999,23121],[999,23204],[999,23288],[999,23371],[999,23454],[999,23537],[999,23621],[999,23704],[999,23787],[999,23871],[999,23954],[999,24037],[999,24120],[999,24203],[999,24287],[999,24370],[999,24453],[999,24537],[999,24620],[999,24703],[999,24786]]",1,0,1364.9574,1369.2389,57.02781845,2.164,"[{""rating"":57.027818448023424,""responseTime"":2.1639999999999873}]",space,3.7356,,1369.239,Not at all,0,1369.2484,,,[],,0,16,16,16,1,audio/Narrative8Situation7.wav,audio/Narrative7Situation7.wav,audio/Narrative6Situation7.wav,audio/Narrative5Situation7.wav,3,5,5,4,,,,,,,,,,,,,,,,,,,,,,,,,,,,,,,,,,,,,,,
,,,,,,65c676a951589a3062bc6de2,2024-05-13_15h31.44.637,group3.1-3.2-social-tom,2023.2.2,Win32,60.24096386,65c5074098b851296ff0b7ed,6642315efdc49befc5961517,,,,,,,,,,,,,,,,,,,,,,,,,,,,,1369.249,2,audio/Narrative6Situation8.wav,1374.2529,,1374.2529,1381.1162,[],1,0,1381.1165,1388.3169,46.04685212,3.2983,"[{""rating"":46.04685212298683,""responseTime"":3.2982999999969707}]",space,6.6492,,1388.317,All the time,100,1388.3472,,,[],,0,17,17,17,1,audio/Narrative8Situation8.wav,audio/Narrative7Situation8.wav,audio/Narrative6Situation8.wav,audio/Narrative5Situation8.wav,3,2,5,3,,,,,,,,,,,,,,,,,,,,,,,,,,,,,,,,,,,,,,,
,,,,,,65c676a951589a3062bc6de2,2024-05-13_15h31.44.637,group3.1-3.2-social-tom,2023.2.2,Win32,60.24096386,65c5074098b851296ff0b7ed,6642315efdc49befc5961517,,,,,,,,,,,,,,,,,,,,,,,,,,,,,1388.3476,2,audio/Narrative6Situation9.wav,1392.36,,1392.36,1402.3219,[],1,0,1402.3221,1406.5364,80.45387994,2.4183,"[{""rating"":80.45387994143485,""responseTime"":2.418300000011868}]",space,3.6787,,1406.5366,Not at all,0,1406.5453,,,[],,0,18,18,18,1,audio/Narrative8Situation9.wav,audio/Narrative7Situation9.wav,audio/Narrative6Situation9.wav,audio/Narrative5Situation9.wav,3,2,4,3,,,,,,,,,,,,,,,,,,,,,,,,,,,,,,,,,,,,,,,
,,,,,,65c676a951589a3062bc6de2,2024-05-13_15h31.44.637,group3.1-3.2-social-tom,2023.2.2,Win32,60.24096386,65c5074098b851296ff0b7ed,6642315efdc49befc5961517,,,,,,,,,,,,,,,,,,,,,,,,,,,,,,,,,,,,,,,,,,,,,,,,,,,,,,,,,,,,,,,,,,,,,,,,1406.5458,1466.5397,,,,1466.5422,1527.1798,space,60.3059,,,,,,,,,,,,,,,,,,,,,,,,,,
,,,,,,65c676a951589a3062bc6de2,2024-05-13_15h31.44.637,group3.1-3.2-social-tom,2023.2.2,Win32,60.24096386,65c5074098b851296ff0b7ed,6642315efdc49befc5961517,,,,,,,,,,,,,,,,,,,,,,,,,,,,,1529.8152,1,audio/Narrative8Situation9.wav,1531.8228,,,,,,,1563.8436,1570.3196,49.41434846,4.0753,"[{""rating"":49.41434846266471,""responseTime"":4.075299999997014}]",space,5.9324,,1563.8095,All the time,100,1563.8436,,,[],,,,,,,,,,,2,2,2,2,,,,,,,,,,,,,,,1527.2059,1529.7741,1531.8236,3,1563.809,"[[999,2],[999,132],[999,219],[999,302],[999,385],[999,468],[999,550],[999,635],[999,719],[999,802],[999,885],[999,966],[999,1051],[999,1136],[999,1216],[999,1302],[999,1386],[999,1468],[999,1551],[999,1631],[999,1715],[999,1801],[999,1885],[999,1964],[999,2051],[999,2133],[999,2218],[999,2301],[999,2385],[999,2468],[999,2553],[999,2635],[999,2718],[999,2802],[999,2884],[999,2968],[999,3052],[999,3134],[999,3218],[999,3302],[999,3384],[999,3467],[999,3547],[999,3634],[999,3718],[999,3801],[999,3884],[999,3969],[999,4051],[999,4134],[999,4218],[999,4300],[999,4384],[999,4468],[999,4550],[999,4634],[999,4718],[999,4800],[999,4885],[999,4968],[999,5048],[999,5134],[999,5213],[999,5299],[999,5379],[999,5463],[999,5549],[999,5633],[999,5712],[999,5797],[999,5879],[999,5964],[999,6046],[999,6133],[999,6215],[999,6299],[999,6383],[999,6464],[999,6545],[999,6633],[999,6718],[999,6798],[999,6879],[999,6962],[999,7048],[999,7128],[999,7212],[999,7299],[999,7378],[999,7461],[999,7549],[999,7632],[999,7715],[999,7799],[999,7881],[999,7965],[999,8047],[999,8130],[999,8214],[999,8295],[999,8381],[999,8464],[999,8544],[999,8629],[999,8714],[999,8798],[999,8877],[999,8965],[999,9044],[999,9127],[999,9215],[999,9294],[999,9377],[999,9461],[999,9544],[999,9630],[999,9710],[999,9796],[999,9880],[999,9964],[999,10047],[999,10127],[999,10214],[999,10294],[999,10377],[999,10460],[999,10547],[999,10629],[999,10713],[999,10796],[999,10876],[999,10960],[999,11046],[999,11126],[999,11213],[999,11296],[999,11376],[999,11463],[999,11543],[999,11626],[999,11713],[999,11796],[999,11876],[999,11963],[999,12047],[999,12131],[999,12213],[999,12297],[999,12379],[999,12463],[999,12547],[999,12629],[999,12713],[999,12795],[999,12880],[999,12963],[999,13046],[999,13129],[999,13213],[75.5,13325],[75.2,13409],[74.9,13492],[74.9,13575],[74.9,13658],[74.9,13741],[74.9,13825],[75.2,13908],[75.3,13991],[75.3,14075],[75.3,14158],[75.3,14241],[75.3,14325],[75.3,14408],[75.3,14491],[75.3,14574],[75.3,14658],[75.3,14741],[75.3,14824],[75.3,14908],[75.3,14991],[75.3,15074],[75.3,15157],[75.3,15240],[75.3,15324],[75.6,15407],[79.3,15490],[81.5,15575],[83.5,15658],[84.3,15741],[84.3,15824],[84.3,15907],[84.3,15991],[83.7,16074],[82.7,16157],[81.3,16241],[80.7,16324],[80.3,16407],[80.3,16490],[80.3,16573],[80.3,16657],[80.3,16740],[80.3,16823],[80.3,16907],[80.3,16990],[80.3,17073],[80.3,17156],[80.3,17240],[80.3,17323],[80.3,17406],[80.3,17490],[80.3,17573],[80.3,17656],[80.3,17739],[80.3,17823],[80.3,17906],[80,17990],[79.6,18073],[79.6,18156],[79.6,18239],[79.6,18323],[79.6,18406],[79.6,18489],[79.6,18572],[79.6,18655],[79.6,18739],[79.6,18822],[79.6,18905],[79.6,18989],[79.6,19072],[79.6,19155],[79.6,19239],[79.6,19322],[79.6,19405],[79.6,19489],[79.6,19572],[79.6,19655],[79.6,19739],[79.6,19822],[79.6,19905],[79.6,19988],[79.6,20072],[79.6,20155],[79.6,20238],[79.6,20322],[79.6,20405],[79.6,20488],[79.6,20571],[79.6,20655],[79.6,20738],[79.6,20821],[79.6,20904],[79.6,20988],[79.6,21071],[79.6,21154],[79.6,21238],[79.6,21321],[79.6,21404],[79.6,21488],[79.6,21571],[79.6,21654],[79.6,21737],[79.6,21821],[79.6,21904],[79.6,21987],[79.6,22071],[79.6,22154],[79.6,22237],[79.6,22320],[79.6,22404],[79.6,22487],[79.6,22570],[79.6,22654],[79.6,22737],[79.6,22820],[79.6,22903],[79.6,22987],[79.6,23070],[79.6,23153],[79.6,23237],[79.6,23320],[79.6,23403],[79.6,23487],[79.6,23570],[79.6,23653],[79.6,23736],[79.6,23820],[79.6,23903],[79.6,23986],[79.6,24069],[79.6,24153],[79.6,24236],[79.6,24319],[79.6,24403],[79.6,24486],[79.6,24569],[79.6,24653],[79.6,24736],[79.6,24819],[79.6,24903],[79.6,24986],[79.6,25069],[79.6,25152],[79.6,25236],[79.6,25319],[79.6,25402],[79.6,25485],[79.6,25569],[79.6,25652],[79.6,25735],[79.6,25819],[79.6,25902],[79.6,25985],[79.6,26068],[79.6,26152],[79.6,26235],[79.6,26318],[79.6,26402],[79.6,26485],[79.6,26568],[79.6,26652],[79.6,26735],[79.6,26818],[79.6,26902],[79.6,26985],[79.6,27068],[79.6,27151],[79.6,27235],[79.6,27318],[79.6,27401],[79.6,27485],[79.6,27568],[79.6,27651],[79.6,27735],[79.6,27818],[79.6,27901],[79.6,27984],[79.6,28068],[79.6,28151],[79.6,28234],[79.6,28317],[79.6,28401],[79.6,28484],[79.6,28567],[79.6,28651],[79.6,28734],[79.6,28817],[79.6,28900],[79.6,28984],[79.6,29067],[79.6,29150],[79.6,29233],[79.6,29316],[79.6,29400],[79.6,29483],[79.6,29566],[79.6,29650],[79.6,29733],[79.6,29817],[79.6,29900],[79.6,29983],[79.6,30067],[79.6,30150],[79.6,30233],[79.6,30316],[79.6,30400],[79.6,30483],[79.6,30566],[79.6,30650],[79.6,30733],[79.6,30816],[79.6,30899],[79.6,30983],[79.6,31066],[79.6,31149],[79.6,31232],[79.6,31316],[79.6,31399],[79.6,31482],[79.6,31566],[79.6,31649],[79.6,31733],[79.6,31816],[79.6,31899],[79.6,31982]]",0,0,0,0,1,"Larry had recently lost his family, job and home, and was now living on his own in the park. He had most of his belongings, including some clothes, a blanket, and his mother’s special necklace. His family had been very important to him and he felt as though he did not have much going for him. One of his first days in the park he came across a family that did not have much food and looked very cold. He decided to give them some of his food and his blanket.","Larry had recently lost his family, job and home, and was now living on his own in the park. He had most of his belongings, including some clothes, a blanket, and his mother’s special necklace. His family had been very important to him and he felt as though he did not have much going for him. One of his first days in the park he came across a family that did not have much food and looked very cold. He decided to give them some of his food and his blanket.","Larry had recently lost his family, job and home, and was now living on his own in the park. He had most of his belongings, including some clothes, a blanket, and his mother’s special necklace. His family had been very important to him and he felt as though he did not have much going for him. One of his first days in the park he came across a family that did not have much food and looked very cold. He decided to give them some of his food and his blanket.","Larry had recently lost his family, job and home, and was now living on his own in the park. He had most of his belongings, including some clothes, a blanket, and his mother’s special necklace. His family had been very important to him and he felt as though he did not have much going for him. One of his first days in the park he came across a family that did not have much food and looked very cold. He decided to give them some of his food and his blanket.",,,,,,,,,,
,,,,,,65c676a951589a3062bc6de2,2024-05-13_15h31.44.637,group3.1-3.2-social-tom,2023.2.2,Win32,60.24096386,65c5074098b851296ff0b7ed,6642315efdc49befc5961517,,,,,,,,,,,,,,,,,,,,,,,,,,,,,1570.322,1,audio/Narrative8Situation9.wav,1576.5837,space,,,,,,1610.2424,1616.0501,43.99707174,4.9737,"[{""rating"":43.997071742313324,""responseTime"":4.973700000002964}]",space,5.2647,,1610.2335,Half the time,50,1610.2424,,,[],,,,,,,,,,,6,2,3,9,6.2178,,,,,,,,,,,,,,,,1576.5839,3,1610.2334,"[[51.5,30866],[51.5,30950],[51.5,31033],[51.5,31116],[51.5,31200],[51.5,31283],[51.5,31366],[51.5,31450],[51.5,31533],[51.5,31616],[51.5,31699],[51.5,31783],[51.5,31866],[51.5,31949],[51.5,32032],[51.5,32116],[51.5,32199],[51.5,32283],[51.5,32366],[51.5,32449],[51.5,32532],[51.5,32616],[51.5,32699],[51.5,32782],[51.5,32865],[51.5,32949],[51.5,33032],[51.5,33115],[51.5,33199],[51.5,33282],[51.5,33365],[51.5,33449],[51.5,33532],[51.5,33615]]",0,1,1,1,1,"It was just another Sunday afternoon for Lucy, she was on her way to the farmer's market to pick up some produce. When she arrived at the old train depot that housed the market, she noticed two men fighting on the steps. Before she could call for help, one of the men crumpled to his knees. The other man dropped an object that appeared to be a knife and ran off. When Lucy approached the crime scene she realized that the man who had been murdered was the Mayor and that he had a gunshot wound.","One day at work, Margaret walked up to her partner, Al, to ask him to talk to the chief of staff at the local hospital where she worked as a nurse.","Luke always thought of himself as an honest man. That's why during his evening jog around the swamp, he pondered his recent affair with the receptionist at work. Luke looked up at the sky and asked God why he was so weak and unfaithful. He thought of the impact this would have on his family and told God of his conflicted feelings toward telling his wife Marta.","Linda and Amy had been best friends since kindergarten, they even found homes on the same street in the forest on the edge of town. Their biggest fight had been over who gets the bigger slice of cake, until Amy married Dan. Linda loathed Dan, she thought he was manipulative and had a violent temper. She only put up with him because Amy loved him. ",,,,,,,,,,
,,,,,,65c676a951589a3062bc6de2,2024-05-13_15h31.44.637,group3.1-3.2-social-tom,2023.2.2,Win32,60.24096386,65c5074098b851296ff0b7ed,6642315efdc49befc5961517,,,,,,,,,,,,,,,,,,,,,,,,,,,,,1616.0512,1,audio/Narrative8Situation9.wav,1620.0616,,,,,,,1638.6742,1646.0478,80.30746706,6.4364,"[{""rating"":80.30746705710102,""responseTime"":6.4364000000059605}]",space,6.8172,,1638.6354,Half the time,50,1638.6741,,,[],,,,,,,,,,,4,5,2,2,,,,,,,,,,,,,,,,,1620.0618,3,1638.6353,[],0,2,2,2,1,On the ground beside him was a pen that she had mistaken for a knife. Lucy looked for the gunman and saw a suspicious man in black with distinct pointy features darting into an alley across the street. Cops who were nearby chased the man who had fled and arrested him.,"While waiting outside the chief of staff's office, Al heard nondescript shouting and yelling, there was a loud clatter in the room and then an eerie silence. An unfamiliar employee ran hastily out of the office with a terrified look on their face.","Suddenly, Luke heard a woman call out his name and when he turned around he saw Carly, his receptionist, across the road with a gun in her hand. Carly ran to him and explained how she had followed him here to confess her love. She exclaimed if Luke didn't love her back that she would kill him and his family. Carly explained that the only way they could be together is to kill Marta.","This feeling of hate between Amy and Dan was mutual, Dan didn't like how much time his wife spent with her and thought Amy was creating distance between their marriage. That's why Dan decided to try and tarnish Linda's reputation with his wife, in hopes it would get rid of her. He came home one afternoon and exclaimed that Linda had tried to kiss him. Amy was taken aback and immediately called Linda to confront her about these accusations. When Linda arrived she denied having made a move on Dan, but discovered Dan had enlisted the help of his friend Will who said he witnessed it all happen.",,,,,,,,,,
,,,,,,65c676a951589a3062bc6de2,2024-05-13_15h31.44.637,group3.1-3.2-social-tom,2023.2.2,Win32,60.24096386,65c5074098b851296ff0b7ed,6642315efdc49befc5961517,,,,,,,,,,,,,,,,,,,,,,,,,,,,,1646.0486,1,audio/Narrative8Situation9.wav,1648.0639,,,,,,,1659.9837,1666.7208,99.34114202,6.0629,"[{""rating"":81.62518301610542,""responseTime"":2.3827000000030694},{""rating"":99.3411420204978,""responseTime"":6.062900000006039}]",space,6.204,,1659.9413,Not at all,0,1659.9836,,,[],,,,,,,,,,,2,2,1,4,,,,,,,,,,,,,,,,,1648.064,3,1659.9411,"[[999,0],[999,99],[999,182],[999,265],[999,349],[999,432],[999,515],[999,598],[999,682],[999,765],[999,848],[999,932],[999,1015],[999,1098],[999,1182],[999,1265],[999,1348],[999,1432],[999,1515],[999,1598],[999,1681],[999,1765],[999,1848],[999,1931],[999,2014],[999,2098],[999,2181],[999,2264],[999,2348],[999,2431],[999,2514],[999,2598],[999,2681],[999,2764],[999,2847],[999,2931],[999,3014],[999,3097],[999,3181],[999,3264],[999,3347],[999,3430],[999,3514],[999,3597],[999,3680],[999,3764],[999,3847],[999,3930],[999,4014],[999,4097],[999,4180],[999,4263],[999,4347],[999,4430],[999,4513],[999,4597],[999,4680],[999,4763],[999,4846],[999,4930],[999,5013],[999,5096],[999,5180],[999,5263],[999,5346],[999,5430],[999,5513],[999,5596],[999,5679],[999,5763],[999,5846],[999,5929],[999,6012],[999,6096],[999,6179],[999,6262],[999,6346],[999,6429],[999,6512],[999,6596],[999,6679],[999,6762],[999,6846],[999,6929],[999,7012],[999,7095],[999,7179],[999,7262],[999,7345],[999,7428],[999,7512],[999,7595],[999,7678],[999,7762],[999,7845],[999,7928],[999,8011],[999,8095],[999,8178],[999,8261],[999,8345],[999,8428],[999,8512],[999,8595],[999,8678],[999,8761],[999,8844],[999,8928],[999,9011],[999,9094],[999,9178],[999,9261],[999,9344],[999,9427],[999,9511],[999,9594],[999,9677],[999,9761],[999,9844],[999,9927],[999,10010],[999,10094],[999,10177],[999,10260],[999,10344],[999,10427],[999,10510],[999,10594],[999,10677],[999,10760],[999,10843],[999,10927],[999,11010],[999,11093],[999,11177],[999,11260],[999,11343],[999,11426],[999,11510],[999,11593],[999,11676],[999,11760],[999,11843]]",0,3,3,3,1,"But Lucy knew the charged man was innocent, which meant the killer was free. Lucy vowed to find out who the real murderer was and to stop him at all costs.","Al explained to the chief of staff that Margaret wanted to be excused from her absences last week. The chief of staff, Susan, revealed that she wanted to fire Margaret and never see her again. Susan and Al had been having an affair and she wanted Margaret ""out of the picture"". Al was conflicted, but agreed it would be for the best.","Luke thought of his child and felt like this was his only option. He agreed to the plan and called his wife to meet him at the swamp to watch the sunset with him. When she arrived, Marta called out for her husband, but found Carly waiting for her. She immediately drew her gun and shot her in the chest, knocking her unconscious.","Since it was their word against her own, she decided to go home and admit defeat. She knew how much it would hurt Amy to know the truth.",,,,,,,,,,
,,,,,,65c676a951589a3062bc6de2,2024-05-13_15h31.44.637,group3.1-3.2-social-tom,2023.2.2,Win32,60.24096386,65c5074098b851296ff0b7ed,6642315efdc49befc5961517,,,,,,,,,,,,,,,,,,,,,,,,,,,,,1666.7219,1,audio/Narrative8Situation9.wav,1667.7369,,,,,,,1697.3252,1701.2366,88.65300146,2.034,"[{""rating"":88.65300146412885,""responseTime"":2.0340000000001055}]",space,3.3706,,1697.3081,All the time,100,1697.3251,,,[],,,,,,,,,,,1,1,3,3,,,,,,,,,,,,,,,,,1667.737,3,1697.3081,"[[99,99],[99,183],[99,266],[99,353],[99,432],[94.9,522],[93.5,604],[93,686],[93,766],[93,849],[92.8,937],[92.8,1020],[86.2,1104]]",0,4,4,4,1,"The next day the mayors successor, Mr. Smith, a man who was very unpopular due to his strong ties to the oil companies, took office. After a long day of brainstorming about the mysterious killer, Lucy decided to attend his welcome ceremony in the city. During the mayor's speech, she noticed one of the security guards looked strangely familiar. It dawned on her that this new mayor had motive to kill and that the man in black could've been the guard working for him.","Weeks passed and nobody had seen Margaret. Coworkers and friends searched the nearby city looking for her. One day on patrol in a nearby town, a police officer heard someone crying for help in the basement of a house and went in to investigate. Margaret yelled that she was being held captive and needed help.","Luke ran to Marta, and filled with regret over his decision to go along with Carly's plan, picked her up and rushed her to the hospital. The doctors tried to help Marta by taking her into emergency surgery but failed to save her life. Once the doctor called the time of death, Luke fell to his knees and sobbed over his rash decision.","Months later Dan had taken up a mistress, he was growing bored with his marriage ever since he got rid of Linda and was only still with Amy for her family's money. In a hotel room in a nearby town, Dan and his mistress, Nicole, conspired to secretly kill Amy while still obtaining her fortune.",,,,,,,,,,
,,,,,,65c676a951589a3062bc6de2,2024-05-13_15h31.44.637,group3.1-3.2-social-tom,2023.2.2,Win32,60.24096386,65c5074098b851296ff0b7ed,6642315efdc49befc5961517,,,,,,,,,,,,,,,,,,,,,,,,,,,,,1701.2378,1,audio/Narrative8Situation9.wav,1704.2516,,,,,,,1720.8498,1724.6249,97.14494876,2.7407,"[{""rating"":97.14494875549049,""responseTime"":2.7407000000030166}]",space,3.2429,,1720.8265,Not at all,0,1720.8498,,,[],,,,,,,,,,,3,1,3,3,,,,,,,,,,,,,,,,,1704.2518,3,1720.8264,"[[999,34],[999,132],[999,216],[999,299],[999,382],[999,466],[999,549],[999,632],[999,716],[999,799],[999,882],[999,966],[999,1049],[999,1132],[999,1215],[999,1299],[999,1382],[999,1465],[999,1548],[999,1632],[999,1715],[999,1798],[999,1882],[999,1965],[999,2048],[999,2132],[999,2215],[999,2298],[999,2381],[999,2464],[999,2548],[999,2631],[999,2714],[999,2798],[999,2881],[999,2964],[999,3047],[999,3131],[999,3214],[999,3297],[999,3381],[999,3464],[999,3547],[999,3630],[999,3714],[999,3797],[999,3880],[999,3963],[999,4047],[999,4130],[999,4214],[999,4297],[999,4380],[999,4463],[999,4547],[999,4630],[999,4714],[999,4797],[999,4880],[999,4963],[999,5047],[999,5130],[999,5213],[999,5297],[999,5380],[999,5463],[999,5547],[999,5630],[999,5713],[999,5796],[999,5880],[999,5963],[999,6046],[999,6129],[999,6212],[999,6296],[999,6379],[999,6462],[999,6546],[999,6629],[999,6713],[999,6796],[999,6879],[999,6962],[999,7046],[999,7129],[999,7212],[999,7296],[999,7379],[999,7462],[999,7546],[999,7629],[999,7712],[999,7795],[999,7879],[999,7962],[999,8045],[999,8129],[999,8212],[999,8295],[999,8378],[999,8462],[999,8545],[999,8628],[999,8712],[999,8795],[999,8878],[999,8961],[999,9044],[999,9128],[999,9211],[999,9294],[999,9377],[999,9461],[999,9544],[999,9628],[999,9711],[999,9794],[999,9878],[999,9961],[999,10044],[999,10127],[999,10211],[999,10294],[999,10377],[999,10461],[999,10544],[999,10627],[999,10711],[999,10794],[999,10877],[999,10960],[999,11044],[999,11127],[999,11210],[999,11294],[999,11377],[999,11460],[999,11543],[999,11627],[999,11710],[999,11793],[999,11877],[999,11960],[999,12043],[999,12126],[999,12210],[999,12293],[999,12376],[999,12460],[999,12543],[999,12626],[999,12710],[999,12793],[999,12876],[999,12959],[999,13043],[999,13126],[999,13209],[999,13293],[999,13376],[999,13459],[999,13542],[999,13626],[999,13709],[999,13792],[999,13876],[999,13959],[999,14042],[999,14125],[999,14209],[999,14292],[999,14375],[999,14459],[999,14542],[999,14625],[999,14709],[999,14792],[999,14875],[999,14958],[999,15042],[999,15125],[999,15208],[999,15292],[999,15375],[999,15458],[999,15541],[999,15625],[999,15708],[999,15791],[999,15875],[999,15958],[999,16041],[999,16125],[999,16208],[999,16291],[999,16374],[999,16458],[999,16541]]",0,5,5,5,1,"Lucy decided to confront the mayor after his ceremony. But when she tried to accuse him, the security guards threatened to hurt her if she went to the police with her theory. Before she could say another word a man pulled her from the crowd.","In a rush, the police officer broke down the door and was attacked by a man in the house. Without hesitation, the officer shot the man and the man fell to the floor.","He then saw Marta's brother Zach enter the hospital. Zach ran over to Luke and punched him. Zach screamed at Luke that it's his fault his sister is dead and that he knew about the affair. Luke quickly tried to explain that he felt horrible about Marta's death and that Carly had manipulated him into going along with her plan. Zach, still angry at his brother-in-law, realized his mistake in judgement and shifted his anger toward Carly.","They decided to have Dan invite her to the hotel room under the guise of a romantic date. Once she arrived, Nicole was there to tie her up. Once she was secured to a chair, Nicole demanded Amy's bank passwords. Amy obliged and gave her access to her bank accounts.",,,,,,,,,,
