exp_question,consent.started,consent.stopped,consentResponse.keys,consentResponse.rt,consentResponse.duration,participantID,date,expName,psychopyVersion,OS,frameRate,STUDY_ID,SESSION_ID,opening1.started,opening1.stopped,keyEndingOpening1.keys,keyEndingOpening1.rt,keyEndingOpening1.duration,volumeAdjust.started,volumeAdjust.stopped,endingAdjust.keys,endingAdjust.rt,endingAdjust.duration,opening2.started,opening2.stopped,keyEndingOpening.keys,keyEndingOpening.rt,keyEndingOpening.duration,mouse.x,mouse.y,mouse.leftButton,mouse.midButton,mouse.rightButton,mouse.time,instructionLoop.thisRepN,instructionLoop.thisTrialN,instructionLoop.thisN,instructionLoop.thisIndex,instructionLoop.ran,readyForAudio.started,readyForAudio.stopped,fixation.started,run,audio_played,fixation.stopped,endPractice.keys,audioPre.started,audioPre.stopped,continuousResponses_audio,continuousSlider.response,continuousSlider.rt,intRating.started,intRating.stopped,intQuestionSlider.response,intQuestionSlider.rt,intQuestionSlider.history,confirmResponse.keys,confirmResponse.rt,confirmResponse.duration,catchQuestion.started,catch_label,catch_value,catchQuestion.stopped,catchQuestionSlider.response,catchQuestionSlider.rt,catchQuestionSlider.history,confirmResponse_2.keys,audioRunLoop.thisRepN,audioRunLoop.thisTrialN,audioRunLoop.thisN,audioRunLoop.thisIndex,audioRunLoop.ran,conditions1_1,conditions2_1,conditions1_2,conditions2_2,dur1_1,dur2_1,dur1_2,dur2_2,endPractice.rt,endPractice.duration,confirmResponse_2.rt,confirmResponse_2.duration,runIntervalBreak.started,runIntervalBreak.stopped,endingBreakKey.keys,endingBreakKey.rt,endingBreakKey.duration,connection.started,connection.stopped,connectionEnding.keys,connectionEnding.rt,connectionEnding.duration,readyForText.started,readyForText.stopped,textPre.started,run_dup,textPre.stopped,continuousResponses_text,textRunLoop.thisRepN,textRunLoop.thisTrialN,textRunLoop.thisN,textRunLoop.thisIndex,textRunLoop.ran,text1_1,text1_2,text2_1,text2_2,runBreakText.started,runBreakText.stopped,endingBreakKey_2.keys,endingBreakKey_2.rt,endingBreakKey_2.duration,ending.started,ending.stopped,endingEnding.keys,endingEnding.rt,endingEnding.duration
social,0.0001,15.4105,y,15.1048,,65c7878613b84bfc354131c7,2024-05-13_10h40.05.927,group3.1-3.2-social-tom,2023.2.2,Win32,243.902439,65c5074098b851296ff0b7ed,6642341a88e56a9354eb3978,,,,,,,,,,,,,,,,,,,,,,,,,,,,,,,,,,,,,,,,,,,,,,,,,,,,,,,,,,,,,,,,,,,,,,,,,,,,,,,,,,,,,,,,,,,,,,,,,,,,,,,,,,
,,,,,,65c7878613b84bfc354131c7,2024-05-13_10h40.05.927,group3.1-3.2-social-tom,2023.2.2,Win32,243.902439,65c5074098b851296ff0b7ed,6642341a88e56a9354eb3978,15.4107,21.3946,space,5.9709,,,,,,,,,,,,,,,,,,,,,,,,,,,,,,,,,,,,,,,,,,,,,,,,,,,,,,,,,,,,,,,,,,,,,,,,,,,,,,,,,,,,,,,,,,,,,,,,,,,,,,
,,,,,,65c7878613b84bfc354131c7,2024-05-13_10h40.05.927,group3.1-3.2-social-tom,2023.2.2,Win32,243.902439,65c5074098b851296ff0b7ed,6642341a88e56a9354eb3978,,,,,,21.3948,64.208,space,42.5025,,,,,,,,,,,,,,,,,,,,,,,,,,,,,,,,,,,,,,,,,,,,,,,,,,,,,,,,,,,,,,,,,,,,,,,,,,,,,,,,,,,,,,,,,,,,,,,,,
,,,,,,65c7878613b84bfc354131c7,2024-05-13_10h40.05.927,group3.1-3.2-social-tom,2023.2.2,Win32,243.902439,65c5074098b851296ff0b7ed,6642341a88e56a9354eb3978,,,,,,,,,,,64.2102,71.528,space,7.3089,,[],[],[],[],[],[],0,0,0,0,1,,,,,,,,,,,,,,,,,,,,,,,,,,,,,,,,,,,,,,,,,,,,,,,,,,,,,,,,,,,,,,,,,,,,,,,,,,,,,,,,
,,,,,,65c7878613b84bfc354131c7,2024-05-13_10h40.05.927,group3.1-3.2-social-tom,2023.2.2,Win32,243.902439,65c5074098b851296ff0b7ed,6642341a88e56a9354eb3978,,,,,,,,,,,71.5328,108.1067,space,36.5265,,[],[],[],[],[],[],1,0,1,0,1,,,,,,,,,,,,,,,,,,,,,,,,,,,,,,,,,,,,,,,,,,,,,,,,,,,,,,,,,,,,,,,,,,,,,,,,,,,,,,,,
,,,,,,65c7878613b84bfc354131c7,2024-05-13_10h40.05.927,group3.1-3.2-social-tom,2023.2.2,Win32,243.902439,65c5074098b851296ff0b7ed,6642341a88e56a9354eb3978,,,,,,,,,,,108.1115,121.0363,space,12.9043,,[],[],[],[],[],[],2,0,2,0,1,,,,,,,,,,,,,,,,,,,,,,,,,,,,,,,,,,,,,,,,,,,,,,,,,,,,,,,,,,,,,,,,,,,,,,,,,,,,,,,,
,,,,,,65c7878613b84bfc354131c7,2024-05-13_10h40.05.927,group3.1-3.2-social-tom,2023.2.2,Win32,243.902439,65c5074098b851296ff0b7ed,6642341a88e56a9354eb3978,,,,,,,,,,,121.0411,137.4491,space,16.3998,,[],[],[],[],[],[],3,0,3,0,1,,,,,,,,,,,,,,,,,,,,,,,,,,,,,,,,,,,,,,,,,,,,,,,,,,,,,,,,,,,,,,,,,,,,,,,,,,,,,,,,
,,,,,,65c7878613b84bfc354131c7,2024-05-13_10h40.05.927,group3.1-3.2-social-tom,2023.2.2,Win32,243.902439,65c5074098b851296ff0b7ed,6642341a88e56a9354eb3978,,,,,,,,,,,137.4538,154.1116,space,16.6512,,[],[],[],[],[],[],4,0,4,0,1,,,,,,,,,,,,,,,,,,,,,,,,,,,,,,,,,,,,,,,,,,,,,,,,,,,,,,,,,,,,,,,,,,,,,,,,,,,,,,,,
,,,,,,65c7878613b84bfc354131c7,2024-05-13_10h40.05.927,group3.1-3.2-social-tom,2023.2.2,Win32,243.902439,65c5074098b851296ff0b7ed,6642341a88e56a9354eb3978,,,,,,,,,,,,,,,,,,,,,,,,,,,154.117,156.6959,156.7067,1,audio/Narrative13Situation2.wav,158.71,,158.7101,188.4355,"[[999,0],[999,91],[999,174],[999,257],[999,340],[999,424],[999,507],[999,590],[999,673],[999,757],[999,840],[999,923],[999,1007],[999,1090],[999,1173],[999,1256],[999,1339],[999,1423],[999,1506],[999,1589],[999,1672],[999,1756],[999,1839],[999,1922],[999,2005],[999,2088],[999,2172],[999,2255],[999,2338],[999,2421],[999,2505],[999,2588],[999,2671],[999,2754],[999,2837],[999,2921],[999,3004],[999,3087],[999,3170],[999,3254],[999,3337],[999,3420],[999,3503],[999,3586],[999,3670],[999,3753],[999,3836],[999,3920],[999,4003],[999,4086],[999,4169],[999,4252],[999,4336],[999,4419],[999,4502],[999,4585],[999,4668],[999,4752],[999,4835],[999,4918],[999,5001],[999,5085],[999,5168],[999,5251],[999,5334],[999,5417],[999,5501],[999,5584],[999,5667],[999,5751],[999,5834],[999,5917],[999,6000],[999,6083],[999,6167],[999,6250],[57,6333],[57,6416],[56.3,6499],[58,6583],[58.5,6666],[65.4,6749],[84,6833],[86.4,6916],[86.4,6999],[86.1,7082],[85.8,7165],[85.7,7248],[85.7,7332],[85.7,7415],[85.7,7498],[85.7,7581],[85.7,7665],[85.7,7748],[85.7,7831],[85.2,7914],[85.1,7998],[85.1,8081],[85.1,8164],[85.1,8247],[85.1,8330],[85.1,8414],[85.1,8497],[85.1,8580],[85.1,8663],[85.1,8747],[85.1,8830],[85.1,8913],[85.1,8996],[85.1,9080],[85.1,9163],[85.1,9246],[85.1,9329],[85.1,9412],[85.1,9496],[85.1,9579],[85.1,9662],[85.1,9745],[85.1,9829],[85.1,9912],[85.1,9995],[85.1,10078],[85.1,10161],[85.1,10245],[85.1,10328],[85.1,10411],[85.1,10495],[85.1,10578],[85.1,10661],[85.1,10744],[85.1,10827],[85.1,10911],[85.1,10994],[85.1,11077],[85.1,11160],[85.1,11244],[85.1,11327],[85.1,11410],[85.1,11493],[85.1,11576],[85.1,11660],[85.1,11743],[85.1,11826],[85.1,11909],[85.1,11993],[85.1,12076],[85.1,12159],[85.1,12242],[85.1,12325],[85.1,12409],[85.1,12492],[85.1,12575],[85.1,12658],[85.1,12742],[85.1,12825],[85.1,12908],[85.1,12991],[85.1,13074],[85.1,13158],[85.1,13241],[85.1,13324],[85.1,13407],[85.1,13491],[85.1,13574],[85.1,13657],[85.1,13740],[85.1,13824],[85.1,13907],[85.1,13990],[85.1,14073],[85.1,14156],[85.1,14240],[85.1,14323],[85.1,14407],[85.1,14489],[85.1,14573],[85.1,14656],[85.1,14739],[86.5,14822],[87,14906],[87.4,14989],[88,15072],[88,15155],[88,15239],[88.1,15322],[88.9,15405],[88.4,15488],[88.4,15571],[88.4,15655],[88.5,15738],[88.5,15821],[88.5,15904],[88.5,15988],[88.5,16071],[88.5,16154],[88.5,16237],[88.5,16320],[88.5,16404],[88.5,16487],[88.5,16570],[88.5,16653],[88.5,16737],[88.5,16820],[88.5,16903],[88.5,16986],[88.5,17070],[88.5,17153],[88.5,17236],[88.5,17319],[88.5,17402],[88.5,17486],[88.5,17569],[89.7,17652],[91.5,17735],[91.5,17819],[91.5,17902],[91.5,17985],[91.5,18068],[92.1,18151],[93.4,18235],[91,18318],[73.6,18401],[66.8,18484],[67.3,18568],[68.2,18651],[64.8,18734],[64.7,18817],[64.7,18901],[64.7,18984],[64.7,19067],[64.7,19150],[64.7,19233],[64.7,19317],[64.7,19400],[64.7,19483],[64.7,19566],[64.7,19650],[64.7,19733],[64.4,19816],[64.4,19899],[64.4,19983],[64.4,20066],[64.4,20149],[64.4,20232],[64.4,20315],[64.4,20399],[64.4,20482],[64.4,20565],[64.4,20648],[64,20732],[62.3,20815],[57.1,20898],[51.4,20981],[44.5,21065],[43.1,21148],[42.1,21231],[42,21314],[32.3,21397],[23.5,21481],[23.5,21564],[23.9,21647],[24.3,21730],[24.3,21814],[24.3,21897],[24.3,21980],[24.3,22063],[24.3,22146],[24.3,22230],[24.3,22313],[24.3,22396],[24.3,22479],[24.3,22563],[24.3,22646],[25,22729],[29.2,22812],[42,22896],[50.5,22979],[52.7,23062],[53,23145],[53,23228],[52.7,23312],[51.9,23395],[51.4,23478],[51.4,23561],[51.4,23645],[51.4,23728],[51.4,23811],[51.4,23894],[51.4,23977],[51.4,24061],[51.4,24144],[51.4,24227],[51.4,24310],[51.4,24394],[51.4,24477],[51.4,24560],[51.4,24643],[51.4,24727],[51.1,24810],[47.6,24893],[46.7,24976],[46.5,25060],[46.5,25143],[46.5,25226],[46.5,25309],[46.5,25393],[38.8,25476],[31.8,25559],[31.7,25642],[31.3,25725],[28.1,25809],[27.8,25892],[27.8,25975],[27.5,26058],[27.2,26141],[27.2,26225],[27.2,26308],[27.2,26391],[27.2,26474],[27.2,26558],[27.2,26641],[27.2,26724],[27.2,26807],[27.2,26891],[27.2,26974],[27.2,27057],[26.8,27140],[26.8,27223],[26.8,27307],[26.8,27390],[26.8,27473],[26.5,27556],[25.6,27640],[19.1,27723],[18.4,27806],[18.3,27889],[18.1,27972],[18.1,28056],[14.4,28139],[12.9,28222],[12.9,28305],[12.9,28389],[13,28472],[13.1,28555],[13.1,28638],[13.1,28722],[13.1,28805],[13.3,28888],[13.4,28971],[13.4,29054],[13.4,29138],[13.4,29221],[13.4,29304],[13.4,29387],[13.4,29471],[13.4,29554],[13.4,29637],[13.4,29720]]",1,0,188.4357,200.8158,26.04166667,10.8406,"[{""rating"":37.604166666666664,""responseTime"":4.752399999976149},{""rating"":26.041666666666664,""responseTime"":10.84060000002384}]",space,11.8715,,200.816,Not at all,0,200.818,,,[],,0,0,0,0,1,audio/Narrative13Situation2.wav,audio/Narrative13Situation2.wav,audio/Narrative13Situation2.wav,audio/Narrative13Situation2.wav,2,2,2,2,,,,,,,,,,,,,,,,,,,,,,,,,,,,,,,,,,,,,,,
,,,,,,65c7878613b84bfc354131c7,2024-05-13_10h40.05.927,group3.1-3.2-social-tom,2023.2.2,Win32,243.902439,65c5074098b851296ff0b7ed,6642341a88e56a9354eb3978,,,,,,,,,,,,,,,,,,,,,,,,,,,,,200.8181,1,audio/Narrative8Situation1.wav,202.9794,space,202.9794,218.8845,"[[999,0],[999,83],[999,166],[999,249],[999,332],[999,416],[999,499],[999,582],[999,665],[999,749],[999,832],[999,915],[999,998],[999,1081],[999,1165],[999,1249],[37.1,1332],[47.9,1415],[48.3,1498],[48.4,1582],[62.8,2247],[64.3,2330],[66.1,2414],[67.4,2497],[73.2,2580],[74.4,2663],[74.4,2746],[74.4,2829],[74.4,2912],[74.4,2996],[74,3079],[74,3162],[74,3245],[74,3329],[79.3,3412],[83.9,3496],[85.1,3578],[86,3662],[90.6,3745],[95,3828],[95.8,3911],[95.8,3994],[95.8,4078],[96.1,4161],[96.7,4244],[96.8,4327],[96.8,4411],[96.8,4494],[98.2,4577],[98.4,4660],[98.4,4744],[98.4,4827],[98.4,4910],[98.4,4993],[98.4,5076],[98.4,5160],[98.4,5243],[98.4,5326],[98.4,5409],[98.4,5492],[98.4,5576],[98.4,5659],[98.4,5742],[98.4,5825],[98.4,5909],[98.4,5992],[98.4,6075],[98.4,6158],[98.4,6242],[98.4,6325],[98.4,6408],[98.4,6491],[98.4,6575],[98.4,6658],[98.4,6741],[98.4,6824],[98.4,6907],[98.4,6991],[98.4,7074],[98.4,7157],[98.4,7240],[98.4,7324],[98.4,7407],[98.4,7490],[98.4,7573],[98.4,7656],[98.4,7740],[98.4,7823],[98.4,7906],[98.4,7989],[98.4,8073],[98.4,8156],[98.4,8239],[97.4,8327],[94.6,8410],[94,8493],[92.8,8576],[88.8,8659],[87.5,8743],[85.8,8826],[85.2,8909],[84.7,8992],[84.7,9075],[84.7,9159],[84.7,9242],[84.7,9325],[84.7,9408],[84.7,9492],[84.8,9575],[92.7,9658],[92.8,9741],[92.5,9825],[94.7,9908],[96.6,9991],[97.6,10074],[97.7,10158],[97.7,10241],[97.7,10324],[97.7,10407],[97.7,10490],[97.7,10574],[97.7,10657],[97.7,10740],[97.7,10823],[97.7,10907],[97.7,10990],[97.7,11073],[97.7,11156],[97.7,11240],[97.7,11323],[97.7,11406],[97.7,11489],[97.7,11572],[97.7,11656],[97.7,11739],[97.7,11822],[97.7,11905],[97.7,11989],[97.7,12072],[97.7,12155],[97.7,12238],[97.7,12322],[97.7,12405],[97.7,12488],[97.7,12571],[97.7,12655],[97.7,12738],[97.7,12821],[97.7,12904],[97.7,12987],[97.7,13071],[97.7,13154],[97.7,13237],[97.7,13320],[97.7,13403],[97.7,13487],[97.7,13570],[97.7,13653],[97.7,13736],[97.7,13820],[97.7,13903],[97.7,13986],[97.7,14069],[97.7,14153],[97.7,14236],[97.7,14319],[97.7,14402],[97.7,14485],[97.7,14569],[97.7,14652],[97.7,14735],[97.7,14818],[97.7,14902],[97.7,14985],[97.7,15068],[97.7,15151],[97.7,15234],[97.7,15318],[97.7,15401],[97.7,15484],[97.7,15567],[97.7,15651],[97.7,15734],[97.7,15817],[97.7,15900]]",1,0,218.8846,226.2461,98.95833333,3.1914,"[{""rating"":98.95833333333333,""responseTime"":3.1914000000357703}]",space,6.8521,,226.2462,Definitely yes,100,226.2523,,,[],,0,1,1,1,1,audio/Narrative7Situation1.wav,audio/Narrative8Situation1.wav,audio/Narrative5Situation1.wav,audio/Narrative6Situation1.wav,2,5,5,2,2.1555,,,,,,,,,,,,,,,,,,,,,,,,,,,,,,,,,,,,,,
,,,,,,65c7878613b84bfc354131c7,2024-05-13_10h40.05.927,group3.1-3.2-social-tom,2023.2.2,Win32,243.902439,65c5074098b851296ff0b7ed,6642341a88e56a9354eb3978,,,,,,,,,,,,,,,,,,,,,,,,,,,,,226.2524,1,audio/Narrative8Situation2.wav,229.2548,,229.2548,239.3506,"[[52.6,1831],[54.4,1914],[54.6,1997],[54.6,2080],[54.6,2163],[54.6,2247],[54.6,2330],[54.6,2413],[54.6,2496],[54.6,2580],[54.6,2663],[54.6,2746],[54.6,2829],[54.6,2913],[54.6,2996],[54.6,3079],[52.9,3162],[48.3,3246],[41,3329],[32.4,3412],[23.3,3495],[15.2,3578],[15.2,3662],[15.2,3745],[15.2,3828],[15.2,3911],[15.2,3994],[15.2,4078],[15.2,4161],[15.2,4244],[15.2,4327],[14.1,4411],[5.1,4494],[5.1,4577],[5,4660],[5,4744],[5,4827],[5,4910],[5,4993],[5,5076],[5,5160],[5,5243],[5,5326],[5,5409],[5,5493],[5,5576],[5,5659],[5,5742],[5,5825],[5,5909],[5,5992],[5,6075],[5,6158],[5,6242],[5,6325],[5,6408],[5,6491],[5,6575],[5,6658],[5,6741],[5,6824],[5,6907],[5,6991],[5,7074],[5,7157],[5,7240],[5,7324],[5,7407],[5,7490],[5,7573],[5,7657],[5,7740],[5,7823],[5,7906],[5,7989],[5,8073],[5,8156],[5,8239],[5,8322],[5,8406],[4.7,8489],[2.4,8572],[2.3,8655],[2.2,8739],[2.1,8822],[2.1,8905],[2.1,8988],[2.1,9072],[2.1,9155],[2.1,9238],[2.1,9321],[2.1,9404],[2.1,9488],[2.1,9571],[2,9654],[2,9737],[2,9820],[2,9904],[2,9987],[2,10070]]",1,0,239.3506,244.8602,1.875,2.5974,"[{""rating"":1.874999999999999,""responseTime"":2.597400000035776}]",space,5.0006,,244.8603,Not at all,0,244.8663,,,[],,0,2,2,2,1,audio/Narrative7Situation2.wav,audio/Narrative8Situation2.wav,audio/Narrative5Situation2.wav,audio/Narrative6Situation2.wav,3,3,3,3,,,,,,,,,,,,,,,,,,,,,,,,,,,,,,,,,,,,,,,
,,,,,,65c7878613b84bfc354131c7,2024-05-13_10h40.05.927,group3.1-3.2-social-tom,2023.2.2,Win32,243.902439,65c5074098b851296ff0b7ed,6642341a88e56a9354eb3978,,,,,,,,,,,,,,,,,,,,,,,,,,,,,244.8664,1,audio/Narrative8Situation3.wav,248.8677,,248.8677,271.2273,"[[999,4],[999,87],[999,170],[999,253],[999,337],[999,420],[999,503],[999,586],[999,669],[999,753],[999,836],[999,919],[999,1002],[999,1086],[999,1169],[999,1252],[999,1335],[999,1419],[999,1502],[999,1585],[999,1668],[999,1751],[999,1835],[999,1918],[999,2001],[999,2084],[55.5,2168],[55,2251],[55,2334],[55,2417],[55,2500],[48.1,2584],[46.5,2667],[46.5,2750],[46.5,2833],[46.5,2917],[46.5,3000],[50.3,3083],[59.7,3166],[67.6,3250],[68,3333],[68,3416],[68.2,3499],[68.6,3582],[68.6,3666],[68.6,3749],[68.6,3832],[68.6,3915],[68.6,3999],[68.6,4082],[68.6,4165],[70,4248],[70.3,4331],[70.3,4415],[70.3,4498],[70.3,4581],[70.3,4664],[70.3,4748],[70.3,4831],[70.3,4914],[70.7,4997],[77.7,5081],[78,5164],[78,5247],[78,5330],[78,5413],[78,5497],[78,5580],[78,5663],[78,5746],[78,5830],[78,5913],[78,5996],[78,6079],[73.8,6163],[72.2,6246],[72.2,6329],[71.7,6412],[69.6,6495],[69.4,6579],[69.4,6662],[69.2,6745],[67.4,6828],[65.6,6912],[62.5,6995],[62.5,7078],[62.5,7161],[62.5,7245],[62.5,7328],[62.5,7411],[62.5,7494],[62.5,7577],[62.5,7661],[62.5,7744],[62.5,7827],[62.5,7910],[62.5,7994],[62.5,8077],[62.5,8160],[62.5,8243],[62.5,8326],[64.2,8410],[64.5,8493],[65.5,8576],[66.3,8659],[67.7,8743],[68.4,8826],[69.3,8909],[72.7,8992],[73.8,9076],[74.6,9159],[75.2,9242],[75.8,9325],[75.8,9408],[75.9,9492],[77,9575],[77.4,9658],[77.4,9741],[77.5,9825],[89,9908],[89.9,9991],[89.9,10074],[89.9,10157],[89.5,10241],[88,10324],[85.4,10407],[83.6,10490],[83.6,10574],[83.6,10657],[83.6,10740],[83.6,10823],[83.3,10907],[82.3,10990],[82.3,11073],[80.6,11156],[76.3,11239],[75.9,11323],[75.9,11406],[75.9,11489],[75.9,11572],[75.9,11656],[75.9,11739],[75.9,11822],[75.9,11905],[75.9,11989],[76.7,12072],[76.8,12155],[76.9,12238],[76.9,12322],[76.9,12405],[76.9,12488],[77.2,12571],[77.2,12654],[78.3,12738],[78.4,12821],[78.4,12904],[78.4,12987],[78.4,13071],[78.4,13154],[78.4,13237],[78.4,13320],[78.4,13403],[78.4,13487],[78.4,13570],[78.4,13653],[78.4,13736],[78.4,13820],[78.4,13903],[78.4,13986],[78.4,14069],[78.4,14152],[78.4,14236],[78.4,14319],[78.4,14402],[78.8,14485],[79.7,14569],[80.3,14652],[80.9,14735],[81.7,14818],[82,14902],[82.9,14985],[84.3,15068],[84.9,15151],[85.4,15235],[85.8,15318],[86.1,15401],[87,15484],[87.1,15567],[87.1,15651],[87.2,15734],[87.2,15817],[87.2,15900],[87.2,15984],[87.2,16067],[87.2,16150],[87.2,16233],[87.2,16317],[87.2,16400],[87.2,16483],[87.2,16566],[87.2,16649],[87.2,16733],[87.2,16816],[87.2,16899],[87.2,16982],[87.2,17066],[87.2,17149],[87.2,17232],[87.2,17315],[87.2,17399],[87.2,17482],[87.2,17565],[87.2,17648],[87.2,17731],[87.2,17815],[87.2,17898],[87.2,17981],[87.2,18064],[87.2,18148],[87.2,18231],[89,18314],[92.8,18397],[92.8,18480],[93,18564],[92.1,18647],[96.5,18730],[96.5,18813],[96.5,18897],[96.5,18980],[96.6,19063],[98.2,19146],[98.3,19229],[98.3,19313],[98.3,19396],[98.3,19479],[98.3,19562],[98.3,19646],[98.3,19729],[98.3,19812],[98.3,19895],[98.3,19979],[98.3,20062],[98.3,20145],[98.3,20228],[98.3,20311],[99.3,20395],[99.9,20478],[99.9,20561],[99.9,20644],[99.9,20728],[99.9,20811],[99.9,20894],[99.9,20977],[99.9,21061],[99.9,21144],[99.9,21227],[99.9,21310],[99.9,21394],[99.9,21477],[99.9,21560],[99.9,21643],[99.9,21726],[99.9,21810],[99.9,21893],[99.9,21976],[99.9,22059],[99.9,22142],[99.9,22226],[99.9,22309]]",1,0,271.2273,278.2434,99.16666667,3.2091,"[{""rating"":99.16666666666667,""responseTime"":3.2091000000238523}]",space,6.5051,,278.2435,Definitely yes,100,278.2493,,,[],,0,3,3,3,1,audio/Narrative7Situation3.wav,audio/Narrative8Situation3.wav,audio/Narrative5Situation3.wav,audio/Narrative6Situation3.wav,8,4,3,5,,,,,,,,,,,,,,,,,,,,,,,,,,,,,,,,,,,,,,,
,,,,,,65c7878613b84bfc354131c7,2024-05-13_10h40.05.927,group3.1-3.2-social-tom,2023.2.2,Win32,243.902439,65c5074098b851296ff0b7ed,6642341a88e56a9354eb3978,,,,,,,,,,,,,,,,,,,,,,,,,,,,,278.2494,1,audio/Narrative8Situation4.wav,281.2521,,281.2521,295.4011,"[[75.6,2580],[76.1,2663],[76.1,2746],[76.1,2829],[76.1,2913],[76.1,2996],[76.1,3079],[76.1,3162],[76.1,3245],[76.1,3329],[76.1,3412],[76.1,3495],[76.1,3578],[76.1,3662],[77.8,3745],[79.9,3829],[80.6,3911],[83.8,3995],[86.4,4078],[90.6,4161],[91.9,4245],[91.9,4327],[91.9,4411],[91.9,4494],[91.8,4577],[91.7,4660],[91.7,4744],[91.7,4827],[91.7,4910],[91.7,4993],[91.7,5076],[91.7,5160],[91.7,5243],[91.7,5326],[91.7,5409],[91.7,5493],[91.7,5576],[91.7,5659],[91.7,5742],[91.7,5826],[91.7,5909],[91.7,5992],[91.7,6075],[91.7,6158],[91.7,6242],[91.7,6325],[94.8,6408],[95.7,6491],[95.7,6575],[95.9,6658],[97.3,6741],[97.7,6824],[97.8,6907],[97.9,6991],[97.9,7074],[98.1,7158],[98.4,7240],[98.4,7324],[98.4,7407],[98.8,7490],[99,7574],[99.1,7657],[99.1,7740],[99.1,7823],[99.1,7906],[99.1,7989],[99.1,8073],[99.1,8156],[99.1,8239],[99.1,8322],[99.1,8406],[99.1,8489],[99.1,8572],[99.1,8655],[99.1,8739],[99.1,8822],[99.1,8905],[99.1,8988],[99.1,9071],[99.1,9155],[99.1,9238],[99.1,9321],[99.1,9404],[99.1,9488],[99.1,9571],[99.1,9654],[99.1,9737],[99.1,9821],[99.1,9904],[99.1,9987],[99.1,10070],[99.1,10153],[99.1,10237],[99.1,10320],[99.1,10403],[99.1,10486],[99.1,10569],[99.1,10653],[99.1,10736],[99.1,10819],[99.1,10903],[99.1,10986],[99.1,11069],[99.1,11152],[99.1,11235],[99.1,11319],[99.1,11402],[99.1,11485],[99.1,11568],[99.1,11652],[99.1,11735],[99.1,11818],[99.1,11901],[99.1,11985],[99.1,12068],[99.1,12151],[99.1,12234],[99.1,12317],[99.1,12401],[99.1,12484],[99.1,12567],[99.1,12650],[99.1,12734],[99.1,12817],[99.1,12900],[99.1,12983],[99.1,13066],[99.1,13150],[99.1,13233],[99.1,13316],[99.1,13399],[99.1,13483],[99.1,13566],[99.1,13649],[99.1,13732],[99.1,13816],[99.1,13899],[99.1,13982],[99.1,14065],[99.1,14148]]",1,0,295.4012,299.7997,99.16666667,3.3423,"[{""rating"":99.16666666666667,""responseTime"":3.34230000001196}]",space,3.8896,,299.7997,Definitely yes,100,299.8005,,,[],,0,4,4,4,1,audio/Narrative7Situation4.wav,audio/Narrative8Situation4.wav,audio/Narrative5Situation4.wav,audio/Narrative6Situation4.wav,3,3,1,2,,,,,,,,,,,,,,,,,,,,,,,,,,,,,,,,,,,,,,,
,,,,,,65c7878613b84bfc354131c7,2024-05-13_10h40.05.927,group3.1-3.2-social-tom,2023.2.2,Win32,243.902439,65c5074098b851296ff0b7ed,6642341a88e56a9354eb3978,,,,,,,,,,,,,,,,,,,,,,,,,,,,,299.8006,1,audio/Narrative8Situation5.wav,301.8013,,301.8013,310.0244,"[[98.1,1498],[94,1581],[89.5,1665],[88.2,1747],[88.2,1831],[88.2,1914],[88.2,1997],[88.2,2080],[88.2,2163],[88.2,2247],[88.2,2330],[88.4,2413],[93,2497],[95.1,2580],[97.2,2664],[97.4,2746],[97.8,2829],[98.8,2913],[98.9,2996],[98.9,3079],[98.9,3162],[98.9,3245],[98.9,3329],[99.5,3412],[99.9,3495],[100,3578],[100,3662],[100,3745],[100,3828],[100,3911],[100,3995],[100,4078],[100,4161],[100,4244],[100,4327],[100,4411],[100,4494],[100,4577],[100,4660],[100,4743],[100,4827],[100,4910],[100,4993],[100,5076],[100,5160],[100,5243],[100,5326],[100,5409],[100,5493],[100,5576],[100,5659],[100,5742],[100,5825],[100,5909],[100,5992],[100,6075],[100,6158],[100,6242],[100,6325],[100,6408],[100,6491],[100,6575],[100,6658],[100,6741],[100,6824],[100,6908],[100,6991],[100,7074],[100,7157],[100,7240],[100,7324],[100,7407],[100,7490],[100,7573],[100,7657],[100,7740],[100,7823],[100,7906],[100,7990],[100,8073],[100,8156]]",1,0,310.0244,328.0851,99.58333333,8.591,"[{""rating"":99.58333333333333,""responseTime"":8.590999999999951}]",space,17.552,,328.0851,Not at all,0,328.0914,,,[],,0,5,5,5,1,audio/Narrative7Situation5.wav,audio/Narrative8Situation5.wav,audio/Narrative5Situation5.wav,audio/Narrative6Situation5.wav,5,2,5,2,,,,,,,,,,,,,,,,,,,,,,,,,,,,,,,,,,,,,,,
,,,,,,65c7878613b84bfc354131c7,2024-05-13_10h40.05.927,group3.1-3.2-social-tom,2023.2.2,Win32,243.902439,65c5074098b851296ff0b7ed,6642341a88e56a9354eb3978,,,,,,,,,,,,,,,,,,,,,,,,,,,,,328.0915,1,audio/Narrative8Situation6.wav,330.0951,,330.0951,336.5412,"[[99.2,2080],[98.9,2163],[98.9,2247],[98.9,2330],[98.9,2413],[98.9,2496],[98.9,2579],[98.9,2663],[98.9,2746],[98.9,2829],[98.9,2912],[98.9,2996],[98.9,3079],[98.9,3162],[98.9,3245],[98.9,3329],[98.9,3412],[98.9,3495],[98.9,3578],[98.9,3661],[98.9,3745],[98.9,3828],[98.9,3911],[98.9,3994],[98.9,4078],[98.9,4161],[98.9,4244],[98.9,4327],[98.9,4411],[98.9,4494],[98.9,4577],[98.9,4660],[98.9,4744],[98.9,4827],[98.9,4910],[98.9,4993],[98.9,5076],[98.9,5160],[98.9,5243],[98.9,5326],[98.9,5409],[98.9,5492],[98.9,5576],[98.9,5660],[98.9,5742],[98.9,5825],[98.9,5909],[98.9,5992],[98.9,6075],[98.9,6158],[98.9,6242],[98.9,6325],[98.9,6408]]",1,0,336.5412,338.9423,99.47916667,1.3623,"[{""rating"":99.47916666666667,""responseTime"":1.362300000011885}]",space,1.8904,,338.9424,Not at all,0,338.9431,,,[],,0,6,6,6,1,audio/Narrative7Situation6.wav,audio/Narrative8Situation6.wav,audio/Narrative5Situation6.wav,audio/Narrative6Situation6.wav,3,2,3,2,,,,,,,,,,,,,,,,,,,,,,,,,,,,,,,,,,,,,,,
,,,,,,65c7878613b84bfc354131c7,2024-05-13_10h40.05.927,group3.1-3.2-social-tom,2023.2.2,Win32,243.902439,65c5074098b851296ff0b7ed,6642341a88e56a9354eb3978,,,,,,,,,,,,,,,,,,,,,,,,,,,,,338.9432,1,audio/Narrative8Situation7.wav,341.9468,,341.9468,354.0068,"[[97.2,1082],[89.9,1165],[83.1,1249],[75.3,1331],[73.2,1414],[62.6,1498],[56.7,1582],[56.7,1664],[56.5,1747],[48.3,1831],[47.5,1914],[47.5,1997],[47.5,2081],[47.9,2164],[48.1,2247],[48.1,2330],[48.1,2413],[48.1,2496],[48.1,2580],[48.1,2663],[48.1,2746],[48.1,2829],[50.4,2913],[50.9,2996],[50.9,3079],[50.9,3162],[51,3246],[53.8,3330],[59.6,3412],[60.5,3495],[60.8,3578],[68.2,3662],[71.9,3746],[72.7,3828],[72.7,3911],[72.7,3995],[72.7,4078],[72.7,4161],[72.7,4244],[72.7,4327],[72.7,4411],[72.7,4494],[72.7,4577],[72.7,4660],[72.7,4744],[72.7,4827],[72.7,4910],[72.7,4993],[72.7,5076],[72.7,5160],[72.7,5243],[72.7,5326],[72.7,5409],[72.7,5493],[72.7,5576],[72.8,5659],[72.5,5742],[72.3,5826],[72.3,5909],[72.3,5992],[72.3,6075],[69.4,6159],[68.6,6242],[68.6,6325],[68.6,6408],[68.6,6491],[68.6,6575],[69.9,6658],[77.1,6742],[80.6,6824],[80.6,6908],[80.9,6991],[79,7074],[77.6,7157],[67.6,7241],[65.1,7324],[62.9,7408],[49.3,7490],[48.9,7573],[49.1,7657],[49.3,7740],[49.3,7823],[49.3,7906],[49.3,7990],[49.3,8073],[49.3,8156],[49.3,8239],[49.3,8322],[49.3,8406],[49.3,8489],[49.5,8572],[50.5,8656],[50.5,8739],[50.6,8822],[50.6,8905],[50.6,8988],[52.8,9072],[54.3,9155],[56.3,9239],[58.6,9321],[58.8,9404],[58.9,9488],[58.9,9571],[61,9655],[66.4,9737],[66.4,9821],[66.4,9904],[66.4,9987],[66.1,10070],[66.3,10153],[66.8,10237],[73.5,10321],[76.5,10403],[76.5,10486],[76.5,10570],[75.4,10653],[75.4,10736],[75.5,10819],[75.4,10903],[76.8,10986],[78.3,11070],[83.8,11152],[84.1,11235],[84.1,11319],[84.1,11402],[84.1,11485],[84.3,11568],[84.6,11652],[84.7,11735],[85.1,11818],[85.1,11901],[85.1,11985]]",1,0,354.0068,357.7652,78.75,2.1572,"[{""rating"":78.75,""responseTime"":2.1571999999881086}]",space,3.2474,,357.7652,Partially,50,357.7664,,,[],,0,7,7,7,1,audio/Narrative7Situation7.wav,audio/Narrative8Situation7.wav,audio/Narrative5Situation7.wav,audio/Narrative6Situation7.wav,5,3,4,5,,,,,,,,,,,,,,,,,,,,,,,,,,,,,,,,,,,,,,,
,,,,,,65c7878613b84bfc354131c7,2024-05-13_10h40.05.927,group3.1-3.2-social-tom,2023.2.2,Win32,243.902439,65c5074098b851296ff0b7ed,6642341a88e56a9354eb3978,,,,,,,,,,,,,,,,,,,,,,,,,,,,,357.7666,1,audio/Narrative8Situation8.wav,360.769,,360.7691,373.5988,"[[73,1581],[70,1664],[70,1747],[70,1831],[69.7,1915],[64.4,1997],[62,2080],[50.1,2163],[39.7,2247],[39.6,2330],[39.6,2413],[39.6,2496],[38,2580],[36.5,2663],[32.3,2746],[21.8,2829],[20.7,2913],[20.7,2996],[20.7,3079],[20.7,3162],[20.7,3245],[20.7,3329],[20.7,3412],[20.7,3495],[20.7,3578],[20.7,3662],[20.7,3745],[20.7,3828],[20.7,3911],[20.7,3994],[20.7,4078],[20.7,4161],[20.7,4244],[20.7,4327],[20.7,4411],[20.7,4494],[20.7,4577],[20.7,4660],[20.7,4744],[20.7,4827],[20.7,4910],[20.7,4993],[20.7,5076],[20.7,5160],[20.7,5243],[20.7,5326],[20.5,5414],[20.5,5497],[20.5,5580],[20.5,5663],[20.5,5746],[20.5,5830],[20.5,5913],[20.5,5996],[20.8,6079],[20.8,6163],[22,6246],[25.3,6329],[32.2,6412],[34.7,6495],[46.7,6579],[54.8,6662],[55,6745],[55,6828],[55,6912],[55,6995],[55,7078],[55.2,7161],[55.1,7245],[55.9,7328],[55.9,7411],[56.7,7494],[56.7,7578],[57.2,7661],[57.7,7744],[57.7,7827],[57.7,7910],[57.7,7994],[57.7,8077],[57.8,8160],[57.8,8243],[57.8,8326],[57.8,8410],[57.8,8493],[57.8,8576],[57.8,8659],[57.8,8743],[57.8,8826],[57.8,8909],[57.8,8992],[57.8,9076],[57.8,9159],[57.8,9242],[57.8,9325],[57.8,9408],[57.8,9492],[57.8,9575],[57.8,9658],[57.8,9741],[57.8,9825],[58.3,9908],[67,9991],[67.1,10074],[67.8,10158],[75.3,10241],[76.9,10324],[77.2,10407],[80.2,10491],[83.1,10574],[86.4,10657],[93.4,10740],[96.4,10823],[98.2,10907],[98.9,10990],[99,11073],[99,11156],[99,11240],[99,11323],[99,11406],[99.5,11489],[99.5,11572],[99.5,11656],[99.5,11739],[99.5,11822],[99.5,11905],[99.5,11989],[99.5,12072],[99.5,12155],[99.5,12238],[99.5,12322],[99.5,12405],[99.5,12488],[99.5,12571],[99.5,12654],[99.5,12738],[99.5,12821]]",1,0,373.599,376.6201,99.16666667,1.1891,"[{""rating"":99.16666666666667,""responseTime"":1.1891000000238137}]",space,2.5097,,376.6201,Definitely yes,100,376.6214,,,[],,0,8,8,8,1,audio/Narrative7Situation8.wav,audio/Narrative8Situation8.wav,audio/Narrative5Situation8.wav,audio/Narrative6Situation8.wav,2,3,3,5,,,,,,,,,,,,,,,,,,,,,,,,,,,,,,,,,,,,,,,
,,,,,,65c7878613b84bfc354131c7,2024-05-13_10h40.05.927,group3.1-3.2-social-tom,2023.2.2,Win32,243.902439,65c5074098b851296ff0b7ed,6642341a88e56a9354eb3978,,,,,,,,,,,,,,,,,,,,,,,,,,,,,376.6216,1,audio/Narrative8Situation9.wav,379.6246,,379.6246,390.9188,"[[999,0],[999,83],[999,166],[999,249],[999,332],[999,416],[999,499],[999,582],[999,665],[999,749],[999,832],[46.8,915],[46.8,998],[46.9,1081],[47.5,1165],[48.1,1248],[48.2,1331],[48.3,1414],[48.3,1498],[48.3,1581],[48.3,1664],[48.9,1747],[49.3,1831],[50,1914],[50.7,1997],[50.7,2080],[50.7,2163],[50.7,2247],[50.7,2330],[50.7,2413],[51.6,2496],[53.2,2580],[53.2,2663],[53.2,2746],[54.2,2829],[54.8,2913],[55.1,2996],[55.6,3079],[56.9,3162],[57.3,3245],[57.7,3329],[59.5,3412],[61.9,3495],[62.8,3578],[62.8,3662],[62.9,3745],[62.9,3828],[64.1,3911],[64.1,3994],[64.1,4078],[64.1,4161],[64.1,4244],[64.1,4327],[64.1,4411],[64.1,4494],[64.1,4577],[64.1,4660],[64.1,4744],[64.1,4827],[64.1,4910],[64.1,4993],[64.1,5076],[64.1,5160],[64.1,5243],[64.1,5326],[64.1,5409],[64.1,5493],[64.1,5576],[64.1,5659],[64.1,5742],[64.1,5826],[64.4,5909],[65.1,5992],[66.3,6075],[66.3,6158],[66.4,6242],[68.4,6325],[70.5,6408],[70.7,6491],[70.7,6574],[70.7,6658],[70.7,6741],[70.7,6824],[70.7,6908],[70.7,6991],[70.7,7074],[70.7,7157],[70.7,7240],[70.7,7324],[70.7,7407],[70.7,7490],[70.7,7573],[70.7,7657],[71.6,7740],[71.9,7823],[71.9,7906],[71.9,7989],[71.9,8073],[71.9,8156],[71.9,8239],[71.9,8322],[71.9,8406],[71.9,8489],[71.9,8572],[71.9,8655],[76.5,8739],[81,8822],[81.1,8905],[81.1,8988],[82.6,9071],[86.4,9155],[86.6,9238],[86.6,9321],[86.6,9404],[86.6,9488],[86.6,9571],[86.6,9654],[86.6,9737],[86.6,9820],[86.6,9904],[86.6,9987],[86.6,10070],[86.6,10153],[86.6,10237],[86.6,10320],[86.6,10403],[86.6,10486],[86.6,10569],[86.6,10653],[86.6,10736],[86.6,10819],[86.6,10903],[86.6,10986],[86.6,11069],[86.6,11152],[86.6,11235]]",1,0,390.9189,397.0818,84.47916667,1.437,"[{""rating"":84.47916666666666,""responseTime"":1.4370000000000118}]",space,5.652,,397.0819,Definitely yes,100,411.8391,100,13.1738,"[{""rating"":98.64583333333333,""responseTime"":11.877599999964275},{""rating"":100,""responseTime"":13.173799999952337}]",space,0,9,9,9,1,audio/Narrative7Situation9.wav,audio/Narrative8Situation9.wav,audio/Narrative5Situation9.wav,audio/Narrative6Situation9.wav,2,3,3,4,,,14.2474,,,,,,,,,,,,,,,,,,,,,,,,,,,,,,,,,,,,
,,,,,,65c7878613b84bfc354131c7,2024-05-13_10h40.05.927,group3.1-3.2-social-tom,2023.2.2,Win32,243.902439,65c5074098b851296ff0b7ed,6642341a88e56a9354eb3978,,,,,,,,,,,,,,,,,,,,,,,,,,,,,411.8393,1,audio/Narrative7Situation1.wav,413.84,,413.84,469.7034,"[[87.9,832],[80.5,915],[74.3,998],[56.8,1082],[42.7,1165],[42.7,1248],[42.7,1332],[44.9,1415],[45.1,1498],[47.5,1581],[49.6,1664],[49.6,1747],[49.6,1831],[49.6,1914],[49.6,1997],[49.6,2080],[49.6,2163],[49.6,2247],[49.6,2330],[49.6,2413],[49.6,2496],[49.6,2580],[49.6,2663],[49.6,2746],[49.6,2829],[49.6,2913],[49.6,2996],[49.6,3079],[49.6,3162],[49.6,3245],[49.6,3329],[49.6,3412],[49.6,3495],[49.6,3578],[49.6,3662],[49.6,3745],[49.6,3828],[45.8,3912],[37.7,3995],[30.3,4078],[22.2,4161],[16.4,4244],[14.5,4327],[14.2,4411],[12.3,4494],[9,4577],[9,4660],[9,4744],[9,4827],[9,4910],[9,4993],[9,5076],[9,5160],[9,5243],[8.5,5326],[8.1,5409],[8,5493],[8.2,5576],[7.3,5659],[4.5,5742],[3.2,5826],[3.2,5909],[3.2,5992],[3.2,6075],[3,6158],[2.2,6242],[1.3,6325],[0.9,6408],[0.9,6491],[0.9,6575],[0.9,6658],[0.9,6741],[0.9,6825],[0.9,6908],[0.9,6991],[0.9,7074],[0.9,7157],[0.9,7240],[0.9,7324],[0.9,7407],[0.9,7490],[0.9,7573],[0.9,7657],[0.9,7740],[0.9,7823],[0.9,7906],[0.9,7990],[0.9,8073],[0.9,8156],[0.9,8239],[0.9,8322],[0.9,8406],[0.9,8489],[1.7,8572],[1.9,8655],[1.9,8739],[1.9,8822],[1.9,8905],[1.9,8988],[2,9072],[4.4,9156],[4.5,9238],[4.5,9321],[5,9404],[5.3,9488],[6.8,9572],[7,9654],[7,9737],[7.4,9821],[7.4,9904],[7.4,9987],[7.4,10070],[7.4,10153],[7.4,10237],[8.1,10321],[11.4,10403],[11.5,10486],[11.5,10569],[11.5,10653],[11.5,10736],[11.5,10819],[11.5,10903],[11.5,10986],[11.5,11069],[11.5,11152],[11.5,11235],[11.5,11319],[11.7,11403],[13.1,11485],[15.8,11569],[18.8,11652],[21.9,11735],[25.9,11819],[31.1,11901],[40.1,11985],[48.9,12069],[54.6,12152],[59.2,12235],[61.4,12317],[61.4,12401],[61.4,12484],[61.4,12567],[61.4,12650],[61.4,12733],[61.4,12817],[61.4,12900],[61.4,12983],[61.1,13066],[63.2,13150],[62.9,13233],[62.6,13316],[62.6,13400],[65.6,13483],[65.6,13566],[65.6,13649],[65.6,13732],[65.6,13816],[65.6,13899],[65.6,13982],[65.2,14065],[65,14149],[65,14232],[65,14315],[65,14398],[64.8,14481],[64.6,14565],[64.6,14648],[64.6,14731],[64.3,14814],[64,14898],[63.9,14981],[63.8,15064],[63.8,15147],[62.3,15230],[59.8,15314],[59.7,15397],[59.7,15480],[58.4,15564],[55.1,15647],[53.5,15731],[52.8,15813],[51.6,15897],[51.5,15980],[51.5,16063],[51.5,16146],[51.5,16229],[51.5,16312],[51.5,16396],[51.5,16479],[51.5,16562],[51.5,16645],[51.5,16728],[51.5,16812],[51.5,16895],[51.5,16978],[51.5,17061],[51.5,17145],[51.5,17228],[51.4,17311],[51.3,17394],[50.9,17478],[50.9,17561],[50.8,17644],[49.6,17727],[46.8,17811],[45.4,17894],[43.4,17977],[40.1,18060],[34.6,18144],[34.5,18227],[34.5,18310],[34.5,18393],[34.4,18476],[34.1,18560],[34.1,18643],[34.1,18726],[34.1,18809],[34.1,18892],[34.1,18976],[34.1,19059],[34.1,19142],[34.1,19225],[34.1,19309],[34.1,19392],[34.1,19475],[34.1,19558],[34.1,19641],[34.1,19725],[33.6,19808],[33.4,19891],[33.4,19974],[33,20058],[30,20141],[29.4,20224],[29.3,20307],[26.4,20391],[25.5,20474],[25.5,20557],[25.4,20641],[20.9,20724],[20.8,20807],[20.8,20890],[20.8,20973],[20.8,21057],[20.8,21140],[20.8,21223],[20.8,21306],[20.8,21389],[20.6,21473],[9.2,21556],[6.4,21639],[7.2,21723],[7.4,21806],[7.8,21889],[7.8,21972],[7.8,22055],[7.8,22138],[7.8,22222],[7.8,22305],[7.8,22388],[7.8,22471],[5.9,22555],[5.1,22638],[5.1,22721],[2.3,22804],[0.1,22887],[0.1,22971],[0.1,23054],[0.2,23138],[0.4,23220],[0.4,23304],[0.4,23387],[0.4,23470],[0.4,23553],[0.4,23637],[0.4,23720],[0.4,23803],[0.4,23886],[0.4,23969],[0.4,24053],[0.4,24136],[0.4,24219],[0.4,24302],[0.4,24386],[0.4,24469],[0.4,24552],[0.4,24635],[0.4,24718],[3.5,24802],[3.9,24885],[3.9,24968],[3.9,25051],[3.9,25135],[3.9,25218],[3.9,25301],[3.9,25384],[3.9,25468],[3.9,25551],[3.9,25634],[3.9,25718],[3.9,25800],[3.9,25885],[3.9,25967],[3.9,26050],[3.9,26134],[3.9,26217],[3.9,26300],[4.2,26383],[5.7,26466],[5.7,26550],[5.7,26633],[5.7,26716],[5.7,26799],[5.7,26882],[5.7,26966],[5.7,27049],[5.7,27132],[5.7,27215],[5.7,27299],[5.7,27382],[5.7,27465],[5.7,27548],[5.7,27632],[5.7,27715],[5.7,27798],[5.7,27881],[5.7,27964],[5.7,28048],[5.7,28131],[5.7,28214],[5.7,28297],[5.7,28381],[5.7,28464],[5.7,28547],[5.7,28630],[5.7,28714],[5.7,28797],[6.1,28881],[14.5,28963],[28.4,29047],[43.8,29130],[44.7,29213],[45.4,29296],[46.7,29380],[47,29463],[48.5,29547],[48.6,29629],[48.6,29712],[48.6,29795],[48.6,29879],[48.6,29962],[48.6,30045],[48.6,30128],[48.6,30212],[48.6,30295],[48.6,30378],[48.6,30461],[48.6,30545],[48.6,30628],[48.8,30711],[49.1,30794],[49.1,30877],[49.1,30961],[49.1,31044],[49.1,31127],[49.1,31210],[49.1,31294],[49.1,31377],[49.1,31460],[49.1,31543],[49.1,31627],[49.1,31710],[49.1,31793],[49.1,31876],[49.1,31959],[49.1,32043],[49.1,32126],[49.1,32210],[49.1,32292],[49.1,32376],[49.1,32459],[49.1,32542],[49.1,32625],[49.1,32709],[49.1,32792],[49.1,32875],[49.1,32958],[49.1,33041],[49.1,33125],[49.1,33208],[49.1,33291],[49.1,33374],[49.1,33458],[49.1,33541],[49.1,33625],[49.1,33707],[49.1,33791],[49.1,33874],[49.1,33957],[49.1,34040],[49.1,34123],[49.1,34207],[49.1,34290],[49.1,34373],[49.1,34456],[49.3,34544],[49.8,34627],[50,34710],[50,34793],[50,34877],[50,34960],[50,35043],[50,35126],[50,35209],[50,35293],[50,35376],[50,35459],[50,35542],[50,35626],[50,35709],[50,35792],[50,35875],[50,35959],[50,36042],[50,36125],[50,36208],[51.6,36292],[53.8,36375],[57.2,36458],[57.7,36541],[57.8,36624],[57.8,36708],[57.8,36791],[57.8,36874],[57.9,36957],[57.9,37041],[58.1,37124],[58.9,37207],[59.6,37290],[59.8,37374],[59.8,37457],[59.8,37540],[59.8,37623],[59.8,37706],[59.8,37790],[59.8,37873],[59.8,37956],[59.8,38039],[59.8,38122],[59.8,38206],[59.8,38289],[59.8,38372],[59.8,38456],[59.8,38539],[59.8,38622],[59.8,38705],[59.8,38788],[59.8,38872],[59.8,38955],[59.8,39038],[59.8,39121],[59.8,39204],[59.8,39288],[59.8,39371],[59.8,39454],[59.8,39537],[59.8,39621],[59.8,39704],[59.8,39787],[59.8,39870],[59.8,39954],[59.8,40037],[59.8,40120],[59.8,40203],[59.8,40286],[59.8,40370],[59.8,40453],[59.8,40536],[59.8,40619],[59.8,40703],[59.8,40786],[59.8,40869],[61.9,40952],[63.9,41036],[65.3,41119],[69.3,41202],[69.3,41285],[69.3,41368],[69.4,41452],[70,41535],[70.2,41618],[70.4,41701],[70.4,41785],[71.6,41868],[71.6,41951],[71.6,42034],[71.6,42117],[71.6,42201],[71.6,42284],[71.6,42367],[71.6,42450],[71.6,42534],[71.6,42617],[71.6,42700],[71.6,42783],[71.6,42867],[71.6,42950],[71.6,43033],[71.6,43116],[71.6,43199],[71.6,43283],[71.6,43366],[71.6,43449],[71.6,43532],[71.6,43616],[71.6,43699],[71.6,43782],[71.6,43865],[71.6,43949],[71.6,44032],[71.6,44115],[72.8,44198],[76.7,44281],[79.1,44365],[79.5,44448],[86,44531],[88.2,44614],[88.2,44698],[88.2,44781],[87.5,44864],[86.7,44947],[86.6,45031],[86.6,45114],[86.6,45197],[86.6,45280],[86.8,45363],[87.2,45447],[87.2,45530],[87.2,45613],[87.2,45696],[87.2,45780],[87.2,45863],[87,45946],[86.6,46029],[86.1,46113],[85.6,46196],[84.8,46279],[82.1,46362],[78.2,46446],[71.9,46529],[68.4,46612],[68.4,46695],[68.4,46778],[68.3,46862],[66,46945],[65.7,47028],[63.5,47111],[63.3,47194],[63.2,47278],[60.6,47361],[52.6,47444],[52.2,47527],[52.2,47611],[52,47694],[51.8,47777],[51.8,47860],[51.8,47944],[51.8,48027],[51.8,48110],[51.8,48193],[51.8,48276],[51.8,48360],[51.8,48443],[51.8,48526],[51.8,48609],[51.8,48693],[51.8,48776],[51.8,48859],[51.8,48942],[51.8,49026],[51.8,49109],[51.8,49192],[51.8,49275],[51.8,49358],[51.4,49442],[48.6,49525],[48.5,49608],[48.5,49691],[48.5,49775],[48.5,49858],[48.5,49941],[48.5,50024],[48.5,50108],[48.5,50191],[48.5,50274],[48.5,50357],[48.5,50440],[48.5,50524],[48.5,50607],[48.5,50690],[48.5,50773],[48.5,50857],[48.5,50940],[48.5,51023],[48.5,51106],[48.5,51190],[48.5,51273],[48.5,51356],[48.5,51439],[48.5,51522],[48.5,51606],[48.5,51689],[48.5,51772],[48.6,51855],[48.9,51939],[49,52022],[49.1,52105],[49.1,52188],[49.1,52271],[49.1,52355],[49.1,52438],[49.1,52521],[49.1,52604],[49.1,52688],[49.1,52771],[49.1,52854],[49.1,52937],[49.1,53021],[49.1,53104],[49.1,53187],[49.1,53270],[49.1,53353],[49.1,53437],[49.1,53520],[49.1,53603],[49.1,53686],[49.1,53770],[49.1,53853],[49.1,53936],[49.1,54019],[50.2,54103],[50.3,54186],[50.3,54269],[50.3,54352],[50.3,54435],[50.3,54519],[50.3,54602],[50.3,54685],[50.3,54768],[50.3,54852],[50.3,54935],[50.3,55018],[50.3,55101],[50.3,55185],[50.3,55268],[50.3,55351],[50.3,55434],[50.3,55517],[50.3,55601],[50.3,55684],[50.3,55767],[50.3,55850]]",1,0,469.7035,473.3322,50.20833333,2.2203,"[{""rating"":50.208333333333336,""responseTime"":2.220300000011946}]",space,3.1175,,473.3322,Partially,50,473.3334,,,[],,0,10,10,10,1,audio/Narrative8Situation1.wav,audio/Narrative7Situation1.wav,audio/Narrative6Situation1.wav,audio/Narrative5Situation1.wav,5,2,2,5,,,,,,,,,,,,,,,,,,,,,,,,,,,,,,,,,,,,,,,
,,,,,,65c7878613b84bfc354131c7,2024-05-13_10h40.05.927,group3.1-3.2-social-tom,2023.2.2,Win32,243.902439,65c5074098b851296ff0b7ed,6642341a88e56a9354eb3978,,,,,,,,,,,,,,,,,,,,,,,,,,,,,473.3335,1,audio/Narrative7Situation2.wav,476.3366,,476.3367,483.7898,"[[49.8,1081],[49.8,1165],[49.8,1248],[49.8,1331],[49.8,1414],[49.8,1497],[49.8,1581],[49.8,1664],[49.8,1747],[49.8,1830],[49.8,1914],[49.8,1997],[50.8,2080],[53,2163],[53.1,2247],[54.4,2330],[56.6,2413],[58,2496],[58.2,2580],[60.9,2663],[61.3,2746],[62.1,2829],[63.5,2912],[63.5,2996],[64.1,3079],[66.3,3162],[67.3,3245],[67.8,3329],[72.1,3412],[74.3,3495],[74.3,3578],[74.3,3661],[74.3,3745],[74.6,3828],[75.6,3911],[75.7,3995],[75.9,4078],[76.5,4161],[76.5,4244],[78.6,4327],[81.3,4411],[85.5,4494],[93.5,4577],[100,4660],[100,4743],[100,4827],[100,4910],[100,4993],[100,5076],[100,5160],[100,5243],[100,5326],[100,5409],[100,5492],[100,5576],[100,5659],[100,5742],[100,5825],[100,5909],[100,5992],[100,6075],[100,6158],[100,6242],[100,6325],[100,6408],[100,6491],[100,6574],[100,6658],[100,6741],[100,6824],[100,6907],[100,6991],[100,7074],[100,7157],[100,7240],[100,7324],[100,7407]]",1,0,483.7899,487.7224,99.6875,1.774,"[{""rating"":99.6875,""responseTime"":1.774000000000001}]",space,3.4218,,487.7224,Definitely yes,100,487.7238,,,[],,0,11,11,11,1,audio/Narrative8Situation2.wav,audio/Narrative7Situation2.wav,audio/Narrative6Situation2.wav,audio/Narrative5Situation2.wav,3,3,3,3,,,,,,,,,,,,,,,,,,,,,,,,,,,,,,,,,,,,,,,
,,,,,,65c7878613b84bfc354131c7,2024-05-13_10h40.05.927,group3.1-3.2-social-tom,2023.2.2,Win32,243.902439,65c5074098b851296ff0b7ed,6642341a88e56a9354eb3978,,,,,,,,,,,,,,,,,,,,,,,,,,,,,487.7239,1,audio/Narrative7Situation3.wav,495.7248,,495.7249,504.955,"[[50.5,1252],[50.5,1335],[50.5,1418],[50.5,1502],[50.5,1585],[50.5,1668],[50.5,1751],[50.5,1835],[50,1918],[39.2,2001],[24.6,2084],[11.5,2168],[10.5,2251],[4.9,2334],[3.8,2417],[3.5,2500],[3.9,2584],[3.9,2667],[4.8,2750],[0.6,5663],[0.7,5746],[0.7,5830],[0.7,5913],[0.7,5996],[0.7,6079],[0.7,6163],[0.7,6246],[1.8,6329],[3.4,6412],[3.6,6495],[3.6,6579],[3.6,6662],[3.6,6745],[3.6,6828],[3.6,6912],[3.4,6995],[3.4,7078],[3.4,7161],[2.9,7244],[2.8,7328],[2.8,7411],[2.8,7494],[2.7,7577],[2.4,7661],[2,7744],[1.7,7827],[1.6,7910],[1.5,7993],[1.1,8077],[0.7,8160],[0.7,8243],[0.7,8326],[0.7,8410],[0.7,8493],[0.7,8576],[0.7,8659],[0.7,8743],[0.7,8826],[0.7,8909],[0.7,8992],[0.7,9076],[0.7,9159]]",1,0,504.9551,509.0165,0.520833333,2.7209,"[{""rating"":0.5208333333333315,""responseTime"":2.7208999999761545}]",space,3.5509,,509.0165,Definitely yes,100,509.0174,,,[],,0,12,12,12,1,audio/Narrative8Situation3.wav,audio/Narrative7Situation3.wav,audio/Narrative6Situation3.wav,audio/Narrative5Situation3.wav,4,8,5,3,,,,,,,,,,,,,,,,,,,,,,,,,,,,,,,,,,,,,,,
,,,,,,65c7878613b84bfc354131c7,2024-05-13_10h40.05.927,group3.1-3.2-social-tom,2023.2.2,Win32,243.902439,65c5074098b851296ff0b7ed,6642341a88e56a9354eb3978,,,,,,,,,,,,,,,,,,,,,,,,,,,,,509.0174,1,audio/Narrative7Situation4.wav,512.0211,,512.0211,523.7231,"[[999,4],[999,83],[999,166],[999,249],[999,332],[999,416],[999,499],[999,582],[999,665],[999,749],[18.8,832],[23.9,916],[30.2,999],[33.8,1082],[44.9,1165],[45.8,1248],[45.8,1331],[45.8,1414],[46.8,1498],[47,1581],[47.1,1664],[47.1,1747],[47.1,1830],[45.6,1914],[36.4,1998],[15.1,2080],[13.1,2163],[13.1,2247],[13.1,2330],[13.1,2413],[13.1,2496],[13.1,2580],[13.1,2663],[13.1,2746],[13.1,2829],[13.1,2913],[13.1,2996],[13.1,3079],[13.1,3162],[13.1,3245],[13.1,3329],[13.1,3412],[13.1,3495],[13.1,3578],[12.8,3662],[9.7,3745],[9.6,3828],[7.4,3911],[5.3,3994],[5.1,4078],[5.1,4161],[4,4245],[3.8,4327],[3.8,4411],[3.8,4494],[3.8,4577],[3.8,4660],[3.6,4743],[3.5,4827],[3.4,4910],[2.1,4993],[1.3,5076],[1.3,5160],[1.3,5243],[1.3,5326],[1.3,5409],[1.3,5493],[1.3,5576],[1.3,5659],[1.3,5742],[1.3,5825],[1,5909],[0.7,5992],[0.7,6075],[0.7,6158],[0.7,6242],[0.7,6325],[0.7,6409],[0.7,6491],[0.7,6574],[0.7,6658],[0.7,6741],[1.3,6824],[3.4,6908],[4.1,6991],[6.3,7074],[11.5,7158],[12.2,7240],[13.8,7324],[25.6,7407],[31.4,7491],[38,7574],[42.8,7657],[45.6,7740],[45.8,7823],[45.8,7906],[45.8,7989],[45.8,8073],[45.8,8156],[43.2,8239],[42.8,8323],[42.8,8406],[42.8,8489],[42.8,8572],[42.8,8655],[42.8,8738],[42.8,8822],[42.8,8905],[42.8,8988],[42.8,9071],[42.8,9155],[42.8,9238],[42.8,9321],[42.8,9404],[42.8,9487],[42.8,9571],[42.8,9654],[42.8,9737],[42.4,9820],[42.5,9904],[42.7,9987],[42.8,10070],[42.8,10153],[42.8,10237],[42.8,10320],[42.8,10403],[42.8,10486],[42.8,10569],[42.8,10653],[42.8,10736],[42.8,10819],[42.8,10902],[42.8,10986],[42.8,11069],[42.8,11152],[42.8,11235],[42.8,11319],[42.8,11402],[42.8,11485],[42.8,11568],[42.8,11652]]",1,0,523.7232,526.824,39.375,1.6966,"[{""rating"":39.375,""responseTime"":1.6965999999642918}]",space,2.5894,,526.824,Not at all,0,526.8254,,,[],,0,13,13,13,1,audio/Narrative8Situation4.wav,audio/Narrative7Situation4.wav,audio/Narrative6Situation4.wav,audio/Narrative5Situation4.wav,3,3,2,1,,,,,,,,,,,,,,,,,,,,,,,,,,,,,,,,,,,,,,,
,,,,,,65c7878613b84bfc354131c7,2024-05-13_10h40.05.927,group3.1-3.2-social-tom,2023.2.2,Win32,243.902439,65c5074098b851296ff0b7ed,6642341a88e56a9354eb3978,,,,,,,,,,,,,,,,,,,,,,,,,,,,,526.8254,1,audio/Narrative7Situation5.wav,531.8254,,531.8255,540.2857,"[[39,3250],[21.3,3333],[20.2,3416],[18.2,3499],[7.3,3582],[1,3666],[0.8,3749],[0.8,3832],[0.8,3915],[0.8,3999],[0.8,4082],[0.8,4165],[0.8,4248],[0.8,4331],[0.8,4415],[0.8,4498],[0.5,4581],[0.3,4664],[0.1,4748],[0.1,4831],[0.1,4914],[0.1,4997],[0.1,5081],[0.1,5164],[0.1,5247],[0.1,5330],[0.1,5413],[0.1,5497],[0.1,5580],[0.1,5663],[0.1,5746],[0.1,5830],[0.1,5913],[0.1,5996],[0.1,6079],[0.1,6163],[0.1,6246],[0.1,6329],[0.1,6412],[0.1,6495],[0.1,6579],[0.1,6662],[0.1,6745]]",1,0,540.2858,542.8865,0.625,1.6382,"[{""rating"":0.6249999999999978,""responseTime"":1.6381999999880463}]",space,2.0895,,542.8865,Definitely yes,100,542.8879,,,[],,0,14,14,14,1,audio/Narrative8Situation5.wav,audio/Narrative7Situation5.wav,audio/Narrative6Situation5.wav,audio/Narrative5Situation5.wav,2,5,2,5,,,,,,,,,,,,,,,,,,,,,,,,,,,,,,,,,,,,,,,
,,,,,,65c7878613b84bfc354131c7,2024-05-13_10h40.05.927,group3.1-3.2-social-tom,2023.2.2,Win32,243.902439,65c5074098b851296ff0b7ed,6642341a88e56a9354eb3978,,,,,,,,,,,,,,,,,,,,,,,,,,,,,542.888,1,audio/Narrative7Situation6.wav,545.8911,,545.8911,555.8412,"[[2.2,2081],[2.1,2163],[1.7,2247],[5,2330],[12.8,2414],[22,2497],[38.4,2580],[48.3,2664],[50.4,2746],[52.7,2830],[54,2913],[54,2996],[54.6,3080],[64.9,3162],[65.7,3245],[75.3,3329],[82.7,3412],[83.2,3496],[87.5,3579],[94.4,3662],[98.6,3745],[99,3828],[99,3911],[99.1,3995],[99.1,4078],[99.1,4161],[99.1,4244],[99.2,4327],[99.2,4411],[99.2,4494],[99.2,4577],[99.2,4660],[99.4,4744],[99.6,4827],[99.7,4910],[99.7,4993],[99.7,5076],[99.7,5160],[99.7,5243],[99.8,5326],[99.8,5409],[99.8,5493],[99.8,5576],[99.8,5659],[100,5743],[100,5826],[100,5909],[100,5992],[100,6075],[100,6158],[100,6242],[100,6325],[100,6409],[100,6491],[100,6575],[100,6658],[100,6741],[100,6824],[100,6907],[100,6991],[100,7074],[100,7157],[100,7240],[100,7324],[100,7407],[100,7490],[100,7573],[100,7657],[100,7740],[100,7823],[100,7906],[100,7989],[100,8073],[100,8156],[100,8239],[100,8322],[100,8406],[100,8489],[100,8572],[100,8655],[100,8738],[100,8822],[100,8905],[100,8988],[100,9072],[100,9155],[100,9238],[100,9321],[100,9404],[100,9488],[100,9571],[100,9654],[100,9737],[100,9820],[100,9904]]",1,0,555.8412,558.9587,99.375,2.0782,"[{""rating"":99.375,""responseTime"":2.078200000047673}]",space,2.6093,,558.9587,Partially,50,558.96,,,[],,0,15,15,15,1,audio/Narrative8Situation6.wav,audio/Narrative7Situation6.wav,audio/Narrative6Situation6.wav,audio/Narrative5Situation6.wav,2,3,2,3,,,,,,,,,,,,,,,,,,,,,,,,,,,,,,,,,,,,,,,
,,,,,,65c7878613b84bfc354131c7,2024-05-13_10h40.05.927,group3.1-3.2-social-tom,2023.2.2,Win32,243.902439,65c5074098b851296ff0b7ed,6642341a88e56a9354eb3978,,,,,,,,,,,,,,,,,,,,,,,,,,,,,558.9602,1,audio/Narrative7Situation7.wav,563.9643,,563.9644,581.1137,"[[96.3,1414],[77.8,2080],[69.7,2164],[68.8,2247],[68.5,2330],[62,2414],[59.7,2496],[58.9,2580],[56.9,2663],[56.8,2746],[56.8,2829],[57,2912],[58.9,2996],[61.5,3079],[63.8,3162],[65.9,3246],[66.9,3329],[67,3412],[68.8,3495],[69.4,3578],[69.5,3661],[69.5,3745],[69.5,3828],[69.5,3911],[69.5,3994],[69.5,4077],[69.5,4161],[69.5,4244],[69.5,4327],[69.5,4411],[69.5,4494],[69.5,4577],[69.5,4660],[69.5,4743],[69.5,4827],[69.5,4910],[69.5,4993],[69.5,5076],[69.5,5160],[69.5,5243],[69.5,5326],[69.5,5409],[69.5,5493],[69.5,5576],[69.5,5659],[69.5,5742],[69.5,5825],[69.5,5909],[69.5,5992],[69.5,6075],[69.5,6158],[69.5,6242],[69.5,6325],[69.5,6408],[69.5,6491],[69.5,6574],[69.5,6658],[69.5,6741],[69.5,6824],[69.5,6907],[69.5,6991],[69.5,7074],[69.6,7162],[72.9,7245],[74.5,7328],[76.5,7411],[76.8,7494],[76.8,7577],[76.8,7661],[76.8,7744],[76.8,7827],[76.8,7910],[76.8,7994],[76.8,8077],[76.8,8160],[76.8,8243],[75.1,8326],[74.9,8410],[74.9,8493],[74.9,8576],[74.9,8659],[74.9,8743],[74.9,8826],[74.9,8909],[74.9,8992],[74.9,9076],[74.9,9159],[74.9,9242],[74.9,9325],[74.9,9408],[74.9,9492],[74.9,9575],[74.9,9658],[74.9,9741],[74.9,9825],[74.9,9908],[74.9,9991],[74.9,10074],[74.9,10157],[74.9,10241],[74.9,10324],[74.9,10407],[74.9,10490],[74.9,10574],[74.9,10657],[74.9,10740],[74.9,10823],[74.9,10907],[74.9,10990],[74.9,11073],[74.9,11156],[74.9,11240],[74.9,11323],[74.9,11406],[74.9,11489],[74.9,11572],[74.9,11656],[74.9,11739],[74.9,11822],[74.9,11905],[74.9,11989],[74.9,12072],[74.9,12155],[74.9,12238],[74.9,12322],[74.9,12405],[74.9,12488],[74.9,12571],[74.9,12654],[74.9,12738],[74.9,12821],[74.9,12904],[74.5,12987],[70.3,13071],[68.5,13154],[68.2,13237],[68.1,13320],[68.1,13403],[68.1,13487],[68.1,13570],[68.1,13653],[68.1,13736],[68.1,13820],[68.1,13903],[68.1,13986],[68.1,14069],[68.1,14153],[68.1,14236],[69.7,14319],[72.9,14402],[74.8,14485],[81,14569],[83.9,14652],[90.1,14735],[93.1,14818],[95.5,14902],[96.6,14985],[96.6,15068],[99.9,15151],[100,15234],[100,15318],[100,15401],[100,15484],[100,15567],[100,15651],[100,15734],[100,15817],[100,15900],[100,15984],[100,16067],[100,16150],[100,16233],[100,16316],[100,16400],[100,16483],[100,16566],[100,16649],[100,16733],[100,16816],[100,16899],[100,16982],[100,17065],[100,17149]]",1,0,581.1138,583.7312,99.0625,1.274,"[{""rating"":99.0625,""responseTime"":1.274000000000001}]",space,2.1064,,583.7312,Partially,50,583.7321,,,[],,0,16,16,16,1,audio/Narrative8Situation7.wav,audio/Narrative7Situation7.wav,audio/Narrative6Situation7.wav,audio/Narrative5Situation7.wav,3,5,5,4,,,,,,,,,,,,,,,,,,,,,,,,,,,,,,,,,,,,,,,
,,,,,,65c7878613b84bfc354131c7,2024-05-13_10h40.05.927,group3.1-3.2-social-tom,2023.2.2,Win32,243.902439,65c5074098b851296ff0b7ed,6642341a88e56a9354eb3978,,,,,,,,,,,,,,,,,,,,,,,,,,,,,583.7322,1,audio/Narrative7Situation8.wav,585.7329,,585.733,595.7329,"[[44.4,582],[45.3,665],[46.8,748],[46.8,832],[46.8,915],[46.4,998],[47,1081],[47.6,1165],[49.4,1248],[49.5,1331],[49.7,1414],[50.2,1497],[53.3,1581],[53.6,1664],[53.6,1747],[53.6,1830],[53.6,1914],[53.6,1997],[53.6,2080],[53.6,2163],[53.6,2246],[53.6,2330],[53.6,2413],[53.6,2496],[48.2,2579],[45.2,2663],[41.4,2746],[41.3,2829],[41.3,2912],[41.3,2996],[41.3,3079],[41.3,3162],[41.3,3245],[41,3329],[32.9,3412],[29.1,3495],[29.1,3578],[28.9,3661],[27.7,3745],[27.7,3828],[27.7,3911],[27.7,3994],[27.7,4077],[27.7,4161],[27.7,4244],[26.4,4327],[25.8,4410],[25.8,4494],[25.8,4577],[25.8,4660],[25.8,4743],[25.8,4827],[25.8,4910],[25.8,4993],[29.3,5076],[50.4,5160],[55.1,5243],[62.1,5326],[64,5409],[70.7,5492],[76.5,5576],[76.9,5659],[76.9,5742],[76.9,5825],[76.9,5909],[76.9,5992],[76.9,6075],[76.9,6158],[76.9,6241],[76.9,6325],[76.9,6408],[76.9,6491],[76.9,6574],[76.9,6658],[76.9,6741],[76.9,6824],[76.9,6907],[76.9,6991],[76.9,7074],[76.9,7157],[76.9,7240],[76.9,7323],[76.9,7407],[76.9,7490],[76.9,7573],[77,7656],[78.1,7740],[79.2,7823],[83.1,7906],[90.5,7989],[93.5,8073],[95.4,8156],[97.1,8239],[97.7,8322],[98,8405],[98.6,8489],[98.6,8572],[98.6,8655],[99.2,8738],[99.2,8822],[100,8905],[100,8988],[100,9071],[100,9154],[100,9238],[100,9321],[100,9404],[100,9487],[100,9571],[100,9654],[100,9737],[100,9820],[100,9904],[100,9987]]",1,0,595.7329,598.3462,99.58333333,1.1749,"[{""rating"":99.58333333333333,""responseTime"":1.174900000035791}]",space,2.1019,,598.3463,Partially,50,598.347,,,[],,0,17,17,17,1,audio/Narrative8Situation8.wav,audio/Narrative7Situation8.wav,audio/Narrative6Situation8.wav,audio/Narrative5Situation8.wav,3,2,5,3,,,,,,,,,,,,,,,,,,,,,,,,,,,,,,,,,,,,,,,
,,,,,,65c7878613b84bfc354131c7,2024-05-13_10h40.05.927,group3.1-3.2-social-tom,2023.2.2,Win32,243.902439,65c5074098b851296ff0b7ed,6642341a88e56a9354eb3978,,,,,,,,,,,,,,,,,,,,,,,,,,,,,598.3471,1,audio/Narrative7Situation9.wav,600.3479,,600.3479,608.9538,"[[999,0],[999,83],[999,166],[999,249],[999,332],[999,416],[999,499],[999,582],[999,665],[999,749],[999,832],[51.7,915],[50.7,998],[50.7,1081],[50.7,1165],[50.7,1248],[50.7,1331],[50.7,1414],[50.7,1498],[50.7,1581],[50.7,1664],[51.3,1747],[52.7,1831],[54.4,1914],[60.3,1997],[65.6,2080],[72.1,2163],[75.2,2247],[76.6,2330],[77.2,2413],[77.3,2496],[77.3,2580],[77.3,2663],[79.3,2746],[85.9,2829],[86.3,2912],[86.3,2996],[86.3,3079],[86.3,3162],[86.3,3245],[86.5,3329],[90.1,3412],[95.2,3495],[99.1,3578],[99.1,3662],[99.1,3745],[99.1,3828],[99.1,3911],[99.1,3994],[99.1,4078],[100,4161],[100,4244],[100,4327],[100,4411],[100,4494],[100,4577],[100,4660],[100,4743],[100,4827],[100,4910],[100,4993],[100,5076],[100,5160],[100,5243],[100,5326],[100,5409],[100,5493],[100,5576],[100,5659],[100,5742],[100,5826],[100,5909],[100,5992],[100,6075],[100,6158],[100,6242],[100,6325],[100,6408],[100,6491],[100,6575],[100,6658],[100,6741],[100,6824],[100,6907],[100,6991],[100,7074],[100,7157],[100,7240],[100,7323],[100,7407],[100,7490],[100,7573],[100,7656],[100,7740],[100,7823],[100,7906],[100,7990],[100,8073],[100,8156],[100,8239],[100,8322],[100,8405],[100,8489],[100,8572]]",1,0,608.9538,611.8965,99.6875,2.1415,"[{""rating"":99.6875,""responseTime"":2.141499999999951}]",space,2.432,,611.8965,Definitely yes,100,611.8979,,,[],,0,18,18,18,1,audio/Narrative8Situation9.wav,audio/Narrative7Situation9.wav,audio/Narrative6Situation9.wav,audio/Narrative5Situation9.wav,3,2,4,3,,,,,,,,,,,,,,,,,,,,,,,,,,,,,,,,,,,,,,,
,,,,,,65c7878613b84bfc354131c7,2024-05-13_10h40.05.927,group3.1-3.2-social-tom,2023.2.2,Win32,243.902439,65c5074098b851296ff0b7ed,6642341a88e56a9354eb3978,,,,,,,,,,,,,,,,,,,,,,,,,,,624.406,626.9853,626.9913,2,audio/Narrative13Situation2.wav,626.9913,,626.9913,656.7147,"[[80.9,996],[80.9,1080],[80.9,1163],[80.9,1246],[80.9,1329],[80.9,1413],[79,1496],[66.6,1579],[58.9,1662],[57.3,1745],[55.2,1829],[54.5,1912],[52.7,1995],[50.3,2078],[50.3,2162],[50.3,2245],[50.3,2328],[50.3,2411],[50.3,2495],[50.3,2578],[38.6,2661],[22,2744],[21.3,2827],[16.6,2911],[5.8,2994],[4.3,3077],[4.3,3160],[4.3,3244],[4.3,3327],[3.9,3410],[2.1,3493],[1.6,3576],[1.6,3660],[1.6,3743],[1.6,3826],[1.6,3909],[1.4,3993],[1.4,4076],[1.4,4159],[1.4,4242],[1.4,4326],[1.4,4409],[1.4,4492],[1.4,4575],[1.4,4658],[1.4,4742],[1.4,4825],[3,4908],[5.4,4991],[8.3,5075],[9.7,5158],[9.7,5241],[9.7,5324],[9.8,5408],[9.8,5491],[9.8,5574],[9.8,5657],[9.8,5740],[9.8,5824],[9.8,5907],[9.8,5990],[9.8,6073],[9.8,6157],[9.8,6240],[9.8,6323],[9.8,6406],[9.8,6490],[9.8,6573],[9.8,6656],[9.8,6739],[9.8,6822],[9.8,6906],[9.8,6989],[9.8,7072],[9.8,7155],[9.8,7239],[9.8,7322],[9.8,7405],[9.8,7488],[9.8,7572],[9.8,7655],[9.8,7738],[9.8,7821],[9.8,7904],[9.8,7988],[9.8,8071],[10.9,8154],[36.6,8237],[46,8321],[54.6,8404],[64.1,8487],[64.9,8570],[64.9,8653],[64.9,8737],[64.9,8820],[64.9,8903],[64.9,8986],[65.2,9070],[66.3,9153],[66.3,9236],[66.4,9319],[67.1,9403],[67.8,9486],[69.9,9569],[73.2,9652],[73.8,9735],[73.8,9819],[75.1,9902],[75.7,9985],[75.8,10068],[75.8,10152],[75.8,10235],[75.8,10318],[75.8,10401],[75.8,10485],[75.8,10568],[75.8,10651],[75.8,10734],[79.7,10817],[81.9,10901],[82,10984],[82,11067],[86.8,11150],[94.1,11234],[100,11317],[100,11400],[100,11483],[100,11566],[100,11650],[100,11733],[100,11816],[100,11899],[100,11983],[100,12066],[100,12149],[100,12232],[100,12316],[100,12399],[100,12482],[100,12565],[100,12648],[100,12732],[100,12815],[100,12898],[100,12981],[100,13064],[100,13148],[100,13231],[100,13314],[100,13398],[100,13481],[100,13564],[100,13647],[100,13730],[100,13814],[100,13897],[100,13980],[100,14063],[100,14147],[100,14230],[100,14313],[100,14396],[100,14479],[100,14563],[100,14646],[100,14729],[100,14812],[100,14896],[100,14979],[100,15062],[100,15145],[100,15229],[100,15312],[100,15395],[100,15478],[100,15561],[100,15645],[93.1,15728],[84.3,15811],[82,15894],[72,15978],[63.2,16061],[63.1,16144],[63.1,16227],[61.8,16311],[61.6,16394],[60.7,16477],[55.2,16560],[54.9,16643],[53.6,16727],[51.9,16810],[49.1,16893],[44.6,16976],[30.7,17060],[23.2,17143],[18.5,17226],[6.4,17309],[0.8,17393],[0.8,17476],[1,17559],[1.9,17642],[1.9,17725],[1.9,17809],[1.9,17892],[2,17975],[2.3,18058],[2.3,18141],[2.3,18225],[2.1,18308],[2,18391],[2,18475],[2,18558],[2,18641],[2,18724],[2,18807],[2,18891],[2,18974],[2,19057],[2,19140],[2,19224],[2,19307],[2,19390],[2,19473],[2,19556],[2,19640],[0.9,19723],[0.3,19806],[0.3,19889],[0.3,19972],[0.3,20056],[0.3,20139],[0.3,20222],[0.7,23052],[2.1,23135],[5.1,23219],[5.4,23302],[5.7,23385],[7.2,23468],[7.2,23551],[7.2,23635],[7.2,23718],[7.2,23801],[7.2,23884],[7.2,23967],[7.2,24051],[7.2,24134],[7.2,24217],[7.2,24301],[7.2,24384],[7.2,24467],[7.2,24550],[7.2,24633],[7.2,24717],[7.2,24800],[7.2,24883],[7.2,24966],[7.2,25049],[7.2,25133],[7.2,25216],[7.2,25299],[7.2,25382],[7.2,25466],[7.2,25549],[7.2,25632],[7.2,25715],[7.2,25799],[7.2,25882],[7.2,25965],[7.2,26048],[7.2,26131],[7.2,26215],[7.2,26298],[7.2,26381],[7.2,26465],[7.2,26548],[7.2,26631],[7.2,26714],[7.2,26797],[7.2,26881],[7.2,26964],[7.2,27047],[7.2,27130],[7.2,27213],[7.2,27297],[7.2,27380],[7.2,27463],[7.2,27546],[7.2,27630],[7.2,27713],[7.2,27796],[7.2,27879],[7.2,27962],[7.2,28046],[7.2,28129],[7.2,28212],[7.2,28296],[7.2,28379],[7.2,28462],[7.2,28545],[7,28628],[6.3,28712],[5.1,28795],[1.8,28878],[1.1,28961],[1.1,29045],[0.8,29128],[0.8,29211],[0.8,29294],[0.8,29378],[0.3,29461]]",1,0,656.7148,656.7158,,,[],,,,656.7158,Definitely yes,100,656.7163,,,[],,0,0,0,0,1,audio/Narrative13Situation2.wav,audio/Narrative13Situation2.wav,audio/Narrative13Situation2.wav,audio/Narrative13Situation2.wav,2,2,2,2,,,,,611.8983,624.4014,space,12.0009,,,,,,,,,,,,,,,,,,,,,,,,,,,,,,,
,,,,,,65c7878613b84bfc354131c7,2024-05-13_10h40.05.927,group3.1-3.2-social-tom,2023.2.2,Win32,243.902439,65c5074098b851296ff0b7ed,6642341a88e56a9354eb3978,,,,,,,,,,,,,,,,,,,,,,,,,,,,,656.7164,2,audio/Narrative6Situation1.wav,658.7205,,658.7205,685.2789,"[[999,0],[999,83],[999,166],[999,249],[999,332],[999,416],[999,499],[999,582],[999,665],[999,749],[999,832],[999,915],[999,998],[999,1081],[999,1165],[16.3,1248],[19,1331],[19,1414],[19.1,1498],[19.1,1581],[19.1,1664],[19.1,1747],[19.1,1831],[19.1,1914],[19.1,1997],[19.1,2080],[17.3,2163],[1.5,2247],[0.9,2330],[0.9,2413],[0.9,2496],[0.2,2580],[0.2,2663],[0.1,3495],[1.1,3578],[1.1,3662],[1.1,3745],[1.1,3828],[1.1,3911],[1.1,3994],[1.1,4078],[1.1,4161],[0.7,4244],[0.5,4327],[0.5,4411],[0.5,4494],[0.5,4577],[0.5,4660],[0.5,4744],[0.5,4827],[0.5,4910],[0.5,4993],[0.5,5076],[0.5,5160],[5.3,5243],[29.4,5326],[62.2,5409],[87,5493],[98.9,5576],[99.4,5659],[99.4,5742],[99.4,5826],[99.4,5909],[99.4,5992],[99.4,6075],[99.4,6158],[99.4,6242],[99.4,6325],[99.4,6408],[99.4,6491],[99.4,6575],[99.4,6658],[99.4,6741],[99.4,6824],[99.4,6908],[99.4,6991],[99.4,7074],[99.4,7157],[99.4,7240],[99.4,7324],[99.4,7407],[99.4,7490],[99.4,7573],[99.4,7657],[99.4,7740],[99.4,7823],[99.4,7906],[99.4,7989],[99.4,8073],[99.4,8156],[99.4,8239],[99.4,8322],[99.4,8406],[99.4,8489],[99.4,8572],[99.4,8655],[99.4,8739],[99.4,8822],[99.4,8905],[99.4,8988],[99.4,9072],[99.4,9155],[99.4,9238],[99.4,9321],[99.4,9404],[99.4,9488],[99.4,9571],[99.4,9654],[99.4,9737],[99.4,9821],[99.4,9904],[99.4,9987],[99.4,10070],[99.4,10153],[99.4,10237],[99.4,10320],[99.4,10403],[99.4,10486],[99.4,10570],[99.4,10653],[99.4,10736],[99.4,10819],[99.4,10903],[99.4,10986],[99.4,11069],[99.4,11152],[99.4,11235],[99.4,11319],[99.4,11402],[99.4,11485],[99.4,11568],[99.4,11652],[99.4,11735],[99.4,11818],[90.5,11901],[83.9,11985],[70.1,12068],[59.7,12151],[54.3,12234],[47,12317],[39.6,12401],[21,12484],[14.2,12567],[4.8,12650],[2.2,12734],[0.3,20892],[4.5,20973],[5.3,21056],[6.9,21140],[8.2,21223],[7.9,21306],[9.8,21389],[13,21473],[19.8,21556],[20.4,21639],[22.6,21723],[23.5,21806],[25.2,21889],[29.5,21972],[32.2,22055],[38.2,22138],[38.6,22222],[39.4,22305],[45.6,22388],[47.7,22471],[49.8,22555],[54,22638],[54.2,22721],[54.2,22804],[54.2,22887],[54.2,22971],[54.2,23054],[54.2,23137],[54.2,23220],[54.2,23304],[54.2,23387],[54.2,23470],[54.2,23553],[54.2,23637],[54.2,23720],[54.2,23803],[54.2,23886],[54.2,23969],[54.2,24053],[54.2,24136],[54.2,24219],[54.2,24302],[54.2,24385],[54.2,24469],[54.2,24552],[54.2,24635],[53.4,24719],[51.5,24802],[51.5,24885],[51.1,24968],[50,25051],[50,25135],[50,25218],[50,25301],[50,25384],[50,25468],[50,25551],[50,25634],[49.4,25717],[47.2,25800],[24.2,25884],[23.5,25967],[23.5,26050],[23.5,26133],[23.5,26217],[23.2,26300],[23.2,26383],[23.2,26466],[23.1,26550]]",1,0,685.2789,690.2268,14.27083333,4.0049,"[{""rating"":14.270833333333332,""responseTime"":2.3170000000000073},{""rating"":14.270833333333332,""responseTime"":4.004900000035832}]",space,4.4365,,690.2268,Not at all,0,690.2283,,,[],,0,1,1,1,1,audio/Narrative7Situation1.wav,audio/Narrative8Situation1.wav,audio/Narrative5Situation1.wav,audio/Narrative6Situation1.wav,2,5,5,2,,,,,,,,,,,,,,,,,,,,,,,,,,,,,,,,,,,,,,,
,,,,,,65c7878613b84bfc354131c7,2024-05-13_10h40.05.927,group3.1-3.2-social-tom,2023.2.2,Win32,243.902439,65c5074098b851296ff0b7ed,6642341a88e56a9354eb3978,,,,,,,,,,,,,,,,,,,,,,,,,,,,,690.2284,2,audio/Narrative6Situation2.wav,693.2314,,693.2314,721.7082,"[[11.3,2163],[10.3,2247],[5.9,2330],[3.1,2413],[3.1,2496],[3.1,2580],[0.4,2663],[1.4,5992],[1.6,6075],[5.4,6158],[14.7,6242],[19.4,6325],[26,6408],[38.8,6491],[45.1,6575],[45.1,6658],[45.5,6741],[48.8,6824],[48.8,6908],[48.8,6991],[48.8,7074],[48.8,7157],[48.8,7240],[48.8,7324],[48.8,7407],[48.8,7490],[48.8,7573],[49,7656],[49.1,7740],[49.5,7823],[49.5,7906],[49.5,7990],[49.5,8073],[49.5,8156],[49.5,8239],[49.5,8322],[49.5,8406],[49.5,8489],[49.5,8572],[49.5,8655],[49.5,8739],[49.5,8822],[49.5,8905],[49.5,8988],[49.5,9071],[49.5,9155],[49.5,9238],[49.5,9321],[49.5,9404],[49.5,9488],[49.5,9571],[49.5,9654],[49.5,9737],[49.5,9820],[49.5,9904],[49.5,9987],[49.5,10070],[49.5,10153],[49.5,10237],[49.5,10320],[49.5,10403],[49.5,10486],[49.5,10570],[49.5,10653],[49.5,10736],[49.5,10819],[49.5,10903],[49.5,10986],[49.5,11069],[49.5,11152],[49.5,11235],[49.5,11318],[49.5,11402],[49.5,11485],[49.5,11568],[49.5,11651],[49.5,11735],[49.5,11818],[49.5,11901],[49.5,11984],[49.5,12068],[49.5,12151],[49.5,12234],[49.5,12317],[49.5,12400],[49.5,12484],[49.5,12567],[49.5,12650],[49.5,12733],[49.5,12817],[49.5,12900],[49.5,12983],[49.5,13066],[49.5,13150],[49.5,13233],[49.5,13316],[49.5,13399],[49.5,13483],[49.5,13566],[49.5,13649],[49.5,13732],[49.5,13816],[49.5,13899],[49.5,13982],[49.5,14065],[49.5,14148],[49.5,14232],[49.5,14315],[49.5,14398],[49.5,14481],[49.5,14564],[49.5,14648],[49.5,14731],[49.5,14814],[49.7,14897],[50,14981],[50,15064],[50,15147],[50,15230],[50,15314],[50,15397],[50,15480],[50,15563],[50,15646],[50,15730],[50,15813],[50,15896],[50,15979],[50,16063],[50,16146],[43.5,16229],[43,16312],[43,16396],[42.7,16479],[38.3,16562],[24.1,17061],[21.9,17145],[21.3,17228],[12.3,17311],[10.6,17394],[10.6,17477],[11,17561],[12.1,17644],[13.3,17727],[15.4,17810],[36.8,17894],[63.5,17977],[63.9,18060],[63.5,18143],[62.4,18227],[62.4,18310],[63.2,18393],[65.3,18476],[67.3,18560],[68.1,18643],[68.2,18726],[68.2,18809],[68.2,18892],[68.2,18976],[68.2,19059],[68.2,19142],[68.2,19225],[68.2,19309],[68.2,19392],[68.2,19475],[68.2,19558],[68.2,19641],[68.2,19725],[68.2,19808],[68.2,19891],[68.2,19974],[68.2,20058],[68.2,20141],[68.2,20224],[68.2,20307],[68.2,20391],[68.2,20474],[68.2,20557],[68.2,20640],[68.2,20723],[76.8,20807],[88.1,20890],[90.7,20973],[92.5,21056],[93.2,21140],[100,21223],[100,21306],[100,21389],[100,21472],[100,21556],[100,21639],[100,21722],[100,21805],[100,21889],[100,21972],[100,22055],[100,22138],[100,22222],[100,22305],[100,22388],[100,22471],[100,22554],[100,22638],[100,22721],[100,22804],[100,22887],[100,22971],[100,23054],[100,23137],[100,23220],[100,23304],[100,23387],[100,23470],[100,23553],[100,23636],[100,23720],[100,23803],[100,23886],[100,23969],[100,24053],[100,24136],[100,24219],[100,24302],[100,24385],[100,24469],[100,24552],[100,24635],[100,24718],[100,24802],[100,24885],[100,24968],[100,25051],[100,25135],[100,25218],[100,25301],[100,25384],[100,25467],[100,25551],[100,25634],[100,25717],[100,25800],[100,25884],[100,25967],[100,26050],[100,26133],[100,26217],[100,26300],[100,26383],[100,26466],[100,26549],[100,26633],[100,26716],[100,26799],[100,26882],[100,26966],[100,27049],[100,27132],[100,27215],[100,27298],[100,27382],[100,27465],[100,27548],[100,27631],[100,27715],[100,27798],[100,27881],[100,27964],[100,28048],[100,28131],[100,28214],[100,28297],[100,28381],[100,28464]]",1,0,721.7083,724.4554,99.89583333,1.7869,"[{""rating"":99.89583333333334,""responseTime"":1.7869000000357573}]",space,2.236,,724.4554,Not at all,0,724.4561,,,[],,0,2,2,2,1,audio/Narrative7Situation2.wav,audio/Narrative8Situation2.wav,audio/Narrative5Situation2.wav,audio/Narrative6Situation2.wav,3,3,3,3,,,,,,,,,,,,,,,,,,,,,,,,,,,,,,,,,,,,,,,
,,,,,,65c7878613b84bfc354131c7,2024-05-13_10h40.05.927,group3.1-3.2-social-tom,2023.2.2,Win32,243.902439,65c5074098b851296ff0b7ed,6642341a88e56a9354eb3978,,,,,,,,,,,,,,,,,,,,,,,,,,,,,724.4562,2,audio/Narrative6Situation3.wav,729.4568,,729.4568,742.0452,"[[100,332],[100,416],[100,499],[100,582],[100,665],[100,749],[100,832],[100,915],[100,998],[99.4,1081],[99.4,1165],[99.5,1248],[99.5,1331],[99.5,1414],[99.5,1498],[99.5,1581],[99.5,1664],[99.5,1747],[99.5,1831],[99.5,1914],[98.8,1997],[92.6,2080],[80.1,2163],[48.9,2247],[12.4,2330],[0.1,6491],[0.1,6575],[2.1,6658],[10.7,6741],[37.4,6824],[50.8,6908],[60.3,6991],[63.8,7074],[73.2,7157],[75.5,7240],[75.7,7324],[80,7407],[86,7490],[91.7,7573],[99.6,7656],[100,7740],[100,7823],[100,7906],[100,7989],[100,8073],[100,8156],[100,8239],[100,8322],[100,8406],[100,8489],[100,8572],[100,8655],[100,8738],[100,8822],[100,8905],[100,8988],[100,9072],[100,9155],[100,9238],[100,9321],[100,9404],[100,9488],[100,9571],[100,9654],[100,9737],[100,9821],[100,9904],[100,9987],[100,10070],[100,10153],[100,10237],[100,10320],[100,10403],[100,10486],[100,10570],[100,10653],[100,10736],[100,10819],[100,10903],[100,10986],[100,11069],[100,11152],[100,11235],[100,11319],[100,11402],[100,11485],[100,11568],[100,11651],[100,11735],[100,11818],[100,11901],[100,11985],[100,12068],[100,12151],[100,12234],[99.9,12317],[99.9,12401],[99.9,12484],[99.9,12567]]",1,0,742.0453,744.3714,99.89583333,1.5425,"[{""rating"":99.89583333333334,""responseTime"":1.5425000000000182}]",space,1.8177,,744.3714,Not at all,0,744.3722,,,[],,0,3,3,3,1,audio/Narrative7Situation3.wav,audio/Narrative8Situation3.wav,audio/Narrative5Situation3.wav,audio/Narrative6Situation3.wav,8,4,3,5,,,,,,,,,,,,,,,,,,,,,,,,,,,,,,,,,,,,,,,
,,,,,,65c7878613b84bfc354131c7,2024-05-13_10h40.05.927,group3.1-3.2-social-tom,2023.2.2,Win32,243.902439,65c5074098b851296ff0b7ed,6642341a88e56a9354eb3978,,,,,,,,,,,,,,,,,,,,,,,,,,,,,744.3723,2,audio/Narrative6Situation4.wav,746.3731,,746.3731,758.9615,"[[52.4,998],[52.5,1081],[52.5,1165],[52.5,1248],[52.5,1331],[52.5,1414],[52.5,1498],[52.5,1581],[52.5,1664],[52.5,1747],[49.8,1831],[35,1914],[23.8,1997],[2.2,2580],[2.6,2663],[2.6,2746],[2.6,2829],[2.6,2913],[0.7,2996],[0.5,3079],[0.1,3162],[0.1,3245],[0.1,3329],[0.1,3412],[0.1,3495],[0.1,3578],[0.1,3662],[0.1,3745],[0.1,3828],[0.1,3911],[0.1,3994],[0.1,4078],[0.1,4161],[0.1,4244],[0.1,4327],[0.1,4411],[0.1,4494],[0.1,4577],[0.1,4660],[0.1,4744],[0.1,4827],[0.1,4910],[0.1,4993],[0.1,5076],[0.1,5160],[0.1,5243],[0.1,5326],[0.1,5409],[0.1,5493],[0.1,5576],[0.1,5659],[0.1,5742],[0.1,5825],[0.1,5909],[0.1,5992],[0.1,6075],[0.8,6158],[0.9,6242],[0.9,6325],[0.9,6408],[0.9,6491],[0.9,6574],[0.9,6658],[0.9,6741],[0.9,6824],[0.9,6907]]",1,0,758.9616,760.8133,0.729166667,1.0699,"[{""rating"":0.7291666666666641,""responseTime"":1.0699000000357728}]",space,1.3402,,760.8134,Not at all,0,760.8141,,,[],,0,4,4,4,1,audio/Narrative7Situation4.wav,audio/Narrative8Situation4.wav,audio/Narrative5Situation4.wav,audio/Narrative6Situation4.wav,3,3,1,2,,,,,,,,,,,,,,,,,,,,,,,,,,,,,,,,,,,,,,,
,,,,,,65c7878613b84bfc354131c7,2024-05-13_10h40.05.927,group3.1-3.2-social-tom,2023.2.2,Win32,243.902439,65c5074098b851296ff0b7ed,6642341a88e56a9354eb3978,,,,,,,,,,,,,,,,,,,,,,,,,,,,,760.8142,2,audio/Narrative6Situation5.wav,762.815,,762.815,770.7509,"[[0.5,998],[0.3,1081],[0.3,1165],[0.3,1248],[0.3,1331],[0.3,1414],[0.3,1497],[0.3,1581],[0.3,1664],[1.6,1747],[2.7,1831],[2.9,1914],[3.1,1997],[3.1,2080],[3.2,2163],[3.2,2247],[3.2,2330],[4.6,2413],[6.3,2496],[8.8,2580],[12.4,2663],[13.2,2746],[13.3,2829],[13.3,2913],[13.3,2996],[13.3,3079],[16.4,3162],[17.7,3245],[18,3329],[19.2,3412],[19.9,3495],[20.7,3578],[21.5,3662],[22.4,3745],[22.5,3828],[22.5,3911],[22.5,3994],[22.8,4078],[26,4161],[26.7,4244],[26.8,4327],[26.8,4411],[26.8,4494],[27.7,4577],[27.9,4660],[28.4,4744],[28.8,4827],[28.9,4910],[29.1,4993],[29.1,5076],[29.1,5160],[29.1,5243],[32.6,5326],[36.1,5409],[38.8,5493],[40.6,5576],[41,5659],[41,5742],[41,5826],[41,5909],[41,5992],[41,6075],[41,6158],[41,6242],[41,6325],[41,6408],[41,6491],[41,6575],[41,6658],[41,6741],[41,6824],[41,6908],[41,6991],[41,7074],[41,7157],[41,7240],[41,7324],[41,7407],[41,7490],[41,7573],[41,7656],[41,7740],[41,7823],[41,7906]]",1,0,770.7509,773.2769,34.79166667,1.5168,"[{""rating"":34.791666666666664,""responseTime"":1.5168000000118127}]",space,2.0143,,773.2769,Partially,50,773.2781,,,[],,0,5,5,5,1,audio/Narrative7Situation5.wav,audio/Narrative8Situation5.wav,audio/Narrative5Situation5.wav,audio/Narrative6Situation5.wav,5,2,5,2,,,,,,,,,,,,,,,,,,,,,,,,,,,,,,,,,,,,,,,
,,,,,,65c7878613b84bfc354131c7,2024-05-13_10h40.05.927,group3.1-3.2-social-tom,2023.2.2,Win32,243.902439,65c5074098b851296ff0b7ed,6642341a88e56a9354eb3978,,,,,,,,,,,,,,,,,,,,,,,,,,,,,773.2782,2,audio/Narrative6Situation6.wav,775.2785,,775.2785,786.3313,"[[34,998],[33.6,1081],[33.6,1165],[33.6,1248],[33.6,1331],[33.6,1414],[33.6,1498],[33.6,1581],[33.6,1664],[33.6,1747],[33.6,1831],[33.6,1914],[33.6,1997],[33.6,2080],[33.6,2163],[33.6,2247],[33.6,2330],[34,2413],[34.7,2497],[35.8,2580],[36.5,2663],[36.6,2746],[36.8,2829],[37.6,2913],[42.8,2996],[49.3,3079],[49.4,3162],[49.5,3246],[50.5,3329],[50.5,3412],[50.5,3495],[50.5,3578],[50.5,3662],[50.5,3745],[50.5,3828],[50.5,3911],[50.5,3995],[50.5,4078],[50.5,4161],[50.5,4244],[50.5,4327],[50.5,4411],[50.5,4494],[50.5,4577],[50.5,4660],[50.5,4744],[50.5,4827],[50.5,4910],[50.5,4993],[50.5,5076],[50.5,5160],[50.5,5243],[50.5,5326],[50.5,5409],[50.5,5493],[50.5,5576],[50.5,5659],[50.5,5742],[50.5,5826],[50.5,5909],[50.5,5992],[50.5,6075],[50.5,6158],[50.5,6242],[50.5,6325],[50.5,6408],[50.5,6491],[50.5,6575],[50.5,6658],[50.5,6741],[50.5,6824],[50.5,6908],[50.5,6991],[50.5,7074],[50.8,7157],[50.8,7240],[50.8,7324],[50.8,7407],[50.8,7490],[50.8,7573],[50.8,7657],[50.8,7740],[50.8,7823],[50.8,7906],[50.8,7989],[50.8,8073],[50.8,8156],[50.8,8239],[50.8,8322],[50.8,8406],[50.6,8489],[50.4,8572],[50.3,8655],[50.2,8739],[50,8822],[46.7,8905],[44.9,8988],[41.8,9072],[41.8,9155],[41.8,9238],[41.8,9321],[41.8,9404],[41.8,9488],[41.8,9571],[41.8,9654],[41.8,9737],[41.8,9821],[41.8,9904],[41.8,9987],[41.8,10070],[41.8,10153],[41.8,10237],[41.8,10320],[41.8,10403],[41.8,10486],[41.8,10570],[41.8,10653],[41.8,10736],[40.4,10819],[35.3,10903],[32.9,10986]]",1,0,786.3314,789.8561,11.66666667,1.2483,"[{""rating"":11.666666666666664,""responseTime"":1.248300000011909}]",space,3.016,,789.8562,Partially,50,789.8568,,,[],,0,6,6,6,1,audio/Narrative7Situation6.wav,audio/Narrative8Situation6.wav,audio/Narrative5Situation6.wav,audio/Narrative6Situation6.wav,3,2,3,2,,,,,,,,,,,,,,,,,,,,,,,,,,,,,,,,,,,,,,,
,,,,,,65c7878613b84bfc354131c7,2024-05-13_10h40.05.927,group3.1-3.2-social-tom,2023.2.2,Win32,243.902439,65c5074098b851296ff0b7ed,6642341a88e56a9354eb3978,,,,,,,,,,,,,,,,,,,,,,,,,,,,,789.8569,2,audio/Narrative6Situation7.wav,794.8581,,794.8581,819.6895,"[[11.6,582],[11.6,665],[11.6,749],[11.6,832],[11.6,915],[11.6,998],[10.1,1081],[10.1,1165],[10.1,1248],[9.5,1331],[8.9,1414],[8.8,1498],[8.8,1581],[8.3,1664],[7.2,1747],[1,1831],[4.9,7074],[19.4,7157],[29,7240],[33.5,7324],[43.6,7407],[54.8,7490],[56.7,7573],[57.8,7657],[59.9,7740],[61,7823],[61.5,7906],[61.6,7990],[61.8,8073],[63.4,8156],[63.1,8239],[63.1,8322],[63.1,8406],[65.4,8489],[67.5,8572],[67.5,8655],[67.5,8738],[67.5,8822],[67.5,8905],[67.5,8988],[67.5,9071],[67.5,9155],[67.5,9238],[69.8,9321],[84.6,9404],[97.4,9488],[100,9571],[100,9654],[100,9737],[100,9820],[100,9904],[100,9987],[100,10070],[100,10153],[100,10237],[100,10320],[100,10403],[100,10486],[100,10570],[100,10653],[100,10736],[100,10819],[100,10903],[100,10986],[100,11069],[100,11152],[100,11235],[100,11319],[100,11402],[100,11485],[100,11568],[100,11651],[100,11735],[100,11818],[100,11901],[100,11985],[100,12068],[100,12151],[100,12234],[100,12317],[100,12401],[100,12484],[100,12567],[100,12650],[100,12733],[100,12817],[100,12900],[100,12983],[100,13066],[100,13150],[100,13233],[100,13316],[100,13399],[100,13483],[100,13566],[100,13649],[100,13732],[100,13815],[100,13899],[100,13982],[100,14065],[100,14148],[100,14232],[100,14315],[100,14398],[100,14481],[100,14565],[100,14648],[100,14731],[100,14814],[100,14897],[100,14981],[100,15064],[100,15147],[100,15230],[100,15314],[100,15397],[100,15480],[100,15563],[100,15646],[100,15730],[100,15813],[100,15896],[100,15979],[100,16063],[100,16146],[100,16229],[100,16312],[100,16396],[100,16479],[100,16562],[100,16645],[100,16728],[100,16812],[100,16895],[100,16978],[100,17062],[100,17145],[100,17228],[100,17311],[100,17394],[100,17477],[100,17561],[100,17644],[100,17727],[83.2,17811],[67.9,17894],[67.9,17977],[67.9,18060],[67.9,18143],[67.9,18227],[67.9,18310],[67.9,18393],[67.9,18476],[67.9,18560],[67.9,18643],[67.9,18726],[67.9,18809],[67.9,18892],[67.9,18976],[67.9,19059],[67.9,19142],[67.9,19225],[67.9,19309],[67.9,19392],[67.9,19475],[67.9,19558],[67.9,19641],[67.9,19725],[67.9,19808],[67.9,19891],[67.9,19975],[67.9,20058],[67.9,20141],[67.9,20224],[67.9,20307],[67.9,20391],[67.9,20474],[67.9,20557],[67.9,20640],[67.9,20723],[67.9,20807],[67.9,20890],[67.9,20973],[67.9,21057],[67.9,21140],[67.9,21223],[67.9,21306],[68.3,21389],[72.2,21473],[74.5,21556],[76.5,21639],[82.1,21722],[86,21805],[86.5,21889],[89.9,21972],[92.9,22055],[93.9,22138],[93.9,22222],[93.9,22305],[93.9,22388],[93.9,22471],[93.9,22554],[93.9,22638],[93.5,22721],[92.3,22804],[91,22887],[91,22971],[91,23054],[91,23137],[90.9,23220],[90.8,23304],[90.6,23387],[90,23470],[89.9,23553],[89.9,23636],[89.9,23720],[89.9,23803],[89.9,23886],[89.9,23969],[89.9,24053],[89.9,24136],[89.9,24219],[89.9,24302],[89.9,24386],[89.9,24469],[89.9,24552],[89.9,24635],[89.9,24718],[89.9,24802]]",1,0,819.6896,822.6317,87.91666667,1.9702,"[{""rating"":87.91666666666667,""responseTime"":1.9702000000477256}]",space,2.4311,,822.6317,Not at all,0,822.633,,,[],,0,7,7,7,1,audio/Narrative7Situation7.wav,audio/Narrative8Situation7.wav,audio/Narrative5Situation7.wav,audio/Narrative6Situation7.wav,5,3,4,5,,,,,,,,,,,,,,,,,,,,,,,,,,,,,,,,,,,,,,,
,,,,,,65c7878613b84bfc354131c7,2024-05-13_10h40.05.927,group3.1-3.2-social-tom,2023.2.2,Win32,243.902439,65c5074098b851296ff0b7ed,6642341a88e56a9354eb3978,,,,,,,,,,,,,,,,,,,,,,,,,,,,,822.6331,2,audio/Narrative6Situation8.wav,827.6337,,827.6337,834.4627,"[[37.4,1165],[37.4,1248],[37.4,1331],[37.4,1414],[37.4,1498],[37.4,1581],[37.4,1664],[37.4,1747],[37.4,1831],[37.4,1914],[37.4,1997],[37.4,2080],[37.4,2163],[37.4,2247],[37.1,2330],[8.5,2413]]",1,0,834.4627,836.2064,1.041666667,0.9605,"[{""rating"":1.0416666666666685,""responseTime"":0.9605000000000246}]",space,1.233,,836.2064,Definitely yes,100,836.2078,,,[],,0,8,8,8,1,audio/Narrative7Situation8.wav,audio/Narrative8Situation8.wav,audio/Narrative5Situation8.wav,audio/Narrative6Situation8.wav,2,3,3,5,,,,,,,,,,,,,,,,,,,,,,,,,,,,,,,,,,,,,,,
,,,,,,65c7878613b84bfc354131c7,2024-05-13_10h40.05.927,group3.1-3.2-social-tom,2023.2.2,Win32,243.902439,65c5074098b851296ff0b7ed,6642341a88e56a9354eb3978,,,,,,,,,,,,,,,,,,,,,,,,,,,,,836.2079,2,audio/Narrative6Situation9.wav,840.2096,,840.2096,850.1346,"[[0.9,1081],[0.9,1165],[0.9,1248],[0.9,1331],[0.1,5493],[0.6,5576],[0.6,5659],[0.6,5742],[0.6,5826],[0.6,5909],[0.6,5992]]",1,0,850.1347,853.5387,0.833333333,2.4168,"[{""rating"":0.8333333333333359,""responseTime"":2.4168000000119036}]",space,2.8955,,853.5387,Definitely yes,100,853.5396,,,[],,0,9,9,9,1,audio/Narrative7Situation9.wav,audio/Narrative8Situation9.wav,audio/Narrative5Situation9.wav,audio/Narrative6Situation9.wav,2,3,3,4,,,,,,,,,,,,,,,,,,,,,,,,,,,,,,,,,,,,,,,
,,,,,,65c7878613b84bfc354131c7,2024-05-13_10h40.05.927,group3.1-3.2-social-tom,2023.2.2,Win32,243.902439,65c5074098b851296ff0b7ed,6642341a88e56a9354eb3978,,,,,,,,,,,,,,,,,,,,,,,,,,,,,853.5398,2,audio/Narrative5Situation1.wav,858.5408,,858.5408,871.8033,"[[0.6,2913],[3.9,10403],[8.9,10486],[18,10570],[18.2,10653],[18.2,10736],[18.2,10819],[18.6,10902],[18.6,10986],[18.8,11069],[18.3,11152],[18.3,11235],[18.9,11319],[20.7,11402],[29.9,11485],[30.1,11568],[30.1,11652],[30.1,11735],[30.1,11818],[30.1,11901],[30.1,11984],[30.1,12068],[30.6,12151],[32.2,12234],[32,12317],[44.9,12401],[49.1,12484],[49.1,12567],[48.6,12650],[44.6,12734],[44.1,12817],[44.1,12900],[44.1,12983],[44.1,13066],[44.1,13150],[44.1,13233]]",1,0,871.8033,874.554,41.875,1.6643,"[{""rating"":41.875,""responseTime"":1.6643000000119628}]",space,2.2412,,874.554,Not at all,0,874.5554,,,[],,0,10,10,10,1,audio/Narrative8Situation1.wav,audio/Narrative7Situation1.wav,audio/Narrative6Situation1.wav,audio/Narrative5Situation1.wav,5,2,2,5,,,,,,,,,,,,,,,,,,,,,,,,,,,,,,,,,,,,,,,
,,,,,,65c7878613b84bfc354131c7,2024-05-13_10h40.05.927,group3.1-3.2-social-tom,2023.2.2,Win32,243.902439,65c5074098b851296ff0b7ed,6642341a88e56a9354eb3978,,,,,,,,,,,,,,,,,,,,,,,,,,,,,874.5555,2,audio/Narrative5Situation2.wav,877.5586,,877.5586,906.9967,"[[41.8,1331],[34.8,1414],[34.8,1498],[22.4,1581],[0.9,2496],[0.9,2580],[0.9,2663],[0.9,2746],[0.9,2829],[0.9,2913],[0.9,2996],[0.1,3079],[1.3,7074],[4.2,7157],[5.1,7240],[6.4,7324],[7,7407],[7,7490],[7.2,7573],[7.2,7657],[7.2,7740],[8.4,7823],[10.1,7906],[10.1,7990],[10.1,8073],[10.1,8156],[10.1,8239],[10.1,8322],[11.9,8406],[12,8489],[12,8572],[12.5,8655],[12.6,8739],[12.6,8822],[12.6,8905],[12.6,8988],[12.6,9072],[12.6,9155],[12.6,9238],[12.6,9321],[12.6,9404],[12.6,9488],[12.6,9571],[12.6,9654],[12.6,9737],[12.6,9821],[12.6,9904],[12.6,9987],[12.6,10070],[12.6,10153],[12.6,10237],[12.6,10320],[12.6,10403],[12.6,10486],[12.6,10570],[12.6,10653],[12.6,10736],[12.6,10819],[12.6,10903],[12.6,10986],[12.6,11069],[12.6,11152],[12.6,11235],[12.6,11319],[12.6,11402],[12.6,11485],[12.6,11568],[12.6,11652],[12.6,11735],[12.6,11818],[12.6,11901],[12.6,11984],[12.6,12068],[12.6,12151],[12.6,12234],[12.6,12317],[12.6,12401],[12.6,12484],[12.6,12567],[12.6,12650],[12.6,12734],[12.6,12817],[12.6,12900],[12.6,12983],[12.6,13066],[12.6,13150],[12.6,13233],[12.6,13316],[12.6,13399],[12.6,13483],[12.6,13566],[12.6,13649],[12.6,13732],[12.6,13816],[12.6,13899],[12.6,13982],[12.6,14065],[12.6,14148],[12.6,14232],[12.6,14315],[12.6,14398],[12.6,14481],[12.6,14565],[12.6,14648],[12.6,14731],[12.6,14814],[12.6,14898],[12.6,14981],[12.6,15064],[12.6,15147],[12.6,15230],[12.6,15314],[12.6,15397],[12.6,15480],[12.6,15563],[12.6,15647],[12.6,15730],[12.6,15813],[12.6,15896],[12.6,15979],[12.6,16063],[12.6,16146],[12.6,16229],[12.6,16312],[12.6,16396],[12.6,16479],[12.6,16562],[12.6,16645],[12.6,16729],[12.6,16812],[12.6,16895],[12.6,16978],[12.6,17061],[12.6,17145],[12.6,17228],[12.6,17311],[12.6,17394],[12.6,17478],[12.6,17561],[12.6,17644],[12.6,17727],[12.6,17810],[12.6,17894],[12.6,17977],[12.6,18060],[12.6,18143],[12.6,18227],[12.6,18310],[12.6,18393],[12.6,18476],[12.6,18560],[12.6,18643],[12.6,18726],[12.6,18809],[12.6,18892],[12.6,18976],[12.6,19059],[12.6,19142],[12.6,19225],[12.6,19309],[12.6,19392],[12.6,19475],[12.6,19558],[12.6,19642],[12.6,19725],[12.6,19808],[12.6,19891],[12.6,19974],[12.6,20058],[12.6,20141],[12.6,20224],[12.6,20307],[12.6,20391],[12.6,20474],[16.8,20557],[23.1,20640],[23.1,20724],[23.1,20807],[23.1,20890],[23.1,20973],[23.1,21056],[23.1,21140],[23,21223],[22.8,21306],[22.4,21389],[22.4,21473],[22.4,21556],[22.4,21639],[22.4,21722],[22.4,21806],[22.4,21889],[22.4,21972],[22.4,22055],[22.4,22138],[22.4,22222],[22.4,22305],[22.4,22388],[22.4,22471],[22.4,22555],[22.4,22638],[22.4,22721],[22.4,22804],[22.4,22888],[22.4,22971],[22.4,23054],[22.4,23137],[22.4,23220],[22.4,23304],[22.4,23387],[22.4,23470],[22.4,23553],[22.4,23637],[22.4,23720],[22.4,23803],[22.4,23886],[22.4,23969],[22.4,24053],[22.4,24136],[22.4,24219],[22.4,24302],[22.4,24386],[22.4,24469],[22.4,24552],[22.4,24635],[22.4,24718],[22.4,24802],[22.4,24885],[22.4,24968],[22.4,25051],[22.4,25135],[22.4,25218],[22.4,25301],[22.4,25384],[22.4,25468],[22.4,25551],[22.4,25634],[22.4,25717],[22.4,25800],[22.4,25884],[22.4,25967],[22.4,26050],[22.4,26133],[22.4,26217],[22.4,26300],[22.4,26383],[22.4,26466],[22.4,26550],[22,26633],[21.6,26716],[21.3,26799],[19.6,26882],[19.6,26966],[19.5,27049],[19.5,27132],[16.3,27215],[9.2,27299],[8.6,27382],[8.6,27465],[8.6,27548],[8.5,27632],[8.3,27715],[5.8,27798],[5.8,27881],[5.8,27964],[5.8,28048],[5.8,28131],[5.8,28214],[5.5,28297],[5.5,28381],[5.5,28464],[5.5,28547],[5.5,28630],[5.2,28713],[5.2,28797],[5.2,28880],[5.2,28963],[5.2,29046],[5.2,29130],[5.2,29213],[5.2,29296],[5.2,29379]]",1,0,906.9968,910.4716,2.604166667,1.5429,"[{""rating"":2.6041666666666687,""responseTime"":1.5428999999761572}]",space,2.9649,,910.4716,Not at all,0,910.4724,,,[],,0,11,11,11,1,audio/Narrative8Situation2.wav,audio/Narrative7Situation2.wav,audio/Narrative6Situation2.wav,audio/Narrative5Situation2.wav,3,3,3,3,,,,,,,,,,,,,,,,,,,,,,,,,,,,,,,,,,,,,,,
,,,,,,65c7878613b84bfc354131c7,2024-05-13_10h40.05.927,group3.1-3.2-social-tom,2023.2.2,Win32,243.902439,65c5074098b851296ff0b7ed,6642341a88e56a9354eb3978,,,,,,,,,,,,,,,,,,,,,,,,,,,,,910.4724,2,audio/Narrative5Situation3.wav,913.4761,,913.4761,927.3628,"[[2.2,1081],[2.1,1165],[2,1248],[2,1331],[2,1414],[2,1498],[2,1581],[2,1664],[2,1747],[1.9,1831],[1.8,1914],[1.8,1997],[2.4,2080],[2.4,2163],[0.1,4327],[0.9,4411],[1,4494],[1,4577],[1,4660],[1,4744],[1,4827],[1,4910],[1,4993],[1,5076],[1.1,5160],[1.8,5243],[6.8,5326],[13.2,5409],[19.5,5493],[31.8,5576],[52.1,5659],[72.4,5742],[83.4,5826],[94.7,5909],[97.4,5992],[98.1,6075],[98.4,6158],[98.4,6242],[98.5,6325],[98.5,6408],[99.6,6491],[100,6575],[100,6658],[100,6741],[100,6824],[100,6908],[100,6991],[100,7074],[100,7157],[100,7240],[98.9,7324],[98.3,7407],[98.8,7490],[98.8,7573],[98.8,7657],[98.8,7740],[98.9,7823],[100,7906],[100,7989],[100,8073],[100,8156],[93.6,8239],[87.9,8322],[78.1,8406],[52.7,8489],[49,8572],[49,8655],[49,8738],[49,8822],[49,8905],[49,8988],[37.5,9072],[25.2,9155],[25,9238],[24.8,9321],[23.9,9404],[23.1,9488],[18.9,9571],[11.9,9654],[11.8,9737],[11.8,9821],[11.8,9904],[11.8,9987],[11.8,10070],[11.8,10153],[11.8,10237],[11.8,10320],[11.8,10403],[11.8,10486],[11.8,10570],[11.8,10653],[11.9,10736],[11.9,10819],[11.9,10902],[11.9,10986],[11.9,11069],[11.9,11152],[11.9,11235],[11.9,11319],[11.9,11402],[11.9,11485],[11.9,11568],[11.9,11652],[11.9,11735],[11.9,11818],[11.9,11901],[11.9,11984],[11.9,12068],[11.9,12151],[11.9,12234],[11.9,12317],[11.9,12401],[11.9,12484],[11.9,12567],[11.9,12650],[4.5,12733],[2.2,12817],[2.2,12900],[2.2,12983],[2.2,13066],[2.2,13150],[2.2,13233],[2.2,13316],[2.2,13399],[2.2,13483],[2.2,13566],[2.2,13649],[2.2,13732],[2.2,13815]]",1,0,927.3629,929.7973,2.1875,1.0167,"[{""rating"":2.187499999999998,""responseTime"":1.0166999999880773}]",space,1.9253,,929.7973,Partially,50,929.7985,,,[],,0,12,12,12,1,audio/Narrative8Situation3.wav,audio/Narrative7Situation3.wav,audio/Narrative6Situation3.wav,audio/Narrative5Situation3.wav,4,8,5,3,,,,,,,,,,,,,,,,,,,,,,,,,,,,,,,,,,,,,,,
,,,,,,65c7878613b84bfc354131c7,2024-05-13_10h40.05.927,group3.1-3.2-social-tom,2023.2.2,Win32,243.902439,65c5074098b851296ff0b7ed,6642341a88e56a9354eb3978,,,,,,,,,,,,,,,,,,,,,,,,,,,,,929.7986,2,audio/Narrative5Situation4.wav,930.8002,,930.8002,951.1663,"[[2.3,1331],[2.3,1414],[2.9,1498],[3.1,1581],[3.1,1664],[3.1,1747],[3.1,1831],[3.1,1914],[1.6,1997],[4.3,11652],[10.9,11735],[11,11818],[11,11901],[11,11984],[11,12068],[11,12151],[11,12234],[11,12317],[11,12401],[11,12484],[11,12567],[11,12650],[11,12734],[11,12817],[11,12900],[11,12983],[11,13066],[11,13150],[11,13233],[11,13316],[11,13399],[11,13483],[11.1,13566],[11.1,13649],[11.1,13732],[11.1,13816],[11.3,13899],[11.4,13982],[11.4,14065],[11.4,14148],[11.4,14232],[11.4,14315],[11.4,14398],[11.4,14481],[11.4,14565],[11.4,14648],[11.4,14731],[11.4,14814],[11.4,14898],[11.4,14981],[11.4,15064],[11.4,15147],[11.4,15230],[11.4,15314],[11.4,15397],[11.4,15480],[11.4,15563],[11.4,15647],[12.8,15730],[20.9,15813],[31,15896],[42.3,15980],[50.6,16063],[54.1,16146],[57.5,16229],[60.6,16312],[62.8,16396],[62.8,16479],[62.8,16562],[62.8,16645],[62.8,16729],[62.8,16812],[62.8,16895],[62.8,16978],[62.8,17061],[62.8,17145],[62.8,17228],[62.9,17311],[62.9,17394],[64.1,17478],[64.7,17561],[64.7,17644],[64.7,17727],[64.7,17811],[64.7,17894],[64.7,17977],[64.7,18060],[64.7,18143],[64.7,18227],[64.7,18310],[64.7,18393],[64.7,18476],[64.7,18560],[64.7,18643],[64.7,18726],[64.7,18809],[64.7,18892],[65.3,18976],[69.9,19059],[69.9,19142],[79.1,19225],[81.8,19309],[81.8,19392],[81.8,19475],[81.8,19558],[81.8,19642],[81.8,19725],[81.8,19808],[81.8,19891],[81.8,19974],[81.8,20058],[81.8,20141],[81.8,20224],[81.8,20307]]",1,0,951.1664,953.1555,82.70833333,1.0854,"[{""rating"":82.70833333333334,""responseTime"":1.0854000000357473}]",space,1.4798,,953.1556,Not at all,0,953.1568,,,[],,0,13,13,13,1,audio/Narrative8Situation4.wav,audio/Narrative7Situation4.wav,audio/Narrative6Situation4.wav,audio/Narrative5Situation4.wav,3,3,2,1,,,,,,,,,,,,,,,,,,,,,,,,,,,,,,,,,,,,,,,
,,,,,,65c7878613b84bfc354131c7,2024-05-13_10h40.05.927,group3.1-3.2-social-tom,2023.2.2,Win32,243.902439,65c5074098b851296ff0b7ed,6642341a88e56a9354eb3978,,,,,,,,,,,,,,,,,,,,,,,,,,,,,953.1569,2,audio/Narrative5Situation5.wav,958.1576,,958.1576,973.5549,"[[76.6,1747],[67.5,1831],[67.5,1914],[64.5,1997],[44.1,2080],[27.7,2163],[9,2247],[5.7,2330],[4.5,2413],[3.8,5826],[7.7,5909],[8.4,5992],[10.1,6075],[10.3,6158],[10.3,6242],[10.3,6325],[10.3,6408],[10.3,6491],[10.3,6575],[10.3,6658],[10.3,6741],[10.3,6824],[10.3,6907],[10.3,6991],[10.3,7074],[10.3,7157],[10.3,7240],[10.3,7323],[10.3,7407],[10.3,7490],[10.3,7573],[10.3,7657],[10.3,7740],[10.3,7823],[10.3,7906],[10.3,7989],[10.3,8073],[10.3,8156],[10.3,8239],[10.3,8322],[10.3,8405],[10.3,8489],[10.3,8572],[10.3,8655],[10.3,8738],[10.3,8822],[10.3,8905],[10.3,8988],[10.3,9071],[10.3,9155],[10.3,9238],[10.3,9321],[10.3,9404],[10.3,9488],[10.3,9571],[10.3,9654],[10.3,9737],[10.3,9821],[10.3,9904],[10.3,9987],[10.3,10070],[10.3,10153],[10.3,10236],[10.3,10320],[10.3,10403],[10.3,10486],[10.3,10570],[10.3,10653],[10.3,10736],[10.3,10819],[10.3,10902],[10.3,10986],[10.3,11069],[10.3,11152],[10.3,11235],[10.3,11318],[10.3,11402],[10.3,11485],[10.3,11568],[10.3,11652],[10.3,11735],[10.3,11818],[10.3,11901],[10.3,11984],[10.3,12068],[10.3,12151],[12.2,12234],[14.1,12317],[14.1,12400],[14.1,12484],[14.1,12567],[14.1,12650],[15.8,12733],[19,12817],[19,12900],[19,12983],[19,13066],[19,13150],[19,13233],[19,13316],[19,13399],[19,13482],[19,13566],[19,13649],[19,13732],[19,13815],[19,13899],[19,13982],[19,14065],[19,14148],[19,14232],[19,14315],[19,14398],[19,14481],[19,14565],[19,14648],[19,14731],[19,14814],[19,14897],[19,14981],[19,15064],[19,15147],[19,15230],[19,15314],[19,15397]]",1,0,973.555,975.8978,13.95833333,1.0167,"[{""rating"":13.958333333333334,""responseTime"":1.0166999999880773}]",space,1.8335,,975.8978,Not at all,0,982.3314,0,5.2818,"[{""rating"":0,""responseTime"":5.281800000011913}]",space,0,14,14,14,1,audio/Narrative8Situation5.wav,audio/Narrative7Situation5.wav,audio/Narrative6Situation5.wav,audio/Narrative5Situation5.wav,2,5,2,5,,,5.9218,,,,,,,,,,,,,,,,,,,,,,,,,,,,,,,,,,,,
,,,,,,65c7878613b84bfc354131c7,2024-05-13_10h40.05.927,group3.1-3.2-social-tom,2023.2.2,Win32,243.902439,65c5074098b851296ff0b7ed,6642341a88e56a9354eb3978,,,,,,,,,,,,,,,,,,,,,,,,,,,,,982.3315,2,audio/Narrative5Situation6.wav,985.3318,,985.3318,990.9872,"[[0.2,2247],[0.4,2330],[1,2413],[3.8,2496],[8.5,2580],[20.7,2663],[39.1,2746],[51.9,2829],[62.3,2913],[68.8,2996],[80.3,3079],[84.4,3162],[94.5,3245],[99.3,3329],[99.3,3412],[99.3,3495],[99.3,3578],[99.3,3662],[99.3,3745],[100,3828],[100,3911],[100,3995],[100,4078],[100,4161],[100,4244],[100,4327],[100,4411],[100,4494],[100,4577],[100,4660],[100,4744],[100,4827],[100,4910],[100,4993],[100,5076],[100,5160],[100,5243],[100,5326],[100,5409],[100,5492],[100,5576]]",1,0,990.9873,993.3551,99.58333333,1.2407,"[{""rating"":99.58333333333333,""responseTime"":1.24069999998801}]",space,1.8561,,993.3551,Definitely yes,100,993.3564,,,[],,0,15,15,15,1,audio/Narrative8Situation6.wav,audio/Narrative7Situation6.wav,audio/Narrative6Situation6.wav,audio/Narrative5Situation6.wav,2,3,2,3,,,,,,,,,,,,,,,,,,,,,,,,,,,,,,,,,,,,,,,
,,,,,,65c7878613b84bfc354131c7,2024-05-13_10h40.05.927,group3.1-3.2-social-tom,2023.2.2,Win32,243.902439,65c5074098b851296ff0b7ed,6642341a88e56a9354eb3978,,,,,,,,,,,,,,,,,,,,,,,,,,,,,993.3565,2,audio/Narrative5Situation7.wav,997.3584,,997.3584,1018.3737,"[[42,1331],[46,1414],[47.1,1498],[47.1,1581],[47.1,1664],[47.1,1747],[47.1,1831],[47.1,1914],[47.1,1997],[47.1,2080],[47.1,2163],[47.1,2247],[35.7,2330],[24.5,2413],[24.4,2496],[24.3,2580],[21.1,2663],[20,2746],[19.9,2829],[17.5,2913],[12.3,2996],[12.3,3079],[12.3,3162],[12.3,3245],[12.3,3329],[12.3,3412],[12.3,3495],[12.3,3578],[12.3,3662],[12.3,3745],[12.3,3828],[12.3,3911],[12.3,3995],[12.3,4078],[12.3,4161],[12.3,4244],[12.8,4327],[12.8,4411],[12.8,4494],[12.8,4577],[12.8,4660],[12.8,4744],[10.8,4827],[10.4,4910],[10.4,4993],[9.9,5076],[9.5,5160],[9.5,5243],[9.5,5326],[9.5,5409],[9.5,5493],[10.2,5576],[12.3,5659],[16.4,5742],[19.3,5826],[22.3,5909],[27.7,5992],[34,6075],[41.6,6158],[41.8,6242],[42.4,6325],[44.5,6408],[44.1,6491],[44.9,6575],[45.1,6658],[45.2,6741],[47.1,6824],[49.1,6908],[50.8,6991],[50.9,7074],[50.9,7157],[50.9,7240],[50.9,7324],[50.9,7407],[50.9,7490],[50.9,7573],[50.9,7657],[50.9,7740],[50.9,7823],[50.9,7906],[50.9,7990],[50.9,8073],[50.9,8156],[50.9,8239],[50.9,8322],[50.9,8406],[50.9,8489],[50.1,8572],[42,8655],[26.5,8739],[8.9,8822],[5.1,8905],[5.1,8988],[1.6,9072]]",1,0,1018.3738,1020.521,0,1.4093,"[{""rating"":0,""responseTime"":1.4093000000118536}]",space,1.6356,,1020.521,Definitely yes,100,1020.5218,,,[],,0,16,16,16,1,audio/Narrative8Situation7.wav,audio/Narrative7Situation7.wav,audio/Narrative6Situation7.wav,audio/Narrative5Situation7.wav,3,5,5,4,,,,,,,,,,,,,,,,,,,,,,,,,,,,,,,,,,,,,,,
,,,,,,65c7878613b84bfc354131c7,2024-05-13_10h40.05.927,group3.1-3.2-social-tom,2023.2.2,Win32,243.902439,65c5074098b851296ff0b7ed,6642341a88e56a9354eb3978,,,,,,,,,,,,,,,,,,,,,,,,,,,,,1020.522,2,audio/Narrative5Situation8.wav,1023.5256,,1023.5256,1032.3229,"[[1.8,1498],[2.5,1581],[2.5,1664],[2.5,1747],[2.5,1831],[2.5,1914],[2.2,1997],[1.1,2080],[1.1,2163],[1.1,2247],[0.8,2330],[0.9,2413],[0.9,2496],[0.9,2580],[0.9,2663],[0.9,2746]]",1,0,1032.323,1035.4315,0,2.4683,"[{""rating"":0.2083333333333326,""responseTime"":1.7963000000117972},{""rating"":0,""responseTime"":2.4683000000118227}]",space,2.5969,,1035.4315,Not at all,0,1035.4326,,,[],,0,17,17,17,1,audio/Narrative8Situation8.wav,audio/Narrative7Situation8.wav,audio/Narrative6Situation8.wav,audio/Narrative5Situation8.wav,3,2,5,3,,,,,,,,,,,,,,,,,,,,,,,,,,,,,,,,,,,,,,,
,,,,,,65c7878613b84bfc354131c7,2024-05-13_10h40.05.927,group3.1-3.2-social-tom,2023.2.2,Win32,243.902439,65c5074098b851296ff0b7ed,6642341a88e56a9354eb3978,,,,,,,,,,,,,,,,,,,,,,,,,,,,,1035.4327,2,audio/Narrative5Situation9.wav,1038.4361,,1038.4361,1077.9532,"[[0.4,2496],[0.4,2580],[0.4,2663],[0.4,2746],[0.4,2829],[0.4,2913],[0.2,4411],[1.8,4494],[4.3,4577],[8.8,4660],[17.2,4744],[23.1,4827],[32.2,4910],[33.2,4993],[33.2,5076],[34.1,5160],[37.3,5243],[37.7,5326],[37.9,5409],[39.8,5493],[41.9,5576],[41.9,5659],[41.9,5742],[41.9,5825],[41.9,5909],[41.9,5992],[41.9,6075],[41.9,6158],[41.3,6242],[40.5,6325],[39.8,6408],[34.7,6491],[32.5,6575],[30.1,6658],[27.3,6741],[24.9,6824],[23.5,6907],[19.1,6991],[14.4,7074],[14.3,7157],[14.3,7240],[14.3,7324],[14.3,7407],[14.3,7490],[14.3,7573],[14.3,7657],[14.3,7740],[14.3,7823],[14.3,7906],[14.3,7989],[14.3,8073],[14.3,8156],[14.3,8239],[14.3,8322],[14.3,8406],[14.3,8489],[14.3,8572],[14.3,8655],[14.3,8738],[14.3,8822],[14.1,8905],[14,8988],[14,9071],[14,9155],[14,9238],[14,9321],[14,9404],[14,9488],[14,9571],[14,9654],[14,9737],[14,9821],[14,9904],[14,9987],[14,10070],[14,10153],[14,10237],[14,10320],[14,10403],[14,10486],[14,10569],[14,10653],[14,10736],[14,10819],[14,10902],[14,10986],[14.6,11069],[18.5,11152],[19.7,11235],[20.3,11319],[21.6,11402],[23.5,11485],[23.8,11568],[23.8,11652],[23.8,11735],[25.5,11818],[26.1,11901],[27.4,11985],[28.5,12068],[28.5,12151],[28.6,12234],[28.6,12317],[28.6,12401],[28.6,12484],[28.6,12567],[28.6,12650],[28.6,12733],[28.6,12817],[28.6,12900],[28.6,12983],[28.6,13066],[17,13150],[5.3,13233],[1.7,13316],[1.7,13399],[1.7,13483],[1.7,13566],[1.7,13649],[0.9,13732],[0.8,13816],[0.8,13899],[0.5,13982],[0.2,15480],[2.1,15563],[2.4,15647],[3.2,15730],[3.2,15813],[4.4,15896],[10,15979],[14.9,16063],[15.4,16146],[15.6,16229],[19.3,16312],[22.8,16396],[28.4,16479],[36.7,16562],[38.6,16646],[40.6,16728],[45.9,16812],[50,16895],[50,16978],[50.1,17061],[51.3,17145],[53.6,17228],[54.2,17311],[54.3,17394],[54.8,17478],[55.1,17561],[55.1,17644],[55.1,17727],[55.1,17810],[55.1,17894],[55.1,17977],[55.1,18060],[55.1,18143],[55.1,18227],[55.1,18310],[55.1,18393],[55.1,18476],[55.1,18559],[55.1,18643],[55.1,18726],[55.1,18809],[55.1,18892],[55.1,18976],[55.1,19059],[55.1,19142],[54.9,19225],[54.2,19309],[52.3,19392],[50.6,19475],[46.8,19558],[41.5,19642],[37.6,19725],[30.1,19808],[23.6,19891],[19.4,19974],[17,20058],[16.7,20141],[16.9,20224],[16.9,20307],[15.5,20391],[12.9,20474],[6.6,20557],[0.9,20640],[0.7,20723],[0.7,20807],[0.7,20890],[0.5,20973],[0.4,21056],[1.4,27049],[1.5,27132],[3,27215],[3.1,27299],[4.8,27382],[9.1,27465],[13,27548],[20.1,27632],[24.9,27715],[28,27798],[31,27881],[31.8,27964],[33.6,28048],[35.5,28131],[39.9,28214],[44.4,28297],[44.9,28381],[45.7,28464],[46.5,28547],[47.2,28630],[47.2,28713],[47.3,28797],[47.4,28880],[47.5,28963],[47.5,29046],[47.5,29130],[47.5,29213],[47.5,29296],[47.5,29379],[47.5,29462],[47.5,29546],[47.5,29629],[47.5,29712],[47.5,29795],[47.5,29879],[47.5,29962],[47.5,30045],[47.5,30128],[47.5,30212],[47.5,30295],[47.5,30378],[47.5,30461],[47.5,30544],[47.5,30628],[48.9,30711],[50.7,30794],[53.6,30877],[60.1,30961],[63.8,31044],[67,31127],[67,31210],[67.4,31294],[68.5,31377],[68.8,31460],[68.8,31543],[68.9,31626],[69.9,31710],[74.6,31793],[74.6,31876],[74.6,31959],[74.6,32043],[74.7,32126],[75.5,32209],[75.9,32292],[78.8,32376],[79.3,32459],[79.3,32542],[79.3,32625],[79.3,32708],[79.3,32792],[79.4,32875],[79.5,32958],[79.6,33041],[79.6,33125],[79.6,33208],[79.6,33291],[79.6,33374],[79.6,33457],[79.6,33541],[79.6,33624],[79.6,33707],[79.6,33790],[79.6,33874],[79.6,33957],[79.6,34040],[79.6,34123],[79.6,34207],[79.1,34290],[78,34373],[76.3,34458],[62.1,34540],[49,34623],[38.2,34706],[28.4,34789],[24.3,34872],[12.2,34956],[9.4,35039],[7.9,35122],[8.1,35205],[5,35289],[1.4,35372],[1.3,35455],[1.3,35538],[1.1,35621],[0.3,35705]]",1,0,1077.9533,1080.4167,0,1.8379,"[{""rating"":0,""responseTime"":1.8379000000356882}]",space,1.9548,,1080.4167,Partially,50,1080.418,,,[],,0,18,18,18,1,audio/Narrative8Situation9.wav,audio/Narrative7Situation9.wav,audio/Narrative6Situation9.wav,audio/Narrative5Situation9.wav,3,2,4,3,,,,,,,,,,,,,,,,,,,,,,,,,,,,,,,,,,,,,,,
,,,,,,65c7878613b84bfc354131c7,2024-05-13_10h40.05.927,group3.1-3.2-social-tom,2023.2.2,Win32,243.902439,65c5074098b851296ff0b7ed,6642341a88e56a9354eb3978,,,,,,,,,,,,,,,,,,,,,,,,,,,,,,,,,,,,,,,,,,,,,,,,,,,,,,,,,,,,,,,,,,,,,,,,1080.4181,1092.1396,space,11.2181,,1092.14,1102.9722,space,10.5263,,,,,,,,,,,,,,,,,,,,,,,,,,
