exp_question,consent.started,consent.stopped,consentResponse.keys,consentResponse.rt,consentResponse.duration,participantID,date,expName,psychopyVersion,OS,frameRate,STUDY_ID,SESSION_ID,opening1.started,opening1.stopped,keyEndingOpening1.keys,keyEndingOpening1.rt,keyEndingOpening1.duration,volumeAdjust.started,volumeAdjust.stopped,endingAdjust.keys,endingAdjust.rt,endingAdjust.duration,opening2.started,opening2.stopped,keyEndingOpening.keys,keyEndingOpening.rt,keyEndingOpening.duration,mouse.x,mouse.y,mouse.leftButton,mouse.midButton,mouse.rightButton,mouse.time,instructionLoop.thisRepN,instructionLoop.thisTrialN,instructionLoop.thisN,instructionLoop.thisIndex,instructionLoop.ran,readyForAudio.started,readyForAudio.stopped,fixation.started,run,audio_played,fixation.stopped,endPractice.keys,audioPre.started,audioPre.stopped,continuousResponses_audio,continuousSlider.response,continuousSlider.rt,intRating.started,intRating.stopped,intQuestionSlider.response,intQuestionSlider.rt,intQuestionSlider.history,confirmResponse.keys,confirmResponse.rt,confirmResponse.duration,catchQuestion.started,catch_label,catch_value,catchQuestion.stopped,catchQuestionSlider.response,catchQuestionSlider.rt,catchQuestionSlider.history,confirmResponse_2.keys,audioRunLoop.thisRepN,audioRunLoop.thisTrialN,audioRunLoop.thisN,audioRunLoop.thisIndex,audioRunLoop.ran,conditions1_1,conditions2_1,conditions1_2,conditions2_2,dur1_1,dur2_1,dur1_2,dur2_2,endPractice.rt,endPractice.duration,confirmResponse_2.rt,confirmResponse_2.duration,runIntervalBreak.started,runIntervalBreak.stopped,endingBreakKey.keys,endingBreakKey.rt,endingBreakKey.duration,connection.started,connection.stopped,connectionEnding.keys,connectionEnding.rt,connectionEnding.duration,readyForText.started,readyForText.stopped,textPre.started,run_dup,textPre.stopped,continuousResponses_text,textRunLoop.thisRepN,textRunLoop.thisTrialN,textRunLoop.thisN,textRunLoop.thisIndex,textRunLoop.ran,text1_1,text1_2,text2_1,text2_2,runBreakText.started,runBreakText.stopped,endingBreakKey_2.keys,endingBreakKey_2.rt,endingBreakKey_2.duration,ending.started,ending.stopped,endingEnding.keys,endingEnding.rt,endingEnding.duration
tom,0.0007,36.1894,y,35.8698,,65f4ab7884f8411c9e11a34e,2024-05-13_12h04.06.775,group3.1-3.2-social-tom,2023.2.2,Win32,58.82352941,65c5074098b851296ff0b7ed,664247df3242596b8f531ae6,,,,,,,,,,,,,,,,,,,,,,,,,,,,,,,,,,,,,,,,,,,,,,,,,,,,,,,,,,,,,,,,,,,,,,,,,,,,,,,,,,,,,,,,,,,,,,,,,,,,,,,,,,
,,,,,,65f4ab7884f8411c9e11a34e,2024-05-13_12h04.06.775,group3.1-3.2-social-tom,2023.2.2,Win32,58.82352941,65c5074098b851296ff0b7ed,664247df3242596b8f531ae6,36.1897,43.3964,space,7.1783,,,,,,,,,,,,,,,,,,,,,,,,,,,,,,,,,,,,,,,,,,,,,,,,,,,,,,,,,,,,,,,,,,,,,,,,,,,,,,,,,,,,,,,,,,,,,,,,,,,,,,
,,,,,,65f4ab7884f8411c9e11a34e,2024-05-13_12h04.06.775,group3.1-3.2-social-tom,2023.2.2,Win32,58.82352941,65c5074098b851296ff0b7ed,664247df3242596b8f531ae6,,,,,,43.3966,92.4118,space,48.6915,,,,,,,,,,,,,,,,,,,,,,,,,,,,,,,,,,,,,,,,,,,,,,,,,,,,,,,,,,,,,,,,,,,,,,,,,,,,,,,,,,,,,,,,,,,,,,,,,
,,,,,,65f4ab7884f8411c9e11a34e,2024-05-13_12h04.06.775,group3.1-3.2-social-tom,2023.2.2,Win32,58.82352941,65c5074098b851296ff0b7ed,664247df3242596b8f531ae6,,,,,,,,,,,92.4199,106.7597,space,14.3214,,[],[],[],[],[],[],0,0,0,0,1,,,,,,,,,,,,,,,,,,,,,,,,,,,,,,,,,,,,,,,,,,,,,,,,,,,,,,,,,,,,,,,,,,,,,,,,,,,,,,,,
,,,,,,65f4ab7884f8411c9e11a34e,2024-05-13_12h04.06.775,group3.1-3.2-social-tom,2023.2.2,Win32,58.82352941,65c5074098b851296ff0b7ed,664247df3242596b8f531ae6,,,,,,,,,,,106.7653,131.7507,space,24.9143,,[],[],[],[],[],[],1,0,1,0,1,,,,,,,,,,,,,,,,,,,,,,,,,,,,,,,,,,,,,,,,,,,,,,,,,,,,,,,,,,,,,,,,,,,,,,,,,,,,,,,,
,,,,,,65f4ab7884f8411c9e11a34e,2024-05-13_12h04.06.775,group3.1-3.2-social-tom,2023.2.2,Win32,58.82352941,65c5074098b851296ff0b7ed,664247df3242596b8f531ae6,,,,,,,,,,,131.757,144.6472,space,12.8501,,[],[],[],[],[],[],2,0,2,0,1,,,,,,,,,,,,,,,,,,,,,,,,,,,,,,,,,,,,,,,,,,,,,,,,,,,,,,,,,,,,,,,,,,,,,,,,,,,,,,,,
,,,,,,65f4ab7884f8411c9e11a34e,2024-05-13_12h04.06.775,group3.1-3.2-social-tom,2023.2.2,Win32,58.82352941,65c5074098b851296ff0b7ed,664247df3242596b8f531ae6,,,,,,,,,,,144.6534,162.3812,space,17.7093,,[],[],[],[],[],[],3,0,3,0,1,,,,,,,,,,,,,,,,,,,,,,,,,,,,,,,,,,,,,,,,,,,,,,,,,,,,,,,,,,,,,,,,,,,,,,,,,,,,,,,,
,,,,,,65f4ab7884f8411c9e11a34e,2024-05-13_12h04.06.775,group3.1-3.2-social-tom,2023.2.2,Win32,58.82352941,65c5074098b851296ff0b7ed,664247df3242596b8f531ae6,,,,,,,,,,,162.3876,174.343,space,11.9324,,[],[],[],[],[],[],4,0,4,0,1,,,,,,,,,,,,,,,,,,,,,,,,,,,,,,,,,,,,,,,,,,,,,,,,,,,,,,,,,,,,,,,,,,,,,,,,,,,,,,,,
,,,,,,65f4ab7884f8411c9e11a34e,2024-05-13_12h04.06.775,group3.1-3.2-social-tom,2023.2.2,Win32,58.82352941,65c5074098b851296ff0b7ed,664247df3242596b8f531ae6,,,,,,,,,,,,,,,,,,,,,,,,,,,174.3499,176.9293,176.9415,1,audio/Narrative13Situation2.wav,178.9483,,178.9486,208.7122,"[[999,1],[999,82],[999,165],[999,249],[999,332],[999,415],[999,499],[999,582],[999,666],[999,749],[999,833],[999,916],[999,1000],[999,1083],[999,1166],[999,1250],[999,1333],[999,1416],[999,1500],[999,1584],[999,1667],[999,1750],[999,1834],[999,1917],[999,2001],[999,2084],[999,2167],[999,2251],[999,2335],[999,2418],[999,2501],[999,2585],[47.2,2668],[46.5,2751],[53.6,5588],[56.3,5671],[58.3,5755],[60.2,5838],[63.8,5921],[67.1,6005],[70.7,6088],[70.8,6171],[71.4,6255],[71.4,6338],[71.9,6422],[72.3,6505],[72.6,6588],[73.4,6672],[74,6755],[74.2,6839],[74.2,6922],[74.2,7005],[74.2,7089],[74.2,7172],[74.2,7256],[74.2,7339],[74.2,7422],[74.2,7506],[74.2,7589],[74.2,7673],[74.2,7756],[74.2,7840],[74.2,7923],[74.2,8007],[74.2,8090],[74.2,8173],[74.2,8257],[74.2,8340],[74.2,8423],[74.2,8507],[74.2,8590],[74.2,8674],[74.2,8757],[74.2,8841],[74.2,8924],[74.2,9007],[74.2,9091],[74.2,9174],[74.2,9258],[74.2,9341],[74.2,9425],[74.2,9508],[74.2,9591],[74.2,9675],[74.2,9758],[74.2,9842],[74.2,9925],[74.2,10008],[74.2,10092],[74.2,10175],[74.2,10259],[74.2,10342],[74.2,10425],[74.2,10509],[74.2,10593],[74.1,10676],[69.9,10759],[67.3,10843],[64.2,10926],[60.5,11009],[57.6,11093],[55.8,11176],[53.5,11260],[52.2,11343],[51.1,11427],[50.8,11510],[50.8,11593],[50.8,11677],[50.8,11760],[50.8,11844],[50.8,11927],[50.8,12010],[50.8,12094],[50.8,12177],[50.8,12261],[50.8,12344],[50.8,12427],[50.8,12511],[50.8,12594],[50.8,12678],[50.9,12761],[50.9,12845],[50.9,12928],[50.9,13011],[51,13095],[51,13178],[51,13262],[51,13345],[51,13429],[51,13512],[51,13595],[51,13679],[51,13762],[51,13846],[51,13929],[51,14012],[51,14096],[51,14179],[51,14263],[51,14346],[51,14430],[51,14513],[51,14596],[51,14680],[51,14763],[51,14847],[51,14930],[51,15013],[51,15097],[51,15180],[51,15264],[51,15347],[51,15430],[51,15514],[51,15597],[51,15681],[51,15764],[51,15848],[51,15931],[51,16015],[51,16098],[51,16181],[51,16265],[51,16348],[51,16432],[51,16515],[51,16599],[51,16682],[51,16765],[51,16849],[51,16932],[51,17015],[51,17099],[53.3,17183],[54.5,17266],[54.6,17349],[54.9,17433],[56,17516],[59.7,17600],[63.4,17683],[65.6,17767],[68.1,17850],[70,17933],[70.6,18017],[72.6,18100],[73.4,18183],[74,18267],[74,18350],[74.2,18433],[74.4,18517],[74.4,18600],[74.4,18684],[74.4,18767],[74.4,18851],[74.4,18934],[74.4,19017],[74.4,19101],[74.4,19184],[74.4,19268],[74.4,19351],[74.4,19435],[74.4,19518],[74.4,19601],[74.4,19685],[74.4,19768],[74.4,19852],[74.4,19935],[74.4,20019],[74.4,20102],[74.4,20185],[74.4,20269],[74.4,20352],[74.4,20436],[74.4,20519],[74.4,20602],[74.4,20686],[74.4,20769],[74.4,20853],[74.4,20936],[74.4,21019],[74.4,21103],[74.4,21186],[74.4,21270],[74.4,21353],[74.4,21437],[74.4,21520],[74.4,21603],[74.4,21687],[74.4,21770],[74.4,21854],[74.4,21937],[74.4,22020],[74.4,22104],[74.4,22187],[74.4,22271],[74.4,22354],[74.5,22438],[74.5,22521],[74.5,22604],[74.5,22688],[74.5,22771],[74.5,22855],[74.5,22938],[74.5,23022],[74.5,23105],[74.5,23188],[74.5,23272],[74.5,23355],[74.5,23439],[74.5,23522],[74.5,23606],[74.5,23689],[74.5,23772],[74.5,23856],[74.5,23939],[74.5,24022],[74.7,24106],[76.6,24189],[78.6,24273],[79.9,24356],[82,24440],[85.7,24523],[85.7,24606],[85.7,24690],[85.7,24773],[85.7,24857],[85.6,24940],[85.5,25023],[85.5,25107],[85.5,25191],[85.5,25274],[85.5,25357],[85.3,25441],[85.3,25524],[85.2,25607],[85.2,25691],[85.2,25775],[85.2,25858],[85.2,25941],[85.1,26025],[85.1,26109],[85.1,26192],[85.1,26275],[85.1,26358],[85.1,26441],[85.1,26525],[85.1,26609],[85.1,26692],[85.1,26775],[85.1,26859],[85.1,26942],[85.1,27026],[85.1,27109],[85.1,27192],[85.1,27276],[85.1,27359],[85.1,27442],[85.1,27526],[85.1,27609],[85.1,27693],[85.1,27776],[85.1,27860],[85.1,27943],[85.1,28026],[85.1,28110],[85.1,28194],[85.1,28277],[85.1,28360],[85,28444],[85,28527],[85,28610],[85,28694],[85,28777],[85,28861],[85,28944],[85,29027],[85,29111],[85,29194],[85,29278],[85,29361],[85,29445],[85,29528],[85,29611],[85,29695]]",1,0,208.7126,216.4353,73.85416826,5.9073,"[{""rating"":73.85416825612387,""responseTime"":5.907299999713899}]",space,7.184,,216.4354,Half the time,50,216.4383,,,[],,0,0,0,0,1,audio/Narrative13Situation2.wav,audio/Narrative13Situation2.wav,audio/Narrative13Situation2.wav,audio/Narrative13Situation2.wav,2,2,2,2,,,,,,,,,,,,,,,,,,,,,,,,,,,,,,,,,,,,,,,
,,,,,,65f4ab7884f8411c9e11a34e,2024-05-13_12h04.06.775,group3.1-3.2-social-tom,2023.2.2,Win32,58.82352941,65c5074098b851296ff0b7ed,664247df3242596b8f531ae6,,,,,,,,,,,,,,,,,,,,,,,,,,,,,216.4384,1,audio/Narrative7Situation1.wav,219.1544,space,219.1545,275.0273,"[[50,2335],[49.7,2419],[49.7,2502],[49.7,2585],[49.7,2669],[49.7,2752],[49.7,2836],[49.7,2919],[49.7,3003],[49.8,3086],[49.8,3169],[49.8,3253],[50,3336],[50.2,3420],[50.4,3503],[50.5,3586],[50.6,3670],[50.6,3753],[50.6,3837],[50.6,3920],[50.6,4004],[50.6,4087],[50.6,4171],[50.6,4254],[50.6,4337],[50.6,4420],[51.4,4504],[54.9,4587],[59.5,4671],[66.4,4754],[71.7,4838],[75.3,4921],[77,5004],[77.1,5088],[77.1,5171],[77.2,5255],[77.2,5338],[77.2,5421],[77.2,5505],[76.5,5588],[75.3,5672],[74.6,5755],[74.1,5839],[73.6,5922],[73.6,6005],[73.6,6089],[73.6,6173],[73.5,6256],[73.5,6339],[73.5,6423],[73.5,6506],[73.5,6589],[73.5,6673],[73.5,6756],[73.5,6839],[73.5,6923],[73.5,7007],[73.5,7090],[73.5,7173],[73.5,7257],[73.5,7340],[73.5,7424],[73.5,7507],[73.5,7590],[73.5,7674],[73.5,7757],[73.5,7840],[73.5,7924],[73.5,8008],[73.5,8091],[73.5,8174],[73.5,8258],[73.5,8341],[73.5,8424],[73.5,8508],[73.5,8591],[73.5,8675],[73.5,8758],[73.5,8842],[73.5,8925],[73.5,9008],[73.5,9092],[73.5,9175],[73.5,9259],[73.5,9342],[73.5,9426],[73.5,9509],[73.5,9592],[73.5,9676],[73.5,9759],[73.5,9843],[73.5,9926],[73.5,10009],[73.1,10094],[72.6,10177],[72.5,10260],[72.3,10343],[72.3,10427],[72.3,10510],[72.3,10593],[72.3,10677],[72.3,10760],[72.3,10844],[72.3,10927],[72.3,11011],[72.3,11094],[72.3,11177],[72.3,11261],[72.3,11344],[72.3,11427],[72.3,11511],[72.3,11594],[72.3,11678],[72.3,11761],[72.3,11845],[72.3,11928],[72.3,12011],[72.3,12095],[72.3,12178],[72.3,12262],[72.3,12345],[72.3,12429],[72.3,12512],[72.3,12595],[72.3,12679],[72.3,12762],[72.3,12846],[72.3,12929],[72.3,13013],[72.3,13096],[72.3,13179],[72.3,13263],[72.3,13346],[72.3,13430],[72.3,13513],[72.3,13596],[72.3,13680],[72.3,13763],[72.3,13847],[72.3,13930],[72.3,14013],[72.3,14097],[72.3,14180],[72.3,14264],[72.3,14347],[72.3,14430],[72.3,14514],[72.3,14597],[72.3,14681],[72.3,14764],[72.3,14848],[72.3,14931],[72.3,15014],[72.3,15098],[72.3,15181],[72.3,15265],[72.3,15348],[72.3,15431],[72.3,15515],[72.3,15598],[72.3,15682],[72.3,15765],[72.3,15849],[72.4,15932],[74.2,16016],[75.3,16099],[77.6,16182],[80.4,16266],[82.8,16349],[83.9,16433],[84.6,16516],[84.6,16599],[84.9,16683],[85.1,16766],[85.1,16850],[85.3,16933],[85.3,17016],[85.3,17100],[85.3,17183],[85.3,17267],[85.3,17350],[85.3,17434],[85.3,17517],[85.3,17600],[85.3,17684],[85.3,17768],[85.3,17851],[85.3,17934],[85.3,18018],[85.3,18101],[85.3,18184],[85.3,18268],[85.2,18351],[85.2,18434],[85.2,18518],[85.2,18601],[85.2,18685],[85.2,18768],[85.2,18852],[85.2,18935],[85.2,19019],[85.1,19102],[85.1,19185],[85.1,19269],[85.1,19352],[85.1,19436],[85.1,19519],[85.1,19602],[85.1,19686],[85.1,19769],[85.1,19853],[85.1,19936],[85.1,20020],[85.1,20103],[85.1,20186],[85.1,20270],[85.1,20353],[85.1,20437],[85.1,20520],[85.1,20604],[85.1,20687],[85.1,20770],[85.1,20854],[85.1,20937],[85.1,21020],[85.1,21104],[85.1,21187],[85.1,21271],[85.1,21354],[85.1,21438],[85.1,21521],[85,21604],[85,21688],[85,21771],[85,21855],[85,21938],[85,22022],[85,22105],[85,22188],[85,22271],[85,22355],[85,22439],[85,22522],[85,22605],[85,22689],[85,22772],[85,22856],[85,22939],[85,23023],[85,23106],[85,23189],[84.8,23272],[84.8,23356],[84.8,23439],[84.8,23523],[84.8,23607],[84.8,23689],[84.8,23773],[84.8,23857],[84.8,23940],[84.8,24024],[84.8,24107],[84.8,24190],[84.8,24274],[84.7,24357],[84.7,24440],[84.7,24524],[84.7,24607],[84.7,24691],[84.7,24774],[84.7,24857],[84.7,24941],[84.7,25024],[84.7,25108],[84.7,25191],[84.7,25275],[84.7,25358],[84.7,25442],[84.7,25525],[84.7,25608],[84.7,25692],[84.7,25775],[84.7,25859],[84.7,25942],[84.7,26025],[84.7,26109],[84.7,26193],[84.7,26276],[84.7,26359],[84.7,26443],[84.7,26526],[84.7,26609],[84.7,26693],[84.7,26776],[84.7,26860],[84.7,26943],[84.7,27026],[84.7,27110],[84.7,27193],[84.6,27277],[84.3,27360],[83.4,27444],[81.4,27527],[80,27611],[78.7,27694],[78.5,27777],[78,27860],[77.9,27944],[77.9,28027],[77.9,28111],[77.9,28194],[77.9,28278],[77.9,28361],[77.9,28444],[77.9,28528],[77.9,28611],[77.9,28695],[77.9,28779],[77.9,28861],[77.9,28945],[77.9,29029],[77.9,29112],[77.9,29195],[77.9,29278],[77.9,29362],[77.9,29445],[77.9,29529],[77.9,29612],[77.9,29696],[77.9,29779],[77.9,29863],[77.9,29946],[77.9,30029],[77.9,30113],[77.9,30197],[77.9,30280],[77.9,30363],[77.9,30446],[77.9,30530],[77.9,30614],[77.9,30697],[77.9,30780],[77.9,30864],[77.9,30947],[77.9,31030],[77.9,31114],[77.9,31198],[77.9,31281],[77.9,31364],[77.9,31447],[77.9,31531],[77.9,31614],[77.9,31698],[77.9,31781],[77.9,31865],[77.9,31948],[77.9,32031],[77.9,32115],[77.9,32198],[77.9,32281],[77.9,32365],[77.9,32449],[77.9,32532],[77.9,32615],[77.9,32699],[77.9,32782],[77.9,32865],[77.9,32949],[77.9,33033],[77.9,33116],[77.9,33199],[77.9,33283],[77.9,33366],[77.9,33449],[77.9,33533],[77.9,33616],[77.9,33700],[77.9,33783],[77.9,33867],[77.9,33950],[77.9,34034],[77.9,34117],[77.9,34200],[77.9,34284],[77.9,34367],[77.9,34451],[77.9,34534],[77.9,34618],[77.9,34701],[77.9,34784],[77.9,34868],[77.9,34951],[77.9,35035],[77.9,35118],[77.9,35201],[78.1,35285],[78.6,35369],[79.7,35451],[80.6,35535],[82.1,35618],[82.8,35702],[83.3,35785],[83.8,35869],[83.9,35952],[84.3,36035],[84.6,36119],[84.8,36202],[84.9,36286],[85.1,36369],[85.2,36453],[85.2,36536],[85.2,36619],[85.2,36703],[85.2,36786],[85.2,36869],[85.2,36954],[85.2,37037],[85.2,37120],[85.2,37203],[85.2,37287],[85.2,37370],[85.2,37454],[85.2,37537],[85.2,37621],[85.2,37704],[85.2,37787],[85.2,37870],[85.2,37954],[85.2,38037],[85.2,38121],[85.2,38204],[85.2,38288],[85.2,38371],[85.2,38454],[85.2,38538],[85.2,38621],[85.2,38705],[85.2,38788],[85.2,38871],[85.2,38955],[85.2,39038],[85.2,39122],[85.2,39205],[85.2,39289],[85.2,39372],[85.2,39455],[85.2,39539],[85.2,39622],[85.2,39706],[85.2,39789],[85.2,39873],[85.2,39956],[85.2,40039],[85.2,40123],[85.2,40207],[85.2,40290],[85.2,40373],[85.2,40457],[85.2,40540],[85.2,40623],[85.2,40707],[85.2,40790],[85.2,40874],[85.2,40957],[85.2,41040],[85.2,41124],[85.2,41207],[85.2,41290],[85.2,41374],[85.2,41458],[85.2,41541],[85.2,41624],[85.2,41708],[85.2,41791],[85.1,41875],[85.1,41958],[85.1,42041],[85.1,42125],[85.1,42208],[85.1,42292],[85.1,42375],[85.1,42459],[85.1,42542],[85.1,42625],[85.1,42709],[85.1,42792],[85.1,42876],[85,42959],[85,43043],[85,43126],[85,43209],[85,43293],[85,43376],[85,43459],[85,43543],[85,43626],[85,43710],[85,43793],[85,43877],[85,43960],[85,44043],[85,44127],[85,44210],[85,44294],[85,44377],[85,44460],[85,44544],[85,44627],[85,44711],[85,44794],[85,44878],[85,44961],[85,45044],[84.8,45128],[84.7,45211],[84.7,45295],[84.7,45378],[84.7,45462],[84.7,45545],[84.7,45628],[84.7,45712],[84.7,45795],[84.7,45879],[84.7,45963],[84.7,46045],[84.7,46129],[84.7,46212],[84.7,46296],[84.7,46379],[84.6,46463],[84.6,46546],[84.6,46629],[84.6,46713],[84.6,46796],[84.5,46880],[84.5,46964],[84.5,47046],[84.5,47130],[84.5,47213],[84.5,47297],[84.5,47380],[84.5,47464],[84.5,47547],[84.2,47630],[84.2,47714],[84.1,47797],[84,47881],[84,47964],[84,48047],[84,48131],[84,48214],[84,48298],[84,48381],[84,48464],[84,48548],[84,48631],[84,48715],[84,48798],[84,48882],[84,48965],[84,49049],[84,49132],[84,49215],[84,49299],[84,49383],[84,49465],[84,49549],[84,49632],[84,49716],[84,49799],[84,49883],[84,49966],[84,50049],[84,50133],[84,50216],[84,50300],[84,50383],[84,50467],[84,50550],[84,50633],[84,50717],[84,50800],[84,50884],[84,50967],[84,51050],[84,51134],[84,51217],[84,51301],[84,51384],[84,51468],[84,51551],[84,51634],[84,51718],[84,51801],[84,51884],[84,51968],[84,52051],[84,52135],[84,52218],[84,52302],[84,52385],[84,52469],[84,52552],[84,52635],[84,52719],[84,52802],[84,52886],[84,52969],[84,53052],[84,53136],[84,53219],[84,53303],[84,53386],[84,53469],[84,53553],[84,53636],[84,53720],[84,53803],[84,53886],[84,53970],[84,54054],[84,54137],[84,54220],[84,54304],[84,54387],[84,54470],[84,54554],[84,54638],[84,54721],[84,54804],[84,54888],[84,54971],[84,55054],[84,55138],[84,55221],[84,55305],[84,55388],[84,55471],[84,55555],[84,55639],[84,55722],[84,55806]]",1,0,275.0278,282.3009,82.50000477,5.6677,"[{""rating"":82.50000476837158,""responseTime"":5.667699999809258}]",space,6.7244,,282.3009,All the time,100,282.304,,,[],,0,1,1,1,1,audio/Narrative7Situation1.wav,audio/Narrative8Situation1.wav,audio/Narrative5Situation1.wav,audio/Narrative6Situation1.wav,2,5,5,2,2.7006,,,,,,,,,,,,,,,,,,,,,,,,,,,,,,,,,,,,,,
,,,,,,65f4ab7884f8411c9e11a34e,2024-05-13_12h04.06.775,group3.1-3.2-social-tom,2023.2.2,Win32,58.82352941,65c5074098b851296ff0b7ed,664247df3242596b8f531ae6,,,,,,,,,,,,,,,,,,,,,,,,,,,,,282.3042,1,audio/Narrative7Situation2.wav,285.3208,,285.3209,292.8114,"[[999,5],[999,82],[999,167],[999,250],[999,332],[999,416],[999,500],[999,583],[999,667],[999,750],[999,833],[999,917],[999,1000],[999,1084],[999,1167],[999,1250],[999,1334],[999,1418],[51,1501],[50.8,1584],[50.7,1668],[50.7,1751],[50.7,1834],[50.7,1918],[50.7,2001],[50.7,2085],[50.7,2168],[50.7,2251],[50.7,2334],[50.7,2418],[50.7,2502],[50.7,2585],[50.7,2668],[50.7,2752],[50.7,2835],[50.7,2918],[50.7,3002],[50.7,3086],[50.7,3169],[50.7,3252],[50.7,3335],[50.7,3419],[50.7,3503],[50.7,3586],[50.7,3670],[50.7,3753],[50.7,3836],[50.7,3919],[50.8,4003],[51,4087],[51,4170],[51,4253],[51,4337],[51,4420],[51,4503],[51,4587],[51,4671],[51,4754],[51,4837],[51,4921],[51,5004],[51,5087],[51,5171],[51.3,5254],[51.3,5338],[51.4,5421],[51.4,5504],[51.4,5588],[51.4,5671],[51.4,5755],[51.4,5838],[51.4,5922],[51.4,6005],[51.5,6088],[51.6,6172],[51.6,6255],[52,6338],[52.6,6422],[54.5,6505],[58.3,6589],[59.6,6673],[61.9,6756],[64.5,6839],[67.1,6923],[68.8,7006],[70.3,7090],[71.7,7173],[71.9,7256],[71.9,7340],[71.9,7423]]",1,0,292.8115,297.1989,58.0208381,3.7053,"[{""rating"":58.02083810170492,""responseTime"":3.7052999997138727}]",space,3.8606,,297.199,All the time,100,297.2001,,,[],,0,2,2,2,1,audio/Narrative7Situation2.wav,audio/Narrative8Situation2.wav,audio/Narrative5Situation2.wav,audio/Narrative6Situation2.wav,3,3,3,3,,,,,,,,,,,,,,,,,,,,,,,,,,,,,,,,,,,,,,,
,,,,,,65f4ab7884f8411c9e11a34e,2024-05-13_12h04.06.775,group3.1-3.2-social-tom,2023.2.2,Win32,58.82352941,65c5074098b851296ff0b7ed,664247df3242596b8f531ae6,,,,,,,,,,,,,,,,,,,,,,,,,,,,,297.2002,1,audio/Narrative7Situation3.wav,305.2071,,305.2071,314.4497,"[[999,6],[999,83],[999,166],[999,250],[999,333],[999,417],[999,500],[999,583],[999,667],[999,750],[999,834],[999,917],[999,1000],[999,1084],[999,1167],[999,1251],[999,1334],[999,1418],[57.5,1501],[56.6,1585],[56.5,1668],[56.5,1751],[56.5,1835],[56.5,1918],[56.5,2001],[56.5,2085],[56.5,2168],[56.5,2252],[56.5,2335],[57.3,2418],[59.8,2502],[65.9,2585],[67.4,2669],[68.8,2753],[69.7,2836],[69.8,2919],[70,3003],[70.2,3086],[70.3,3170],[70.3,3253],[70.3,3336],[70.3,3420],[70.3,3503],[70.3,3586],[70.3,3670],[70.3,3753],[70.3,3836],[70.3,3920],[70.3,4003],[70.6,4087],[70.8,4170],[71.3,4254],[71.6,4337],[71.8,4421],[71.8,4504],[71.8,4587],[71.8,4671],[71.8,4754],[71.8,4837],[71.8,4921],[71.8,5005],[71.8,5088],[71.8,5171],[71.8,5255],[71.8,5338],[71.9,5422],[72.2,5505],[72.3,5588],[72.6,5672],[72.9,5755],[73.2,5838],[73.2,5922],[73.2,6005],[73.2,6089],[73.2,6172],[73.2,6256],[73.2,6339],[73.2,6423],[73.2,6506],[73.2,6589],[73.2,6673],[73.2,6756],[73.2,6839],[73.2,6923],[73.2,7007],[73.2,7090],[73.2,7173],[73.2,7257],[73.2,7340],[73.2,7424],[73.2,7507],[73.2,7590],[73.2,7674],[73.2,7757],[73.2,7841],[73.2,7924],[73.2,8007],[73.2,8091],[73.2,8175],[73.2,8257],[73.2,8341],[73.2,8425],[73.2,8508],[73.2,8591],[73.2,8675],[73.2,8758],[73.2,8841],[73.2,8925],[73.2,9008],[73.2,9092],[73.2,9175]]",1,0,314.4499,318.7542,71.35416667,3.2149,"[{""rating"":71.35416666666666,""responseTime"":3.2149000000953833}]",space,3.7725,,318.7543,Not at all,0,318.7568,,,[],,0,3,3,3,1,audio/Narrative7Situation3.wav,audio/Narrative8Situation3.wav,audio/Narrative5Situation3.wav,audio/Narrative6Situation3.wav,8,4,3,5,,,,,,,,,,,,,,,,,,,,,,,,,,,,,,,,,,,,,,,
,,,,,,65f4ab7884f8411c9e11a34e,2024-05-13_12h04.06.775,group3.1-3.2-social-tom,2023.2.2,Win32,58.82352941,65c5074098b851296ff0b7ed,664247df3242596b8f531ae6,,,,,,,,,,,,,,,,,,,,,,,,,,,,,318.757,1,audio/Narrative7Situation4.wav,321.7571,,321.7572,333.4693,"[[999,0],[999,83],[999,166],[999,250],[999,333],[999,416],[999,500],[999,583],[999,666],[999,750],[999,833],[999,917],[999,1000],[999,1084],[999,1167],[59.7,1250],[59.9,1334],[60,1417],[60,1501],[60,1584],[60,1668],[60,1751],[60,1834],[56.9,1918],[52.3,2001],[52,2085],[51.8,2168],[50.9,2252],[50.7,2335],[50.7,2418],[50.7,2502],[50.7,2585],[50.7,2669],[50.7,2752],[50.7,2835],[50.7,2918],[50.7,3002],[50.7,3086],[50.7,3170],[50.7,3252],[50.7,3336],[50.7,3419],[50.7,3502],[50.7,3586],[50.7,3670],[50.7,3753],[50.8,3836],[52.6,3920],[54.1,4004],[57.3,4087],[59.9,4170],[64.1,4253],[66,4337],[67.2,4420],[68.4,4504],[68.8,4587],[69.3,4670],[69.3,4754],[69.3,4837],[69.3,4920],[69.3,5004],[69.3,5087],[69.3,5171],[69.3,5254],[69.3,5338],[69.3,5421],[69.2,5505],[68.6,5588],[67.9,5672],[67.8,5755],[67.8,5838],[67.8,5921],[67.8,6005],[67.8,6088],[67.8,6172],[67.8,6255],[67.8,6339],[67.8,6422],[67.8,6506],[67.8,6589],[67.8,6672],[67.8,6756],[67.8,6839],[67.8,6923],[67.8,7006],[67.8,7089],[67.8,7173],[67.8,7256],[67.8,7340],[67.8,7424],[67.8,7507],[67.8,7590],[67.8,7673],[67.8,7757],[67.8,7840],[67.8,7924],[67.8,8007],[68,8091],[68.5,8175],[68.6,8257],[68.8,8341],[69.3,8425],[70.1,8508],[71.1,8591],[71.9,8675],[72.9,8758],[74.3,8842],[74.3,8925],[74.3,9008],[74.3,9092],[74.3,9175],[74.3,9258],[74.3,9342],[74.3,9425],[74.3,9509],[74.3,9592],[74.3,9676],[74.3,9759],[74.3,9842],[74.3,9926],[74.3,10009],[74.3,10093],[74.3,10176],[74.3,10260],[74.3,10343],[74.3,10426],[74.3,10510],[74.3,10593],[74.3,10677],[74.3,10760],[74.3,10843],[74.3,10926],[74.2,11010],[74.2,11094],[73.9,11177],[73.8,11261],[73.5,11344],[72.8,11427],[72.5,11511],[72.1,11594],[71.7,11677]]",1,0,333.4694,336.4549,70.00000477,2.4421,"[{""rating"":70.00000476837158,""responseTime"":2.4420999999046558}]",space,2.4498,,336.455,All the time,100,336.4571,,,[],,0,4,4,4,1,audio/Narrative7Situation4.wav,audio/Narrative8Situation4.wav,audio/Narrative5Situation4.wav,audio/Narrative6Situation4.wav,3,3,1,2,,,,,,,,,,,,,,,,,,,,,,,,,,,,,,,,,,,,,,,
,,,,,,65f4ab7884f8411c9e11a34e,2024-05-13_12h04.06.775,group3.1-3.2-social-tom,2023.2.2,Win32,58.82352941,65c5074098b851296ff0b7ed,664247df3242596b8f531ae6,,,,,,,,,,,,,,,,,,,,,,,,,,,,,336.4572,1,audio/Narrative7Situation5.wav,341.4599,,341.46,349.9351,"[[999,5],[999,83],[999,167],[999,250],[999,333],[999,417],[999,500],[999,584],[999,667],[999,750],[999,834],[999,917],[999,1000],[999,1084],[999,1167],[53.5,1251],[51.9,1334],[50.8,1418],[50.6,1501],[50.6,1584],[50.6,1668],[50.6,1751],[50.6,1835],[50.6,1918],[50.6,2001],[50.6,2085],[50.6,2168],[50.6,2252],[50.6,2335],[50.6,2418],[50.6,2502],[50.6,2585],[50.6,2669],[50.6,2752],[50.6,2836],[50.6,2919],[50.6,3003],[50.6,3086],[50.6,3169],[50.6,3253],[50.6,3336],[50.6,3420],[50.6,3503],[50.6,3586],[50.6,3670],[50.6,3753],[50.6,3837],[50.6,3920],[50.6,4003],[50.6,4087],[50.6,4170],[50.6,4254],[50.6,4337],[50.6,4421],[50.6,4504],[50.6,4587],[51.3,4671],[51.6,4754],[53.6,4838],[55.6,4922],[57.3,5004],[58.2,5088],[59.4,5172],[60.1,5255],[60.6,5338],[60.9,5422],[60.9,5505],[60.9,5588],[60.9,5672],[60.9,5755],[61.1,5839],[61.5,5922],[61.7,6005],[61.7,6089],[61.7,6173],[61.7,6256],[61.7,6339],[61.7,6423],[61.7,6506],[61.7,6589],[61.7,6673],[61.7,6756],[61.7,6839],[61.7,6923],[61.7,7006],[61.7,7090],[61.7,7173],[61.7,7257],[61.7,7340],[61.7,7424],[61.7,7507],[61.7,7590],[61.7,7674],[61.7,7757],[61.7,7841],[61.7,7924],[61.7,8007],[61.7,8092],[61.7,8174],[61.7,8258],[61.7,8341],[61.7,8424]]",1,0,349.9353,353.0882,59.16666985,1.7209,"[{""rating"":59.166669845581055,""responseTime"":1.720900000095412}]",space,2.6251,,353.0883,Half the time,50,353.0902,,,[],,0,5,5,5,1,audio/Narrative7Situation5.wav,audio/Narrative8Situation5.wav,audio/Narrative5Situation5.wav,audio/Narrative6Situation5.wav,5,2,5,2,,,,,,,,,,,,,,,,,,,,,,,,,,,,,,,,,,,,,,,
,,,,,,65f4ab7884f8411c9e11a34e,2024-05-13_12h04.06.775,group3.1-3.2-social-tom,2023.2.2,Win32,58.82352941,65c5074098b851296ff0b7ed,664247df3242596b8f531ae6,,,,,,,,,,,,,,,,,,,,,,,,,,,,,353.0903,1,audio/Narrative7Situation6.wav,356.0913,,356.0914,366.0515,"[[999,0],[999,83],[999,166],[999,250],[999,333],[999,417],[999,500],[999,583],[999,667],[999,750],[999,834],[999,917],[999,1001],[999,1084],[999,1167],[999,1251],[999,1334],[52,1417],[51.9,1501],[52.4,1584],[52.4,1667],[52.4,1751],[51.8,1834],[51.3,1918],[50.6,2001],[50.1,2085],[49.9,2168],[49.9,2252],[49.9,2335],[49.9,2419],[49.9,2502],[50,2585],[50,2669],[50.2,2752],[50.3,2836],[50.3,2919],[50.3,3002],[50.5,3086],[51.8,3169],[54.2,3253],[56.6,3336],[59.2,3420],[62.9,3503],[65.4,3586],[66.9,3670],[68.1,3753],[70,3837],[70.8,3920],[71.4,4003],[71.4,4087],[71.4,4170],[71.4,4253],[71.4,4337],[71.4,4420],[71.4,4504],[71.4,4587],[71.4,4671],[71.4,4754],[71.4,4837],[71.4,4921],[71.4,5004],[71.4,5088],[71.4,5171],[71.4,5254],[71.4,5338],[71.4,5421],[71.4,5505],[71.4,5588],[71.4,5672],[71.4,5755],[71.4,5838],[71.4,5922],[71.4,6006],[71.4,6089],[71.4,6172],[71.4,6255],[71.4,6339],[71.4,6422],[71.4,6506],[71.4,6590],[71.4,6673],[71.4,6756],[71.4,6839],[71.4,6923],[71.4,7006],[71.4,7090],[71.4,7173],[71.4,7257],[71.4,7340],[71.4,7423],[71.4,7507],[71.4,7590],[71.4,7673],[71.4,7757],[71.4,7840],[71.4,7924],[71.4,8007],[71.4,8091],[71.4,8174],[71.4,8257],[71.4,8341],[71.4,8425],[71.4,8508],[71.4,8591],[71.4,8675],[71.4,8758],[71.4,8842],[71.4,8925],[71.4,9008],[71.4,9092],[71.4,9175],[71.4,9259],[71.4,9342],[71.4,9425],[71.4,9509],[71.4,9592],[71.4,9676],[71.4,9759],[71.4,9842],[71.4,9926]]",1,0,366.0516,369.9386,71.77083492,1.0925,"[{""rating"":71.77083492279053,""responseTime"":1.0924999999999727}]",space,3.3552,,369.9387,All the time,100,369.9413,,,[],,0,6,6,6,1,audio/Narrative7Situation6.wav,audio/Narrative8Situation6.wav,audio/Narrative5Situation6.wav,audio/Narrative6Situation6.wav,3,2,3,2,,,,,,,,,,,,,,,,,,,,,,,,,,,,,,,,,,,,,,,
,,,,,,65f4ab7884f8411c9e11a34e,2024-05-13_12h04.06.775,group3.1-3.2-social-tom,2023.2.2,Win32,58.82352941,65c5074098b851296ff0b7ed,664247df3242596b8f531ae6,,,,,,,,,,,,,,,,,,,,,,,,,,,,,369.9416,1,audio/Narrative7Situation7.wav,374.9434,,374.9435,392.1277,"[[999,5],[999,83],[999,166],[999,250],[999,333],[999,417],[999,500],[51.6,583],[51.6,667],[51.6,750],[51.6,834],[51.6,917],[51.3,1000],[50.8,1084],[50.6,1167],[50.6,1250],[50.4,1334],[50.3,1418],[50.3,1501],[50.3,1584],[50.3,1668],[50.3,1751],[50.3,1835],[50.3,1918],[50.3,2001],[50.3,2085],[50.3,2168],[50.3,2251],[50.3,2335],[50.3,2419],[50.3,2502],[50.3,2585],[50.3,2669],[50.3,2752],[50.3,2836],[50.3,2919],[50.3,3003],[50.3,3086],[50.3,3169],[50.3,3253],[50.3,3336],[50.3,3420],[50.3,3503],[50.3,3586],[50.3,3670],[50.4,3753],[50.5,3836],[50.5,3920],[50.5,4004],[50.5,4087],[51,4170],[52.9,4254],[57.1,4337],[59.6,4420],[60.9,4504],[61.3,4587],[61.4,4671],[61.4,4754],[62.2,4837],[63.4,4921],[64.6,5005],[64.8,5088],[64.8,5171],[64.8,5254],[65.1,5338],[65.8,5421],[66.1,5505],[66.6,5588],[66.6,5672],[66.6,5755],[66.6,5838],[66.6,5922],[66.6,6005],[66.6,6089],[66.6,6172],[66.6,6255],[66.6,6339],[66.6,6422],[66.6,6506],[66.6,6589],[66.6,6673],[66.6,6756],[66.6,6839],[66.6,6923],[66.6,7006],[66.6,7090],[66.6,7173],[66.6,7257],[66.6,7340],[66.6,7423],[66.6,7507],[66.6,7590],[66.6,7674],[66.6,7757],[66.6,7840],[66.6,7924],[66.6,8008],[66.9,8091],[67.1,8175],[67.4,8258],[67.4,8341],[67.4,8424],[67.4,8508],[67.4,8591],[67.4,8675],[67.4,8758],[67.4,8841],[67.4,8925],[67.4,9008],[67.4,9092],[67.4,9175],[67.4,9259],[67.4,9342],[67.4,9425],[67.4,9509],[67.6,9592],[67.9,9676],[67.9,9759],[67.9,9843],[67.9,9926],[67.9,10009],[67.9,10093],[67.9,10176],[67.9,10260],[67.9,10343],[67.9,10427],[67.9,10510],[67.9,10593],[67.9,10676],[67.9,10760],[67.9,10843],[67.9,10927],[67.9,11010],[67.9,11094],[67.9,11177],[67.9,11261],[67.9,11344],[67.9,11427],[67.9,11511],[67.9,11595],[67.9,11677],[67.9,11761],[67.9,11845],[67.9,11928],[67.9,12011],[67.9,12095],[67.9,12178],[67.9,12262],[67.9,12345],[67.9,12428],[67.9,12512],[67.9,12595],[67.9,12679],[67.9,12762],[67.9,12845],[67.9,12929],[67.9,13012],[67.9,13096],[67.9,13179],[67.9,13263],[67.9,13346],[67.9,13430],[67.9,13513],[67.9,13596],[67.9,13680],[67.9,13763],[67.9,13847],[67.9,13930],[67.9,14013],[67.9,14097],[67.9,14180],[67.9,14264],[67.9,14347],[67.9,14431],[67.9,14514],[67.9,14597],[69.8,14681],[70.7,14765],[72.4,14848],[78.1,14931],[78.5,15014],[78.5,15098],[78.3,15181],[77.8,15265],[77.2,15349],[76,15431],[75.6,15515],[75.3,15598],[75.3,15682],[75.3,15765],[75.3,15849],[75.3,15932],[75.3,16016],[75.3,16099],[75.3,16182],[74.9,16266],[74.7,16349],[74.4,16432],[74.1,16516],[74,16599],[74,16683],[74,16766],[74,16850],[74,16933],[74,17016],[74,17100],[74,17184]]",1,0,392.128,395.9643,71.14583651,2.2615,"[{""rating"":71.14583651224771,""responseTime"":2.2615000000000123}]",space,3.2951,,395.9645,Not at all,0,395.9662,,,[],,0,7,7,7,1,audio/Narrative7Situation7.wav,audio/Narrative8Situation7.wav,audio/Narrative5Situation7.wav,audio/Narrative6Situation7.wav,5,3,4,5,,,,,,,,,,,,,,,,,,,,,,,,,,,,,,,,,,,,,,,
,,,,,,65f4ab7884f8411c9e11a34e,2024-05-13_12h04.06.775,group3.1-3.2-social-tom,2023.2.2,Win32,58.82352941,65c5074098b851296ff0b7ed,664247df3242596b8f531ae6,,,,,,,,,,,,,,,,,,,,,,,,,,,,,395.9664,1,audio/Narrative7Situation8.wav,397.9832,,397.9833,408.0097,"[[999,0],[999,82],[999,166],[999,249],[999,333],[999,416],[999,500],[999,584],[999,667],[50.1,750],[49.5,834],[49.5,917],[49.5,1000],[49.5,1084],[49.5,1167],[49.5,1250],[49.5,1334],[49.9,1418],[50,1500],[50.3,1585],[50.4,1668],[50.4,1751],[50.4,1835],[50.4,1918],[50.4,2001],[50.4,2085],[50.4,2168],[50.4,2251],[50.4,2335],[50.4,2418],[50.4,2502],[50.4,2585],[50.4,2668],[50.4,2752],[52,2835],[54.2,2919],[57.7,3002],[59.7,3086],[60.8,3169],[61.5,3252],[62.4,3336],[62.9,3419],[63.4,3503],[63.6,3586],[63.9,3670],[64.1,3753],[64.1,3836],[64.1,3920],[64.1,4003],[64.1,4086],[64.1,4170],[64.1,4254],[64.1,4337],[64.1,4420],[64.1,4504],[64.1,4587],[64.1,4671],[64.1,4754],[64.1,4838],[64.1,4921],[64.1,5004],[64.1,5087],[64.1,5171],[64.1,5255],[64.1,5338],[64.1,5421],[64.1,5505],[64.1,5588],[64.1,5671],[64.1,5755],[64.1,5838],[64.1,5922],[64.1,6005],[64.1,6089],[64.1,6172],[64.1,6255],[64.1,6339],[64.3,6422],[64.5,6506],[64.6,6589],[64.6,6672],[65,6756],[65.3,6840],[65.4,6923],[65.4,7006],[65.5,7090],[65.5,7173],[65.5,7256],[65.6,7340],[65.9,7423],[66.1,7507],[66.6,7590],[67,7674],[67.2,7757],[67.6,7841],[67.7,7924],[68.1,8007],[68.6,8090],[69.5,8174],[70.3,8257],[71,8341],[71.3,8425],[71.3,8507],[71.3,8591],[71.3,8674],[71.3,8758],[71.3,8841],[71.3,8925],[71.3,9008],[71.3,9091],[71.3,9175],[71.3,9258],[71.3,9341],[71.3,9425],[71.3,9509],[71.3,9592],[71.3,9675],[71.3,9759],[71.3,9842],[71.3,9926],[71.3,10009]]",1,0,408.0099,413.3486,67.3958381,4.0337,"[{""rating"":67.39583810170492,""responseTime"":4.033700000286103}]",space,4.8046,,413.3487,All the time,100,413.3509,,,[],,0,8,8,8,1,audio/Narrative7Situation8.wav,audio/Narrative8Situation8.wav,audio/Narrative5Situation8.wav,audio/Narrative6Situation8.wav,2,3,3,5,,,,,,,,,,,,,,,,,,,,,,,,,,,,,,,,,,,,,,,
,,,,,,65f4ab7884f8411c9e11a34e,2024-05-13_12h04.06.775,group3.1-3.2-social-tom,2023.2.2,Win32,58.82352941,65c5074098b851296ff0b7ed,664247df3242596b8f531ae6,,,,,,,,,,,,,,,,,,,,,,,,,,,,,413.3511,1,audio/Narrative7Situation9.wav,415.367,,415.367,423.9928,"[[999,0],[999,83],[999,166],[999,250],[999,333],[999,416],[999,500],[999,583],[999,667],[999,750],[52.3,834],[51.1,917],[50.3,1000],[49.7,1084],[49.7,1167],[49.7,1250],[49.7,1334],[50,1417],[50.3,1501],[50.3,1585],[50.3,1668],[50.3,1751],[50.3,1835],[50.3,1918],[50.3,2001],[50.3,2085],[50.3,2168],[50.3,2252],[50.3,2335],[50.3,2418],[50.3,2502],[50.3,2585],[50.3,2669],[50.3,2752],[50.3,2836],[50.3,2919],[53,3003],[55,3086],[58.1,3169],[64.3,3253],[68.4,3337],[69.8,3420],[72.3,3503],[73.4,3586],[74,3670],[74.2,3753],[74.2,3837],[74.2,3920],[74.2,4003],[74.2,4087],[74.2,4170],[74.2,4254],[74.2,4337],[74.2,4420],[74.2,4504],[74.2,4588],[74.2,4671],[74.2,4754],[74.2,4838],[74.2,4921],[74.2,5005],[74.2,5088],[74.2,5171],[74.2,5255],[74.2,5338],[74.2,5421],[74.2,5505],[74.2,5589],[74.2,5672],[74.2,5755],[74.2,5839],[74.2,5922],[74.2,6005],[74.2,6089],[74.2,6173],[74.2,6256],[74.2,6339],[74.2,6423],[74.2,6506],[74.2,6589],[74.2,6673],[74.2,6756],[74.2,6840],[74.2,6923],[74.2,7006],[74.2,7090],[75.8,7173],[77.1,7257],[79.1,7340],[79.7,7423],[79.7,7507],[79.7,7591],[79.7,7674],[79.7,7757],[79.7,7840],[79.7,7924],[79.7,8007],[79.7,8091],[79.7,8174],[79.7,8257],[79.6,8341],[79.6,8425],[79.4,8508],[79.4,8591]]",1,0,423.993,427.2789,76.66666508,1.3728,"[{""rating"":76.66666507720947,""responseTime"":1.3728000001907503}]",space,2.7503,,427.2789,All the time,100,427.2802,,,[],,0,9,9,9,1,audio/Narrative7Situation9.wav,audio/Narrative8Situation9.wav,audio/Narrative5Situation9.wav,audio/Narrative6Situation9.wav,2,3,3,4,,,,,,,,,,,,,,,,,,,,,,,,,,,,,,,,,,,,,,,
,,,,,,65f4ab7884f8411c9e11a34e,2024-05-13_12h04.06.775,group3.1-3.2-social-tom,2023.2.2,Win32,58.82352941,65c5074098b851296ff0b7ed,664247df3242596b8f531ae6,,,,,,,,,,,,,,,,,,,,,,,,,,,,,427.2803,1,audio/Narrative8Situation1.wav,432.2839,,432.284,448.1997,"[[999,5],[999,83],[999,167],[999,250],[999,333],[999,416],[999,500],[999,584],[999,667],[999,750],[999,834],[999,917],[50.9,1001],[51.4,1084],[51.3,1168],[50.1,1251],[49.6,1334],[49.3,1417],[49.3,1501],[49.3,1584],[49.3,1668],[49.5,1751],[49.8,1834],[50,1918],[50,2001],[50,2085],[50,2168],[50,2251],[50,2335],[50,2419],[50,2502],[50,2585],[50,2669],[50,2753],[50,2835],[50,2919],[50,3002],[50,3086],[50,3169],[50,3253],[50,3336],[50,3419],[50,3503],[50,3586],[50,3670],[50,3753],[50,3836],[50,3920],[50,4003],[50,4087],[50,4170],[50,4254],[50,4337],[50,4420],[50,4504],[50,4587],[50,4671],[50,4754],[50,4838],[50.3,4921],[50.5,5005],[50.9,5088],[51.8,5172],[52.6,5255],[55,5338],[56.3,5421],[57.3,5505],[58.2,5588],[59.1,5672],[59.6,5755],[60.4,5839],[62.4,5923],[62.4,6006],[62.4,6089],[62.4,6172],[62.4,6256],[62.4,6339],[62.4,6423],[62.4,6506],[62.4,6589],[62.4,6673],[62.4,6756],[62.4,6839],[62.4,6923],[62.4,7006],[62.4,7090],[62.4,7173],[62.4,7257],[62.4,7340],[62.4,7423],[62.4,7507],[62.4,7590],[62.4,7673],[62.4,7757],[62.4,7840],[62.4,7924],[62.4,8008],[62.4,8091],[62.4,8174],[62.4,8258],[62.4,8341],[62.4,8425],[62.4,8508],[62.4,8591],[62.4,8675],[62.4,8758],[62.4,8841],[62.4,8925],[62.4,9008],[62.4,9092],[62.4,9175],[62.4,9259],[62.4,9342],[62.4,9425],[62.4,9509],[62.4,9593],[62.4,9676],[62.4,9759],[62.4,9842],[62.4,9926],[62.4,10009],[62.4,10093],[62.4,10177],[62.4,10259],[62.4,10343],[62.4,10426],[62.4,10510],[62.4,10593],[63.2,10677],[64,10760],[64.8,10844],[65.4,10928],[65.9,11010],[66.6,11094],[67.7,11178],[67.9,11261],[68.2,11344],[68.8,11427],[70,11511],[70.8,11595],[71.3,11678],[71.4,11761],[71.4,11845],[71.4,11928],[71.4,12011],[71.4,12095],[71.4,12178],[71.4,12262],[71.4,12345],[71.4,12429],[71.5,12512],[71.5,12595],[71.5,12679],[71.5,12762],[71.5,12846],[71.5,12929],[71.5,13012],[71.5,13096],[71.5,13180],[71.5,13263],[71.5,13346],[71.5,13429],[71.5,13513],[71.9,13597],[71.9,13680],[72.1,13763],[72.2,13847],[72.2,13930],[72.2,14014],[72.2,14097],[72.2,14180],[72.2,14264],[72.2,14347],[72.2,14431],[72.2,14514],[72.1,14597],[72,14680],[72,14764],[72,14847],[72,14931],[72,15014],[72,15098],[72,15181],[72,15264],[72,15348],[72,15432],[72,15515],[72,15598],[72,15682],[72,15765],[72,15848]]",1,0,448.1999,452.6042,68.9583381,2.973,"[{""rating"":68.95833810170492,""responseTime"":2.973000000000013}]",space,3.8722,,452.6043,Half the time,50,452.6071,,,[],,0,10,10,10,1,audio/Narrative8Situation1.wav,audio/Narrative7Situation1.wav,audio/Narrative6Situation1.wav,audio/Narrative5Situation1.wav,5,2,2,5,,,,,,,,,,,,,,,,,,,,,,,,,,,,,,,,,,,,,,,
,,,,,,65f4ab7884f8411c9e11a34e,2024-05-13_12h04.06.775,group3.1-3.2-social-tom,2023.2.2,Win32,58.82352941,65c5074098b851296ff0b7ed,664247df3242596b8f531ae6,,,,,,,,,,,,,,,,,,,,,,,,,,,,,452.6073,1,audio/Narrative8Situation2.wav,455.6238,,455.6238,465.7342,"[[999,0],[999,83],[999,167],[999,250],[999,333],[999,417],[999,500],[999,583],[999,667],[49.6,750],[49.6,834],[49.8,917],[49.9,1000],[49.9,1084],[49.9,1168],[49.9,1250],[49.9,1334],[49.9,1418],[49.9,1501],[49.9,1584],[49.9,1668],[49.9,1751],[49.9,1835],[49.9,1919],[49.9,2001],[49.9,2085],[49.9,2168],[49.9,2252],[49.9,2335],[49.9,2419],[49.9,2502],[49.9,2585],[49.9,2669],[49.9,2753],[50.3,2836],[51.3,2919],[52.3,3002],[54.4,3086],[56.6,3169],[60.1,3253],[62,3336],[65.3,3420],[67.2,3503],[69.8,3586],[71.8,3670],[73.4,3754],[74.7,3837],[75.5,3920],[76,4004],[76,4087],[76,4170],[76,4254],[76.1,4337],[76.1,4420],[76.1,4504],[76.1,4588],[76.1,4671],[76.1,4754],[76.1,4838],[76.1,4921],[76.1,5005],[76.1,5088],[76.1,5171],[76.1,5255],[76.1,5338],[76.1,5421],[76.1,5505],[76.1,5588],[76.1,5672],[76.1,5755],[76.1,5839],[76.1,5922],[76.1,6006],[76.1,6089],[76.1,6172],[76.1,6256],[76.1,6339],[76.1,6422],[76.1,6506],[76.1,6589],[76.1,6673],[76.1,6756],[76.1,6840],[76.1,6923],[76.1,7007],[76.1,7090],[76.1,7174],[76.1,7257],[76.1,7340],[76.4,7424],[76.9,7507],[77.1,7591],[77.6,7674],[78.1,7758],[79.2,7841],[80.1,7925],[81.3,8008],[82.1,8091],[82.1,8175],[82.1,8258],[82.1,8341],[82.2,8425],[82.5,8508],[83.1,8591],[83.6,8675],[83.9,8759],[84.3,8842],[84.4,8925],[84.4,9009],[84.4,9092],[84.4,9175],[84.4,9259],[84.4,9342],[84.4,9426],[84.4,9509],[84.4,9593],[84.4,9676],[84.4,9760],[84.3,9843],[84.3,9926],[84.3,10010],[84.3,10093]]",1,0,465.7343,467.8531,83.0208381,1.4917,"[{""rating"":83.02083810170491,""responseTime"":1.4916999998092706}]",space,1.5933,,467.8531,Not at all,0,467.8557,,,[],,0,11,11,11,1,audio/Narrative8Situation2.wav,audio/Narrative7Situation2.wav,audio/Narrative6Situation2.wav,audio/Narrative5Situation2.wav,3,3,3,3,,,,,,,,,,,,,,,,,,,,,,,,,,,,,,,,,,,,,,,
,,,,,,65f4ab7884f8411c9e11a34e,2024-05-13_12h04.06.775,group3.1-3.2-social-tom,2023.2.2,Win32,58.82352941,65c5074098b851296ff0b7ed,664247df3242596b8f531ae6,,,,,,,,,,,,,,,,,,,,,,,,,,,,,467.8559,1,audio/Narrative8Situation3.wav,471.8567,,471.8567,494.2292,"[[999,5],[999,83],[999,166],[999,250],[999,333],[999,417],[999,500],[999,584],[999,667],[999,750],[999,834],[999,917],[999,1001],[999,1084],[999,1167],[999,1251],[999,1334],[999,1418],[999,1501],[999,1585],[999,1668],[999,1751],[999,1835],[999,1918],[999,2001],[999,2085],[999,2168],[999,2252],[999,2335],[999,2419],[999,2502],[999,2585],[999,2669],[999,2752],[999,2836],[999,2919],[999,3002],[999,3086],[999,3169],[999,3253],[999,3336],[999,3419],[999,3503],[999,3587],[999,3670],[999,3753],[999,3837],[999,3920],[73.9,4004],[75.9,4087],[75.9,4170],[75.9,4254],[75.9,4337],[75.9,4421],[75.9,4504],[75.9,4588],[75.9,4671],[75.9,4754],[75.9,4838],[75.9,4921],[75.9,5004],[75.9,5088],[75.9,5171],[75.9,5255],[75.9,5338],[75.9,5422],[75.9,5505],[75.9,5588],[75.9,5672],[75.9,5756],[75.9,5838],[75.9,5922],[75.9,6006],[75.9,6089],[75.9,6172],[75.9,6256],[75.9,6339],[75.9,6423],[75.9,6506],[76.5,6590],[77.8,6673],[79.7,6757],[82.5,6840],[83.2,6923],[84.4,7007],[84.7,7090],[84.9,7173],[84.9,7257],[84.9,7340],[84.9,7424],[84.9,7507],[84.9,7591],[84.9,7674],[84.9,7757],[84.9,7841],[84.9,7924],[84.9,8007],[84.9,8091],[84.9,8174],[84.9,8258],[84.9,8341],[84.9,8425],[84.9,8508],[84.9,8592],[84.9,8675],[84.9,8758],[84.9,8842],[84.9,8925],[84.9,9008],[84.9,9092],[84.9,9175],[84.9,9259],[84.9,9342],[84.9,9425],[84.9,9509],[85.1,9593],[85.3,9676],[85.9,9759],[86.8,9843],[87,9926],[87.3,10010],[87.3,10093],[87.3,10177],[87.3,10259],[87.3,10343],[87.3,10426],[87.3,10510],[87.3,10594],[87.3,10677],[87.3,10761],[87.3,10844],[87.3,10927],[87.2,11011],[87.1,11094],[86.9,11177],[86.9,11261],[86.8,11344],[86.8,11427],[86.8,11511],[86.8,11595],[86.8,11678],[86.8,11761],[86.8,11845],[86.8,11928],[86.8,12012],[86.8,12095],[86.8,12178],[86.8,12262],[86.8,12345],[86.8,12429],[86.8,12512],[86.8,12596],[86.8,12679],[86.8,12762],[86.8,12846],[86.8,12929],[86.8,13012],[86.8,13096],[86.8,13180],[86.8,13263],[86.8,13346],[86.8,13430],[86.8,13513],[86.8,13597],[86.8,13680],[86.8,13763],[86.8,13847],[86.8,13930],[86.8,14014],[86.8,14097],[86.8,14180],[86.8,14264],[86.8,14347],[86.8,14431],[86.8,14514],[86.8,14597],[86.8,14681],[86.8,14764],[86.8,14848],[86.8,14931],[86.8,15015],[86.8,15098],[86.8,15181],[86.8,15265],[86.8,15348],[86.8,15432],[86.8,15515],[86.8,15598],[86.8,15682],[86.8,15766],[86.8,15849],[86.8,15932],[86.8,16015],[86.8,16099],[86.8,16182],[86.8,16266],[86.8,16349],[86.8,16432],[86.8,16516],[86.8,16599],[86.8,16683],[86.8,16766],[86.8,16850],[86.8,16933],[86.8,17016],[86.8,17100],[86.8,17183],[86.8,17267],[86.8,17350],[86.8,17434],[86.7,17517],[86.7,17601],[86.7,17684],[86.7,17767],[86.7,17851],[86.7,17934],[86.7,18017],[86.7,18101],[86.7,18185],[86.7,18268],[86.7,18351],[86.7,18435],[86.7,18518],[86.7,18602],[86.7,18685],[86.7,18768],[86.7,18852],[86.7,18935],[86.7,19018],[86.7,19102],[86.7,19185],[86.7,19269],[86.7,19352],[86.7,19436],[86.7,19519],[86.7,19602],[86.7,19686],[86.7,19769],[86.7,19853],[86.7,19936],[86.7,20020],[86.7,20103],[86.7,20186],[86.7,20270],[86.7,20353],[86.7,20437],[86.7,20520],[86.7,20604],[86.7,20687],[86.7,20770],[86.7,20854],[86.7,20937],[86.7,21021],[86.7,21104],[86.7,21187],[86.7,21271],[86.7,21354],[86.7,21437],[86.7,21521],[86.7,21605],[86.7,21688],[86.7,21771],[86.7,21855],[86.7,21938],[86.7,22021],[86.7,22105],[86.7,22188],[86.7,22272],[86.7,22355]]",1,0,494.2294,500.4353,86.56250636,1.5547,"[{""rating"":86.56250635782878,""responseTime"":1.5547000002861182}]",space,5.6742,,500.4354,Half the time,50,500.4422,,,[],,0,12,12,12,1,audio/Narrative8Situation3.wav,audio/Narrative7Situation3.wav,audio/Narrative6Situation3.wav,audio/Narrative5Situation3.wav,4,8,5,3,,,,,,,,,,,,,,,,,,,,,,,,,,,,,,,,,,,,,,,
,,,,,,65f4ab7884f8411c9e11a34e,2024-05-13_12h04.06.775,group3.1-3.2-social-tom,2023.2.2,Win32,58.82352941,65c5074098b851296ff0b7ed,664247df3242596b8f531ae6,,,,,,,,,,,,,,,,,,,,,,,,,,,,,500.4424,1,audio/Narrative8Situation4.wav,503.455,,503.455,517.6196,"[[999,5],[999,83],[999,167],[999,250],[999,333],[999,417],[999,500],[999,584],[999,667],[999,750],[999,834],[999,918],[999,1001],[999,1084],[999,1167],[999,1250],[999,1334],[999,1417],[999,1501],[999,1585],[999,1668],[999,1751],[999,1835],[999,1918],[999,2002],[999,2085],[999,2169],[999,2253],[999,2336],[999,2419],[999,2502],[999,2586],[999,2669],[999,2752],[999,2836],[999,2919],[999,3002],[999,3086],[999,3169],[999,3253],[999,3336],[999,3419],[999,3503],[999,3586],[999,3670],[51.5,3753],[51.5,3837],[50.7,3920],[50.3,4003],[50.3,4087],[50.3,4171],[50.3,4254],[50.7,4337],[51,4420],[51.4,4504],[52,4587],[53.6,4671],[56,4754],[59.8,4837],[60.8,4921],[60.9,5005],[60.9,5088],[60.9,5171],[60.9,5254],[60.9,5338],[60.9,5422],[60.9,5505],[60.9,5588],[60.9,5672],[60.9,5755],[60.9,5839],[60.9,5922],[60.9,6005],[60.9,6089],[60.9,6173],[60.9,6257],[60.9,6339],[60.9,6423],[60.9,6506],[60.9,6589],[60.9,6673],[60.9,6756],[60.9,6839],[60.9,6923],[60.9,7007],[60.9,7090],[60.9,7173],[60.9,7257],[60.9,7340],[60.9,7424],[60.9,7507],[60.9,7590],[63.4,7674],[64.8,7757],[65.9,7841],[67,7924],[67.7,8008],[68.4,8091],[69.1,8174],[69.3,8258],[69.6,8342],[70,8425],[70.6,8508],[70.8,8591],[71.4,8675],[71.4,8758],[71.4,8842],[71.4,8925],[71.4,9008],[71.4,9092],[71.6,9175],[71.6,9259],[71.6,9342],[71.6,9426],[71.6,9509],[71.6,9592],[71.6,9676],[71.6,9759],[71.6,9843],[71.6,9926],[71.6,10009],[71.6,10093],[71.6,10176],[71.6,10259],[71.6,10343],[71.6,10426],[71.6,10510],[71.6,10593],[71.6,10677],[71.6,10760],[71.6,10844],[71.6,10927],[71.6,11010],[71.6,11094],[71.6,11177],[71.6,11260],[71.6,11344],[71.6,11427],[71.6,11511],[71.6,11594],[71.6,11678],[71.6,11761],[71.6,11845],[71.6,11928],[71.6,12011],[71.6,12095],[71.6,12178],[71.6,12262],[71.8,12345],[71.9,12428],[72.3,12512],[72.4,12596],[72.7,12679],[72.9,12762],[73.2,12846],[73.6,12929],[74,13012],[74.8,13096],[76,13179],[76.6,13263],[76.8,13346],[76.8,13429],[76.8,13513],[76.8,13597],[76.8,13680],[76.8,13763],[76.8,13847],[76.8,13930],[76.8,14014],[76.8,14097]]",1,0,517.6197,520.1887,72.91666667,1.1763,"[{""rating"":72.91666666666666,""responseTime"":1.1763000001907358}]",space,2.0192,,520.1887,Not at all,0,520.1905,,,[],,0,13,13,13,1,audio/Narrative8Situation4.wav,audio/Narrative7Situation4.wav,audio/Narrative6Situation4.wav,audio/Narrative5Situation4.wav,3,3,2,1,,,,,,,,,,,,,,,,,,,,,,,,,,,,,,,,,,,,,,,
,,,,,,65f4ab7884f8411c9e11a34e,2024-05-13_12h04.06.775,group3.1-3.2-social-tom,2023.2.2,Win32,58.82352941,65c5074098b851296ff0b7ed,664247df3242596b8f531ae6,,,,,,,,,,,,,,,,,,,,,,,,,,,,,520.1907,1,audio/Narrative8Situation5.wav,522.2073,,522.2074,530.4653,"[[999,0],[999,82],[999,166],[999,250],[999,333],[999,416],[999,500],[999,583],[999,666],[999,750],[999,833],[999,917],[999,1000],[999,1084],[999,1167],[999,1250],[999,1334],[999,1417],[999,1501],[999,1584],[999,1667],[999,1751],[999,1835],[999,1918],[999,2001],[999,2084],[999,2168],[999,2251],[999,2335],[999,2418],[999,2502],[999,2585],[999,2668],[999,2752],[999,2836],[999,2919],[999,3002],[999,3086],[999,3169],[999,3253],[999,3336],[999,3419],[999,3503],[999,3586],[999,3670],[999,3753],[999,3836],[999,3920],[999,4003],[999,4086],[999,4170],[999,4253],[999,4337],[999,4421],[999,4504],[999,4587],[999,4670],[81.5,4754],[82.1,4837],[82.7,4921],[83,5004],[83.1,5087],[83.3,5171],[84.1,5255],[84.5,5338],[85.4,5421],[85.6,5505],[85.9,5588],[86.4,5671],[86.8,5755],[87.3,5838],[87.4,5922],[87.6,6005],[87.8,6089],[87.8,6172],[87.8,6255],[87.8,6339],[87.8,6422],[87.8,6506],[87.8,6589],[87.8,6672],[87.8,6756],[87.8,6840],[87.8,6922],[87.8,7006],[87.8,7090],[87.8,7173],[87.8,7256],[87.8,7340],[87.8,7423],[87.8,7507],[87.8,7590],[87.8,7674],[87.8,7757],[87.8,7840],[87.4,7924],[86.9,8007],[86.6,8091],[86,8174],[85.6,8257]]",1,0,530.4653,532.4677,83.33333333,0.9909,"[{""rating"":83.33333333333333,""responseTime"":0.9909000000953938}]",space,1.469,,532.4678,Not at all,0,532.4689,,,[],,0,14,14,14,1,audio/Narrative8Situation5.wav,audio/Narrative7Situation5.wav,audio/Narrative6Situation5.wav,audio/Narrative5Situation5.wav,2,5,2,5,,,,,,,,,,,,,,,,,,,,,,,,,,,,,,,,,,,,,,,
,,,,,,65f4ab7884f8411c9e11a34e,2024-05-13_12h04.06.775,group3.1-3.2-social-tom,2023.2.2,Win32,58.82352941,65c5074098b851296ff0b7ed,664247df3242596b8f531ae6,,,,,,,,,,,,,,,,,,,,,,,,,,,,,532.4691,1,audio/Narrative8Situation6.wav,534.4695,,534.4696,540.9426,"[[999,0],[999,83],[999,166],[999,249],[999,333],[999,416],[999,500],[999,583],[999,666],[999,750],[999,833],[999,917],[999,1000],[999,1084],[999,1168],[999,1251],[999,1334],[999,1417],[999,1501],[999,1584],[999,1668],[999,1751],[999,1835],[999,1918],[999,2001],[999,2084],[999,2168],[999,2251],[999,2335],[999,2418],[999,2502],[999,2585],[999,2669],[999,2752],[999,2835],[999,2919],[999,3003],[999,3086],[82.3,3169],[82.6,3252],[82.7,3336],[82.7,3419],[82.7,3503],[82.7,3586],[82.7,3669],[82.7,3753],[82.7,3836],[82.7,3920],[82.7,4003],[82.7,4087],[82.7,4170],[82.7,4254],[82.7,4337],[82.7,4420],[82.7,4504],[82.7,4587],[82.7,4670],[82.7,4754],[82.7,4838],[82.7,4921],[82.7,5004],[82.7,5088],[82.7,5171],[82.7,5254],[82.7,5338],[82.7,5422],[82.7,5505],[82.7,5588],[82.9,5671],[82.9,5755],[82.9,5838],[82.9,5922],[82.9,6005],[82.9,6089],[82.9,6172],[82.9,6255],[82.9,6339],[82.9,6423]]",1,0,540.9428,543.0782,82.91666508,1.2583,"[{""rating"":82.91666507720947,""responseTime"":1.2583000001907294}]",space,1.6011,,543.0783,Half the time,50,543.0808,,,[],,0,15,15,15,1,audio/Narrative8Situation6.wav,audio/Narrative7Situation6.wav,audio/Narrative6Situation6.wav,audio/Narrative5Situation6.wav,2,3,2,3,,,,,,,,,,,,,,,,,,,,,,,,,,,,,,,,,,,,,,,
,,,,,,65f4ab7884f8411c9e11a34e,2024-05-13_12h04.06.775,group3.1-3.2-social-tom,2023.2.2,Win32,58.82352941,65c5074098b851296ff0b7ed,664247df3242596b8f531ae6,,,,,,,,,,,,,,,,,,,,,,,,,,,,,543.081,1,audio/Narrative8Situation7.wav,546.0973,,546.0974,558.1764,"[[82,4754],[81.9,4838],[81.9,4921],[81.9,5005],[81.9,5088],[81.9,5171],[81.9,5255],[81.9,5338],[81.9,5422],[81.9,5505],[81.9,5589],[81.9,5672],[81.9,5756],[81.9,5839],[81.9,5922],[81.9,6006],[81.9,6090],[81.9,6173],[81.9,6256],[81.9,6339],[81.9,6423],[81.9,6506],[81.9,6590],[81.9,6673],[81.9,6756],[81.9,6840],[81.9,6924],[81.9,7007],[81.9,7090],[81.9,7174],[81.9,7257],[81.9,7340],[81.9,7424],[81.9,7507],[81.9,7590],[81.9,7674],[81.9,7757],[81.9,7841],[81.9,7924],[81.9,8008],[81.9,8091],[81.9,8175],[81.9,8258],[81.9,8341],[81.9,8425],[81.9,8508],[81.9,8592],[81.9,8675],[81.9,8758],[81.9,8842],[81.9,8925],[81.9,9009],[81.9,9092],[81.9,9175],[81.9,9259],[81.9,9342],[81.9,9426],[81.9,9509],[81.9,9593],[81.9,9676],[81.9,9759],[81.9,9843],[81.9,9926],[81.9,10010],[81.9,10093],[81.9,10176],[81.9,10260],[81.7,10343],[81.7,10427],[81.7,10510],[81.7,10593],[81.7,10677],[81.7,10761],[81.7,10844],[81.7,10927],[81.7,11011],[81.7,11094],[81.7,11177],[81.7,11261],[81.7,11345],[81.7,11427],[81.7,11511],[81.7,11594],[81.7,11678],[81.7,11762],[81.7,11845],[81.7,11928],[81.7,12012]]",1,0,558.1764,560.5289,80.62500159,1.1875,"[{""rating"":80.6250015894572,""responseTime"":1.1875}]",space,1.8324,,560.529,Not at all,0,560.5309,,,[],,0,16,16,16,1,audio/Narrative8Situation7.wav,audio/Narrative7Situation7.wav,audio/Narrative6Situation7.wav,audio/Narrative5Situation7.wav,3,5,5,4,,,,,,,,,,,,,,,,,,,,,,,,,,,,,,,,,,,,,,,
,,,,,,65f4ab7884f8411c9e11a34e,2024-05-13_12h04.06.775,group3.1-3.2-social-tom,2023.2.2,Win32,58.82352941,65c5074098b851296ff0b7ed,664247df3242596b8f531ae6,,,,,,,,,,,,,,,,,,,,,,,,,,,,,560.531,1,audio/Narrative8Situation8.wav,563.5317,,563.5317,576.3777,"[[999,5],[999,83],[999,166],[999,250],[999,333],[999,417],[999,500],[999,583],[999,667],[999,750],[999,833],[999,917],[999,1001],[999,1084],[999,1168],[999,1251],[999,1334],[999,1417],[999,1501],[999,1585],[999,1668],[999,1751],[999,1835],[999,1918],[999,2001],[999,2085],[76.6,2168],[76.8,2252],[76.8,2335],[76.8,2419],[76.8,2502],[76.8,2585],[76.7,2669],[75.8,2752],[72.6,2836],[69.4,2919],[67.1,3003],[65.8,3086],[64.8,3169],[63.6,3253],[63.5,3336],[63.5,3419],[63.5,3503],[63.5,3586],[63.5,3670],[63.5,3753],[63.5,3837],[63.4,3920],[63.3,4003],[63.3,4087],[63.3,4170],[63.3,4254],[63.3,4337],[63.3,4420],[63.3,4504],[63.3,4587],[63.3,4671],[68.1,4754],[72.7,4837],[76.6,4921],[78.6,5004],[80.7,5088],[82.3,5171],[84.8,5255],[84.9,5338],[84.9,5422],[84.9,5505],[84.9,5588],[84.9,5672],[84.9,5755],[84.9,5838],[84.9,5922],[84.9,6006],[84.9,6089],[84.9,6172],[84.9,6256],[84.9,6339],[84.9,6422],[84.9,6506],[84.9,6589],[84.9,6673],[84.9,6756],[84.9,6839],[84.9,6923],[84.9,7006],[84.9,7090],[84.9,7173],[84.9,7256],[84.9,7340],[84.9,7424],[84.9,7507],[84.9,7591],[84.9,7674],[84.7,7757],[84.5,7841],[84.5,7924],[84.5,8007],[84.5,8091],[84.5,8175],[84.5,8258],[84.5,8341],[84.5,8424],[84.5,8508],[84.5,8591],[84.5,8675],[84.5,8758],[84.5,8842],[84.5,8925],[84.2,9009],[84,9092],[84,9176],[84,9259],[84,9342],[84,9426],[84,9509],[84.1,9592],[84.2,9676],[84.2,9759],[84.2,9842],[84.2,9926],[84.2,10010],[84.3,10092],[84.3,10176],[84.3,10260],[84.3,10343],[84.3,10426],[84.3,10510],[84.3,10593],[84.3,10677],[84.3,10760],[84.3,10843],[84.3,10927],[84.3,11010],[84.3,11094],[84.3,11177],[84.3,11261],[84.3,11344],[84.3,11427],[84.3,11511],[84.3,11594],[84.3,11678],[84.3,11761],[84.3,11844],[84.3,11928],[84.3,12012],[84.3,12095],[84.3,12178],[84.3,12262],[84.3,12345],[84.3,12428],[84.3,12512],[84.3,12595],[84.3,12679],[84.3,12762],[84.3,12845]]",1,0,576.3777,577.8458,84.27084287,0.9308,"[{""rating"":84.27084287007649,""responseTime"":0.930800000190743}]",space,0.9413,,577.8459,Half the time,50,577.8483,,,[],,0,17,17,17,1,audio/Narrative8Situation8.wav,audio/Narrative7Situation8.wav,audio/Narrative6Situation8.wav,audio/Narrative5Situation8.wav,3,2,5,3,,,,,,,,,,,,,,,,,,,,,,,,,,,,,,,,,,,,,,,
,,,,,,65f4ab7884f8411c9e11a34e,2024-05-13_12h04.06.775,group3.1-3.2-social-tom,2023.2.2,Win32,58.82352941,65c5074098b851296ff0b7ed,664247df3242596b8f531ae6,,,,,,,,,,,,,,,,,,,,,,,,,,,,,577.8485,1,audio/Narrative8Situation9.wav,580.8491,,580.8491,592.1602,"[[999,6],[999,83],[999,166],[999,250],[999,333],[999,416],[999,500],[999,584],[999,667],[999,750],[999,833],[999,917],[999,1001],[999,1084],[55.8,1167],[56.3,1251],[56,1334],[54.3,1417],[53.2,1501],[53.2,1584],[53.2,1668],[53.2,1751],[53.2,1834],[53.2,1918],[53.2,2001],[53.2,2085],[53.2,2168],[53.2,2252],[53.2,2335],[53.2,2418],[53.2,2502],[53.2,2585],[53.9,2669],[53.9,2752],[54,2835],[54,2919],[54,3003],[54,3085],[55.9,3169],[58.8,3253],[61.5,3336],[64.6,3419],[67.7,3503],[69.5,3586],[70.8,3670],[71.8,3753],[71.9,3836],[71.9,3920],[71.9,4003],[71.9,4086],[71.9,4170],[71.9,4254],[71.9,4337],[71.9,4420],[71.9,4504],[71.9,4587],[71.9,4671],[71.9,4754],[71.9,4837],[71.9,4921],[71.9,5004],[71.9,5088],[71.9,5171],[71.9,5254],[71.9,5338],[71.9,5421],[71.9,5505],[71.9,5588],[71.9,5672],[71.9,5755],[71.9,5838],[71.9,5922],[71.9,6005],[71.9,6089],[71.9,6172],[71.9,6255],[71.9,6339],[71.9,6422],[71.9,6506],[71.9,6589],[71.9,6673],[71.9,6756],[71.9,6840],[71.9,6923],[71.9,7006],[71.9,7090],[71.9,7173],[71.9,7256],[72.6,7340],[73.3,7424],[74.7,7507],[76,7590],[76,7674],[76,7757],[76,7841],[76,7924],[76,8007],[76,8091],[76,8174],[76,8258],[76,8341],[76,8425],[76,8507],[76,8591],[76,8675],[76,8758],[76,8841],[76,8925],[76,9009],[76,9092],[76,9175],[76,9259],[76,9342],[76,9425],[76,9509],[76,9592],[76,9675],[76,9759],[76,9843],[76,9926],[76,10009],[76,10093],[76,10176],[76,10260],[76,10343],[76,10426],[76,10510],[76,10593],[76,10677],[76,10760],[76.3,10844],[77.1,10927],[77.1,11010],[77.1,11094],[77.1,11177],[77.5,11260]]",1,0,592.1603,594.1289,77.50000159,0.7533,"[{""rating"":77.5000015894572,""responseTime"":0.753300000190734}]",space,1.4457,,594.1289,Half the time,50,604.0889,49.79166985,7.0934,"[{""rating"":49.791669845581055,""responseTime"":7.093399999618555}]",space,0,18,18,18,1,audio/Narrative8Situation9.wav,audio/Narrative7Situation9.wav,audio/Narrative6Situation9.wav,audio/Narrative5Situation9.wav,3,2,4,3,,,9.4389,,,,,,,,,,,,,,,,,,,,,,,,,,,,,,,,,,,,
,,,,,,65f4ab7884f8411c9e11a34e,2024-05-13_12h04.06.775,group3.1-3.2-social-tom,2023.2.2,Win32,58.82352941,65c5074098b851296ff0b7ed,664247df3242596b8f531ae6,,,,,,,,,,,,,,,,,,,,,,,,,,,625.2778,627.8457,627.8529,2,audio/Narrative13Situation2.wav,627.8529,,627.853,657.6092,"[[999,0],[999,76],[999,159],[999,243],[999,326],[999,409],[999,493],[999,576],[999,659],[999,743],[999,826],[999,910],[999,993],[999,1077],[999,1160],[999,1243],[999,1327],[999,1410],[999,1494],[999,1577],[999,1660],[999,1744],[999,1828],[56.9,1911],[56.5,1994],[54.8,2078],[53.5,2161],[52.3,2245],[51.8,2328],[51.4,2411],[50.2,2495],[50.1,2578],[50.1,2662],[50.1,2745],[50.1,2828],[50.2,2912],[50.4,2995],[50.5,3079],[50.6,3162],[50.6,3246],[50.6,3329],[50.6,3413],[50.6,3496],[50.6,3579],[50.6,3663],[50.6,3746],[50.6,3829],[50.6,3913],[50.6,3996],[50.6,4080],[50.6,4163],[50.6,4246],[50.6,4330],[50.6,4414],[50.6,4497],[50.6,4580],[50.6,4663],[50.6,4747],[50.6,4830],[50.6,4914],[50.6,4997],[50.6,5081],[50.6,5164],[50.6,5248],[50.6,5331],[50.6,5414],[50.6,5498],[50.6,5581],[50.6,5665],[50.6,5748],[50.6,5832],[52.8,5915],[56.3,5998],[57.8,6082],[60.2,6165],[62,6249],[62,6332],[62.2,6416],[62.2,6499],[62.2,6582],[62.2,6666],[62.2,6749],[62.2,6833],[62.2,6916],[62.2,6999],[62.2,7083],[62.2,7166],[62.2,7249],[62.2,7333],[62.2,7416],[62.2,7500],[62.2,7583],[62.2,7667],[62.2,7750],[62.2,7833],[62.2,7917],[62.2,8000],[62.2,8084],[62.2,8167],[62.2,8250],[62.2,8334],[62.2,8417],[62.2,8501],[62.2,8585],[62.2,8668],[62.2,8752],[62.2,8835],[62.2,8918],[62.2,9001],[62.2,9085],[62.2,9168],[62.2,9252],[62.2,9335],[62.2,9418],[62.2,9502],[62.2,9585],[62.2,9668],[62.2,9752],[62.2,9835],[62.2,9919],[62.2,10003],[62.2,10086],[62.2,10169],[62.2,10253],[62.2,10336],[62.2,10419],[64,10503],[65.5,10586],[66,10670],[66.6,10753],[66.9,10836],[67,10920],[67.2,11004],[67.4,11086],[67.7,11170],[68.1,11254],[69.2,11337],[70.1,11420],[70.7,11504],[71.1,11587],[71.7,11671],[71.8,11754],[71.9,11837],[72.2,11921],[72.4,12004],[72.4,12088],[72.6,12171],[72.6,12255],[72.6,12338],[72.6,12422],[72.6,12505],[72.6,12588],[72.6,12672],[72.6,12755],[72.6,12838],[72.6,12922],[72.6,13005],[72.6,13088],[72.6,13172],[72.6,13255],[72.6,13339],[72.6,13423],[72.7,13506],[72.9,13589],[73,13673],[73.1,13756],[73.1,13839],[73.1,13923],[73.1,14006],[73.1,14090],[73.1,14173],[73.1,14256],[73.1,14340],[73.1,14423],[73.1,14506],[73.1,14590],[73.1,14674],[73.1,14757],[73.1,14840],[73.1,14924],[73.1,15007],[73.1,15091],[73.1,15174],[73.1,15258],[73.1,15341],[73.1,15424],[73.1,15508],[73.1,15591],[73.1,15675],[73.1,15758],[73.1,15842],[73.1,15925],[73.1,16009],[73.1,16092],[73.1,16175],[73.1,16259],[73.1,16342],[73.1,16425],[73.1,16509],[73.1,16592],[73.1,16676],[73.1,16759],[73.1,16842],[73.1,16926],[73.1,17009],[73.1,17093],[73.1,17176],[73.1,17259],[73.1,17343],[73.1,17427],[73.1,17510],[73.1,17593],[73.1,17677],[73.1,17760],[73.1,17843],[73,17927],[73,18010],[73,18094],[72.8,18177],[72.8,18260],[72.8,18344],[72.8,18427],[72.7,18511],[72.7,18595],[72.7,18678],[72.7,18761],[72.6,18845],[72,18928],[71.3,19012],[70.4,19095],[69.7,19179],[69.3,19262],[69.2,19345],[69.2,19428],[69.2,19512],[69.2,19595],[69.2,19679],[69.2,19762],[69.2,19846],[69.2,19929],[69.2,20012],[69.2,20096],[69.2,20179],[69.2,20262],[69.2,20346],[69.2,20429],[69.2,20513],[69.2,20596],[70.7,20680],[71.9,20763],[72.6,20847],[73.3,20930],[73.9,21013],[74.3,21097],[74.5,21180],[74.5,21264],[74.8,21347],[75,21430],[75.2,21514],[75.3,21597],[75.3,21680],[75.3,21764],[75.3,21848],[75.3,21931],[75.3,22014],[75.3,22097],[75.3,22181],[75.3,22264],[75.3,22348],[75.3,22432],[75.3,22515],[75.3,22598],[75.3,22681],[75.3,22765],[75.3,22849],[75.3,22932],[75.3,23015],[75.3,23099],[75.3,23182],[75.3,23265],[75.3,23349],[75.3,23433],[75.3,23516],[75.3,23599],[75.3,23682],[75.3,23766],[75.3,23849],[75.3,23933],[75.3,24016],[75.3,24100],[75.3,24183],[75.3,24266],[75.3,24350],[75.3,24433],[75.3,24517],[75.3,24600],[75.3,24684],[75.7,24767],[76.6,24851],[76.9,24934],[77.4,25017],[77.5,25101],[77.5,25184],[77.5,25268],[77.5,25351],[77.5,25435],[77.5,25518],[77.5,25601],[77.5,25685],[77.5,25768],[77.5,25852],[77.5,25935],[77.5,26018],[77.5,26102],[77.5,26185],[77.5,26269],[77.5,26352],[77.5,26435],[77.5,26519],[77.5,26602],[77.5,26686],[77.5,26769],[77.5,26853],[77.5,26936],[77.5,27019],[77.5,27103],[77.5,27186],[77.5,27269],[77.5,27353],[77.5,27436],[77.5,27520],[77.5,27603],[77.5,27687],[77.5,27770],[77.5,27854],[77.5,27937],[77.5,28020],[77.5,28104],[77.5,28187],[77.5,28270],[77.5,28354],[77.5,28437],[77.5,28520],[77.5,28604],[77.5,28688],[77.5,28771],[77.5,28855],[77.5,28938],[77.5,29021],[77.4,29105],[77.2,29188],[77.2,29272],[77.2,29355],[77,29438],[77,29522],[77,29605],[77,29689]]",1,0,657.6095,657.6106,,,[],,,,657.6106,Half the time,50,657.6116,,,[],,0,0,0,0,1,audio/Narrative13Situation2.wav,audio/Narrative13Situation2.wav,audio/Narrative13Situation2.wav,audio/Narrative13Situation2.wav,2,2,2,2,,,,,604.09,625.2775,space,20.6548,,,,,,,,,,,,,,,,,,,,,,,,,,,,,,,
,,,,,,65f4ab7884f8411c9e11a34e,2024-05-13_12h04.06.775,group3.1-3.2-social-tom,2023.2.2,Win32,58.82352941,65c5074098b851296ff0b7ed,664247df3242596b8f531ae6,,,,,,,,,,,,,,,,,,,,,,,,,,,,,657.6117,2,audio/Narrative5Situation1.wav,662.6137,,662.6137,675.8937,"[[999,5],[999,83],[999,167],[999,250],[999,333],[999,417],[999,501],[999,584],[999,667],[999,750],[999,834],[999,918],[999,1001],[999,1084],[999,1168],[999,1251],[999,1334],[50.4,1418],[50.1,1502],[49.9,1585],[49.9,1668],[49.9,1751],[49.9,1835],[49.9,1918],[49.9,2002],[49.9,2085],[49.9,2168],[49.9,2252],[49.9,2335],[49.9,2419],[50,2502],[50,2585],[50.3,2669],[50.3,2753],[50.3,2836],[50.3,2919],[50.3,3002],[50.3,3086],[50.3,3169],[50.3,3254],[50.3,3336],[50.3,3419],[50.3,3503],[50.3,3586],[50.3,3670],[50.3,3754],[50.3,3837],[50.3,3920],[50.3,4004],[50.3,4087],[50.3,4171],[50.3,4254],[50.3,4337],[50.3,4421],[50.3,4504],[50.8,4587],[51.7,4671],[52.1,4754],[52.8,4838],[56.6,4921],[58.9,5005],[60.6,5088],[61.5,5171],[62.5,5255],[63.2,5338],[63.4,5422],[64,5505],[64.1,5589],[64.4,5672],[64.4,5755],[64.4,5839],[64.4,5922],[64.4,6006],[64.4,6089],[64.4,6173],[64.4,6256],[64.4,6340],[64.4,6423],[64.4,6506],[64.4,6589],[64.4,6673],[64.4,6757],[64.4,6840],[64.4,6924],[64.4,7007],[64.4,7090],[64.4,7174],[64.4,7258],[64.4,7340],[64.4,7424],[64.4,7507],[64.4,7591],[64.4,7674],[64.4,7758],[64.4,7841],[64.4,7924],[64.4,8008],[64.4,8091],[64.4,8175],[64.4,8258],[64.4,8341],[64.4,8424],[64.4,8508],[64.4,8592],[64.4,8675],[64.4,8758],[64.4,8842],[64.4,8925],[64.4,9009],[64.4,9092],[64.4,9176],[64.4,9259],[64.4,9342],[64.4,9426],[64.4,9509],[64.4,9593],[64.4,9676],[64.4,9759],[64.4,9843],[64.4,9926],[64.4,10010],[64.4,10093],[64.4,10177],[64.4,10260],[64.4,10344],[64.4,10427],[64.4,10510],[64.4,10594],[64.4,10677],[64.4,10760],[64.4,10844],[64.4,10927],[64.4,11011],[64.4,11094],[64.4,11177],[64.4,11262],[64.4,11344],[64.6,11428],[65.8,11511],[66.5,11595],[67.2,11678],[67.7,11762],[68.8,11845],[71,11928],[71.6,12012],[72.3,12095],[72.8,12179],[73.3,12262],[73.9,12345],[74.3,12429],[74.4,12512],[74.4,12595],[74.4,12679],[74.4,12763],[74.4,12846],[74.4,12929],[74.4,13013],[74.4,13096],[74.4,13180],[74.4,13263]]",1,0,675.8939,684.1189,71.77083492,7.6098,"[{""rating"":67.91667143503824,""responseTime"":3.316000000000031},{""rating"":71.77083492279053,""responseTime"":7.609799999713914}]",space,7.692,,684.1189,Half the time,50,684.1204,,,[],,0,1,1,1,1,audio/Narrative7Situation1.wav,audio/Narrative8Situation1.wav,audio/Narrative5Situation1.wav,audio/Narrative6Situation1.wav,2,5,5,2,,,,,,,,,,,,,,,,,,,,,,,,,,,,,,,,,,,,,,,
,,,,,,65f4ab7884f8411c9e11a34e,2024-05-13_12h04.06.775,group3.1-3.2-social-tom,2023.2.2,Win32,58.82352941,65c5074098b851296ff0b7ed,664247df3242596b8f531ae6,,,,,,,,,,,,,,,,,,,,,,,,,,,,,684.1207,2,audio/Narrative5Situation2.wav,687.1218,,687.1219,716.5843,"[[999,0],[999,83],[999,166],[999,249],[999,333],[999,416],[999,500],[999,584],[999,667],[999,750],[999,834],[999,917],[999,1000],[999,1084],[999,1167],[999,1251],[999,1335],[999,1417],[999,1501],[999,1584],[999,1668],[999,1751],[999,1834],[999,1918],[999,2001],[999,2085],[999,2168],[999,2252],[999,2335],[999,2419],[999,2502],[999,2585],[54.1,2669],[52.6,2752],[52.3,2836],[52.3,2919],[52.3,3003],[52.3,3086],[52.3,3169],[52.3,3253],[52.3,3336],[52.3,3419],[52.3,3503],[52.3,3586],[52.3,3670],[52.3,3753],[52.3,3836],[52.3,3920],[52.3,4003],[52.3,4087],[55.5,4170],[58.1,4254],[59.9,4337],[62.9,4420],[64.5,4504],[64.5,4587],[64.5,4670],[64.5,4754],[64.5,4837],[64.5,4921],[64.5,5004],[64.5,5087],[64.5,5171],[64.5,5254],[64.5,5338],[64.5,5422],[64.5,5505],[64.5,5588],[64.5,5672],[64.5,5755],[64.5,5838],[64.5,5922],[64.5,6006],[64.5,6089],[64.5,6172],[64.5,6256],[64.5,6339],[64.5,6423],[64.5,6506],[64.5,6589],[64.5,6672],[64.5,6756],[64.5,6840],[64.5,6923],[64.5,7006],[64.5,7090],[64.5,7173],[64.5,7257],[64.5,7340],[64.5,7423],[64.5,7507],[64.5,7590],[64.5,7674],[64.5,7757],[64.5,7841],[64.5,7924],[64.5,8007],[64.5,8090],[64.5,8174],[64.5,8258],[64.5,8341],[64.5,8424],[64.5,8508],[64.5,8591],[64.5,8675],[64.5,8758],[64.5,8842],[64.5,8925],[64.5,9009],[64.5,9091],[64.5,9175],[64.5,9258],[64.5,9342],[64.5,9426],[64.5,9509],[64.5,9592],[64.5,9676],[64.5,9759],[64.5,9843],[64.5,9926],[64.5,10009],[64.5,10093],[65.5,10176],[67.7,10260],[69.2,10343],[69.7,10426],[69.7,10510],[69.7,10593],[69.7,10677],[69.7,10760],[69.7,10844],[69.7,10927],[69.7,11010],[69.7,11094],[69.7,11177],[69.7,11261],[69.7,11344],[69.7,11427],[69.7,11511],[69.7,11595],[69.7,11678],[69.7,11761],[69.7,11845],[69.7,11928],[69.7,12011],[69.7,12095],[69.7,12178],[69.7,12261],[69.7,12345],[69.7,12428],[69.7,12512],[69.7,12595],[69.7,12679],[69.7,12762],[69.7,12846],[69.7,12929],[69.7,13012],[69.7,13096],[69.7,13179],[69.7,13262],[69.7,13346],[69.7,13430],[69.7,13513],[69.7,13596],[69.7,13680],[69.7,13763],[69.7,13847],[69.7,13930],[69.8,14013],[69.8,14097],[69.8,14180],[69.8,14264],[69.8,14347],[69.8,14430],[69.8,14514],[69.8,14598],[69.8,14681],[69.8,14764],[69.8,14848],[69.8,14931],[69.8,15014],[69.8,15098],[69.8,15181],[69.8,15265],[69.8,15348],[69.8,15431],[69.8,15515],[69.8,15598],[69.8,15681],[70.8,15765],[71.3,15848],[71.4,15932],[71.9,16015],[72.8,16099],[73.4,16182],[74.2,16266],[74.5,16349],[74.8,16432],[75,16516],[75.4,16600],[75.8,16682],[76.3,16766],[76.6,16850],[76.9,16933],[77.1,17016],[77.4,17100],[77.5,17183],[77.6,17266],[77.6,17350],[77.6,17433],[77.6,17517],[77.6,17600],[77.6,17684],[77.6,17767],[77.6,17850],[77.6,17934],[77.6,18017],[77.6,18101],[77.6,18184],[77.6,18268],[77.6,18351],[77.6,18435],[77.6,18518],[77.6,18601],[77.6,18685],[77.6,18768],[77.6,18851],[77.6,18935],[77.6,19018],[77.6,19102],[77.6,19185],[77.6,19268],[77.6,19352],[77.6,19435],[77.6,19519],[77.6,19602],[77.6,19686],[77.6,19769],[77.6,19853],[77.6,19936],[77.6,20019],[77.6,20102],[77.6,20186],[77.6,20270],[77.6,20353],[77.6,20436],[77.6,20520],[77.6,20603],[77.6,20687],[77.6,20770],[77.6,20853],[77.6,20937],[77.6,21020],[77.6,21104],[77.6,21187],[77.6,21270],[77.6,21354],[77.6,21437],[77.6,21521],[77.6,21604],[77.6,21688],[77.6,21771],[77.6,21854],[77.6,21938],[77.6,22022],[77.6,22105],[77.6,22188],[77.6,22271],[77.6,22355],[77.6,22438],[77.6,22522],[77.6,22606],[77.6,22689],[77.6,22772],[77.6,22856],[77.6,22939],[77.6,23022],[77.6,23106],[77.6,23189],[77.6,23273],[77.6,23356],[77.6,23440],[77.6,23523],[77.6,23606],[77.6,23690],[77.6,23773],[77.6,23856],[77.6,23940],[77.6,24023],[77.6,24107],[77.6,24190],[77.6,24274],[77.6,24357],[77.6,24440],[77.6,24524],[77.6,24607],[77.6,24690],[77.6,24774],[77.6,24857],[77.6,24941],[77.6,25024],[77.6,25108],[77.6,25191],[77.6,25275],[77.6,25358],[77.6,25441],[77.6,25525],[77.6,25609],[77.6,25691],[77.6,25775],[77.6,25859],[77.6,25942],[77.6,26025],[77.6,26109],[77.6,26192],[77.6,26276],[77.6,26359],[77.6,26442],[77.6,26526],[77.6,26609],[77.6,26693],[77.6,26776],[77.6,26860],[77.6,26943],[77.6,27026],[77.6,27110],[77.6,27193],[77.6,27276],[77.6,27360],[77.6,27444],[77.6,27527],[77.6,27610],[77.6,27694],[77.6,27777],[77.6,27860],[77.6,27944],[77.6,28027],[77.6,28111],[77.6,28194],[77.6,28277],[77.6,28361],[77.6,28444],[77.6,28528],[77.6,28611],[77.6,28695],[77.6,28778],[77.6,28861],[77.6,28945],[77.6,29028],[77.6,29112],[77.6,29195],[77.6,29278],[77.6,29362],[77.6,29446]]",1,0,716.5844,720.5721,82.8125,3.2889,"[{""rating"":78.54166825612386,""responseTime"":1.945100000381558},{""rating"":82.8125,""responseTime"":3.2889000000953956}]",space,3.4617,,720.5721,All the time,100,727.0948,99.68749682,4.5272,"[{""rating"":99.68749682108562,""responseTime"":4.527199999809227}]",space,0,2,2,2,1,audio/Narrative7Situation2.wav,audio/Narrative8Situation2.wav,audio/Narrative5Situation2.wav,audio/Narrative6Situation2.wav,3,3,3,3,,,5.9901,,,,,,,,,,,,,,,,,,,,,,,,,,,,,,,,,,,,
,,,,,,65f4ab7884f8411c9e11a34e,2024-05-13_12h04.06.775,group3.1-3.2-social-tom,2023.2.2,Win32,58.82352941,65c5074098b851296ff0b7ed,664247df3242596b8f531ae6,,,,,,,,,,,,,,,,,,,,,,,,,,,,,727.0951,2,audio/Narrative5Situation3.wav,730.0984,,730.0984,743.9952,"[[999,0],[999,82],[999,166],[999,249],[999,333],[999,416],[999,499],[999,583],[999,666],[999,750],[999,833],[999,916],[999,1000],[999,1083],[999,1167],[55.7,1250],[52.4,1334],[50.8,1418],[50.6,1500],[50.6,1584],[50.6,1668],[51.9,1751],[52,1834],[52,1918],[52,2001],[52,2084],[52,2168],[52,2251],[52,2334],[52,2418],[52,2501],[52.1,2585],[52.1,2668],[52.3,2752],[52.3,2835],[52.3,2919],[52.3,3002],[52.3,3085],[52.3,3169],[52.9,3252],[55.9,3336],[59.1,3419],[61.8,3503],[63.5,3586],[65.3,3669],[65.9,3753],[66.5,3836],[66.6,3919],[66.6,4003],[66.6,4086],[66.6,4170],[66.6,4253],[66.6,4336],[66.6,4420],[66.6,4503],[66.6,4587],[66.6,4670],[66.6,4754],[66.6,4837],[66.6,4920],[66.6,5004],[66.6,5087],[66.6,5171],[66.6,5254],[66.6,5338],[66.6,5421],[66.6,5505],[66.6,5588],[66.6,5671],[66.6,5755],[66.6,5838],[66.6,5921],[66.6,6005],[66.6,6088],[66.6,6172],[66.6,6255],[66.6,6339],[66.6,6422],[66.6,6505],[66.6,6589],[66.6,6673],[66.6,6756],[66.6,6839],[66.6,6923],[66.6,7006],[66.6,7089],[66.6,7173],[66.6,7256],[66.6,7340],[66.6,7423],[66.6,7506],[66.6,7590],[66.6,7673],[66.6,7757],[66.6,7841],[66.6,7923],[66.6,8007],[66.6,8090],[66.6,8174],[66.6,8257],[66.6,8341],[66.6,8424],[66.6,8508],[66.6,8591],[66.6,8674],[66.6,8758],[66.6,8841],[66.6,8924],[66.6,9008],[66.6,9092],[66.6,9175],[66.6,9258],[66.6,9342],[66.6,9425],[66.6,9509],[66.6,9592],[66.6,9675],[66.6,9759],[66.6,9842],[66.6,9925],[66.6,10009],[66.6,10092],[66.6,10176],[66.6,10259],[66.6,10343],[66.6,10426],[66.6,10510],[67.4,10593],[68.5,10677],[69.7,10760],[71.1,10843],[71.9,10927],[73.3,11010],[75,11093],[76.4,11177],[77,11260],[77.1,11343],[77.1,11427],[77.1,11510],[77.1,11594],[77.1,11678],[77.1,11760],[77.1,11844],[77.1,11928],[77.1,12011],[77.1,12094],[77.1,12178],[77.1,12261],[77.1,12344],[77.1,12428],[77.1,12511],[77.1,12595],[77.1,12678],[77.1,12761],[77.1,12845],[77.1,12928],[77.1,13012],[77.1,13095],[77.1,13179],[77.1,13262],[77.1,13346],[77.1,13429],[77.1,13512],[77.1,13596],[77.1,13679],[77.1,13762],[77.1,13846]]",1,0,743.9953,746.4643,74.68750477,1.8814,"[{""rating"":74.68750476837158,""responseTime"":1.8814000000953683}]",space,1.9476,,746.4643,Half the time,50,746.4668,,,[],,0,3,3,3,1,audio/Narrative7Situation3.wav,audio/Narrative8Situation3.wav,audio/Narrative5Situation3.wav,audio/Narrative6Situation3.wav,8,4,3,5,,,,,,,,,,,,,,,,,,,,,,,,,,,,,,,,,,,,,,,
,,,,,,65f4ab7884f8411c9e11a34e,2024-05-13_12h04.06.775,group3.1-3.2-social-tom,2023.2.2,Win32,58.82352941,65c5074098b851296ff0b7ed,664247df3242596b8f531ae6,,,,,,,,,,,,,,,,,,,,,,,,,,,,,746.4669,2,audio/Narrative5Situation4.wav,747.4817,,747.4817,767.8692,"[[999,0],[999,83],[999,166],[999,250],[999,333],[999,417],[999,500],[999,583],[999,667],[999,751],[999,834],[999,917],[999,1001],[999,1084],[999,1168],[999,1251],[999,1334],[999,1418],[999,1501],[999,1584],[999,1668],[999,1751],[999,1835],[999,1918],[999,2002],[999,2086],[999,2169],[999,2252],[999,2335],[999,2419],[999,2502],[999,2586],[999,2669],[999,2753],[999,2836],[999,2920],[999,3003],[999,3086],[999,3169],[999,3253],[999,3336],[999,3419],[999,3503],[999,3587],[999,3670],[999,3754],[999,3837],[999,3920],[999,4004],[999,4087],[999,4170],[999,4254],[999,4337],[999,4421],[999,4505],[999,4588],[999,4671],[999,4754],[999,4838],[999,4921],[999,5005],[999,5088],[999,5171],[999,5255],[64.4,5339],[64.5,5422],[64,5506],[63.9,5588],[63.8,5672],[63.8,5756],[63.8,5839],[63.8,5922],[63.8,6006],[63.8,6089],[63.8,6173],[63.8,6256],[63.8,6339],[63.8,6423],[63.8,6506],[64.5,6590],[65.5,6673],[67.2,6756],[68.6,6840],[69.3,6923],[70.1,7007],[71,7090],[72.6,7173],[73.3,7257],[73.5,7340],[73.6,7424],[73.6,7507],[73.6,7591],[73.6,7674],[73.6,7757],[73.6,7841],[73.6,7924],[73.6,8008],[73.6,8091],[73.6,8175],[73.6,8258],[73.6,8341],[73.6,8425],[73.6,8508],[73.6,8591],[73.6,8675],[73.6,8758],[73.6,8842],[73.6,8925],[73.6,9009],[73.6,9092],[73.6,9176],[73.6,9259],[73.6,9342],[73.6,9426],[73.6,9510],[73.6,9592],[73.6,9676],[73.6,9760],[73.6,9843],[73.6,9926],[73.6,10009],[73.6,10093],[73.6,10177],[73.6,10260],[73.6,10343],[73.6,10427],[73.6,10510],[73.6,10594],[73.6,10677],[73.6,10760],[73.6,10844],[73.6,10927],[73.6,11011],[73.6,11094],[73.6,11177],[73.6,11261],[73.6,11345],[73.6,11428],[73.6,11511],[73.6,11595],[73.6,11678],[73.6,11761],[73.6,11845],[73.6,11928],[73.6,12012],[73.6,12095],[74.4,12178],[74.8,12262],[75.2,12346],[75.5,12429],[76,12512],[77,12596],[77.5,12679],[77.9,12763],[78,12846],[78.1,12930],[78.1,13013],[78.5,13096],[78.6,13179],[78.9,13263],[79,13346],[79.1,13430],[79.1,13513],[79.1,13596],[79.1,13680],[79.1,13764],[79.1,13847],[79.1,13930],[79.1,14014],[79.1,14097],[79.1,14180],[79.1,14264],[79.1,14347],[79.1,14431],[79.1,14514],[79.1,14598],[79.1,14681],[79.1,14765],[79.1,14848],[79.1,14931],[79.1,15015],[79.1,15098],[79.1,15181],[79.1,15265],[79.1,15348],[79.1,15432],[79.1,15515],[79.1,15599],[79.1,15682],[79.1,15765],[79.1,15849],[79.1,15932],[79.1,16016],[79.1,16099],[79.1,16182],[79.1,16266],[79.1,16349],[79.1,16432],[79.1,16516],[79.1,16600],[79.1,16683],[79.1,16766],[79.1,16850],[79.1,16933],[79.1,17017],[79.1,17100],[79.1,17184],[79.1,17267],[79.1,17350],[79.1,17434],[79.1,17517],[79.1,17601],[79.1,17684],[79.1,17768],[79.1,17851],[79.1,17934],[79.1,18017],[79.2,18101],[79.2,18185],[79.5,18268],[79.6,18351],[80,18435],[80.4,18519],[80.7,18602],[81.5,18685],[81.6,18768],[81.6,18852],[81.6,18935],[81.6,19019],[81.6,19102],[81.6,19185],[81.6,19269],[81.6,19352],[81.6,19436],[81.6,19519],[81.6,19602],[81.6,19686],[81.6,19769],[81.6,19853],[81.6,19936],[81.6,20020],[81.6,20103],[81.5,20186],[81.5,20270],[81.5,20353]]",1,0,767.8693,771.5896,80.00000318,2.0489,"[{""rating"":80.00000317891438,""responseTime"":2.048900000095273}]",space,3.1952,,771.5897,All the time,100,771.5921,,,[],,0,4,4,4,1,audio/Narrative7Situation4.wav,audio/Narrative8Situation4.wav,audio/Narrative5Situation4.wav,audio/Narrative6Situation4.wav,3,3,1,2,,,,,,,,,,,,,,,,,,,,,,,,,,,,,,,,,,,,,,,
,,,,,,65f4ab7884f8411c9e11a34e,2024-05-13_12h04.06.775,group3.1-3.2-social-tom,2023.2.2,Win32,58.82352941,65c5074098b851296ff0b7ed,664247df3242596b8f531ae6,,,,,,,,,,,,,,,,,,,,,,,,,,,,,771.5923,2,audio/Narrative5Situation5.wav,776.5945,,776.5947,792.0095,"[[999,5],[999,83],[999,166],[999,249],[999,333],[999,417],[999,500],[999,583],[999,666],[999,750],[999,834],[999,917],[999,1000],[999,1084],[999,1167],[999,1251],[999,1334],[999,1417],[63.8,1500],[63.8,1584],[64.1,1668],[64.1,1751],[64.1,1834],[64.1,1918],[64.1,2001],[64.1,2085],[64.1,2168],[64.1,2251],[64.1,2335],[64.1,2418],[64.1,2501],[64.1,2585],[64.1,2668],[64.1,2752],[64.1,2835],[64.1,2918],[64.1,3002],[64.1,3085],[64.1,3169],[64.1,3252],[64.1,3336],[64.1,3419],[64.1,3502],[64.1,3586],[64.1,3669],[64.1,3753],[64.1,3836],[64.2,3920],[66,4003],[67.7,4086],[69,4170],[70,4253],[70.8,4337],[71.6,4421],[71.8,4504],[71.8,4587],[71.8,4671],[71.8,4754],[71.8,4837],[71.8,4921],[71.8,5004],[71.8,5087],[71.8,5171],[71.8,5254],[71.8,5338],[71.8,5421],[71.8,5505],[71.8,5588],[71.8,5672],[71.8,5755],[71.8,5838],[71.8,5922],[71.8,6005],[71.8,6088],[71.8,6172],[71.8,6255],[71.8,6339],[71.8,6422],[71.8,6506],[71.8,6589],[71.8,6673],[71.8,6756],[71.8,6839],[71.8,6923],[71.8,7006],[71.8,7090],[71.8,7173],[71.8,7257],[71.8,7340],[71.8,7423],[71.8,7507],[71.8,7591],[71.8,7673],[71.8,7757],[71.8,7841],[71.8,7924],[71.8,8007],[71.8,8091],[71.8,8174],[71.8,8257],[71.8,8341],[71.8,8424],[71.8,8507],[71.8,8591],[71.8,8674],[71.8,8758],[71.8,8841],[71.8,8925],[71.8,9008],[71.8,9091],[71.8,9175],[71.8,9259],[71.8,9342],[71.8,9425],[71.8,9509],[71.8,9592],[71.8,9675],[71.8,9759],[71.8,9842],[71.8,9926],[71.8,10009],[71.9,10092],[72.3,10176],[72.6,10259],[72.9,10343],[73.3,10426],[73.9,10510],[74.7,10593],[75.2,10676],[75.5,10760],[75.7,10844],[75.8,10927],[75.9,11010],[75.9,11094],[76,11177],[76,11260],[76,11344],[76,11427],[76,11510],[76,11594],[76,11677],[76,11761],[76,11844],[76,11928],[76,12011],[76,12094],[76,12178],[76,12261],[76,12345],[76,12428],[76,12512],[76,12595],[76,12678],[76,12762],[76,12845],[76,12928],[76,13012],[76,13095],[76,13179],[76,13262],[76,13346],[76,13429],[76,13513],[76,13596],[76,13679],[76,13763],[76,13846],[76,13930],[76,14013],[76,14097],[76,14180],[76,14263],[76,14347],[76,14430],[76,14514],[76,14597],[76,14681],[76,14764],[76,14847],[76,14931],[76,15014],[76,15098],[76,15181],[76,15264],[76,15348]]",1,0,792.0097,793.9617,71.97916508,1.2816,"[{""rating"":71.97916507720947,""responseTime"":1.2815999999046426}]",space,1.4288,,793.9617,Half the time,50,793.9637,,,[],,0,5,5,5,1,audio/Narrative7Situation5.wav,audio/Narrative8Situation5.wav,audio/Narrative5Situation5.wav,audio/Narrative6Situation5.wav,5,2,5,2,,,,,,,,,,,,,,,,,,,,,,,,,,,,,,,,,,,,,,,
,,,,,,65f4ab7884f8411c9e11a34e,2024-05-13_12h04.06.775,group3.1-3.2-social-tom,2023.2.2,Win32,58.82352941,65c5074098b851296ff0b7ed,664247df3242596b8f531ae6,,,,,,,,,,,,,,,,,,,,,,,,,,,,,793.9639,2,audio/Narrative5Situation6.wav,796.9646,,796.9646,802.6373,"[[999,5],[999,84],[999,166],[999,250],[999,334],[999,417],[999,500],[999,584],[999,667],[999,750],[999,834],[999,917],[999,1001],[999,1084],[999,1167],[999,1251],[999,1334],[999,1418],[999,1501],[999,1585],[999,1668],[999,1752],[999,1835],[999,1919],[999,2002],[999,2085],[999,2168],[999,2252],[999,2335],[999,2419],[999,2502],[999,2586],[999,2669],[999,2753],[66,2836],[66,2920],[66,3003],[66,3086],[66,3169],[66,3253],[66,3336],[66,3420],[66,3503],[66,3587],[66,3670],[66,3753],[66,3837],[66,3920],[66,4004],[66,4087],[66,4170],[66,4254],[66,4337],[66,4421],[66,4504],[66,4587],[66,4671],[66,4754],[66,4838],[66,4921],[66,5004],[66,5088],[66,5172],[66,5255],[66,5338],[66,5422],[66,5505],[66,5589],[66,5672]]",1,0,802.6375,805.0565,63.85416985,1.8391,"[{""rating"":63.854169845581055,""responseTime"":1.8390999999046471}]",space,1.8981,,805.0566,Not at all,0,805.0589,,,[],,0,6,6,6,1,audio/Narrative7Situation6.wav,audio/Narrative8Situation6.wav,audio/Narrative5Situation6.wav,audio/Narrative6Situation6.wav,3,2,3,2,,,,,,,,,,,,,,,,,,,,,,,,,,,,,,,,,,,,,,,
,,,,,,65f4ab7884f8411c9e11a34e,2024-05-13_12h04.06.775,group3.1-3.2-social-tom,2023.2.2,Win32,58.82352941,65c5074098b851296ff0b7ed,664247df3242596b8f531ae6,,,,,,,,,,,,,,,,,,,,,,,,,,,,,805.059,2,audio/Narrative5Situation7.wav,809.0601,,809.0601,830.0813,"[[999,6],[999,83],[999,166],[999,250],[999,333],[999,417],[999,500],[999,583],[999,667],[999,750],[999,833],[999,917],[999,1000],[999,1084],[999,1167],[999,1251],[999,1334],[999,1417],[999,1501],[999,1584],[59.2,1668],[58.4,1752],[58.1,1835],[57.9,1918],[56.9,2002],[54.3,2085],[52.5,2168],[51.3,2252],[50.4,2336],[50.1,2418],[49.9,2502],[49.9,2585],[49.9,2669],[49.9,2752],[49.9,2836],[50,2919],[50,3002],[50,3086],[50,3169],[50,3253],[50.5,3336],[51,3420],[52,3504],[54.5,3586],[57.3,3670],[59.2,3753],[60.1,3837],[60.9,3920],[61.7,4003],[62,4087],[62.5,4170],[62.8,4254],[63,4337],[63,4421],[63.2,4504],[63.2,4588],[63.4,4671],[64.3,4755],[65,4838],[65.4,4921],[65.8,5005],[66.1,5088],[66.7,5171],[67.1,5254],[67.7,5338],[68.2,5422],[68.5,5506],[68.8,5589],[68.8,5672],[68.8,5756],[68.8,5839],[69,5922],[69,6006],[69.1,6089],[69.2,6172],[69.2,6256],[69.2,6339],[69.2,6422],[69.2,6506],[69.2,6589],[69.2,6673],[69.2,6756],[69.2,6840],[69.2,6923],[69.2,7007],[69.2,7090],[69.2,7173],[69.2,7257],[69.2,7340],[69.2,7423],[69.2,7507],[69.2,7591],[69.2,7674],[69.2,7757],[69.2,7841],[69.2,7924],[69.2,8007],[69.2,8091],[69.2,8174],[69.2,8258],[69.2,8341],[69.2,8425],[69.2,8508],[69.2,8591],[69.2,8675],[69.2,8758],[69.2,8842],[69.3,8925],[69.8,9009],[70.1,9092],[70.3,9175],[70.7,9259],[71.8,9342],[72.4,9426],[73.2,9509],[73.6,9592],[74,9677],[74,9759],[74,9843],[74.2,9926],[74.3,10010],[74.4,10093],[74.5,10176],[74.8,10260],[74.8,10343],[74.8,10427],[74.8,10510],[74.8,10593],[74.8,10677],[74.8,10760],[74.8,10843],[74.8,10927],[74.8,11010],[74.8,11094],[74.8,11177],[74.8,11261],[74.8,11344],[74.8,11428],[74.8,11511],[74.8,11594],[74.8,11678],[74.8,11761],[74.8,11845],[74.8,11928],[74.8,12011],[74.9,12095],[74.9,12178],[75,12262],[75,12345],[75,12429],[75,12512],[75,12596],[75,12679],[75,12762],[75,12846],[75,12929],[75,13012],[75,13096],[75,13179],[75,13262],[75,13346],[75,13430],[75,13513],[75,13596],[75,13680],[75,13763],[75,13846],[75,13930],[75,14013],[75,14097],[75,14180],[75,14264],[75,14347],[75,14431],[75,14514],[75,14597],[75,14681],[75,14764],[75,14848],[75,14931],[75,15014],[75,15098],[75,15181],[75,15265],[75,15348],[75.1,15431],[75.1,15515],[75.1,15598],[75.1,15682],[75.1,15765],[75.1,15849],[75.1,15932],[75.1,16016],[75.1,16099],[75.1,16182],[75.1,16266],[75.1,16349],[75.1,16432],[75.1,16516],[75.1,16599],[75.1,16683],[75.1,16766],[75.1,16850],[75.1,16933],[75.2,17016],[75.8,17101],[76,17183],[76.6,17267],[76.9,17350],[77.3,17434],[77.8,17517],[78.3,17600],[78.5,17684],[78.6,17768],[78.6,17851],[79,17934],[79.2,18017],[79.4,18101],[79.4,18185],[79.4,18268],[79.4,18351],[79.4,18435],[79.4,18518],[79.4,18601],[79.4,18685],[79.4,18768],[79.4,18852],[79.4,18935],[79.4,19018],[79.4,19102],[79.4,19186],[79.4,19269],[79.4,19352],[79.4,19436],[79.4,19519],[79.4,19602],[79.4,19686],[79.4,19770],[79.4,19853],[79.4,19936],[79.4,20019],[79.4,20103],[79.4,20186],[79.4,20270],[79.4,20353],[79.4,20437],[80.1,20520],[80.3,20603],[80.4,20687],[80.4,20770],[80.4,20853],[80.4,20937],[80.4,21021]]",1,0,830.0816,832.0168,80.00000318,1.2909,"[{""rating"":80.00000317891438,""responseTime"":1.2909000000953483}]",space,1.3892,,832.0169,All the time,100,832.0193,,,[],,0,7,7,7,1,audio/Narrative7Situation7.wav,audio/Narrative8Situation7.wav,audio/Narrative5Situation7.wav,audio/Narrative6Situation7.wav,5,3,4,5,,,,,,,,,,,,,,,,,,,,,,,,,,,,,,,,,,,,,,,
,,,,,,65f4ab7884f8411c9e11a34e,2024-05-13_12h04.06.775,group3.1-3.2-social-tom,2023.2.2,Win32,58.82352941,65c5074098b851296ff0b7ed,664247df3242596b8f531ae6,,,,,,,,,,,,,,,,,,,,,,,,,,,,,832.0195,2,audio/Narrative5Situation8.wav,835.0363,,835.0364,843.845,"[[999,6],[999,82],[999,166],[999,250],[999,333],[999,416],[999,500],[999,583],[999,666],[999,750],[999,834],[999,917],[999,1000],[999,1083],[56.1,1167],[52.8,1250],[50.1,1334],[49.3,1417],[49.3,1501],[49.3,1584],[49.8,1667],[50.5,1751],[50.7,1834],[50.7,1918],[50.7,2001],[50.7,2084],[50.7,2168],[50.7,2251],[50.7,2335],[50.7,2418],[50.7,2502],[50.7,2585],[50.7,2668],[50.7,2752],[50.7,2835],[50.7,2919],[50.7,3002],[50.7,3086],[50.7,3169],[50.7,3252],[50.7,3336],[50.7,3420],[52.8,3503],[55,3586],[56.1,3669],[57.3,3753],[57.8,3836],[58.5,3920],[59.1,4003],[59.4,4086],[59.4,4170],[59.4,4253],[59.4,4337],[59.4,4420],[59.4,4504],[59.4,4587],[59.4,4670],[59.4,4754],[59.4,4837],[59.4,4921],[59.4,5004],[59.4,5087],[59.4,5171],[59.4,5254],[59.4,5338],[59.4,5421],[59.4,5505],[59.4,5588],[59.4,5671],[59.4,5755],[59.4,5838],[59.4,5922],[59.4,6005],[59.4,6089],[59.4,6172],[59.4,6255],[59.4,6339],[60.4,6422],[62,6505],[63.4,6589],[64.1,6672],[64.8,6756],[65.3,6840],[65.8,6923],[65.9,7007],[65.9,7089],[65.9,7173],[65.9,7256],[65.9,7340],[65.9,7423],[65.9,7506],[65.9,7590],[65.9,7673],[65.9,7757],[65.9,7840],[65.9,7923],[65.9,8007],[65.9,8091],[65.9,8174],[65.9,8257],[65.9,8341],[65.9,8424],[65.9,8507],[65.9,8591],[65.9,8674],[65.9,8758]]",1,0,843.8452,847.2648,65.10416667,2.754,"[{""rating"":65.10416666666666,""responseTime"":2.754000000000019}]",space,2.8907,,847.2649,All the time,100,847.2662,,,[],,0,8,8,8,1,audio/Narrative7Situation8.wav,audio/Narrative8Situation8.wav,audio/Narrative5Situation8.wav,audio/Narrative6Situation8.wav,2,3,3,5,,,,,,,,,,,,,,,,,,,,,,,,,,,,,,,,,,,,,,,
,,,,,,65f4ab7884f8411c9e11a34e,2024-05-13_12h04.06.775,group3.1-3.2-social-tom,2023.2.2,Win32,58.82352941,65c5074098b851296ff0b7ed,664247df3242596b8f531ae6,,,,,,,,,,,,,,,,,,,,,,,,,,,,,847.2663,2,audio/Narrative5Situation9.wav,850.2678,,850.2678,889.8076,"[[999,0],[999,83],[999,167],[999,250],[999,333],[999,416],[999,500],[999,583],[999,667],[999,751],[999,834],[999,917],[999,1001],[999,1084],[999,1167],[50.3,1251],[50,1334],[49.8,1418],[49.8,1501],[49.8,1585],[50.3,1669],[50.5,1751],[50.5,1835],[50.5,1918],[50.5,2002],[50.5,2085],[50.5,2169],[50.5,2252],[50.5,2335],[50.5,2419],[50.5,2502],[50.5,2585],[50.5,2669],[50.5,2752],[50.5,2836],[50.5,2919],[50.5,3003],[50.5,3086],[50.5,3170],[50.5,3253],[50.5,3336],[50.5,3420],[50.5,3504],[50.5,3587],[50.5,3670],[50.5,3753],[50.5,3837],[50.5,3920],[50.5,4004],[50.5,4087],[50.5,4171],[50.5,4254],[50.5,4337],[50.8,4421],[52.5,4504],[53.3,4587],[54.2,4671],[54.7,4754],[55,4838],[55,4921],[55.1,5005],[55.1,5088],[55.1,5171],[55.1,5255],[56.3,5339],[56.8,5422],[57.3,5505],[57.9,5589],[58.1,5672],[58.2,5755],[58.2,5839],[58.2,5922],[58.2,6006],[58.2,6089],[58.2,6173],[58.2,6256],[58.2,6339],[58.2,6422],[58.3,6506],[58.3,6589],[58.3,6673],[58.3,6756],[58.3,6840],[58.3,6923],[58.3,7007],[58.3,7091],[58.3,7174],[58.3,7257],[58.3,7340],[58.3,7424],[58.3,7507],[58.3,7590],[58.3,7674],[58.3,7758],[58.3,7841],[58.9,7924],[59.7,8008],[60.9,8091],[63,8175],[64.6,8258],[65.6,8342],[65.8,8425],[65.8,8508],[65.8,8591],[65.8,8675],[65.8,8759],[65.8,8842],[65.8,8925],[65.8,9009],[65.8,9092],[65.8,9175],[65.8,9259],[65.8,9342],[65.8,9426],[65.8,9509],[65.8,9592],[65.8,9676],[65.8,9759],[65.8,9843],[65.8,9926],[65.8,10010],[65.8,10093],[65.8,10177],[65.8,10260],[65.8,10343],[65.8,10427],[65.8,10510],[65.8,10594],[65.8,10677],[65.8,10760],[65.8,10844],[65.8,10927],[65.8,11011],[65.8,11094],[65.8,11177],[65.8,11261],[65.8,11344],[65.8,11427],[65.8,11511],[65.8,11594],[65.8,11678],[65.8,11761],[65.8,11845],[65.8,11929],[65.8,12011],[65.8,12095],[65.8,12178],[65.8,12262],[65.8,12345],[65.8,12429],[65.8,12512],[65.8,12596],[65.9,12679],[66.5,12763],[66.9,12846],[67.5,12930],[68.1,13013],[69.2,13096],[70.8,13179],[71.8,13263],[71.8,13346],[71.8,13430],[71.8,13513],[71.8,13597],[71.8,13680],[71.8,13764],[71.8,13847],[71.8,13930],[71.8,14013],[71.8,14097],[71.8,14181],[71.8,14264],[71.8,14347],[71.8,14430],[71.8,14514],[71.8,14598],[71.8,14681],[71.8,14764],[71.8,14848],[71.8,14931],[71.8,15014],[71.8,15098],[71.8,15182],[71.8,15265],[71.8,15348],[71.8,15431],[71.8,15515],[71.8,15598],[71.8,15682],[71.8,15765],[71.8,15849],[71.8,15932],[71.8,16015],[71.8,16099],[71.8,16182],[71.8,16266],[71.8,16349],[71.8,16433],[71.8,16516],[71.8,16600],[71.8,16683],[71.8,16766],[71.8,16850],[71.8,16933],[71.8,17017],[71.8,17100],[71.8,17183],[71.8,17267],[71.8,17350],[71.8,17434],[71.8,17517],[71.8,17601],[71.8,17684],[71.8,17767],[71.8,17851],[71.8,17934],[71.8,18018],[71.8,18101],[71.8,18184],[71.8,18268],[71.8,18351],[71.8,18435],[71.8,18518],[71.8,18601],[71.8,18685],[71.8,18768],[71.8,18852],[71.8,18935],[71.8,19019],[71.8,19102],[71.8,19185],[71.8,19269],[71.8,19352],[71.8,19435],[71.8,19519],[71.8,19602],[71.8,19686],[71.8,19770],[71.9,19853],[72.2,19936],[72.3,20020],[72.3,20103],[72.4,20186],[72.4,20270],[72.9,20353],[73.8,20437],[74.8,20520],[75.3,20603],[75.9,20687],[76,20770],[76,20854],[76.3,20937],[76.4,21021],[76.6,21104],[76.6,21188],[76.6,21271],[76.6,21354],[76.6,21438],[76.6,21521],[76.6,21604],[76.6,21688],[76.6,21771],[76.6,21855],[76.6,21938],[76.6,22022],[76.6,22105],[76.6,22188],[76.6,22272],[76.6,22356],[76.6,22439],[76.6,22522],[76.6,22605],[76.6,22689],[76.6,22772],[76.6,22856],[76.6,22939],[76.6,23023],[76.6,23106],[76.6,23189],[76.6,23273],[76.6,23357],[76.6,23440],[76.6,23523],[76.6,23607],[76.6,23690],[76.6,23773],[76.6,23857],[76.6,23940],[76.6,24024],[76.6,24107],[76.6,24190],[76.6,24274],[76.6,24358],[76.6,24441],[76.6,24524],[76.8,24608],[76.9,24691],[77,24774],[77.1,24858],[77.1,24941],[77.1,25024],[77.1,25108],[77.1,25191],[77.1,25275],[77.1,25358],[77.1,25442],[77.1,25525],[77.1,25609],[77.1,25692],[77.1,25775],[77.1,25859],[77.1,25943],[77.1,26026],[77.1,26109],[77.1,26193],[77.1,26276],[77.1,26359],[77.1,26443],[77.1,26526],[77.1,26610],[77.1,26693],[77.1,26776],[77.1,26860],[77.1,26943],[77.1,27027],[77.1,27110],[77.1,27193],[77.1,27277],[77.1,27360],[77.1,27444],[77.1,27527],[77.1,27611],[77.1,27694],[77.1,27778],[77.1,27861],[77.1,27944],[77.1,28028],[77.1,28111],[77.1,28194],[77.1,28278],[77.1,28361],[77.1,28445],[77.1,28529],[77.1,28611],[77.4,28695],[77.6,28778],[77.8,28862],[77.9,28945],[78.1,29029],[78.4,29112],[78.9,29196],[79.2,29279],[79.7,29362],[79.9,29445],[80,29529],[80,29613],[80,29696],[80,29779],[80,29863],[80,29946],[80,30030],[80,30113],[80,30197],[80,30280],[80,30364],[80,30446],[80,30530],[80,30614],[80,30697],[80,30781],[80,30864],[80,30947],[80,31030],[80,31114],[80,31198],[80,31281],[80,31364],[80,31448],[80,31531],[80,31614],[80,31698],[80,31781],[80,31865],[80,31948],[80,32032],[80,32115],[80,32198],[80,32282],[80,32365],[80,32449],[80,32532],[80,32616],[80,32699],[80,32782],[80,32866],[80,32949],[80,33033],[80,33116],[80,33200],[80,33283],[80,33366],[80,33450],[80,33533],[80,33616],[80,33700],[80,33783],[80,33867],[80,33950],[80,34034],[80,34117],[80,34200],[80,34284],[80,34367],[80,34451],[80,34534],[80,34618],[80,34701],[80,34784],[80,34868],[80,34951],[80,35035],[80,35118],[80,35201],[80,35285],[80,35369],[80,35452],[80,35535],[80,35619],[80,35702],[80,35785],[80,35869],[80,35952],[80,36036],[80,36119],[80,36203],[80,36286],[80,36369],[80,36453],[80,36536],[80,36620],[80,36703],[80,36787],[80,36870],[80,36953],[80.2,37037],[80.4,37120],[80.9,37204],[81.3,37287],[81.3,37371],[81.5,37454],[81.5,37537],[81.5,37620],[81.5,37704],[81.5,37787],[81.5,37871],[81.5,37954],[81.5,38038],[81.5,38121],[81.5,38204],[81.5,38288],[81.5,38371],[81.5,38454],[81.5,38538],[81.5,38621],[81.5,38705],[81.5,38788],[81.5,38872],[81.5,38955],[81.5,39039],[81.5,39122],[81.5,39205],[81.5,39289],[81.5,39372],[81.5,39455],[81.5,39539]]",1,0,889.8079,892.5267,81.35416508,1.6089,"[{""rating"":81.35416507720947,""responseTime"":1.6088999996185294}]",space,2.1985,,892.5268,Half the time,50,892.5288,,,[],,0,9,9,9,1,audio/Narrative7Situation9.wav,audio/Narrative8Situation9.wav,audio/Narrative5Situation9.wav,audio/Narrative6Situation9.wav,2,3,3,4,,,,,,,,,,,,,,,,,,,,,,,,,,,,,,,,,,,,,,,
,,,,,,65f4ab7884f8411c9e11a34e,2024-05-13_12h04.06.775,group3.1-3.2-social-tom,2023.2.2,Win32,58.82352941,65c5074098b851296ff0b7ed,664247df3242596b8f531ae6,,,,,,,,,,,,,,,,,,,,,,,,,,,,,892.529,2,audio/Narrative6Situation1.wav,894.5456,,894.5457,921.139,"[[999,0],[999,83],[999,166],[999,250],[999,333],[999,416],[999,500],[999,583],[999,667],[999,750],[999,833],[999,917],[999,1000],[999,1084],[999,1167],[999,1251],[999,1334],[999,1417],[999,1501],[49.9,1584],[49.9,1668],[49.9,1751],[50,1835],[50,1918],[50.2,2001],[50.3,2085],[50.3,2168],[50.3,2252],[50.3,2335],[50.3,2418],[50.3,2502],[50.3,2585],[50.3,2669],[50.3,2752],[50.3,2835],[50.3,2919],[50.3,3002],[50.3,3086],[50.3,3169],[50.3,3253],[50.3,3336],[50.3,3419],[50.3,3503],[50.3,3586],[52.6,3670],[54.2,3753],[55.7,3836],[57.5,3920],[58.3,4003],[58.9,4087],[59.2,4170],[59.8,4253],[60.3,4337],[60.3,4420],[60.3,4504],[60.3,4587],[60.3,4671],[60.3,4754],[60.3,4837],[60.3,4921],[60.3,5004],[60.3,5088],[60.3,5171],[60.3,5255],[60.3,5338],[60.3,5421],[60.3,5505],[60.3,5589],[60.3,5672],[60.3,5755],[60.3,5838],[60.3,5922],[60.3,6005],[60.3,6089],[60.3,6172],[60.3,6256],[60.3,6339],[60.3,6422],[60.3,6506],[60.3,6589],[60.3,6673],[60.3,6756],[60.3,6840],[60.3,6923],[60.3,7006],[60.3,7090],[60.3,7173],[60.3,7256],[60.3,7340],[60.3,7423],[60.3,7506],[60.3,7590],[60.3,7674],[60.3,7757],[60.3,7840],[60.3,7924],[60.3,8007],[60.4,8091],[60.4,8174],[60.8,8258],[61.4,8341],[61.9,8424],[62.5,8508],[63.3,8592],[64.6,8675],[65.8,8758],[67.1,8841],[67.5,8925],[67.5,9008],[67.5,9092],[67.5,9175],[67.5,9259],[67.5,9342],[67.5,9426],[67.5,9509],[67.5,9592],[67.5,9676],[67.5,9759],[67.5,9842],[67.5,9926],[67.5,10009],[67.5,10093],[67.5,10176],[67.5,10260],[67.5,10343],[67.5,10426],[67.5,10510],[67.5,10593],[67.5,10676],[67.5,10760],[67.5,10843],[67.5,10927],[67.5,11010],[67.5,11094],[67.5,11177],[67.5,11261],[67.5,11344],[67.5,11428],[67.5,11511],[67.5,11594],[67.5,11677],[67.5,11761],[67.5,11844],[67.5,11927],[67.5,12011],[67.5,12095],[67.5,12178],[67.5,12262],[67.5,12345],[67.5,12429],[67.5,12512],[67.5,12595],[67.5,12678],[67.5,12762],[67.5,12846],[67.5,12929],[67.5,13012],[67.5,13096],[67.5,13179],[67.5,13262],[67.5,13346],[67.5,13429],[67.5,13513],[67.5,13596],[67.5,13680],[67.5,13763],[67.5,13846],[67.5,13930],[67.5,14013],[67.5,14096],[67.5,14180],[67.5,14264],[67.5,14347],[67.5,14431],[67.5,14514],[67.5,14597],[67.5,14681],[67.5,14764],[67.5,14847],[67.5,14931],[67.4,15014],[67.4,15097],[67.4,15181],[67.4,15264],[67.4,15348],[67.4,15432],[67.4,15515],[67.4,15598],[67.4,15682],[67.4,15765],[67.4,15849],[67.4,15932],[67.4,16015],[67.4,16099],[67.4,16182],[67.4,16265],[67.4,16349],[67.4,16432],[67.4,16516],[68,16600],[68.8,16683],[70,16766],[72.4,16850],[72.7,16933],[72.7,17016],[72.7,17100],[72.7,17183],[72.7,17266],[72.7,17350],[72.7,17433],[72.7,17516],[72.7,17600],[72.7,17684],[72.7,17767],[72.7,17851],[72.7,17934],[72.7,18017],[72.7,18100],[72.7,18184],[72.7,18267],[72.7,18351],[72.7,18434],[72.7,18518],[72.7,18601],[72.7,18684],[72.7,18768],[72.7,18851],[72.7,18935],[72.7,19018],[72.7,19102],[72.7,19185],[72.7,19269],[72.7,19352],[72.7,19435],[72.7,19519],[72.7,19602],[72.7,19686],[72.7,19769],[72.7,19852],[72.7,19936],[72.7,20019],[72.7,20102],[72.7,20186],[72.7,20270],[72.7,20353],[72.7,20436],[72.7,20520],[72.7,20603],[72.7,20686],[72.7,20770],[72.7,20853],[72.7,20937],[72.7,21020],[72.7,21103],[72.7,21187],[72.7,21271],[72.7,21354],[72.7,21437],[72.7,21521],[72.7,21604],[72.7,21688],[72.7,21771],[72.7,21855],[72.7,21937],[72.7,22021],[72.7,22105],[72.7,22188],[72.7,22271],[72.7,22355],[72.7,22438],[72.7,22522],[72.7,22605],[72.7,22688],[72.9,22772],[73.2,22855],[73.3,22939],[73.3,23022],[73.4,23106],[73.9,23189],[74.4,23273],[74.7,23356],[75.2,23440],[75.4,23523],[75.7,23606],[75.9,23690],[75.9,23773],[75.9,23856],[75.9,23940],[75.9,24023],[75.9,24106],[75.9,24190],[75.9,24274],[75.9,24357],[75.9,24441],[75.9,24524],[75.9,24607],[75.9,24691],[75.9,24774],[75.9,24857],[75.9,24941],[75.9,25024],[75.9,25107],[75.9,25191],[75.9,25274],[75.9,25358],[75.9,25441],[75.9,25524],[75.9,25608],[75.9,25692],[75.9,25775],[75.9,25858],[75.9,25942],[75.9,26025],[75.9,26109],[75.9,26192],[75.9,26275],[75.9,26359],[75.9,26442],[75.9,26526]]",1,0,921.1392,923.8084,77.39583651,1.9216,"[{""rating"":77.39583651224773,""responseTime"":1.921599999904629}]",space,2.1355,,923.8085,Not at all,0,923.8111,,,[],,0,10,10,10,1,audio/Narrative8Situation1.wav,audio/Narrative7Situation1.wav,audio/Narrative6Situation1.wav,audio/Narrative5Situation1.wav,5,2,2,5,,,,,,,,,,,,,,,,,,,,,,,,,,,,,,,,,,,,,,,
,,,,,,65f4ab7884f8411c9e11a34e,2024-05-13_12h04.06.775,group3.1-3.2-social-tom,2023.2.2,Win32,58.82352941,65c5074098b851296ff0b7ed,664247df3242596b8f531ae6,,,,,,,,,,,,,,,,,,,,,,,,,,,,,923.8113,2,audio/Narrative6Situation2.wav,926.8279,,926.828,955.3394,"[[999,6],[999,83],[999,166],[999,249],[999,333],[999,416],[999,500],[999,583],[999,666],[999,750],[999,834],[999,917],[999,1000],[999,1084],[999,1167],[999,1250],[999,1334],[51.7,1418],[50.2,1501],[49,1584],[48.9,1668],[48.9,1751],[49.2,1834],[49.4,1918],[49.6,2001],[49.6,2084],[49.7,2168],[49.7,2251],[49.8,2335],[50,2418],[50,2502],[50,2585],[50,2668],[50,2752],[50,2835],[50,2919],[50,3002],[50,3086],[50,3169],[50,3253],[50,3336],[50,3419],[50,3503],[50,3586],[50,3670],[50,3753],[50,3836],[50.2,3919],[50.3,4003],[50.8,4087],[51.1,4170],[51.9,4254],[53.1,4337],[55,4420],[57.1,4504],[59.1,4587],[61.9,4670],[63,4754],[63.3,4837],[63.5,4921],[64,5004],[64.4,5088],[65,5171],[65.5,5254],[65.6,5338],[65.6,5421],[65.6,5505],[65.6,5588],[65.6,5671],[65.6,5755],[65.6,5838],[65.6,5922],[65.6,6005],[65.6,6089],[65.6,6172],[65.6,6255],[65.6,6339],[65.6,6422],[65.6,6506],[65.6,6589],[65.6,6673],[65.6,6756],[65.6,6839],[65.6,6923],[65.6,7006],[65.6,7089],[65.6,7173],[65.6,7256],[65.6,7340],[65.6,7423],[65.6,7507],[65.6,7590],[65.6,7673],[65.6,7757],[65.6,7840],[65.6,7924],[65.6,8007],[65.6,8091],[65.6,8174],[65.6,8257],[65.6,8341],[65.6,8424],[65.6,8508],[65.6,8591],[65.6,8674],[65.6,8758],[65.6,8841],[65.6,8924],[65.6,9009],[68,9091],[70.2,9175],[74,9258],[76.3,9342],[76.6,9425],[76.6,9509],[76.6,9592],[76.6,9675],[76.6,9759],[76.6,9842],[76.6,9926],[76.6,10009],[76.6,10093],[76.6,10176],[76.6,10260],[76.6,10343],[76.6,10426],[76.6,10509],[76.6,10593],[76.6,10677],[76.6,10760],[76.6,10843],[76.6,10927],[76.6,11010],[76.6,11094],[76.6,11177],[76.6,11261],[76.6,11344],[76.7,11427],[76.7,11511],[76.7,11594],[76.7,11678],[76.7,11761],[76.7,11844],[76.7,11928],[76.7,12011],[76.7,12094],[76.7,12178],[76.7,12261],[76.7,12345],[76.7,12428],[76.7,12511],[76.7,12595],[76.7,12679],[76.7,12762],[76.7,12845],[76.7,12929],[76.7,13012],[76.7,13096],[76.7,13179],[76.7,13263],[76.7,13346],[76.7,13429],[76.7,13512],[76.7,13596],[76.7,13680],[76.7,13763],[76.7,13846],[76.7,13930],[76.7,14013],[76.7,14097],[76.7,14180],[76.7,14264],[76.7,14347],[76.7,14430],[76.7,14514],[76.7,14597],[76.7,14680],[76.7,14764],[76.7,14848],[76.7,14931],[76.7,15014],[76.7,15098],[76.7,15181],[76.7,15264],[76.7,15348],[76.7,15431],[76.7,15515],[76.7,15598],[79.4,15682],[80.5,15765],[81.9,15848],[82.2,15932],[82.3,16015],[82.3,16099],[82.8,16182],[82.8,16265],[83,16349],[83,16432],[83,16516],[83,16599],[83,16682],[83,16766],[83,16850],[83,16933],[83,17016],[83,17099],[83,17183],[83,17266],[83,17350],[83,17433],[83,17517],[83,17600],[83,17683],[83,17767],[83,17850],[83,17934],[83,18017],[83,18100],[83,18184],[83,18267],[83,18351],[83,18434],[83,18518],[83,18601],[83,18684],[83,18768],[83,18851],[83,18935],[83,19018],[83,19101],[83,19185],[83,19268],[83,19352],[83,19435],[83,19519],[83,19602],[83,19685],[83,19769],[83,19852],[83,19936],[83,20019],[83,20103],[83,20186],[83,20269],[83,20353],[83,20436],[83,20520],[83,20603],[83,20687],[83,20770],[83,20853],[83,20937],[83,21020],[83,21104],[83,21187],[83,21271],[83,21354],[83,21437],[83,21521],[83,21604],[83,21688],[83,21771],[83,21854],[83,21938],[83,22021],[83,22104],[83,22188],[83,22271],[83,22355],[83,22438],[83,22522],[83,22605],[83,22689],[83,22772],[83,22855],[83,22939],[83,23022],[83,23105],[83,23189],[83,23272],[83,23356],[83,23439],[83,23523],[83,23606],[83,23690],[83,23773],[83,23856],[83,23940],[83,24023],[83,24107],[83,24190],[83,24273],[83,24357],[83,24440],[83,24524],[83,24607],[83,24690],[83,24774],[83,24857],[83,24941],[83,25024],[83,25107],[83,25191],[83,25274],[83,25358],[83,25441],[83,25525],[83,25608],[83.2,25691],[83.3,25775],[83.3,25859],[83.6,25942],[83.9,26025],[84.2,26109],[84.6,26193],[84.9,26275],[85.2,26359],[85.2,26442],[85.2,26526],[85.2,26609],[85.2,26693],[85.2,26776],[85.2,26860],[85.4,26943],[85.7,27026],[85.9,27110],[86.1,27193],[86.3,27277],[86.3,27360],[86.3,27443],[86.3,27527],[86.3,27610],[86.3,27693],[86.3,27777],[86.3,27861],[86.3,27944],[86.3,28027],[86.3,28110],[86.3,28194],[86.3,28277],[86.3,28361],[86.3,28444]]",1,0,955.3395,958.3927,85.00000636,2.1637,"[{""rating"":85.00000635782878,""responseTime"":2.163699999809296}]",space,2.5234,,958.3928,All the time,100,958.3948,,,[],,0,11,11,11,1,audio/Narrative8Situation2.wav,audio/Narrative7Situation2.wav,audio/Narrative6Situation2.wav,audio/Narrative5Situation2.wav,3,3,3,3,,,,,,,,,,,,,,,,,,,,,,,,,,,,,,,,,,,,,,,
