exp_question,consent.started,consent.stopped,consentResponse.keys,consentResponse.rt,consentResponse.duration,participantID,date,expName,psychopyVersion,OS,frameRate,STUDY_ID,SESSION_ID,opening1.started,opening1.stopped,keyEndingOpening1.keys,keyEndingOpening1.rt,keyEndingOpening1.duration,volumeAdjust.started,volumeAdjust.stopped,endingAdjust.keys,endingAdjust.rt,endingAdjust.duration,opening2.started,opening2.stopped,keyEndingOpening.keys,keyEndingOpening.rt,keyEndingOpening.duration,mouse.x,mouse.y,mouse.leftButton,mouse.midButton,mouse.rightButton,mouse.time,instructionLoop.thisRepN,instructionLoop.thisTrialN,instructionLoop.thisN,instructionLoop.thisIndex,instructionLoop.ran,readyForAudio.started,readyForAudio.stopped,fixation.started,run,audio_played,fixation.stopped,endPractice.keys,audioPre.started,audioPre.stopped,continuousResponses_audio,continuousSlider.response,continuousSlider.rt,intRating.started,intRating.stopped,intQuestionSlider.response,intQuestionSlider.rt,intQuestionSlider.history,confirmResponse.keys,confirmResponse.rt,confirmResponse.duration,catchQuestion.started,catch_label,catch_value,catchQuestion.stopped,catchQuestionSlider.response,catchQuestionSlider.rt,catchQuestionSlider.history,confirmResponse_2.keys,audioRunLoop.thisRepN,audioRunLoop.thisTrialN,audioRunLoop.thisN,audioRunLoop.thisIndex,audioRunLoop.ran,conditions1_1,conditions2_1,conditions1_2,conditions2_2,dur1_1,dur2_1,dur1_2,dur2_2,endPractice.rt,endPractice.duration,confirmResponse_2.rt,confirmResponse_2.duration,runIntervalBreak.started,runIntervalBreak.stopped,endingBreakKey.keys,endingBreakKey.rt,endingBreakKey.duration,connection.started,connection.stopped,connectionEnding.keys,connectionEnding.rt,connectionEnding.duration,readyForText.started,readyForText.stopped,textPre.started,run_dup,textPre.stopped,continuousResponses_text,textRunLoop.thisRepN,textRunLoop.thisTrialN,textRunLoop.thisN,textRunLoop.thisIndex,textRunLoop.ran,text1_1,text1_2,text2_1,text2_2,runBreakText.started,runBreakText.stopped,endingBreakKey_2.keys,endingBreakKey_2.rt,endingBreakKey_2.duration,ending.started,ending.stopped,endingEnding.keys,endingEnding.rt,endingEnding.duration
social,0.0005,4.1009,y,3.7871,,65f8416c2d0d9fb9cf7eef97,2024-05-13_11h32.28.779,group3.1-3.2-social-tom,2023.2.2,MacIntel,59.84082341,65c5074098b851296ff0b7ed,6642326ed81f8f37a7069ce3,,,,,,,,,,,,,,,,,,,,,,,,,,,,,,,,,,,,,,,,,,,,,,,,,,,,,,,,,,,,,,,,,,,,,,,,,,,,,,,,,,,,,,,,,,,,,,,,,,,,,,,,,,
,,,,,,65f8416c2d0d9fb9cf7eef97,2024-05-13_11h32.28.779,group3.1-3.2-social-tom,2023.2.2,MacIntel,59.84082341,65c5074098b851296ff0b7ed,6642326ed81f8f37a7069ce3,4.1014,7.7089,space,3.5799,,,,,,,,,,,,,,,,,,,,,,,,,,,,,,,,,,,,,,,,,,,,,,,,,,,,,,,,,,,,,,,,,,,,,,,,,,,,,,,,,,,,,,,,,,,,,,,,,,,,,,
,,,,,,65f8416c2d0d9fb9cf7eef97,2024-05-13_11h32.28.779,group3.1-3.2-social-tom,2023.2.2,MacIntel,59.84082341,65c5074098b851296ff0b7ed,6642326ed81f8f37a7069ce3,,,,,,7.7093,17.2685,space,9.2503,,,,,,,,,,,,,,,,,,,,,,,,,,,,,,,,,,,,,,,,,,,,,,,,,,,,,,,,,,,,,,,,,,,,,,,,,,,,,,,,,,,,,,,,,,,,,,,,,
,,,,,,65f8416c2d0d9fb9cf7eef97,2024-05-13_11h32.28.779,group3.1-3.2-social-tom,2023.2.2,MacIntel,59.84082341,65c5074098b851296ff0b7ed,6642326ed81f8f37a7069ce3,,,,,,,,,,,17.2758,25.039,space,7.7428,,[],[],[],[],[],[],0,0,0,0,1,,,,,,,,,,,,,,,,,,,,,,,,,,,,,,,,,,,,,,,,,,,,,,,,,,,,,,,,,,,,,,,,,,,,,,,,,,,,,,,,
,,,,,,65f8416c2d0d9fb9cf7eef97,2024-05-13_11h32.28.779,group3.1-3.2-social-tom,2023.2.2,MacIntel,59.84082341,65c5074098b851296ff0b7ed,6642326ed81f8f37a7069ce3,,,,,,,,,,,25.0395,37.5557,space,12.3831,,[],[],[],[],[],[],1,0,1,0,1,,,,,,,,,,,,,,,,,,,,,,,,,,,,,,,,,,,,,,,,,,,,,,,,,,,,,,,,,,,,,,,,,,,,,,,,,,,,,,,,
,,,,,,65f8416c2d0d9fb9cf7eef97,2024-05-13_11h32.28.779,group3.1-3.2-social-tom,2023.2.2,MacIntel,59.84082341,65c5074098b851296ff0b7ed,6642326ed81f8f37a7069ce3,,,,,,,,,,,37.5564,48.7838,space,11.1696,,[],[],[],[],[],[],2,0,2,0,1,,,,,,,,,,,,,,,,,,,,,,,,,,,,,,,,,,,,,,,,,,,,,,,,,,,,,,,,,,,,,,,,,,,,,,,,,,,,,,,,
,,,,,,65f8416c2d0d9fb9cf7eef97,2024-05-13_11h32.28.779,group3.1-3.2-social-tom,2023.2.2,MacIntel,59.84082341,65c5074098b851296ff0b7ed,6642326ed81f8f37a7069ce3,,,,,,,,,,,48.7846,64.0751,space,15.2657,,[],[],[],[],[],[],3,0,3,0,1,,,,,,,,,,,,,,,,,,,,,,,,,,,,,,,,,,,,,,,,,,,,,,,,,,,,,,,,,,,,,,,,,,,,,,,,,,,,,,,,
,,,,,,65f8416c2d0d9fb9cf7eef97,2024-05-13_11h32.28.779,group3.1-3.2-social-tom,2023.2.2,MacIntel,59.84082341,65c5074098b851296ff0b7ed,6642326ed81f8f37a7069ce3,,,,,,,,,,,64.0757,70.057,space,5.9619,,[],[],[],[],[],[],4,0,4,0,1,,,,,,,,,,,,,,,,,,,,,,,,,,,,,,,,,,,,,,,,,,,,,,,,,,,,,,,,,,,,,,,,,,,,,,,,,,,,,,,,
,,,,,,65f8416c2d0d9fb9cf7eef97,2024-05-13_11h32.28.779,group3.1-3.2-social-tom,2023.2.2,MacIntel,59.84082341,65c5074098b851296ff0b7ed,6642326ed81f8f37a7069ce3,,,,,,,,,,,,,,,,,,,,,,,,,,,70.06,72.6326,72.6656,1,audio/Narrative13Situation2.wav,74.6714,,74.6717,104.4194,"[[999,1],[999,115],[999,203],[999,284],[999,367],[999,450],[999,533],[999,617],[51.5,701],[51.7,784],[51.3,870],[50.3,2037],[50.5,2122],[50.5,2205],[50.2,2289],[49.6,2373],[49.3,2454],[46.6,2538],[44.7,2623],[44.4,2707],[43.3,2790],[40.6,2872],[39.1,2957],[38,3041],[38,3122],[38,3208],[38,3291],[38,3374],[38,3458],[38,3542],[38,3625],[38,3709],[38,3793],[38,3875],[38,3959],[38,4043],[38,4127],[41.8,4212],[45.8,4294],[47.1,4378],[48,4461],[51.3,4545],[52.4,4628],[52.8,4712],[55,4796],[56.2,4879],[56.1,4962],[55.7,5046],[54.1,5130],[53.3,5212],[53.2,5297],[53.2,5380],[53.2,5464],[53.2,5547],[53.2,5631],[53.2,5715],[53,5795],[52.9,5882],[52.9,5966],[52.9,6047],[52.9,6133],[52.9,6216],[52.9,6300],[52.9,6383],[52.9,6466],[52.9,6551],[52.9,6634],[52.9,6715],[52.9,6801],[52.9,6884],[52.9,6967],[52.9,7051],[52.9,7135],[52.8,7218],[52.8,7301],[52.6,7386],[52.6,7469],[52.6,7551],[52.6,7636],[52.5,7720],[52.5,7801],[52.5,7887],[52.5,7969],[52.8,8054],[55.2,8138],[59.6,8225],[62.9,8305],[65.6,8388],[67.1,8469],[69.7,8555],[72.2,8639],[75.7,8722],[79.1,8806],[92.3,9974],[93,10059],[94.2,10144],[95.3,10227],[95.6,10310],[95.8,10394],[96.5,10478],[97.2,10559],[98.2,10645],[98.9,10728],[98.9,10811],[98.9,10895],[98.9,10979],[98.9,11062],[98.9,11144],[98.9,11229],[98.9,11313],[98.9,11395],[98.9,11480],[98.9,11565],[98.9,11647],[98.9,11730],[98.9,11812],[98.9,11897],[98.9,11979],[98.9,12064],[98.9,12148],[98.9,12234],[98.9,12314],[98.9,12399],[98.9,12480],[98.9,12566],[98.9,12648],[98.9,12733],[98.9,12816],[98.9,12900],[98.9,12984],[98.9,13067],[98.9,13150],[98.9,13233],[98.9,13318],[98.9,13401],[98.9,13484],[98.9,13568],[98.9,13652],[98.9,13736],[98.9,13819],[98.9,13902],[98.9,13986],[98.9,14068],[98.9,14151],[98.9,14237],[98.9,14321],[98.9,14404],[98.9,14488],[98.9,14569],[98.9,14655],[98.9,14736],[98.9,14819],[98.9,14906],[98.9,14990],[98.9,15071],[98.9,15156],[98.9,15240],[98.9,15324],[98.9,15405],[98.9,15491],[98.9,15572],[98.9,15658],[98.9,15742],[98.9,15823],[98.9,15909],[98.9,15989],[98.9,16075],[98.9,16158],[98.9,16242],[98.9,16326],[98.9,16410],[98.9,16490],[98.9,16578],[98.9,16659],[98.9,16743],[98.9,16827],[98.9,16911],[98.9,16994],[98.9,17078],[98.9,17162],[98.9,17246],[98.5,17328],[91.1,17412],[81.7,17497],[72.5,17579],[63.4,17664],[57.9,17747],[54.3,17830],[53.5,17913],[53.5,17997],[53.5,18081],[53.5,18163],[53.5,18247],[52.8,18332],[50.6,18413],[49.4,18499],[48.1,18582],[46.7,18664],[45.5,18750],[43.8,18833],[43.5,18917],[42.1,19000],[37.5,19084],[34.6,19167],[32.7,19251],[32.4,19335],[31,19416],[27.9,19502],[27.6,19585],[27.6,19669],[27.6,19752],[27.6,19835],[27.6,19918],[27.6,20001],[27.6,20087],[27.6,20169],[27.6,20254],[26,20335],[24.4,20421],[23.4,20504],[22.7,20587],[21.9,20670],[20.1,20755],[19,20839],[18.5,20922],[18.2,21004],[17.9,21089],[17.5,21171],[17,21256],[16.8,21338],[16.8,21423],[16.8,21506],[16.8,21590],[16.8,21674],[16.8,21756],[16.8,21840],[16.8,21924],[16.8,22007],[16.9,22092],[17,22174],[17.2,22259],[17.3,22341],[17.4,22423],[17.5,22509],[17.6,22592],[17.6,22677],[17.9,22759],[21.1,22843],[22.9,22927],[24.1,23012],[24.7,23094],[25.4,23178],[25.9,23261],[26.1,23345],[26.4,23428],[26.6,23512],[26.7,23596],[26.8,23678],[26.9,23763],[26.8,23846],[26.5,23930],[26.5,24013],[26.5,24095],[26.6,24180],[27.7,24264],[27.9,24348],[27.9,24429],[28.1,24513],[28.4,24599],[28.5,24682],[28.5,24764],[27.8,24849],[27.4,24933],[27.4,25016],[27.6,25100],[28.6,25181],[29.3,25267],[29.6,25350],[30.2,25435],[31.4,25517],[31.7,25601],[31.8,25683],[32.5,25768],[33.1,25853],[33.2,25935],[33.2,26016],[33.2,26101],[33.2,26185],[33.2,26268],[33.2,26354],[33.2,26435],[33.2,26519],[32.8,26602],[31.2,26685],[29.4,26771],[25.4,26855],[22.2,26938],[22.2,27022],[22.2,27105],[22.2,27188],[21.2,27272],[19.4,27356],[19.3,27439],[19.3,27523],[19.3,27606],[19,27689],[18.2,27775],[17.8,27857],[17.6,27938],[17.5,28024],[17.5,28108],[17.4,28190],[17.4,28272],[17.4,28359],[17.5,28442],[17.6,28525],[17.6,28608],[17.6,28691],[17.6,28774],[17.6,28857],[17.6,28943],[17.6,29024],[17.6,29110],[17.6,29191],[17.6,29277],[17.6,29359],[17.6,29442],[17.6,29528],[17.7,29611],[17.7,29694]]",1,0,104.4197,112.0893,34.26269531,6.5207,"[{""rating"":50.42534722222223,""responseTime"":5.445400000005975},{""rating"":34.2626953125,""responseTime"":6.520699999988096}]",space,7.1222,,112.0896,Not at all,0,112.1002,,,[],,0,0,0,0,1,audio/Narrative13Situation2.wav,audio/Narrative13Situation2.wav,audio/Narrative13Situation2.wav,audio/Narrative13Situation2.wav,2,2,2,2,,,,,,,,,,,,,,,,,,,,,,,,,,,,,,,,,,,,,,,
,,,,,,65f8416c2d0d9fb9cf7eef97,2024-05-13_11h32.28.779,group3.1-3.2-social-tom,2023.2.2,MacIntel,59.84082341,65c5074098b851296ff0b7ed,6642326ed81f8f37a7069ce3,,,,,,,,,,,,,,,,,,,,,,,,,,,,,112.1006,1,audio/Narrative8Situation1.wav,113.9597,space,113.9598,129.886,"[[52.4,1086],[52.1,1169],[52.1,1253],[51.5,1337],[51.3,1419],[51.3,1502],[51.3,1586],[51.2,1671],[51,1752],[50.7,1838],[50.6,1921],[50.6,2004],[50.6,2087],[50.6,2170],[50.6,2255],[50.6,2338],[50.6,2422],[50.6,2507],[50.6,2587],[50.6,2672],[50.6,2756],[50.6,2837],[50.6,2924],[50.6,3006],[50.6,3089],[50.6,3174],[50.6,3259],[50.6,3342],[50.6,3423],[50.6,3508],[50.6,3592],[50.6,3674],[50.6,3760],[50.6,3843],[51.9,3924],[52.8,4010],[53.5,4092],[54.1,4178],[54.5,4258],[55.6,4344],[56.9,4429],[58,4512],[59.3,4595],[60.8,4678],[63,4763],[64.7,4846],[66.4,4928],[68,5013],[69.1,5097],[70.7,5181],[71.9,5264],[72.2,5344],[72.2,5431],[72.2,5514],[72.2,5598],[72.2,5681],[72.2,5764],[72.2,5848],[72.2,5932],[72.2,6016],[72.2,6099],[72.2,6182],[72.7,6267],[74.3,6351],[74.8,6433],[76.6,6517],[77.7,6600],[78.9,6684],[79.3,6768],[79.4,6851],[79.4,6935],[79.4,7017],[79.4,7101],[79.4,7185],[79.4,7269],[79.4,7353],[79.4,7435],[79.4,7519],[79.4,7603],[79.4,7686],[79.4,7770],[79.4,7853],[79.4,7937],[79.4,8020],[79.4,8103],[79.4,8188],[79.4,8271],[79.4,8362],[79.4,8437],[79.4,8522],[79.4,8603],[79.4,8686],[79.4,8771],[79.4,8857],[79.4,8939],[79.4,9027],[79.4,9107],[79.4,9191],[79.4,9274],[79.4,9355],[79.4,9441],[79.4,9525],[79.7,9609],[80.6,9692],[81.5,9776],[84.4,9860],[95.8,10695],[95.5,10788],[96.1,10862],[97.2,10946],[98.8,11029],[99.3,11112],[99.3,11196],[99.3,11279],[99.3,11363],[99.4,11447],[99.9,11530],[100,11614],[100,11695],[100,11780],[100,11864],[100,11945],[100,12031],[100,12112],[100,12198],[100,12282],[100,12364],[100,12449],[100,12532],[100,12616],[99.9,12700],[99.5,12784],[98.7,12867],[98.4,12950],[98.3,13034],[98.2,13118],[98,13202],[97.9,13285],[97.8,13366],[97.7,13449],[97.5,13536],[97.3,13619],[97.1,13703],[97,13786],[97,13870],[97,13954],[97,14036],[97,14121],[97,14203],[97,14285],[97,14370],[97,14454],[97,14538],[97,14620],[97,14703],[97,14789],[97,14871],[97,14955],[97,15039],[97,15123],[97,15206],[97,15289],[97,15371],[97,15457],[97,15538],[97,15624],[97,15707],[97,15792],[96.9,15875]]",1,0,129.8863,133.2112,98.88834635,2.4776,"[{""rating"":84.52311197916667,""responseTime"":1.796899999976148},{""rating"":98.88834635416667,""responseTime"":2.477599999994027}]",space,2.7916,,133.2113,Definitely yes,100,133.2211,,,[],,0,1,1,1,1,audio/Narrative7Situation1.wav,audio/Narrative8Situation1.wav,audio/Narrative5Situation1.wav,audio/Narrative6Situation1.wav,2,5,5,2,1.8383,,,,,,,,,,,,,,,,,,,,,,,,,,,,,,,,,,,,,,
,,,,,,65f8416c2d0d9fb9cf7eef97,2024-05-13_11h32.28.779,group3.1-3.2-social-tom,2023.2.2,MacIntel,59.84082341,65c5074098b851296ff0b7ed,6642326ed81f8f37a7069ce3,,,,,,,,,,,,,,,,,,,,,,,,,,,,,133.2214,1,audio/Narrative8Situation2.wav,136.2335,,136.2336,146.3454,"[[999,0],[999,85],[999,167],[999,253],[999,336],[999,419],[999,503],[999,584],[999,667],[999,753],[999,836],[999,920],[999,1005],[999,1086],[51.8,1172],[51.7,1254],[51.5,1337],[51.3,1422],[51.3,1505],[51.3,1589],[50.7,1674],[49.3,1757],[46.3,1840],[42.3,1924],[35.2,2007],[28.6,2091],[26.2,2174],[26.2,2257],[26.2,2341],[26.2,2425],[25,2505],[19.7,2593],[16.8,2676],[16.1,2759],[15.7,2843],[14.8,2926],[13.7,3010],[12.2,3092],[10.7,3177],[9.9,3260],[9.9,3342],[9.9,3425],[9.9,3511],[9.9,3592],[9.9,3678],[9.9,3760],[9.9,3844],[9.9,3928],[9.9,4012],[9.9,4093],[9.9,4179],[9.9,4262],[9.9,4344],[9.9,4430],[9.9,4511],[9.9,4597],[9.9,4680],[9.9,4764],[9.9,4846],[9.9,4930],[9.9,5015],[9.9,5097],[9.9,5181],[9.9,5263],[9.9,5346],[9.9,5432],[9.9,5516],[9.9,5599],[9.9,5680],[9.9,5767],[9.9,5851],[9.9,5935],[9.9,6017],[9.9,6099],[9.9,6185],[9.9,6268],[9.9,6350],[13.1,6437],[14.2,6519],[16.6,6602],[20,6687],[22.9,6770],[24.7,6853],[27.7,6937],[32.2,7021],[35.2,7103],[36.9,7187],[40.2,7271],[43,7354],[45.1,7438],[47.5,7522],[50.1,7605],[52.9,7689],[54.3,7772],[55.8,7855],[57.2,7939],[57.5,8021],[57.5,8107],[57.5,8189],[57.7,8274],[61,8358],[64,8440],[65.6,8524],[67.9,8608],[69.2,8690],[69.5,8775],[69.5,8857],[69.5,8942],[69.6,9026],[69.6,9107],[69.6,9193],[69.6,9275],[69.6,9359],[69.6,9443],[69.6,9527],[69.6,9611],[69.6,9692],[69.6,9777],[69.6,9860],[69.6,9942],[69.6,10026],[69.6,10111]]",1,0,146.3456,150.9589,49.20410156,3.9986,"[{""rating"":53.48253038194445,""responseTime"":2.7981999999880713},{""rating"":49.2041015625,""responseTime"":3.998599999994042}]",space,4.082,,150.9591,Partially,50,150.9686,,,[],,0,2,2,2,1,audio/Narrative7Situation2.wav,audio/Narrative8Situation2.wav,audio/Narrative5Situation2.wav,audio/Narrative6Situation2.wav,3,3,3,3,,,,,,,,,,,,,,,,,,,,,,,,,,,,,,,,,,,,,,,
,,,,,,65f8416c2d0d9fb9cf7eef97,2024-05-13_11h32.28.779,group3.1-3.2-social-tom,2023.2.2,MacIntel,59.84082341,65c5074098b851296ff0b7ed,6642326ed81f8f37a7069ce3,,,,,,,,,,,,,,,,,,,,,,,,,,,,,150.969,1,audio/Narrative8Situation3.wav,154.9832,,154.9832,177.3793,"[[999,1],[999,84],[999,167],[999,252],[999,336],[999,420],[999,503],[999,587],[999,670],[999,755],[999,835],[999,922],[999,1005],[999,1088],[51.6,1172],[51.3,1256],[50.7,1339],[50.6,1422],[50.7,1504],[51,1591],[51,1671],[51,1756],[51,1840],[50.2,1924],[43.5,2008],[35.4,2089],[31.1,2175],[31.1,2258],[31.1,2341],[31.1,2425],[31.1,2508],[27.5,2594],[25,2676],[23.7,2757],[22.7,2843],[21.1,2927],[20.8,3009],[24.2,3094],[27.9,3177],[30,3262],[31.1,3346],[31.1,3428],[30.3,3511],[28.6,3595],[27.1,3679],[26.2,3762],[25.2,3846],[23.3,3929],[21.9,4012],[21.7,4095],[22.8,4180],[26.3,4264],[28.2,4346],[28.8,4431],[29,4514],[29,4598],[29,4679],[29.1,4765],[29.5,4847],[31.6,4932],[35.5,5016],[38.8,5099],[39.8,5183],[39.9,5266],[40,5349],[40.6,5434],[41.5,5517],[42.3,5601],[43.2,5683],[44.2,5768],[44.4,5851],[44.4,5935],[44.4,6018],[44.4,6101],[44.4,6185],[44.4,6269],[44.4,6353],[44.4,6437],[44.4,6517],[44,6603],[40.8,6687],[37,6770],[33.2,6854],[31.5,6938],[30.8,7021],[24.8,7104],[22.1,7188],[21.9,7272],[22,7356],[22.2,7436],[22.3,7522],[22.4,7606],[22.5,7688],[22.7,7773],[23.3,7856],[23.8,7938],[24.3,8022],[25,8105],[26,8191],[27,8275],[27.6,8358],[27.7,8442],[27.8,8525],[28.2,8609],[29,8693],[30.5,8776],[31.5,8859],[37.4,8943],[42.4,9026],[45.2,9109],[47.5,9193],[48.9,9278],[50.6,9361],[51.9,9444],[52.8,9528],[53.6,9611],[54.1,9694],[54.4,9778],[54.4,9862],[54.4,9945],[54.4,10029],[54.4,10111],[54.4,10196],[54.4,10278],[54.4,10361],[54.4,10447],[54.4,10530],[54.4,10614],[54.5,10698],[54.6,10780],[54.6,10865],[54.6,10948],[54.6,11029],[54.6,11115],[54.6,11199],[54.6,11283],[54.6,11366],[54.6,11449],[54.6,11533],[54.6,11616],[54.6,11700],[54.6,11783],[54.6,11867],[54.6,11951],[54.6,12033],[54.6,12116],[54.6,12201],[54.6,12285],[54.6,12367],[54.6,12451],[54.6,12535],[54.6,12616],[54.7,12700],[55.6,12786],[57.5,12870],[58.8,12953],[59.5,13037],[60.1,13120],[60.7,13204],[60.9,13288],[60.9,13370],[60.9,13454],[60.9,13537],[60.9,13620],[60.9,13706],[60.9,13789],[60.9,13873],[60.6,13955],[53.4,14039],[45.6,14123],[42.8,14207],[42.5,14291],[42.7,14372],[43,14457],[43.5,14541],[43.7,14623],[43.8,14708],[44.1,14792],[44.5,14876],[44.7,14959],[44.8,15043],[45.1,15126],[49,15210],[58.5,15294],[72.7,15377],[75.1,15459],[75.2,15543],[75.2,15626],[75.2,15710],[75.2,15794],[75.2,15879],[75,15962],[71.6,16045],[71,16128],[71,16212],[71,16294],[71,16378],[71,16462],[71,16547],[71,16631],[71,16714],[71,16795],[71,16879],[71,16964],[71,17047],[71,17131],[71,17214],[71,17299],[71,17379],[71,17464],[71,17548],[71,17632],[71,17716],[71,17797],[71,17884],[71,17966],[71,18051],[71,18133],[71,18216],[71,18301],[71,18385],[71,18468],[71,18552],[71,18635],[71,18717],[71,18803],[71,18886],[71,18970],[71,19052],[71,19137],[71,19220],[71,19302],[71,19388],[71,19470],[71,19555],[71,19637],[71,19720],[71,19803],[71,19888],[71,19972],[71,20056],[71,20139],[71,20223],[71,20305],[71,20389],[71,20473],[71,20557],[71,20640],[71,20723],[71,20806],[71,20891],[71,20974],[71,21059],[71,21143],[71,21225],[71,21306],[71,21392],[71,21476],[71,21559],[71,21643],[71,21727],[71,21809],[71,21893],[71,21977],[69,22059],[63.4,22145],[58.5,22228],[56.3,22312],[56.2,22395]]",1,0,177.3795,179.4339,51.16916233,1.0563,"[{""rating"":51.169162326388886,""responseTime"":1.0563000000119303}]",space,1.522,,179.4339,Not at all,0,179.4428,,,[],,0,3,3,3,1,audio/Narrative7Situation3.wav,audio/Narrative8Situation3.wav,audio/Narrative5Situation3.wav,audio/Narrative6Situation3.wav,8,4,3,5,,,,,,,,,,,,,,,,,,,,,,,,,,,,,,,,,,,,,,,
,,,,,,65f8416c2d0d9fb9cf7eef97,2024-05-13_11h32.28.779,group3.1-3.2-social-tom,2023.2.2,MacIntel,59.84082341,65c5074098b851296ff0b7ed,6642326ed81f8f37a7069ce3,,,,,,,,,,,,,,,,,,,,,,,,,,,,,179.4433,1,audio/Narrative8Situation4.wav,182.4588,,182.459,196.647,"[[999,0],[999,83],[999,165],[999,248],[999,334],[999,417],[999,501],[999,585],[999,671],[999,750],[999,835],[999,919],[999,1003],[999,1085],[52.3,1170],[51.1,1253],[50.7,1338],[50.7,1421],[50.7,1504],[50.7,1584],[50.7,1670],[50.7,1753],[50.7,1838],[50.7,1921],[50.7,2004],[50.7,2088],[50.7,2171],[50.7,2253],[50.7,2338],[50.7,2422],[50.7,2505],[50.7,2590],[53,2673],[54,2758],[55,2841],[56.1,2924],[57,3007],[58.6,3090],[60.9,3176],[63.1,3258],[65.4,3342],[68.6,3424],[72.2,3509],[73.5,3593],[74.6,3677],[75.9,3760],[78.2,3843],[79.4,3928],[80.4,4010],[80.9,4094],[80.9,4178],[80.9,4259],[80.9,4345],[80.9,4428],[80.9,4512],[80.9,4595],[81,4679],[82.1,4763],[82.8,4845],[83,4930],[83.1,5013],[83.1,5095],[83.1,5180],[83,5263],[83,5347],[83,5431],[83,5513],[83,5599],[83,5680],[83,5764],[83,5849],[83,5931],[82.9,6015],[82.6,6099],[82.1,6181],[80.7,6266],[80.5,6349],[80.5,6433],[80.5,6517],[80.5,6600],[80.5,6682],[80.5,6767],[80.5,6851],[80.5,6934],[80.5,7016],[80.5,7102],[80.8,7186],[82.7,7269],[86.5,7353],[88.4,7434],[91.4,7520],[93.5,7602],[94.5,7685],[95.6,7771],[96.6,7855],[97.3,7938],[97.7,8021],[98,8104],[98,8188],[98,8272],[98,8355],[98,8437],[98,8520],[97.9,8606],[97.7,8689],[97.7,8773],[97.7,8854],[97.7,8939],[97.7,9024],[97.7,9107],[97.7,9191],[97.7,9274],[97.7,9358],[97.7,9441],[97.7,9525],[97.7,9608],[97.7,9691],[97.7,9774],[97.7,9859],[97.7,9942],[97.7,10026],[97.7,10110],[97.7,10192],[97.7,10277],[97.6,10360],[97.5,10443],[97.4,10528],[97.4,10611],[97.3,10694],[97.3,10778],[97.3,10862],[97.3,10945],[97.3,11029],[97.3,11112],[97.3,11194],[97.3,11280],[97.3,11363],[97.3,11445],[97.2,11530],[97.2,11614],[97.2,11695],[97.2,11781],[97.2,11865],[97.2,11948],[97.2,12032],[97.2,12113],[97.2,12199],[97.2,12281],[97.2,12366],[97,12449],[97,12533],[97,12617],[97,12699],[97,12782],[97,12867],[97,12949],[97,13033],[97,13118],[97,13202],[97,13286],[97,13366],[97,13453],[97,13534],[97,13619],[97,13703],[97,13785],[97,13868],[96.9,13954],[96.9,14036],[96.9,14121]]",1,0,196.6471,198.301,96.76540799,0.8118,"[{""rating"":96.76540798611111,""responseTime"":0.8117999999820995}]",space,1.1207,,198.3011,Not at all,0,198.3072,,,[],,0,4,4,4,1,audio/Narrative7Situation4.wav,audio/Narrative8Situation4.wav,audio/Narrative5Situation4.wav,audio/Narrative6Situation4.wav,3,3,1,2,,,,,,,,,,,,,,,,,,,,,,,,,,,,,,,,,,,,,,,
,,,,,,65f8416c2d0d9fb9cf7eef97,2024-05-13_11h32.28.779,group3.1-3.2-social-tom,2023.2.2,MacIntel,59.84082341,65c5074098b851296ff0b7ed,6642326ed81f8f37a7069ce3,,,,,,,,,,,,,,,,,,,,,,,,,,,,,198.3075,1,audio/Narrative8Situation5.wav,200.323,,200.3232,208.5618,"[[999,0],[999,81],[999,167],[999,249],[999,333],[999,416],[999,501],[999,585],[999,668],[999,751],[999,833],[999,918],[999,1002],[999,1086],[999,1170],[999,1253],[999,1337],[53.6,1421],[51.3,1504],[50.8,1588],[50.8,1669],[52.8,1755],[60.1,1837],[61.5,1922],[65.8,2006],[70.7,2089],[73.6,2173],[76.9,2256],[79.5,2340],[81.8,2423],[84.2,2508],[86.7,2591],[87.6,2672],[88.4,2758],[89.1,2841],[89.7,2922],[89.8,3006],[90,3091],[90.7,3172],[91,3257],[91,3340],[91,3426],[91.5,3509],[91.7,3593],[91.7,3677],[91.7,3760],[91.7,3842],[91.7,3927],[91.7,4010],[91.7,4093],[92.9,4177],[93.6,4262],[93.9,4345],[94,4427],[94.1,4513],[94.1,4594],[94.2,4679],[94.3,4763],[94.4,4846],[94.4,4930],[94.4,5012],[94.4,5097],[94.4,5180],[94.4,5263],[94.4,5347],[94.4,5431],[94.4,5515],[94.5,5598],[94.6,5682],[94.7,5765],[94.8,5846],[94.9,5932],[95,6017],[95.1,6099],[95.3,6182],[95.4,6268],[95.6,6351],[95.8,6433],[96,6518],[96,6601],[96,6685],[96,6768],[96,6851],[96,6933],[96,7019],[96,7101],[96,7184],[96,7269],[96,7353],[96,7437],[96,7520],[96,7603],[96,7686],[96,7771],[95.9,7853],[95.8,7936],[95.7,8021],[95.6,8106],[95.4,8187]]",1,0,208.562,210.3167,93.96538628,0.8991,"[{""rating"":93.96538628472221,""responseTime"":0.8990999999940357}]",space,1.2299,,210.3168,Definitely yes,100,210.3266,,,[],,0,5,5,5,1,audio/Narrative7Situation5.wav,audio/Narrative8Situation5.wav,audio/Narrative5Situation5.wav,audio/Narrative6Situation5.wav,5,2,5,2,,,,,,,,,,,,,,,,,,,,,,,,,,,,,,,,,,,,,,,
,,,,,,65f8416c2d0d9fb9cf7eef97,2024-05-13_11h32.28.779,group3.1-3.2-social-tom,2023.2.2,MacIntel,59.84082341,65c5074098b851296ff0b7ed,6642326ed81f8f37a7069ce3,,,,,,,,,,,,,,,,,,,,,,,,,,,,,210.3269,1,audio/Narrative8Situation6.wav,212.3359,,212.3359,218.8058,"[[999,0],[999,87],[999,167],[999,253],[999,336],[999,418],[999,504],[999,586],[999,668],[999,755],[999,837],[57.2,922],[55.8,1005],[53.9,1089],[51,1171],[50.9,1255],[50.9,1339],[50.9,1423],[50.9,1507],[50.9,1590],[51,1673],[57.9,1757],[61.7,1841],[63.4,1922],[66.5,2009],[67.9,2089],[69.3,2174],[70.5,2259],[72.5,2344],[74.1,2427],[75,2510],[76.4,2594],[78,2676],[79.8,2759],[80.6,2843],[80.7,2927],[81.9,3011],[83.5,3094],[84,3178],[84,3262],[84,3344],[84,3428],[84,3512],[84.3,3596],[85.1,3680],[85.7,3763],[86.1,3846],[86.3,3930],[86.4,4011],[86.4,4097],[86.4,4180],[86.4,4263],[86.4,4347],[86.4,4429],[86.4,4515],[86.4,4597],[86.4,4680],[86.4,4764],[86.4,4847],[86.4,4932],[86.4,5015],[86.4,5099],[86.4,5183],[86.4,5265],[86.4,5349],[86.4,5433],[86.4,5517],[86.4,5600],[86.4,5685],[86.4,5769],[86.4,5851],[86.4,5933],[86.4,6018],[86.4,6099],[86.4,6185],[86.4,6269],[86.4,6353],[86.4,6434]]",1,0,218.8059,220.4434,86.43337674,0.5842,"[{""rating"":86.43337673611111,""responseTime"":0.5841999999880727}]",space,1.1029,,220.4436,Definitely yes,100,220.4502,,,[],,0,6,6,6,1,audio/Narrative7Situation6.wav,audio/Narrative8Situation6.wav,audio/Narrative5Situation6.wav,audio/Narrative6Situation6.wav,3,2,3,2,,,,,,,,,,,,,,,,,,,,,,,,,,,,,,,,,,,,,,,
,,,,,,65f8416c2d0d9fb9cf7eef97,2024-05-13_11h32.28.779,group3.1-3.2-social-tom,2023.2.2,MacIntel,59.84082341,65c5074098b851296ff0b7ed,6642326ed81f8f37a7069ce3,,,,,,,,,,,,,,,,,,,,,,,,,,,,,220.4505,1,audio/Narrative8Situation7.wav,223.4671,,223.4671,235.5509,"[[999,1],[999,84],[999,168],[999,249],[999,336],[999,417],[999,502],[999,586],[49.7,669],[49.6,753],[49.6,837],[49.6,919],[50,1004],[50.2,1088],[50.3,1171],[50.4,1255],[50.5,1338],[50.6,1422],[50.7,1505],[50.7,1587],[50.7,1669],[50.7,1756],[50.7,1840],[50.7,1923],[50.7,2006],[50.7,2090],[50.7,2173],[50.7,2255],[50.7,2339],[50.7,2423],[50.7,2507],[50.7,2591],[50.7,2674],[50.7,2758],[50.8,2842],[52.1,2926],[54.2,3010],[55.8,3091],[57.1,3177],[58,3260],[58.7,3344],[60,3428],[61.4,3510],[62.8,3594],[64,3678],[64.7,3762],[65.2,3845],[65.6,3930],[66.1,4012],[66.5,4095],[66.8,4180],[67,4263],[67.3,4345],[67.6,4429],[67.7,4513],[67.8,4595],[68,4681],[68.7,4765],[69.1,4845],[69.5,4931],[70.1,5015],[70.3,5098],[70.3,5179],[70.3,5265],[70.3,5347],[70.3,5430],[71.2,5513],[72.1,5599],[72.8,5683],[73.1,5766],[73.9,5848],[74.3,5934],[74.9,6017],[75.3,6098],[75.6,6185],[75.8,6266],[76,6351],[76.2,6435],[76.8,6519]]",1,0,235.551,237.6564,77.53797743,1.1813,"[{""rating"":77.53797743055554,""responseTime"":1.1812999999821159}]",space,1.5736,,237.6566,Partially,50,237.6658,,,[],,0,7,7,7,1,audio/Narrative7Situation7.wav,audio/Narrative8Situation7.wav,audio/Narrative5Situation7.wav,audio/Narrative6Situation7.wav,5,3,4,5,,,,,,,,,,,,,,,,,,,,,,,,,,,,,,,,,,,,,,,
,,,,,,65f8416c2d0d9fb9cf7eef97,2024-05-13_11h32.28.779,group3.1-3.2-social-tom,2023.2.2,MacIntel,59.84082341,65c5074098b851296ff0b7ed,6642326ed81f8f37a7069ce3,,,,,,,,,,,,,,,,,,,,,,,,,,,,,237.6661,1,audio/Narrative8Situation8.wav,240.6812,,240.6812,253.5499,"[[52.5,83],[52.2,166],[52.2,250],[52.2,334],[52.2,417],[52.2,500],[51.9,585],[50.1,668],[50,752],[50,835],[50,918],[50,1003],[50,1086],[50,1167],[50,1252],[50,1335],[50,1421],[50,1502],[50,1587],[50,1669],[50,1752],[50,1837],[49.8,1922],[48.8,2004],[48.3,2089],[47,2172],[44.1,2256],[43,2339],[43,2420],[43,2503],[43,2593],[43,2673],[43,2757],[42.8,2839],[42.5,2925],[42.2,3009],[41.9,3089],[41.1,3176],[40,3257],[39.5,3343],[39.3,3425],[39.2,3509],[38.9,3594],[37.7,3676],[37.1,3760],[36.7,3843],[36.4,3926],[36,4010],[35.9,4095],[35.7,4175],[35.7,4261],[35.6,4342],[35.5,4428],[35.5,4510],[35.4,4596],[35.4,4679],[35.4,4761],[35.4,4846],[35.4,4929],[35.4,5013],[35.4,5097],[35.4,5178],[35.4,5264],[35.4,5346],[35.3,5430],[35.3,5515],[35.3,5597],[35.3,5682],[35.3,5765],[35.3,5849],[35.3,5932],[35.3,6015],[35.3,6099],[35.3,6182],[35.3,6264],[35.3,6348],[35.3,6432],[35.3,6516],[35.3,6599],[35.3,6684],[35.3,6768],[35.3,6851],[35.3,6934],[35.3,7019],[35.3,7101],[35.3,7184],[35.3,7268],[35.3,7352],[35.4,7437],[36.1,7518],[42,7603],[66.8,7687],[77.2,7770],[79.9,7854],[80.3,7938],[80.3,8020],[80.3,8104],[80.3,8187],[80.2,8272],[80.1,8354],[79.9,8439],[79.9,8521],[79.8,8606],[79.7,8690],[79.7,8773],[79.7,8857],[79.8,8940],[79.9,9022],[80.2,9108],[82,9192],[83.1,9274],[83.5,9358],[84.6,9441],[85.8,9525],[86.1,9609],[86.1,9692],[86.1,9776],[86.1,9859],[86.1,9943],[86.1,10024],[86.1,10110],[86.1,10194],[86.1,10275],[86.1,10361],[86.1,10445],[86.1,10527],[86.2,10616],[86.4,10695],[86.5,10779],[86.9,10862],[87.3,10946],[88.1,11028],[88.6,11111],[88.7,11196],[88.7,11278],[88.7,11363],[88.7,11447],[88.7,11529],[88.7,11613],[88.7,11697],[88.7,11778],[88.7,11864],[88.7,11947],[88.7,12032],[88.7,12115],[88.7,12197],[88.7,12279],[88.7,12365],[88.7,12449],[88.7,12533],[88.7,12615],[88.7,12700],[88.7,12783],[88.7,12868]]",1,0,253.5502,255.5714,96.59071181,1.5585,"[{""rating"":86.64767795138889,""responseTime"":0.9419000000060009},{""rating"":96.59071180555556,""responseTime"":1.5585000000000377}]",space,1.4875,,255.5715,Partially,50,255.5802,,,[],,0,8,8,8,1,audio/Narrative7Situation8.wav,audio/Narrative8Situation8.wav,audio/Narrative5Situation8.wav,audio/Narrative6Situation8.wav,2,3,3,5,,,,,,,,,,,,,,,,,,,,,,,,,,,,,,,,,,,,,,,
,,,,,,65f8416c2d0d9fb9cf7eef97,2024-05-13_11h32.28.779,group3.1-3.2-social-tom,2023.2.2,MacIntel,59.84082341,65c5074098b851296ff0b7ed,6642326ed81f8f37a7069ce3,,,,,,,,,,,,,,,,,,,,,,,,,,,,,255.5806,1,audio/Narrative8Situation9.wav,258.5949,,258.595,286.7901,"[[999,1],[999,84],[44.8,168],[44.8,251],[44.9,335],[45.3,419],[47.7,500],[48.5,586],[49.6,669],[50.7,754],[50.8,836],[50.8,920],[50.8,1002],[50.8,1086],[50.8,1170],[50.8,1253],[50.8,1336],[50.8,1421],[50.8,1505],[50.8,1585],[50.8,1672],[50.8,1754],[49.4,1839],[43,1922],[42.2,2006],[41.1,2090],[38.2,2175],[36.3,2257],[36.2,2341],[36.1,2422],[35.9,2508],[35.8,2589],[35.8,2674],[35.8,2758],[35.8,2841],[36.6,2925],[38,3009],[39.8,3092],[42.3,3176],[45.1,3257],[48.8,3343],[52,3426],[55.2,3510],[58.8,3594],[62.1,3677],[65,3761],[72.9,4512],[72.8,4597],[73.4,4680],[74.7,4763],[75.7,4848],[75.9,4929],[76.4,5014],[77.2,5097],[77.7,5182],[78.6,5265],[79.7,5349],[81,5434],[81.9,5516],[82.7,5599],[83.6,5685],[83.7,5784],[83.7,5868],[83.7,5950],[83.7,6032],[83.7,6115],[83.7,6200],[83.7,6283],[83.7,6369],[83.7,6457],[83.7,6540],[83.7,6619],[83.7,6699],[83.7,6790],[83.7,6947],[83.7,28123]]",1,0,286.7919,290.3141,81.6672092,3.2158,"[{""rating"":81.66720920138889,""responseTime"":3.215800000011882}]",space,2.9751,,290.3142,Partially,50,290.326,,,[],,0,9,9,9,1,audio/Narrative7Situation9.wav,audio/Narrative8Situation9.wav,audio/Narrative5Situation9.wav,audio/Narrative6Situation9.wav,2,3,3,4,,,,,,,,,,,,,,,,,,,,,,,,,,,,,,,,,,,,,,,
,,,,,,65f8416c2d0d9fb9cf7eef97,2024-05-13_11h32.28.779,group3.1-3.2-social-tom,2023.2.2,MacIntel,59.84082341,65c5074098b851296ff0b7ed,6642326ed81f8f37a7069ce3,,,,,,,,,,,,,,,,,,,,,,,,,,,,,290.3264,1,audio/Narrative7Situation1.wav,292.3336,,292.3336,348.2192,"[[999,1],[999,83],[999,166],[999,253],[999,336],[999,419],[999,505],[999,586],[999,676],[999,758],[999,837],[999,923],[999,1006],[999,1091],[999,1173],[999,1254],[999,1339],[999,1420],[999,1504],[49.7,1590],[49.8,1671],[49.9,1755],[49.9,1838],[49.9,1924],[49.9,2008],[49.9,2089],[49.9,2173],[49.9,2258],[49.9,2340],[49.9,2423],[49.9,2509],[49.9,2591],[49.9,2673],[49.9,2758],[49.9,2842],[49.9,2927],[49.9,3008],[49.9,3090],[49.9,3176],[49.9,3260],[49.9,3344],[49.9,3427],[49.9,3510],[49.9,3595],[49.9,3679],[49.9,3762],[49.9,3844],[49.9,3930],[49.9,4011],[49.9,4097],[49.9,4180],[49.9,4261],[49.9,4346],[49.9,4431],[49.9,4513],[49.9,4597],[49.9,4682],[49.9,4765],[49.9,4848],[49.9,4932],[49.9,5013],[49.9,5097],[49.9,5181],[49.9,5266],[49.9,5350],[49.9,5431],[49.9,5515],[49.9,5600],[49.9,5684],[49.9,5768],[49.9,5851],[49.9,5934],[49.9,6015],[49.9,6101],[49.9,6183],[49.9,6268],[49.9,6351],[49.9,6435],[49.9,6519],[49.9,6603],[49.9,6685],[49.9,6768],[49.9,6851],[49.9,6936],[49.9,7020],[49.9,7104],[49.9,7188],[49.9,7271],[49.9,7354],[49.9,7440],[49.9,7522],[49.9,7605],[54,7689],[56.2,7772],[57,7856],[59.2,7940],[60.8,8026],[61.7,8108],[63.3,8191],[64.3,8272],[64.7,8358],[65.5,8441],[67.3,8524],[68.4,8608],[69.2,8693],[70.3,8775],[71.7,8859],[72.4,8943],[73,9026],[73.7,9109],[73.8,9193],[73.8,9277],[73.8,9358],[73.8,9444],[73.8,9527],[73.8,9611],[73.8,9693],[73.8,9777],[73.8,9862],[73.8,9945],[73.8,10028],[73.8,10112],[73.8,10197],[74,10280],[74.5,10363],[74.7,10445],[74.8,10530],[74.8,10613],[74.8,10694],[74.8,10779],[74.8,10864],[74.8,10948],[74.8,11030],[74.8,11115],[74.8,11198],[74.8,11282],[74.8,11365],[74.8,11449],[74.8,11532],[75.3,11617],[77.1,11698],[78.9,11783],[79.2,11865],[79.2,11950],[79.2,12034],[79.2,12115],[79.2,12201],[79.2,12284],[79.2,12366],[79.2,12452],[79.2,12535],[79.2,12619],[79.2,12702],[79.2,12783],[79.2,12869],[79.2,12951],[79.2,13035],[79.2,13120],[79.2,13203],[79.2,13287],[79.2,13370],[79.2,13454],[79.2,13538],[79.2,13619],[79.2,13703],[79.2,13788],[79.2,13871],[79.2,13956],[79.2,14039],[79.2,14123],[79.2,14205],[79.2,14291],[79.2,14374],[79.2,14456],[79.2,14540],[79.2,14624],[82.4,14708],[87.1,14791],[88.5,14875],[88.5,14959],[88.5,15042],[88.5,15126],[88.5,15209],[88.5,15292],[88.5,15377],[88.5,15459],[88.5,15542],[88.5,15626],[88.5,15708],[88.5,15794],[88.5,15877],[88.5,15960],[88.5,16046],[88.5,16128],[88.5,16211],[88.5,16295],[88.5,16379],[88.5,16462],[88.5,16545],[89.1,16630],[89.6,16714],[89.8,16797],[90.1,16881],[90.2,16964],[90.2,17044],[90.2,17131],[90.2,17215],[90.2,17298],[90.2,17381],[90.2,17465],[90.2,17549],[90.2,17631],[90.2,17715],[90.2,17799],[90.2,17883],[90.2,17964],[90.2,18047],[90.2,18133],[90.2,18217],[90.2,18299],[90.2,18384],[90.2,18465],[90.2,18552],[90.2,18636],[90.2,18719],[90.2,18802],[90.2,18885],[90.2,18969],[90.2,19053],[90.2,19136],[90.2,19218],[90.2,19300],[90.2,19388],[90.2,19471],[90.2,19554],[90.2,19638],[90.2,19719],[90.2,19805],[90.2,19888],[90.2,19972],[90.2,20055],[90.2,20139],[90.2,20220],[90.2,20305],[90.2,20389],[90.2,20473],[90.2,20557],[90.2,20638],[90.2,20722],[90.2,20806],[90.2,20891],[90.2,20975],[90.2,21058],[90.2,21142],[90.2,21225],[90.2,21309],[90.2,21392],[90.2,21473],[90.2,21559],[90.2,21642],[90.2,21727],[90.2,21808],[90.2,21894],[90.2,21977],[90.2,22060],[90.2,22144],[90.2,22225],[90.2,22309],[89.7,22395],[88.7,22478],[87.6,22563],[87.2,22645],[87.2,22727],[87.2,22810],[87.3,22897],[87.3,22977],[87.4,23062],[87.4,23147],[87.4,23231],[87.4,23312],[87.4,23398],[87.4,23482],[87.4,23564],[87.4,23648],[87.4,23731],[87.4,23815],[87.4,23899],[87.4,23983],[87.4,24065],[87.4,24149],[87.4,24233],[87.4,24315],[87.4,24399],[87.4,24484],[87.4,24567],[87.4,24649],[87.4,24734],[87.4,24817],[87.4,24902],[87.4,24985],[87.4,25067],[87.4,25150],[87.4,25236],[87.4,25319],[88.5,25403],[90.4,25485],[91.3,25571],[92.2,25653],[93,25739],[93.8,25820],[94.6,25905],[95.1,25988],[95.3,26071],[95.5,26155],[95.6,26239],[95.8,26322],[96.5,26406],[97,26489],[97.2,26573],[97.2,26656],[97.2,26740],[97.2,26823],[97.2,26907],[97.4,26991],[97.4,27074],[97.4,27158],[97.4,27242],[97.3,27325],[97,27409],[97,27492],[96.9,27576],[96.9,27658],[96.9,27742],[96.9,27826],[96.9,27910],[96.8,27993],[95,28077],[92.9,28161],[92.7,28242],[91,28328],[88.6,28411],[87,28496],[86,28579],[84.3,28663],[82.4,28746],[81.2,28828],[80.8,28914],[80.7,28995],[80.7,29079],[80.8,29162],[80.7,29247],[78.6,29330],[72.6,29413],[68.3,29498],[62.1,29581],[60.7,29665],[60.7,29745],[60.6,29832],[60.1,29915],[60.1,29995],[60.4,30083],[60.8,30165],[61.1,30250],[61.3,30332],[61.4,30417],[61.4,30500],[61.4,30584],[61.4,30667],[61,30750],[58,30835],[53.7,30918],[48.7,31001],[45.8,31085],[43.3,31168],[43.3,31252],[43.3,31334],[43.3,31417],[43.3,31503],[43.3,31586],[43.3,31670],[43.7,31753],[46.1,31836],[47.9,31921],[49.3,32003],[50.6,32088],[50.8,32171],[50.9,32254],[50.9,32338],[51.5,32422],[53.4,32506],[55.3,32590],[58.8,32671],[60.5,32757],[62.5,32840],[64.6,32923],[66.1,33007],[67.6,33089],[69.1,33175],[70.4,33257],[72.4,33339],[74.6,33425],[76.2,33508],[77.9,33590],[79.8,33675],[80.5,33760],[80.7,33843],[80.7,33926],[80.7,34009],[80.7,34093],[81.3,34175],[81.8,34261],[82.1,34344],[82.2,34427],[82.2,34510],[82.2,34594],[82.2,34678],[82.3,34761],[82.3,34842],[82.3,34928],[82.3,35009],[82.3,35093],[82.3,35179],[82.3,35260],[82.3,35347],[82.3,35427],[82.3,35513],[82.3,35597],[82.3,35681],[82.3,35764],[82.3,35847],[82.3,35932],[82.3,36013],[82.3,36096],[82.3,36182],[82.3,36265],[82.3,36349],[82.3,36431],[82.3,36515],[82.3,36600],[82.3,36681],[82.3,36764],[83.9,36850],[86.9,36932],[88.8,37018],[89.7,37101],[90.2,37185],[90.8,37268],[91.6,37353],[92.2,37437],[92.7,37516],[93,37603],[93.2,37686],[93.4,37769],[93.4,37853],[93.5,37936],[93.5,38017],[93.5,38103],[93.5,38187],[93.5,38270],[93.5,38354],[93.5,38438],[93.5,38521],[93.5,38605],[93.5,38689],[93.5,38772],[93.5,38855],[93.5,38939],[93.5,39022],[93.5,39106],[93.5,39190],[93.5,39270],[93.5,39357],[93.5,39440],[93.5,39523],[93.5,39608],[93.5,39689],[93.5,39775],[93.5,39858],[93.5,39942],[93.5,40026],[93.5,40107],[93.5,40193],[93.5,40276],[93.5,40360],[93.5,40443],[93.5,40524],[93.5,40611],[93.5,40692],[93.5,40777],[93.5,40861],[93.5,40944],[93.5,41025],[93.5,41112],[93.5,41195],[93.5,41278],[94.1,41363],[96.3,41443],[98,41530],[98.9,41613],[99.1,41696],[99.1,41779],[99.3,41865],[99.6,41948],[99.7,42029],[99.7,42115],[99.7,42196],[99.7,42281],[99.7,42365],[99.7,42448],[99.7,42531],[99.7,42616],[99.7,42699],[99.7,42782],[99.7,42867],[99.7,42950],[99.7,43033],[99.7,43118],[99.7,43201],[99.7,43284],[99.7,43367],[99.7,43451],[99.7,43533],[99.7,43619],[99.7,43701],[99.7,43785],[99.7,43869],[99.7,43953],[99.7,44036],[99.7,44118],[99.7,44200],[99.7,44284],[99.7,44368],[99.7,44454],[99.7,44537],[99.7,44621],[99.7,44702],[99.7,44789],[99.7,44872],[99.7,44955],[99.7,45038],[99.7,45123],[99.7,45205],[99.7,45290],[99.7,45372],[99.7,45456],[99.7,45540],[99.7,45622],[99.7,45708],[99.7,45790],[99.7,45874],[99.7,45958],[99.7,46042],[99.7,46125],[99.7,46208],[99.7,46292],[99.7,46373],[99.7,46456],[99.7,46542],[99.7,46627],[99.7,46709],[99.7,46792],[99.7,46877],[99.7,46961],[99.7,47044],[99.7,47127],[99.7,47209],[99.7,47294],[99.7,47376],[99.7,47462],[99.7,47543],[99.7,47629],[99.7,47712],[99.7,47796],[99.7,47879],[99.7,47961],[99.7,48045],[99.7,48130],[99.7,48211],[99.7,48297],[99.2,48380],[97.6,48465],[91.3,48548],[88.3,48631],[87.1,48716],[85.7,48798],[85.6,48883],[85.6,48965],[85.6,49048],[85.6,49134],[85.6,49217],[85.6,49299],[85.6,49384],[85.6,49466],[85.6,49551],[85.6,49633],[85.6,49718],[85.6,49801],[85.6,49883],[85.6,49968],[85.6,50051],[85.6,50134],[85.6,50220],[85.6,50303],[85.6,50385],[85.6,50468],[85.6,50553],[85.6,50636],[85.6,50720],[85.6,50805],[85.6,50887],[85.6,50971],[85.6,51055],[85.6,51137],[85.6,51223],[85.6,51305],[85.6,51386],[85.6,51472],[85.6,51553],[85.6,51639],[85.6,51723],[85.6,51805],[85.6,51891],[85.6,51971],[85.6,52057],[85.6,52141],[85.6,52224],[85.6,52308],[85.6,52392],[85.6,52475],[85.6,52559],[85.6,52642],[85.6,52726],[85.6,52809],[85.6,52892],[85.6,52976],[85.6,53060],[85.6,53144],[85.6,53227],[85.6,53310],[85.6,53392],[85.6,53476],[85.6,53562],[85.6,53644],[85.6,53728],[85.6,53813],[85.6,53894],[85.6,53981],[85.6,54062],[85.6,54147],[85.6,54230],[85.6,54314],[85.6,54397],[85.6,54480],[85.6,54565],[85.6,54648],[85.6,54730],[85.6,54814],[85.6,54898],[85.6,54980],[85.6,55066],[85.6,55149],[85.6,55230],[85.6,55315],[85.6,55397],[85.6,55483],[85.6,55566],[85.6,55647],[85.6,55734],[85.6,55815]]",1,0,348.2196,350.908,80.93044705,1.9795,"[{""rating"":80.93044704861111,""responseTime"":1.9794999999999732}]",space,2.162,,350.9082,Definitely yes,100,350.9177,,,[],,0,10,10,10,1,audio/Narrative8Situation1.wav,audio/Narrative7Situation1.wav,audio/Narrative6Situation1.wav,audio/Narrative5Situation1.wav,5,2,2,5,,,,,,,,,,,,,,,,,,,,,,,,,,,,,,,,,,,,,,,
,,,,,,65f8416c2d0d9fb9cf7eef97,2024-05-13_11h32.28.779,group3.1-3.2-social-tom,2023.2.2,MacIntel,59.84082341,65c5074098b851296ff0b7ed,6642326ed81f8f37a7069ce3,,,,,,,,,,,,,,,,,,,,,,,,,,,,,350.9181,1,audio/Narrative7Situation2.wav,353.9314,,353.9314,361.4036,"[[999,0],[999,85],[999,169],[999,252],[999,335],[999,417],[999,503],[999,586],[999,669],[999,752],[999,837],[999,921],[999,1004],[999,1085],[999,1172],[52.6,1254],[51.7,1339],[51.7,1422],[51.6,1506],[50.8,1590],[50.5,1672],[50.5,1756],[50.5,1839],[50.4,1921],[50.4,2008],[50.4,2089],[50.4,2173],[50.4,2258],[50.4,2342],[50.4,2425],[50.4,2506],[50.4,2592],[50.4,2676],[52.1,2759],[53.9,2841],[55.4,2926],[57.9,3011],[60.1,3094],[62,3175],[64.1,3261],[65.8,3345],[67.3,3428],[68.4,3512],[69.8,3596],[70.7,3679],[71.2,3762],[72,3846],[72.7,3929],[72.9,4012],[72.9,4094],[72.9,4179],[72.9,4263],[72.9,4347],[72.9,4428],[72.9,4512],[72.9,4598],[72.9,4680],[72.9,4764],[72.9,4848],[72.9,4931],[72.9,5014],[72.9,5097],[72.9,5182],[72.9,5264],[72.9,5349],[72.9,5431],[72.9,5517],[72.9,5601],[72.9,5683],[72.9,5767],[72.9,5851],[72.9,5935],[72.9,6018],[72.9,6104],[72.9,6182],[72.9,6269],[72.9,6353],[72.9,6436],[72.9,6519],[72.9,6603],[77,6686],[80.4,6770],[81.7,6854],[82.3,6937],[82.7,7022],[83,7104],[83.2,7188],[83.3,7272],[83.4,7355],[83.5,7439]]",1,0,361.4038,364.4121,94.16015625,2.586,"[{""rating"":88.41254340277777,""responseTime"":1.3424000000059095},{""rating"":94.16015625,""responseTime"":2.585999999999956}]",space,2.485,,364.4121,Definitely yes,100,364.4183,,,[],,0,11,11,11,1,audio/Narrative8Situation2.wav,audio/Narrative7Situation2.wav,audio/Narrative6Situation2.wav,audio/Narrative5Situation2.wav,3,3,3,3,,,,,,,,,,,,,,,,,,,,,,,,,,,,,,,,,,,,,,,
,,,,,,65f8416c2d0d9fb9cf7eef97,2024-05-13_11h32.28.779,group3.1-3.2-social-tom,2023.2.2,MacIntel,59.84082341,65c5074098b851296ff0b7ed,6642326ed81f8f37a7069ce3,,,,,,,,,,,,,,,,,,,,,,,,,,,,,364.4185,1,audio/Narrative7Situation3.wav,372.4306,,372.4306,381.6738,"[[82.4,3428],[81.6,3512],[81,3595],[80.4,3679],[80.2,3762],[80,3846],[81.5,3930],[84.3,4013],[84.4,4095],[83.2,4180],[82.1,4263],[81.9,4347],[81.7,4431],[81.5,4514],[81.5,4595],[81.5,4681],[81.5,4764],[81.5,4848],[81.5,4932],[81.5,5015],[81.5,5097],[81.5,5183],[81.5,5266],[81.5,5350],[81.3,5433],[81.3,5516],[81.5,5600],[81.7,5684],[81.7,5766],[81.5,5852],[81.5,5932],[81.5,6018],[81.4,6102],[81.4,6185],[81.4,6266],[81.4,6352],[81.4,6434],[81.4,6518],[81.7,6603],[81.7,6687],[81.6,6771],[84.2,6852],[89.7,6937],[94,7020],[97.8,7105],[93.7,7186],[91,7272],[91,7354],[91.1,7437],[91,7523],[88.1,7605],[87.1,7690],[87.1,7773],[87.1,7855],[87.1,7939],[87.1,8023],[87.1,8107],[87.1,8191],[87.1,8273],[87.1,8357],[87.1,8441],[87.1,8525],[87.1,8606],[87.1,8691],[87.1,8776],[87.1,8858],[87.1,8941],[87.1,9026],[87.1,9109],[87.1,9193]]",1,0,381.6739,385.4986,28.09787326,3.1177,"[{""rating"":28.09787326388889,""responseTime"":3.1177000000178623}]",space,3.2849,,385.4987,Partially,50,385.5087,,,[],,0,12,12,12,1,audio/Narrative8Situation3.wav,audio/Narrative7Situation3.wav,audio/Narrative6Situation3.wav,audio/Narrative5Situation3.wav,4,8,5,3,,,,,,,,,,,,,,,,,,,,,,,,,,,,,,,,,,,,,,,
,,,,,,65f8416c2d0d9fb9cf7eef97,2024-05-13_11h32.28.779,group3.1-3.2-social-tom,2023.2.2,MacIntel,59.84082341,65c5074098b851296ff0b7ed,6642326ed81f8f37a7069ce3,,,,,,,,,,,,,,,,,,,,,,,,,,,,,385.5089,1,audio/Narrative7Situation4.wav,388.5096,,388.5096,400.2387,"[[999,0],[999,83],[999,166],[999,250],[999,334],[999,416],[999,501],[999,584],[999,668],[999,751],[999,835],[999,918],[999,1000],[999,1085],[999,1169],[999,1253],[999,1335],[999,1420],[999,1503],[999,1585],[999,1668],[999,1753],[999,1837],[999,1921],[999,2004],[999,2088],[999,2172],[999,2254],[999,2338],[999,2422],[999,2506],[999,2589],[999,2671],[999,2754],[999,2840],[999,2924],[999,3006],[999,3090],[999,3174],[999,3257],[999,3339],[999,3425],[999,3509],[37.7,3592],[30.9,3677],[24.7,3760],[22,3844],[21.6,3925],[17.8,4011],[12.8,4095],[12.1,4175],[12.1,4260],[12.1,4344],[12.1,4428],[12.1,4512],[12.1,4594],[12.1,4678],[12.1,4760],[12.1,4846],[12.1,4930],[12.1,5012],[12.1,5097],[12.1,5178],[12.1,5261],[12.1,5346],[12.1,5429],[12.1,5513],[12.1,5597],[12,5681],[10.5,5765],[9.7,5848],[9.2,5930],[9.2,6015],[9,6100],[8.8,6183],[8.8,6266],[8.8,6349],[8.8,6434],[9,6517],[13.3,6600],[17.5,6683],[20.3,6768],[21.6,6851],[22,6934],[22,7015],[21.8,7101],[20.5,7185],[18,7270],[15.3,7352],[12.9,7436],[11.7,7519],[10.2,7603],[9.2,7688],[8.6,7770],[8.2,7854],[8.1,7937],[8.1,8018],[8.1,8104],[8.1,8188],[8.1,8271],[8.1,8355],[8.1,8439],[8.1,8522],[8.1,8604],[8.1,8689],[8.2,8773],[8.3,8855],[8.3,8939],[8.4,9023],[8.4,9107],[8.5,9191],[8.5,9274],[8.6,9358],[8.8,9442],[9.2,9525],[9.7,9609],[10.8,9693],[11.7,9775],[12.3,9859],[16,10945],[16.2,11029],[17.1,11112],[18.5,11195],[18.8,11279],[18.8,11362],[18.8,11446],[18.8,11530],[18.8,11614],[18.8,11697]]",1,0,400.2389,402.6305,11.7702908,1.7126,"[{""rating"":11.77029079861111,""responseTime"":1.7126000000238264}]",space,1.856,,402.6306,Definitely yes,100,402.6394,,,[],,0,13,13,13,1,audio/Narrative8Situation4.wav,audio/Narrative7Situation4.wav,audio/Narrative6Situation4.wav,audio/Narrative5Situation4.wav,3,3,2,1,,,,,,,,,,,,,,,,,,,,,,,,,,,,,,,,,,,,,,,
,,,,,,65f8416c2d0d9fb9cf7eef97,2024-05-13_11h32.28.779,group3.1-3.2-social-tom,2023.2.2,MacIntel,59.84082341,65c5074098b851296ff0b7ed,6642326ed81f8f37a7069ce3,,,,,,,,,,,,,,,,,,,,,,,,,,,,,402.6396,1,audio/Narrative7Situation5.wav,407.6416,,407.6417,416.1169,"[[999,0],[999,83],[999,169],[999,252],[999,334],[999,419],[999,503],[999,586],[50.3,754],[50.3,837],[50.3,920],[50.3,1004],[50.3,1089],[50.3,1172],[50.3,1254],[50.3,1336],[50.3,1420],[50.3,1506],[50.3,1589],[49.4,1673],[44.7,1756],[41.3,1841],[40.7,1924],[40.1,2006],[38.7,2090],[36.7,2174],[35,2257],[33.7,2341],[32.8,2425],[32.7,2509],[33.5,2592],[35,2675],[35.6,2759],[35.7,2841],[35.9,2927],[36,3010],[36,3093],[35.9,3176],[34.3,3260],[33,3343],[30,3428],[29.1,3509],[29.1,3594],[29.1,3677],[29.1,3761],[29.1,3846],[29.1,3927],[28.9,4011],[28.2,4094],[27.7,4177],[27.7,4260],[27.5,4346],[27.4,4429],[27,4514],[26.6,4597],[26.1,4682],[25.6,4764],[25.2,4848],[24.9,4932],[24.8,5015],[24.7,5099],[22.9,5183],[20.9,5267],[20.1,5349],[20.1,5433],[20.1,5517],[20.1,5599],[20.1,5684],[20.1,5767],[20.1,5848],[20.1,5934],[20.1,6017],[20.1,6098],[20.1,6185],[20.1,6266],[20.1,6351],[19.4,6436],[18.8,6519],[18.5,6603],[18.5,6683],[18.2,6770],[18.2,6851],[18.2,6937],[18.2,7020],[18.2,7104],[18.1,7188],[18,7270],[17.9,7355],[17.9,7439],[17.9,7520],[17.6,7606],[17,7688],[16.5,7773],[16.3,7853],[16.3,7937],[16.3,8022],[16.3,8106],[16.3,8188],[16.3,8274],[16.3,8357],[16.3,8441]]",1,0,416.117,418.6734,2.688802083,1.6766,"[{""rating"":2.6888020833333357,""responseTime"":1.676600000023825}]",space,2.0218,,418.6735,Definitely yes,100,418.6797,,,[],,0,14,14,14,1,audio/Narrative8Situation5.wav,audio/Narrative7Situation5.wav,audio/Narrative6Situation5.wav,audio/Narrative5Situation5.wav,2,5,2,5,,,,,,,,,,,,,,,,,,,,,,,,,,,,,,,,,,,,,,,
,,,,,,65f8416c2d0d9fb9cf7eef97,2024-05-13_11h32.28.779,group3.1-3.2-social-tom,2023.2.2,MacIntel,59.84082341,65c5074098b851296ff0b7ed,6642326ed81f8f37a7069ce3,,,,,,,,,,,,,,,,,,,,,,,,,,,,,418.6799,1,audio/Narrative7Situation6.wav,421.6815,,421.6815,431.6414,"[[46.3,82],[45.5,166],[44.8,251],[44.8,332],[49,417],[50.7,500],[50.7,584],[50.7,666],[50.3,751],[49.9,835],[49.8,919],[49.7,1002],[49.5,1083],[49.2,1170],[49,1253],[49,1334],[49.2,1420],[49.3,1501],[49.3,1587],[49.3,1667],[49.3,1753],[49.3,1838],[49.3,1921],[49.3,2003],[49.3,2089],[49.8,2172],[50.5,2256],[51.2,2339],[51.9,2423],[52.9,2506],[54.1,2588],[55.8,2673],[56.7,2756],[57.7,2840],[59.6,2924],[61.4,3007],[63.4,3091],[65.8,3175],[66,3256],[66,3342],[66,3424],[66,3508],[66.1,3592],[67.4,3677],[67.8,3760],[68.3,3843],[69.2,3927],[69.9,4010],[70.4,4094],[71.1,4177],[71.9,4261],[73.1,4345],[74.1,4428],[74.7,4510],[75.3,4595],[76,4679],[76.9,4762],[77.7,4846],[78.5,4928],[79.6,5011],[80.5,5097],[81.1,5180],[81.6,5263],[81.9,5347],[82.3,5432],[82.3,5515],[82.3,5595],[82.3,5681],[82.3,5764],[82.3,5849],[82.3,5931],[82.3,6013],[82.3,6099],[82.3,6182],[82.3,6266],[82.3,6350],[82.3,6432],[82.3,6517],[82.3,6598],[82.3,6683],[82.3,6768],[82.3,6852],[82.3,6934],[82.3,7018],[82.3,7102],[82.3,7185],[82.3,7267],[82.3,7353],[82.3,7436],[82.3,7520],[82.3,7603],[82.3,7686],[82.3,7769],[82.3,7853],[82.3,7937],[82.3,8021],[82.7,8105],[83.1,8189],[83.2,8271],[83.3,8354],[83.4,8437],[83.4,8521],[83.4,8607],[83.4,8688],[83.7,8773],[85.6,8856],[86.5,8938],[86.9,9024],[86.9,9107],[86.9,9189],[86.9,9274],[86.9,9357],[86.7,9442],[85.6,9525],[84.9,9607],[83.7,9691],[83.4,9775],[83.4,9859],[83.4,9942]]",1,0,431.6416,433.3465,79.18999566,1.0482,"[{""rating"":79.18999565972223,""responseTime"":1.0481999999880713}]",space,1.1732,,433.3466,Definitely yes,100,442.3358,100,7.3739,"[{""rating"":97.67523871527779,""responseTime"":5.736899999976174},{""rating"":100,""responseTime"":7.3738999999761745}]",space,0,15,15,15,1,audio/Narrative8Situation6.wav,audio/Narrative7Situation6.wav,audio/Narrative6Situation6.wav,audio/Narrative5Situation6.wav,2,3,2,3,,,8.4598,,,,,,,,,,,,,,,,,,,,,,,,,,,,,,,,,,,,
,,,,,,65f8416c2d0d9fb9cf7eef97,2024-05-13_11h32.28.779,group3.1-3.2-social-tom,2023.2.2,MacIntel,59.84082341,65c5074098b851296ff0b7ed,6642326ed81f8f37a7069ce3,,,,,,,,,,,,,,,,,,,,,,,,,,,,,442.3363,1,audio/Narrative7Situation7.wav,447.3503,,447.3503,464.5127,"[[999,0],[999,82],[999,166],[999,250],[999,334],[999,417],[999,501],[999,584],[999,666],[999,749],[999,835],[999,918],[999,1002],[48.3,1086],[48.9,1170],[49.4,1253],[49.4,1336],[49.4,1420],[49.4,1503],[49.4,1586],[48,1670],[41.5,1754],[37.1,1837],[32.1,1922],[27.9,2004],[24,2088],[20.3,2172],[19.5,2254],[19.4,2339],[19.5,2422],[19.5,2506],[19.5,2588],[19.5,2672],[19.5,2756],[19.5,2839],[19.5,2923],[19.5,3007],[19.5,3091],[19.5,3173],[19.5,3257],[19.5,3339],[19.5,3425],[19.5,3509],[19.5,3592],[19.5,3676],[19.5,3759],[19.5,3843],[19.5,3927],[19.5,4010],[19.5,4093],[19.5,4177],[19.5,4260],[20.3,4344],[23.2,4428],[24.3,4511],[26.8,4595],[30,4678],[32.7,4761],[33.8,4845],[35,4929],[36.3,5013],[36.4,5097],[36.4,5177],[36.4,5263],[36.4,5347],[36.4,5430],[36.2,5514],[33.5,5597],[33,5681],[33,5765],[33,5847],[31.2,5932],[29.2,6015],[29.2,6099],[29.2,6181],[29.2,6267],[29.2,6349],[29.1,6433],[28.8,6518],[28.6,6600],[28.5,6682],[28.5,6767],[28.5,6850],[28.5,6934],[28.5,7018],[28.5,7100],[28.4,7185],[28.4,7268],[28.5,7352],[28.5,7433],[29.2,7519],[30.8,7601],[31.4,7687],[32.6,7771],[33.6,7855],[34.4,7936],[35.8,8021],[36.7,8104],[37,8187],[37.4,8271],[38.1,8355],[38.1,8439],[38.1,8522],[38.1,8603],[38.3,8690],[38.6,8772],[38.7,8855],[38.7,8940],[38.8,9023],[38.9,9107],[38.9,9188],[38.9,9272],[38.9,9355],[38.9,9440],[38.9,9525],[38.9,9605],[39.1,9692],[39.9,9776],[40.9,9858],[41.9,9943],[42.5,10026],[43,10110],[44.1,10193],[45.2,10277],[45.8,10361],[46.3,10444],[46.7,10527],[47,10612],[47.2,10694],[47.3,10779],[47.4,10861],[47.5,10944],[47.5,11029],[47.5,11113],[47.6,11194],[47.6,11279],[47.6,11361],[47.7,11446],[47.8,11529],[47.8,11615],[47.8,11697],[47.9,11781],[48.3,11864],[48.9,11948],[49.3,12031],[49.5,12115],[49.9,12199],[50.1,12282],[50.3,12366],[50.3,12447],[50.3,12533],[50.6,12617],[50.7,12699],[50.7,12783],[50.7,12867],[50.7,12951],[50.7,13032],[49.6,13117],[38.9,13201],[35,13286],[34.9,13368],[34.9,13451],[35.2,13535],[36.2,13619],[36.3,13701],[36.4,13786],[36.6,13870],[36.6,13951],[36.6,14037],[36.6,14121],[38.1,14204],[41.5,14287],[42.7,14371],[43.7,14455],[45.1,14539],[46.6,14622],[48.1,14705],[50.2,14789],[51.6,14873],[52.8,14954],[54.7,15040],[56.6,15123],[58.5,15206],[60.4,15290],[62.3,15372],[63.7,15458],[64.5,15541],[65.3,15625],[65.9,15708],[66.7,15791],[67.5,15875],[68,15956],[68.4,16041],[68.9,16126],[69.4,16209],[69.7,16293],[69.9,16377],[70.1,16458],[70.7,16543],[71.2,16626],[71.6,16710],[72.5,16794],[73.2,16878],[74,16962],[74.6,17045],[75.1,17126]]",1,0,464.513,466.0156,76.5359158,1.0893,"[{""rating"":76.53591579861111,""responseTime"":1.0892999999821313}]",space,0.9738,,466.0158,Partially,50,466.0247,,,[],,0,16,16,16,1,audio/Narrative8Situation7.wav,audio/Narrative7Situation7.wav,audio/Narrative6Situation7.wav,audio/Narrative5Situation7.wav,3,5,5,4,,,,,,,,,,,,,,,,,,,,,,,,,,,,,,,,,,,,,,,
,,,,,,65f8416c2d0d9fb9cf7eef97,2024-05-13_11h32.28.779,group3.1-3.2-social-tom,2023.2.2,MacIntel,59.84082341,65c5074098b851296ff0b7ed,6642326ed81f8f37a7069ce3,,,,,,,,,,,,,,,,,,,,,,,,,,,,,466.0249,1,audio/Narrative7Situation8.wav,468.0388,,468.0389,478.0485,"[[76.2,1252],[66,1336],[52.1,1419],[45.4,1503],[43.7,1587],[44,1671],[48,1754],[50.1,1838],[50.2,1918],[50.2,2004],[50.2,2086],[50.2,2171],[50.2,2255],[50.2,2339],[50.2,2421],[50.2,2503],[50.2,2589],[50.2,2673],[50.2,2756],[50.2,2839],[50.2,2924],[49.3,3008],[40.4,3092],[33.4,3175],[30.7,3258],[26.6,3342],[23.5,3425],[20.9,3508],[17.7,3592],[16.8,3676],[16.8,3759],[16.8,3842],[16.8,3926],[16.8,4010],[16.8,4093],[16.8,4177],[16.8,4260],[16.8,4344],[16.8,4428],[16.8,4511],[16.8,4592],[16.8,4678],[16.8,4762],[16.8,4846],[16.8,4929],[16.8,5011],[24,5096],[33.5,5179],[35.8,5261],[40.2,5346],[45.3,5428],[56.2,5514],[58.6,5598],[63.8,5682],[69.2,5765],[69.7,5846],[69.7,5931],[69.7,6015],[69.7,6097],[69.7,6182],[71.4,6266],[73.3,6350],[74.2,6432],[74.8,6514],[76,6600],[78.7,6683],[81,6767],[82.5,6851],[83.3,6934],[83.8,7016],[83.8,7101],[83.8,7185],[83.8,7267],[83.8,7350],[83.8,7435],[83.8,7518],[83.8,7601],[83.8,7687],[83.8,7768],[83.8,7853],[83.8,7936],[83.8,8018],[83.8,8104],[83.8,8188],[83.8,8271],[83.8,8355],[83.8,8438],[83.8,8522],[83.8,8604],[83.8,8689],[83.8,8773],[83.8,8855],[83.8,8939],[83.8,9020],[83.8,9107],[83.8,9190],[83.8,9271],[83.8,9355],[83.8,9440],[83.8,9524],[83.8,9608],[83.8,9691],[83.8,9775],[83.8,9858],[83.8,9942]]",1,0,478.0487,479.3166,70.80295139,0.6913,"[{""rating"":70.80295138888889,""responseTime"":0.6913000000119496}]",space,0.7411,,479.3166,Definitely yes,100,479.3264,,,[],,0,17,17,17,1,audio/Narrative8Situation8.wav,audio/Narrative7Situation8.wav,audio/Narrative6Situation8.wav,audio/Narrative5Situation8.wav,3,2,5,3,,,,,,,,,,,,,,,,,,,,,,,,,,,,,,,,,,,,,,,
,,,,,,65f8416c2d0d9fb9cf7eef97,2024-05-13_11h32.28.779,group3.1-3.2-social-tom,2023.2.2,MacIntel,59.84082341,65c5074098b851296ff0b7ed,6642326ed81f8f37a7069ce3,,,,,,,,,,,,,,,,,,,,,,,,,,,,,479.3267,1,audio/Narrative7Situation9.wav,481.3399,,481.3401,489.9807,"[[999,0],[999,83],[999,167],[999,249],[999,332],[999,417],[999,500],[999,585],[999,666],[999,752],[999,833],[999,919],[999,1003],[999,1086],[58.3,1170],[54,1254],[51.5,1336],[50.2,1420],[50.2,1504],[50.4,1588],[50.4,1670],[50.4,1753],[50.4,1839],[50.4,1922],[50.4,2004],[52.8,2089],[57.9,2173],[62.6,2256],[66.7,2341],[70.3,2423],[72.8,2507],[74.2,2589],[76.5,2674],[79.6,2756],[81.9,2841],[83,2924],[83.5,3006],[83.6,3091],[83.7,3175],[83.7,3258],[83.7,3342],[83.7,3425],[83.7,3509],[83.7,3592],[83.7,3676],[83.7,3760],[83.7,3842],[83.7,3927],[83.7,4009],[83.7,4092],[83.7,4178],[83.7,4259],[83.7,4343],[83.7,4428],[83.7,4512],[83.7,4596],[83.7,4677],[83.7,4762],[83.7,4846],[83.7,4928],[83.7,5013],[83.7,5098],[83.7,5180],[83.7,5264],[83.7,5347],[83.7,5429],[83.7,5513],[83.7,5598],[83.7,5682],[83.7,5765],[83.7,5850],[83.7,5931],[83.7,6016],[83.7,6099],[83.7,6182],[83.7,6266],[83.8,6351],[83.8,6432],[83.8,6517],[83.8,6602],[83.8,6683],[83.8,6767],[83.8,6851],[83.8,6935],[83.8,7020],[83.8,7102],[83.8,7186],[83.8,7267],[83.8,7353],[83.8,7436],[83.8,7519],[83.8,7604],[83.8,7687],[83.9,7771],[86,7854],[89.3,7939],[90.1,8022],[90.2,8104],[90.3,8190],[90.3,8272],[90.3,8356],[90.3,8440],[90.3,8523],[90.3,8606]]",1,0,489.9809,493.5397,88.56065538,3.5472,"[{""rating"":88.56065538194444,""responseTime"":3.547200000017938}]",space,1.573,,493.5398,Not at all,0,493.5492,,,[],,0,18,18,18,1,audio/Narrative8Situation9.wav,audio/Narrative7Situation9.wav,audio/Narrative6Situation9.wav,audio/Narrative5Situation9.wav,3,2,4,3,,,,,,,,,,,,,,,,,,,,,,,,,,,,,,,,,,,,,,,
,,,,,,65f8416c2d0d9fb9cf7eef97,2024-05-13_11h32.28.779,group3.1-3.2-social-tom,2023.2.2,MacIntel,59.84082341,65c5074098b851296ff0b7ed,6642326ed81f8f37a7069ce3,,,,,,,,,,,,,,,,,,,,,,,,,,,516.2683,518.8409,518.8568,2,audio/Narrative13Situation2.wav,518.857,,518.8571,548.6047,"[[82.2,836],[45.8,1254],[48,1337],[47.8,1421],[48.1,1504],[48.3,1586],[48.5,1671],[48.5,1753],[48.5,1837],[48.5,1923],[47.7,2002],[35.5,2088],[25.4,2173],[23.4,2256],[22.1,2341],[22.1,2424],[22.1,2504],[22.1,2589],[20.4,2673],[14.8,2757],[14.1,2842],[14.1,2925],[14.1,3007],[13.9,3090],[13.9,3175],[13.9,3261],[13.9,3343],[13.9,3425],[13.9,3507],[13.9,3593],[13.9,3677],[13.9,3761],[13.9,3842],[13.9,3926],[13.9,4010],[13.9,4095],[13.9,4178],[29.2,9858],[41.8,9943],[48.3,10027],[57.3,10111],[64.8,10194],[69.4,10278],[71.7,10362],[73.5,10444],[74.3,10529],[75.3,10612],[77,10696],[77.6,10777],[78.2,10861],[78.7,10946],[79.7,11029],[80.6,11114],[80.9,11197],[80.9,11280],[80.9,11364],[80.9,11447],[80.9,11531],[80.9,11615],[80.9,11697],[80.9,11781],[80.9,11865],[80.9,11949],[80.9,12030],[80.9,12116],[80.9,12199],[80.9,12283],[80.9,12364],[80.9,12450],[80.9,12533],[80.9,12617],[80.9,12699],[80.9,12784],[80.9,12866],[80.9,12950],[80.9,13035],[80.9,13117],[80.9,13202],[80.9,13286],[80.9,13369],[80.9,13453],[80.9,13536],[80.9,13618],[80.9,13703],[80.9,13787],[80.9,13870],[80.9,13954],[80.9,14036],[80.9,14121],[80.9,14205],[80.9,14289],[80.9,14370],[80.9,14455],[80.9,14539],[80.9,14622],[80.9,14706],[80.9,14788],[80.9,14872],[80.9,14957],[80.9,15040],[80.9,15121],[80.9,15207],[80.9,15290],[80.9,15374],[80.9,15458],[80.9,15540],[80.9,15624],[80.9,15708],[80.9,15792],[80.9,15876],[80.9,15960],[80.9,16042],[80.9,16126],[80.9,16210],[75.1,16292],[68.5,16377],[66.6,16461],[63.9,16545],[58.2,16626],[47.6,16711],[38.7,16795],[30.6,16878],[21.3,16960],[10,17046],[13.7,25736],[15.3,25819],[15.8,25902],[15.4,25983],[15.1,26070],[15.6,26154],[16.2,26237],[16.8,26320],[17.3,26403],[17.7,26488],[18.1,26571],[18.7,26654],[19,26739],[19.2,26821],[19.2,26906],[19.2,26988],[19.2,27073],[19.2,27155],[19.2,27236],[19.2,27320],[19.2,27405],[19.2,27490],[19.2,27573],[19.2,27657],[19.2,27738],[19.2,27823],[19.2,27907],[19.2,27992],[19.2,28073],[19.2,28159],[19.2,28241],[19.2,28325],[19.2,28409],[19.2,28493],[19.2,28576],[19.2,28660],[19.2,28743],[19.2,28827],[19.2,28911],[19.2,28993],[19.2,29076],[19.2,29162],[19.2,29245],[19.2,29327],[19.2,29411],[19.2,29494],[19.2,29579],[19.2,29663],[19.2,29747]]",1,0,548.6048,548.6119,,,[],,,,548.6119,Not at all,0,548.6207,,,[],,0,0,0,0,1,audio/Narrative13Situation2.wav,audio/Narrative13Situation2.wav,audio/Narrative13Situation2.wav,audio/Narrative13Situation2.wav,2,2,2,2,,,,,493.5498,516.2679,space,22.1946,,,,,,,,,,,,,,,,,,,,,,,,,,,,,,,
,,,,,,65f8416c2d0d9fb9cf7eef97,2024-05-13_11h32.28.779,group3.1-3.2-social-tom,2023.2.2,MacIntel,59.84082341,65c5074098b851296ff0b7ed,6642326ed81f8f37a7069ce3,,,,,,,,,,,,,,,,,,,,,,,,,,,,,548.6209,2,audio/Narrative6Situation1.wav,550.6236,,550.6237,577.1969,"[[22.3,922],[29.4,1003],[33.8,1088],[36.2,1171],[42.5,1256],[52.7,1339],[54.1,1420],[54.2,1506],[54.1,1587],[54.1,1671],[54.1,1755],[54.1,1840],[53.6,1922],[51.3,2007],[50,2091],[49.9,2174],[32.5,2676],[17.6,2757],[14.2,2843],[13,2927],[13,3009],[13,3092],[13,3176],[13,3257],[13,3341],[13,3427],[13,3509],[13,3594],[13,3677],[13,3759],[13,3844],[13,3928],[13,4013],[13,4093],[13,4177],[13,4264],[13,4346],[13,4430],[13,4513],[13,4597],[13,4680],[13,4764],[13,4847],[13,4929],[13,5013],[13,5098],[13,5182],[13,5265],[15.2,5349],[23,5433],[25.6,5516],[29.1,5600],[32.9,5683],[46.4,5768],[59.6,5851],[65.8,5934],[67.4,6018],[68.8,6099],[71.9,6184],[74.1,6269],[75.3,6352],[76.6,6436],[78.9,6519],[80,6602],[82.5,6686],[65.8,11699],[57.7,11780],[52.5,11867],[48.7,11950],[43,12033],[39.4,12117],[37.6,12202],[35.8,12285],[33.5,12368],[30.3,12453],[27.6,12535],[25.3,12618],[22.3,12702],[21.2,12785],[19.7,12870],[18.7,12952],[18.7,13034],[18.7,13118],[18.6,13204],[18.6,13285],[18.6,13370],[18.6,13451],[18.6,13538],[15.4,13620],[5.8,13704],[4.1,13788],[4,13871],[4,13956],[4,14039],[4,14123],[4.1,14206],[4.1,14287],[4.1,14371],[4.1,14458],[4.2,14539],[4.2,14624],[4.2,14708],[4.2,14790],[4.2,14873],[4.2,14957],[4.2,15039],[4.2,15125],[4.2,15206],[4.2,15292],[4.2,15376],[4.2,15459],[4.2,15543],[4.2,15624],[4.2,15709],[4.2,15793],[4.2,15878],[4.2,15960],[4.2,16042],[4.2,16125],[4.2,16211],[4.2,16295],[4.2,16379],[4.2,16460],[4.2,16545],[4.2,16627],[4.2,16713],[4.2,16797],[4.2,16879],[4.2,16963],[4.2,17047],[4.2,17128],[4.2,17212],[4.2,17298],[4.2,17381],[4.2,17466],[4.2,17549],[4.2,17633],[4.2,17715],[4.2,17799],[4.2,17882],[4.2,17966],[4.2,18051],[4.2,18131],[4.2,18217],[4.2,18300],[4.2,18381],[4.2,18468],[4.2,18552],[4.2,18635],[4.2,18717],[4.2,18803],[4.2,18885],[4.2,18968],[4.2,19053],[4.2,19136],[4.2,19217],[4.2,19303],[4.2,19386],[4.2,19471],[4.2,19552],[4.2,19637],[4.2,19719],[4.2,19804],[4.2,19889],[4.2,19972],[4.2,20055],[4.2,20137],[4.2,20223],[4.2,20304],[4.2,20389],[4.2,20473],[4.2,20556],[4.2,20640],[11.3,20724],[17.6,20807],[18.9,20889],[19.3,20975],[20,21059],[20.6,21140],[21.3,21225],[21.9,21309],[22.4,21393],[22.7,21476],[22.8,21557],[22.9,21642],[22.9,21724],[22.9,21810],[22.9,21893],[22.9,21976],[22.9,22060],[22.9,22144],[22.9,22228],[22.9,22310],[22.9,22393],[22.9,22478],[23,22562],[23.2,22646],[23.4,22726],[23.5,22812],[23.6,22897],[23.7,22980],[23.8,23060],[23.8,23146],[24,23231],[24.3,23314],[24.6,23398],[24.8,23482],[25.1,23564],[25.3,23648],[25.6,23732],[26.1,23815],[26.7,23899],[27.7,23982],[28.9,24066],[30.1,24150],[30.6,24232],[33,24317],[34.3,24400],[35.1,24483],[35.4,24568],[35.7,24651],[36.1,24734],[36.5,24818],[36.8,24899],[36.8,24982],[36.8,25068],[36.7,25152],[36.4,25236],[35.1,25320],[31.5,25403],[30.8,25485],[31,25569],[31.2,25653],[31.2,25737],[31.2,25818],[31.2,25904],[31.2,25985],[31.2,26071],[31.2,26154],[31.2,26236],[31.2,26322],[31.2,26405],[31.2,26488],[31.2,26572]]",1,0,577.1971,580.7391,23.43804253,1.9114,"[{""rating"":29.358723958333332,""responseTime"":0.9660000000000082},{""rating"":23.43804253472222,""responseTime"":1.9114000000059832}]",space,3.0002,,580.7393,Partially,50,580.7475,,,[],,0,1,1,1,1,audio/Narrative7Situation1.wav,audio/Narrative8Situation1.wav,audio/Narrative5Situation1.wav,audio/Narrative6Situation1.wav,2,5,5,2,,,,,,,,,,,,,,,,,,,,,,,,,,,,,,,,,,,,,,,
,,,,,,65f8416c2d0d9fb9cf7eef97,2024-05-13_11h32.28.779,group3.1-3.2-social-tom,2023.2.2,MacIntel,59.84082341,65c5074098b851296ff0b7ed,6642326ed81f8f37a7069ce3,,,,,,,,,,,,,,,,,,,,,,,,,,,,,580.7478,2,audio/Narrative6Situation2.wav,583.7627,,583.7627,612.2573,"[[49.1,920],[50.7,1170],[50.8,1253],[50.7,1338],[50.7,1421],[50.7,1502],[50.7,1587],[50.7,1671],[50.7,1756],[50.7,1839],[50.7,1921],[50.7,2006],[50.7,2090],[50.7,2173],[50.7,2257],[50.7,2338],[50.7,2424],[50.7,2507],[50.7,2589],[50.7,2675],[50.7,2758],[50.7,2841],[50.7,2925],[50.7,3009],[50.7,3091],[50.7,3174],[50.7,3259],[50.7,3342],[50.7,3427],[48.7,3511],[35.5,3594],[33.3,3678],[33,3761],[31.7,3843],[28.4,3929],[24.3,4012],[23.3,4096],[22.9,4179],[21.8,4263],[21,4352],[20.6,4429],[20.2,4514],[19.8,4597],[19.5,4680],[19.2,4764],[18.7,4847],[17.9,4931],[17.1,5015],[17,5096],[17,5181],[17,5265],[17,5349],[17,5432],[17,5517],[16.9,5599],[16.9,5682],[16.9,5766],[16.9,5850],[16.9,5933],[16.9,6017],[16.9,6100],[16.9,6183],[16.9,6266],[16.9,6351],[17.1,6434],[17.2,6518],[17.4,6603],[17.9,6683],[18.2,6769],[18.3,6853],[18.6,6936],[18.9,7017],[19.2,7103],[19.5,7187],[19.7,7270],[20,7355],[20.3,7436],[21.1,7521],[21.6,7605],[22.2,7689],[23.9,7773],[24.9,7854],[25.2,7939],[26,8023],[27.1,8106],[27.5,8188],[27.8,8273],[27.8,8359],[27.9,8440],[28,8525],[28.2,8608],[28.4,8690],[28.8,8775],[29,8858],[29.2,8942],[29.3,9025],[29.4,9107],[29.4,9192],[29.4,9276],[29.4,9360],[29.4,9443],[29.4,9526],[29.4,9608],[29.4,9693],[29.4,9777],[29.4,9860],[29.4,9944],[29.4,10028],[29.4,10111],[29.4,10193],[29.4,10276],[29.4,10362],[29.4,10444],[29.4,10528],[29.4,10612],[29.4,10696],[29.4,10778],[29.4,10864],[29.4,10945],[29.4,11029],[29.4,11114],[29.4,11196],[29.4,11281],[29.4,11364],[29.4,11447],[29.5,11531],[29.6,11615],[29.7,11696],[29.7,11781],[29.8,11865],[29.8,11949],[29.8,12033],[29.8,12114],[29.5,12200],[29.4,12285],[29.2,12368],[28.9,12448],[28.2,12534],[27.7,12618],[27.6,12702],[27.5,12785],[27.5,12866],[27.5,12952],[27.5,13035],[27.5,13119],[27.5,13201],[27.5,13287],[27.5,13368],[27.5,13453],[27.5,13534],[27.5,13621],[27.5,13702],[27.5,13787],[27.5,13871],[27.6,13955],[27.6,14038],[27.6,14123],[27.6,14205],[27.6,14289],[27.6,14372],[27.5,14457],[27.2,14539],[26.3,14624],[24.4,14707],[23.6,14790],[23.2,14872],[22.8,14959],[22.5,15040],[22.2,15125],[22.1,15208],[22.1,15291],[22,15375],[21.8,15459],[21.6,15542],[21.6,15624],[21.6,15708],[21.6,15792],[21.6,15877],[21.6,15960],[21.6,16044],[22.1,16127],[22.4,16211],[23,16294],[25.2,16379],[28.2,16462],[32.1,16545],[33.4,16628],[33.6,16712],[33.8,16797],[34.1,16880],[34.6,16963],[35.5,17046],[36.1,17130],[36.5,17214],[37.1,17298],[38,17380],[40.8,17464],[45.4,17549],[49.1,17630],[51.9,17716],[53.9,17798],[54.4,17882],[55.4,17966],[56.5,18048],[57.5,18133],[65.4,22646],[65.9,22729],[65.3,22812],[65.3,22894],[65.7,22977],[66.2,23063],[66.4,23147],[67.3,23230],[68.9,23314],[69.7,23397],[70,23481],[70.2,23562],[70.5,23649],[70.6,23731],[70.7,23815],[71.2,23899],[72.6,23981],[73.2,24066],[73.4,24149],[73.4,24232],[73.4,24316],[73.4,24400],[73.4,24483],[73.4,24567],[73.4,24648],[73.4,24732],[73.4,24816],[73.4,24900],[73.4,24984],[73.4,25068],[73.4,25151],[73.4,25233],[73.4,25318],[73.4,25400],[73.4,25485],[73.4,25568],[73.4,25651],[73.4,25736],[73.4,25820],[73.4,25904],[73.4,25986],[73.4,26070],[73.4,26154],[73.4,26237],[73.4,26322],[73.4,26402],[73.4,26488],[73.4,26570],[73.4,26655],[73.4,26739],[73.4,26822],[73.4,26905],[73.4,26990],[73.4,27073],[73.4,27158],[73.4,27239],[73.4,27324],[73.4,27405],[73.4,27491],[73.4,27573],[73.4,27658],[73.4,27742],[75.5,27826],[79.7,27910],[86.3,27991],[91.6,28077],[94.7,28160],[94.8,28240],[94.8,28325],[94.7,28415],[94.7,28494]]",1,0,612.2575,615.0981,82.98665365,2.2023,"[{""rating"":93.82161458333333,""responseTime"":1.2919999999999163},{""rating"":82.98665364583333,""responseTime"":2.20230000001186}]",space,2.3104,,615.0982,Definitely yes,100,615.1062,,,[],,0,2,2,2,1,audio/Narrative7Situation2.wav,audio/Narrative8Situation2.wav,audio/Narrative5Situation2.wav,audio/Narrative6Situation2.wav,3,3,3,3,,,,,,,,,,,,,,,,,,,,,,,,,,,,,,,,,,,,,,,
,,,,,,65f8416c2d0d9fb9cf7eef97,2024-05-13_11h32.28.779,group3.1-3.2-social-tom,2023.2.2,MacIntel,59.84082341,65c5074098b851296ff0b7ed,6642326ed81f8f37a7069ce3,,,,,,,,,,,,,,,,,,,,,,,,,,,,,615.1066,2,audio/Narrative6Situation3.wav,620.1107,,620.1107,632.7284,"[[73.4,1504],[64.9,1588],[60,1672],[54.8,1755],[50.9,1839],[49.7,1923],[50.9,2006],[51.1,2089],[51,2174],[50.3,2255],[47.4,2340],[38,2424],[33,2508],[32.5,2591],[32.5,2673],[32.5,2757],[32.5,2841],[32.5,2922],[26.4,3008],[11.4,6016],[16.3,6101],[16.4,6183],[15.6,6267],[15.5,6350],[15.5,6434],[15.7,6519],[16.5,6601],[28.4,6685],[35.8,6769],[41.9,6852],[50.6,6935],[59,7021],[63.4,7103],[66.9,7187],[69.1,7269],[70.3,7354],[71,7437],[71.3,7521],[71.3,7601],[71.3,7688],[71.3,7770],[71.3,7853],[71.3,7939],[71.3,8022],[71.3,8106],[71.3,8188],[71.3,8272],[71.3,8356],[71.3,8440],[71.3,8523],[71.3,8606],[71.3,8691],[71.3,8772],[71.3,8858],[71.3,8939],[71.3,9023],[71.3,9108],[71.3,9192],[71.3,9273],[71.3,9358],[71.3,9442],[71.8,9527],[72.7,9608],[74.1,9693],[75.1,9776],[75.7,9861],[76.6,9944],[77,10027],[77.2,10111],[77.4,10192],[77.7,10278],[77.9,10361],[78,10446],[78,10526],[78,10611],[78,10695],[77.9,10780],[77.9,10863],[77.8,10945],[77.8,11030],[77.8,11113],[77.8,11197],[77.6,11281],[77.6,11363],[77.6,11447],[77.6,11531],[77.6,11615],[77.6,11697],[77.6,11781],[77.6,11865],[77.6,11949],[77.6,12033],[77.6,12116],[77.6,12199],[77.6,12283],[77.6,12366],[77.6,12448],[77.6,12533],[77.6,12617]]",1,0,632.7285,635.334,52.88791233,1.6923,"[{""rating"":52.887912326388886,""responseTime"":1.692300000011869}]",space,2.0787,,635.3341,Partially,50,638.995,49.71896701,3.147,"[{""rating"":49.718967013888886,""responseTime"":3.1469999999999345}]",space,0,3,3,3,1,audio/Narrative7Situation3.wav,audio/Narrative8Situation3.wav,audio/Narrative5Situation3.wav,audio/Narrative6Situation3.wav,8,4,3,5,,,3.1288,,,,,,,,,,,,,,,,,,,,,,,,,,,,,,,,,,,,
,,,,,,65f8416c2d0d9fb9cf7eef97,2024-05-13_11h32.28.779,group3.1-3.2-social-tom,2023.2.2,MacIntel,59.84082341,65c5074098b851296ff0b7ed,6642326ed81f8f37a7069ce3,,,,,,,,,,,,,,,,,,,,,,,,,,,,,638.9955,2,audio/Narrative6Situation4.wav,641.0002,,641.0004,653.6179,"[[49.3,1504],[46.4,1587],[44.1,1673],[40.3,1756],[36.3,1838],[32.4,1922],[29.4,2005],[27.8,2087],[26.8,2173],[26,2256],[25.8,2339],[25.8,2423],[25.8,2505],[25.7,2591],[24.8,2674],[23.7,2754],[22.7,2841],[21.1,2924],[19.5,3006],[19,3092],[18.1,3176],[14.1,3761],[12.6,3842],[10.2,3927],[9.5,4010],[9.3,4091],[9.1,4178],[8.7,4261],[7.9,4345],[7.6,4427],[7.5,4513],[7.3,4595],[7.3,4679],[7.3,4762],[7.5,4846],[9.1,4928],[10.6,5013],[11.3,5096],[12.9,5180],[13.9,5263],[15.4,5348],[17.6,5431],[17.7,5514],[15.8,5599],[15.2,5682],[15,5766],[14.9,5849],[14.8,5932],[14.8,6016],[14.8,6100],[14.8,6182],[14.8,6266],[14.8,6350],[14.8,6434],[14.8,6518],[14.8,6601],[14.6,6684],[14.6,6768],[14.6,6850],[14.6,6934],[14.6,7018],[14.6,7102],[14.6,7185],[14.6,7272],[14.6,7354],[14.6,7436],[14.9,7518],[15.3,7603],[15.9,7686],[16.3,7770],[16.3,7854],[16.3,7938],[16.3,8021],[16.3,8106],[16.3,8187],[16.3,8270],[16.3,8355],[16,8439],[15.5,8522],[14.7,8606],[13.9,8691],[13.7,8771],[13.7,8855],[13.7,8941],[13.7,9024],[13.7,9107],[13.7,9191],[13.7,9274],[13.7,9357],[13.7,9441],[13.7,9525],[13.7,9606],[13.7,9690],[13.7,9775],[13.7,9859],[13.7,9942],[13.7,10025],[13.7,10109],[13.7,10193],[13.7,10277],[13.7,10361],[13.7,10442],[13.7,10527],[13.7,10610],[13.7,10696],[13.7,10778],[13.7,10862],[13.7,10945],[13.7,11029],[13.7,11113],[13.6,11197],[13.4,11283],[13.1,11364],[12.7,11447],[12.3,11528],[11.6,11614],[11.1,11697],[10.3,11781],[9.7,11865],[9.3,11949],[9.1,12033],[9.1,12114],[9,12198],[9,12283],[8.9,12364],[8.6,12451]]",1,0,653.618,656.1914,0,1.7784,"[{""rating"":4.196506076388889,""responseTime"":1.044999999999959},{""rating"":0,""responseTime"":1.778399999976159}]",space,2.0441,,656.1915,Not at all,0,656.2009,,,[],,0,4,4,4,1,audio/Narrative7Situation4.wav,audio/Narrative8Situation4.wav,audio/Narrative5Situation4.wav,audio/Narrative6Situation4.wav,3,3,1,2,,,,,,,,,,,,,,,,,,,,,,,,,,,,,,,,,,,,,,,
,,,,,,65f8416c2d0d9fb9cf7eef97,2024-05-13_11h32.28.779,group3.1-3.2-social-tom,2023.2.2,MacIntel,59.84082341,65c5074098b851296ff0b7ed,6642326ed81f8f37a7069ce3,,,,,,,,,,,,,,,,,,,,,,,,,,,,,656.2014,2,audio/Narrative6Situation5.wav,658.2127,,658.2128,666.1684,"[[35.8,919],[46.5,1003],[48.7,1087],[48.7,1168],[50,1253],[51.3,1338],[51.2,1419],[50.4,1505],[50,1588],[49.9,1671],[50.2,1755],[50.2,1838],[50.2,1921],[50.2,2005],[43.8,2093],[34.1,2174],[26.8,2256],[15.3,2341],[7.4,2423],[1.4,2507],[0.2,2757],[0.3,2841],[0.6,2925],[1,3006],[1.9,3092],[2,3174],[2,3258],[2,3343],[2,3424],[2,3508],[2,3591],[2,3677],[2,3759],[2,3843],[2,3925],[2,4010],[2,4094],[2,4179],[2,4261],[2,4344],[2,4428],[2,4512],[2,4596],[2,4678],[2,4762],[2,4845],[2,4930],[2,5013],[2,5099],[2,5180],[2,5263],[2,5348],[2,5429],[2,5515],[2,5598],[2,5681],[2,5763],[2,5849],[2,5932],[2,6016],[2,6101],[2,6183],[2,6265],[2.3,6350],[3.6,6435],[4.1,6518],[4.2,6600],[4.3,6684],[4.3,6767],[4.3,6851],[4.3,6935],[4.3,7016],[4.2,7100],[4.1,7186],[4.1,7269],[4.1,7353],[4.1,7435],[4.1,7521],[3.9,7605],[3.4,7688],[2.9,7772],[2.7,7854],[2.6,7937]]",1,0,666.1685,667.655,0.296223958,0.8815,"[{""rating"":0.2962239583333359,""responseTime"":0.8815000000000737}]",space,0.9528,,667.6552,Definitely yes,100,667.6633,,,[],,0,5,5,5,1,audio/Narrative7Situation5.wav,audio/Narrative8Situation5.wav,audio/Narrative5Situation5.wav,audio/Narrative6Situation5.wav,5,2,5,2,,,,,,,,,,,,,,,,,,,,,,,,,,,,,,,,,,,,,,,
,,,,,,65f8416c2d0d9fb9cf7eef97,2024-05-13_11h32.28.779,group3.1-3.2-social-tom,2023.2.2,MacIntel,59.84082341,65c5074098b851296ff0b7ed,6642326ed81f8f37a7069ce3,,,,,,,,,,,,,,,,,,,,,,,,,,,,,667.6635,2,audio/Narrative6Situation6.wav,669.6757,,669.6758,680.7414,"[[21.3,85],[23.1,168],[25.7,253],[30.2,335],[36.3,420],[39.8,503],[42,586],[43.6,671],[44.1,754],[44.6,837],[46.1,921],[46.5,1004],[47.2,1086],[50.1,1171],[50.6,1254],[50.6,1337],[50.6,1422],[50.4,1505],[50.2,1588],[50.2,1671],[50.2,1756],[50.2,1838],[50.2,1922],[50.1,2007],[50.1,2090],[50,2171],[50,2258],[50,2340],[50,2424],[49.8,2508],[46,2591],[43.4,2674],[41.8,2759],[29.2,3344],[31.4,3427],[31.8,3511],[32.2,3594],[32.6,3678],[32.6,3760],[32,3844],[30,3928],[28.4,4011],[27.6,4096],[27.2,4179],[26.6,4262],[25.7,4346],[24.9,4429],[24.1,4511],[23.1,4597],[22.5,4680],[22.1,4764],[21.2,4848],[20.2,4932],[19.6,5014],[19.4,5095],[19.4,5181],[19.5,5265],[19.5,5348],[19.5,5432],[19,5515],[17.3,5598],[16.3,5683],[16.2,5765],[16.2,5850],[16,5934],[15.6,6017],[14.8,6101],[13.1,6182],[12.6,6268],[12.6,6350],[12.6,6435],[12.6,6517],[12.6,6601],[12.6,6685],[12.6,6766],[12.6,6853],[12.6,6937],[12.6,7019],[12.6,7103],[12.6,7184],[12.1,7271],[11.1,7354],[10.7,7437],[10.7,7522],[10,7605],[9.3,7689],[9.2,7771],[9.1,7852],[9.1,7939],[9,8022],[8.6,8106],[8.4,8190],[8.4,8273],[8.2,8355],[7.8,8440],[7.6,8524],[7.5,8607],[7.5,8690],[7.5,8774],[7.5,8858],[7.5,8941],[7.5,9024],[7.5,9108],[7.5,9192],[7.5,9274],[7.5,9360],[7.5,9442],[7.2,9526],[6.6,9608],[6.2,9692],[5.9,9775],[5.8,9861],[5.8,9944],[5.8,10028],[5.8,10112],[5.8,10194],[5.7,10279],[4.4,10362],[3.8,10446],[2.8,10529],[2.4,10612],[0.5,10697]]",1,0,680.7415,682.9777,2.278103299,1.7607,"[{""rating"":2.6779513888888884,""responseTime"":0.923900000005915},{""rating"":2.2781032986111116,""responseTime"":1.7607000000177777}]",space,1.7033,,682.9779,Not at all,0,682.9871,,,[],,0,6,6,6,1,audio/Narrative7Situation6.wav,audio/Narrative8Situation6.wav,audio/Narrative5Situation6.wav,audio/Narrative6Situation6.wav,3,2,3,2,,,,,,,,,,,,,,,,,,,,,,,,,,,,,,,,,,,,,,,
,,,,,,65f8416c2d0d9fb9cf7eef97,2024-05-13_11h32.28.779,group3.1-3.2-social-tom,2023.2.2,MacIntel,59.84082341,65c5074098b851296ff0b7ed,6642326ed81f8f37a7069ce3,,,,,,,,,,,,,,,,,,,,,,,,,,,,,682.9874,2,audio/Narrative6Situation7.wav,687.9931,,687.9932,712.8589,"[[999,0],[999,84],[999,166],[999,247],[999,333],[999,416],[999,500],[999,584],[999,669],[56.5,753],[53.9,836],[53.2,919],[53.1,1003],[52.9,1085],[50.7,1170],[50.4,1252],[50.3,1336],[50.2,1420],[50.2,1503],[50.2,1586],[50.2,1670],[50.2,1754],[50.2,1837],[50.2,1921],[49.4,2005],[46.6,2088],[45.4,2172],[44.4,2256],[43.3,2337],[43.3,2422],[43.3,2506],[43.3,2589],[43.3,2671],[43.3,2756],[43.3,2840],[43.3,2923],[40.9,3008],[37.8,3092],[34.3,3174],[29.6,3259],[25.9,3342],[24.4,3423],[23.3,3509],[22.4,3592],[21.8,3676],[21.1,3759],[7.4,5096],[7.1,5179],[6.9,5263],[6.3,5348],[4.9,5431],[3.4,5514],[2.2,5598],[1.6,5681],[0.4,5764],[0.8,6851],[4.1,6934],[6.1,7020],[9.7,7101],[17,7185],[22.7,7269],[28.7,7353],[33.9,7435],[39.9,7519],[43.5,7602],[46.7,7687],[48.8,7772],[51.7,7854],[54.2,7937],[56.2,8021],[58.9,8101],[62.4,8187],[68.9,8606],[69.8,8690],[70.2,8772],[70.2,8856],[70.2,8940],[70.2,9022],[70.2,9107],[72.2,9191],[74.1,9274],[76,9355],[77.4,9441],[78.6,9524],[80,9605],[80.4,9692],[81.9,9775],[82.9,9858],[83.2,9943],[84.2,10026],[85.2,10111],[86.5,10192],[88.5,10277],[88.8,10360],[88.8,10444],[88.3,10528],[86.8,10611],[86.6,10694],[86.6,10778],[86.6,10862],[86.6,10942],[86.6,11030],[86.6,11112],[86.4,11195],[86.4,11280],[86.4,11363],[86.4,11444],[86.4,11530],[86.4,11613],[86.4,11698],[86.4,11780],[86.4,11864],[86.4,11947],[86.4,12032],[86.4,12114],[86.4,12198],[86.4,12281],[86.4,12366],[86.4,12449],[86.4,12532],[86.4,12616],[86.4,12699],[86.4,12783],[86.4,12863],[86.4,12949],[86.4,13034],[86.4,13117],[86.4,13201],[86.4,13285],[86.4,13365],[87.3,13452],[88.7,13535],[89.5,13620],[89.9,13702],[90.1,13786],[90.1,13869],[90.1,13954],[90.1,14036],[90.4,14120],[91.8,14203],[93.8,14287],[94.1,14370],[94.1,14455],[94.1,14536],[94.1,14621],[94.1,14705],[94.1,14788],[94.1,14870],[94.1,14955],[94.1,15038],[94.1,15123],[94.1,15207],[94.1,15291],[94.1,15373],[94.1,15457],[94.1,15540],[94.1,15625],[94.1,15708],[94.1,15791],[94.1,15875],[94.1,15958],[94.1,16042],[94.1,16124],[94.1,16209],[94.1,16293],[94.1,16376],[94.1,16460],[94.1,16544],[94.1,16627],[94.1,16710],[94.1,16793],[94.1,16874],[94.1,16960],[94.1,17044],[94.1,17128],[94.1,17211],[94.1,17295],[94.1,17376],[94.1,17462],[94.1,17546],[94.1,17630],[94.1,17713],[94.1,17796],[94.1,17881],[94.1,17964],[94.1,18048],[94.1,18130],[94.1,18214],[94.1,18298],[94.1,18381],[94.1,18464],[94.1,18550],[94.1,18630],[94.1,18713],[94.1,18798],[94.1,18883],[94.1,18966],[94.1,19050],[94.1,19133],[94.1,19216],[94.1,19300],[94.1,19384],[94.1,19468],[94.1,19551],[94.1,19634],[94.1,19715],[94.1,19800],[94.1,19885],[94.1,19966],[94.1,20052],[94.1,20135],[94.1,20217],[94.1,20303],[94.1,20385],[94.1,20471],[94.1,20553],[94.1,20637],[94.1,20722],[94.1,20803],[94.1,20888],[94.1,20969],[94.1,21055],[94.1,21137],[94.1,21222],[94.1,21305],[94.1,21389],[94.1,21471],[94.1,21557],[94.1,21638],[94.1,21724],[94.1,21807],[94.1,21889],[94.1,21975],[94.1,22056],[94.1,22141],[94.1,22225],[94.1,22307],[94.1,22391],[94.1,22477],[94.1,22557],[94.1,22643],[94.1,22724],[94.1,22809],[94.1,22893],[94.1,22977],[94.1,23060],[94.1,23142],[94.1,23228],[94.1,23311],[94.1,23395],[94.1,23478],[94.1,23562],[94.1,23645],[94.1,23729],[94.1,23813],[94.1,23897],[94.1,23978],[94.1,24063],[94.1,24147],[94.1,24231],[94.1,24312],[94.1,24397],[94.1,24481],[94.1,24564],[94.1,24648],[94.1,24730],[94.1,24814]]",1,0,712.8593,716.4686,94.0874566,1.5289,"[{""rating"":94.08745659722221,""responseTime"":1.5289000000060469}]",space,3.0788,,716.4689,Definitely yes,100,716.4771,,,[],,0,7,7,7,1,audio/Narrative7Situation7.wav,audio/Narrative8Situation7.wav,audio/Narrative5Situation7.wav,audio/Narrative6Situation7.wav,5,3,4,5,,,,,,,,,,,,,,,,,,,,,,,,,,,,,,,,,,,,,,,
,,,,,,65f8416c2d0d9fb9cf7eef97,2024-05-13_11h32.28.779,group3.1-3.2-social-tom,2023.2.2,MacIntel,59.84082341,65c5074098b851296ff0b7ed,6642326ed81f8f37a7069ce3,,,,,,,,,,,,,,,,,,,,,,,,,,,,,716.4773,2,audio/Narrative6Situation8.wav,721.48,,721.4802,728.3336,"[[999,0],[999,84],[999,168],[999,252],[999,336],[999,419],[999,503],[999,586],[49.4,670],[49.4,755],[49.9,841],[50.1,921],[50.1,1004],[50.1,1088],[50.1,1170],[50.1,1255],[50.1,1338],[50.1,1422],[50.1,1506],[50.1,1588],[50.1,1673],[50.1,1754],[46.4,1837],[42.2,1924],[38.1,2007],[33.7,2090],[30.5,2174],[28.1,2258],[26.9,2341],[25.6,2424],[24.7,2508],[24,2592],[17.4,3177],[17,3260],[16.8,3344],[16.3,3429],[15.7,3511],[15.2,3595],[14.8,3678],[11.8,3763],[7.7,3843],[6.4,3928],[6,4012],[5.9,4096],[5.9,4179],[5.9,4262],[5.9,4347],[6.2,4430],[4.6,4514],[0.2,4597]]",1,0,728.3338,730.2056,0.100368924,1.477,"[{""rating"":0.1003689236111105,""responseTime"":1.4769999999999754}]",space,1.3409,,730.2057,Partially,50,730.2143,,,[],,0,8,8,8,1,audio/Narrative7Situation8.wav,audio/Narrative8Situation8.wav,audio/Narrative5Situation8.wav,audio/Narrative6Situation8.wav,2,3,3,5,,,,,,,,,,,,,,,,,,,,,,,,,,,,,,,,,,,,,,,
,,,,,,65f8416c2d0d9fb9cf7eef97,2024-05-13_11h32.28.779,group3.1-3.2-social-tom,2023.2.2,MacIntel,59.84082341,65c5074098b851296ff0b7ed,6642326ed81f8f37a7069ce3,,,,,,,,,,,,,,,,,,,,,,,,,,,,,730.2146,2,audio/Narrative6Situation9.wav,734.2166,,734.2166,744.1607,"[[0.4,1586],[3.8,1670],[4.5,1754],[4.8,1838],[6,1921],[6.5,2006],[6.6,2088],[6.4,2172],[6.1,2255],[16.2,2339],[34.2,2423],[37.8,2506],[37.8,2589],[36.9,2673],[32.2,2757],[23.2,2841],[18.3,2924],[14.2,3005],[11.8,3091],[9.2,3175],[7,3259],[5.9,3342],[5.6,3425],[5.3,3509],[4.7,3593],[4.2,3675],[4,3760],[4,3842],[3.8,3927],[3.8,4009],[3.8,4091],[3.8,4176],[3.5,4261],[3.3,4344],[3.2,4428],[3.2,4510],[3.1,4595],[2.9,4679],[2.7,4759],[2.5,4846],[2.3,4929],[2,5013],[1.7,5098],[1.5,5180],[1.5,5264],[1.5,5347],[1.5,5431],[1.6,5514],[1.7,5595],[1.7,5679],[1.8,5764],[2,5849],[2.8,5932],[2.9,6014],[3,6100],[3.1,6181],[3.2,6267],[3.5,6349],[3.6,6433],[3.8,6517],[3.9,6600],[4.2,6684],[4.3,6767],[4.4,6850],[4.4,6934],[4.5,7018],[4.5,7101],[4.5,7185],[4.5,7268],[4.5,7352],[4.5,7437],[4.5,7520],[4.2,7603],[2.8,7686],[2.6,7770],[2.5,7854],[2.4,7938],[2.2,8021],[1.9,8104],[1.7,8188],[1.6,8271],[1.4,8355],[1.3,8438],[0.3,9275],[2.2,9358],[2.4,9440],[0.8,9526]]",1,0,744.1607,745.2286,0.224609375,0.5895,"[{""rating"":0.2246093750000011,""responseTime"":0.5895000000000437}]",space,0.5183,,745.2286,Partially,50,745.2343,,,[],,0,9,9,9,1,audio/Narrative7Situation9.wav,audio/Narrative8Situation9.wav,audio/Narrative5Situation9.wav,audio/Narrative6Situation9.wav,2,3,3,4,,,,,,,,,,,,,,,,,,,,,,,,,,,,,,,,,,,,,,,
,,,,,,65f8416c2d0d9fb9cf7eef97,2024-05-13_11h32.28.779,group3.1-3.2-social-tom,2023.2.2,MacIntel,59.84082341,65c5074098b851296ff0b7ed,6642326ed81f8f37a7069ce3,,,,,,,,,,,,,,,,,,,,,,,,,,,,,745.2345,2,audio/Narrative5Situation1.wav,750.242,,750.2421,763.5276,"[[49.8,753],[49.8,836],[49.8,919],[49.8,1002],[49.8,1084],[49.8,1167],[49.8,1252],[49.8,1336],[49.8,1421],[49.8,1503],[49.8,1587],[49.8,1671],[49.8,1754],[49.8,1838],[49.8,1921],[49.8,2005],[49.8,2088],[46.4,2173],[37.1,2253],[34.9,2339],[34.6,2424],[34.4,2507],[34.4,2589],[34.5,2674],[34.5,2757],[34.5,2840],[34.5,2924],[34.5,3008],[34.5,3090],[34.5,3175],[34.5,3255],[34.5,3341],[34.5,3426],[34.5,3509],[34.5,3592],[34.5,3676],[34.5,3760],[34.5,3844],[34.5,3926],[34.5,4010],[34.5,4094],[34.5,4178],[34.5,4262],[34.5,4343],[34.5,4429],[34.5,4511],[34.5,4596],[34.5,4679],[34.5,4762],[34.5,4846],[34.5,4929],[34.5,5012],[34.5,5096],[34.5,5180],[34.5,5261],[34.4,5348],[34.2,5431],[33.7,5514],[32.2,5598],[31.7,5682],[31.4,5764],[30,5849],[27.9,5933],[25.3,6016],[23.8,6100],[22.3,6180],[21,6267],[20.4,6351],[20.2,6434],[19.7,6519],[19.1,6601],[18.7,6684],[18,6768],[16.8,6852],[14.8,6934],[14,7020],[14,7102],[14,7184],[14,7269],[14,7353],[14,7435],[14,7519],[14,7603],[14,7687],[14,7769],[14,7853],[14,7937],[14,8021],[14,8105],[14,8186],[14,8271],[14,8355],[14,8439],[14,8523],[14,8604],[14,8689],[14,8773],[14,8857],[14,8939],[14,9022],[14,9107],[14,9191],[14,9275],[14,9358],[14,9441],[14,9526],[14,9608],[14,9693],[14,9774],[14,9858],[14,9941],[14,10026],[14,10110],[14,10194],[14,10275],[14,10359],[14,10445],[14,10528],[14,10612],[14,10695],[14,10779],[14,10862],[14,10946],[14,11029],[14,11112],[14,11197],[14,11279],[14,11361],[14,11448],[14,11530],[14,11614],[14,11695],[14,11782],[14,11865],[14,11949],[14,12032],[14,12113],[14,12199],[14,12282],[14,12366],[14,12449],[14,12534],[14,12616],[14,12700],[14,12784],[14,12865],[14,12950],[14,13034],[14,13118],[14,13201],[14,13285]]",1,0,763.5279,765.4656,2.885742188,1.4666,"[{""rating"":2.885742187500001,""responseTime"":1.4666000000238455}]",space,1.4084,,765.4656,Definitely yes,100,765.4742,,,[],,0,10,10,10,1,audio/Narrative8Situation1.wav,audio/Narrative7Situation1.wav,audio/Narrative6Situation1.wav,audio/Narrative5Situation1.wav,5,2,2,5,,,,,,,,,,,,,,,,,,,,,,,,,,,,,,,,,,,,,,,
,,,,,,65f8416c2d0d9fb9cf7eef97,2024-05-13_11h32.28.779,group3.1-3.2-social-tom,2023.2.2,MacIntel,59.84082341,65c5074098b851296ff0b7ed,6642326ed81f8f37a7069ce3,,,,,,,,,,,,,,,,,,,,,,,,,,,,,765.4744,2,audio/Narrative5Situation2.wav,768.4747,,768.4748,797.9528,"[[3.2,918],[3.9,1002],[4.3,1086],[4.7,1169],[5.1,1253],[5.4,1335],[5.7,1419],[6.2,1504],[6.3,1587],[6.1,1670],[5.4,1754],[5,1840],[5,1921],[5,2006],[5.1,2089],[5.3,2171],[5.4,2255],[5.5,2339],[5.5,2420],[5.5,2507],[5.6,2591],[5.6,2673],[5.6,2757],[5.6,2839],[5.6,2923],[5.6,3007],[5.6,3090],[5.6,3174],[5.6,3258],[5.6,3342],[5.6,3424],[5.6,3508],[5.6,3589],[5.6,3674],[5.6,3759],[5.6,3842],[5.6,3924],[5.6,4006],[5.6,4092],[5.6,4175],[5.6,4260],[5.6,4344],[5.6,4425],[5.6,4511],[5.6,4595],[5.6,4675],[5.6,4762],[5.6,4843],[5.6,4928],[5.6,5012],[5.6,5096],[5.6,5178],[5.6,5261],[5.6,5346],[5.6,5430],[5.6,5514],[5.6,5597],[5.6,5682],[5.6,5765],[5.6,5845],[5.6,5932],[5.6,6015],[5.6,6098],[5.6,6182],[5.6,6266],[5.6,6348],[5.6,6432],[5.6,6516],[5.6,6600],[5.6,6682],[5.6,6767],[5.6,6851],[5.5,6935],[5.5,7016],[5.5,7101],[5.5,7186],[5.5,7268],[5.5,7352],[5.4,7436],[5.4,7517],[5.4,7603],[5.4,7686],[5.4,7770],[5.4,7853],[5.4,7937],[5.4,8019],[5.4,8104],[5.4,8187],[5.4,8271],[5.4,8354],[5.4,8438],[5.4,8522],[5.4,8605],[5.4,8689],[5.4,8772],[5.4,8856],[5.4,8939],[5.4,9023],[5.4,9105],[5.4,9190],[5.4,9272],[5.4,9357],[5.4,9441],[5.4,9523],[5.4,9608],[5.4,9692],[5.4,9775],[5.4,9859],[5.4,9940],[5.4,10025],[5.4,10109],[5.7,10190],[6.7,10277],[8,10361],[8.6,10444],[9.1,10527],[9.4,10611],[9.6,10693],[10.2,10777],[11.4,10862],[11.7,10944],[11.7,11025],[11.7,11110],[11.8,11196],[12,11279],[12.2,11361],[12.5,11444],[13,11527],[13.5,11614],[13.9,11698],[14.1,11781],[14.4,11863],[14.9,11947],[15.4,12031],[15.8,12115],[16,12199],[16.2,12282],[16.4,12366],[16.5,12449],[16.8,12533],[17.1,12617],[17.5,12699],[19.8,15456],[19.9,15541],[20.1,15625],[20.1,15708],[20.2,15788],[20.3,15874],[20.3,15958],[20.4,16041],[20.5,16126],[20.6,16209],[20.7,16291],[20.8,16375],[20.8,16460],[20.9,16543],[20.9,16625],[20.9,16709],[20.9,16794],[20.9,16877],[20.9,16961],[20.9,17045],[20.8,17129],[20.7,17211],[20.5,17295],[20.5,17379],[20.5,17463],[20.5,17546],[20.5,17629],[20.5,17713],[20.5,17797],[20.5,17880],[20.5,17961],[20.5,18047],[20.5,18130],[20.5,18214],[20.5,18297],[20.5,18381],[20.5,18465],[20.5,18549],[20.5,18630],[20.5,18716],[20.5,18799],[20.5,18883],[20.5,18967],[20.5,19050],[20.5,19133],[20.5,19217],[20.5,19301],[20.5,19385],[20.5,19467],[20.5,19551],[20.5,19634],[20.5,19716],[20.5,19802],[20.5,19884],[20.5,19969],[20.5,20053],[20.5,20137],[20.5,20218],[20.5,20302],[20.5,20385],[20.5,20471],[20.5,20554],[20.5,20637],[20.5,20720],[20.5,20805],[20.5,20889],[20.5,20972],[20.5,21055],[20.5,21136],[20.5,21222],[20.5,21306],[20.5,21389],[20.5,21473],[20.5,21556],[20.5,21638],[20.5,21724],[20.5,21806],[20.5,21890],[20.5,21974],[20.5,22058],[20.5,22142],[20.5,22224],[20.5,22308],[20.5,22392],[20.5,22476],[20.5,22559],[20.5,22642],[20.5,22726],[20.5,22811],[20.5,22891],[20.5,22976],[20.5,23058],[20.5,23144],[20.5,23226],[20.5,23310],[20.5,23394],[20.5,23478],[20.5,23562],[20.5,23646],[20.5,23730],[20.5,23812],[20.5,23894],[20.5,23980],[20.5,24063],[20.5,24151],[20.5,24230],[20.5,24314],[20.5,24398],[18.7,24481],[18,24565],[17.5,24648],[16.6,24733],[15.7,24816],[15.5,24899],[15.5,24981],[15.5,25066],[15.5,25149],[15.5,25234],[15.5,25316],[15.5,25400],[15.5,25483],[15.5,25568],[15.5,25648],[15.5,25734],[15.5,25818],[15.5,25901],[15.5,25985],[15.5,26065],[15.5,26152],[15.5,26236],[15.4,26319],[15.4,26403],[15.4,26487],[15.4,26570],[15.4,26653],[15.4,26737],[15.4,26821],[15.4,26904],[15.4,26988],[15.4,27071],[15.4,27155],[15.4,27239],[15.4,27321],[15.4,27405],[15.4,27489],[15.4,27573],[15.4,27655],[15.4,27738],[15.4,27823],[15.4,27907],[15.4,27991],[15.4,28074],[15.4,28161],[15.4,28241],[15.4,28325],[15.4,28408],[15.4,28491],[15.4,28574],[15.4,28659],[15.4,28742],[15.4,28826],[15.4,28909],[15.4,28992],[15.4,29077],[15.4,29159],[15.4,29241],[15.4,29327],[15.4,29412]]",1,0,797.9529,800.9782,6.740451389,1.4707,"[{""rating"":6.740451388888891,""responseTime"":1.4707000000179278}]",space,2.4971,,800.9784,Not at all,0,800.9865,,,[],,0,11,11,11,1,audio/Narrative8Situation2.wav,audio/Narrative7Situation2.wav,audio/Narrative6Situation2.wav,audio/Narrative5Situation2.wav,3,3,3,3,,,,,,,,,,,,,,,,,,,,,,,,,,,,,,,,,,,,,,,
,,,,,,65f8416c2d0d9fb9cf7eef97,2024-05-13_11h32.28.779,group3.1-3.2-social-tom,2023.2.2,MacIntel,59.84082341,65c5074098b851296ff0b7ed,6642326ed81f8f37a7069ce3,,,,,,,,,,,,,,,,,,,,,,,,,,,,,800.9868,2,audio/Narrative5Situation3.wav,804.0037,,804.0038,817.9404,"[[6.4,2253],[6.2,2339],[5.7,2421],[3.6,2505],[3.5,2589],[3.8,2672],[4,2755],[4.1,2839],[4.2,2920],[4.5,3007],[5,3091],[6.5,3174],[10.7,3257],[13,3341],[14.8,3425],[18.4,3509],[20.6,3591],[21.7,3674],[21.7,3759],[21.7,3842],[21.7,3925],[21.7,4009],[21.7,4093],[21.7,4176],[21.7,4259],[21.7,4343],[21.7,4426],[21.7,4510],[21.7,4594],[21.7,4677],[21.7,4761],[21.7,4844],[21.7,4928],[21.7,5012],[21.7,5094],[21.7,5177],[21.7,5263],[21.7,5346],[21.7,5427],[22.7,5513],[32.9,5596],[41,5681],[46.6,5764],[60.2,6684],[60.6,6767],[61.1,6850],[61.7,6934],[62.2,7016],[62.6,7101],[62.7,7184],[62.7,7267],[62.7,7352],[62.7,7432],[62.7,7518],[62.7,7602],[62.7,7686],[62.7,7769],[64.4,7852],[65.3,7937],[65.3,8019],[65.3,8104],[65.3,8187],[65.3,8269],[65.3,8354],[65.2,8437],[65.2,8521],[65.2,8605],[65.2,8688],[65.2,8772],[65.2,8855],[65.1,8939],[65.1,9022],[65.1,9105],[65.1,9189],[64.6,9274],[62.9,9357],[59.8,9440],[58.4,9524],[57.6,9608],[56.9,9692],[55.5,9775],[54.8,9858],[53.9,9942],[53.4,10025],[53,10106],[52.4,10193],[51.9,10275],[51.5,10360],[50.9,10443],[50.5,10527],[50.2,10610],[49.7,10695],[49.4,10777],[49.2,10861],[49,10945],[48.8,11028],[47,11112],[45,11195],[44.4,11277],[44,11360],[43.8,11446],[43.8,11529],[43.6,11613],[43.4,11697],[43.4,11778],[43.3,11864],[43.3,11946],[43,12028],[41.8,12115],[41.6,12197],[41.6,12281],[41.6,12364],[41.6,12448],[41.6,12531],[41.6,12615],[41.6,12698],[41.6,12782],[41.6,12866],[41.6,12948],[41.6,13032],[41.6,13117],[41.6,13200],[41.5,13284],[41.1,13368],[41,13450],[40.9,13534],[40.7,13619],[40.3,13703],[40.2,13785],[40.1,13868]]",1,0,817.9405,820.464,50.7047526,1.7926,"[{""rating"":50.70475260416667,""responseTime"":1.7925999999939677}]",space,1.9885,,820.4641,Definitely yes,100,820.4722,,,[],,0,12,12,12,1,audio/Narrative8Situation3.wav,audio/Narrative7Situation3.wav,audio/Narrative6Situation3.wav,audio/Narrative5Situation3.wav,4,8,5,3,,,,,,,,,,,,,,,,,,,,,,,,,,,,,,,,,,,,,,,
,,,,,,65f8416c2d0d9fb9cf7eef97,2024-05-13_11h32.28.779,group3.1-3.2-social-tom,2023.2.2,MacIntel,59.84082341,65c5074098b851296ff0b7ed,6642326ed81f8f37a7069ce3,,,,,,,,,,,,,,,,,,,,,,,,,,,,,820.4723,2,audio/Narrative5Situation4.wav,821.4826,,821.4828,841.8705,"[[49,752],[48.1,835],[48.1,917],[48.6,1003],[49,1086],[49.1,1169],[48.9,1252],[48.9,1335],[48.9,1419],[48.9,1504],[48.9,1587],[48.9,1668],[48.9,1752],[48.9,1837],[48.9,1921],[48.9,2005],[48.9,2089],[48.9,2171],[48.9,2255],[48.9,2339],[48.9,2423],[48.9,2505],[48.9,2588],[48.9,2673],[48.9,2756],[48.9,2841],[49.3,2923],[49.6,3008],[49.7,3091],[49.7,3175],[49.6,3259],[47.7,3341],[39.6,3426],[33.5,3510],[31.9,3593],[31.9,3674],[31.9,3759],[31.9,3843],[31.9,3926],[31.9,4009],[31.9,4094],[31.9,4177],[31.9,4260],[31.9,4344],[31.2,4427],[25.4,4511],[23.4,4595],[14.2,4679],[8.4,4760],[8.1,4846],[8.2,4930],[8.3,5013],[8.3,5094],[8.3,5180],[8.3,5263],[8.3,5347],[8.2,5431],[8.1,5515],[7.9,5598],[7.8,5681],[7.8,5764],[7.8,5848],[7.8,5931],[7.9,6016],[8,6100],[8.1,6182],[8.5,6267],[8.9,6350],[8.9,6433],[8.9,6516],[8.9,6600],[8.9,6685],[8.8,6766],[8.8,6848],[8.7,6934],[8.6,7018],[8.6,7102],[8.6,7186],[8.6,7268],[8.6,7352],[8.6,7435],[8.6,7520],[8.6,7602],[8.6,7686],[8.6,7770],[8.6,7853],[8.6,7937],[8.6,8022],[8.6,8103],[8.4,8188],[8.2,8272],[8,8356],[7.9,8440],[7.8,8521],[7.8,8605],[7.8,8690],[7.9,8771],[7.9,8857],[7.9,8940],[7.9,9024],[7.9,9107],[8,9190],[8.1,9271],[8.1,9358],[8.1,9442],[8.2,9526],[8.2,9608],[8,9692],[7.5,9775],[7.3,9859],[7.7,9942],[8.6,10027],[9.6,10110],[10,10193],[10.6,10278],[10.9,10360],[14.6,10444],[18.2,10528],[21.1,10612],[23.1,10695],[24.5,10778],[25.6,10862],[25.9,10945],[26.4,11028],[27.4,11113],[27.6,11195],[27.7,11279],[27.7,11363],[27.7,11446],[27.7,11531],[27.7,11614],[27.7,11697],[27.7,11781],[27.7,11864],[27.7,11949],[27.7,12031],[27.7,12113],[27.7,12197],[27.7,12283],[27.8,12366],[29.6,12449],[33.9,12533],[36,12617],[37.9,12700],[38.4,12784],[38.4,12867],[38.4,12951],[38.4,13035],[38.4,13118],[38.4,13201],[38.4,13285],[38.4,13368],[38.4,13452],[38.4,13535],[38.4,13617],[38.4,13702],[38.4,13786],[38.4,13870],[38.4,13953],[38.4,14037],[38.4,14120],[37.4,14205],[37.1,14286],[37.1,14371],[37,14455],[37,14538],[37,14622],[37,14707],[37,14788],[38.3,14873],[40.3,14956],[42,15041],[44.6,15122],[50.1,15207],[55.1,15291],[56.3,15373],[57.4,15458],[59.3,15540],[62,15625],[63.1,15708],[64.2,15792],[66.5,15875],[68.3,15958],[69.3,16043],[70.5,16126],[72.3,16210],[74.4,16294],[74.8,16376],[74.6,16460],[73.8,16544],[73.8,16628],[73.8,16711],[73.8,16794],[73.8,16878],[73.8,16961],[73.9,17045],[75.8,17128],[80.6,17212],[86.2,17296],[88.4,17378],[89.3,17462],[89.4,17546],[89.4,17629],[89.4,17714],[89.4,17795],[89.7,17882],[89.8,17964],[90,18049],[90.3,18132],[90.6,18213],[91.1,18298],[91.9,18382],[92.6,18466],[92.7,18549],[92.8,18633],[93,18717],[93.1,18800],[93.2,18882],[93.2,18965],[93.2,19049],[93.2,19133],[93.2,19217],[93.2,19302],[93.2,19382],[93.2,19468],[93.2,19551],[93.2,19635],[93.2,19717],[93.2,19800],[93.2,19885],[93.2,19969],[93.2,20053],[93.2,20137],[93.2,20219],[93.2,20303],[93.2,20387]]",1,0,841.8708,844.0264,91.95366753,0.9577,"[{""rating"":91.95366753472223,""responseTime"":0.9576999999879945}]",space,1.6256,,844.0264,Partially,50,844.0346,,,[],,0,13,13,13,1,audio/Narrative8Situation4.wav,audio/Narrative7Situation4.wav,audio/Narrative6Situation4.wav,audio/Narrative5Situation4.wav,3,3,2,1,,,,,,,,,,,,,,,,,,,,,,,,,,,,,,,,,,,,,,,
,,,,,,65f8416c2d0d9fb9cf7eef97,2024-05-13_11h32.28.779,group3.1-3.2-social-tom,2023.2.2,MacIntel,59.84082341,65c5074098b851296ff0b7ed,6642326ed81f8f37a7069ce3,,,,,,,,,,,,,,,,,,,,,,,,,,,,,844.0349,2,audio/Narrative5Situation5.wav,849.0396,,849.0396,864.4483,"[[83.9,1672],[80.6,1754],[75.3,1838],[68.5,1921],[66.7,2002],[59.8,2089],[57.8,2171],[58,2256],[58.1,2340],[57.9,2423],[52.3,2507],[51.1,2590],[50.1,2673],[49.2,2756],[49.2,2841],[49.2,2922],[49.2,3009],[48.8,3091],[47.2,3174],[47,3258],[45.4,3343],[42.8,3428],[41.9,3509],[41.8,3592],[41.6,3675],[39.7,3759],[38,3844],[35.5,3927],[34.4,4011],[34.3,4091],[34.2,4178],[33.3,4260],[31.1,4345],[30.3,4426],[30.2,4509],[30,4595],[30,4679],[30,4762],[30,4846],[30,4926],[30,5012],[30,5096],[30,5180],[30,5264],[29.9,5348],[29.4,5431],[28.7,5514],[28.2,5599],[28.2,5679],[28.1,5764],[27.2,5848],[26.7,5932],[26.7,6013],[26.7,6096],[26.7,6182],[26.7,6266],[26.7,6349],[26.7,6430],[26.7,6515],[26.7,6600],[26.7,6684],[26.7,6767],[26.7,6851],[26.6,6933],[26.6,7017],[26.6,7102],[26.6,7186],[26.3,7268],[25.6,7353],[25.1,7437],[24.8,7520],[24.1,7604],[23.5,7687],[22.9,7770],[22.5,7853],[22.3,7939],[22.1,8021],[22,8103],[21.9,8188],[21.7,8273],[21.7,8352],[21.7,8438],[21.7,8520],[21.7,8606],[21.6,8690],[21.6,8773],[21.6,8856],[21.6,8940],[21.6,9023],[21.6,9107],[21.6,9189],[21.6,9274],[21.6,9357],[21.6,9441],[21.6,9525],[21.6,9609],[21.6,9693],[21.6,9776],[21.6,9859],[21.6,9943],[21.6,10023],[21.6,10111],[21.6,10192],[21.6,10277],[21.6,10360],[21.6,10445],[21.6,10527],[21.6,10611],[21.6,10695],[21.6,10778],[21.6,10861],[21.6,10945],[21.6,11028],[21.6,11112],[21.6,11196],[21.6,11279],[21.8,11364],[22.4,11448],[38.5,11531],[45.5,11614],[45.6,11697],[47.1,11782],[54.8,11865],[57.1,11949],[59.1,12032],[59.7,12113],[60.3,12199],[61.6,12282],[62.6,12366],[63.4,12450],[63.7,12533],[62.1,12617],[61.7,12698],[59.8,12784],[60.5,12868],[63.4,12951],[64.3,13035],[64.6,13118],[64.6,13202],[64.6,13285],[64.6,13367],[64.6,13452],[64.6,13533],[65.2,13619],[69.7,13703],[70.8,13787],[70.8,13870],[70.7,13953],[70.7,14037],[70.7,14120],[70.7,14204],[70.7,14286],[70.7,14370],[70.7,14453],[70.7,14538],[70.7,14622],[70.7,14706],[70.7,14788],[70.7,14871],[70.6,14956],[70.4,15038],[70.3,15123],[70.2,15206],[70.1,15290],[70.1,15374]]",1,0,864.4487,865.7849,69.92241753,0.7177,"[{""rating"":69.92241753472223,""responseTime"":0.7176999999880991}]",space,0.8027,,865.7851,Definitely yes,100,865.7929,,,[],,0,14,14,14,1,audio/Narrative8Situation5.wav,audio/Narrative7Situation5.wav,audio/Narrative6Situation5.wav,audio/Narrative5Situation5.wav,2,5,2,5,,,,,,,,,,,,,,,,,,,,,,,,,,,,,,,,,,,,,,,
,,,,,,65f8416c2d0d9fb9cf7eef97,2024-05-13_11h32.28.779,group3.1-3.2-social-tom,2023.2.2,MacIntel,59.84082341,65c5074098b851296ff0b7ed,6642326ed81f8f37a7069ce3,,,,,,,,,,,,,,,,,,,,,,,,,,,,,865.7932,2,audio/Narrative5Situation6.wav,868.8089,,868.8091,874.474,"[[67.8,4513],[59,4595],[49.9,4678],[46.5,4762],[46.2,4846],[46.2,4927],[46.5,5012],[46.7,5096],[46.8,5180],[47.1,5264],[48.1,5348],[49.3,5430],[50.4,5511],[51,5598]]",1,0,874.4742,875.7613,50.9624566,0.7654,"[{""rating"":50.96245659722223,""responseTime"":0.765400000006025}]",space,0.7367,,875.7615,Not at all,0,875.7704,,,[],,0,15,15,15,1,audio/Narrative8Situation6.wav,audio/Narrative7Situation6.wav,audio/Narrative6Situation6.wav,audio/Narrative5Situation6.wav,2,3,2,3,,,,,,,,,,,,,,,,,,,,,,,,,,,,,,,,,,,,,,,
,,,,,,65f8416c2d0d9fb9cf7eef97,2024-05-13_11h32.28.779,group3.1-3.2-social-tom,2023.2.2,MacIntel,59.84082341,65c5074098b851296ff0b7ed,6642326ed81f8f37a7069ce3,,,,,,,,,,,,,,,,,,,,,,,,,,,,,875.7706,2,audio/Narrative5Situation7.wav,879.7712,,879.7713,900.7943,"[[50.4,1003],[49.8,1085],[49.2,1170],[48.6,1253],[48.5,1337],[48.5,1420],[48.6,1503],[48.6,1587],[48.6,1671],[48.6,1755],[48.6,1836],[48.6,1921],[48.6,2004],[48.6,2089],[48.6,2173],[48.6,2257],[48.6,2341],[48.6,2423],[48.6,2507],[48.6,2588],[48.6,2674],[48.3,2757],[48.2,2841],[48.2,2924],[48.9,3006],[50.7,3092],[50.9,3175],[50.9,3258],[50.9,3341],[50.9,3425],[50.9,3509],[50.9,3593],[50.9,3676],[51,3761],[51.1,3844],[51.2,3927],[51.3,4010],[51.6,4095],[51.8,4177],[51.8,4261],[51.8,4345],[51.8,4428],[50.9,4512],[47.3,4595],[44.4,4680],[43,4762],[42.4,4846],[41.9,4930],[40.4,5015],[38.4,5096],[37.4,5181],[36.4,5264],[34.4,5348],[32.5,5432],[30.7,5515],[29.3,5599],[22.8,6852],[22.6,6933],[22.6,7020],[22.6,7100],[22.6,7186],[22.6,7266],[22.6,7353],[22.7,7436],[22.7,7520],[22.7,7603],[22.7,7685],[22.7,7770],[22.7,7854],[22.7,7938],[22.7,8021],[22.7,8104],[22.7,8188],[22.8,8271],[22.9,8355],[22.9,8439],[22.9,8523],[22.9,8607],[22.9,8689],[22.9,8773],[23,8857],[23.1,8940],[23.2,9024],[23.2,9107],[23.3,9191],[23.4,9273],[23.4,9357],[23.4,9442],[22.6,9525],[16.7,10111],[17.5,10194],[17.5,10278],[17.2,10361],[16.8,10444],[16.3,10528],[16.1,10613],[16,10695],[16,10779],[16,10863],[16,10946],[16,11028],[16,11111],[16,11196],[16,11280],[16,11363],[16,11446],[16,11531],[16,11615],[16,11697],[16,11782],[16,11866],[16,11949],[16,12032],[16,12116],[16,12200],[16,12282],[16,12367],[16,12448],[16,12534],[16,12617],[16,12700],[16,12784],[16,12868],[16,12951],[16,13034],[16,13116],[16,13202],[16,13285],[16,13370],[16,13452],[16,13538],[16,13620],[16,13703],[16,13786],[16,13870],[16,13954],[16,14037],[16,14121],[16,14206],[16,14288],[16,14372],[16,14455],[16,14538],[16,14623],[16,14706],[16,14790],[16,14873],[16,14956],[16,15038],[16,15124],[16,15206],[16,15289],[16,15374],[16,15457],[16,15542],[16,15625],[16,15707],[16,15792],[16,15876],[16,15959],[16,16042],[16,16128],[16,16210],[16,16294],[16,16378],[16,16460],[16,16543],[16,16628],[16,16710],[16,16795],[16,16878],[16,16961],[16,17045],[16,17127],[16,17212],[16,17296],[16,17379],[16,17463],[16,17545],[16,17630],[16,17713],[16,17798],[16,17881],[16,17965],[16,18048],[16,18132],[16,18215],[16,18299],[16,18381],[16,18465],[16,18549],[16,18633],[16,18717],[16,18801],[16,18883],[16,18967],[16,19051],[16,19135],[16,19217],[16,19301],[16,19385],[16,19469],[16,19550],[16,19635],[16,19719],[16,19801],[16,19884],[16,19971],[16,20054],[16,20138],[16,20221],[16,20304],[16,20386],[16,20471],[16,20555],[16,20638],[16,20722],[16,20805],[16,20889],[16,20973]]",1,0,900.7945,902.9825,1.372612847,1.4272,"[{""rating"":1.372612847222221,""responseTime"":1.4272000000179332}]",space,1.6643,,902.9827,Partially,50,902.992,,,[],,0,16,16,16,1,audio/Narrative8Situation7.wav,audio/Narrative7Situation7.wav,audio/Narrative6Situation7.wav,audio/Narrative5Situation7.wav,3,5,5,4,,,,,,,,,,,,,,,,,,,,,,,,,,,,,,,,,,,,,,,
,,,,,,65f8416c2d0d9fb9cf7eef97,2024-05-13_11h32.28.779,group3.1-3.2-social-tom,2023.2.2,MacIntel,59.84082341,65c5074098b851296ff0b7ed,6642326ed81f8f37a7069ce3,,,,,,,,,,,,,,,,,,,,,,,,,,,,,902.9923,2,audio/Narrative5Situation8.wav,905.9924,,905.9925,914.8168,"[[999,0],[999,82],[999,165],[999,248],[999,333],[999,416],[999,500],[999,583],[999,667],[999,751],[999,835],[999,917],[999,1000],[999,1085],[999,1169],[999,1252],[999,1333],[999,1419],[999,1502],[999,1587],[999,1668],[999,1752],[999,1836],[999,1920],[999,2002],[999,2088],[10.9,2171],[10.6,2256],[10.6,2339],[10.6,2423],[10.5,2506],[10.5,2588],[10.5,2673],[10.5,2757],[10.5,2838],[10.5,2924],[10.5,3007],[10.5,3090],[10.5,3174],[10.5,3257],[10.5,3341],[10.5,3425],[10.5,3508],[10.5,3590],[10.5,3675],[10.5,3759],[10.5,3841],[10.5,3925],[10.5,4009],[10.5,4094],[10.5,4176],[10.5,4260],[10.5,4344],[10.5,4427],[10.5,4511],[10.5,4594],[10.5,4678],[10.5,4759],[10.5,4844],[10.5,4927],[10.5,5012],[10.5,5095],[10.5,5178],[10.5,5263],[10.5,5346],[10.5,5430],[10.5,5513],[10.5,5596],[10.5,5680],[10.5,5764],[10.5,5848],[10.5,5931],[10.5,6015],[11,6096],[11.2,6181],[11.2,6265],[11.1,6349],[11.1,6433],[11.1,6515],[11.1,6600],[11,6684],[10.9,6764],[10.9,6850],[10.9,6936],[10.9,7014],[10.9,7101],[10.9,7184],[10.9,7269],[10.9,7351],[10.9,7435],[10.9,7516],[10.9,7601],[10.9,7685],[10.9,7769],[10.9,7853],[10.9,7937],[10.9,8020],[10.9,8102],[10.9,8187],[10.9,8269],[10.9,8355],[10.9,8438],[10.9,8521],[10.6,8606],[6.9,8689],[6.1,8773]]",1,0,914.817,916.2188,1.841905382,0.807,"[{""rating"":1.841905381944442,""responseTime"":0.8070000000000164}]",space,0.8772,,916.2191,Definitely yes,100,916.2273,,,[],,0,17,17,17,1,audio/Narrative8Situation8.wav,audio/Narrative7Situation8.wav,audio/Narrative6Situation8.wav,audio/Narrative5Situation8.wav,3,2,5,3,,,,,,,,,,,,,,,,,,,,,,,,,,,,,,,,,,,,,,,
