exp_question,consent.started,consent.stopped,consentResponse.keys,consentResponse.rt,consentResponse.duration,participantID,date,expName,psychopyVersion,OS,frameRate,STUDY_ID,SESSION_ID,opening1.started,opening1.stopped,keyEndingOpening1.keys,keyEndingOpening1.rt,keyEndingOpening1.duration,volumeAdjust.started,volumeAdjust.stopped,endingAdjust.keys,endingAdjust.rt,endingAdjust.duration,opening2.started,opening2.stopped,keyEndingOpening.keys,keyEndingOpening.rt,keyEndingOpening.duration,mouse.x,mouse.y,mouse.leftButton,mouse.midButton,mouse.rightButton,mouse.time,instructionLoop.thisRepN,instructionLoop.thisTrialN,instructionLoop.thisN,instructionLoop.thisIndex,instructionLoop.ran,readyForAudio.started,readyForAudio.stopped,fixation.started,run,audio_played,fixation.stopped,endPractice.keys,audioPre.started,audioPre.stopped,continuousResponses_audio,continuousSlider.response,continuousSlider.rt,intRating.started,intRating.stopped,intQuestionSlider.response,intQuestionSlider.rt,intQuestionSlider.history,confirmResponse.keys,confirmResponse.rt,confirmResponse.duration,catchQuestion.started,catch_label,catch_value,catchQuestion.stopped,catchQuestionSlider.response,catchQuestionSlider.rt,catchQuestionSlider.history,confirmResponse_2.keys,audioRunLoop.thisRepN,audioRunLoop.thisTrialN,audioRunLoop.thisN,audioRunLoop.thisIndex,audioRunLoop.ran,conditions1_1,conditions2_1,conditions1_2,conditions2_2,dur1_1,dur2_1,dur1_2,dur2_2,endPractice.rt,endPractice.duration,confirmResponse_2.rt,confirmResponse_2.duration,runIntervalBreak.started,runIntervalBreak.stopped,endingBreakKey.keys,endingBreakKey.rt,endingBreakKey.duration,connection.started,connection.stopped,connectionEnding.keys,connectionEnding.rt,connectionEnding.duration,readyForText.started,readyForText.stopped,textPre.started,run_dup,textPre.stopped,continuousResponses_text,textRunLoop.thisRepN,textRunLoop.thisTrialN,textRunLoop.thisN,textRunLoop.thisIndex,textRunLoop.ran,text1_1,text1_2,text2_1,text2_2,runBreakText.started,runBreakText.stopped,endingBreakKey_2.keys,endingBreakKey_2.rt,endingBreakKey_2.duration,ending.started,ending.stopped,endingEnding.keys,endingEnding.rt,endingEnding.duration
social,0.0002,9.8301,y,9.5024,,661b08a7e0f98b7283c4d649,2024-05-13_09h33.10.941,group3.1-3.2-social-tom,2023.2.2,Win32,59.52380952,65c5074098b851296ff0b7ed,664232786a6b6c02e55b3622,,,,,,,,,,,,,,,,,,,,,,,,,,,,,,,,,,,,,,,,,,,,,,,,,,,,,,,,,,,,,,,,,,,,,,,,,,,,,,,,,,,,,,,,,,,,,,,,,,,,,,,,,,
,,,,,,661b08a7e0f98b7283c4d649,2024-05-13_09h33.10.941,group3.1-3.2-social-tom,2023.2.2,Win32,59.52380952,65c5074098b851296ff0b7ed,664232786a6b6c02e55b3622,9.8303,14.4365,space,4.597,,,,,,,,,,,,,,,,,,,,,,,,,,,,,,,,,,,,,,,,,,,,,,,,,,,,,,,,,,,,,,,,,,,,,,,,,,,,,,,,,,,,,,,,,,,,,,,,,,,,,,
,,,,,,661b08a7e0f98b7283c4d649,2024-05-13_09h33.10.941,group3.1-3.2-social-tom,2023.2.2,Win32,59.52380952,65c5074098b851296ff0b7ed,664232786a6b6c02e55b3622,,,,,,14.4365,61.6769,space,46.9192,,,,,,,,,,,,,,,,,,,,,,,,,,,,,,,,,,,,,,,,,,,,,,,,,,,,,,,,,,,,,,,,,,,,,,,,,,,,,,,,,,,,,,,,,,,,,,,,,
,,,,,,661b08a7e0f98b7283c4d649,2024-05-13_09h33.10.941,group3.1-3.2-social-tom,2023.2.2,Win32,59.52380952,65c5074098b851296ff0b7ed,664232786a6b6c02e55b3622,,,,,,,,,,,61.684,65.4558,space,3.7534,,[],[],[],[],[],[],0,0,0,0,1,,,,,,,,,,,,,,,,,,,,,,,,,,,,,,,,,,,,,,,,,,,,,,,,,,,,,,,,,,,,,,,,,,,,,,,,,,,,,,,,
,,,,,,661b08a7e0f98b7283c4d649,2024-05-13_09h33.10.941,group3.1-3.2-social-tom,2023.2.2,Win32,59.52380952,65c5074098b851296ff0b7ed,664232786a6b6c02e55b3622,,,,,,,,,,,65.4615,93.068,space,27.5473,,[],[],[],[],[],[],1,0,1,0,1,,,,,,,,,,,,,,,,,,,,,,,,,,,,,,,,,,,,,,,,,,,,,,,,,,,,,,,,,,,,,,,,,,,,,,,,,,,,,,,,
,,,,,,661b08a7e0f98b7283c4d649,2024-05-13_09h33.10.941,group3.1-3.2-social-tom,2023.2.2,Win32,59.52380952,65c5074098b851296ff0b7ed,664232786a6b6c02e55b3622,,,,,,,,,,,93.0787,112.8106,p,19.6992,,[],[],[],[],[],[],2,0,2,0,1,,,,,,,,,,,,,,,,,,,,,,,,,,,,,,,,,,,,,,,,,,,,,,,,,,,,,,,,,,,,,,,,,,,,,,,,,,,,,,,,
,,,,,,661b08a7e0f98b7283c4d649,2024-05-13_09h33.10.941,group3.1-3.2-social-tom,2023.2.2,Win32,59.52380952,65c5074098b851296ff0b7ed,664232786a6b6c02e55b3622,,,,,,,,,,,112.8212,119.2133,space,6.3629,,[],[],[],[],[],[],3,0,3,0,1,,,,,,,,,,,,,,,,,,,,,,,,,,,,,,,,,,,,,,,,,,,,,,,,,,,,,,,,,,,,,,,,,,,,,,,,,,,,,,,,
,,,,,,661b08a7e0f98b7283c4d649,2024-05-13_09h33.10.941,group3.1-3.2-social-tom,2023.2.2,Win32,59.52380952,65c5074098b851296ff0b7ed,664232786a6b6c02e55b3622,,,,,,,,,,,119.2213,119.4962,space,0.2564,,[],[],[],[],[],[],4,0,4,0,1,,,,,,,,,,,,,,,,,,,,,,,,,,,,,,,,,,,,,,,,,,,,,,,,,,,,,,,,,,,,,,,,,,,,,,,,,,,,,,,,
,,,,,,661b08a7e0f98b7283c4d649,2024-05-13_09h33.10.941,group3.1-3.2-social-tom,2023.2.2,Win32,59.52380952,65c5074098b851296ff0b7ed,664232786a6b6c02e55b3622,,,,,,,,,,,119.4964,144.2911,space,24.7666,,[],[],[],[],[],[],5,0,5,0,1,,,,,,,,,,,,,,,,,,,,,,,,,,,,,,,,,,,,,,,,,,,,,,,,,,,,,,,,,,,,,,,,,,,,,,,,,,,,,,,,
,,,,,,661b08a7e0f98b7283c4d649,2024-05-13_09h33.10.941,group3.1-3.2-social-tom,2023.2.2,Win32,59.52380952,65c5074098b851296ff0b7ed,664232786a6b6c02e55b3622,,,,,,,,,,,144.2986,156.5298,space,12.2167,,[],[],[],[],[],[],6,0,6,0,1,,,,,,,,,,,,,,,,,,,,,,,,,,,,,,,,,,,,,,,,,,,,,,,,,,,,,,,,,,,,,,,,,,,,,,,,,,,,,,,,
,,,,,,661b08a7e0f98b7283c4d649,2024-05-13_09h33.10.941,group3.1-3.2-social-tom,2023.2.2,Win32,59.52380952,65c5074098b851296ff0b7ed,664232786a6b6c02e55b3622,,,,,,,,,,,,,,,,,,,,,,,,,,,156.5376,159.1157,159.129,1,audio/Narrative13Situation2.wav,161.1322,,161.1325,190.8799,"[[999,1],[999,88],[999,171],[999,250],[999,332],[999,420],[999,499],[999,582],[999,669],[999,749],[999,832],[999,920],[999,1004],[999,1083],[999,1166],[999,1250],[999,1333],[999,1421],[999,1504],[999,1583],[999,1667],[999,1750],[999,1833],[999,1916],[999,2000],[999,2083],[999,2172],[999,2250],[999,2338],[999,2422],[999,2500],[999,2588],[999,2667],[999,2754],[999,2838],[999,2917],[999,3000],[999,3089],[999,3171],[999,3250],[999,3334],[999,3423],[999,3500],[999,3584],[999,3667],[999,3754],[999,3834],[999,3917],[999,4000],[999,4090],[999,4172],[999,4257],[999,4334],[999,4421],[999,4501],[999,4585],[999,4668],[999,4751],[999,4834],[999,4918],[999,5001],[999,5084],[999,5168],[999,5252],[999,5335],[999,5423],[999,5501],[999,5585],[999,5673],[999,5752],[999,5835],[999,5918],[999,6002],[999,6089],[999,6172],[999,6257],[999,6340],[999,6424],[50.1,6502],[49.7,6585],[49.3,6673],[49.3,6756],[49.3,6835],[49.3,6923],[49.3,7002],[49.3,7085],[49.3,7169],[49.3,7256],[49.3,7341],[49.3,7419],[49.3,7509],[49.3,7586],[49.3,7674],[49.3,7757],[49.3,7840],[49.3,7919],[49.3,8003],[49.3,8090],[49.3,8174],[49.3,8256],[49.3,8336],[49.3,8419],[49.3,8507],[49.3,8586],[49.3,8672],[49.3,8758],[49.7,8844],[49.9,8920],[51.4,9003],[58.5,9092],[61.3,9173],[69.7,9253],[73.1,9339],[78.8,9420],[82.6,9503],[82.6,9591],[82.6,9670],[82.6,9757],[82.6,9837],[82.6,9926],[82.6,10008],[82.6,10087],[84.6,10170],[89.5,10258],[92.3,10337],[93.7,10426],[95.5,10509],[100,10594],[100,10670],[100,10755],[100,10837],[100,10921],[100,11004],[100,11092],[100,11171],[100,11254],[100,11338],[100,11426],[100,11509],[100,11588],[100,11671],[100,11760],[100,11838],[100,11921],[100,12004],[100,12092],[100,12175],[100,12254],[100,12338],[100,12425],[100,12505],[100,12592],[99.4,12677],[96.9,12754],[92.6,12838],[91.1,12921],[90.2,13005],[88.3,13092],[85,13177],[81.3,13261],[78.8,13344],[71.2,13427],[64.6,13510],[50.2,13593],[47.1,13672],[50.9,13872],[61.5,13956],[70.1,14039],[72,14122],[77,14206],[80.3,14289],[84.3,14372],[87.7,14456],[88.8,14539],[88.8,14622],[88.3,14706],[88.2,14789],[88.2,14873],[88.5,14956],[88.5,15039],[88.4,15122],[88.3,15206],[90.9,15289],[93.4,15372],[94.5,15456],[95.8,15539],[96,15623],[96.1,15706],[96.9,15789],[96.9,15873],[96,15956],[93.3,16039],[91.3,16123],[91,16206],[91,16289],[91,16373],[91,16456],[91,16540],[91,16623],[91,16707],[91,16790],[91,16873],[91,16957],[91,17040],[91,17123],[91,17207],[91,17290],[91,17373],[91,17457],[91,17540],[91,17623],[91,17707],[91,17790],[91,17874],[91,17959],[91,18040],[91,18124],[91,18207],[91,18290],[91,18374],[91,18457],[91,18541],[91,18624],[91,18708],[91,18791],[91,18874],[91,18957],[91,19041],[89.5,19124],[87.6,19208],[84.5,19291],[81.8,19374],[79.3,19458],[76.8,19541],[73.7,19625],[71.3,19708],[68.2,19792],[65.5,19875],[63.3,19958],[58.7,20041],[55.1,20125],[47.1,20208],[32.1,20291],[0.1,23210],[0.3,23293],[0.5,23376],[0.9,23460],[1.3,23543],[2.9,23626],[6.9,23710],[14.3,23793],[28.7,23877],[41.5,23960],[57.3,24043],[70.8,24127],[100,24710],[100,24794],[100,24877],[100,24960],[100,25044],[100,25127],[100,25210],[100,25294],[100,25377],[100,25460],[100,25544],[100,25628],[100,25711],[100,25794],[100,25877],[100,25961],[100,26044],[100,26128],[100,26211],[99.7,26294],[99.6,26378],[99.4,26461],[99.4,26544],[99,26628],[98.7,26711],[98.5,26794],[98.3,26878],[98.2,26961],[98,27045],[98,27128],[97.8,27211],[97.8,27294],[97.8,27378],[97.8,27461],[97.8,27544],[97.8,27628],[97.8,27712],[97.8,27795],[97.8,27878],[97.8,27962],[97.8,28045],[97.8,28128],[95.6,28212],[94.5,28295],[93.8,28379],[93.3,28462],[93.3,28545],[93.8,28629],[94,28712],[95.1,28795],[95.1,28879],[95.1,28962],[95.1,29046],[95.1,29129],[95.1,29212],[95.1,29296],[95.1,29379],[95.1,29462],[95.1,29546],[95.1,29632],[95.1,29713]]",1,0,190.8802,201.9847,72.35157159,8.8941,"[{""rating"":72.35157159487777,""responseTime"":8.894099999964226}]",space,10.5631,,201.9849,Definitely yes,100,201.9895,,,[],,0,0,0,0,1,audio/Narrative13Situation2.wav,audio/Narrative13Situation2.wav,audio/Narrative13Situation2.wav,audio/Narrative13Situation2.wav,2,2,2,2,,,,,,,,,,,,,,,,,,,,,,,,,,,,,,,,,,,,,,,
,,,,,,661b08a7e0f98b7283c4d649,2024-05-13_09h33.10.941,group3.1-3.2-social-tom,2023.2.2,Win32,59.52380952,65c5074098b851296ff0b7ed,664232786a6b6c02e55b3622,,,,,,,,,,,,,,,,,,,,,,,,,,,,,201.9898,1,audio/Narrative8Situation1.wav,204.0015,space,204.0015,219.9422,"[[999,0],[999,83],[999,166],[999,250],[999,333],[999,416],[999,499],[999,583],[999,666],[999,750],[999,833],[999,916],[999,1000],[999,1083],[999,1167],[999,1250],[999,1333],[999,1417],[999,1500],[999,1584],[48.8,1667],[47.4,1750],[47.3,1834],[51.2,1917],[60,2000],[62.7,2083],[71.7,2167],[82.6,2251],[96.8,2334],[96.8,2417],[96,2501],[85.6,2584],[76.2,2667],[66.9,2751],[61.1,2834],[59.1,2917],[59.1,3001],[59.1,3084],[56.3,3167],[55.2,3251],[53.8,3334],[53,3417],[51.3,3501],[50.8,3585],[50.5,3668],[50.1,3751],[50.1,3834],[50.1,3918],[51.7,4001],[52.6,4085],[52.9,4168],[52.9,4251],[52.9,4335],[52.9,4418],[52.7,4502],[52.7,4585],[52.7,4668],[52.1,4752],[51,4835],[39.5,4918],[35.4,5001],[35.4,5085],[35.3,5168],[36.5,5251],[37.2,5335],[37.2,5418],[37.3,5502],[37.5,5585],[37.8,5669],[38,5752],[38.1,5835],[37.7,5919],[37.7,6002],[37.7,6085],[37.7,6169],[37.7,6252],[37.7,6336],[37.7,6419],[37.7,6502],[37.7,6586],[37.7,6669],[37.7,6753],[37.7,6836],[37.7,6920],[37.7,7003],[38.5,7086],[38.8,7169],[39.4,7253],[39.6,7336],[39.6,7419],[39.6,7503],[39.6,7586],[39.6,7669],[39.6,7753],[39.6,7836],[39.6,7920],[39.6,8003],[39.6,8086],[39.6,8170],[39.6,8253],[39.6,8337],[39.6,8420],[39.6,8503],[39.6,8587],[39.6,8670],[39.6,8753],[39.6,8837],[39.6,8920],[39.6,9003],[39.6,9087],[39.6,9170],[39.6,9253],[39.6,9337],[40.7,9420],[44.5,9503],[50.8,9587],[55.7,9670],[62.9,9754],[67,9837],[72.7,9920],[78.8,10004],[82,10087],[83.8,10171],[86.2,10254],[96.7,10504],[97.6,10590],[98.3,10671],[98.7,10754],[98.9,10838],[99.1,10921],[99.6,11004],[99.7,11088],[99.7,11171],[99.7,11254],[99.7,11338],[99.7,11421],[99.7,11504],[99.7,11588],[99.7,11671],[99.7,11755],[99.7,11838],[99.7,11921],[99.7,12005],[99.7,12088],[99.7,12171],[99.7,12255],[99.7,12338],[99.7,12421],[99.7,12505],[99.7,12588],[99.7,12672],[99.7,12755],[99.7,12838],[99.7,12922],[99.7,13006],[99.7,13089],[99.7,13172],[99.7,13256],[99.7,13339],[99.7,13422],[99.7,13506],[99.7,13589],[99.7,13672],[99.7,13756],[99.7,13839],[99.7,13922],[99.7,14006],[99.7,14089],[99.7,14172],[99.7,14256],[99.7,14339],[99.7,14422],[99.7,14506],[99.7,14590],[99.7,14673],[99.7,14756],[99.7,14840],[99.7,14923],[99.7,15006],[99.7,15090],[99.7,15173],[99.7,15256],[99.7,15339],[99.7,15423],[99.7,15506],[99.7,15590],[99.7,15673],[99.7,15756],[99.7,15840],[99.7,15923]]",1,0,219.9424,224.9111,99.59254948,2.3105,"[{""rating"":99.59254947613503,""responseTime"":2.3104999999999905}]",space,4.4353,,224.9113,Not at all,0,224.9203,,,[],,0,1,1,1,1,audio/Narrative7Situation1.wav,audio/Narrative8Situation1.wav,audio/Narrative5Situation1.wav,audio/Narrative6Situation1.wav,2,5,5,2,1.9953,,,,,,,,,,,,,,,,,,,,,,,,,,,,,,,,,,,,,,
,,,,,,661b08a7e0f98b7283c4d649,2024-05-13_09h33.10.941,group3.1-3.2-social-tom,2023.2.2,Win32,59.52380952,65c5074098b851296ff0b7ed,664232786a6b6c02e55b3622,,,,,,,,,,,,,,,,,,,,,,,,,,,,,224.9205,1,audio/Narrative8Situation2.wav,227.9287,,227.9287,238.0336,"[[999,0],[999,83],[999,166],[999,250],[999,333],[999,416],[999,500],[999,583],[999,667],[999,750],[49.9,834],[50,916],[50,1000],[50,1084],[50,1167],[52.1,1251],[52.4,1334],[53,1417],[53.6,1501],[53.6,1584],[53.6,1667],[53.6,1750],[53.6,1834],[53.6,1917],[53.6,2000],[53.6,2084],[53.6,2167],[53.6,2251],[53.6,2334],[53.6,2417],[53.6,2501],[53.6,2584],[53.6,2667],[53.6,2751],[53.6,2834],[51.6,2918],[45.3,3001],[28.5,3084],[25.2,3168],[23.2,3251],[15.5,3334],[10.8,3418],[6.3,3501],[3.9,3584],[3.3,3668],[3,3752],[3,3835],[3,3918],[3,4002],[3,4085],[3,4168],[3,4251],[3,4335],[3,4418],[2.9,4502],[2.9,4585],[2.9,4668],[2.9,4752],[3.2,4835],[3.2,4919],[3.2,5002],[3.2,5085],[2.5,5169],[1.9,5252],[1.6,5335],[1.6,5419],[1.6,5502],[1.6,5586],[1.6,5669],[1.6,5752],[1.6,5836],[1.6,5920],[1.6,6002],[1.6,6086],[1.6,6169],[1.6,6252],[1.6,6336],[1.6,6419],[1.6,6503],[1.6,6586],[1.6,6669],[1.6,6853],[1.6,6936],[1.6,7019],[1.6,7103],[1.6,7186],[1.6,7270],[1.6,7353],[1.6,7436],[1.6,7520],[1.6,7603],[1.6,7687],[1.6,7770],[1.6,7853],[1.6,7937],[1.6,8020],[1.6,8103],[1.6,8187],[1.6,8273],[1.6,8353],[1.6,8437],[1.6,8520],[1.6,8604],[1.6,8692],[1.6,8770],[1.6,8854],[1.6,8938],[1.6,9020],[1.6,9104],[1.6,9187],[1.6,9272],[1.6,9359],[1.6,9437],[1.6,9521],[1.6,9604],[1.6,9687],[1.6,9771],[1.6,9854],[1.6,9938],[1.6,10021],[1.6,10104]]",1,0,238.0339,242.9026,1.571594878,2.2315,"[{""rating"":1.5715948777648425,""responseTime"":2.2315000000000396}]",space,4.3268,,242.9026,Not at all,0,242.9105,,,[],,0,2,2,2,1,audio/Narrative7Situation2.wav,audio/Narrative8Situation2.wav,audio/Narrative5Situation2.wav,audio/Narrative6Situation2.wav,3,3,3,3,,,,,,,,,,,,,,,,,,,,,,,,,,,,,,,,,,,,,,,
,,,,,,661b08a7e0f98b7283c4d649,2024-05-13_09h33.10.941,group3.1-3.2-social-tom,2023.2.2,Win32,59.52380952,65c5074098b851296ff0b7ed,664232786a6b6c02e55b3622,,,,,,,,,,,,,,,,,,,,,,,,,,,,,242.9107,1,audio/Narrative8Situation3.wav,246.9211,,246.9212,269.3143,"[[999,5],[999,82],[999,166],[999,249],[999,332],[999,416],[999,504],[999,586],[999,666],[999,750],[999,833],[999,916],[999,1000],[999,1083],[999,1166],[999,1250],[999,1333],[999,1417],[999,1504],[25.3,1588],[25.9,1667],[26.1,1750],[26.1,1833],[26.1,1917],[26.1,2000],[26.1,2088],[26.1,2171],[26.1,2250],[21.4,2333],[1.1,2417],[1,2503],[1,2584],[1,2667],[1,2750],[1,2834],[1,2917],[1,3004],[1,3184],[1,3267],[1,3351],[1.6,3434],[3,3517],[3.7,3601],[4,3684],[4,3767],[4.1,3851],[4.6,3934],[4.9,4018],[5.4,4101],[6.6,4184],[10.8,4268],[13.8,4351],[25.3,4435],[31.7,4518],[40.2,4601],[44.2,4684],[47.2,4768],[49.5,4851],[51.3,4935],[54.3,5018],[62.1,5101],[69.2,5185],[73.1,5268],[76.9,5351],[81.8,5435],[91.6,5935],[91.8,6019],[92.6,6102],[92.7,6185],[93.1,6269],[93.2,6352],[93.4,6435],[94.1,6519],[94.7,6602],[94.7,6686],[94.7,6769],[94.7,6852],[94.7,6936],[94.7,7019],[94.9,7103],[95.9,7186],[96.7,7269],[96.8,7353],[96.8,7435],[96.8,7519],[96.8,7603],[97,7686],[97.4,7769],[97.5,7853],[97.5,7936],[97.5,8019],[97.5,8103],[97.5,8186],[97.5,8270],[97.5,8353],[97.5,8437],[97.5,8520],[97.5,8603],[97.5,8687],[97.5,8770],[97.5,8853],[97.5,8936],[97.5,9020],[97.5,9103],[97.5,9186],[97.5,9270],[97.5,9353],[97.5,9437],[97.5,9520],[97.5,9603],[97.5,9687],[97.5,9770],[97.5,9854],[97.5,9937],[97.5,10020],[97.5,10104],[97.5,10187],[97.5,10271],[97.5,10354],[97.5,10437],[97.5,10521],[97.5,10604],[97.5,10687],[97.5,10771],[97.5,10854],[97.5,10938],[97.5,11021],[97.5,11104],[97.5,11188],[97.5,11271],[97.5,11355],[97.5,11438],[97.5,11521],[97.5,11605],[97.5,11688],[97.5,11771],[97.5,11854],[97.5,11938],[97.5,12021],[97.5,12105],[97.5,12188],[97.5,12271],[97.5,12355],[97.5,12438],[97.5,12521],[97.5,12605],[97.5,12688],[97.5,12772],[97.5,12855],[97.5,12938],[97.5,13021],[97.5,13105],[97.5,13188],[97.5,13272],[97.5,13355],[97.5,13439],[97.5,13522],[97.5,13605],[97.5,13689],[97.5,13772],[97.5,13856],[97.5,13938],[97.5,14022],[97.5,14105],[97.5,14189],[97.5,14272],[97.5,14356],[97.5,14439],[97.5,14522],[97.5,14606],[97.5,14689],[97.5,14773],[97.5,14856],[97.5,14939],[97.5,15022],[97.5,15106],[97.5,15189],[97.5,15273],[97.5,15358],[97.5,15439],[97.5,15525],[97.5,15606],[97.5,15690],[97.5,15777],[97.5,15856],[97.5,15940],[97.5,16023],[97.5,16106],[97.5,16190],[97.5,16273],[97.5,16357],[97.5,16440],[97.5,16523],[97.5,16607],[97.5,16690],[97.5,16773],[97.5,16857],[97.5,16940],[97.5,17023],[97.5,17107],[97.5,17190],[97.5,17274],[97.5,17357],[97.5,17440],[97.5,17524],[97.5,17607],[97.5,17691],[97.5,17774],[97.5,17857],[97.5,17941],[97.5,18024],[97.5,18107],[97.5,18191],[97.5,18274],[97.5,18357],[97.5,18441],[97.5,18524],[97.5,18608],[97.5,18691],[97.5,18775],[97.5,18858],[97.5,18941],[97.5,19024],[97.5,19108],[97.5,19191],[97.5,19274],[97.5,19358],[97.5,19441],[97.5,19525],[97.5,19608],[97.5,19692],[97.5,19775],[97.5,19858],[97.5,19942],[97.5,20025],[97.5,20108],[97.5,20192],[97.5,20278],[97.5,20358],[97.5,20442],[97.5,20525],[97.5,20608],[97.5,20692],[97.5,20775],[97.5,20859],[97.5,20942],[97.5,21025],[97.5,21109],[97.5,21192],[97.5,21275],[97.5,21359],[97.5,21442],[97.5,21526],[97.5,21609],[97.5,21692],[97.5,21776],[97.5,21859],[97.5,21942],[97.5,22026],[97.5,22109],[97.5,22193],[97.5,22276],[97.5,22359]]",1,0,269.3144,272.0326,97.49708964,1.0362,"[{""rating"":97.49708963911526,""responseTime"":1.0361999999880709}]",space,2.197,,272.0327,Partially,50,272.0353,,,[],,0,3,3,3,1,audio/Narrative7Situation3.wav,audio/Narrative8Situation3.wav,audio/Narrative5Situation3.wav,audio/Narrative6Situation3.wav,8,4,3,5,,,,,,,,,,,,,,,,,,,,,,,,,,,,,,,,,,,,,,,
,,,,,,661b08a7e0f98b7283c4d649,2024-05-13_09h33.10.941,group3.1-3.2-social-tom,2023.2.2,Win32,59.52380952,65c5074098b851296ff0b7ed,664232786a6b6c02e55b3622,,,,,,,,,,,,,,,,,,,,,,,,,,,,,272.0356,1,audio/Narrative8Situation4.wav,275.05,,275.0501,289.2237,"[[999,0],[999,83],[999,166],[999,250],[999,333],[999,416],[999,500],[999,583],[999,667],[999,750],[999,833],[999,917],[999,1000],[999,1083],[999,1167],[999,1250],[999,1334],[999,1417],[999,1500],[999,1584],[999,1667],[999,1750],[999,1834],[999,1917],[999,2001],[999,2084],[999,2167],[999,2251],[999,2334],[52.7,2417],[50.9,2501],[50.7,2584],[49.9,2667],[49,2751],[48.1,2834],[48,2918],[48,3001],[51.2,3084],[61.9,3168],[66.1,3251],[71.7,3335],[78.8,3418],[82.4,3501],[85.3,3585],[86.6,3668],[88.2,3752],[89.1,3835],[90.2,3918],[91.4,4001],[91.6,4085],[91.7,4168],[92,4252],[93,4335],[93.2,4418],[93.2,4501],[93.3,4585],[93.3,4669],[93.3,4752],[93.3,4835],[93.3,4919],[93.3,5002],[93.3,5085],[93.5,5169],[93.7,5252],[93.8,5336],[93.9,5419],[94,5502],[94.1,5586],[94.2,5669],[94.2,5752],[94.4,5836],[94.4,5919],[94.5,6002],[94.5,6086],[94.5,6169],[94.5,6253],[94.5,6336],[94.5,6419],[94.5,6503],[94.5,6586],[94.8,6670],[95.5,6753],[95.6,6836],[97.3,6920],[97.8,7003],[98.7,7086],[99.5,7170],[100,7253],[100,7336],[100,7420],[100,7503],[100,7586],[100,7671],[100,7753],[100,7837],[100,7920],[100,8003],[100,8087],[100,8170],[100,8253],[100,8337],[100,8420],[100,8504],[100,8587],[100,8670],[100,8754],[100,8837],[100,8920],[100,9004],[100,9087],[100,9170],[100,9254],[100,9338],[100,9421],[100,9504],[100,9587],[100,9671],[100,9754],[100,9838],[100,9921],[100,10004],[100,10088],[100,10171],[100,10254],[100,10338],[100,10421],[100,10504],[100,10588],[100,10671],[100,10754],[100,10838],[100,10921],[100,11005],[100,11088],[100,11172],[100,11255],[100,11339],[100,11422],[100,11505],[100,11590],[100,11672],[100,11755],[100,11838],[100,11922],[100,12005],[100,12088],[100,12172],[100,12255],[100,12339],[100,12422],[100,12506],[100,12589],[100,12672],[100,12756],[100,12839],[100,12922],[100,13006],[100,13089],[100,13172],[100,13256],[100,13339],[100,13423],[100,13506],[100,13589],[100,13673],[100,13756],[100,13839],[100,13923],[100,14006],[100,14090],[100,14173]]",1,0,289.2237,294.1091,99.47613504,4.2006,"[{""rating"":99.47613504074505,""responseTime"":4.200599999964254}]",space,4.3577,,294.1092,Definitely yes,100,294.1121,,,[],,0,4,4,4,1,audio/Narrative7Situation4.wav,audio/Narrative8Situation4.wav,audio/Narrative5Situation4.wav,audio/Narrative6Situation4.wav,3,3,1,2,,,,,,,,,,,,,,,,,,,,,,,,,,,,,,,,,,,,,,,
,,,,,,661b08a7e0f98b7283c4d649,2024-05-13_09h33.10.941,group3.1-3.2-social-tom,2023.2.2,Win32,59.52380952,65c5074098b851296ff0b7ed,664232786a6b6c02e55b3622,,,,,,,,,,,,,,,,,,,,,,,,,,,,,294.1123,1,audio/Narrative8Situation5.wav,296.1267,,296.1268,304.3637,"[[54.9,916],[54.4,1417],[54,1500],[53.8,1583],[53.4,1672],[53,1750],[52.3,1834],[52.2,1917],[66.9,2005],[75.6,2083],[81.7,2171],[83.5,2250],[84.2,2334],[84.2,2417],[85,2500],[86.8,2584],[88.2,2667],[90.3,2755],[91.4,2834],[92.8,2923],[93.8,3000],[93.9,3084],[94.4,3167],[94.5,3251],[94.5,3339],[94.5,3418],[94.5,3501],[94.5,3584],[94.5,3668],[94.5,3756],[94.5,3834],[94.5,3918],[94.5,4001],[94.5,4088],[94.5,4173],[94.5,4256],[94.5,4334],[94.5,4418],[94.5,4501],[94.5,4585],[94.5,4668],[94.5,4752],[94.5,4839],[94.5,4918],[94.5,5006],[94.5,5085],[94.5,5168],[94.5,5252],[94.5,5335],[94.5,5423],[94.7,5502],[96.2,5586],[97.6,5669],[99.1,5752],[99.5,5835],[99.9,5918],[100,6007],[100,6085],[100,6169],[100,6258],[100,6340],[100,6423],[100,6502],[100,6589],[100,6669],[100,6752],[100,6836],[100,6919],[100,7002],[100,7090],[100,7174],[100,7252],[100,7336],[100,7422],[100,7503],[100,7586],[100,7670],[100,7753],[100,7836],[100,7920],[100,8003],[100,8086],[100,8169]]",1,0,304.3639,307.3653,99.82537835,2.2055,"[{""rating"":99.82537834691502,""responseTime"":2.2054999999999723}]",space,2.4663,,307.3653,Definitely yes,100,307.3668,,,[],,0,5,5,5,1,audio/Narrative7Situation5.wav,audio/Narrative8Situation5.wav,audio/Narrative5Situation5.wav,audio/Narrative6Situation5.wav,5,2,5,2,,,,,,,,,,,,,,,,,,,,,,,,,,,,,,,,,,,,,,,
,,,,,,661b08a7e0f98b7283c4d649,2024-05-13_09h33.10.941,group3.1-3.2-social-tom,2023.2.2,Win32,59.52380952,65c5074098b851296ff0b7ed,664232786a6b6c02e55b3622,,,,,,,,,,,,,,,,,,,,,,,,,,,,,307.367,1,audio/Narrative8Situation6.wav,309.3869,,309.3869,315.8688,"[[98.9,829],[96.4,912],[90.9,995],[81.4,1083],[75.7,1163],[70.6,1251],[60.2,1329],[58.8,1412],[58.1,1496],[57.6,1584],[57.6,1662],[57.6,1746],[68,1834],[83.3,1913],[92.4,2001],[96.2,2084],[99.7,2163],[100,2246],[100,2330],[100,2417],[100,2496],[100,2579],[100,2667],[100,2746],[100,2835],[100,2913],[100,2997],[100,3080],[100,3163],[100,3253],[100,3330],[100,3413],[100,3497],[100,3580],[100,3664],[100,3747],[100,3831],[100,3918],[100,3997],[100,4081],[100,4164],[100,4247],[100,4331],[100,4413],[100,4502],[100,4580],[100,4664],[100,4752],[100,4831],[100,4914],[100,4998],[100,5081],[100,5164],[100,5248],[100,5331],[100,5414],[100,5498],[100,5581],[100,5665],[100,5748],[100,5831],[100,5914],[100,5998],[100,6081],[100,6165],[100,6248],[100,6332],[100,6415]]",1,0,315.869,318.6701,99.24330617,2.026,"[{""rating"":99.24330616996507,""responseTime"":2.0259999999999536}]",space,2.2531,,318.6702,Not at all,0,318.6725,,,[],,0,6,6,6,1,audio/Narrative7Situation6.wav,audio/Narrative8Situation6.wav,audio/Narrative5Situation6.wav,audio/Narrative6Situation6.wav,3,2,3,2,,,,,,,,,,,,,,,,,,,,,,,,,,,,,,,,,,,,,,,
,,,,,,661b08a7e0f98b7283c4d649,2024-05-13_09h33.10.941,group3.1-3.2-social-tom,2023.2.2,Win32,59.52380952,65c5074098b851296ff0b7ed,664232786a6b6c02e55b3622,,,,,,,,,,,,,,,,,,,,,,,,,,,,,318.6727,1,audio/Narrative8Situation7.wav,321.6881,,321.6881,333.7657,"[[999,6],[999,83],[999,170],[999,250],[999,333],[999,421],[999,504],[999,586],[87.5,666],[87.5,750],[87.5,833],[87.5,922],[87.5,1000],[89.6,1088],[92.6,1167],[94.7,1250],[95.8,1333],[96.1,1417],[96.2,1500],[96.2,1584],[87.1,1672],[76.4,1756],[61.6,1838],[54.9,1917],[49.5,2005],[48.7,2084],[48.6,2172],[48.6,2250],[48.6,2334],[48.6,2417],[48.6,2501],[48.6,2584],[48.6,2668],[48.6,2751],[48.6,2834],[48.6,2917],[48.6,3001],[48.6,3084],[51.6,3168],[54.8,3251],[56.6,3337],[58.6,3418],[61.6,3501],[66.8,3584],[71.3,3668],[76.8,3754],[76.9,3839],[76.9,3918],[76.9,4002],[76.9,4085],[76.9,4168],[76.9,4256],[76.9,4335],[76.9,4418],[76.9,4501],[76.9,4589],[76.9,4673],[76.9,4756],[76.9,4835],[76.9,4918],[76.9,5002],[76.9,5090],[76.9,5168],[76.9,5252],[76.9,5335],[76.9,5419],[76.9,5502],[76.9,5585],[76.9,5669],[76.9,5752],[76.9,5836],[76.9,5919],[76.9,6002],[76.9,6085],[76.9,6169],[76.9,6252],[76.9,6336],[76.9,6419],[76.9,6502],[76.9,6586],[76.9,6669],[76.9,6758],[76.7,6841],[76.4,6919],[76.2,7003],[76.1,7086],[75.6,7169],[74.9,7253],[73.7,7340],[70.5,7420],[65.4,7507],[61.5,7586],[59.2,7670],[57.6,7753],[56.5,7836],[55.6,7924],[54.5,8003],[53.7,8086],[52.3,8176],[51.6,8258],[51.2,8341],[50.5,8424],[50.5,8504],[50.5,8587],[50.5,8670],[50.5,8753],[50.5,8837],[50.5,8921],[50.5,9004],[50.1,9092],[49.7,9170],[49.5,9254],[49.4,9342],[43.4,9420],[35.3,9510],[34.4,9592],[32.5,9670],[31.5,9754],[31,9837],[31,9925],[31,10004],[31,10087],[31,10171],[31,10254],[31,10337],[31,10421],[31,10510],[31.1,10588],[31.4,10671],[31.6,10754],[32.1,10843],[32.4,10926],[32.9,11004],[33.4,11088],[33.6,11171],[33.9,11255],[34.2,11342],[34.5,11421],[35.6,11510],[36.5,11588],[37.3,11671],[37.9,11755],[38.4,11838],[38.9,11922],[39.3,12005]]",1,0,333.7658,337.1455,49.06868452,2.6504,"[{""rating"":49.0686845168801,""responseTime"":2.650399999976173}]",space,2.8525,,337.1456,Not at all,0,337.1474,,,[],,0,7,7,7,1,audio/Narrative7Situation7.wav,audio/Narrative8Situation7.wav,audio/Narrative5Situation7.wav,audio/Narrative6Situation7.wav,5,3,4,5,,,,,,,,,,,,,,,,,,,,,,,,,,,,,,,,,,,,,,,
,,,,,,661b08a7e0f98b7283c4d649,2024-05-13_09h33.10.941,group3.1-3.2-social-tom,2023.2.2,Win32,59.52380952,65c5074098b851296ff0b7ed,664232786a6b6c02e55b3622,,,,,,,,,,,,,,,,,,,,,,,,,,,,,337.1479,1,audio/Narrative8Situation8.wav,340.1637,,340.1637,353.0192,"[[54.1,583],[53.4,666],[52.6,749],[52.2,833],[52.2,916],[52.3,1003],[54.4,1088],[55.1,1166],[55.7,1250],[55.8,1333],[55.8,1416],[55.8,1500],[55.8,1583],[55.6,1667],[55,1750],[53.6,1838],[52.4,1917],[52.2,2000],[52.2,2083],[52.2,2167],[52.2,2254],[52.2,2333],[52.1,2417],[45,2504],[35.3,2588],[28.5,2671],[18.5,2754],[17.1,2833],[12.3,2917],[10.9,3005],[9.5,3084],[4.8,3167],[4.2,3250],[3.6,3335],[2.9,3422],[2.7,3507],[2.7,3584],[2.7,3667],[2.7,3751],[2.7,3834],[2.7,3922],[2.7,4001],[2.7,4084],[2.7,4168],[2.7,4251],[2.7,4334],[2.7,4418],[2.7,4501],[2.7,4584],[2.7,4668],[2.3,4751],[2.3,4835],[2,4918],[2,5001],[2,5085],[2,5173],[2,5251],[2,5335],[2,5418],[2,5501],[2,5585],[2,5668],[2,5756],[2,5839],[2,5918],[2,6006],[2,6085],[2,6168],[2,6256],[2,6338],[3.8,6418],[9,6507],[16.9,6590],[23,6674],[27.5,6752],[35.4,6835],[37.9,6919],[39.8,7002],[40.8,7092],[43.2,7169],[49,7257],[51.2,7340],[52,7419],[52,7502],[52,7586],[52,7674],[52,7757],[52.2,7841],[52.6,7919],[53,8003],[53.4,8091],[54.1,8169],[55.5,8257],[57.6,8340],[60.6,8422],[60.9,8503],[62,8591],[65.5,8674],[73.9,8753],[82.5,8845],[91.1,8924],[91.3,9003],[91.6,9087],[91.9,9170],[92,9253],[92.1,9336],[92.5,9420],[92.6,9504],[92.7,9587],[93.1,9671],[93.5,9758],[93.5,9837],[93.8,9920],[93.9,10004],[93.9,10090],[93.9,10171],[93.9,10253],[93.9,10337],[93.9,10420],[93.9,10507],[94,10587],[94,10671],[94,10759],[94,10837],[94,10920],[94,11009],[94.2,11087],[94.2,11171],[94.2,11254],[94.2,11338],[94.2,11421],[94.2,11504],[94.2,11592],[94.2,11671],[94.2,11754],[94.2,11838],[94.2,11921],[94.2,12004],[94.2,12088],[94.2,12172],[94.2,12260],[94.2,12338],[94.2,12421],[94.2,12505],[94.2,12592],[94.2,12676],[94.2,12755],[94.2,12838]]",1,0,353.0194,357.8544,85.15715949,1.221,"[{""rating"":85.1571594877765,""responseTime"":1.2210000000000036}]",space,4.3061,,357.8544,Partially,50,357.8628,,,[],,0,8,8,8,1,audio/Narrative7Situation8.wav,audio/Narrative8Situation8.wav,audio/Narrative5Situation8.wav,audio/Narrative6Situation8.wav,2,3,3,5,,,,,,,,,,,,,,,,,,,,,,,,,,,,,,,,,,,,,,,
,,,,,,661b08a7e0f98b7283c4d649,2024-05-13_09h33.10.941,group3.1-3.2-social-tom,2023.2.2,Win32,59.52380952,65c5074098b851296ff0b7ed,664232786a6b6c02e55b3622,,,,,,,,,,,,,,,,,,,,,,,,,,,,,357.863,1,audio/Narrative8Situation9.wav,360.873,,360.8731,372.1943,"[[999,0],[999,83],[999,166],[999,249],[999,333],[999,416],[999,499],[999,583],[999,666],[999,749],[999,833],[999,916],[999,1000],[999,1083],[999,1166],[999,1249],[999,1333],[999,1416],[999,1500],[999,1583],[999,1666],[999,1750],[999,1834],[999,1917],[999,2000],[999,2084],[999,2167],[999,2250],[999,2333],[999,2417],[999,2500],[999,2584],[999,2667],[999,2750],[50.3,2834],[49.8,2917],[49.8,3000],[49.8,3084],[49.8,3167],[49.8,3250],[50.3,3334],[50.8,3417],[53.1,3501],[55.4,3584],[59.4,3667],[66.8,3751],[76.1,3834],[82.8,3917],[86.3,4001],[87.5,4084],[88.1,4168],[90.6,4251],[93.9,4334],[97.1,4418],[98.1,4501],[98.8,4584],[100,4668],[100,4751],[100,4835],[100,4918],[100,5001],[100,5085],[100,5168],[100,5252],[100,5335],[100,5418],[100,5502],[100,5585],[100,5668],[100,5752],[100,5835],[100,5918],[100,6002],[100,6085],[100,6169],[100,6252],[100,6335],[100,6419],[100,6502],[100,6585],[100,6668],[100,6752],[100,6836],[100,6919],[100,7002],[100,7086],[100,7169],[100,7252],[100,7336],[100,7419],[100,7502],[100,7586],[100,7669],[100,7753],[100,7836],[100,7919],[100,8003],[100,8086],[100,8169],[100,8253],[100,8336],[100,8420],[100,8503],[100,8586],[100,8670],[100,8753],[100,8837],[100,8920],[100,9004],[100,9087],[100,9170],[100,9253],[100,9337],[100,9420],[100,9503],[100,9587],[100,9670],[100,9754],[100,9837],[100,9920],[100,10004],[100,10087],[100,10170],[100,10254],[100,10337],[100,10420],[100,10504],[100,10587],[100,10670],[100,10754],[100,10837],[100,10921],[100,11004],[100,11088],[100,11171],[100,11254]]",1,0,372.1944,375.2123,99.24330617,2.2267,"[{""rating"":99.24330616996507,""responseTime"":2.2266999999881136}]",space,2.4848,,375.2124,Partially,50,375.2146,,,[],,0,9,9,9,1,audio/Narrative7Situation9.wav,audio/Narrative8Situation9.wav,audio/Narrative5Situation9.wav,audio/Narrative6Situation9.wav,2,3,3,4,,,,,,,,,,,,,,,,,,,,,,,,,,,,,,,,,,,,,,,
,,,,,,661b08a7e0f98b7283c4d649,2024-05-13_09h33.10.941,group3.1-3.2-social-tom,2023.2.2,Win32,59.52380952,65c5074098b851296ff0b7ed,664232786a6b6c02e55b3622,,,,,,,,,,,,,,,,,,,,,,,,,,,,,375.2148,1,audio/Narrative7Situation1.wav,377.2297,,377.2297,433.1059,"[[99.1,3418],[82.2,5507],[81.9,5590],[64.4,5674],[50.3,5752],[40.7,5841],[39.5,5919],[32.2,6003],[17.2,6086],[11.9,6172],[11.1,6257],[11.1,6340],[11.1,6419],[11.4,6503],[11.9,6591],[12.6,6669],[12.6,6758],[12.7,6842],[12.9,6920],[13.2,7003],[13.9,7090],[15.5,7170],[17.5,7257],[19.5,7336],[24.2,7424],[28.3,7503],[30.9,7593],[33.2,7674],[35.3,7759],[39.8,7837],[45.7,7920],[54.1,8006],[65,8087],[79.2,8170],[87.1,8258],[89.9,8337],[90.4,8425],[91.1,8504],[91.7,8587],[94.2,8675],[94.2,8758],[94.2,8837],[94.2,8920],[94.2,9004],[94.2,9087],[94.2,9171],[94.2,9259],[96.6,9338],[98.9,9420],[100,9507],[100,9591],[100,9675],[100,9754],[100,9842],[100,9925],[100,10008],[100,16891],[100,16974],[100,17058],[100,17141],[100,17224],[100,17308],[100,17391],[100,17474],[100,17557],[100,17641],[100,17724],[100,17808],[100,17891],[100,17975],[100,18058],[100,18141],[100,18225],[100,18308],[100,18391],[100,18475],[100,18558],[100,18642],[100,18725],[100,18808],[100,18892],[100,18975],[100,19059],[100,19142],[100,19225],[100,19309],[100,19392],[100,19475],[100,19559],[100,19642],[100,19725],[100,19809],[100,19892],[100,19976],[100,20059],[100,20142],[100,20226],[100,20309],[100,20392],[100,20476],[100,20559],[100,20642],[100,20726],[100,20809],[100,20893],[100,20976],[100,21060],[100,21143],[100,21226],[100,21310],[100,21393],[100,21476],[100,21559],[100,21643],[100,21726],[100,21810],[100,21893],[100,21976],[100,22060],[100,22143],[100,22227],[100,22310],[100,22393],[100,22477],[100,22560],[100,22643],[100,22727],[100,22810],[100,22894],[100,22977],[100,23060],[100,23144],[100,23227],[100,23310],[100,23394],[100,23477],[100,23561],[100,23644],[100,23727],[100,23811],[100,23894],[100,23977],[100,24061],[100,24144],[100,24227],[100,24311],[100,24394],[100,24478],[100,24561],[100,24644],[100,24728],[100,24811],[100,24894],[100,24978],[100,25061],[100,25144],[100,25228],[100,25311],[100,25395],[100,25478],[100,25561],[100,25645],[100,25728],[100,25812],[100,25895],[100,25978],[100,26062],[100,26145],[100,26228],[100,26312],[100,26395],[100,26478],[100,26562],[100,26645],[100,26729],[100,26812],[100,26895],[100,26979],[100,27062],[100,27146],[100,27229],[100,27312],[100,27396],[100,27479],[100,27562],[100,27646],[100,27729],[100,27812],[100,27896],[100,27979],[100,28063],[100,28146],[100,28229],[100,28312],[100,28396],[100,28480],[100,28562],[100,28646],[100,28729],[100,28813],[100,28896],[100,28982],[100,29063],[100,29146],[100,29230],[100,29313],[100,29397],[100,29480],[100,29563],[100,29647],[100,29730],[100,29813],[100,29896],[100,29980],[98.7,30064],[96.3,30147],[93.9,30230],[93.1,30313],[92.6,30397],[92.4,30480],[91.8,30564],[91.4,30647],[91.2,30730],[91.1,30814],[91.1,30897],[91.1,30980],[91.1,31064],[91.1,31147],[89.7,31231],[88,31314],[86.9,31398],[86.6,31481],[86.4,31564],[86.4,31648],[84.3,31731],[83.3,31814],[81.7,31898],[79.6,31981],[76,32065],[74.2,32148],[74.1,32231],[74.1,32315],[74.1,32398],[81.4,32481],[82.4,32565],[82.5,32648],[82.5,32731],[82.5,32815],[82.7,32898],[85.9,32982],[86.6,33065],[88.5,33148],[89,33232],[89,33315],[85.7,33399],[84,33482],[83.4,33565],[81.2,33648],[79.1,33732],[78.6,33815],[78.6,33899],[86.8,33982],[92.6,34066],[99.7,34149],[100,34232],[100,34315],[100,34399],[100,34482],[100,34565],[100,34649],[100,34732],[100,34816],[100,34899],[100,34982],[100,35066],[100,35149],[100,35233],[100,35316],[100,35399],[100,35483],[100,35566],[100,35650],[100,35733],[100,35816],[100,35899],[100,35983],[100,36066],[100,36149],[100,36233],[100,36316],[100,36400],[100,36483],[100,36566],[100,36650],[100,36733],[100,36816],[100,36900],[100,36983],[100,37067],[100,37150],[100,37233],[100,37317],[100,37400],[100,37484],[100,37679],[100,37754],[100,37834],[100,37917],[100,38000],[100,38084],[100,38167],[100,38251],[100,38334],[100,38417],[100,38501],[100,38584],[100,38668],[100,38751],[100,38834],[100,38918],[100,39004],[100,39084],[100,39167],[100,39251],[100,39334],[100,39418],[100,39501],[100,39584],[100,39668],[100,39753],[100,39834],[100,39923],[100,40001],[100,40090],[100,40168],[100,40255],[100,40341],[100,40418],[100,40501],[100,40590],[100,40668],[100,40752],[100,40839],[99.9,40918],[99.6,41002],[99.5,41085],[99.5,41169],[99.5,41256],[99.5,41335],[99.5,41419],[99.5,41502],[99.5,41586],[99.5,41669],[99.5,41757],[99.9,41836],[100,41919],[100,42002],[100,42086],[100,42169],[100,42252],[100,42336],[100,42419],[100,42503],[100,42586],[100,42669],[100,42757],[100,42836],[100,42919],[100,43002],[100,43086],[100,43170],[100,43258],[100,43336],[100,43423],[100,43503],[100,43586],[100,43669],[100,43753],[100,43837],[100,43920],[100,44003],[100,44086],[100,44170],[100,44254],[100,44337],[100,44420],[100,44508],[100,44587],[100,44670],[100,44754],[100,44837],[100,44925],[100,45003],[100,45087],[100,45170],[100,45254],[100,45342],[100,45420],[100,45504],[100,45587],[100,45671],[100,45754],[100,45838],[100,45921],[100,46008],[100,46087],[100,46171],[100,46254],[100,46337],[100,46421],[100,46505],[100,46588],[100,46671],[100,46754],[100,46838],[100,46921],[100,47004],[100,47088],[100,47171],[100,47254],[100,47338],[100,47421],[100,47505],[100,47588],[100,47671],[100,47755],[100,47838],[100,47922],[100,48005],[100,48088],[100,48172],[100,48255],[100,48339],[100,48422],[100,48505],[100,48589],[100,48672],[100,48755],[100,48839],[100,48922],[100,49005],[100,49089],[100,49172],[100,49256],[100,49339],[100,49423],[100,49505],[100,49589],[100,49672],[100,49756],[100,49839],[100,49923],[100,50006],[100,50090],[100,50173],[100,50256],[100,50339],[100,50423],[100,50506],[100,50590],[100,50673],[100,50756],[100,50840],[100,50923],[100,51006],[100,51090],[100,51173],[100,51256],[100,51340],[100,51423],[100,51506],[100,51594],[100,51674],[100,51757],[100,51840],[100,51923],[100,52007],[100,52090],[100,52173],[100,52257],[100,52340],[100,52427],[100,52507],[100,52591],[100,52674],[100,52841],[100,52924],[100,53007],[100,53095],[100,53174],[100,53257],[100,53340],[100,53424],[100,53508],[100,53591],[100,53675],[100,53758],[100,53841],[100,53925],[100,54008],[100,54091],[100,54177],[100,54258],[100,54342],[100,54425],[100,54508],[100,54591],[100,54675],[100,54758],[100,54841],[100,54925],[100,55008],[100,55091],[100,55175],[100,55259],[100,55342],[100,55425],[100,55509],[100,55592],[100,55675],[100,55759],[100,55843]]",1,0,433.1063,435.8569,97.49708964,1.8594,"[{""rating"":97.49708963911526,""responseTime"":1.8593999999761763}]",space,2.2082,,435.8569,Definitely yes,100,435.8602,,,[],,0,10,10,10,1,audio/Narrative8Situation1.wav,audio/Narrative7Situation1.wav,audio/Narrative6Situation1.wav,audio/Narrative5Situation1.wav,5,2,2,5,,,,,,,,,,,,,,,,,,,,,,,,,,,,,,,,,,,,,,,
,,,,,,661b08a7e0f98b7283c4d649,2024-05-13_09h33.10.941,group3.1-3.2-social-tom,2023.2.2,Win32,59.52380952,65c5074098b851296ff0b7ed,664232786a6b6c02e55b3622,,,,,,,,,,,,,,,,,,,,,,,,,,,,,435.8604,1,audio/Narrative7Situation2.wav,438.8745,,438.8745,446.3447,"[[95.5,2751],[95.2,2834],[95.2,2918],[95.2,3001],[95.2,3084],[95.2,3168],[92.6,3251],[89.6,3335],[87.3,3418],[83.6,3501],[81.4,3585],[80.5,3668],[73.9,3751],[71.4,3835],[67.9,3918],[67.8,4002],[72.5,4085],[77.9,4168],[78.1,4252],[78.1,4335],[78.1,4419],[78.1,4502],[81.3,4585],[83.2,4669],[83.2,4752],[83.2,4835],[83.2,4919],[83.2,5002],[83.2,5085],[83.2,5169],[83.2,5252],[83.2,5335],[83.2,5419],[83.2,5502],[83.3,5586],[83.4,5669],[83.4,5752],[83.4,5836],[83.4,5919],[83.4,6003],[83.4,6086],[83.4,6169],[83.4,6253],[83.4,6336],[83.4,6419],[83.4,6503],[83.4,6586],[83.4,6670],[83.4,6753],[83.4,6836],[83.4,6919],[83.4,7003],[83.4,7086],[83.4,7170],[83.4,7253],[83.4,7337],[83.4,7420]]",1,0,446.3448,449.9632,99.70896391,1.7235,"[{""rating"":99.70896391152503,""responseTime"":1.7235000000000014}]",space,3.0853,,449.9632,Not at all,0,449.9655,,,[],,0,11,11,11,1,audio/Narrative8Situation2.wav,audio/Narrative7Situation2.wav,audio/Narrative6Situation2.wav,audio/Narrative5Situation2.wav,3,3,3,3,,,,,,,,,,,,,,,,,,,,,,,,,,,,,,,,,,,,,,,
,,,,,,661b08a7e0f98b7283c4d649,2024-05-13_09h33.10.941,group3.1-3.2-social-tom,2023.2.2,Win32,59.52380952,65c5074098b851296ff0b7ed,664232786a6b6c02e55b3622,,,,,,,,,,,,,,,,,,,,,,,,,,,,,449.9656,1,audio/Narrative7Situation3.wav,457.9669,,457.9669,467.2052,"[[999,4],[999,83],[999,166],[999,249],[999,332],[999,416],[999,500],[999,583],[999,667],[75.5,750],[76,833],[76.2,917],[76.2,1000],[76.2,1083],[75.8,1166],[75.7,1250],[75.6,1333],[75.6,1417],[76,1500],[76.3,1583],[76.8,1667],[77.1,1750],[77.4,1834],[77.5,1917],[77.7,2000],[78.1,2084],[79.6,2167],[80,2250],[81.3,2333],[82.5,2417],[82.9,2501],[83.1,2584],[83.1,2667],[63.2,2751],[48,2834],[38.7,2917],[36.4,3001],[35.1,3084],[34.5,3168],[33.7,3251],[33.4,3334],[33,3418],[32.7,3501],[32.3,3585],[31.5,3668],[30.9,3751],[30.9,3834],[30.9,3918],[30.9,4001],[30.9,4085],[30.9,4168],[30.9,4251],[30.9,4334],[30.3,4418],[29.5,4501],[28.7,4585],[27.9,4668],[27.2,4752],[27.1,4835],[26.7,4918],[26.6,5001],[26.6,5085],[26.6,5168],[26.6,5252],[26.6,5335],[27.1,5419],[28.1,5502],[30.6,5585],[33.7,5668],[37,5752],[41,5835],[43.5,5919],[43.5,6002],[43.5,6086],[49.8,6169],[56.8,6252],[58.4,6336],[58.4,6419],[57.1,6502],[48.7,6586],[44.3,6669],[41.4,6753],[39.6,6836],[38.2,6919],[36.8,7003],[35.8,7086],[35.7,7169],[35.4,7253],[35.3,7336],[35.3,7419],[33.8,7503],[31.7,7586],[29,7669],[28.5,7753],[28.1,7837],[27.8,7920],[27.8,8003],[27.6,8086],[27.5,8170],[27.3,8253],[27.2,8337],[26.8,8420],[26.8,8503],[26.8,8587],[26.8,8670],[26.8,8754],[26.8,8837],[26.8,8920],[26.8,9004],[26.8,9087],[26.8,9170]]",1,0,467.2053,470.539,19.7322468,1.7107,"[{""rating"":19.732246798603025,""responseTime"":1.7106999999880372}]",space,2.79,,470.539,Partially,50,470.5412,,,[],,0,12,12,12,1,audio/Narrative8Situation3.wav,audio/Narrative7Situation3.wav,audio/Narrative6Situation3.wav,audio/Narrative5Situation3.wav,4,8,5,3,,,,,,,,,,,,,,,,,,,,,,,,,,,,,,,,,,,,,,,
,,,,,,661b08a7e0f98b7283c4d649,2024-05-13_09h33.10.941,group3.1-3.2-social-tom,2023.2.2,Win32,59.52380952,65c5074098b851296ff0b7ed,664232786a6b6c02e55b3622,,,,,,,,,,,,,,,,,,,,,,,,,,,,,470.5413,1,audio/Narrative7Situation4.wav,473.5569,,473.5569,485.2682,"[[999,6],[999,83],[999,166],[999,250],[999,333],[999,417],[999,500],[999,583],[999,667],[999,752],[999,834],[999,917],[999,1000],[999,1084],[999,1167],[999,1250],[38,1334],[38,1417],[38.2,1617],[39.1,1701],[40.2,1784],[40.2,1867],[41.2,1951],[41.2,2034],[41.2,2117],[37.1,2201],[33.8,2284],[30.4,2372],[26.3,2455],[24.9,2539],[24.7,2623],[24.7,2701],[24.7,2784],[24.7,2868],[24.7,2951],[24.7,3034],[24.7,3118],[24.7,3201],[24.7,3284],[24.7,3368],[24.7,3456],[24.7,3535],[24.7,3618],[24.7,3701],[24.7,3789],[24.7,3868],[24.7,3952],[24.7,4035],[24.7,4119],[24.7,4202],[24.7,4290],[24.7,4369],[24.7,4452],[24.7,4536],[24.7,4618],[24.7,4707],[24.7,4787],[24.7,4869],[24.7,4952],[24.7,5035],[24.7,5119],[23.8,5206],[19.7,5286],[12.3,5374]]",1,0,485.2685,490.2532,1.105937136,3.7872,"[{""rating"":1.1059371362048875,""responseTime"":3.7871999999880472}]",space,4.4353,,490.2532,Not at all,0,490.2559,,,[],,0,13,13,13,1,audio/Narrative8Situation4.wav,audio/Narrative7Situation4.wav,audio/Narrative6Situation4.wav,audio/Narrative5Situation4.wav,3,3,2,1,,,,,,,,,,,,,,,,,,,,,,,,,,,,,,,,,,,,,,,
,,,,,,661b08a7e0f98b7283c4d649,2024-05-13_09h33.10.941,group3.1-3.2-social-tom,2023.2.2,Win32,59.52380952,65c5074098b851296ff0b7ed,664232786a6b6c02e55b3622,,,,,,,,,,,,,,,,,,,,,,,,,,,,,490.2561,1,audio/Narrative7Situation5.wav,495.2671,,495.2671,503.771,"[[12.2,500],[12.3,583],[12.3,666],[12.3,754],[12.3,833],[12.3,916],[10.2,1005],[8.1,1088],[7.6,1167],[7.4,1250],[7.4,1333],[7.4,1417],[7.4,1500],[7.4,1584],[7.4,1666],[7.4,1750],[7.4,1833],[7.4,1917],[7.4,2000],[7.4,2083],[7.4,2168],[7.4,2251],[7.4,2334],[7.4,2417],[7.4,2500],[7.4,2584],[7.4,2672],[7.4,2751],[7.4,2834],[7.4,2921],[7.4,3001],[7.4,3084],[7.4,3167],[7.4,3251],[7.4,3339],[7.4,3418],[7.4,3501],[7.4,3584],[7.4,3668],[7.4,3755],[7.4,3834],[7.4,3923],[7.4,4001],[7.4,4085],[7.4,4168],[7.4,4253],[7.4,4335],[7.4,4418],[7.4,4501],[7.4,4587],[7.4,4668],[7.4,4756],[7.4,4835],[7.4,4918],[7.4,5005],[7.4,5085],[7.4,5168],[7.4,5252],[7.4,5335],[7.4,5423],[7.4,5502],[7.4,5585],[7.4,5669],[7.4,5752],[7.4,5835],[7.4,5918],[7.4,6002],[7.4,6085],[7.4,6169],[7.4,6257],[7.4,6341],[7.4,6419],[7.4,6502],[7.4,6586],[7.4,6674],[7.4,6752],[7.4,6836],[7.4,6919],[7.4,7002],[7.4,7089],[7.4,7169],[7.4,7253],[7.4,7336],[7.4,7419],[7.4,7502],[7.4,7586],[7.4,7669],[7.4,7753],[7.4,7836],[7.4,7920],[7.4,8003],[7.4,8086],[7.4,8170],[7.4,8253],[7.4,8341],[7.4,8420],[7.4,8503]]",1,0,503.7711,537.5359,0,2.5371,"[{""rating"":0,""responseTime"":2.53710000002377}]",space,33.236,,537.536,Partially,50,544.3728,49.88358556,5.2383,"[{""rating"":49.88358556461001,""responseTime"":5.238299999952346}]",space,0,14,14,14,1,audio/Narrative8Situation5.wav,audio/Narrative7Situation5.wav,audio/Narrative6Situation5.wav,audio/Narrative5Situation5.wav,2,5,2,5,,,6.3116,,,,,,,,,,,,,,,,,,,,,,,,,,,,,,,,,,,,
,,,,,,661b08a7e0f98b7283c4d649,2024-05-13_09h33.10.941,group3.1-3.2-social-tom,2023.2.2,Win32,59.52380952,65c5074098b851296ff0b7ed,664232786a6b6c02e55b3622,,,,,,,,,,,,,,,,,,,,,,,,,,,,,544.3734,1,audio/Narrative7Situation6.wav,547.374,,547.374,557.3455,"[[51.4,166],[51.4,250],[51.4,333],[51.4,416],[51.4,501],[51.4,583],[51.4,667],[51,754],[50.2,837],[45.6,1333],[44.1,1422],[37.9,1505],[34.9,1583],[34.1,1667],[32.2,1750],[31.1,1834],[31.1,1917],[31.1,2000],[31.1,2084],[31.1,2167],[31.1,2251],[31.1,2334],[31.1,2418],[31.1,2508],[31.1,2584],[31.1,2752],[30.8,2834],[29.5,2922],[27.6,3001],[26,3084],[21.4,3173],[19.5,3251],[17.4,3339],[14.7,3418],[12.6,3501],[10.7,3584],[9.5,3668],[9.3,3751],[9.3,3835],[9.3,3918],[10.7,4001],[12.9,4085],[19.4,4172],[33.7,4256],[52.9,4335],[66.1,4423],[76.1,4502],[87.4,4592],[96.3,4668],[100,4752],[100,4840],[100,4921],[100,5002],[100,5086],[95.5,8837],[100,9587],[100,9671],[94.1,9754],[93.2,9837],[96.6,9921]]",1,0,557.3456,560.2177,99.59254948,2.0858,"[{""rating"":99.59254947613503,""responseTime"":2.0857999999523145}]",space,2.3196,,560.2177,Not at all,0,560.2208,,,[],,0,15,15,15,1,audio/Narrative8Situation6.wav,audio/Narrative7Situation6.wav,audio/Narrative6Situation6.wav,audio/Narrative5Situation6.wav,2,3,2,3,,,,,,,,,,,,,,,,,,,,,,,,,,,,,,,,,,,,,,,
,,,,,,661b08a7e0f98b7283c4d649,2024-05-13_09h33.10.941,group3.1-3.2-social-tom,2023.2.2,Win32,59.52380952,65c5074098b851296ff0b7ed,664232786a6b6c02e55b3622,,,,,,,,,,,,,,,,,,,,,,,,,,,,,560.2212,1,audio/Narrative7Situation7.wav,565.2324,,565.2325,582.4229,"[[97.4,503],[57.5,916],[57.1,1000],[57.5,1083],[66.2,1171],[70.6,1254],[80.4,1333],[87,1416],[100,1504],[100,1588],[100,1671],[100,1750],[100,1836],[100,1916],[100,2000],[100,2083],[100,2167],[100,2254],[100,2334],[100,2417],[100,2500],[100,2584],[100,2667],[100,2750],[100,2834],[100,2917],[100,3000],[100,3084],[100,3173],[100,3251],[100,3334],[100,3417],[100,3504],[100,3584],[100,3667],[100,3751],[100,3834],[100,3917],[100,4005],[100,4084],[100,4173],[100,4251],[100,4338],[100,4418],[100,4502],[100,4585],[100,4668],[100,4754],[100,4839],[100,4918],[100,5001],[100,5085],[100,5168],[100,5252],[100,5335],[100,5418],[100,5501],[100,5585],[100,5668],[100,5751],[100,5835],[100,5918],[100,6002],[100,6085],[100,6169],[100,6252],[100,6335],[100,6421],[100,6502],[100,6585],[100,6669],[100,6752],[100,6836],[100,6919],[100,7002],[100,7085],[100,7169],[100,7256],[100,7336],[100,7420],[100,7503],[100,7586],[100,7669],[100,7753],[100,7836],[100,7919],[100,8003],[100,8086],[100,8169],[100,8253],[100,8337],[100,8419],[100,8503],[100,8586],[100,8670],[100,8753],[100,8836],[100,8920],[100,9006],[100,9087],[100,9170],[100,9257],[100,9341],[100,9425],[100,9503],[100,9591],[100,9670],[100,9754],[100,9837],[100,9925],[100,10004],[100,10087],[100,10170],[100,10254],[100,10337],[100,10420],[100,10504],[100,10592],[100,10671],[100,10754],[100,10837],[100,10921],[100,11004],[100,11087],[100,11171],[100,11254],[100,11338],[100,11421],[100,11504],[100,11587],[100,11671],[100,11755],[100,11838],[100,11921],[100,12004],[100,12093],[100,12171],[100,12254],[100,12338],[100,12421],[100,12505],[100,12588],[100,12672],[100,12755],[100,12838],[100,12922],[100,13005],[100,13092],[100,13172],[100,13255],[100,13338],[100,13422],[100,13505],[100,13589],[100,13672],[100,13755],[100,13839],[100,13926],[100,14010],[100,14089],[100,14173],[100,14260],[100,14339],[100,14427],[100,14505],[100,14589],[100,14678],[100,14755],[100,14839],[100,14927],[100,15011],[100,15093],[100,15177],[100,15260],[100,15339],[100,15423],[100,15506],[100,15589],[100,15677],[100,15756],[100,15840],[100,15923],[100,16011],[100,16090],[100,16178],[100,16257],[100,16340],[100,16423],[100,16507],[100,16590],[100,16673],[100,16756],[100,16844],[100,16924],[100,17007],[100,17090],[100,17173]]",1,0,582.4231,584.8975,95.98370198,1.1756,"[{""rating"":95.9837019790454,""responseTime"":1.17559999996422}]",space,1.9397,,584.8976,Partially,50,584.9008,,,[],,0,16,16,16,1,audio/Narrative8Situation7.wav,audio/Narrative7Situation7.wav,audio/Narrative6Situation7.wav,audio/Narrative5Situation7.wav,3,5,5,4,,,,,,,,,,,,,,,,,,,,,,,,,,,,,,,,,,,,,,,
,,,,,,661b08a7e0f98b7283c4d649,2024-05-13_09h33.10.941,group3.1-3.2-social-tom,2023.2.2,Win32,59.52380952,65c5074098b851296ff0b7ed,664232786a6b6c02e55b3622,,,,,,,,,,,,,,,,,,,,,,,,,,,,,584.901,1,audio/Narrative7Situation8.wav,586.9087,,586.9088,596.9522,"[[999,0],[999,83],[999,166],[999,254],[999,333],[999,416],[999,500],[999,583],[999,666],[999,750],[999,833],[999,916],[999,1000],[999,1084],[999,1166],[999,1250],[999,1333],[999,1419],[999,1500],[999,1583],[999,1672],[999,1750],[999,1833],[999,1917],[999,2000],[999,2089],[999,2171],[999,2250],[68.3,2338],[58.3,2417],[55.7,2500],[45.7,2584],[44.9,2667],[43.8,2755],[43.2,2838],[43.2,2917],[43.2,3001],[43.2,3088],[43.2,3170],[43.2,3253],[43.2,3334],[43.2,3421],[43.2,3504],[43.2,3584],[43.2,3672],[43.2,3751],[43.2,3834],[43.2,3921],[43.2,4007],[43.2,4084],[43.2,4173],[43.2,4251],[43.2,4338],[43.2,4423],[43.2,4501],[43.2,4585],[43.2,4673],[43.2,4751],[43.2,4839],[43.2,4918],[43.2,5002],[43.2,5085],[43.2,5168],[44.2,5258],[44.3,5335],[46.6,5424],[49.8,5507],[52.3,5585],[61.2,5668],[73.9,5752],[88,5835],[100,5924],[100,6002],[100,6091],[100,6169],[100,6252],[100,6335],[100,6423],[100,6508],[100,6586],[100,6669],[100,6752],[100,6841],[100,6925],[100,7009],[100,7086],[100,7169],[100,7252],[100,7336],[100,7419],[100,7503],[100,7586],[100,7669],[100,7753],[100,7836],[100,8027],[100,8103],[100,8186],[100,8270],[100,8353],[100,8437],[100,8520],[100,8609],[100,8693],[100,8770],[100,8853],[100,8937],[100,9025],[100,9103],[100,9187],[100,9270],[100,9354],[100,9437],[100,9520],[100,9604],[100,9687],[100,9770],[100,9854],[100,9937],[100,10020]]",1,0,596.9524,600.9983,99.94179278,3.1647,"[{""rating"":99.941792782305,""responseTime"":3.1647000000476737}]",space,3.5289,,600.9984,Definitely yes,100,601.0017,,,[],,0,17,17,17,1,audio/Narrative8Situation8.wav,audio/Narrative7Situation8.wav,audio/Narrative6Situation8.wav,audio/Narrative5Situation8.wav,3,2,5,3,,,,,,,,,,,,,,,,,,,,,,,,,,,,,,,,,,,,,,,
,,,,,,661b08a7e0f98b7283c4d649,2024-05-13_09h33.10.941,group3.1-3.2-social-tom,2023.2.2,Win32,59.52380952,65c5074098b851296ff0b7ed,664232786a6b6c02e55b3622,,,,,,,,,,,,,,,,,,,,,,,,,,,,,601.0018,1,audio/Narrative7Situation9.wav,603.0162,,603.0162,611.6535,"[[999,0],[999,83],[999,166],[999,253],[999,333],[999,416],[999,500],[999,583],[999,666],[999,750],[999,833],[38,916],[40.9,1004],[45.5,1087],[50.1,1171],[55.6,1250],[57.9,1333],[58.3,1417],[59,1500],[59.7,1583],[60.4,1667],[60.7,1750],[61.3,1835],[62,1917],[63.2,2000],[64.6,2083],[66.8,2172],[75.4,2250],[84.2,2339],[91.2,2417],[98.5,2506],[98.5,2584],[98.7,2667],[99.9,2755],[100,2834],[100,2917],[100,3005],[100,3084],[100,3167],[100,3250],[100,3335],[100,3417],[100,3501],[100,3584],[100,3668],[100,3751],[100,3835],[100,3923],[100,4001],[100,4090],[100,4168],[100,4251],[100,4339],[100,4418],[100,4501],[100,4589],[100,4669],[100,4752],[100,4835],[100,4918],[100,5002],[100,5090],[100,5169],[100,5252],[100,5335],[100,5418],[100,5502],[100,5585],[100,5669],[100,5752],[100,5835],[100,5919],[100,6007],[100,6085],[100,6169],[100,6252],[100,6336],[100,6419],[100,6502],[100,6586],[100,6669],[100,6752],[100,6841],[100,7016],[100,7086],[100,7171],[100,7252],[100,7341],[100,7420],[100,7503],[100,7591],[100,7670],[100,7758],[100,7836],[100,7920],[100,8003],[100,8089],[100,8170],[100,8253],[100,8336],[100,8420],[100,8507],[100,8587]]",1,0,611.6538,615.5938,99.70896391,3.7011,"[{""rating"":99.70896391152503,""responseTime"":3.701100000023871}]",space,3.3993,,615.5938,Definitely yes,100,615.5954,,,[],,0,18,18,18,1,audio/Narrative8Situation9.wav,audio/Narrative7Situation9.wav,audio/Narrative6Situation9.wav,audio/Narrative5Situation9.wav,3,2,4,3,,,,,,,,,,,,,,,,,,,,,,,,,,,,,,,,,,,,,,,
,,,,,,661b08a7e0f98b7283c4d649,2024-05-13_09h33.10.941,group3.1-3.2-social-tom,2023.2.2,Win32,59.52380952,65c5074098b851296ff0b7ed,664232786a6b6c02e55b3622,,,,,,,,,,,,,,,,,,,,,,,,,,,618.4403,621.0244,621.0381,2,audio/Narrative13Situation2.wav,621.0381,,621.0381,650.7879,"[[999,0],[999,69],[999,152],[999,236],[999,319],[999,403],[999,486],[999,574],[999,653],[999,740],[999,819],[999,903],[999,986],[999,1069],[67.5,1153],[65.8,1236],[64.4,1320],[64.2,1405],[64.2,1488],[63.6,1574],[56.8,1658],[53.3,1736],[51.7,1820],[46.7,1907],[41,1986],[31.1,2070],[21.2,2157],[0.3,2653],[0.6,2741],[1.3,2820],[2.4,2908],[2.5,2987],[2.5,3070],[2.5,3154],[0.9,3237],[0.4,3320],[11.9,15164],[48.5,15247],[59.5,15330],[64.4,15409],[65.3,15492],[66.1,15576],[66.4,15659],[66.2,15743],[66.2,15826],[66.4,15909],[66.4,15993],[66.4,16076],[66.4,16165],[66.4,16248],[67.2,16326],[69.6,16414],[73.4,16493],[77.5,16577],[81.2,16664],[82.5,16743],[84.7,16827],[84.8,16910],[84.8,16998],[84.8,17076],[84.6,17160],[83.5,17248],[71.4,17327],[59.1,17410],[47.1,17494],[31.4,17581],[29,17664],[23.1,17744],[20.4,17831],[19.8,17910],[19.8,17994],[19.7,18077],[19.7,18160],[19.7,18246],[19.7,18327],[19.6,18411],[19.6,18494],[19.6,18578],[19.6,18668],[19.6,18744],[19.6,18827],[19.6,18910],[19.6,18994],[19.6,19077],[19.6,19161],[19.6,19244],[19.6,19327],[19.6,19411],[19.2,19499],[18.8,19577],[18.2,19666],[17.3,19749],[16.9,19828],[16.5,19915],[15.9,19995],[15.2,20078],[14.6,20161],[14.4,20244],[14.4,20333],[14.4,20412],[14.4,20495],[14.4,20578],[14.4,20667],[14.4,20749],[14.4,20828],[14.4,20912],[14.5,20995],[14.7,21079],[15.1,21162],[15.1,21246],[15.4,21329],[15.5,21412],[15.8,21495],[16,21583],[16.1,21662],[16.5,21745],[16.7,21829],[16.9,21912],[17.2,21996],[17.5,22079],[17.8,22162],[18.1,22246],[18.6,22329],[19.2,22418],[19.6,22496],[20.9,22579],[26.7,22667],[28.7,22746],[31.4,22829],[33.7,22917],[33.9,22996],[34.3,23080],[34.3,23163],[34.3,23246],[34.3,23329],[34.3,23413],[35.1,23499],[35.8,23579],[36.5,23668],[37.4,23747],[38.5,23829],[39.6,23913],[41.2,23997],[45.2,24080],[51.6,24163],[53.5,24246],[54.5,24330],[55.7,24414],[57.1,24502],[57.9,24580],[57.9,24663],[58,24747],[59.9,24830],[62.3,24919],[64.7,25002],[66.2,25080],[67.2,25168],[68,25252],[68.5,25330],[70.3,25417],[71.8,25497],[73.1,25580],[73.7,25664],[73.9,25747],[73.9,25830],[73.9,25914],[73.9,25998],[73.9,26081],[73.9,26164],[73.9,26248],[73.9,26331],[74.3,26414],[74.4,26497],[74.4,26586],[74.4,26669],[74.4,26747],[74.4,26831],[74.4,26914],[74.4,27000],[74.4,27081],[74.4,27164],[74.4,27248],[74.4,27331],[83.1,27419],[89.3,27498],[88.9,27581],[88.6,27665],[88.6,27753],[88.6,27832],[88.6,27915],[88.6,27998],[88.6,28082],[88.6,28165],[88.6,28248],[88.6,28332],[88.6,28415],[88.5,28499],[88.5,28582],[88.5,28671],[88.5,28749],[88.5,28832],[88.5,28915],[88.5,28999],[88.5,29087],[88.5,29165],[88.5,29249],[88.5,29332],[88.5,29415],[88.5,29504],[88.5,29582],[88.5,29666],[88.5,29749]]",1,0,650.788,650.79,,,[],,,,650.79,Definitely yes,100,650.7909,,,[],,0,0,0,0,1,audio/Narrative13Situation2.wav,audio/Narrative13Situation2.wav,audio/Narrative13Situation2.wav,audio/Narrative13Situation2.wav,2,2,2,2,,,,,615.596,618.44,space,2.3161,,,,,,,,,,,,,,,,,,,,,,,,,,,,,,,
,,,,,,661b08a7e0f98b7283c4d649,2024-05-13_09h33.10.941,group3.1-3.2-social-tom,2023.2.2,Win32,59.52380952,65c5074098b851296ff0b7ed,664232786a6b6c02e55b3622,,,,,,,,,,,,,,,,,,,,,,,,,,,,,650.7911,2,audio/Narrative6Situation1.wav,652.8054,,652.8055,679.4009,"[[79,749],[70.6,833],[67.7,916],[60.2,999],[57.3,1083],[55.2,1166],[50.6,1255],[48.7,1339],[46.7,1420],[45.7,1500],[44.9,1583],[42.4,1669],[41.6,1750],[35,1833],[26.7,1921],[11.8,2005],[3.3,2200],[0.4,2288],[0.2,3951],[0.4,4034],[0.9,4122],[1.2,4207],[2.3,4289],[3,4372],[3,4455],[3.6,4534],[4.2,4618],[4.6,4701],[5.1,4790],[5.2,4868],[5.3,4951],[5.3,5035],[5.3,5118],[5.3,5201],[5.3,5289],[18.1,5368],[39.1,5452],[59.5,5540],[69.9,5619],[80,5701],[88.9,5789],[90.4,5869],[91.7,5957],[93,6035],[93.8,6118],[94.7,6202],[95.4,6286],[95.5,6369],[95.5,6452],[95.5,6540],[96,6619],[96.8,6702],[97.6,6791],[97.6,6869],[97.7,6952],[97.7,7036],[97.7,7119],[97.7,7202],[97.7,7286],[97.7,7370],[97.7,7452],[97.7,7536],[97.7,7620],[97.7,7703],[97.7,7786],[97.6,7870],[97,7953],[96.6,8036],[96.6,8120],[96.6,8203],[96.2,8286],[95.9,8370],[95.8,8453],[95.8,8536],[95.8,8620],[95.8,8703],[95.8,8787],[95.8,8870],[95.8,8953],[95.8,9037],[95.8,9120],[95.5,9204],[95.2,9287],[95.1,9370],[94.7,9454],[94.2,9542],[94,9620],[93.7,9708],[93.3,9787],[93,9870],[92.3,9954],[91.6,10042],[90.9,10125],[89.3,10204],[86.2,10291],[84.6,10375],[82.8,10454],[81.4,10542],[78.8,10621],[76.7,10704],[75.6,10787],[72.4,10875],[65.8,10954],[59.2,11042],[49.9,11121],[42.7,11204],[32.3,11287],[7.7,11371],[6.2,11454],[6.2,11538],[6.2,11621],[6.2,11704],[6.3,11788],[6.6,11871],[6.2,11959],[5.8,12038],[4.5,12121],[4.1,12205],[4.1,12288],[4.1,12371],[4.8,12455],[4.8,12538],[4.6,12622],[3.2,12705],[3.2,12788],[3,12871],[2.2,12955],[1.5,13044],[1.2,13126],[1.1,13205],[1.1,13289],[1.1,13372],[1.1,13455],[1.1,13539],[1.1,13622],[1.1,13705],[1.1,13789],[1.1,13872],[1.3,13955],[1.8,14039],[2.9,14122],[3.1,14210],[3.4,14289],[3.6,14372],[3.6,14456],[3.6,14540],[3.6,14622],[2.9,14706],[1.8,14789],[1.3,14872],[1,14961],[0.6,15041],[0.6,15122],[0.6,15206],[0.4,15294],[0.1,19875],[0.9,19958],[1.6,20041],[2,20125],[3.3,20209],[4.7,20296],[5.2,20375],[5.6,20461],[5.8,20542],[5.8,20625],[5.8,20709],[5.8,20792],[5.8,20876],[4.8,20963],[3.7,21042],[3.4,21125],[2.9,21209],[0.9,21297],[0.8,23962],[1.8,24043],[2.4,24127],[2.7,24210],[4,24299],[7.2,24377],[9.7,24460],[13.1,24549],[15.2,24627],[20.5,24710],[29.9,24794],[40,24877],[53.5,24965],[62,25044],[71.9,25127],[81.8,25211],[90.9,25294],[93,25378],[97.1,25961],[97.8,26045],[98.7,26129],[99.2,26211],[99.4,26301],[99.4,26377],[99.4,26461],[99.4,26545]]",1,0,679.401,683.6359,87.4854482,2.6746,"[{""rating"":82.71245634458673,""responseTime"":2.0045000000000073},{""rating"":87.48544819557625,""responseTime"":2.6746000000238155}]",space,3.7,,683.636,Not at all,0,683.6374,,,[],,0,1,1,1,1,audio/Narrative7Situation1.wav,audio/Narrative8Situation1.wav,audio/Narrative5Situation1.wav,audio/Narrative6Situation1.wav,2,5,5,2,,,,,,,,,,,,,,,,,,,,,,,,,,,,,,,,,,,,,,,
,,,,,,661b08a7e0f98b7283c4d649,2024-05-13_09h33.10.941,group3.1-3.2-social-tom,2023.2.2,Win32,59.52380952,65c5074098b851296ff0b7ed,664232786a6b6c02e55b3622,,,,,,,,,,,,,,,,,,,,,,,,,,,,,683.6376,2,audio/Narrative6Situation2.wav,686.6538,,686.6539,715.1565,"[[999,6],[999,83],[999,166],[999,250],[999,333],[999,416],[999,500],[999,583],[999,667],[999,750],[999,833],[999,921],[999,1000],[999,1083],[999,1166],[999,1250],[999,1333],[999,1416],[999,1500],[999,1583],[999,1667],[999,1751],[999,1834],[999,1917],[999,2006],[999,2084],[999,2167],[999,2250],[999,2334],[999,2418],[999,2501],[999,2588],[999,2668],[999,2751],[999,2834],[999,2918],[999,3001],[999,3084],[999,3168],[999,3251],[999,3335],[999,3422],[999,3501],[999,3584],[999,3673],[999,3751],[999,3835],[999,3918],[999,4005],[999,4085],[999,4168],[42.8,4251],[42,4340],[42,4418],[42,4506],[48.1,4585],[70.7,4675],[78.4,4756],[87.8,4835],[98.3,4918],[100,5006],[100,5090],[100,5172],[100,5252],[100,5339],[100,5419],[100,5502],[100,5585],[100,5669],[100,5757],[100,5835],[100,5919],[100,6002],[100,6086],[100,6169],[100,6252],[100,6336],[100,6420],[100,6503],[100,6588],[100,6669],[100,6752],[100,6836],[100,6919],[100,7008],[100,7090],[100,7170],[100,7258],[100,7336],[100,7424],[100,7503],[100,7587],[100,7670],[100,7756],[100,7837],[100,7920],[100,8003],[100,8087],[100,8174],[100,8257],[100,8337],[100,8420],[100,8503],[100,8587],[100,8671],[100,8753],[100,8837],[100,8920],[100,9003],[100,9087],[100,9171],[100,9254],[100,9337],[100,9420],[100,9504],[100,9587],[100,9671],[100,9754],[100,9837],[100,9926],[100,10004],[100,10087],[100,10171],[100,10258],[100,10337],[100,10422],[100,10505],[100,10588],[100,10675],[100,10754],[100,10842],[100,10921],[100,11005],[100,11091],[100,11176],[100,11255],[100,11338],[100,11421],[100,11505],[100,11588],[100,11671],[100,11755],[100,11838],[100,11926],[100,12007],[100,12088],[100,12172],[100,12255],[100,12343],[100,12426],[100,12505],[100,12589],[100,12672],[100,12755],[100,12843],[100,12922],[100,13005],[100,13088],[100,13172],[100,13256],[100,13339],[100,13422],[100,13505],[100,13589],[100,13674],[100,13756],[100,13839],[100,13923],[99.4,14006],[96.8,14092],[94.5,14177],[92.4,14262],[91,14339],[90,14423],[89.9,14511],[92.3,14589],[94.6,14678],[96,14756],[97.7,14846],[98.2,14928],[98.8,15011],[98.8,15090],[98.8,15179],[98.8,15257],[98.8,15345],[98.8,15423],[98.8,15507],[98.8,15590],[98.8,15677],[98.8,15762],[98.8,15840],[98.8,15928],[98.8,16007],[98.8,16095],[98.8,16179],[98.8,16257],[98.8,16345],[98.8,16428],[98.8,16507],[98.8,16595],[98.8,16679],[98.8,16757],[98.8,16841],[98.8,16924],[98.8,17007],[98.8,17095],[98.8,17174],[98.8,17257],[98.8,17341],[98.8,17429],[98.9,17507],[98.9,17591],[98.9,17679],[98.9,17762],[98.9,17841],[98.9,17924],[98.9,18008],[98.9,18096],[98.9,18174],[98.9,18263],[98.9,18342],[98.9,18425],[98.9,18508],[98.9,18593],[98.9,18680],[98.9,18758],[98.9,18841],[98.9,18925],[98.9,19008],[98.9,19091],[98.9,19175],[98.9,19258],[98.9,19342],[98.9,19425],[98.9,19514],[98.9,19592],[98.9,19675],[98.9,19759],[98.9,19842],[98.9,19931],[98.9,20009],[98.9,20092],[98.9,20175],[98.9,20258],[98.9,20342],[98.9,20426],[98.9,20509],[98.9,20592],[98.9,20675],[98.9,20763],[98.9,20843],[98.9,20926],[98.9,21009],[98.9,21092],[98.9,21181],[98.9,21259],[98.9,21342],[98.9,21431],[98.9,21509],[98.9,21598],[98.9,21676],[98.9,21759],[98.9,21847],[98.9,21926],[98.9,22009],[98.9,22093],[98.9,22181],[98.9,22264],[98.9,22347],[98.9,22426],[98.9,22509],[98.9,22597],[98.9,22676],[98.9,22760],[98.9,22847],[98.9,22926],[98.9,23010],[98.9,23098],[98.9,23176],[98.9,23262],[98.9,23343],[98.9,23431],[98.9,23510],[98.9,23593],[98.9,23677],[98.9,23760],[98.9,23851],[98.9,23929],[98.9,24011],[98.9,24094],[98.9,24177],[98.9,24261],[99,24344],[91.9,26097],[96.4,26183],[98,26267],[99.2,26349],[99.8,26428],[100,26515],[100,26600],[100,26679],[100,26762],[100,26850],[100,26928],[100,27012],[100,27095],[100,27179],[100,27262],[100,27348],[100,27434],[100,27512],[100,27595],[100,27679],[100,27762],[100,27846],[100,27929],[100,28016],[100,28100],[100,28179],[100,28267],[100,28351],[99.8,28429]]",1,0,715.1567,717.2845,95.51804424,1.0311,"[{""rating"":95.51804423748544,""responseTime"":1.0310999999642263}]",space,1.5864,,717.2846,Not at all,0,717.2866,,,[],,0,2,2,2,1,audio/Narrative7Situation2.wav,audio/Narrative8Situation2.wav,audio/Narrative5Situation2.wav,audio/Narrative6Situation2.wav,3,3,3,3,,,,,,,,,,,,,,,,,,,,,,,,,,,,,,,,,,,,,,,
,,,,,,661b08a7e0f98b7283c4d649,2024-05-13_09h33.10.941,group3.1-3.2-social-tom,2023.2.2,Win32,59.52380952,65c5074098b851296ff0b7ed,664232786a6b6c02e55b3622,,,,,,,,,,,,,,,,,,,,,,,,,,,,,717.2871,2,audio/Narrative6Situation3.wav,722.3033,,722.3034,734.9425,"[[999,6],[999,83],[999,168],[999,250],[999,339],[999,417],[999,504],[999,583],[999,666],[999,750],[999,833],[53,916],[54.3,1004],[54.4,1083],[54.4,1172],[54.4,1250],[55.9,1337],[58,1422],[61.2,1500],[64.2,1588],[68.5,1667],[71.3,1750],[73.7,1834],[76,1917],[77.5,2005],[77.8,2089],[78.8,2172],[79.8,2251],[81.5,2334],[83.5,2422],[84.2,2505],[84.2,2588],[84.6,2667],[85.5,2753],[88.4,2838],[90.7,2922],[92.6,3001],[94.4,3084],[97.7,3173],[97.8,3251],[97.8,3334],[94.1,3422],[61.1,3501],[26.3,3590],[15.9,3672],[5.4,3751],[4.1,3839],[4.1,3918],[4.1,4002],[4.1,4085],[4.1,4168],[4.1,4251],[4.1,4335],[2.7,4418],[2,6173],[2.6,6252],[2.7,6341],[3.1,6419],[3.1,6503],[3.1,6586],[1.5,6669],[2.9,7503],[11,7591],[17.8,7670],[50.8,7757],[100,8587],[100,8670],[100,8759],[100,8841],[100,8920],[100,9004],[100,9093],[100,9170],[100,9257],[100,9342],[100,9420],[100,9504],[100,9587],[100,9670],[100,9754],[100,9842],[100,9926],[100,10004],[100,10087],[100,10171],[100,10254],[100,10337],[100,10421],[100,10504],[100,10592],[100,10671],[100,10754],[100,10838],[100,10925],[100,11009],[100,11088],[100,11171],[100,11255],[100,11338],[100,11421],[100,11505],[100,11588],[99.9,11672],[99.2,11755],[98.1,11838],[96.2,11922],[94.2,12005],[92.7,12094],[91.8,12177],[91.4,12255],[91.4,12339],[91.4,12422],[91.4,12505],[91.4,12593]]",1,0,734.9426,737.0102,99.94179278,1.0298,"[{""rating"":99.941792782305,""responseTime"":1.0298000000118464}]",space,1.5445,,737.0103,Partially,50,737.0119,,,[],,0,3,3,3,1,audio/Narrative7Situation3.wav,audio/Narrative8Situation3.wav,audio/Narrative5Situation3.wav,audio/Narrative6Situation3.wav,8,4,3,5,,,,,,,,,,,,,,,,,,,,,,,,,,,,,,,,,,,,,,,
,,,,,,661b08a7e0f98b7283c4d649,2024-05-13_09h33.10.941,group3.1-3.2-social-tom,2023.2.2,Win32,59.52380952,65c5074098b851296ff0b7ed,664232786a6b6c02e55b3622,,,,,,,,,,,,,,,,,,,,,,,,,,,,,737.0119,2,audio/Narrative6Situation4.wav,739.0157,,739.0158,751.6538,"[[999,0],[999,82],[999,166],[999,250],[52.2,333],[51.3,411],[51.2,495],[51.2,578],[54.2,662],[57.2,750],[57.3,828],[58.4,917],[58.7,995],[58.7,1079],[58.7,1162],[58.8,1245],[58.8,1332],[59,1412],[58,1500],[46,1584],[26.6,1666],[8.8,1745],[0.2,2751],[0.3,2829],[0.3,2913],[0.3,3000],[0.3,3080],[0.3,3169],[0.3,3246],[0.3,3329],[0.3,3413],[0.3,3496],[0.3,3580],[0.3,3663],[0.4,3746],[0.4,3830],[0.4,3913],[1.6,4001],[3.6,4080],[5.2,4163],[7.4,4251],[14.3,4335],[21.6,4413],[25,4501],[28.5,4585],[31.4,4667],[38,4751],[43,4830],[54.1,4918],[67.6,4997],[79.7,5084],[86.2,5164],[92.8,5256],[94.4,5330],[95.9,5414],[97.8,5497],[99,5581],[99.7,5664],[100,5747],[100,5831],[100,5918],[100,5997],[100,6081],[100,6164],[100,6247],[100,6335],[100,6414],[100,6498],[100,6581],[100,6664],[100,6748],[100,6831],[100,6915],[100,6998],[100,7081],[100,7164],[96.8,7248],[85.7,7331],[58.4,7415],[39.5,7499],[19.4,7586],[4.7,7669],[2.3,7748],[1.7,7832],[1.6,7915],[1.6,7999],[1.6,8082],[1.6,8165],[1.6,8248],[12.4,8332],[26.7,8415],[45.6,8503],[61.3,8586],[70.7,8666],[71.9,8749],[71.9,8832],[33.6,8920],[2.4,9004],[1.3,9082],[0.8,9166],[0.8,9254],[6.9,9337],[18.2,9415],[18.6,9499],[18.6,9582],[18.6,9666],[18.6,9749],[18.5,9837],[18.1,9921],[17.9,10004],[17.9,10083],[17.8,10166],[17.8,10249],[17.8,10335],[17.8,10416],[17.8,10499],[17.8,10588],[17.8,10666],[13.8,10749],[13,10833],[7.4,10919],[2.7,11000]]",1,0,751.6539,754.3853,46.85681024,1.2129,"[{""rating"":46.85681024447032,""responseTime"":1.212900000035802}]",space,2.1879,,754.3854,Partially,50,754.3878,,,[],,0,4,4,4,1,audio/Narrative7Situation4.wav,audio/Narrative8Situation4.wav,audio/Narrative5Situation4.wav,audio/Narrative6Situation4.wav,3,3,1,2,,,,,,,,,,,,,,,,,,,,,,,,,,,,,,,,,,,,,,,
,,,,,,661b08a7e0f98b7283c4d649,2024-05-13_09h33.10.941,group3.1-3.2-social-tom,2023.2.2,Win32,59.52380952,65c5074098b851296ff0b7ed,664232786a6b6c02e55b3622,,,,,,,,,,,,,,,,,,,,,,,,,,,,,754.3883,2,audio/Narrative6Situation5.wav,756.4025,,756.4025,764.3782,"[[46,82],[45.7,166],[45.3,249],[44.3,337],[41.4,416],[34.4,499],[24.4,587],[0.8,667],[2.4,1000],[4.8,1087],[6.2,1167],[7.7,1254],[10.4,1333],[12.7,1421],[13,1500],[13.4,1588],[14.4,1667],[14.4,1750],[14.4,1833],[19.7,1917],[22.5,2004],[25.8,2084],[100,3001],[100,3084],[100,3168],[99.6,3250],[99.5,3338],[99.5,3418],[99.4,3501],[100,3589],[100,3668],[100,3755],[100,3838],[100,3918],[100,4001],[100,4085],[100,4168],[100,4254],[100,4339],[100,4418],[100,4501],[100,4588],[100,4668],[100,4751],[100,4834],[100,4918],[100,5002],[100,5085],[100,5168],[100,5252],[100,5335],[100,5418],[100,5502],[100,5585],[100,5669],[100,5752],[100,5841],[100,5918],[100,6002],[100,6085],[100,6173],[100,6252],[100,6336],[100,6419],[100,6502],[100,6585],[100,6669],[100,6752],[100,6836],[100,6919],[100,7003],[100,7086],[100,7169],[100,7253],[100,7336],[100,7419],[100,7502],[100,7586],[100,7669],[100,7753],[100,7836],[100,7919]]",1,0,764.3782,769.1414,55.82072177,3.6102,"[{""rating"":55.820721769499414,""responseTime"":3.6101999999880263}]",space,4.2186,,769.1415,Definitely yes,100,769.1445,,,[],,0,5,5,5,1,audio/Narrative7Situation5.wav,audio/Narrative8Situation5.wav,audio/Narrative5Situation5.wav,audio/Narrative6Situation5.wav,5,2,5,2,,,,,,,,,,,,,,,,,,,,,,,,,,,,,,,,,,,,,,,
,,,,,,661b08a7e0f98b7283c4d649,2024-05-13_09h33.10.941,group3.1-3.2-social-tom,2023.2.2,Win32,59.52380952,65c5074098b851296ff0b7ed,664232786a6b6c02e55b3622,,,,,,,,,,,,,,,,,,,,,,,,,,,,,769.1448,2,audio/Narrative6Situation6.wav,771.1589,,771.1589,782.2307,"[[54.4,255],[54.3,333],[54.2,421],[54.2,499],[54.2,588],[54.2,666],[54.2,750],[54.2,833],[54.2,916],[54.2,1000],[56.2,1083],[49.3,1671],[47.9,1750],[47,1839],[46.5,1917],[46.5,2000],[51.3,2088],[53.5,2167],[56.6,2250],[61.8,2334],[66.8,2417],[71.8,2505],[72.8,2588],[77.1,2667],[90.2,2751],[95.3,2838],[100,2917],[100,3005],[100,3084],[100,3284],[100,3368],[100,3451],[100,3588],[100,3668],[100,3751],[100,3835],[100,3922],[100,4105],[100,4185],[100,4268],[100,4351],[100,4435],[100,4518],[100,4602],[100,4685],[100,4768],[100,4852],[100,4935],[100,5018],[100,5102],[100,5186],[100,5269],[100,5352],[100,5440],[100,5519],[100,5602],[100,5686],[100,5773],[100,5852],[100,5935],[100,6019],[100,6102],[100,6185],[100,6274],[100,6353],[100,6436],[100,6519],[100,6607],[100,6690],[100,6774],[100,6853],[100,6936],[100,7019],[100,7103],[100,7186],[100,7269],[100,7353],[100,7436],[100,7519],[100,7603],[100,7687],[100,7770],[100,7853],[100,7936],[100,8020],[100,8103],[100,8186],[100,8270],[100,8353],[100,8437],[100,8520],[100,8603],[100,8687],[100,8770],[100,8854],[100,8937],[100,9021],[100,9108],[100,9192],[100,9271],[100,9354],[100,9437],[100,9525],[100,9604],[100,9687],[100,9771],[100,9854],[100,9938],[100,10021],[100,10104],[100,10187],[100,10271],[100,10355],[100,10437],[100,10521],[100,10605],[100,10692],[100,10771],[100,10854],[100,10938],[100,11021]]",1,0,782.2309,791.6889,99.70896391,7.731,"[{""rating"":99.70896391152503,""responseTime"":7.7309999999999945}]",space,8.9086,,791.689,Partially,50,791.6922,,,[],,0,6,6,6,1,audio/Narrative7Situation6.wav,audio/Narrative8Situation6.wav,audio/Narrative5Situation6.wav,audio/Narrative6Situation6.wav,3,2,3,2,,,,,,,,,,,,,,,,,,,,,,,,,,,,,,,,,,,,,,,
,,,,,,661b08a7e0f98b7283c4d649,2024-05-13_09h33.10.941,group3.1-3.2-social-tom,2023.2.2,Win32,59.52380952,65c5074098b851296ff0b7ed,664232786a6b6c02e55b3622,,,,,,,,,,,,,,,,,,,,,,,,,,,,,791.6924,2,audio/Narrative6Situation7.wav,796.7041,,796.7041,821.5653,"[[999,6],[999,82],[999,166],[999,249],[999,338],[999,416],[999,500],[999,583],[999,666],[999,750],[999,837],[52,920],[51.5,1000],[49.8,1088],[47.3,1166],[46.6,1254],[45.9,1333],[42,1421],[38.9,1500],[35.4,1583],[32.8,1669],[31.8,1750],[31.7,1834],[30.6,1917],[17.5,2000],[3.1,2084],[3,2174],[2.6,2250],[2.6,2334],[2.6,2417],[3.8,2500],[4.1,2584],[4.8,2667],[4.9,2750],[5.1,2834],[4.9,2923],[3.7,3005],[2.6,3084],[1.1,3172],[0.9,3253],[0.9,3334],[0.9,3421],[0.9,3500],[0.9,3584],[0.9,3668],[0.9,3753],[0.9,3839],[0.9,3918],[0.9,4001],[0.9,4084],[0.9,4168],[0.9,4256],[0.9,4335],[0.9,4418],[0.9,4506],[0.9,4585],[0.8,4673],[0.8,4756],[0.8,4835],[0.8,4918],[0.8,5006],[0.6,5089],[0.3,5168],[8.3,7007],[20,7086],[34.4,7170],[61.1,7257],[79.8,7341],[92,7419],[94.5,7502],[98.7,7591],[100,7674],[100,7753],[100,7836],[100,7920],[100,8003],[100,8086],[100,8170],[100,8253],[100,8336],[100,8425],[100,8503],[100,8586],[100,8670],[100,8753],[100,8836],[100,8920],[100,9003],[100,9091],[100,9170],[100,9253],[100,9337],[100,9420],[100,9507],[100,9587],[100,9670],[100,9753],[100,9837],[100,9921],[100,10008],[100,10091],[100,10171],[100,10254],[100,10337],[100,10424],[100,10504],[100,10587],[100,10671],[100,10754],[100,10842],[100,10921],[100,11004],[100,11088],[100,11171],[100,11259],[100,11343],[100,11421],[100,11505],[100,11588],[100,11671],[100,11759],[100,11838],[100,11926],[100,12009],[100,12088],[100,12176],[100,12255],[100,12338],[100,12422],[100,12505],[100,12588],[100,12672],[100,12755],[100,12839],[100,12922],[100,13005],[100,13088],[100,13172],[100,13255],[100,13338],[100,13428],[100,13506],[100,13593],[100,13672],[100,13756],[100,13844],[100,13922],[100,14011],[100,14089],[100,14172],[100,14256],[100,14339],[100,14422],[100,14506],[100,14590],[100,14678],[100,14756],[100,14839],[100,14923],[100,15006],[100,15094],[100,15173],[100,15256],[100,15340],[100,15427],[100,15510],[100,15590],[100,15673],[100,15757],[100,15840],[100,15927],[100,16007],[100,16090],[100,16173],[100,16257],[100,16345],[100,16423],[100,16507],[100,16590],[100,16674],[100,16757],[100,16840],[100,16924],[100,17007],[100,17091],[100,17178],[100,17257],[100,17341],[100,17423],[100,17507],[100,17591],[100,17674],[100,17757],[100,17841],[100,17924],[100,18008],[100,18091],[100,18174],[100,18258],[100,18341],[100,18425],[100,18508],[100,18591],[100,18679],[100,18758],[100,18846],[100,18925],[100,19008],[100,19096],[100,19175],[100,19258],[100,19341],[100,19424],[100,19508],[100,19592],[100,19675],[100,19758],[100,19842],[100,19925],[100,20009],[100,20097],[100,20175],[100,20258],[100,20342],[100,20425],[100,20508],[100,20592],[100,20675],[100,20759],[100,20846],[100,20930],[100,21009],[100,21092],[100,21175],[100,21264],[100,21348],[100,21426],[100,21509],[100,21592],[100,21676],[100,21759],[100,21842],[100,21926],[100,22009],[100,22092],[100,22176],[100,22259],[100,22343],[100,22432],[100,22510],[100,22597],[100,22676],[100,22760],[100,22843],[100,22926],[100,23010],[100,23093],[100,23181],[100,23260],[100,23343],[100,23426],[100,23510],[100,23593],[100,23677],[100,23760],[100,23843],[100,23927],[100,24010],[100,24093],[100,24177],[100,24263],[100,24344],[100,24427],[100,24510],[100,24594],[100,24682],[100,24760],[100,24844]]",1,0,821.5654,825.2051,99.47613504,2.4873,"[{""rating"":99.47613504074505,""responseTime"":2.487300000011942}]",space,3.0968,,825.2052,Partially,50,825.2069,,,[],,0,7,7,7,1,audio/Narrative7Situation7.wav,audio/Narrative8Situation7.wav,audio/Narrative5Situation7.wav,audio/Narrative6Situation7.wav,5,3,4,5,,,,,,,,,,,,,,,,,,,,,,,,,,,,,,,,,,,,,,,
,,,,,,661b08a7e0f98b7283c4d649,2024-05-13_09h33.10.941,group3.1-3.2-social-tom,2023.2.2,Win32,59.52380952,65c5074098b851296ff0b7ed,664232786a6b6c02e55b3622,,,,,,,,,,,,,,,,,,,,,,,,,,,,,825.2074,2,audio/Narrative6Situation8.wav,830.2189,,830.2189,837.094,"[[63.9,504],[62.2,583],[61.1,671],[58.3,750],[52.6,833],[49.3,921],[48.4,1000],[47.1,1087],[45.7,1170],[42.5,1250],[33.4,1338],[30.1,1417],[7.9,1500]]",1,0,837.0941,839.8066,0.174621653,1.8067,"[{""rating"":0.17462165308498312,""responseTime"":1.8067000000477265}]",space,2.1683,,839.8068,Partially,50,839.8088,,,[],,0,8,8,8,1,audio/Narrative7Situation8.wav,audio/Narrative8Situation8.wav,audio/Narrative5Situation8.wav,audio/Narrative6Situation8.wav,2,3,3,5,,,,,,,,,,,,,,,,,,,,,,,,,,,,,,,,,,,,,,,
,,,,,,661b08a7e0f98b7283c4d649,2024-05-13_09h33.10.941,group3.1-3.2-social-tom,2023.2.2,Win32,59.52380952,65c5074098b851296ff0b7ed,664232786a6b6c02e55b3622,,,,,,,,,,,,,,,,,,,,,,,,,,,,,839.8091,2,audio/Narrative6Situation9.wav,843.8252,,843.8252,853.7634,"[[12.6,416],[9.4,500],[7.4,587],[6.1,667],[5.5,750],[5.2,833],[5.2,917],[4.9,1005],[4.5,1083],[4.1,1167],[3.1,1250],[2.3,1339],[0.8,1417],[0.1,1500]]",1,0,853.7635,857.5815,0.75669383,2.8138,"[{""rating"":0.7566938300349269,""responseTime"":2.813800000011952}]",space,3.2856,,857.5816,Not at all,0,857.5854,,,[],,0,9,9,9,1,audio/Narrative7Situation9.wav,audio/Narrative8Situation9.wav,audio/Narrative5Situation9.wav,audio/Narrative6Situation9.wav,2,3,3,4,,,,,,,,,,,,,,,,,,,,,,,,,,,,,,,,,,,,,,,
,,,,,,661b08a7e0f98b7283c4d649,2024-05-13_09h33.10.941,group3.1-3.2-social-tom,2023.2.2,Win32,59.52380952,65c5074098b851296ff0b7ed,664232786a6b6c02e55b3622,,,,,,,,,,,,,,,,,,,,,,,,,,,,,857.5857,2,audio/Narrative5Situation1.wav,862.6027,,862.6027,875.9066,"[[999,8],[999,81],[999,164],[999,248],[999,331],[999,416],[999,497],[999,581],[999,664],[999,747],[999,831],[999,914],[999,998],[999,1081],[48,1164],[47.2,1248],[45.6,1331],[41.3,1414],[31.5,1498],[20.9,1586],[10.3,1669],[4.2,1748],[1.8,1836],[0.9,1915],[0.8,1998],[2.9,2087],[10.5,2170],[12,2248],[12.2,2331],[6.1,2415],[1.1,2498],[0.1,5086],[0.9,5170],[2,5250],[3,5333],[5.2,5416],[7.6,5500],[9.7,5587],[10.9,5667],[12.3,5750],[13.7,5833],[15.2,5917],[16.1,6000],[16.2,6083],[16.2,6167],[16.2,6250],[16.2,6338],[16.4,6417],[16,6506],[15.7,6584],[14.6,6667],[10,6755],[6.8,6834],[4.5,6922],[2,7000],[1,7089],[0.9,7167],[0.6,7250],[0.6,7334],[0.6,7418],[0.6,7501],[0.6,7589],[0.6,7668],[0.6,7751],[0.6,7834],[0.6,7918],[0.6,8001],[0.6,8084],[0.6,8168],[0.6,8251],[0.6,8338],[0.6,8418],[0.6,8502],[0.6,8585],[0.6,8673],[0.6,8751],[0.6,8835],[0.6,8923],[0.6,9001],[0.6,9085],[0.6,9168],[0.6,9255],[0.6,9335],[0.6,9418],[0.6,9501],[0.6,9585],[0.6,9668],[0.6,9752],[0.6,9835],[0.6,9918],[0.6,10002],[0.6,10085],[0.6,10169],[0.6,10252],[0.6,10336],[0.6,10419],[0.6,10502],[0.6,10585],[0.6,10669],[0.6,10752],[0.6,10836],[0.6,10919],[0.6,11002],[0.6,11086],[0.6,11169],[0.6,11252],[0.6,11336],[0.6,11419],[0.6,11502],[0.6,11586],[0.6,11669],[0.6,11752],[0.6,11836],[0.6,11919],[0.6,12003],[0.6,12086],[0.6,12173],[0.6,12253],[0.6,12336],[0.6,12419],[0.8,12503],[0.8,12591],[0.8,12676],[0.8,12753],[0.8,12836],[0.8,12920],[0.8,13003],[0.8,13086],[0.8,13170],[0.8,13253]]",1,0,875.9068,878.1075,0.75669383,0.7873,"[{""rating"":0.7566938300349269,""responseTime"":0.7873000000118964}]",space,1.6625,,878.1076,Definitely yes,100,878.1096,,,[],,0,10,10,10,1,audio/Narrative8Situation1.wav,audio/Narrative7Situation1.wav,audio/Narrative6Situation1.wav,audio/Narrative5Situation1.wav,5,2,2,5,,,,,,,,,,,,,,,,,,,,,,,,,,,,,,,,,,,,,,,
,,,,,,661b08a7e0f98b7283c4d649,2024-05-13_09h33.10.941,group3.1-3.2-social-tom,2023.2.2,Win32,59.52380952,65c5074098b851296ff0b7ed,664232786a6b6c02e55b3622,,,,,,,,,,,,,,,,,,,,,,,,,,,,,878.1098,2,audio/Narrative5Situation2.wav,881.1252,,881.1252,910.572,"[[0.1,1167],[4,1254],[6.2,1334],[10.5,1417],[14.5,1505],[17.4,1584],[19.8,1667],[22.6,1755],[22.8,1834],[22.8,1918],[22.8,2001],[22.8,2089],[22.8,2168],[22.8,2251],[18.8,2339],[16.2,2418],[9.4,2506],[6,2584],[5.5,2668],[5.4,2752],[5.4,2835],[7.6,2918],[10,3001],[13.7,3089],[15.3,3168],[16.1,3257],[16.5,3339],[16.8,3418],[17.5,3506],[17.9,3589],[18,3668],[18,3755],[18,3835],[18,3918],[18.2,4002],[18.2,4085],[18.3,4168],[18.3,4252],[18.3,4335],[17.9,4419],[11.5,4502],[7.4,4587],[3.2,4669],[1.9,4752],[1.7,4835],[1,4923],[0.6,5002],[0.6,5085],[0.6,5173],[0.4,5252],[0.4,5340],[0.4,5419],[0.4,5502],[0.4,5586],[0.4,5669],[0.4,5752],[0.4,5840],[0.4,5919],[0.4,6003],[0.4,6086],[0.4,6169],[0.4,6257],[0.4,6336],[0.4,6419],[0.4,6507],[0.4,6586],[0.4,6669],[0.4,6753],[0.4,6836],[0.4,6919],[0.4,7003],[0.4,7086],[0.4,7170],[0.4,7253],[0.4,7337],[0.4,7420],[0.4,7503],[0.4,7586],[0.4,7670],[0.4,7754],[0.4,7837],[0.4,7920],[0.4,8004],[0.4,8087],[0.4,8170],[0.4,8253],[0.4,8342],[0.4,8420],[0.4,8504],[0.4,8587],[0.4,8670],[0.4,8757],[0.4,8837],[0.4,8920],[0.4,9008],[0.4,9090],[0.4,9170],[0.4,9254],[0.4,9338],[0.4,9421],[0.3,9513],[1.7,13510],[5.3,13594],[13.9,13796],[16.5,13873],[18.1,13956],[20.4,14039],[21.1,14123],[23.5,14206],[23.8,14289],[23.9,14373],[22.8,14456],[12.6,14540],[8.7,14623],[4.4,14706],[1.8,14790],[1.3,14874],[1.2,14956],[1.2,15040],[1.1,15123],[1.1,15207],[1.1,15290],[1.1,15373],[6,15457],[17.4,15540],[21.5,15624],[23.2,15707],[26.1,15790],[26.6,15873],[26.6,15957],[21.4,16041],[13.9,16124],[8.2,16207],[5.9,16290],[4.5,16374],[3.8,16457],[3.2,16540],[3.1,16624],[3.1,16707],[3.1,16790],[3.1,16874],[3.1,16958],[3.1,17041],[3.1,17124],[3.1,17208],[3.1,17291],[3.1,17374],[3.1,17458],[3,17541],[1.6,17625],[1.6,17708],[0.9,17791],[0.8,17875],[0.4,17958],[0.1,18041],[6.1,24961],[22.6,25045],[43.8,25128],[65.4,25211],[67.3,25295],[70.4,25378],[81,25461],[85.6,25545],[89.6,25629],[91.3,25712],[92.4,25795],[93.1,25878],[94,25961],[94.5,26045],[94.5,26129],[94.5,26212],[94.5,26295],[94.5,26379],[94.5,26462],[94.5,26545],[94.5,26628],[94.5,26712],[94.5,26795],[94.5,26879],[94.5,26962],[94.5,27045],[94.5,27129],[94.5,27212],[94.5,27296],[94.5,27379],[94.5,27462],[94.6,27546],[94.8,27629],[94.8,27712],[94.8,27796],[94.6,27879],[94.6,27962],[94.6,28046],[94.6,28129],[94.7,28212],[94.7,28296],[94.7,28379],[94.7,28462],[94.7,28546],[94.7,28629],[94.7,28713],[94.4,28796],[94,28879],[93.8,28963],[93.8,29046],[93.8,29130],[93.8,29213],[93.5,29296],[93.1,29380]]",1,0,910.5721,912.8068,91.443539,1.2562,"[{""rating"":91.44353899883586,""responseTime"":1.2561999999880982}]",space,1.7016,,912.8069,Partially,50,912.8093,,,[],,0,11,11,11,1,audio/Narrative8Situation2.wav,audio/Narrative7Situation2.wav,audio/Narrative6Situation2.wav,audio/Narrative5Situation2.wav,3,3,3,3,,,,,,,,,,,,,,,,,,,,,,,,,,,,,,,,,,,,,,,
,,,,,,661b08a7e0f98b7283c4d649,2024-05-13_09h33.10.941,group3.1-3.2-social-tom,2023.2.2,Win32,59.52380952,65c5074098b851296ff0b7ed,664232786a6b6c02e55b3622,,,,,,,,,,,,,,,,,,,,,,,,,,,,,912.8096,2,audio/Narrative5Situation3.wav,915.8247,,915.8247,929.7309,"[[89,1167],[79,1250],[73.2,1333],[70,1417],[69.4,1500],[65.8,1583],[59,1667],[54.3,1750],[44.1,1834],[31.3,1917],[24.9,2000],[23.2,2084],[18.2,2167],[11,2250],[7.5,2334],[5.6,2417],[5.5,2500],[5.5,2584],[5.3,2668],[5.3,2751],[11.5,2834],[32.9,2917],[44.1,3001],[54.7,3084],[64.8,3168],[72.2,3251],[86.7,3334],[89.3,3417],[94,3501],[97.6,3584],[98,3668],[100,3751],[100,3834],[100,3918],[100,4001],[100,4084],[100,4168],[100,4251],[100,4334],[100,4418],[100,4501],[100,4585],[100,4669],[100,4752],[100,4835],[100,4918],[100,5002],[100,5085],[100,5168],[100,5252],[100,5336],[100,5419],[100,5502],[100,5585],[100,5668],[100,5752],[100,5835],[100,5919],[100,6002],[100,6085],[100,6169],[100,6252],[100,6336],[100,6419],[100,6502],[100,6586],[100,6669],[100,6752],[100,6836],[100,6919],[100,7003],[100,7086],[100,7169],[100,7252],[100,7336],[100,7419],[100,7503],[100,7586],[100,7670],[100,7753],[100,7836],[100,7920],[100,8003],[100,8086],[100,8170],[100,8253],[100,8336],[100,8420],[100,8503],[100,8587],[100,8670],[100,8753],[100,8837],[100,8920],[100,9003],[100,9087],[100,9170],[100,9253],[100,9337],[100,9420],[100,9504],[100,9587],[100,9670],[100,9754],[100,9837],[100,9921],[100,10004],[100,10087],[100,10171],[100,10254],[100,10337],[100,10421],[100,10504],[100,10587],[100,10671],[100,10754],[100,10838],[100,10921],[100,11004],[100,11088],[100,11171],[100,11254],[100,11338],[100,11421],[100,11504],[100,11588],[100,11672],[100,11755],[100,11838],[100,11922],[100,12005],[100,12088],[100,12171],[100,12255],[100,12338],[100,12422],[100,12505],[100,12589],[100,12672],[100,12755],[100,12838],[100,12922],[100,13006],[100,13089],[100,13172],[100,13255],[100,13339],[100,13422],[100,13506],[100,13589],[100,13672],[100,13755],[100,13839]]",1,0,929.731,932.7654,99.70896391,2.2062,"[{""rating"":99.70896391152503,""responseTime"":2.20619999998803}]",space,2.5089,,932.7655,Not at all,0,932.7669,,,[],,0,12,12,12,1,audio/Narrative8Situation3.wav,audio/Narrative7Situation3.wav,audio/Narrative6Situation3.wav,audio/Narrative5Situation3.wav,4,8,5,3,,,,,,,,,,,,,,,,,,,,,,,,,,,,,,,,,,,,,,,
,,,,,,661b08a7e0f98b7283c4d649,2024-05-13_09h33.10.941,group3.1-3.2-social-tom,2023.2.2,Win32,59.52380952,65c5074098b851296ff0b7ed,664232786a6b6c02e55b3622,,,,,,,,,,,,,,,,,,,,,,,,,,,,,932.7671,2,audio/Narrative5Situation4.wav,933.7831,,933.7832,954.1754,"[[100,1500],[100,2000],[37.5,2250],[31.8,2333],[24.7,2417],[21.8,2500],[21.7,2584],[21.6,2667],[26.4,2750],[33.2,2834],[37.7,2917],[40.7,3000],[46.3,3084],[49.1,3167],[52.3,3251],[53.1,3334],[53.1,3419],[42.4,3500],[37.1,3584],[33.4,3667],[28.1,3751],[15,3834],[8,3918],[7.5,4001],[7.4,4084],[7.4,4168],[7.4,4251],[7.4,4334],[7.4,4418],[7.4,4501],[7.4,4585],[7.4,4668],[7.4,4751],[7.4,4835],[7.4,4918],[7.4,5001],[7.4,5085],[7.4,5168],[7.4,5251],[7.4,5335],[7.4,5418],[7.4,5502],[7.4,5585],[7.4,5668],[7.4,5752],[7.4,5835],[7.4,5918],[7.4,6001],[7.4,6085],[7.4,6168],[7.4,6252],[7.4,6335],[7.4,6419],[7.4,6502],[7.4,6585],[7.4,6668],[7.4,6752],[7.4,6836],[7.4,6919],[7.4,7002],[7.4,7085],[7.4,7169],[7.4,7252],[7.4,7336],[7.4,7419],[7.4,7502],[7.3,7586],[7.6,7669],[8.4,7752],[8.7,7836],[9.1,7919],[9.6,8002],[10.1,8086],[10.3,8170],[10.7,8253],[10.8,8336],[11,8420],[11,8503],[11,8586],[11,8670],[11,8753],[11,8836],[11,8920],[11,9003],[11,9086],[11,9170],[11,9253],[11,9337],[11,9420],[11,9503],[11,9587],[11,9670],[11,9753],[11,9837],[11,9920],[11,10004],[11,10087],[11,10171],[11,10254],[11,10337],[11,10420],[11,10504],[11,10587],[11,10671],[11,10754],[11,10837],[11,10921],[11,11004],[11,11087],[11,11171],[11,11254],[11,11337],[11,11421],[11,11504],[11,11588],[11,11671],[11,11754],[11,11838],[11,11921],[11,12004],[11,12088],[11,12171],[11,12255],[11,12338],[11,12422],[11,12505],[11,12588],[11.1,12671],[11.1,12755],[11.4,12838],[11.4,12921],[11.4,13005],[11.4,13088],[11.4,13172],[11.4,13255],[11.7,13339],[12.5,13422],[13.1,13505],[13.4,13589],[13.9,13672],[14,13755],[14,13839],[14,13922],[14,14005],[14,14089],[14,14173],[14,14255],[14,14339],[14,14422],[14,14506],[14,14589],[14,14672],[14,14756],[14,14839],[14,14922],[14,15006],[14,15089],[14,15173],[14,15256],[14,15339],[14,15423],[14,15506],[14,15589],[14,15673],[14,15756],[14,15839],[14,15923],[14,16006],[14,16090],[14,16173],[14,16256],[14,16340],[14,16423],[14,16507],[14,16590],[14,16674],[14,16757],[14,16840],[14,16923],[14,17007],[14,17090],[13.9,17173],[13.8,17257],[13.8,17340],[13.8,17424],[13.8,17507],[13.8,17591],[13.8,17674],[13.8,17757],[13.8,17841],[13.8,17924],[13.8,18007],[13.8,18091],[13.8,18174],[13.8,18257],[13.8,18341],[13.8,18424],[13.8,18507],[13.8,18591],[13.8,18674],[13.8,18758],[13.8,18841],[13.8,18924],[13.8,19008],[13.8,19091],[13.8,19175],[13.8,19258],[13.8,19341],[13.8,19425],[13.8,19508],[13.8,19591],[13.8,19674],[13.8,19758],[13.8,19841],[13.8,19925],[13.9,20008],[14,20092],[14,20175],[14,20258],[14.1,20342]]",1,0,954.1756,957.4652,100,2.5155,"[{""rating"":96.56577415599534,""responseTime"":1.5070000000000618},{""rating"":100,""responseTime"":2.515500000000088}]",space,2.7401,,957.4653,Partially,50,957.4692,,,[],,0,13,13,13,1,audio/Narrative8Situation4.wav,audio/Narrative7Situation4.wav,audio/Narrative6Situation4.wav,audio/Narrative5Situation4.wav,3,3,2,1,,,,,,,,,,,,,,,,,,,,,,,,,,,,,,,,,,,,,,,
,,,,,,661b08a7e0f98b7283c4d649,2024-05-13_09h33.10.941,group3.1-3.2-social-tom,2023.2.2,Win32,59.52380952,65c5074098b851296ff0b7ed,664232786a6b6c02e55b3622,,,,,,,,,,,,,,,,,,,,,,,,,,,,,957.4694,2,audio/Narrative5Situation5.wav,962.4794,,962.4794,977.8864,"[[100,83],[100,166],[100,249],[100,333],[100,416],[100,500],[100,586],[100,666],[100,750],[57.7,1000],[45.2,1087],[39.9,1166],[39.8,1250],[40.5,1333],[52,1420],[54,1505],[54.1,1583],[54.1,1667],[48.5,1750],[38.9,1834],[25.3,1922],[2.3,2000],[2.2,2339],[6.5,2417],[7,2500],[7.5,2584],[8.1,2673],[8.7,2751],[8.7,2834],[8,2922],[7.9,3004],[7.9,3084],[7.9,3168],[7.7,3250],[8.2,3334],[8.6,3418],[8.7,3501],[8.7,3584],[8.7,3667],[8.7,3751],[8.7,3838],[8.7,3917],[8.7,4001],[8.7,4085],[8.7,4168],[8.7,4251],[8.3,4338],[3.1,4418],[2,4501],[2,4585],[2,4668],[2,4751],[1.9,4835],[1.9,4918],[1.9,5006],[1.9,5085],[1.9,5168],[1.9,5252],[2.2,5335],[3.2,5424],[6.2,5502],[8.2,5585],[9.3,5669],[11.5,5752],[14.4,5840],[15.7,5923],[16.7,6002],[17.6,6091],[18.8,6169],[18.9,6252],[18.9,6336],[18.5,6423],[13.1,6506],[9.5,6591],[6.5,6669],[0.8,6752]]",1,0,977.8866,980.2542,0.291036088,1.2124,"[{""rating"":0.29103608847497187,""responseTime"":1.2123999999762418}]",space,1.818,,980.2542,Partially,50,980.2556,,,[],,0,14,14,14,1,audio/Narrative8Situation5.wav,audio/Narrative7Situation5.wav,audio/Narrative6Situation5.wav,audio/Narrative5Situation5.wav,2,5,2,5,,,,,,,,,,,,,,,,,,,,,,,,,,,,,,,,,,,,,,,
,,,,,,661b08a7e0f98b7283c4d649,2024-05-13_09h33.10.941,group3.1-3.2-social-tom,2023.2.2,Win32,59.52380952,65c5074098b851296ff0b7ed,664232786a6b6c02e55b3622,,,,,,,,,,,,,,,,,,,,,,,,,,,,,980.2559,2,audio/Narrative5Situation6.wav,983.2598,,983.2599,988.9582,"[[5.3,500],[5.4,578],[5.4,662],[5.4,745],[5.4,829],[1.8,916],[0.4,3746],[1.1,3835],[1.8,3913],[2.4,3997],[3,4080],[4.4,4164],[5.8,4247],[8,4330],[13.4,4418],[31.5,4497],[44.5,4580],[54.1,4668],[62.3,4747],[63.4,4832],[63.4,4914],[63.4,4997],[61.6,5080],[59,5164],[53.1,5247],[52.7,5330],[52.7,5414],[52.6,5497],[54.7,5586],[54.9,5664]]",1,0,988.9583,990.9752,49.65075669,0.9926,"[{""rating"":49.65075669383003,""responseTime"":0.9926000000239128}]",space,1.4768,,990.9752,Not at all,0,990.9768,,,[],,0,15,15,15,1,audio/Narrative8Situation6.wav,audio/Narrative7Situation6.wav,audio/Narrative6Situation6.wav,audio/Narrative5Situation6.wav,2,3,2,3,,,,,,,,,,,,,,,,,,,,,,,,,,,,,,,,,,,,,,,
,,,,,,661b08a7e0f98b7283c4d649,2024-05-13_09h33.10.941,group3.1-3.2-social-tom,2023.2.2,Win32,59.52380952,65c5074098b851296ff0b7ed,664232786a6b6c02e55b3622,,,,,,,,,,,,,,,,,,,,,,,,,,,,,990.9769,2,audio/Narrative5Situation7.wav,994.9776,,994.9776,1016.0248,"[[48.7,86],[48.6,166],[48.6,249],[48.6,333],[48.6,416],[44.8,499],[38.6,587],[35.1,666],[26.8,754],[22.5,833],[19.3,920],[18.1,1000],[17.3,1083],[17.3,1166],[20.2,1255],[21,1333],[21.4,1417],[21.4,1500],[19.5,1583],[15.2,1666],[12.9,1750],[9.4,1833],[8.8,1921],[8.1,2000],[6.8,2084],[6,2171],[5.3,2250],[4.5,2336],[4,2417],[3.4,2500],[3.1,2588],[3.1,2667],[2.9,2750],[2.7,2834],[2.7,2917],[2.7,3004],[2.7,3084],[2.7,3171],[2.7,3251],[1.9,3335],[0.9,3420],[0.3,10758],[0.8,10838],[1.1,10921],[1.6,11013],[1.8,11087],[1.8,11175],[1.8,11254],[1.8,11341],[1.8,11421],[1.8,11504],[1.8,11588],[1.8,11671],[1.8,11754],[1.8,11838],[1.8,11927],[1.6,12009],[0.4,12088]]",1,0,1016.0249,1019.0717,0.523864959,1.5694,"[{""rating"":0.5238649592549494,""responseTime"":1.5693999999762127}]",space,2.5006,,1019.0718,Not at all,0,1019.0737,,,[],,0,16,16,16,1,audio/Narrative8Situation7.wav,audio/Narrative7Situation7.wav,audio/Narrative6Situation7.wav,audio/Narrative5Situation7.wav,3,5,5,4,,,,,,,,,,,,,,,,,,,,,,,,,,,,,,,,,,,,,,,
,,,,,,661b08a7e0f98b7283c4d649,2024-05-13_09h33.10.941,group3.1-3.2-social-tom,2023.2.2,Win32,59.52380952,65c5074098b851296ff0b7ed,664232786a6b6c02e55b3622,,,,,,,,,,,,,,,,,,,,,,,,,,,,,1019.0739,2,audio/Narrative5Situation8.wav,1022.0944,,1022.0944,1030.9269,"[[0.9,1328],[1.6,1412],[1.7,1499],[2.2,1579],[2.2,1667],[2.2,1745],[2.2,1829],[1.1,1917],[0.1,4664],[0.4,4752],[1,4830],[1.5,4914],[2.2,4997],[3.1,5080],[3.8,5164],[3.8,5251],[3.8,5331],[3.8,5414],[2.5,5497],[0.8,5580],[0.4,5664]]",1,0,1030.927,1033.3614,0.407450524,1.5513,"[{""rating"":0.4074505238649606,""responseTime"":1.5513000000119064}]",space,1.8867,,1033.3614,Definitely yes,100,1033.3646,,,[],,0,17,17,17,1,audio/Narrative8Situation8.wav,audio/Narrative7Situation8.wav,audio/Narrative6Situation8.wav,audio/Narrative5Situation8.wav,3,2,5,3,,,,,,,,,,,,,,,,,,,,,,,,,,,,,,,,,,,,,,,
,,,,,,661b08a7e0f98b7283c4d649,2024-05-13_09h33.10.941,group3.1-3.2-social-tom,2023.2.2,Win32,59.52380952,65c5074098b851296ff0b7ed,664232786a6b6c02e55b3622,,,,,,,,,,,,,,,,,,,,,,,,,,,,,1033.3649,2,audio/Narrative5Situation9.wav,1036.3857,,1036.3858,1075.9309,"[[0.5,576],[1,660],[2.2,748],[7,827],[8.8,910],[10.3,994],[11,1076],[10.2,1164],[3.6,1248],[4,4416],[12.3,4495],[21.7,4583],[31.7,4662],[44.1,4749],[51,4829],[51.2,4915],[51.4,5000],[51.6,5078],[51.6,5162],[51.7,5246],[51.9,5329],[52,5419],[52.1,5496],[52.3,5579],[52.3,5662],[52.3,5746],[52.3,5834],[52.3,5912],[52.6,6000],[50.7,6079],[48.7,6162],[47.9,6246],[47.3,6329],[47.3,6413],[47.1,6496],[46.9,6579],[46.6,6668],[46.6,6746],[46.6,6830],[46.6,6913],[46.6,6997],[46.4,7082],[46.3,7163],[45.9,7246],[45.7,7330],[45.5,7416],[45,7497],[44.8,7580],[44.5,7668],[44.5,7746],[45.1,7831],[45.7,7913],[46,7997],[46,8080],[46,8163],[46,8247],[46,8335],[46,8413],[46.5,8497],[47.4,8585],[48.4,8664],[50.1,8752],[51.7,8831],[52.8,8914],[53.1,9002],[54.1,9086],[54.9,9164],[55,9248],[55.4,9336],[56.2,9419],[57.2,9502],[59.2,9585],[61.1,9664],[64,9752],[67.8,9836],[70.3,9920],[72.8,10002],[76.1,10085],[78.8,10169],[80.4,10248],[83.8,10336],[86,10420],[88,10502],[90.5,10581],[91.3,10665],[92.4,10751],[94.7,10836],[98,10915],[99.1,10998],[99.1,11081],[99.2,11169],[99.2,11253],[99.2,11332],[99.2,11415],[99.2,11503],[99.2,11582],[99.2,11669],[98.8,11754],[98.3,11832],[97.6,11915],[97,11998],[97,12087],[97,12165],[97,12249],[96.9,12332],[97.5,12421],[97.8,12499],[99.1,12582],[100,12665],[100,12749],[100,12832],[100,12921],[100,12999],[100,13082],[100,13166],[100,13253],[100,13337],[100,13416],[100,13499],[100,13582],[100,13670],[100,13749],[100,13833],[100,13916],[100,13999],[100,14083],[100,14166],[100,14250],[100,14333],[100,14416],[100,14500],[100,14583],[100,14666],[100,14750],[100,14834],[100,14916],[100,15000],[100,15084],[100,15167],[100,15250],[100,15333],[100,15417],[100,15501],[100,15584],[100,15667],[100,15750],[100,15838],[100,15922],[100,16000],[100,16084],[100,16171],[100,16250],[100,16334],[100,16417],[100,16500],[100,16584],[100,16667],[100,16751],[100,16835],[100,16917],[100,17001],[100,17089],[100,17168],[100,17254],[100,17335],[100,17417],[99.8,17501],[99.6,17584],[99.5,17668],[99,17751],[98.2,17835],[97.3,17922],[96.9,18007],[96.6,18085],[96.3,18168],[95.6,18256],[95.2,18335],[95.2,18418],[95.2,18501],[95.2,18585],[95.2,18668],[95.2,18751],[95.2,18835],[95.2,18918],[95.2,19002],[95.2,19085],[95.2,19173],[95.2,19252],[95.2,19335],[95.2,19419],[95.2,19502],[95.5,19585],[95.5,19669],[95.6,19752],[95.6,19835],[95.6,19919],[95.6,20007],[95.6,20086],[95.6,20174],[95.6,20252],[95.6,20336],[95.6,20424],[95.6,20502],[95.6,20586],[95.6,20669],[95.6,20752],[95.6,20836],[95.6,20919],[95.6,21003],[95.6,21086],[95.6,21170],[95.6,21252],[95.6,21336],[95.6,21420],[95.6,21503],[95.6,21586],[95.6,21674],[95.6,21753],[95.6,21836],[95.6,21920],[95.6,22003],[95.6,22086],[95.6,22170],[95.6,22253],[95.6,22336],[95.6,22420],[95.6,22503],[95.6,22591],[95.6,22670],[95.6,22758],[95.6,22837],[95.6,22920],[95.6,23003],[95.6,23087],[95.6,23170],[95.6,23254],[95.6,23342],[95.6,23420],[95.6,23503],[95.6,23587],[95.6,23670],[95.6,23754],[95.6,23837],[95.6,23921],[95.6,24004],[95.6,24088],[95.6,24176],[95.6,24254],[95.6,24338],[95.6,24421],[95.6,24504],[95.6,24592],[95.6,24671],[95.6,24760],[95.6,24842],[95.6,24921],[95.6,25009],[95.6,25088],[95.6,25171],[95.6,25254],[95.6,25338],[95.6,25426],[95.6,25505],[95.6,25588],[95.6,25672],[95.6,25755],[95.6,25843],[95.6,25921],[95.6,26005],[95.6,26088],[95.6,26172],[95.6,26255],[95.6,26340],[95.6,26422],[95.6,26505],[95.6,26592],[95.6,26676],[95.6,26755],[95.6,26838],[95.6,26922],[95.6,27006],[95.6,27089],[95.6,27172],[95.6,27256],[95.6,27339],[95.6,27422],[95.6,27510],[95.6,27589],[95.6,27672],[95.6,27756],[95.6,27841],[95.6,27923],[95.6,28006],[95.6,28089],[95.6,28173],[95.6,28260],[95.6,28344],[95.6,28423],[95.6,28506],[95.6,28595],[95.6,28673],[95.6,28756],[95.6,28840],[95.6,28923],[95.6,29006],[95.6,29090],[95.6,29176],[95.6,29257],[95.6,29340],[95.6,29423],[95.6,29507],[95.6,29595],[95.6,29673],[95.6,29757],[95.6,29840],[95.6,29923],[95.6,30011],[95.6,30090],[95.6,30174],[95.6,30262],[95.6,30340],[95.6,30429],[95.6,30511],[95.6,30594],[95.6,30674],[95.6,30757],[95.6,30845],[95.6,30924],[95.6,31007],[95.6,31090],[95.6,31174],[95.6,31262],[95.6,31340],[95.6,31429],[95.6,31508],[95.6,31591],[95.6,31679],[95.6,31758],[95.6,31841],[95.6,31924],[95.6,32008],[95.6,32091],[95.6,32174],[95.6,32258],[95.6,32341],[95.8,32425],[95.8,32513],[95.8,32595],[95.8,32674],[95.8,32758],[95.8,32846],[95.8,32924],[95.8,33008],[95.8,33092],[95.8,33175],[95.8,33258],[95.6,33346],[95.5,33425],[95.5,33508],[95.4,33597],[95.4,33675],[95.4,33759],[95.4,33842],[95.4,33925],[95.4,34008],[95.4,34092],[95.4,34180],[95.4,34264],[95.4,34342],[95.3,34425],[95.3,34509],[95.3,34597],[95.3,34675],[95.3,34764],[95.3,34842],[95.3,34926],[95.3,35014],[95.3,35093],[95.3,35176],[95.3,35259],[95.3,35342],[95.3,35426],[95.3,35509],[95.3,35593],[95.3,35680],[95.3,35760],[95.3,35848],[95.3,35926],[95.3,36009],[95.3,36093],[95.3,36176],[95.3,36259],[95.3,36343],[95.3,36426],[95.3,36510],[95.2,36597],[95.2,36677],[95.2,36760],[95.2,36843],[95.2,36927],[95.2,37010],[95.6,37093],[95.9,37177],[96.3,37265],[96.6,37343],[96.7,37427],[96.7,37510],[96.7,37593],[96.7,37677],[96.7,37762],[96.7,37844],[96.7,37927],[96.7,38010],[96.7,38094],[96.7,38182],[96.7,38260],[96.8,38346],[96.9,38427],[97,38510],[97.1,38694],[97.4,38777],[97.6,38865],[97.6,38944],[97.7,39027],[97.7,39111],[97.8,39198],[97.8,39278],[97.8,39361],[97.8,39444],[97.8,39528]]",1,0,1075.9312,1078.5818,96.10011641,1.2597,"[{""rating"":96.10011641443539,""responseTime"":1.2596999999880154}]",space,2.1077,,1078.582,Definitely yes,100,1084.1345,99.82537835,4.1954,"[{""rating"":99.82537834691502,""responseTime"":4.195399999976189}]",space,0,18,18,18,1,audio/Narrative8Situation9.wav,audio/Narrative7Situation9.wav,audio/Narrative6Situation9.wav,audio/Narrative5Situation9.wav,3,2,4,3,,,5.019,,,,,,,,,,,,,,,,,,,,,,,,,,,,,,,,,,,,
,,,,,,661b08a7e0f98b7283c4d649,2024-05-13_09h33.10.941,group3.1-3.2-social-tom,2023.2.2,Win32,59.52380952,65c5074098b851296ff0b7ed,664232786a6b6c02e55b3622,,,,,,,,,,,,,,,,,,,,,,,,,,,,,,,,,,,,,,,,,,,,,,,,,,,,,,,,,,,,,,,,,,,,,,,,1084.1347,1086.1685,space,1.5114,,1086.1687,1099.0422,space,12.5297,,,,,,,,,,,,,,,,,,,,,,,,,,
