exp_question,consent.started,consent.stopped,consentResponse.keys,consentResponse.rt,consentResponse.duration,participantID,date,expName,psychopyVersion,OS,frameRate,STUDY_ID,SESSION_ID,opening1.started,opening1.stopped,keyEndingOpening1.keys,keyEndingOpening1.rt,keyEndingOpening1.duration,volumeAdjust.started,volumeAdjust.stopped,endingAdjust.keys,endingAdjust.rt,endingAdjust.duration,opening2.started,opening2.stopped,keyEndingOpening.keys,keyEndingOpening.rt,keyEndingOpening.duration,mouse.x,mouse.y,mouse.leftButton,mouse.midButton,mouse.rightButton,mouse.time,instructionLoop.thisRepN,instructionLoop.thisTrialN,instructionLoop.thisN,instructionLoop.thisIndex,instructionLoop.ran,readyForAudio.started,readyForAudio.stopped,fixation.started,run,audio_played,fixation.stopped,endPractice.keys,audioPre.started,audioPre.stopped,continuousResponses_audio,continuousSlider.response,continuousSlider.rt,intRating.started,intRating.stopped,intQuestionSlider.response,intQuestionSlider.rt,intQuestionSlider.history,confirmResponse.keys,confirmResponse.rt,confirmResponse.duration,catchQuestion.started,catch_label,catch_value,catchQuestion.stopped,catchQuestionSlider.response,catchQuestionSlider.rt,catchQuestionSlider.history,confirmResponse_2.keys,audioRunLoop.thisRepN,audioRunLoop.thisTrialN,audioRunLoop.thisN,audioRunLoop.thisIndex,audioRunLoop.ran,conditions1_1,conditions2_1,conditions1_2,conditions2_2,dur1_1,dur2_1,dur1_2,dur2_2,endPractice.rt,endPractice.duration,confirmResponse_2.rt,confirmResponse_2.duration,runIntervalBreak.started,runIntervalBreak.stopped,endingBreakKey.keys,endingBreakKey.rt,endingBreakKey.duration,connection.started,connection.stopped,connectionEnding.keys,connectionEnding.rt,connectionEnding.duration,readyForText.started,readyForText.stopped,textPre.started,run_dup,textPre.stopped,continuousResponses_text,textRunLoop.thisRepN,textRunLoop.thisTrialN,textRunLoop.thisN,textRunLoop.thisIndex,textRunLoop.ran,text1_1,text1_2,text2_1,text2_2,runBreakText.started,runBreakText.stopped,endingBreakKey_2.keys,endingBreakKey_2.rt,endingBreakKey_2.duration,ending.started,ending.stopped,endingEnding.keys,endingEnding.rt,endingEnding.duration
tom,0.0002,25.9734,y,25.6516,,661e74ab1c19b177f9c5bb14,2024-05-13_08h30.06.908,group3.1-3.2-social-tom,2023.2.2,MacIntel,56.49717514,65c5074098b851296ff0b7ed,664231edb618aaa09c6cbdf3,,,,,,,,,,,,,,,,,,,,,,,,,,,,,,,,,,,,,,,,,,,,,,,,,,,,,,,,,,,,,,,,,,,,,,,,,,,,,,,,,,,,,,,,,,,,,,,,,,,,,,,,,,
,,,,,,661e74ab1c19b177f9c5bb14,2024-05-13_08h30.06.908,group3.1-3.2-social-tom,2023.2.2,MacIntel,56.49717514,65c5074098b851296ff0b7ed,664231edb618aaa09c6cbdf3,25.9737,35.5077,space,9.5086,,,,,,,,,,,,,,,,,,,,,,,,,,,,,,,,,,,,,,,,,,,,,,,,,,,,,,,,,,,,,,,,,,,,,,,,,,,,,,,,,,,,,,,,,,,,,,,,,,,,,,
,,,,,,661e74ab1c19b177f9c5bb14,2024-05-13_08h30.06.908,group3.1-3.2-social-tom,2023.2.2,MacIntel,56.49717514,65c5074098b851296ff0b7ed,664231edb618aaa09c6cbdf3,,,,,,35.5078,62.9085,space,27.0672,,,,,,,,,,,,,,,,,,,,,,,,,,,,,,,,,,,,,,,,,,,,,,,,,,,,,,,,,,,,,,,,,,,,,,,,,,,,,,,,,,,,,,,,,,,,,,,,,
,,,,,,661e74ab1c19b177f9c5bb14,2024-05-13_08h30.06.908,group3.1-3.2-social-tom,2023.2.2,MacIntel,56.49717514,65c5074098b851296ff0b7ed,664231edb618aaa09c6cbdf3,,,,,,,,,,,62.9198,81.6588,space,18.7147,,[],[],[],[],[],[],0,0,0,0,1,,,,,,,,,,,,,,,,,,,,,,,,,,,,,,,,,,,,,,,,,,,,,,,,,,,,,,,,,,,,,,,,,,,,,,,,,,,,,,,,
,,,,,,661e74ab1c19b177f9c5bb14,2024-05-13_08h30.06.908,group3.1-3.2-social-tom,2023.2.2,MacIntel,56.49717514,65c5074098b851296ff0b7ed,664231edb618aaa09c6cbdf3,,,,,,,,,,,81.6676,110.4249,space,28.7067,,[],[],[],[],[],[],1,0,1,0,1,,,,,,,,,,,,,,,,,,,,,,,,,,,,,,,,,,,,,,,,,,,,,,,,,,,,,,,,,,,,,,,,,,,,,,,,,,,,,,,,
,,,,,,661e74ab1c19b177f9c5bb14,2024-05-13_08h30.06.908,group3.1-3.2-social-tom,2023.2.2,MacIntel,56.49717514,65c5074098b851296ff0b7ed,664231edb618aaa09c6cbdf3,,,,,,,,,,,110.4354,138.625,space,28.1583,,[],[],[],[],[],[],2,0,2,0,1,,,,,,,,,,,,,,,,,,,,,,,,,,,,,,,,,,,,,,,,,,,,,,,,,,,,,,,,,,,,,,,,,,,,,,,,,,,,,,,,
,,,,,,661e74ab1c19b177f9c5bb14,2024-05-13_08h30.06.908,group3.1-3.2-social-tom,2023.2.2,MacIntel,56.49717514,65c5074098b851296ff0b7ed,664231edb618aaa09c6cbdf3,,,,,,,,,,,138.6334,155.1249,space,16.4684,,[],[],[],[],[],[],3,0,3,0,1,,,,,,,,,,,,,,,,,,,,,,,,,,,,,,,,,,,,,,,,,,,,,,,,,,,,,,,,,,,,,,,,,,,,,,,,,,,,,,,,
,,,,,,661e74ab1c19b177f9c5bb14,2024-05-13_08h30.06.908,group3.1-3.2-social-tom,2023.2.2,MacIntel,56.49717514,65c5074098b851296ff0b7ed,664231edb618aaa09c6cbdf3,,,,,,,,,,,155.1333,167.6656,space,12.5078,,[],[],[],[],[],[],4,0,4,0,1,,,,,,,,,,,,,,,,,,,,,,,,,,,,,,,,,,,,,,,,,,,,,,,,,,,,,,,,,,,,,,,,,,,,,,,,,,,,,,,,
,,,,,,661e74ab1c19b177f9c5bb14,2024-05-13_08h30.06.908,group3.1-3.2-social-tom,2023.2.2,MacIntel,56.49717514,65c5074098b851296ff0b7ed,664231edb618aaa09c6cbdf3,,,,,,,,,,,,,,,,,,,,,,,,,,,167.6781,170.2576,170.2771,1,audio/Narrative13Situation2.wav,172.2802,,172.2803,202.0258,"[[999,0],[999,94],[999,177],[999,261],[999,344],[999,427],[999,511],[999,594],[999,677],[999,761],[999,844],[999,927],[999,1011],[999,1094],[999,1177],[999,1260],[999,1344],[999,1426],[999,1511],[999,1594],[999,1677],[999,1761],[999,1844],[999,1927],[999,2010],[999,2094],[999,2177],[999,2261],[999,2344],[999,2428],[999,2511],[999,2594],[999,2677],[999,2761],[999,2844],[999,2927],[999,3011],[999,3094],[999,3177],[999,3260],[999,3344],[999,3428],[999,3511],[999,3594],[999,3677],[999,3761],[999,3844],[999,3928],[999,4011],[999,4094],[999,4178],[999,4261],[999,4344],[999,4428],[999,4511],[999,4594],[999,4677],[999,4761],[999,4844],[999,4926],[999,5011],[999,5094],[999,5177],[999,5261],[999,5344],[999,5427],[999,5511],[999,5594],[999,5677],[999,5761],[999,5844],[999,5927],[999,6011],[999,6094],[999,6178],[999,6261],[999,6343],[999,6427],[999,6511],[999,6594],[999,6677],[999,6761],[999,6844],[999,6928],[999,7011],[999,7094],[999,7177],[999,7261],[999,7344],[999,7427],[999,7511],[999,7594],[999,7677],[999,7761],[999,7844],[999,7928],[999,8011],[999,8093],[999,8177],[999,8261],[999,8344],[999,8428],[999,8511],[999,8594],[999,8677],[999,8761],[999,8844],[999,8927],[999,9011],[999,9094],[999,9177],[999,9260],[999,9344],[999,9427],[999,9511],[999,9594],[999,9677],[999,9761],[999,9844],[999,9927],[999,10011],[999,10094],[999,10177],[999,10261],[999,10344],[999,10427],[999,10511],[999,10595],[999,10678],[999,10761],[999,10844],[999,10927],[999,11011],[999,11094],[999,11177],[999,11261],[999,11344],[999,11428],[999,11511],[999,11594],[999,11678],[999,11761],[999,11844],[999,11928],[999,12011],[59.2,12094],[58.8,12178],[58.6,12261],[58.6,12344],[58.7,12428],[58.8,12511],[60.1,12594],[61.1,12677],[62.5,12761],[62.9,12844],[63.7,12927],[64.6,13011],[65.3,13094],[65.8,13177],[65.8,13261],[65.8,13344],[65.8,13427],[65.8,13511],[65.8,13594],[65.8,13677],[65.9,13761],[66,13844],[66,13928],[66.3,14011],[66.4,14094],[67.1,14178],[67.5,14261],[67.9,14344],[67.9,14427],[67.9,14511],[67.9,14594],[67.9,14677],[67.9,14761],[67.9,14844],[67.9,14927],[67.9,15011],[67.9,15094],[67.9,15177],[67.9,15261],[67.9,15344],[67.9,15427],[67.9,15511],[67.9,15594],[67.9,15676],[67.9,15761],[67.9,15844],[67.9,15928],[67.9,16010],[67.9,16094],[67.9,16177],[67.8,16261],[67.5,16344],[67.3,16428],[67,16511],[66.6,16594],[66.4,16677],[65.9,16761],[65.7,16845],[65.6,16928],[65.6,17011],[65.6,17094],[66.2,17177],[68,17261],[68.5,17344],[68.7,17427],[68.8,17511],[68.8,17594],[68.8,17677],[68.8,17761],[68.8,17844],[68.8,17927],[68.8,18011],[68.8,18094],[68.8,18177],[68.6,18261],[68.2,18344],[68,18427],[67.8,18511],[67.7,18595],[67.5,18677],[67.5,18761],[67.5,18844],[67.5,18927],[67.5,19011],[67.5,19094],[67.5,19177],[67.5,19261],[67.5,19344],[67.5,19428],[67.5,19511],[67.5,19594],[67.5,19677],[67.5,19760],[67.5,19844],[67.5,19927],[67.5,20011],[67.5,20094],[67.5,20177],[67.5,20261],[67.5,20344],[67.5,20427],[67.5,20511],[67.5,20594],[67.5,20677],[67.5,20761],[67.5,20844],[67.5,20927],[67.5,21011],[67.5,21093],[67.5,21177],[67.5,21261],[67.5,21344],[67.5,21427],[67.5,21511],[67.5,21594],[67.3,21678],[66.9,21761],[66.3,21844],[66,21928],[65.7,22011],[65.1,22095],[65,22177],[64.8,22261],[64.6,22344],[64.2,22427],[63.4,22511],[61.2,22594],[59.3,22677],[58,22761],[57.5,22844],[57.5,22927],[57.5,23011],[57.5,23094],[57.5,23177],[57.5,23261],[57.5,23344],[57.5,23427],[57.5,23511],[57.5,23594],[55.9,23678],[54.4,23760],[52.5,23844],[50.8,23928],[49.2,24011],[47.2,24094],[45.8,24178],[45.1,24261],[44.5,24344],[43.8,24428],[43.3,24511],[43.1,24594],[43.1,24677],[43.1,24761],[43.1,24844],[43.1,24927],[43.1,25011],[43.1,25094],[43.1,25177],[43.1,25261],[43.2,25344],[43.3,25427],[43.4,25511],[43.4,25595],[43.7,25678],[43.9,25761],[43.9,25844],[43.9,25927],[44.1,26010],[44.2,26095],[44.2,26177],[44.2,26261],[44.2,26344],[44.2,26427],[44.4,26511],[44.6,26594],[44.6,26677],[44.6,26760],[44.6,26844],[45.2,26928],[45.4,27011],[45.6,27094],[45.9,27177],[46.2,27261],[46.8,27345],[47.6,27428],[48,27510],[48.3,27595],[49.3,27677],[49.8,27761],[50.2,27845],[50.7,27928],[51,28011],[52,28095],[52.2,28178],[52.8,28261],[53.4,28344],[54.2,28428],[54.7,28511],[55.7,28594],[56.7,28677],[57,28761],[57.2,28844],[57.2,28927],[57.2,29011],[57.2,29094],[57.2,29177],[57.2,29261],[57.2,29344],[57.2,29427],[57.2,29511],[57.2,29594],[57.2,29677]]",1,0,202.0261,211.1758,57.23307292,5.7302,"[{""rating"":57.23307291666666,""responseTime"":5.730200000047688}]",space,8.6123,,211.1761,Not at all,0,211.1792,,,[],,0,0,0,0,1,audio/Narrative13Situation2.wav,audio/Narrative13Situation2.wav,audio/Narrative13Situation2.wav,audio/Narrative13Situation2.wav,2,2,2,2,,,,,,,,,,,,,,,,,,,,,,,,,,,,,,,,,,,,,,,
,,,,,,661e74ab1c19b177f9c5bb14,2024-05-13_08h30.06.908,group3.1-3.2-social-tom,2023.2.2,MacIntel,56.49717514,65c5074098b851296ff0b7ed,664231edb618aaa09c6cbdf3,,,,,,,,,,,,,,,,,,,,,,,,,,,,,211.1795,1,audio/Narrative7Situation1.wav,213.1923,space,213.1924,269.0921,"[[60.8,832],[60.1,916],[60,999],[60,1082],[60,1164],[60,1249],[60,1332],[60,1415],[60,1499],[59.9,1582],[58.8,1666],[56.2,1749],[54.1,1832],[52.4,1916],[50.9,1999],[49.9,2082],[49.9,2165],[49.9,2248],[49.9,2332],[49.9,2415],[49.9,2499],[49.9,2582],[49.9,2665],[49.9,2749],[49.9,2831],[49.9,2915],[49.9,2999],[49.9,3082],[49.9,3165],[49.9,3249],[49.9,3332],[49.9,3415],[49.9,3499],[49.9,3582],[49.9,3665],[49.9,3749],[49.9,3832],[49.9,3915],[49.9,3999],[49.9,4082],[49.9,4165],[49.9,4249],[49.9,4332],[49.9,4415],[49.9,4499],[49.9,4582],[49.9,4666],[49.9,4749],[49.9,4831],[49.9,4915],[49.9,4999],[49.9,5082],[49.9,5165],[49.9,5249],[49.9,5332],[49.9,5415],[49.9,5498],[49.9,5582],[49.9,5665],[49.9,5749],[49.9,5832],[49.9,5915],[49.9,5999],[49.9,6082],[49.9,6165],[50.1,6248],[50.3,6332],[50.6,6416],[50.7,6499],[51,6582],[51.2,6666],[51.6,6749],[51.7,6832],[51.9,6916],[52,6999],[52,7082],[52,7165],[52.1,7249],[52.1,7332],[52.2,7416],[52.2,7499],[52.2,7582],[52.2,7665],[52.2,7749],[52.2,7832],[52.2,7915],[52.2,7999],[52.2,8082],[52.2,8165],[52.2,8249],[52.2,8332],[52.2,8415],[52.2,8499],[52.2,8582],[52.2,8665],[52.2,8749],[52.2,8832],[52.3,8916],[54.3,8999],[55.2,9083],[55.9,9165],[56,9249],[56.1,9332],[56.2,9415],[56.2,9499],[56.3,9582],[56.7,9666],[57.5,9749],[57.7,9832],[57.9,9915],[57.9,9998],[57.9,10082],[57.9,10166],[57.9,10249],[57.9,10332],[57.9,10415],[57.9,10499],[57.9,10582],[57.9,10665],[57.9,10749],[57.9,10831],[57.9,10916],[57.9,10999],[57.9,11082],[57.9,11165],[57.9,11249],[57.9,11332],[57.9,11415],[57.9,11498],[57.9,11582],[57.9,11665],[57.9,11749],[57.9,11832],[57.9,11915],[57.9,11998],[57.9,12082],[57.9,12165],[57.9,12249],[57.9,12331],[57.9,12415],[57.9,12499],[58,12582],[60,12666],[60.1,12749],[60.2,12832],[61.3,12915],[61.5,12999],[61.5,13082],[61.5,13165],[61.5,13249],[61.5,13332],[61.5,13416],[61.5,13499],[61.5,13582],[61.5,13665],[61.4,13749],[60.9,13832],[60.5,13916],[60.3,13999],[59.6,14082],[59.1,14165],[58.7,14250],[58.1,14332],[57.7,14415],[57.7,14499],[57.6,14582],[58.3,15749],[59,15832],[59.7,15915],[60,15999],[60.3,16083],[60.4,16165],[60.4,16249],[60.4,16332],[60.4,16415],[60.4,16499],[60.4,16582],[60.4,16665],[60.4,16749],[60.4,16832],[60.4,16915],[60.4,16999],[60.4,17083],[60.6,17165],[60.8,17249],[60.9,17333],[61,17415],[61,17499],[61.4,17583],[61.6,17666],[61.6,17749],[61.8,17833],[62,17916],[62.9,17999],[63.5,18083],[63.6,18166],[63.9,18249],[64,18332],[64.1,18416],[64.3,18499],[64.5,18582],[64.8,18666],[65.4,18749],[65.8,18832],[65.8,18916],[65.8,18999],[65.8,19082],[65.8,19165],[65.8,19249],[65.8,19332],[65.8,19416],[65.8,19498],[65.8,19582],[65.9,19666],[66,19749],[66.1,19832],[66.2,19916],[66.4,19998],[66.4,20082],[66.4,20165],[66.4,20249],[66.4,20332],[66.4,20416],[66.4,20499],[66.4,20582],[66.4,20665],[66.4,20749],[66.4,20832],[66.4,20915],[66.4,20999],[66.4,21082],[66.4,21165],[65.7,21249],[65.2,21333],[64.7,21416],[64.2,21499],[64.1,21582],[64.1,21666],[64.1,21749],[64.1,21831],[64.1,21915],[64.1,21999],[64.1,22082],[64.1,22165],[64.1,22249],[64.1,22333],[64.1,22415],[64.1,22499],[64.2,22582],[64.5,22666],[64.7,22748],[64.8,22833],[65,22916],[65.2,22999],[65.4,23083],[65.8,23165],[66.9,23249],[67.2,23332],[67.3,23416],[68,23499],[68.5,23583],[69.7,23666],[70.2,23749],[71.6,23833],[72.9,23916],[75.3,23999],[76.4,24082],[76.5,24165],[76.5,24249],[76.5,24332],[76.5,24416],[76.5,24499],[76.5,24582],[76.5,24665],[76.5,24749],[76.5,24832],[76.5,24915],[76.4,24999],[76.1,25083],[75.6,25166],[75,25249],[74.4,25333],[74,25416],[73.8,25499],[73.8,25582],[73.7,25666],[73.7,25749],[73.7,25832],[73.7,25915],[73.7,25999],[73.7,26082],[73.7,26165],[73.6,26249],[73.5,26333],[73.5,26416],[73.1,26499],[73,26583],[72.9,26665],[72.9,26749],[72.9,26832],[72.7,26916],[71.1,26999],[71,27082],[70.9,27166],[70.8,27249],[70.7,27331],[70.7,27415],[70.7,27499],[70.7,27582],[70.7,27666],[70.7,27749],[70.7,27832],[70.7,27916],[70.7,27999],[70.7,28082],[70.7,28166],[70.7,28249],[70.7,28332],[70.7,28416],[70.7,28499],[70.7,28582],[70.7,28666],[70.7,28749],[70.7,28832],[70.7,28915],[70.7,28999],[70.7,29082],[70.7,29165],[70.7,29249],[70.7,29332],[70.7,29416],[70.7,29498],[70.7,29582],[70.7,29665],[70.7,29749],[70.7,29833],[70.7,29915],[70.7,29999],[70.7,30082],[70.7,30166],[70.7,30249],[70.7,30332],[70.7,30416],[70.7,30499],[70.7,30582],[70.7,30665],[70.7,30749],[70.7,30832],[70.7,30915],[70.7,30999],[70.7,31082],[70.7,31166],[70.7,31249],[70.7,31332],[70.7,31416],[70.7,31499],[70.7,31582],[70.7,31666],[70.7,31748],[70.7,31832],[70.7,31916],[70.7,31999],[70.7,32082],[70.7,32165],[70.7,32249],[70.7,32332],[70.7,32416],[70.7,32499],[70.7,32582],[70.7,32665],[70.7,32749],[70.7,32832],[70.7,32916],[70.7,32999],[70.7,33082],[70.7,33165],[70.7,33249],[70.7,33332],[70.7,33416],[70.7,33499],[70.7,33582],[70.7,33665],[70.7,33748],[70.7,33832],[70.7,33916],[70.7,33999],[70.7,34081],[70.7,34165],[70.7,34249],[70.7,34332],[70.7,34416],[70.7,34499],[70.7,34582],[70.7,34666],[70.7,34749],[70.7,34831],[70.7,34916],[70.7,34999],[70.7,35082],[70.7,35166],[70.7,35249],[70.7,35332],[70.7,35416],[70.7,35499],[70.7,35582],[70.7,35666],[70.7,35749],[70.7,35832],[70.7,35916],[70.7,35999],[70.7,36082],[70.7,36166],[70.7,36248],[70.7,36332],[70.7,36416],[70.7,36498],[70.7,36582],[70.7,36665],[70.7,36749],[70.7,36831],[70.7,36916],[70.7,36999],[70.7,37082],[70.7,37165],[70.7,37249],[70.7,37332],[70.7,37415],[70.7,37499],[70.7,37582],[70.7,37666],[70.7,37749],[70.7,37832],[70.7,37915],[70.7,37999],[70.7,38082],[70.7,38166],[70.7,38249],[70.7,38332],[70.7,38415],[70.7,38499],[70.7,38582],[70.7,38666],[70.7,38749],[70.7,38832],[70.7,38916],[70.7,38998],[70.7,39082],[70.7,39165],[70.7,39249],[70.7,39332],[70.7,39416],[70.7,39498],[70.7,39582],[70.7,39665],[70.7,39749],[70.7,39833],[70.7,39916],[70.7,39999],[70.7,40081],[70.7,40164],[70.7,40249],[70.7,40332],[70.7,40415],[70.7,40499],[70.7,40582],[70.7,40665],[70.7,40749],[70.7,40832],[70.7,40915],[70.7,40999],[70.7,41082],[70.7,41165],[70.7,41249],[70.7,41331],[70.7,41415],[70.7,41499],[70.7,41582],[70.7,41666],[70.7,41749],[70.7,41832],[70.7,41916],[70.7,41999],[70.7,42082],[70.7,42166],[70.7,42249],[70.7,42332],[70.7,42416],[70.7,42498],[70.7,42582],[70.7,42666],[70.7,42749],[70.7,42833],[70.7,42915],[70.7,42999],[70.7,43082],[70.7,43166],[70.7,43249],[70.7,43332],[70.7,43415],[70.7,43499],[70.7,43582],[70.7,43666],[70.7,43749],[70.7,43832],[70.7,43916],[70.7,43999],[70.7,44083],[70.7,44166],[70.7,44249],[70.7,44332],[70.7,44416],[70.7,44499],[70.7,44582],[70.7,44666],[70.7,44749],[70.7,44832],[70.7,44916],[70.7,44999],[70.7,45082],[70.7,45166],[70.7,45249],[70.7,45332],[70.7,45416],[70.7,45498],[70.7,45582],[70.7,45665],[70.7,45749],[70.7,45833],[70.7,45916],[70.7,45999],[70.7,46082],[70.7,46165],[70.7,46249],[70.7,46332],[70.7,46416],[70.7,46499],[70.7,46582],[70.7,46665],[70.7,46749],[70.7,46832],[70.7,46916],[70.7,46999],[70.7,47082],[70.7,47166],[70.7,47249],[70.7,47332],[70.7,47415],[70.7,47499],[70.7,47583],[70.7,47666],[70.7,47749],[70.7,47832],[70.7,47916],[70.7,47999],[70.7,48082],[70.7,48165],[70.7,48249],[70.7,48332],[70.7,48416],[70.7,48498],[70.7,48582],[70.7,48665],[70.7,48749],[70.7,48832],[70.7,48916],[70.7,48999],[70.7,49082],[70.7,49165],[70.7,49249],[70.7,49332],[70.7,49415],[70.7,49499],[70.7,49582],[70.7,49666],[70.7,49749],[70.7,49832],[70.7,49916],[70.7,49999],[70.7,50082],[70.7,50166],[70.7,50249],[70.7,50332],[70.7,50415],[70.7,50499],[70.7,50582],[70.7,50666],[70.7,50749],[70.7,50832],[70.7,50916],[70.7,50999],[70.7,51082],[70.7,51165],[70.7,51249],[70.7,51332],[70.7,51416],[70.7,51498],[70.7,51582],[70.7,51666],[70.7,51749],[70.7,51833],[70.7,51916],[70.7,51999],[70.7,52082],[70.7,52165],[70.7,52249],[70.7,52333],[70.7,52416],[70.7,52499],[70.7,52582],[70.7,52666],[70.7,52749],[70.7,52832],[70.7,52916],[70.7,52999],[70.7,53082],[70.7,53166],[70.7,53249],[70.7,53333],[70.7,53416],[70.7,53498],[70.7,53582],[70.7,53666],[70.7,53749],[70.7,53832],[70.7,53916],[70.7,53999],[70.7,54083],[70.7,54165],[70.7,54249],[70.7,54332],[70.7,54416],[70.7,54499],[70.7,54583],[70.7,54665],[70.7,54748],[70.7,54831],[70.7,54916],[70.7,54999],[70.7,55082],[70.7,55166],[70.7,55249],[70.7,55332],[70.7,55416],[70.7,55499],[70.7,55582],[70.7,55666],[70.7,55749],[70.7,55832]]",1,0,269.0924,273.7588,89.47102865,3.1566,"[{""rating"":78.05826822916666,""responseTime"":1.593999999999994},{""rating"":90.34952799479167,""responseTime"":2.2554999999999836},{""rating"":89.47102864583334,""responseTime"":3.1566000000238432}]",space,4.118,,273.7588,Not at all,0,273.7607,,,[],,0,1,1,1,1,audio/Narrative7Situation1.wav,audio/Narrative8Situation1.wav,audio/Narrative5Situation1.wav,audio/Narrative6Situation1.wav,2,5,5,2,2.004,,,,,,,,,,,,,,,,,,,,,,,,,,,,,,,,,,,,,,
,,,,,,661e74ab1c19b177f9c5bb14,2024-05-13_08h30.06.908,group3.1-3.2-social-tom,2023.2.2,MacIntel,56.49717514,65c5074098b851296ff0b7ed,664231edb618aaa09c6cbdf3,,,,,,,,,,,,,,,,,,,,,,,,,,,,,273.761,1,audio/Narrative7Situation2.wav,276.7747,,276.7747,284.2422,[],1,0,284.2424,289.7755,17.84545898,3.9063,"[{""rating"":29.018147786458336,""responseTime"":3.394700000047635},{""rating"":21.148681640625,""responseTime"":3.7232000000476546},{""rating"":17.845458984375,""responseTime"":3.9063000000714965}]",space,4.9892,,289.7756,All the time,100,289.7798,,,[],,0,2,2,2,1,audio/Narrative7Situation2.wav,audio/Narrative8Situation2.wav,audio/Narrative5Situation2.wav,audio/Narrative6Situation2.wav,3,3,3,3,,,,,,,,,,,,,,,,,,,,,,,,,,,,,,,,,,,,,,,
,,,,,,661e74ab1c19b177f9c5bb14,2024-05-13_08h30.06.908,group3.1-3.2-social-tom,2023.2.2,MacIntel,56.49717514,65c5074098b851296ff0b7ed,664231edb618aaa09c6cbdf3,,,,,,,,,,,,,,,,,,,,,,,,,,,,,289.7801,1,audio/Narrative7Situation3.wav,297.7922,,297.7923,307.059,"[[999,8],[999,83],[62,166],[56.6,3833],[56.8,3916],[56.6,4000],[56.4,4083],[56.1,4166],[55.3,4250],[53.9,4333],[53,4416],[52.1,4500],[51.8,4583],[51.7,4665],[51.7,4749],[51.7,4832],[51.7,4916],[51.7,4999],[51.7,5083],[51.7,5166],[51.7,5249],[51.7,5333],[51.7,5416],[51.7,5500],[51.7,5583],[51.7,5666],[51.7,5749],[51.7,5832],[51.7,5916],[51.7,5999],[51.7,6083],[51.7,6166],[51.7,6249],[51.7,6333],[51.7,6416],[51.7,6499],[51.7,6583],[51.7,6666],[51.7,6749],[51.7,6833],[51.7,6916],[51.7,6999],[51.7,7083],[51.7,7166],[51.7,7249],[51.7,7333],[51.7,7416],[51.7,7498],[51.7,7583],[51.7,7666],[51.7,7750],[51.7,7833],[51.7,7916],[51.7,7999],[51.7,8083],[51.7,8165],[51.7,8249],[51.7,8332],[51.7,8416],[51.7,8499],[51.7,8583],[51.7,8666],[51.7,8749],[51.7,8833],[51.7,8915],[51.7,8999],[51.7,9083],[51.7,9166],[51.7,9249]]",1,0,307.0591,308.9423,49.40877279,1.533,"[{""rating"":47.928059895833336,""responseTime"":1.128499999999974},{""rating"":49.408772786458336,""responseTime"":1.5329999999999586}]",space,1.3624,,308.9425,Not at all,0,320.2924,0.102132161,7.6969,"[{""rating"":0.10213216145833481,""responseTime"":7.69689999997621}]",space,0,3,3,3,1,audio/Narrative7Situation3.wav,audio/Narrative8Situation3.wav,audio/Narrative5Situation3.wav,audio/Narrative6Situation3.wav,8,4,3,5,,,10.8008,,,,,,,,,,,,,,,,,,,,,,,,,,,,,,,,,,,,
,,,,,,661e74ab1c19b177f9c5bb14,2024-05-13_08h30.06.908,group3.1-3.2-social-tom,2023.2.2,MacIntel,56.49717514,65c5074098b851296ff0b7ed,664231edb618aaa09c6cbdf3,,,,,,,,,,,,,,,,,,,,,,,,,,,,,320.3007,1,audio/Narrative7Situation4.wav,323.309,,323.309,335.0421,"[[999,8],[999,83],[999,166],[999,249],[999,333],[999,416],[999,500],[999,583],[999,666],[999,749],[999,833],[999,916],[999,999],[999,1083],[999,1166],[999,1249],[999,1333],[999,1416],[999,1499],[999,1583],[999,1666],[999,1749],[999,1832],[999,1916],[999,2000],[999,2083],[999,2166],[999,2249],[999,2333],[999,2416],[999,2500],[999,2583],[999,2666],[999,2749],[999,2833],[999,2916],[999,2999],[999,3083],[999,3166],[999,3249],[999,3333],[999,3416],[999,3500],[999,3583],[999,3666],[999,3749],[999,3832],[999,3917],[999,3999],[999,4083],[999,4166],[999,4249],[999,4333],[999,4416],[999,4499],[999,4583],[999,4666],[999,4750],[999,4832],[999,4916],[999,4999],[999,5083],[999,5166],[999,5249],[999,5333],[999,5416],[999,5499],[999,5583],[999,5666],[999,5749],[999,5833],[999,5916],[999,5999],[999,6083],[999,6166],[999,6249],[999,6333],[999,6416],[999,6499],[999,6582],[999,6666],[999,6749],[999,6833],[999,6916],[999,7000],[999,7083],[999,7166],[999,7249],[999,7333],[999,7416],[999,7499],[999,7583],[999,7666],[999,7749],[999,7833],[999,7916],[999,7999],[999,8083],[999,8166],[999,8250],[999,8333],[999,8416],[999,8499],[999,8583],[999,8666],[999,8750],[999,8833],[999,8916],[999,8999],[999,9083],[999,9166],[999,9250],[999,9333],[999,9416],[999,9500],[999,9583],[999,9666],[999,9749],[999,9833],[999,9916],[999,9999],[999,10083],[999,10166],[999,10249],[999,10332],[999,10416],[999,10499],[999,10583],[999,10666],[999,10749],[999,10832],[999,10916],[999,11000],[999,11082],[999,11166],[999,11249],[999,11333],[999,11416],[999,11500],[999,11583],[999,11666]]",1,0,335.0423,337.9258,54.56827799,2.1722,"[{""rating"":54.56827799479167,""responseTime"":2.172200000047667}]",space,2.3618,,337.9259,All the time,100,337.9298,,,[],,0,4,4,4,1,audio/Narrative7Situation4.wav,audio/Narrative8Situation4.wav,audio/Narrative5Situation4.wav,audio/Narrative6Situation4.wav,3,3,1,2,,,,,,,,,,,,,,,,,,,,,,,,,,,,,,,,,,,,,,,
,,,,,,661e74ab1c19b177f9c5bb14,2024-05-13_08h30.06.908,group3.1-3.2-social-tom,2023.2.2,MacIntel,56.49717514,65c5074098b851296ff0b7ed,664231edb618aaa09c6cbdf3,,,,,,,,,,,,,,,,,,,,,,,,,,,,,337.93,1,audio/Narrative7Situation5.wav,342.942,,342.942,351.4259,"[[999,8],[999,83],[999,166],[999,250],[999,333],[999,417],[999,500],[999,583],[999,667],[999,750],[999,833],[999,916],[999,1000],[999,1083],[999,1166],[999,1249],[999,1333],[999,1416],[999,1500],[999,1583],[999,1666],[999,1750],[999,1832],[999,1916],[999,2000],[999,2083],[999,2167],[999,2250],[999,2333],[999,2416],[999,2500],[999,2583],[999,2666],[999,2749],[999,2833],[999,2916],[999,3000],[999,3083],[999,3166],[999,3250],[999,3333],[999,3417],[999,3500],[999,3583],[999,3666],[999,3750],[999,3833],[999,3916],[999,3999],[999,4083],[999,4166],[999,4249],[999,4333],[999,4416],[999,4500],[999,4583],[999,4666],[999,4750],[999,4833],[999,4916],[999,4999],[999,5083],[999,5166],[999,5250],[999,5333],[999,5416],[999,5500],[999,5583],[999,5666],[999,5749],[999,5833],[999,5916],[999,6000],[999,6083],[999,6166],[999,6250],[999,6333],[999,6417],[999,6500],[999,6583],[999,6666],[999,6750],[999,6833],[999,6916],[999,7000],[999,7083],[999,7166],[999,7250],[999,7333],[999,7416],[999,7500],[999,7583],[999,7666],[999,7750],[999,7833],[999,7916],[999,7999],[999,8083],[999,8167],[999,8250],[999,8333],[999,8417]]",1,0,351.4261,352.8763,75.57739258,1.1212,"[{""rating"":75.577392578125,""responseTime"":1.1212000000476792}]",space,0.9,,352.8764,Not at all,0,352.8789,,,[],,0,5,5,5,1,audio/Narrative7Situation5.wav,audio/Narrative8Situation5.wav,audio/Narrative5Situation5.wav,audio/Narrative6Situation5.wav,5,2,5,2,,,,,,,,,,,,,,,,,,,,,,,,,,,,,,,,,,,,,,,
,,,,,,661e74ab1c19b177f9c5bb14,2024-05-13_08h30.06.908,group3.1-3.2-social-tom,2023.2.2,MacIntel,56.49717514,65c5074098b851296ff0b7ed,664231edb618aaa09c6cbdf3,,,,,,,,,,,,,,,,,,,,,,,,,,,,,352.879,1,audio/Narrative7Situation6.wav,355.8925,,355.8926,365.8758,"[[74.6,4000],[74.8,4083],[75.3,4166],[75.9,4250],[76.8,4333],[77.4,4416],[77.5,4500],[77.8,4582],[78.1,4666],[78.8,4750],[81,4833],[82.2,4916],[83.1,5000],[83.5,5083],[83.5,5166],[83.5,5250],[83.5,5333],[83.5,5416],[83.5,5500],[83.5,5583],[83.5,5666],[83.5,5749],[83.5,5833],[83.5,5916],[83.5,5999],[83.5,6083],[83.5,6166],[83.5,6249],[83.5,6333],[83.5,6416],[83.5,6499],[83.5,6583],[83.5,6666],[83.5,6749],[83.5,6833],[83.5,6916],[83.5,7000],[83.5,7083],[83.5,7166],[83.5,7249],[83.5,7333],[83.5,7416],[83.5,7499],[83.5,7583],[83.5,7666],[83.5,7749],[83.5,7833],[83.5,7916],[83.5,7999],[83.5,8083],[83.5,8166],[83.5,8249],[83.5,8333],[83.5,8416],[83.5,8500],[83.5,8583],[83.5,8666],[83.5,8749],[83.5,8833],[83.5,8916],[83.5,8999],[83.5,9083],[83.5,9166],[83.5,9249],[83.5,9333],[83.5,9416],[83.5,9499],[83.5,9583],[83.5,9666],[83.5,9749],[83.5,9833],[83.5,9916]]",1,0,365.8759,371.476,88.61531576,1.6738,"[{""rating"":88.61531575520833,""responseTime"":1.6738000000715374}]",space,5.0664,,371.476,All the time,100,371.4864,,,[],,0,6,6,6,1,audio/Narrative7Situation6.wav,audio/Narrative8Situation6.wav,audio/Narrative5Situation6.wav,audio/Narrative6Situation6.wav,3,2,3,2,,,,,,,,,,,,,,,,,,,,,,,,,,,,,,,,,,,,,,,
,,,,,,661e74ab1c19b177f9c5bb14,2024-05-13_08h30.06.908,group3.1-3.2-social-tom,2023.2.2,MacIntel,56.49717514,65c5074098b851296ff0b7ed,664231edb618aaa09c6cbdf3,,,,,,,,,,,,,,,,,,,,,,,,,,,,,371.4866,1,audio/Narrative7Situation7.wav,376.4926,,376.4927,393.6765,"[[85.3,750],[86.2,832],[86.2,916],[86.2,999],[86.2,1083],[86.2,1165],[86.2,1249],[86.2,1333],[86.2,1416],[86.2,1499],[86.2,1583],[83.9,1666],[78.7,1748],[76.2,1832],[74.8,1916],[74.5,2000],[74.4,2082],[74.4,2166],[74.4,2249],[74.4,2333],[74.4,2416],[74.4,2499],[74.4,2582],[74.4,2666],[74.4,2749],[74.4,2833],[74.4,2916],[74.4,2999],[74.4,3083],[74.4,3166],[74.4,3249],[74.4,3333],[74.4,3416],[74.4,3499],[74.4,3583],[74.4,3666],[74.4,3749],[74.4,3833],[74.4,3916],[74.4,3999],[74.4,4083],[74.4,4166],[74.4,4248],[74.4,4333],[74.4,4416],[74.4,4500],[74.4,4582],[74.4,4666],[74.4,4749],[74.4,4833],[74.4,4916],[74.4,4999],[74.4,5083],[74.4,5165],[74.4,5249],[74.4,5333],[74.4,5416],[74.4,5499],[74.4,5583],[74.4,5666],[74.4,5749],[74.4,5833],[74.4,5916],[74.4,6000],[74.4,6083],[74.4,6166],[74.4,6249],[74.4,6332],[74.4,6416],[74.4,6499],[74.4,6583],[74.4,6666],[74.4,6750],[74.4,6833],[74.4,6915],[74.4,6999],[74.4,7083],[74.4,7166],[74.4,7250],[74.4,7333],[74.4,7415],[74.4,7499],[74.4,7583],[74.4,7666],[74.4,7749],[74.4,7833],[74.4,7915],[74.4,7999],[74.4,8083],[74.4,8165],[74.4,8249],[74.4,8333],[74.4,8416],[74.4,8499],[74.4,8583],[71.7,8666],[67.4,8750],[59.5,8833],[51.2,8916],[45.7,9000],[39,9083],[30.9,9166],[27.9,9250],[24.8,9333],[23.7,9416],[22.1,9500],[16.8,9583],[11.1,9666],[8.9,9750],[8.9,9833],[8.9,9915],[9.1,10000],[9.8,10083],[11.4,10167],[13.6,10249],[15.2,10333],[16.5,10415],[17.7,10500],[18.2,10583],[18.5,10666],[19.6,10750],[19.9,10833],[20.3,10916],[20.4,10999],[20.5,11083],[20.7,11165],[20.9,11250],[21.1,11333],[21.3,11416],[21.3,11499],[21.3,11583],[21.3,11666],[21.3,11749],[21.3,11833],[21.3,11916],[21.3,11999],[21.3,12083],[21.3,12166],[21.3,12249],[21.3,12333],[21.3,12416],[21.3,12500],[21.3,12583],[21.3,12666],[21.3,12749],[21.3,12832],[21.3,12915],[21.3,12999],[21.3,13083],[21.3,13166],[21.3,13249],[21.3,13333],[21.3,13416],[21.3,13499],[21.3,13582],[21.3,13666],[21.3,13749],[21.3,13833],[21.3,13916],[21.3,13999],[21.3,14082],[21.3,14165],[21.3,14250],[21.3,14333],[21.3,14416],[21.3,14499],[21.3,14583],[21.3,14666],[21.3,14749],[21.3,14833],[21.3,14916],[21.5,15000],[21.8,15083],[21.9,15166],[22.3,15250],[22.4,15333],[22.4,15416],[22.4,15500],[22.9,15583],[23,15666],[23.2,15749],[23.4,15832],[23.7,15916],[23.7,15999],[24,16083],[24.1,16166],[24.1,16249],[24.1,16333],[24.1,16416],[24.1,16499],[24.1,16583],[23.9,16665],[23.5,16750],[23,16833],[21.2,16917],[17.9,17000],[14.3,17083],[13,17166]]",1,0,393.6766,396.6593,2.851155599,2.3306,"[{""rating"":0.8015950520833315,""responseTime"":0.9491000000238046},{""rating"":2.8511555989583326,""responseTime"":2.3306000000238214}]",space,2.4467,,396.6595,Half the time,50,396.6634,,,[],,0,7,7,7,1,audio/Narrative7Situation7.wav,audio/Narrative8Situation7.wav,audio/Narrative5Situation7.wav,audio/Narrative6Situation7.wav,5,3,4,5,,,,,,,,,,,,,,,,,,,,,,,,,,,,,,,,,,,,,,,
,,,,,,661e74ab1c19b177f9c5bb14,2024-05-13_08h30.06.908,group3.1-3.2-social-tom,2023.2.2,MacIntel,56.49717514,65c5074098b851296ff0b7ed,664231edb618aaa09c6cbdf3,,,,,,,,,,,,,,,,,,,,,,,,,,,,,396.6636,1,audio/Narrative7Situation8.wav,398.6761,,398.6761,408.7098,"[[999,0],[999,83],[999,166],[999,249],[999,333],[999,416],[999,499],[999,583],[999,665],[999,749],[999,833],[999,916],[999,999],[999,1083],[999,1166],[999,1249],[999,1332],[999,1416],[999,1500],[999,1583],[999,1666],[999,1750],[999,1833],[999,1916],[999,1999],[999,2083],[999,2166],[999,2249],[999,2333],[999,2416],[999,2499],[999,2583],[999,2665],[999,2749],[999,2833],[999,2916],[999,3000],[999,3083],[999,3166],[999,3249],[999,3332],[999,3416],[999,3499],[999,3583],[999,3666],[999,3750],[999,3832],[999,3916],[999,3999],[999,4083],[999,4166],[999,4249],[999,4332],[999,4416],[999,4500],[999,4583],[999,4665],[999,4749],[999,4833],[999,4916],[999,4999],[999,5083],[999,5166],[999,5248],[999,5333],[999,5416],[999,5499],[999,5583],[999,5667],[999,5749],[999,5833],[999,5916],[999,5999],[999,6082],[999,6166],[999,6249],[999,6333],[999,6416],[999,6499],[999,6583],[999,6666],[999,6749],[999,6833],[999,6915],[999,6999],[999,7083],[999,7165],[999,7249],[999,7332],[999,7416],[999,7499],[999,7583],[999,7666],[999,7749],[999,7833],[999,7916],[999,7999],[999,8083],[999,8166],[999,8249],[999,8333],[999,8416],[999,8499],[999,8583],[999,8666],[999,8749],[999,8833],[999,8915],[999,8999],[999,9082],[999,9166],[999,9249],[999,9333],[999,9416],[999,9499],[999,9583],[999,9666],[999,9749],[999,9833],[999,9916],[999,10000]]",1,0,408.71,412.2094,77.36206055,3.1896,"[{""rating"":50.464680989583336,""responseTime"":0.6553999999761118},{""rating"":56.432291666666664,""responseTime"":1.0579999999999927},{""rating"":60.982259114583336,""responseTime"":1.3277999999522763},{""rating"":63.36629231770834,""responseTime"":1.6441999999284462},{""rating"":67.44140625,""responseTime"":2.9484999999999673},{""rating"":77.362060546875,""responseTime"":3.189599999904601}]",space,2.9538,,412.2095,Not at all,0,412.2122,,,[],,0,8,8,8,1,audio/Narrative7Situation8.wav,audio/Narrative8Situation8.wav,audio/Narrative5Situation8.wav,audio/Narrative6Situation8.wav,2,3,3,5,,,,,,,,,,,,,,,,,,,,,,,,,,,,,,,,,,,,,,,
,,,,,,661e74ab1c19b177f9c5bb14,2024-05-13_08h30.06.908,group3.1-3.2-social-tom,2023.2.2,MacIntel,56.49717514,65c5074098b851296ff0b7ed,664231edb618aaa09c6cbdf3,,,,,,,,,,,,,,,,,,,,,,,,,,,,,412.2124,1,audio/Narrative7Situation9.wav,414.2261,,414.2262,422.8594,"[[77.4,83],[77.4,166],[77.4,249],[77.4,332],[77.4,416],[77.4,499],[77.4,583],[77.4,666],[77.4,749],[77.4,832],[77.4,916],[77.4,999],[77.4,1082],[77.4,1166],[77.4,1249],[77.4,1333],[77.4,1415],[77.4,1499],[77.4,1583],[77.4,1666],[77.4,1749],[77.2,1833],[58.8,3333],[58.9,3416],[58.8,3499],[58.2,3583],[57.4,3666],[56.2,3750],[53.5,3833],[50.6,3916],[49.3,4000],[49,4083],[48.8,4166],[48.8,4249],[48.8,4333],[48.8,4416],[49,4500],[49.6,4582],[50.5,4666],[51.2,4748],[51.4,4833],[51.4,4916],[51.7,5000],[52.2,5083],[53.2,5166],[53.6,5249],[54.3,5333],[55.8,5417],[57.5,5499],[58.1,5583],[58.6,5666],[59.4,5750],[61.8,5832],[64,5916],[66.7,6000],[68.4,6083],[69.6,6166],[70.5,6250],[71.2,6333],[72,6416],[73.8,6499],[78,6583],[79.9,6666],[79.9,6749],[80.5,6833],[81,6916],[81.7,7000],[82.3,7083],[83,7166],[84.1,7249],[84.9,7333],[85.4,7416],[85.4,7499],[85.4,7582],[85.6,7666],[85.7,7749],[85.7,7832],[85.7,7916],[85.7,8000],[85.7,8083],[85.7,8166],[83,8250],[74.9,8333],[69.8,8416],[61.9,8500],[57.6,8583]]",1,0,422.8596,424.3589,50.08911133,1.0306,"[{""rating"":50.089111328125,""responseTime"":1.0306000000238669}]",space,0.9695,,424.359,Not at all,0,424.3606,,,[],,0,9,9,9,1,audio/Narrative7Situation9.wav,audio/Narrative8Situation9.wav,audio/Narrative5Situation9.wav,audio/Narrative6Situation9.wav,2,3,3,4,,,,,,,,,,,,,,,,,,,,,,,,,,,,,,,,,,,,,,,
,,,,,,661e74ab1c19b177f9c5bb14,2024-05-13_08h30.06.908,group3.1-3.2-social-tom,2023.2.2,MacIntel,56.49717514,65c5074098b851296ff0b7ed,664231edb618aaa09c6cbdf3,,,,,,,,,,,,,,,,,,,,,,,,,,,,,424.3609,1,audio/Narrative8Situation1.wav,429.3752,,429.3753,445.293,[],1,0,445.2932,447.1266,25.76131185,1.5391,"[{""rating"":25.761311848958336,""responseTime"":1.5391000000238364}]",space,1.2955,,447.1266,Half the time,50,447.1308,,,[],,0,10,10,10,1,audio/Narrative8Situation1.wav,audio/Narrative7Situation1.wav,audio/Narrative6Situation1.wav,audio/Narrative5Situation1.wav,5,2,2,5,,,,,,,,,,,,,,,,,,,,,,,,,,,,,,,,,,,,,,,
,,,,,,661e74ab1c19b177f9c5bb14,2024-05-13_08h30.06.908,group3.1-3.2-social-tom,2023.2.2,MacIntel,56.49717514,65c5074098b851296ff0b7ed,664231edb618aaa09c6cbdf3,,,,,,,,,,,,,,,,,,,,,,,,,,,,,447.131,1,audio/Narrative8Situation2.wav,450.1431,,450.1431,460.2595,"[[48.6,166],[48.6,249],[48.6,332],[48.6,416],[48.6,499],[48.6,583],[48.6,665],[48.6,749],[48.6,833],[48.6,916],[48.6,999],[48.6,1083],[48.6,1166],[48.6,1249],[49.5,1333],[49.2,1916],[48.9,1999],[47.7,2083],[38.1,3000],[38,3083],[38,3166],[37.5,3250],[37.4,3333],[37.4,3416],[37.4,3499],[37.4,3583],[37.5,3666],[37.7,3750],[37.7,3833],[37.7,3916],[37.7,3999],[37.7,4083],[37.7,4166],[37.7,4249],[37.7,4333],[37.7,4416],[37.7,4499],[37.7,4583],[37.7,4666],[37.7,4748],[37.7,4833],[37.7,4916],[37.7,4999],[37.7,5083],[37.7,5166],[37.7,5249],[37.7,5333],[37.7,5415],[37.7,5499],[37.7,5582],[37.7,5666],[37.7,5749],[37.7,5833],[37.7,5916],[37.7,5999],[37.7,6083],[37.7,6165],[37.7,6249],[37.7,6333],[37.7,6416],[37.7,6499],[37.7,6583],[37.7,6666],[37.7,6749],[37.7,6833],[37.7,6916],[38.7,7000],[42.4,7083],[45.9,7166],[51.9,7250],[57.6,7333],[61,7416],[64.3,7500],[65.4,7583],[66.4,7666],[66.8,7748],[66.8,7833],[66.8,7916],[66.8,7999],[65.3,8083],[63.1,8166],[59.4,8250],[56.7,8332],[54.1,8416],[51.9,8500],[49.4,8582],[49.4,8665],[49,8750],[48.6,8833],[48.2,8916],[47.2,9000],[46,9083],[41.6,9166],[39.1,9250],[38,9332],[37.9,9416],[37.9,9499],[39.1,9583],[43.2,9666],[50,9750],[54.1,9833],[59.2,9916],[61.9,10000],[66.5,10083]]",1,0,460.2597,464.1597,0.16398112,3.5912,"[{""rating"":0.1639811197916674,""responseTime"":3.5912000000477065}]",space,3.3647,,464.1598,All the time,100,464.1627,,,[],,0,11,11,11,1,audio/Narrative8Situation2.wav,audio/Narrative7Situation2.wav,audio/Narrative6Situation2.wav,audio/Narrative5Situation2.wav,3,3,3,3,,,,,,,,,,,,,,,,,,,,,,,,,,,,,,,,,,,,,,,
,,,,,,661e74ab1c19b177f9c5bb14,2024-05-13_08h30.06.908,group3.1-3.2-social-tom,2023.2.2,MacIntel,56.49717514,65c5074098b851296ff0b7ed,664231edb618aaa09c6cbdf3,,,,,,,,,,,,,,,,,,,,,,,,,,,,,464.1629,1,audio/Narrative8Situation3.wav,468.1764,,468.1765,490.5602,"[[999,8],[999,82],[999,166],[999,249],[999,333],[999,416],[999,499],[999,583],[999,666],[999,749],[999,833],[999,916],[999,999],[999,1083],[999,1165],[999,1249],[999,1333],[999,1416],[999,1499],[999,1583],[999,1666],[999,1749],[999,1833],[999,1916],[999,1999],[999,2082],[999,2166],[999,2248],[999,2333],[999,2416],[999,2499],[999,2583],[999,2666],[999,2749],[999,2833],[999,2916],[999,2999],[999,3082],[999,3165],[999,3249],[999,3333],[999,3415],[999,3499],[999,3583],[999,3666],[999,3749],[999,3833],[999,3916],[999,3998],[999,4083],[999,4166],[999,4249],[999,4333],[999,4416],[999,4499],[999,4583],[999,4666],[999,4749],[999,4833],[999,4916],[999,4999],[999,5083],[999,5165],[999,5249],[999,5333],[999,5416],[999,5500],[999,5583],[999,5666],[59.6,5750],[62.1,5832],[63.2,5916],[64.4,6000],[64.5,6083],[64.5,6166],[64.5,6249],[64.5,6333],[64.5,6416],[64.5,6499],[64.5,6583],[64.5,6666],[64.5,6749],[64.5,6832],[64.5,6916],[64.5,7000],[64.5,7083],[64.5,7166],[64.5,7250],[64.5,7333],[64.5,7416],[64.5,7499],[64.5,7583],[64.5,7665],[64.5,7749],[64.5,7832],[64.5,7916],[64.5,7999],[64.5,8082],[64.5,8165],[64.6,8250],[68.2,8333],[72.3,8416],[75.3,8499],[77.1,8583],[77.1,8666],[77.1,8749],[77.1,8833],[77.1,8916],[77.1,8999],[77.1,9083],[77.1,9165],[77.1,9249],[76.9,9333],[76.7,9416],[76.7,9499],[76.7,9583],[76.7,9666],[76.7,9749],[76.7,9833],[76.7,9916],[76.7,9999],[76.7,10083],[76.7,10166],[76.7,10249],[76.7,10333],[76.7,10416],[76.7,10499],[76.7,10582],[76.7,10666],[76.7,10749],[76.7,10833],[76.7,10915],[76.7,10999],[76.7,11083],[76.7,11166],[76.7,11249],[76.7,11333],[76.7,11415],[76.7,11499],[76.7,11583],[76.7,11666],[76.7,11749],[76.7,11833],[76.7,11916],[76.7,11999],[76.7,12083],[76.7,12166],[76.7,12249],[76.7,12333],[76.7,12416],[76.7,12500],[76.7,12583],[76.7,12666],[76.7,12750],[76.7,12833],[76.7,12916],[76.7,13000],[76.7,13083],[76.7,13166],[76.7,13249],[76.7,13333],[76.7,13416],[76.7,13499],[76.7,13583],[76.7,13666],[76.7,13749],[76.7,13833],[76.7,13916],[76.7,13999],[76.7,14082],[76.7,14166],[76.7,14249],[76.7,14333],[76.7,14416],[76.7,14499],[76.7,14583],[76.7,14666],[76.8,14749],[79.3,14833],[81.5,14916],[82.6,15000],[84.8,15082],[86,15166],[87.9,15249],[90.1,15333],[91.7,15416],[91.9,15499],[91.9,15582],[91.9,15666],[91.9,15749],[91.9,15833],[91.9,15916],[91.9,15999],[91.9,16083],[91.9,16166],[91.9,16249],[91.9,16333],[91.9,16416],[91.9,16500],[91.9,16583],[91.9,16666],[91.9,16749],[91.9,16833],[91.9,16916],[91.9,16999],[91.9,17083],[91.9,17166],[91.9,17249],[91.9,17332],[91.9,17416],[91.9,17499],[91.9,17583],[91.9,17666],[91.9,17750],[91.9,17833],[91.9,17916],[91.9,17999],[91.9,18083],[91.9,18166],[91.9,18249],[91.9,18333],[91.9,18415],[91.9,18499],[91.9,18583],[91.9,18665],[91.9,18749],[91.9,18833],[91.9,18916],[91.9,18999],[91.9,19083],[91.9,19166],[91.9,19249],[91.9,19333],[91.9,19416],[91.9,19500],[91.9,19583],[91.9,19666],[91.9,19749],[91.9,19833],[91.9,19916],[91.9,19999],[91.9,20083],[91.9,20166],[91.9,20249],[91.9,20333],[91.9,20416],[91.9,20499],[91.9,20583],[91.9,20666],[91.9,20749],[91.9,20833],[91.9,20916],[91.9,20999],[91.9,21083],[91.9,21166],[91.9,21249],[91.9,21332],[91.9,21415],[91.9,21499],[91.9,21583],[92,21666],[93,21750],[93.1,21833],[95,21916],[96.7,21999],[98.4,22083],[99,22166],[99,22249],[99,22333]]",1,0,490.5604,492.0932,93.93636068,1.1301,"[{""rating"":93.93636067708333,""responseTime"":1.1301000000238446}]",space,0.9982,,492.0933,Half the time,50,492.0976,,,[],,0,12,12,12,1,audio/Narrative8Situation3.wav,audio/Narrative7Situation3.wav,audio/Narrative6Situation3.wav,audio/Narrative5Situation3.wav,4,8,5,3,,,,,,,,,,,,,,,,,,,,,,,,,,,,,,,,,,,,,,,
,,,,,,661e74ab1c19b177f9c5bb14,2024-05-13_08h30.06.908,group3.1-3.2-social-tom,2023.2.2,MacIntel,56.49717514,65c5074098b851296ff0b7ed,664231edb618aaa09c6cbdf3,,,,,,,,,,,,,,,,,,,,,,,,,,,,,492.0979,1,audio/Narrative8Situation4.wav,495.1099,,495.1099,509.2934,"[[94.9,166],[94.9,249],[94.9,332],[94.9,416],[94.9,499],[94.9,582],[94.9,666],[94.9,749],[93.9,833],[91.3,916],[88.9,999],[86.2,1083],[84.2,1166],[82.3,1250],[81.6,1333],[81.3,1416],[81.1,1500],[81,1583],[81,1666],[81,1749],[81,1833],[81,1916],[81,1999],[81,2083],[81,2166],[81,2249],[81,2333],[81,2415],[81,2499],[81,2583],[81,2665],[81,2749],[81,2833],[81,2916],[81,3000],[81,3083],[81,3166],[81,3250],[81,3333],[81,3415],[81,3499],[81.1,3583],[81.2,3666],[81.6,3750],[81.9,3833],[82.1,3916],[82.2,3999],[82.3,4083],[82.3,4166],[82.3,4249],[82.3,4333],[82.3,4416],[82.3,4499],[82.3,4583],[82.3,4666],[82.3,4749],[82.3,4832],[82.3,4916],[82.3,4999],[82.3,5083],[82.3,5166],[82.3,5249],[82.3,5333],[82.3,5415],[82.3,5500],[82.3,5583],[82.3,5666],[82.3,5749],[82.3,5833],[82.3,5916],[82.3,6000],[82.3,6083],[82.3,6166],[82.3,6250],[82.3,6333],[82.3,6416],[82.3,6499],[82.3,6583],[82.3,6666],[82.3,6749],[82.3,6833],[82.3,6916],[82.3,6999],[82.3,7083],[82.3,7166],[82.3,7249],[82.3,7332],[82.3,7416],[82.3,7499],[82.3,7583],[82.3,7666],[82.3,7750],[82.3,7833],[82.3,7916],[82.3,7999],[82.3,8083],[82.3,8166],[82,8250],[78.4,8333],[74,8416],[68.8,8500],[67,8583],[66.9,8666],[66.9,8749],[66.9,8833],[66.9,8916],[66.9,8999],[66.9,9083],[66.9,9166],[67,9250],[68.9,9333],[70.6,9416],[72.3,9500],[73,9583],[73.6,9666],[74.1,9750],[75.2,9833],[76.3,9916],[77.2,10000],[78.1,10082],[78.2,10165],[78.4,10250],[78.7,10333],[78.9,10416],[79.1,10500],[79.3,10583],[79.5,10667],[80,10749],[80.2,10833],[80.3,10916],[80.3,10999],[80.5,11083],[80.7,11167],[80.7,11249],[80.8,11333],[80.8,11416],[80.9,11499],[80.9,11583],[80.9,11665],[80.9,11749],[80.9,11833],[80.9,11916],[80.9,12000],[80.9,12082],[80.9,12166],[80.9,12250],[80.9,12333],[80.9,12417],[82.5,12500],[82.6,12583],[82.7,12666],[82.8,12749],[82.8,12833],[82.8,12916],[82.8,12999],[82.8,13083],[82.8,13166],[82.8,13249],[82.8,13333],[82.8,13416],[82.8,13500],[82.8,13583],[82.8,13666],[82.8,13749],[82.8,13833],[82.8,13916],[82.8,13999],[82.8,14083],[82.8,14166]]",1,0,509.2935,510.2766,83.31746419,0.5969,"[{""rating"":83.31746419270833,""responseTime"":0.5968999999761309}]",space,0.4453,,510.2767,Not at all,0,510.2797,,,[],,0,13,13,13,1,audio/Narrative8Situation4.wav,audio/Narrative7Situation4.wav,audio/Narrative6Situation4.wav,audio/Narrative5Situation4.wav,3,3,2,1,,,,,,,,,,,,,,,,,,,,,,,,,,,,,,,,,,,,,,,
,,,,,,661e74ab1c19b177f9c5bb14,2024-05-13_08h30.06.908,group3.1-3.2-social-tom,2023.2.2,MacIntel,56.49717514,65c5074098b851296ff0b7ed,664231edb618aaa09c6cbdf3,,,,,,,,,,,,,,,,,,,,,,,,,,,,,510.28,1,audio/Narrative8Situation5.wav,512.2934,,512.2934,520.5432,"[[81.5,6416],[80,6500],[78,6583],[77.4,6666],[77.2,6749],[77.1,6833],[77.1,6916],[77.1,6999],[77.1,7083],[77.1,7165],[77.1,7249],[77.1,7332],[77.1,7416],[77.1,7499],[77.1,7583],[77.1,7666],[74.2,7750],[70,7833],[63.2,7916],[58.8,7999],[53.9,8083],[51.1,8166],[50.5,8249]]",1,0,520.5433,521.5935,66.84570313,0.714,"[{""rating"":66.845703125,""responseTime"":0.7139999999999418}]",space,0.5171,,521.5937,Half the time,50,521.5981,,,[],,0,14,14,14,1,audio/Narrative8Situation5.wav,audio/Narrative7Situation5.wav,audio/Narrative6Situation5.wav,audio/Narrative5Situation5.wav,2,5,2,5,,,,,,,,,,,,,,,,,,,,,,,,,,,,,,,,,,,,,,,
,,,,,,661e74ab1c19b177f9c5bb14,2024-05-13_08h30.06.908,group3.1-3.2-social-tom,2023.2.2,MacIntel,56.49717514,65c5074098b851296ff0b7ed,664231edb618aaa09c6cbdf3,,,,,,,,,,,,,,,,,,,,,,,,,,,,,521.5985,1,audio/Narrative8Situation6.wav,523.6099,,523.61,530.0938,"[[69.3,6416]]",1,0,530.0939,535.4265,50.08504232,5.0681,"[{""rating"":3.383789062499998,""responseTime"":1.54719999992858},{""rating"":8.404134114583334,""responseTime"":2.3380999999046708},{""rating"":15.466715494791666,""responseTime"":3.070699999928479},{""rating"":19.591471354166668,""responseTime"":3.330299999952331},{""rating"":25.753173828124996,""responseTime"":3.5700999999046417},{""rating"":50.08504231770833,""responseTime"":5.068099999904689}]",space,4.7825,,535.4265,All the time,100,535.4291,,,[],,0,15,15,15,1,audio/Narrative8Situation6.wav,audio/Narrative7Situation6.wav,audio/Narrative6Situation6.wav,audio/Narrative5Situation6.wav,2,3,2,3,,,,,,,,,,,,,,,,,,,,,,,,,,,,,,,,,,,,,,,
,,,,,,661e74ab1c19b177f9c5bb14,2024-05-13_08h30.06.908,group3.1-3.2-social-tom,2023.2.2,MacIntel,56.49717514,65c5074098b851296ff0b7ed,664231edb618aaa09c6cbdf3,,,,,,,,,,,,,,,,,,,,,,,,,,,,,535.4293,1,audio/Narrative8Situation7.wav,538.4434,,538.4434,550.5436,"[[55,5583],[47.5,5666],[39.4,5750],[30.8,5833],[20.5,5917],[13.7,6000],[8,6083],[6.2,6166],[4.5,6250],[3,6333],[2.2,6417],[1.9,6500],[1.7,6583],[1.3,6666],[0.8,6750],[0.8,6833],[0.8,6916],[0.8,7000],[0.8,7083],[0.8,7166],[0.8,7250],[0.8,7333],[0.8,7415],[0.8,7499],[0.8,7583],[0.8,7666],[0.8,7749],[0.8,7833],[0.8,7916],[0.8,7999],[0.8,8082],[0.8,8166],[0.8,8250],[0.8,8333],[0.8,8416],[0.8,8499],[0.8,8583],[0.8,8666],[0.8,8748],[0.8,8833],[0.8,8916],[0.8,9000],[0.8,9083],[0.8,9166],[0.8,9249],[0.8,9333],[0.8,9415],[0.8,9500],[0.8,9583],[0.8,9665],[0.8,9750],[0.8,9833],[0.8,9916],[0.8,9999],[0.8,10083],[0.8,10166],[0.8,10249],[0.8,10333],[0.8,10416],[0.8,10500],[0.8,10583],[0.8,10665],[0.8,10750],[0.8,10833],[0.8,10916],[0.8,11000],[1.2,11083],[4.5,11166],[7.8,11250],[10.5,11333],[13,11416],[15,11500],[16.2,11583],[16.4,11666],[16.4,11750],[16.4,11833],[16.4,11916],[16.4,12000],[16.4,12082]]",1,0,550.5437,551.6104,16.41560872,0.7133,"[{""rating"":16.415608723958336,""responseTime"":0.713299999952369}]",space,0.5303,,551.6105,Not at all,0,551.6132,,,[],,0,16,16,16,1,audio/Narrative8Situation7.wav,audio/Narrative7Situation7.wav,audio/Narrative6Situation7.wav,audio/Narrative5Situation7.wav,3,5,5,4,,,,,,,,,,,,,,,,,,,,,,,,,,,,,,,,,,,,,,,
,,,,,,661e74ab1c19b177f9c5bb14,2024-05-13_08h30.06.908,group3.1-3.2-social-tom,2023.2.2,MacIntel,56.49717514,65c5074098b851296ff0b7ed,664231edb618aaa09c6cbdf3,,,,,,,,,,,,,,,,,,,,,,,,,,,,,551.6134,1,audio/Narrative8Situation8.wav,554.6268,,554.6269,567.4928,"[[35.9,3166],[42.5,3250],[42.6,3333],[42.6,3416],[42.6,3499],[42.6,3583],[40.5,3666],[38.5,3750],[37.5,3833],[35.2,3916],[31.3,4000],[28.6,4083],[27.2,4166],[26.5,4250],[26,4333],[25.5,4416],[24.9,4500],[23.1,4583],[21.7,4666],[21.4,4750],[21.3,4833],[21.2,4916],[21.2,4999],[21.2,5082],[21.2,5166],[21.2,5249],[21.2,5333],[21.2,5416],[21.2,5499],[21.2,5582],[21.2,5665],[21.2,5749],[21.2,5833],[21.2,5916],[21.2,5999],[21.2,6082],[21.2,6166],[21.2,6249],[21.2,6333],[21.2,6415],[21.2,6499],[21.2,6583],[21.2,6666],[21.1,6749],[21.1,6833],[21.1,6916],[21.1,6998],[21.1,7083],[21.1,7166],[21.1,7249],[21.1,7333],[21.1,7416],[21.1,7499],[21.1,7583],[21.1,7666],[21.1,7749],[21.1,7832],[21.1,7916],[21.1,7999],[21.1,8082],[21.1,8166],[21.1,8249],[21.1,8333],[21.1,8416],[21.1,8499],[21,8583],[21,8665],[21,8749],[21,8833],[20.9,8916],[20.9,8999],[20.9,9082],[20.9,9166],[20.9,9249],[20.9,9332],[20.9,9416],[20.9,9499],[20.9,9583],[20.9,9666],[20.9,9749],[20.9,9833],[20.9,9916],[20.9,9999],[20.9,10082],[20.3,10166],[19.9,10250],[19.6,10333],[19.5,10416],[19.5,10499],[19.5,10583],[19.5,10666],[19.5,10749],[19.5,10832],[19.5,10916],[19.5,11000],[19.5,11082],[19.5,11166],[19.5,11249],[19.5,11333],[19.5,11416],[19.5,11499],[19.5,11583],[21.5,11666],[25.1,11750],[28.3,11833],[31.2,11915],[34.8,12000],[38.1,12083],[38.5,12166],[37.1,12250],[24.5,12333],[9.3,12416],[5.4,12500],[1.5,12583]]",1,0,567.493,569.1438,0.643717448,1.2815,"[{""rating"":0.6437174479166641,""responseTime"":1.2814999999999372}]",space,1.1181,,569.1438,Half the time,50,569.147,,,[],,0,17,17,17,1,audio/Narrative8Situation8.wav,audio/Narrative7Situation8.wav,audio/Narrative6Situation8.wav,audio/Narrative5Situation8.wav,3,2,5,3,,,,,,,,,,,,,,,,,,,,,,,,,,,,,,,,,,,,,,,
,,,,,,661e74ab1c19b177f9c5bb14,2024-05-13_08h30.06.908,group3.1-3.2-social-tom,2023.2.2,MacIntel,56.49717514,65c5074098b851296ff0b7ed,664231edb618aaa09c6cbdf3,,,,,,,,,,,,,,,,,,,,,,,,,,,,,569.1472,1,audio/Narrative8Situation9.wav,572.1603,,572.1603,583.4767,"[[999,8],[999,83],[999,165],[999,250],[999,333],[999,416],[999,499],[999,583],[999,666],[999,749],[999,833],[999,916],[999,999],[999,1083],[999,1166],[999,1249],[999,1333],[999,1416],[999,1500],[999,1583],[999,1665],[999,1749],[999,1832],[999,1916],[999,2000],[52.5,2083],[52,2166],[51.8,2250],[51.6,2333],[51.4,2416],[50.7,2500],[50.5,2583],[50.4,2666],[50.4,2749],[50.4,2833],[50.4,2916],[50.4,2999],[50.4,3083],[50.4,3166],[50.4,3249],[50.4,3333],[50.4,3416],[50.4,3499],[50.4,3583],[50.4,3666],[50.4,3749],[50.4,3832],[50.4,3916],[50.4,3999],[50.4,4083],[50.4,4166],[50.4,4249],[50.4,4333],[50.4,4416],[50.4,4499],[50.4,4583],[50.4,4666],[50.4,4749],[50.5,4833],[50.6,4916],[50.7,5000],[50.9,5083],[51,5166],[51.1,5250],[51.1,5333],[51.2,5416],[51.6,5500],[52.2,5583],[53.6,5666],[55.3,5749],[57.5,5833],[58.9,5916],[61.2,6000],[64.5,6083],[67.5,6166],[71.9,6250],[73.2,6333],[75,6416],[76.1,6500],[77.2,6583],[77.8,6666],[78.1,6749],[78.2,6833],[78.2,6916],[78.2,6999],[78.2,7083],[78.2,7166],[78.2,7249],[78.1,7333],[77.6,7416],[77.3,7500],[76.1,7583],[73.7,7666],[71.1,7750],[68.7,7833],[64.9,7916],[61.5,7999],[57,8083],[53.7,8166],[51.2,8249],[48.8,8333],[47.5,8416],[45,8499],[44.1,8583],[43,8666],[41.7,8750],[40,8833],[38.9,8916],[38.3,9000],[38.3,9083],[38.3,9166],[40,9250],[41.2,9333],[44.9,9416],[46.8,9499],[50,9583],[52.4,9666],[56.2,9750],[60.1,9833],[62.7,9916],[54.3,10499],[48.9,10583],[46,10666],[43.3,10750],[41,10833],[38.6,10916],[35.3,11000],[32.7,11083],[30.2,11166],[27.7,11250]]",1,0,583.4768,585.1605,4.574788411,1.3202,"[{""rating"":7.827962239583336,""responseTime"":0.8986999999284535},{""rating"":4.574788411458336,""responseTime"":1.3201999999284908}]",space,1.1485,,585.1605,All the time,100,585.1633,,,[],,0,18,18,18,1,audio/Narrative8Situation9.wav,audio/Narrative7Situation9.wav,audio/Narrative6Situation9.wav,audio/Narrative5Situation9.wav,3,2,4,3,,,,,,,,,,,,,,,,,,,,,,,,,,,,,,,,,,,,,,,
,,,,,,661e74ab1c19b177f9c5bb14,2024-05-13_08h30.06.908,group3.1-3.2-social-tom,2023.2.2,MacIntel,56.49717514,65c5074098b851296ff0b7ed,664231edb618aaa09c6cbdf3,,,,,,,,,,,,,,,,,,,,,,,,,,,587.9689,590.5438,590.5568,2,audio/Narrative13Situation2.wav,590.5568,,590.5568,620.2948,"[[999,0],[999,69],[999,153],[999,236],[999,319],[999,403],[999,486],[999,570],[999,653],[999,736],[999,820],[999,902],[999,986],[999,1070],[999,1152],[999,1236],[999,1320],[999,1403],[999,1486],[999,1570],[999,1653],[999,1736],[999,1820],[999,1903],[999,1986],[999,2070],[999,2153],[999,2235],[999,2320],[999,2403],[999,2486],[999,2570],[999,2653],[999,2736],[999,2820],[999,2903],[999,2986],[999,3070],[999,3152],[999,3236],[999,3319],[999,3403],[999,3486],[999,3569],[999,3653],[999,3736],[999,3820],[999,3903],[999,3986],[999,4070],[999,4153],[999,4236],[999,4320],[999,4403],[999,4486],[999,4570],[999,4653],[999,4736],[999,4820],[999,4903],[999,4986],[999,5070],[999,5153],[999,5236],[999,5320],[999,5403],[999,5486],[999,5570],[999,5653],[999,5736],[999,5819],[60.5,5902],[60.5,5986],[60.5,6070],[60.5,6153],[60.5,6236],[60.5,6319],[60.5,6403],[60.5,6486],[60.5,6570],[60.5,6653],[60.5,6736],[60.4,6820],[58.8,6903],[57,6986],[54.6,7070],[52.2,7153],[51.4,7237],[49.5,7320],[48.8,7403],[48.2,7486],[47.2,7569],[45.2,7653],[43.1,7737],[40.4,7820],[36.5,7903],[34.3,7986],[31.9,8070],[28.6,8153],[26.4,8236],[24.8,8320],[23.6,8403],[23.2,8487],[23,8570],[23.2,8653],[28.1,8737],[35.1,8820],[38.7,8903],[43.8,8986],[47.2,9070],[50.4,9153],[50.8,9237],[53.5,9319],[57.5,9403],[58.7,9487],[59.2,9569],[60.5,9653],[61,9736],[61,9820],[61,9902],[61,9986],[61,10070],[61,10153],[61,10236],[61,10320],[61,10403],[61,10486],[61,10570],[61,10653],[61,10736],[61,10819],[61,10903],[61,10986],[61,11070],[61,11153],[61,11236],[61,11320],[61,11402],[61,11486],[61,11570],[61,11653],[61,11736],[61,11819],[61,11902],[61,11986],[61,12070],[61,12152],[61,12236],[61,12320],[61,12403],[61,12486],[61,12570],[61,12652],[61,12736],[61,12820],[61,12903],[60.3,12987],[57.7,13070],[55.2,13153],[51.5,13236],[50.5,13320],[47,13403],[43.8,13487],[40.7,13570],[36,13653],[32,13736],[27.3,13820],[25.3,13903],[24.6,13987],[24,14070],[23.8,14153],[23.4,14236],[23,14320],[22.4,14403],[21.9,14486],[21.6,14570],[21.2,14652],[21,14736],[21,14820],[21,14903],[21,14986],[21,15070],[21,15153],[21,15236],[21,15319],[21,15403],[21,15486],[21,15570],[21,15653],[21,15736],[21,15819],[21,15903],[21,15986],[21,16069],[21,16153],[21,16237],[21,16319],[21,16403],[21,16486],[21,16570],[21,16653],[21,16736],[21,16820],[21,16903],[21,16986],[21,17070],[21,17152],[21,17236],[21,17320],[21,17403],[21,17486],[21,17570],[21,17653],[21,17736],[21,17820],[21,17903],[21,17986],[21,18070],[21,18153],[21,18236],[21,18319],[21,18403],[21,18486],[21,18570],[21,18653],[21,18736],[21.1,18820],[21.4,18903],[22.1,18987],[23.1,19070],[23.9,19153],[24.7,19237],[25,19320],[27,19403],[27.5,19486],[27.6,19570],[28.8,19653],[30.7,19736],[33.7,19820],[36.5,19903],[40.4,19986],[44.9,20070],[48.1,20153],[52.1,20236],[54.6,20320],[57.6,20403],[61.2,20487],[62.9,20570],[62.9,20653],[62.9,20735],[62.9,20820],[62,20903],[56.2,20987],[52.6,21070],[48.5,21153],[45.9,21237],[44.9,21320],[44.3,21403],[43.8,21487],[43.6,21570],[43.3,21653],[41.7,21737],[40.9,21820],[40,21903],[39.4,21987],[38.8,22070],[38.5,22153],[37.7,22237],[37.6,22320],[37.4,22403],[37.3,22486],[37.3,22570],[37.3,22653],[37.3,22736],[37.3,22820],[37.3,22902],[37.3,22986],[37.3,23070],[37.3,23153],[37,23237],[36.3,23320],[35.7,23403],[34.8,23486],[33.2,23570],[32.9,23653],[32.9,23736],[32.9,23820],[32.9,23902],[33.4,23987],[35.3,24070],[39.4,24153],[42.3,24237],[43.2,24320],[45.7,24403],[48.3,24487],[48.8,24570],[47.4,24653],[29.3,24737],[28.4,24820],[28.4,24903],[26.3,24987],[23.7,25069],[23.2,25153],[23,25237],[22.9,25319],[22.6,25403],[22.5,25486],[22.5,25570],[22.5,25653],[22.5,25736],[22.5,25820],[22.5,25903],[22.5,25986],[22.5,26070],[22.5,26153],[22.5,26236],[22.5,26320],[22.5,26403],[22.5,26486],[22.5,26570],[22.5,26653],[22.5,26736],[22.5,26820],[22.5,26903],[22.5,26986],[22.5,27070],[22.5,27153],[22.5,27236],[22.5,27320],[22.5,27403],[22.5,27486],[22.5,27570],[22.5,27653],[22.5,27736],[22.5,27820],[22.5,27903],[22.5,27986],[22.5,28070],[22.5,28153],[22.5,28236],[22.5,28320],[22.5,28403],[22.5,28486],[22.5,28570],[22.5,28653],[22.5,28736],[22.5,28820],[22.5,28902],[22.5,28986],[22.6,29070],[24.6,29153],[24.8,29236],[24.8,29320],[24.8,29403],[24.2,29486],[20,29570],[16.3,29653],[15.6,29737]]",1,0,620.2952,620.298,,,[],,,,620.298,Half the time,50,620.3019,,,[],,0,0,0,0,1,audio/Narrative13Situation2.wav,audio/Narrative13Situation2.wav,audio/Narrative13Situation2.wav,audio/Narrative13Situation2.wav,2,2,2,2,,,,,585.1641,587.9607,space,2.2778,,,,,,,,,,,,,,,,,,,,,,,,,,,,,,,
,,,,,,661e74ab1c19b177f9c5bb14,2024-05-13_08h30.06.908,group3.1-3.2-social-tom,2023.2.2,MacIntel,56.49717514,65c5074098b851296ff0b7ed,664231edb618aaa09c6cbdf3,,,,,,,,,,,,,,,,,,,,,,,,,,,,,620.3022,2,audio/Narrative5Situation1.wav,625.3109,,625.3109,638.6099,"[[999,8],[999,83],[999,165],[999,249],[999,332],[999,416],[999,499],[999,582],[999,666],[999,750],[999,833],[999,916],[999,999],[39.9,1083],[35.9,1166],[31.4,1249],[25.5,1333],[18.3,1416],[14.2,1499],[10,1582],[7.3,1665],[4.6,1749],[3.5,1832],[3.1,1915],[2.9,1998],[2.8,2082],[2.7,2166],[2.5,2249],[2.3,2333],[1.9,2416],[1.8,2499],[1.8,2582],[4.4,2665],[32,2749],[46.3,2832],[52.9,2916],[57.4,2999],[62.5,3083],[68.1,3166],[73.6,3248],[81,3333],[84.8,3416],[87.7,3499],[89.9,3583],[90.7,3666],[92.3,3749],[94,3833],[95.1,3916],[95.4,4000],[95.4,4082],[95.6,4166],[95.6,4249],[95.6,4332],[95.6,4416],[95.6,4499],[95.6,4582],[95.6,4666],[95.6,4749],[95.6,4832],[95.6,4916],[95.6,4999],[95.6,5082],[95.6,5166],[95.6,5249],[95.6,5332],[95.6,5416],[95.6,5499],[95.6,5582],[95.6,5666],[95.5,5749],[95.5,5832],[95.5,5916],[95.5,5998],[95.5,6082],[95.5,6166],[95.5,6249],[95.5,6332],[95.5,6416],[95.5,6499],[95.2,6583],[92.5,6666],[89.6,6749],[86.3,6833],[82.2,6916],[78.7,7000],[75.1,7083],[71.7,7166],[68.6,7249],[67.1,7332],[64.4,7416],[63.2,7499],[61.2,7583],[59.7,7666],[59.7,7749],[59.7,7832],[59.8,7916],[74,8166],[76.4,8249],[76.7,8332],[76.7,8416],[76.7,8499],[76.4,8582],[75.3,8665],[74.7,8749],[74,8833],[73.5,8916],[72.8,8999],[72.5,9083],[72.2,9166],[72.1,9250],[72,9333],[72,9416],[72,9499],[72,9582],[72,9666],[72,9749],[72,9832],[72,9916],[72,9999],[72,10082],[72,10166],[72,10249],[72,10331],[72,10416],[72,10499],[72,10582],[72,10666],[72,10749],[72,10832],[72,10916],[72,10999],[72,11082],[72,11166],[72,11249],[72,11333],[72,11416],[72,11499],[72,11582],[72,11666],[72,11749],[72,11832],[72,11916],[72,11999],[72,12082],[71.4,12166],[68.8,12249],[66,12333],[64.2,12415],[62.7,12499],[62.6,12583],[62.5,12666],[62.5,12749],[62.5,12833],[64.7,12916],[67.2,12999],[67.3,13082],[67.3,13166],[67.3,13249]]",1,0,638.61,641.2273,50.20507813,1.6713,"[{""rating"":50.205078125,""responseTime"":1.6713000000714828}]",space,2.0958,,641.2273,Half the time,50,641.2292,,,[],,0,1,1,1,1,audio/Narrative7Situation1.wav,audio/Narrative8Situation1.wav,audio/Narrative5Situation1.wav,audio/Narrative6Situation1.wav,2,5,5,2,,,,,,,,,,,,,,,,,,,,,,,,,,,,,,,,,,,,,,,
,,,,,,661e74ab1c19b177f9c5bb14,2024-05-13_08h30.06.908,group3.1-3.2-social-tom,2023.2.2,MacIntel,56.49717514,65c5074098b851296ff0b7ed,664231edb618aaa09c6cbdf3,,,,,,,,,,,,,,,,,,,,,,,,,,,,,641.2296,2,audio/Narrative5Situation2.wav,644.244,,644.244,673.7104,"[[59,3666],[59.1,3749],[59.1,3833],[59.2,3916],[59.2,4000],[59.2,4083],[59.3,4166],[59.3,4250],[59.4,4333],[59.5,4416],[59.5,4499],[59.5,4583],[59.5,4665],[59.5,4749],[59.5,4832],[59.5,4916],[59.5,4999],[59.5,5083],[59.5,5165],[59.5,5249],[59.5,5333],[59.5,5416],[59.5,5499],[59.5,5583],[59.5,5666],[59.5,5749],[59.5,5833],[59.5,5916],[59.5,5999],[59.5,6083],[59.5,6166],[59.5,6249],[59.5,6333],[59.5,6415],[59.5,6499],[59.5,6583],[59.5,6666],[59.4,6749],[59.4,6832],[59.4,6916],[59.4,6999],[59.4,7083],[59.4,7166],[59.4,7250],[59.4,7333],[59.4,7416],[59.4,7500],[59.4,7583],[59.4,7666],[59.4,7749],[59.4,7833],[59.4,7915],[59.4,7998],[59.4,8083],[59.4,8166],[59.4,8254],[59.4,8333],[59.4,8416],[59.4,8499],[59.4,8582],[59.4,8665],[59.4,8750],[59.4,8833],[59.4,8916],[59.4,9000],[59.4,9083],[59.4,9166],[59.4,9249],[59.4,9333],[59.4,9415],[59.4,9499],[59.4,9583],[59.4,9666],[59.4,9749],[59.4,9833],[59.4,9916],[59.4,9999],[59.4,10083],[59.4,10166],[59.4,10249],[59.4,10333],[59.4,10415],[59.4,10499],[59.4,10583],[59.4,10666],[59.4,10750],[59.4,10833],[59.4,10916],[59.4,11000],[59.4,11083],[59.4,11166],[59.4,11249],[59.4,11332],[59.4,11416],[59.4,11499],[59.4,11582],[59.4,11666],[59.8,11750],[66.1,11833],[69.4,11915],[74.4,12000],[75.4,12083],[75.3,12166],[67.1,12249],[52.2,12333],[45.1,12416],[38.5,12499],[33.3,12583],[27.6,12665],[23.1,12750],[19.9,12833],[16,12916],[13.3,13000],[12.2,13083],[12,13166],[12,13249],[13.1,13333],[15,13416],[15.6,13500],[16.2,13583],[16.6,13666],[16.7,13749],[16.7,13832],[16.7,13916],[16.7,13999],[16.7,14083],[16.7,14166],[16.5,14250],[16.4,14333],[16,14416],[15.3,14500],[15.1,14583],[15,14666],[15,14749],[15,14833],[15,14915],[15,14999],[15,15083],[15,15166],[15,15249],[15,15333],[15,15416],[15,15499],[15,15582],[15,15666],[15,15749],[15,15833],[15,15916],[15,15999],[15,16083],[15,16166],[15,16249],[15,16333],[15,16416],[15,16499],[15,16583],[15,16666],[15.2,16750],[18.7,16832],[22.1,16916],[26.7,17000],[35.2,17083],[38.9,17165],[42.4,17250],[45.5,17333],[50.2,17417],[52.4,17500],[56.2,17583],[60.3,17666],[63.9,17750],[64.9,17833],[65,17916],[65,17999],[65,18083],[65,18166],[65,18249],[65,18333],[65,18416],[65,18499],[65,18583],[65,18666],[65,18749],[64.9,18832],[64.8,18916],[64.8,18999],[64.8,19083],[64.8,19166],[64.6,19250],[64.5,19333],[64.5,19416],[64.5,19500],[64.5,19583],[64.5,19666],[64.5,19749],[64.5,19832],[64.5,19916],[64.5,20000],[64.6,20083],[64.9,20166],[65.4,20249],[66,20333],[66.3,20416],[66.6,20500],[67.2,20582],[68.1,20666],[68.3,20750],[68.8,20833],[69,20916],[69.3,21000],[69.3,21083],[69.3,21166],[69.3,21250],[67.4,21332],[64.4,21416],[60.8,21500],[57.5,21583],[54.3,21666],[50.8,21749],[47.7,21833],[43.3,21916],[40.5,22000],[34.5,22083],[28.8,22166],[24.5,22250],[24.2,22333],[23.4,22416],[23.3,22500],[23.3,22583],[23.3,22666],[23.6,22750],[25.3,22832],[26.6,22916],[27.6,23000],[28.1,23082],[28.3,23166],[28.3,23250],[28.3,23333],[28.3,23416],[28.3,23500],[28.3,23583],[28.3,23666],[27.9,23750],[27.6,23833],[27.4,23916],[27.3,24000],[27.3,24083],[27.2,24166],[27.1,24250],[27,24333],[27,24415],[27,24500],[27,24583],[27,24666],[27,24750],[27,24832],[27,24916],[27,24999],[27,25083],[27,25166],[27,25250],[27,25332],[27,25416],[27,25500],[27,25582],[27,25666],[27.1,25750],[27.2,25833],[27.2,25916],[27.2,26000],[27.2,26082],[27.2,26166],[27.2,26249],[27.2,26333],[27.2,26416],[27.2,26500],[27.2,26583],[27.2,26666],[27.2,26750],[27.2,26833],[27.2,26916],[27.2,27000],[27.2,27083],[27.2,27166],[27.2,27250],[27.2,27333],[27.2,27416],[27.2,27500],[27.2,27583],[27.2,27666],[25.8,27750],[25.5,27833],[25.1,27916],[24.6,27999],[24.6,28083],[24.6,28166],[24.6,28250],[24.6,28333],[24.6,28416],[24.6,28500],[24.6,28583],[24.6,28666],[24.6,28750],[24.6,28833],[24.6,28916],[24.6,29000],[24.6,29083],[24.6,29165],[24.6,29250],[24.6,29332],[24.6,29415]]",1,0,673.7106,674.5945,24.64396159,0.5754,"[{""rating"":24.643961588541668,""responseTime"":0.5753999999761845}]",space,0.3512,,674.5946,All the time,100,674.6004,,,[],,0,2,2,2,1,audio/Narrative7Situation2.wav,audio/Narrative8Situation2.wav,audio/Narrative5Situation2.wav,audio/Narrative6Situation2.wav,3,3,3,3,,,,,,,,,,,,,,,,,,,,,,,,,,,,,,,,,,,,,,,
,,,,,,661e74ab1c19b177f9c5bb14,2024-05-13_08h30.06.908,group3.1-3.2-social-tom,2023.2.2,MacIntel,56.49717514,65c5074098b851296ff0b7ed,664231edb618aaa09c6cbdf3,,,,,,,,,,,,,,,,,,,,,,,,,,,,,674.6008,2,audio/Narrative5Situation3.wav,677.6108,,677.6108,691.5277,"[[32.2,6166],[32.1,6250],[32.1,6333],[32.1,6416],[32.1,6499],[32.1,6583],[32.1,6666],[32.1,6750],[32.1,6833],[30.6,6916],[27.8,7000],[26.1,7083],[24.8,7166],[23.8,7250],[22.4,7332],[20.7,7416],[18.8,7500],[16.4,7583],[14.1,7666],[11.7,7749],[9.5,7833],[7.8,7916],[6.9,8000],[6.2,8083],[5.3,8166],[5.1,8250],[4.1,8333],[3.7,8416],[3.5,8499],[3,8583],[2.9,8666],[2.9,8749],[3.1,8832],[7.7,8916],[12.6,9000],[17.8,9083],[24.1,9166],[32.3,9250],[37.7,9333],[42,9416],[46.2,9500],[49.9,9583],[55.5,9666],[60.4,9750],[64.4,9833],[73.1,9916],[86.9,10000],[93.7,10083],[95.8,10166],[96.6,10250],[98.6,10333],[99.5,10416],[99.7,10498],[99.7,10583],[98.8,10666],[90,10750],[85.6,10833],[79.1,10916],[73.2,11000],[63.6,11083],[50.2,11166],[36,11250],[23.2,11333],[16.1,11416],[12.2,11499],[8.2,11583],[6.8,11666],[5.8,11750],[5.8,11833],[5.9,11916],[16.7,12000],[28.8,12083],[40.7,12167],[54.5,12250],[60.3,12333],[69.7,12416],[77.7,12500],[81.6,12583],[81.5,12666],[70.5,12749],[49.7,12833],[41.2,12916],[31,13000],[29.9,13083],[30.3,13166],[50.5,13250],[59.6,13333],[62.9,13416],[63.8,13500],[64,13583],[63.9,13666],[58.6,13750],[57.2,13833],[56.5,13916]]",1,0,691.5278,693.5442,77.89265951,1.4491,"[{""rating"":66.47501627604167,""responseTime"":0.76400000000001},{""rating"":71.06160481770833,""responseTime"":1.1356999999284199},{""rating"":77.89265950520834,""responseTime"":1.449099999904547}]",space,1.4808,,693.5442,Not at all,0,693.5479,,,[],,0,3,3,3,1,audio/Narrative7Situation3.wav,audio/Narrative8Situation3.wav,audio/Narrative5Situation3.wav,audio/Narrative6Situation3.wav,8,4,3,5,,,,,,,,,,,,,,,,,,,,,,,,,,,,,,,,,,,,,,,
,,,,,,661e74ab1c19b177f9c5bb14,2024-05-13_08h30.06.908,group3.1-3.2-social-tom,2023.2.2,MacIntel,56.49717514,65c5074098b851296ff0b7ed,664231edb618aaa09c6cbdf3,,,,,,,,,,,,,,,,,,,,,,,,,,,,,693.5482,2,audio/Narrative5Situation4.wav,694.5609,,694.561,714.9611,"[[75.8,250],[75.5,333],[75.5,415],[75.5,499],[75.4,583],[75.1,665],[75.1,748],[75.1,833],[75.1,916],[75.1,998],[75.1,1083],[75.1,1166],[75.1,1249],[74.8,1333],[74.8,1416],[74.8,1499],[74.7,1583],[74.7,1666],[74.7,1749],[74.7,1833],[74.7,1916],[74.7,1999],[74.7,2082],[74.7,2166],[74.7,2249],[73.6,2333],[64.5,2416],[50.9,2500],[47.4,2583],[44.7,2666],[44.7,2750],[47.3,2833],[48.3,2916],[48.4,2999],[48.4,3083],[48.4,3166],[48.5,3250],[48.5,3333],[48.6,3416],[48.6,3499],[48.7,3583],[48.7,3666],[48.7,3749],[48.7,3833],[48.7,3916],[48.7,3999],[48.7,4082],[48.7,4166],[48.7,4248],[48.7,4332],[48.7,4416],[48.7,4499],[48.7,4583],[48.7,4666],[48.7,4749],[48.7,4832],[48.7,4916],[48.7,4999],[48.7,5083],[48.7,5166],[48.7,5249],[48.7,5333],[48.7,5416],[48.7,5499],[48.7,5583],[48.7,5665],[48.7,5749],[48.7,5833],[48.7,5916],[48.7,5999],[48.7,6083],[48.7,6166],[49.8,6250],[49.8,6333],[49.8,6416],[49.8,6499],[50.4,6583],[50.5,6666],[50.4,6749],[46.3,6832],[45.9,6916],[45.8,6999],[45.9,7083],[53.6,7166],[61,7250],[65.5,7333],[67.9,7416],[69.8,7500],[72.3,7583],[74.2,7666],[75.9,7750],[77.2,7833],[77.2,7916],[77.2,7999],[77.2,8083],[77.2,8166],[77.2,8249],[77.2,8333],[77.2,8416],[76.8,8500],[76.6,8583],[76.6,8666],[76.6,8749],[76.6,8833],[76.6,8916],[76.6,8999],[76.6,9083],[76.6,9166],[76.6,9249],[76.6,9332],[76.6,9416],[76.6,9499],[76.6,9583],[76.6,9666],[76.6,9749],[76.6,9833],[76.6,9916],[76.6,9999],[76.6,10083],[76.6,10166],[76.6,10249],[76.6,10333],[76.6,10416],[76.6,10499],[76.6,10583],[76.6,10666],[76.6,10749],[76.6,10833],[76.6,10916],[76.6,10999],[76.6,11083],[76.6,11166],[76.6,11249],[76.6,11333],[76.6,11416],[76.6,11499],[76.6,11583],[76.6,11666],[76.6,11749],[76.6,11833],[76.6,11916],[76.6,11999],[76.6,12082],[76.6,12166],[76.6,12249],[77.2,12333],[77.4,12416],[77.5,12500],[77.6,12583],[77.7,12666],[77.8,12749],[77.8,12833],[77.8,12916],[77.8,13000],[77.8,13083],[77.8,13166],[77.8,13249],[77.8,13333],[77.8,13416],[77.8,13498],[77.8,13583],[77.8,13666],[77.7,13750],[77.7,13833],[77.7,13916],[77.7,13999],[77.7,14083],[77.7,14166],[77.7,14249],[77.7,14332],[77.7,14416],[77.7,14499],[78.1,14583],[78.5,14666],[79.1,14749],[80.4,14833],[81,14916],[81.2,15000],[81.7,15083],[82.1,15166],[82.8,15250],[83,15332],[83.2,15416],[83.4,15500],[83.4,15583],[83.4,15666],[83.5,15749],[84.1,15833],[84.7,15916],[86.1,16000],[86.2,16083],[87,16166],[87.9,16250],[88,16333],[88.3,16415],[88.4,16499],[88.4,16583],[88.4,16666],[89.2,16750],[89.7,16833],[90.1,16916],[90.5,16999],[91.3,17083],[91.9,17166],[92.5,17250],[92.9,17332],[93.4,17416],[94.3,17500],[94.4,17583],[94.6,17666],[94.6,17749],[94.6,17833],[94.6,17916],[94.8,17999],[94.9,18083],[95,18166],[95.1,18250],[95.2,18333],[95.2,18416],[95.4,18499],[95.6,18583],[95.7,18666],[95.8,18749],[95.9,18833],[95.9,18916],[95.9,18999],[95.9,19082],[95.9,19166],[96,19250],[96,19333],[96.1,19416],[96.3,19500],[96.4,19583],[96.4,19666],[96.5,19749],[96.5,19833],[96.5,19916],[96.5,19999],[96.5,20083],[96.5,20166],[96.5,20249],[96.5,20332]]",1,0,714.9613,716.0279,96.47094727,0.6208,"[{""rating"":96.470947265625,""responseTime"":0.6207999999522826}]",space,0.5197,,716.028,All the time,100,716.0308,,,[],,0,4,4,4,1,audio/Narrative7Situation4.wav,audio/Narrative8Situation4.wav,audio/Narrative5Situation4.wav,audio/Narrative6Situation4.wav,3,3,1,2,,,,,,,,,,,,,,,,,,,,,,,,,,,,,,,,,,,,,,,
,,,,,,661e74ab1c19b177f9c5bb14,2024-05-13_08h30.06.908,group3.1-3.2-social-tom,2023.2.2,MacIntel,56.49717514,65c5074098b851296ff0b7ed,664231edb618aaa09c6cbdf3,,,,,,,,,,,,,,,,,,,,,,,,,,,,,716.031,2,audio/Narrative5Situation5.wav,721.0446,,721.0447,736.4776,"[[999,8],[999,82],[999,166],[999,249],[999,332],[999,416],[999,499],[999,582],[999,666],[999,749],[999,832],[999,916],[999,998],[999,1082],[999,1166],[999,1249],[999,1332],[999,1416],[999,1499],[999,1582],[999,1666],[999,1749],[999,1832],[999,1916],[999,1999],[999,2082],[999,2166],[999,2249],[999,2332],[999,2415],[999,2499],[999,2582],[999,2665],[999,2749],[999,2832],[999,2915],[999,2998],[59.8,3083],[64.8,3166],[67.7,3499],[67.9,3582],[68,3666],[68,3749],[68,3832],[68.1,3916],[68.1,3999],[68.1,4082],[68.1,4166],[68.1,4249],[68.1,4332],[68.1,4416],[68.1,4499],[68.1,4582],[68.1,4666],[68.1,4749],[68.1,4832],[68.1,4916],[68.1,4999],[68.1,5082],[68.1,5166],[68.1,5249],[68.1,5332],[68.1,5416],[68.1,5499],[68.1,5582],[68.1,5665],[68,5749],[66,5832],[61.9,5916],[57.3,5999],[53.1,6083],[50.3,6166],[48.3,6249],[47.2,6333],[46.7,6416],[46.7,6499],[46.7,6582],[47.4,6665],[51,6749],[51.4,6833],[51.7,6916],[51.7,6999],[51.7,7082],[51.7,7165],[51.6,7249],[51,7333],[50.8,7416],[50.6,7499],[50.5,7582],[50.5,7666],[50.5,7749],[50.5,7832],[50.5,7916],[50.5,8000],[50.4,8083],[50.4,8166],[50.3,8249],[50.3,8332],[50.2,8416],[50.2,8499],[50.2,8582],[50.2,8666],[50.2,8749],[50.2,8832],[50.2,8915],[50.2,8999],[50.2,9082],[50.2,9166],[50.2,9249],[50.2,9332],[50.2,9416],[50.2,9499],[51,9583],[55.2,9665],[59.6,9749],[63.5,9833],[67.3,9916],[70.5,9999],[73.1,10082],[74.7,10166],[75.6,10249],[76.2,10333],[76.2,10416],[76.2,10499],[76.2,10582],[76.2,10666],[76.2,10749],[76.2,10832],[76.2,10916],[75.9,10999],[75.3,11082],[72.8,11166],[72.2,11249],[71.9,11333],[71.7,11416],[71.6,11499],[71.6,11588],[71.6,11665],[58.7,14749],[56.4,14833],[55.8,14916],[55.9,14999],[61.1,15083],[70.2,15166],[71.6,15249],[74.8,15332],[75.2,15415]]",1,0,736.4777,737.2611,75.15299479,0.2544,"[{""rating"":75.15299479166666,""responseTime"":0.25439999997615814}]",space,0.252,,737.2612,Not at all,0,743.2614,0.092773437,3.2787,"[{""rating"":0.09277343749999889,""responseTime"":3.278699999928449}]",space,0,5,5,5,1,audio/Narrative7Situation5.wav,audio/Narrative8Situation5.wav,audio/Narrative5Situation5.wav,audio/Narrative6Situation5.wav,5,2,5,2,,,5.4681,,,,,,,,,,,,,,,,,,,,,,,,,,,,,,,,,,,,
,,,,,,661e74ab1c19b177f9c5bb14,2024-05-13_08h30.06.908,group3.1-3.2-social-tom,2023.2.2,MacIntel,56.49717514,65c5074098b851296ff0b7ed,664231edb618aaa09c6cbdf3,,,,,,,,,,,,,,,,,,,,,,,,,,,,,743.2618,2,audio/Narrative5Situation6.wav,746.2779,,746.2779,751.9611,"[[48.3,5333],[54.7,5416]]",1,0,751.9613,755.078,12.32177734,2.8966,"[{""rating"":6.779785156250001,""responseTime"":2.6692999999522726},{""rating"":12.321777343750002,""responseTime"":2.8966000000237955}]",space,2.5886,,755.0781,Half the time,50,755.0809,,,[],,0,6,6,6,1,audio/Narrative7Situation6.wav,audio/Narrative8Situation6.wav,audio/Narrative5Situation6.wav,audio/Narrative6Situation6.wav,3,2,3,2,,,,,,,,,,,,,,,,,,,,,,,,,,,,,,,,,,,,,,,
,,,,,,661e74ab1c19b177f9c5bb14,2024-05-13_08h30.06.908,group3.1-3.2-social-tom,2023.2.2,MacIntel,56.49717514,65c5074098b851296ff0b7ed,664231edb618aaa09c6cbdf3,,,,,,,,,,,,,,,,,,,,,,,,,,,,,755.081,2,audio/Narrative5Situation7.wav,759.0946,,759.0946,780.145,"[[999,8],[999,83],[999,165],[999,250],[999,332],[999,416],[999,499],[999,583],[999,666],[999,750],[999,833],[50,916],[49.9,1000],[49.9,1083],[49.9,1166],[49.9,1249],[49.9,1333],[49.9,1416],[49.9,1499],[49.9,1590],[49.9,1665],[49.9,1749],[49.9,1833],[49.9,1916],[49.9,1999],[49.9,2083],[49.9,2166],[49.9,2249],[49.9,2332],[49.9,2416],[49.9,2499],[49.9,2583],[49.9,2666],[49.9,2749],[49.9,2833],[49.9,2916],[49.9,2999],[49.9,3083],[49.9,3165],[49.9,3248],[49.9,3333],[49.9,3416],[49.9,3499],[49.9,3583],[49.9,3665],[49.9,3749],[49.9,3833],[49.9,3916],[49.9,3999],[49.9,4083],[49.9,4166],[49.9,4250],[49.9,4333],[49.9,4415],[49.9,4499],[49.9,4583],[49.9,4666],[49.9,4749],[49.9,4833],[49.9,4916],[49.9,4999],[49.9,5083],[49.9,5166],[49.9,5249],[49.9,5333],[49.9,5416],[49.9,5499],[49.9,5583],[49.9,5666],[49.9,5749],[49.9,5833],[49.9,5916],[49.9,5999],[49.9,6083],[49.9,6166],[49.9,6250],[49.9,6333],[49.9,6416],[49.9,6500],[49.9,6583],[49.9,6665],[49.9,6749],[49.9,6833],[49.9,6916],[49.9,6999],[49.9,7083],[49.9,7166],[49.9,7249],[49.9,7333],[49.9,7416],[49.9,7500],[49.9,7582],[49.9,7666],[49.9,7749],[49.9,7832],[49.9,7916],[49.9,7999],[49.9,8082],[49.9,8166],[49.9,8249],[49.9,8332],[49.9,8416],[49.9,8499],[49.9,8583],[49.9,8666],[49.9,8749],[49.9,8833],[49.9,8916],[49.9,9000],[49.9,9083],[49.9,9166],[49.9,9248],[49.9,9333],[49.9,9416],[49.9,9498],[49.9,9583],[49.9,9666],[49.9,9749],[49.9,9833],[49.9,9916],[49.9,9999],[49.9,10083],[49.9,10166],[49.9,10249],[49.9,10332],[49.9,10416],[49.9,10499],[49.9,10583],[49.9,10666],[49.9,10749],[49.9,10833],[49.9,10916],[49.9,10999],[49.9,11083],[49.9,11166],[49.9,11249],[49.9,11333],[49.9,11416],[49.9,11499],[49.9,11583],[49.9,11666],[49.9,11749],[49.9,11833],[49.9,11916],[49.9,11999],[49.9,12083],[49.9,12166],[49.9,12249],[49.9,12333],[49.9,12416],[49.9,12499],[49.9,12583],[49.9,12666],[49.9,12749],[49.9,12833],[49.9,12916],[49.9,12999],[49.9,13083],[49.9,13166],[49.9,13248],[49.9,13333],[49.9,13416],[49.9,13499],[49.9,13583],[49.9,13666],[49.9,13749],[49.9,13833],[49.9,13916],[49.9,13999],[49.9,14083],[49.9,14165],[49.9,14249],[49.9,14332],[49.9,14416],[49.9,14499],[49.9,14582],[49.9,14666],[49.9,14749],[49.9,14833],[49.9,14916],[49.9,14999],[49.9,15083],[49.9,15166],[49.9,15249],[49.9,15333],[49.9,15416],[49.9,15500],[49.9,15583],[49.9,15666],[49.9,15750],[49.9,15833],[49.9,15916],[49.9,16000],[49.9,16083],[49.9,16166],[49.9,16250],[49.9,16333],[49.9,16416],[49.9,16498],[49.9,16582],[49.9,16666],[49.9,16749],[49.9,16833],[49.9,16916],[49.9,16998],[49.9,17083],[49.9,17166],[49.9,17249],[49.9,17333],[49.9,17416],[49.9,17500],[49.9,17583],[49.8,17666],[49.6,17749],[49.6,17833],[49.6,17916],[49.6,17999],[49.6,18083],[49.6,18165],[49.5,18250],[49.5,18333],[49.5,18416],[49.5,18500],[49.5,18582],[49.5,18666],[50.3,18750],[36.9,19250],[36.8,19333],[37,19416],[37.5,19500],[37.6,19583],[37.6,19666],[37.6,19749],[37.6,19833],[37.6,19916],[37.5,20000],[37.4,20083],[37.3,20166],[37.4,20250],[43.8,20333],[45.5,20416],[45.5,20499],[45.7,20583],[45.8,20666],[45.8,20750],[46.3,20833],[46.7,20916],[46.9,20999]]",1,0,780.1452,780.9778,47.17244466,0.4808,"[{""rating"":47.172444661458336,""responseTime"":0.4807999999522963}]",space,0.2944,,780.9779,Half the time,50,780.9801,,,[],,0,7,7,7,1,audio/Narrative7Situation7.wav,audio/Narrative8Situation7.wav,audio/Narrative5Situation7.wav,audio/Narrative6Situation7.wav,5,3,4,5,,,,,,,,,,,,,,,,,,,,,,,,,,,,,,,,,,,,,,,
,,,,,,661e74ab1c19b177f9c5bb14,2024-05-13_08h30.06.908,group3.1-3.2-social-tom,2023.2.2,MacIntel,56.49717514,65c5074098b851296ff0b7ed,664231edb618aaa09c6cbdf3,,,,,,,,,,,,,,,,,,,,,,,,,,,,,780.9804,2,audio/Narrative5Situation8.wav,783.9946,,783.9947,792.8281,"[[41.3,8833]]",1,0,792.8282,794.3274,92.72420247,1.114,"[{""rating"":92.72420247395834,""responseTime"":1.1140000000000327}]",space,0.9672,,794.3274,All the time,100,794.3318,,,[],,0,8,8,8,1,audio/Narrative7Situation8.wav,audio/Narrative8Situation8.wav,audio/Narrative5Situation8.wav,audio/Narrative6Situation8.wav,2,3,3,5,,,,,,,,,,,,,,,,,,,,,,,,,,,,,,,,,,,,,,,
,,,,,,661e74ab1c19b177f9c5bb14,2024-05-13_08h30.06.908,group3.1-3.2-social-tom,2023.2.2,MacIntel,56.49717514,65c5074098b851296ff0b7ed,664231edb618aaa09c6cbdf3,,,,,,,,,,,,,,,,,,,,,,,,,,,,,794.332,2,audio/Narrative5Situation9.wav,797.3447,,797.3447,836.8779,"[[999,8],[999,82],[999,166],[999,249],[999,333],[999,416],[999,499],[999,583],[999,666],[999,749],[999,833],[999,917],[999,1000],[66.6,1083],[52.4,4250],[45.2,4333],[40.8,4416],[40.8,4499],[40.8,4583],[40.8,4666],[41.1,4750],[42.5,4833],[45.7,4916],[49.2,5000],[49.8,5082],[49.8,5166],[49.8,5250],[49.8,5333],[49.8,5416],[49.8,5499],[49.8,5582],[49.8,5666],[49.8,5750],[49.8,5833],[49.8,5916],[49.8,6000],[49.8,6083],[49.8,6166],[49.8,6250],[49.8,6333],[49.8,6416],[49.8,6500],[49.8,6583],[49.8,6666],[49.8,6749],[49.8,6833],[49.8,6916],[49.8,6999],[49.8,7083],[49.8,7166],[49.8,7250],[49.8,7333],[49.8,7416],[49.8,7500],[49.8,7583],[49.8,7665],[49.8,7749],[49.8,7833],[49.8,7916],[49.8,7999],[49.8,8083],[49.8,8166],[49.8,8249],[49.8,8333],[49.8,8416],[49.9,8500],[49.8,8582],[49.8,8666],[49.8,8749],[49.8,8833],[49.9,8917],[49.9,9000],[48.5,9083],[43.9,9166],[26.5,9250],[22.4,9333],[22.4,9416],[22.4,9500],[22.4,9582],[22.4,9666],[22.4,9750],[23.5,9833],[27.6,9915],[31.8,10000],[34.9,10083],[39.1,10167],[44.2,10250],[47.7,10333],[49.7,10416],[50.2,10500],[50.2,10583],[50.2,10666],[50.3,10749],[50.3,10833],[50.3,10916],[49.1,11000],[40.7,11082],[29.6,11167],[21.2,11250],[12.6,11333],[9.4,11416],[6.8,11500],[5.4,11583],[5.4,11666],[5.5,11750],[5.5,11833],[5.7,11916],[9,12000],[12,12082],[12.1,12166],[13.9,12250],[17.1,12333],[17.2,12417],[21,12500],[25.3,12583],[31.4,12666],[37,12750],[41.9,12833],[43.1,12916],[44.7,13000],[47,13083],[47.5,13166],[48.4,13250],[48.8,13333],[49.5,13415],[50.1,13500],[50.1,13583],[50.1,13666],[50.3,13750],[50.4,13833],[50.4,13916],[50.4,13999],[50.4,14082],[50.4,14166],[50.3,14250],[50.2,14333],[50,14416],[49.7,14500],[48.5,14583],[47.5,14666],[47,14750],[46.1,14833],[44.6,14916],[43.7,15000],[43.7,15083],[44.4,15166],[49.3,15250],[52.7,15333],[55.7,15416],[58.2,15500],[60.3,15583],[63.4,15666],[63.9,15750],[64.5,15833],[64.9,15917],[65.5,16000],[65.8,16083],[66.1,16166],[66.2,16249],[66.2,16333],[66.2,16416],[66.2,16500],[66.2,16583],[66.2,16666],[66.2,16749],[66.2,16833],[66.2,16916],[66.2,16999],[66.2,17082],[66.2,17166],[66.2,17250],[66.2,17332],[66.2,17416],[66.2,17500],[66.2,17582],[66.2,17666],[66.3,17750],[67,17833],[67.6,17916],[68.8,18000],[69.4,18083],[69.7,18167],[70,18250],[70.3,18333],[70.5,18417],[70.8,18500],[71.1,18583],[72.1,18666],[73.6,18750],[76.9,18833],[79.5,18916],[81.3,19000],[81.7,19083],[81.7,19166],[81.8,19250],[81.8,19333],[81.8,19416],[81.8,19499],[80.6,19583],[77.9,19667],[75.6,19750],[73.3,19833],[70.5,19916],[68.1,20000],[68,20082],[68,20166],[68,20249],[68,20333],[68,20416],[68,20500],[68,20582],[68,20666],[68,20750],[68,20833],[68,20916],[68,21000],[68,21083],[68,21166],[68,21250],[69.1,21333],[69.3,21416],[69.7,21500],[71.4,21583],[72.3,21666],[72.3,21750],[73.6,21833],[75,21917],[75.4,22000],[75.8,22083],[75.8,22166],[75.8,22250],[75.8,22333],[75.8,22416],[75.8,22500],[75.8,22583],[75.8,22665],[75.8,22749],[75.8,22833],[75.8,22916],[75.8,23000],[75.8,23082],[75.8,23166],[75.8,23250],[75.8,23333],[75.8,23415],[75.8,23500],[75.8,23583],[75.8,23666],[75.8,23750],[75.8,23833],[75.8,23916],[75.8,24000],[75.8,24083],[75.8,24166],[75.8,24249],[75.8,24333],[75.8,24416],[75.8,24500],[75.8,24583],[75.8,24666],[75.8,24749],[75.8,24832],[75.8,24916],[75.8,25000],[75.8,25083],[75.8,25166],[75.8,25250],[75.8,25332],[75.8,25416],[75.8,25500],[75.8,25583],[75.8,25666],[75.8,25750],[75.8,25833],[75.8,25916],[75.8,26000],[75.8,26083],[75.8,26166],[75.8,26250],[75.8,26332],[75.8,26416],[75.8,26500],[75.8,26583],[75.8,26666],[75.8,26750],[75.8,26833],[75.8,26916],[75.8,27000],[75.8,27083],[75.8,27166],[75.8,27250],[75.8,27333],[75.8,27416],[75.8,27500],[75.8,27583],[75.8,27666],[75.8,27750],[75.8,27833],[75.8,27916],[75.8,28000],[75.8,28083],[75.8,28166],[75.8,28250],[75.8,28333],[75.8,28416],[75.8,28500],[75.8,28583],[75.8,28667],[75.8,28750],[75.8,28833],[75.8,28916],[75.8,28999],[75.8,29083],[75.8,29166],[75.8,29249],[75.8,29333],[75.8,29416],[75.8,29499],[75.8,29583],[75.8,29666],[75.8,29750],[75.8,29833],[75.8,29916],[75.8,30000],[75.8,30083],[75.8,30166],[75.8,30250],[75.8,30333],[75.8,30416],[75.8,30499],[75.8,30583],[75.8,30666],[75.8,30750],[75.8,30833],[75.8,30916],[75.8,30999],[75.8,31083],[75.8,31166],[75.8,31250],[75.8,31333],[75.8,31415],[75.8,31500],[75.8,31583],[75.8,31666],[75.8,31750],[75.7,31833],[75.7,31916],[75.6,31999],[73.3,32083],[73,32166],[73,32250],[73,32333],[73,32416],[73,32500],[73,32582],[73,32666],[73,32750],[73,32833],[73,32916],[73,33000],[73,33083],[73,33166],[73,33250],[73,33333],[73,33416],[73,33500],[73,33583],[73,33666],[73,33750],[73,33833],[73,33916],[73,34000],[73,34083],[73,34166],[73,34250],[73,34333],[73,34416],[73,34499],[73,34583],[73,34666],[73,34750],[73,34833],[73,34916],[73,35000],[73,35083],[73,35165],[73,35250],[73,35333],[73,35416],[73,35500],[73,35583],[73,35666],[73,35750],[73,35833],[73,35916],[73,36000],[73,36083],[73,36166],[73,36250],[73,36333],[73,36416],[73,36500],[73,36583],[73,36666],[73,36750],[73,36833],[73,36916],[73,37000],[73,37083],[73,37166],[73,37250],[73,37332],[73,37415],[73,37500],[73,37583],[73,37666],[73,37750],[73,37833],[73,37916],[73,38000],[73,38083],[73,38166],[73,38250],[73,38333],[73,38416],[73,38500],[73,38583],[73,38666],[73,38750],[73,38833],[73,38916],[73,39000],[73,39083],[73,39166],[73,39250],[73,39333],[73,39416],[73,39500]]",1,0,836.8782,838.6948,89.11865234,1.5061,"[{""rating"":85.15950520833333,""responseTime"":1.09699999999998},{""rating"":89.11865234375,""responseTime"":1.506100000023821}]",space,1.267,,838.6948,Half the time,50,838.6984,,,[],,0,9,9,9,1,audio/Narrative7Situation9.wav,audio/Narrative8Situation9.wav,audio/Narrative5Situation9.wav,audio/Narrative6Situation9.wav,2,3,3,4,,,,,,,,,,,,,,,,,,,,,,,,,,,,,,,,,,,,,,,
,,,,,,661e74ab1c19b177f9c5bb14,2024-05-13_08h30.06.908,group3.1-3.2-social-tom,2023.2.2,MacIntel,56.49717514,65c5074098b851296ff0b7ed,664231edb618aaa09c6cbdf3,,,,,,,,,,,,,,,,,,,,,,,,,,,,,838.6986,2,audio/Narrative6Situation1.wav,840.7113,,840.7113,867.2952,"[[999,0],[999,83],[999,166],[999,250],[999,333],[999,416],[999,500],[999,583],[999,666],[999,749],[999,832],[999,917],[73.5,1000],[71.9,1083],[71.9,1166],[71.7,1250],[70.3,1333],[70.3,1416],[70.3,1499],[70.3,1583],[70,1667],[68.3,1750],[65.8,1833],[63.6,1917],[60.4,2000],[59,2083],[57.5,2166],[57,2250],[56.1,2333],[54.4,2417],[54.1,2500],[53.9,2583],[53.1,2667],[52.4,2750],[51.7,2833],[51.4,2917],[51.2,3000],[51,3083],[51,3166],[51,3250],[51,3333],[51,3416],[51,3500],[51,3583],[51,3667],[51,3750],[51,3833],[51,3916],[51,3999],[51,4083],[51,4166],[51,4249],[51,4333],[51,4416],[51,4500],[51,4583],[51,4667],[51,4749],[51,4833],[51,4916],[51,5000],[51,5083],[51,5166],[51,5250],[51,5333],[51,5416],[51,5500],[51.6,5583],[52.4,5666],[53.6,5750],[55.2,5833],[58.3,5917],[61.1,6000],[61.6,6083],[61.8,6167],[61.8,6249],[61.8,6333],[61.8,6417],[61.8,6499],[61.8,6583],[61.8,6666],[61.8,6750],[61.8,6833],[61.8,6917],[61.8,7000],[61.2,7083],[59.5,7167],[57.3,7250],[55.6,7333],[53.5,7416],[53.1,7500],[52.8,7583],[52.4,7667],[51.8,7750],[51.6,7833],[51.5,7917],[50.7,8000],[50.7,8083],[50.7,8166],[50.8,8250],[54.5,8333],[58.8,8417],[61.8,8500],[63.5,8583],[64.7,8666],[66.6,8750],[66.8,8833],[67.5,8916],[68,9000],[68.1,9083],[68.1,9166],[68.1,9250],[68.1,9333],[68.1,9417],[68.1,9499],[68.1,9583],[68.1,9666],[68.1,9750],[68.1,9833],[68.1,9916],[68.1,10000],[68.1,10083],[68.1,10166],[68.1,10250],[68.1,10333],[68.1,10417],[68.1,10500],[68.1,10583],[68.1,10666],[68.1,10750],[68.1,10833],[68.1,10917],[68.1,11000],[68.3,11083],[68.8,11166],[69.3,11250],[69.5,11332],[69.9,11417],[70.5,11500],[70.9,11583],[72.3,11667],[74.2,11750],[75.1,11833],[76.6,11916],[76.9,12000],[76.9,12083],[76.9,12166],[76.9,12250],[76.9,12333],[76.9,12416],[76.9,12499],[76.9,12583],[76.9,12666],[76.9,12750],[76.9,12833],[76.9,12917],[76.9,13000],[76.9,13082],[76.9,13167],[76.9,13250],[76.9,13333],[76.9,13416],[76.9,13500],[76.9,13583],[76.9,13666],[76.9,13750],[76.9,13833],[76.8,13916],[76.8,14000],[76.6,14083],[76.5,14166],[76.5,14250],[76.5,14333],[76.5,14416],[76.5,14500],[76.5,14583],[76.5,14666],[76.5,14750],[76.4,14833],[76.3,14917],[76,15000],[75.8,15082],[75.8,15166],[75.8,15250],[75.8,15333],[75.8,15416],[75.8,15500],[75.8,15583],[75.8,15666],[75.8,15750],[75.8,15832],[75.8,15917],[75.8,16000],[75.8,16083],[75.8,16166],[75.8,16250],[75.8,16333],[75.8,16416],[75.8,16500],[75.8,16583],[75.8,16667],[75.8,16750],[75.8,16833],[75.8,16916],[75.8,17000],[75.8,17083],[75.8,17167],[75.8,17250],[75.8,17333],[75.8,17416],[75.8,17499],[75.8,17583],[75.8,17667],[75.8,17750],[75.8,17833],[75.8,17915],[75.8,18000],[75.8,18082],[75.8,18166],[75.8,18250],[75.8,18333],[75.8,18416],[75.8,18500],[75.8,18583],[75.8,18667],[75.8,18750],[75.8,18833],[75.8,18917],[75.8,19000],[75.8,19083],[75.8,19167],[75.8,19249],[75.8,19333],[75.8,19417],[75.8,19499],[75.8,19583],[75.8,19666],[75.8,19750],[75.8,19833],[75.8,19917],[75.8,20000],[75.8,20083],[75.8,20166],[75.8,20250],[75.3,20333],[74.4,20417],[71.9,20500],[71.1,20584],[70.8,20667],[70.2,20750],[70.2,20833],[70.2,20916],[70.2,21000],[70.2,21083],[71.3,21167],[73.8,21250],[76.2,21333],[78.3,21417],[79.2,21500],[79.3,21583],[79.8,21666],[80.4,21750],[80.6,21834],[81.2,21917],[81.4,22000],[81.8,22083],[82,22167],[82.2,22250],[82.3,22333],[82.3,22417],[82.3,22500],[82.3,22583],[82.3,22666],[82.3,22750],[82.3,22833],[82.3,22916],[82.3,23000],[82.3,23083],[82.3,23166],[82.3,23250],[82.3,23333],[82.3,23417],[82.3,23499],[82.3,23583],[82.2,23667],[81.7,23750],[80.8,23833],[79.8,23917],[79.1,24000],[78.8,24083],[78.8,24168],[78.8,24250],[78.8,24333],[78.8,24416],[78.8,24500],[78.8,24583],[78.8,24667],[79.1,24750],[87.5,24833],[91,24917],[91.7,25000],[92.1,25083],[92.3,25167],[92.5,25250],[92.5,25333],[92.7,25417],[92.8,25500],[92.8,25583],[93,25667],[93.5,25750],[93.5,25833],[93.5,25916],[93.5,26000],[93.5,26083],[93.4,26166],[92,26250],[91,26333],[90.6,26417],[90,26499],[90,26583]]",1,0,867.2954,868.3953,94.73551432,0.7974,"[{""rating"":94.73551432291667,""responseTime"":0.7974000000953083}]",space,0.5667,,868.3954,Not at all,0,868.3989,,,[],,0,10,10,10,1,audio/Narrative8Situation1.wav,audio/Narrative7Situation1.wav,audio/Narrative6Situation1.wav,audio/Narrative5Situation1.wav,5,2,2,5,,,,,,,,,,,,,,,,,,,,,,,,,,,,,,,,,,,,,,,
,,,,,,661e74ab1c19b177f9c5bb14,2024-05-13_08h30.06.908,group3.1-3.2-social-tom,2023.2.2,MacIntel,56.49717514,65c5074098b851296ff0b7ed,664231edb618aaa09c6cbdf3,,,,,,,,,,,,,,,,,,,,,,,,,,,,,868.3992,2,audio/Narrative6Situation2.wav,871.412,,871.412,899.9287,"[[999,8],[999,83],[999,166],[999,250],[999,332],[999,416],[999,498],[999,582],[999,665],[999,749],[999,5116],[999,5198],[999,5283],[999,5366],[999,5449],[999,5533],[999,5616],[999,5699],[999,5783],[98.6,6366],[97.4,6449],[95.3,6533],[63.3,6949],[63.2,7032],[63.2,7116],[63.2,7199],[63.2,7283],[63.2,7366],[63.2,7449],[63.2,7532],[63.2,7616],[63.2,7699],[63.2,7783],[63.2,7865],[63.2,7949],[63.2,8033],[63.2,8116],[63.2,8199],[63.2,8283],[63.2,8366],[63.2,8449],[63.2,8532],[63.2,8616],[63.2,8699],[63.2,8783],[63.2,8866],[63.2,8949],[63.1,9033],[61.8,9116],[58.9,9199],[50.8,9282],[57.8,9783],[67.5,13849],[60.2,13933],[55.3,14015],[50.9,14099],[46,14183],[43.1,14266],[42.9,14349],[42.9,14432],[43,14516],[44.9,14599],[50.6,14683],[53.6,14766],[54.5,14850],[54.7,14932],[55.5,15016],[55.8,15099],[55.8,15183],[55.8,15266],[55.8,15349],[55.8,15432],[55.8,15515],[55.8,15599],[55.8,15683],[55.8,15766],[55.8,15849],[55.8,15932],[55.8,16016],[55.8,16099],[55.8,16182],[55.8,16265],[55.8,16349],[55.8,16433],[55.8,16516],[55.8,16598],[55.8,16682],[55.8,16766],[55.8,16849],[55.8,16933],[55.8,17016],[55.8,17099],[55.8,17183],[55.8,17266],[55.8,17349],[55.8,17433],[55.9,17516],[61.4,17599],[63.7,17683],[66.3,17766],[66.4,17849],[66.4,17933],[66.4,18016],[66.4,18098],[66.4,18183],[66.4,18266],[66.4,18348],[66.4,18432],[66.4,18516],[66.5,18599],[66.8,18683],[66.8,18766],[66.8,18849],[66.9,18932],[66.9,19015],[66.9,19099],[66.9,19183],[66.9,19266],[66.9,19349],[66.9,19433],[66.9,19516],[66.9,19599],[66.9,19682],[66.9,19766],[66.9,19849],[66.9,19933],[66.9,20016],[66.9,20099],[66.9,20183],[66.9,20266],[66.9,20349],[66.9,20432],[66.9,20516],[66.9,20599],[66.9,20682],[66.8,20766],[65.8,20849],[65.5,20933],[65.3,21016],[64.9,21098],[64.9,21183],[64.9,21266],[64.9,21349],[64.1,21433],[60.3,21517],[57.5,21599],[52.3,21683],[46.1,21766],[41.8,21849],[39.3,21933],[38.7,22016],[38.7,22099],[38.7,22183],[38.8,22266],[40.7,22349],[42.9,22433],[43.2,22516],[43.8,22599],[44.2,22683],[45.5,22766],[47.1,22850],[48.5,22933],[49.3,23016],[49.9,23099],[50.5,23183],[52.1,23266],[53.3,23349],[54.4,23433],[54.9,23516],[55.1,23599],[55.4,23682],[55.6,23766],[55.6,23849],[56,23932],[56.1,24016],[56.2,24099],[56.3,24183],[56.4,24266],[56.4,24349],[56.4,24433],[56.4,24515],[56.4,24599],[56.4,24683],[56.4,24766],[56.4,24849],[56.4,24932],[56.4,25015],[56.4,25099],[56.4,25183],[56.4,25266],[56.4,25349],[56.4,25432],[56.4,25516],[56.4,25599],[56.4,25683],[56.4,25766],[56.4,25849],[56.4,25933],[56.4,26016],[56.4,26099],[56.4,26182],[56.4,26266],[56.4,26349],[56.4,26433],[56.4,26515],[56.3,26599],[53.8,26683],[50.4,26766],[46.7,26849],[44.2,26932],[42.2,27016],[40.6,27099],[40.1,27183],[38.7,27265],[37.7,27349],[37.4,27432],[37.4,27516],[37.4,27599],[37.4,27683],[37.4,27766],[37.4,27849],[37.4,27933],[37.4,28016],[37.4,28098],[37.4,28183],[37.4,28266],[37.4,28349],[37.4,28433],[37.4,28516]]",1,0,899.9288,900.9454,37.42431641,0.1386,"[{""rating"":37.42431640625,""responseTime"":0.13860000002375727}]",space,0.4666,,900.9455,Not at all,0,900.9469,,,[],,0,11,11,11,1,audio/Narrative8Situation2.wav,audio/Narrative7Situation2.wav,audio/Narrative6Situation2.wav,audio/Narrative5Situation2.wav,3,3,3,3,,,,,,,,,,,,,,,,,,,,,,,,,,,,,,,,,,,,,,,
,,,,,,661e74ab1c19b177f9c5bb14,2024-05-13_08h30.06.908,group3.1-3.2-social-tom,2023.2.2,MacIntel,56.49717514,65c5074098b851296ff0b7ed,664231edb618aaa09c6cbdf3,,,,,,,,,,,,,,,,,,,,,,,,,,,,,900.9471,2,audio/Narrative6Situation3.wav,905.9618,,905.9619,918.5787,"[[999,8],[999,83],[999,166],[999,249],[999,333],[999,416],[999,499],[999,583],[999,668],[999,750],[999,833],[999,916],[999,999],[999,1083],[999,1166],[999,1250],[999,1332],[999,1416],[999,1499],[999,1583],[999,1666],[999,1749],[999,1833],[999,1916],[999,1999],[999,2083],[999,2166],[999,2249],[999,2333],[999,2416],[999,2500],[999,2583],[999,2666],[999,2749],[999,2833],[999,2916],[999,2999],[999,3083],[999,3166],[999,3250],[999,3333],[999,3416],[999,3499],[999,3583],[999,3666],[999,3749],[999,3833],[999,3916],[999,3999],[999,4083],[999,4166],[999,4249],[999,4333],[999,4416],[999,4500],[999,4583],[999,4666],[999,4749],[999,4833],[999,4916],[999,4999],[999,5083],[999,5166],[999,5249],[999,5333],[999,5416],[999,5500],[999,5583],[999,5666],[999,5749],[999,5833],[999,5916],[999,5999],[999,6083],[999,6166],[999,6249],[999,6333],[999,6416],[999,6500],[999,6582],[999,6666],[999,6750],[999,6833],[999,6916],[999,7000],[999,7083],[999,7166],[999,7249],[999,7333],[999,7416],[999,7500],[999,7583],[999,7666],[999,7750],[999,7833],[999,7916],[999,8000],[999,8083],[999,8166],[999,8249],[999,8333],[999,8416],[999,8499],[999,8583],[999,8666],[999,8750],[999,8833],[999,8915],[999,8999],[999,9083],[999,9166],[999,9249],[999,9333],[999,9416],[999,9500],[999,9583],[999,9666],[999,9749],[999,9833],[999,9916],[999,9999],[999,10083],[999,10165],[999,10250],[999,10333],[999,10416],[999,10499],[999,10583],[999,10666],[999,10749],[999,10833],[999,10916],[999,11006],[999,11082],[999,11166],[999,11250],[999,11333],[999,11416],[999,11500],[999,11583],[999,11666],[999,11750],[999,11833],[999,11916],[999,12000],[999,12082],[999,12165],[999,12249],[999,12333],[999,12416],[999,12499],[999,12582]]",1,0,918.5789,920.2122,65.58797201,1.2395,"[{""rating"":65.58797200520834,""responseTime"":1.239500000000021}]",space,1.0852,,920.2123,All the time,100,920.2155,,,[],,0,12,12,12,1,audio/Narrative8Situation3.wav,audio/Narrative7Situation3.wav,audio/Narrative6Situation3.wav,audio/Narrative5Situation3.wav,4,8,5,3,,,,,,,,,,,,,,,,,,,,,,,,,,,,,,,,,,,,,,,
,,,,,,661e74ab1c19b177f9c5bb14,2024-05-13_08h30.06.908,group3.1-3.2-social-tom,2023.2.2,MacIntel,56.49717514,65c5074098b851296ff0b7ed,664231edb618aaa09c6cbdf3,,,,,,,,,,,,,,,,,,,,,,,,,,,,,920.2156,2,audio/Narrative6Situation4.wav,922.2286,,922.2288,934.8459,"[[70.7,1750],[74.3,1833],[74.9,1916],[75,1999],[75,2083],[75,2166],[75,2248],[75,2333],[75,2416],[75,2499],[75,2583],[75,2666],[75,2754],[75,2833],[75,2915],[75,2999],[75,3083],[75,3166],[75,3249],[75,3333],[75,3416],[75,3499],[75,3582],[75,3666],[75,3749],[75,3833],[75,3916],[74.9,4000],[74.8,4083],[74.8,4166],[74.8,4249],[74.8,4333],[74.8,4416],[74.7,4499],[74.7,4582],[74.7,4666],[74.7,4749],[74.7,4833],[74.7,4916],[74.7,4999],[74.7,5083],[74.5,5166],[74.4,5250],[74.2,5332],[74.2,5415],[74.1,5500],[73.8,5583],[73.6,5666],[73.3,5750],[73,5833],[71.7,5916],[68.7,5999],[66.7,6082],[65.2,6166],[64,6249],[63.1,6333],[62.5,6416],[62.1,6499],[62,6583],[61.7,6666],[61.4,6750],[61.2,6832],[61.2,6916],[61.2,6999],[61.2,7082],[61.2,7166],[61.2,7250],[61.2,7333],[61.2,7416],[61.3,7500],[61.4,7582],[61.7,7666],[62.7,7750],[63.4,7833],[64.1,7917],[64.4,8000],[64.6,8083],[64.7,8166],[64.9,8250],[65.1,8333],[65.5,8416],[65.5,8500],[65.7,8583],[65.9,8666],[66,8750],[66.1,8833],[66.2,8916],[66.3,8999],[66.5,9083],[66.8,9166],[67.1,9250],[67.4,9333],[67.8,9416],[68.6,9500],[69.1,9582],[69.4,9666],[69.7,9750],[70,9833],[70.4,9916],[70.6,10000],[70.7,10083],[70.9,10166],[71.3,10250],[72.9,10333],[73.3,10416],[73.6,10499],[73.7,10582],[74,10666],[74.7,10750],[74.9,10833],[75.5,10916],[76.5,11000],[78.3,11083],[79.5,11166],[79.7,11250],[79.8,11333],[80.1,11416],[80.4,11499],[80.6,11582],[80.7,11666],[80.8,11749],[81,11833],[81.1,11916],[81.1,11999],[81.1,12083],[81.1,12166],[78.2,12249],[72.2,12333],[68.2,12416],[65.4,12500],[60.4,12582]]",1,0,934.8459,935.8975,49.16219076,0.7134,"[{""rating"":49.162190755208336,""responseTime"":0.713400000095362}]",space,0.5015,,935.8976,Half the time,50,935.9011,,,[],,0,13,13,13,1,audio/Narrative8Situation4.wav,audio/Narrative7Situation4.wav,audio/Narrative6Situation4.wav,audio/Narrative5Situation4.wav,3,3,2,1,,,,,,,,,,,,,,,,,,,,,,,,,,,,,,,,,,,,,,,
,,,,,,661e74ab1c19b177f9c5bb14,2024-05-13_08h30.06.908,group3.1-3.2-social-tom,2023.2.2,MacIntel,56.49717514,65c5074098b851296ff0b7ed,664231edb618aaa09c6cbdf3,,,,,,,,,,,,,,,,,,,,,,,,,,,,,935.9012,2,audio/Narrative6Situation5.wav,937.9118,,937.9119,945.879,"[[72.8,4166],[72.9,4250],[73,4333],[73.2,4417],[73.3,4500],[73.4,4583],[73.6,4666],[73.6,4750],[73.6,4833],[73.6,4916],[73.6,5000],[73.6,5083],[73.6,5166],[73.6,5250],[73.6,5333],[73.6,5416],[73.6,5500],[73.6,5583],[73.6,5666],[73.6,5749],[73.6,5833],[73.6,5916],[73.6,6000],[73.6,6083],[73.6,6166],[73.6,6249],[73.6,6333],[73.6,6416],[73.6,6500],[73.6,6582],[73.6,6666],[73.6,6750],[73.6,6832],[73.6,6916],[73.6,7000],[73.6,7083],[73.6,7165],[73.6,7250],[73.6,7333],[73.6,7416],[73.6,7500],[73.6,7583],[73.6,7666],[73.6,7750],[73.6,7832],[73.6,7916]]",1,0,945.8791,948.5454,95.42195638,1.9551,"[{""rating"":73.846435546875,""responseTime"":0.7115000000000009},{""rating"":83.6181640625,""responseTime"":1.0401000000238128},{""rating"":86.52750651041667,""responseTime"":1.2994999999999663},{""rating"":95.42195638020834,""responseTime"":1.9551000000237764}]",space,2.1301,,948.5454,Not at all,0,948.5484,,,[],,0,14,14,14,1,audio/Narrative8Situation5.wav,audio/Narrative7Situation5.wav,audio/Narrative6Situation5.wav,audio/Narrative5Situation5.wav,2,5,2,5,,,,,,,,,,,,,,,,,,,,,,,,,,,,,,,,,,,,,,,
,,,,,,661e74ab1c19b177f9c5bb14,2024-05-13_08h30.06.908,group3.1-3.2-social-tom,2023.2.2,MacIntel,56.49717514,65c5074098b851296ff0b7ed,664231edb618aaa09c6cbdf3,,,,,,,,,,,,,,,,,,,,,,,,,,,,,948.5487,2,audio/Narrative6Situation6.wav,950.5622,,950.5622,961.6458,"[[999,0],[999,83],[999,166],[999,250],[999,333],[999,416],[999,500],[999,583],[999,667],[999,750],[999,834],[999,916],[999,999],[999,1083],[999,1166],[999,1248],[999,1333],[999,1416],[999,1499],[999,1583],[999,1666],[999,1749],[999,1833],[999,1916],[999,1999],[999,2083],[999,2166],[999,2249],[999,2333],[999,2416],[999,2499],[999,2583],[999,2666],[999,2750],[999,2832],[999,2915],[999,3000],[999,3083],[999,3166],[999,3250],[999,3333],[999,3416],[999,3499],[63.5,3583],[59.3,3666],[56.8,3750],[56.2,3833],[55.8,3915],[54.4,4000],[51.1,4083],[48.8,4166],[48.4,4250],[48.4,4333],[48.4,4416],[48.4,4500],[48.9,4583],[49.8,4667],[50.1,4750],[50.5,4833],[50.7,4916],[50.7,4999],[50.7,5083],[51.2,5166],[55,5250],[59,5333],[60.8,5416],[62.4,5500],[64.4,5583],[65.7,5666],[66.8,5749],[67.2,5833],[67.5,5915],[68,6000],[68.1,6083],[68.1,6166],[68.1,6250],[68.1,6333],[68.1,6416],[68.1,6499],[68.1,6583],[68.1,6666],[68.1,6750],[68.1,6832],[68.1,6916],[68.1,6999],[68.1,7083],[67.8,7167],[66.5,7250],[63.2,7332],[58.2,7416],[35.7,7500],[21,7583],[8.9,7666],[5.3,7750],[0.5,8250],[1.6,8333],[5.1,8416],[8.3,8500],[10,8583],[10.5,8666],[10.6,8750],[11.3,8833],[12.6,8916],[14.5,9000],[14.5,9083],[14.5,9166],[14.5,9249],[14.5,9332],[14.5,9416],[14.5,9499],[14.5,9582],[14.5,9666],[15.2,9750],[17.2,9833],[18.8,9916],[19.2,10000],[19.5,10082],[19.8,10166],[19.9,10250],[19.9,10333],[19.9,10416],[19.9,10499],[19.9,10583],[19.9,10666],[19.9,10749],[19.9,10833],[19.9,10916],[19.9,10999],[19.9,11083]]",1,0,961.6459,962.4974,21.11002604,0.5364,"[{""rating"":21.110026041666668,""responseTime"":0.5364000000953411}]",space,0.3239,,962.4975,Not at all,0,962.4991,,,[],,0,15,15,15,1,audio/Narrative8Situation6.wav,audio/Narrative7Situation6.wav,audio/Narrative6Situation6.wav,audio/Narrative5Situation6.wav,2,3,2,3,,,,,,,,,,,,,,,,,,,,,,,,,,,,,,,,,,,,,,,
