exp_question,consent.started,consent.stopped,consentResponse.keys,consentResponse.rt,consentResponse.duration,participantID,date,expName,psychopyVersion,OS,frameRate,STUDY_ID,SESSION_ID,opening1.started,opening1.stopped,keyEndingOpening1.keys,keyEndingOpening1.rt,keyEndingOpening1.duration,volumeAdjust.started,volumeAdjust.stopped,endingAdjust.keys,endingAdjust.rt,endingAdjust.duration,opening2.started,opening2.stopped,keyEndingOpening.keys,keyEndingOpening.rt,keyEndingOpening.duration,mouse.x,mouse.y,mouse.leftButton,mouse.midButton,mouse.rightButton,mouse.time,instructionLoop.thisRepN,instructionLoop.thisTrialN,instructionLoop.thisN,instructionLoop.thisIndex,instructionLoop.ran,readyForAudio.started,readyForAudio.stopped,fixation.started,run,audio_played,fixation.stopped,endPractice.keys,audioPre.started,audioPre.stopped,continuousResponses_audio,continuousSlider.response,continuousSlider.rt,intRating.started,intRating.stopped,intQuestionSlider.response,intQuestionSlider.rt,intQuestionSlider.history,confirmResponse.keys,confirmResponse.rt,confirmResponse.duration,catchQuestion.started,catch_label,catch_value,catchQuestion.stopped,catchQuestionSlider.response,catchQuestionSlider.rt,catchQuestionSlider.history,confirmResponse_2.keys,audioRunLoop.thisRepN,audioRunLoop.thisTrialN,audioRunLoop.thisN,audioRunLoop.thisIndex,audioRunLoop.ran,conditions1_1,conditions2_1,conditions1_2,conditions2_2,dur1_1,dur2_1,dur1_2,dur2_2,endPractice.rt,endPractice.duration,confirmResponse_2.rt,confirmResponse_2.duration,runIntervalBreak.started,runIntervalBreak.stopped,endingBreakKey.keys,endingBreakKey.rt,endingBreakKey.duration,connection.started,connection.stopped,connectionEnding.keys,connectionEnding.rt,connectionEnding.duration,readyForText.started,readyForText.stopped,textPre.started,run_dup,textPre.stopped,continuousResponses_text,textRunLoop.thisRepN,textRunLoop.thisTrialN,textRunLoop.thisN,textRunLoop.thisIndex,textRunLoop.ran,text1_1,text1_2,text2_1,text2_2,runBreakText.started,runBreakText.stopped,endingBreakKey_2.keys,endingBreakKey_2.rt,endingBreakKey_2.duration,ending.started,ending.stopped,endingEnding.keys,endingEnding.rt,endingEnding.duration
social,0.0005,9.3112,y,8.9912,,6630587a7bed8353e70484d8,2024-05-13_11h51.30.109,group3.1-3.2-social-tom,2023.2.2,Win32,60.24096386,65c5074098b851296ff0b7ed,664236da87fd9f8fa726584c,,,,,,,,,,,,,,,,,,,,,,,,,,,,,,,,,,,,,,,,,,,,,,,,,,,,,,,,,,,,,,,,,,,,,,,,,,,,,,,,,,,,,,,,,,,,,,,,,,,,,,,,,,
,,,,,,6630587a7bed8353e70484d8,2024-05-13_11h51.30.109,group3.1-3.2-social-tom,2023.2.2,Win32,60.24096386,65c5074098b851296ff0b7ed,664236da87fd9f8fa726584c,9.3115,13.2445,space,3.914,,,,,,,,,,,,,,,,,,,,,,,,,,,,,,,,,,,,,,,,,,,,,,,,,,,,,,,,,,,,,,,,,,,,,,,,,,,,,,,,,,,,,,,,,,,,,,,,,,,,,,
,,,,,,6630587a7bed8353e70484d8,2024-05-13_11h51.30.109,group3.1-3.2-social-tom,2023.2.2,Win32,60.24096386,65c5074098b851296ff0b7ed,664236da87fd9f8fa726584c,,,,,,13.2447,59.7456,space,46.1768,,,,,,,,,,,,,,,,,,,,,,,,,,,,,,,,,,,,,,,,,,,,,,,,,,,,,,,,,,,,,,,,,,,,,,,,,,,,,,,,,,,,,,,,,,,,,,,,,
,,,,,,6630587a7bed8353e70484d8,2024-05-13_11h51.30.109,group3.1-3.2-social-tom,2023.2.2,Win32,60.24096386,65c5074098b851296ff0b7ed,664236da87fd9f8fa726584c,,,,,,,,,,,59.7527,65.4958,space,5.7291,,[],[],[],[],[],[],0,0,0,0,1,,,,,,,,,,,,,,,,,,,,,,,,,,,,,,,,,,,,,,,,,,,,,,,,,,,,,,,,,,,,,,,,,,,,,,,,,,,,,,,,
,,,,,,6630587a7bed8353e70484d8,2024-05-13_11h51.30.109,group3.1-3.2-social-tom,2023.2.2,Win32,60.24096386,65c5074098b851296ff0b7ed,664236da87fd9f8fa726584c,,,,,,,,,,,65.501,89.6126,space,24.0412,,[],[],[],[],[],[],1,0,1,0,1,,,,,,,,,,,,,,,,,,,,,,,,,,,,,,,,,,,,,,,,,,,,,,,,,,,,,,,,,,,,,,,,,,,,,,,,,,,,,,,,
,,,,,,6630587a7bed8353e70484d8,2024-05-13_11h51.30.109,group3.1-3.2-social-tom,2023.2.2,Win32,60.24096386,65c5074098b851296ff0b7ed,664236da87fd9f8fa726584c,,,,,,,,,,,89.6176,130.7633,space,41.1121,,[],[],[],[],[],[],2,0,2,0,1,,,,,,,,,,,,,,,,,,,,,,,,,,,,,,,,,,,,,,,,,,,,,,,,,,,,,,,,,,,,,,,,,,,,,,,,,,,,,,,,
,,,,,,6630587a7bed8353e70484d8,2024-05-13_11h51.30.109,group3.1-3.2-social-tom,2023.2.2,Win32,60.24096386,65c5074098b851296ff0b7ed,664236da87fd9f8fa726584c,,,,,,,,,,,130.7684,161.7471,space,30.9645,,[],[],[],[],[],[],3,0,3,0,1,,,,,,,,,,,,,,,,,,,,,,,,,,,,,,,,,,,,,,,,,,,,,,,,,,,,,,,,,,,,,,,,,,,,,,,,,,,,,,,,
,,,,,,6630587a7bed8353e70484d8,2024-05-13_11h51.30.109,group3.1-3.2-social-tom,2023.2.2,Win32,60.24096386,65c5074098b851296ff0b7ed,664236da87fd9f8fa726584c,,,,,,,,,,,161.7528,180.364,space,18.5914,,[],[],[],[],[],[],4,0,4,0,1,,,,,,,,,,,,,,,,,,,,,,,,,,,,,,,,,,,,,,,,,,,,,,,,,,,,,,,,,,,,,,,,,,,,,,,,,,,,,,,,
,,,,,,6630587a7bed8353e70484d8,2024-05-13_11h51.30.109,group3.1-3.2-social-tom,2023.2.2,Win32,60.24096386,65c5074098b851296ff0b7ed,664236da87fd9f8fa726584c,,,,,,,,,,,,,,,,,,,,,,,,,,,180.3701,182.9475,182.9626,1,audio/Narrative13Situation2.wav,184.9641,,184.9643,214.715,"[[999,0],[999,82],[999,166],[999,249],[999,333],[999,416],[999,499],[999,583],[999,666],[999,749],[999,832],[999,916],[999,999],[999,1082],[999,1166],[999,1249],[999,1333],[999,1416],[999,1499],[999,1583],[999,1666],[999,1749],[999,1833],[999,1916],[999,1999],[999,2083],[999,2166],[999,2249],[999,2332],[999,2416],[999,2499],[999,2583],[999,2666],[999,2749],[999,2833],[999,2916],[999,2999],[999,3083],[999,3166],[999,3249],[999,3333],[999,3416],[999,3499],[999,3582],[999,3666],[999,3749],[999,3833],[999,3916],[999,3999],[999,4082],[999,4166],[999,4249],[999,4333],[999,4416],[999,4499],[999,4583],[999,4666],[999,4749],[999,4833],[999,4916],[999,4999],[999,5083],[999,5166],[999,5249],[999,5333],[999,5416],[999,5499],[999,5583],[999,5666],[999,5749],[999,5833],[999,5916],[999,5999],[999,6083],[999,6166],[999,6249],[999,6333],[999,6416],[999,6499],[999,6583],[999,6666],[999,6749],[999,6833],[999,6916],[999,6999],[999,7083],[999,7166],[999,7250],[999,7333],[999,7416],[999,7499],[999,7583],[999,7666],[999,7749],[999,7833],[999,7916],[999,7999],[999,8083],[999,8166],[48.1,8250],[48.5,8333],[48.5,8416],[50.2,8499],[50.8,8583],[52.5,8666],[52.8,8749],[52.8,8833],[52.8,8916],[53.4,9000],[53.8,9083],[53.9,9166],[56.6,9250],[57.4,9333],[59.9,9416],[60.5,9500],[61.9,9583],[66,9666],[61.3,9750],[60.2,9833],[65,9916],[65,9999],[65,10083],[65,10166],[65,10249],[65,10333],[65,10416],[65,10499],[65,10583],[65,10666],[67.2,10750],[67.9,10833],[65.7,10916],[70.2,13333],[71.8,13416],[72.6,13499],[73,13583],[82.7,13666],[100,13750],[100,13833],[100,13916],[100,13999],[100,14083],[100,14166],[100,14249],[100,14333],[100,14416],[100,14500],[100,14583],[100,14666],[100,14750],[100,14833],[100,14916],[100,15000],[100,15083],[100,15166],[100,15249],[100,15333],[100,15416],[100,15500],[100,15583],[100,15666],[100,15749],[100,15833],[100,15916],[100,16000],[100,16083],[100,16166],[100,16250],[100,16333],[100,16416],[100,16500],[100,16583],[100,16666],[100,16749],[100,16833],[100,16916],[100,17000],[100,17083],[100,17166],[100,17249],[100,17333],[100,17416],[100,17500],[100,17583],[100,17666],[100,17750],[100,17833],[100,17916],[100,17999],[100,18083],[100,18166],[100,18249],[97.3,18333],[79.8,18416],[55.5,18666],[47.1,18750],[43.8,18833],[43.8,18916],[43.8,18999],[45.8,19083],[47.7,19166],[50.4,19250],[50.8,19333],[51,19416],[51,19499],[51,19583],[51,19666],[51,19750],[51,19833],[51,19916],[51,20000],[51,20083],[51,20166],[51,20250],[51,20333],[51,20416],[51,20500],[51,20583],[51,20666],[50.4,20750],[50.1,20833],[50.1,20916],[50.1,21000],[50.1,21083],[50.1,21166],[50.1,21250],[50.1,21333],[46.7,21417],[43,21500],[41.4,21583],[37.9,21666],[28.8,21750],[21.3,21833],[21.3,21916],[21.3,22000],[21.3,22083],[21.3,22166],[21.3,22250],[21.3,22333],[21.3,22416],[21.3,22500],[21.3,22583],[21.3,22666],[21.3,22750],[20.9,22833],[11.3,22916],[10,23000],[10,23083],[11.6,23167],[19.2,23250],[26.8,23333],[46.1,23833],[44.1,23916],[44.1,24000],[44.1,24083],[44.1,24166],[44.1,24250],[44.1,24333],[46.1,24416],[51,24500],[51,24583],[51,24666],[51,24750],[51,24833],[51,24916],[52.6,25000],[55.3,25583],[46.8,26000],[52.6,26083],[55.7,26166],[55.7,26250],[55.7,26333],[55.7,26416],[54.6,26500],[52.2,26583],[51.9,26666],[50.9,26750],[50.9,26833],[50.5,26917],[50.3,27000],[50.3,27083],[50.3,27166],[50.3,27250],[50.3,27333],[50.3,27416],[50.3,27500],[50.3,27583],[50.3,27666],[50.3,27750],[50.3,27833],[50.2,27917],[49.8,28000],[49.5,28083],[49.3,28166],[49.3,28250],[49.3,28333],[49.3,28416],[49.3,28500],[49.3,28583],[49.3,28666],[49.6,28750],[49.8,28833],[49.8,28916],[49.8,29000],[49.8,29083],[49.8,29166],[49.8,29250],[49.8,29333],[49.8,29416],[49.8,29500],[49.8,29583],[49.8,29666],[49.8,29750]]",1,0,214.7152,235.1319,97.70833333,17.4699,"[{""rating"":97.70833333333333,""responseTime"":17.46989999999991}]",space,19.8768,,235.1321,Partially,50,235.1342,,,[],,0,0,0,0,1,audio/Narrative13Situation2.wav,audio/Narrative13Situation2.wav,audio/Narrative13Situation2.wav,audio/Narrative13Situation2.wav,2,2,2,2,,,,,,,,,,,,,,,,,,,,,,,,,,,,,,,,,,,,,,,
,,,,,,6630587a7bed8353e70484d8,2024-05-13_11h51.30.109,group3.1-3.2-social-tom,2023.2.2,Win32,60.24096386,65c5074098b851296ff0b7ed,664236da87fd9f8fa726584c,,,,,,,,,,,,,,,,,,,,,,,,,,,,,235.1344,1,audio/Narrative7Situation1.wav,238.1816,space,238.1817,294.0826,"[[999,5],[999,83],[999,166],[999,249],[999,332],[999,416],[999,499],[999,583],[999,666],[999,749],[999,833],[999,916],[999,1000],[999,1083],[999,1166],[999,1250],[999,1333],[999,1416],[999,1499],[999,1583],[999,1666],[77.3,1750],[77.1,1833],[77,1916],[77,1999],[77,2083],[77,2166],[77,2249],[77,2333],[77,2416],[77,2499],[77,2583],[77,2666],[85.1,2750],[100,2833],[100,2916],[100,2999],[100,3083],[100,3166],[100,3249],[100,3333],[100,3416],[100,3499],[100,3583],[100,3666],[100,3750],[100,3833],[69.5,5166],[46.4,5333],[46.6,5416],[52,5500],[63,5583],[67.4,5666],[67.4,5750],[67.4,5833],[100,6250],[88.9,6333],[89.1,6416],[96.1,6500],[100,6583],[100,6666],[100,6749],[100,6833],[100,6916],[100,6999],[100,7083],[100,7166],[100,7249],[100,7333],[100,7416],[100,7499],[100,7583],[100,7666],[100,7750],[100,7833],[100,7916],[100,7999],[100,8083],[100,8166],[100,8249],[100,8333],[100,8416],[100,8499],[100,8583],[100,8666],[100,8750],[100,8833],[100,8916],[100,8999],[100,9083],[100,9166],[100,9249],[100,9333],[100,9416],[100,9499],[100,9583],[100,9666],[100,9749],[100,9833],[100,9916],[100,9999],[100,10083],[100,10166],[100,10250],[100,10333],[100,10416],[100,10500],[100,10583],[100,10666],[100,10750],[100,10833],[100,10916],[100,11000],[100,11083],[100,11166],[100,11249],[100,11333],[100,11416],[100,11500],[100,11583],[100,11666],[100,11750],[100,11833],[100,11916],[100,12000],[100,12083],[100,12166],[100,12250],[100,12333],[100,12416],[100,12500],[100,12583],[100,12666],[100,12750],[100,12833],[100,12916],[100,13000],[100,13083],[100,13166],[100,13250],[100,13333],[100,13416],[100,13500],[100,13583],[100,13666],[100,13750],[100,13833],[100,13916],[100,14000],[100,14083],[100,14166],[100,14250],[100,14333],[100,14416],[100,14500],[100,14583],[100,14666],[100,14750],[100,14833],[100,14916],[100,15000],[100,15083],[100,15166],[100,15250],[100,15333],[100,15416],[100,15500],[100,15583],[100,15666],[100,15750],[100,15833],[100,15916],[100,16000],[100,16083],[100,16166],[100,16249],[100,16333],[100,16416],[100,16499],[100,16583],[100,16666],[100,16750],[100,16833],[100,16916],[100,17000],[100,17083],[100,17166],[100,17249],[100,17333],[100,17416],[100,17500],[100,17583],[100,17666],[100,17750],[100,17833],[100,17916],[100,18000],[100,18083],[100,18166],[100,18249],[100,18333],[100,18416],[100,18499],[100,18583],[100,18666],[100,18750],[100,18833],[100,18916],[100,19000],[100,19083],[100,19166],[100,19249],[100,19333],[100,19416],[100,19500],[100,19583],[100,19666],[100,19750],[100,19833],[100,19916],[100,20000],[100,20083],[100,20166],[100,20250],[100,20333],[100,20416],[100,20500],[100,20583],[100,20666],[100,20750],[100,20833],[100,20916],[100,21000],[100,21083],[100,21166],[100,21250],[100,21333],[100,21416],[100,21500],[100,21583],[100,21666],[100,21750],[100,21833],[100,21916],[100,22000],[100,22083],[100,22166],[100,22250],[100,22333],[100,22416],[100,22500],[100,22583],[100,22666],[100,22750],[100,22833],[100,22916],[100,23000],[100,23083],[100,23166],[100,23250],[100,23333],[100,23416],[100,23500],[100,23583],[100,23666],[100,23750],[100,23833],[100,23916],[100,24000],[100,24083],[100,24166],[100,24250],[100,24333],[100,24416],[100,24500],[100,24583],[100,24666],[100,24750],[100,24833],[100,24916],[100,25000],[100,25083],[100,25166],[100,25250],[100,25333],[100,25416],[100,25500],[100,25583],[100,25666],[100,25750],[100,25833],[100,25916],[100,26000],[100,26083],[100,26166],[100,26250],[100,26333],[100,26416],[100,26500],[100,26583],[100,26666],[100,26750],[100,26833],[100,26916],[100,27000],[100,27083],[100,27166],[100,27250],[100,27333],[100,27416],[100,27500],[100,27583],[100,27666],[100,27750],[100,27833],[100,27916],[100,28000],[100,28083],[100,28166],[100,28250],[100,28333],[100,28416],[100,28500],[100,28583],[100,28666],[100,28750],[100,28833],[100,28916],[100,29000],[100,29083],[100,29166],[100,29250],[100,29333],[100,29416],[100,29500],[100,29583],[100,29666],[100,29750],[100,29833],[100,29916],[100,30000],[100,30083],[100,30166],[100,30250],[100,30333],[100,30416],[100,30500],[100,30583],[100,30666],[100,30750],[100,30833],[100,30917],[100,31000],[100,31083],[100,31166],[100,31250],[100,31333],[100,31416],[100,31500],[100,31583],[100,31666],[100,31750],[100,31833],[100,31916],[100,32000],[100,32083],[100,32166],[100,32250],[100,32333],[100,32417],[100,32500],[100,32583],[100,32666],[100,32750],[100,32833],[100,32917],[100,33000],[100,33083],[100,33166],[100,33250],[100,33333],[100,33417],[100,33500],[100,33583],[100,33666],[100,33750],[100,33833],[100,33916],[100,34000],[100,34083],[100,34166],[100,34250],[100,34333],[100,34416],[100,34500],[100,34583],[100,34667],[100,34750],[100,34833],[100,34917],[100,35000],[100,35083],[100,35166],[100,35250],[100,35333],[100,35417],[100,35500],[100,35583],[100,35666],[100,35750],[100,35833],[100,35917],[100,36000],[100,36083],[100,36166],[100,36250],[100,36333],[100,36416],[100,36500],[100,36583],[100,36667],[100,36750],[100,36833],[100,36917],[100,37000],[100,37083],[100,37167],[100,37250],[100,37333],[100,37417],[100,37500],[100,37583],[100,37667],[100,37750],[100,37833],[100,37916],[100,38000],[100,38083],[100,38167],[100,38250],[100,38333],[100,38417],[100,38500],[100,38583],[100,38667],[100,38750],[100,38833],[100,38917],[100,39000],[100,39083],[100,39167],[100,39250],[100,39333],[100,39417],[100,39500],[100,39583],[100,39667],[100,39750],[100,39833],[100,39917],[100,40000],[100,40083],[100,40167],[100,40250],[100,40333],[100,40417],[100,40500],[100,40583],[100,40666],[100,40750],[100,40833],[100,40917],[100,41000],[100,41083],[100,41167],[100,41250],[100,41333],[100,41417],[100,41500],[100,41583],[100,41667],[100,41750],[100,41833],[100,41917],[100,42000],[100,42083],[100,42167],[100,42250],[100,42333],[100,42417],[100,42500],[100,42583],[100,42667],[100,42750],[100,42833],[100,42917],[100,43000],[100,43083],[100,43167],[100,43250],[100,43333],[100,43417],[100,43500],[100,43583],[100,43667],[100,43750],[100,43833],[100,43917],[100,44000],[100,44083],[100,44167],[100,44250],[100,44333],[100,44417],[100,44500],[100,44583],[100,44667],[100,44750],[100,44833],[100,44917],[100,45000],[100,45083],[100,45167],[100,45250],[100,45333],[100,45417],[100,45500],[100,45583],[100,45667],[100,45750],[100,45833],[100,45917],[100,46000],[100,46083],[100,46167],[100,46250],[100,46333],[100,46417],[100,46500],[100,46583],[100,46667],[100,46750],[100,46833],[100,46917],[100,47000],[100,47083],[100,47167],[100,47250],[100,47333],[100,47417],[100,47500],[100,47583],[100,47667],[100,47750],[100,47833],[100,47917],[100,48000],[100,48083],[100,48167],[100,48250],[100,48333],[100,48417],[100,48500],[100,48583],[100,48667],[100,48750],[100,48833],[100,48917],[100,49000],[100,49083],[100,49167],[100,49250],[100,49333],[100,49417],[100,49500],[100,49583],[100,49667],[100,49750],[100,49833],[100,49917],[100,50000],[100,50083],[100,50167],[100,50250],[100,50334],[100,50417],[100,50500],[100,50583],[100,50667],[100,50750],[100,50833],[100,50917],[100,51000],[100,51083],[100,51167],[100,51250],[100,51333],[100,51417],[100,51500],[100,51583],[100,51667],[100,51750],[100,51833],[100,51917],[100,52000],[100,52084],[100,52167],[100,52250],[100,52333],[100,52417],[100,52500],[100,52583],[100,52667],[100,52750],[100,52833],[100,52917],[100,53000],[100,53083],[100,53167],[100,53250],[100,53333],[100,53417],[100,53500],[100,53583],[100,53667],[100,53750],[100,53833],[100,53917],[100,54000],[100,54083],[100,54167],[100,54250],[100,54334],[100,54417],[100,54500],[100,54583],[100,54667],[100,54750],[100,54833],[100,54917],[100,55000],[100,55083],[100,55167],[100,55250],[100,55333],[100,55417],[100,55500],[100,55584],[100,55667],[100,55750],[100,55833]]",1,0,294.0827,299.5825,98.54166667,4.566,"[{""rating"":98.54166666666666,""responseTime"":4.566000000000031}]",space,4.9569,,299.5826,Definitely yes,100,299.5847,,,[],,0,1,1,1,1,audio/Narrative7Situation1.wav,audio/Narrative8Situation1.wav,audio/Narrative5Situation1.wav,audio/Narrative6Situation1.wav,2,5,5,2,3.0296,,,,,,,,,,,,,,,,,,,,,,,,,,,,,,,,,,,,,,
,,,,,,6630587a7bed8353e70484d8,2024-05-13_11h51.30.109,group3.1-3.2-social-tom,2023.2.2,Win32,60.24096386,65c5074098b851296ff0b7ed,664236da87fd9f8fa726584c,,,,,,,,,,,,,,,,,,,,,,,,,,,,,299.5847,1,audio/Narrative7Situation2.wav,302.5993,,302.5993,310.066,"[[100,3500],[97.8,3583],[97.2,3666],[96.9,3750],[96.9,3833],[96.9,3916],[99.5,4000],[100,4083],[100,4166],[100,4250],[100,4333],[100,4416],[100,4500],[100,4583],[100,4666],[100,4750],[100,4833],[100,4916],[100,5000],[100,5083],[100,5166],[100,5250],[100,5333],[100,5416],[100,5500],[100,5583],[100,5666],[100,5750],[100,5833],[100,5916],[100,5999],[100,6083],[100,6166],[100,6250],[100,6333],[100,6416],[100,6500],[100,6583],[100,6666],[100,6750],[100,6833],[100,6916],[100,7000],[100,7083],[100,7166],[100,7250],[100,7333],[100,7416]]",1,0,310.0661,319.3662,66.5625,7.2709,"[{""rating"":66.5625,""responseTime"":7.270900000000381}]",space,8.7591,,319.3663,Not at all,0,319.3685,,,[],,0,2,2,2,1,audio/Narrative7Situation2.wav,audio/Narrative8Situation2.wav,audio/Narrative5Situation2.wav,audio/Narrative6Situation2.wav,3,3,3,3,,,,,,,,,,,,,,,,,,,,,,,,,,,,,,,,,,,,,,,
,,,,,,6630587a7bed8353e70484d8,2024-05-13_11h51.30.109,group3.1-3.2-social-tom,2023.2.2,Win32,60.24096386,65c5074098b851296ff0b7ed,664236da87fd9f8fa726584c,,,,,,,,,,,,,,,,,,,,,,,,,,,,,319.3687,1,audio/Narrative7Situation3.wav,327.383,,327.383,336.6499,"[[999,5],[999,83],[999,166],[999,250],[999,333],[999,416],[999,500],[999,583],[999,666],[999,750],[999,833],[999,916],[999,999],[999,1083],[999,1166],[999,1249],[999,1333],[999,1416],[999,1499],[999,1583],[999,1666],[999,1750],[999,1833],[999,1916],[999,2000],[999,2083],[999,2166],[999,2250],[999,2333],[999,2416],[999,2500],[999,2583],[999,2666],[999,2750],[999,2833],[999,2916],[999,2999],[999,3083],[999,3166],[999,3250],[999,3333],[999,3416],[999,3500],[999,3583],[999,3666],[999,3750],[999,3833],[999,3916],[999,3999],[999,4083],[999,4166],[999,4250],[999,4333],[999,4416],[999,4500],[999,4583],[999,4666],[999,4750],[999,4833],[999,4916],[999,5000],[999,5083],[999,5166],[999,5250],[999,5333],[999,5416],[999,5500],[999,5583],[999,5666],[999,5749],[999,5833],[999,5916],[999,6000],[999,6083],[999,6166],[999,6250],[999,6333],[999,6416],[999,6500],[999,6583],[999,6666],[999,6750],[999,6833],[999,6916],[999,7000],[999,7083],[999,7166],[999,7250],[999,7333],[999,7416],[999,7500],[999,7583],[999,7666],[999,7750],[999,7833],[999,7916],[999,8000],[999,8083],[999,8166],[999,8250],[999,8333],[999,8416],[999,8500],[999,8583],[999,8666],[999,8750],[999,8833],[999,8916],[999,9000],[999,9083],[999,9166],[999,9250]]",1,0,336.65,346.2499,0.416666667,3.557,"[{""rating"":0.4166666666666652,""responseTime"":3.5570000000000164}]",space,9.0573,,346.2499,Definitely yes,100,346.2563,,,[],,0,3,3,3,1,audio/Narrative7Situation3.wav,audio/Narrative8Situation3.wav,audio/Narrative5Situation3.wav,audio/Narrative6Situation3.wav,8,4,3,5,,,,,,,,,,,,,,,,,,,,,,,,,,,,,,,,,,,,,,,
,,,,,,6630587a7bed8353e70484d8,2024-05-13_11h51.30.109,group3.1-3.2-social-tom,2023.2.2,Win32,60.24096386,65c5074098b851296ff0b7ed,664236da87fd9f8fa726584c,,,,,,,,,,,,,,,,,,,,,,,,,,,,,346.2565,1,audio/Narrative7Situation4.wav,349.2668,,349.2669,361.0003,"[[999,4],[999,82],[999,166],[999,249],[999,333],[999,416],[999,499],[999,583],[999,666],[999,749],[999,833],[999,916],[999,999],[999,1083],[999,1166],[999,1249],[999,1333],[999,1416],[999,1499],[999,1582],[999,1666],[999,1749],[999,1833],[999,1916],[999,1999],[999,2083],[999,2166],[999,2249],[999,2333],[999,2416],[999,2500],[999,2583],[54.1,2666],[55.3,2749],[56.7,2833],[57.4,2916],[59.3,2999],[62.1,3083],[65.9,3166],[70.4,3250],[76.8,3333],[81.9,3416],[82.9,3499],[82.9,3583],[82.9,3666],[82.9,3749],[83.1,3833],[85,3916],[85,3999],[85,4082],[85,4166],[85,4249],[85,4333],[85,4416],[85,4499],[84.4,4583],[80.7,4666],[71.4,4750],[61.6,4833],[58.5,4916],[55.8,4999],[54.7,5083],[52,5166],[49.1,5249],[49.1,5333],[49.1,5416],[48.4,5500],[39.2,5583],[32.7,5666],[31.1,5750],[30.6,5833],[26.6,5916],[24.5,5999],[20.6,6083],[18.1,6166],[16.4,6250],[14.9,6333],[13.4,6416],[12.5,6500],[10.8,6583],[10.6,6666],[9.9,6750],[9.6,6833],[8.4,6916],[7.4,7000],[7.3,7083],[7.3,7166],[7.3,7249],[7.3,7333],[7.3,7416],[7.3,7499],[7.3,7583],[7.3,7666],[7.3,7749],[7.3,7833],[7.3,7916],[7.3,7999],[7.3,8083],[7.1,8166],[7.1,8249],[7.1,8333],[7.1,8416],[7.1,8499],[7.1,8583],[7.3,8666],[11.8,8750],[13.8,8833],[17.3,8916],[21.1,9000],[23.4,9083],[25.6,9166],[26.4,9250],[26.5,9333],[26.5,9416],[26.5,9499],[26.6,9583],[26.6,9666],[26.6,9749],[26.6,9833],[26.6,9916],[26.6,9999],[26.6,10083],[26.6,10166],[26.6,10249],[26.6,10333],[26.6,10416],[26.6,10499],[26.6,10583],[26.6,10666],[26.6,10749],[26.6,10833],[26.6,10916],[26.6,10999],[26.6,11083],[26.6,11166],[26.6,11249],[26.6,11333],[26.6,11416],[26.6,11500],[26.6,11583],[26.6,11666]]",1,0,361.0005,371.6337,4.0625,10.3605,"[{""rating"":9.687499999999998,""responseTime"":6.1992000000001894},{""rating"":0.5208333333333315,""responseTime"":8.71350000000001},{""rating"":4.062500000000002,""responseTime"":10.360500000000002}]",space,10.0825,,371.6337,Not at all,0,371.6355,,,[],,0,4,4,4,1,audio/Narrative7Situation4.wav,audio/Narrative8Situation4.wav,audio/Narrative5Situation4.wav,audio/Narrative6Situation4.wav,3,3,1,2,,,,,,,,,,,,,,,,,,,,,,,,,,,,,,,,,,,,,,,
,,,,,,6630587a7bed8353e70484d8,2024-05-13_11h51.30.109,group3.1-3.2-social-tom,2023.2.2,Win32,60.24096386,65c5074098b851296ff0b7ed,664236da87fd9f8fa726584c,,,,,,,,,,,,,,,,,,,,,,,,,,,,,371.6356,1,audio/Narrative7Situation5.wav,376.6505,,376.6505,385.1506,"[[36.6,333],[36.6,416],[36.5,500],[36.1,583],[36.1,666],[36.1,749],[36.1,833],[36.1,916],[36.1,999],[36.1,1083],[36.1,1166],[36.1,1249],[36.1,1333],[45,1416],[81.4,1500],[91.7,1583],[91,1666],[78.6,1750],[60.6,1833],[59.3,1916],[59.3,1999],[59.3,2083],[54.7,2166],[54,2249],[54,2333],[53.5,2416],[52.3,2500],[52.3,2583],[52.3,2666],[52.3,2750],[52.3,2833],[52.3,2916],[52.3,3000],[52.1,3083],[52,3166],[52,3249],[51.6,3333],[51.3,3416],[50.9,3500],[50.8,3583],[50.8,3666],[50.8,3749],[50.5,3833],[50.4,3916],[50.3,4000],[50.2,4083],[50,4166],[49.9,4249],[49.9,4333],[49.8,4416],[49.8,4499],[49.8,4583],[49.8,4666],[52.4,4750],[57.2,4833],[62.2,4916],[64.1,5000],[64.1,5083],[64.1,5166],[64.1,5249],[61.9,5333],[58.6,5416],[56.9,5500],[56.7,5583],[56.6,5666],[56.6,5749],[56.6,5833],[56.4,5916],[44.3,6000],[27.1,6083],[20.2,6166],[19.4,6250],[19,6333],[15.8,6416],[11.4,6500],[10.2,6583],[7.2,6666],[7.2,6749],[7.2,6833],[7.2,6916],[7.2,6999],[7.2,7083],[7.2,7166],[7.2,7249],[7.2,7333],[7.2,7416],[7.2,7499],[7.2,7583],[7.2,7666],[7.2,7750],[7.2,7833],[7.2,7916],[7.2,8000],[7.2,8083],[7.2,8166],[7.2,8250],[7.2,8333],[5.3,8416],[4.5,8500]]",1,0,385.1507,390.834,0,4.7902,"[{""rating"":4.999999999999999,""responseTime"":3.348699999999667},{""rating"":0,""responseTime"":4.790199999999686}]",space,5.1451,,390.8341,Definitely yes,100,390.8359,,,[],,0,5,5,5,1,audio/Narrative7Situation5.wav,audio/Narrative8Situation5.wav,audio/Narrative5Situation5.wav,audio/Narrative6Situation5.wav,5,2,5,2,,,,,,,,,,,,,,,,,,,,,,,,,,,,,,,,,,,,,,,
,,,,,,6630587a7bed8353e70484d8,2024-05-13_11h51.30.109,group3.1-3.2-social-tom,2023.2.2,Win32,60.24096386,65c5074098b851296ff0b7ed,664236da87fd9f8fa726584c,,,,,,,,,,,,,,,,,,,,,,,,,,,,,390.836,1,audio/Narrative7Situation6.wav,393.8508,,393.8508,403.8175,"[[999,0],[999,83],[999,166],[999,250],[999,333],[999,416],[999,500],[21.4,2333],[32.1,2416],[33.2,2499],[33.2,2583],[33.4,2666],[37.8,2750],[44.2,2833],[69.5,3166],[83.5,3250],[83.5,3333],[83.5,3416],[85.2,3500],[100,3583],[100,3666],[100,3749],[100,3833],[100,3916]]",1,0,403.8175,406.5342,98.85416667,1.5323,"[{""rating"":98.85416666666667,""responseTime"":1.5322999999997933}]",space,2.1857,,406.5342,Not at all,0,418.9678,0.104166667,9.4868,"[{""rating"":0.1041666666666663,""responseTime"":9.4868000000003}]",space,0,6,6,6,1,audio/Narrative7Situation6.wav,audio/Narrative8Situation6.wav,audio/Narrative5Situation6.wav,audio/Narrative6Situation6.wav,3,2,3,2,,,11.9032,,,,,,,,,,,,,,,,,,,,,,,,,,,,,,,,,,,,
,,,,,,6630587a7bed8353e70484d8,2024-05-13_11h51.30.109,group3.1-3.2-social-tom,2023.2.2,Win32,60.24096386,65c5074098b851296ff0b7ed,664236da87fd9f8fa726584c,,,,,,,,,,,,,,,,,,,,,,,,,,,,,418.9727,1,audio/Narrative7Situation7.wav,423.9845,,423.9845,441.1682,"[[999,5],[999,83],[999,166],[999,249],[999,333],[999,416],[999,499],[999,583],[999,666],[999,749],[999,833],[999,916],[999,999],[999,1083],[999,1166],[999,1250],[999,1333],[999,1416],[58.8,1500],[72.2,1583],[88.2,1666],[96.8,1750],[100,1833],[100,1916],[100,1999],[100,2083],[100,2166],[100,2249],[100,2333],[100,2416],[100,2500],[100,2583],[100,2666],[100,2749],[100,2833],[100,2916],[100,3000],[100,3083],[100,3166],[100,3249],[100,3333],[100,3416],[100,3499],[100,3583],[100,3666],[100,3750],[100,3833],[100,3916],[100,4000],[100,4083],[100,4166],[100,4250],[100,4333],[100,4416],[100,4499],[100,4583],[100,4666],[100,4749],[100,4833],[100,4916],[100,5000],[100,5083],[100,5166],[100,5249],[100,5333],[100,5416],[100,5499],[99,5583],[98.8,5666],[98.8,5750],[98.8,5833],[98.8,5916],[98.8,5999],[98.8,6083],[98.8,6166],[98.8,6250],[98.8,6333],[98.8,6416],[98.8,6500],[98.8,6583],[98.8,6666],[98.8,6750],[98.8,6833],[98.8,6916],[98.8,7000],[98.8,7083],[98.8,7166],[98.8,7250],[98.8,7333],[98.8,7416],[98.8,7500],[98.8,7583],[98.8,7666],[98.8,7750],[98.8,7833],[98.8,7916],[98.8,8000],[98.8,8083],[98.8,8166],[98.8,8250],[98.8,8333],[98.8,8416],[98.8,8500],[97.6,8583],[96.9,8666],[96.4,8750],[96,8833],[96,8916],[96,9000],[96,9083],[96,9166],[96,9250],[96,9333],[96,9416],[96,9500],[96,9583],[96,9666],[96,9750],[96,9833],[96,9916],[96,10000],[96,10083],[96,10166],[96,10250],[96,10333],[96,10416],[96,10500],[96.6,10583],[100,10666],[100,10750],[100,10833],[100,10916],[100,11000],[100,11083],[100,11166]]",1,0,441.1683,446.8681,99.47916667,4.8694,"[{""rating"":99.47916666666667,""responseTime"":4.8694000000003825}]",space,5.157,,446.8681,Not at all,0,446.8692,,,[],,0,7,7,7,1,audio/Narrative7Situation7.wav,audio/Narrative8Situation7.wav,audio/Narrative5Situation7.wav,audio/Narrative6Situation7.wav,5,3,4,5,,,,,,,,,,,,,,,,,,,,,,,,,,,,,,,,,,,,,,,
,,,,,,6630587a7bed8353e70484d8,2024-05-13_11h51.30.109,group3.1-3.2-social-tom,2023.2.2,Win32,60.24096386,65c5074098b851296ff0b7ed,664236da87fd9f8fa726584c,,,,,,,,,,,,,,,,,,,,,,,,,,,,,446.8693,1,audio/Narrative7Situation8.wav,448.8848,,448.8848,458.9018,"[[999,0],[999,83],[999,166],[999,250],[999,333],[999,416],[999,500],[999,583],[999,666],[999,750],[999,833],[999,916],[999,1000],[999,1083],[999,1166],[999,1250],[999,1333],[999,1416],[999,1500],[999,1583],[999,1666],[999,1750],[999,1833],[999,1916],[999,2000],[999,2083],[999,2166],[999,2250],[999,2333],[999,2416],[999,2500],[999,2583],[999,2666],[999,2750],[999,2833],[999,2916],[999,3000],[999,3083],[999,3166],[999,3250],[999,3333],[999,3416],[999,3500],[999,3583],[999,3666],[999,3750],[999,3833],[999,3916],[999,4000],[999,4083],[999,4166],[999,4250],[999,4333],[999,4416],[999,4500],[999,4583],[999,4666],[999,4750],[999,4833],[999,4916],[999,5000],[999,5083],[999,5166],[999,5250],[999,5333],[999,5416],[999,5500],[999,5583],[999,5666],[999,5750],[999,5833],[999,5916],[999,6000],[999,6083],[999,6166],[999,6250],[999,6333],[999,6416],[999,6500],[100,6583],[100,6666],[100,6750],[100,6833],[100,6916]]",1,0,458.9019,465.2351,99.0625,5.3838,"[{""rating"":99.0625,""responseTime"":5.383799999999837}]",space,5.784,,465.2351,Definitely yes,100,465.2369,,,[],,0,8,8,8,1,audio/Narrative7Situation8.wav,audio/Narrative8Situation8.wav,audio/Narrative5Situation8.wav,audio/Narrative6Situation8.wav,2,3,3,5,,,,,,,,,,,,,,,,,,,,,,,,,,,,,,,,,,,,,,,
,,,,,,6630587a7bed8353e70484d8,2024-05-13_11h51.30.109,group3.1-3.2-social-tom,2023.2.2,Win32,60.24096386,65c5074098b851296ff0b7ed,664236da87fd9f8fa726584c,,,,,,,,,,,,,,,,,,,,,,,,,,,,,465.2369,1,audio/Narrative7Situation9.wav,467.2518,,467.2518,475.8853,"[[999,0],[999,83],[999,166],[999,249],[999,333],[999,416],[999,500],[999,583],[999,666],[999,749],[999,833],[999,916],[999,1000],[999,1083],[999,1166],[999,1250],[999,1333],[999,1416],[999,1499],[999,1583],[999,1666],[999,1750],[999,1833],[999,1916],[999,2000],[69.6,2083],[69.6,2166],[69.5,2250],[69.2,2333],[67.8,2416],[67.8,2500],[68,2583],[82.1,2666],[87.9,2749],[87.9,2833],[87.9,2916],[87.9,2999],[92.1,3083],[95.2,3166],[95.2,3250],[95.2,3333],[95.2,3416],[95.2,3499],[95.2,3583],[95.2,3666],[95.2,3750],[95.2,3833],[95.2,3916],[95.2,3999],[100,4083],[100,4166],[100,4250],[100,4333],[100,4416],[100,4500]]",1,0,475.8854,482.6854,99.0625,5.7478,"[{""rating"":99.0625,""responseTime"":5.747799999999813}]",space,6.2662,,482.6854,Partially,50,482.6873,,,[],,0,9,9,9,1,audio/Narrative7Situation9.wav,audio/Narrative8Situation9.wav,audio/Narrative5Situation9.wav,audio/Narrative6Situation9.wav,2,3,3,4,,,,,,,,,,,,,,,,,,,,,,,,,,,,,,,,,,,,,,,
,,,,,,6630587a7bed8353e70484d8,2024-05-13_11h51.30.109,group3.1-3.2-social-tom,2023.2.2,Win32,60.24096386,65c5074098b851296ff0b7ed,664236da87fd9f8fa726584c,,,,,,,,,,,,,,,,,,,,,,,,,,,,,482.6875,1,audio/Narrative8Situation1.wav,487.7021,,487.7021,503.6191,"[[999,5],[999,83],[999,166],[999,249],[999,333],[999,416],[999,500],[999,583],[999,666],[999,749],[999,833],[999,916],[999,1000],[999,1083],[999,1166],[999,1249],[999,1333],[999,1416],[999,1500],[999,1583],[999,1666],[999,1750],[999,1833],[999,1916],[999,2000],[999,2083],[999,2166],[999,2249],[999,2333],[999,2416],[999,2500],[999,2583],[999,2666],[999,2750],[999,2833],[999,2916],[999,3000],[999,3083],[999,3166],[999,3250],[999,3333],[999,3416],[999,3500],[999,3583],[999,3666],[999,3750],[999,3833],[999,3916],[999,4000],[999,4083],[999,4166],[999,4249],[999,4333],[999,4416],[999,4500],[999,4583],[999,4666],[999,4750],[999,4833],[999,4916],[999,5000],[999,5083],[999,5166],[999,5250],[999,5333],[999,5416],[999,5500],[999,5583],[999,5666],[999,5749],[999,5833],[999,5916],[999,6000],[999,6083],[999,6166],[999,6250],[999,6333],[999,6416],[999,6500],[999,6583],[999,6666],[999,6750],[999,6833],[999,6916],[16.8,7000],[13.9,7083],[11.7,7166],[11.7,7250],[11.5,7333],[11.4,7416],[11.3,7500],[11.3,7583],[11.3,7666],[11.3,7750],[11,7833],[11,7916],[11,8000],[10.9,8083],[10.9,8166],[10.9,8250],[10.9,8333],[10.9,8416],[10.9,8500],[10.9,8583],[10.9,8666],[10.9,8750],[10.9,8833],[10.9,8916],[10.9,9000],[10.9,9083],[10.9,9166],[10.9,9250],[10.9,9333],[10.9,9416],[10.9,9500],[10.9,9583],[10.9,9666],[10.9,9750],[18.5,9833],[45.8,9916],[74.6,10000],[86.4,10083],[99,10166],[100,10250],[100,10333],[100,10416],[100,10500],[100,10583],[100,10666],[100,10750],[100,10833],[100,10916],[100,11000],[99.9,11083],[99.6,11166],[99.5,11250],[99.5,11333],[99.5,11416],[99.5,11500],[99.5,11583],[99.5,11666],[99.5,11750],[99.5,11833],[99.5,11916],[99.5,12000],[99.5,12083],[99.5,12166],[99.5,12250],[99.5,12333],[99.5,12416],[99.5,12500],[99.5,12583],[99.5,12666],[99.5,12750],[99.5,12833],[99.5,12916],[99.5,13000],[99.5,13083],[99.5,13166],[99.5,13250],[99.5,13333],[99.5,13416],[99.5,13500],[98.6,13583],[97.7,13666],[97.6,13750],[97.6,13833],[97.6,13916],[97.6,14000],[97.6,14083],[97.6,14166],[97.6,14250],[97.6,14333],[97.6,14416],[97.6,14500],[97.6,14583],[97.6,14666],[97.6,14750],[97.6,14833],[97.6,14916],[97.9,15000],[97.9,15083],[98.1,15166],[98.2,15250],[98.4,15333],[98.5,15416],[98.5,15500],[98.5,15583],[98.5,15666],[98.5,15750],[98.5,15833],[98.5,15916]]",1,0,503.6191,505.819,98.33333333,0.9766,"[{""rating"":98.33333333333334,""responseTime"":0.976599999999678}]",space,1.6726,,505.8191,Not at all,0,505.8207,,,[],,0,10,10,10,1,audio/Narrative8Situation1.wav,audio/Narrative7Situation1.wav,audio/Narrative6Situation1.wav,audio/Narrative5Situation1.wav,5,2,2,5,,,,,,,,,,,,,,,,,,,,,,,,,,,,,,,,,,,,,,,
,,,,,,6630587a7bed8353e70484d8,2024-05-13_11h51.30.109,group3.1-3.2-social-tom,2023.2.2,Win32,60.24096386,65c5074098b851296ff0b7ed,664236da87fd9f8fa726584c,,,,,,,,,,,,,,,,,,,,,,,,,,,,,505.8209,1,audio/Narrative8Situation2.wav,508.8357,,508.8358,518.9693,"[[95.2,2750],[95,2833],[95,2916],[95,3000],[95,3083],[95,3166],[94.9,3250],[94.6,3333],[94.3,3416],[94,3500],[93.3,3583],[92.8,3666],[92.7,3750],[92.7,3833],[91.8,3916],[89.7,4000],[27.5,4750],[21.4,4833],[19.1,4916],[17.4,5000],[16.5,5083],[15.3,5166],[13.9,5250],[12.1,5333],[10.2,5416],[8.1,5500],[7.4,5583],[6.9,5666],[6.9,5749],[6.9,5833],[6.9,5916],[6.9,6000],[6.9,6083],[6.9,6166],[6.9,6250],[6.9,6333],[6.9,6416],[6.9,6500],[6.9,6583],[6.9,6666],[6.9,6749],[6.9,6833],[6.9,6916],[6.9,7000],[6.9,7083],[6.9,7166],[6.9,7250],[6.9,7333],[6.9,7416],[6.9,7500],[6.9,7583],[6.9,7666],[6.9,7749],[6.9,7833],[6.9,7916],[6.9,8000],[6.9,8083],[6.9,8166],[6.9,8250],[6.9,8333],[6.9,8416],[6.9,8500],[6.9,8583],[6.9,8666],[6.9,8750],[6.9,8833],[6.9,8916],[6.9,9000],[6.9,9083],[6.9,9166],[6.9,9250],[6.9,9333],[6.9,9416],[6.9,9500],[6.9,9583],[6.9,9666],[6.9,9750],[5.7,9833]]",1,0,518.9694,524.7028,2.1875,5.1592,"[{""rating"":4.375000000000001,""responseTime"":4.328099999999608},{""rating"":2.187499999999998,""responseTime"":5.1591999999992595}]",space,5.1826,,524.7028,Partially,50,524.7043,,,[],,0,11,11,11,1,audio/Narrative8Situation2.wav,audio/Narrative7Situation2.wav,audio/Narrative6Situation2.wav,audio/Narrative5Situation2.wav,3,3,3,3,,,,,,,,,,,,,,,,,,,,,,,,,,,,,,,,,,,,,,,
,,,,,,6630587a7bed8353e70484d8,2024-05-13_11h51.30.109,group3.1-3.2-social-tom,2023.2.2,Win32,60.24096386,65c5074098b851296ff0b7ed,664236da87fd9f8fa726584c,,,,,,,,,,,,,,,,,,,,,,,,,,,,,524.7045,1,audio/Narrative8Situation3.wav,528.7195,,528.7195,551.1032,"[[999,5],[999,83],[999,166],[999,250],[999,333],[999,416],[999,500],[999,583],[999,666],[999,750],[999,833],[999,916],[999,999],[999,1083],[999,1166],[999,1249],[999,1333],[999,1416],[999,1500],[999,1583],[999,1666],[999,1750],[999,1833],[999,1916],[999,2000],[999,2083],[999,2166],[999,2250],[999,2333],[999,2416],[999,2500],[999,2583],[999,2666],[999,2750],[15.3,2833],[11.7,2916],[10.3,3000],[8.2,3083],[6.6,3166],[6,3250],[4.4,3333],[3.6,3416],[2.4,3500],[1.8,3583],[1.7,3666],[1.5,3749],[1.7,3833],[5,3916],[10.7,4000],[18.4,4083],[24.6,4166],[31.9,4250],[36.5,4333],[40.4,4416],[45.1,4500],[48.8,4583],[53,4666],[55.8,4750],[58,4833],[61.5,4916],[64.7,5000],[71.5,5083],[75.3,5166],[76.6,5250],[75.9,5333],[72.4,5416],[72.4,5499],[72.4,5583],[72.4,5666],[71.5,5750],[66.1,5833],[57.4,5916],[49.5,6000],[46.7,6083],[46.5,6166],[46.5,6250],[49.5,6333],[55.7,6416],[57.2,6500],[57.5,6583],[58.1,6666],[56.4,6750],[51,6833],[46.1,6916],[45.9,7000],[45.3,7083],[45.3,7166],[48,7250],[53.8,7333],[56,7416],[56.1,7500],[56,7583],[48.9,7666],[44.9,7750],[42.8,7833],[42.4,7916],[44.1,8000],[51.5,8083],[56.9,8166],[59.9,8250],[59.9,8333],[55.2,8416],[43.3,8500],[40.9,8583],[40.5,8666],[46.4,8750],[55.8,8833],[65.2,8916],[75.8,9000],[78.6,9083],[77.9,9166],[70,9250],[62.6,9333],[60.5,9416],[63.2,9500],[75,9583],[83.8,9666],[89.4,9750],[90.3,9833],[85.3,9916],[78.4,10000],[77.9,10083],[78.9,10166],[87.8,10250],[92,10333],[90.6,10416],[80.5,10500],[78.5,10583],[86.4,10666],[90.8,10750],[89.8,10833],[89.4,10916],[89.4,11000],[89.4,11083],[89.4,11166],[89.4,11250],[89.4,11333],[89.5,11416],[94.4,11500],[95.1,11583],[95.1,11666],[95.1,11750],[95.1,11833],[95.1,11916],[95.1,12000],[95.1,12083],[95.1,12166],[95.1,12249],[95.1,12333],[95.1,12416],[95.2,12500],[96.3,12583],[96.4,12666],[96.4,12750],[96.4,12833],[96.4,12916],[97.3,13000],[97.4,13083],[97.4,13166],[97.4,13250],[97.4,13333],[97.4,13416],[97.4,13500],[97.4,13583],[97.4,13666],[97.4,13750],[97.3,13833],[97.3,13916],[97.3,14000],[97.3,14083],[97.2,14166],[97.1,14250],[97.1,14333],[97.1,14416],[97.1,14500],[97.1,14583],[97.1,14666],[97.1,14750],[97.1,14833],[97.1,14916],[97.1,15000],[97.1,15083],[97.1,15166],[97.1,15250],[97.1,15333],[97.1,15416],[97.1,15500],[97.1,15583]]",1,0,551.1033,557.2032,99.79166667,2.6014,"[{""rating"":99.79166666666667,""responseTime"":2.601400000000467}]",space,5.5482,,557.2032,Not at all,0,557.2099,,,[],,0,12,12,12,1,audio/Narrative8Situation3.wav,audio/Narrative7Situation3.wav,audio/Narrative6Situation3.wav,audio/Narrative5Situation3.wav,4,8,5,3,,,,,,,,,,,,,,,,,,,,,,,,,,,,,,,,,,,,,,,
,,,,,,6630587a7bed8353e70484d8,2024-05-13_11h51.30.109,group3.1-3.2-social-tom,2023.2.2,Win32,60.24096386,65c5074098b851296ff0b7ed,664236da87fd9f8fa726584c,,,,,,,,,,,,,,,,,,,,,,,,,,,,,557.2101,1,audio/Narrative8Situation4.wav,560.2198,,560.2199,574.4035,"[[100,2000],[100,2083],[100,2166],[22.3,2916],[26.4,3000],[26.6,3083],[32.5,3166],[49.4,3250],[66,3333],[66,3416],[68.6,3500],[81.3,3833],[80.9,3916],[82,4000],[83.5,4083],[86.1,4166],[86.1,4249],[86.1,4333],[86.3,4416],[90.3,4500],[92.4,4583],[92.9,4666],[92.9,4750],[93.4,4833],[93.9,4916],[93.9,5000],[93.9,5083],[93.9,5166],[93.9,5250],[93.9,5333],[93.9,5416],[93.9,5500],[93.9,5583],[93.9,5666],[93.9,5750],[93.9,5833],[93.6,5916],[92.9,6000],[92.9,6083],[92.9,6166],[92.9,6250],[92.8,6333],[92.5,6416],[92.5,6500],[92.5,6583],[92.5,6666],[92.5,6750],[92.5,6833],[92.5,6916],[92.5,7000],[92.5,7083],[92.5,7166],[92.5,7250],[92.5,7333],[92.5,7416],[92.5,7500],[92.5,7583],[92.5,7666],[92.5,7750],[92.5,7833],[92.5,7916],[92.5,8000],[92.5,8083],[92.5,8166],[92.5,8250],[92.5,8333],[92.5,8416],[92.5,8500],[92.6,8583],[92.7,8666],[93.4,8750],[94.1,8833],[95.2,8916],[95.5,9000],[96,9083],[96.3,9166],[97,9250],[97.4,9333],[97.4,9416],[97.4,9500],[97.4,9583],[97.4,9666],[97.4,9750],[97.4,9833],[97.7,9916],[98,10000],[98.2,10083],[98.4,10166],[98.6,10250],[98.8,10333],[99.1,10416],[99.3,10500],[99.3,10583],[99.5,10666],[99.7,10750],[99.7,10833],[99.9,10916],[99.9,11000],[100,11083],[100,11166],[100,11250],[100,11333],[100,11416],[100,11500],[100,11583],[100,11666],[100,11750],[100,11833],[100,11916],[100,12000],[100,12083],[100,12166],[100,12250],[100,12333],[100,12416],[100,12500],[100,12583],[100,12666],[100,12750],[100,12833],[100,12916],[100,13000],[100,13083],[100,13166],[100,13250],[100,13333],[98.2,13416],[98,13500],[98,13583],[98,13666],[98,13750],[98,13833],[98,13916],[98.8,14000],[99.1,14083],[99.1,14166]]",1,0,574.4036,581.9702,99.0625,1.2594,"[{""rating"":99.0625,""responseTime"":1.259400000000369}]",space,7.0233,,581.9702,Not at all,0,581.9758,,,[],,0,13,13,13,1,audio/Narrative8Situation4.wav,audio/Narrative7Situation4.wav,audio/Narrative6Situation4.wav,audio/Narrative5Situation4.wav,3,3,2,1,,,,,,,,,,,,,,,,,,,,,,,,,,,,,,,,,,,,,,,
,,,,,,6630587a7bed8353e70484d8,2024-05-13_11h51.30.109,group3.1-3.2-social-tom,2023.2.2,Win32,60.24096386,65c5074098b851296ff0b7ed,664236da87fd9f8fa726584c,,,,,,,,,,,,,,,,,,,,,,,,,,,,,581.976,1,audio/Narrative8Situation5.wav,583.9869,,583.987,592.2372,"[[99.6,2000],[100,2416],[98.6,2500],[98.4,2583],[98.1,2666],[97.6,2749],[91.8,2833],[84.8,2916],[80.1,3000],[75.7,3083],[69.8,3166],[57,3250],[54.7,3333],[54.6,3416],[54.6,3499],[54.6,3583],[56.5,3666],[66.6,3750],[71,3833],[76.3,3916],[82.8,4000],[90.1,4083],[94.5,4166],[95.2,4249],[87.8,4333],[75.9,4416],[69,4500],[68.3,4583],[68.2,4666],[78.4,4750],[91,4833],[98,4916],[97.3,5000],[78.1,5083],[69.7,5250],[93.9,5333],[89.8,5416],[72.4,5583],[90.8,5666],[83.6,5833],[85.4,5916],[80.3,6000],[84,6083],[84,6166],[84,6250],[84,6333],[22.3,6500],[100,7083],[100,7166],[100,7249],[100,7333],[100,7416],[100,7499],[100,7583],[100,7666],[100,7750],[100,7833],[100,7916],[100,8000],[100,8083],[100,8166],[100,8249]]",1,0,592.2373,600.7539,99.6875,4.3897,"[{""rating"":99.6875,""responseTime"":4.389700000000175}]",space,7.9658,,600.754,Not at all,0,600.7596,,,[],,0,14,14,14,1,audio/Narrative8Situation5.wav,audio/Narrative7Situation5.wav,audio/Narrative6Situation5.wav,audio/Narrative5Situation5.wav,2,5,2,5,,,,,,,,,,,,,,,,,,,,,,,,,,,,,,,,,,,,,,,
,,,,,,6630587a7bed8353e70484d8,2024-05-13_11h51.30.109,group3.1-3.2-social-tom,2023.2.2,Win32,60.24096386,65c5074098b851296ff0b7ed,664236da87fd9f8fa726584c,,,,,,,,,,,,,,,,,,,,,,,,,,,,,600.7597,1,audio/Narrative8Situation6.wav,602.7708,,602.7708,609.254,"[[999,4],[999,82],[999,166],[999,249],[999,332],[999,416],[999,499],[999,582],[999,666],[999,749],[999,833],[999,916],[999,999],[999,1083],[999,1166],[999,1249],[999,1333],[999,1416],[999,1499],[999,1582],[999,1666],[999,1749],[999,1833],[999,1916],[999,1999],[999,2083],[999,2166],[999,2249],[999,2333],[999,2416],[999,2500],[999,2583],[999,2666],[999,2749],[999,2833],[999,2916],[100,2999],[100,3083],[100,3166],[96.6,3249],[95.8,3333],[95.8,3416],[100,4500],[99.1,4583],[96,4666],[95.9,4749],[97,4833],[100,4916],[100,5000],[100,5083],[100,5166],[100,5249],[100,5333],[100,5416],[100,5499],[100,5583],[100,5666],[100,5749],[100,5833],[100,5916],[100,5999],[100,6083],[100,6166],[100,6249],[100,6333],[100,6416]]",1,0,609.2541,620.1375,33.85416667,9.4962,"[{""rating"":17.916666666666664,""responseTime"":5.553800000000706},{""rating"":33.854166666666664,""responseTime"":9.496200000000158}]",space,10.3348,,620.1376,Definitely yes,100,620.1394,,,[],,0,15,15,15,1,audio/Narrative8Situation6.wav,audio/Narrative7Situation6.wav,audio/Narrative6Situation6.wav,audio/Narrative5Situation6.wav,2,3,2,3,,,,,,,,,,,,,,,,,,,,,,,,,,,,,,,,,,,,,,,
,,,,,,6630587a7bed8353e70484d8,2024-05-13_11h51.30.109,group3.1-3.2-social-tom,2023.2.2,Win32,60.24096386,65c5074098b851296ff0b7ed,664236da87fd9f8fa726584c,,,,,,,,,,,,,,,,,,,,,,,,,,,,,620.1395,1,audio/Narrative8Situation7.wav,623.1541,,623.1543,635.2545,"[[29.9,1916],[35.4,2000],[40.7,2249],[49.6,2333],[57.3,2416],[60.6,2499],[59.5,2583],[43,2666],[36.5,2750],[34.3,2833],[33.4,2916],[32.4,3000],[17.3,3083],[3.4,3166],[3.4,3249],[3.4,3333],[3.4,3416],[3.4,3500],[3.4,3583],[3.5,3666],[4.7,3750],[4.7,3833],[4.7,3916],[4.8,3999],[4.8,4083],[4.8,4166],[4.8,4250],[4.8,4333],[4.8,4416],[4.8,4499],[4.8,4583],[4.8,4666],[4.8,4749],[4.8,4833],[6.4,4916],[9.4,5000],[11,5083],[17.8,5166],[18.5,5249],[18.5,5333],[18.5,5416],[17.1,5499],[17.1,5583],[17.1,5666],[17.1,5749],[17.1,5833],[17.1,5916],[17.1,5999],[17.1,6083],[17.1,6166],[17.1,6249],[17.1,6333],[17.1,6416],[17.1,6499],[17.1,6583],[17.1,6666],[17.1,6749],[25.1,6833],[38.3,6916],[54.3,7333],[45.7,7416],[44.8,7500],[44.8,7583],[44.8,7666],[44.8,7750],[46.4,7833],[48.5,7916],[48.5,8000],[48.5,8083],[50,8166],[50.4,8249],[50.5,8333],[50.5,8416],[50.5,8500],[50.5,8583],[50.5,8666],[50.5,8750],[50.5,8833],[50.5,8916],[50.5,9000],[50.5,9083],[50.5,9166],[51.9,9250],[54.3,9333],[55.5,9416],[56.8,9500],[56.8,9583],[56.8,9666],[58.4,9750],[59.2,9833],[60.8,9916],[60.9,10000],[61.1,10083],[62.2,10166],[62.5,10250],[62.5,10333],[62.5,10416],[62.5,10500],[62.5,10583],[62.5,10666],[62.5,10750],[62.5,10833],[62.5,10916],[62.5,11000],[62.5,11083],[62.5,11166],[62.5,11250],[62.5,11333],[62.5,11416],[62.5,11500],[62.5,11583],[62.5,11666],[62.5,11750],[62.5,11833],[62.5,11916],[62.5,12000],[62.5,12083]]",1,0,635.2546,648.0045,9.895833333,12.0156,"[{""rating"":11.875000000000002,""responseTime"":3.987900000000309},{""rating"":26.979166666666664,""responseTime"":7.244200000000205},{""rating"":9.895833333333332,""responseTime"":12.015599999999608}]",space,12.2095,,648.0046,Not at all,0,648.0061,,,[],,0,16,16,16,1,audio/Narrative8Situation7.wav,audio/Narrative7Situation7.wav,audio/Narrative6Situation7.wav,audio/Narrative5Situation7.wav,3,5,5,4,,,,,,,,,,,,,,,,,,,,,,,,,,,,,,,,,,,,,,,
,,,,,,6630587a7bed8353e70484d8,2024-05-13_11h51.30.109,group3.1-3.2-social-tom,2023.2.2,Win32,60.24096386,65c5074098b851296ff0b7ed,664236da87fd9f8fa726584c,,,,,,,,,,,,,,,,,,,,,,,,,,,,,648.0062,1,audio/Narrative8Situation8.wav,651.0214,,651.0215,663.8716,"[[0.5,83],[1.3,166],[2,250],[3,333],[45.6,1250],[63.6,1333],[61.5,1416],[47.5,1499],[37.2,1583],[21.6,1666],[13.1,1750],[10.1,1833],[9.8,1916],[19.2,2000],[35.4,2083],[41.4,2166],[41.4,2249],[31.1,2333],[20.5,2416],[20.5,2499],[20.5,2583],[20.5,2666],[20.5,2749],[24.7,2833],[29.5,2916],[29.5,2999],[29.5,3083],[30.4,3166],[32.1,3249],[32.5,3333],[33.9,3416],[34.4,3500],[35.4,3583],[35.9,3666],[36.4,3749],[36.5,3833],[36.5,3916],[36.6,3999],[36.7,4083],[36.7,4166],[36.7,4249],[36.7,4333],[36.7,4416],[36.7,4499],[36.7,4583],[36.7,4666],[36.7,4749],[36.7,4833],[36.7,4916],[36.7,4999],[36.7,5083],[36.7,5166],[36.7,5249],[36.7,5333],[36.7,5416],[36.7,5499],[36.7,5583],[36.7,5666],[36.7,5749],[36.7,5833],[36.7,5916],[36.7,5999],[38.2,6083],[39,6166],[39.6,6249],[40.2,6333],[41,6416],[41.5,6499],[42.2,6583],[42.5,6666],[42.5,6749],[42.5,6833],[42.5,6916],[42.5,6999],[42.5,7083],[37.8,7166],[32.7,7250],[29,7333],[19.8,7416],[14.4,7500],[12.3,7583],[12.1,7666],[11.6,7750],[10.4,7833],[10.1,7916],[9.2,8000],[9,8083],[9,8166],[9,8249],[9,8333],[9,8416],[9,8499],[12.1,8583],[24.4,8666],[28.9,8750],[34.3,8833],[34.8,8916],[34.8,8999],[37.9,9083],[54.5,9166],[65.9,9250],[71.3,9333],[71.3,9416],[71.3,9499],[71.3,9583],[71.3,9666],[71.3,9749],[73.6,9833],[75.7,9916],[75.7,9999],[75.7,10083],[75.7,10166],[75.7,10249],[75.7,10333],[79.5,11166],[79.8,11250],[80.4,11333],[81,11416],[81,11500],[81,11583],[81,11666],[81,11750],[81,11833],[81,11916],[81,12000],[81,12083],[81.1,12166],[85.2,12250],[89.8,12333],[89.8,12416],[89.8,12499],[89.8,12583],[89.8,12666],[89.8,12750],[89.8,12833]]",1,0,663.8718,671.8884,50.20833333,4.5615,"[{""rating"":49.375,""responseTime"":2.7607000000001563},{""rating"":50.208333333333336,""responseTime"":4.561500000000024}]",space,7.4775,,671.8885,Not at all,0,671.8944,,,[],,0,17,17,17,1,audio/Narrative8Situation8.wav,audio/Narrative7Situation8.wav,audio/Narrative6Situation8.wav,audio/Narrative5Situation8.wav,3,2,5,3,,,,,,,,,,,,,,,,,,,,,,,,,,,,,,,,,,,,,,,
,,,,,,6630587a7bed8353e70484d8,2024-05-13_11h51.30.109,group3.1-3.2-social-tom,2023.2.2,Win32,60.24096386,65c5074098b851296ff0b7ed,664236da87fd9f8fa726584c,,,,,,,,,,,,,,,,,,,,,,,,,,,,,671.8945,1,audio/Narrative8Situation9.wav,674.9051,,674.9051,686.2388,"[[999,4],[999,83],[999,166],[999,249],[999,333],[999,416],[999,499],[999,583],[999,666],[999,749],[999,833],[999,916],[999,999],[999,1083],[999,1166],[999,1249],[999,1333],[999,1416],[999,1499],[999,1583],[999,1666],[999,1749],[999,1833],[999,1916],[999,1999],[999,2083],[999,2166],[999,2249],[999,2333],[999,2416],[999,2499],[999,2583],[999,2666],[999,2749],[999,2833],[999,2916],[999,2999],[999,3083],[999,3166],[999,3249],[999,3333],[999,3416],[999,3500],[999,3583],[64,3666],[64.7,3750],[64.9,3833],[78.3,4250],[74.5,4333],[69,4416],[66.4,4500],[66.3,4583],[65.8,4666],[65.8,4749],[65.8,4833],[65.8,4916],[68.1,5000],[69.7,5083],[71.8,5166],[71.8,5249],[71.8,5333],[71.8,5416],[71.8,5499],[71.8,5583],[71.8,5666],[67.5,10416],[67.5,10500],[67.5,10583],[67.5,10666],[67.5,10750],[67.5,10833],[67.5,10916],[67.5,11000],[67.5,11083],[67.5,11166],[67.5,11250],[58.1,11333]]",1,0,686.2388,692.8886,49.16666667,5.8098,"[{""rating"":49.166666666666664,""responseTime"":5.809799999999768}]",space,6.1117,,692.8886,Partially,50,692.8903,,,[],,0,18,18,18,1,audio/Narrative8Situation9.wav,audio/Narrative7Situation9.wav,audio/Narrative6Situation9.wav,audio/Narrative5Situation9.wav,3,2,4,3,,,,,,,,,,,,,,,,,,,,,,,,,,,,,,,,,,,,,,,
,,,,,,6630587a7bed8353e70484d8,2024-05-13_11h51.30.109,group3.1-3.2-social-tom,2023.2.2,Win32,60.24096386,65c5074098b851296ff0b7ed,664236da87fd9f8fa726584c,,,,,,,,,,,,,,,,,,,,,,,,,,,704.1944,706.7723,706.7786,2,audio/Narrative13Situation2.wav,706.7787,,706.7787,736.5228,"[[51.3,1743],[58.9,1826],[63.1,1910],[63.1,1993],[63.1,2076],[63.1,2160],[63.1,2243],[63.1,2326],[63.1,2410],[49.2,3160],[49.5,3243],[49.7,3326],[49.8,3410],[52.1,3493],[63.6,3576],[78,3660],[92.1,3743],[95.1,3826],[95.1,3910],[95.1,3993],[95.1,4076],[95.1,4160],[53.1,4993],[43,5076],[30.9,5160],[24.4,5243],[20.9,5327],[11.4,5410],[7.2,5493],[7.2,5576],[7.2,5660],[7.2,5743],[7.2,5826],[7.2,5910],[7.2,5993],[7.2,6076],[7.2,6160],[7,6243],[9.4,6327],[13,6410],[14.6,6493],[15.9,6576],[16.8,6660],[18,6743],[32.2,6827],[49.4,6910],[57,6993],[57.1,7076],[57.1,7160],[48.9,7243],[33.5,7327],[27.4,7410],[21.7,7493],[15.2,7576],[10.2,7660],[10.1,7743],[10.1,7826],[10.8,7910],[12,7993],[12,8076],[12.5,8160],[32.1,8243],[50.9,8327],[63.2,8410],[81.4,8493],[85,8576],[85,8660],[85,8743],[85.1,8826],[85.4,8910],[93,8993],[93.8,9076],[93.8,9160],[93.8,9243],[93.8,9326],[93.8,9410],[93.8,9493],[93.8,9576],[93.8,9660],[93.8,9743],[93.8,9826],[93.8,9910],[93.8,9993],[93.8,10076],[93.8,10160],[93.8,10243],[93.8,10326],[93.8,10410],[93.8,10493],[94.1,10576],[94.7,10660],[95,10743],[95.2,10827],[95.3,10910],[95.9,10993],[96.6,11077],[96.9,11160],[97.2,11243],[97.5,11327],[97.5,11410],[97.5,11493],[97.5,11576],[97.5,11660],[97.8,11743],[98.1,11826],[98.4,11910],[98.9,11993],[99.3,12077],[99.9,12160],[100,12243],[100,12327],[100,12410],[100,12493],[100,12577],[100,12660],[100,12743],[53.6,18327],[31.5,18410],[23.5,18493],[18.6,18577],[7.8,18660],[1.9,18743],[1.4,19660],[4.7,19743],[8.2,19827],[11.4,19910],[11.5,19993],[11.5,20077],[11.5,20160],[7.8,20243],[6.5,20327],[6.5,20410],[6.5,20493],[6.5,20577],[4.9,20660],[3.5,20743],[3.2,20827],[3.1,20910],[3.1,20993],[3.1,21077],[3.1,21160],[3.1,21243],[3.1,21327],[3.1,21410],[3.1,21493],[3.4,21577],[10,21660],[17.7,21743],[28.5,21827],[37.8,21910],[44.9,21993],[49.4,22077],[50.7,22160],[50.7,22243],[50.7,22327],[50.7,22410],[50.7,22493],[50.7,22577],[50.7,22660],[50.7,22743],[50.6,22827],[50.4,22910],[50.1,22994],[49.5,23077],[49.2,23160],[49.2,23243],[49.2,23327],[49.2,23410],[49.3,23494],[49.7,23577],[49.7,23660],[49.9,23743],[50,23827],[50,23910],[50,23993],[50.1,24077],[50.3,24160],[50.3,24243],[50.3,24327],[49.9,24410],[49.8,24493],[49.8,24577],[49.8,24660],[49.8,24743],[50.2,24827],[50.9,24910],[50.9,24993],[50.9,25077],[50.9,25160],[50.5,25244],[50.2,25327],[50.1,25410],[50.1,25493],[50.4,25577],[50.6,25660],[50.6,25743],[50.1,25827],[49.2,25910],[43.5,25994],[39.1,26077],[35,26160],[31.7,26243],[27.8,26327],[23.3,26410],[20.8,26494],[18,26577],[16.8,26660],[14.9,26744],[14.5,26827],[14.5,26910],[14.5,26993],[14.8,27077],[15.5,27160],[15.7,27243],[15.2,27327],[14.5,27410],[13.9,27494],[13.2,27577],[12.6,27660],[12.2,27743],[12.2,27827],[12.8,27910],[13.1,27994],[13.3,28077],[13.3,28160],[11.6,28244],[8.2,28327],[6.7,28410],[6.7,28493],[6.7,28577],[7.1,28660],[7.8,28744],[8.3,28827],[8.8,28910],[9,28994],[9.4,29077],[9.6,29160],[9.5,29244],[8.8,29327],[8.4,29410],[8.3,29493],[8.2,29577],[8.2,29660],[8.9,29744]]",1,0,736.523,736.5241,,,[],,,,736.5241,Definitely yes,100,736.5253,,,[],,0,0,0,0,1,audio/Narrative13Situation2.wav,audio/Narrative13Situation2.wav,audio/Narrative13Situation2.wav,audio/Narrative13Situation2.wav,2,2,2,2,,,,,692.8908,704.1893,space,10.7801,,,,,,,,,,,,,,,,,,,,,,,,,,,,,,,
,,,,,,6630587a7bed8353e70484d8,2024-05-13_11h51.30.109,group3.1-3.2-social-tom,2023.2.2,Win32,60.24096386,65c5074098b851296ff0b7ed,664236da87fd9f8fa726584c,,,,,,,,,,,,,,,,,,,,,,,,,,,,,736.5254,2,audio/Narrative5Situation1.wav,741.5397,,741.5397,754.8397,"[[999,4],[999,83],[999,166],[999,249],[999,333],[999,416],[999,499],[999,583],[999,666],[999,749],[999,832],[999,916],[999,999],[999,1082],[999,1166],[999,1249],[999,1332],[999,1416],[999,1499],[999,1583],[77,1666],[76.3,1749],[74.4,1833],[69.8,1916],[59.1,1999],[50.3,2083],[45.1,2166],[43.8,2249],[43.5,2332],[43.5,2416],[43.5,2499],[44.5,2583],[48.3,2666],[50.7,2749],[50.7,2832],[47.5,2916],[31.7,2999],[17.7,3083],[10.1,3166],[4.4,3249],[3.9,3332],[4.2,3416],[19.6,3499],[26.7,3582],[26.3,3666],[10.5,3749],[0.1,8166],[0.3,8249],[0.5,8333],[0.7,8416],[1.7,8499],[2.1,8583],[2.3,8666],[2.3,8749],[2.6,8833],[3,8916],[3.1,8999],[3.1,9083],[3.1,9166],[3.1,9250],[3.1,9333],[3.1,9416],[3.1,9499],[3.1,9583],[3.1,9666],[2.7,9750],[0.2,9833],[0.5,10666],[0.5,10749],[0.8,10833],[1.1,10916],[1.3,11000],[1.7,11083],[2,11166],[4.8,11250],[18.4,11333],[35.6,11416],[50.7,11500],[63.1,11583],[66.7,11666],[66.7,11749],[66.7,11833],[66.4,11916],[57.6,12000],[52.9,12083],[52.4,12166],[53.5,12250],[51.7,12666],[44.4,12750],[43.2,12833],[43.2,12916],[44,13000],[54.1,13083],[55.8,13166],[55.8,13249]]",1,0,754.8398,759.5065,26.5625,2.7786,"[{""rating"":26.5625,""responseTime"":2.7786000000005515}]",space,4.1148,,759.5066,Not at all,0,759.5082,,,[],,0,1,1,1,1,audio/Narrative7Situation1.wav,audio/Narrative8Situation1.wav,audio/Narrative5Situation1.wav,audio/Narrative6Situation1.wav,2,5,5,2,,,,,,,,,,,,,,,,,,,,,,,,,,,,,,,,,,,,,,,
,,,,,,6630587a7bed8353e70484d8,2024-05-13_11h51.30.109,group3.1-3.2-social-tom,2023.2.2,Win32,60.24096386,65c5074098b851296ff0b7ed,664236da87fd9f8fa726584c,,,,,,,,,,,,,,,,,,,,,,,,,,,,,759.5083,2,audio/Narrative5Situation2.wav,762.523,,762.523,791.9736,"[[999,4],[999,83],[999,166],[999,250],[999,333],[999,416],[999,500],[999,583],[999,666],[999,750],[999,833],[999,916],[999,1000],[999,1083],[999,1166],[999,1250],[999,1333],[999,1416],[999,1500],[999,1583],[999,1666],[999,1750],[999,1833],[999,1916],[999,2000],[999,2083],[999,2166],[999,2250],[999,2333],[999,2416],[999,2500],[999,2583],[999,2666],[999,2750],[999,2833],[999,2916],[999,3000],[999,3083],[999,3166],[999,3250],[999,3333],[999,3416],[999,3500],[999,3583],[999,3666],[999,3750],[999,3833],[999,3916],[999,4000],[999,4083],[999,4166],[999,4250],[999,4333],[999,4416],[999,4500],[999,4583],[999,4666],[999,4750],[999,4833],[999,4916],[999,5000],[999,5083],[999,5166],[999,5250],[9.1,5750],[3.6,5833],[2,5916],[2,6000],[2,6083],[2,6166],[2,6250],[2,6333],[2,6416],[2,6500],[2,6583],[2,6666],[2,6750],[4.4,8250],[2.5,8333],[1.3,8416],[9.6,19833],[17.3,19917],[27.1,20000],[30.6,20083],[30.6,20166],[30.6,20250],[30.6,20333],[30.6,20417],[33,20500],[41,20583],[41.1,20666],[41.1,20750],[41.8,20833],[46.9,20917],[50.7,21000],[50.7,21083],[50.7,21166],[50.7,21250],[50.6,21333],[50.6,21416],[50.6,21500],[50.4,21583],[50.4,21666],[50,21750],[49.8,21833],[49.8,21917],[49.8,22000],[49.8,22083],[49.8,22166],[49.8,22250],[49.8,22333],[49.8,22416],[49.8,22500],[49.8,22583],[49.8,22666],[49.8,22750],[49.8,22833],[49.8,22916],[49.8,23000],[49.5,23083],[48.1,23167],[46.6,23250],[45.9,23333],[45.3,23417],[44.9,23500],[44.7,23583],[44,23667],[44,23750],[44,23833],[44,23916],[44,24000],[44,24083],[44,24166],[44,24250],[44,24333],[44,24417],[44,24500],[44,24583],[44,24666],[44,24750],[41.3,24833],[41,24917],[41,25000],[41,25083],[41,25167],[41,25250],[41,25333],[41,25417],[41,25500],[41,25583],[41,25667],[41,25750],[41,25833],[41,25917],[41,26000],[41,26083],[41,26167],[41,26250],[41,26333],[41,26416],[41,26500],[41,26583],[41,26667],[41,26750],[41,26833],[41,26916],[41,27000],[41,27083],[41,27167],[41,27250],[41,27333],[41,27417],[41,27500],[41,27583],[41,27667],[41,27750],[41,27833],[41,27917],[41,28000],[41,28083],[41,28167],[41,28250],[41,28333],[41,28417],[41,28500],[41,28583],[41,28667],[41,28750],[41,28833],[41,28917],[41,29000],[41,29083],[41,29167],[41,29250],[41,29333],[41,29417]]",1,0,791.9737,801.557,56.45833333,8.4506,"[{""rating"":51.66666666666667,""responseTime"":7.4322000000001935},{""rating"":60.10416666666667,""responseTime"":7.819500000000062},{""rating"":56.458333333333336,""responseTime"":8.450600000000577}]",space,9.0337,,801.5571,Definitely yes,100,801.5586,,,[],,0,2,2,2,1,audio/Narrative7Situation2.wav,audio/Narrative8Situation2.wav,audio/Narrative5Situation2.wav,audio/Narrative6Situation2.wav,3,3,3,3,,,,,,,,,,,,,,,,,,,,,,,,,,,,,,,,,,,,,,,
,,,,,,6630587a7bed8353e70484d8,2024-05-13_11h51.30.109,group3.1-3.2-social-tom,2023.2.2,Win32,60.24096386,65c5074098b851296ff0b7ed,664236da87fd9f8fa726584c,,,,,,,,,,,,,,,,,,,,,,,,,,,,,801.5587,2,audio/Narrative5Situation3.wav,804.5737,,804.5737,818.474,"[[999,5],[999,83],[999,166],[999,250],[999,333],[999,416],[999,500],[999,583],[999,666],[45.1,750],[44.3,833],[43.5,916],[44.5,1000],[46,1083],[46,1166],[46,1250],[46,1333],[47.8,1416],[49.1,1500],[49.1,1583],[49,1666],[49,1750],[48.6,1833],[46.8,1916],[46.7,2000],[46.7,2083],[46.7,2166],[48.1,2250],[49.7,2333],[50.7,2416],[50.7,2500],[47.8,2583],[33.9,2666],[26.9,2750],[24.9,2833],[24.3,2916],[23,3000],[22.2,3083],[21,3166],[20.9,3250],[20.9,3333],[20.5,3417],[20.2,3500],[19.5,3583],[19,3666],[18.5,3750],[18.1,3833],[17.3,3916],[16.6,4000],[16.6,4083],[16.1,4166],[15.8,4250],[15.8,4333],[15.8,4416],[15.8,4500],[15.8,4583],[15.8,4666],[15.8,4750],[15.8,4833],[15.8,4916],[15.8,5000],[15.8,5083],[15.8,5166],[15.8,5250],[15.8,5333],[15.8,5416],[15.8,5500],[15.8,5583],[15.8,5666],[15.8,5750],[15.8,5833],[15.8,5916],[15.8,6000],[15.8,6083],[15.8,6166],[15.8,6250],[15.8,6333],[15.8,6416],[15.8,6500],[15.8,6583],[15.8,6666],[15.8,6750],[15.8,6833],[15.8,6916],[15.8,7000],[15.8,7083],[15.8,7166],[15.8,7250],[15.8,7333],[12.1,7417],[11.8,7500],[11.5,7583],[11.5,7666],[11.1,7750],[11.1,7833],[11.1,7916],[10.9,8000],[10.6,8083],[10.4,8166],[10.2,8250],[9.6,8333]]",1,0,818.474,821.8573,91.66666667,1.1734,"[{""rating"":91.66666666666667,""responseTime"":1.1733999999994467}]",space,2.8524,,821.8574,Not at all,0,827.2074,0,4.5305,"[{""rating"":0.1041666666666663,""responseTime"":3.774000000000001},{""rating"":0,""responseTime"":4.530500000000075}]",space,0,3,3,3,1,audio/Narrative7Situation3.wav,audio/Narrative8Situation3.wav,audio/Narrative5Situation3.wav,audio/Narrative6Situation3.wav,8,4,3,5,,,4.8258,,,,,,,,,,,,,,,,,,,,,,,,,,,,,,,,,,,,
,,,,,,6630587a7bed8353e70484d8,2024-05-13_11h51.30.109,group3.1-3.2-social-tom,2023.2.2,Win32,60.24096386,65c5074098b851296ff0b7ed,664236da87fd9f8fa726584c,,,,,,,,,,,,,,,,,,,,,,,,,,,,,827.2076,2,audio/Narrative5Situation4.wav,828.2242,,828.2243,848.6245,"[[999,0],[999,83],[999,166],[999,249],[999,333],[999,416],[999,499],[999,583],[999,666],[999,749],[999,833],[999,916],[999,999],[999,1083],[999,1166],[999,1249],[999,1333],[21.3,1416],[31.4,1500],[43.8,1583],[49.6,1666],[56.4,1750],[64.3,1833],[73.4,1916],[74.5,1999],[74.5,2083],[70,2166],[56.3,2250],[33.8,2333],[33.2,2416],[29,2500],[21.5,2583],[19.5,2666],[16,2750],[15.4,2833],[13.6,2916],[5.6,3000],[4,3083],[2.2,3166],[2.2,3249],[2.2,3333],[2.2,3416],[2.2,3499],[2.2,3583],[1.9,3666],[1.8,3749],[1.8,3833],[16.4,9666],[62.9,9750],[69,9833],[62.3,10333],[62.5,10416],[64,10500],[65,10583],[67.3,10666],[70.1,10750],[70.1,10833],[70.9,10916],[71.6,11000],[73,11083],[73.4,11166],[74.2,11250],[74.8,11333],[76.8,11416],[82.6,11500],[100,11583],[100,11916],[91.4,12000],[85.6,12083],[79,12166],[73.1,12250],[72.3,12333],[71.5,12416],[71.5,12499],[71.5,12583],[67.5,12666],[53.6,12750],[52.7,12833],[50.3,12916],[48.4,12999],[48.4,13083],[48.4,13166],[48.4,13250],[48.4,13333],[49.7,13416],[51.4,13500],[52.4,13583],[53.1,13666],[53.1,13749],[49.7,13833],[47.2,13916],[46.5,14000],[46.5,14083],[48.6,14166],[53.9,14250],[53.9,14333],[49.4,14416],[47.2,14500],[48,14583],[57,14666],[59.8,14750],[59.8,14833],[59.8,14916],[59.8,15000],[57.2,15083],[57.5,15166],[66.1,15250],[75,15333],[76.9,15416],[74.4,15500],[66.4,15583],[66.4,15666],[73.9,15750],[100,16333],[100,16416],[100,16500],[100,16583],[100,16666],[100,16750],[100,16833],[100,16916]]",1,0,848.6247,855.1745,99.79166667,3.0715,"[{""rating"":99.79166666666667,""responseTime"":3.0715000000000146}]",space,6.0078,,855.1745,Definitely yes,100,855.1807,,,[],,0,4,4,4,1,audio/Narrative7Situation4.wav,audio/Narrative8Situation4.wav,audio/Narrative5Situation4.wav,audio/Narrative6Situation4.wav,3,3,1,2,,,,,,,,,,,,,,,,,,,,,,,,,,,,,,,,,,,,,,,
,,,,,,6630587a7bed8353e70484d8,2024-05-13_11h51.30.109,group3.1-3.2-social-tom,2023.2.2,Win32,60.24096386,65c5074098b851296ff0b7ed,664236da87fd9f8fa726584c,,,,,,,,,,,,,,,,,,,,,,,,,,,,,855.1808,2,audio/Narrative5Situation5.wav,860.1913,,860.1914,875.625,"[[999,4],[999,83],[999,166],[999,249],[999,333],[999,416],[999,500],[999,583],[999,666],[999,749],[999,833],[999,916],[999,999],[999,1083],[999,1166],[999,1250],[999,1333],[999,1416],[64.2,1500],[62.4,1583],[59.6,1666],[55.6,1750],[54.1,1833],[54,1916],[54,1999],[54,2083],[54,2166],[54,2249],[53.6,2333],[53.6,2416],[53.6,2499],[53.6,2583],[53.6,2666],[53.6,2749],[53.6,2833],[40.9,2916],[15.7,3000],[7.4,3083],[7.3,3166],[7.3,3249],[7.3,3333],[7.3,3416],[7.3,3500],[7.3,3583],[7.3,3666],[7.4,3750],[7.4,3833],[7.4,3916],[7.4,3999],[7.4,4083],[7,4166],[6.4,4250],[5.7,4333],[5.1,4416],[4.1,13000],[5.8,13083],[9.6,13166],[18.1,13250],[26.6,13333],[35.2,13416],[36.3,13500],[36.3,13583],[37.7,13666],[47.3,13750],[50.3,13833],[61,13916],[67.3,14000],[67.3,14083],[67.2,14166],[47.7,14250],[32.5,14333],[20,14416],[9.5,14500],[6.5,14583],[5.7,14666],[5.7,14750],[17,14833],[29.4,14916],[39.7,15000],[47.6,15083],[50.3,15166],[50.9,15250],[50.9,15333],[50.9,15416]]",1,0,875.625,879.9417,15.20833333,4.0369,"[{""rating"":15.208333333333336,""responseTime"":4.036900000000401}]",space,3.7909,,879.9417,Definitely yes,100,879.9426,,,[],,0,5,5,5,1,audio/Narrative7Situation5.wav,audio/Narrative8Situation5.wav,audio/Narrative5Situation5.wav,audio/Narrative6Situation5.wav,5,2,5,2,,,,,,,,,,,,,,,,,,,,,,,,,,,,,,,,,,,,,,,
,,,,,,6630587a7bed8353e70484d8,2024-05-13_11h51.30.109,group3.1-3.2-social-tom,2023.2.2,Win32,60.24096386,65c5074098b851296ff0b7ed,664236da87fd9f8fa726584c,,,,,,,,,,,,,,,,,,,,,,,,,,,,,879.9427,2,audio/Narrative5Situation6.wav,882.9584,,882.9584,888.6419,"[[13.6,833],[13.5,916],[13.5,999],[13.5,1083],[13.5,1166],[13.5,1250],[13.5,1333],[13.5,1416],[13.5,1499],[13.8,1583],[17,1666],[19.6,1750],[23,1833],[25.1,1916],[26.9,2000],[26.9,2083],[27.6,2166],[29.4,2250],[29.7,2333],[29.7,2416],[29.7,2499],[28.6,2583],[22.1,2666],[13.9,2750],[10,2833],[7.3,2916],[24.4,3000],[49,3083],[63.2,3166],[81.7,3250],[84.2,3333],[84.2,3416],[84.4,3500],[85.3,3583],[85.5,3666],[90.1,3750],[90.5,3833],[90.5,3916],[90.4,4000],[90.4,4083],[90.4,4166],[90.4,4249],[89.9,4333],[89,4416],[88.4,4500],[88.2,4583],[88.2,4666],[88.2,4750],[88.2,4833],[87.6,4916],[87.5,4999],[87.4,5083],[87.4,5166],[87.1,5250],[87.1,5333],[87.1,5416],[87.1,5499],[87.1,5583],[87.1,5666]]",1,0,888.642,895.9086,50.3125,3.9703,"[{""rating"":50.31250000000001,""responseTime"":3.9702999999998383}]",space,6.7183,,895.9086,Partially,50,895.9104,,,[],,0,6,6,6,1,audio/Narrative7Situation6.wav,audio/Narrative8Situation6.wav,audio/Narrative5Situation6.wav,audio/Narrative6Situation6.wav,3,2,3,2,,,,,,,,,,,,,,,,,,,,,,,,,,,,,,,,,,,,,,,
,,,,,,6630587a7bed8353e70484d8,2024-05-13_11h51.30.109,group3.1-3.2-social-tom,2023.2.2,Win32,60.24096386,65c5074098b851296ff0b7ed,664236da87fd9f8fa726584c,,,,,,,,,,,,,,,,,,,,,,,,,,,,,895.9105,2,audio/Narrative5Situation7.wav,899.9253,,899.9253,920.9757,"[[30.7,1750],[45.6,1833],[50.3,1916],[50.3,1999],[50.3,2083],[45,2166],[4.9,3750],[21.5,3833],[24.2,3916],[29,4000],[29,4083],[27.8,4166],[23.6,4250],[22.6,4333],[22.6,4416],[22.6,4500],[12.8,4583],[7.9,4666],[7.9,4750],[7.4,4833],[6.5,4916],[6.5,5000],[6.5,5083],[3.2,5166],[3.3,5416],[8,5500],[10.4,5583],[10.4,5666],[10.4,5750],[10.6,5833],[10.6,5916],[10.6,6000],[10.6,6083],[10.6,6166],[10.6,6250],[10.6,6333],[10.6,6416],[10.6,6500],[10.6,6583],[10.6,6666],[10.6,6750],[10.6,6833],[10.6,6916],[10.6,7000],[10.6,7083],[10.6,7166],[10.6,7250],[10.6,7333],[10.6,7416],[10.6,7500],[10.6,7583],[10.6,7666],[10.6,7750],[10.6,7833],[10.6,7916],[10.6,8000],[10.6,8083],[10.6,8166],[10.6,8250],[10.6,8333],[10.6,8416],[10.6,8500],[10.6,8583],[10.6,8666],[10.6,8750],[10.6,8833],[10.6,8916],[10.6,9000],[10.6,9083],[10.6,9166],[10.6,9250],[10.6,9333],[10.6,9416],[10.6,9500],[10.6,9583],[10.6,9666],[10.6,9750],[10.6,9833],[10.6,9916],[10.6,10000],[10.6,10083],[10.6,10166],[10.6,10250],[10.6,10333],[10.6,10416],[10.6,10500],[10.6,10583],[10.6,10666],[10.6,10750],[10.6,10833],[10.6,10916],[10.6,11000],[10.6,11083],[10.6,11166],[10.6,11250],[10.6,11333],[10.6,11416],[10.6,11500],[10.6,11583],[10.6,11666],[10.6,11750],[10.6,11833],[10.6,11916],[10.6,12000],[10.6,12083],[10.6,12166],[10.6,12250],[10.6,12333],[10.6,12416],[10.6,12500],[10.6,12583],[10.6,12666],[10.6,12750],[10.6,12833],[10.6,12916],[10.6,13000],[10.6,13083],[10.6,13166],[10.6,13250],[10.6,13333],[10.6,13416],[10.6,13500],[10.6,13583],[10.6,13666],[10.6,13750],[10.6,13833],[10.6,13916],[10.6,14000],[10.6,14083],[10.6,14166],[10.6,14250],[10.6,14333],[10.6,14416],[10.6,14500],[10.6,14583],[10.6,14666],[10.6,14750],[10.6,14833],[10.6,14916],[10.6,15000],[10.6,15083],[10.6,15166],[10.6,15250],[10.6,15333],[10.6,15416],[10.6,15500],[10.6,15583],[10.6,15666],[13.2,15750],[82.7,16250],[92.6,16333],[99.2,16417],[98.6,16500],[88.8,16583],[80.6,16667],[80.5,16750],[80.6,16833],[93.1,16917],[96.7,17000],[96.7,17083],[96.7,17166],[96.7,17250],[96.7,17333],[96.6,17416],[96.6,17500],[96.6,17583],[96.6,17666],[96.6,17750],[96.6,17833],[96.6,17916],[96.6,18000],[96.6,18083],[96.6,18166],[96.6,18250],[96.6,18333],[96.6,18416],[96.6,18500],[96.6,18583],[96.6,18666],[96.6,18750],[96.6,18833],[96.6,18916],[96.6,19000],[96.6,19083],[96.6,19167],[96.6,19250],[96.6,19333],[96.6,19416],[96.6,19500],[96.6,19583],[96.6,19666],[96.6,19750],[96.6,19833],[96.6,19916],[96.6,20000],[96.6,20083],[96.6,20166],[96.6,20250],[96.6,20333],[96.6,20416],[96.6,20500],[96.6,20583],[96.6,20666],[96.6,20750],[96.6,20833],[96.6,20917],[96.6,21000]]",1,0,920.9757,926.7758,93.54166667,4.9271,"[{""rating"":99.375,""responseTime"":2.294999999999959},{""rating"":74.6875,""responseTime"":3.3829000000004044},{""rating"":93.54166666666667,""responseTime"":4.927099999999655}]",space,5.2549,,926.7758,Not at all,0,926.7775,,,[],,0,7,7,7,1,audio/Narrative7Situation7.wav,audio/Narrative8Situation7.wav,audio/Narrative5Situation7.wav,audio/Narrative6Situation7.wav,5,3,4,5,,,,,,,,,,,,,,,,,,,,,,,,,,,,,,,,,,,,,,,
,,,,,,6630587a7bed8353e70484d8,2024-05-13_11h51.30.109,group3.1-3.2-social-tom,2023.2.2,Win32,60.24096386,65c5074098b851296ff0b7ed,664236da87fd9f8fa726584c,,,,,,,,,,,,,,,,,,,,,,,,,,,,,926.7776,2,audio/Narrative5Situation8.wav,929.7925,,929.7925,938.6093,"[[70.8,3333],[70.2,3416],[69.7,3499],[67.1,3583],[67.1,3666],[67.1,3749],[67.1,3833],[65.9,3916],[51.1,4000],[40.7,4083],[38.3,4166],[38.3,4249],[35.3,4333],[27.6,4416],[24.8,4500],[24.6,4583],[24.6,4666],[24.6,4750],[25,4833],[26.1,4916],[26.3,4999],[26.4,5083],[26.4,5166],[27,5249],[27.1,5333],[27.8,5416],[28.2,5500],[28.9,5583],[28.9,5666],[28.9,5749],[28.9,5833],[28.9,5916],[28.9,6000],[28.9,6083],[28.9,6166],[28.9,6250],[28.9,6333],[28.9,6416],[28.9,6500],[28.9,6583],[28.9,6666],[28.9,6750],[28.9,6833],[28.9,6916],[28.9,7000],[28.9,7083],[28.9,7166],[28.9,7250],[28.9,7333],[28.9,7416],[28.9,7500],[28.9,7583],[28.9,7666],[28.9,7750],[28.9,7833],[28.9,7916],[28.9,8000],[28.9,8083],[28.9,8166],[28.9,8250],[28.9,8333],[28.9,8416],[28.9,8500],[28.9,8583],[28.9,8666],[28.9,8750]]",1,0,938.6093,944.7427,11.5625,4.5995,"[{""rating"":28.85416666666667,""responseTime"":0.9667999999998074},{""rating"":11.562499999999998,""responseTime"":4.599499999999921}]",space,5.5955,,944.7427,Not at all,0,944.7436,,,[],,0,8,8,8,1,audio/Narrative7Situation8.wav,audio/Narrative8Situation8.wav,audio/Narrative5Situation8.wav,audio/Narrative6Situation8.wav,2,3,3,5,,,,,,,,,,,,,,,,,,,,,,,,,,,,,,,,,,,,,,,
,,,,,,6630587a7bed8353e70484d8,2024-05-13_11h51.30.109,group3.1-3.2-social-tom,2023.2.2,Win32,60.24096386,65c5074098b851296ff0b7ed,664236da87fd9f8fa726584c,,,,,,,,,,,,,,,,,,,,,,,,,,,,,944.7437,2,audio/Narrative5Situation9.wav,947.7594,,947.7594,987.3101,"[[999,4],[999,83],[999,166],[999,249],[999,333],[999,416],[999,500],[999,583],[999,666],[999,750],[999,833],[999,916],[999,999],[999,1083],[999,1166],[999,1250],[999,1333],[999,1416],[999,1500],[999,1583],[999,1666],[999,1750],[999,1833],[999,1916],[999,2000],[999,2083],[41.6,2166],[43.5,2250],[49.5,2333],[51.1,2416],[51.1,2499],[50.9,2583],[44.7,2666],[35.2,2750],[23.6,2833],[11.4,2916],[10.6,3000],[10.6,3083],[13.3,3166],[25.5,3250],[35.6,3333],[48.9,3416],[58.9,3500],[59.2,3583],[51.3,3666],[43.4,3750],[43.4,3833],[47.5,3916],[64.5,4000],[73.5,4083],[73.5,4166],[72.8,4250],[70.2,4333],[69.5,4416],[69.5,4500],[69.5,4583],[69.5,4666],[69.6,4750],[73.5,4833],[73.6,4916],[73.6,5000],[73.6,5083],[73.6,5166],[73.6,5249],[73.6,5333],[73.6,5416],[73.6,5499],[73.6,5583],[73.6,5666],[73.6,5750],[73.6,5833],[73.6,5916],[73.6,6000],[73.6,6083],[73.6,6166],[51.9,9666],[52.2,9750],[52.2,9833],[52.1,9916],[50.4,10000],[48.6,10083],[47.9,10167],[46.1,10250],[46.1,10333],[46.1,10416],[47.1,10500],[48.3,10583],[49.4,10667],[49.9,10750],[49.9,10833],[49.9,10916],[49.9,11000],[49.9,11083],[49.9,11166],[49.9,11250],[49.9,11333],[49.9,11416],[49.9,11500],[49.9,11583],[49.9,11666],[50.1,11750],[50.2,11833],[50.3,11916],[50.4,12000],[50.4,12083],[50.4,12166],[50.4,12250],[50.4,12333],[50.4,12416],[50.4,12500],[50.4,12583],[50.4,12666],[50.4,12750],[50.4,12833],[50.4,12916],[50.4,13000],[50.4,13083],[50.4,13166],[50.4,13250],[50.4,13333],[50.4,13416],[50.4,13500],[50.4,13583],[50.4,13666],[50.4,13750],[50.4,13833],[50.4,13916],[50.4,14000],[50.4,14083],[50.4,14166],[50.4,14250],[50.4,14333],[50.4,14417],[50.4,14500],[50.4,14583],[50.4,14666],[50.4,14750],[50.4,14833],[50.4,14916],[50.4,15000],[50.4,15083],[50.4,15166],[50.4,15250],[50.4,15333],[50.4,15416],[50.4,15500],[50.4,15583],[50.4,15666],[50.4,15750],[50.4,15833],[50.4,15916],[50.4,16000],[50.4,16083],[50.4,16166],[50.4,16250],[50.4,16333],[50.4,16416],[50.4,16500],[50.4,16583],[50.4,16667],[50.4,16750],[50.4,16833],[58.1,16917],[75.3,17000],[78.4,17083],[78.4,17166],[78.4,17250],[78.3,17333],[78.3,17416],[78.3,17500],[79.1,17583],[81.5,17667],[81.9,17750],[82,17833],[82,17917],[82,18000],[82,18083],[82,18166],[82,18250],[82,18333],[82,18416],[82,18500],[82,18583],[82,18666],[81.8,18750],[80.8,18833],[79.9,18917],[77.3,19000],[71.1,19083],[67.6,19167],[67.6,19250],[67.6,19333],[68.3,19417],[74.2,19500],[75.9,19583],[76,19666],[76.6,19750],[80.4,19833],[82,19916],[82,20000],[82,20083],[82,20166],[82,20250],[82,20333],[82,20416],[82,20500],[82,20583],[82,20666],[82,20750],[82,20833],[82,20916],[82,21000],[82,21083],[82,21166],[82,21250],[82,21333],[82,21416],[82,21500],[82,21583],[82,21666],[82,21750],[82,21833],[82,21917],[82,22000],[82,22083],[82,22166],[82,22250],[82,22333],[82,22416],[82,22500],[82,22583],[82,22667],[82,22750],[82,22833],[82,22916],[82.3,23000],[83.3,23083],[84.3,23167],[85.2,23250],[85.4,23333],[85.5,23416],[85.5,23500],[85.5,23583],[85.5,23666],[85.5,23750],[85.5,23833],[85.5,23916],[85.4,24000],[84.9,24083],[84.4,24167],[84.4,24250],[84.4,24333],[84.4,24417],[84.4,24500],[84.4,24583],[84.4,24667],[84.4,24750],[84.4,24833],[84.4,24916],[84.4,25000],[84.4,25083],[84.4,25167],[84.4,25250],[84.4,25333],[84.4,25417],[84.4,25500],[84.4,25583],[84.4,25667],[84.4,25750],[84.4,25833],[84.4,25917],[84.4,26000],[84.4,26083],[84.4,26167],[84.4,26250],[84.4,26333],[84.4,26417],[84.4,26500],[84.4,26583],[84.4,26667],[84.4,26750],[84.4,26833],[84.4,26917],[84.4,27000],[84.4,27083],[84.4,27167],[84.4,27250],[84.4,27333],[84.4,27417],[84.4,27500],[84.4,27583],[84.4,27667],[84.4,27750],[84.4,27833],[84.4,27917],[84.4,28000],[84.4,28083],[84.4,28167],[84.4,28250],[84.4,28333],[84.4,28417],[84.4,28500],[84.4,28583],[84.4,28667],[84.4,28750],[84.4,28833],[84.4,28917],[84.4,29000],[84.4,29083],[84.4,29167],[84.4,29250],[84.4,29333],[84.4,29417],[84.4,29500],[84.4,29583],[84.4,29667],[84.4,29750],[84.4,29833],[84.4,29917],[84.4,30000],[84.4,30083],[84.4,30167],[84.4,30250],[84.4,30333],[84.4,30417],[84.4,30500],[84.4,30583],[84.4,30667],[84.4,30750],[84.4,30833],[84.4,30917],[84.4,31000],[84.4,31083],[84.4,31167],[84.4,31250],[84.4,31333],[84.4,31417],[84.4,31500],[84.4,31583],[84.4,31667],[84.4,31750],[84.4,31833],[84.4,31917],[84.4,32000],[84.4,32083],[84.4,32167],[84.4,32250],[84.4,32333],[84.4,32417],[84.4,32500],[84.4,32583],[84.4,32667],[84.4,32750],[84.4,32833],[84.4,32917],[84.4,33000],[84.4,33083],[84.4,33167],[84.4,33250],[84.4,33333],[84.4,33417],[84.4,33500],[84.4,33583],[84.4,33667],[84.4,33750],[84.4,33833],[84.4,33917],[84.4,34000],[84.4,34083],[84.4,34167],[84.4,34250],[84.4,34333],[84.4,34417],[84.4,34500],[84.4,34583],[84.4,34667],[84.4,34750],[84.4,34833],[84.4,34917],[84.4,35000],[84.4,35083],[84.4,35167],[84.4,35250],[84.4,35333],[84.4,35417],[84.4,35500],[84.4,35583],[84.4,35667],[84.4,35750],[84.4,35833],[84.4,35917],[84.4,36000],[84.4,36083],[84.4,36167],[84.4,36250],[84.4,36333],[84.4,36417],[84.4,36500],[84.4,36583],[84.4,36667],[84.4,36750],[84.4,36833],[84.4,36917],[84.4,37000],[84.4,37083],[84.4,37167],[84.4,37250],[84.4,37333],[84.4,37417],[84.4,37500],[84.4,37583],[84.4,37667],[84.4,37750],[84.4,37833],[84.4,37917],[84.4,38000],[84.4,38083],[84.4,38167],[84.4,38250],[84.4,38333],[84.4,38417],[84.4,38500],[84.4,38583],[84.4,38667],[84.4,38750],[84.4,38833],[84.4,38917],[84.4,39000],[84.4,39083],[84.4,39167],[84.4,39250],[84.4,39333],[84.4,39417],[84.4,39500]]",1,0,987.3102,991.3434,98.95833333,2.6366,"[{""rating"":98.95833333333333,""responseTime"":2.6366000000006125}]",space,3.488,,991.3436,Not at all,0,991.3445,,,[],,0,9,9,9,1,audio/Narrative7Situation9.wav,audio/Narrative8Situation9.wav,audio/Narrative5Situation9.wav,audio/Narrative6Situation9.wav,2,3,3,4,,,,,,,,,,,,,,,,,,,,,,,,,,,,,,,,,,,,,,,
,,,,,,6630587a7bed8353e70484d8,2024-05-13_11h51.30.109,group3.1-3.2-social-tom,2023.2.2,Win32,60.24096386,65c5074098b851296ff0b7ed,664236da87fd9f8fa726584c,,,,,,,,,,,,,,,,,,,,,,,,,,,,,991.3445,2,audio/Narrative6Situation1.wav,993.3602,,993.3602,1019.9439,"[[999,0],[999,83],[999,166],[999,249],[999,333],[999,416],[999,499],[999,583],[999,666],[999,749],[999,833],[999,916],[999,999],[999,1083],[999,1166],[999,1249],[999,1333],[999,1416],[999,1499],[999,1583],[999,1666],[999,1749],[999,1833],[999,1916],[999,1999],[999,2083],[999,2166],[999,2249],[999,2333],[999,2416],[999,2499],[999,2583],[999,2666],[999,2749],[999,2833],[999,2916],[999,2999],[999,3083],[999,3166],[999,3249],[999,3333],[999,3416],[999,3500],[999,3583],[999,3666],[999,3750],[999,3833],[999,3916],[999,4000],[999,4083],[999,4166],[17.4,4583],[17.4,4666],[17.4,4749],[17.4,4833],[17.4,4916],[17.4,4999],[17.4,5083],[17.4,5166],[17.4,5249],[17.4,5333],[17.4,5416],[23.6,5500],[26.8,5583],[26.8,5666],[23.8,5750],[14.1,5833],[10.8,5916],[10.8,6000],[10.8,6083],[10.4,6166],[10.3,6250],[10.3,6333],[10.3,6416],[10.3,6499],[10.3,6583],[10.3,6666],[10.3,6750],[10.3,6833],[10.3,6916],[10.3,7000],[9.9,7083],[9.9,7166],[9.9,7250],[9.9,7333],[9.9,7416],[9.9,7499],[9.9,7583],[9.9,7666],[9.9,7750],[9.9,7833],[9.9,7916],[9.9,8000],[9.9,8083],[9.9,8166],[9.9,8250],[9.9,8333],[9.9,8416],[9.9,8499],[9.9,8583],[9.9,8666],[9.9,8750],[9.9,8833],[92.5,10000],[90.8,10083],[90.2,10166],[90.2,10250],[90.2,10333],[93.2,10416],[95.4,10500],[95.4,10583],[95.4,10666],[95.4,10750],[95.4,10833],[94.9,10916],[85.9,11000],[85.9,11083],[85.9,11166],[85.9,11250],[85.9,11333],[85.9,11416],[85.9,11500],[85.9,11583],[85.9,11666],[85.9,11750],[85.9,11833],[85.9,11916],[85.9,12000],[85.5,12083],[85.4,12166],[85.4,12250],[85.3,12333],[85.3,12416],[85.3,12500],[85.3,12583],[85.3,12666],[85.3,12750],[85.3,12833],[85.3,12916],[83.2,13000],[56,13083],[43.9,13166],[43.9,13250],[43.9,13333],[43.9,13416],[43.9,13500],[43.9,13583],[43.9,13666],[43.9,13750],[35.7,13833],[15.3,13916],[14.4,14000],[14.4,14083],[14.4,14166],[14.4,14250],[13.2,14333],[12.1,14416],[12.1,14500],[12.1,14583],[12.1,14666],[12.1,14750],[12.1,14833],[12.1,14916],[12.1,15000],[12.1,15083],[12.1,15166],[10.4,15250],[8.2,15333],[7.5,15416],[7.5,15500],[7.5,15583],[7.5,15666],[7.5,15750],[16.7,15833],[30.6,15916],[37.6,16000],[39.5,16083],[39.5,16166],[30.6,16250],[16.9,16333],[16.3,16416],[16.3,16500],[16.3,16583],[16.3,16666],[16.3,16750],[16.3,16833],[16.3,16916],[16.3,17000],[16.3,17083],[16.3,17166],[16.3,17250],[16.3,17333],[16.3,17416],[16.3,17500],[16.3,17583],[16.3,17666],[16.3,17750],[16.3,17833],[16.3,17916],[16.3,18000],[16.3,18083],[16.3,18166],[16.3,18250],[16.3,18333],[16.3,18416],[16.3,18500],[16.3,18583],[16.3,18666],[16.3,18750],[16.3,18833],[16.3,18916],[16.3,19000],[16.3,19083],[16.3,19166],[16.3,19250],[16.3,19333],[16.3,19416],[4,21083],[4,21166],[3.1,21250],[1.1,21333]]",1,0,1019.944,1025.1107,17.8125,5.0161,"[{""rating"":12.708333333333332,""responseTime"":1.8908000000005813},{""rating"":21.979166666666668,""responseTime"":3.6681000000005497},{""rating"":16.354166666666664,""responseTime"":4.393100000000459},{""rating"":17.812499999999996,""responseTime"":5.016100000000506}]",space,4.6169,,1025.1107,Definitely yes,100,1025.1124,,,[],,0,10,10,10,1,audio/Narrative8Situation1.wav,audio/Narrative7Situation1.wav,audio/Narrative6Situation1.wav,audio/Narrative5Situation1.wav,5,2,2,5,,,,,,,,,,,,,,,,,,,,,,,,,,,,,,,,,,,,,,,
,,,,,,6630587a7bed8353e70484d8,2024-05-13_11h51.30.109,group3.1-3.2-social-tom,2023.2.2,Win32,60.24096386,65c5074098b851296ff0b7ed,664236da87fd9f8fa726584c,,,,,,,,,,,,,,,,,,,,,,,,,,,,,1025.1125,2,audio/Narrative6Situation2.wav,1028.1274,,1028.1274,1056.6446,"[[19.7,1500],[21.1,2250],[21.1,2333],[21.5,2416],[27.8,2500],[28.8,2583],[29,2666],[29.1,2749],[29.1,2833],[28.4,2916],[16.9,3000],[1,3083],[9.6,3916],[15.4,4000],[15.5,4083],[15.5,4166],[9.5,4250],[4.5,4333],[3.3,4416],[0.5,4500],[0.1,4583],[0.1,4666],[2.7,4750],[16.5,4833],[20.3,4916],[24.2,5000],[27.3,5083],[29,5166],[31.1,5250],[32.8,5333],[36.1,5416],[37.6,5500],[39.7,5583],[40.2,5666],[40.4,5750],[40.4,5833],[40.4,5916],[40.4,6000],[41.1,6083],[41.1,6166],[41.1,6250],[42,6333],[42,6416],[42.1,6500],[42.8,6583],[43.2,6666],[43.8,6750],[44.8,6833],[45.6,6916],[46.5,7000],[47.8,7083],[49.5,7166],[50.9,7250],[51,7333],[51,7416],[51,7500],[51,7583],[51,7666],[51,7750],[51,7833],[51,7916],[51,8000],[51,8083],[51,8166],[51,8250],[51,8333],[51,8416],[51,8500],[51,8583],[51,8666],[51,8750],[51,8833],[51,8916],[51,9000],[51,9083],[51,9166],[51,9250],[51,9333],[51,9416],[51,9500],[51,9583],[51,9666],[51,9750],[51,9833],[51,9916],[51,10000],[51,10083],[51,10166],[51,10250],[51,10333],[51,10416],[51,10500],[51,10583],[51,10666],[51,10750],[51,10833],[51,10916],[51,11000],[51,11083],[51,11166],[51,11250],[51,11333],[51,11416],[51,11500],[51,11583],[51,11666],[51,11750],[51,11833],[51,11916],[51,12000],[51,12083],[51,12166],[51,12250],[51,12333],[51,12416],[51,12500],[51,12583],[51,12666],[51,12750],[51,12833],[51,12916],[51,13000],[51,13083],[51,13166],[51,13250],[51,13333],[51,13416],[51,13500],[51,13583],[51,13666],[51,13750],[51,13833],[50.8,13916],[50.7,14000],[50.7,14083],[50.7,14166],[50.8,14250],[50.9,14333],[50.9,14416],[51.1,14500],[51.3,14583],[51.4,14666],[51.4,14750],[47.7,16333],[47.8,16416],[47.8,16500],[47.8,16583],[47.9,16666],[47.9,16750],[48,16833],[48.9,16916],[49.2,17000],[49.4,17083],[49.7,17166],[49.8,17250],[49.8,17333],[49.9,17416],[50,17500],[50,17583],[50,17666],[50,17750],[50.1,17833],[50.2,17916],[50.2,18000],[50.2,18083],[50.2,18166],[50.2,18250],[50.2,18333],[50.3,18417],[51.1,18500],[51.9,18583],[52.5,18666],[52.6,18750],[52.7,18833],[52.7,18916],[52.7,19000],[52.8,19083],[52.9,19166],[52.9,19250],[53,19333],[53,19416],[53,19500],[53,19583],[53,19666],[53,19750],[53,19833],[53,19916],[53,20000],[53,20083],[53,20166],[53,20250],[53,20333],[53,20416],[53,20500],[53,20583],[53.2,20666],[54.1,20750],[57.1,20833],[58.5,20916],[63.4,21000],[75.5,21083],[90.8,21167],[93.4,21250],[100,21333],[100,21416],[100,21500],[100,21583],[100,21666],[100,21750],[100,21833],[100,21916],[100,22000],[100,22083],[100,22167],[100,22250],[100,22333],[100,22416],[100,22500],[100,22583],[100,22666],[100,22750],[100,22833],[100,22916],[100,23000],[100,23083],[100,23166],[100,23250],[100,23333],[100,23416],[100,23500],[100,23583],[100,23666],[100,23750],[100,23833],[100,23916],[100,24000],[100,24083],[100,24166],[100,24250],[100,24333],[100,24417],[100,24500],[100,24583],[100,24666],[100,24750],[99.2,24833],[98.5,24916],[98.5,25000],[98.5,25083],[98.5,25167],[98.5,25250],[98.4,25333],[98.4,25416],[98.4,25500],[98.4,25583],[98.9,25667],[100,25750],[100,25833],[100,25916],[100,26000],[100,26083],[100,26166],[100,26250],[100,26333],[100,26416],[100,26500],[100,26583],[100,26667],[100,26750],[100,26833],[100,26916],[100,27000],[100,27083],[100,27166],[100,27250],[100,27333],[100,27416],[100,27500],[100,27583],[100,27666],[100,27750],[100,27833],[100,27916],[100,28000],[100,28083],[100,28166],[100,28250],[100,28333],[100,28416],[100,28500]]",1,0,1056.6447,1061.2612,98.85416667,0.8892,"[{""rating"":98.85416666666667,""responseTime"":0.8892000000000735}]",space,4.0907,,1061.2612,Partially,50,1061.2627,,,[],,0,11,11,11,1,audio/Narrative8Situation2.wav,audio/Narrative7Situation2.wav,audio/Narrative6Situation2.wav,audio/Narrative5Situation2.wav,3,3,3,3,,,,,,,,,,,,,,,,,,,,,,,,,,,,,,,,,,,,,,,
,,,,,,6630587a7bed8353e70484d8,2024-05-13_11h51.30.109,group3.1-3.2-social-tom,2023.2.2,Win32,60.24096386,65c5074098b851296ff0b7ed,664236da87fd9f8fa726584c,,,,,,,,,,,,,,,,,,,,,,,,,,,,,1061.2628,2,audio/Narrative6Situation3.wav,1066.2779,,1066.278,1078.8949,"[[95.3,1916],[86.1,2000],[78.5,2083],[73.1,2166],[53.5,2250],[37.7,2333],[30.1,2416],[30.1,2499],[30.1,2583],[30.1,2666],[30.1,2750],[30.1,2833],[30.1,2916],[30.1,3000],[30.1,3083],[30.1,3166],[30.1,3250],[30.1,3333],[28.8,3416],[28.8,3500],[27.8,3583],[27.8,3666],[27.5,3750],[27.5,3833],[27.5,3916],[27.5,3999],[27.5,4083],[27.3,4166],[20.6,4250],[20.6,4333],[19,4416],[2.7,4500],[0.3,9416],[6.6,9500],[76.8,10250],[65.6,10500],[90.4,10583],[96,10666],[96,10750],[96,10833],[96,10916],[96,11000],[96,11083],[96,11166],[96,11250],[100,11333],[100,11416],[100,11500],[100,11583],[100,11666],[100,11750],[100,11833]]",1,0,1078.8949,1081.7949,99.47916667,1.6294,"[{""rating"":99.47916666666667,""responseTime"":1.6294000000004871}]",space,2.3751,,1081.7949,Definitely yes,100,1081.7967,,,[],,0,12,12,12,1,audio/Narrative8Situation3.wav,audio/Narrative7Situation3.wav,audio/Narrative6Situation3.wav,audio/Narrative5Situation3.wav,4,8,5,3,,,,,,,,,,,,,,,,,,,,,,,,,,,,,,,,,,,,,,,
,,,,,,6630587a7bed8353e70484d8,2024-05-13_11h51.30.109,group3.1-3.2-social-tom,2023.2.2,Win32,60.24096386,65c5074098b851296ff0b7ed,664236da87fd9f8fa726584c,,,,,,,,,,,,,,,,,,,,,,,,,,,,,1081.7968,2,audio/Narrative6Situation4.wav,1083.8116,,1083.8116,1096.4287,"[[96.9,1750],[96.9,1833],[96.9,1916],[96.9,2000],[96.9,2083],[96.9,2166],[94.5,2250],[93.5,2333],[92.5,2416],[69.5,2500],[44,2583],[4.1,3250],[5.1,3333],[5.1,3416],[0.7,3500],[1.9,4083],[15.6,4166],[16,4333],[16.4,4416],[16,4500],[10.9,4583],[7.1,4666],[6.7,4750],[6.7,4833],[6.7,4916],[6.7,5000],[6.7,5083],[6.7,5166],[6.7,5250],[6.7,5333],[6.7,5416],[6.7,5500],[6.7,5583],[6.7,5666],[6.7,5750],[6.7,5833],[6.7,5916],[6.7,6000],[6.7,6083],[6.7,6166],[6.7,6250],[6.7,6333],[6.7,6416],[6.7,6500],[6.7,6583],[6.7,6666],[6.7,6750],[6.7,6833],[6.7,6916],[6.7,7000],[6.7,7083],[6.7,7166],[6.7,7250],[6.7,7333],[6.7,7416],[6.7,7500],[6.7,7583],[6.7,7666],[6.7,7750],[6.7,7833],[6.7,7916],[6.7,8000],[6.7,8083],[6.7,8166],[6.7,8250],[6.7,8333],[6.7,8416],[6.7,8500],[6.7,8583],[6.7,8666],[6.7,8750],[6.7,8833],[6.7,8916],[6.7,9000],[6.7,9083],[6.7,9166],[6.7,9250],[6.7,9333],[6.7,9416],[6.7,9500],[6.7,9583],[6.7,9666],[6.7,9750],[6.7,9833],[6.7,9916],[6.7,10000],[6.7,10083],[6.7,10166],[6.7,10250],[6.7,10333],[6.7,10416],[10.4,10500],[15.3,10583],[15.3,10666],[15.3,10750],[15.3,10833],[15.3,10916],[21.7,11000],[58.5,11750],[53.9,11833],[53.8,11916],[53.8,12000],[53.8,12083],[53.8,12166],[53.8,12250],[53.8,12333],[53.8,12416],[53.8,12500],[50.6,12583]]",1,0,1096.4288,1106.4786,28.64583333,8.698,"[{""rating"":28.645833333333336,""responseTime"":8.697999999999865}]",space,9.5067,,1106.4786,Partially,50,1106.48,,,[],,0,13,13,13,1,audio/Narrative8Situation4.wav,audio/Narrative7Situation4.wav,audio/Narrative6Situation4.wav,audio/Narrative5Situation4.wav,3,3,2,1,,,,,,,,,,,,,,,,,,,,,,,,,,,,,,,,,,,,,,,
,,,,,,6630587a7bed8353e70484d8,2024-05-13_11h51.30.109,group3.1-3.2-social-tom,2023.2.2,Win32,60.24096386,65c5074098b851296ff0b7ed,664236da87fd9f8fa726584c,,,,,,,,,,,,,,,,,,,,,,,,,,,,,1106.4802,2,audio/Narrative6Situation5.wav,1108.4953,,1108.4953,1116.4455,"[[25,2250],[24.9,2333],[24.9,2416],[24.9,2500],[24.9,2583],[24.9,2666],[24.9,2750],[24.9,2833],[24.9,2916],[24.9,3000],[24.9,3083],[24.9,3166],[24.9,3250],[24.9,3333],[24.9,3416],[24.9,3500],[24.9,3583],[24.9,3666],[24.9,3750],[24.9,3833],[24.9,3916],[24.9,4000],[24.9,4083],[24.9,4166],[24.9,4250],[24.9,4333],[24.9,4416],[33.9,4500],[56.5,4583],[59.9,4666],[59.9,4750],[59.9,4833],[59.9,4916],[59.9,5000],[59.9,5083],[59.9,5166],[61,5250],[61.1,5333],[61.1,5416],[61.1,5500],[61.1,5583],[61.1,5666],[61.1,5750],[61.1,5833],[61.1,5916],[61.1,6000],[61.1,6083],[61.1,6166],[61.1,6250],[61.1,6333],[61.1,6417],[61.1,6500],[61.1,6583],[61.1,6666],[61.1,6750],[61.1,6833],[61.1,6916],[61.1,7000],[61.1,7083],[61.1,7166],[61.1,7250],[61.1,7333],[61.1,7416],[61.1,7500],[61.1,7583],[61.1,7666],[61.1,7750],[64,7833],[64,7916]]",1,0,1116.4456,1119.5789,50.83333333,1.6905,"[{""rating"":50.83333333333333,""responseTime"":1.690499999999929}]",space,2.5883,,1119.5789,Partially,50,1119.5797,,,[],,0,14,14,14,1,audio/Narrative8Situation5.wav,audio/Narrative7Situation5.wav,audio/Narrative6Situation5.wav,audio/Narrative5Situation5.wav,2,5,2,5,,,,,,,,,,,,,,,,,,,,,,,,,,,,,,,,,,,,,,,
,,,,,,6630587a7bed8353e70484d8,2024-05-13_11h51.30.109,group3.1-3.2-social-tom,2023.2.2,Win32,60.24096386,65c5074098b851296ff0b7ed,664236da87fd9f8fa726584c,,,,,,,,,,,,,,,,,,,,,,,,,,,,,1119.58,2,audio/Narrative6Situation6.wav,1121.5955,,1121.5955,1132.6792,"[[49.9,3250],[52.7,3333],[54.2,3416],[54.7,3500],[55.4,3583],[56.9,3666],[65.7,3750],[100,4416],[100,4500],[100,4583],[100,4666],[100,4750],[100,4833],[100,4916],[100,5000],[100,5083],[100,5166],[100,5250],[100,5333],[100,5416],[100,5500],[100,5583],[100,5666],[100,5750],[100,5833],[100,5916],[100,6000],[100,6083],[100,6166],[100,6250],[100,6333],[100,6416],[100,6500],[100,6583],[100,6666],[100,6750],[100,6833],[100,6916],[100,7000],[100,7083],[100,7166],[100,7250],[100,7333],[100,7416],[100,7500],[100,7583],[100,7666],[100,7750],[100,7833],[100,7916],[100,8000],[100,8083],[100,8166],[100,8250],[100,8333],[100,8416],[100,8500],[100,8583],[100,8666],[100,8750],[100,8833],[100,8916],[100,9000],[100,9083],[100,9166],[100,9250],[100,9333],[100,9416],[100,9500],[100,9583],[100,9666],[100,9750],[100,9833],[100,9916],[100,10000],[100,10083],[100,10166],[100,10250],[100,10333],[100,10416],[100,10500],[100,10583],[100,10666],[100,10750],[100,10833],[100,10916],[100,11000],[100,11083]]",1,0,1132.6792,1137.0792,79.0625,3.6934,"[{""rating"":97.8125,""responseTime"":1.8040999999996075},{""rating"":79.0625,""responseTime"":3.6933999999994285}]",space,3.8628,,1137.0793,Definitely yes,100,1137.0807,,,[],,0,15,15,15,1,audio/Narrative8Situation6.wav,audio/Narrative7Situation6.wav,audio/Narrative6Situation6.wav,audio/Narrative5Situation6.wav,2,3,2,3,,,,,,,,,,,,,,,,,,,,,,,,,,,,,,,,,,,,,,,
,,,,,,6630587a7bed8353e70484d8,2024-05-13_11h51.30.109,group3.1-3.2-social-tom,2023.2.2,Win32,60.24096386,65c5074098b851296ff0b7ed,664236da87fd9f8fa726584c,,,,,,,,,,,,,,,,,,,,,,,,,,,,,1137.0809,2,audio/Narrative6Situation7.wav,1142.0959,,1142.0959,1166.963,"[[76.3,1500],[68.3,1583],[68.3,1666],[68.3,1749],[68.3,1833],[68.3,1916],[68.3,2000],[68.3,2083],[68.3,2166],[68.3,2250],[68.3,2333],[68.3,2416],[70.8,2500],[72.4,2583],[82.8,2666],[87.2,2750],[92.2,2833],[93.9,2916],[93.9,3000],[93.9,3083],[93.9,3166],[93.9,3250],[93.9,3333],[93.9,3416],[93.9,3500],[93.9,3583],[93.9,3666],[93.9,3750],[94,3833],[94.1,3916],[96.7,4000],[96.8,4083],[97.5,4166],[97.7,4250],[97.8,4333],[97.8,4416],[97.8,4500],[98,4583],[98,4666],[98,4750],[98,4833],[98.3,4916],[99.4,5000],[100,5083],[100,5166],[100,5250],[100,5333],[100,5416],[100,5500],[100,5583],[100,5666],[100,5750],[100,5833],[100,5916],[100,6000],[100,6083],[100,6166],[100,6250],[100,6333],[100,6416],[100,6500],[100,6583],[100,6666],[100,6750],[100,6833],[100,6916],[100,7000],[100,7083],[100,7166],[100,7250],[100,7333],[100,7416],[100,7500],[100,7583],[100,7666],[100,7750],[100,7833],[100,7916],[100,8000],[100,8083],[100,8166],[100,8250],[100,8333],[100,8416],[100,8500],[100,8583],[100,8666],[100,8750],[100,8833],[100,8916],[100,9000],[100,9083],[100,9166],[100,9250],[100,9333],[100,9416],[100,9500],[100,9583],[100,9666],[100,9750],[100,9833],[100,9916],[100,10000],[100,10083],[100,10166],[100,10250],[100,10333],[100,10416],[100,10500],[100,10583],[100,10666],[100,10750],[100,10833],[100,10916],[100,11000],[100,11083],[100,11166],[100,11250],[100,11333],[100,11416],[100,11500],[100,11583],[100,11666],[100,11750],[100,11833],[100,11916],[100,12000],[100,12083],[100,12166],[100,12250],[100,12333],[100,12416],[100,12500],[100,12583],[100,12666],[100,12750],[100,12833],[100,12916],[100,13000],[100,13083],[100,13166],[100,13250],[100,13333],[100,13416],[100,13500],[100,13583],[100,13666],[100,13750],[100,13833],[100,13916],[100,14000],[100,14083],[100,14166],[100,14250],[100,14333],[100,14416],[100,14500],[100,14583],[100,14666],[100,14750],[100,14833],[100,14916],[100,15000],[100,15083],[100,15166],[100,15250],[100,15333],[100,15416],[100,15500],[100,15583],[100,15666],[100,15750],[100,15833],[100,15916],[100,16000],[100,16083],[100,16166],[100,16250],[100,16333],[100,16416],[100,16500],[100,16583],[100,16666],[100,16750],[100,16833],[100,16917],[100,17000],[100,17083],[100,17166],[100,17250],[100,17333],[100,17416],[100,17500],[99.6,17583],[98.9,17667],[95.6,17750],[95.3,17833],[95.3,17916],[95.3,18000],[95.3,18083],[95.3,18166],[95.3,18250],[95.4,18333],[96.3,18416],[96.6,18500],[98.1,18583],[99.2,18667],[100,18750],[100,18833],[100,18917],[100,19000],[100,19083],[100,19166],[100,19250],[100,19333],[100,19416],[100,19500],[100,19583],[100,19666],[100,19750],[100,19833],[100,19916],[100,20000],[100,20083],[100,20166],[100,20250],[100,20333],[100,20416],[100,20500],[100,20583],[100,20666],[100,20750],[100,20833],[100,20916],[100,21000],[100,21083],[100,21166],[100,21250],[100,21333],[100,21416],[100,21500],[100,21583],[100,21666],[100,21750],[100,21833],[100,21916],[100,22000],[100,22083],[100,22166],[100,22250],[100,22333],[100,22416],[100,22500],[100,22583],[100,22666],[100,22750],[100,22833],[100,22916],[100,23000],[100,23083],[100,23166],[100,23250],[100,23333],[100,23416],[100,23500],[100,23583],[100,23666],[100,23750],[100,23833],[100,23916],[100,24000],[100,24083],[100,24166],[100,24250],[100,24333],[100,24416],[100,24500],[100,24583],[100,24666],[100,24750],[100,24833]]",1,0,1166.9631,1170.0797,99.79166667,1.6264,"[{""rating"":99.79166666666667,""responseTime"":1.6263999999994212}]",space,2.5745,,1170.0798,Not at all,0,1170.0815,,,[],,0,16,16,16,1,audio/Narrative8Situation7.wav,audio/Narrative7Situation7.wav,audio/Narrative6Situation7.wav,audio/Narrative5Situation7.wav,3,5,5,4,,,,,,,,,,,,,,,,,,,,,,,,,,,,,,,,,,,,,,,
,,,,,,6630587a7bed8353e70484d8,2024-05-13_11h51.30.109,group3.1-3.2-social-tom,2023.2.2,Win32,60.24096386,65c5074098b851296ff0b7ed,664236da87fd9f8fa726584c,,,,,,,,,,,,,,,,,,,,,,,,,,,,,1170.0816,2,audio/Narrative6Situation8.wav,1175.0965,,1175.0965,1181.9632,"[[86.7,500],[49.7,583],[40.3,666],[51.8,916],[57.6,1000],[57.6,1083],[48.9,1166],[35.6,1250],[33.9,1333],[33.9,1416],[32.5,1500],[25.9,1583],[24.4,1666],[24.4,1749],[24.4,1833],[24.4,1916],[24.4,2000],[24.4,2083],[24.4,2166],[24.4,2250],[24.4,2333],[24.4,2416],[24.4,2499],[24.4,2583],[24.4,2666],[21.1,2750],[5.8,2833],[4.8,2916],[4.8,3000],[9,3083],[14.9,3166],[14.9,3250],[14.6,3333],[7.1,3416],[6.9,3499],[6.9,3583],[6.9,3666],[6.9,3749],[6.9,3833],[6.9,3916],[6.9,4000],[6.9,4083],[6.9,4166],[6.9,4250],[6.9,4333],[6.9,4416],[6.9,4500],[6.9,4583],[6.8,4666],[6.8,4749],[6.8,4833],[6.8,4916],[6.8,5000],[6.8,5083],[6.8,5166],[6.8,5250],[6.8,5333],[6.8,5416],[6.8,5500],[6.8,5583],[6.8,5666],[6.8,5750],[6.8,5833],[6.8,5916],[6.8,6000],[6.8,6083],[6.8,6166],[6.8,6250],[6.8,6333],[6.8,6416],[6.8,6500],[6.8,6583],[6.8,6666],[6.8,6750],[6.8,6833]]",1,0,1181.9634,1185.0466,0,2.1473,"[{""rating"":0,""responseTime"":2.147299999999859}]",space,2.5336,,1185.0466,Definitely yes,100,1185.0481,,,[],,0,17,17,17,1,audio/Narrative8Situation8.wav,audio/Narrative7Situation8.wav,audio/Narrative6Situation8.wav,audio/Narrative5Situation8.wav,3,2,5,3,,,,,,,,,,,,,,,,,,,,,,,,,,,,,,,,,,,,,,,
,,,,,,6630587a7bed8353e70484d8,2024-05-13_11h51.30.109,group3.1-3.2-social-tom,2023.2.2,Win32,60.24096386,65c5074098b851296ff0b7ed,664236da87fd9f8fa726584c,,,,,,,,,,,,,,,,,,,,,,,,,,,,,1185.0482,2,audio/Narrative6Situation9.wav,1189.0633,,1189.0633,1198.9969,"[[1.1,4916],[1.1,5000],[0.4,5083],[0.4,5166],[0.4,5250],[0.4,5333],[0.4,5416],[0.4,5500],[0.4,5583],[0.4,5666],[0.4,5750]]",1,0,1198.997,1202.897,0.416666667,2.658,"[{""rating"":0.4166666666666652,""responseTime"":2.658000000000129}]",space,3.3636,,1202.897,Not at all,0,1202.8983,,,[],,0,18,18,18,1,audio/Narrative8Situation9.wav,audio/Narrative7Situation9.wav,audio/Narrative6Situation9.wav,audio/Narrative5Situation9.wav,3,2,4,3,,,,,,,,,,,,,,,,,,,,,,,,,,,,,,,,,,,,,,,
,,,,,,6630587a7bed8353e70484d8,2024-05-13_11h51.30.109,group3.1-3.2-social-tom,2023.2.2,Win32,60.24096386,65c5074098b851296ff0b7ed,664236da87fd9f8fa726584c,,,,,,,,,,,,,,,,,,,,,,,,,,,,,,,,,,,,,,,,,,,,,,,,,,,,,,,,,,,,,,,,,,,,,,,,1202.8985,1210.4637,space,7.0397,,1210.4641,1236.1312,space,25.3427,,,,,,,,,,,,,,,,,,,,,,,,,,
,,,,,,6630587a7bed8353e70484d8,2024-05-13_11h51.30.109,group3.1-3.2-social-tom,2023.2.2,Win32,60.24096386,65c5074098b851296ff0b7ed,664236da87fd9f8fa726584c,,,,,,,,,,,,,,,,,,,,,,,,,,,,,1238.7209,1,audio/Narrative8Situation9.wav,1240.731,,,,,,,1272.5877,1277.465,85.83333333,3.4142,"[{""rating"":83.85416666666667,""responseTime"":1.3157000000001062},{""rating"":85.83333333333334,""responseTime"":3.4142000000001644}]",space,4.3409,,1272.582,Not at all,0,1272.5877,,,[],,,,,,,,,,,2,2,2,2,,,,,,,,,,,,,,,1236.1367,1238.7143,1240.7311,3,1272.5819,"[[63.8,249],[60.3,333],[52.7,416],[40,500],[32.2,583],[28.4,666],[24.9,749],[24.9,833],[24.8,916],[24.8,999],[24.8,1083],[24.8,1166],[24.8,1249],[24.8,1333],[24.8,1416],[24.8,1499],[24.8,1583],[24.8,1666],[24.8,1749],[24.8,1833],[24.8,1916],[24.8,1999],[24.8,2083],[24.8,2166],[24.8,2249],[24.8,2333],[24.8,2416],[24.8,2499],[24.8,2583],[24.8,2666],[24.8,2749],[24.8,2833],[24.8,2916],[24.8,2999],[24.8,3083],[24.8,3166],[24.8,3249],[24.8,3333],[26.1,3416],[31.3,3500],[39.7,3583],[45.6,3666],[51.4,3749],[52.6,3833],[52.6,3916],[51.9,4000],[44.8,4083],[42.8,4166],[42.8,4249],[42.8,4333],[42.8,4416],[42.8,4499],[42.8,4583],[42.8,4666],[42.8,4749],[42.8,4833],[42.8,4916],[42.8,4999],[42.8,5083],[42.8,5166],[42.8,5249],[42.8,5333],[42.8,5416],[38.3,5500],[13.3,6166],[17.1,6250],[16.5,6333],[7.5,6916],[9,6999],[7.3,7083],[0.8,7166]]",0,0,0,0,1,"Larry had recently lost his family, job and home, and was now living on his own in the park. He had most of his belongings, including some clothes, a blanket, and his mother’s special necklace. His family had been very important to him and he felt as though he did not have much going for him. One of his first days in the park he came across a family that did not have much food and looked very cold. He decided to give them some of his food and his blanket.","Larry had recently lost his family, job and home, and was now living on his own in the park. He had most of his belongings, including some clothes, a blanket, and his mother’s special necklace. His family had been very important to him and he felt as though he did not have much going for him. One of his first days in the park he came across a family that did not have much food and looked very cold. He decided to give them some of his food and his blanket.","Larry had recently lost his family, job and home, and was now living on his own in the park. He had most of his belongings, including some clothes, a blanket, and his mother’s special necklace. His family had been very important to him and he felt as though he did not have much going for him. One of his first days in the park he came across a family that did not have much food and looked very cold. He decided to give them some of his food and his blanket.","Larry had recently lost his family, job and home, and was now living on his own in the park. He had most of his belongings, including some clothes, a blanket, and his mother’s special necklace. His family had been very important to him and he felt as though he did not have much going for him. One of his first days in the park he came across a family that did not have much food and looked very cold. He decided to give them some of his food and his blanket.",,,,,,,,,,
