exp_question,consent.started,consent.stopped,consentResponse.keys,consentResponse.rt,consentResponse.duration,participantID,date,expName,psychopyVersion,OS,frameRate,STUDY_ID,SESSION_ID,opening1.started,opening1.stopped,keyEndingOpening1.keys,keyEndingOpening1.rt,keyEndingOpening1.duration,volumeAdjust.started,volumeAdjust.stopped,endingAdjust.keys,endingAdjust.rt,endingAdjust.duration,opening2.started,opening2.stopped,keyEndingOpening.keys,keyEndingOpening.rt,keyEndingOpening.duration,mouse.x,mouse.y,mouse.leftButton,mouse.midButton,mouse.rightButton,mouse.time,instructionLoop.thisRepN,instructionLoop.thisTrialN,instructionLoop.thisN,instructionLoop.thisIndex,instructionLoop.ran,readyForAudio.started,readyForAudio.stopped,fixation.started,run,audio_played,fixation.stopped,endPractice.keys,audioPre.started,audioPre.stopped,continuousResponses_audio,continuousSlider.response,continuousSlider.rt,intRating.started,intRating.stopped,intQuestionSlider.response,intQuestionSlider.rt,intQuestionSlider.history,confirmResponse.keys,confirmResponse.rt,confirmResponse.duration,catchQuestion.started,catch_label,catch_value,catchQuestion.stopped,catchQuestionSlider.response,catchQuestionSlider.rt,catchQuestionSlider.history,confirmResponse_2.keys,audioRunLoop.thisRepN,audioRunLoop.thisTrialN,audioRunLoop.thisN,audioRunLoop.thisIndex,audioRunLoop.ran,conditions1_1,conditions2_1,conditions1_2,conditions2_2,dur1_1,dur2_1,dur1_2,dur2_2,endPractice.rt,endPractice.duration,confirmResponse_2.rt,confirmResponse_2.duration,runIntervalBreak.started,runIntervalBreak.stopped,endingBreakKey.keys,endingBreakKey.rt,endingBreakKey.duration,connection.started,connection.stopped,connectionEnding.keys,connectionEnding.rt,connectionEnding.duration,readyForText.started,readyForText.stopped,textPre.started,run_dup,textPre.stopped,continuousResponses_text,textRunLoop.thisRepN,textRunLoop.thisTrialN,textRunLoop.thisN,textRunLoop.thisIndex,textRunLoop.ran,text1_1,text1_2,text2_1,text2_2,runBreakText.started,runBreakText.stopped,endingBreakKey_2.keys,endingBreakKey_2.rt,endingBreakKey_2.duration,ending.started,ending.stopped,endingEnding.keys,endingEnding.rt,endingEnding.duration
social,0.0004,50.0986,y,49.7687,,66352811881d6bf26260a155,2024-05-13_08h27.27.770,group3.1-3.2-social-tom,2023.2.2,Windows,59.88023952,65c5074098b851296ff0b7ed,664230dbd51f2625d1ead9a6,,,,,,,,,,,,,,,,,,,,,,,,,,,,,,,,,,,,,,,,,,,,,,,,,,,,,,,,,,,,,,,,,,,,,,,,,,,,,,,,,,,,,,,,,,,,,,,,,,,,,,,,,,
,,,,,,66352811881d6bf26260a155,2024-05-13_08h27.27.770,group3.1-3.2-social-tom,2023.2.2,Windows,59.88023952,65c5074098b851296ff0b7ed,664230dbd51f2625d1ead9a6,50.0992,57.8924,space,7.7301,,,,,,,,,,,,,,,,,,,,,,,,,,,,,,,,,,,,,,,,,,,,,,,,,,,,,,,,,,,,,,,,,,,,,,,,,,,,,,,,,,,,,,,,,,,,,,,,,,,,,,
,,,,,,66352811881d6bf26260a155,2024-05-13_08h27.27.770,group3.1-3.2-social-tom,2023.2.2,Windows,59.88023952,65c5074098b851296ff0b7ed,664230dbd51f2625d1ead9a6,,,,,,57.8929,116.7506,space,58.5386,,,,,,,,,,,,,,,,,,,,,,,,,,,,,,,,,,,,,,,,,,,,,,,,,,,,,,,,,,,,,,,,,,,,,,,,,,,,,,,,,,,,,,,,,,,,,,,,,
,,,,,,66352811881d6bf26260a155,2024-05-13_08h27.27.770,group3.1-3.2-social-tom,2023.2.2,Windows,59.88023952,65c5074098b851296ff0b7ed,664230dbd51f2625d1ead9a6,,,,,,,,,,,116.7604,128.7051,space,11.9106,,[],[],[],[],[],[],0,0,0,0,1,,,,,,,,,,,,,,,,,,,,,,,,,,,,,,,,,,,,,,,,,,,,,,,,,,,,,,,,,,,,,,,,,,,,,,,,,,,,,,,,
,,,,,,66352811881d6bf26260a155,2024-05-13_08h27.27.770,group3.1-3.2-social-tom,2023.2.2,Windows,59.88023952,65c5074098b851296ff0b7ed,664230dbd51f2625d1ead9a6,,,,,,,,,,,128.7078,152.1216,space,23.2428,,[],[],[],[],[],[],1,0,1,0,1,,,,,,,,,,,,,,,,,,,,,,,,,,,,,,,,,,,,,,,,,,,,,,,,,,,,,,,,,,,,,,,,,,,,,,,,,,,,,,,,
,,,,,,66352811881d6bf26260a155,2024-05-13_08h27.27.770,group3.1-3.2-social-tom,2023.2.2,Windows,59.88023952,65c5074098b851296ff0b7ed,664230dbd51f2625d1ead9a6,,,,,,,,,,,152.1224,170.903,space,18.7021,,[],[],[],[],[],[],2,0,2,0,1,,,,,,,,,,,,,,,,,,,,,,,,,,,,,,,,,,,,,,,,,,,,,,,,,,,,,,,,,,,,,,,,,,,,,,,,,,,,,,,,
,,,,,,66352811881d6bf26260a155,2024-05-13_08h27.27.770,group3.1-3.2-social-tom,2023.2.2,Windows,59.88023952,65c5074098b851296ff0b7ed,664230dbd51f2625d1ead9a6,,,,,,,,,,,170.9046,252.4609,space,81.5081,,[],[],[],[],[],[],3,0,3,0,1,,,,,,,,,,,,,,,,,,,,,,,,,,,,,,,,,,,,,,,,,,,,,,,,,,,,,,,,,,,,,,,,,,,,,,,,,,,,,,,,
,,,,,,66352811881d6bf26260a155,2024-05-13_08h27.27.770,group3.1-3.2-social-tom,2023.2.2,Windows,59.88023952,65c5074098b851296ff0b7ed,664230dbd51f2625d1ead9a6,,,,,,,,,,,252.4623,275.8787,space,23.3835,,[],[],[],[],[],[],4,0,4,0,1,,,,,,,,,,,,,,,,,,,,,,,,,,,,,,,,,,,,,,,,,,,,,,,,,,,,,,,,,,,,,,,,,,,,,,,,,,,,,,,,
,,,,,,66352811881d6bf26260a155,2024-05-13_08h27.27.770,group3.1-3.2-social-tom,2023.2.2,Windows,59.88023952,65c5074098b851296ff0b7ed,664230dbd51f2625d1ead9a6,,,,,,,,,,,,,,,,,,,,,,,,,,,275.8873,278.4629,278.5159,1,audio/Narrative13Situation2.wav,280.5309,,280.5317,310.2848,"[[999,4],[999,131],[999,213],[999,297],[999,382],[999,465],[999,547],[999,633],[999,716],[999,800],[999,882],[999,966],[999,1049],[999,1131],[999,1214],[999,1298],[999,1381],[999,1465],[999,1550],[999,1631],[999,1715],[999,1800],[999,1882],[999,1965],[999,2049],[999,2134],[999,2216],[999,2298],[999,2382],[999,2465],[999,2550],[999,2633],[999,2718],[999,2798],[999,2884],[999,2967],[999,3050],[999,3133],[999,3218],[999,3300],[999,3382],[999,3468],[999,3550],[999,3635],[999,3719],[36.1,3801],[34.4,3884],[33,3968],[32,4052],[31.6,4132],[31.6,4217],[31.6,4300],[31.6,4383],[31.4,4467],[30.8,4551],[30.5,4635],[30.5,4718],[30.5,4802],[30.5,4885],[30.5,4968],[30.5,5051],[30.5,5134],[30.5,5218],[33.8,5303],[37.1,5386],[37.1,5477],[37.1,5561],[37.1,5647],[37.1,5732],[37.1,5818],[37.1,5901],[37.1,5985],[37,6068],[37,6151],[36.9,6235],[36.7,6318],[37.8,6402],[41,6486],[41,6569],[41,6652],[42.9,6736],[42.9,6818],[42.9,6902],[43.7,6986],[43.9,7070],[45,7154],[45.6,7235],[45.6,7320],[45.6,7403],[45.6,7485],[45.6,7570],[45.6,7653],[45.6,7737],[46,7820],[46.4,7903],[46.4,7987],[46.5,8070],[46.5,8154],[46.5,8237],[46.5,8319],[46.3,8405],[46.3,8488],[51.4,8572],[61.7,8655],[62.4,8739],[65.1,8820],[65.1,8903],[65.1,8988],[65.1,9072],[65.1,9154],[67.1,9241],[68.3,9321],[68.9,9406],[70,9487],[70,9571],[70.1,9654],[71.1,9738],[71.1,9821],[71.1,9905],[71.1,9989],[72.7,10070],[72.7,10155],[72.7,10237],[72.7,10322],[72.8,10405],[72.9,10489],[72.9,10571],[72.9,10655],[73.7,10738],[73.7,10821],[74.2,10905],[74.5,10987],[74.5,11072],[74.5,11155],[74.5,11238],[74.5,11323],[74.5,11406],[74.5,11490],[74.5,11573],[74.5,11657],[74.5,11740],[74.5,11822],[74.5,11905],[74.5,11990],[74.5,12073],[74.5,12156],[74.5,12239],[74.5,12322],[74.5,12406],[74.5,12490],[74.5,12573],[74.5,12657],[73.3,12740],[72.7,12825],[71.9,12908],[71.8,12990],[71.8,13074],[70.2,13156],[70.2,13241],[70.2,13324],[69.1,13407],[69.1,13489],[65.2,13574],[65.1,13656],[65.1,13740],[65.7,13824],[66.6,13909],[68,13992],[68.9,14074],[69.3,14158],[69.6,14242],[69.6,14324],[70.1,14408],[70.1,14491],[70.1,14575],[71.6,14657],[75.9,14741],[81.6,14826],[86.5,14912],[89.4,14993],[91.8,15075],[95.4,15160],[96.1,15241],[98.8,15327],[100,15409],[100,15492],[100,15575],[100,15658],[100,15743],[100,15824],[100,15909],[100,15992],[100,16076],[100,16161],[100,16244],[100,16326],[100,16410],[100,16491],[100,16577],[100,16658],[100,16742],[99.9,16825],[99.9,16908],[99.7,16992],[98.8,17076],[98.6,17160],[98.3,17244],[98.3,17327],[98.3,17410],[97.9,17492],[97.9,17577],[97.9,17659],[97.8,17744],[97.6,17828],[95.5,17911],[95.1,17994],[92.9,18077],[92.7,18159],[92.7,18243],[91.8,18328],[91.6,18410],[92.1,18494],[93.9,18579],[96.4,18662],[96.5,18745],[96.5,18828],[96.5,18912],[95,18995],[90.3,19080],[89.4,19163],[87.4,19246],[87.2,19327],[84.8,19411],[81.7,19495],[79,19579],[74.2,19661],[74,19745],[74,19829],[70.5,19914],[69.3,19996],[67.7,20079],[67.7,20162],[67.7,20244],[66.9,20330],[66.9,20413],[66.9,20496],[66.2,20580],[64.8,20663],[62.1,20748],[61.1,20831],[59,20913],[59,20996],[57.6,21079],[56.4,21164],[56.4,21247],[56.4,21330],[56.4,21413],[56.4,21497],[56.4,21579],[56.1,21664],[54.3,21748],[28,22332],[21.4,22414],[23.3,22496],[23.2,22580],[20.5,22664],[12,22748],[7.9,22831],[5.7,22914],[5.7,22998],[2.6,23082],[2.6,23163],[2.6,23248],[2.6,23330],[2.6,23415],[2.6,23497],[2.6,23581],[2.2,23663],[2.1,23749],[0.6,23831],[0.6,23915],[0.6,23999],[0.8,24082],[4.9,24165],[8.2,24249],[9,24332],[10.4,24415],[13,24497],[14.9,24583],[17.8,24666],[20,24748],[20.1,24831],[22.7,24915],[22.7,24998],[22.7,25083],[22.7,25165],[24,25250],[24.6,25333],[64.3,25915],[58.9,26000],[58,26082],[57.3,26166],[57.3,26251],[57.3,26332],[59.1,26416],[60.3,26500],[63.1,26583],[66.2,26667],[71.6,26751],[73.8,26837],[74.6,26916],[74.6,27000],[74.6,27084],[74.6,27168],[73.3,27251],[63.1,27339],[49.1,27417],[41.6,27501],[39.2,27587],[36,27667],[35.3,27753],[34.7,27834],[34.7,27918],[33.5,28001],[32.9,28085],[32.9,28169],[32.9,28251],[32.9,28336],[32.9,28417],[32.9,28502],[32.9,28585],[32.9,28667],[32.9,28753],[32.9,28834],[32.9,28919],[34.3,29003],[34.3,29086],[34.3,29168],[34.3,29251],[34.3,29336],[34.3,29419],[34.3,29503],[34.3,29585],[34.3,29669],[34.3,29752]]",1,0,310.2855,329.1655,93.88020833,18.8739,"[{""rating"":93.88020833333333,""responseTime"":18.873899999998457}]",space,16.5525,,329.1659,Not at all,0,329.1753,,,[],,0,0,0,0,1,audio/Narrative13Situation2.wav,audio/Narrative13Situation2.wav,audio/Narrative13Situation2.wav,audio/Narrative13Situation2.wav,2,2,2,2,,,,,,,,,,,,,,,,,,,,,,,,,,,,,,,,,,,,,,,
,,,,,,66352811881d6bf26260a155,2024-05-13_08h27.27.770,group3.1-3.2-social-tom,2023.2.2,Windows,59.88023952,65c5074098b851296ff0b7ed,664230dbd51f2625d1ead9a6,,,,,,,,,,,,,,,,,,,,,,,,,,,,,329.1764,1,audio/Narrative8Situation1.wav,331.8851,space,331.8852,347.8296,"[[88.9,932],[52.5,1934],[51,2017],[49.6,2099],[49.6,2182],[49.6,2266],[51,2353],[64.2,2433],[73.3,2517],[74.6,2600],[76.4,2683],[78.3,2766],[79.3,2850],[79.3,2933],[79.3,3016],[79.3,3099],[75.8,3185],[73.7,3266],[71.5,3351],[67.8,3434],[66,3518],[65.4,3600],[61.8,3686],[58.2,3768],[58.1,3850],[58.1,3932],[58.1,4017],[58.1,4101],[56.6,4185],[56.1,4267],[56.1,4350],[56.1,4434],[52.7,4934],[52.7,5017],[53.3,5101],[55.9,5187],[59.9,5272],[70.8,5352],[74.3,5435],[76.8,5519],[79.8,5601],[82.7,5686],[84.6,5768],[85.3,5851],[88.7,5935],[90.1,6018],[91.8,6102],[93.2,6187],[93.8,6268],[94.5,6353],[95.1,6434],[97.3,6520],[98,6602],[98,6684],[98.2,6770],[98.3,6852],[98.2,6937],[98,7018],[97.8,7102],[97.5,7187],[97.3,7270],[96.1,7355],[95.3,7435],[94.8,7520],[94.5,7602],[91.7,7687],[91.3,7770],[91.3,7853],[91.3,7937],[91.3,8019],[91.3,8104],[91.3,8187],[91.3,8271],[90.4,8354],[84.8,8439],[83.7,8520],[83.7,8603],[83.7,8688],[83.7,8771],[83.7,8853],[83.7,8939],[85.8,9021],[85.8,9104],[85.8,9187],[85.8,9271],[85.9,9357],[86.2,9438],[86.3,9522],[86.3,9605],[86.3,9689],[88.2,9772],[92.1,9856],[95.4,9939],[96.6,10021],[96.6,10105],[96.6,10187],[96.6,10271],[96.6,10355],[96.6,10439],[96.6,10522],[96.6,10606],[96.6,10687],[96.6,10772],[96.6,10855],[96.6,10938],[96.7,11022],[96.7,11114],[96.7,11188],[96.7,11272],[96.7,11355],[96.7,11439],[96.7,11522],[96.7,11605],[96.7,11690],[96.7,11773],[96.7,11857],[96.7,11939],[96.7,12022],[96.7,12106],[96.7,12190],[96.7,12273],[96.7,12356],[96.7,12439],[96.7,12522],[96.7,12606],[96.7,12691],[96.7,12773],[96.7,12856],[96.7,12940],[96.7,13023],[96.7,13107],[96.7,13190],[96.7,13274],[96.7,13358],[96.7,13442],[96.7,13522],[96.7,13606],[96.7,13690],[96.7,13774],[96.5,13858],[94.8,13941],[94.8,14023],[94.3,14108],[94.1,14190],[94.1,14275],[94.1,14357],[94.1,14441],[94.1,14524],[94.1,14607],[94.1,14691],[94.1,14775],[94.1,14858],[94.1,14941],[94.1,15026],[94.1,15108],[94.1,15191],[93,15275],[92.7,15359],[88.7,15442],[84.6,15527],[79,15609],[76.2,15692],[74.1,15777],[72.4,15860],[69,15944]]",1,0,347.83,357.5174,99.47916667,8.1149,"[{""rating"":96.875,""responseTime"":6.128999999999962},{""rating"":99.47916666666667,""responseTime"":8.114900000005946}]",space,9.1439,,357.5176,Definitely yes,100,367.7917,99.08854167,5.4467,"[{""rating"":99.08854166666667,""responseTime"":5.446699999995531}]",space,0,1,1,1,1,audio/Narrative7Situation1.wav,audio/Narrative8Situation1.wav,audio/Narrative5Situation1.wav,audio/Narrative6Situation1.wav,2,5,5,2,2.6646,,9.7268,,,,,,,,,,,,,,,,,,,,,,,,,,,,,,,,,,,,
,,,,,,66352811881d6bf26260a155,2024-05-13_08h27.27.770,group3.1-3.2-social-tom,2023.2.2,Windows,59.88023952,65c5074098b851296ff0b7ed,664230dbd51f2625d1ead9a6,,,,,,,,,,,,,,,,,,,,,,,,,,,,,367.7927,1,audio/Narrative8Situation2.wav,370.7951,,370.7955,380.9346,"[[999,1],[999,98],[999,181],[999,264],[999,348],[999,432],[999,514],[999,600],[999,682],[999,766],[999,850],[999,932],[999,1017],[999,1099],[999,1186],[999,1266],[999,1349],[999,1433],[999,1515],[999,1599],[999,1684],[999,1767],[999,1850],[999,1933],[999,2017],[999,2100],[999,2184],[999,2268],[59.6,2350],[63.7,2433],[63.7,2517],[63.7,2601],[64.6,2684],[75.5,2769],[80.2,2852],[80.9,2932],[81.8,3017],[81.8,3100],[76.4,3186],[70.7,3268],[61.2,3351],[0.4,9772],[0.4,9855],[0.4,9939],[0.4,10023],[0.3,10108]]",1,0,380.9348,383.7032,0.260416667,1.7946,"[{""rating"":0.2604166666666685,""responseTime"":1.7946000000014806}]",space,2.242,,383.7036,Not at all,0,383.7131,,,[],,0,2,2,2,1,audio/Narrative7Situation2.wav,audio/Narrative8Situation2.wav,audio/Narrative5Situation2.wav,audio/Narrative6Situation2.wav,3,3,3,3,,,,,,,,,,,,,,,,,,,,,,,,,,,,,,,,,,,,,,,
,,,,,,66352811881d6bf26260a155,2024-05-13_08h27.27.770,group3.1-3.2-social-tom,2023.2.2,Windows,59.88023952,65c5074098b851296ff0b7ed,664230dbd51f2625d1ead9a6,,,,,,,,,,,,,,,,,,,,,,,,,,,,,383.7138,1,audio/Narrative8Situation3.wav,387.724,,387.7243,410.1071,"[[25.9,10690],[7.8,11037],[6.9,11107],[2.7,11191],[1.6,11276],[0.9,11367],[0.4,11452],[0.4,11523],[0.4,11616],[0.1,11692],[0.1,15288],[0.1,15367],[0.1,15451],[0.1,15535],[0.1,15609],[0.1,15701],[0.1,15777],[0.1,15866],[0.1,15944],[0.1,16027],[0.1,16109],[0.1,16192],[0.1,16281],[1.8,16372],[1.8,16452],[1.8,16532],[1.8,16620],[1.8,16703],[1.8,16774],[1.8,16858],[1.8,16941],[1.8,17024],[1.7,17109],[1.7,17190],[1.7,17274],[1.7,17356],[1.4,17439],[1.4,17524],[1.4,17607],[1.4,17691],[1.4,17774],[1.2,17858],[0.5,17940],[0.5,18023],[0.5,18107],[0.5,18191],[0.5,18273],[0.5,18357],[0.5,18440],[0.5,18523],[0.5,18606],[0.5,18689],[0.5,18774],[0.5,18856],[0.5,18940],[0.5,19022],[0.5,19106],[0.5,19189],[0.5,19273],[0.5,19358],[0.5,19440],[0.5,19525],[0.5,19607],[0.5,19692],[0.5,19776],[0.5,19859],[0.5,19942],[1.7,20026],[3.1,20108],[3.1,20191],[3.1,20274],[3.1,20359],[3.1,20442],[3.3,20527],[3.3,20610],[3.3,20694],[3.3,20777],[3.3,20861],[3.3,20945],[3.4,21028],[3.4,21110],[3.4,21194],[3.4,21278],[3.4,21361],[3.4,21446],[3.4,21529],[3.4,21613],[3.4,21697],[3.4,21781],[3.4,21864],[3.4,21956],[3.4,22031],[3.4,22122],[3.4,22196],[3.4,22281],[3.4,22365]]",1,0,410.1078,413.759,0,2.493,"[{""rating"":0,""responseTime"":2.492999999999995}]",space,3.1073,,413.7591,Partially,50,413.7689,,,[],,0,3,3,3,1,audio/Narrative7Situation3.wav,audio/Narrative8Situation3.wav,audio/Narrative5Situation3.wav,audio/Narrative6Situation3.wav,8,4,3,5,,,,,,,,,,,,,,,,,,,,,,,,,,,,,,,,,,,,,,,
,,,,,,66352811881d6bf26260a155,2024-05-13_08h27.27.770,group3.1-3.2-social-tom,2023.2.2,Windows,59.88023952,65c5074098b851296ff0b7ed,664230dbd51f2625d1ead9a6,,,,,,,,,,,,,,,,,,,,,,,,,,,,,413.7693,1,audio/Narrative8Situation4.wav,416.7771,,416.7772,430.9382,"[[999,1],[999,100],[999,184],[999,267],[999,350],[999,432],[999,517],[999,600],[999,684],[999,768],[999,851],[999,935],[999,1017],[999,1100],[999,1184],[999,1267],[999,1350],[999,1435],[999,1518],[999,1600],[999,1683],[999,1767],[999,1852],[999,1934],[999,2019],[999,2102],[999,2186],[999,2268],[999,2352],[999,2435],[999,2518],[999,2601],[999,2684],[999,2767],[999,2852],[999,2936],[999,3018],[999,3101],[999,3186],[999,3269],[999,3351],[999,3435],[999,3518],[999,3602],[999,3686],[999,3770],[999,3853],[999,3937],[999,4020],[999,4104],[999,4187],[999,4269],[999,4352],[999,4437],[999,4519],[999,4603],[999,4687],[999,4769],[999,4853],[999,4936],[999,5020],[999,5103],[999,5186],[999,5271],[999,5353],[999,5436],[999,5521],[999,5604],[999,5688],[999,5771],[999,5854],[999,5938],[999,6020],[999,6105],[999,6188],[999,6270],[999,6355],[999,6436],[999,6521],[999,6604],[999,6688],[999,6771],[999,6853],[999,6939],[999,7022],[999,7105],[999,7187],[999,7272],[999,7355],[999,7438],[999,7523],[999,7605],[999,7689],[999,7771],[999,7855],[999,7938],[999,8022],[999,8105],[999,8189],[999,8272],[999,8356],[999,8439],[999,8523],[999,8605],[999,8689],[999,8773],[999,8857],[999,8940],[999,9023],[999,9106],[999,9189],[999,9272],[999,9356],[999,9440],[999,9524],[999,9607],[999,9689],[999,9773],[999,9857],[999,9939],[999,10024],[999,10107],[999,10191],[999,10273],[999,10357],[999,10440],[999,10524],[999,10606],[999,10691],[999,10775],[999,10857],[999,10941],[999,11025],[999,11109],[999,11191],[999,11275],[999,11358],[999,11441],[999,11524],[999,11609],[999,11692],[999,11774],[999,11859],[999,11943],[999,12026],[999,12107],[999,12190],[999,12275],[999,12358],[999,12441],[999,12526],[999,12608],[999,12691],[999,12776],[999,12858],[999,12941],[999,13025],[999,13108],[999,13192],[999,13277],[999,13358],[999,13443],[999,13526],[999,13610],[999,13693],[999,13777],[999,13859],[999,13942],[999,14027],[999,14111]]",1,0,430.9385,437.9436,99.08854167,5.217,"[{""rating"":99.08854166666667,""responseTime"":5.2169999999999845}]",space,6.4753,,437.944,Not at all,0,437.9512,,,[],,0,4,4,4,1,audio/Narrative7Situation4.wav,audio/Narrative8Situation4.wav,audio/Narrative5Situation4.wav,audio/Narrative6Situation4.wav,3,3,1,2,,,,,,,,,,,,,,,,,,,,,,,,,,,,,,,,,,,,,,,
,,,,,,66352811881d6bf26260a155,2024-05-13_08h27.27.770,group3.1-3.2-social-tom,2023.2.2,Windows,59.88023952,65c5074098b851296ff0b7ed,664230dbd51f2625d1ead9a6,,,,,,,,,,,,,,,,,,,,,,,,,,,,,437.9514,1,audio/Narrative8Situation5.wav,439.9617,,439.9619,448.2178,"[[999,1],[999,98],[999,181],[999,265],[999,349],[999,432],[999,516],[999,599],[999,681],[999,766],[999,850],[999,932],[999,1017],[999,1100],[999,1182],[999,1267],[999,1349],[999,1432],[999,1515],[999,1600],[999,1683],[999,1766],[999,1850],[999,1933],[999,2016],[999,2099],[999,2183],[999,2266],[999,2349],[999,2433],[999,2518],[999,2600],[999,2682],[999,2767],[999,2850],[999,2933],[999,3018],[999,3101],[999,3184],[999,3266],[999,3351],[999,3435],[999,3516],[999,3601],[999,3683],[999,3766],[999,3851],[999,3935],[999,4018],[999,4103],[87.8,4185],[89.8,4268],[90.2,4350],[97,4685],[97.5,4767],[98.7,4851],[99,4936],[99,5019],[99,5102],[99,5186],[99,5269],[99,5353],[99,5435],[99,5519],[99,5602],[99,5685],[99,5769],[99,5852],[99,5937],[95.2,6020],[88.5,6105],[92.1,6520],[97.3,6605],[97.3,6688],[97.4,6770],[97.5,6855],[97.9,6936],[98.2,7019],[98.6,7103],[98.8,7186],[98.8,7270],[99,7353],[99.2,7438],[99.2,7521],[99.2,7605],[99.2,7688],[99.2,7771],[99.2,7854],[99.2,7938],[99.2,8021],[99.2,8105],[99.2,8188]]",1,0,448.2185,450.8023,99.08854167,1.7779,"[{""rating"":99.08854166666667,""responseTime"":1.7778999999984535}]",space,2.0364,,450.8026,Partially,50,450.81,,,[],,0,5,5,5,1,audio/Narrative7Situation5.wav,audio/Narrative8Situation5.wav,audio/Narrative5Situation5.wav,audio/Narrative6Situation5.wav,5,2,5,2,,,,,,,,,,,,,,,,,,,,,,,,,,,,,,,,,,,,,,,
,,,,,,66352811881d6bf26260a155,2024-05-13_08h27.27.770,group3.1-3.2-social-tom,2023.2.2,Windows,59.88023952,65c5074098b851296ff0b7ed,664230dbd51f2625d1ead9a6,,,,,,,,,,,,,,,,,,,,,,,,,,,,,450.8103,1,audio/Narrative8Situation6.wav,452.8152,,452.8155,459.2905,[],1,0,459.2907,464.896,57.55208333,4.1,"[{""rating"":33.59375,""responseTime"":2.697200000003022},{""rating"":57.552083333333336,""responseTime"":4.100000000000023}]",space,5.0719,,464.8961,Not at all,0,464.9029,,,[],,0,6,6,6,1,audio/Narrative7Situation6.wav,audio/Narrative8Situation6.wav,audio/Narrative5Situation6.wav,audio/Narrative6Situation6.wav,3,2,3,2,,,,,,,,,,,,,,,,,,,,,,,,,,,,,,,,,,,,,,,
,,,,,,66352811881d6bf26260a155,2024-05-13_08h27.27.770,group3.1-3.2-social-tom,2023.2.2,Windows,59.88023952,65c5074098b851296ff0b7ed,664230dbd51f2625d1ead9a6,,,,,,,,,,,,,,,,,,,,,,,,,,,,,464.9037,1,audio/Narrative8Situation7.wav,467.9154,,467.9156,480.0229,"[[7.2,7354],[8.7,7439],[4.3,8523],[3.5,8605],[3.5,8687],[3.5,8770],[3.5,8855],[3.5,8936],[3.5,9020],[3.5,9105],[3.5,9189],[3.5,9270],[3.5,9356],[3.5,9438],[3.5,9522],[3.5,9604],[3.5,9688],[3.5,9772],[3.5,9855],[3.5,9939],[3.5,10021],[3.5,10105],[3.5,10189],[3.5,10272],[3.5,10354],[3.5,10439],[3.5,10522],[3.5,10606],[3.5,10688],[3.5,10773],[3.5,10857],[3.5,10940],[3.5,11022],[3.5,11105],[7,11190],[7.7,11272],[7.6,11356],[5.9,11440],[2.2,11522],[1.7,11607],[1.7,11690],[0.4,11773],[0.3,11856],[0.3,11940],[0.3,12024],[0.3,12106]]",1,0,480.023,481.4568,0.260416667,0.2276,"[{""rating"":0.2604166666666685,""responseTime"":0.22760000000153013}]",space,0.9043,,481.4568,Definitely yes,100,481.4645,,,[],,0,7,7,7,1,audio/Narrative7Situation7.wav,audio/Narrative8Situation7.wav,audio/Narrative5Situation7.wav,audio/Narrative6Situation7.wav,5,3,4,5,,,,,,,,,,,,,,,,,,,,,,,,,,,,,,,,,,,,,,,
,,,,,,66352811881d6bf26260a155,2024-05-13_08h27.27.770,group3.1-3.2-social-tom,2023.2.2,Windows,59.88023952,65c5074098b851296ff0b7ed,664230dbd51f2625d1ead9a6,,,,,,,,,,,,,,,,,,,,,,,,,,,,,481.4655,1,audio/Narrative8Situation8.wav,484.476,,484.4761,497.3194,"[[999,0],[999,100],[999,183],[999,267],[999,350],[999,433],[999,515],[999,599],[999,684],[999,766],[999,850],[999,934],[999,1016],[999,1099],[999,1184],[999,1267],[999,1350],[999,1432],[999,1517],[999,1600],[999,1685],[999,1767],[999,1851],[999,1933],[999,2017],[999,2101],[999,2185],[999,2267],[999,2351],[999,2435],[999,2519],[999,2601],[999,2685],[999,2768],[999,2852],[999,2935],[999,3019],[999,3101],[999,3184],[999,3268],[999,3352],[999,3436],[999,3518],[999,3602],[999,3686],[999,3768],[999,3851],[999,3936],[999,4018],[999,4101],[999,4185],[999,4270],[999,4353],[999,4435],[999,4520],[999,4603],[999,4685],[999,4769],[999,4853],[999,4937],[999,5019],[999,5103],[999,5186],[999,5271],[999,5353],[999,5438],[999,5521],[999,5604],[999,5687],[999,5771],[999,5854],[999,5937],[999,6020],[999,6106],[999,6187],[6.4,6354],[6.6,6437],[6.6,6522],[6.6,6604],[4.3,6688],[0.9,6771],[0.7,8939],[1.6,9023],[1.7,9107],[1.7,9188],[1.7,9273],[1.7,9356],[1.7,9440],[1.6,9522],[1.6,9606],[1.6,9688],[1.6,9773],[1.6,9856],[1.6,9940],[1.6,10023],[1.6,10106],[1.6,10190],[1.6,10273],[1.6,10356],[1.6,10441],[1.6,10525],[1.6,10608],[1.6,10693],[1.6,10773],[1.6,10858],[1.6,10941],[1.6,11023],[1.6,11109],[1.6,11191],[1.6,11273],[1.6,11358],[1.6,11443],[1.6,11525],[1.6,11609],[1.4,11690],[1.2,11777],[1.2,11859],[1.2,11941],[1.2,12025],[1.2,12108],[0.9,12192],[0.7,12278],[0.7,12358],[0.7,12444],[0.8,12525],[0.8,12608],[0.8,12693],[0.8,12776]]",1,0,497.3196,500.0499,0.78125,1.1601,"[{""rating"":0.78125,""responseTime"":1.1600999999940314}]",space,2.1942,,500.0501,Partially,50,500.0591,,,[],,0,8,8,8,1,audio/Narrative7Situation8.wav,audio/Narrative8Situation8.wav,audio/Narrative5Situation8.wav,audio/Narrative6Situation8.wav,2,3,3,5,,,,,,,,,,,,,,,,,,,,,,,,,,,,,,,,,,,,,,,
,,,,,,66352811881d6bf26260a155,2024-05-13_08h27.27.770,group3.1-3.2-social-tom,2023.2.2,Windows,59.88023952,65c5074098b851296ff0b7ed,664230dbd51f2625d1ead9a6,,,,,,,,,,,,,,,,,,,,,,,,,,,,,500.0602,1,audio/Narrative8Situation9.wav,503.072,,503.0721,514.3817,"[[999,1],[999,83],[999,168],[999,251],[999,334],[999,417],[999,500],[999,584],[999,667],[999,751],[999,835],[999,917],[999,1000],[999,1083],[999,1168],[999,1251],[999,1335],[999,1418],[999,1502],[999,1585],[999,1669],[999,1753],[999,1834],[999,1926],[999,2002],[999,2086],[999,2177],[999,2252],[999,2341],[999,2427],[999,2501],[999,2592],[999,2668],[999,2758],[999,2836],[999,2919],[999,3002],[999,3094],[999,3170],[999,3260],[999,3336],[999,3428],[999,3511],[999,3586],[999,3676],[999,3755],[999,3842],[999,3919],[999,4004],[999,4093],[999,4170],[999,4254],[999,4336],[999,4420],[999,4503],[999,4587],[999,4669],[999,4762],[999,4838],[999,4921],[999,5011],[999,5087],[999,5170],[999,5255],[999,5346],[999,5420],[999,5511],[999,5590],[999,5672],[999,5756],[999,5836],[999,5927],[999,6004],[999,6095],[999,6176],[999,6255],[999,6347],[999,6422],[999,6506],[999,6597],[999,6684],[0.8,7941],[5.2,8023],[6.9,8107],[6.9,8189],[6,8274],[2.5,8356],[2.5,8439],[2.5,8523],[2.5,8607],[1.7,8694],[1.4,8774],[1.4,8858],[1.4,8939],[1.4,9024],[1.4,9107],[1.4,9191],[1.4,9274],[1.4,9358],[1.4,9440],[1.4,9524],[1.4,9607],[1.4,9691],[1.4,9774],[1.4,9857],[1.4,9941],[1.4,10025],[1.4,10107],[1.4,10191],[1.4,10274],[1.4,10358],[1.4,10441],[1.4,10524],[1.4,10608],[1.4,10692],[1.4,10776],[1.4,10859],[1.4,10941],[1.4,11025],[1.4,11107],[1.4,11192],[1.4,11274]]",1,0,514.3824,516.833,0.520833333,0.863,"[{""rating"":0.5208333333333315,""responseTime"":0.8629999999999427}]",space,1.8972,,516.833,Definitely yes,100,516.8416,,,[],,0,9,9,9,1,audio/Narrative7Situation9.wav,audio/Narrative8Situation9.wav,audio/Narrative5Situation9.wav,audio/Narrative6Situation9.wav,2,3,3,4,,,,,,,,,,,,,,,,,,,,,,,,,,,,,,,,,,,,,,,
,,,,,,66352811881d6bf26260a155,2024-05-13_08h27.27.770,group3.1-3.2-social-tom,2023.2.2,Windows,59.88023952,65c5074098b851296ff0b7ed,664230dbd51f2625d1ead9a6,,,,,,,,,,,,,,,,,,,,,,,,,,,,,516.842,1,audio/Narrative7Situation1.wav,518.8528,,518.8528,574.7415,"[[60.8,44113],[96.9,44707],[95.4,44792],[95.4,44871],[95.4,44948],[95.4,45037],[95.4,45119],[98.3,45208],[98.4,45288],[98.4,45364],[98.4,45447],[98.4,45536],[98.4,45615],[98.4,45709],[98.4,45781],[98.4,45864],[98.4,45947],[98.4,46039],[98.4,46113],[98.4,46205],[98.4,46282],[98.4,46371],[98.4,46449],[98.4,46531],[98.4,46615],[98.4,46699],[98.4,46793],[98.4,46877],[98.4,46948],[98.4,47033],[98.4,47115],[98.4,47198],[98.4,47282],[98.4,47366],[98.4,47449],[98.4,47532],[98.4,47614],[98.4,47706],[98.4,47788],[98.4,47874],[98.4,47949],[98.4,48040],[98.4,48121],[98.4,48200],[98.4,48283],[98.4,48373],[98.4,48449],[98.4,48533],[98.4,48622],[98.4,48705],[98.4,48788],[98.4,48874],[98.4,48958],[98.4,49042],[98.4,49116],[98.4,49200],[98.4,49283],[98.4,49368],[98.4,49450],[98.4,49541],[98.4,49617],[98.4,49706],[98.4,49782],[98.4,49867],[98.4,49950],[98.4,50041],[98.4,50123],[98.4,50209],[98.4,50284],[98.4,50376],[98.4,50458],[98.4,50533],[98.4,50626],[98.4,50701],[98.4,50784],[98.4,50868],[98.4,50950],[98.4,51040],[98.4,51126],[98.4,51207],[98.4,51285],[98.4,51367],[98.4,51451],[98.4,51536],[98.4,51626],[98.4,51702],[98.4,51790],[98.4,51875],[98.4,51952],[98.4,52035],[98.4,52118],[98.4,52201],[98.4,52284],[98.4,52376],[98.4,52452],[98.4,52535],[98.4,52619],[98.4,52702],[98.4,52795],[98.4,52870],[98.4,52951],[98.4,53044],[98.4,53120],[98.4,53202],[98.4,53294],[98.4,53373],[98.4,53453],[98.4,53537],[98.4,53619],[98.4,53702],[98.4,53786],[98.4,53875],[98.4,53960],[98.4,54037],[98.4,54120],[98.4,54209],[98.4,54287],[98.4,54369],[98.4,54453],[98.4,54535],[98.4,54628],[98.4,54713],[98.4,54793],[98.4,54871],[98.4,54953],[98.4,55038],[98.4,55127],[98.4,55206],[98.4,55288],[98.4,55370],[98.4,55463],[98.4,55537],[98.4,55627],[98.4,55713],[98.4,55787],[98.4,55877]]",1,0,574.7418,578.3097,99.08854167,2.2631,"[{""rating"":99.08854166666667,""responseTime"":2.2631000000014865}]",space,3.0447,,578.3098,Partially,50,578.3204,,,[],,0,10,10,10,1,audio/Narrative8Situation1.wav,audio/Narrative7Situation1.wav,audio/Narrative6Situation1.wav,audio/Narrative5Situation1.wav,5,2,2,5,,,,,,,,,,,,,,,,,,,,,,,,,,,,,,,,,,,,,,,
,,,,,,66352811881d6bf26260a155,2024-05-13_08h27.27.770,group3.1-3.2-social-tom,2023.2.2,Windows,59.88023952,65c5074098b851296ff0b7ed,664230dbd51f2625d1ead9a6,,,,,,,,,,,,,,,,,,,,,,,,,,,,,578.3208,1,audio/Narrative7Situation2.wav,581.3281,,581.3282,588.8031,"[[999,1],[999,84],[999,173],[999,249],[999,334],[999,424],[999,500],[999,590],[999,676],[999,759],[999,834],[999,919],[999,1000],[999,1084],[999,1167],[999,1251],[999,1336],[999,1419],[999,1502],[999,1584],[999,1676],[999,1751],[999,1835],[999,1920],[999,2002],[999,2086],[999,2169],[999,2252],[999,2335],[999,2427],[999,2503],[999,2584],[999,2668],[999,2753],[999,2837],[999,2920],[999,3004],[999,3086],[999,3179],[999,3259],[999,3337],[999,3420],[999,3508],[999,3596],[999,3676],[999,3762],[999,3836],[999,3928],[999,4010],[999,4086],[999,4170],[999,4252],[999,4337],[999,4421],[999,4504],[999,4594],[999,4671],[999,4763],[999,4842],[999,4930],[999,5004],[999,5088],[999,5180],[999,5254],[999,5344],[999,5430],[999,5504],[999,5586],[999,5680],[999,5755],[999,5838],[999,5921],[999,6005],[999,6088],[999,6180],[999,6261],[999,6338],[999,6430],[999,6515],[999,6587],[999,6671],[999,6755],[999,6841],[999,6927],[999,7005],[999,7095],[999,7173],[999,7262],[999,7345],[999,7431]]",1,0,588.8036,592.3486,97.52604167,3.2612,"[{""rating"":97.52604166666667,""responseTime"":3.2612000000029866}]",space,3.0031,,592.3489,Not at all,0,592.3585,,,[],,0,11,11,11,1,audio/Narrative8Situation2.wav,audio/Narrative7Situation2.wav,audio/Narrative6Situation2.wav,audio/Narrative5Situation2.wav,3,3,3,3,,,,,,,,,,,,,,,,,,,,,,,,,,,,,,,,,,,,,,,
,,,,,,66352811881d6bf26260a155,2024-05-13_08h27.27.770,group3.1-3.2-social-tom,2023.2.2,Windows,59.88023952,65c5074098b851296ff0b7ed,664230dbd51f2625d1ead9a6,,,,,,,,,,,,,,,,,,,,,,,,,,,,,592.359,1,audio/Narrative7Situation3.wav,600.3612,,600.3613,609.6174,"[[90.5,9055],[88.2,9138],[82.4,9220]]",1,0,609.6175,611.7021,21.74479167,1.6974,"[{""rating"":21.744791666666668,""responseTime"":1.697399999998538}]",space,1.5531,,611.7023,Partially,50,611.7123,,,[],,0,12,12,12,1,audio/Narrative8Situation3.wav,audio/Narrative7Situation3.wav,audio/Narrative6Situation3.wav,audio/Narrative5Situation3.wav,4,8,5,3,,,,,,,,,,,,,,,,,,,,,,,,,,,,,,,,,,,,,,,
,,,,,,66352811881d6bf26260a155,2024-05-13_08h27.27.770,group3.1-3.2-social-tom,2023.2.2,Windows,59.88023952,65c5074098b851296ff0b7ed,664230dbd51f2625d1ead9a6,,,,,,,,,,,,,,,,,,,,,,,,,,,,,611.7127,1,audio/Narrative7Situation4.wav,614.7215,,614.7215,626.476,"[[23.7,11189]]",1,0,626.4764,628.3132,55.98958333,1.2968,"[{""rating"":55.989583333333336,""responseTime"":1.2967999999970061}]",space,1.3044,,628.3137,Not at all,0,628.3215,,,[],,0,13,13,13,1,audio/Narrative8Situation4.wav,audio/Narrative7Situation4.wav,audio/Narrative6Situation4.wav,audio/Narrative5Situation4.wav,3,3,2,1,,,,,,,,,,,,,,,,,,,,,,,,,,,,,,,,,,,,,,,
,,,,,,66352811881d6bf26260a155,2024-05-13_08h27.27.770,group3.1-3.2-social-tom,2023.2.2,Windows,59.88023952,65c5074098b851296ff0b7ed,664230dbd51f2625d1ead9a6,,,,,,,,,,,,,,,,,,,,,,,,,,,,,628.3217,1,audio/Narrative7Situation5.wav,633.3343,,633.3345,641.8183,"[[999,0],[999,114],[999,199],[999,282],[999,365],[999,448],[999,533],[999,615],[999,700],[999,782],[999,865],[999,949],[999,1032],[999,1116],[999,1201],[999,1283],[999,1365],[999,1448],[999,1544],[999,1619],[999,1700],[999,1785],[999,1868],[999,1961],[999,2033],[999,2124],[999,2201],[48.4,2283],[49.3,2376],[52.7,2466],[57.2,2546],[57.9,2627],[57.9,2708],[57.9,2785],[57.9,2868],[57.9,2952],[57.9,3034],[57.9,3125],[57.9,3206],[57.9,3290],[57.9,3367],[57.9,3451],[57.9,3535],[57.9,3618],[57.9,3701],[57.9,3784],[57.9,3867],[57.9,3958],[57.9,4034],[57.9,4117],[57.9,4208],[57.9,4285],[57.9,4374],[57.9,4458],[57.9,4541],[57.9,4616],[57.9,4699],[57.9,4785],[57.9,4865],[57.9,4950],[57.9,5033],[57.9,5115],[57.9,5198],[57.9,5284],[57.9,5365],[57.9,5448],[57.9,5533],[57.9,5615],[57.9,5698],[57.9,5781],[57.9,5865],[57.9,5948],[57.9,6031],[57.9,6116],[57.9,6197],[57.9,6281],[57.9,6365],[57.9,6448],[57.9,6531],[57.9,6615],[57.9,6698],[57.9,6781],[57.9,6864],[57.9,6949],[57.9,7030],[57.9,7115],[57.9,7198],[57.9,7281],[57.9,7365],[57.9,7449],[57.9,7532],[57.9,7616],[57.9,7698],[57.9,7782],[57.9,7865],[57.9,7949],[57.9,8033],[57.9,8116],[57.9,8200],[57.9,8282],[57.9,8366],[57.9,8449]]",1,0,641.8184,647.6609,0.651041667,5.5689,"[{""rating"":0.6510416666666685,""responseTime"":5.568899999998507}]",space,5.3092,,647.661,Not at all,0,647.6652,,,[],,0,14,14,14,1,audio/Narrative8Situation5.wav,audio/Narrative7Situation5.wav,audio/Narrative6Situation5.wav,audio/Narrative5Situation5.wav,2,5,2,5,,,,,,,,,,,,,,,,,,,,,,,,,,,,,,,,,,,,,,,
,,,,,,66352811881d6bf26260a155,2024-05-13_08h27.27.770,group3.1-3.2-social-tom,2023.2.2,Windows,59.88023952,65c5074098b851296ff0b7ed,664230dbd51f2625d1ead9a6,,,,,,,,,,,,,,,,,,,,,,,,,,,,,647.666,1,audio/Narrative7Situation6.wav,650.6783,,650.6784,660.6704,"[[3.5,2520],[8.3,2603],[10.4,2686],[16.1,2768],[18.2,2853],[18.2,2936],[18.2,3018],[18.2,3103],[17.7,3185],[16,3601],[16,3695],[15.8,3769],[15.9,3854],[16.5,3938],[16.5,4019],[16.5,4102],[16.5,4186],[16.5,4269],[16.5,4353],[16.5,4437],[16.5,4519],[16.5,4602],[16.5,4686],[16.5,4770],[16.5,4852],[16.5,4937],[16.5,5021],[16.5,5104],[16.5,5186],[16.5,5271],[16.5,5353],[16.5,5438],[16.5,5521],[16.5,5605],[16.5,5686],[16.5,5771],[16.5,5854],[16.5,5937],[16.5,6020],[16.5,6105],[16.5,6187],[95.3,7104],[94.4,7190],[94,7271],[95.2,7356],[95.8,7439],[96.1,7523],[96.1,7606],[96.1,7689],[96,7771],[96,7856],[96,7939],[96,8022],[95.6,8107],[94.4,8189],[94.4,8273],[94.4,8355],[94.4,8440],[94.4,8523],[94.4,8606],[94.4,8689],[94.4,8774],[94.4,8857],[94.4,8940],[94.4,9023],[94.1,9108],[93.6,9190],[93.6,9275],[93.9,9356],[94.7,9443],[98,9524],[99.2,9606],[99.2,9690],[99.2,9774],[99.2,9856],[98.7,9941]]",1,0,660.6706,662.321,98.17708333,1.4113,"[{""rating"":98.17708333333333,""responseTime"":1.4113000000045304}]",space,1.1187,,662.321,Definitely yes,100,662.3284,,,[],,0,15,15,15,1,audio/Narrative8Situation6.wav,audio/Narrative7Situation6.wav,audio/Narrative6Situation6.wav,audio/Narrative5Situation6.wav,2,3,2,3,,,,,,,,,,,,,,,,,,,,,,,,,,,,,,,,,,,,,,,
,,,,,,66352811881d6bf26260a155,2024-05-13_08h27.27.770,group3.1-3.2-social-tom,2023.2.2,Windows,59.88023952,65c5074098b851296ff0b7ed,664230dbd51f2625d1ead9a6,,,,,,,,,,,,,,,,,,,,,,,,,,,,,662.3288,1,audio/Narrative7Situation7.wav,667.3405,,667.3407,684.5046,"[[78.3,947],[62,1034],[58.3,1118],[58.3,1201],[54,1283],[66,1951],[96.5,2035],[96.5,2118],[96.2,2203],[94.3,2285],[92.6,2368],[99.3,14712],[99.5,14793],[99.5,14876],[99.5,14960],[97.8,15045],[97,16294],[97,16377],[97,16462],[97,16545],[97,16627],[97,16711],[97,16795],[97,16878],[97,16961],[97,17044],[97,17129]]",1,0,684.5048,686.0833,98.046875,1.278,"[{""rating"":98.046875,""responseTime"":1.2779999999999063}]",space,1.033,,686.0835,Not at all,0,686.0891,,,[],,0,16,16,16,1,audio/Narrative8Situation7.wav,audio/Narrative7Situation7.wav,audio/Narrative6Situation7.wav,audio/Narrative5Situation7.wav,3,5,5,4,,,,,,,,,,,,,,,,,,,,,,,,,,,,,,,,,,,,,,,
,,,,,,66352811881d6bf26260a155,2024-05-13_08h27.27.770,group3.1-3.2-social-tom,2023.2.2,Windows,59.88023952,65c5074098b851296ff0b7ed,664230dbd51f2625d1ead9a6,,,,,,,,,,,,,,,,,,,,,,,,,,,,,686.0903,1,audio/Narrative7Situation8.wav,688.0998,,688.0999,698.1137,"[[97.9,1337],[97.9,1421],[97.9,1504],[97.9,1588],[97.8,1672],[97,1755],[97,1839],[97,1923],[97,2006],[97,2090],[97,2174],[97,2256],[97,2341],[97,2424],[97,2508],[97,2591],[97,2673],[97,2756],[97,2839],[97,2924],[97,3007],[97,3091],[97,3174],[97,3257],[97,3341],[97,3424],[97,3507],[97,3591],[97,3675],[97,3757],[97,3842],[97,3925],[96.9,4009],[96.9,4092],[96.9,4176],[96.9,4257],[96.9,4342],[96.9,4425],[96.9,4509],[96.9,4592],[96.9,4676],[96.9,4757],[96.9,4842],[96.9,4926],[96.4,5010],[96,5095],[96,5176],[96,5258],[96,5341],[96,5426],[96,5510],[96,5593],[96,5677],[96.1,5758],[96.1,5843],[96.1,5925],[96.7,6011],[97.3,6093],[97.3,6175],[97.3,6258],[97.3,6343],[97.3,6427],[97.3,6510],[97.3,6592],[97.3,6677],[97.3,6760],[97.3,6844],[97.3,6927],[97.3,7010],[97.3,7093],[97.3,7176],[97.3,7261],[97.3,7343],[97.3,7427],[97.3,7511],[97.3,7595],[97.3,7677],[97.3,7760],[97.3,7845],[97.3,7928],[97.3,8012],[97.3,8095],[97.3,8177],[97.3,8262],[97.3,8346],[97.3,8429],[97.3,8512],[97.3,8595],[97.3,8677],[97.3,8762],[97.3,8845],[97.3,8928],[97.3,9011],[97.3,9095],[97.3,9178],[97.3,9261],[97.3,9346],[97.3,9429],[97.3,9513],[97.3,9595],[97.3,9679],[97.3,9762],[97.3,9846],[97.3,9929],[97.4,10013]]",1,0,698.1138,699.913,97.78645833,1.5291,"[{""rating"":97.78645833333333,""responseTime"":1.5291000000015629}]",space,1.2515,,699.9132,Partially,50,699.9228,,,[],,0,17,17,17,1,audio/Narrative8Situation8.wav,audio/Narrative7Situation8.wav,audio/Narrative6Situation8.wav,audio/Narrative5Situation8.wav,3,2,5,3,,,,,,,,,,,,,,,,,,,,,,,,,,,,,,,,,,,,,,,
,,,,,,66352811881d6bf26260a155,2024-05-13_08h27.27.770,group3.1-3.2-social-tom,2023.2.2,Windows,59.88023952,65c5074098b851296ff0b7ed,664230dbd51f2625d1ead9a6,,,,,,,,,,,,,,,,,,,,,,,,,,,,,699.9231,1,audio/Narrative7Situation9.wav,701.9324,,701.9326,710.5882,[],1,0,710.5888,715.5602,97.91666667,4.749,"[{""rating"":97.91666666666667,""responseTime"":4.749000000000024}]",space,4.425,,715.5603,Definitely yes,100,715.5672,,,[],,0,18,18,18,1,audio/Narrative8Situation9.wav,audio/Narrative7Situation9.wav,audio/Narrative6Situation9.wav,audio/Narrative5Situation9.wav,3,2,4,3,,,,,,,,,,,,,,,,,,,,,,,,,,,,,,,,,,,,,,,
,,,,,,66352811881d6bf26260a155,2024-05-13_08h27.27.770,group3.1-3.2-social-tom,2023.2.2,Windows,59.88023952,65c5074098b851296ff0b7ed,664230dbd51f2625d1ead9a6,,,,,,,,,,,,,,,,,,,,,,,,,,,718.4958,721.0785,721.1133,2,audio/Narrative13Situation2.wav,721.1134,,721.1134,750.8738,[],1,0,750.8739,750.8782,,,[],,,,750.8785,Partially,50,750.8825,,,[],,0,0,0,0,1,audio/Narrative13Situation2.wav,audio/Narrative13Situation2.wav,audio/Narrative13Situation2.wav,audio/Narrative13Situation2.wav,2,2,2,2,,,,,715.5699,718.4951,space,2.4037,,,,,,,,,,,,,,,,,,,,,,,,,,,,,,,
,,,,,,66352811881d6bf26260a155,2024-05-13_08h27.27.770,group3.1-3.2-social-tom,2023.2.2,Windows,59.88023952,65c5074098b851296ff0b7ed,664230dbd51f2625d1ead9a6,,,,,,,,,,,,,,,,,,,,,,,,,,,,,750.8828,2,audio/Narrative6Situation1.wav,752.8847,,752.8848,779.4827,"[[71.6,2085],[71.6,2168],[71.6,2252],[71.6,2336],[71.6,2418],[71.6,2501],[71.6,2594],[71.6,2669],[71.6,2753],[71.6,2844],[71.6,2918],[71.6,3002],[71.6,3095],[71.6,3179],[71.6,3254],[71.6,3335],[71.6,3427],[71.6,3511],[71.6,3592],[71.6,3671],[71.6,3752],[71.6,3837],[71.6,3926],[71.6,4004],[71.6,4093],[71.6,4169],[71.6,4253],[71.6,4343],[71.6,4430],[71.6,4512],[71.6,4586],[71.6,4671],[71.6,4754],[71.6,4837],[71.6,4921],[71.6,5004],[71.6,5093],[71.6,5170],[71.6,5255],[71.6,5337],[71.6,5420],[71.6,5513],[71.6,5587],[71.6,5673],[71.6,5764],[71.6,5847],[71.6,5920],[71.6,6004],[71.6,6096],[71.6,6180],[71.6,6255],[71.6,6337],[71.6,6422],[71.6,6505],[71.6,6588],[71.6,6671],[71.6,6755],[71.6,6839],[71.6,6931],[71.6,7006],[71.6,7090],[71.6,7172],[71.6,7265],[71.6,7345],[71.6,7423],[71.6,7506],[71.6,7588],[71.6,7679],[71.6,7755],[71.6,7846],[71.6,7922],[71.6,8015],[71.6,8090],[71.6,8179],[71.6,8265],[71.6,8346],[71.6,8422],[71.6,8514],[71.6,8589],[71.6,8679],[71.6,8758],[71.6,8841],[71.6,8933],[71.6,9008],[71.6,9096],[71.6,9173],[71.6,9256],[71.6,9348],[71.6,9423],[71.6,9506],[71.6,9598],[71.6,9673],[71.6,9756],[71.6,9849],[71.6,9933],[71.6,10007],[71.6,10091],[71.6,10174],[71.6,10267],[71.6,10348],[71.6,10430],[71.6,10508],[71.6,10599],[71.6,10684],[71.6,10768],[71.6,10842],[71.6,10925],[71.6,11014],[71.6,11091],[71.6,11184],[71.6,11267],[71.6,11348],[71.6,11430],[71.6,11508],[71.6,11591],[71.6,11674],[71.6,11765],[71.6,11842],[71.6,11924],[71.6,12019],[71.6,12091],[71.6,12175],[71.6,12260],[71.6,12343],[71.6,12427],[71.6,12510],[71.6,12591],[71.6,12677],[71.6,12764],[71.6,12843],[71.6,12925],[71.6,13009],[71.6,13100],[71.6,13182],[71.6,13270],[71.6,13343],[71.6,13435],[71.6,13516],[71.6,13593],[71.6,13684],[71.6,13759],[71.6,13842],[71.6,13927],[71.6,14010],[71.6,14093],[71.6,14176],[71.6,14266],[71.6,14343],[71.6,14428],[71.6,14512],[56.3,14594],[50.8,14686],[50.5,14768],[49.2,14852],[71.2,24945],[81.8,25285],[81.8,25367],[81.8,25452],[81.8,25534],[83.1,25618],[84.8,25701],[85.2,25783],[85.3,25867],[89.1,25950],[90.5,26033],[90.8,26116],[94.1,26200],[94.7,26283],[95.6,26367],[96.2,26449],[96.6,26531]]",1,0,779.4829,783.1882,98.4375,3.3517,"[{""rating"":98.4375,""responseTime"":3.351699999995617}]",space,3.1737,,783.1883,Partially,50,783.1929,,,[],,0,1,1,1,1,audio/Narrative7Situation1.wav,audio/Narrative8Situation1.wav,audio/Narrative5Situation1.wav,audio/Narrative6Situation1.wav,2,5,5,2,,,,,,,,,,,,,,,,,,,,,,,,,,,,,,,,,,,,,,,
,,,,,,66352811881d6bf26260a155,2024-05-13_08h27.27.770,group3.1-3.2-social-tom,2023.2.2,Windows,59.88023952,65c5074098b851296ff0b7ed,664230dbd51f2625d1ead9a6,,,,,,,,,,,,,,,,,,,,,,,,,,,,,783.1935,2,audio/Narrative6Situation2.wav,786.21,,786.2103,814.73,"[[92.2,2666],[92.2,2750],[92.2,2833],[92.2,2916],[92.2,3003],[92.2,3085],[91,4168],[90.9,4251],[90.9,4335],[90.9,4419],[90.9,4502],[90.9,4585],[90.9,4668],[90.9,4753],[90.9,4835],[90.9,4919],[90.9,5002],[90.9,5085],[90.9,5170],[90.9,5252],[90.9,5337],[90.9,5420],[90.9,5503],[90.9,5585],[90.9,5670],[90.9,5752],[90.9,5835],[90.9,5920],[90.9,6003],[90.9,6086],[90.9,6169],[90.9,6254],[90.9,6336],[90.9,6419],[90.9,6504],[90.9,6587],[90.9,6671],[90.9,6754],[90.9,6837],[90.9,6920],[90.9,7002],[90.9,7088],[90.9,7171],[90.9,7253],[90.9,7336],[90.9,7421],[90.9,7505],[90.9,7588],[90.9,7670],[90.9,7754],[90.9,7838],[90.9,7922],[90.9,8004],[90.9,8087],[90.9,8170],[90.9,8254],[90.9,8337],[90.9,8420],[90.9,8505],[90.9,8589],[90.9,8672],[90.9,8755],[90.9,8838],[90.9,8921],[90.9,9006],[90.9,9088],[90.9,9171],[90.9,9254],[90.9,9339],[90.9,9421],[90.9,9506],[90.9,9589],[90.9,9671],[90.9,9755],[90.9,9839],[90.9,9922],[90.9,10005],[90.9,10089],[90.9,10171],[90.9,10257],[90.9,10338],[90.9,10423],[90.9,10507],[90.9,10590],[90.9,10673],[90.9,10757],[90.9,10839],[90.9,10923],[90.9,11007],[90.9,11090],[90.9,11173],[90.9,11257],[90.9,11339],[90.9,11423],[90.9,11506],[90.9,11589],[90.9,11674],[90.9,11757],[90.9,11841],[90.9,11924],[90.9,12007],[90.9,12099],[90.9,12175],[90.9,12257],[90.9,12339],[90.9,12425],[90.9,12515],[90.9,12591],[90.9,12675],[90.9,12759],[90.9,12842],[90.9,12932],[90.9,13009],[90.9,13093],[90.9,13176],[90.9,13259],[90.9,13342],[90.9,13425],[90.9,13510],[90.9,13592],[90.9,13681],[90.9,13759],[90.9,13848],[90.9,13925],[90.9,14009],[90.9,14092],[90.9,14174],[90.9,14267],[90.9,14343],[90.9,14426],[90.9,14516],[90.9,14593],[90.9,14676],[90.9,14759],[90.9,14842],[90.9,14936],[90.9,15017],[90.9,15092],[90.9,15184],[90.9,15259],[90.9,15344],[90.9,15425],[90.9,15512],[90.9,15593],[90.9,15677],[90.9,15761],[90.9,15851],[90.9,15927],[90.9,16011],[90.9,16094],[90.9,16177],[90.9,16259],[90.9,16344],[90.9,16427],[90.9,16512],[90.9,16594],[90.9,16678],[90.9,16762],[90.9,16846],[90.9,16936],[90.9,17011],[90.9,17094],[90.9,17178],[90.9,17269],[90.9,17353],[90.9,17428],[90.9,17519],[90.9,17595],[90.9,17687],[90.9,17762],[90.9,17844],[90.9,17934],[90.9,18011],[90.9,18103],[90.9,18177],[90.9,18262],[90.9,18351],[90.9,18428],[90.9,18522],[90.9,18596],[90.9,18687],[90.9,18762],[90.9,18852],[90.9,18928],[90.9,19021],[90.9,19096],[90.9,19180],[90.9,19262],[90.9,19352],[90.9,19429],[90.9,19512],[90.9,19597],[90.9,19680],[90.9,19764],[90.9,19846],[90.9,19928],[90.9,20014],[90.9,20104],[90.9,20179],[90.9,20263],[90.9,20354],[90.9,20431],[90.9,20513],[90.9,20596],[90.9,20680],[90.9,20772],[90.9,20848],[90.9,20931],[90.9,21014],[90.9,21099],[90.9,21181],[90.9,21264],[90.9,21346],[92.2,21430],[97.8,21514],[98.3,21606],[98.3,21681],[98.3,21771],[98.3,21857],[98.3,21931],[98.2,22026],[97.7,22111],[97.7,22187],[97.7,22274],[97.7,22348],[97.7,22440],[97.7,22524],[97.7,22599],[98,22693],[99.9,22776],[100,22848],[100,22940],[100,23016],[100,23099],[100,23182],[100,23265],[100,23355],[100,23441],[100,23522],[100,23599],[100,23690],[100,23766],[100,23849],[100,23933],[100,24016],[100,24108],[100,24183],[100,24265],[100,24350],[100,24434],[100,24525],[100,24607],[100,24683],[100,24767],[100,24856],[100,24942],[100,25018],[100,25101],[100,25191],[100,25273],[100,25351],[100,25442],[100,25523],[100,25601],[100,25684],[100,25777],[100,25850],[100,25935],[100,26017],[100,26109],[100,26191],[100,26267],[100,26352],[100,26442],[100,26524],[100,26602],[100,26691],[100,26768],[100,26852],[100,26935],[100,27026],[100,27110],[100,27185],[100,27268],[100,27351],[100,27442],[100,27525],[100,27601],[100,27691],[100,27775],[100,27852],[100,27936],[100,28018],[100,28101],[100,28186],[100,28278],[100,28352],[100,28445],[100,28519]]",1,0,814.7303,816.6414,99.34895833,1.6264,"[{""rating"":99.34895833333333,""responseTime"":1.6263999999985117}]",space,1.3674,,816.6415,Definitely yes,100,816.6461,,,[],,0,2,2,2,1,audio/Narrative7Situation2.wav,audio/Narrative8Situation2.wav,audio/Narrative5Situation2.wav,audio/Narrative6Situation2.wav,3,3,3,3,,,,,,,,,,,,,,,,,,,,,,,,,,,,,,,,,,,,,,,
,,,,,,66352811881d6bf26260a155,2024-05-13_08h27.27.770,group3.1-3.2-social-tom,2023.2.2,Windows,59.88023952,65c5074098b851296ff0b7ed,664230dbd51f2625d1ead9a6,,,,,,,,,,,,,,,,,,,,,,,,,,,,,816.6466,2,audio/Narrative6Situation3.wav,821.6599,,821.6599,834.2794,"[[99.1,1260],[99,1342],[98.7,1434],[98.7,1510],[98.7,1593],[97.7,1687],[97.7,1763],[97.7,1842],[97.7,1926],[97.7,2009],[97.7,2095],[97.7,2186],[97.7,2260],[97.7,2343],[97.7,2427],[97.7,2518],[97.7,2597],[97.7,2683],[97.7,2769],[98,2844],[98,2938],[98,3016],[98,3099],[98,3182],[98,3259],[98,3342],[98,3426],[98,3518],[98,3592],[98,3676],[98,3759],[98,3841],[98,3924],[98,4007],[98,4091],[98,4174],[98,4258],[98,4341],[98,4423],[98,4506],[98,4589],[98,4673],[98,4758],[98,4839],[98,4923],[98,5007],[98,5091],[98,5172],[98,5257],[98,5340],[98,5422],[98,5507],[98,5590],[98,5674],[98,5757],[98,5840],[98,5924],[98,6007],[98,6090],[98,6173],[98,6256],[98,6340],[98,6423],[98,6508],[98,6590],[98,6675],[98,6758],[98,6842],[98,6924],[98,7009],[98,7091],[98,7175],[98,7258],[98,7342],[98,7425],[98,7509],[98,7594],[98,7677],[98,7759],[98,7844],[98,7927],[98,8010],[98,8095],[98,8179],[98,8260],[98,8345],[98,8428],[98,8514],[98,8595],[98,8681],[98,8765],[98,8855],[98,8931],[98,9023],[98,9098],[98,9187],[98,9273],[98,9357],[98,9438],[98,9514],[98,9608],[98,9681],[98,9764],[98,9854],[98,9939],[98,10015],[98,10099],[98,10182],[98,10274],[98,10353],[98,10431],[98,10516],[98,10598],[98,10692],[98,10767],[98,10859],[98,10932],[98,11016],[98,11099],[98,11183],[98,11274],[98,11358],[98,11434],[98,11517],[98,11601],[98,11683],[98,11767],[98,11855],[98,11941],[98,12017],[98,12100],[98,12183],[98.2,12275],[98.2,12351],[98.2,12434],[98.2,12517],[98.2,12599]]",1,0,834.2796,839.4653,98.17708333,1.2946,"[{""rating"":98.17708333333333,""responseTime"":1.2946000000014237}]",space,4.6426,,839.4654,Partially,50,839.4727,,,[],,0,3,3,3,1,audio/Narrative7Situation3.wav,audio/Narrative8Situation3.wav,audio/Narrative5Situation3.wav,audio/Narrative6Situation3.wav,8,4,3,5,,,,,,,,,,,,,,,,,,,,,,,,,,,,,,,,,,,,,,,
,,,,,,66352811881d6bf26260a155,2024-05-13_08h27.27.770,group3.1-3.2-social-tom,2023.2.2,Windows,59.88023952,65c5074098b851296ff0b7ed,664230dbd51f2625d1ead9a6,,,,,,,,,,,,,,,,,,,,,,,,,,,,,839.473,2,audio/Narrative6Situation4.wav,841.4828,,841.4828,854.0939,"[[98,4019],[98,4104],[97.9,4192],[97.7,4276],[97.7,4353],[97.7,4435],[97.7,4518],[97.7,4609],[97.7,4685],[97.7,4775],[97.7,4852],[97.7,4936],[97.7,5026],[97.7,5112],[97.7,5185],[97.7,5270],[97.7,5353],[97.7,5436],[97.5,5519],[97.5,5610],[97.5,5694],[97.5,5771],[97.5,5854],[97.5,5937],[97.5,6022],[97.5,6109],[97.5,6195],[97.5,6277],[97.5,6355],[97.5,6437],[97.5,6529],[97.5,6604],[97.5,6694],[97.5,6771],[97.5,6855],[97.5,6937],[97.5,7020],[97.5,7104],[97.5,7188],[97.5,7270],[97.5,7355],[97.5,7444],[97.5,7527],[97.5,7606],[97.5,7689],[97.5,7772],[96.2,7855],[85.4,7940]]",1,0,854.0941,856.5424,1.302083333,1.6117,"[{""rating"":1.3020833333333315,""responseTime"":1.6117000000029975}]",space,1.9028,,856.5425,Partially,50,856.5493,,,[],,0,4,4,4,1,audio/Narrative7Situation4.wav,audio/Narrative8Situation4.wav,audio/Narrative5Situation4.wav,audio/Narrative6Situation4.wav,3,3,1,2,,,,,,,,,,,,,,,,,,,,,,,,,,,,,,,,,,,,,,,
,,,,,,66352811881d6bf26260a155,2024-05-13_08h27.27.770,group3.1-3.2-social-tom,2023.2.2,Windows,59.88023952,65c5074098b851296ff0b7ed,664230dbd51f2625d1ead9a6,,,,,,,,,,,,,,,,,,,,,,,,,,,,,856.5502,2,audio/Narrative6Situation5.wav,858.5624,,858.5625,866.5354,"[[999,0],[999,83],[999,165],[999,248],[999,333],[999,414],[999,498],[999,583],[999,665],[999,750],[999,833],[999,916],[999,999],[999,1083],[999,1166],[999,1249],[999,1332],[999,1416],[999,1500],[999,1582],[999,1666],[999,1749],[999,1832],[999,1917],[999,2001],[999,2082],[999,2167],[999,2250],[999,2333],[999,2417],[999,2500],[999,2584],[999,2668],[999,2751],[999,2834],[999,2918],[999,3002],[999,3085],[999,3168],[999,3252],[999,3335],[999,3418],[999,3501],[999,3584],[999,3667],[999,3752],[999,3834],[999,3918],[999,4001],[999,4085],[999,4168],[999,4250],[999,4336],[999,4419],[999,4502],[999,4584],[999,4668],[999,4753],[999,4835],[999,4917],[999,5001],[999,5086],[999,5168],[999,5253],[999,5335],[999,5419],[999,5503],[999,5586],[999,5669],[999,5753],[999,5836],[999,5920],[999,6003],[999,6086],[999,6170],[999,6252],[999,6336],[999,6420],[999,6502],[999,6586],[999,6671],[999,6754],[999,6837],[999,6921],[999,7003],[999,7087],[999,7169],[999,7254],[999,7337],[999,7421],[999,7504],[999,7588],[999,7670],[999,7753],[999,7837],[999,7921]]",1,0,866.5359,868.1699,1.041666667,1.3564,"[{""rating"":1.0416666666666685,""responseTime"":1.35639999999853}]",space,1.091,,868.1701,Not at all,0,868.1776,,,[],,0,5,5,5,1,audio/Narrative7Situation5.wav,audio/Narrative8Situation5.wav,audio/Narrative5Situation5.wav,audio/Narrative6Situation5.wav,5,2,5,2,,,,,,,,,,,,,,,,,,,,,,,,,,,,,,,,,,,,,,,
,,,,,,66352811881d6bf26260a155,2024-05-13_08h27.27.770,group3.1-3.2-social-tom,2023.2.2,Windows,59.88023952,65c5074098b851296ff0b7ed,664230dbd51f2625d1ead9a6,,,,,,,,,,,,,,,,,,,,,,,,,,,,,868.1779,2,audio/Narrative6Situation6.wav,870.1863,,870.1865,881.2786,"[[7.9,9851],[0.1,9935],[0.1,10008],[0.1,10101],[0.3,10183],[0.3,10256],[0.3,10341],[0.3,10423],[0.3,10506],[0.3,10591],[0.3,10674],[0.3,10756],[0.3,10841],[0.3,10924],[0.7,11009],[0.7,11091]]",1,0,881.2787,882.079,0.651041667,0.5779,"[{""rating"":0.6510416666666685,""responseTime"":0.577899999998408}]",space,0.2521,,882.0791,Not at all,0,882.0839,,,[],,0,6,6,6,1,audio/Narrative7Situation6.wav,audio/Narrative8Situation6.wav,audio/Narrative5Situation6.wav,audio/Narrative6Situation6.wav,3,2,3,2,,,,,,,,,,,,,,,,,,,,,,,,,,,,,,,,,,,,,,,
,,,,,,66352811881d6bf26260a155,2024-05-13_08h27.27.770,group3.1-3.2-social-tom,2023.2.2,Windows,59.88023952,65c5074098b851296ff0b7ed,664230dbd51f2625d1ead9a6,,,,,,,,,,,,,,,,,,,,,,,,,,,,,882.085,2,audio/Narrative6Situation7.wav,887.1053,,887.1054,911.9726,"[[34.4,12530],[55.3,12614],[77.7,12696],[90.6,12783],[92.4,12864],[94.3,12947],[95.2,13028],[96.9,13115],[97.5,13193],[97.7,13270],[97.7,13353],[97.7,13444],[97.7,13526],[97.5,13610],[97.3,13686],[97.3,13776],[97.3,13853],[97.3,13944],[97.5,14021],[98,14103],[98,14187],[97.8,14269],[97.4,14352],[97.4,14443],[97.4,14519],[97.4,14604],[97.4,14687],[97.4,14769],[95.8,14853],[95.2,14946],[95.2,15021],[95.2,15104],[95.1,15192],[95.1,15278],[95.1,15360],[95.1,15444],[95.1,15527],[95.1,15603],[95.1,15693],[95.1,15771],[95.1,15860],[95.1,15936],[95.1,16023],[95.1,16103],[95.1,16189],[95.1,16279],[95.1,16354],[95.1,16438],[95.1,16522],[95.1,16603],[95.1,16694],[95.4,16771],[95.6,16863],[95.3,16950],[94.8,17029],[94.8,17104],[94.8,17188],[94.7,17279],[94.4,17364],[93.9,17440],[93.9,17523],[94,17606],[92.8,17691],[92.7,17773],[92.7,17862],[92.6,17941],[92.6,18028],[92.6,18106],[92.8,18190],[100,18273],[100,18362],[100,18439],[100,18524],[100,18605],[100,18688],[100,18780],[100,18856],[99.9,18939],[99.9,19023],[99.9,19105],[99.3,19190],[99.3,19273],[98.7,19365],[98.7,19446],[98.7,19531],[98.7,19607],[98.7,19690],[98.7,19773],[98.7,19856],[98.7,19949],[98.7,20024],[98.7,20108],[98.7,20191],[98.7,20280],[98.7,20357],[98.7,20442],[98.7,20525],[98.7,20609],[98.7,20697],[98.7,20781],[98.7,20857],[98.7,20942],[98.7,21024],[98.7,21107],[98.6,21198],[98.4,21281],[98.4,21364],[98.4,21448],[98.4,21525],[98.4,21608],[98.4,21691],[98.4,21774],[98.4,21865],[98.4,21941],[98.4,22025],[98.4,22116],[98.4,22191],[98.4,22274],[98.4,22358],[98.4,22448],[98.4,22526],[98.4,22608],[98.4,22692],[98.4,22776],[98.4,22858],[98.4,22949],[98.4,23026],[98.4,23110],[98.4,23193],[98.4,23275],[98.4,23360],[98.4,23442],[98.4,23527],[98.4,23610],[98.4,23692],[98.4,23775],[98.4,23860],[98.4,23949],[98.4,24033],[98.4,24117],[98.4,24194],[98.4,24275],[98.4,24361],[98.4,24442],[98.4,24534],[98.4,24609],[98.4,24693],[98.4,24787],[98.4,24866]]",1,0,911.9728,914.9189,100,2.7396,"[{""rating"":96.35416666666667,""responseTime"":1.0913999999985435},{""rating"":100,""responseTime"":2.739599999994084}]",space,2.4055,,914.919,Not at all,0,914.9253,,,[],,0,7,7,7,1,audio/Narrative7Situation7.wav,audio/Narrative8Situation7.wav,audio/Narrative5Situation7.wav,audio/Narrative6Situation7.wav,5,3,4,5,,,,,,,,,,,,,,,,,,,,,,,,,,,,,,,,,,,,,,,
,,,,,,66352811881d6bf26260a155,2024-05-13_08h27.27.770,group3.1-3.2-social-tom,2023.2.2,Windows,59.88023952,65c5074098b851296ff0b7ed,664230dbd51f2625d1ead9a6,,,,,,,,,,,,,,,,,,,,,,,,,,,,,914.9265,2,audio/Narrative6Situation8.wav,919.9348,,919.9348,926.7948,"[[999,0],[999,115],[999,198],[999,283],[999,366],[999,449],[999,530],[999,615],[999,702],[69,784],[56.9,868],[55.9,951]]",1,0,926.795,929.6129,1.041666667,2.2645,"[{""rating"":1.0416666666666685,""responseTime"":2.264499999999998}]",space,2.2748,,929.6132,Not at all,0,936.0345,0,6.1173,"[{""rating"":0,""responseTime"":6.117299999996931}]",space,0,8,8,8,1,audio/Narrative7Situation8.wav,audio/Narrative8Situation8.wav,audio/Narrative5Situation8.wav,audio/Narrative6Situation8.wav,2,3,3,5,,,5.874,,,,,,,,,,,,,,,,,,,,,,,,,,,,,,,,,,,,
,,,,,,66352811881d6bf26260a155,2024-05-13_08h27.27.770,group3.1-3.2-social-tom,2023.2.2,Windows,59.88023952,65c5074098b851296ff0b7ed,664230dbd51f2625d1ead9a6,,,,,,,,,,,,,,,,,,,,,,,,,,,,,936.0349,2,audio/Narrative6Situation9.wav,940.0379,,940.0382,950.0113,"[[1.8,2851],[4.3,3435],[4.4,3516],[4.4,3601],[4.4,3684],[4.4,3767],[4.4,3850],[4.4,3935],[4.4,4017],[4.4,4102],[4.4,4185],[4.4,4267],[4.4,4350],[4.4,4436],[4.4,4518],[4.4,4601],[4.4,4684],[4.4,4768],[4.4,4852],[4.4,4935],[4.4,5019],[4.4,5102],[4.4,5185],[4.4,5270],[4.4,5360],[4.4,5443],[4.4,5530],[4.4,5602],[4.4,5694],[4.4,5776],[4.4,5851],[4.4,5936],[4.4,6020],[4.4,6109],[1.6,8950],[1.6,9035],[1.6,9114],[1.6,9197],[1.6,9278],[1.4,9354],[1.4,9438],[1.4,9522],[1.4,9606],[1.6,9700],[2,9781],[2.1,9856],[2.1,9944]]",1,0,950.0118,952.63,0.651041667,1.4784,"[{""rating"":0.6510416666666685,""responseTime"":1.4783999999986008}]",space,2.0725,,952.6302,Definitely yes,100,952.6377,,,[],,0,9,9,9,1,audio/Narrative7Situation9.wav,audio/Narrative8Situation9.wav,audio/Narrative5Situation9.wav,audio/Narrative6Situation9.wav,2,3,3,4,,,,,,,,,,,,,,,,,,,,,,,,,,,,,,,,,,,,,,,
,,,,,,66352811881d6bf26260a155,2024-05-13_08h27.27.770,group3.1-3.2-social-tom,2023.2.2,Windows,59.88023952,65c5074098b851296ff0b7ed,664230dbd51f2625d1ead9a6,,,,,,,,,,,,,,,,,,,,,,,,,,,,,952.6381,2,audio/Narrative5Situation1.wav,957.65,,957.6501,970.9432,"[[71.7,2697]]",1,0,970.9443,974.7952,1.432291667,3.2652,"[{""rating"":1.4322916666666685,""responseTime"":3.2651999999955024}]",space,3.3086,,974.7953,Not at all,0,974.8042,,,[],,0,10,10,10,1,audio/Narrative8Situation1.wav,audio/Narrative7Situation1.wav,audio/Narrative6Situation1.wav,audio/Narrative5Situation1.wav,5,2,2,5,,,,,,,,,,,,,,,,,,,,,,,,,,,,,,,,,,,,,,,
,,,,,,66352811881d6bf26260a155,2024-05-13_08h27.27.770,group3.1-3.2-social-tom,2023.2.2,Windows,59.88023952,65c5074098b851296ff0b7ed,664230dbd51f2625d1ead9a6,,,,,,,,,,,,,,,,,,,,,,,,,,,,,974.8052,2,audio/Narrative5Situation2.wav,977.8128,,977.8128,1007.2697,"[[0.8,29021],[0.8,29104],[0.8,29188]]",1,0,1007.2698,1009.2021,0.390625,1.3125,"[{""rating"":0.390625,""responseTime"":1.3125}]",space,1.3875,,1009.2021,Definitely yes,100,1009.212,,,[],,0,11,11,11,1,audio/Narrative8Situation2.wav,audio/Narrative7Situation2.wav,audio/Narrative6Situation2.wav,audio/Narrative5Situation2.wav,3,3,3,3,,,,,,,,,,,,,,,,,,,,,,,,,,,,,,,,,,,,,,,
,,,,,,66352811881d6bf26260a155,2024-05-13_08h27.27.770,group3.1-3.2-social-tom,2023.2.2,Windows,59.88023952,65c5074098b851296ff0b7ed,664230dbd51f2625d1ead9a6,,,,,,,,,,,,,,,,,,,,,,,,,,,,,1009.2125,2,audio/Narrative5Situation3.wav,1012.2205,,1012.2206,1026.1479,"[[0.1,5019],[0.7,5104],[3.6,5188],[3.6,5269],[3.6,5361],[3.6,5438],[3.6,5521],[3.6,5611],[3.6,5689],[3.6,5772],[3.6,5855],[3.6,5938],[3.6,6022],[3.6,6104],[3.6,6188],[3.6,6276],[3.6,6354],[3.6,6438],[3.6,6529],[3.6,6604],[3.6,6697],[3.6,6774],[3.6,6863],[3.6,6947],[3.6,7030],[3.6,7106],[3.6,7191],[3.6,7272],[3.6,7356],[3.6,7440],[3.6,7531],[3.6,7606],[3.6,7692],[3.6,7773],[3.6,7866],[3.6,7941],[3.6,8029],[3.6,8107],[3.6,8190],[3.6,8274],[3.6,8357],[3.6,8448],[3.6,8528],[3.6,8606],[3.6,8699],[3.6,8774],[3.6,8858],[3.6,8940],[3.6,9031],[3.6,9108],[3.6,9190],[3.6,9283],[3.6,9363],[3.6,9441],[3.6,9523],[3.6,9608],[3.6,9691],[4.3,9775],[7,9859],[7.3,9950],[8.2,10035],[9.5,10121],[9.8,10191],[9.9,10276],[10,10365],[10,10443],[10,10534],[10,10607],[10,10698],[10,10776],[10,10859],[10,10950],[10,11027],[10,11110],[10,11193],[10,11277],[10,11359],[10,11443],[10,11524],[10,11609],[10,11699],[8.7,12778],[8.6,12871],[8.6,12943],[8.5,13037],[8.5,13110],[8.5,13193],[8.5,13278],[8.5,13360],[8.5,13443],[8.5,13532],[8.5,13616],[8.5,13694],[8.5,13787],[8.5,13864]]",1,0,1026.1485,1029.7794,98.69791667,2.7507,"[{""rating"":97.00520833333333,""responseTime"":1.330299999996896},{""rating"":98.69791666666667,""responseTime"":2.750699999995504}]",space,3.0863,,1029.7795,Not at all,0,1029.7885,,,[],,0,12,12,12,1,audio/Narrative8Situation3.wav,audio/Narrative7Situation3.wav,audio/Narrative6Situation3.wav,audio/Narrative5Situation3.wav,4,8,5,3,,,,,,,,,,,,,,,,,,,,,,,,,,,,,,,,,,,,,,,
,,,,,,66352811881d6bf26260a155,2024-05-13_08h27.27.770,group3.1-3.2-social-tom,2023.2.2,Windows,59.88023952,65c5074098b851296ff0b7ed,664230dbd51f2625d1ead9a6,,,,,,,,,,,,,,,,,,,,,,,,,,,,,1029.7897,2,audio/Narrative5Situation4.wav,1030.8007,,1030.8009,1051.1957,"[[97,444],[97,531],[96,696],[94.3,782],[91.8,863],[90.1,1951],[90.8,2029],[82.8,2118],[66.3,2206],[52.1,2288],[44.4,2371],[40.4,2453],[32.7,2537],[31.6,2619],[29.9,2704],[21.2,2787],[57,5123],[66.4,5206],[71.6,5288],[73.7,5370],[76.4,5456],[79.8,5537],[79.9,5620],[79.9,5705],[80.2,5787],[82.9,5871],[82.9,5956],[82.9,6038],[83.5,6121],[85.3,6206],[85.5,6288],[85.5,6372],[85.3,6455],[85.2,6538],[85.2,6622],[84.5,6705],[84.5,6790],[84.5,6872],[83.9,6955],[81.8,7039],[77.6,7123],[69.5,7206],[66.5,7289],[66.4,7372],[66.4,7456],[65.6,7539],[65.6,7622],[62,7705],[60.9,7789],[60.2,7872],[59.4,7956],[59.1,8041],[59.1,8124],[58.7,8207],[58.5,8290],[58.5,8373],[58.3,8458],[58.1,8540],[57.9,8622],[57.9,8707],[57.9,8791],[58.1,8875],[57.9,8956],[57.8,9041],[57.7,9124],[57.6,9206],[57.6,9291],[58.5,9375],[58.6,9458],[58.6,9541],[58.6,9623],[58.6,9708],[58.6,9790],[58.7,9873],[58.7,9958],[58.7,10041],[58.7,10124],[58.7,10207],[58.7,10291],[58.7,10374],[58.7,10458],[58.7,10542],[58.7,10625],[58.7,10708],[58.7,10791],[58.7,10875],[58.7,10957],[58.7,11042],[58.7,11125],[58.7,11208],[58.7,11291],[58.7,11375],[58.7,11459],[58.7,11543],[58.7,11625],[58.7,11708],[58.7,11792],[58.7,11874],[58.7,11960],[58.7,12043],[58.7,12127],[58.7,12209],[58.7,12293],[58.3,12378],[53.4,12459],[51.8,12544],[49.2,12626],[47.8,12712],[44.4,12792],[43.8,12877],[42.6,12960],[42.6,13042],[42.6,13127],[42.6,13210],[42.6,13292],[42.6,13377],[42.6,13460],[41,13543],[26.3,13627],[19.8,13962],[17.4,14044],[16.7,14128],[15.8,14210],[13.4,14293],[9.8,14378],[6.5,14461],[5.5,14546],[5.3,14628],[8.7,14712],[12.1,14794],[16.7,14877],[24.7,14962],[33.1,15046],[34.9,15135],[34.9,15213],[35.7,15297],[36.2,15378],[36.7,15464],[37.1,15545],[38.2,15628],[42.4,15713],[43.9,15794],[45.3,15878],[45.4,15962],[45.4,16045],[45.6,16128],[46.5,16213],[46.9,16295],[50,16378],[55.7,16463],[72.3,16547],[40.7,20204],[17.6,20284],[14.6,20393]]",1,0,1051.1958,1053.4534,98.55263158,1.8517,"[{""rating"":98.55263157894737,""responseTime"":1.851699999995617}]",space,1.7212,,1053.4538,Not at all,0,1053.4597,,,[],,0,13,13,13,1,audio/Narrative8Situation4.wav,audio/Narrative7Situation4.wav,audio/Narrative6Situation4.wav,audio/Narrative5Situation4.wav,3,3,2,1,,,,,,,,,,,,,,,,,,,,,,,,,,,,,,,,,,,,,,,
,,,,,,66352811881d6bf26260a155,2024-05-13_08h27.27.770,group3.1-3.2-social-tom,2023.2.2,Windows,59.88023952,65c5074098b851296ff0b7ed,664230dbd51f2625d1ead9a6,,,,,,,,,,,,,,,,,,,,,,,,,,,,,1053.4606,2,audio/Narrative5Situation5.wav,1058.472,,1058.4721,1074.5164,"[[999,1],[999,126],[999,219],[999,300],[999,384],[999,476],[999,557],[999,640],[999,724],[999,809],[999,15937],[999,16042]]",1,0,1074.5168,1076.7005,68.68421053,1.7951,"[{""rating"":68.6842105263158,""responseTime"":1.795100000001412}]",space,1.6512,,1076.7006,Partially,50,1076.7127,,,[],,0,14,14,14,1,audio/Narrative8Situation5.wav,audio/Narrative7Situation5.wav,audio/Narrative6Situation5.wav,audio/Narrative5Situation5.wav,2,5,2,5,,,,,,,,,,,,,,,,,,,,,,,,,,,,,,,,,,,,,,,
,,,,,,66352811881d6bf26260a155,2024-05-13_08h27.27.770,group3.1-3.2-social-tom,2023.2.2,Windows,59.88023952,65c5074098b851296ff0b7ed,664230dbd51f2625d1ead9a6,,,,,,,,,,,,,,,,,,,,,,,,,,,,,1076.713,2,audio/Narrative5Situation6.wav,1081.3608,,1081.361,1087.0437,"[[999,1],[999,114],[999,202],[999,277],[999,360],[999,445],[999,541],[999,630],[999,725],[999,820],[999,915],[999,995],[999,1078],[999,1161],[999,1243],[999,1327],[999,1411],[999,1498],[999,1577],[999,1665],[999,1745],[999,1828],[999,1912],[999,1995],[999,2080],[999,2163],[999,2244],[999,2327],[999,2411],[999,2506],[999,2578],[999,2662],[999,2746],[999,2837],[999,2923],[999,3002],[999,3088],[999,3173],[999,3253],[999,3341],[999,3423],[999,3509],[999,3588],[999,3672],[999,3757],[999,3840],[999,3921],[999,4004],[999,4090],[999,4169],[999,4256],[999,4341],[999,4419],[999,4509],[999,4592],[999,4670],[999,4756],[999,4838],[999,4924],[999,5007],[999,5089],[999,5173],[999,5257],[999,5340],[999,5423],[999,5509],[999,5593],[999,5682]]",1,0,1087.0441,1089.6788,1.184210526,1.6588,"[{""rating"":1.1842105263157876,""responseTime"":1.6588000000044758}]",space,2.0995,,1089.6789,Not at all,0,1089.6889,,,[],,0,15,15,15,1,audio/Narrative8Situation6.wav,audio/Narrative7Situation6.wav,audio/Narrative6Situation6.wav,audio/Narrative5Situation6.wav,2,3,2,3,,,,,,,,,,,,,,,,,,,,,,,,,,,,,,,,,,,,,,,
,,,,,,66352811881d6bf26260a155,2024-05-13_08h27.27.770,group3.1-3.2-social-tom,2023.2.2,Windows,59.88023952,65c5074098b851296ff0b7ed,664230dbd51f2625d1ead9a6,,,,,,,,,,,,,,,,,,,,,,,,,,,,,1089.6896,2,audio/Narrative5Situation7.wav,1093.7036,,1093.7037,1114.7471,"[[15.8,18793],[11.2,18875],[8.2,18963],[8.2,19041],[8.2,19130],[8.2,19207],[8.2,19289],[8.2,19373],[8.2,19464],[8.2,19539],[8.2,19624],[8.2,19707],[8.2,19790],[8.2,19875],[8.2,19964],[8.2,20054],[8.2,20133],[8.2,20216],[8.2,20299],[8.2,20385],[8.2,20465],[7.8,20550],[5.9,20637],[2.9,20723]]",1,0,1114.7473,1116.6648,1.052631579,1.5769,"[{""rating"":1.0526315789473661,""responseTime"":1.5768999999984317}]",space,1.3826,,1116.6648,Definitely yes,100,1116.6745,,,[],,0,16,16,16,1,audio/Narrative8Situation7.wav,audio/Narrative7Situation7.wav,audio/Narrative6Situation7.wav,audio/Narrative5Situation7.wav,3,5,5,4,,,,,,,,,,,,,,,,,,,,,,,,,,,,,,,,,,,,,,,
,,,,,,66352811881d6bf26260a155,2024-05-13_08h27.27.770,group3.1-3.2-social-tom,2023.2.2,Windows,59.88023952,65c5074098b851296ff0b7ed,664230dbd51f2625d1ead9a6,,,,,,,,,,,,,,,,,,,,,,,,,,,,,1116.6749,2,audio/Narrative5Situation8.wav,1119.6925,,1119.6926,1128.5231,"[[3,3703]]",1,0,1128.5232,1130.253,2.236842105,1.2435,"[{""rating"":2.2368421052631593,""responseTime"":1.24350000000004}]",space,1.1824,,1130.2532,Definitely yes,100,1130.2557,,,[],,0,17,17,17,1,audio/Narrative8Situation8.wav,audio/Narrative7Situation8.wav,audio/Narrative6Situation8.wav,audio/Narrative5Situation8.wav,3,2,5,3,,,,,,,,,,,,,,,,,,,,,,,,,,,,,,,,,,,,,,,
,,,,,,66352811881d6bf26260a155,2024-05-13_08h27.27.770,group3.1-3.2-social-tom,2023.2.2,Windows,59.88023952,65c5074098b851296ff0b7ed,664230dbd51f2625d1ead9a6,,,,,,,,,,,,,,,,,,,,,,,,,,,,,1130.2562,2,audio/Narrative5Situation9.wav,1133.2694,,1133.2695,1172.8033,"[[999,0],[999,105],[999,190],[999,271],[999,355],[999,439],[999,523],[999,606],[999,690],[999,773],[999,857],[999,939],[999,1022],[999,1107],[999,1189],[999,1272],[999,1355],[999,1449],[999,1523],[999,1608],[999,1698],[999,1773],[999,1865],[999,1940],[999,2024],[999,2107],[999,2190],[999,2283],[999,2357],[999,2451],[999,2523],[999,2608],[999,2690],[999,2774],[999,2859],[999,2940],[999,3024],[999,3109],[999,3193],[999,3273],[999,3358],[999,3449],[999,3524],[999,3609],[999,3692],[999,3775],[999,3857],[999,3941],[999,4036],[999,4109],[999,4192],[999,4276],[999,4359],[999,4449],[999,4525],[999,4609],[999,4693],[999,4775],[999,4860],[999,4943],[999,5027],[999,5110],[999,5195],[999,5277],[999,5359],[69.3,5447],[73.3,5540],[73.8,5626],[75.4,5712],[75.9,5792],[76.1,5878],[78,5963],[81.8,6044],[86.3,6126],[86.4,6211],[86.4,6293],[86.4,6377],[86.4,6460],[76.2,6544],[40.3,23386],[39.1,23470],[37.8,23557],[36.8,23638],[36.8,23719],[36.8,23804],[36.8,23887],[36.7,23969],[36.6,24055],[36.6,24138],[36.6,24220],[36.6,24305],[36.6,24388],[36.6,24472],[36.6,24556],[36.6,24640],[36.6,24723],[36.6,24807],[36.6,24890],[36.6,24983],[36.6,25056],[36.6,25150],[36.6,25223],[36.6,25314],[36.6,25389],[36.6,25484],[36.6,25566],[36.6,25648],[36.6,25724],[36.6,25815],[36.6,25891],[36.6,25984],[36.6,26058],[36.6,26149],[36.6,26224],[36.6,26309],[36.6,26391],[36.6,26475],[36.6,26567],[36.6,26641],[36.6,26724],[36.6,26808],[36.6,26899],[36.6,26982],[36.6,27058],[36.6,27150],[36.6,27235],[36.6,27309],[36.6,27391],[36.6,27477],[36.6,27565],[36.6,27642],[36.6,27731],[36.6,27809],[36.6,27902],[36.6,27975],[36.6,28058],[36.6,28142],[36.6,28226],[36.6,28317],[36.6,28393],[36.6,28487],[36.6,28559],[36.6,28653],[36.6,28725],[36.6,28810],[36.6,28893],[36.6,28977],[36.6,29059],[36.6,29151],[36.6,29227],[36.6,29310],[36.6,29392],[36.6,29477],[36.6,29560],[36.6,29644],[36.6,29727],[36.6,29811],[36.6,29901],[36.6,29977],[36.6,30060],[36.6,30151],[36.6,30234],[36.6,30318],[36.6,30393],[36.6,30478],[36.6,30561],[36.6,30645],[36.6,30737],[36.6,30810],[36.6,30894],[36.6,30977],[36.6,31061],[36.6,31154],[36.6,31229],[36.6,31317],[36.6,31404],[36.6,31478],[36.6,31562],[36.6,31652],[36.6,31727],[36.6,31813],[36.6,31894],[36.6,31979],[36.6,32063],[36.6,32155],[36.6,32228],[36.6,32323],[73.9,32664],[82.5,32745],[88.9,32830],[93.9,32914],[94.6,32996],[95.3,33080],[96.4,33164],[98.8,33246],[99.2,33329],[99.2,33413],[99.2,33496],[99.2,33580],[98.9,33662],[98.4,33747],[98.4,33831],[98.4,33912],[98.4,33996],[98.4,34078],[98.4,34163],[98.4,34247],[98.4,34330],[98.4,34412],[98.4,34498],[98.4,34579],[98.4,34663],[98.4,34746],[98.4,34830],[98.4,34914],[98.4,34999],[98.4,35081],[98.4,35164],[98.4,35246],[98.4,35331],[98.4,35413],[98.4,35499],[98.4,35579],[98.4,35665],[98.4,35748],[98.4,35830],[98.4,35914],[98.4,35997],[98.4,36081],[98.4,36164],[98.4,36247],[98.4,36331],[98.4,36415],[98.4,36498],[98.4,36581],[98.4,36666],[98.4,36748],[98.4,36832],[98.4,36916],[98.4,36998],[98.4,37082],[98.4,37164],[98.4,37249],[98.4,37332],[98.4,37415],[98.4,37499],[98.4,37581],[98.4,37665],[98.4,37750],[98.4,37832],[98.4,37916],[98.4,37999],[98.4,38082],[98.4,38167],[98.4,38250],[98.4,38333],[98.4,38416],[98.4,38500],[98.4,38583],[98.4,38666],[98.4,38750],[98.4,38833],[98.4,38916],[98.4,39000],[98.4,39084],[98.4,39166],[98.4,39250],[98.4,39334],[98.4,39416],[98.4,39500]]",1,0,1172.8039,1175.118,100,2.1113,"[{""rating"":98.42105263157895,""responseTime"":0.5928999999985081},{""rating"":100,""responseTime"":2.1112999999970725}]",space,1.7823,,1175.1181,Not at all,0,1175.1261,,,[],,0,18,18,18,1,audio/Narrative8Situation9.wav,audio/Narrative7Situation9.wav,audio/Narrative6Situation9.wav,audio/Narrative5Situation9.wav,3,2,4,3,,,,,,,,,,,,,,,,,,,,,,,,,,,,,,,,,,,,,,,
,,,,,,66352811881d6bf26260a155,2024-05-13_08h27.27.770,group3.1-3.2-social-tom,2023.2.2,Windows,59.88023952,65c5074098b851296ff0b7ed,664230dbd51f2625d1ead9a6,,,,,,,,,,,,,,,,,,,,,,,,,,,,,,,,,,,,,,,,,,,,,,,,,,,,,,,,,,,,,,,,,,,,,,,,1175.1269,1176.8388,space,1.1876,,1176.8394,1191.3506,space,14.1838,,,,,,,,,,,,,,,,,,,,,,,,,,
,,,,,,66352811881d6bf26260a155,2024-05-13_08h27.27.770,group3.1-3.2-social-tom,2023.2.2,Windows,59.88023952,65c5074098b851296ff0b7ed,664230dbd51f2625d1ead9a6,,,,,,,,,,,,,,,,,,,,,,,,,,,,,1193.9895,1,audio/Narrative7Situation9.wav,1196.0042,,,,,,,1227.9205,1233.664,14.73684211,5.0562,"[{""rating"":0.2631578947368429,""responseTime"":3.254100000001472},{""rating"":14.73684210526316,""responseTime"":5.056200000002946}]",space,5.2081,,1227.913,Not at all,0,1227.9203,,,[],,,,,,,,,,,2,2,2,2,,,,,,,,,,,,,,,1191.3581,1193.9369,1196.0052,3,1227.9124,"[[38.3,616],[38.3,3868],[34.9,3951],[34.9,4031],[34.9,4115],[34.9,4197],[34.9,4280],[35.1,4364],[38.7,4449],[43.7,4532],[56.7,4617],[62.2,4699],[66.3,4783],[68.4,4868],[69.2,4954],[69.5,5037],[69.5,5116],[69.5,5200],[68.2,5289],[64.9,5366],[64.9,5447],[61.7,5532],[61.7,5613],[61.7,5696],[67.1,5783],[70.8,5864],[73.6,5951],[74.1,6031],[76.1,6121],[77,6199],[78.2,6285],[79.2,6364],[79.3,6447],[79.3,6532],[79.3,6615],[77.5,6699],[52.9,6786],[42,6866],[31.7,6953],[24.1,7034],[20.1,7119],[16.6,7201],[16.6,7283],[16.6,7366],[16.6,7450],[16.6,7534],[17.2,7618],[17.4,7700],[18.2,7785],[22,7872],[22.2,7952],[24.3,8034],[24.5,8120],[27.4,8204],[29.2,8287],[31.3,8370],[36.1,8455],[36.3,8538],[38,8622],[38.2,8712],[44.1,8805],[44.9,8887],[45.7,8972],[51.4,9056],[55.5,9139],[56.1,9222],[56.1,9306],[55.9,9388],[35.7,9472],[21.4,9555],[21.4,9638],[21.4,9721],[12.5,9807],[12.4,9888],[12.4,9973],[12.4,10057],[12.1,10140],[9.1,10223],[9.1,10306],[9.1,10388],[8.8,10471],[8.8,10556],[8.8,10639],[8.8,10722],[8.8,10806],[10.8,10890],[12.4,10975],[15.4,11055],[21.6,11140],[21.7,11223],[21.7,11307],[21.7,11389],[21.7,11473],[21.7,11557],[21.2,11643],[15.7,11726],[15.5,11806],[11.1,11891],[10.7,11972],[10.7,12057],[10.7,12141],[10.7,12225],[10.7,12307],[10.7,12390],[10.7,12474],[10.7,12557],[10.7,12640],[10.7,12724],[10.7,12806],[10.7,12891],[9.9,12976],[6.4,13057],[6.4,13141],[8.8,13224],[9.3,13307],[9.3,13391],[9.5,13474],[10.1,13558],[10.1,13641],[10.1,13726],[10.1,13807],[10.1,13892],[10.1,13974],[10.1,14058],[10.1,14152],[7.8,14228],[7.8,14309],[7.8,14391],[6.6,14491],[6.6,14558],[6.6,14642],[9.3,14727],[12.9,14809],[14.1,14894],[16.4,14988],[16.7,15059],[16.8,15152],[16.8,15225],[13.3,15310],[11.2,15393],[11.1,15476],[9.7,15572],[9.7,15644],[9.7,15727],[9.7,15817],[11.7,15894],[15.1,15977],[15.1,16060],[15.1,16143],[10.8,16229],[10,16310],[7.5,16399],[7.1,16476],[7.1,16567],[7.1,16644],[6.7,16733],[6.7,16810],[6.7,16894],[4.6,16978],[4.6,17061],[4.6,17144],[4.6,17227],[4.6,17310],[4.6,17394],[6.2,17478],[6.4,17571],[9.1,17644],[10.1,17734],[10,17811],[6.6,17897],[4.7,17980],[1.4,18063],[0.8,18154],[0.5,18241],[2.8,18328],[6.2,18411],[7.2,18496],[8.8,18579],[9.2,18663],[9.2,18745],[6.3,18829],[5.4,18912],[4.7,18998],[3.6,19079],[3.6,19161],[3.6,19245],[10.3,19329],[11.7,19414],[12.8,19495],[12.8,19580],[10.8,19662],[8.2,19745],[8.2,19828],[8.2,19912],[10.8,19997],[10.8,20091],[10.8,20170],[10.9,20246],[11.1,20329],[11.1,20412],[11.1,20497],[11.1,20579],[7.1,20667],[7,20746],[7,20830],[7,20926],[4.2,21010],[3.8,21091],[3.8,21164],[3.8,21246],[3.9,21330],[3.9,21421],[3.9,21504],[3.9,21582],[3.9,21674],[5.7,21759],[7.2,21847],[8.8,21931],[9.3,22016],[10.4,22098],[10.4,22180],[10.4,22264],[10.4,22349],[11.8,22431],[11.8,22515],[11.8,22597],[11.8,22682],[11.8,22764],[10.5,22849],[9.2,22931],[9.2,23015],[9.2,23098],[7.9,23183],[7.4,23265],[6.8,23350],[2.8,23433],[2.8,23515],[2.8,23598],[4.6,23685],[5.1,23766],[5.7,23848],[6.1,23933],[6.6,24014],[6.8,24099],[7,24181],[8.4,24267],[8.6,24350],[8.6,24433],[8.6,24515],[8.6,24599],[8,24682],[6.6,24765],[4.3,24850],[4.3,24934],[4.3,25016],[4.3,25099],[4.3,25185],[4.3,25267],[4.3,25349],[4.3,25432],[5.8,25518],[8.2,25599],[10.9,25683],[11.7,25767],[12.2,25850],[12.2,25934],[12.2,26017],[12.2,26100],[12,26185],[10.4,26267],[10.4,26351],[10.4,26435],[7.4,26517],[7.4,26601],[7.4,26684],[7.4,26767],[7.4,26851],[7.4,26933],[8.6,27018],[10.4,27102],[10.4,27185],[10.4,27268],[10.5,27350],[11.6,27437],[13.9,27521],[15,27601],[20,27687],[23.7,27768],[23.7,27852],[23.7,27936],[23.7,28018],[23.7,28103],[25.7,28185],[25.7,28270],[38.9,28353],[50.8,28438],[52.2,28518],[52.2,28602],[52.2,28684],[52.2,28769],[52.2,28852],[52.2,28935],[52.2,29020],[52.2,29103],[52.5,29186],[52.8,29270],[52.8,29353],[52.8,29436],[52.8,29518],[52.8,29602],[52.8,29686],[52.8,29769],[52.8,29854],[53.2,29938],[53.7,30020],[53.7,30102],[53.7,30188],[53.7,30270],[53.6,30355],[53.4,30437],[52.9,30522],[52.9,30604],[51.2,30688],[51.2,30771],[51.2,30853],[51.2,30936],[51.2,31020],[51.6,31105],[53.9,31188],[55.5,31289],[55.8,31365],[55.8,31438],[56.7,31522],[56.7,31604],[57.2,31690],[58,31771],[58,31854]]",0,0,0,0,1,"Larry had recently lost his family, job and home, and was now living on his own in the park. He had most of his belongings, including some clothes, a blanket, and his mother’s special necklace. His family had been very important to him and he felt as though he did not have much going for him. One of his first days in the park he came across a family that did not have much food and looked very cold. He decided to give them some of his food and his blanket.","Larry had recently lost his family, job and home, and was now living on his own in the park. He had most of his belongings, including some clothes, a blanket, and his mother’s special necklace. His family had been very important to him and he felt as though he did not have much going for him. One of his first days in the park he came across a family that did not have much food and looked very cold. He decided to give them some of his food and his blanket.","Larry had recently lost his family, job and home, and was now living on his own in the park. He had most of his belongings, including some clothes, a blanket, and his mother’s special necklace. His family had been very important to him and he felt as though he did not have much going for him. One of his first days in the park he came across a family that did not have much food and looked very cold. He decided to give them some of his food and his blanket.","Larry had recently lost his family, job and home, and was now living on his own in the park. He had most of his belongings, including some clothes, a blanket, and his mother’s special necklace. His family had been very important to him and he felt as though he did not have much going for him. One of his first days in the park he came across a family that did not have much food and looked very cold. He decided to give them some of his food and his blanket.",,,,,,,,,,
,,,,,,66352811881d6bf26260a155,2024-05-13_08h27.27.770,group3.1-3.2-social-tom,2023.2.2,Windows,59.88023952,65c5074098b851296ff0b7ed,664230dbd51f2625d1ead9a6,,,,,,,,,,,,,,,,,,,,,,,,,,,,,1233.6659,1,audio/Narrative7Situation9.wav,1237.2024,space,,,,,,1261.0898,1265.0047,60.13157895,3.6599,"[{""rating"":54.21052631578947,""responseTime"":2.4258999999985917},{""rating"":60.131578947368425,""responseTime"":3.6598999999985153}]",space,3.3758,,1261.0843,Not at all,0,1261.0897,,,[],,,,,,,,,,,6,2,3,9,3.5004,,,,,,,,,,,,,,,,1237.2026,3,1261.084,"[[999,1],[999,97],[999,190],[999,264],[999,346],[999,430],[999,526],[999,611],[999,699],[999,781],[999,864],[999,950],[999,1030],[999,1114],[999,1199],[999,1283],[999,1366],[999,1447],[999,1534],[999,1615],[999,1698],[999,1781],[999,1865],[999,1949],[999,2031],[999,2118],[999,2199],[999,2283],[999,2367],[39.5,2451],[39.5,2532],[39.5,2615],[10.1,3203],[11.1,3283],[14.1,3371],[14.9,3453],[16.6,3534],[22.6,3617],[24.2,3699],[23.4,3784],[20.4,3866],[18.3,3950],[17.1,4035],[16.7,4116],[11.4,4200],[9.5,4867],[9.6,4950],[9.6,5035],[9.6,5117],[9.6,5201],[9.6,5284],[9.6,5366],[9.6,5451],[9.6,5533],[10.4,5618],[10.9,5706],[10.9,5784],[10.9,5866],[10.8,5953],[10.4,6039],[10.3,6119],[10.3,6200],[10.3,6286],[10.3,6367],[10.3,6451],[10.3,6534],[10,6620],[10,6704],[10.7,6785],[11.8,6870],[12,6953],[11.6,7036],[11.6,7120],[11.6,7203],[10.3,7288],[9.3,7370],[9.3,7452],[9.3,7535],[9.6,7629],[9.6,7711],[10.1,7802],[10.3,7876],[10.3,7953],[10.7,8048],[10.9,8134],[10.9,8203],[10.9,8295],[10.5,8370],[10.4,8456],[7.1,8549],[5.1,8888],[6.7,8969],[7.6,9052],[7.8,9134],[8.2,9218],[8.3,9301],[8.3,9385],[8.3,9468],[8.3,9551],[9.5,9635],[9.9,9717],[9.9,9801],[9.9,9882],[10.4,9967],[11.7,10052],[11.7,10133],[11.6,10216],[11.3,10299],[11.3,10383],[11.3,10466],[11.3,10549],[11.3,10633],[11.3,10717],[11.3,10799],[11.3,10884],[10.9,10965],[8.7,11049],[8.7,11132],[8.7,11218],[10.5,11306],[11.6,11384],[13.2,11466],[14.6,11551],[14.6,11633],[16.6,11718],[18.3,11800],[19.7,11885],[20.4,11967],[20.4,12051],[20.4,12134],[20.4,12217],[20.4,12302],[20.5,12386],[20.5,12469],[20.5,12552],[20.5,12635],[20.5,12719],[20.5,12802],[20.5,12886],[20.5,12969],[22.9,13054],[41.4,13142],[55.4,13223],[66.6,13305],[66.6,13387],[66.6,13470],[66.6,13554],[66.6,13638],[66.4,13722],[65.7,13808],[65.3,13889],[65.3,13973],[65.3,14057],[64.7,14140],[63.9,14223],[63.9,14307],[63.9,14392],[63.7,14474],[63.7,14557],[63.7,14640],[63.7,14726],[63.7,14808],[63.8,14890],[64.1,14976],[64.2,15058],[64.9,15142],[65.5,15224],[66.1,15307],[66.6,15391],[67.2,15477],[67.2,15558],[67.2,15642],[67.2,15726],[67.2,15807],[67.2,15890],[67.2,15975],[67.1,16058],[67.2,16144],[67.8,16227],[69.7,16308],[69.7,16392],[69.7,16476],[69.7,16560],[69.5,16642],[65.8,16727],[65.4,16809],[64.6,16893],[63.7,16976],[63.7,17058],[63.7,17142],[64.1,17226],[64.1,17310],[64.1,17393],[65.1,17477],[65.7,17560],[65.7,17643],[65.7,17728],[65.1,17812],[61.7,17894],[61.1,17977],[57.9,18060],[57,18143],[57,18227],[57,18310],[57,18393],[57,18478],[57,18559],[57,18644],[57,18728],[57.4,18812],[62.5,18898],[68,18995],[78,19081],[80.8,19161],[80.7,19244],[80.5,19327],[80,19412],[79.3,19494],[78.3,19579],[78.2,19660],[78.2,19744],[77.4,19830],[75.7,19915],[75.3,19996],[75.3,20079],[75,20162],[73.7,20245],[72.8,20345],[72.6,20428],[72.2,20512],[72.1,20597],[71.4,20680],[71.1,20780],[71.1,20861],[71.1,20945],[71.1,21029],[71.1,21112],[71.1,21196],[71.1,21279],[71.1,21361],[71.1,21446],[71.1,21529],[71.1,21611],[71.1,21695],[71.1,21778],[71.1,21862],[71.1,21945],[71.1,22029],[71.1,22113],[71.1,22198],[71.1,22278],[71.1,22363],[71.1,22447],[71.1,22530],[71.1,22614],[71.1,22697],[71.1,22780],[71.1,22863],[71.1,22947],[71.1,23029],[71.1,23113],[71.1,23198],[71.1,23281],[71.1,23364],[74.3,23449],[78,23532],[81.8,23613],[82.9,23698],[82.9,23780],[82.9,23864]]",0,1,1,1,1,"It was just another Sunday afternoon for Lucy, she was on her way to the farmer's market to pick up some produce. When she arrived at the old train depot that housed the market, she noticed two men fighting on the steps. Before she could call for help, one of the men crumpled to his knees. The other man dropped an object that appeared to be a knife and ran off. When Lucy approached the crime scene she realized that the man who had been murdered was the Mayor and that he had a gunshot wound.","One day at work, Margaret walked up to her partner, Al, to ask him to talk to the chief of staff at the local hospital where she worked as a nurse.","Luke always thought of himself as an honest man. That's why during his evening jog around the swamp, he pondered his recent affair with the receptionist at work. Luke looked up at the sky and asked God why he was so weak and unfaithful. He thought of the impact this would have on his family and told God of his conflicted feelings toward telling his wife Marta.","Linda and Amy had been best friends since kindergarten, they even found homes on the same street in the forest on the edge of town. Their biggest fight had been over who gets the bigger slice of cake, until Amy married Dan. Linda loathed Dan, she thought he was manipulative and had a violent temper. She only put up with him because Amy loved him. ",,,,,,,,,,
,,,,,,66352811881d6bf26260a155,2024-05-13_08h27.27.770,group3.1-3.2-social-tom,2023.2.2,Windows,59.88023952,65c5074098b851296ff0b7ed,664230dbd51f2625d1ead9a6,,,,,,,,,,,,,,,,,,,,,,,,,,,,,1265.0062,1,audio/Narrative7Situation9.wav,1270.0086,,,,,,,1296.2263,1318.8006,100,3.1789,"[{""rating"":98.02631578947368,""responseTime"":2.310799999997016},{""rating"":100,""responseTime"":3.178899999998521}]",space,22.0297,,1296.2228,Not at all,0,1296.2262,,,[],,,,,,,,,,,4,5,2,2,,,,,,,,,,,,,,,,,1270.009,3,1296.2223,"[[999,0],[999,96],[999,182],[999,265],[999,346],[999,433],[999,516],[999,598],[999,681],[999,766],[999,847],[999,931],[999,1015],[999,1099],[999,1182],[999,1265],[999,1348],[999,1432],[999,1516],[47.8,1599],[48.2,1683],[48.2,1765],[48.2,1849],[48.2,1932],[48.2,2015],[48.2,2099],[48.2,2182],[48.2,2266],[48.2,2349],[48.2,2432],[48.2,2515],[48.2,2599],[48.2,2682],[50,2766],[55.9,2850],[58.3,2934],[58.3,3016],[58.3,3100],[58.2,3183],[51.3,3268],[42,3352],[38.3,3434],[35.4,3519],[30.9,3600],[28.3,3683],[26.2,3767],[23.7,3851],[23.2,3933],[21.3,4024],[21.3,4112],[21.8,4184],[27.1,4269],[28.6,4360],[31.7,4451],[33.9,4535],[35.4,4617],[37,4702],[38,4784],[40.9,4868],[46.4,4952],[47.2,5035],[50.1,5117],[50.1,5201],[50.1,5283],[49.5,5369],[48.8,5451],[48.7,5534],[48.7,5617],[48.7,5701],[48.7,5784],[48.7,5868],[48.7,5951],[48.7,6035],[48.7,6119],[48.7,6202],[48.7,6285],[48.7,6368],[48.6,6453],[47.5,6535],[47.5,6617],[47.5,6702],[45,6786],[43.3,6873],[43.2,6953],[43.2,7036],[43.2,7121],[43.2,7202],[43.2,7286],[42.1,7371],[40.3,7452],[40.3,7535],[40.4,7620],[45.3,7704],[46.4,7786],[47.9,7872],[48.9,7955],[50,8039],[51.1,8121],[51.1,8203],[51.2,8287],[52.8,8372],[53.3,8453],[53.3,8536],[53.3,8621],[53.3,8702],[53.3,8787],[53.3,8871],[53.3,8953],[53.3,9036],[53.3,9119],[53.3,9204],[53.3,9288],[53.3,9370],[53.3,9453],[53.3,9537],[53.3,9622],[53.3,9704],[53.3,9787],[53.3,9870],[53.3,9955],[53.3,10039],[53.3,10122],[53.3,10205],[53.3,10289],[53.3,10371],[53.3,10456],[53.3,10537],[53.3,10621],[53.3,10705],[53.3,10787],[53.3,10873],[53.3,10955],[53.3,11039],[53.3,11121],[51.6,11207],[51.6,11289],[48.7,11376],[48.6,11456],[47.9,11539],[46.8,11623],[46.7,11705],[46.7,11790],[47.8,11874],[55.5,11958],[58.7,12038],[65,12123],[70.4,12207],[76.2,12291],[82.2,12374],[90.5,12458],[95,12540],[97.6,12622],[98.2,12707],[98.4,12790],[98.4,12875],[98.4,12956],[98.7,13041],[98.7,13124],[98.7,13207],[100,13293],[100,13374],[100,13457],[100,13541],[100,13626],[99.9,13707],[98.7,13793],[97.8,13879],[97.8,13969],[97.8,14042],[97.8,14123],[97.8,14210],[97.8,14292],[97.8,14374],[97.8,14470],[97.8,14553],[97.8,14634],[97.8,14717],[97.8,14791],[97.8,14885],[97.8,14959],[97.8,15040],[97.8,15124],[97.8,15209],[97.8,15294],[97.8,15375],[97.8,15466],[97.8,15549],[97.8,15632],[97.8,15707],[97.8,15791],[97.8,15875],[97.8,15958],[97.8,16043],[97.8,16135],[97.8,16217],[97.8,16293],[97.8,16388],[97.8,16460],[97.8,16544],[97.8,16636],[97.8,16709],[97.8,16793],[97.8,16876],[97.8,16960],[97.8,17044],[97.8,17126],[97.8,17221],[97.8,17293],[97.8,17375],[97.8,17460],[97.8,17544],[97.8,17628],[97.8,17722],[97.8,17793],[97.8,17886],[97.8,17963],[97.8,18051],[97.8,18127],[97.8,18210],[97.8,18295],[97.8,18376],[97.8,18461],[97.8,18545],[97.8,18627],[97.8,18712],[97.8,18793],[97.8,18877],[97.8,18962],[97.8,19044],[97.8,19126],[97.8,19212],[97.8,19304],[97.8,19387],[97.8,19464],[97.8,19546],[97.8,19640],[97.8,19726],[97.8,19811],[97.8,19905],[97.8,19987],[97.8,20071],[97.8,20146],[97.8,20232],[97.8,20319],[97.8,20402],[97.8,20487],[97.8,20561],[97.8,20657],[97.8,20728],[97.8,20812],[97.8,20897],[97.8,20980],[97.8,21071],[97.8,21153],[97.8,21230],[97.8,21314],[97.8,21399],[97.8,21481],[97.8,21572],[97.8,21646],[97.8,21730],[97.8,21822],[97.8,21897],[97.8,21982],[97.8,22062],[97.8,22147],[97.8,22237],[97.8,22324],[97.8,22397],[97.8,22487],[97.8,22563],[97.8,22659],[97.8,22732],[97.8,22822],[97.8,22897],[97.8,22980],[97.8,23062],[97.8,23145],[97.8,23228],[97.8,23312],[97.8,23395],[97.8,23477],[97.8,23560],[97.8,23645],[97.8,23728],[97.8,23811],[97.8,23893],[97.8,23977],[97.8,24062],[97.8,24144],[97.8,24227],[97.8,24309],[97.8,24394],[97.8,24477],[97.8,24560],[97.8,24646],[97.8,24727],[97.8,24811],[97.8,24893],[97.8,24977],[97.8,25060],[97.8,25144],[97.8,25227],[97.8,25310],[97.8,25394],[97.8,25476],[97.8,25562],[97.8,25644],[97.8,25728],[97.8,25811]]",0,2,2,2,1,On the ground beside him was a pen that she had mistaken for a knife. Lucy looked for the gunman and saw a suspicious man in black with distinct pointy features darting into an alley across the street. Cops who were nearby chased the man who had fled and arrested him.,"While waiting outside the chief of staff's office, Al heard nondescript shouting and yelling, there was a loud clatter in the room and then an eerie silence. An unfamiliar employee ran hastily out of the office with a terrified look on their face.","Suddenly, Luke heard a woman call out his name and when he turned around he saw Carly, his receptionist, across the road with a gun in her hand. Carly ran to him and explained how she had followed him here to confess her love. She exclaimed if Luke didn't love her back that she would kill him and his family. Carly explained that the only way they could be together is to kill Marta.","This feeling of hate between Amy and Dan was mutual, Dan didn't like how much time his wife spent with her and thought Amy was creating distance between their marriage. That's why Dan decided to try and tarnish Linda's reputation with his wife, in hopes it would get rid of her. He came home one afternoon and exclaimed that Linda had tried to kiss him. Amy was taken aback and immediately called Linda to confront her about these accusations. When Linda arrived she denied having made a move on Dan, but discovered Dan had enlisted the help of his friend Will who said he witnessed it all happen.",,,,,,,,,,
,,,,,,66352811881d6bf26260a155,2024-05-13_08h27.27.770,group3.1-3.2-social-tom,2023.2.2,Windows,59.88023952,65c5074098b851296ff0b7ed,664230dbd51f2625d1ead9a6,,,,,,,,,,,,,,,,,,,,,,,,,,,,,1318.8011,1,audio/Narrative7Situation9.wav,1320.8121,,,,,,,1343.3755,1346.9463,99.21052632,3.2836,"[{""rating"":99.21052631578947,""responseTime"":3.28360000000157}]",space,3.0228,,1343.3713,Not at all,0,1343.3754,,,[],,,,,,,,,,,2,2,1,4,,,,,,,,,,,,,,,,,1320.8123,3,1343.3711,"[[999,1],[999,97],[999,182],[999,265],[999,348],[999,433],[999,515],[999,600],[999,681],[999,772],[999,861],[999,949],[999,1014],[999,1099],[999,1184],[999,1266],[999,1347],[999,1439],[999,1524],[999,1609],[999,1682],[999,1774],[999,1849],[999,1931],[999,2016],[999,2098],[999,2182],[999,2265],[999,2359],[999,2442],[999,2525],[999,2599],[999,2682],[999,2766],[999,2857],[999,2933],[999,3016],[999,3099],[999,3183],[999,3276],[999,3351],[999,3434],[999,3516],[999,3600],[999,3694],[999,3768],[999,3850],[999,3943],[999,4016],[999,4108],[999,4185],[999,4268],[999,4350],[39.9,4435],[39.9,4525],[39.9,4600],[39.9,4692],[39.9,4775],[39.9,4851],[39.9,4941],[39.9,5028],[37.5,5117],[52.6,5534],[44.5,5617],[39.6,5702],[36.8,5788],[33,5868],[32,5951],[31.8,6037],[31.7,6119],[40.1,6202],[65.5,6289],[76.3,6369],[76.3,6451],[76.3,6536],[76.3,6628],[75.3,6702],[67.8,6803],[67.8,6886],[68.2,6969],[68.2,7051],[67.5,7136],[64.9,7220],[64.9,7303],[62.2,7385],[61.3,7469],[61.4,7555],[62.2,7636],[62.2,7720],[63.6,7805],[64.6,7886],[64.6,7969],[64.6,8052],[64.6,8136],[64.6,8219],[64.5,8303],[63.3,8386],[63.3,8471],[62,8553],[61.6,8637],[61.6,8720],[61.6,8803],[61.6,8887],[61.6,8970],[61.6,9053],[61.6,9137],[61.6,9221],[61.8,9304],[62,9388],[62.1,9471],[64.5,9640],[65.1,9720],[65.1,9807],[65.7,9888],[65.7,9971],[65.7,10063],[65.7,10137],[65.7,10224],[65.7,10304],[65.7,10388],[65.7,10471],[65.7,10555],[65.7,10637],[65.7,10722],[65.7,10805],[65.7,10887],[65.7,10971],[65.7,11055],[65.7,11140],[65.7,11221],[65.7,11304],[65.7,11389],[65.7,11472],[65.7,11556],[65.7,11638],[65.7,11721],[65.7,11805],[65.7,11889],[65.7,11972],[65.7,12057],[63.3,12139],[61.6,12225],[61.6,12307],[61.6,12388],[61.6,12472],[61.6,12556],[61.8,12639],[61.8,12723],[61.8,12807],[62.1,12889],[62.5,12973],[62.5,13058],[62.5,13140],[62.5,13223],[62.5,13307],[62.6,13401],[62.4,13482],[62.4,13557],[62.2,13640],[62.1,13724],[62.1,13814],[62.1,13891],[62.1,13973],[62.8,14059],[64.3,14143],[66.1,14226],[67.6,14310],[67.9,14391],[70,14475],[70.7,14557],[71.8,14642],[75.1,14726],[75.5,14813],[79.1,14906],[80.7,14991],[80.7,15075],[80.7,15159],[80.7,15241],[80.7,15325],[81.7,15408],[90,15493],[90.5,15575],[90.5,15658],[93.7,15746],[95.7,15827],[95.7,15911],[95.7,15993],[95.7,16075],[95.7,16159],[95.7,16242],[96.1,16327],[96.2,16410],[97,16491],[97,16577],[97.8,16659],[97.9,16744],[97.9,16827],[98.6,16909],[98.6,16993],[98.9,17078],[99.2,17159],[99.2,17244],[99.2,17327],[99.2,17410],[99.2,17492],[99.2,17575],[99.2,17659],[99.2,17743],[99.2,17827],[99.2,17913],[99.2,17992],[99.2,18077],[99.2,18159],[99.2,18243],[99.2,18326],[99.3,18410],[99.3,18493],[99.3,18577],[99.3,18660],[99.3,18743],[99.3,18826],[99.3,18910],[99.3,18993],[99.3,19074],[99.3,19158],[99.3,19241],[99.3,19324],[99.3,19408],[99.3,19491],[99.3,19573],[99.3,19656],[99.3,19742],[99.3,19823],[99.6,19910],[99.6,19991],[99.6,20074],[99.6,20156],[99.6,20240],[99.6,20322],[99.6,20406],[99.6,20490],[99.6,20574],[99.6,20657],[99.6,20739],[99.6,20824],[99.6,20907],[99.6,20990],[99.6,21074],[99.6,21156],[99.6,21240],[99.6,21324],[99.6,21407],[99.6,21490],[99.6,21575],[99.6,21658],[99.6,21740],[99.6,21823],[99.6,21908],[99.6,21990],[99.6,22074],[99.6,22157],[99.6,22241],[99.6,22325],[99.6,22409],[99.6,22491]]",0,3,3,3,1,"But Lucy knew the charged man was innocent, which meant the killer was free. Lucy vowed to find out who the real murderer was and to stop him at all costs.","Al explained to the chief of staff that Margaret wanted to be excused from her absences last week. The chief of staff, Susan, revealed that she wanted to fire Margaret and never see her again. Susan and Al had been having an affair and she wanted Margaret ""out of the picture"". Al was conflicted, but agreed it would be for the best.","Luke thought of his child and felt like this was his only option. He agreed to the plan and called his wife to meet him at the swamp to watch the sunset with him. When she arrived, Marta called out for her husband, but found Carly waiting for her. She immediately drew her gun and shot her in the chest, knocking her unconscious.","Since it was their word against her own, she decided to go home and admit defeat. She knew how much it would hurt Amy to know the truth.",,,,,,,,,,
,,,,,,66352811881d6bf26260a155,2024-05-13_08h27.27.770,group3.1-3.2-social-tom,2023.2.2,Windows,59.88023952,65c5074098b851296ff0b7ed,664230dbd51f2625d1ead9a6,,,,,,,,,,,,,,,,,,,,,,,,,,,,,1346.947,1,audio/Narrative7Situation9.wav,1347.9472,,,,,,,1370.5017,1374.9697,52.63157895,4.0415,"[{""rating"":52.23684210526316,""responseTime"":2.9252999999969234},{""rating"":52.63157894736842,""responseTime"":4.0414999999998145}]",space,3.9209,,1370.496,Not at all,0,1370.5016,,,[],,,,,,,,,,,1,1,3,3,,,,,,,,,,,,,,,,,1347.9473,3,1370.4958,"[[97.2,7467],[97,7547],[96.6,7634],[96.6,7705],[96.4,7787],[96.4,7879],[96.4,7953],[89.1,8039],[71.6,8122],[58,8205],[55.3,8288],[55,8373],[48,8457],[38.2,8540],[30.8,8624],[25.3,8705],[23.4,8788],[22,8882],[20.7,8969],[19.9,9045],[19.9,9127],[19.9,9204],[20.1,9296],[20.1,9371],[20.1,9456],[22.4,9550],[22.5,9621],[22,9706],[21.3,9788],[19.5,9873],[19.1,9956],[19.1,10049],[18,10137],[15.5,10218],[15.1,10296],[15.1,10373],[15.9,10457],[16.1,10546],[16.1,10623],[16.4,10705],[20.1,10790],[20.3,10874],[20.3,10956],[22.2,11040],[24.9,11123],[25.8,11206],[30.8,11291],[31.4,11380],[31.8,11457],[33.6,11549],[33.6,11624],[33.4,11716],[32.2,11802],[31.8,11884],[31.2,11956],[30.3,12041],[30.3,12131],[30.3,12208],[30.3,12298],[30.3,12375],[36.1,12473],[37.8,12558],[37.8,12640],[39.5,12726],[40.3,12808],[40.3,12893],[40.3,12974],[40.3,13057],[40.3,13140],[40.3,13225],[40.3,13307],[40.3,13390],[40.3,13473],[40.3,13557],[40.3,13640],[40.3,13724],[40.3,13809],[40.3,13891],[40.3,13974],[40.3,14059],[40.4,14144],[41.4,14224],[42.4,14308],[43.4,14392],[43.4,14474],[44.5,14559],[44.7,14642],[44.7,14726],[44.7,14810],[44.7,14892],[44.7,14977],[44.7,15059],[44.7,15144],[49.7,15227],[52.4,15310],[52.5,15392],[52.5,15476],[52.5,15560],[52.5,15643],[52.9,15726],[52.9,15808],[52.9,15893],[52.9,15978],[52.9,16060],[52.9,16142],[52.9,16226],[52.9,16309],[52.9,16393],[52.9,16476],[52.9,16561],[52.9,16644],[52.9,16726],[52.9,16810],[52.9,16894],[52.9,16977],[52.9,17062],[52.9,17144],[53,17228],[53,17311],[53,17395],[53.8,17478],[53.8,17561],[53.8,17646],[53.8,17728],[55.3,17811],[55.4,17894],[55.4,17977],[55.4,18062],[55.4,18144],[55.4,18227],[56.4,18313],[57.4,18395],[60.1,18478],[60.3,18562],[60.3,18646],[60.1,18727],[60,18813],[59.9,18896],[59.9,18977],[59.9,19062],[59.9,19145],[59.7,19229],[58.6,19313],[58.6,19395],[58.6,19478],[58.6,19562],[58.6,19645],[58.6,19730],[55.4,19812],[55,19897],[54.6,19979],[54.6,20063],[55.8,20147],[57.5,20230],[58.9,20313],[60,20397],[60,20481],[60,20563],[58.8,20646],[57,20732],[54.7,20815],[52.2,20898],[51.3,20982],[50.8,21063],[50.8,21146],[50.8,21229],[55.9,21314],[57.2,21396],[58.4,21480],[58.8,21564],[59.2,21647],[59.5,21731],[59.5,21813],[59.5,21898],[59.5,21981],[59.6,22067],[59.6,22147],[59.6,22232],[59.6,22314],[59.6,22399],[59.6,22480]]",0,4,4,4,1,"The next day the mayors successor, Mr. Smith, a man who was very unpopular due to his strong ties to the oil companies, took office. After a long day of brainstorming about the mysterious killer, Lucy decided to attend his welcome ceremony in the city. During the mayor's speech, she noticed one of the security guards looked strangely familiar. It dawned on her that this new mayor had motive to kill and that the man in black could've been the guard working for him.","Weeks passed and nobody had seen Margaret. Coworkers and friends searched the nearby city looking for her. One day on patrol in a nearby town, a police officer heard someone crying for help in the basement of a house and went in to investigate. Margaret yelled that she was being held captive and needed help.","Luke ran to Marta, and filled with regret over his decision to go along with Carly's plan, picked her up and rushed her to the hospital. The doctors tried to help Marta by taking her into emergency surgery but failed to save her life. Once the doctor called the time of death, Luke fell to his knees and sobbed over his rash decision.","Months later Dan had taken up a mistress, he was growing bored with his marriage ever since he got rid of Linda and was only still with Amy for her family's money. In a hotel room in a nearby town, Dan and his mistress, Nicole, conspired to secretly kill Amy while still obtaining her fortune.",,,,,,,,,,
