exp_question,consent.started,consent.stopped,consentResponse.keys,consentResponse.rt,consentResponse.duration,participantID,date,expName,psychopyVersion,OS,frameRate,STUDY_ID,SESSION_ID,opening1.started,opening1.stopped,keyEndingOpening1.keys,keyEndingOpening1.rt,keyEndingOpening1.duration,volumeAdjust.started,volumeAdjust.stopped,endingAdjust.keys,endingAdjust.rt,endingAdjust.duration,opening2.started,opening2.stopped,keyEndingOpening.keys,keyEndingOpening.rt,keyEndingOpening.duration,mouse.x,mouse.y,mouse.leftButton,mouse.midButton,mouse.rightButton,mouse.time,instructionLoop.thisRepN,instructionLoop.thisTrialN,instructionLoop.thisN,instructionLoop.thisIndex,instructionLoop.ran,readyForAudio.started,readyForAudio.stopped,fixation.started,run,audio_played,fixation.stopped,endPractice.keys,audioPre.started,audioPre.stopped,continuousResponses_audio,continuousSlider.response,continuousSlider.rt,intRating.started,intRating.stopped,intQuestionSlider.response,intQuestionSlider.rt,intQuestionSlider.history,confirmResponse.keys,confirmResponse.rt,confirmResponse.duration,catchQuestion.started,catch_label,catch_value,catchQuestion.stopped,catchQuestionSlider.response,catchQuestionSlider.rt,catchQuestionSlider.history,confirmResponse_2.keys,audioRunLoop.thisRepN,audioRunLoop.thisTrialN,audioRunLoop.thisN,audioRunLoop.thisIndex,audioRunLoop.ran,conditions1_1,conditions2_1,conditions1_2,conditions2_2,dur1_1,dur2_1,dur1_2,dur2_2,endPractice.rt,endPractice.duration,confirmResponse_2.rt,confirmResponse_2.duration,runIntervalBreak.started,runIntervalBreak.stopped,endingBreakKey.keys,connection.started,connection.stopped,connectionEnding.keys,connectionEnding.rt,connectionEnding.duration,readyForText.started,readyForText.stopped,textPre.started,run_dup,textPre.stopped,continuousResponses_text,textRunLoop.thisRepN,textRunLoop.thisTrialN,textRunLoop.thisN,textRunLoop.thisIndex,textRunLoop.ran,text1_1,text1_2,text2_1,text2_2,runBreakText.started,runBreakText.stopped,endingBreakKey_2.keys,ending.started,ending.stopped,endingEnding.keys,endingEnding.rt,endingEnding.duration
social,0,34.44,y,34.069,,66350027a37d96b687525725,2024-05-13_16h48.37.251,group3.1-3.2-social-tom,2023.2.2,Win32,60.0240096,65c5074098b851296ff0b7ed,6642344f46ca20fbe6114822,,,,,,,,,,,,,,,,,,,,,,,,,,,,,,,,,,,,,,,,,,,,,,,,,,,,,,,,,,,,,,,,,,,,,,,,,,,,,,,,,,,,,,,,,,,,,,,,,,,,,,
,,,,,,66350027a37d96b687525725,2024-05-13_16h48.37.251,group3.1-3.2-social-tom,2023.2.2,Win32,60.0240096,65c5074098b851296ff0b7ed,6642344f46ca20fbe6114822,34.44,56.995,space,22.472,,,,,,,,,,,,,,,,,,,,,,,,,,,,,,,,,,,,,,,,,,,,,,,,,,,,,,,,,,,,,,,,,,,,,,,,,,,,,,,,,,,,,,,,,,,,,,,,,,
,,,,,,66350027a37d96b687525725,2024-05-13_16h48.37.251,group3.1-3.2-social-tom,2023.2.2,Win32,60.0240096,65c5074098b851296ff0b7ed,6642344f46ca20fbe6114822,,,,,,56.996,105.208,space,47.875,,,,,,,,,,,,,,,,,,,,,,,,,,,,,,,,,,,,,,,,,,,,,,,,,,,,,,,,,,,,,,,,,,,,,,,,,,,,,,,,,,,,,,,,,,,,,
,,,,,,66350027a37d96b687525725,2024-05-13_16h48.37.251,group3.1-3.2-social-tom,2023.2.2,Win32,60.0240096,65c5074098b851296ff0b7ed,6642344f46ca20fbe6114822,,,,,,,,,,,105.245,123.925,space,18.647,,[],[],[],[],[],[],0,0,0,0,1,,,,,,,,,,,,,,,,,,,,,,,,,,,,,,,,,,,,,,,,,,,,,,,,,,,,,,,,,,,,,,,,,,,,,,,,,,,,
,,,,,,66350027a37d96b687525725,2024-05-13_16h48.37.251,group3.1-3.2-social-tom,2023.2.2,Win32,60.0240096,65c5074098b851296ff0b7ed,6642344f46ca20fbe6114822,,,,,,,,,,,123.926,223.372,space,99.288,,[],[],[],[],[],[],1,0,1,0,1,,,,,,,,,,,,,,,,,,,,,,,,,,,,,,,,,,,,,,,,,,,,,,,,,,,,,,,,,,,,,,,,,,,,,,,,,,,,
,,,,,,66350027a37d96b687525725,2024-05-13_16h48.37.251,group3.1-3.2-social-tom,2023.2.2,Win32,60.0240096,65c5074098b851296ff0b7ed,6642344f46ca20fbe6114822,,,,,,,,,,,223.385,263.78,space,40.301,,[0.15],[-0.775],[1],[0],[0],[37.983000000000004],2,0,2,0,1,,,,,,,,,,,,,,,,,,,,,,,,,,,,,,,,,,,,,,,,,,,,,,,,,,,,,,,,,,,,,,,,,,,,,,,,,,,,
,,,,,,66350027a37d96b687525725,2024-05-13_16h48.37.251,group3.1-3.2-social-tom,2023.2.2,Win32,60.0240096,65c5074098b851296ff0b7ed,6642344f46ca20fbe6114822,,,,,,,,,,,263.805,375.085,space,111.223,,[],[],[],[],[],[],3,0,3,0,1,,,,,,,,,,,,,,,,,,,,,,,,,,,,,,,,,,,,,,,,,,,,,,,,,,,,,,,,,,,,,,,,,,,,,,,,,,,,
,,,,,,66350027a37d96b687525725,2024-05-13_16h48.37.251,group3.1-3.2-social-tom,2023.2.2,Win32,60.0240096,65c5074098b851296ff0b7ed,6642344f46ca20fbe6114822,,,,,,,,,,,375.091,395.589,space,20.439,,[],[],[],[],[],[],4,0,4,0,1,,,,,,,,,,,,,,,,,,,,,,,,,,,,,,,,,,,,,,,,,,,,,,,,,,,,,,,,,,,,,,,,,,,,,,,,,,,,
,,,,,,66350027a37d96b687525725,2024-05-13_16h48.37.251,group3.1-3.2-social-tom,2023.2.2,Win32,60.0240096,65c5074098b851296ff0b7ed,6642344f46ca20fbe6114822,,,,,,,,,,,,,,,,,,,,,,,,,,,395.591,398.167,398.204,1,audio/Narrative13Situation2.wav,400.224,,400.225,429.995,"[[999,8],[999,152],[999,277],[999,398],[999,509],[999,637],[999,754],[999,870],[999,985],[999,1106],[999,1216],[999,1331],[999,1424],[999,1531],[999,1657],[999,1763],[999,1871],[999,1975],[999,2077],[999,2196],[999,2287],[999,2382],[999,2503],[999,2589],[999,2680],[999,2774],[999,2856],[999,2966],[999,3070],[999,3172],[999,3269],[999,3379],[999,3475],[999,3592],[999,3706],[999,3788],[999,3877],[19.6,3988],[20.5,4081],[21.3,4204],[21.8,4292],[22.9,4419],[23.2,4524],[23.5,4625],[23.5,4728],[23.5,4855],[23.5,4938],[23.5,5024],[23.6,5121],[23.6,5239],[23.8,5355],[23.8,5495],[80,6990],[84.1,7132],[85.5,7250],[85.8,7369],[85.9,7488],[85.9,7614],[85.9,7726],[85.9,7855],[85.7,7964],[85.6,8076],[84.8,8209],[83.9,8316],[81.9,8437],[81.1,8541],[80.9,8656],[80.6,8794],[80.6,8892],[80.5,9005],[80.5,9109],[80.2,9228],[80.1,9339],[79.9,9478],[79.7,9581],[78.9,9693],[16.1,12906],[9.8,13029],[6,13149],[4.3,13278],[4.2,13392],[79.3,14562],[74.5,14686],[71.5,14793],[70.8,14904],[70.7,15019],[70.7,15129],[70.8,15230],[71.5,15360],[71.8,15450],[71.5,15538],[69.5,15658],[68.2,15773],[67.4,15879],[67.2,15985],[67,16092],[67,16197],[67,16293],[67.5,16388],[74.6,18186],[75.8,18311],[76.3,18427],[76.4,18528],[76.4,18643],[76.4,18750],[76.1,18861],[75.8,18990],[75.6,19121],[75.4,19209],[74.9,19335],[74.6,19447],[74.6,19562],[74.6,19656],[74.6,19784],[74.6,19901],[74.6,19990],[74.6,20110],[73.8,20253],[73.4,20382],[73.4,20485],[73.4,20586],[73.4,20698],[73.4,20799],[73.4,20887],[74.9,21002],[74.9,21110],[75,21207],[75.6,21322],[75.8,21437],[75.8,21538],[75.8,21649],[76,21760],[77.4,21877],[78,22000],[79,22116],[80.1,22222],[80.7,22341],[82.6,22455],[83.5,22560],[85.8,22686],[88.4,22802],[90,22913],[91.1,23026],[91.3,23134],[91.3,23245],[91.3,23351],[91.3,23462],[89.7,24336],[88.3,24467],[86.8,24586],[86.3,24706],[85.5,24816],[85.5,24935],[85.5,25032],[83.5,25156],[82,25274],[82,25373],[81.9,25478],[79.6,25615],[76.9,25754],[76,25870],[84.9,26919],[85,27043],[85.2,27171],[86.4,27282],[86.8,27413],[86.9,27538],[86.9,27652],[86.9,27760],[86.9,27864],[86.9,27976],[86.7,28089],[86.6,28196],[86.5,28302],[86.5,28414],[86.5,28522],[86.6,28639],[86.7,28749],[86.7,29728]]",1,0,429.997,450.95,90.3125,11.595,"[{""rating"":90.3125,""responseTime"":11.595000000000027}]",space,20.368,,450.95,Partially,50,450.975,,,[],,0,0,0,0,1,audio/Narrative13Situation2.wav,audio/Narrative13Situation2.wav,audio/Narrative13Situation2.wav,audio/Narrative13Situation2.wav,2,2,2,2,,,,,,,,,,,,,,,,,,,,,,,,,,,,,,,,,,,
,,,,,,66350027a37d96b687525725,2024-05-13_16h48.37.251,group3.1-3.2-social-tom,2023.2.2,Win32,60.0240096,65c5074098b851296ff0b7ed,6642344f46ca20fbe6114822,,,,,,,,,,,,,,,,,,,,,,,,,,,,,450.975,1,audio/Narrative8Situation1.wav,455.834,space,455.835,471.77,"[[999,9],[999,112],[999,213],[999,322],[999,428],[999,522],[999,638],[999,750],[999,826],[999,917],[999,1028],[999,1152],[999,1261],[999,1351],[999,1466],[999,1577],[999,1705],[999,1826],[999,1951],[999,2057],[999,2167],[999,2298],[999,2413],[999,2551],[999,2652],[999,2764],[999,2890],[999,2984],[999,3101],[999,3222],[999,3327],[999,3466],[999,3562],[999,3667],[999,3787],[999,3903],[999,4013],[999,4129],[999,4235],[999,4331],[60,4458],[78.1,4615],[81.4,4729],[86.1,4865],[89.2,4981],[89.7,5092],[89.8,5182],[89.2,5323],[83.8,5457],[79.5,5581],[77.7,5708],[77,5817],[76.5,5927],[76.4,6043],[76.8,6159],[79.1,6293],[80.4,6413],[81.5,6538],[82.3,6659],[82.4,6760],[82.4,6870],[82.4,6987],[82.4,7105],[80.7,7225],[79.7,7346],[78.8,7461],[78,7580],[77.2,7697],[94.7,10784],[94,10903],[93.4,11024],[93.4,11119],[92.7,11254],[92.1,11394],[91.9,11511],[91.7,11601],[91.6,11726],[91.4,11849],[91.5,11966],[91.7,12081],[91.9,12200],[92,12335],[91.7,12452],[91.4,12581],[91,12701],[90.8,12809],[90.8,12929],[90.9,13032],[91.1,13139],[91.4,13250],[91.4,13355],[91.5,13462],[91.7,13576],[91.9,13693],[91.8,13802],[91.7,13918],[91.3,14038],[89.6,14149],[88.3,14267],[87.3,14380],[86.9,14481],[86.9,14591],[86.9,14698],[88,14821],[90.7,14937],[92.9,15046],[93.6,15164],[94,15263],[94.6,15389],[95.1,15514],[95.1,15612],[95.2,15721],[95.2,15822],[95.1,15932]]",1,0,471.77,486.053,100,10.932,"[{""rating"":96.77083333333334,""responseTime"":9.357999999999947},{""rating"":100,""responseTime"":10.932000000000016}]",space,13.705,,486.058,Definitely yes,100,486.092,,,[],,0,1,1,1,1,audio/Narrative7Situation1.wav,audio/Narrative8Situation1.wav,audio/Narrative5Situation1.wav,audio/Narrative6Situation1.wav,2,5,5,2,4.841,,,,,,,,,,,,,,,,,,,,,,,,,,,,,,,,,,
,,,,,,66350027a37d96b687525725,2024-05-13_16h48.37.251,group3.1-3.2-social-tom,2023.2.2,Win32,60.0240096,65c5074098b851296ff0b7ed,6642344f46ca20fbe6114822,,,,,,,,,,,,,,,,,,,,,,,,,,,,,486.092,1,audio/Narrative8Situation2.wav,489.093,,489.094,499.224,"[[999,1],[999,114],[999,230],[999,327],[999,447],[999,549],[999,649],[999,752],[999,841],[999,928],[999,1043],[999,1149],[999,1269],[999,1389],[999,1515],[999,1646],[999,1751],[999,1843],[999,1980],[999,2068],[999,2187],[999,2289],[999,2403],[999,2499],[999,2624],[46.1,2744],[44.8,2866],[44.2,2976],[44.2,3085],[44,3192],[43.3,3311],[43,3424],[42.7,3537],[42.4,3649],[42.4,3760],[42,3880],[40.6,4005],[39,4126],[33.8,4273],[31.1,4390],[27.7,4514],[25.9,4640],[25.9,4758],[25.5,4861],[25.5,4978],[25.4,5088],[25,5202],[21.8,5322],[19.8,5457],[11.5,5579],[9.1,5712],[7.3,5840],[6.3,5957],[6.1,6057],[6.1,6170],[6.1,6283],[6.1,6383],[6.1,6476],[6.1,6591],[6.1,6692],[6.3,6804],[6.6,6929],[7.4,7033],[7.6,7148],[7.6,7256],[7.6,7360],[7.6,7463],[7.6,7582],[7.6,7689],[7.7,7799],[7.7,7908],[7.7,7997],[7.7,8106],[7.7,8216],[6.9,8331],[6.7,8437],[6.4,8558],[6,8659],[6,8760],[6,8877],[6,8980],[6,9076],[6.5,9199],[8.1,9332],[9,9447],[9.4,9552],[9.5,9665],[9.5,9759],[9.5,9875],[9.5,9989],[9.6,10106]]",1,0,499.224,508.141,5.833333333,7.241,"[{""rating"":9.270833333333334,""responseTime"":6.191000000000031},{""rating"":5.833333333333335,""responseTime"":7.2409999999999854}]",space,8.327,,508.142,Not at all,0,508.156,,,[],,0,2,2,2,1,audio/Narrative7Situation2.wav,audio/Narrative8Situation2.wav,audio/Narrative5Situation2.wav,audio/Narrative6Situation2.wav,3,3,3,3,,,,,,,,,,,,,,,,,,,,,,,,,,,,,,,,,,,
,,,,,,66350027a37d96b687525725,2024-05-13_16h48.37.251,group3.1-3.2-social-tom,2023.2.2,Win32,60.0240096,65c5074098b851296ff0b7ed,6642344f46ca20fbe6114822,,,,,,,,,,,,,,,,,,,,,,,,,,,,,508.157,1,audio/Narrative8Situation3.wav,512.176,,512.176,534.555,"[[20.6,1336],[20.3,1463],[20.3,1572],[20.2,1677],[20.2,1790],[20.2,1895],[20.2,1986],[20.2,2100],[20.2,2181],[20.2,2279],[20.2,2370],[20.1,2471],[20.1,2591],[20.1,2688],[20,2801],[19.9,2909],[19.9,3008],[19.9,3100],[19.8,3201],[19.8,3290],[23.3,5836],[36.7,5961],[85.8,6658],[86.9,6769],[88.6,6900],[89.4,7030],[89.4,7135],[89.4,7245],[89.4,7364],[89.9,7489],[90.8,7573],[91,7668],[91.4,7778],[91.5,7865],[91.8,7956],[92,8052],[92.2,8159],[92.3,8266],[92,8396],[91.4,8519],[89.1,8646],[77.7,8769],[75.1,8876],[74.1,8986],[74,9088],[76.1,9192],[80.2,9306],[82.2,9429],[84,9538],[85.5,9663],[86.8,9773],[87.7,9903],[88.2,10038],[88.8,10134],[89.3,10259],[89.6,10374],[89.6,10470],[89.6,10581],[88.5,10697],[87.3,10787],[87,10886],[86.8,10971],[86,11091],[85.7,11206],[84.8,11323],[84,11442],[83.9,11567],[82.9,11677],[82.4,11794],[82.3,11899],[81.4,12024],[80.8,12144],[80.4,12254],[80,12370],[79.9,12480],[79.6,12596],[79.6,12706],[79.6,12807],[79.6,12913],[79.6,13033],[79.2,13158],[79.2,13275],[79,13385],[78.9,13487],[78.8,13597],[78.6,13717],[78.6,13794],[80.4,13884],[84.1,14009],[85.6,14120],[87.8,14223],[87.3,14322],[84.1,14439],[80.9,14566],[75.9,14688],[74.7,14814],[73.9,14908],[72.3,15028],[71.5,15120],[70.7,15220],[70.1,15337],[70,15442],[69.9,15533],[69.9,15610],[69.5,15697],[68.3,15803],[68,15899],[66.4,16037],[65.7,16146],[64.4,16284],[63.5,16379],[62.6,16481],[61.5,16601],[59.3,17725],[59.8,17838],[60.7,17958],[60.7,18077],[60.7,18186],[60.9,18288],[61.1,18408],[61.3,18515],[61.5,18629],[62.1,18734],[64.4,19333],[63.2,19446],[61.3,19566],[60.6,19669],[59.9,19793],[59.4,19907],[58.6,20025],[58.1,20120],[58.1,20216],[58.1,20309],[58.1,20422],[58.1,20515],[61,20644],[62.3,20758],[63.2,20851],[64.6,20947],[65,21049],[65.8,21160],[68.4,21273],[69.1,21371],[71.8,21505],[72.5,21597],[73.4,21716],[74.5,21822],[75.9,21942],[78,22081],[78.9,22163],[79,22263],[79.3,22343]]",1,0,534.555,539.706,65.41666667,3.505,"[{""rating"":65.41666666666667,""responseTime"":3.5049999999999955}]",space,4.597,,539.707,Not at all,0,539.716,,,[],,0,3,3,3,1,audio/Narrative7Situation3.wav,audio/Narrative8Situation3.wav,audio/Narrative5Situation3.wav,audio/Narrative6Situation3.wav,8,4,3,5,,,,,,,,,,,,,,,,,,,,,,,,,,,,,,,,,,,
,,,,,,66350027a37d96b687525725,2024-05-13_16h48.37.251,group3.1-3.2-social-tom,2023.2.2,Win32,60.0240096,65c5074098b851296ff0b7ed,6642344f46ca20fbe6114822,,,,,,,,,,,,,,,,,,,,,,,,,,,,,539.716,1,audio/Narrative8Situation4.wav,542.726,,542.728,556.949,"[[64.1,355],[63.9,480],[63.8,574],[63.8,671],[63.9,794],[64,889],[64,999],[64,1122],[64,1240],[63.9,1324],[63.8,1453],[63.8,1559],[63.8,1678],[63.8,1785],[63.5,1903],[63.6,2005],[63.8,2112],[63.8,2221],[60.9,3813],[60.7,3923],[60.7,4029],[60.7,4124],[60.9,4228],[69.1,5762],[69.2,5881],[68.4,5999],[68.1,6122],[67.6,6245],[67.4,6360],[67.2,6483],[65.4,7395],[65.2,7497],[77.4,7658],[82.8,7754],[83.4,7884],[86.4,8007],[86.7,8107],[87.2,8222],[87.2,8304],[97.9,9126],[97.5,9240],[97.7,9363],[97.9,9478],[97.6,9605],[96.6,9732],[96,9832],[95.1,9939],[94.8,10067],[94.4,10175],[94.4,10288],[94.4,10375],[94.7,10493],[95,10586],[95.1,10671],[95.3,10769],[95.5,10879],[96,10999],[96,11110],[96,11212],[96,11305],[96,11408],[96.3,11495],[96.5,11610],[96.6,11718],[96.9,11827],[97.4,11940],[97.7,12062],[97.7,12177],[97.7,12304],[97.7,12433],[97.7,12543],[97.7,12654],[97.4,12773],[97.2,12886],[96.8,13004],[96.3,13134],[95.8,13274],[95.7,13375],[95.7,13491],[95.5,13635],[95,13741],[94.9,13870],[94.6,14000],[94.5,14102],[94.1,14221]]",1,0,556.95,562.095,93.75,1.295,"[{""rating"":93.75,""responseTime"":1.294999999999959}]",space,4.599,,562.095,Partially,50,562.13,,,[],,0,4,4,4,1,audio/Narrative7Situation4.wav,audio/Narrative8Situation4.wav,audio/Narrative5Situation4.wav,audio/Narrative6Situation4.wav,3,3,1,2,,,,,,,,,,,,,,,,,,,,,,,,,,,,,,,,,,,
,,,,,,66350027a37d96b687525725,2024-05-13_16h48.37.251,group3.1-3.2-social-tom,2023.2.2,Win32,60.0240096,65c5074098b851296ff0b7ed,6642344f46ca20fbe6114822,,,,,,,,,,,,,,,,,,,,,,,,,,,,,562.13,1,audio/Narrative8Situation5.wav,564.133,,564.134,572.409,"[[61.8,311],[62.1,427],[62.7,572],[62.7,677],[63.1,787],[63.2,885],[63.5,993],[64.7,1100],[65.8,1216],[66.8,1327],[67.2,1449],[68,1561],[70.2,1685],[75.4,2663],[76.7,2788],[77.5,2899],[80.6,3247],[81.7,3351],[82.8,3460],[83.4,3565],[84.1,3694],[86.3,3802],[87.3,3928],[87.7,4056],[88.3,4167],[88.9,4288],[89.2,4396],[89.2,4514],[89,4628],[88.6,4755],[83.9,4909],[64.6,5986],[64.3,6101],[64.2,6224],[64.2,6334],[64.8,6459],[66.8,6574],[67.2,6678],[68.9,6806],[69.4,6913],[70.6,7041],[70.7,7149],[70.7,7242],[69.6,7363],[68.8,7469],[68.8,7562],[69,7663],[71.5,7779],[72.2,7897],[74.9,8014],[75.9,8111],[81.9,8224]]",1,0,572.41,582.041,81.875,3.867,"[{""rating"":81.875,""responseTime"":3.866999999999962}]",space,9.062,,582.043,Partially,50,582.081,,,[],,0,5,5,5,1,audio/Narrative7Situation5.wav,audio/Narrative8Situation5.wav,audio/Narrative5Situation5.wav,audio/Narrative6Situation5.wav,5,2,5,2,,,,,,,,,,,,,,,,,,,,,,,,,,,,,,,,,,,
,,,,,,66350027a37d96b687525725,2024-05-13_16h48.37.251,group3.1-3.2-social-tom,2023.2.2,Win32,60.0240096,65c5074098b851296ff0b7ed,6642344f46ca20fbe6114822,,,,,,,,,,,,,,,,,,,,,,,,,,,,,582.082,1,audio/Narrative8Situation6.wav,584.083,,584.083,590.568,"[[999,1],[999,121],[999,242],[47.2,347],[45.6,464],[44.8,569],[44.2,663],[43.8,778],[43.2,902],[43.3,1007],[43.8,1129],[44.3,1248],[44.9,1361],[45.3,1474],[48.1,1586],[48.4,1691],[48.5,1772],[48.9,1892],[49.3,1987],[49.5,2076],[49.7,2173],[49.8,2288],[50.2,2414],[50.6,2512],[51.5,2623],[51.9,2741],[52.6,2861],[52.8,2969],[53.1,3088],[53.4,3206],[53.9,3322],[54.3,3442],[54.5,3554],[54.8,3662],[55.1,3794],[55.1,3895],[55.1,4005],[56.5,4129],[61.9,4252],[62.1,4366],[66.7,4495],[74.2,4614],[79.3,4750],[89.2,4867],[93.2,4979],[93.8,5088],[93.8,5203],[93.8,5310],[93.8,5404],[93.4,5519],[92.9,5626],[92.8,5730],[91.9,5847],[91.1,5951],[89.9,6052],[89.4,6142],[87.9,6259],[86.8,6360],[83,6453]]",1,0,590.571,594.348,90.9375,2.349,"[{""rating"":90.9375,""responseTime"":2.3490000000000464}]",space,3.204,,594.35,Partially,50,594.365,,,[],,0,6,6,6,1,audio/Narrative7Situation6.wav,audio/Narrative8Situation6.wav,audio/Narrative5Situation6.wav,audio/Narrative6Situation6.wav,3,2,3,2,,,,,,,,,,,,,,,,,,,,,,,,,,,,,,,,,,,
,,,,,,66350027a37d96b687525725,2024-05-13_16h48.37.251,group3.1-3.2-social-tom,2023.2.2,Win32,60.0240096,65c5074098b851296ff0b7ed,6642344f46ca20fbe6114822,,,,,,,,,,,,,,,,,,,,,,,,,,,,,594.369,1,audio/Narrative8Situation7.wav,597.403,,597.403,609.492,"[[44.6,118],[44.5,212],[44.4,313],[44.4,433],[44.4,543],[45,634],[47.6,752],[47.9,863],[48,955],[48.6,1071],[48.6,1161],[48.8,1260],[48.9,1350],[49,1471],[49.3,1576],[49.4,1687],[49.5,1783],[49.6,1889],[49.6,2003],[49.6,2115],[49.6,2223],[49.6,2321],[49.6,2431],[50.2,2562],[50.7,2677],[53.1,2801],[56.3,2913],[60,3032],[65.1,3163],[67.1,3288],[67.3,3389],[67.3,3519],[67.3,3623],[67.3,3741],[67.3,3853],[67.3,3949],[68.1,4063],[68.4,4180],[68.5,4283],[69.1,4379],[69.8,4517],[70.6,4652],[70.8,4739],[70.8,4818],[70.8,4913],[70.8,5023],[71,5129],[71.1,5229],[71.1,5326],[69.8,5451],[66.4,5570],[65.9,5671],[62.7,5781],[62.6,5882],[62.6,5967],[59.4,6096],[58.4,6195],[56.5,6322],[55.8,6445],[55.2,6557],[54.6,6668],[54.5,6769],[54.4,6858],[54.3,6942],[54.3,7028],[54.3,7106],[54.3,7192],[54.7,7283],[56.8,7384],[57.1,7466],[58.9,7586],[60.8,7695],[61,7817],[61,7911],[61,8018],[61,8147],[60.8,8245],[59.1,8368],[58.1,8480],[57.3,8605],[55.2,8726],[53.2,8836],[52.2,8952],[50.9,9084],[49.7,9207],[47.6,9329],[46.7,9445],[45,9581],[43.9,9740],[40.1,9871],[40,9962],[40,10070],[40,10177],[40.1,10267],[40.2,10374],[40.6,10480],[41.8,10623],[42.2,10730],[43,10853],[43.1,10942],[43.2,11042],[43.2,11143],[43.2,11253],[43.3,11350],[44.2,11474],[44.3,11558],[44.7,11677],[45.6,11791],[45.8,11885],[46,11988],[46,12089]]",1,0,609.492,613.352,34.375,1.789,"[{""rating"":34.375,""responseTime"":1.7889999999999873}]",space,3.299,,613.353,Partially,50,613.372,,,[],,0,7,7,7,1,audio/Narrative7Situation7.wav,audio/Narrative8Situation7.wav,audio/Narrative5Situation7.wav,audio/Narrative6Situation7.wav,5,3,4,5,,,,,,,,,,,,,,,,,,,,,,,,,,,,,,,,,,,
,,,,,,66350027a37d96b687525725,2024-05-13_16h48.37.251,group3.1-3.2-social-tom,2023.2.2,Win32,60.0240096,65c5074098b851296ff0b7ed,6642344f46ca20fbe6114822,,,,,,,,,,,,,,,,,,,,,,,,,,,,,613.373,1,audio/Narrative8Situation8.wav,616.382,,616.383,629.262,"[[48.4,793],[48.4,895],[48.4,1000],[48.4,1091],[48.4,1182],[47.8,1284],[47.3,1394],[46.6,1504],[46.5,1618],[46.5,1722],[46.5,1840],[45.8,1960],[45.3,2072],[44.9,2193],[44.3,2293],[41.3,2439],[34.1,2564],[27.8,2692],[23.6,2811],[21.3,2936],[21.3,3030],[20.4,3153],[17.1,3283],[12.1,3413],[10.8,3528],[9.4,3640],[8,3768],[6.9,3884],[6.7,3987],[6.7,4109],[6.7,4225],[6.7,4325],[6.7,4431],[6.7,4562],[6.7,4668],[6.7,4774],[6.7,4876],[6.7,4985],[6.8,5105],[7.1,5227],[7.2,5326],[7.8,5447],[7.9,5543],[8.2,5668],[8.6,5783],[9.2,5879],[10.6,5980],[10.9,6083],[11.3,6177],[11.5,6308],[12.3,6413],[12.7,6533],[15.5,6659],[17.5,6782],[18.5,6899],[20.3,7001],[23,7116],[24.7,7224],[27,7336],[28.8,7448],[29.8,7552],[30.9,7644],[32,7770],[33.2,7909],[33.5,8010],[33.6,8124],[33.6,8239],[33.6,8347],[27,8487],[18.2,8629],[17.7,8735],[17.5,8844],[17.5,8948],[22.8,9095],[24.7,9210],[25.1,9306],[25.9,9438],[26,9529],[26.4,9658],[26.8,9756],[27,9841],[27.6,9923],[28.5,10033],[30,10143],[31.8,10244],[35.2,10364],[44,10480],[49.6,10605],[53.6,10726],[57,10850],[61.7,10977],[66.1,11097],[69.3,11226],[70.2,11338],[70.4,11423],[73,11530],[75.1,11655],[77.4,11765],[78.1,11873],[79.7,11990],[80.5,12105],[82.9,12226],[83.9,12328],[84.6,12450],[85.1,12557],[86.1,12662],[87,12789]]",1,0,629.262,631.748,84.89583333,0.879,"[{""rating"":84.89583333333333,""responseTime"":0.8790000000000191}]",space,1.935,,631.753,Not at all,0,631.785,,,[],,0,8,8,8,1,audio/Narrative7Situation8.wav,audio/Narrative8Situation8.wav,audio/Narrative5Situation8.wav,audio/Narrative6Situation8.wav,2,3,3,5,,,,,,,,,,,,,,,,,,,,,,,,,,,,,,,,,,,
,,,,,,66350027a37d96b687525725,2024-05-13_16h48.37.251,group3.1-3.2-social-tom,2023.2.2,Win32,60.0240096,65c5074098b851296ff0b7ed,6642344f46ca20fbe6114822,,,,,,,,,,,,,,,,,,,,,,,,,,,,,631.786,1,audio/Narrative8Situation9.wav,634.803,,634.803,646.158,"[[999,2],[999,119],[999,211],[999,328],[999,421],[999,521],[999,620],[999,720],[999,799],[999,883],[999,990],[999,1084],[999,1172],[999,1259],[999,1375],[999,1479],[999,1570],[999,1653],[999,1769],[999,1883],[999,1987],[999,2091],[999,2204],[999,2334],[47.4,2469],[45,2586],[44.5,2700],[46.6,2849],[48,2966],[55.3,3325],[57.8,3448],[61.5,3589],[63.3,3700],[79.7,3838],[85.8,3963],[88.6,4051],[90.8,4171],[91.8,4277],[92.4,4369],[92.4,4470],[92.5,4548],[92.8,4638],[93.4,4777],[93.4,4850],[93.6,4931],[94.6,5040],[95,5149],[95.4,5259],[96.3,5384],[96.5,5485],[96.7,5598],[96.9,5701],[97,5812],[97.2,5896],[97.2,5982],[97.2,6070],[97.2,6148],[97.3,6266],[97.5,6377],[97.7,6466],[97.8,6569],[97.9,6646],[97.9,6735],[97.9,6839],[97.9,6956],[97.9,7062],[97.9,7156],[97.4,7274],[96.1,7389],[94.9,7512],[94.8,7607],[94.7,7709],[93.9,7822],[93.8,7918],[93.1,8038],[91.8,8185],[91.8,8267],[93.3,8400],[94.3,8507],[94.5,8620],[94.9,8730],[95.4,8853],[96,8975],[96.4,9096],[96.6,9221],[96.9,9329],[97,9435],[97.2,9593],[97.2,9714],[97.2,9828],[97.3,9925],[97.3,10035],[97.5,10133],[97.7,10240],[97.9,10358],[98.1,10456],[98.3,10573],[98.5,10692],[98.6,10795],[98.6,10889],[98.6,11016],[98.6,11131],[98.6,11252]]",1,0,646.161,649.081,98.22916667,1.34,"[{""rating"":98.22916666666667,""responseTime"":1.3400000000000318}]",space,2.348,,649.084,Partially,50,649.108,,,[],,0,9,9,9,1,audio/Narrative7Situation9.wav,audio/Narrative8Situation9.wav,audio/Narrative5Situation9.wav,audio/Narrative6Situation9.wav,2,3,3,4,,,,,,,,,,,,,,,,,,,,,,,,,,,,,,,,,,,
,,,,,,66350027a37d96b687525725,2024-05-13_16h48.37.251,group3.1-3.2-social-tom,2023.2.2,Win32,60.0240096,65c5074098b851296ff0b7ed,6642344f46ca20fbe6114822,,,,,,,,,,,,,,,,,,,,,,,,,,,,,649.108,1,audio/Narrative7Situation1.wav,651.115,,651.116,707.017,"[[78.9,3054],[78.9,3161],[71.6,3282],[69,3395],[69.6,3506],[65.7,3631],[65,3749],[62.4,3865],[59.9,3996],[57.3,4115],[54.3,4246],[49.1,4358],[41.1,4482],[32.5,4602],[25.8,4744],[19.4,4858],[11.3,4990],[10.8,5107],[10.8,5218],[11.3,5329],[11.7,5456],[11.7,5552],[11.3,5674],[10.2,5799],[9.8,5917],[9.6,6019],[9.5,6139],[9.5,6254],[9.4,6350],[9.4,6464],[9.4,6576],[9.4,6686],[11.1,6796],[11.3,6895],[11.3,6998],[11.3,7105],[11.3,7211],[11.3,7296],[11.3,7383],[11.3,7463],[11.3,7557],[11.3,7656],[12.6,7763],[12.9,7854],[12.9,7964],[12.9,8076],[12.9,8179],[12.6,8302],[12,8418],[12,8493],[12,8580],[13.6,8704],[14.7,8818],[15.2,8913],[15.9,9021],[16.4,9129],[16.5,9216],[16.6,9320],[16.9,9431],[17.7,9549],[18.2,9671],[18.5,9778],[20,9891],[20.7,9994],[21.5,10104],[24.1,10219],[25.4,10341],[26.7,10456],[27.3,10575],[28,10695],[29.8,10835],[31.3,10968],[32.3,11099],[32.9,11218],[33.3,11302],[33.5,11411],[33.5,11520],[33,11639],[30.8,11753],[30.5,11866],[29.9,11975],[28.6,12083],[28.5,12190],[28.3,12302],[28.3,12416],[28.3,12523],[28.3,12629],[28.3,12740],[29.1,12853],[30.2,12971],[31,13079],[32.1,13239],[32.6,13350],[32.6,13437],[32.7,13543],[32.7,13629],[32.7,13710],[32.5,13796],[29.4,13908],[25.1,14040],[22.1,14155],[19.4,14271],[17.7,14382],[16.4,14478],[15.4,14568],[14.8,14677],[14.2,14766],[13.8,14847],[13.1,14962],[13,15068],[13,15164],[13,15270],[13.8,15384],[16.4,15502],[19.1,15634],[19.8,15739],[21.3,15852],[21.5,15958],[22.7,16079],[23,16188],[23.4,16300],[23.4,16397],[23.4,16508],[23.4,16614],[20.2,16741],[18.1,16852],[15.4,16998],[14,17129],[12.9,17235],[11.9,17352],[10.3,17471],[9.4,17599],[9.1,17701],[8.4,17825],[8.2,17932],[8.1,18047],[8.1,18179],[8.1,18310],[9.5,18427],[11,18545],[12.3,18661],[12.4,18766],[12.6,18879],[13,18996],[13.4,19102],[13.8,19220],[13.9,19311],[14.2,19414],[14.2,19492],[14.4,19610],[14.8,19717],[15.2,19812],[15.7,19925],[17,20063],[18.2,20167],[19.2,20272],[22.3,20389],[26.7,20493],[33,20609],[37.7,20719],[44.4,20838],[47.7,20952],[49,21077],[49.9,21179],[52.1,21306],[54.6,21423],[55.4,21536],[58.3,21648],[59.6,21768],[61.5,21879],[62.6,21980],[64.3,22093],[65.9,22206],[66.8,22324],[67.2,22429],[68,22541],[69.6,22677],[69.7,22778],[69.7,22895],[69.7,22995],[69.7,23103],[69.7,23224],[66.7,23340],[64.7,23450],[64.4,23552],[63.3,23665],[62.5,23777],[59.9,23907],[58.3,24028],[58.2,24150],[58.2,24249],[58.3,24361],[59.5,24480],[60.8,24615],[64,24736],[64.6,24852],[65.4,24949],[65.9,25050],[67,25198],[67.6,25327],[68.2,25445],[68.3,25532],[68.4,25644],[69,25759],[69.2,25841],[69.3,25943],[68.5,26078],[68.5,26174],[67.4,26290],[66.4,26392],[64.5,26518],[64.5,26611],[64.9,26709],[66.4,26838],[67.5,26951],[68.1,27060],[68.1,27151],[68.1,27257],[68.1,27349],[68.1,27456],[68.1,27541],[65.8,27682],[63.5,27800],[62.3,27921],[62,28023],[61.8,28121],[61.4,28239],[61.1,28362],[65.4,28498],[67.6,28605],[67.6,28720],[67.6,28826],[67.4,28955],[66.7,29072],[66.3,29190],[66.1,29300],[66.1,29417],[66.9,29525],[67.8,29653],[68,29746],[69.7,29865],[70.1,29976],[70.2,30090],[70.5,30215],[71.6,30339],[71.9,30442],[72.8,30551],[73.3,30666],[74.1,30800],[74.2,30906],[74.3,30986],[74.3,31071],[74.2,31189],[73.3,31301],[72.6,31398],[71.3,31506],[70.9,31611],[70.8,31720],[70.8,31801],[70.8,31891],[70.8,31969],[72.2,32089],[73.9,32216],[75.6,32348],[76.5,32447],[78.6,32573],[80.7,32689],[84.6,32798],[85.4,32896],[85.4,32996],[85.8,33105],[86.4,33211],[87.7,33328],[89.5,33438],[92.2,33549],[92.6,33668],[93.5,33759],[94.1,33862],[94.2,33966],[94.4,34081],[94.4,34181],[94.5,34304],[94.5,34406],[94.5,34511],[94.7,34627],[94.7,34744],[94.7,34847],[94.8,34955],[94.8,35077],[94.8,35180],[94.8,35299],[94.8,35397],[94.5,35509],[94.4,35621],[94.3,35723],[94.2,35821],[94.1,35941],[94.1,36048],[94.1,36147],[94.1,36257],[94.1,36378],[94.3,36489],[94.7,36605],[95,36727],[95.5,36860],[95.8,36960],[95.9,37071],[95.9,37182],[95.9,37274],[95.9,37368],[95.9,37456],[95.8,37536],[95.6,37642],[95.6,37751],[95.2,37855],[95.2,37954],[95.2,38043],[95.2,38141],[95.2,38263],[95.2,38362],[95.2,38461],[95.2,38560],[95.3,38670],[95.4,38778],[95.6,38869],[95.7,38954],[96,39038],[96.3,39150],[96.6,39249],[96.7,39335],[96.9,39427],[97,39520],[97.2,39644],[97.3,39743],[97.6,39854],[97.8,39956],[97.9,40060],[97.9,40169],[97.9,40253],[97.8,40336],[97.4,40447],[97.2,40557],[97,40669],[96.8,40785],[96.8,40887],[96.8,40999],[96.8,41109],[96.8,41224],[96.8,41345],[96.8,41452],[96.8,41557],[96.8,41669],[96.6,41772],[96.6,41871],[96.6,42004],[96.6,42096],[96.6,42191],[96.9,42305],[97.3,42422],[97.5,42536],[97.7,42651],[97.8,42751],[97.9,42855],[98.1,42977],[98.3,43099],[98.3,43187],[98.4,43307],[98.4,43408],[98.4,43508],[98.4,43622],[98.4,43710],[98.5,43817],[98.5,43899],[99,43990],[99.2,44086],[99.3,44197],[99.9,44323],[100,44426],[100,44518],[100,44598],[100,44685],[100,44780],[100,44867],[100,44956],[100,45078],[100,45186],[100,45274],[100,45349],[100,45437],[100,45514],[100,45602],[100,45724],[100,45818],[100,45920],[100,46018],[100,46105],[100,46216],[100,46307],[100,46406],[100,46499],[100,46610],[100,46706],[100,46841],[100,46925],[100,47042],[100,47155],[100,47283],[100,47388],[100,47490],[100,47595],[100,47681],[100,47769],[100,47846],[100,47932],[100,48018],[100,48099],[100,48182],[100,48273],[100,48381],[100,48486],[100,48591],[100,48699],[100,48802],[100,48913],[100,49020],[100,49131],[100,49225],[100,49320],[100,49429],[100,49523],[100,49614],[100,49699],[100,49780],[100,49864],[100,49949],[100,50041],[100,50149],[100,50268],[100,50376],[100,50483],[100,50581],[100,50676],[100,50772],[100,50882],[100,50964],[100,51048],[100,51136],[100,51226],[100,51319],[100,51427],[100,51519],[100,51618],[100,51717],[100,51816],[100,51915],[100,52018],[100,52120],[100,52222],[100,52331],[100,52419],[100,52517],[100,52621],[100,52743],[100,52847],[100,52951],[100,53068],[100,53194],[100,53296],[100,53414],[100,53525],[100,53616],[100,53724],[100,53831],[100,53911],[100,53996],[100,54088],[100,54181],[100,54283],[100,54398],[100,54518],[100,54628],[100,54749],[100,54849],[100,54956],[100,55062],[100,55181],[100,55282],[100,55401],[100,55495],[100,55581],[100,55662],[100,55745],[100,55855]]",1,0,707.018,711.282,98.85416667,2.175,"[{""rating"":98.85416666666667,""responseTime"":2.1749999999999545}]",space,3.725,,711.282,Definitely yes,100,711.321,,,[],,0,10,10,10,1,audio/Narrative8Situation1.wav,audio/Narrative7Situation1.wav,audio/Narrative6Situation1.wav,audio/Narrative5Situation1.wav,5,2,2,5,,,,,,,,,,,,,,,,,,,,,,,,,,,,,,,,,,,
,,,,,,66350027a37d96b687525725,2024-05-13_16h48.37.251,group3.1-3.2-social-tom,2023.2.2,Win32,60.0240096,65c5074098b851296ff0b7ed,6642344f46ca20fbe6114822,,,,,,,,,,,,,,,,,,,,,,,,,,,,,711.321,1,audio/Narrative7Situation2.wav,714.347,,714.348,721.875,"[[999,11],[999,121],[999,214],[999,317],[999,419],[999,539],[999,654],[999,742],[999,827],[999,937],[999,1044],[999,1158],[999,1252],[999,1376],[999,1462],[999,1564],[999,1680],[999,1789],[999,1884],[999,1991],[999,2096],[999,2206],[999,2317],[999,2430],[999,2552],[999,2673],[999,2801],[999,2933],[999,3033],[999,3163],[51.4,3275],[54.7,3397],[55.3,3529],[55.3,3706],[55.3,3810],[55.3,3926],[55.3,4028],[55.8,4153],[55.8,4262],[55.8,4376],[55.8,4478],[55.8,4597],[55.8,4697],[55.8,4812],[55.8,4933],[55.8,5049],[55.8,5147],[55.8,5259],[55.8,5362],[55.8,5483],[55.8,5576],[55.8,5693],[55.8,5799],[55.8,5894],[55.8,5985],[55.8,6086],[55.8,6193],[55.8,6296],[55.8,6375],[56.4,6478],[57.1,6596],[58.5,6699],[59.7,6814],[61.1,6937],[63.3,7057],[64.9,7177],[66.4,7304],[69.8,7418],[71.9,7525]]",1,0,721.875,725.752,99.375,1.436,"[{""rating"":99.375,""responseTime"":1.4359999999999218}]",space,3.321,,725.752,Definitely yes,100,725.766,,,[],,0,11,11,11,1,audio/Narrative8Situation2.wav,audio/Narrative7Situation2.wav,audio/Narrative6Situation2.wav,audio/Narrative5Situation2.wav,3,3,3,3,,,,,,,,,,,,,,,,,,,,,,,,,,,,,,,,,,,
,,,,,,66350027a37d96b687525725,2024-05-13_16h48.37.251,group3.1-3.2-social-tom,2023.2.2,Win32,60.0240096,65c5074098b851296ff0b7ed,6642344f46ca20fbe6114822,,,,,,,,,,,,,,,,,,,,,,,,,,,,,725.767,1,audio/Narrative7Situation3.wav,733.77,,733.771,743.068,"[[76.4,351],[76.3,471],[76.1,583],[77,711],[79.4,834],[82.9,956],[83.3,1052],[83.8,1165],[83.8,1247],[83.8,1336],[83.5,1419],[83.4,1497],[83.3,1588],[83.3,1683],[83.2,1802],[83.2,1906],[83,2027],[82.8,2142],[82.6,2251],[82.2,2375],[82.1,2495],[82.1,2608],[81.8,2718],[81.7,2815],[81.6,2913],[81.6,3000],[81.6,3105],[81.6,3213],[81.6,3315],[81.6,3432],[82.1,3553],[82.5,3655],[84,3798],[84.7,3917],[85.1,4038],[85.5,4156],[85.9,4265],[86.3,4361],[86.4,4464],[87,4572],[87,4667],[87.2,4798],[87.7,4913],[88.2,5034],[88.3,5145],[88.4,5248],[88.4,5361],[88.4,5443],[88.3,5531],[88.3,5619],[88.2,5709],[87.8,5813],[86.7,5954],[86.3,6070],[86.1,6161],[86.1,6248],[86.1,6331],[86.1,6424],[86.1,6520],[86.1,6666],[86.1,6760],[86.1,6867],[86.3,6974],[86.4,7082],[86.4,7182],[86.4,7260],[86.4,7349],[86.4,7431],[86.4,7509],[83.9,7634],[82.4,7757],[81.9,7846],[80.1,7978],[79.9,8096],[78.8,8221],[77.9,8346],[77.1,8472],[76.8,8572],[76.8,8682],[76.8,8789],[76.8,8899],[76.8,9014],[81.9,9155],[83.6,9268]]",1,0,743.068,748.033,57.5,1.986,"[{""rating"":57.49999999999999,""responseTime"":1.9859999999998763}]",space,4.423,,748.033,Partially,50,748.062,,,[],,0,12,12,12,1,audio/Narrative8Situation3.wav,audio/Narrative7Situation3.wav,audio/Narrative6Situation3.wav,audio/Narrative5Situation3.wav,4,8,5,3,,,,,,,,,,,,,,,,,,,,,,,,,,,,,,,,,,,
,,,,,,66350027a37d96b687525725,2024-05-13_16h48.37.251,group3.1-3.2-social-tom,2023.2.2,Win32,60.0240096,65c5074098b851296ff0b7ed,6642344f46ca20fbe6114822,,,,,,,,,,,,,,,,,,,,,,,,,,,,,748.062,1,audio/Narrative7Situation4.wav,751.07,,751.07,762.817,"[[37.5,147],[37.5,230],[37.5,343],[37.5,445],[37.5,561],[37.7,680],[39.5,797],[40.3,912],[43.8,1038],[44.2,1144],[44.7,1270],[45.6,1406],[46,1525],[46.4,1631],[47.4,1754],[47.9,1871],[48.6,1984],[48.8,2086],[48.8,2179],[49.1,2295],[49.3,2395],[49.7,2528],[49.7,2634],[49.7,2730],[49.6,2865],[48.5,2971],[47.1,3088],[46.5,3198],[45.7,3300],[44.3,3431],[43.1,3536],[42.5,3653],[41.6,3771],[41,3894],[40.5,4029],[39.8,4128],[39.3,4247],[39.2,4360],[39,4471],[39,4566],[38.9,4683],[38.6,4778],[38.1,4894],[37.6,4993],[25.9,5785],[25.3,5894],[25.2,5998],[24.1,6112],[22.6,6233],[21,6365],[20.2,6488],[20,6586],[18.9,6704],[18.8,6807],[16.6,6973],[14.5,7105],[12.4,7208],[10.5,7333],[9.1,7452],[5.4,7571],[5.2,7680],[5.2,7799],[5.2,7886],[5.2,8000],[5.1,8114],[5.1,8231],[5,8337],[4.8,8463],[4.8,8569],[5.3,8683],[6,8800],[7.7,8914],[9.1,9039],[9.8,9147],[10.5,9266],[11.4,9378],[11.7,9502],[12.2,9623],[12.6,9729],[12.9,9846],[13.1,9954],[13.1,10069],[12.4,10198],[11.9,10324],[11.4,10442],[10.7,10549],[9.8,10682],[8.3,10805],[7.6,10917],[6.8,11042],[6.1,11613],[9.1,11724]]",1,0,762.819,766.174,8.854166667,0.998,"[{""rating"":8.854166666666668,""responseTime"":0.9980000000000473}]",space,2.779,,766.174,Definitely yes,100,766.183,,,[],,0,13,13,13,1,audio/Narrative8Situation4.wav,audio/Narrative7Situation4.wav,audio/Narrative6Situation4.wav,audio/Narrative5Situation4.wav,3,3,2,1,,,,,,,,,,,,,,,,,,,,,,,,,,,,,,,,,,,
,,,,,,66350027a37d96b687525725,2024-05-13_16h48.37.251,group3.1-3.2-social-tom,2023.2.2,Win32,60.0240096,65c5074098b851296ff0b7ed,6642344f46ca20fbe6114822,,,,,,,,,,,,,,,,,,,,,,,,,,,,,766.183,1,audio/Narrative7Situation5.wav,771.192,,771.192,779.728,"[[999,9],[999,117],[999,221],[999,294],[999,384],[999,492],[999,581],[999,670],[999,766],[999,880],[999,971],[999,1065],[999,1157],[999,1266],[999,1367],[999,1483],[999,1569],[999,1674],[999,1769],[999,1867],[999,1969],[999,2084],[999,2192],[999,2309],[999,2434],[999,2541],[999,2656],[999,2769],[999,2884],[999,2962],[999,3069],[999,3173],[999,3265],[999,3379],[999,3494],[999,3608],[19.8,3734],[19.7,3829],[19.7,3934],[19.7,4057],[19.8,4168],[22.2,4292],[22.2,4407],[20.8,4533],[20.8,4636],[24.8,4755],[31,4863],[42.9,4983],[48.1,5090],[51.7,5212],[51.7,5317],[51.7,5417],[51.7,5538],[51.7,5638],[51.7,5734],[51.7,5811],[52.4,5903],[52.8,6001],[53.1,6110],[53.6,6213],[53.8,6323],[53.8,6415],[53.8,6525],[53.8,6634],[53.8,6736],[53.8,6827],[53.8,6913],[53.3,7023],[52.6,7147],[51.7,7250],[50.9,7353],[50.6,7452],[50.6,7567],[50.6,7647],[50.6,7749],[50.6,7858],[50.6,7955],[51.7,8078],[53.8,8208],[58.8,8337],[64.2,8454]]",1,0,779.729,785.594,34.79166667,2.232,"[{""rating"":34.791666666666664,""responseTime"":2.231999999999971}]",space,5.322,,785.596,Not at all,0,785.628,,,[],,0,14,14,14,1,audio/Narrative8Situation5.wav,audio/Narrative7Situation5.wav,audio/Narrative6Situation5.wav,audio/Narrative5Situation5.wav,2,5,2,5,,,,,,,,,,,,,,,,,,,,,,,,,,,,,,,,,,,
,,,,,,66350027a37d96b687525725,2024-05-13_16h48.37.251,group3.1-3.2-social-tom,2023.2.2,Win32,60.0240096,65c5074098b851296ff0b7ed,6642344f46ca20fbe6114822,,,,,,,,,,,,,,,,,,,,,,,,,,,,,785.628,1,audio/Narrative7Situation6.wav,788.635,,788.636,798.64,"[[36.3,198],[36.1,305],[35.7,404],[35.2,499],[34.4,621],[33.5,735],[32.8,841],[31.4,945],[29.9,1060],[28.3,1187],[27.1,1315],[25.6,1432],[24.5,1538],[23.9,1637],[22.9,1764],[19.4,4536],[19.2,4639],[19.6,4757],[20.7,4871],[21.6,4978],[22,5094],[22.9,5213],[26.4,5336],[27.4,5450],[28.4,5575],[28.5,5688],[28.9,5790],[28.9,5903],[29.1,5998],[42.6,6108],[52.3,6226],[66.5,6329],[70.6,6435],[76.3,6555],[77.9,6649],[80,6765],[81.9,6888],[83.8,7008],[84.4,7128],[85.2,7230],[87.1,7367],[87.8,7465],[88.8,7563],[89.4,7649],[90,7767],[90.4,7857],[90.8,7951],[91.1,8029],[91.3,8138],[91.8,8242],[92.1,8331],[92.3,8418],[93.4,8538],[94,8653],[95.3,8781],[95.9,8887],[96.3,9010],[96.5,9123],[96.5,9233],[96.7,9334],[97,9453],[97,9558],[97,9647],[97,9758],[97,9884],[97,9981]]",1,0,798.641,800.384,96.97916667,0.661,"[{""rating"":96.97916666666666,""responseTime"":0.6610000000000582}]",space,1.189,,800.385,Not at all,0,800.401,,,[],,0,15,15,15,1,audio/Narrative8Situation6.wav,audio/Narrative7Situation6.wav,audio/Narrative6Situation6.wav,audio/Narrative5Situation6.wav,2,3,2,3,,,,,,,,,,,,,,,,,,,,,,,,,,,,,,,,,,,
,,,,,,66350027a37d96b687525725,2024-05-13_16h48.37.251,group3.1-3.2-social-tom,2023.2.2,Win32,60.0240096,65c5074098b851296ff0b7ed,6642344f46ca20fbe6114822,,,,,,,,,,,,,,,,,,,,,,,,,,,,,800.401,1,audio/Narrative7Situation7.wav,805.414,,805.414,822.614,"[[96.4,2918],[97.5,3029],[95.8,3140],[95,3237],[94.9,3365],[70.9,4492],[72.7,4622],[76.8,4746],[78.1,4876],[80.7,5003],[82.7,5120],[83.3,5231],[84.3,5311],[85.2,5424],[85.2,5522],[85.2,5637],[85.2,5732],[85.2,5829],[85.2,5917],[85.2,6013],[85.2,6093],[85.2,6179],[85.2,6294],[85.6,6416],[86,6538],[86.3,6639],[86.5,6750],[87,6871],[87.6,6986],[87.8,7099],[88.5,7223],[90.1,7333],[91.9,7456],[93.1,7577],[94.5,7698],[95.1,7812],[95.5,7920],[95.9,8019],[95.9,8107],[95.9,8202],[95.9,8312],[95.9,8423],[95.9,8533],[94.1,8663],[93.3,8771],[93,8864],[92.9,8961],[92.8,9044],[92.7,9146],[92.6,9246],[92.6,9365],[92.6,9461],[92.6,9543],[92.6,9627],[92.6,9712],[92.6,9792],[92.6,9877],[92.6,9963],[92.6,10059],[92.6,10163],[92.6,10261],[92.6,10369],[92.6,10479],[92.6,10583],[92.6,10703],[92.6,10801],[92.6,10909],[92.6,11019],[92.6,11118],[92.6,11241],[92.6,11331],[92.6,11435],[92.6,11545],[92.6,11652],[92.6,11732],[92.6,11812],[92.6,11910],[92.6,12000],[92.6,12100],[92.6,12198],[92.6,12303],[92.6,12413],[92.6,12510],[92.6,12624],[93.6,12749],[94.4,12860],[95,12970],[96.1,13082],[96.3,13195],[96.3,13307],[96.3,13413],[96.3,13528],[96.3,13633],[96.3,13734],[96.3,13835],[96.3,13933],[96.3,14030],[96.3,14136],[96.1,14231],[95.8,14346],[95.8,14455],[95.8,14550],[95.8,14644],[95.8,14743],[95.8,14832],[96.3,14950],[97.2,15050],[97.8,15163],[98.1,15266],[98.1,15365],[98.3,15481],[98.3,15576],[98.8,15668],[99.2,15778],[99.2,15859],[99.9,15953],[99.9,16067],[99.9,16160],[99.9,16259],[99.9,16375],[99.9,16491],[99.9,16596],[99.9,16700],[99.9,16826],[99.9,16913],[99.9,17032],[99.9,17155]]",1,0,822.614,825.644,99.89583333,0.449,"[{""rating"":99.89583333333334,""responseTime"":0.44899999999984175}]",space,2.497,,825.644,Definitely yes,100,825.65,,,[],,0,16,16,16,1,audio/Narrative8Situation7.wav,audio/Narrative7Situation7.wav,audio/Narrative6Situation7.wav,audio/Narrative5Situation7.wav,3,5,5,4,,,,,,,,,,,,,,,,,,,,,,,,,,,,,,,,,,,
,,,,,,66350027a37d96b687525725,2024-05-13_16h48.37.251,group3.1-3.2-social-tom,2023.2.2,Win32,60.0240096,65c5074098b851296ff0b7ed,6642344f46ca20fbe6114822,,,,,,,,,,,,,,,,,,,,,,,,,,,,,825.65,1,audio/Narrative7Situation8.wav,827.657,,827.657,837.706,"[[99.6,2141],[99.5,2244],[99.3,2345],[99.3,2430],[99.3,2512],[99.3,2600],[99.2,2724],[98.5,2852],[97.8,2970],[97.1,3078],[95.9,3211],[95,3328],[94,3446],[93.8,3551],[93.2,3669],[93.1,3769],[93.1,3871],[93.1,3967],[93.1,4066],[92.8,4163],[91.9,4286],[91.1,4415],[90.3,4525],[89.8,4633],[89.7,4729],[89.6,4817],[89.6,4894],[89.6,4977],[89.6,5067],[89.6,5143],[89.6,5230],[90.9,5352],[93.1,5471],[94.5,5589],[96.4,5707],[97.4,5830],[97.9,5940],[98.4,6049],[98.5,6156],[98.6,6271],[98.6,6377],[98.6,6469],[98.6,6584],[98.6,6718],[99.1,6837],[99.2,6955],[99.3,7063],[99.4,7167],[99.5,7270],[99.6,7387],[99.6,7494],[99.7,7587],[99.7,7684],[99.8,7795],[99.9,7914],[100,7999],[100,8123],[100,8230],[100,8346],[100,8451],[99.4,8578],[98.3,8696],[98,8814],[98,8932],[98,9048],[98,9155],[98.8,9279],[98.8,9381],[98.8,9489],[98.5,9612],[98.1,9733],[97,9855],[96.1,9964]]",1,0,837.71,839.571,96.14583333,0.13,"[{""rating"":96.14583333333333,""responseTime"":0.12999999999988177}]",space,1.317,,839.571,Definitely yes,100,839.598,,,[],,0,17,17,17,1,audio/Narrative8Situation8.wav,audio/Narrative7Situation8.wav,audio/Narrative6Situation8.wav,audio/Narrative5Situation8.wav,3,2,5,3,,,,,,,,,,,,,,,,,,,,,,,,,,,,,,,,,,,
,,,,,,66350027a37d96b687525725,2024-05-13_16h48.37.251,group3.1-3.2-social-tom,2023.2.2,Win32,60.0240096,65c5074098b851296ff0b7ed,6642344f46ca20fbe6114822,,,,,,,,,,,,,,,,,,,,,,,,,,,,,839.599,1,audio/Narrative7Situation9.wav,841.619,,841.619,850.303,"[[999,3],[999,99],[999,178],[999,268],[999,365],[999,476],[999,583],[999,688],[999,779],[999,885],[999,991],[999,1115],[999,1241],[999,1358],[50.3,1480],[50.2,1595],[50.9,1715],[53.4,1816],[53.5,1936],[53.5,2054],[53.5,2159],[53.5,2252],[53.5,2328],[53.5,2439],[53.5,2532],[53.5,2637],[53.5,2741],[53.5,2823],[53.5,2913],[53.5,3003],[53.5,3099],[53.5,3203],[53.5,3313],[53.5,3417],[53.5,3512],[54.1,3617],[54.3,3711],[54.5,3799],[54.7,3916],[54.9,4029],[55.2,4118],[55.2,4194],[55.2,4281],[54.9,4388],[53.9,4512],[50.5,4630],[49.3,4746],[47.2,4887],[45.7,5017],[43.9,5134],[42.8,5249],[42.5,5353],[42,5479],[41.6,5587],[41.3,5693],[40.9,5780],[40.6,5866],[40,5973],[40,6074],[40.6,6189],[71.1,6311],[90.3,6445],[95.2,6549],[97.3,6632],[97.3,6711],[97.3,6794],[96.1,6891],[95.4,7007],[94.6,7147],[94.6,7249],[95.9,7370],[96.4,7490],[96.6,7595],[96.7,7694],[96.7,7800],[96.7,7905],[96.9,8016],[96.9,8092],[96.9,8178],[96.9,8269],[96.9,8374],[96.9,8483],[96.9,8598],[96.9,8682]]",1,0,850.305,852.325,97.60416667,1.463,"[{""rating"":97.60416666666667,""responseTime"":1.4629999999999654}]",space,1.475,,852.325,Not at all,0,858.125,98.64583333,4.886,"[{""rating"":98.64583333333333,""responseTime"":4.885999999999967}]",space,0,18,18,18,1,audio/Narrative8Situation9.wav,audio/Narrative7Situation9.wav,audio/Narrative6Situation9.wav,audio/Narrative5Situation9.wav,3,2,4,3,,,5.251,,,,,,,,,,,,,,,,,,,,,,,,,,,,,,,,
,,,,,,66350027a37d96b687525725,2024-05-13_16h48.37.251,group3.1-3.2-social-tom,2023.2.2,Win32,60.0240096,65c5074098b851296ff0b7ed,6642344f46ca20fbe6114822,,,,,,,,,,,,,,,,,,,,,,,,,,,918.134,920.706,920.766,2,audio/Narrative13Situation2.wav,920.767,,920.767,950.522,"[[999,1],[999,124],[999,249],[999,347],[999,464],[999,585],[999,698],[999,806],[999,909],[999,1016],[999,1124],[999,1239],[999,1375],[999,1482],[999,1581],[999,1696],[999,1799],[999,1903],[999,2085],[999,2213],[999,2367],[999,2519],[999,2666],[999,2832],[999,2995],[999,3111],[999,3240],[999,3399],[999,3526],[999,3638],[999,3776],[999,3907],[999,4009],[999,4122],[999,4229],[58.9,4398],[50.5,4511],[45.5,4625],[39.2,4775],[35.2,4886],[36.6,5015],[47.9,5130],[48,5230],[48.6,5355],[48.8,5496],[48.8,5605],[48.8,5722],[48.8,5828],[48.8,5924],[48.8,6033],[48.8,6149],[48.8,6258],[48.8,6373],[48.8,6478],[49.4,6608],[49.1,6719],[46.4,6831],[46.9,6944],[44,7056],[41,7176],[36.1,7286],[33,7413],[30.6,7534],[27.6,7653],[26.3,7766],[26.3,7881],[26.3,7973],[27.3,8076],[35.9,8187],[42.1,8291],[49.1,8406],[54,8518],[56.6,8644],[58.9,8753],[62.7,8863],[65,8975],[67.1,9079],[68.5,9189],[70,9311],[71.5,9411],[73,9526],[73.8,9641],[74.8,9745],[76,9855],[78.5,9954],[80.8,10083],[83,10194],[85.2,10310],[87.6,10426],[90.6,10556],[92.5,10656],[93.2,10764],[93.5,10876],[93.6,10995],[93.8,11104],[93.9,11196],[94,11315],[94.1,11409],[94.3,11536],[94.4,11637],[94.6,11749],[94.8,11861],[94.9,11967],[94.9,12070],[95,12174],[95.1,12273],[95.5,12381],[95.7,12475],[95.9,12584],[96.1,12690],[96.3,12788],[96.5,12891],[96.7,13013],[96.8,13102],[96.8,13189],[96.9,13287],[96.9,13389],[96.9,13496],[96.9,13590],[97,13717],[97,13801],[97,13887],[97.1,13984],[97.1,14070],[97.1,14170],[97.1,14273],[97.2,14389],[97.4,14494],[97.5,14598],[97.5,14709],[97.5,14805],[97.5,14915],[97.5,15008],[97.5,15121],[97.5,15219],[97.5,15322],[97.5,15401],[97.5,15487],[97.5,15590],[97.5,15688],[97.5,15788],[97.5,15910],[97.5,16019],[97.2,16118],[97.2,16230],[96.5,16326],[96.3,16444],[96,16562],[96,16656],[96,16777],[96,16911],[95.6,17027],[95.6,17128],[95.6,17235],[95.6,17341],[95.6,17469],[95.3,17580],[91.5,17689],[90.5,17816],[90.5,17902],[90.5,18021],[90.1,18137],[89.5,18255],[88.9,18369],[88.6,18470],[88.4,18562],[87.5,18688],[85.9,18807],[85.4,18899],[82.7,19008],[82.1,19121],[80.4,19213],[80.4,19310],[80.3,19422],[76.6,19528],[74.3,19648],[71.9,19765],[67.8,19878],[66,19988],[64.8,20107],[64.3,20205],[63.9,20303],[63.1,20436],[62.2,20543],[62,20640],[61.8,20737],[61.8,20836],[61.8,20938],[62.5,21050],[63.5,21163],[65.7,21273],[69.9,21374],[71.1,21490],[72.1,21586],[73.1,21699],[74.6,21828],[76.4,21954],[76.9,22053],[78.6,22176],[80.3,22299],[84,22424],[86.4,22534],[88.8,22647],[90.6,22781],[92.2,22890],[93.4,23038],[94.2,23159],[95.2,23288],[95.7,23412],[96.8,23530],[97.3,23629],[97.5,23734],[97.7,23825],[97.9,23921],[97.9,24038],[97.9,24148],[98,24256],[98.2,24360],[98.4,24469],[98.5,24578],[98.5,24677],[98.5,24781],[98.5,24867],[98.5,24970],[98.5,25076],[98.5,25171],[98.5,25280],[98.5,25382],[98.9,25488],[99.2,25585],[99.6,25699],[99.7,25809],[99.7,25898],[99.5,26008],[99.2,26115],[99,26216],[98.9,26317],[98.5,26425],[98.2,26540],[97.8,26653],[97.4,26750],[96.8,26864],[96.7,26971],[96.7,27066],[96.4,27170],[96.1,27287],[95.9,27394],[95.8,27511],[95.8,27607],[95.8,27704],[95.8,27791],[95.8,27884],[95.8,27983],[95.8,28097],[95.8,28180],[95.8,28285],[95.8,28363],[95.8,28447],[95.8,28545],[96.3,28657],[96.4,28759],[96.7,28865],[97,29002],[97.1,29105],[97.1,29210],[97.2,29321],[97.4,29461],[97.6,29585],[98.2,29682]]",1,0,950.523,950.543,,,[],,,,950.543,Definitely yes,100,950.557,,,[],,0,0,0,0,1,audio/Narrative13Situation2.wav,audio/Narrative13Situation2.wav,audio/Narrative13Situation2.wav,audio/Narrative13Situation2.wav,2,2,2,2,,,,,858.129,918.129,,,,,,,,,,,,,,,,,,,,,,,,,,,,,
,,,,,,66350027a37d96b687525725,2024-05-13_16h48.37.251,group3.1-3.2-social-tom,2023.2.2,Win32,60.0240096,65c5074098b851296ff0b7ed,6642344f46ca20fbe6114822,,,,,,,,,,,,,,,,,,,,,,,,,,,,,950.558,2,audio/Narrative6Situation1.wav,952.58,,952.58,979.193,"[[97.6,124],[97.1,237],[97,335],[97,442],[97,561],[96.9,653],[96.9,751],[96.8,875],[96.7,988],[96.6,1112],[96.4,1208],[95.6,1334],[95.3,1433],[93.8,1555],[93.2,1653],[91.7,1777],[91,1884],[90.7,1983],[90.1,2113],[89.4,2213],[89.2,2301],[89.2,2379],[89.2,2465],[87.4,2581],[86.7,2675],[85,2788],[83.4,2926],[80.3,3057],[76.3,3181],[72.5,3286],[72.1,3393],[72.1,3496],[71.7,3634],[70.9,3758],[69.4,3859],[68.2,3974],[61.6,4098],[59,4214],[59,4324],[59,4434],[59,4536],[59,4673],[59,4788],[59,4903],[59,5013],[59,5121],[59,5211],[59,5325],[59,5415],[59,5519],[59,5622],[54.4,5736],[53,5843],[52.4,5945],[55.7,6071],[63,6181],[65.3,6289],[69.6,6398],[87.1,7224],[92.1,7345],[94,7461],[97.7,7567],[98.5,7667],[99,7780],[99.1,7881],[99.1,7968],[99,8080],[98,8191],[97.5,8306],[97.4,8411],[97.4,8500],[97.4,8585],[97.4,8700],[98.5,8811],[99,8915],[99.4,9037],[99.6,9154],[99.6,9250],[99.4,9405],[98.6,9575],[98.3,9666],[97.7,9787],[97.5,9892],[97,10022],[96,10144],[96,10269],[96,10365],[96,10479],[96,10587],[96.1,10688],[96.5,10792],[96.6,10916],[96.6,11021],[96.6,11118],[96.6,11214],[96.6,11316],[96.6,11420],[96.6,11531],[96.6,11648],[96.6,11739],[96.6,11869],[96.6,11972],[96.6,12067],[96.6,12171],[97.5,12298],[97.9,12393],[97.9,12480],[97.9,12581],[98.1,12696],[98.1,12801],[98.1,12907],[98.1,13011],[98.1,13111],[98.2,13221],[99.1,13339],[99.4,13451],[99.4,13549],[99.4,13651],[99.1,13765],[97.9,13897],[96.7,14019],[94.6,14125],[93.2,14233],[92.1,14334],[91.7,14453],[91.6,14550],[91.6,14666],[93,14778],[94,14895],[94.1,14998],[95.8,15125],[96.4,15220],[97.1,15331],[97.2,15439],[97.5,15567],[97.5,15663],[97.5,15753],[97.9,15866],[97.9,15971],[98.2,16079],[98.4,16199],[98.6,16300],[98.6,16403],[98.6,16517],[98.6,16596],[98.6,16695],[98.6,16788],[98.2,16904],[97.9,17006],[97.8,17115],[97.6,17229],[97.6,17335],[97.6,17454],[97.6,17541],[97.6,17666],[98,17801],[98.6,17913],[99.6,18019],[99.9,18117],[100,18233],[100,18333],[100,18436],[100,18554],[100,18647],[99.9,18761],[99.8,18844],[99.5,18972],[99.3,19066],[99.3,19163],[99.3,19268],[99.3,19385],[96.3,19494],[96.3,19580],[96.3,19656],[96.1,19742],[96.1,19834],[96.1,19905],[96.3,19993],[96.7,20089],[96.8,20175],[96.9,20263],[97.1,20362],[97.3,20472],[97.5,20576],[97.7,20682],[97.7,20757],[97.9,20865],[98,20961],[98.2,21084],[98.5,21202],[98.5,21296],[98.6,21396],[98.9,21507],[99.1,21632],[99.5,21734],[99.5,21850],[99.5,21954],[99.5,22067],[99.5,22174],[99.5,22286],[99.5,22400],[99.5,22508],[99.5,22615],[99.5,22719],[99.5,22826],[99.5,22909],[99.5,23013],[99.5,23106],[99.5,23192],[99.5,23280],[99.5,23364],[99.5,23464],[99.5,23559],[99.5,23666],[99.5,23759],[99.5,23874],[99.5,23964],[99.1,24065],[98.2,24152],[98.2,24249],[97.7,24344],[97.6,24455],[97.6,24567],[97.4,24675],[96.6,24788],[94.9,24884],[83.8,25002],[77.4,25117],[74.7,25223],[74.8,25307],[78.9,25412],[86.5,25519],[86.9,25614],[88.9,25692],[90.1,25798],[92.6,25909],[92.7,26008],[93.4,26111],[95.4,26247],[96.7,26355],[99.7,26473],[100,26574]]",1,0,979.194,986.345,97.8125,1.381,"[{""rating"":97.8125,""responseTime"":1.3810000000000855}]",space,6.613,,986.345,Partially,50,986.377,,,[],,0,1,1,1,1,audio/Narrative7Situation1.wav,audio/Narrative8Situation1.wav,audio/Narrative5Situation1.wav,audio/Narrative6Situation1.wav,2,5,5,2,,,,,,,,,,,,,,,,,,,,,,,,,,,,,,,,,,,
,,,,,,66350027a37d96b687525725,2024-05-13_16h48.37.251,group3.1-3.2-social-tom,2023.2.2,Win32,60.0240096,65c5074098b851296ff0b7ed,6642344f46ca20fbe6114822,,,,,,,,,,,,,,,,,,,,,,,,,,,,,986.378,2,audio/Narrative6Situation2.wav,989.396,,989.396,1017.93,"[[999,0],[999,113],[999,223],[999,325],[999,445],[60.8,590],[60,678],[60,776],[60,869],[60,955],[60,1060],[60,1157],[63.1,1271],[63.4,1383],[63.4,1476],[63.4,1550],[63.4,1635],[63.5,1748],[64.3,1865],[64.5,1979],[64.5,2087],[67.2,2222],[71.3,2330],[72.1,2431],[72.2,2538],[71,2675],[70.3,2773],[70.3,2875],[71.9,3009],[75.4,3134],[78,3255],[80.6,3380],[82.1,3498],[82.9,3620],[83.5,3760],[84.2,3853],[84.6,3961],[84.6,4075],[79.8,4197],[71.7,4321],[67.4,4443],[57.2,4570],[53.6,4692],[50.1,4816],[46,4956],[41.5,5077],[39.2,5214],[37.8,5336],[37.2,5457],[36.8,5587],[35.8,5690],[34.7,5799],[33.4,5926],[32.3,6048],[31.4,6163],[30.4,6281],[29.6,6384],[28.6,6482],[27.4,6580],[25.6,6692],[24.7,6807],[24.3,6921],[24.3,7041],[29.7,7156],[42,7254],[43.6,7359],[43.4,7474],[43.5,7570],[46.6,7691],[46.6,7788],[46.6,7894],[46.6,7991],[46.8,8105],[57,8221],[61.5,8346],[65,8479],[70.1,8599],[71.6,8712],[73.2,8835],[74.4,8934],[75.3,9048],[75.8,9156],[75.8,9239],[75.8,9357],[75.8,9455],[75.3,9571],[75.2,9692],[75.2,9808],[74.9,9935],[75.1,10048],[75.8,10167],[76,10290],[77,10393],[78.6,10502],[80,10603],[81.1,10722],[81.9,10825],[82.2,10942],[82.2,11048],[82.2,11155],[81.9,11269],[81.7,11392],[81.7,11514],[81.7,11635],[81.6,11738],[81.5,11855],[82.1,11961],[83.4,12087],[84.1,12194],[85,12298],[85.7,12406],[86.4,12533],[86.8,12642],[87.3,12767],[87.9,12893],[88.3,12995],[88.6,13116],[88.9,13207],[89.4,13302],[89.6,13409],[89.8,13527],[90.5,13615],[91.4,13726],[92,13835],[92.3,13940],[92.6,14040],[92.8,14158],[92.8,14265],[92.8,14365],[92.8,14449],[92.6,14538],[92.3,14630],[92,14740],[91.8,14840],[91.8,14951],[91.8,15033],[91.8,15135],[92.2,15239],[93.5,15336],[93.6,15435],[93.9,15567],[94.1,15661],[94.7,15778],[95.5,15894],[95.8,16010],[95.9,16125],[95.9,16238],[95.9,16336],[95.9,16451],[95.9,16556],[95.9,16649],[95.5,16770],[95.2,16861],[95,16981],[94.8,17091],[94.7,17216],[94.6,17320],[94.5,17450],[94.5,17540],[94.5,17648],[94.9,17773],[95.2,17884],[95.6,17985],[95.9,18079],[95.9,18183],[95.9,18287],[95.9,18365],[95.3,18478],[95.1,18584],[95.1,18700],[95.1,18806],[95.1,18899],[95.1,19004],[95.3,19124],[95.8,19242],[96.1,19350],[96.4,19459],[96.4,19557],[96.4,19652],[96.1,19791],[95.8,19908],[95.5,20028],[94.9,20148],[94.7,20252],[94.6,20373],[94.6,20466],[94.8,20567],[95.1,20663],[95.5,20770],[95.8,20867],[96.1,20973],[96.4,21071],[96.6,21201],[96.9,21295],[97.4,21398],[97.7,21519],[97.7,21617],[97.9,21726],[98,21846],[98,21940],[98.1,22055],[98.5,22186],[98.9,22305],[99.3,22417],[99.4,22522],[99.5,22634],[99.5,22732],[99.5,22835],[99.1,22942],[97.7,23052],[94.6,23211],[93.5,23310],[93.1,23442],[92.5,23549],[91,23666],[90.3,23798],[90.1,23904],[89.1,24024],[88.1,24133],[86.6,24258],[86.4,24374],[86.5,24474],[88.6,24596],[92.1,24721],[93.3,24832],[93.9,24928],[94.2,25012],[94.7,25118],[95,25218],[95.3,25317],[95.3,25411],[95.3,25499],[95.4,25577],[95.4,25659],[95.4,25753],[95.4,25861],[95.4,25971],[95.4,26063],[95.4,26178],[95.4,26279],[95.4,26385],[95.4,26480],[95.4,26558],[95.4,26644],[95.4,26730],[95.4,26809],[95.4,26895],[95.4,26980],[95.4,27067],[95.4,27185],[95.4,27281],[95.4,27385],[95.4,27500],[95.4,27607],[95.4,27718],[95.4,27827],[95.4,27936],[95.4,28031],[95.4,28152],[95.4,28264],[96.3,28378],[96.3,28486]]",1,0,1017.932,1020.71,98.85416667,0.838,"[{""rating"":98.85416666666667,""responseTime"":0.8379999999999654}]",space,2.234,,1020.71,Not at all,0,1020.742,,,[],,0,2,2,2,1,audio/Narrative7Situation2.wav,audio/Narrative8Situation2.wav,audio/Narrative5Situation2.wav,audio/Narrative6Situation2.wav,3,3,3,3,,,,,,,,,,,,,,,,,,,,,,,,,,,,,,,,,,,
,,,,,,66350027a37d96b687525725,2024-05-13_16h48.37.251,group3.1-3.2-social-tom,2023.2.2,Win32,60.0240096,65c5074098b851296ff0b7ed,6642344f46ca20fbe6114822,,,,,,,,,,,,,,,,,,,,,,,,,,,,,1020.746,2,audio/Narrative6Situation3.wav,1025.755,,1025.755,1038.396,"[[99,3718],[99,3821],[99,3932],[99,4043],[99,4149],[99,4252],[99,4372],[99,4468],[99,4581],[99,4675],[99,4790],[99,4886],[99,5005],[99,5115],[99,5228],[99,5336],[99,5450],[99,5567],[99,5667],[99,5780],[99,5892],[99,5989],[99,6086],[99,6181],[99,6268],[99,6346],[99,6453],[99,6548],[99,6636],[99,6711],[99,6798],[99,6904],[99,7007],[99,7116],[99,7196],[99.2,7292],[99.7,7388],[99.7,7481],[99.7,7584],[99.7,7680],[99.7,7767],[99.7,7859],[99.3,7980],[99.2,8077],[99.1,8167],[98.9,8246],[98.6,8355],[98.3,8466],[97.7,8568],[97,8668],[96.5,8781],[95.8,8890],[95.7,8989],[95.7,9096],[95.7,9179],[95.8,9269],[96,9377],[96.5,9490],[96.9,9601],[97.1,9706],[97.4,9815],[97.7,9940],[97.8,10049],[97.8,10154],[97.8,10264],[97.8,10369],[97.8,10467],[97.8,10584],[97.6,10693],[97.5,10799],[97.4,10915],[97.2,11029],[97.1,11135],[96.4,11260],[95.1,11398],[95,11481],[94.7,11598],[94.6,11701],[93.2,11817],[93.2,11937],[94.5,12052],[95.5,12151],[96.4,12276],[96.4,12374],[96.4,12480],[96.7,12569]]",1,0,1038.398,1039.935,97.8125,0.829,"[{""rating"":97.8125,""responseTime"":0.8289999999999509}]",space,0.986,,1039.935,Definitely yes,100,1039.955,,,[],,0,3,3,3,1,audio/Narrative7Situation3.wav,audio/Narrative8Situation3.wav,audio/Narrative5Situation3.wav,audio/Narrative6Situation3.wav,8,4,3,5,,,,,,,,,,,,,,,,,,,,,,,,,,,,,,,,,,,
,,,,,,66350027a37d96b687525725,2024-05-13_16h48.37.251,group3.1-3.2-social-tom,2023.2.2,Win32,60.0240096,65c5074098b851296ff0b7ed,6642344f46ca20fbe6114822,,,,,,,,,,,,,,,,,,,,,,,,,,,,,1039.955,2,audio/Narrative6Situation4.wav,1041.961,,1041.961,1054.605,"[[90,1937],[88.1,2042],[82.2,2170],[73.3,2309],[71.4,2432],[70.1,2542],[70.1,2641],[69.5,2761],[69.3,2877],[68.3,2994],[65.9,3153],[75.1,4505],[69.8,4611],[68.1,4734],[68.5,4858],[69.3,4953],[69.3,5052],[69.1,5139],[64.9,5271],[61.6,5409],[56.5,5528],[53.1,5653],[50,5778],[47.4,5891],[43.3,6041],[41,6139],[41,6260],[41.4,6394],[41.6,6494],[42.6,6625],[44.9,6722],[44.7,6846],[41.4,6956],[36.5,7082],[31.4,7223],[28.9,7344],[27.4,7458],[27.1,7568],[28.6,7706],[35.1,7828],[37.2,7951],[38.8,8067],[42,8202],[44.2,8320],[47.5,8436],[50.3,8552],[52.9,8656],[55.5,8786],[57.2,8910],[57.6,9004],[57.6,9082],[57.6,9167],[57,9259],[50.8,9362],[46.5,9491],[40,9606],[36.3,9721],[34.6,9846],[34.1,9951],[33.3,10035],[32.8,10121],[32.4,10228],[31.6,10336],[31,10433],[30.5,10545],[30.3,10640],[30.3,10717],[30.3,10822],[30.3,10929],[29.9,11055],[29.3,11150],[29.3,11235],[30.7,11371],[34.6,11487],[40.7,11594],[53,11716],[71.8,11856],[78.6,11955],[86.7,12086],[88.2,12194],[90.3,12303],[93.2,12445],[94.9,12577]]",1,0,1054.607,1057.715,97.5,0.766,"[{""rating"":97.5,""responseTime"":0.7660000000000764}]",space,2.575,,1057.716,Definitely yes,100,1057.756,,,[],,0,4,4,4,1,audio/Narrative7Situation4.wav,audio/Narrative8Situation4.wav,audio/Narrative5Situation4.wav,audio/Narrative6Situation4.wav,3,3,1,2,,,,,,,,,,,,,,,,,,,,,,,,,,,,,,,,,,,
,,,,,,66350027a37d96b687525725,2024-05-13_16h48.37.251,group3.1-3.2-social-tom,2023.2.2,Win32,60.0240096,65c5074098b851296ff0b7ed,6642344f46ca20fbe6114822,,,,,,,,,,,,,,,,,,,,,,,,,,,,,1057.758,2,audio/Narrative6Situation5.wav,1059.762,,1059.762,1067.726,"[[88.9,1009],[76.4,1360],[76.4,1471],[74,1596],[73.5,1711],[66.9,1857],[65.7,1965],[64.2,2081],[59.6,2230],[57.6,2344],[56.4,2473],[55.5,2590],[54.1,2724],[53,2836],[43.5,2966],[43.5,3074],[42.2,3187],[39.4,3300],[40.4,3422],[51.3,3564],[62.1,3671],[66.5,3791],[69.1,3904],[70.9,4033],[71.9,4149],[72.6,4264],[75.1,4389],[78.4,4510],[79.9,4632],[81.7,4731],[86,4862],[87.9,5000],[88.5,5105],[89,5213],[89.4,5329],[89.7,5442],[90.4,5561],[91.5,5701],[92.9,5807],[93.1,5921],[93.6,6039],[93.6,6148],[93.6,6264],[93.6,6378],[93.6,6478],[93.6,6590],[93.6,6704],[93.6,6805],[93.9,6917],[93.9,7038],[94,7153],[94.1,7252],[94.1,7364],[94.1,7475],[94.2,7594],[95,7712],[95.5,7839],[96,7935]]",1,0,1067.727,1072.195,96.45833333,0.476,"[{""rating"":96.45833333333333,""responseTime"":0.4760000000001128}]",space,3.921,,1072.196,Definitely yes,100,1072.212,,,[],,0,5,5,5,1,audio/Narrative7Situation5.wav,audio/Narrative8Situation5.wav,audio/Narrative5Situation5.wav,audio/Narrative6Situation5.wav,5,2,5,2,,,,,,,,,,,,,,,,,,,,,,,,,,,,,,,,,,,
,,,,,,66350027a37d96b687525725,2024-05-13_16h48.37.251,group3.1-3.2-social-tom,2023.2.2,Win32,60.0240096,65c5074098b851296ff0b7ed,6642344f46ca20fbe6114822,,,,,,,,,,,,,,,,,,,,,,,,,,,,,1072.212,2,audio/Narrative6Situation6.wav,1074.227,,1074.227,1085.33,"[[80.3,150],[80.2,248],[80.2,346],[77.3,461],[74.5,616],[72.5,721],[71.8,831],[71.4,945],[71.4,1035],[71.4,1134],[72.7,1269],[73.2,1351],[73.3,1438],[73.3,1546],[73.3,1652],[73.3,1777],[72.9,1863],[71.8,1980],[70.7,2112],[70.3,2230],[70.2,2336],[70.2,2433],[70.4,2558],[70.9,2664],[71.4,2775],[71.7,2883],[71.8,2958],[71.8,3044],[71.8,3145],[71.6,3254],[69.3,3364],[63.9,3505],[56,3615],[53,3720],[52.2,3815],[59.4,3938],[67.9,4052],[70.6,4170],[77.2,4288],[80.9,4413],[84.1,4537],[84.6,4664],[88.5,4793],[89.1,4903],[89.2,5015],[89.3,5099],[89.3,5198],[89.4,5302],[89.9,5428],[90,5527],[90,5644],[90,5757],[90,5868],[90,5968],[90,6084],[90,6226],[90,6347],[89.8,6477],[89.7,6586],[89.6,6691],[89.5,6797],[89.5,6873],[89.5,6959],[89.5,7051],[90.5,7168],[90.6,7259],[90.8,7368],[91.7,7485],[92.3,7594],[93.4,7718],[94,7857],[94.3,7982],[94.4,8094],[94.4,8180],[94.5,8270],[94.6,8362],[94.9,8487],[95,8596],[95,8672],[95,8757],[95.1,8847],[95.1,8943],[95.4,9043],[95.7,9149],[96,9276],[96.1,9381],[96.1,9476],[96.1,9577],[96.1,9681],[96.1,9778],[96.1,9863],[96.1,9974],[96.1,10091],[96.1,10187],[96.3,10312],[96.6,10414],[96.6,10513],[96.6,10635],[96.8,10749],[97.7,10894],[97.8,10987],[97.8,11099]]",1,0,1085.334,1087.268,98.54166667,1.186,"[{""rating"":98.54166666666666,""responseTime"":1.1860000000001492}]",space,1.387,,1087.27,Not at all,0,1087.291,,,[],,0,6,6,6,1,audio/Narrative7Situation6.wav,audio/Narrative8Situation6.wav,audio/Narrative5Situation6.wav,audio/Narrative6Situation6.wav,3,2,3,2,,,,,,,,,,,,,,,,,,,,,,,,,,,,,,,,,,,
,,,,,,66350027a37d96b687525725,2024-05-13_16h48.37.251,group3.1-3.2-social-tom,2023.2.2,Win32,60.0240096,65c5074098b851296ff0b7ed,6642344f46ca20fbe6114822,,,,,,,,,,,,,,,,,,,,,,,,,,,,,1087.292,2,audio/Narrative6Situation7.wav,1092.318,,1092.318,1117.197,"[[98.8,442],[98.8,556],[98.8,663],[97.6,782],[80.6,913],[70.6,1028],[64,1144],[60.9,2163],[60.7,2248],[60.6,2336],[60.5,2416],[60.3,2538],[58.9,2655],[57.9,2756],[57.4,2875],[56.6,2995],[55.6,3114],[55.2,3213],[55.2,3302],[55.2,3377],[55.2,3463],[55.8,3586],[56.6,3679],[58.3,3800],[62.7,3903],[67.4,4013],[71.9,4130],[76,4245],[84,4388],[90.6,4490],[93.3,4620],[97.3,4745],[97.3,4854],[98.1,4971],[98.1,5067],[98.1,5181],[98,5294],[97.9,5413],[97.7,5508],[97.7,5627],[97.7,5712],[97.7,5818],[97.7,5915],[97.7,6035],[97.7,6141],[97.7,6266],[97.7,6366],[97.7,6474],[97.7,6596],[97.7,6688],[97.7,6788],[97.7,6887],[97.7,6983],[97.7,7077],[97.7,7183],[97.7,7272],[97.7,7379],[97.7,7489],[97.7,7599],[97.7,7707],[97.7,7798],[97.7,7875],[97.7,7961],[97.7,8053],[97.7,8152],[97.7,8250],[97.7,8343],[97.7,8429],[97.7,8518],[97.7,8634],[97.7,8729],[97.7,8828],[97.7,8924],[97.7,9012],[97.7,9128],[97.7,9224],[97.7,9311],[97.7,9395],[97.7,9480],[97.7,9586],[97.7,9685],[97.7,9793],[89.6,9916],[89.3,10021],[90.1,10144],[94.7,10262],[95.2,10375],[95.4,10475],[97,10596],[97.5,10713],[97.5,10822],[97.5,10922],[97.5,11037],[97.5,11137],[97.5,11259],[97.5,11374],[98,11483],[98.2,11618],[98.3,11735],[98.3,11831],[98.3,11952],[98.6,12057],[99.1,12172],[99.4,12294],[99.6,12396],[99.8,12511],[99.9,12627],[100,12750],[100,12847],[100,12977],[100,13088],[100,13193],[100,13317],[100,13413],[100,13533],[100,13647],[100,13769],[99.4,13886],[96.6,14012],[95.6,14109],[94.6,14218],[93.1,14326],[92.9,14425],[92.9,14528],[92.9,14649],[92.9,14750],[93.1,14852],[94.4,14964],[94.4,15066],[94.5,15163],[94.5,15240],[94.6,15327],[94.6,15428],[94.6,15528],[94.6,15611],[94.6,15706],[95.2,15793],[95.5,15894],[95.5,16001],[95.5,16098],[95.5,16201],[95.5,16293],[95.7,16377],[97.4,16492],[97.6,16596],[98.8,16693],[98.8,16812],[98.8,16918],[98.8,17015],[98.8,17120],[98.8,17235],[98.8,17342],[98.8,17457],[98.8,17579],[98.8,17659],[98.8,17755],[98.8,17845],[98.8,17962],[98.8,18062],[98.8,18183],[98.8,18292],[98.8,18400],[98.8,18515],[98.8,18627],[98.8,18748],[98.8,18845],[98.8,18948],[98.8,19066],[98.8,19166],[98.8,19254],[98.8,19341],[98.8,19444],[98.8,19572],[98.8,19677],[98.8,19775],[98.8,19855],[98.8,19962],[98.8,20067],[98.8,20165],[98.8,20262],[98.8,20365],[98.8,20476],[98.8,20580],[98.8,20678],[98.8,20785],[98.8,20894],[98.8,20971],[98.8,21088],[98.8,21185],[98.8,21270],[98.8,21356],[98.8,21463],[98.8,21571],[98.8,21665],[98.8,21777],[98.8,21884],[98.8,21984],[98.8,22077],[98.8,22153],[98.8,22237],[98.8,22329],[98.8,22404],[98.8,22489],[98.8,22596],[98.8,22710],[98.8,22808],[98.8,22926],[98.8,23030],[98.8,23148],[98.8,23262],[98.8,23359],[98.8,23479],[98.8,23593],[98.8,23700],[98.8,23807],[98.8,23889],[98.8,23980],[98.8,24098],[98.8,24210],[98.8,24317],[98.8,24426],[98.8,24556],[98.8,24665],[98.8,24760],[98.8,24871]]",1,0,1117.198,1120.979,99.16666667,2.307,"[{""rating"":99.16666666666667,""responseTime"":2.3070000000000164}]",space,3.25,,1120.982,Definitely yes,100,1121.017,,,[],,0,7,7,7,1,audio/Narrative7Situation7.wav,audio/Narrative8Situation7.wav,audio/Narrative5Situation7.wav,audio/Narrative6Situation7.wav,5,3,4,5,,,,,,,,,,,,,,,,,,,,,,,,,,,,,,,,,,,
,,,,,,66350027a37d96b687525725,2024-05-13_16h48.37.251,group3.1-3.2-social-tom,2023.2.2,Win32,60.0240096,65c5074098b851296ff0b7ed,6642344f46ca20fbe6114822,,,,,,,,,,,,,,,,,,,,,,,,,,,,,1121.018,2,audio/Narrative6Situation8.wav,1126.026,,1126.026,1132.874,[],1,0,1132.874,1135.783,4.375,1.342,"[{""rating"":4.375000000000001,""responseTime"":1.3419999999998709}]",space,2.357,,1135.783,Partially,50,1135.795,,,[],,0,8,8,8,1,audio/Narrative7Situation8.wav,audio/Narrative8Situation8.wav,audio/Narrative5Situation8.wav,audio/Narrative6Situation8.wav,2,3,3,5,,,,,,,,,,,,,,,,,,,,,,,,,,,,,,,,,,,
,,,,,,66350027a37d96b687525725,2024-05-13_16h48.37.251,group3.1-3.2-social-tom,2023.2.2,Win32,60.0240096,65c5074098b851296ff0b7ed,6642344f46ca20fbe6114822,,,,,,,,,,,,,,,,,,,,,,,,,,,,,1135.796,2,audio/Narrative6Situation9.wav,1139.817,,1139.818,1149.764,"[[999,4],[999,123],[999,237],[999,339],[999,473],[999,598],[999,710],[999,817],[33.6,951],[28.9,1092],[26.1,1227],[23.5,1349],[22.3,1468],[21.9,1575],[22.2,1697],[24.2,1842],[27.4,1955],[30.3,2096],[36,2234],[39.5,2345],[43.6,2456],[45.3,2554],[46.4,2656],[46.8,2762],[46.8,2846],[46.8,2933],[46.8,3011],[46.8,3096],[46.8,3185],[47.4,3298],[47.5,3398],[47.5,3514],[47.5,3605],[47.5,3707],[47.5,3812],[47.5,3907],[47.8,4012],[47.8,4101],[48.2,4230],[48.2,4332],[48.2,4438],[47.4,4570],[41.8,4668],[30.2,4790],[24.6,4913],[19.6,5050],[15.6,5173],[12.9,5288],[11,5413],[9.5,5512],[9.4,5597],[8,5724],[8,5814],[8,5895],[7.3,6008],[7.2,6105],[7,6207],[6.8,6337],[6.5,6455],[5.8,6559],[5.6,6676],[5.2,6807],[5.1,6916],[4.8,7035],[4.7,7148],[4.6,7256],[4.6,7365],[4,7486],[3.8,7605],[3.2,7730],[3.1,7846],[3,7955],[2.8,8081],[2.6,8196],[1.9,8328],[1.9,8413],[1.9,8519],[1.9,8616],[1.9,8692],[1.9,8778],[1.9,8868],[1.9,8966],[2,9067],[2.1,9188],[2.2,9287],[2.3,9398],[2.3,9500],[2.3,9611],[2.3,9713],[2.3,9791],[2.3,9877]]",1,0,1149.765,1151.366,2.291666667,0.379,"[{""rating"":2.2916666666666643,""responseTime"":0.3790000000001328}]",space,1.059,,1151.367,Not at all,0,1151.384,,,[],,0,9,9,9,1,audio/Narrative7Situation9.wav,audio/Narrative8Situation9.wav,audio/Narrative5Situation9.wav,audio/Narrative6Situation9.wav,2,3,3,4,,,,,,,,,,,,,,,,,,,,,,,,,,,,,,,,,,,
,,,,,,66350027a37d96b687525725,2024-05-13_16h48.37.251,group3.1-3.2-social-tom,2023.2.2,Win32,60.0240096,65c5074098b851296ff0b7ed,6642344f46ca20fbe6114822,,,,,,,,,,,,,,,,,,,,,,,,,,,,,1151.385,2,audio/Narrative5Situation1.wav,1156.392,,1156.393,1169.704,"[[0.5,960],[2.9,1494],[3.2,1588],[3.3,1703],[3.8,1813],[4.2,1912],[4.3,2005],[4.9,2120],[5.2,2248],[5.7,2363],[7.2,2479],[8,2595],[8.1,2715],[8.1,2815],[8.1,2910],[5,3043],[4.3,3162],[1.7,3293],[1.8,3409],[3.4,3532],[4.2,3641],[4.3,3753],[4.3,3874],[4.3,3975],[4.3,4094],[4.3,4206],[4.3,4316],[4.3,4398],[4.3,4483],[4.3,4572],[4.3,4650],[4.3,4756],[4.3,4832],[4.3,4919],[4.3,5009],[4.3,5113],[4.3,5219],[4.3,5300],[4.3,5384],[4.3,5465],[4.3,5551],[4.3,5655],[4.3,5762],[4.3,5870],[4.3,5949],[4.3,6028],[4.3,6119],[4.3,6197],[4.3,6290],[4.3,6400],[4.3,6482],[4.3,6574],[4.3,6688],[4.3,6803],[4.3,6882],[4.3,6966],[4.3,7066],[4.3,7177],[4.3,7282],[4.3,7373],[4.3,7451],[4.3,7552],[4.3,7653],[4.3,7751],[4.3,7855],[4.3,7951],[4.3,8063],[4.3,8156],[4.3,8254],[4.3,8331],[4.3,8413],[4.3,8511],[4.3,8608],[4.3,8738],[4.3,8819],[4.3,8932],[4.3,9034],[4.3,9143],[4.3,9263],[4.3,9382],[4.3,9478],[4.3,9594],[4.3,9701],[4.3,9802],[4.3,9919],[4.3,10027],[4.3,10142],[4.3,10259],[4.6,10384],[12.7,10500],[13.3,10590],[15.3,10709],[19,10836],[21.6,10918],[27.6,11045],[36.1,11175],[40.5,11285],[41.7,11384],[43.2,11508],[44.9,11623],[45.5,11734],[46.9,11843],[48.1,11967],[49.1,12052],[50.3,12157],[51.4,12254],[53.3,12372],[54.6,12490],[54.9,12583],[55.9,12711],[58,12836],[58.9,12942],[60.3,13057],[61.4,13185],[62.4,13310]]",1,0,1169.711,1174.705,57.29166667,2.865,"[{""rating"":64.27083333333333,""responseTime"":1.6949999999999363},{""rating"":57.291666666666664,""responseTime"":2.865000000000009}]",space,4.426,,1174.706,Definitely yes,100,1174.735,,,[],,0,10,10,10,1,audio/Narrative8Situation1.wav,audio/Narrative7Situation1.wav,audio/Narrative6Situation1.wav,audio/Narrative5Situation1.wav,5,2,2,5,,,,,,,,,,,,,,,,,,,,,,,,,,,,,,,,,,,
,,,,,,66350027a37d96b687525725,2024-05-13_16h48.37.251,group3.1-3.2-social-tom,2023.2.2,Win32,60.0240096,65c5074098b851296ff0b7ed,6642344f46ca20fbe6114822,,,,,,,,,,,,,,,,,,,,,,,,,,,,,1174.735,2,audio/Narrative5Situation2.wav,1177.735,,1177.735,1207.251,"[[65.9,4405],[69.6,4521],[69.9,4653],[70.2,4767],[71,4896],[72.2,5040],[72.2,5143],[72.2,5250],[72.2,5339],[72.2,5460],[72.5,5573],[72.5,5671],[72.5,5779],[72.5,5909],[72.5,6007],[72.5,6142],[72.5,6241],[72.6,6356],[72.7,6471],[72.7,6581],[72.7,6709],[72.7,6833],[72.7,6945],[72.7,7055],[72.7,7153],[72.7,7275],[72.7,7390],[72.7,7505],[68.2,7629],[65.2,7750],[63.9,7876],[63.5,7998],[63.2,8107],[70.6,8228],[86.4,8346],[87.9,8467],[89.4,8598],[90.6,8712],[93,8853],[93.5,8952],[94.8,9095],[94.9,9199],[94.9,9317],[94.9,9418],[94.9,9536],[94.9,9640],[94.9,9736],[94.9,9843],[94.9,9951],[94.9,10056],[94.9,10165],[94.9,10275],[94.9,10370],[94.9,10483],[94.9,10603],[94.9,10736],[94.9,10837],[94.9,10966],[94.9,11056],[94.9,11165],[94.9,11276],[94.9,11379],[94.9,11495],[94.9,11602],[94.9,11707],[94.9,11825],[94.9,11934],[94.9,12038],[94.9,12144],[94.9,12256],[94.9,12365],[94.9,12468],[94.9,12585],[94.9,12699],[94.9,12816],[94.9,12925],[94.9,13038],[94.9,13134],[94.9,13249],[94.9,13371],[94.9,13481],[94.9,13599],[94.9,13708],[94.9,13817],[94.9,13923],[94.9,14031],[94.9,14152],[94.9,14283],[94.9,14371],[94.9,14481],[94.9,14596],[94.9,14698],[94.9,14820],[94.9,14941],[94.9,15043],[95.4,15158],[96,15268],[96.9,15400],[97.1,15516],[97.4,15630],[97.8,15759],[97.9,15865],[98,15967],[98.2,16084],[98.2,16204],[98.2,16300],[98.2,16425],[98.2,16526],[97.9,16646],[97.7,16760],[97.7,16872],[97.7,16971],[97.7,17088],[97.6,17195],[97.5,17288],[97,17403],[95.5,17518],[94.6,17627],[94,17730],[97.1,17845],[97.8,17957],[98.3,18069],[98.6,18191],[98.8,18298],[98.8,18404],[98.6,18519],[89.4,18670],[86.4,18784],[82.4,18937],[75.4,19043],[68.2,19156],[59.9,19284],[54.8,19404],[52.3,19528],[50.6,19649],[49.2,19780],[48.2,19883],[46.8,20004],[45.3,20132],[43.6,20240],[42.8,20356],[41.1,20482],[40,20596],[39.2,20732],[37.9,20855],[37,20967],[36.5,21078],[36.4,21185],[36,21297],[36,21405],[36,21500],[36,21615],[36.4,21729],[36.8,21831],[37.3,21954],[37.4,22067],[37.6,22178],[37.9,22295],[38.2,22414],[39,22535],[39.3,22653],[39.8,22786],[40.4,22897],[40.7,23008],[41.5,23116],[41,23239],[29.8,23361],[29.7,23461],[29.7,23588],[33.5,23716],[35,23836],[37,23961],[37.5,24072],[40.1,24194],[46,24346],[46,24438],[46.8,24533],[46.8,24647],[46.8,24766],[29.9,24885],[27.2,25002],[26.4,25134],[25.8,25246],[25.1,25376],[24.7,25489],[23.9,25596],[23.9,25694],[23.8,25800],[23.6,25911],[23.1,26026],[22.9,26134],[22.7,26268],[22.7,26367],[22.7,26477],[22.7,26588],[22.7,26691],[22.8,26813],[23,26911],[23.5,27025],[24,27126],[24.3,27229],[24.4,27320],[24.6,27411],[24.7,27516],[25,27627],[25.4,27731],[25.6,27863],[26.1,27971],[26.4,28068],[26.6,28175],[26.7,28259],[26.8,28345],[26.8,28441],[27.2,28533],[28.4,28649],[30.3,28759],[38.1,28868],[65.1,28980],[77.7,29096],[89.7,29199],[93.9,29308],[95.2,29420],[95.2,29511]]",1,0,1207.254,1213.115,86.97916667,1.915,"[{""rating"":80,""responseTime"":1.2639999999998963},{""rating"":86.97916666666667,""responseTime"":1.9149999999999636}]",space,5.313,,1213.117,Definitely yes,100,1213.138,,,[],,0,11,11,11,1,audio/Narrative8Situation2.wav,audio/Narrative7Situation2.wav,audio/Narrative6Situation2.wav,audio/Narrative5Situation2.wav,3,3,3,3,,,,,,,,,,,,,,,,,,,,,,,,,,,,,,,,,,,
,,,,,,66350027a37d96b687525725,2024-05-13_16h48.37.251,group3.1-3.2-social-tom,2023.2.2,Win32,60.0240096,65c5074098b851296ff0b7ed,6642344f46ca20fbe6114822,,,,,,,,,,,,,,,,,,,,,,,,,,,,,1213.139,2,audio/Narrative5Situation3.wav,1216.149,,1216.15,1230.064,"[[999,8],[999,114],[999,230],[999,325],[999,432],[999,536],[999,651],[999,768],[999,861],[999,976],[999,1096],[999,1192],[999,1295],[999,1397],[60.3,1495],[61.1,1599],[59.2,1718],[57.6,1824],[53.6,1924],[51.6,2028],[51.6,2115],[44.3,2227],[42.7,2344],[42.7,2450],[37.8,2563],[37.8,2673],[37.8,2756],[37.8,2841],[37.8,2921],[37.8,3024],[37.8,3133],[37.8,3237],[37.8,3324],[29.3,3717],[33.8,3817],[34.8,3926],[34.8,4041],[71.8,4164],[73.9,7974],[83.3,8201],[80.9,8325],[86,8443],[90.6,8582],[90.8,8689],[93.2,8806],[93.6,8889],[93.9,8981],[93.9,9072],[93.9,9162],[94,9251],[94,9337],[94,9427],[94,9538],[94,9628],[94,9741],[94,9836],[94,9956],[94,10057],[94,10157],[94,10265],[94,10363],[94,10480],[94,10593],[94,10698],[94,10811],[94,10923],[94,11033],[94,11128],[94,11240],[94,11365],[94,11476],[92.9,11574],[92.8,11697],[92.8,11793],[92.6,11886],[92.6,11978],[92.6,12072],[94.1,12215],[94.1,12314],[94.6,12428],[94.6,12538],[94.6,12659],[94.6,12739],[94.6,12865],[94.6,12982],[94.6,13104],[94.6,13197],[94.6,13304],[95.1,13403],[95.9,13495],[96.6,13596],[97.3,13703],[98.3,13807],[98.6,13912]]",1,0,1230.068,1233.304,98.85416667,1.596,"[{""rating"":98.85416666666667,""responseTime"":1.5960000000000036}]",space,2.678,,1233.306,Definitely yes,100,1233.325,,,[],,0,12,12,12,1,audio/Narrative8Situation3.wav,audio/Narrative7Situation3.wav,audio/Narrative6Situation3.wav,audio/Narrative5Situation3.wav,4,8,5,3,,,,,,,,,,,,,,,,,,,,,,,,,,,,,,,,,,,
,,,,,,66350027a37d96b687525725,2024-05-13_16h48.37.251,group3.1-3.2-social-tom,2023.2.2,Win32,60.0240096,65c5074098b851296ff0b7ed,6642344f46ca20fbe6114822,,,,,,,,,,,,,,,,,,,,,,,,,,,,,1233.326,2,audio/Narrative5Situation4.wav,1234.335,,1234.336,1254.765,"[[999,1],[999,116],[999,225],[999,337],[999,457],[999,557],[999,667],[999,782],[999,905],[999,1017],[999,1116],[999,1231],[999,1321],[999,1426],[999,1521],[999,1599],[999,1680],[999,1771],[999,1866],[999,1981],[999,2092],[999,2182],[999,2284],[999,2378],[999,2463],[999,2549],[999,2628],[999,2715],[999,2828],[999,2913],[999,3004],[999,3105],[999,3206],[999,3302],[999,3405],[999,3511],[999,3605],[999,3695],[999,3805],[999,3909],[999,4011],[999,4102],[999,4221],[999,4328],[999,4419],[999,4536],[37.3,4663],[37.5,4780],[37.9,4895],[38,5010],[38.1,5120],[25.4,5251],[16.1,5370],[11,5519],[8.3,5605],[4.4,5716],[4.2,5821],[4.2,5919],[4.2,6029],[4.2,6138],[4.2,6248],[4.2,6360],[4.2,6472],[4.2,6586],[4.2,6697],[6.4,6809],[6.4,6913],[6.4,7034],[4.6,7151],[4.4,7248],[4.2,7355],[2.7,7480],[2.7,7590],[2.7,7686],[2.7,7808],[2.7,7900],[2.7,7980],[2.7,8063],[2.7,8165],[2.7,8270],[2.7,8363],[2.7,8483],[2.7,8564],[2.7,8641],[2.7,8727],[2.7,8817],[2.7,8892],[2.7,8977],[2.7,9087],[9,9193],[15,9317],[24.6,9446],[42,9565],[50.4,9671],[59.2,9798],[62.8,9919],[66.5,10029],[67.9,10149],[68.8,10245],[70.7,10368],[71.9,10469],[76.3,10599],[77.6,10714],[78.1,10822],[78.1,10937],[78.1,11045],[78.1,11147],[78.1,11259],[78.1,11371],[78.1,11487],[78.1,11586],[78.1,11700],[78.1,11801],[78.1,11900],[78.1,12002],[78.1,12119],[78.1,12215],[78.1,12327],[78.1,12421],[78.1,12535],[78.1,12647],[78.1,12761],[78.1,12880],[78.1,13004],[78.1,13112],[78.1,13223],[78.1,13312],[78.1,13400],[78.1,13509],[78.1,13593],[78.1,13678],[78.1,13757],[78.1,13844],[78.1,13928],[78.1,14009],[78.1,14096],[78.1,14196],[78.1,14304],[78.1,14410],[78.1,14493],[78.1,14576],[78.1,14660],[78.1,14743],[78.1,14852],[78.1,14962],[78.1,15067],[78.1,15160],[78.1,15244],[78.1,15324],[78.1,15407],[78.1,15496],[78.1,15578],[78.1,15677],[78.1,15791],[78.1,15894],[78.1,15978],[80.2,16086],[84,16197],[86.8,16318],[86.9,16417],[90.5,16536],[91.6,16644],[92.7,16747],[92.7,16830],[92.7,16947],[92.7,17052],[92.7,17157],[92.9,17278],[93.4,17394],[93.5,17497],[93.8,17617],[94.1,17735],[94.3,17853],[94.7,17972],[94.9,18091],[95,18196],[95,18312],[95.1,18420],[95.1,18533],[95.1,18642],[95.3,18759],[95.6,18896],[95.8,19004],[95.8,19115],[96,19280],[96.1,19376],[96.1,19485],[96.1,19579],[96.1,19655],[96.4,19741],[98.1,19852],[98.3,19947],[98.3,20055],[98.3,20173],[98.3,20275],[98.3,20404]]",1,0,1254.765,1256.907,98.33333333,1.771,"[{""rating"":98.33333333333334,""responseTime"":1.7709999999999582}]",space,1.594,,1256.907,Definitely yes,100,1256.923,,,[],,0,13,13,13,1,audio/Narrative8Situation4.wav,audio/Narrative7Situation4.wav,audio/Narrative6Situation4.wav,audio/Narrative5Situation4.wav,3,3,2,1,,,,,,,,,,,,,,,,,,,,,,,,,,,,,,,,,,,
,,,,,,66350027a37d96b687525725,2024-05-13_16h48.37.251,group3.1-3.2-social-tom,2023.2.2,Win32,60.0240096,65c5074098b851296ff0b7ed,6642344f46ca20fbe6114822,,,,,,,,,,,,,,,,,,,,,,,,,,,,,1256.924,2,audio/Narrative5Situation5.wav,1261.936,,1261.936,1277.371,"[[97.8,2741],[96.9,2846],[96.8,2979],[76.3,3083],[76.3,3201],[75.7,3313],[60.6,3435],[60.2,3551],[60.2,3673],[56.3,3807],[48.6,3920],[34.2,4036],[19.5,4165],[11,4305],[9.9,4421],[8,4525],[7,4630],[7,4746],[6.9,4852],[6.9,4936],[6.9,5021],[6.9,5104],[6.9,5186],[6.9,5278],[6.4,5390],[5.9,5498],[5.3,5611],[5,5701],[4.7,5788],[4.7,5894],[4.7,6007],[5.1,6107],[6.5,6228],[7,6344],[7,6461],[7,6576],[7.7,6686],[7.8,6769],[7.8,6857],[8.2,6959],[8.6,7038],[8.8,7153],[9.1,7259],[9.7,7340],[10.3,7452],[10.5,7574],[10.5,7669],[10.5,7781],[11.7,7898],[11.9,7987],[12.5,8073],[13.2,8180],[14,8287],[14.4,8402],[14.7,8506],[14.9,8606],[14.9,8723],[15,8824],[16,8941],[16,9045],[17.1,9174],[18.8,9305],[21,9444],[24.4,9586],[27.3,9704],[32.2,9828],[35.1,9972],[37,10077],[38.1,10200],[38.6,10313],[39,10429],[39.3,10546],[39.6,10656],[39.8,10785],[40,10907],[40.4,11013],[40.8,11116],[41.5,11237],[41.6,11345],[42,11451],[42.7,11564],[43.3,11681],[44.4,11792],[45.2,11896],[46.3,12020],[46.8,12134],[47.3,12244],[47.5,12339],[47.7,12446],[48,12576],[48.3,12678],[48.9,12775],[49.3,12890],[49.7,12986],[50.1,13089],[50.4,13198],[51,13321],[51.9,13423],[52.6,13556],[53,13653],[53.4,13765],[54.7,13871],[57,13987],[59.2,14108],[59.2,14211],[59.2,14304],[59.2,14413],[59.2,14507],[59.2,14622],[59.2,14721],[59.2,14808],[60.3,14938],[60.3,15038],[60.3,15160],[63.5,15284],[65.5,15420]]",1,0,1277.371,1279.853,83.02083333,1.665,"[{""rating"":83.02083333333333,""responseTime"":1.6649999999999636}]",space,1.947,,1279.853,Definitely yes,100,1279.868,,,[],,0,14,14,14,1,audio/Narrative8Situation5.wav,audio/Narrative7Situation5.wav,audio/Narrative6Situation5.wav,audio/Narrative5Situation5.wav,2,5,2,5,,,,,,,,,,,,,,,,,,,,,,,,,,,,,,,,,,,
,,,,,,66350027a37d96b687525725,2024-05-13_16h48.37.251,group3.1-3.2-social-tom,2023.2.2,Win32,60.0240096,65c5074098b851296ff0b7ed,6642344f46ca20fbe6114822,,,,,,,,,,,,,,,,,,,,,,,,,,,,,1279.876,2,audio/Narrative5Situation6.wav,1282.877,,1282.877,1288.576,"[[80.4,218],[71,347],[68.1,469],[67.5,578],[67.8,710],[67.9,825],[67.5,940],[67,1057],[65.5,1181],[64.4,1297],[63.9,1408],[62.3,1527],[61.8,1645],[61.8,1745],[61.8,1858],[61.8,1969],[62.4,2086],[63,2201],[63,2297],[62.4,2407],[62.4,2524],[61.5,2644],[61.4,2749],[61.4,2855],[58.3,2974],[58.2,3080],[58.2,3172],[57.7,3264],[57.5,3360],[56.7,3476],[56.3,3556],[56,3645],[54.3,3762],[53.6,3848],[53.1,3965],[53,4056],[53,4162],[53,4266],[53,4364],[53,4457],[53,4538],[53,4625],[53.1,4711],[54.1,4810],[54.6,4935],[55,5026],[55.6,5124],[56.5,5233],[56.8,5326],[57,5405],[57.2,5489],[57.6,5578],[58.2,5697]]",1,0,1288.576,1291.261,96.04166667,1.411,"[{""rating"":96.04166666666667,""responseTime"":1.4109999999998308}]",space,2.131,,1291.261,Partially,50,1291.289,,,[],,0,15,15,15,1,audio/Narrative8Situation6.wav,audio/Narrative7Situation6.wav,audio/Narrative6Situation6.wav,audio/Narrative5Situation6.wav,2,3,2,3,,,,,,,,,,,,,,,,,,,,,,,,,,,,,,,,,,,
,,,,,,66350027a37d96b687525725,2024-05-13_16h48.37.251,group3.1-3.2-social-tom,2023.2.2,Win32,60.0240096,65c5074098b851296ff0b7ed,6642344f46ca20fbe6114822,,,,,,,,,,,,,,,,,,,,,,,,,,,,,1291.29,2,audio/Narrative5Situation7.wav,1295.306,,1295.307,1316.397,"[[93.8,455],[93.8,563],[93.8,667],[93.8,786],[93.5,901],[93.4,1016],[92.9,1128],[91.4,1257],[90.8,1372],[89.4,1510],[88.5,1619],[87.4,1734],[86.1,1877],[85,2009],[84.9,2107],[84.9,2198],[84.9,2322],[84.9,2405],[84.9,2500],[84.9,2588],[84.9,2674],[84.9,2770],[84.9,2884],[84.9,2995],[84.9,3099],[84.9,3192],[84.9,3272],[84.9,3377],[84.9,3494],[84.9,3600],[84.9,3674],[84.9,3752],[84.9,3836],[84.9,3923],[84.9,4002],[84.9,4088],[84.9,4174],[84.9,4259],[84.9,4375],[84.9,4486],[84.9,4582],[84.9,4674],[84.9,4755],[84.9,4859],[84.9,4965],[84.9,5057],[84.9,5139],[84.9,5219],[84.9,5307],[84.9,5411],[84.9,5506],[84.9,5607],[84.9,5707],[84.9,5785],[84.9,5872],[84.4,5990],[84.4,6097],[84.4,6213],[83.8,6323],[83.4,6432],[83.2,6552],[83.2,6676],[83.2,6766],[83.2,6881],[83.2,6996],[83.2,7109],[83.2,7217],[83.2,7324],[83.2,7434],[83.2,7554],[78.4,7689],[76.1,7804],[69.5,7948],[62.9,8064],[53.9,8211],[41.8,8324],[28.4,8444],[25.1,8569],[24.8,8660],[22.7,8780],[16.8,8899],[10.3,9012],[8.6,9122],[0.5,9563],[3.9,9682],[7.7,9781],[9.2,9895],[13.2,10026],[14.4,10106],[16.8,10226],[17.5,10342],[18.1,10444],[17.2,10554],[9.4,10669],[7.8,10785],[7.7,10866],[7.6,10953],[7.6,11038],[7.6,11117],[7.6,11201],[7.6,11294],[9.8,11388],[9.9,11488],[9.9,11596],[8.4,11714],[6.1,11825],[6,11923],[3.8,12052],[3.8,12158],[2.8,12266],[2.6,12373],[2.6,12490],[2.6,12591],[2.6,12705],[2.6,12813],[4,12930],[4,13045],[4.1,13152],[4.2,13235],[4.6,13339],[4.6,13459],[4.6,13557],[4.6,13675],[4.6,13773],[4.6,13889],[4.6,13994],[4.6,14106],[4.6,14209],[4.6,14320],[4.6,14442],[4.6,14539],[4.6,14648],[4.9,14736],[8.4,14842],[11.7,14964],[16.6,15089],[22.4,15215],[23.9,15328],[25.2,15453],[25.7,15558],[29.2,15676],[31,15776],[33.1,15878],[34.3,15971],[36.9,16101],[38.9,16209],[40.4,16325],[44.5,16457],[47.4,16593],[48.2,16688],[48.4,16790],[48.5,16894],[48.8,16995],[48.8,17090],[43.2,17209],[30.8,17334],[23.9,17445],[19.7,17553],[16.1,17674],[13.1,17794],[12.3,17906],[11.5,18029],[11.4,18148],[10.8,18278],[9.7,18413],[9.1,18512],[9,18615],[8.9,18728],[8.5,18848],[8.5,18962],[8.8,19086],[8.9,19192],[8.9,19304],[8.8,19417],[8.8,19524],[8.8,19655],[8.8,19752],[10,19873],[10.2,19987],[10.3,20084],[10.3,20194],[10.3,20294],[10.3,20400],[10.4,20509],[10.4,20616],[10.4,20698],[10.6,20792],[10.6,20908],[10.8,21021]]",1,0,1316.399,1321.196,11.04166667,3.011,"[{""rating"":11.041666666666666,""responseTime"":3.0109999999999673}]",space,4.241,,1321.196,Partially,50,1321.202,,,[],,0,16,16,16,1,audio/Narrative8Situation7.wav,audio/Narrative7Situation7.wav,audio/Narrative6Situation7.wav,audio/Narrative5Situation7.wav,3,5,5,4,,,,,,,,,,,,,,,,,,,,,,,,,,,,,,,,,,,
,,,,,,66350027a37d96b687525725,2024-05-13_16h48.37.251,group3.1-3.2-social-tom,2023.2.2,Win32,60.0240096,65c5074098b851296ff0b7ed,6642344f46ca20fbe6114822,,,,,,,,,,,,,,,,,,,,,,,,,,,,,1321.206,2,audio/Narrative5Situation8.wav,1324.206,,1324.207,1333.062,"[[999,1],[999,96],[999,186],[999,260],[999,346],[999,441],[999,566],[999,664],[999,774],[999,884],[30.3,1008],[26.8,1135],[23.8,1240],[22.3,1353],[21.8,1463],[21.5,1571],[20.5,1680],[20.3,1779],[20.3,1864],[21.7,1981],[25,2105],[26.9,2227],[28,2338],[29,2458],[29.3,2564],[29.4,2687],[29.4,2807],[29.4,2905],[29.4,3021],[29.4,3124],[29.4,3270],[29.4,3380],[27,3517],[22.7,3641],[17.2,3771],[14.6,3891],[11.8,4008],[11.7,4111],[11.6,4222],[11.1,4326],[11.1,4413],[11.1,4519],[11.1,4642],[10.6,4750],[10.6,4827],[10.4,4914],[9.9,5046],[6.8,5169],[6.6,5269],[6.3,5375],[6.1,5466],[5.6,5596],[5.4,5717],[5.4,5793],[5.4,5877],[5.4,5968],[5.4,6044],[5.4,6129],[5.4,6220],[5.4,6322],[5.4,6441],[5.4,6549],[5.4,6657],[5.4,6766],[5.4,6842],[5.4,6927],[5.4,7020],[5.4,7125],[5.4,7210],[5.4,7295],[5.4,7382],[5.4,7480],[5.4,7576],[5.4,7663],[5.4,7744],[5.4,7827],[5.4,7931],[5.4,8044],[5.4,8127],[5.4,8236],[5.4,8335],[5.4,8448],[5.4,8572],[5.4,8681],[5.4,8786]]",1,0,1333.063,1335.289,4.375,1.006,"[{""rating"":4.375000000000001,""responseTime"":1.0060000000000855}]",space,1.685,,1335.292,Definitely yes,100,1335.326,,,[],,0,17,17,17,1,audio/Narrative8Situation8.wav,audio/Narrative7Situation8.wav,audio/Narrative6Situation8.wav,audio/Narrative5Situation8.wav,3,2,5,3,,,,,,,,,,,,,,,,,,,,,,,,,,,,,,,,,,,
,,,,,,66350027a37d96b687525725,2024-05-13_16h48.37.251,group3.1-3.2-social-tom,2023.2.2,Win32,60.0240096,65c5074098b851296ff0b7ed,6642344f46ca20fbe6114822,,,,,,,,,,,,,,,,,,,,,,,,,,,,,1335.326,2,audio/Narrative5Situation9.wav,1338.336,,1338.337,1377.915,"[[999,0],[999,106],[999,220],[999,326],[999,445],[999,548],[999,668],[999,773],[999,890],[999,1008],[999,1124],[999,1235],[999,1341],[999,1451],[19.1,1585],[12.5,1694],[6.9,1822],[4.7,1946],[4.7,2062],[15.1,2184],[17,2302],[17,2395],[17,2515],[17,2620],[17,2711],[17,2809],[17.8,2920],[20.7,3035],[23.6,3154],[25.5,3266],[25.6,3346],[26,3461],[27.1,3567],[29.1,3698],[30.5,3793],[32.2,3927],[34.2,4050],[35.5,4158],[40,4265],[41.5,4380],[43.5,4480],[46.6,4596],[48,4697],[48.9,4807],[49,4905],[49,5025],[49,5128],[49.3,5224],[50,5326],[50,5428],[50,5551],[50.1,5645],[50.1,5743],[50.4,5828],[50.9,5932],[51.3,6018],[51.4,6127],[51.4,6221],[51.4,6310],[52.4,6423],[52.7,6549],[52.8,6654],[52.9,6751],[52.9,6869],[52.9,6984],[54.1,7106],[54.6,7218],[54.7,7328],[54.6,7464],[42.2,7576],[34.4,7714],[27.3,7828],[23.5,7951],[29.3,8073],[43.1,8192],[48.4,8323],[52,8442],[54.9,8566],[58.2,8696],[60.3,8788],[66.5,8894],[70,9004],[74.6,9128],[78.2,9240],[81.8,9355],[84.9,9480],[86.5,9604],[87.4,9730],[89,9839],[89.7,9944],[90.2,10043],[90.2,10127],[91.1,10221],[91.5,10316],[92.1,10424],[92.1,10525],[92.1,10615],[91.9,10727],[91.1,10827],[85.4,10943],[84.1,11063],[84.1,11157],[84.1,11264],[84.1,11370],[84.2,11466],[84.2,11573],[84.3,11657],[85.7,11778],[87.3,11876],[88,11980],[88.4,12068],[88.4,12175],[88.4,12259],[89.1,12349],[90.2,12468],[92.8,12589],[93,12717],[93,12817],[93,12925],[93.5,13028],[93.6,13124],[93.9,13240],[93.9,13350],[93.9,13456],[93.9,13559],[93.9,13676],[93.9,13793],[94.7,13919],[94.7,14014],[94.7,14125],[94.7,14226],[94.8,14348],[94.9,14457],[95,14571],[95.3,14663],[95.4,14773],[95.8,14879],[95.9,14977],[95.9,15074],[95.9,15155],[95.9,15239],[95.9,15326],[95.9,15418],[95.9,15534],[95.9,15641],[95.9,15737],[96,15847],[96,15949],[96,16048],[96,16141],[96,16221],[96,16306],[96,16394],[96.1,16480],[96.3,16589],[96.5,16682],[96.5,16779],[96.5,16879],[96.5,16995],[96.5,17106],[96.5,17188],[96.5,17274],[96.5,17355],[96.5,17467],[96.5,17557],[96.5,17641],[96.5,17721],[96.5,17804],[96.5,17893],[96.4,17972],[96.3,18067],[96.3,18139],[96.3,18220],[95.7,18307],[95.4,18400],[95.4,18512],[95.4,18624],[95.4,18740],[95.4,18836],[95.3,18941],[95,19066],[95,19177],[95,19284],[95,19394],[95,19495],[95,19622],[95,19729],[95.6,19877],[95.8,20008],[96,20129],[96,20253],[96.1,20346],[96.5,20465],[96.6,20571],[96.9,20687],[97,20797],[97.1,20926],[97.1,21009],[97.1,21119],[97.2,21232],[97.4,21348],[97.5,21461],[97.5,21577],[97.5,21675],[97.5,21782],[97.5,21894],[97.5,21992],[97.5,22102],[97.5,22213],[97.5,22314],[97.5,22432],[97.5,22545],[97.5,22644],[97.5,22760],[98.1,22871],[98.2,23042],[98.2,23154],[98.4,23266],[99,23380],[99,23503],[99,23607],[99.1,23718],[99.2,23852],[99.2,23945],[99.1,24059],[98.4,24173],[97.1,24318],[95.4,24426],[93,24549],[91.8,24677],[88.2,24827],[87.9,24945],[87.4,25054],[87.4,25166],[87.4,25279],[87.4,25396],[88.6,25519],[90.1,25644],[91.9,25766],[92.5,25885],[93,26020],[93.1,26125],[93.1,26259],[93.1,26384],[92.8,26496],[92,26614],[91.3,26730],[90.1,26860],[89.8,26954],[89,27072],[88,27206],[87.9,27302],[87.1,27425],[84.3,27549],[83.8,27663],[82.9,27773],[81.4,27876],[79.2,27996],[78.5,28116],[78.3,28221],[77.7,28327],[77.3,28448],[77.1,28566],[76.8,28684],[76.7,28793],[75.7,28898],[72.8,29023],[70.3,29145],[70.2,29240],[70.1,29355],[69.5,29479],[69.1,29585],[68.2,29684],[68.2,29774],[68.2,29849],[68.2,29936],[68.2,30050],[68.4,30174],[71,30281],[74.7,30399],[83.3,30534],[88.9,30669],[90.9,30772],[91.7,30885],[92.8,30999],[93.6,31115],[94.6,31217],[95,31336],[95.5,31441],[95.6,31562],[95.8,31678],[96.5,31814],[96.6,31915],[96.6,32028],[96.7,32144],[96.8,32256],[96.8,32378],[96.8,32484],[96.8,32585],[96.8,32692],[97.2,32819],[97.3,32938],[97.3,33041],[97.3,33165],[97.3,33271],[97.3,33400],[97.4,33510],[97.4,33604],[97.5,33730],[97.5,33823],[97.5,33920],[97.6,34027],[97.7,34134],[97.8,34245],[97.9,34352],[98,34473],[98,34577],[98,34677],[98.2,34783],[98.3,34894],[98.4,35009],[98.4,35108],[98.4,35211],[98.8,35331],[98.9,35436],[98.9,35542],[98.9,35640],[96.5,35768],[94.1,35906],[89.8,36038],[85.3,36140],[80.9,36256],[74.6,36369],[73.1,36499],[66.9,36621],[63.2,36741],[60.7,36857],[58.2,36971],[55.1,37088],[52.3,37202],[49.1,37327],[46.6,37443],[44.2,37562],[41.8,37703],[40.8,37803],[39.8,37927],[39,38032],[37.7,38160],[36.5,38270],[34.8,38394],[33.1,38528],[31.5,38667],[29.8,38788],[27.9,38900],[25,39023],[22.9,39140],[21.7,39265],[18.9,39390],[17.5,39529]]",1,0,1377.916,1383.677,17.5,4.305,"[{""rating"":11.458333333333332,""responseTime"":1.1359999999999673},{""rating"":17.5,""responseTime"":4.304999999999836}]",space,5.184,,1383.68,Partially,50,1403.098,49.79166667,16.018,"[{""rating"":49.791666666666664,""responseTime"":16.01800000000003}]",space,0,18,18,18,1,audio/Narrative8Situation9.wav,audio/Narrative7Situation9.wav,audio/Narrative6Situation9.wav,audio/Narrative5Situation9.wav,3,2,4,3,,,18.854,,,,,,,,,,,,,,,,,,,,,,,,,,,,,,,,
,,,,,,66350027a37d96b687525725,2024-05-13_16h48.37.251,group3.1-3.2-social-tom,2023.2.2,Win32,60.0240096,65c5074098b851296ff0b7ed,6642344f46ca20fbe6114822,,,,,,,,,,,,,,,,,,,,,,,,,,,,,,,,,,,,,,,,,,,,,,,,,,,,,,,,,,,,,,,,,,,,,,,,1403.104,1463.096,,1463.096,1510.615,space,47.197,,,,,,,,,,,,,,,,,,,,,,,,
,,,,,,66350027a37d96b687525725,2024-05-13_16h48.37.251,group3.1-3.2-social-tom,2023.2.2,Win32,60.0240096,65c5074098b851296ff0b7ed,6642344f46ca20fbe6114822,,,,,,,,,,,,,,,,,,,,,,,,,,,,,1513.233,1,audio/Narrative7Situation9.wav,1515.248,,,,,,,1547.294,1559.345,93.33333333,2.617,"[{""rating"":93.33333333333333,""responseTime"":2.616999999999962}]",space,11.509,,1547.266,Definitely yes,100,1547.293,,,[],,,,,,,,,,,2,2,2,2,,,,,,,,,,,,,1510.618,1513.188,1515.249,3,1547.266,"[[999,8],[999,165],[999,282],[999,390],[999,507],[999,610],[999,709],[999,807],[999,888],[999,974],[999,1073],[999,1166],[999,1272],[999,1356],[999,1464],[999,1561],[999,1656],[999,1741],[999,1849],[999,1949],[999,2039],[999,2127],[999,2235],[999,2329],[999,2429],[999,2511],[999,2622],[999,2734],[999,2823],[999,2940],[999,3027],[999,3134],[999,3238],[999,3322],[999,3414],[999,3513],[999,3606],[999,3692],[999,3773],[999,3879],[999,3979],[999,4104],[34.6,4217],[55.2,6942],[45.4,7433],[31.9,7564],[27.5,7692],[26.3,7786],[25.7,7877],[25.3,7984],[23.8,8110],[23.2,8190],[23.2,8298],[22.4,8421],[22.4,8531],[22.4,8637],[22.4,8748],[23.5,8871],[24,8972],[24,9058],[24,9135],[24,9221],[24,9323],[23.5,9421],[23.4,9515],[23.3,9626],[23.2,9718],[23,9803],[22.9,9887],[22.8,9971],[22.8,10089],[22.3,10197],[22,10306],[22,10402],[22,10487],[22,10574],[22.5,10693],[23.4,10806],[23.5,10906],[23.5,11005],[23.8,11131],[23.8,11205],[23.8,11339],[23.8,11424],[23.8,11545],[25.4,11681],[26.6,11780],[28.2,11906],[29.5,12034],[30.5,12145],[31.7,12267],[32,12381],[32.2,12504],[32.6,12605],[32.6,12729],[32.6,12841],[30.6,12977],[28.6,13105],[26.6,13237],[26,13348],[25.3,13471],[24.7,13569],[24.2,13654],[23.5,13769],[22,13873],[20.9,13982],[20.9,14071],[20.9,14149],[20.9,14234],[20.9,14327],[20.9,14419],[20.9,14511],[20.9,14631],[20.9,14724],[20.9,14840],[20.9,14933],[20.9,15019],[20.9,15125],[20.9,15238],[20.9,15348],[20.9,15436],[20.9,15519],[20.9,15602],[20.9,15689],[20.9,15767],[20.9,15851],[20.9,15944],[20.9,16042],[21.5,16173],[21.7,16284],[22.6,16394],[22.7,16485],[22.7,16603],[22.7,16693],[22.7,16818],[22.7,16906],[22.7,16991],[22.7,17100],[22.7,17186],[22.7,17284],[22.7,17386],[22.7,17497],[22.7,17602],[22.7,17708],[22.7,17831],[22.7,17945],[22.7,18044],[22.7,18160],[22.7,18266],[22.7,18382],[22.7,18491],[22.7,18612],[22.7,18727],[22.7,18835],[22.7,18952],[22.7,19067],[22.7,19175],[22.7,19288],[22.7,19405],[22.7,19516],[22.7,19626],[22.7,19729],[22.7,19815],[22.7,19902],[22.7,19982],[22.7,20065],[22.7,20161],[22.7,20266],[22.7,20371],[22.7,20472],[22.7,20594],[22.7,20704],[22.7,20808],[22.7,20905],[24.1,21028],[24.1,21125],[25.7,21242],[27.4,21363],[29.4,21477],[33.8,21596],[34.3,21702],[37.1,21823],[37.8,21950],[39.1,22088],[39.2,22186],[39.2,22284],[39.2,22388],[41.9,22513],[42,22626],[42.1,22721],[37.1,22840],[36.9,22950],[37.2,23068],[39.8,23202],[41.8,23332],[43.2,23450],[43.4,23573],[43.9,23686],[44.1,23801],[44.3,23939],[44.3,24038],[45.7,24161],[46.4,24271],[46.4,24386],[46.4,24508],[46.4,24619],[46.4,24733],[46.4,24838],[46.8,24965],[47.2,25087],[47.4,25196],[47.6,25309],[47.6,25426],[47.9,25535],[48.1,25660],[48.2,25775],[48.3,25880],[48.3,25992],[48.3,26105],[48.3,26207],[39.9,26336],[36.1,26448],[31.9,26588],[22.8,26699],[13.9,26830],[13.8,26933],[16.3,27074],[31.9,27209],[37,27332],[39.7,27455],[41,27582],[43.8,27700],[46.1,27802],[47,27923],[47.5,28034],[48.3,28154],[49,28253],[53.2,28366],[58.2,28488],[67.9,28602],[77.8,28704],[83.6,28817],[86.5,28935],[89,29058],[89.8,29173],[90.1,29283],[90.3,29407],[90.3,29525],[90.3,29630],[90.2,29734],[90.2,29811],[89.8,29924],[89.6,30037],[89.5,30149],[89.5,30258],[94,31455],[93,31568],[92.7,31659],[92.7,31772],[92.7,31879],[92.6,31990]]",0,0,0,0,1,"Larry had recently lost his family, job and home, and was now living on his own in the park. He had most of his belongings, including some clothes, a blanket, and his mother’s special necklace. His family had been very important to him and he felt as though he did not have much going for him. One of his first days in the park he came across a family that did not have much food and looked very cold. He decided to give them some of his food and his blanket.","Larry had recently lost his family, job and home, and was now living on his own in the park. He had most of his belongings, including some clothes, a blanket, and his mother’s special necklace. His family had been very important to him and he felt as though he did not have much going for him. One of his first days in the park he came across a family that did not have much food and looked very cold. He decided to give them some of his food and his blanket.","Larry had recently lost his family, job and home, and was now living on his own in the park. He had most of his belongings, including some clothes, a blanket, and his mother’s special necklace. His family had been very important to him and he felt as though he did not have much going for him. One of his first days in the park he came across a family that did not have much food and looked very cold. He decided to give them some of his food and his blanket.","Larry had recently lost his family, job and home, and was now living on his own in the park. He had most of his belongings, including some clothes, a blanket, and his mother’s special necklace. His family had been very important to him and he felt as though he did not have much going for him. One of his first days in the park he came across a family that did not have much food and looked very cold. He decided to give them some of his food and his blanket.",,,,,,,,
,,,,,,66350027a37d96b687525725,2024-05-13_16h48.37.251,group3.1-3.2-social-tom,2023.2.2,Win32,60.0240096,65c5074098b851296ff0b7ed,6642344f46ca20fbe6114822,,,,,,,,,,,,,,,,,,,,,,,,,,,,,1559.349,1,audio/Narrative7Situation9.wav,1570.345,space,,,,,,1594.244,1599.218,17.1875,2.372,"[{""rating"":17.1875,""responseTime"":2.372000000000071}]",space,4.442,,1594.226,Not at all,0,1594.244,,,[],,,,,,,,,,,6,2,3,9,10.956,,,,,,,,,,,,,,1570.347,3,1594.225,"[[90.5,1258],[88.6,1383],[83.9,1518],[81.4,1642],[81.4,1744],[81.4,1858],[81.4,1980],[81.4,2091],[81.1,2194],[79.9,2299],[75.7,2421],[65.4,2548],[63.9,2643],[63.9,2740],[63.9,2820],[63.8,2907],[63.8,3021],[62.1,3139],[57.8,3267],[55.1,3412],[53.8,3515],[53.8,3602],[53.8,3711],[53.5,3817],[53.1,3905],[53.1,4000],[53.1,4090],[53.1,4188],[53.1,4287],[53.1,4370],[53.1,4489],[53.1,4592],[53.1,4689],[53.1,4788],[53.1,4874],[53.1,4953],[53.1,5039],[53.1,5145],[53.1,5248],[53.1,5345],[53.1,5448],[53.1,5560],[53.1,5636],[53.1,5722],[53.1,5808],[53.1,5890],[53.1,5987],[53.1,6098],[53.1,6221],[53.1,6326],[53.1,6438],[53.1,6551],[53.1,6663],[53.1,6777],[53.1,6899],[54.3,7014],[57.8,7136],[60.8,7243],[60.7,7362],[54.8,7517],[53.9,7624],[52.9,7740],[52.9,7846],[52.9,7969],[52.9,8076],[52.9,8186],[52.9,8279],[52.9,8375],[52.9,8461],[52.9,8571],[53,8666],[55.3,8792],[58.9,8923],[61.7,9041],[63,9147],[64.2,9255],[64.2,9361],[63.3,9475],[58.1,9590],[44.3,9716],[22.9,9826],[15.6,9945],[11.7,10077],[10.7,10196],[10.6,10304],[10.5,10432],[10,10544],[9.8,10653],[9.7,10759],[9.6,10858],[9.6,10975],[9.6,11061],[9.6,11163],[9.7,11270],[10.1,11383],[10.7,11503],[11.5,11607],[11.9,11721],[12.1,11831],[12.4,11946],[12.5,12046],[12.5,12163],[12.8,12275],[12.8,12384],[12.8,12500],[12.7,12615],[12.5,12744],[12.2,12847],[12,12960],[11.9,13079],[11.6,13196],[10.9,13332],[10.1,13461],[10,13563],[9.8,13688],[9.7,13809],[9.7,13894],[9.4,14018],[9.2,14144],[9,14259],[9,14366],[8.6,14486],[8.5,14576],[8.4,14689],[8,14804],[7.8,14919],[7.8,15010],[7.8,15117],[7.9,15229],[8,15329],[8,15421],[8.4,15542],[8.6,15644],[8.6,15744],[8.8,15861],[9.3,15962],[9.9,16083],[9.9,16181],[9.9,16292],[9.9,16389],[9.9,16513],[9.9,16615],[9.9,16735],[11.9,16867],[11.9,16952],[12.3,17062],[13.6,17178],[14.1,17277],[14.2,17371],[14.2,17452],[14.1,17570],[14,17673],[13.8,17790],[13.2,17900],[13.1,17989],[12.8,18088],[12.6,18206],[12.5,18282],[12.5,18367],[12.5,18453],[12.1,18564],[11.9,18671],[11.8,18787],[11.7,18893],[11.6,19008],[11.6,19144],[11.6,19243],[11.6,19350],[11.5,19467],[11.4,19579],[11.3,19686],[11.1,19793],[11,19903],[11,20019],[11,20138],[11.1,20256],[11.7,20358],[12.3,20470],[12.3,20579],[12.3,20703],[11.3,20818],[10.5,20918],[10.3,21040],[10,21159],[9.7,21258],[9.3,21361],[9.2,21472],[9.1,21577],[9.1,21667],[9.1,21750],[9.1,21833],[9.3,21942],[9.5,22069],[9.6,22148],[10.3,22236],[11.6,22333],[12.2,22443],[12.9,22571],[13.6,22679],[13.9,22778],[14,22888],[14.1,22983],[14.1,23070],[14.1,23147],[17.4,23254],[17.4,23373],[17.5,23485],[18.4,23589],[18.4,23705],[18.4,23790]]",0,1,1,1,1,"It was just another Sunday afternoon for Lucy, she was on her way to the farmer's market to pick up some produce. When she arrived at the old train depot that housed the market, she noticed two men fighting on the steps. Before she could call for help, one of the men crumpled to his knees. The other man dropped an object that appeared to be a knife and ran off. When Lucy approached the crime scene she realized that the man who had been murdered was the Mayor and that he had a gunshot wound.","One day at work, Margaret walked up to her partner, Al, to ask him to talk to the chief of staff at the local hospital where she worked as a nurse.","Luke always thought of himself as an honest man. That's why during his evening jog around the swamp, he pondered his recent affair with the receptionist at work. Luke looked up at the sky and asked God why he was so weak and unfaithful. He thought of the impact this would have on his family and told God of his conflicted feelings toward telling his wife Marta.","Linda and Amy had been best friends since kindergarten, they even found homes on the same street in the forest on the edge of town. Their biggest fight had been over who gets the bigger slice of cake, until Amy married Dan. Linda loathed Dan, she thought he was manipulative and had a violent temper. She only put up with him because Amy loved him. ",,,,,,,,
