exp_question,consent.started,consent.stopped,consentResponse.keys,consentResponse.rt,consentResponse.duration,participantID,date,expName,psychopyVersion,OS,frameRate,STUDY_ID,SESSION_ID,opening1.started,opening1.stopped,keyEndingOpening1.keys,keyEndingOpening1.rt,keyEndingOpening1.duration,volumeAdjust.started,volumeAdjust.stopped,endingAdjust.keys,endingAdjust.rt,endingAdjust.duration,opening2.started,opening2.stopped,keyEndingOpening.keys,keyEndingOpening.rt,keyEndingOpening.duration,mouse.x,mouse.y,mouse.leftButton,mouse.midButton,mouse.rightButton,mouse.time,instructionLoop.thisRepN,instructionLoop.thisTrialN,instructionLoop.thisN,instructionLoop.thisIndex,instructionLoop.ran,readyForAudio.started,readyForAudio.stopped,fixation.started,run,audio_played,fixation.stopped,endPractice.keys,audioPre.started,audioPre.stopped,continuousResponses_audio,continuousSlider.response,continuousSlider.rt,intRating.started,intRating.stopped,intQuestionSlider.response,intQuestionSlider.rt,intQuestionSlider.history,confirmResponse.keys,confirmResponse.rt,confirmResponse.duration,catchQuestion.started,catch_label,catch_value,catchQuestion.stopped,catchQuestionSlider.response,catchQuestionSlider.rt,catchQuestionSlider.history,confirmResponse_2.keys,confirmResponse_2.rt,confirmResponse_2.duration,audioRunLoop.thisRepN,audioRunLoop.thisTrialN,audioRunLoop.thisN,audioRunLoop.thisIndex,audioRunLoop.ran,conditions1_1,conditions2_1,conditions1_2,conditions2_2,dur1_1,dur2_1,dur1_2,dur2_2,endPractice.rt,endPractice.duration,runIntervalBreak.started,runIntervalBreak.stopped,endingBreakKey.keys,endingBreakKey.rt,endingBreakKey.duration,connection.started,connection.stopped,connectionEnding.keys,connectionEnding.rt,connectionEnding.duration,readyForText.started,readyForText.stopped,textPre.started,run_dup,textPre.stopped,continuousResponses_text,textRunLoop.thisRepN,textRunLoop.thisTrialN,textRunLoop.thisN,textRunLoop.thisIndex,textRunLoop.ran,text1_1,text1_2,text2_1,text2_2,runBreakText.started,runBreakText.stopped,endingBreakKey_2.keys,endingBreakKey_2.rt,endingBreakKey_2.duration,ending.started,ending.stopped,endingEnding.keys,endingEnding.rt,endingEnding.duration
tom,0.0006,14.7327,y,14.4182,,6639187761791a1345921730,2024-05-13_11h32.04.498,group3.1-3.2-social-tom,2023.2.2,Win32,60.60606061,65c5074098b851296ff0b7ed,6642309befb234550897c71d,,,,,,,,,,,,,,,,,,,,,,,,,,,,,,,,,,,,,,,,,,,,,,,,,,,,,,,,,,,,,,,,,,,,,,,,,,,,,,,,,,,,,,,,,,,,,,,,,,,,,,,,,,
,,,,,,6639187761791a1345921730,2024-05-13_11h32.04.498,group3.1-3.2-social-tom,2023.2.2,Win32,60.60606061,65c5074098b851296ff0b7ed,6642309befb234550897c71d,14.7329,116.3728,space,101.6071,,,,,,,,,,,,,,,,,,,,,,,,,,,,,,,,,,,,,,,,,,,,,,,,,,,,,,,,,,,,,,,,,,,,,,,,,,,,,,,,,,,,,,,,,,,,,,,,,,,,,,
,,,,,,6639187761791a1345921730,2024-05-13_11h32.04.498,group3.1-3.2-social-tom,2023.2.2,Win32,60.60606061,65c5074098b851296ff0b7ed,6642309befb234550897c71d,,,,,,116.3729,123.5519,space,6.8372,,,,,,,,,,,,,,,,,,,,,,,,,,,,,,,,,,,,,,,,,,,,,,,,,,,,,,,,,,,,,,,,,,,,,,,,,,,,,,,,,,,,,,,,,,,,,,,,,
,,,,,,6639187761791a1345921730,2024-05-13_11h32.04.498,group3.1-3.2-social-tom,2023.2.2,Win32,60.60606061,65c5074098b851296ff0b7ed,6642309befb234550897c71d,,,,,,,,,,,123.5563,215.6729,space,92.0913,,[],[],[],[],[],[],0,0,0,0,1,,,,,,,,,,,,,,,,,,,,,,,,,,,,,,,,,,,,,,,,,,,,,,,,,,,,,,,,,,,,,,,,,,,,,,,,,,,,,,,,
,,,,,,6639187761791a1345921730,2024-05-13_11h32.04.498,group3.1-3.2-social-tom,2023.2.2,Win32,60.60606061,65c5074098b851296ff0b7ed,6642309befb234550897c71d,,,,,,,,,,,215.6738,362.453,space,146.6966,,[],[],[],[],[],[],1,0,1,0,1,,,,,,,,,,,,,,,,,,,,,,,,,,,,,,,,,,,,,,,,,,,,,,,,,,,,,,,,,,,,,,,,,,,,,,,,,,,,,,,,
,,,,,,6639187761791a1345921730,2024-05-13_11h32.04.498,group3.1-3.2-social-tom,2023.2.2,Win32,60.60606061,65c5074098b851296ff0b7ed,6642309befb234550897c71d,,,,,,,,,,,362.4534,380.6506,space,18.1371,,[],[],[],[],[],[],2,0,2,0,1,,,,,,,,,,,,,,,,,,,,,,,,,,,,,,,,,,,,,,,,,,,,,,,,,,,,,,,,,,,,,,,,,,,,,,,,,,,,,,,,
,,,,,,6639187761791a1345921730,2024-05-13_11h32.04.498,group3.1-3.2-social-tom,2023.2.2,Win32,60.60606061,65c5074098b851296ff0b7ed,6642309befb234550897c71d,,,,,,,,,,,380.6512,397.2154,space,16.5431,,[],[],[],[],[],[],3,0,3,0,1,,,,,,,,,,,,,,,,,,,,,,,,,,,,,,,,,,,,,,,,,,,,,,,,,,,,,,,,,,,,,,,,,,,,,,,,,,,,,,,,
,,,,,,6639187761791a1345921730,2024-05-13_11h32.04.498,group3.1-3.2-social-tom,2023.2.2,Win32,60.60606061,65c5074098b851296ff0b7ed,6642309befb234550897c71d,,,,,,,,,,,397.2158,406.7472,space,9.5187,,[],[],[],[],[],[],4,0,4,0,1,,,,,,,,,,,,,,,,,,,,,,,,,,,,,,,,,,,,,,,,,,,,,,,,,,,,,,,,,,,,,,,,,,,,,,,,,,,,,,,,
,,,,,,6639187761791a1345921730,2024-05-13_11h32.04.498,group3.1-3.2-social-tom,2023.2.2,Win32,60.60606061,65c5074098b851296ff0b7ed,6642309befb234550897c71d,,,,,,,,,,,,,,,,,,,,,,,,,,,406.7494,409.3311,409.3478,1,audio/Narrative13Situation2.wav,411.3634,,411.3636,441.1097,"[[999,1],[999,82],[999,166],[999,249],[999,333],[999,416],[999,499],[999,583],[999,666],[999,750],[999,833],[999,916],[999,999],[999,1083],[999,1166],[999,1250],[999,1332],[999,1415],[999,1499],[999,1582],[999,1665],[999,1749],[999,1833],[999,1916],[999,1999],[999,2082],[999,2166],[999,2249],[999,2332],[999,2415],[999,2499],[52.8,2582],[48.4,2666],[43.1,2749],[42,2832],[40.3,2916],[37.6,2999],[25.1,3083],[17.7,3165],[11,3249],[6.1,3332],[1.9,3415],[0.2,3499],[0.1,3915],[0.1,3999],[0.1,4082],[0.4,4165],[0.8,4248],[0.9,4332],[0.9,4415],[0.9,4499],[0.9,4582],[0.9,4665],[0.9,4749],[0.9,4832],[0.9,4915],[0.9,4999],[0.9,5082],[0.9,5165],[0.9,5249],[0.9,5332],[0.9,5415],[0.9,5499],[0.9,5582],[0.9,5665],[0.9,5748],[0.9,5832],[0.9,5915],[0.9,5999],[0.9,6082],[0.9,6165],[0.9,6249],[0.9,6332],[0.9,6415],[0.9,6498],[0.9,6582],[0.9,6665],[0.9,6748],[0.9,6831],[0.9,6915],[0.9,6998],[0.9,7082],[0.9,7165],[0.9,7248],[0.9,7332],[0.9,7415],[0.9,7499],[0.9,7581],[0.9,7665],[0.9,7749],[0.9,7831],[0.9,7915],[0.9,7998],[0.9,8081],[0.9,8164],[0.9,8248],[1.4,8332],[1.5,8415],[1.7,8499],[1.7,8582],[1.7,8665],[1.7,8748],[1.7,8832],[1.7,8915],[1.7,8998],[1.7,9082],[1.7,9165],[1.7,9248],[1.7,9332],[1.7,9414],[1.7,9498],[1.7,9581],[1.8,9665],[1.8,9748],[2.2,9831],[2.8,9915],[3.5,9998],[4.3,10081],[5.4,10165],[6.5,10248],[6.9,10331],[7.2,10414],[7.4,10498],[7.5,10581],[7.9,10665],[8.2,10748],[8.3,10831],[8.8,10914],[9.1,10998],[9.4,11081],[9.4,11164],[9.4,11248],[9.4,11331],[9.4,11415],[9.4,11498],[9.4,11581],[9.4,11664],[9.4,11748],[9.4,11831],[9.4,11914],[9.4,11998],[9.4,12081],[9.4,12164],[9.4,12248],[9.4,12331],[9.4,12414],[9.4,12498],[9.4,12581],[9.4,12664],[9.4,12748],[9.4,12831],[9.4,12914],[9.4,12998],[9.5,13081],[9.5,13164],[9.5,13248],[9.5,13331],[9.5,13414],[9.5,13497],[9.2,13581],[8.1,13664],[6.8,13748],[5.4,13831],[3.9,13915],[3,13998],[2,14080],[1.6,14164],[1.5,14248],[1.5,14331],[1.5,14414],[1.5,14497],[2.5,14581],[8.9,14664],[13.3,14748],[22.4,14831],[25.2,14914],[32.5,14997],[35.2,15080],[41,15164],[44.6,15247],[47.4,15331],[47.5,15414],[48.5,15498],[48.9,15581],[48.9,15664],[48.9,15748],[46.8,15831],[45.6,15914],[44.6,15997],[43.2,16081],[42.8,16164],[42.5,16247],[42.3,16331],[42.3,16414],[42.2,16497],[41.9,16581],[40.7,16664],[39.8,16747],[39.2,16831],[38.2,16913],[37.7,16997],[37.5,17081],[37.5,17164],[37.5,17246],[37.5,17331],[37.5,17414],[37.5,17497],[37.5,17580],[37.5,17664],[37.5,17747],[37.5,17830],[37.5,17914],[37.5,17997],[37.5,18080],[37.5,18163],[37.5,18246],[37.5,18330],[37.5,18413],[37.5,18497],[37.5,18580],[37.5,18663],[37.5,18747],[37.5,18830],[37.5,18914],[37.5,18996],[37.5,19080],[37.5,19163],[37.5,19247],[37.5,19330],[37.5,19413],[37.5,19497],[36.8,19580],[32.3,19664],[30.7,19746],[30.6,19830],[29.5,19913],[27.4,19996],[24.2,20080],[14.9,20163],[10.8,20247],[4.7,20330],[3.2,20413],[2.1,20496],[1.5,20580],[1.5,20663],[1.5,20746],[2.6,20830],[14.5,20913],[25.4,20996],[33.1,21080],[38.5,21163],[47.1,21246],[52.4,21330],[52.9,21413],[53.5,21496],[54.9,21580],[57.5,21663],[59.7,21746],[61,21830],[63.5,21913],[67.5,21996],[67.7,22080],[67.7,22163],[67.7,22246],[67.7,22330],[67.3,22413],[64.1,22496],[52.9,22580],[41.6,22664],[39.9,22746],[39.1,22830],[39.1,22913],[39.1,22996],[39.1,23079],[39.1,23163],[39.1,23246],[39.1,23330],[39.1,23413],[39.1,23496],[39.1,23579],[39.1,23663],[39.1,23746],[39.1,23829],[39.1,23912],[39.1,23996],[39.1,24079],[39.1,24163],[39.1,24246],[39.1,24329],[39.1,24413],[39.1,24496],[39.1,24579],[39.1,24662],[39.1,24746],[39.1,24829],[39.1,24913],[39.1,24996],[39.1,25079],[39.1,25163],[39.1,25246],[39.1,25330],[39.1,25413],[39.1,25496],[39.1,25579],[39.1,25663],[39.1,25746],[39.1,25829],[39.1,25913],[39.1,25996],[38.3,26080],[37.4,26163],[37,26246],[36.5,26329],[36.1,26413],[36,26496],[36,26579],[36,26662],[36,26746],[36,26829],[35.9,26912],[35.7,26995],[35.7,27079],[35.6,27163],[35.6,27246],[35.6,27329],[35.6,27413],[35.6,27496],[35.6,27579],[35.6,27662],[35.6,27746],[35.6,27829],[35.6,27912],[35.9,27996],[35.9,28079],[35.9,28162],[35.9,28246],[35.9,28329],[35.9,28412],[35.8,28495],[35.8,28579],[35.8,28662],[35.8,28745],[35.7,28829],[35.6,28912],[35.6,28995],[35.6,29078],[35.6,29162],[35.5,29245],[35.5,29330],[35.5,29412],[35.5,29495],[35.5,29579],[35.4,29662],[34.9,29745]]",1,0,441.1099,457.8267,29.47916667,9.0545,"[{""rating"":29.479166666666668,""responseTime"":9.054500000000075}]",space,16.176,,457.8269,Half the time,50,469.0593,49.79166667,6.8669,"[{""rating"":49.791666666666664,""responseTime"":6.866899999856969}]",space,10.6954,,0,0,0,0,1,audio/Narrative13Situation2.wav,audio/Narrative13Situation2.wav,audio/Narrative13Situation2.wav,audio/Narrative13Situation2.wav,2,2,2,2,,,,,,,,,,,,,,,,,,,,,,,,,,,,,,,,,,,,,
,,,,,,6639187761791a1345921730,2024-05-13_11h32.04.498,group3.1-3.2-social-tom,2023.2.2,Win32,60.60606061,65c5074098b851296ff0b7ed,6642309befb234550897c71d,,,,,,,,,,,,,,,,,,,,,,,,,,,,,469.0596,1,audio/Narrative7Situation1.wav,472.1892,space,472.1892,528.1025,"[[999,1],[999,83],[999,166],[999,249],[999,336],[999,419],[999,501],[999,587],[999,669],[999,749],[999,832],[999,916],[999,1001],[999,1086],[999,1165],[999,1248],[999,1332],[999,1415],[999,1498],[999,1586],[999,1666],[999,1749],[999,1832],[999,1919],[999,1998],[999,2085],[999,2169],[999,2252],[999,2335],[999,2419],[999,2502],[999,2585],[54.1,2670],[52.9,2753],[52.4,2835],[52.3,2919],[52.3,2998],[52.3,3082],[52.3,3165],[51.7,3253],[51.4,3332],[50.2,3419],[50.2,3498],[50,3583],[49.9,3669],[49.9,3748],[49.9,3832],[49.9,3915],[49.9,3998],[49.9,4085],[49.9,4166],[49.9,4251],[49.9,4332],[49.9,4415],[49.9,4498],[49.9,4582],[49.9,4665],[49.9,4748],[49.9,4832],[49.9,4915],[49.9,4998],[49.9,5082],[49.9,5165],[49.9,5248],[49.6,5336],[49.5,5415],[48.5,5503],[46,5585],[44.4,5665],[44.2,5748],[44.2,5831],[44.2,5918],[44.2,5998],[44.2,6081],[44.2,6168],[44.2,6248],[44.2,6332],[44.2,6415],[44.2,6501],[44.2,6582],[44.2,6665],[44.1,6748],[44.1,6831],[44.1,6915],[44.1,6998],[44.1,7081],[44.1,7165],[44.1,7248],[44.1,7332],[44.1,7418],[44.1,7498],[44.1,7581],[44.1,7664],[44.1,7748],[44.1,7831],[44.1,7915],[44.1,7998],[44.1,8083],[44.1,8165],[44.1,8248],[44.1,8331],[44.1,8418],[44.1,8497],[44.1,8582],[44.1,8665],[44.1,8748],[44.1,8831],[44.1,8915],[44.1,8998],[44.1,9085],[44.1,9164],[44.1,9247],[44.1,9331],[44.1,9415],[44.1,9500],[44.1,9584],[44.1,9665],[44.1,9747],[44.1,9831],[44.1,9915],[44.1,9997],[44.1,10081],[44,10165],[43.9,10247],[43.9,10331],[43.9,10417],[43.9,10497],[43.9,10581],[43.9,10665],[43.9,10747],[43.9,10831],[43.9,10915],[43.9,10998],[43.8,11081],[43.8,11164],[43.8,11248],[43.8,11331],[43.8,11415],[43.8,11497],[43.8,11584],[43.8,11664],[43.8,11747],[43.8,11831],[43.8,11915],[43.8,11998],[43.8,12081],[43.8,12165],[43.8,12247],[43.8,12331],[43.8,12414],[43.8,12497],[43.8,12581],[43.8,12664],[43.8,12747],[43.8,12831],[43.8,12914],[43.6,12998],[43.5,13081],[43.5,13164],[43.5,13247],[43.3,13331],[43.2,13414],[43.2,13497],[43.2,13581],[43.2,13664],[43.2,13747],[43.1,13831],[43.1,13914],[43.1,13997],[43.1,14081],[43.1,14164],[43.1,14247],[43.1,14330],[43.1,14413],[43.1,14497],[43.1,14581],[43.1,14667],[42.4,14751],[42.3,14830],[42.3,14917],[42.3,14997],[42.3,15083],[42.3,15164],[42.3,15247],[42.5,15332],[42.7,15417],[42.7,15497],[42.7,15580],[42.7,15664],[42.7,15747],[42.7,15830],[42.7,15916],[41.9,16001],[41,16084],[38.8,16167],[34.9,16247],[32.5,16334],[31.5,16418],[30.9,16501],[30.7,16580],[30.7,16664],[34.7,16750],[37.1,16830],[38.6,16916],[39,16999],[39,17082],[39,17164],[39,17250],[39,17330],[39,17413],[39,17497],[39,17580],[39,17663],[39,17747],[39,17830],[39.2,17917],[39.4,17997],[39.4,18080],[39.4,18163],[39.4,18247],[39.4,18330],[39.4,18417],[39.4,18497],[39.4,18583],[39.4,18663],[39.4,18747],[39.4,18830],[39.4,18913],[39.4,18997],[39.4,19083],[39.4,19163],[39.4,19246],[39.3,19330],[39.3,19417],[39.3,19496],[39.3,19579],[39.3,19666],[39.3,19747],[39.3,19829],[39.3,19913],[39.3,19997],[39.3,20079],[39.3,20163],[39.3,20250],[39.4,20330],[40.6,20417],[41.5,20500],[42.1,20584],[44.5,20666],[46.6,20749],[47.7,20833],[49.3,20917],[49.7,20997],[50,21079],[50,21163],[50,21246],[50.5,21333],[50.7,21413],[51.1,21499],[51.1,21579],[51.1,21663],[51.1,21746],[51.1,21832],[51.1,21913],[51.1,21996],[51.1,22079],[51.1,22163],[51.1,22246],[51.1,22329],[51.1,22412],[51.1,22496],[51.1,22579],[51.1,22663],[51.1,22746],[51.1,22832],[51.1,22913],[51.1,22996],[51.3,23083],[51.4,23163],[51.7,23249],[51.8,23332],[52,23413],[52,23499],[52.1,23579],[52.1,23663],[52.3,23746],[52.8,23829],[53.4,23916],[54.1,23995],[54.4,24083],[54.6,24163],[55,24246],[55,24329],[55,24413],[55,24496],[55,24579],[55,24663],[55,24746],[55,24829],[55,24913],[55,24996],[55,25079],[55,25165],[55,25246],[55,25329],[55,25414],[55,25496],[55,25579],[55,25662],[55,25746],[55,25829],[55,25912],[55,25996],[55,26079],[54.6,26165],[53.9,26249],[53.9,26329],[53.8,26412],[52.9,26499],[52.4,26579],[51.9,26662],[51.7,26745],[51.7,26832],[51.6,26913],[51.4,26996],[51.4,27078],[51.4,27162],[51.4,27246],[51.4,27328],[51.4,27412],[51.4,27496],[51.4,27579],[51.4,27662],[51.3,27745],[51.1,27832],[51.1,27916],[51.1,27995],[51.1,28079],[50.6,28165],[50.2,28249],[50.1,28328],[49,28415],[48.1,28499],[46.3,28583],[45.3,28665],[44.9,28749],[44.7,28829],[44.5,28912],[44.4,28995],[44.4,29082],[44.4,29162],[44.1,29249],[44,29328],[44,29412],[44,29496],[44,29578],[44,29662],[44,29745],[44,29828],[44,29912],[44,29996],[44,30079],[44,30162],[43.9,30249],[43.8,30329],[43.8,30412],[43.6,30499],[43.6,30578],[43.6,30662],[43.6,30748],[43.6,30828],[43.6,30912],[43.6,30998],[43.6,31078],[43.6,31165],[43.5,31245],[43.4,31328],[43.4,31412],[43.4,31495],[43.4,31581],[43.4,31662],[43.4,31745],[43.4,31828],[43.4,31912],[43.4,31995],[43.4,32081],[43.4,32162],[43.4,32245],[43.4,32328],[43.4,32411],[43.4,32495],[43.4,32578],[43.4,32661],[43.4,32745],[43.5,32828],[43.5,32911],[43.5,32998],[43.5,33078],[43.5,33161],[43.5,33245],[43.6,33328],[43.9,33415],[44.3,33498],[44.4,33578],[44.7,33661],[44.7,33745],[44.7,33828],[44.7,33912],[44.7,33995],[44.7,34078],[44.7,34161],[44.7,34245],[44.7,34328],[44.7,34411],[44.7,34497],[44.7,34578],[44.7,34661],[44.7,34745],[44.7,34828],[44.7,34914],[44.7,34995],[44.7,35078],[44.7,35161],[44.7,35244],[44.7,35328],[44.7,35411],[44.7,35494],[44.7,35578],[44.7,35661],[44.7,35744],[44.7,35828],[44.7,35911],[44.7,35998],[44.7,36077],[44.7,36161],[44.7,36244],[44.7,36328],[44.7,36411],[44.7,36494],[44.7,36578],[44.7,36660],[44.7,36744],[44.7,36828],[44.7,36911],[44.7,36994],[44.7,37077],[44.7,37163],[44.7,37244],[44.7,37328],[44.7,37411],[44.7,37494],[44.7,37577],[44.7,37660],[44.7,37744],[44.7,37827],[44.7,37914],[44.8,37994],[45,38078],[45,38160],[45,38244],[45,38328],[45,38410],[45,38494],[45,38577],[45,38660],[45,38744],[45,38827],[45.1,38910],[45.6,38994],[46,39078],[46.1,39163],[46.1,39244],[46.1,39330],[46.1,39410],[46.1,39494],[46.1,39577],[46.1,39663],[46.1,39744],[46.1,39827],[46.1,39910],[46.1,39994],[46.1,40080],[46.1,40160],[46.1,40245],[45.9,40330],[45.9,40410],[45.9,40494],[45.9,40577],[45.9,40660],[45.9,40747],[45.9,40830],[45.9,40910],[45.9,40994],[45.9,41077],[45.9,41160],[45.9,41244],[45.9,41327],[45.9,41410],[45.9,41494],[45.9,41580],[45.9,41660],[45.9,41744],[45.9,41830],[46.1,41914],[46.5,41994],[46.8,42076],[48.9,42164],[50.9,42247],[52.9,42330],[53.1,42410],[53.5,42493],[54.3,42580],[55.5,42663],[56.6,42747],[58.2,42830],[59.7,42913],[60.8,42997],[60.8,43077],[60.9,43160],[60.9,43243],[60.9,43329],[60.9,43410],[60.9,43493],[60.9,43577],[60.9,43660],[61.6,43743],[61.8,43827],[61.8,43910],[61.8,43995],[61.8,44077],[61.8,44160],[61.8,44243],[61.8,44327],[61.8,44410],[61.8,44493],[61.8,44577],[61.8,44660],[61.8,44743],[61.8,44827],[61.8,44910],[61.8,44993],[61.8,45077],[61.8,45160],[61.9,45246],[63.5,45326],[64.5,45413],[64.9,45493],[64.9,45576],[64.9,45659],[64.6,45747],[63.8,45826],[63.3,45913],[63.3,45993],[63.3,46077],[63.3,46160],[63.3,46243],[63.3,46327],[63.3,46410],[63.3,46493],[63.3,46576],[63.3,46659],[63.3,46743],[63.3,46827],[63.3,46913],[63.3,46993],[63.3,47076],[63.3,47159],[63.3,47243],[63.3,47326],[63.3,47410],[63.3,47492],[63.3,47576],[63.3,47660],[63.3,47743],[63.3,47826],[63.3,47910],[63.3,47993],[63.3,48076],[63.3,48159],[63.3,48242],[63.3,48326],[63.3,48412],[63.4,48492],[63.5,48576],[63.5,48659],[63.5,48745],[63.5,48826],[63.5,48909],[63.5,48992],[63.5,49076],[63.5,49159],[63.5,49242],[63.5,49326],[63.5,49409],[63.5,49492],[63.5,49576],[63.5,49659],[63.5,49742],[63.5,49826],[63.5,49909],[63.5,49992],[63.5,50076],[63.5,50159],[63.5,50242],[63.5,50326],[63.5,50408],[63.5,50492],[63.5,50576],[63.5,50659],[63.5,50742],[63.5,50826],[63.5,50909],[63.5,50992],[63.5,51076],[63.5,51159],[63.5,51242],[63.5,51326],[63.5,51409],[63.5,51492],[63.5,51576],[63.5,51659],[63.5,51742],[63.5,51826],[63.5,51908],[63.6,51992],[63.9,52076],[64.2,52163],[64.3,52242],[64.4,52326],[64.4,52408],[64.5,52492],[64.7,52576],[65,52659],[65.2,52741],[65.6,52829],[65.7,52909],[66.3,52996],[66.6,53075],[66.6,53158],[66.6,53241],[66.6,53329],[66.6,53409],[66.6,53492],[66.6,53575],[66.6,53659],[66.6,53741],[66.6,53825],[66.6,53909],[66.6,53992],[66.6,54075],[66.6,54159],[66.6,54241],[66.6,54325],[66.6,54408],[66.6,54492],[66.6,54575],[66.6,54659],[66.6,54741],[66.6,54825],[66.6,54908],[66.6,54992],[66.6,55076],[66.6,55158],[66.6,55241],[66.6,55326],[66.6,55408],[66.9,55492],[67.1,55575],[67.5,55660],[68.3,55746],[69.3,55828],[70.2,55913]]",1,0,528.1029,536.4806,47.60416667,4.8045,"[{""rating"":47.604166666666664,""responseTime"":4.804499999999962}]",space,7.8333,,536.4807,Not at all,0,536.4835,,,[],,,,0,1,1,1,1,audio/Narrative7Situation1.wav,audio/Narrative8Situation1.wav,audio/Narrative5Situation1.wav,audio/Narrative6Situation1.wav,2,5,5,2,3.1079,,,,,,,,,,,,,,,,,,,,,,,,,,,,,,,,,,,,
,,,,,,6639187761791a1345921730,2024-05-13_11h32.04.498,group3.1-3.2-social-tom,2023.2.2,Win32,60.60606061,65c5074098b851296ff0b7ed,6642309befb234550897c71d,,,,,,,,,,,,,,,,,,,,,,,,,,,,,536.4837,1,audio/Narrative7Situation2.wav,539.497,,539.497,546.9625,"[[999,0],[999,82],[999,165],[999,250],[999,332],[999,415],[999,499],[999,582],[999,665],[999,749],[999,832],[999,915],[999,999],[999,1082],[999,1165],[999,1249],[999,1332],[999,1415],[999,1499],[999,1582],[999,1665],[999,1749],[999,1832],[999,1915],[999,1999],[999,2085],[999,2169],[999,2252],[999,2332],[999,2419],[999,2499],[999,2582],[999,2669],[999,2749],[999,2835],[999,2915],[999,2999],[999,3082],[999,3169],[999,3249],[999,3331],[999,3415],[999,3499],[999,3581],[999,3665],[999,3749],[999,3832],[999,3915],[999,3999],[999,4085],[999,4168],[999,4252],[999,4331],[52.2,4418],[50.9,4502],[50.6,4582],[50.5,4665],[50.5,4749],[50.5,4831],[50.5,4915],[50.5,4999],[50.5,5082],[50.5,5165],[50.5,5249],[50.5,5332],[50.5,5415],[50.5,5502],[50.5,5581],[50.5,5665],[50.5,5752],[50.5,5831],[50.5,5915],[50.5,5999],[50.5,6081],[50.5,6164],[50.5,6249],[50.5,6331],[50.5,6415],[50.5,6499],[50.5,6581],[50.5,6664],[50.5,6748],[50.5,6831],[50.5,6915],[50.5,6998],[50.5,7081],[50.5,7164],[50.5,7248],[50.5,7331],[50.5,7415]]",1,0,546.9627,553.1949,1.770833333,4.4894,"[{""rating"":1.7708333333333326,""responseTime"":4.489400000095316}]",space,5.7034,,553.195,All the time,100,553.1981,,,[],,,,0,2,2,2,1,audio/Narrative7Situation2.wav,audio/Narrative8Situation2.wav,audio/Narrative5Situation2.wav,audio/Narrative6Situation2.wav,3,3,3,3,,,,,,,,,,,,,,,,,,,,,,,,,,,,,,,,,,,,,
,,,,,,6639187761791a1345921730,2024-05-13_11h32.04.498,group3.1-3.2-social-tom,2023.2.2,Win32,60.60606061,65c5074098b851296ff0b7ed,6642309befb234550897c71d,,,,,,,,,,,,,,,,,,,,,,,,,,,,,553.1983,1,audio/Narrative7Situation3.wav,561.8127,,561.8127,571.0786,"[[999,0],[999,85],[999,230],[999,318],[999,404],[999,480],[999,567],[999,647],[999,733],[999,814],[999,897],[999,981],[999,1064],[999,1147],[999,1230],[999,1313],[999,1400],[999,1484],[999,1564],[999,1647],[999,1730],[999,1813],[999,1897],[999,1980],[999,2064],[999,2147],[999,2230],[999,2313],[999,2397],[999,2480],[999,2563],[999,2646],[999,2730],[999,2813],[999,2897],[999,2980],[999,3063],[999,3146],[999,3230],[999,3313],[999,3396],[999,3479],[999,3563],[999,3646],[999,3730],[999,3813],[999,3896],[999,3983],[999,4063],[999,4147],[999,4230],[999,4313],[999,4396],[999,4480],[999,4564],[999,4646],[999,4730],[999,4814],[999,4896],[999,4980],[999,5063],[999,5147],[999,5230],[999,5313],[999,5396],[999,5483],[999,5562],[999,5646],[999,5730],[999,5813],[999,5896],[999,5980],[999,6063],[999,6146],[999,6230],[999,6313],[999,6399],[999,6480],[999,6563],[999,6646],[999,6730],[999,6813],[999,6896],[999,6979],[999,7063],[999,7146],[999,7230],[999,7313],[999,7396],[999,7480],[999,7563],[999,7646],[999,7729],[999,7812],[999,7896],[999,7979],[999,8062],[999,8146],[999,8229],[999,8313],[999,8396],[999,8481],[999,8563],[999,8645],[999,8729],[999,8812],[999,8896],[999,8982],[999,9065],[999,9149],[999,9229]]",1,0,571.0788,577.3919,54.0625,5.216,"[{""rating"":54.0625,""responseTime"":5.216000000000008}]",space,5.7665,,577.3919,Not at all,0,577.3955,,,[],,,,0,3,3,3,1,audio/Narrative7Situation3.wav,audio/Narrative8Situation3.wav,audio/Narrative5Situation3.wav,audio/Narrative6Situation3.wav,8,4,3,5,,,,,,,,,,,,,,,,,,,,,,,,,,,,,,,,,,,,,
,,,,,,6639187761791a1345921730,2024-05-13_11h32.04.498,group3.1-3.2-social-tom,2023.2.2,Win32,60.60606061,65c5074098b851296ff0b7ed,6642309befb234550897c71d,,,,,,,,,,,,,,,,,,,,,,,,,,,,,577.3957,1,audio/Narrative7Situation4.wav,580.4077,,580.4077,592.1598,"[[54,4252],[54,4333],[54,4416],[54,4499],[54,4583],[54,4666],[54,4752],[54,4832],[54,4916],[54,4999],[53.9,5082],[53.9,5166],[53.9,5249],[53.9,5333],[53.9,5416],[53.9,5499],[53.9,5583],[53.8,5669],[53.8,5749],[53.8,5832],[53.8,5916],[53.8,5999],[53.8,6082],[53.8,6166],[53.8,6249],[53.8,6332],[53.8,6415],[53.8,6498],[53.8,6582],[53.8,6665],[53.8,6749],[53.8,6832],[53.8,6915],[53.8,6999],[53.8,7082],[53.8,7165],[53.8,7249],[53.8,7332],[53.8,7415],[53.8,7498],[53.8,7582],[53.8,7665],[53.8,7748],[53.8,7832],[53.8,7915],[53.8,7998],[53.8,8081],[53.8,8165],[53.8,8248],[53.8,8332],[53.8,8415],[53.8,8498],[53.8,8585],[53.8,8665],[53.6,8748],[53.6,8832],[53.6,8915],[53.6,8998],[53.6,9081],[53.6,9165],[53.6,9248],[53.6,9331],[53.6,9415],[53.6,9498],[53.6,9581],[53.6,9665],[53.1,9751],[53.1,9831],[53.1,9915],[53.1,9998],[53.1,10081],[53.1,10165],[53.2,10248],[54.3,10332],[56.8,10418],[59.3,10503],[60,10581],[60,10665],[60,10748],[60,10831],[60,10915],[60,10998],[62.4,11418],[64,11498],[65.4,11586],[67.5,11668],[71.5,11751]]",1,0,592.16,595.2085,92.1875,1.3273,"[{""rating"":92.1875,""responseTime"":1.327299999952288}]",space,2.499,,595.2086,Not at all,0,595.2101,,,[],,,,0,4,4,4,1,audio/Narrative7Situation4.wav,audio/Narrative8Situation4.wav,audio/Narrative5Situation4.wav,audio/Narrative6Situation4.wav,3,3,1,2,,,,,,,,,,,,,,,,,,,,,,,,,,,,,,,,,,,,,
,,,,,,6639187761791a1345921730,2024-05-13_11h32.04.498,group3.1-3.2-social-tom,2023.2.2,Win32,60.60606061,65c5074098b851296ff0b7ed,6642309befb234550897c71d,,,,,,,,,,,,,,,,,,,,,,,,,,,,,595.2104,1,audio/Narrative7Situation5.wav,600.2216,,600.2217,608.7067,"[[999,0],[999,83],[999,166],[999,250],[999,333],[999,416],[999,502],[999,583],[999,666],[999,749],[999,833],[999,916],[999,1003],[999,1082],[999,1166],[999,1249],[999,1339],[999,1416],[999,1499],[999,1583],[999,1666],[999,1749],[999,1833],[999,1916],[999,1999],[999,2086],[999,2166],[999,2249],[999,2332],[999,2416],[999,2499],[999,2583],[999,2666],[999,2749],[999,2833],[999,2916],[999,2999],[999,3083],[999,3166],[999,3250],[999,3332],[999,3416],[999,3500],[999,3583],[999,3665],[999,3749],[999,3833],[999,3916],[999,3999],[999,4083],[999,4165],[999,4249],[999,4336],[999,4415],[999,4500],[999,4582],[999,4668],[999,4749],[999,4833],[999,4919],[999,4999],[999,5087],[999,5166],[999,5249],[999,5332],[999,5416],[999,5499],[999,5582],[999,5665],[999,5749],[999,5833],[999,5915],[999,5999],[999,6082],[999,6165],[999,6249],[999,6332],[999,6415],[999,6499],[999,6582],[999,6665],[999,6749],[999,6832],[999,6915],[999,6999],[999,7082],[999,7165],[999,7249],[999,7332],[999,7415],[999,7499],[999,7583],[999,7666],[999,7749],[999,7832],[999,7919],[999,7999],[999,8082],[999,8165],[999,8249],[999,8332],[999,8418]]",1,0,608.7068,611.5074,96.35416667,1.2301,"[{""rating"":96.35416666666667,""responseTime"":1.2300999999047235}]",space,2.234,,611.5074,All the time,100,617.7391,99.79166667,4.5567,"[{""rating"":99.79166666666667,""responseTime"":4.5566999998092115}]",space,5.6908,,0,5,5,5,1,audio/Narrative7Situation5.wav,audio/Narrative8Situation5.wav,audio/Narrative5Situation5.wav,audio/Narrative6Situation5.wav,5,2,5,2,,,,,,,,,,,,,,,,,,,,,,,,,,,,,,,,,,,,,
,,,,,,6639187761791a1345921730,2024-05-13_11h32.04.498,group3.1-3.2-social-tom,2023.2.2,Win32,60.60606061,65c5074098b851296ff0b7ed,6642309befb234550897c71d,,,,,,,,,,,,,,,,,,,,,,,,,,,,,617.7395,1,audio/Narrative7Situation6.wav,620.7531,,620.7531,630.7378,"[[999,0],[999,83],[999,168],[999,249],[999,332],[999,415],[999,503],[999,582],[999,665],[999,748],[999,832],[999,915],[999,999],[999,1082],[999,1165],[999,1248],[999,1332],[999,1415],[999,1499],[999,1582],[999,1666],[999,1749],[999,1832],[999,1915],[999,1999],[999,2082],[999,2165],[999,2249],[999,2332],[999,2415],[999,2499],[999,2582],[999,2665],[999,2749],[999,2832],[999,2915],[999,2999],[999,3082],[999,3165],[999,3249],[999,3332],[999,3415],[999,3499],[999,3582],[999,3665],[999,3749],[999,3832],[999,3915],[999,3998],[999,4082],[999,4164],[999,4248],[999,4332],[999,4415],[999,4499],[999,4582],[999,4665],[999,4748],[999,4832],[999,4915],[999,4999],[999,5082],[999,5165],[999,5248],[999,5332],[999,5415],[999,5498],[999,5582],[999,5664],[999,5748],[999,5832],[999,5914],[999,5998],[999,6082],[999,6164],[999,6248],[999,6331],[999,6415],[999,6498],[999,6582],[999,6664],[999,6748],[999,6831],[999,6914],[999,6998],[999,7081],[999,7164],[999,7248],[999,7332],[999,7414],[999,7498],[999,7581],[999,7668],[999,7748],[999,7831],[999,7914],[999,8001],[999,8081],[999,8164],[999,8248],[999,8331],[999,8414],[999,8497],[999,8581],[999,8664],[999,8748],[999,8831],[999,8914],[999,8998],[999,9081],[999,9164],[999,9251],[999,9334],[999,9418],[999,9501],[999,9581],[999,9667],[999,9751],[999,9834],[78.5,9918]]",1,0,630.7379,633.9508,83.54166667,1.64,"[{""rating"":83.54166666666667,""responseTime"":1.6399999999999864}]",space,2.6828,,633.9508,Not at all,0,633.9535,,,[],,,,0,6,6,6,1,audio/Narrative7Situation6.wav,audio/Narrative8Situation6.wav,audio/Narrative5Situation6.wav,audio/Narrative6Situation6.wav,3,2,3,2,,,,,,,,,,,,,,,,,,,,,,,,,,,,,,,,,,,,,
,,,,,,6639187761791a1345921730,2024-05-13_11h32.04.498,group3.1-3.2-social-tom,2023.2.2,Win32,60.60606061,65c5074098b851296ff0b7ed,6642309befb234550897c71d,,,,,,,,,,,,,,,,,,,,,,,,,,,,,633.9537,1,audio/Narrative7Situation7.wav,638.9671,,638.9671,656.1475,"[[999,0],[999,82],[999,166],[999,249],[999,332],[999,416],[999,499],[999,582],[999,666],[999,749],[999,832],[999,919],[999,1002],[999,1085],[999,1169],[76,1252],[73,1669],[73.3,1753],[73.3,1832],[73.3,1916],[73.3,1999],[73.3,2082],[73.3,2166],[73.3,2249],[73.3,2332],[73.3,2416],[73.3,2499],[79.5,2665],[79.5,2752],[79.5,2832],[79.5,2916],[79.5,2999],[79.5,3082],[79.3,3165],[78.6,3249],[77.5,3332],[77.3,3415],[77.1,3499],[77.4,3582],[77.7,3666],[77.7,3748],[77.8,3835],[77.8,3916],[77.8,3999],[77.8,4082],[78.1,4169],[78.2,4252],[78.2,4332],[78.2,4415],[78.2,4501],[78.1,4582],[78.1,4665],[78.1,4749],[78.1,4831],[78.1,4918],[78.1,5001],[78.1,5081],[78.1,5165],[78.1,5249],[78.1,5331],[78.1,5415],[78.1,5501],[78.1,5582],[78.1,5665],[78.1,5749],[78.1,5831],[78.1,5915],[78.1,5999],[78.1,6081],[78.1,6165],[78.1,6248],[78.1,6331],[78.1,6415],[78.1,6499],[78.1,6581],[78.1,6665],[78.1,6748],[78.1,6831],[78.1,6915],[78.1,6999],[78.1,7082],[78.1,7168],[78.1,7248],[78.1,7331],[78.1,7418],[78.1,7498],[78.1,7581],[78.1,7665],[78.1,7748],[78.1,7831],[78.1,7915],[78.1,7998],[78.1,8081],[78.1,8165],[78.1,8249],[78.1,8335],[78.1,8415],[78.1,8498],[78.1,8581],[78.1,8665],[78.1,8748],[78.1,8831],[78.1,8915],[78.1,9001],[78.1,9081],[78.1,9165],[78.1,9248],[78.1,9331],[78.1,9414],[78.1,9498],[78.1,9581],[78.1,9664],[78.1,9748],[78.1,9831],[78.1,9918],[78.1,9998],[78.1,10081],[78.1,10164],[78.1,10248],[78.1,10330],[78.1,10415],[78.1,10497],[78.1,10581],[78.1,10664],[78.1,10748],[78.1,10831],[78.1,10914],[78.1,10998],[78.1,11081],[78.1,11164],[78.1,11248],[78.1,11331],[78.1,11414],[78.1,11498],[78.1,11581],[78.1,11665],[78.1,11748],[78.1,11831],[78.1,11914],[78.1,12001],[78.1,12081],[78.1,12164],[78.1,12248],[78.1,12334],[78.1,12415],[78.1,12498],[78.1,12581],[78.1,12664],[78.1,12748],[78.1,12831],[78.1,12914],[78.1,12997],[78.1,13081],[78.1,13164],[78.1,13251],[78.1,13331],[78.1,13414],[78.1,13497],[78.1,13581],[78.1,13667],[78.1,13752],[78.1,13830],[78.1,13914],[78.1,13997],[78.1,14081],[78.1,14167],[78.1,14248],[78.1,14330],[78.1,14414],[78.1,14497],[78.1,14581],[78.1,14664],[78.1,14747],[78.1,14830],[78.1,14914],[78.1,14997],[78.1,15081],[78.1,15164],[78.1,15247],[78.1,15330],[78.1,15413],[78.1,15497],[78.1,15581],[78.1,15664],[78.1,15750],[78.1,15831],[78.1,15913],[78.1,15997],[78.1,16080],[78.1,16163],[78.1,16247],[78.1,16330],[78.1,16413],[78.1,16497],[78.1,16580],[78.1,16663],[78.1,16751],[78.1,16830],[78.1,16913],[78.1,16997],[78.1,17080],[78.1,17163]]",1,0,656.1477,661.0499,99.58333333,3.544,"[{""rating"":99.58333333333333,""responseTime"":3.5439999999999827}]",space,4.3445,,661.0501,All the time,100,661.053,,,[],,,,0,7,7,7,1,audio/Narrative7Situation7.wav,audio/Narrative8Situation7.wav,audio/Narrative5Situation7.wav,audio/Narrative6Situation7.wav,5,3,4,5,,,,,,,,,,,,,,,,,,,,,,,,,,,,,,,,,,,,,
,,,,,,6639187761791a1345921730,2024-05-13_11h32.04.498,group3.1-3.2-social-tom,2023.2.2,Win32,60.60606061,65c5074098b851296ff0b7ed,6642309befb234550897c71d,,,,,,,,,,,,,,,,,,,,,,,,,,,,,661.0532,1,audio/Narrative7Situation8.wav,663.064,,663.064,673.0827,"[[999,0],[999,82],[999,166],[999,249],[999,336],[999,415],[999,499],[999,582],[999,666],[999,749],[999,832],[999,916],[999,999],[999,1082],[999,1166],[999,1249],[999,1332],[999,1416],[999,1499],[999,1582],[999,1666],[999,1749],[999,1831],[999,1916],[999,1999],[999,2083],[999,2166],[999,2249],[999,2332],[999,2416],[999,2499],[999,2582],[999,2665],[999,2748],[999,2832],[999,2915],[999,2999],[999,3082],[999,3168],[999,3249],[999,3332],[999,3415],[999,3499],[999,3582],[999,3666],[999,3749],[999,3831],[999,3915],[999,3999],[999,4082],[999,4165],[999,4249],[999,4332],[999,4415],[999,4498],[999,4582],[999,4665],[999,4748],[999,4831],[999,4915],[999,4999],[999,5082],[999,5165],[999,5248],[999,5332],[999,5415],[999,5498],[999,5582],[999,5665],[999,5748],[999,5831],[999,5915],[999,5998],[999,6082],[999,6165],[999,6248],[999,6331],[999,6415],[999,6498],[999,6582],[999,6665],[999,6748],[999,6832],[999,6915],[999,6998],[999,7082],[999,7164],[999,7248],[999,7331],[999,7414],[999,7498],[999,7581],[999,7664],[999,7748],[999,7832],[999,7915],[999,7998],[999,8085],[999,8164],[999,8248],[999,8331],[999,8414],[999,8498],[999,8582],[999,8664],[999,8747],[999,8834],[999,8914],[999,8997],[999,9081],[999,9165],[999,9252],[999,9334],[999,9418],[999,9501],[999,9584],[999,9668],[999,9751],[999,9834],[999,9918],[999,10001]]",1,0,673.0829,676.2454,85.83333333,2.2904,"[{""rating"":85.83333333333334,""responseTime"":2.290399999856959}]",space,2.623,,676.2454,Half the time,50,676.2481,,,[],,,,0,8,8,8,1,audio/Narrative7Situation8.wav,audio/Narrative8Situation8.wav,audio/Narrative5Situation8.wav,audio/Narrative6Situation8.wav,2,3,3,5,,,,,,,,,,,,,,,,,,,,,,,,,,,,,,,,,,,,,
,,,,,,6639187761791a1345921730,2024-05-13_11h32.04.498,group3.1-3.2-social-tom,2023.2.2,Win32,60.60606061,65c5074098b851296ff0b7ed,6642309befb234550897c71d,,,,,,,,,,,,,,,,,,,,,,,,,,,,,676.2484,1,audio/Narrative7Situation9.wav,678.2619,,678.2619,686.8936,"[[999,0],[999,86],[999,165],[999,249],[999,332],[999,419],[999,499],[999,586],[999,665],[999,749],[999,832],[999,916],[999,999],[999,1083],[999,1165],[999,1249],[999,1332],[999,1416],[999,1499],[999,1582],[999,1668],[999,1749],[999,1832],[999,1916],[999,1999],[999,2082],[999,2165],[999,2249],[999,2332],[999,2415],[999,2499],[999,2582],[999,2665],[999,2749],[999,2832],[999,2915],[999,2999],[999,3082],[999,3165],[999,3249],[999,3332],[999,3415],[999,3499],[999,3582],[999,3665],[999,3749],[999,3832],[999,3916],[999,3999],[999,4082],[999,4165],[999,4249],[999,4332],[999,4415],[999,4499],[999,4582],[999,4665],[999,4749],[999,4832],[999,4915],[999,4999],[999,5082],[999,5168],[999,5249],[999,5331],[999,5415],[999,5499],[999,5582],[999,5665],[999,5749],[999,5835],[999,5915],[999,5999],[999,6081],[999,6165],[999,6249],[999,6331],[999,6415],[999,6498],[999,6582],[999,6665],[999,6748],[999,6831],[999,6915],[999,6999],[999,7081],[999,7165],[999,7248],[999,7331],[999,7415],[999,7499],[999,7581],[999,7665],[999,7751],[999,7831],[999,7915],[999,7998],[999,8081],[999,8165],[999,8248],[999,8331],[999,8415],[999,8498],[999,8581]]",1,0,686.8937,690.1101,69.79166667,2.7289,"[{""rating"":69.79166666666666,""responseTime"":2.728899999856935}]",space,2.6736,,690.1102,All the time,100,690.1128,,,[],,,,0,9,9,9,1,audio/Narrative7Situation9.wav,audio/Narrative8Situation9.wav,audio/Narrative5Situation9.wav,audio/Narrative6Situation9.wav,2,3,3,4,,,,,,,,,,,,,,,,,,,,,,,,,,,,,,,,,,,,,
,,,,,,6639187761791a1345921730,2024-05-13_11h32.04.498,group3.1-3.2-social-tom,2023.2.2,Win32,60.60606061,65c5074098b851296ff0b7ed,6642309befb234550897c71d,,,,,,,,,,,,,,,,,,,,,,,,,,,,,690.1131,1,audio/Narrative8Situation1.wav,695.1265,,695.1265,711.0574,"[[71.9,1170],[65.4,2585],[62.9,2669],[62.3,2752],[61.1,2835],[60.9,2916],[60.6,2999],[60.2,3085],[60.2,3165],[60.2,3249],[60.1,3332],[59.6,3418],[59.6,3499],[59.9,3585],[60.2,3665],[60.2,3749],[60.2,3832],[60.3,3915],[59.9,4002],[59.7,4082],[60,4165],[60,4248],[60.6,4331],[60.5,4415],[60.5,4498],[60.4,4582],[60.4,4665],[60.4,4748],[60.4,4832],[60.4,4915],[60.4,4998],[60.4,5082],[60.4,5165],[60.4,5251],[60.4,5334],[60.4,5415],[60.4,5501],[60.4,5581],[60.5,5665],[60.5,5748],[60.5,5831],[60.5,5915],[60.5,6001],[60.5,6081],[60.5,6165],[60.5,6248],[60.5,6331],[60.5,6415],[60.5,6498],[60.5,6581],[60.5,6665],[60.5,6748],[60.5,6831],[60.5,6915],[60.5,6998],[60.5,7081],[60.5,7165],[60.5,7248],[60.5,7331],[60.5,7415],[60.5,7500],[60.5,7581],[60.5,7665],[60.5,7748],[60.5,7831],[60.5,7915],[60.5,7997],[60.5,8082],[60.5,8165],[60.5,8248],[60.5,8331],[60.5,8414],[60.5,8498],[60.5,8581],[60.5,8665],[60.5,8747],[60.5,8831],[60,8918],[59.1,9001],[58,9085],[55.3,9168],[52.3,9252],[48.8,9331],[42.7,9419],[32.8,9497],[28.1,9581],[21.7,9667],[19.1,9751],[15.5,9831],[15.5,9914],[15.5,9997],[15.5,10081],[15.5,10164],[15.5,10248],[15.5,10331],[13.6,10414],[13.4,10497],[13.4,10581],[13.4,10664],[13.4,10747],[13.4,10831],[13.4,10914],[13.4,10997],[13.4,11081],[13.4,11164],[13.4,11247],[13.4,11331],[13.4,11414],[13.4,11497],[13.4,11581],[13.4,11664],[13.4,11747],[13.4,11831],[13.4,11917],[13.4,11997],[13.4,12084],[13.4,12167],[13.4,12247],[13.4,12331],[13.4,12414],[13.4,12497],[13.4,12581],[13.4,12664],[13.4,12747],[13.4,12831],[13.4,12914],[13.4,12997],[13.4,13081],[13.1,13166],[12.9,13247],[12.6,13334],[11.9,13414],[11.3,13501],[11,13584],[10.7,13664],[10.6,13747],[10.6,13831],[10.6,13913],[10.6,13997],[10.6,14081],[10.7,14164],[11.1,14251],[12.6,14334],[13.2,14419],[13.9,14501],[14,14581],[14,14664],[14,14747],[14,14830],[14,14914],[14,14997],[14,15080],[14,15164],[14,15247],[14,15330],[14,15414],[14,15497],[13.8,15580],[13.3,15667],[13,15747],[13,15830],[13,15913]]",1,0,711.0575,714.157,4.479166667,2.6307,"[{""rating"":4.479166666666668,""responseTime"":2.630700000047682}]",space,2.5422,,714.157,Half the time,50,714.1596,,,[],,,,0,10,10,10,1,audio/Narrative8Situation1.wav,audio/Narrative7Situation1.wav,audio/Narrative6Situation1.wav,audio/Narrative5Situation1.wav,5,2,2,5,,,,,,,,,,,,,,,,,,,,,,,,,,,,,,,,,,,,,
,,,,,,6639187761791a1345921730,2024-05-13_11h32.04.498,group3.1-3.2-social-tom,2023.2.2,Win32,60.60606061,65c5074098b851296ff0b7ed,6642309befb234550897c71d,,,,,,,,,,,,,,,,,,,,,,,,,,,,,714.1599,1,audio/Narrative8Situation2.wav,717.1732,,717.1733,727.3222,"[[10.8,999],[9.6,1086],[9.1,1169],[8.6,1250],[8.5,1332],[8.5,1415],[8.5,1499],[8.5,1582],[8.5,1666],[8.5,1749],[8.5,1836],[8.5,1915],[8.5,2000],[8.5,2082],[8.5,2166],[8.5,2249],[8.5,2332],[8.5,2415],[8.5,2499],[8.5,2582],[8.5,2666],[8.5,2749],[8.5,2832],[8.5,2915],[8.9,3002],[9.6,3085],[9.7,3166],[9.7,3249],[9.7,3332],[9.7,3416],[9.7,3499],[9.7,3582],[9.7,3666],[9.7,3749],[9.7,3832],[9.7,3915],[9.7,3998],[9.7,4085],[9.7,4169],[9.7,4249],[9.7,4332],[9.7,4416],[9.7,4499],[9.7,4582],[9.7,4665],[9.7,4748],[9.7,4832],[9.7,4916],[9.7,4999],[9.7,5082],[9.7,5165],[9.7,5249],[9.7,5332],[9.7,5415],[9.7,5499],[9.8,5582],[9.8,5665],[9.8,5749],[9.8,5831],[10,5919],[10.1,6002],[10.2,6082],[10.2,6165],[10.2,6249],[10.2,6331],[10.2,6415],[10.2,6498],[10.2,6582],[10.2,6665],[10.2,6749],[10.2,6831],[10.2,6915],[10.4,6998],[10.4,7081],[10.4,7165],[10.4,7248],[10.4,7331],[10.4,7415],[10.4,7502],[10.4,7581],[10.4,7665],[10.4,7752],[10.4,7832],[10.4,7915],[10.4,7998],[10.4,8081],[10.4,8165],[10.4,8248],[10.4,8331],[10.4,8415],[10.4,8498],[10.4,8581],[10.4,8665],[10.4,8751],[10.4,8831],[10.4,8915],[10.6,9002],[11.1,9082],[12,9164],[12.7,9252],[12.9,9331],[13.2,9418],[14.4,9501],[16.1,9586],[18,9668],[19.1,9751],[20.4,9835],[21,9914],[21.3,9998],[21.5,10084]]",1,0,727.3223,730.3085,28.54166667,1.5186,"[{""rating"":28.541666666666664,""responseTime"":1.5186000001430102}]",space,2.4534,,730.3085,All the time,100,730.3112,,,[],,,,0,11,11,11,1,audio/Narrative8Situation2.wav,audio/Narrative7Situation2.wav,audio/Narrative6Situation2.wav,audio/Narrative5Situation2.wav,3,3,3,3,,,,,,,,,,,,,,,,,,,,,,,,,,,,,,,,,,,,,
,,,,,,6639187761791a1345921730,2024-05-13_11h32.04.498,group3.1-3.2-social-tom,2023.2.2,Win32,60.60606061,65c5074098b851296ff0b7ed,6642309befb234550897c71d,,,,,,,,,,,,,,,,,,,,,,,,,,,,,730.3114,1,audio/Narrative8Situation3.wav,734.3211,,734.3211,756.7056,"[[28.8,2416],[30.3,2503],[31,2582],[31.7,2665],[31.8,2749],[31.8,2832],[31.8,2915],[31.8,2999],[31.8,3082],[31.8,3165],[31.8,3248],[31.8,3335],[31.8,3415],[31.8,3499],[31.8,3582],[31.8,3665],[31.8,3749],[31.8,3832],[31.8,3915],[31.8,3999],[31.8,4082],[31.8,4165],[31.8,4249],[31.8,4332],[31.8,4415],[31.8,4499],[31.8,4585],[31.8,4665],[31.8,4749],[31.8,4832],[31.8,4915],[31.8,4999],[31.8,5085],[31.8,5165],[31.8,5248],[31.8,5332],[31.8,5415],[31.8,5499],[31.8,5582],[31.8,5665],[31.8,5749],[31.8,5832],[31.8,5915],[31.8,5999],[31.8,6082],[31.8,6165],[31.8,6248],[31.8,6332],[31.8,6415],[31.8,6499],[31.8,6581],[31.8,6665],[31.8,6751],[31.8,6832],[31.8,6914],[31.8,6998],[31.8,7082],[31.8,7165],[31.8,7248],[31.8,7335],[31.8,7415],[31.8,7498],[31.8,7585],[31.8,7665],[31.8,7748],[31.8,7831],[31.8,7915],[31.8,7998],[31.8,8081],[31.8,8164],[32.2,8251],[32.3,8331],[32.6,8419],[33.4,8502],[35.8,8581],[37.5,8668],[39.6,8752],[41.8,8835],[43.2,8919],[44.6,9001],[45.8,9084],[46.8,9164],[47.5,9251],[48.1,9331],[48.6,9418],[49.6,9501],[50.1,9581],[50.1,9665],[50.1,9748],[50.1,9831],[50.3,9914],[50.3,9998],[50.8,10085],[50.9,10165],[52.1,10251],[53,10331],[53.9,10418],[54.7,10502],[55.3,10584],[56,10669],[56,10747],[56.4,10831],[56.5,10917],[56.6,10998],[57.3,11084],[57.4,11164],[57.4,11248],[57.4,11331],[57.4,11414],[57.4,11498],[57.4,11582],[57.4,11664],[57.4,11748],[57.4,11831],[57.4,11914],[57.4,11997],[57.4,12081],[57.4,12164],[57.4,12248],[57.4,12331],[57.4,12415],[57.4,12498],[57.4,12581],[57.4,12664],[57.4,12747],[57.4,12831],[57.4,12914],[57.4,12997],[57.4,13081],[57.4,13164],[57.4,13248],[57.4,13331],[57.4,13415],[57.4,13497],[57.4,13581],[57.4,13664],[57.4,13750],[57.4,13831],[57.4,13914],[57.4,13997],[57.4,14081],[57.4,14164],[57.4,14247],[57.4,14331],[57.4,14414],[57.4,14497],[57.4,14581],[57.4,14664],[57.4,14747],[57.4,14831],[57.4,14914],[57.4,14997],[57.4,15081],[57.4,15164],[57.4,15247],[57.6,15335],[57.8,15417],[57.9,15497],[57.9,15581],[57.9,15664],[57.9,15747],[57.9,15831],[57.9,15914],[57.8,15997],[57.3,16084],[57.1,16163],[56.8,16246],[56.4,16335],[56.1,16417],[56.1,16498],[56.1,16580],[56.1,16663],[56.1,16747],[56.1,16830],[56.1,16914],[56.4,16997],[56.5,17080],[56.5,17164],[56.5,17246],[56.5,17335],[56.5,17413],[56.5,17497],[56.5,17583],[56.5,17664],[56.5,17746],[56.5,17831],[56.5,17914],[56.5,17996],[56.5,18081],[56.5,18164],[56.5,18246],[56.5,18331],[56.5,18416],[56.5,18496],[56.5,18580],[56.5,18663],[56.5,18746],[56.5,18830],[56.5,18913],[56.5,18996],[56.5,19080],[56.5,19164],[56.5,19246],[56.5,19330],[56.5,19414],[56.5,19496],[56.5,19580],[56.5,19663],[56.5,19746],[56.5,19830],[56.5,19914],[56.5,19996],[56.5,20083],[56.5,20164],[56.5,20246],[56.5,20330],[56.5,20414],[56.5,20496],[56.5,20580],[56.5,20663],[56.5,20746],[56.5,20830],[56.5,20913],[56.5,20996],[56.5,21080],[56.5,21163],[56.5,21246],[56.5,21330],[56.5,21413],[56.5,21496],[57.7,21583],[59.9,21667],[60.6,21746],[61.1,21830],[62,21913],[63.6,22000],[65.3,22082],[65.9,22162],[66.6,22250],[68.9,22333]]",1,0,756.7059,760.3873,74.16666667,2.6575,"[{""rating"":74.16666666666667,""responseTime"":2.6575000000000273}]",space,3.1255,,760.3874,All the time,100,760.389,,,[],,,,0,12,12,12,1,audio/Narrative8Situation3.wav,audio/Narrative7Situation3.wav,audio/Narrative6Situation3.wav,audio/Narrative5Situation3.wav,4,8,5,3,,,,,,,,,,,,,,,,,,,,,,,,,,,,,,,,,,,,,
,,,,,,6639187761791a1345921730,2024-05-13_11h32.04.498,group3.1-3.2-social-tom,2023.2.2,Win32,60.60606061,65c5074098b851296ff0b7ed,6642309befb234550897c71d,,,,,,,,,,,,,,,,,,,,,,,,,,,,,760.3892,1,audio/Narrative8Situation4.wav,763.4006,,763.4007,777.6022,"[[999,0],[999,82],[999,166],[999,249],[999,332],[999,416],[999,499],[999,582],[999,666],[999,749],[999,833],[999,919],[999,999],[56.6,1086],[55.2,1166],[54,1252],[53.3,1336],[53,1416],[52.8,1503],[52.6,1586],[52.3,1666],[52,1752],[51.9,1832],[51.8,1915],[51.5,2002],[51.1,2085],[50.8,2170],[50.7,2249],[50.6,2332],[50.6,2416],[50.6,2498],[50.6,2582],[50.6,2666],[50.6,2749],[50.6,2833],[50.6,2915],[50.6,2999],[50.6,3082],[50.6,3167],[50.6,3248],[50.6,3332],[50.6,3416],[50.6,3498],[50.6,3582],[50.6,3666],[45.4,3753],[37.2,3835],[29.4,3918],[26.6,4003],[22.8,4085],[20.3,4168],[16.5,4253],[12.6,4332],[10.6,4419],[8,4502],[7,4586],[6.1,4669],[6,4748],[6,4832],[6,4915],[6,5001],[6,5082],[6,5165],[6,5249],[6,5332],[6,5415],[6,5498],[6,5587],[6,5664],[6,5748],[6,5835],[6,5914],[6,5998],[6,6081],[6,6165],[6.1,6248],[6.1,6332],[6.1,6415],[6.1,6498],[6.1,6582],[6.1,6665],[6.1,6748],[6.3,6832],[6.3,6915],[6.3,6998],[6.3,7082],[6.3,7165],[6.3,7248],[6.3,7332],[6.3,7415],[6.5,7502],[7,7585],[7.7,7669],[8.2,7751],[14.9,7835],[18.1,7915],[22.6,7998],[22.6,8081],[22.6,8165],[22.6,8248],[22.6,8335],[22.6,8415],[22.4,8498],[20.3,8585],[14.7,8665],[5.6,8751],[5.2,8831],[5.2,8915],[8.1,9001],[11.9,9085],[14.6,9168],[18.1,9251],[19.3,9331],[19.3,9415],[19.3,9497],[19.3,9585],[19.3,9664],[19.3,9748],[19.3,9835],[19.3,9918],[19.3,9997],[19.3,10081],[19.3,10164],[19.3,10247],[19.3,10331],[19.3,10414],[19.3,10497],[19.3,10581],[19.3,10664],[19.3,10747],[19.3,10831],[19.3,10915],[19.3,10997],[20.3,11084],[21.6,11168],[21.6,11248],[21.8,11335],[21.9,11415],[22.3,11500],[23.5,11580],[25.2,11668],[26.7,11751],[28.5,11831],[30.8,11918],[33.2,12002],[35.4,12084],[36.4,12167],[37.2,12248],[38.5,12334],[39.2,12418],[39.2,12498],[39.2,12581],[39.2,12667],[39.2,12747],[39.2,12831],[39.2,12914],[39.2,12997],[39.2,13081],[39.2,13164],[39.3,13247],[39.6,13331],[39.8,13414],[39.8,13497],[40,13585],[40.4,13663],[41.5,13750],[42.7,13835],[44.9,13918],[45.7,14000],[46.6,14085],[47.5,14168]]",1,0,777.6024,780.0817,40.83333333,1.7486,"[{""rating"":40.833333333333336,""responseTime"":1.7485999999046271}]",space,1.9426,,780.0818,Not at all,0,780.0846,,,[],,,,0,13,13,13,1,audio/Narrative8Situation4.wav,audio/Narrative7Situation4.wav,audio/Narrative6Situation4.wav,audio/Narrative5Situation4.wav,3,3,2,1,,,,,,,,,,,,,,,,,,,,,,,,,,,,,,,,,,,,,
,,,,,,6639187761791a1345921730,2024-05-13_11h32.04.498,group3.1-3.2-social-tom,2023.2.2,Win32,60.60606061,65c5074098b851296ff0b7ed,6642309befb234550897c71d,,,,,,,,,,,,,,,,,,,,,,,,,,,,,780.0849,1,audio/Narrative8Situation5.wav,782.098,,782.098,790.3469,"[[999,0],[999,83],[999,166],[999,249],[999,332],[999,416],[999,499],[999,582],[999,666],[999,750],[999,833],[999,917],[999,999],[999,1082],[999,1166],[999,1249],[999,1332],[999,1416],[999,1499],[999,1582],[999,1666],[999,1749],[999,1832],[999,1916],[999,1999],[999,2082],[999,2166],[999,2249],[999,2332],[999,2416],[999,2499],[999,2582],[999,2666],[999,2750],[36.5,2832],[35.2,2916],[34.6,2999],[34.1,3082],[34.1,3166],[34.1,3249],[34.1,3332],[34.1,3416],[34.1,3499],[34.1,3582],[34.1,3666],[34.1,3749],[34.1,3832],[34.1,3916],[34.1,3999],[34.1,4082],[34.1,4166],[34.1,4249],[34.1,4332],[33.9,4415],[33.9,4499],[33.9,4582],[33.9,4665],[33.9,4749],[33.9,4832],[33.9,4915],[33.9,4999],[33.9,5082],[33.9,5165],[33.9,5249],[33.9,5332],[33.9,5416],[33.9,5499],[33.9,5582],[33.9,5665],[33.9,5749],[33.9,5832],[33.9,5915],[33.9,5999],[33.9,6081],[33.9,6165],[33.9,6249],[33.1,6332],[34,6415],[34,6499],[34,6582],[34,6666],[34,6749],[34,6832],[34,6915],[34,6999],[34,7081],[34,7165],[34,7249],[34,7331],[34,7415],[34,7499],[34,7581],[34,7665],[34,7749],[34,7831],[34,7915],[34,7999],[34,8082],[33.3,8165],[33.9,8248]]",1,0,790.347,793.0799,39.375,1.955,"[{""rating"":39.375,""responseTime"":1.955000000000041}]",space,2.1866,,793.08,Half the time,50,793.0822,,,[],,,,0,14,14,14,1,audio/Narrative8Situation5.wav,audio/Narrative7Situation5.wav,audio/Narrative6Situation5.wav,audio/Narrative5Situation5.wav,2,5,2,5,,,,,,,,,,,,,,,,,,,,,,,,,,,,,,,,,,,,,
,,,,,,6639187761791a1345921730,2024-05-13_11h32.04.498,group3.1-3.2-social-tom,2023.2.2,Win32,60.60606061,65c5074098b851296ff0b7ed,6642309befb234550897c71d,,,,,,,,,,,,,,,,,,,,,,,,,,,,,793.0824,1,audio/Narrative8Situation6.wav,795.0966,,795.0966,801.5789,"[[999,0],[999,82],[999,166],[999,249],[999,332],[999,416],[999,499],[999,582],[999,665],[999,749],[999,833],[999,916],[999,999],[999,1082],[999,1165],[999,1249],[999,1332],[999,1415],[999,1499],[999,1582],[999,1665],[999,1749],[999,1832],[999,1915],[999,1999],[999,2082],[999,2165],[999,2249],[999,2332],[999,2415],[999,2499],[999,2582],[999,2665],[999,2749],[999,2832],[999,2915],[999,2999],[999,3082],[999,3165],[999,3249],[999,3332],[999,3415],[999,3499],[999,3582],[999,3665],[999,3749],[999,3832],[999,3915],[999,3999],[999,4082],[999,4165],[999,4249],[999,4332],[999,4415],[999,4499],[999,4582],[999,4665],[999,4749],[999,4831],[57.4,4915],[56.9,4998],[54.4,5082],[54.3,5165],[54.3,5249],[54.3,5331],[53.8,5415],[53.5,5498],[52.8,5581],[52.8,5665],[52.8,5748],[52.8,5832],[52.8,5915],[52.8,5998],[52.8,6082],[52.8,6165],[52.8,6249],[52.8,6331],[52.8,6415]]",1,0,801.579,803.8949,27.8125,1.7078,"[{""rating"":27.8125,""responseTime"":1.7078000001907867}]",space,1.7817,,803.895,Half the time,50,803.8968,,,[],,,,0,15,15,15,1,audio/Narrative8Situation6.wav,audio/Narrative7Situation6.wav,audio/Narrative6Situation6.wav,audio/Narrative5Situation6.wav,2,3,2,3,,,,,,,,,,,,,,,,,,,,,,,,,,,,,,,,,,,,,
,,,,,,6639187761791a1345921730,2024-05-13_11h32.04.498,group3.1-3.2-social-tom,2023.2.2,Win32,60.60606061,65c5074098b851296ff0b7ed,6642309befb234550897c71d,,,,,,,,,,,,,,,,,,,,,,,,,,,,,803.8971,1,audio/Narrative8Situation7.wav,806.9115,,806.9116,819.0097,"[[999,0],[999,82],[999,166],[999,249],[999,332],[999,416],[999,499],[999,582],[999,666],[999,750],[999,833],[999,916],[999,999],[999,1083],[999,1165],[999,1249],[999,1332],[999,1416],[999,1499],[999,1583],[999,1665],[53.5,1749],[45.3,1832],[37,1916],[32.1,1999],[30.9,2082],[29.2,2166],[29.2,2249],[29.2,2333],[29.2,2415],[29.2,2499],[29.2,2582],[29.2,2666],[29.2,2749],[29.2,2832],[27.8,2915],[27.4,2999],[25.9,3082],[25.9,3166],[25.9,3249],[25.9,3332],[25.9,3415],[25.9,3499],[25.9,3582],[25.9,3666],[25.9,3749],[25.9,3832],[25.9,3915],[25.9,3999],[25.9,4082],[25.9,4166],[25.9,4249],[25.9,4332],[25.9,4416],[25.9,4499],[25.9,4582],[25.9,4666],[25.9,4749],[25.9,4832],[25.9,4915],[25.9,4998],[25.9,5082],[25.9,5165],[25.9,5249],[25.9,5332],[25.9,5415],[25.9,5499],[25.9,5581],[25.9,5665],[25.9,5748],[25.9,5832],[25.9,5916],[25.9,5999],[25.9,6081],[25.9,6165],[25.9,6249],[25.9,6332],[25.9,6415],[25.9,6498],[25.9,6581],[25.9,6665],[25.9,6748],[25.9,6831],[25.9,6915],[25.9,6998],[25.9,7081],[25.9,7165],[25.9,7248],[25.9,7331],[25.9,7415],[25.9,7498],[25.9,7581],[25.9,7665],[25.9,7748],[25.9,7831],[25.9,7915],[25.9,7998],[25.9,8081],[25.9,8164],[25.9,8248],[25.9,8331],[25.9,8415],[25.9,8498],[25.9,8581],[25.9,8665],[25.9,8748],[25.9,8831],[25.9,8915],[25.9,8998],[25.9,9081],[25.9,9165],[25.9,9248],[25.9,9331],[25.9,9415],[25.9,9498],[25.9,9581],[25.9,9665],[25.9,9748],[25.9,9831],[25.9,9915],[25.9,9998],[25.9,10081],[26.1,10165],[27.1,10248],[29.1,10331],[31,10414],[33.3,10498],[36.4,10581],[39.4,10664],[43.2,10748],[46.3,10831],[47.8,10915],[50.3,10998],[52.9,11081],[55.5,11165],[57.7,11248],[60.3,11331],[61.3,11414],[61.8,11497],[62.8,11581],[64.1,11664],[64.2,11748],[65.7,11832],[67.9,11915],[67.9,11998],[68.1,12081]]",1,0,819.0097,821.8424,65.9375,2.12,"[{""rating"":65.9375,""responseTime"":2.1200000000000045}]",space,2.3098,,821.8425,All the time,100,821.8455,,,[],,,,0,16,16,16,1,audio/Narrative8Situation7.wav,audio/Narrative7Situation7.wav,audio/Narrative6Situation7.wav,audio/Narrative5Situation7.wav,3,5,5,4,,,,,,,,,,,,,,,,,,,,,,,,,,,,,,,,,,,,,
,,,,,,6639187761791a1345921730,2024-05-13_11h32.04.498,group3.1-3.2-social-tom,2023.2.2,Win32,60.60606061,65c5074098b851296ff0b7ed,6642309befb234550897c71d,,,,,,,,,,,,,,,,,,,,,,,,,,,,,821.8458,1,audio/Narrative8Situation8.wav,824.8593,,824.8593,837.7239,"[[999,0],[999,83],[999,166],[999,250],[999,333],[999,416],[999,499],[999,582],[999,666],[999,749],[999,833],[999,917],[999,999],[999,1083],[999,1166],[999,1249],[999,1332],[999,1415],[999,1499],[999,1582],[999,1666],[999,1749],[999,1832],[999,1916],[999,1998],[999,2082],[999,2166],[999,2249],[999,2332],[999,2415],[999,2499],[999,2582],[999,2665],[999,2749],[999,2832],[999,2915],[999,2999],[999,3082],[999,3165],[999,3248],[999,3331],[999,3415],[999,3498],[999,3582],[999,3665],[999,3749],[999,3832],[999,3916],[999,3998],[999,4082],[999,4165],[999,4248],[999,4332],[999,4415],[999,4498],[999,4581],[999,4666],[999,4748],[999,4832],[999,4915],[999,4998],[999,5082],[999,5165],[999,5248],[999,5332],[999,5415],[999,5498],[999,5582],[999,5665],[999,5748],[999,5832],[999,5915],[999,5998],[999,6082],[999,6165],[999,6248],[999,6332],[999,6414],[999,6498],[999,6581],[999,6665],[999,6748],[999,6832],[999,6915],[999,6998],[999,7082],[999,7164],[999,7248],[999,7331],[999,7415],[999,7498],[999,7581],[999,7664],[999,7748],[999,7831],[999,7915],[999,7998],[999,8081],[999,8165],[999,8248],[999,8332],[999,8414],[999,8498],[999,8582],[62,8664],[61.7,8748],[61.5,8831],[61.5,8914],[61.5,8998],[61.5,9081],[61.5,9164],[61.5,9248],[61.5,9332],[62.3,9414],[63.2,9498],[64.5,9582],[66,9664],[66.7,9748],[66.7,9831],[66.7,9914],[66.7,9998],[66.7,10081],[66.7,10164],[66.7,10248],[66.7,10331],[66.6,10414],[66.6,10498],[66.5,10581],[65.6,10664],[64.4,10748],[63.2,10831],[62.8,10914],[62.1,10998],[62,11081],[62,11164],[62,11247],[62.7,11331],[64.8,11414],[66.4,11498],[66.5,11581],[66.5,11664],[66.5,11748],[66.5,11831],[66.4,11914],[66.4,11997],[66.4,12081],[66.4,12164],[67.4,12247],[67.9,12331],[69.3,12414],[70.9,12498],[72.6,12581],[74.8,12664],[76.5,12747],[78.9,12830]]",1,0,837.724,840.3574,66.97916667,1.7889,"[{""rating"":66.97916666666667,""responseTime"":1.788900000095282}]",space,2.0836,,840.3574,Half the time,50,840.3602,,,[],,,,0,17,17,17,1,audio/Narrative8Situation8.wav,audio/Narrative7Situation8.wav,audio/Narrative6Situation8.wav,audio/Narrative5Situation8.wav,3,2,5,3,,,,,,,,,,,,,,,,,,,,,,,,,,,,,,,,,,,,,
,,,,,,6639187761791a1345921730,2024-05-13_11h32.04.498,group3.1-3.2-social-tom,2023.2.2,Win32,60.60606061,65c5074098b851296ff0b7ed,6642309befb234550897c71d,,,,,,,,,,,,,,,,,,,,,,,,,,,,,840.3604,1,audio/Narrative8Situation9.wav,843.3731,,843.3732,854.6882,"[[999,0],[999,83],[999,166],[999,249],[999,332],[999,416],[999,499],[999,583],[999,666],[999,750],[999,834],[999,916],[999,999],[999,1083],[999,1166],[999,1249],[999,1332],[999,1416],[999,1499],[999,1582],[999,1666],[999,1749],[999,1832],[999,1916],[999,1999],[999,2082],[999,2166],[999,2249],[999,2333],[999,2416],[999,2499],[999,2582],[999,2666],[999,2749],[999,2832],[999,2916],[999,2999],[999,3082],[999,3166],[999,3250],[999,3333],[999,3416],[999,3500],[60.8,3582],[60.4,3666],[60.3,3749],[60.2,3832],[60.2,3915],[60.2,3999],[60.2,4082],[60.2,4165],[60.2,4249],[60.2,4332],[60.2,4415],[60.3,4499],[60.7,4582],[62.1,4666],[62.7,4748],[63.3,4832],[63.8,4915],[64.1,4999],[64.1,5082],[64.1,5165],[64.1,5249],[64.1,5332],[64.1,5415],[64.1,5499],[64.1,5581],[64.1,5665],[64.1,5749],[64.1,5832],[64.1,5915],[64.1,5998],[64.1,6082],[64.1,6165],[64.1,6249],[64.1,6331],[64.1,6415],[64.1,6499],[64.1,6582],[64.1,6665],[64.1,6749],[64.1,6832],[64.1,6915],[64.1,6999],[64.1,7081],[64.3,7165],[64.4,7248],[64.4,7332],[64.4,7415],[64.4,7499],[65.1,7581],[66.4,7665],[67.6,7749],[69.6,7831],[71,7915],[73,7998],[74.2,8081],[75.3,8165],[75.7,8249],[76.1,8332],[76.4,8414],[76.9,8499],[77.2,8581],[77.3,8664],[77.3,8749],[77.3,8831],[77.3,8915],[77.3,8999],[76.3,9082],[75.9,9165],[75.7,9248],[75.7,9331],[75.7,9415],[76.4,9498],[77,9581],[78.3,9665],[78.9,9748],[80,9831],[80.5,9915],[82,9998],[83.3,10081],[84,10165],[84.2,10248],[84.3,10331],[84.3,10415],[84.3,10498],[84.3,10581],[84.3,10664],[84.3,10748],[84.3,10831],[84.3,10915],[84.3,10998],[84.3,11081],[84.3,11164],[84.3,11248]]",1,0,854.6884,858.1882,84.47916667,2.4365,"[{""rating"":84.47916666666666,""responseTime"":2.4365000000000236}]",space,2.9502,,858.1882,Half the time,50,858.1899,,,[],,,,0,18,18,18,1,audio/Narrative8Situation9.wav,audio/Narrative7Situation9.wav,audio/Narrative6Situation9.wav,audio/Narrative5Situation9.wav,3,2,4,3,,,,,,,,,,,,,,,,,,,,,,,,,,,,,,,,,,,,,
,,,,,,6639187761791a1345921730,2024-05-13_11h32.04.498,group3.1-3.2-social-tom,2023.2.2,Win32,60.60606061,65c5074098b851296ff0b7ed,6642309befb234550897c71d,,,,,,,,,,,,,,,,,,,,,,,,,,,876.9023,879.4851,879.4955,2,audio/Narrative13Situation2.wav,879.4956,,879.4956,909.2507,"[[999,0],[999,72],[999,160],[999,239],[999,322],[999,405],[999,489],[999,572],[999,656],[999,739],[999,822],[999,905],[999,992],[999,1072],[999,1156],[999,1242],[999,1322],[999,1408],[999,1489],[999,1574],[999,1656],[999,1742],[999,1825],[999,1906],[999,1989],[999,2072],[999,2158],[999,2239],[999,2322],[999,2408],[999,2489],[56.3,2576],[56.4,2658],[56,2742],[55.9,2825],[55.9,2905],[55.9,2989],[55.9,3071],[55.9,3155],[54.4,3241],[51.5,3325],[49.5,3408],[46.3,3492],[45.3,3574],[45.3,3655],[45.3,3738],[45.3,3821],[45.3,3905],[45.3,3989],[45.3,4072],[45.3,4155],[45.3,4241],[45.3,4321],[45.3,4405],[45.3,4489],[45.3,4571],[45.3,4655],[45.3,4739],[45.3,4821],[45.3,4905],[45.3,4988],[45.3,5075],[45.3,5155],[45.3,5239],[45.3,5321],[45.3,5407],[45.3,5491],[45.3,5575],[45.3,5655],[45.3,5738],[45.3,5821],[45.3,5905],[45.3,5988],[45.3,6071],[45.3,6155],[45.3,6238],[45.3,6321],[45.3,6405],[45.3,6489],[45.5,6575],[45.6,6655],[45.7,6739],[45.7,6821],[45.7,6905],[45.7,6989],[45.7,7071],[45.7,7154],[45.7,7238],[45.7,7321],[45.7,7405],[45.7,7488],[45.7,7571],[45.7,7654],[45.7,7738],[45.7,7821],[45.7,7905],[45.7,7988],[45.7,8071],[45.7,8155],[45.7,8241],[45.7,8322],[45.8,8408],[46.4,8488],[46.8,8571],[47.2,8657],[48.1,8742],[48.8,8821],[50.3,8907],[50.7,8988],[51,9074],[51.4,9157],[51.4,9238],[51.4,9321],[51.4,9405],[51.4,9488],[51.4,9571],[51.4,9654],[51.4,9738],[51.4,9820],[52.1,9905],[53,9992],[53,10070],[53,10154],[53,10238],[53,10320],[53,10404],[53,10488],[53,10571],[53,10654],[53,10738],[53,10821],[53,10904],[53,10988],[53,11071],[53,11154],[53,11238],[53,11321],[53,11404],[53,11488],[53,11570],[53,11654],[53,11738],[53,11821],[53,11904],[53,11987],[53,12071],[53,12154],[53,12237],[53,12321],[53,12404],[53,12487],[53,12571],[53,12654],[53,12738],[53,12821],[53,12904],[53,12987],[53,13071],[53,13154],[53,13238],[53,13321],[53,13404],[53,13487],[53,13570],[53,13654],[53,13737],[53,13821],[53,13904],[53,13988],[53,14070],[53,14153],[53,14237],[53,14321],[53,14403],[53,14488],[53,14571],[53,14654],[53,14737],[53,14821],[53,14903],[53,14987],[53,15071],[53,15153],[53,15237],[53,15320],[53,15403],[53,15490],[53,15570],[53,15653],[53,15737],[53,15821],[53,15903],[53,15987],[53,16070],[53,16157],[53,16237],[53,16320],[53,16403],[53,16490],[53,16570],[53,16653],[53,16737],[53,16820],[53,16903],[53,16987],[53,17070],[53,17154],[53,17237],[53,17320],[53,17403],[53,17487],[53,17570],[53,17653],[53,17740],[53,17820],[53,17903],[53,17987],[53,18070],[53,18153],[53,18237],[53,18320],[53,18403],[53,18486],[53,18570],[53,18653],[53.1,18736],[53.2,18820],[53.3,18903],[53.3,18987],[53.3,19070],[53.3,19153],[53.3,19236],[53.3,19320],[53.3,19402],[53.3,19487],[53.3,19570],[53.3,19653],[53.3,19737],[53.3,19820],[53.3,19902],[53.3,19987],[53.3,20070],[53.3,20153],[53.3,20236],[53.3,20319],[53.3,20402],[53.3,20487],[53.3,20570],[53.3,20653],[53.3,20736],[53.3,20819],[53.3,20902],[53.3,20986],[53.3,21072],[53.3,21152],[53.3,21236],[53.3,21320],[53.3,21402],[53.3,21490],[53.3,21570],[53.3,21653],[53.3,21736],[53.3,21820],[53.3,21902],[53.3,21986],[53.3,22070],[53.3,22153],[53.3,22236],[53.3,22322],[53.3,22402],[53.3,22486],[53.3,22569],[53.3,22656],[53.3,22736],[53.3,22819],[53.3,22903],[53.3,22986],[53.3,23069],[53.3,23152],[53.3,23236],[53.3,23319],[53.3,23402],[53.3,23487],[53.3,23570],[53.3,23652],[53.3,23736],[53.3,23819],[53.3,23902],[53.3,23986],[53.3,24072],[53.3,24152],[53.3,24236],[53.3,24319],[53.3,24402],[53.3,24486],[53.3,24569],[53.3,24652],[53.3,24736],[53.3,24819],[53.3,24903],[53.3,24986],[53.3,25070],[53.3,25152],[53.3,25236],[53.3,25319],[53.3,25402],[53.3,25485],[53.3,25569],[53.3,25652],[53.3,25739],[53.3,25819],[53.3,25902],[53.3,25989],[53.3,26069],[53.3,26155],[53.3,26238],[53.3,26319],[53.3,26402],[53.3,26486],[53.3,26569],[53.3,26652],[53.3,26736],[53.3,26819],[53.3,26902],[53.3,26986],[53.3,27069],[53.3,27152],[53.3,27235],[53.3,27319],[53.3,27402],[53.3,27486],[53.3,27569],[53.3,27652],[53.3,27735],[53.3,27819],[53.3,27902],[53.3,27985],[53.3,28069],[53.3,28152],[53.3,28235],[53.3,28319],[53.3,28402],[53.3,28485],[53.3,28569],[53.3,28652],[53.3,28735],[53.3,28819],[53.3,28902],[53.3,28985],[53.3,29069],[53.3,29152],[53.3,29235],[53.3,29319],[53.3,29402],[53.1,29485],[52.4,29572],[52.2,29654],[51.8,29735]]",1,0,909.2509,909.2525,,,[],,,,909.2525,Not at all,0,909.2553,,,[],,,,0,0,0,0,1,audio/Narrative13Situation2.wav,audio/Narrative13Situation2.wav,audio/Narrative13Situation2.wav,audio/Narrative13Situation2.wav,2,2,2,2,,,858.1902,876.9019,space,18.192,,,,,,,,,,,,,,,,,,,,,,,,,,,,,,,
,,,,,,6639187761791a1345921730,2024-05-13_11h32.04.498,group3.1-3.2-social-tom,2023.2.2,Win32,60.60606061,65c5074098b851296ff0b7ed,6642309befb234550897c71d,,,,,,,,,,,,,,,,,,,,,,,,,,,,,909.2557,2,audio/Narrative5Situation1.wav,914.2635,,914.2635,927.5484,"[[999,0],[999,86],[999,169],[999,253],[999,333],[999,416],[999,500],[999,583],[999,669],[999,750],[999,832],[999,919],[999,1000],[999,1086],[999,1166],[999,1250],[999,1333],[999,1419],[999,1500],[999,1583],[999,1666],[999,1750],[999,1833],[999,1916],[999,2002],[999,2083],[999,2166],[51.5,2249],[51.5,2333],[51.5,2416],[51.5,2500],[51.5,2583],[51.5,2666],[51.5,2750],[51.5,2833],[51.5,2916],[51.5,3000],[51.5,3083],[51.5,3165],[51.5,3250],[51.5,3333],[51.5,3415],[51.5,3500],[51.5,3583],[51.5,3666],[51.5,3749],[51.5,3833],[51.5,3915],[51.5,3999],[51.5,4083],[51.5,4165],[51.5,4249],[51.5,4332],[51.5,4415],[51.5,4499],[51.5,4585],[51.5,4665],[51.5,4749],[51.5,4832],[51.5,4915],[51.5,4999],[51.5,5082],[51.5,5165],[51.5,5249],[51.5,5332],[51.5,5416],[51.5,5502],[50.4,5586],[49,5669],[48,5752],[46.4,5836],[44.8,5916],[43.9,6002],[43.8,6083],[43.8,6166],[43.8,6249],[43.8,6332],[44.8,6419],[47,6502],[47.6,6583],[48.1,6668],[48.3,6749],[48.4,6832],[49.1,6918],[49.2,6998],[49.3,7082],[49.3,7168],[49.3,7249],[50,7335],[52.4,7419],[55.4,7502],[58.1,7585],[59.7,7665],[59.8,7749],[59.9,7833],[60.3,7919],[61.7,7999],[63.8,8085],[64.6,8165],[65.4,8251],[65.9,8332],[66.3,8419],[66.3,8499],[66.3,8581],[66.3,8665],[66.3,8749],[66.3,8832],[66.3,8915],[66.3,8999],[66.3,9082],[66.3,9165],[66.3,9249],[66.3,9332],[66.3,9415],[66.3,9499],[66.3,9585],[66.3,9665],[66.3,9751],[66.3,9832],[66.3,9915],[66.3,9998],[66.3,10082],[66.3,10165],[66.3,10249],[66.3,10332],[66.3,10415],[66.3,10499],[66.3,10582],[66.3,10665],[66.3,10748],[66.3,10832],[66.3,10915],[66.3,10998],[66.3,11082],[66.3,11164],[66.3,11248],[66.3,11332],[66.3,11414],[66.3,11498],[66.3,11581],[66.3,11665],[66.3,11748],[66.3,11832],[66.3,11914],[66.3,11998],[66.3,12082],[66.3,12164],[66.3,12248],[66.3,12335],[66.3,12414],[66.3,12498],[66.3,12581],[66.3,12665],[66.3,12748],[66.3,12832],[65.6,12918],[65.4,12998],[64.9,13081],[63.9,13168],[62.7,13248]]",1,0,927.5485,931.495,53.64583333,2.1712,"[{""rating"":53.645833333333336,""responseTime"":2.1712000000476337}]",space,3.3943,,931.4951,All the time,100,931.4984,,,[],,,,0,1,1,1,1,audio/Narrative7Situation1.wav,audio/Narrative8Situation1.wav,audio/Narrative5Situation1.wav,audio/Narrative6Situation1.wav,2,5,5,2,,,,,,,,,,,,,,,,,,,,,,,,,,,,,,,,,,,,,
,,,,,,6639187761791a1345921730,2024-05-13_11h32.04.498,group3.1-3.2-social-tom,2023.2.2,Win32,60.60606061,65c5074098b851296ff0b7ed,6642309befb234550897c71d,,,,,,,,,,,,,,,,,,,,,,,,,,,,,931.4987,2,audio/Narrative5Situation2.wav,934.5107,,934.5108,963.974,"[[999,0],[999,83],[999,166],[999,250],[999,333],[999,417],[999,503],[999,587],[999,669],[999,750],[999,834],[999,919],[999,1000],[55.2,1086],[55.1,1169],[55.1,1249],[54.5,1337],[52.1,1420],[50.3,1502],[50.1,1586],[50,1670],[50,1749],[50,1836],[50,1919],[50,1999],[50,2083],[50,2166],[50,2250],[50,2333],[50,2419],[50,2499],[50,2583],[50,2669],[50,2749],[50,2832],[50,2916],[50,2999],[50,3083],[50,3166],[50,3249],[50,3333],[50,3416],[50,3500],[50,3586],[50,3666],[50,3749],[50,3833],[50,3919],[50,3999],[50,4083],[50,4166],[50,4249],[50,4333],[50,4416],[50,4499],[50,4583],[50,4666],[50,4749],[50,4832],[50,4916],[50,4999],[50,5083],[50,5166],[50,5250],[50,5332],[50,5419],[50,5499],[50,5582],[50,5666],[50,5750],[50,5832],[50,5916],[50,5999],[50,6082],[50,6166],[50,6249],[50,6333],[50,6416],[50,6499],[50,6585],[50,6666],[50,6749],[50,6833],[50,6918],[50,7002],[50,7085],[50,7166],[50,7249],[50,7332],[50,7416],[50,7499],[50,7582],[50,7665],[50,7752],[50,7832],[50,7916],[50,7999],[50,8082],[50,8166],[50,8249],[50,8332],[50,8416],[50,8499],[50,8582],[50,8666],[50,8749],[50,8832],[50,8916],[50,8999],[50,9082],[50,9168],[50,9249],[50,9332],[50,9415],[50,9499],[50,9582],[50,9665],[50,9749],[50,9832],[50,9917],[50,9999],[50,10082],[50,10165],[50,10248],[50,10332],[50,10415],[50,10498],[50,10581],[50,10665],[50,10751],[50,10832],[50,10915],[50,10998],[50,11082],[50,11165],[50,11248],[50,11331],[50,11415],[50,11498],[50,11581],[50,11668],[50,11748],[50,11832],[50,11915],[50,11998],[50,12081],[50,12165],[50,12248],[50,12331],[50,12415],[50,12498],[50,12581],[50,12665],[50,12748],[50,12831],[50,12918],[50,12998],[50,13081],[50,13165],[50.1,13248],[50.2,13332],[50.2,13418],[50.2,13498],[50.2,13581],[50.2,13664],[50.2,13748],[50.2,13831],[50.3,13915],[50.8,13998],[51.1,14081],[51.3,14165],[51.5,14248],[51.8,14331],[52,14415],[52.3,14497],[52.9,14584],[53.6,14668],[54.1,14751],[54.3,14831],[54.8,14918],[55.3,15001],[56.5,15081],[56.9,15168],[57.3,15251],[57.4,15334],[57.5,15417],[57.5,15497],[57.5,15581],[57.5,15664],[57.5,15748],[57.5,15831],[57.5,15914],[57.5,15997],[57.5,16081],[57.5,16165],[57.5,16248],[57.5,16331],[57.5,16414],[57.5,16497],[57.5,16581],[57.5,16664],[57.5,16748],[57.5,16831],[57.5,16915],[57.5,16998],[57.5,17081],[57.5,17167],[57.5,17247],[57.5,17331],[57.5,17415],[57.5,17498],[57.5,17581],[57.5,17665],[57.5,17747],[57.5,17831],[57.5,17914],[57.5,17997],[57.5,18080],[57.5,18164],[57.5,18247],[57.5,18331],[57.5,18414],[57.5,18497],[57.5,18581],[57.5,18664],[57.6,18747],[57.7,18831],[58.1,18914],[58.1,18997],[58.1,19084],[58.1,19167],[58.1,19247],[58.1,19330],[58.1,19414],[58.1,19497],[58.1,19581],[58.1,19664],[58.1,19747],[58.1,19834],[58.1,19914],[58.1,19997],[58.1,20080],[58.1,20163],[58.1,20247],[58.1,20331],[58.1,20414],[58.1,20497],[58.1,20580],[58.1,20663],[58.1,20747],[58.1,20830],[58.1,20914],[58.1,20997],[58.1,21080],[58.1,21163],[58.1,21247],[58.1,21330],[58.1,21413],[58.1,21497],[58.1,21580],[58.1,21663],[58.1,21747],[58.1,21830],[58.1,21913],[58.1,21997],[58.1,22080],[58.1,22164],[58.1,22247],[58.2,22330],[58.2,22413],[58.2,22497],[58.2,22580],[58.2,22664],[58.2,22747],[58.2,22830],[58.2,22913],[58.2,22997],[58.2,23081],[58.2,23163],[58.2,23247],[58.2,23330],[58.2,23414],[58.2,23497],[58.2,23581],[58.2,23663],[58.2,23747],[58.2,23830],[58.2,23913],[58.2,23997],[58.2,24080],[58.2,24163],[58.2,24247],[58.2,24330],[58.2,24416],[58.2,24497],[58.2,24580],[58.2,24664],[58.2,24747],[58.2,24833],[58.2,24913],[58.2,24997],[58.2,25079],[58.2,25163],[58.2,25247],[58.2,25330],[58.3,25413],[58.4,25497],[58.5,25580],[58.5,25663],[58.5,25747],[58.8,25830],[59.7,25916],[61.5,26000],[61.9,26083],[62.6,26163],[63.9,26250],[65.1,26333],[65.6,26413],[65.7,26497],[67.2,26582],[68.6,26666],[68.6,26746],[69.2,26834],[72.9,26916],[75.2,26996],[76.7,27082],[79.6,27163],[83.4,27246],[87.2,27332],[88.3,27417],[90.2,27496],[92,27583],[92.6,27663],[92.6,27746],[92.6,27829],[92.6,27912],[92.6,27996],[92.6,28080],[92.6,28163],[92.6,28246],[92.6,28332],[92.2,28415],[92,28500],[91.9,28583],[91.8,28663],[91.8,28746],[91.8,28829],[91.8,28912],[91.8,28996],[91.8,29079],[91.8,29163],[91.7,29246],[91.7,29332],[91.7,29416]]",1,0,963.9742,967.2231,91.97916667,2.1353,"[{""rating"":91.97916666666667,""responseTime"":2.135299999952167}]",space,2.7095,,967.2232,Not at all,0,967.2256,,,[],,,,0,2,2,2,1,audio/Narrative7Situation2.wav,audio/Narrative8Situation2.wav,audio/Narrative5Situation2.wav,audio/Narrative6Situation2.wav,3,3,3,3,,,,,,,,,,,,,,,,,,,,,,,,,,,,,,,,,,,,,
,,,,,,6639187761791a1345921730,2024-05-13_11h32.04.498,group3.1-3.2-social-tom,2023.2.2,Win32,60.60606061,65c5074098b851296ff0b7ed,6642309befb234550897c71d,,,,,,,,,,,,,,,,,,,,,,,,,,,,,967.2258,2,audio/Narrative5Situation3.wav,970.24,,970.24,984.1581,"[[999,0],[999,86],[999,169],[999,252],[999,336],[999,419],[999,503],[999,586],[51.9,669],[51.8,749],[50.7,836],[50.2,919],[50.1,999],[50.1,1086],[50.1,1166],[50.1,1249],[50.1,1333],[50.1,1415],[50.1,1498],[50.1,1585],[50.1,1666],[50.1,1749],[50.1,1832],[50.1,1916],[50.1,1999],[50.1,2082],[50.1,2166],[50.1,2249],[50.1,2335],[50.1,2415],[50.1,2499],[50.1,2582],[50.1,2665],[50.1,2748],[50.1,2832],[50.1,2915],[50.1,2998],[50.1,3085],[50.1,3166],[50.1,3249],[50.1,3332],[50.1,3415],[50.1,3499],[50.1,3582],[50.1,3666],[50.1,3749],[50.1,3832],[50.1,3918],[50.1,3998],[50.1,4082],[50.1,4165],[50.1,4249],[50.1,4332],[50.1,4415],[50.1,4498],[50.1,4582],[50.1,4665],[50.1,4748],[50.1,4832],[50.1,4915],[50.1,4998],[50.1,5082],[50.1,5165],[50.1,5249],[50.1,5332],[50.1,5415],[50.1,5499],[50.1,5582],[50.1,5665],[50.1,5748],[50.1,5832],[50.1,5915],[50.1,5998],[50.1,6082],[50.1,6165],[50.1,6248],[50.1,6332],[50.1,6415],[50.1,6499],[50.1,6581],[50.1,6665],[50.1,6748],[50.1,6832],[50.1,6914],[50.1,7000],[50.1,7082],[50.1,7165],[50.1,7248],[50.1,7332],[50.1,7414],[50.1,7498],[50.1,7585],[50.1,7664],[50.1,7748],[50.1,7831],[50.1,7915],[50.1,7998],[50.1,8082],[50.1,8164],[50.1,8248],[50.1,8331],[50.1,8415],[50.1,8498],[50.1,8585],[50.1,8664],[50.1,8748],[50.1,8831],[50.1,8914],[50.1,8998],[50.1,9082],[50.1,9164],[50.1,9248],[50.1,9332],[50.5,9414],[50.6,9498],[51.1,9581],[51.9,9668],[52.3,9748],[53,9831],[54.2,9917],[54.5,10001],[55.3,10084],[55.7,10168],[56.4,10248],[58.2,10334],[59.2,10415],[59.4,10498],[59.5,10584],[59.8,10664],[59.8,10748],[59.8,10834],[59.8,10914],[59.8,10998],[59.8,11081],[59.8,11164],[59.8,11248],[59.8,11331],[59.8,11414],[59.8,11498],[59.8,11581],[59.8,11664],[59.8,11748],[59.8,11831],[59.8,11914],[59.8,11997],[59.8,12081],[59.8,12164],[59.8,12248],[59.8,12331],[59.8,12414],[59.8,12498],[59.8,12584],[59.8,12664],[59.8,12748],[59.8,12831],[59.8,12914],[59.8,12998],[59.8,13081],[59.8,13164],[59.8,13247],[60,13334],[60.6,13418],[62.4,13501],[63.5,13581],[66.1,13664],[67.8,13752],[69.5,13831],[70.9,13917]]",1,0,984.1581,986.7074,75,1.9176,"[{""rating"":75,""responseTime"":1.9176000001430111}]",space,2.0012,,986.7074,Half the time,50,986.7102,,,[],,,,0,3,3,3,1,audio/Narrative7Situation3.wav,audio/Narrative8Situation3.wav,audio/Narrative5Situation3.wav,audio/Narrative6Situation3.wav,8,4,3,5,,,,,,,,,,,,,,,,,,,,,,,,,,,,,,,,,,,,,
,,,,,,6639187761791a1345921730,2024-05-13_11h32.04.498,group3.1-3.2-social-tom,2023.2.2,Win32,60.60606061,65c5074098b851296ff0b7ed,6642309befb234550897c71d,,,,,,,,,,,,,,,,,,,,,,,,,,,,,986.7106,2,audio/Narrative5Situation4.wav,987.7213,,987.7213,1008.1385,"[[54.6,752],[56.9,835],[56.9,915],[55.3,1003],[53.4,1086],[52,1168],[51.9,1252],[51.9,1332],[51.9,1416],[51.9,1499],[50.1,1583],[49.8,1666],[49.8,1749],[49.8,1832],[49.8,1916],[49.8,1999],[49.8,2082],[49.8,2165],[49.8,2249],[49.8,2331],[49.8,2415],[49.8,2499],[49.9,2582],[49.9,2666],[49.9,2749],[49.9,2832],[49.9,2915],[49.9,2999],[49.9,3082],[49.9,3165],[49.9,3249],[50,3332],[50,3418],[50,3499],[50,3585],[50,3665],[50,3748],[50,3832],[50,3915],[50,3998],[50,4082],[50,4165],[50,4248],[50,4332],[50,4415],[50.1,4502],[50.1,4582],[50.1,4665],[50.1,4749],[50.1,4834],[50.1,4915],[50.1,4999],[50.1,5082],[50.1,5165],[50.1,5249],[50.1,5332],[50.1,5415],[50.1,5498],[50.1,5582],[50.1,5665],[50.1,5749],[50.1,5832],[50.1,5917],[50.1,5998],[50.1,6082],[50.1,6165],[50.1,6248],[50.1,6332],[50.1,6415],[50.1,6498],[50.1,6581],[50.1,6664],[50.1,6748],[50.1,6831],[50.1,6914],[50.1,6998],[50.1,7081],[50.1,7164],[50.1,7248],[50.1,7331],[50.1,7414],[50.1,7498],[50.1,7585],[50.1,7664],[50.1,7748],[50.1,7831],[50.1,7914],[50.1,7998],[50.2,8081],[50.2,8164],[50.2,8248],[50.2,8331],[50.2,8414],[50.2,8498],[50.2,8581],[50.2,8664],[50.2,8751],[50.2,8831],[50.2,8914],[50.2,8998],[50.2,9081],[50.2,9164],[50.2,9247],[50.2,9331],[50.2,9414],[50.2,9497],[50.2,9581],[50.2,9664],[50.2,9747],[50.2,9834],[50.2,9917],[50.2,10001],[50.2,10081],[50.2,10164],[50.2,10248],[50.2,10331],[50.2,10414],[50.2,10497],[50.2,10581],[50.2,10664],[50.2,10748],[50.2,10831],[50.2,10914],[50.2,10997],[50.2,11081],[50.2,11164],[50.2,11248],[50.2,11331],[50.2,11414],[50.2,11497],[50.2,11581],[50.2,11664],[50.2,11748],[50.2,11831],[50.2,11914],[50.2,11997],[50.2,12081],[50.2,12164],[50.2,12247],[50.2,12331],[50.2,12414],[50.2,12497],[50.2,12580],[50.6,12668],[50.7,12747],[50.8,12831],[50.9,12914],[50.9,12997],[51.1,13084],[51.1,13163],[51.4,13247],[51.5,13331],[51.9,13414],[52.3,13497],[52.7,13583],[53.1,13667],[54.2,13751],[54.8,13834],[55,13914],[55.2,13997],[55.2,14084],[55.2,14164],[55.2,14247],[55.2,14330],[55.2,14414],[55.2,14497],[55.2,14581],[55.2,14664],[55.2,14747],[55.2,14831],[55.2,14914],[55.2,14997],[55.2,15081],[55.2,15163],[55.2,15250],[55.2,15330],[55.1,15414],[55.1,15497],[55.1,15580],[55.1,15664],[55.1,15747],[55.1,15833],[55.1,15914],[55.1,15999],[55.1,16080],[55.1,16164],[55.1,16246],[55.1,16330],[55.1,16414],[55.1,16497],[55.1,16583],[55.1,16664],[55.1,16747],[55.1,16830],[55.1,16917],[55.1,16997],[55.1,17080],[55.1,17163],[55.1,17246],[55.1,17333],[55.1,17414],[55.1,17500],[55.1,17580],[55.1,17663],[55.1,17747],[55.1,17830],[55.1,17913],[55.1,17996],[55.1,18080],[55.1,18163],[55.1,18246],[55.2,18333],[55.2,18413],[55.2,18496],[55.2,18580],[55.2,18664],[55.2,18747],[55.3,18830],[55.8,18914],[57.8,18999],[58.4,19084],[59.6,19166],[60,19250],[60,19330],[60,19414],[60,19499],[60,19580],[60,19663],[60,19746],[60,19830],[60,19913],[60,19996],[60,20079],[60,20167],[60.3,20246],[61.4,20333],[62.4,20416]]",1,0,1008.1387,1010.471,63.02083333,1.5715,"[{""rating"":63.020833333333336,""responseTime"":1.5715000000000146}]",space,1.7928,,1010.471,Not at all,0,1010.4737,,,[],,,,0,4,4,4,1,audio/Narrative7Situation4.wav,audio/Narrative8Situation4.wav,audio/Narrative5Situation4.wav,audio/Narrative6Situation4.wav,3,3,1,2,,,,,,,,,,,,,,,,,,,,,,,,,,,,,,,,,,,,,
,,,,,,6639187761791a1345921730,2024-05-13_11h32.04.498,group3.1-3.2-social-tom,2023.2.2,Win32,60.60606061,65c5074098b851296ff0b7ed,6642309befb234550897c71d,,,,,,,,,,,,,,,,,,,,,,,,,,,,,1010.4739,2,audio/Narrative5Situation5.wav,1015.4842,,1015.4842,1030.915,"[[999,0],[999,82],[999,166],[999,252],[999,336],[999,415],[999,499],[999,582],[999,669],[999,749],[999,835],[50.3,919],[49.9,1002],[49.7,1085],[49.7,1166],[49.7,1249],[49.7,1332],[49.7,1415],[49.6,1502],[49.5,1582],[49.5,1665],[49.1,1753],[48.2,1836],[47.1,1919],[45.5,2002],[43.3,2082],[39.2,2169],[37.5,2249],[37.4,2335],[37.1,2415],[36.3,2498],[35.8,2582],[35.7,2666],[35.6,2749],[34.8,2836],[34.2,2919],[34.1,2999],[34.1,3082],[34.1,3165],[35.8,3249],[40.1,3332],[44.5,3418],[46.6,3498],[48.3,3586],[50,3669],[50.5,3752],[50.5,3832],[50.5,3915],[50.5,3999],[50.5,4082],[51,4165],[54.6,4252],[58.2,4335],[65.2,4418],[70.1,4498],[75.6,4582],[81.5,4668],[87.2,4752],[90.5,4835],[92.6,4918],[92.6,4998],[92.8,5082],[93.9,5165],[93.9,5248],[93.9,5332],[93.9,5415],[93.9,5501],[93.9,5582],[93.8,5668],[93.5,5751],[93.3,5835],[93.3,5915],[93.3,5998],[93.3,6082],[93.3,6165],[93.3,6249],[93.3,6332],[93.3,6415],[93.5,6498],[94,6585],[94.3,6665],[94.5,6748],[94.5,6832],[94.5,6915],[94.5,6999],[94.5,7082],[94.5,7165],[94.5,7249],[94.5,7332],[94.5,7415],[94.5,7499],[94.5,7581],[94.4,7665],[94.4,7748],[94.4,7835],[94.4,7914],[94.4,7998],[94.5,8082],[94.9,8164],[95,8248],[95.4,8332],[95.4,8414],[95.4,8498],[95.8,8585],[95.9,8665],[95.9,8748],[96.5,8832],[96.6,8914],[96.8,8998],[97.3,9084],[97.4,9168],[97.7,9248],[97.9,9331],[98.2,9418],[98.6,9499],[98.9,9581],[99.4,9668],[99.7,9748],[99.8,9834],[100,9917],[100,10001],[100,10084],[100,10167],[100,10251],[100,10331],[100,10414],[100,10498],[100,10581],[100,10667],[100,10750],[100,10831],[100,10914],[99.8,10998],[99.3,11084],[99,11168],[98.5,11248],[97.6,11334],[97,11414],[96.4,11503],[94.7,11585],[94.1,11664],[94,11748],[94,11831],[94.9,11914],[97,12001],[98.9,12085],[100,12167],[100,12250],[100,12334],[100,12417],[100,12500],[100,12581],[100,12663],[100,12748],[100,12831],[100,12913],[100,13000],[100,13083],[100,13164],[100,13248],[100,13330],[100,13416],[100,13497],[100,13581],[100,13663],[100,13748],[100,13831],[100,13913],[100,13997],[100,14081],[100,14163],[100,14251],[100,14331],[100,14413],[100,14497],[100,14580],[100,14663],[100,14747],[100,14830],[100,14913],[100,15000],[95.3,15084],[95.2,15163],[95.2,15248],[95.2,15331],[95.9,15413]]",1,0,1030.9152,1034.5148,99.58333333,2.2205,"[{""rating"":99.58333333333333,""responseTime"":2.2204999999999018}]",space,3.0785,,1034.5149,Half the time,50,1034.5178,,,[],,,,0,5,5,5,1,audio/Narrative7Situation5.wav,audio/Narrative8Situation5.wav,audio/Narrative5Situation5.wav,audio/Narrative6Situation5.wav,5,2,5,2,,,,,,,,,,,,,,,,,,,,,,,,,,,,,,,,,,,,,
,,,,,,6639187761791a1345921730,2024-05-13_11h32.04.498,group3.1-3.2-social-tom,2023.2.2,Win32,60.60606061,65c5074098b851296ff0b7ed,6642309befb234550897c71d,,,,,,,,,,,,,,,,,,,,,,,,,,,,,1034.5182,2,audio/Narrative5Situation6.wav,1037.531,,1037.531,1043.197,"[[63.5,1166],[64,1253],[66.8,1336],[69.8,1420],[72.6,1502],[73.3,1585],[73.8,1666],[73.8,1749],[73.9,1833],[73.9,1916],[73.9,1999],[73.9,2083],[73.9,2166],[73.9,2250],[73.9,2333],[73.9,2416],[73.9,2500],[73.9,2583],[73.9,2666],[73.9,2749],[73.9,2832],[73.9,2916],[73.9,2999],[73.9,3083],[73.9,3166],[73.9,3249],[73.9,3332],[73.9,3416],[73.9,3502],[73.9,3582],[74,3666],[74,3752],[74,3832],[74,3916],[74.2,4003],[74.5,4082],[74.5,4165],[74.5,4249],[74.5,4332],[74.5,4416],[74.5,4499],[74.5,4582],[74.5,4666],[74.5,4748],[74.5,4832],[74.5,4915],[74.5,4999],[74.5,5082],[74.4,5168],[74.4,5249],[74.4,5332],[74.3,5415],[74.3,5499],[74.3,5582],[74.2,5665]]",1,0,1043.1971,1046.4132,69.0625,2.4355,"[{""rating"":69.0625,""responseTime"":2.4355000000000473}]",space,2.6811,,1046.4132,Not at all,0,1046.4158,,,[],,,,0,6,6,6,1,audio/Narrative7Situation6.wav,audio/Narrative8Situation6.wav,audio/Narrative5Situation6.wav,audio/Narrative6Situation6.wav,3,2,3,2,,,,,,,,,,,,,,,,,,,,,,,,,,,,,,,,,,,,,
,,,,,,6639187761791a1345921730,2024-05-13_11h32.04.498,group3.1-3.2-social-tom,2023.2.2,Win32,60.60606061,65c5074098b851296ff0b7ed,6642309befb234550897c71d,,,,,,,,,,,,,,,,,,,,,,,,,,,,,1046.416,2,audio/Narrative5Situation7.wav,1050.4289,,1050.4289,1071.4803,"[[999,0],[999,83],[999,166],[999,250],[999,333],[999,416],[999,499],[999,583],[999,666],[999,750],[999,836],[59.9,919],[60.3,999],[60.6,1086],[60.8,1169],[60.9,1249],[60.9,1334],[60.9,1420],[60.9,1499],[60.9,1583],[60.9,1666],[60.9,1752],[60.9,1833],[60.9,1916],[61.5,1999],[62.6,2086],[63.6,2170],[64.2,2249],[64.4,2333],[64.5,2416],[64.5,2499],[64.5,2583],[64.5,2666],[64.5,2749],[64.5,2833],[64.5,2916],[64.5,2999],[64.5,3083],[64.5,3166],[64.5,3249],[64.5,3333],[64.5,3417],[64.5,3499],[64.5,3582],[64.5,3666],[64.5,3749],[64.5,3833],[64.5,3918],[64.5,3999],[64.5,4083],[64.5,4166],[64.5,4249],[64.5,4333],[64.5,4416],[64.5,4499],[64.5,4583],[64.5,4666],[64.5,4749],[64.5,4833],[64.5,4916],[64.5,4999],[64.5,5082],[64.5,5166],[64.5,5249],[64.5,5333],[64.5,5416],[64.5,5499],[64.5,5583],[64.5,5666],[64.5,5749],[64.5,5832],[64.5,5916],[64.5,5999],[64.5,6082],[64.5,6166],[64.5,6249],[64.5,6332],[64.5,6416],[64.5,6499],[64.5,6583],[64.5,6666],[64.5,6749],[64.5,6832],[64.5,6916],[64.5,6999],[64.5,7082],[64.5,7165],[64.5,7249],[64.5,7332],[64.5,7415],[64.5,7499],[64.5,7582],[64.5,7666],[64.5,7752],[64.5,7832],[64.5,7916],[64.5,7999],[64.5,8082],[64.5,8165],[64.5,8249],[64.5,8332],[64.5,8415],[64.5,8499],[64.5,8582],[64.5,8665],[64.5,8748],[64.5,8832],[64.5,8915],[64.2,9002],[63.5,9082],[62.6,9165],[61.8,9249],[61,9336],[60.4,9419],[59.8,9502],[59.3,9581],[58.9,9668],[58.5,9748],[58.3,9832],[58,9915],[55.9,10002],[53.8,10085],[52,10169],[50.7,10252],[50.1,10335],[49.5,10418],[48.9,10502],[48.9,10582],[48.4,10665],[47.6,10752],[47.1,10835],[45.6,10918],[44.4,11002],[41.9,11085],[40,11168],[38.4,11252],[37.9,11331],[37.9,11415],[37.9,11498],[37.9,11581],[37.9,11664],[37.9,11748],[37.7,11831],[37.2,11918],[36.4,12001],[35.7,12085],[35.3,12168],[35.1,12248],[34.9,12331],[33.9,12418],[33.4,12498],[33,12581],[32.3,12668],[32.1,12748],[32,12831],[32,12915],[32,12998],[33,13081],[34.7,13168],[37.3,13248],[39.3,13335],[41,13418],[42.3,13501],[42.9,13584],[45.4,13665],[47.6,13751],[47.9,13831],[47.9,13915],[47.9,14001],[45.7,14084],[43.3,14168],[42.5,14248],[41.3,14334],[40.1,14417],[38.2,14498],[36.1,14584],[34.6,14668],[33.5,14748],[33,14831],[32.6,14917],[32.5,15000],[32.5,15084],[33.9,15168],[35.8,15251],[39.7,15334],[42.4,15417],[45.6,15501],[47.5,15584],[49.9,15668],[51.3,15748],[51.6,15831],[51.7,15914],[51.7,15998],[50.3,16084],[49.6,16164],[49.5,16251],[49.5,16331],[49,16418],[48.1,16500],[48.1,16581],[47.4,16664],[47.4,16748],[47.4,16831],[47.4,16914],[47.3,17000],[47,17084],[46.9,17164],[46.5,17248],[46.3,17331],[46.3,17414],[46.3,17497],[46.3,17581],[46.3,17664],[46.3,17747],[46.3,17831],[46.3,17914],[46.3,17997],[46.3,18081],[46.3,18164],[46.3,18250],[46.3,18330],[46.3,18414],[46.3,18497],[46.3,18580],[46.3,18664],[46.3,18747],[46.3,18831],[46.3,18914],[46.3,19000],[46.3,19083],[46.3,19163],[46.5,19247],[46.5,19330],[46.8,19417],[47.3,19501],[48,19584],[48.9,19667],[49.5,19751],[50.2,19834],[50.6,19914],[50.9,19997],[51.1,20080],[51.5,20167],[51.7,20247],[52.1,20331],[52.7,20413],[53.1,20497],[53.9,20584],[54.5,20664],[55.1,20751],[55.5,20830],[55.9,20913],[56.1,20997]]",1,0,1071.4805,1074.109,56.5625,1.6982,"[{""rating"":56.56250000000001,""responseTime"":1.698200000047791}]",space,2.0874,,1074.1091,Half the time,50,1074.1114,,,[],,,,0,7,7,7,1,audio/Narrative7Situation7.wav,audio/Narrative8Situation7.wav,audio/Narrative5Situation7.wav,audio/Narrative6Situation7.wav,5,3,4,5,,,,,,,,,,,,,,,,,,,,,,,,,,,,,,,,,,,,,
,,,,,,6639187761791a1345921730,2024-05-13_11h32.04.498,group3.1-3.2-social-tom,2023.2.2,Win32,60.60606061,65c5074098b851296ff0b7ed,6642309befb234550897c71d,,,,,,,,,,,,,,,,,,,,,,,,,,,,,1074.1116,2,audio/Narrative5Situation8.wav,1075.2762,space,1075.2763,1084.111,"[[47.8,670],[47.8,749],[47.8,832],[47.8,915],[47.8,999],[47.8,1083],[47.8,1168],[47.4,1249],[47.8,1333],[47.8,1415],[43.5,4335],[49.1,4419],[56.4,4502],[56.7,4582],[57.7,4669],[58.3,4748],[58.3,4832],[58.3,4915],[59.8,5002],[60.3,5084],[60.3,5165],[60.4,5251],[60.4,5331],[60.4,5415],[60.4,5498],[60.4,5581],[60.4,5668],[62.1,5751],[64.8,5835],[70.5,5915],[72.8,6002],[75.3,6085],[79.2,6168],[81.7,6252],[85.4,6335],[87.2,6418],[88.2,6499],[90.5,6585],[91.8,6668],[92.1,6751],[92.1,6831],[92.1,6915],[92.1,6998],[92.1,7085],[92.1,7165],[92.1,7248],[92.1,7334],[92.1,7414],[92.1,7498],[92.1,7582],[92.1,7665],[92.1,7752],[92.1,7832],[92.1,7914],[92.1,7998],[92.1,8082],[92.1,8165],[92.1,8248],[92.1,8334],[92.2,8415],[93.2,8501],[93.3,8581],[94.1,8668],[95.2,8751],[95.9,8834]]",1,0,1084.1111,1087.2248,98.95833333,1.9247,"[{""rating"":98.95833333333333,""responseTime"":1.9247000000477783}]",space,2.5678,,1087.2249,Not at all,0,1087.2283,,,[],,,,0,8,8,8,1,audio/Narrative7Situation8.wav,audio/Narrative8Situation8.wav,audio/Narrative5Situation8.wav,audio/Narrative6Situation8.wav,2,3,3,5,1.1385,,,,,,,,,,,,,,,,,,,,,,,,,,,,,,,,,,,,
,,,,,,6639187761791a1345921730,2024-05-13_11h32.04.498,group3.1-3.2-social-tom,2023.2.2,Win32,60.60606061,65c5074098b851296ff0b7ed,6642309befb234550897c71d,,,,,,,,,,,,,,,,,,,,,,,,,,,,,1087.2285,2,audio/Narrative5Situation9.wav,1090.2408,,1090.2408,1129.7852,"[[999,0],[999,83],[999,166],[999,250],[999,332],[999,416],[999,499],[999,583],[999,666],[48.6,749],[49,833],[49.1,915],[49.1,999],[49.1,1082],[49.1,1165],[49.1,1249],[49.1,1332],[49.6,1415],[57.2,1499],[58.9,1582],[59.8,1665],[59.8,1749],[59.5,1832],[49.9,1915],[49.8,1999],[49.8,2082],[49.8,2166],[49.8,2249],[49.8,2332],[49.8,2416],[49.8,2499],[49.8,2582],[49.8,2666],[49.8,2749],[49.8,2832],[49.8,2916],[49.8,2998],[49.8,3082],[49.8,3166],[49.8,3249],[49.8,3332],[49.8,3416],[49.8,3499],[49.8,3582],[49.8,3665],[49.9,3749],[49.9,3832],[49.9,3915],[49.9,3999],[49.9,4082],[49.9,4165],[49.9,4249],[49.9,4332],[49.9,4415],[49.9,4499],[49.9,4582],[49.9,4665],[49.9,4749],[49.9,4832],[49.9,4915],[49.9,4998],[49.9,5082],[49.9,5165],[49.9,5248],[49.9,5332],[49.9,5415],[51.6,5499],[54.6,5582],[54.6,5665],[55.1,5748],[56.1,5831],[56.4,5915],[56.4,5998],[56.6,6082],[56.6,6165],[56.6,6248],[56.6,6331],[56.6,6415],[56.6,6498],[56.6,6581],[56.6,6665],[56.6,6749],[56.6,6832],[56.6,6915],[56.6,6998],[56.7,7082],[56.8,7165],[57.1,7248],[57.4,7332],[58.8,7415],[61.4,7499],[62.7,7582],[63.9,7665],[67.1,7748],[70.3,7831],[72.8,7915],[73,7998],[73,8081],[73,8164],[73,8248],[73,8332],[73,8415],[73,8498],[73,8582],[73,8665],[73,8748],[73,8832],[73,8914],[73,8998],[73,9081],[73,9165],[73.9,9248],[76,9331],[76.8,9414],[76.8,9498],[76.8,9581],[76.8,9664],[76.8,9747],[76.8,9831],[76.8,9915],[76.8,9998],[76.8,10081],[76.8,10165],[76.8,10248],[77.9,10331],[78.6,10415],[80,10498],[80.4,10581],[80.7,10664],[80.7,10748],[80.7,10831],[80.7,10915],[80.7,10998],[80.7,11081],[80.7,11164],[80.7,11248],[80.7,11331],[80.7,11415],[80.7,11498],[80.7,11581],[80.7,11665],[80.7,11748],[80.7,11831],[80.7,11914],[80.7,11998],[80.7,12082],[80.7,12164],[80.7,12248],[80.7,12331],[80.7,12414],[80.7,12498],[80.7,12581],[80.7,12664],[80.7,12747],[80.7,12831],[80.7,12914],[80.7,12997],[80.7,13081],[80.7,13164],[80.7,13247],[80.7,13331],[80.7,13414],[80.7,13497],[80.7,13581],[80.7,13664],[80.7,13747],[80.7,13831],[80.7,13914],[80.7,13997],[80.7,14081],[80.7,14164],[80.7,14247],[80.7,14331],[80.7,14413],[80.7,14497],[80.7,14581],[80.7,14664],[80.7,14747],[80.7,14830],[80.7,14914],[81.5,14997],[81.6,15081],[81.7,15164],[81.7,15247],[82.4,15331],[83.1,15414],[83.4,15497],[83.8,15581],[84.2,15664],[85.2,15747],[86.3,15831],[87,15913],[87.7,15997],[88,16080],[88.4,16163],[89.3,16247],[89.9,16331],[90.1,16413],[90.1,16497],[90.1,16580],[90.1,16663],[90.1,16747],[90.1,16830],[90.1,16913],[90.1,16997],[90.1,17080],[90.1,17163],[90.1,17247],[90.1,17330],[90.1,17413],[90.1,17497],[90.1,17580],[90.1,17663],[90.1,17747],[90.1,17830],[90.1,17913],[90.1,17997],[90.1,18080],[90.1,18163],[90.1,18247],[90.1,18330],[90.1,18413],[90.1,18496],[90.1,18580],[90.1,18663],[90.1,18747],[90.1,18830],[90.2,18914],[90.5,18996],[90.9,19080],[91.3,19163],[91.4,19247],[91.4,19330],[91.5,19413],[91.8,19497],[92.2,19580],[93.6,19663],[95.4,19747],[96.7,19830],[97.2,19913],[97.7,19997],[98.3,20080],[98.4,20163],[98.5,20246],[98.5,20330],[98.5,20413],[98.5,20497],[98.5,20580],[98.5,20663],[98.5,20747],[98.5,20830],[98.5,20913],[98.5,20996],[98.5,21080],[98.5,21163],[98.5,21247],[98.5,21330],[98.5,21413],[98.5,21496],[98.5,21580],[98.5,21663],[98.5,21746],[98.5,21829],[98.5,21913],[98.5,21996],[98.5,22080],[98.5,22163],[98.5,22246],[98.5,22330],[97.9,22413],[97.2,22496],[96.3,22580],[95.3,22663],[95.2,22746],[95.2,22830],[95.2,22913],[95.2,22996],[95.2,23080],[95.2,23163],[95.2,23246],[95.2,23329],[95.2,23412],[95.2,23496],[95.2,23579],[95.2,23663],[95.2,23746],[95.2,23829],[95.2,23913],[95.2,23996],[95.2,24079],[95.2,24163],[95.2,24246],[95.2,24330],[95.2,24413],[95.2,24496],[95.2,24579],[95.5,24662],[95.6,24746],[95.6,24829],[95.6,24913],[95.6,24996],[95.6,25079],[95.6,25163],[95.6,25246],[95.6,25329],[95.6,25413],[95.6,25496],[95.6,25579],[95.6,25662],[95.6,25746],[95.6,25829],[95.6,25913],[95.6,25996],[95.6,26079],[95.6,26162],[95.6,26246],[95.6,26329],[95.6,26413],[95.6,26496],[95.6,26579],[95.6,26662],[95.6,26745],[95.6,26829],[95.6,26913],[95,26995],[92,27079],[86.8,27163],[83.1,27245],[78,27329],[77.9,27412],[77.9,27496],[80.2,27579],[83.6,27662],[85.6,27746],[86,27829],[86,27913],[86,27995],[86,28078],[86,28162],[86,28245],[86,28329],[86,28412],[86,28496],[86,28579],[86,28662],[86,28746],[86,28829],[86,28912],[86,28996],[86,29079],[86,29162],[86,29245],[86,29328],[86,29412],[86,29495],[86,29579],[86,29662],[86,29745],[86,29829],[86,29912],[86,29995],[86,30079],[86,30162],[86,30245],[86,30328],[86,30412],[86,30495],[86,30578],[86,30662],[86,30745],[86,30828],[86,30912],[86,30995],[86,31079],[86,31162],[86,31245],[86,31328],[86,31412],[86,31495],[86,31578],[86,31661],[86,31745],[86,31828],[86,31912],[86,31995],[86,32078],[86,32162],[86,32245],[86,32328],[86,32412],[86,32495],[86,32578],[86,32661],[86,32744],[86,32828],[86,32911],[86,32994],[86,33078],[86,33162],[86,33244],[86,33328],[86,33411],[86,33494],[86,33578],[86,33661],[86,33744],[86,33827],[86,33912],[86,33994],[86,34078],[86,34162],[86,34244],[86,34328],[86,34412],[86,34494],[86,34578],[86,34661],[86,34744],[86,34827],[86,34911],[86,34994],[86,35077],[86,35161],[86.1,35244],[86.3,35328],[86.3,35412],[86.3,35494],[86.3,35577],[86.3,35661],[86.3,35744],[86.3,35827],[86.3,35912],[86.3,35994],[86.3,36078],[86.3,36161],[86.3,36244],[86.3,36327],[86.3,36411],[86.3,36494],[86.3,36578],[86.3,36661],[86.3,36744],[86.3,36827],[86.3,36911],[86.3,36994],[86.3,37078],[86.3,37161],[86.3,37244],[86.3,37327],[86.4,37411],[86.4,37494],[86.4,37577],[86.4,37660],[86.4,37744],[86.5,37828],[86.5,37911],[86.5,37994],[86.5,38077],[86.5,38161],[86.5,38244],[86.5,38327],[86.5,38411],[86.5,38494],[86.5,38577],[86.6,38661],[86.7,38744],[86.7,38827],[86.7,38911],[86.7,38994],[86.9,39077],[89.6,39161],[91,39244],[92,39327],[92.9,39411],[93.2,39494]]",1,0,1129.7854,1132.7518,99.27083333,1.8933,"[{""rating"":99.27083333333333,""responseTime"":1.8932999999522053}]",space,2.4373,,1132.7519,Not at all,0,1132.7532,,,[],,,,0,9,9,9,1,audio/Narrative7Situation9.wav,audio/Narrative8Situation9.wav,audio/Narrative5Situation9.wav,audio/Narrative6Situation9.wav,2,3,3,4,,,,,,,,,,,,,,,,,,,,,,,,,,,,,,,,,,,,,
,,,,,,6639187761791a1345921730,2024-05-13_11h32.04.498,group3.1-3.2-social-tom,2023.2.2,Win32,60.60606061,65c5074098b851296ff0b7ed,6642309befb234550897c71d,,,,,,,,,,,,,,,,,,,,,,,,,,,,,1132.7534,2,audio/Narrative6Situation1.wav,1134.7682,,1134.7683,1161.365,"[[76.3,83],[76.1,166],[76.1,249],[76.1,332],[76.1,415],[76.1,499],[76.1,582],[76.1,666],[76,750],[58.3,1333],[58.2,1416],[58.1,1499],[58.1,1582],[58.1,1666],[58.1,1748],[56,1832],[52.3,1916],[51.4,1999],[51.1,2083],[51,2166],[49.1,2249],[48.1,2332],[48.1,2416],[48.3,2499],[48.8,2582],[49.3,2666],[49.3,2748],[49.3,2832],[49.2,2916],[49.2,2999],[49.1,3082],[49.1,3166],[49.1,3248],[49.1,3332],[49.1,3416],[49.1,3499],[49.1,3582],[49.4,3666],[50,3749],[52.9,3832],[55.4,3916],[57.7,3999],[59.4,4082],[60.3,4166],[62.5,4248],[62.8,4332],[62.8,4416],[62.8,4499],[62.8,4582],[62.8,4665],[62.8,4748],[62.8,4832],[62.8,4915],[62.8,4999],[62.8,5082],[62.8,5165],[62.8,5248],[62.8,5332],[62.8,5415],[62.8,5498],[62.8,5582],[62.8,5665],[62.8,5748],[62.8,5832],[62.8,5915],[62.8,5998],[62.8,6082],[62.8,6165],[62.8,6248],[62.8,6332],[62.8,6415],[62.8,6498],[62.8,6581],[62.8,6665],[62.8,6748],[62.8,6832],[62.8,6915],[62.8,6998],[62.8,7081],[62.8,7165],[62.8,7248],[62.8,7331],[62.8,7415],[62.8,7498],[62.8,7581],[62.8,7664],[62.8,7748],[62.8,7831],[62.8,7914],[62.8,7998],[62.9,8081],[64.3,8165],[65.1,8248],[65.3,8331],[65.7,8415],[66.6,8498],[66.7,8581],[66.8,8665],[67.2,8748],[67.7,8831],[68.1,8915],[69.2,8998],[70.8,9081],[71.4,9164],[73,9248],[73.8,9331],[74.6,9414],[75.4,9497],[75.9,9581],[76.3,9665],[76.4,9747],[76.4,9831],[76.5,9914],[76.5,9997],[76.6,10081],[76.6,10164],[76.6,10247],[77,10331],[77.2,10414],[77.8,10498],[78.2,10581],[78.4,10665],[78.6,10748],[78.6,10831],[78.6,10914],[78.6,10998],[78.6,11081],[78.6,11164],[78.6,11247],[78.6,11331],[78.6,11415],[78.6,11498],[78.6,11581],[78.6,11665],[78.6,11747],[78.6,11831],[78.6,11915],[78.6,11997],[78.6,12081],[78.6,12164],[78.6,12247],[78.6,12330],[78.6,12414],[78.6,12498],[78.6,12581],[78.6,12664],[78.6,12748],[78.6,12831],[78.6,12915],[78.6,12997],[78.6,13081],[78.6,13164],[78.6,13247],[78.6,13331],[78.6,13414],[78.6,13497],[78.6,13581],[78.6,13664],[78.6,13747],[78.6,13831],[78.6,13914],[78.6,13997],[78.6,14081],[78.6,14164],[78.6,14247],[78.6,14331],[78.6,14414],[78.6,14497],[78.6,14581],[78.6,14663],[78.6,14747],[78.6,14831],[78.3,14913],[78.5,14997],[78.8,15080],[78.5,15164],[75.5,19664],[72.2,19747],[66.1,19830],[65.5,19913],[64.2,19997],[62.5,20080],[62.2,20164],[62.2,20247],[62.2,20329],[62.2,20413],[62.2,20497],[62.2,20579],[62.2,20663],[62.2,20747],[62.2,20830],[62.2,20913],[62.2,20996],[62.2,21080],[63.5,21163],[64.5,21247],[64.9,21329],[64.9,21413],[64.9,21496],[65,21580],[66.7,21663],[70.4,21746],[74.2,21829],[77.6,21913],[78.8,21997],[80.1,22080],[82.6,22163],[84.5,22247],[86.9,22329],[90,22413],[92.6,22496],[94.6,22580],[95.4,22663],[96.3,22746],[96.4,22829],[96.5,22913],[96.5,22996],[96.5,23079],[96.5,23163],[96.5,23246],[96.5,23329],[96.5,23413],[96.5,23496],[96.5,23579],[96.5,23663],[96.5,23746],[96.5,23829],[96.6,23913],[96.8,23996],[96.9,24079],[97.1,24163],[97.1,24246],[97.1,24329],[97.3,24413],[97.3,24496],[97.3,24579],[97.3,24663],[97.3,24746],[97.3,24829],[97.3,24913],[97.3,24996],[97.3,25079],[97.3,25163],[97.3,25246],[97.3,25329],[97.3,25413],[97.3,25496],[97.3,25579],[97.3,25663],[97.3,25746],[97.3,25829],[97.3,25912],[97.3,25996],[97.3,26079],[97.3,26163],[97.3,26246],[97.3,26329],[97.3,26412],[97.3,26496],[97.3,26579]]",1,0,1161.3652,1164.5644,98.85416667,2.0762,"[{""rating"":98.85416666666667,""responseTime"":2.07620000004772}]",space,2.6527,,1164.5645,All the time,100,1164.5676,,,[],,,,0,10,10,10,1,audio/Narrative8Situation1.wav,audio/Narrative7Situation1.wav,audio/Narrative6Situation1.wav,audio/Narrative5Situation1.wav,5,2,2,5,,,,,,,,,,,,,,,,,,,,,,,,,,,,,,,,,,,,,
,,,,,,6639187761791a1345921730,2024-05-13_11h32.04.498,group3.1-3.2-social-tom,2023.2.2,Win32,60.60606061,65c5074098b851296ff0b7ed,6642309befb234550897c71d,,,,,,,,,,,,,,,,,,,,,,,,,,,,,1164.5679,2,audio/Narrative6Situation2.wav,1167.5808,,1167.5808,1196.0929,"[[62.2,666],[58.4,749],[56.1,832],[53.8,916],[52.7,999],[51.9,1082],[51.4,1166],[50.9,1249],[50.9,1332],[50.6,1415],[50.5,1499],[50.5,1582],[50.5,1666],[50.5,1748],[50.5,1832],[50.5,1916],[50.5,1999],[50.5,2082],[50.5,2166],[50.5,2249],[50.5,2332],[50.5,2416],[50.5,2499],[50.5,2582],[50.5,2666],[50.5,2749],[50.5,2832],[50.5,2916],[50.5,2999],[50.5,3082],[50.5,3166],[50.5,3249],[50.5,3332],[50.5,3416],[50.5,3499],[50.5,3582],[50.5,3665],[50.5,3748],[50.5,3832],[50.5,3915],[50.5,3998],[50.5,4082],[50.5,4165],[50.5,4248],[50.5,4332],[50.5,4415],[50.5,4498],[50.5,4582],[50.5,4665],[50.5,4748],[50.5,4832],[50.5,4915],[50.5,4998],[50.5,5082],[50.5,5165],[50.5,5248],[50.5,5332],[50.7,5415],[51.1,5498],[51.3,5582],[51.3,5665],[51.4,5748],[51.4,5832],[52,5915],[52.8,5998],[53.2,6082],[53.3,6165],[53.3,6248],[53.3,6332],[53.3,6415],[53.3,6498],[52.5,6582],[51.9,6665],[51.6,6748],[51.6,6832],[51.6,6915],[51.6,6998],[51.6,7082],[51.6,7165],[51.7,7247],[51.7,7331],[51.7,7415],[51.7,7498],[51.8,7582],[51.9,7664],[52,7748],[52,7831],[52,7915],[52,7998],[52,8082],[52,8165],[52,8248],[52,8332],[51.9,8415],[50.9,8498],[50.5,8581],[50.2,8664],[50.2,8748],[50.2,8831],[50.2,8915],[50.2,8998],[50.2,9081],[50.2,9165],[50.2,9248],[50.2,9331],[50.2,9415],[50.2,9497],[50.2,9581],[50.2,9665],[50.2,9748],[50.2,9831],[50.1,9915],[50.1,9997],[50.1,10081],[50.1,10165],[50.1,10247],[50.1,10331],[50.1,10415],[50.1,10498],[50,10581],[49.9,10664],[49.9,10747],[49.9,10831],[49.9,10915],[49.9,10997],[49.9,11081],[49.9,11165],[49.9,11247],[49.9,11331],[49.9,11414],[49.9,11497],[49.9,11581],[49.9,11665],[49.9,11747],[49.9,11831],[49.9,11915],[49.9,11997],[49.9,12081],[49.9,12164],[49.9,12247],[49.9,12331],[49.9,12414],[49.9,12497],[49.9,12581],[49.9,12664],[49.9,12747],[49.9,12831],[49.9,12914],[49.9,12997],[49.9,13081],[49.9,13164],[49.9,13247],[49.9,13330],[49.9,13414],[49.9,13497],[49.9,13581],[49.9,13663],[49.9,13747],[49.9,13831],[49.9,13914],[49.9,13997],[49.9,14080],[49.9,14164],[49.9,14247],[49.9,14330],[49.9,14414],[49.9,14497],[49.9,14581],[49.9,14664],[49.9,14747],[49.9,14830],[49.9,14914],[49.9,14997],[49.9,15080],[49.9,15164],[49.9,15247],[49.9,15331],[49.9,15414],[49.9,15497],[49.9,15580],[49.9,15664],[49.9,15747],[49.9,15831],[49.9,15914],[49.9,15997],[49.9,16080],[49.9,16164],[49.9,16247],[49.9,16331],[49.9,16414],[49.9,16497],[49.9,16580],[49.9,16663],[49.9,16747],[49.9,16830],[49.9,16913],[49.9,16997],[49.9,17081],[49.9,17163],[49.9,17247],[49.9,17330],[49.9,17414],[49.9,17497],[49.9,17580],[49.9,17663],[49.9,17747],[49.9,17830],[49.9,17913],[49.9,17997],[49.9,18080],[49.9,18164],[49.9,18247],[49.9,18330],[49.9,18413],[49.9,18496],[49.9,18580],[49.9,18664],[49.9,18747],[49.9,18830],[49.9,18913],[49.9,18997],[49.9,19080],[49.9,19167],[49.9,19247],[49.9,19330],[49.9,19414],[49.9,19496],[49.9,19580],[49.9,19663],[49.9,19747],[49.9,19830],[49.9,19913],[49.9,19997],[49.9,20080],[49.9,20163],[49.9,20247],[49.9,20329],[49.9,20413],[49.9,20496],[49.9,20580],[49.9,20663],[49.9,20746],[49.9,20830],[49.9,20913],[49.9,20996],[49.9,21079],[49.9,21163],[49.9,21246],[49.9,21330],[49.9,21413],[49.9,21496],[49.9,21579],[49.9,21663],[49.9,21746],[49.9,21829],[49.9,21912],[50,21996],[50,22079],[50,22163],[50,22246],[50,22329],[50,22413],[50,22496],[50,22579],[50,22662],[50,22746],[50,22829],[50,22913],[50,22996],[50,23079],[50,23163],[50,23246],[50,23329],[50,23413],[50,23496],[50,23579],[50,23663],[50,23746],[50,23829],[50,23913],[50,23996],[50,24079],[50,24162],[50,24246],[50,24329],[50,24413],[50,24496],[50,24579],[50,24662],[50,24746],[50,24829],[50,24912],[50,24996],[50,25079],[50,25163],[50,25246],[50,25329],[50,25413],[50,25496],[50,25579],[50,25662],[50,25746],[50,25829],[50,25912],[50,25995],[50,26079],[50,26162],[50,26246],[50,26328],[50,26412],[50,26496],[50,26579],[50,26662],[50,26746],[50,26829],[50,26912],[50,26995],[50,27078],[50,27162],[50,27246],[50,27328],[50,27412],[50,27495],[50,27578],[50,27662],[50,27746],[50,27828],[50,27912],[50,27996],[50,28078],[50,28162],[49.8,28246]]",1,0,1196.093,1198.6431,49.89583333,1.6872,"[{""rating"":49.895833333333336,""responseTime"":1.6872000000478238}]",space,2.0173,,1198.6431,All the time,100,1198.6445,,,[],,,,0,11,11,11,1,audio/Narrative8Situation2.wav,audio/Narrative7Situation2.wav,audio/Narrative6Situation2.wav,audio/Narrative5Situation2.wav,3,3,3,3,,,,,,,,,,,,,,,,,,,,,,,,,,,,,,,,,,,,,
,,,,,,6639187761791a1345921730,2024-05-13_11h32.04.498,group3.1-3.2-social-tom,2023.2.2,Win32,60.60606061,65c5074098b851296ff0b7ed,6642309befb234550897c71d,,,,,,,,,,,,,,,,,,,,,,,,,,,,,1198.6447,2,audio/Narrative6Situation3.wav,1203.6589,,1203.659,1216.2741,"[[50,3166],[51.5,3249],[52.7,3333],[54.3,3416],[55.7,3499],[57.5,3582],[59.2,3666],[60.8,3749],[62.1,3832],[63.1,3916],[63.6,3999],[64,4082],[64,4166],[64,4249],[65.8,4332],[67.3,4416],[68.4,4499],[71,4582],[74,4666],[75.4,4749],[77.8,4832],[80.3,4916],[80.9,4999],[80.9,5082],[80.9,5166],[80.9,5249],[80.9,5332],[80.9,5416],[80.9,5499],[80.9,5582],[80.9,5666],[80.9,5749],[80.9,5832],[80.9,5916],[80.9,5999],[80.9,6082],[80.9,6165],[80.9,6249],[80.9,6332],[80.9,6416],[79.6,6498],[78.1,6582],[77.5,6665],[77.5,6749],[77.5,6832],[77.5,6916],[77.5,6999],[77.5,7082],[77.5,7166],[77.5,7248],[77.5,7332],[77.5,7416],[77.5,7499],[77.5,7582],[77.5,7666],[77.5,7748],[77.5,7832],[77.5,7916],[77.5,7999],[77.5,8082],[77.5,8165],[77.5,8249],[77.5,8332],[77.5,8415],[77.5,8499],[77.5,8582],[77.5,8665],[77.5,8748],[77.5,8832],[77.5,8915],[77.5,8999],[77.5,9082],[77.5,9166],[77.7,9248],[78.1,9332],[78.5,9415],[78.9,9498],[79,9582],[79.1,9665],[79.1,9748],[79.1,9832],[79.1,9915],[79.1,9998],[79.8,10082],[82.4,10165],[84.5,10248],[86.9,10332],[89.2,10415],[92.6,10498],[96.7,10582],[97.3,10665],[97.9,10748],[97.9,10831],[97.7,10914],[97.7,10998],[97.6,11081],[97.6,11165],[97.6,11248],[97.6,11331],[97.6,11415],[97.6,11498],[97.6,11581],[97.6,11664],[97.6,11748],[97.6,11831],[97.6,11915],[97.6,11998],[97.6,12080],[97.6,12165],[97.6,12247],[97.6,12331],[97.6,12415],[97.6,12497],[97.8,12581]]",1,0,1216.2742,1218.6235,98.75,1.5225,"[{""rating"":98.75,""responseTime"":1.5225000000000364}]",space,1.8031,,1218.6235,All the time,100,1218.6252,,,[],,,,0,12,12,12,1,audio/Narrative8Situation3.wav,audio/Narrative7Situation3.wav,audio/Narrative6Situation3.wav,audio/Narrative5Situation3.wav,4,8,5,3,,,,,,,,,,,,,,,,,,,,,,,,,,,,,,,,,,,,,
