exp_question,consent.started,consent.stopped,consentResponse.keys,consentResponse.rt,consentResponse.duration,participantID,date,expName,psychopyVersion,OS,frameRate,STUDY_ID,SESSION_ID,opening1.started,opening1.stopped,keyEndingOpening1.keys,keyEndingOpening1.rt,keyEndingOpening1.duration,volumeAdjust.started,volumeAdjust.stopped,endingAdjust.keys,endingAdjust.rt,endingAdjust.duration,opening2.started,opening2.stopped,keyEndingOpening.keys,keyEndingOpening.rt,keyEndingOpening.duration,mouse.x,mouse.y,mouse.leftButton,mouse.midButton,mouse.rightButton,mouse.time,instructionLoop.thisRepN,instructionLoop.thisTrialN,instructionLoop.thisN,instructionLoop.thisIndex,instructionLoop.ran,readyForAudio.started,readyForAudio.stopped,fixation.started,run,audio_played,fixation.stopped,endPractice.keys,audioPre.started,audioPre.stopped,continuousResponses_audio,continuousSlider.response,continuousSlider.rt,intRating.started,intRating.stopped,intQuestionSlider.response,intQuestionSlider.rt,intQuestionSlider.history,confirmResponse.keys,confirmResponse.rt,confirmResponse.duration,catchQuestion.started,catch_label,catch_value,catchQuestion.stopped,catchQuestionSlider.response,catchQuestionSlider.rt,catchQuestionSlider.history,confirmResponse_2.keys,audioRunLoop.thisRepN,audioRunLoop.thisTrialN,audioRunLoop.thisN,audioRunLoop.thisIndex,audioRunLoop.ran,conditions1_1,conditions2_1,conditions1_2,conditions2_2,dur1_1,dur2_1,dur1_2,dur2_2,endPractice.rt,endPractice.duration,confirmResponse_2.rt,confirmResponse_2.duration,runIntervalBreak.started,runIntervalBreak.stopped,endingBreakKey.keys,endingBreakKey.rt,endingBreakKey.duration,connection.started,connection.stopped,connectionEnding.keys,connectionEnding.rt,connectionEnding.duration,readyForText.started,readyForText.stopped,textPre.started,run_dup,textPre.stopped,continuousResponses_text,textRunLoop.thisRepN,textRunLoop.thisTrialN,textRunLoop.thisN,textRunLoop.thisIndex,textRunLoop.ran,text1_1,text1_2,text2_1,text2_2,runBreakText.started,runBreakText.stopped,endingBreakKey_2.keys,endingBreakKey_2.rt,endingBreakKey_2.duration,ending.started,ending.stopped,endingEnding.keys,endingEnding.rt,endingEnding.duration
tom,0.0002,36.7788,y,36.4636,,663bc31529719b8501c52820,2024-05-13_09h47.29.972,group3.1-3.2-social-tom,2023.2.2,Win32,60.24096386,65c5074098b851296ff0b7ed,6642359042c402beb5a17b68,,,,,,,,,,,,,,,,,,,,,,,,,,,,,,,,,,,,,,,,,,,,,,,,,,,,,,,,,,,,,,,,,,,,,,,,,,,,,,,,,,,,,,,,,,,,,,,,,,,,,,,,,,
,,,,,,663bc31529719b8501c52820,2024-05-13_09h47.29.972,group3.1-3.2-social-tom,2023.2.2,Win32,60.24096386,65c5074098b851296ff0b7ed,6642359042c402beb5a17b68,36.7792,45.1634,space,8.3395,,,,,,,,,,,,,,,,,,,,,,,,,,,,,,,,,,,,,,,,,,,,,,,,,,,,,,,,,,,,,,,,,,,,,,,,,,,,,,,,,,,,,,,,,,,,,,,,,,,,,,
,,,,,,663bc31529719b8501c52820,2024-05-13_09h47.29.972,group3.1-3.2-social-tom,2023.2.2,Win32,60.24096386,65c5074098b851296ff0b7ed,6642359042c402beb5a17b68,,,,,,45.1636,60.9311,space,15.4357,,,,,,,,,,,,,,,,,,,,,,,,,,,,,,,,,,,,,,,,,,,,,,,,,,,,,,,,,,,,,,,,,,,,,,,,,,,,,,,,,,,,,,,,,,,,,,,,,
,,,,,,663bc31529719b8501c52820,2024-05-13_09h47.29.972,group3.1-3.2-social-tom,2023.2.2,Win32,60.24096386,65c5074098b851296ff0b7ed,6642359042c402beb5a17b68,,,,,,,,,,,60.9412,74.2321,space,13.2769,,[],[],[],[],[],[],0,0,0,0,1,,,,,,,,,,,,,,,,,,,,,,,,,,,,,,,,,,,,,,,,,,,,,,,,,,,,,,,,,,,,,,,,,,,,,,,,,,,,,,,,
,,,,,,663bc31529719b8501c52820,2024-05-13_09h47.29.972,group3.1-3.2-social-tom,2023.2.2,Win32,60.24096386,65c5074098b851296ff0b7ed,6642359042c402beb5a17b68,,,,,,,,,,,74.2405,108.1014,space,33.7845,,[],[],[],[],[],[],1,0,1,0,1,,,,,,,,,,,,,,,,,,,,,,,,,,,,,,,,,,,,,,,,,,,,,,,,,,,,,,,,,,,,,,,,,,,,,,,,,,,,,,,,
,,,,,,663bc31529719b8501c52820,2024-05-13_09h47.29.972,group3.1-3.2-social-tom,2023.2.2,Win32,60.24096386,65c5074098b851296ff0b7ed,6642359042c402beb5a17b68,,,,,,,,,,,108.1096,111.1849,space,3.0273,,[-0.04583334922790527],[-0.1537036895751953],[1],[0],[0],[2.356700000047681],2,0,2,0,1,,,,,,,,,,,,,,,,,,,,,,,,,,,,,,,,,,,,,,,,,,,,,,,,,,,,,,,,,,,,,,,,,,,,,,,,,,,,,,,,
,,,,,,663bc31529719b8501c52820,2024-05-13_09h47.29.972,group3.1-3.2-social-tom,2023.2.2,Win32,60.24096386,65c5074098b851296ff0b7ed,6642359042c402beb5a17b68,,,,,,,,,,,111.1853,139.7372,space,28.5212,,[],[],[],[],[],[],3,0,3,0,1,,,,,,,,,,,,,,,,,,,,,,,,,,,,,,,,,,,,,,,,,,,,,,,,,,,,,,,,,,,,,,,,,,,,,,,,,,,,,,,,
,,,,,,663bc31529719b8501c52820,2024-05-13_09h47.29.972,group3.1-3.2-social-tom,2023.2.2,Win32,60.24096386,65c5074098b851296ff0b7ed,6642359042c402beb5a17b68,,,,,,,,,,,139.7459,162.3391,space,22.5698,,[],[],[],[],[],[],4,0,4,0,1,,,,,,,,,,,,,,,,,,,,,,,,,,,,,,,,,,,,,,,,,,,,,,,,,,,,,,,,,,,,,,,,,,,,,,,,,,,,,,,,
,,,,,,663bc31529719b8501c52820,2024-05-13_09h47.29.972,group3.1-3.2-social-tom,2023.2.2,Win32,60.24096386,65c5074098b851296ff0b7ed,6642359042c402beb5a17b68,,,,,,,,,,,,,,,,,,,,,,,,,,,162.3496,164.9228,164.9428,1,audio/Narrative13Situation2.wav,166.9569,,166.9571,196.7097,"[[999,0],[999,99],[999,182],[999,265],[999,348],[999,432],[999,515],[999,598],[999,683],[999,765],[999,848],[999,932],[999,1015],[999,1099],[999,1182],[999,1266],[999,1349],[999,1432],[999,1515],[999,1599],[999,1682],[999,1765],[999,1849],[999,1932],[999,2016],[999,2099],[999,2182],[999,2265],[999,2349],[999,2433],[999,2516],[999,2599],[44.5,2682],[56.7,2765],[55.4,2849],[55.4,2932],[55.4,3015],[55.4,3098],[57,3182],[60.6,3266],[61.3,3349],[61.3,3432],[62.2,3515],[65.7,3599],[72.2,3682],[76.8,3766],[75.1,3849],[75.1,3932],[75.1,4015],[75.1,4099],[78.6,4182],[85.1,4265],[87,4349],[87,4432],[87,4516],[87,4599],[87,4682],[87,4765],[87,4849],[87,4932],[87,5015],[87,5099],[87,5182],[87,5266],[85.4,5349],[85.3,5432],[80.5,5516],[79.9,5599],[78.1,5683],[77.5,5766],[77,5849],[70.1,5932],[64.2,6016],[63.8,6099],[63.8,6182],[63.8,6265],[63.8,6349],[63.8,6433],[63.8,6516],[63.8,6599],[63.8,6682],[63.8,6765],[63.8,6849],[63.8,6932],[66.7,7016],[73.4,7099],[74.3,7182],[74.4,7265],[74.7,7350],[75.5,7433],[75.5,7516],[75.5,7599],[75.5,7682],[75.5,7766],[75.5,7849],[75.5,7933],[75.5,8016],[75.5,8099],[77.3,8182],[82.8,8599],[83.1,8683],[83.2,8766],[83.2,8849],[83.1,8933],[82.3,9016],[81.7,9099],[81.3,9183],[81,9266],[80.8,9349],[80.8,9432],[80.8,9516],[80.8,9600],[80.8,9683],[80.8,9766],[80.8,9849],[80.8,9933],[80.8,10017],[80.8,10100],[80.8,10183],[80.8,10266],[80.8,10349],[80.8,10433],[80.8,10516],[80.8,10599],[81.3,10685],[82.1,10766],[83.3,10849],[83.9,10933],[84.1,11016],[84.1,11099],[84.1,11183],[84.1,11266],[84.1,11349],[84.1,11433],[84.1,11516],[84.1,11599],[84.1,11682],[84.1,11766],[84.1,11849],[84.1,11933],[84.1,12016],[84.1,12099],[84.1,12183],[84.1,12266],[84.1,12350],[84.1,12433],[84.1,12516],[84.1,12599],[84.1,12684],[83.3,12767],[79.7,12850],[75.7,12933],[72.9,13016],[70.2,13101],[68.9,13183],[68.6,13266],[68.5,13350],[68.5,13433],[68.5,13516],[68.5,13600],[68.5,13683],[68.5,13766],[68.5,13849],[68.5,13933],[68.5,14016],[68.5,14100],[68.5,14183],[68.5,14266],[68.5,14350],[68.5,14433],[68.5,14516],[68.5,14600],[68.5,14683],[68.5,14766],[68.5,14850],[68.5,14933],[68.5,15016],[68.5,15100],[68.5,15183],[68.5,15266],[68.5,15350],[68.5,15433],[68.5,15516],[68.5,15600],[68.5,15683],[68.5,15766],[68.5,15850],[68.5,15933],[68.5,16016],[68.5,16100],[68.5,16183],[68.5,16266],[68.5,16350],[68.5,16433],[68.5,16516],[68.5,16600],[68.5,16684],[68.5,16767],[68.5,16850],[68.5,16933],[68.5,17016],[68.5,17100],[68.5,17183],[68.5,17267],[68.5,17350],[68.5,17433],[68.5,17517],[68.5,17600],[68.5,17683],[68.5,17766],[68.5,17850],[68.5,17933],[68.5,18017],[68.5,18100],[68.5,18183],[68.5,18267],[68.5,18350],[68.5,18433],[68.5,18517],[68.5,18600],[68.5,18683],[68.5,18767],[68.5,18850],[68.5,18934],[68.5,19017],[68.5,19101],[68.5,19184],[68.5,19267],[68.5,19350],[68.5,19434],[68.5,19517],[68.5,19600],[68.5,19683],[68.5,19767],[68.5,19850],[68.5,19934],[68.5,20017],[68.5,20100],[68.5,20183],[68.5,20267],[68.5,20350],[68.5,20433],[68.5,20517],[68.5,20600],[68.5,20684],[68.5,20767],[68.5,20850],[68.5,20934],[68.5,21017],[68.5,21100],[68.5,21183],[68.5,21268],[68.5,21350],[68.5,21434],[68.5,21517],[68.5,21601],[68.5,21684],[68.5,21768],[68.5,21851],[68.5,21934],[68.5,22017],[68.5,22101],[68.5,22184],[68.5,22267],[68.5,22350],[68.5,22434],[68.5,22517],[68.5,22600],[68.5,22684],[68.5,22767],[68.5,22851],[68.5,22934],[68.5,23017],[68.5,23100],[68.5,23184],[68.5,23267],[68.5,23351],[68.5,23434],[68.5,23517],[68.5,23600],[68.5,23684],[68.5,23767],[68.5,23851],[68.5,23934],[68.5,24017],[68.5,24100],[68.5,24184],[68.5,24268],[68.5,24351],[68.5,24434],[68.5,24517],[68.5,24600],[68.5,24684],[68.5,24767],[68.5,24851],[68.5,24934],[68.5,25017],[68.5,25101],[68.5,25184],[68.5,25267],[68.5,25351],[68.5,25434],[68.5,25517],[70.6,25601],[74.8,25685],[77.1,25768],[78.6,25851],[78.6,25934],[78.6,26017],[78.6,26101],[78.6,26184],[78.6,26267],[78.6,26351],[78.6,26438],[78.6,26518],[78.6,26601],[78.6,26684],[78.6,26767],[79.5,26851],[79.7,26934],[79.7,27017],[80.7,27101],[84,27185],[84.4,27267],[84.4,27351],[84.4,27434],[84.4,27517],[84.4,27601],[84.4,27684],[84.4,27768],[84.4,27851],[84.4,27934],[84.4,28018],[84.4,28101],[84.4,28184],[84.4,28268],[84.4,28351],[84.4,28434],[84.4,28518],[84.4,28601],[84.4,28685],[84.4,28768],[84.4,28851],[84.4,28934],[84.4,29018],[84.4,29101],[84.4,29185],[84.4,29268],[84.4,29351],[84.4,29435],[84.4,29518],[84.4,29601],[84.4,29684]]",1,0,196.7102,207.1768,79.06250159,7.618,"[{""rating"":79.0625015894572,""responseTime"":7.617999999999995}]",space,9.9219,,207.1852,Not at all,0,207.189,,,[],,0,0,0,0,1,audio/Narrative13Situation2.wav,audio/Narrative13Situation2.wav,audio/Narrative13Situation2.wav,audio/Narrative13Situation2.wav,2,2,2,2,,,,,,,,,,,,,,,,,,,,,,,,,,,,,,,,,,,,,,,
,,,,,,663bc31529719b8501c52820,2024-05-13_09h47.29.972,group3.1-3.2-social-tom,2023.2.2,Win32,60.24096386,65c5074098b851296ff0b7ed,6642359042c402beb5a17b68,,,,,,,,,,,,,,,,,,,,,,,,,,,,,207.1893,1,audio/Narrative7Situation1.wav,208.794,space,208.7941,264.692,"[[76.9,6251],[75.1,6335],[74.8,6418],[74.8,6501],[74.8,6582],[74.8,6666],[74.9,6752],[75,6832],[75.2,6916],[75.2,7003],[75.4,7083],[75.7,7168],[75.7,7249],[75.7,7334],[75.7,7416],[75.7,7499],[75.7,7585],[75.7,7668],[75.7,7749],[75.7,7835],[75.7,7916],[75.7,7999],[75.7,8082],[75.7,8166],[75.7,8251],[75.7,8335],[75.7,8417],[75.7,8499],[75.7,8582],[75.7,8668],[75.7,8751],[75.7,8832],[75.7,8916],[75.7,8999],[75.7,9083],[75.7,9166],[75.7,9249],[75.7,9333],[75.7,9418],[75.7,9500],[75.7,9583],[75.7,9666],[75.7,9750],[75.7,9834],[75.7,9918],[75.7,10002],[75.7,10082],[75.7,10166],[75.7,10250],[75.7,10335],[75.7,10418],[75.7,10499],[75.7,10583],[75.7,10666],[75.7,10750],[75.7,10833],[75.7,10916],[75.7,11001],[75.7,11083],[75.7,11168],[75.7,11252],[75.7,11335],[75.7,11418],[75.7,11501],[75.7,11583],[75.7,11666],[75.7,11752],[75.7,11833],[75.7,11916],[75.7,12000],[75.7,12085],[75.7,12168],[75.7,12252],[75.7,12333],[75.7,12416],[75.7,12501],[75.7,12583],[75.7,12666],[75.7,12749],[75.7,12833],[75.7,12917],[75.7,13000],[75.7,13083],[75.7,13168],[75.7,13249],[75.7,13333],[75.7,13416],[75.7,13500],[75.7,13585],[75.7,13667],[75.7,13752],[75.7,13836],[75.7,13916],[75.7,14003],[75.7,14083],[75.7,14168],[75.7,14252],[75.7,14336],[75.7,14419],[75.7,14500],[75.7,14585],[75.7,14668],[75.7,14750],[75.7,14835],[75.7,14919],[75.7,15002],[75.7,15083],[75.7,15167],[75.7,15252],[75.7,15334],[75.7,15416],[75.7,15500],[75.7,15583],[75.7,15667],[75.7,15750],[75.7,15833],[75.7,15918],[75.7,16001],[75.7,16086],[75.7,16167],[75.7,16252],[75.7,16335],[75.7,16417],[75.7,16502],[75.7,16583],[75.7,16667],[75.7,16750],[75.7,16833],[75.7,16917],[75.7,17002],[75.7,17086],[75.7,17169],[75.7,17250],[75.7,17334],[75.7,17417],[75.7,17500],[75.7,17586],[75.7,17667],[75.7,17752],[75.7,17833],[75.7,17919],[75.7,18000],[75.7,18083],[75.7,18167],[75.7,18252],[75.7,18334],[75.7,18417],[75.7,18502],[75.7,18583],[75.7,18667],[75.7,18752],[75.7,18833],[75.7,18920],[75.7,19002],[75.7,19083],[75.7,19168],[75.7,19250],[75.7,19336],[75.7,19417],[75.7,19500],[75.7,19585],[75.7,19667],[75.7,19750],[75.7,19834],[75.7,19917],[75.7,20000],[75.7,20084],[75.7,20167],[75.7,20253],[75.7,20334],[75.7,20418],[75.7,20501],[75.7,20586],[75.7,20669],[75.7,20750],[75.7,20836],[75.7,20919],[75.7,21000],[75.7,21086],[75.7,21167],[75.7,21252],[75.7,21334],[75.7,21417],[75.7,21500],[75.7,21584],[75.7,21669],[75.7,21750],[75.7,21834],[75.7,21917],[75.7,22001],[75.7,22087],[75.7,22167],[75.7,22253],[75.7,22335],[75.7,22417],[75.7,22501],[75.7,22584],[75.7,22667],[75.7,22751],[75.7,22834],[75.7,22919],[75.7,23003],[75.7,23086],[75.7,23168],[75.7,23252],[75.7,23335],[75.7,23417],[75.7,23500],[75.7,23586],[75.7,23667],[75.7,23753],[75.7,23837],[75.7,23917],[75.7,24002],[75.7,24084],[75.7,24169],[75.7,24252],[75.7,24334],[75.7,24418],[75.7,24501],[75.7,24584],[75.7,24667],[75.7,24751],[75.7,24834],[75.7,24919],[75.7,25001],[75.7,25084],[75.7,25169],[75.7,25253],[75.7,25334],[75.7,25420],[75.7,25503],[75.7,25586],[75.7,25667],[75.7,25751],[75.7,25836],[75.7,25918],[75.7,26001],[75.7,26084],[75.7,26167],[75.7,26253],[75.7,26336],[75.7,26417],[75.7,26501],[75.7,26586],[75.7,26667],[75.7,26751],[75.7,26834],[75.7,26919],[75.7,27001],[75.7,27086],[75.7,27168],[75.7,27251],[75.7,27334],[75.7,27417],[75.7,27502],[75.7,27584],[75.7,27668],[75.7,27751],[75.7,27834],[75.7,27917],[75.7,28001],[75.7,28084],[75.7,28167],[75.7,28251],[75.7,28334],[75.7,28419],[75.7,28501],[75.7,28584],[75.7,28667],[75.7,28751],[75.7,28836],[75.7,28919],[75.7,29001],[75.7,29085],[75.7,29170],[75.7,29251],[75.7,29336],[75.7,29418],[75.7,29501],[75.7,29586],[75.7,29667],[75.7,29751],[75.7,29835],[75.7,29918],[75.7,30001],[75.7,30086],[75.7,30168],[75.7,30252],[75.7,30336],[75.7,30418],[75.7,30503],[75.7,30585],[75.7,30668],[75.7,30751],[75.7,30837],[75.7,30920],[75.7,31001],[75.7,31084],[75.7,31168],[75.7,31251],[75.7,31334],[75.7,31420],[75.7,31503],[75.7,31586],[75.7,31668],[75.7,31751],[75.7,31837],[75.7,31918],[75.7,32001],[75.7,32087],[75.7,32168],[75.7,32252],[75.7,32334],[75.7,32418],[75.7,32503],[75.7,32590],[75.7,32668],[75.7,32751],[75.7,32834],[75.7,32920],[75.7,33001],[75.7,33085],[75.7,33168],[75.7,33251],[75.7,33335],[75.7,33418],[75.7,33503],[75.7,33585],[75.7,33670],[75.7,33751],[75.7,33835],[75.7,33920],[75.7,34003],[75.7,34085],[75.7,34168],[75.7,34252],[75.7,34335],[75.7,34420],[75.7,34501],[75.7,34587],[75.7,34668],[75.7,34752],[75.7,34835],[75.7,34921],[75.7,35003],[75.7,35085],[75.7,35168],[75.7,35252],[75.7,35337],[75.7,35418],[75.7,35501],[75.7,35585],[75.7,35668],[75.7,35752],[75.7,35838],[75.7,35918],[75.7,36003],[75.7,36085],[75.7,36170],[75.7,36254],[75.7,36337],[75.7,36421],[75.7,36504],[75.7,36585],[75.7,36669],[75.7,36754],[75.7,36837],[75.7,36919],[75.7,37004],[75.7,37085],[75.7,37169],[75.7,37252],[75.7,37335],[75.7,37419],[75.7,37502],[75.7,37587],[75.7,37669],[75.7,37752],[75.7,37837],[75.7,37918],[75.7,38004],[75.7,38087],[75.7,38168],[75.7,38253],[75.7,38335],[75.7,38419],[75.7,38504],[75.7,38588],[75.7,38668],[75.7,38754],[75.7,38837],[75.7,38919],[75.7,39004],[75.7,39085],[75.7,39171],[75.7,39252],[75.7,39336],[75.7,39419],[75.7,39502],[75.7,39585],[75.7,39669],[75.7,39752],[75.7,39836],[75.7,39919],[75.7,40002],[75.7,40087],[75.7,40169],[75.7,40253],[75.7,40337],[75.7,40421],[75.7,40504],[75.7,40587],[75.7,40669],[75.7,40754],[75.7,40838],[75.7,40919],[75.7,41002],[75.7,41085],[75.7,41171],[75.7,41254],[75.7,41335],[75.7,41421],[75.7,41502],[75.7,41587],[75.7,41669],[75.7,41752],[75.7,41836],[75.7,41921],[75.7,42002],[75.7,42088],[75.7,42171],[75.7,42252],[75.7,42335],[75.7,42421],[75.7,42504],[75.7,42585],[75.7,42669],[75.7,42752],[75.7,42837],[75.7,42919],[75.7,43002],[75.7,43085],[75.7,43169],[75.7,43255],[75.7,43336],[75.7,43421],[75.7,43502],[75.7,43585],[75.7,43669],[75.7,43754],[75.7,43836],[75.7,43919],[75.7,44005],[75.7,44086],[75.7,44169],[75.7,44252],[75.7,44336],[75.7,44421],[75.7,44502],[75.7,44586],[75.7,44669],[75.7,44755],[75.7,44837],[75.7,44921],[75.7,45003],[75.7,45086],[75.7,45171],[75.7,45252],[75.7,45337],[75.7,45419],[75.7,45503],[75.7,45587],[75.7,45669],[75.7,45752],[75.7,45836],[75.7,45921],[75.7,46002],[75.7,46088],[75.7,46171],[75.7,46252],[75.7,46336],[75.7,46421],[75.7,46505],[75.7,46586],[75.7,46669],[75.7,46755],[75.7,46836],[75.7,46919],[75.7,47005],[75.7,47086],[75.7,47171],[75.7,47253],[75.7,47338],[75.7,47419],[75.7,47503],[75.7,47586],[75.7,47671],[75.7,47753],[75.7,47836],[75.7,47919],[75.7,48002],[75.7,48088],[75.7,48169],[75.7,48254],[75.7,48336],[75.7,48421],[75.7,48503],[75.7,48588],[75.7,48672],[75.7,48753],[75.7,48839],[75.7,48921],[75.7,49004],[75.7,49086],[75.7,49169],[75.7,49253],[75.7,49336],[75.7,49420],[75.7,49503],[75.7,49588],[75.7,49672],[75.7,49753],[75.7,49836],[75.7,49919],[75.7,50003],[75.7,50088],[75.7,50172],[75.7,50253],[75.7,50336],[75.7,50419],[75.7,50503],[75.7,50586],[75.7,50672],[75.7,50755],[75.7,50836],[75.7,50919],[75.7,51003],[75.7,51086],[75.7,51171],[75.7,51255],[75.7,51336],[75.7,51420],[75.7,51504],[75.7,51586],[75.7,51670],[75.7,51753],[75.7,51837],[75.7,51920],[75.7,52003],[75.7,52088],[75.7,52170],[75.7,52253],[75.7,52338],[75.7,52421],[75.7,52503],[75.7,52586],[75.7,52670],[75.7,52753],[75.7,52836],[75.7,52922],[75.7,53003],[75.7,53086],[75.7,53172],[75.7,53253],[75.7,53336],[75.7,53420],[75.7,53503],[75.7,53586],[75.7,53673],[75.7,53754],[75.7,53836],[75.7,53920],[75.7,54005],[75.7,54088],[75.7,54170],[75.7,54253],[75.7,54339],[75.7,54420],[75.7,54505],[75.7,54588],[75.7,54670],[75.7,54753],[75.7,54836],[75.7,54922],[75.7,55003],[75.7,55086],[75.7,55170],[75.7,55253],[75.7,55337],[75.7,55422],[75.7,55507],[75.7,55586],[75.7,55672],[75.7,55753],[75.7,55839]]",1,0,264.6924,270.8005,93.64584287,3.9934,"[{""rating"":93.64584287007649,""responseTime"":3.993399999976191}]",space,5.5785,,270.8005,Not at all,0,270.8083,,,[],,0,1,1,1,1,audio/Narrative7Situation1.wav,audio/Narrative8Situation1.wav,audio/Narrative5Situation1.wav,audio/Narrative6Situation1.wav,2,5,5,2,1.5763,,,,,,,,,,,,,,,,,,,,,,,,,,,,,,,,,,,,,,
,,,,,,663bc31529719b8501c52820,2024-05-13_09h47.29.972,group3.1-3.2-social-tom,2023.2.2,Win32,60.24096386,65c5074098b851296ff0b7ed,6642359042c402beb5a17b68,,,,,,,,,,,,,,,,,,,,,,,,,,,,,270.8086,1,audio/Narrative7Situation2.wav,273.8157,,273.8157,281.2994,"[[999,0],[999,82],[999,166],[999,249],[999,333],[999,416],[999,499],[999,583],[999,668],[999,749],[999,833],[999,916],[999,999],[999,1082],[999,1168],[999,1249],[999,1333],[999,1418],[999,1501],[999,1584],[999,1668],[999,1752],[999,1834],[999,1916],[999,1999],[999,2083],[999,2168],[999,2249],[999,2335],[999,2416],[999,2499],[999,2584],[999,2666],[999,2749],[999,2835],[999,2916],[999,3000],[999,3083],[999,3168],[999,3250],[999,3334],[999,3416],[999,3499],[999,3590],[999,3668],[999,3750],[999,3833],[999,3916],[999,4000],[999,4083],[999,4168],[999,4249],[999,4333],[999,4419],[999,4502],[999,4583],[999,4666],[999,4750],[999,4833],[999,4919],[999,5000],[999,5083],[999,5166],[999,5250],[999,5335],[77.6,5418],[80,5502],[80.2,5585],[80.4,5666],[80.4,5751],[80.4,5833],[80.4,5918],[80.4,6000],[80.4,6085],[80.4,6166],[80.4,6250],[80.4,6335],[80.4,6419],[80.4,6500],[80.4,6583],[80.4,6667],[80.4,6750],[80.4,6833],[80.4,6916],[83,7002],[85.7,7085],[86.7,7169],[87,7252],[87,7333],[87,7416]]",1,0,281.2996,289.5523,92.81250636,6.9159,"[{""rating"":92.81250635782878,""responseTime"":6.915899999976148}]",space,7.7145,,289.5524,All the time,100,289.5561,,,[],,0,2,2,2,1,audio/Narrative7Situation2.wav,audio/Narrative8Situation2.wav,audio/Narrative5Situation2.wav,audio/Narrative6Situation2.wav,3,3,3,3,,,,,,,,,,,,,,,,,,,,,,,,,,,,,,,,,,,,,,,
,,,,,,663bc31529719b8501c52820,2024-05-13_09h47.29.972,group3.1-3.2-social-tom,2023.2.2,Win32,60.24096386,65c5074098b851296ff0b7ed,6642359042c402beb5a17b68,,,,,,,,,,,,,,,,,,,,,,,,,,,,,289.5563,1,audio/Narrative7Situation3.wav,297.5674,,297.5674,306.8537,"[[74.6,1002],[71.3,1086],[69.7,1168],[68.8,1251],[68.4,1336],[68,1416],[67,1502],[66.8,1585],[66.8,1666],[66.8,1750],[66.8,1833],[66.8,1916],[66.8,2000],[66.8,2085],[66.8,2168],[66.8,2250],[66.8,2335],[66.8,2416],[66.8,2500],[66.8,2583],[66.8,2666],[66.8,2752],[66.8,2835],[66.8,2917],[66.8,3000],[66.8,3083],[66.8,3169],[66.8,3250],[66.8,3333],[66.8,3417],[66.8,3501],[66.8,3583],[66.8,3666],[66.8,3750],[66.8,3833],[66.8,3917],[66.8,4000],[66.8,4083],[66.8,4167],[66.8,4252],[66.8,4336],[66.8,4416],[66.8,4500],[66.8,4583],[66.8,4667],[66.8,4750],[66.8,4835],[66.8,4917],[66.8,5000],[66.8,5083],[66.8,5167],[66.8,5252],[66.8,5334],[66.8,5416],[66.8,5500],[66.8,5583],[66.8,5667],[68.2,5752],[70.6,5835],[71.6,5919],[72.2,6003],[73.3,6086],[73.6,6167],[75.7,6252],[82.2,6335],[83.1,6417],[83.1,6502],[83.1,6583],[83.1,6667],[83.1,6750],[83.1,6835],[83.1,6917],[83.1,7000],[83.1,7083],[83.1,7167],[83.1,7250],[83.1,7333],[83.1,7417],[83.1,7502],[83.1,7585],[83.1,7667],[83.1,7750],[83.1,7836],[83.1,7919],[83.1,8000],[83.1,8083],[83.1,8167],[83.1,8250],[83.1,8334],[83.1,8417],[83.1,8500],[83.1,8584],[83.1,8667],[83.1,8752],[83.1,8834],[83.1,8919],[83.1,9000],[83.1,9085],[83.1,9170],[83.1,9250]]",1,0,306.8539,318.8861,91.45833651,9.3568,"[{""rating"":88.85416984558105,""responseTime"":4.166499999999985},{""rating"":92.08334287007649,""responseTime"":8.283500000000004},{""rating"":91.45833651224773,""responseTime"":9.356800000011901}]",space,11.4722,,318.8862,Half the time,50,318.8903,,,[],,0,3,3,3,1,audio/Narrative7Situation3.wav,audio/Narrative8Situation3.wav,audio/Narrative5Situation3.wav,audio/Narrative6Situation3.wav,8,4,3,5,,,,,,,,,,,,,,,,,,,,,,,,,,,,,,,,,,,,,,,
,,,,,,663bc31529719b8501c52820,2024-05-13_09h47.29.972,group3.1-3.2-social-tom,2023.2.2,Win32,60.24096386,65c5074098b851296ff0b7ed,6642359042c402beb5a17b68,,,,,,,,,,,,,,,,,,,,,,,,,,,,,318.8906,1,audio/Narrative7Situation4.wav,321.9029,,321.903,333.6233,"[[999,8],[999,83],[999,166],[999,249],[999,335],[999,416],[999,502],[999,583],[77.6,667]]",1,0,333.6234,342.0405,55.20833333,2.3864,"[{""rating"":55.208333333333336,""responseTime"":2.386399999976163}]",space,7.8809,,342.0405,All the time,100,342.0513,,,[],,0,4,4,4,1,audio/Narrative7Situation4.wav,audio/Narrative8Situation4.wav,audio/Narrative5Situation4.wav,audio/Narrative6Situation4.wav,3,3,1,2,,,,,,,,,,,,,,,,,,,,,,,,,,,,,,,,,,,,,,,
,,,,,,663bc31529719b8501c52820,2024-05-13_09h47.29.972,group3.1-3.2-social-tom,2023.2.2,Win32,60.24096386,65c5074098b851296ff0b7ed,6642359042c402beb5a17b68,,,,,,,,,,,,,,,,,,,,,,,,,,,,,342.0514,1,audio/Narrative7Situation5.wav,347.0576,,347.0576,355.5577,"[[999,7],[999,80],[999,163],[999,247],[999,330],[999,414],[999,499],[999,584],[999,663],[999,747],[999,830],[999,916],[999,1000],[999,1082],[999,1164],[999,1249],[999,1333],[999,1417],[999,1499],[999,1582],[999,1667],[999,1749],[999,1831],[999,1914],[999,1997],[999,2083],[999,2164],[999,2247],[999,2330],[999,2414],[999,2497],[999,2580],[999,2664],[999,2749],[999,2830],[999,2916],[999,2999],[999,3081],[999,3164],[999,3249],[999,3332],[999,3414],[999,3497],[999,3583],[999,3664],[999,3749],[999,3833],[999,3914],[999,3997],[999,4081],[999,4164],[999,4247],[999,4331],[999,4414],[999,4497],[999,4581],[999,4664],[999,4747],[999,4831],[999,4914],[999,4997],[999,5081],[999,5164],[999,5247],[999,5331],[999,5414],[999,5497],[999,5583],[999,5666],[65.2,5750],[63.2,5833],[62.9,5914],[62.9,5997],[62.9,6081],[62.9,6164],[62.9,6249],[62.9,6331],[62.9,6414],[62.9,6497],[62.9,6581],[62.9,6667],[62.9,6750],[62.9,6831],[62.9,6914],[62.9,6999],[62.9,7081],[62.9,7166],[62.9,7249],[62.9,7331],[62.9,7414],[62.9,7498],[62.9,7581],[62.9,7666],[62.9,7747],[62.9,7831],[62.9,7914],[62.9,7997],[62.9,8081],[62.9,8164],[62.9,8248],[62.9,8333],[62.9,8416],[62.9,8499]]",1,0,355.5578,362.123,89.4791762,5.5061,"[{""rating"":83.02083810170491,""responseTime"":2.5556999999880645},{""rating"":85.31250953674316,""responseTime"":3.9223000000118873},{""rating"":87.18749682108562,""responseTime"":4.949999999999989},{""rating"":89.47917620340984,""responseTime"":5.506099999964192}]",space,6.0092,,362.1231,Half the time,50,362.1262,,,[],,0,5,5,5,1,audio/Narrative7Situation5.wav,audio/Narrative8Situation5.wav,audio/Narrative5Situation5.wav,audio/Narrative6Situation5.wav,5,2,5,2,,,,,,,,,,,,,,,,,,,,,,,,,,,,,,,,,,,,,,,
,,,,,,663bc31529719b8501c52820,2024-05-13_09h47.29.972,group3.1-3.2-social-tom,2023.2.2,Win32,60.24096386,65c5074098b851296ff0b7ed,6642359042c402beb5a17b68,,,,,,,,,,,,,,,,,,,,,,,,,,,,,362.1264,1,audio/Narrative7Situation6.wav,365.1401,,365.1401,375.1242,"[[999,0],[999,85],[999,168],[999,249],[999,333],[999,416],[999,499],[999,583],[999,666],[999,751],[999,833],[999,916],[999,1001],[999,1085],[999,1168],[999,1251],[999,1335],[999,1418],[999,1499],[999,1584],[999,1666],[999,1750],[999,1833],[999,1916],[999,2003],[999,2083],[999,2166],[999,2252],[999,2332],[999,2416],[999,2500],[999,2583],[999,2668],[999,2749],[999,2835],[999,2916],[999,2999],[999,3083],[999,3166],[999,3250],[999,3335],[999,3416],[999,3500],[999,3583],[999,3669],[999,3750],[999,3833],[999,3918],[999,4000],[999,4083],[999,4166],[999,4252],[999,4333],[999,4416],[999,4500],[999,4584],[999,4666],[999,4750],[999,4833],[999,4916],[999,5000],[999,5083],[999,5166],[999,5250],[999,5333],[999,5416],[999,5500],[999,5585],[999,5668],[999,5752],[999,5833],[999,5917],[999,6002],[999,6083],[999,6166],[999,6250],[999,6333],[999,6417],[999,6500],[999,6583],[999,6669],[999,6750],[999,6835],[999,6917],[999,7000],[999,7085],[999,7166],[999,7250],[999,7333],[999,7417],[999,7500],[999,7585],[999,7668],[999,7752],[999,7833],[999,7916],[999,8000],[999,8085],[999,8167],[999,8250],[999,8333],[999,8416],[999,8500],[999,8583],[999,8669],[999,8750],[999,8834],[999,8917],[999,9000],[999,9084],[999,9167],[999,9250],[999,9334],[999,9417],[999,9500],[999,9583],[999,9667],[999,9750],[999,9833],[999,9917]]",1,0,375.1243,381.5084,99.47916667,3.56,"[{""rating"":99.47916666666667,""responseTime"":3.5600000000000023}]",space,5.8575,,381.5085,Not at all,0,395.2284,0,7.8924,"[{""rating"":0.10416905085245953,""responseTime"":6.787600000023872},{""rating"":0,""responseTime"":7.892399999976135}]",space,0,6,6,6,1,audio/Narrative7Situation6.wav,audio/Narrative8Situation6.wav,audio/Narrative5Situation6.wav,audio/Narrative6Situation6.wav,3,2,3,2,,,13.1822,,,,,,,,,,,,,,,,,,,,,,,,,,,,,,,,,,,,
,,,,,,663bc31529719b8501c52820,2024-05-13_09h47.29.972,group3.1-3.2-social-tom,2023.2.2,Win32,60.24096386,65c5074098b851296ff0b7ed,6642359042c402beb5a17b68,,,,,,,,,,,,,,,,,,,,,,,,,,,,,395.2367,1,audio/Narrative7Situation7.wav,400.243,,400.2431,417.4283,"[[999,8],[999,83],[999,168],[999,249],[999,333],[999,416],[999,502],[999,583],[999,666],[999,749],[999,833],[999,916],[999,999],[999,1083],[999,1169],[999,1252],[999,1339],[999,1416],[999,1500],[999,1583],[999,1666],[999,1750],[999,1833],[999,1919],[999,2002],[999,2083],[999,2167],[999,2249],[999,2333],[999,2418],[999,2499],[999,2583],[999,2666],[999,2749],[999,2835],[999,2916],[999,2999],[999,3085],[999,3166],[999,3252],[999,3333],[999,3416],[999,3500],[999,3583],[999,3668],[999,3750],[999,3833],[999,3917],[999,4000],[999,4085],[999,4166],[999,4250],[999,4335],[999,4417],[999,4500],[999,4585],[999,4667],[999,4750],[999,4835],[999,4916],[999,5000],[999,5083],[999,5166],[999,5252],[999,5333],[999,5417],[999,5500],[999,5583],[999,5667],[999,5750],[999,5835],[999,5917],[999,6000],[999,6083],[999,6167],[999,6250],[999,6333],[999,6417],[999,6500],[999,6584],[999,6666],[999,6750],[999,6835],[999,6917],[999,7000],[999,7084],[999,7167],[999,7253],[999,7333],[999,7417],[999,7500],[999,7583],[999,7667],[999,7750],[999,7833],[999,7917],[999,8000],[999,8083],[999,8170],[999,8252],[999,8333],[999,8417],[999,8500],[999,8583],[999,8667],[999,8752],[999,8836],[999,8917],[999,9000],[999,9083],[999,9167],[999,9250],[999,9333],[999,9417],[999,9500],[999,9583],[999,9667],[999,9750],[999,9833],[999,9919],[999,10000],[999,10083],[999,10169],[999,10250],[999,10336],[999,10417],[999,10500],[999,10584],[999,10667],[999,10750],[999,10833],[999,10917],[999,11002],[999,11084],[999,11167],[999,11252],[999,11334],[999,11417],[999,11502],[999,11586],[999,11669],[999,11752],[999,11836],[999,11917],[999,12001],[999,12086],[999,12169],[999,12250],[999,12334],[999,12417],[999,12500],[999,12584],[999,12669],[999,12753],[999,12836],[77,12929],[79.1,13003],[79.4,13084],[80.2,13170],[80.6,13251],[81.3,13336],[81.3,13419],[81.3,13502],[81.3,13584],[81.3,13667],[81.3,13752],[81.3,13834],[81.3,13917],[81.3,14001],[81.3,14085],[81.3,14169],[81.3,14251],[81.3,14334],[81.3,14417],[81.3,14502],[81.3,14584],[81.3,14667],[81.3,14750],[81.3,14834],[81.3,14917],[81.3,15002],[81.3,15084],[81.3,15167],[81.3,15251],[81.3,15334],[81.3,15419],[81.3,15502],[81.3,15584],[81.3,15667],[81.3,15751],[81.3,15834],[81.3,15917],[81.3,16001],[81.3,16084],[81.3,16167],[81.3,16251],[81.3,16334],[81.3,16418],[81.3,16501],[81.3,16586],[81.3,16667],[81.3,16752],[81.3,16835],[81.3,16917],[81.3,17003],[81.3,17084],[81.3,17168]]",1,0,417.4286,424.0467,96.77084287,5.6461,"[{""rating"":98.75000317891438,""responseTime"":3.8829999999999814},{""rating"":96.77084287007649,""responseTime"":5.646099999964235}]",space,6.0842,,424.0467,Half the time,50,424.0497,,,[],,0,7,7,7,1,audio/Narrative7Situation7.wav,audio/Narrative8Situation7.wav,audio/Narrative5Situation7.wav,audio/Narrative6Situation7.wav,5,3,4,5,,,,,,,,,,,,,,,,,,,,,,,,,,,,,,,,,,,,,,,
,,,,,,663bc31529719b8501c52820,2024-05-13_09h47.29.972,group3.1-3.2-social-tom,2023.2.2,Win32,60.24096386,65c5074098b851296ff0b7ed,6642359042c402beb5a17b68,,,,,,,,,,,,,,,,,,,,,,,,,,,,,424.0498,1,audio/Narrative7Situation8.wav,426.0619,,426.0619,436.0974,"[[999,0],[999,84],[999,166],[999,249],[999,335],[999,416],[999,499],[999,583],[999,666],[999,749],[999,833],[999,916],[999,1000],[999,1083],[999,1166],[999,1252],[999,1333],[999,1416],[999,1500],[999,1583],[999,1668],[999,1752],[999,1835],[999,1918],[999,2000],[999,2085],[999,2166],[999,2250],[999,2336],[999,2416],[999,2500],[999,2585],[81.4,2669],[83.1,2752],[83.5,2833],[83.5,2916],[83.5,3000],[83.5,3083],[83.5,3166],[83.5,3250],[83.5,3333],[83.5,3416],[83.5,3500],[83.5,3583],[83.5,3667],[83.5,3750],[83.5,3833],[83.5,3916],[83.5,4000],[83.5,4083],[83.5,4168],[83.5,4250],[83.5,4333],[83.5,4423],[83.5,4500],[83.5,4584],[83.5,4666],[83.5,4750],[83.5,4833],[83.5,4916],[83.5,5000],[83.5,5083],[83.5,5166],[83.5,5250],[83.5,5333],[83.5,5416],[83.5,5500],[83.5,5585],[83.5,5666],[83.5,5750],[83.5,5833],[83.5,5917],[83.5,6002],[83.5,6083],[83.5,6169],[83.5,6250],[83.5,6333],[83.5,6417],[83.5,6502],[83.5,6585],[83.5,6668],[83.5,6750],[83.5,6833],[83.5,6919],[83.5,7002],[83.5,7084],[83.5,7167],[83.5,7250],[83.5,7334],[83.5,7417],[83.5,7502],[83.5,7583],[83.5,7667],[83.5,7750],[83.5,7834],[83.5,7918],[83.5,8000],[83.5,8084],[83.5,8167],[83.5,8250],[82.2,8344],[81.3,8420],[79.5,8502],[78.7,8585],[78.7,8669],[78.7,8750],[78.7,8833],[78.9,8919],[79.4,9002],[80.1,9086],[80.9,9170],[81.8,9253],[81.8,9335],[81.8,9417],[81.8,9500],[81.8,9584],[81.8,9669],[81.8,9750],[81.8,9834],[81.8,9917],[81.8,10000]]",1,0,436.0975,440.2796,83.85416667,3.5274,"[{""rating"":83.85416666666667,""responseTime"":3.5273999999761827}]",space,3.6481,,440.2797,All the time,100,440.2832,,,[],,0,8,8,8,1,audio/Narrative7Situation8.wav,audio/Narrative8Situation8.wav,audio/Narrative5Situation8.wav,audio/Narrative6Situation8.wav,2,3,3,5,,,,,,,,,,,,,,,,,,,,,,,,,,,,,,,,,,,,,,,
,,,,,,663bc31529719b8501c52820,2024-05-13_09h47.29.972,group3.1-3.2-social-tom,2023.2.2,Win32,60.24096386,65c5074098b851296ff0b7ed,6642359042c402beb5a17b68,,,,,,,,,,,,,,,,,,,,,,,,,,,,,440.2834,1,audio/Narrative7Situation9.wav,442.2966,,442.2966,450.9306,"[[999,0],[999,85],[999,168],[999,251],[999,333],[999,418],[999,500],[999,583],[999,666],[999,750],[999,833],[999,916],[999,1000],[61.4,1085],[79,2084],[79,2168],[78.9,2251],[78.9,2333],[78.9,2416],[79,2502],[79.1,2583],[79.3,2666],[79.3,2750],[79.3,2833],[79.3,2916],[79.3,3000],[79.3,3085],[79.3,3166],[79.3,3250],[79.3,3333],[79.3,3416],[79.3,3504],[79.3,3583],[79.3,3666],[79.3,3750],[79.3,3833],[79.3,3916],[79.3,4000],[79.3,4085],[79.3,4169],[79.3,4252],[79.3,4333],[79.3,4416],[79.3,4500],[79.3,4583],[79.3,4666],[79.3,4750],[79.3,4833],[79.3,4916],[79.3,5002],[79.3,5083],[79.3,5166],[79.3,5252],[79.3,5333],[79.3,5417],[79.3,5500],[79.3,5583],[79.3,5668],[79.3,5752],[79.3,5833],[79.3,5917],[79.3,6000],[79.3,6083],[79.3,6166],[79.3,6250],[79.3,6334],[79.3,6419],[79.3,6501],[79.3,6585],[79.3,6666],[79.3,6750],[79.3,6833],[79.3,6916],[79.3,7002],[79.3,7083],[79.3,7167],[79.3,7253],[79.3,7333],[83.2,7419],[88.6,7503],[90.2,7586],[93.6,7668],[98.9,7753],[99.7,7833],[99.7,7917],[99.8,8002],[99.8,8083],[99.7,8167],[99.6,8250],[99.5,8335],[99.5,8417],[99.4,8500],[99.4,8584]]",1,0,450.9308,467.334,49.16667144,13.5215,"[{""rating"":99.58333969116211,""responseTime"":2.7130999999642427},{""rating"":57.291666666666664,""responseTime"":8.543000000000006},{""rating"":62.291669845581055,""responseTime"":9.591300000011927},{""rating"":54.58333492279053,""responseTime"":10.585499999999968},{""rating"":49.16667143503825,""responseTime"":13.521500000000003}]",space,15.8517,,467.3341,Half the time,50,467.337,,,[],,0,9,9,9,1,audio/Narrative7Situation9.wav,audio/Narrative8Situation9.wav,audio/Narrative5Situation9.wav,audio/Narrative6Situation9.wav,2,3,3,4,,,,,,,,,,,,,,,,,,,,,,,,,,,,,,,,,,,,,,,
,,,,,,663bc31529719b8501c52820,2024-05-13_09h47.29.972,group3.1-3.2-social-tom,2023.2.2,Win32,60.24096386,65c5074098b851296ff0b7ed,6642359042c402beb5a17b68,,,,,,,,,,,,,,,,,,,,,,,,,,,,,467.3372,1,audio/Narrative8Situation1.wav,472.3509,,472.351,488.2866,"[[999,6],[999,83],[999,166],[999,250],[999,331],[999,415],[999,500],[999,583],[999,666],[999,750],[999,833],[999,916],[999,998],[999,1083],[999,1164],[999,1248],[999,1331],[999,1414],[999,1498],[999,1581],[999,1664],[999,1747],[999,1831],[999,1916],[999,1998],[999,2083],[999,2165],[999,2248],[999,2331],[999,2416],[999,2498],[999,2581],[999,2665],[999,2750],[999,2831],[999,2915],[999,3000],[999,3081],[999,3164],[999,3248],[999,3331],[999,3414],[999,3498],[999,3583],[999,3664],[999,3748],[999,3831],[999,3915],[999,4000],[999,4083],[999,4164],[999,4248],[999,4331],[999,4414],[999,4500],[999,4581],[999,4665],[999,4748],[999,4831],[999,4917],[999,4998],[999,5081],[999,5165],[999,5248],[999,5334],[999,5415],[999,5498],[999,5582],[999,5665],[999,5748],[999,5831],[999,5917],[999,5998],[999,6081],[999,6166],[999,6248],[999,6331],[999,6415],[999,6500],[999,6581],[999,6665],[999,6748],[999,6831],[999,6915],[999,6998],[999,7081],[999,7165],[999,7248],[999,7333],[999,7415],[999,7498],[999,7584],[999,7665],[999,7748],[999,7833],[999,7915],[999,7998],[999,8083],[999,8167],[999,8249],[999,8332],[999,8415],[999,8500],[999,8583],[999,8665],[999,8748],[999,8833],[999,8917],[999,9001],[999,9082],[999,9168],[999,9249],[999,9332],[999,9415],[999,9498],[999,9582],[999,9666],[999,9749],[999,9832],[999,9915],[999,9998],[999,10082],[999,10165],[999,10248],[999,10332],[999,10415],[999,10499],[999,10582],[999,10665],[999,10749],[999,10832],[999,10916],[999,10999],[999,11082],[999,11165],[999,11249],[999,11332],[999,11415],[999,11499],[999,11584],[999,11667],[999,11749],[999,11832],[999,11915],[999,11999],[999,12082],[999,12167],[999,12249],[999,12334],[999,12416],[999,12499],[999,12584],[999,12667],[999,12751],[999,12832],[999,12917],[999,12999],[999,13084],[999,13166],[999,13251],[999,13332],[999,13417],[999,13501],[999,13582],[999,13665],[999,13749],[999,13834],[999,13916],[999,13999],[999,14082],[999,14166],[999,14251],[999,14332],[999,14415],[999,14501],[999,14585],[999,14665],[999,14749],[999,14832],[999,14916],[999,14999],[999,15082],[999,15168],[999,15249],[999,15334],[999,15418],[999,15500],[999,15584],[999,15668],[999,15751],[51.4,15835],[49.8,15917]]",1,0,488.2867,492.4365,40.20833174,2.3654,"[{""rating"":40.208331743876144,""responseTime"":2.365399999976148}]",space,3.6047,,492.4365,Half the time,50,492.438,,,[],,0,10,10,10,1,audio/Narrative8Situation1.wav,audio/Narrative7Situation1.wav,audio/Narrative6Situation1.wav,audio/Narrative5Situation1.wav,5,2,2,5,,,,,,,,,,,,,,,,,,,,,,,,,,,,,,,,,,,,,,,
,,,,,,663bc31529719b8501c52820,2024-05-13_09h47.29.972,group3.1-3.2-social-tom,2023.2.2,Win32,60.24096386,65c5074098b851296ff0b7ed,6642359042c402beb5a17b68,,,,,,,,,,,,,,,,,,,,,,,,,,,,,492.4382,1,audio/Narrative8Situation2.wav,495.4511,,495.4511,505.5688,"[[999,0],[999,83],[999,168],[999,250],[999,333],[999,416],[999,500],[999,583],[999,666],[999,752],[999,833],[999,916],[999,1000],[999,1086],[999,1169],[999,1252],[999,1335],[999,1418],[999,1500],[999,1583],[999,1666],[999,1750],[999,1835],[999,1917],[999,2002],[999,2083],[999,2168],[999,2252],[999,2334],[999,2416],[999,2500],[999,2585],[999,2669],[999,2751],[999,2835],[999,2917],[999,3000],[999,3085],[999,3166],[999,3252],[999,3333],[999,3419],[999,3500],[999,3583],[999,3668],[999,3750],[999,3833],[999,3919],[999,4000],[999,4085],[999,4167],[999,4252],[999,4335],[999,4416],[999,4500],[999,4585],[999,4669],[999,4751],[999,4833],[999,4916],[999,5000],[999,5083],[999,5169],[999,5252],[999,5333],[999,5418],[999,5500],[999,5583],[999,5666],[999,5750],[999,5835],[999,5919],[999,6003],[999,6085],[999,6169],[999,6252],[999,6336],[999,6417],[999,6500],[999,6583],[999,6667],[999,6752],[999,6834],[999,6917],[999,7002],[999,7083],[999,7167],[999,7250],[999,7334],[999,7420],[999,7502],[999,7583],[999,7669],[999,7750],[999,7833],[999,7919],[999,8000],[999,8085],[999,8167],[999,8252],[999,8336],[999,8417],[999,8502],[999,8584],[999,8669],[999,8750],[999,8833],[999,8917],[999,9002],[999,9086],[999,9169],[84.3,9253],[84.9,9335],[84.5,9417],[84.5,9500],[84.5,9586],[84.5,9669],[84.5,9750],[86.4,9835],[87.9,9920],[88,10001],[88,10084]]",1,0,505.5689,508.2207,91.25000636,1.6702,"[{""rating"":91.25000635782878,""responseTime"":1.6701999999880854}]",space,2.1158,,508.2208,Half the time,50,508.2228,,,[],,0,11,11,11,1,audio/Narrative8Situation2.wav,audio/Narrative7Situation2.wav,audio/Narrative6Situation2.wav,audio/Narrative5Situation2.wav,3,3,3,3,,,,,,,,,,,,,,,,,,,,,,,,,,,,,,,,,,,,,,,
,,,,,,663bc31529719b8501c52820,2024-05-13_09h47.29.972,group3.1-3.2-social-tom,2023.2.2,Win32,60.24096386,65c5074098b851296ff0b7ed,6642359042c402beb5a17b68,,,,,,,,,,,,,,,,,,,,,,,,,,,,,508.2232,1,audio/Narrative8Situation3.wav,512.236,,512.2361,534.6217,"[[999,6],[999,85],[999,168],[999,249],[999,333],[999,418],[999,501],[999,584],[999,668],[999,751],[999,835],[999,916],[999,999],[999,1083],[999,1168],[999,1250],[999,1335],[999,1416],[999,1500],[999,1583],[999,1667],[999,1750],[999,1833],[999,1919],[999,1999],[999,2083],[999,2166],[999,2251],[999,2333],[999,2416],[999,2500],[999,2583],[999,2666],[999,2750],[999,2833],[999,2916],[999,3000],[999,3083],[999,3166],[999,3253],[999,3333],[999,3416],[999,3500],[999,3583],[999,3666],[999,3750],[999,3835],[999,3917],[999,4000],[999,4083],[999,4167],[999,4250],[999,4333],[999,4416],[999,4500],[999,4583],[999,4666],[999,4750],[999,4833],[999,4917],[999,5002],[999,5083],[999,5166],[999,5250],[999,5333],[999,5416],[999,5500],[999,5586],[999,5666],[999,5750],[999,5833],[999,5919],[999,6000],[999,6083],[999,6168],[999,6252],[999,6333],[999,6416],[999,6500],[999,6585],[999,6668],[999,6750],[999,6833],[999,6916],[999,7001],[999,7083],[999,7167],[999,7252],[999,7333],[999,7416],[999,7502],[999,7583],[999,7669],[999,7752],[999,7833],[999,7917],[999,8000],[999,8084],[999,8169],[999,8250],[999,8333],[999,8417],[999,8500],[999,8583],[999,8666],[999,8750],[999,8833],[999,8918],[999,9000],[999,9083],[999,9167],[999,9250],[999,9333],[999,9417],[999,9503],[999,9583],[999,9667],[999,9750],[999,9834],[999,9918],[999,10000],[999,10083],[999,10167],[999,10252],[999,10334],[999,10417],[999,10500],[999,10584],[999,10667],[999,10750],[999,10836],[999,10917],[999,11002],[999,11086],[999,11167],[999,11252],[999,11335],[999,11417],[999,11503],[999,11583],[999,11667],[999,11750],[999,11836],[999,11917],[999,12000],[999,12085],[999,12169],[999,12252],[999,12333],[999,12417],[999,12501],[999,12584],[999,12667],[999,12750],[999,12834],[999,12917],[999,13000],[999,13083],[999,13167],[999,13250],[999,13334],[999,13417],[999,13501],[999,13584],[999,13667],[999,13750],[999,13834],[999,13920],[999,14000],[999,14084],[999,14168],[999,14250],[999,14334],[999,14418],[999,14502],[999,14584],[999,14667],[999,14750],[999,14834],[999,14917],[999,15001],[999,15084],[999,15167],[999,15254],[999,15336],[999,15417],[999,15502],[999,15586],[999,15670],[999,15753],[999,15836],[999,15917],[999,16001],[999,16086],[999,16169],[999,16252],[999,16336],[999,16419],[999,16504],[999,16586],[999,16669],[999,16753],[999,16834],[999,16920],[999,17000],[999,17084],[999,17167],[999,17251],[999,17334],[999,17417],[999,17503],[999,17586],[999,17667],[999,17752],[999,17834],[999,17920],[999,18001],[999,18084],[999,18168],[999,18254],[999,18334],[999,18420],[999,18501],[999,18584],[999,18668],[999,18751],[999,18837],[999,18920],[999,19001],[999,19085],[999,19168],[999,19251],[999,19334],[999,19418],[999,19501],[999,19584],[999,19668],[999,19751],[999,19836],[999,19919],[999,20001],[999,20085],[999,20168],[999,20251],[999,20334],[999,20419],[999,20501],[999,20584],[999,20668],[999,20753],[999,20834],[999,20918],[999,21003],[999,21085],[999,21168],[999,21251],[999,21334],[999,21419],[999,21501],[999,21587],[999,21670],[999,21754],[56.7,21838],[56.5,21920],[56.1,22003],[56.1,22084],[56.1,22168],[56.6,22254],[57,22336]]",1,0,534.622,543.6722,56.04166985,2.6536,"[{""rating"":56.041669845581055,""responseTime"":2.6535999999641717}]",space,8.5044,,543.6722,Half the time,50,543.6821,,,[],,0,12,12,12,1,audio/Narrative8Situation3.wav,audio/Narrative7Situation3.wav,audio/Narrative6Situation3.wav,audio/Narrative5Situation3.wav,4,8,5,3,,,,,,,,,,,,,,,,,,,,,,,,,,,,,,,,,,,,,,,
,,,,,,663bc31529719b8501c52820,2024-05-13_09h47.29.972,group3.1-3.2-social-tom,2023.2.2,Win32,60.24096386,65c5074098b851296ff0b7ed,6642359042c402beb5a17b68,,,,,,,,,,,,,,,,,,,,,,,,,,,,,543.6823,1,audio/Narrative8Situation4.wav,546.691,,546.691,560.8757,"[[999,8],[999,81],[999,164],[999,247],[999,331],[999,414],[999,497],[999,581],[999,664],[999,750],[999,831],[999,916],[999,998],[999,1081],[999,1164],[999,1248],[999,1333],[999,1416],[999,1497],[999,1581],[999,1665],[999,1748],[999,1831],[999,1914],[999,1999],[999,2081],[999,2164],[999,2248],[999,2331],[999,2414],[999,2499],[999,2581],[999,2664],[999,2750],[999,2831],[999,2914],[999,2998],[999,3081],[999,3164],[999,3248],[999,3331],[999,3415],[999,3500],[999,3583],[999,3666],[999,3748],[999,3831],[999,3916],[999,3998],[999,4081],[999,4164],[999,4248],[999,4331],[999,4415],[999,4500],[999,4584],[999,4666],[999,4748],[999,4831],[999,4915],[999,4998],[999,5083],[999,5165],[999,5248],[999,5331],[999,5414],[999,5498],[999,5583],[999,5665],[999,5748],[999,5834],[999,5915],[999,5998],[999,6082],[999,6165],[999,6248],[999,6331],[999,6417],[999,6498],[999,6582],[999,6667],[999,6751],[999,6831],[999,6916],[999,7001],[999,7081],[999,7165],[999,7251],[999,7331],[999,7415],[999,7498],[999,7581],[999,7667],[999,7748],[999,7831],[999,7917],[999,7998],[999,8081],[999,8165],[999,8248],[999,8333],[999,8415],[999,8498],[999,8581],[999,8665],[999,8748],[999,8832],[999,8915],[999,9000],[999,9082],[999,9165],[999,9248],[999,9333],[999,9415],[999,9498],[999,9582],[999,9667],[999,9748],[999,9833],[999,9915],[999,9998],[999,10082],[999,10165],[999,10248],[999,10332],[999,10415],[999,10498],[999,10582],[999,10665],[999,10749],[999,10832],[999,10915],[999,10999],[999,11082],[999,11165],[999,11249],[999,11331],[999,11417],[999,11498],[999,11584],[999,11667],[999,11751],[999,11832],[999,11915],[999,12001],[999,12084],[999,12167],[999,12248],[999,12334],[999,12415],[999,12501],[999,12582],[999,12665],[999,12749],[999,12832],[999,12918],[999,13000],[999,13082],[999,13165],[999,13251],[999,13332],[999,13415],[999,13499],[999,13584],[999,13667],[78.2,13756],[80.4,13834],[81.7,13918],[88.2,14001],[90.5,14084],[90,14167]]",1,0,560.8759,563.9597,94.37500636,1.4103,"[{""rating"":94.37500635782878,""responseTime"":1.4103000000119437}]",space,2.5246,,563.9598,All the time,100,563.963,,,[],,0,13,13,13,1,audio/Narrative8Situation4.wav,audio/Narrative7Situation4.wav,audio/Narrative6Situation4.wav,audio/Narrative5Situation4.wav,3,3,2,1,,,,,,,,,,,,,,,,,,,,,,,,,,,,,,,,,,,,,,,
,,,,,,663bc31529719b8501c52820,2024-05-13_09h47.29.972,group3.1-3.2-social-tom,2023.2.2,Win32,60.24096386,65c5074098b851296ff0b7ed,6642359042c402beb5a17b68,,,,,,,,,,,,,,,,,,,,,,,,,,,,,563.9632,1,audio/Narrative8Situation5.wav,565.9762,,565.9763,574.2269,"[[999,0],[999,80],[999,164],[999,247],[999,330],[999,414],[999,497],[999,580],[999,666],[999,747],[999,831],[999,916],[999,997],[999,1081],[999,1165],[999,1249],[999,1331],[999,1414],[999,1497],[999,1583],[999,1666],[999,1747],[999,1831],[999,1914],[999,1997],[999,2081],[999,2164],[999,2249],[999,2331],[999,2416],[999,2500],[999,2581],[999,2664],[999,2747],[999,2830],[999,2916],[999,2999],[999,3081],[999,3164],[999,3247],[999,3331],[999,3414],[999,3497],[999,3581],[999,3666],[999,3747],[999,3831],[999,3914],[999,3998],[999,4082],[999,4164],[999,4248],[999,4331],[999,4414],[999,4498],[999,4581],[999,4668],[999,4748],[999,4831],[999,4914],[999,4997],[999,5081],[999,5165],[999,5248],[999,5333],[999,5414],[999,5497],[999,5581],[999,5664],[999,5748],[999,5835],[999,5914],[999,5998],[999,6081],[999,6165],[999,6248],[999,6331],[999,6416],[999,6498],[999,6581],[999,6665],[999,6748],[999,6831],[999,6914],[999,6998],[999,7081],[999,7167],[999,7248],[999,7333],[999,7418],[999,7498],[999,7584],[999,7667],[999,7748],[999,7831],[999,7917],[999,8000],[999,8081],[999,8166],[999,8250]]",1,0,574.227,576.9262,99.68749682,1.9683,"[{""rating"":99.68749682108562,""responseTime"":1.9682999999522508}]",space,2.1503,,576.9263,Half the time,50,576.9286,,,[],,0,14,14,14,1,audio/Narrative8Situation5.wav,audio/Narrative7Situation5.wav,audio/Narrative6Situation5.wav,audio/Narrative5Situation5.wav,2,5,2,5,,,,,,,,,,,,,,,,,,,,,,,,,,,,,,,,,,,,,,,
,,,,,,663bc31529719b8501c52820,2024-05-13_09h47.29.972,group3.1-3.2-social-tom,2023.2.2,Win32,60.24096386,65c5074098b851296ff0b7ed,6642359042c402beb5a17b68,,,,,,,,,,,,,,,,,,,,,,,,,,,,,576.9288,1,audio/Narrative8Situation6.wav,578.9416,,578.9416,585.4273,"[[999,0],[999,85],[999,168],[999,252],[999,333],[999,418],[999,501],[999,583],[999,669],[999,752],[999,833],[999,918],[999,1000],[999,1085],[999,1169],[999,1250],[999,1335],[999,1416],[999,1500],[999,1585],[999,1667],[999,1752],[999,1833],[999,1918],[999,2000],[999,2083],[999,2166],[999,2251],[999,2333],[999,2417],[999,2500],[999,2586],[999,2666],[999,2750],[999,2833],[999,2916],[999,3000],[999,3083],[999,3166],[999,3250],[999,3333],[999,3416],[999,3501],[999,3583],[999,3667],[999,3750],[999,3835],[999,3920],[999,4002],[999,4085],[999,4167],[999,4250],[999,4335],[999,4416],[999,4500],[999,4583],[999,4666],[999,4750],[999,4833],[999,4916],[999,5000],[999,5083],[999,5168],[999,5252],[999,5333],[999,5417],[999,5500],[999,5583],[999,5668],[999,5750],[999,5835],[999,5919],[999,6003],[999,6085],[999,6168],[999,6250],[999,6334],[999,6417]]",1,0,585.4275,591.0929,25.83333651,3.8199,"[{""rating"":25.83333651224772,""responseTime"":3.819899999976087}]",space,5.1163,,591.0931,Not at all,0,591.0966,,,[],,0,15,15,15,1,audio/Narrative8Situation6.wav,audio/Narrative7Situation6.wav,audio/Narrative6Situation6.wav,audio/Narrative5Situation6.wav,2,3,2,3,,,,,,,,,,,,,,,,,,,,,,,,,,,,,,,,,,,,,,,
,,,,,,663bc31529719b8501c52820,2024-05-13_09h47.29.972,group3.1-3.2-social-tom,2023.2.2,Win32,60.24096386,65c5074098b851296ff0b7ed,6642359042c402beb5a17b68,,,,,,,,,,,,,,,,,,,,,,,,,,,,,591.0968,1,audio/Narrative8Situation7.wav,594.1096,,594.1096,606.1964,"[[999,0],[999,83],[999,166],[999,250],[999,333],[999,418],[999,500],[999,585],[999,667],[999,751],[999,833],[999,917],[999,1000],[999,1083],[999,1166],[999,1250],[999,1333],[999,1418],[999,1500],[999,1583],[999,1668],[999,1750],[999,1833],[999,1919],[999,2000],[999,2085],[999,2166],[999,2250],[999,2335],[999,2416],[999,2502],[999,2583],[999,2668],[999,2750],[999,2833],[999,2917],[999,3002],[999,3083],[999,3169],[999,3250],[999,3336],[999,3417],[999,3500],[999,3584],[999,3667],[999,3750],[999,3833],[999,3919],[999,4000],[999,4084],[999,4167],[999,4253],[999,4335],[999,4419],[999,4500],[999,4584],[999,4667],[999,4750],[999,4833],[999,4916],[999,5000],[999,5086],[999,5166],[999,5250],[999,5335],[999,5416],[999,5502],[999,5583],[999,5669],[999,5752],[999,5833],[999,5917],[999,6000],[999,6084],[999,6169],[999,6250],[999,6336],[999,6417],[999,6500],[999,6583],[999,6667],[999,6753],[999,6833],[999,6917],[999,7003],[999,7084],[999,7169],[999,7250],[999,7333],[999,7419],[999,7500],[999,7583],[999,7667],[999,7750],[999,7834],[999,7919],[999,8000],[999,8084],[999,8167],[999,8250],[999,8334],[999,8417],[999,8500],[999,8584],[999,8667],[999,8750],[999,8834],[999,8917],[999,9004],[999,9084],[999,9167],[999,9250],[999,9333],[999,9417],[999,9500],[999,9584],[999,9667],[999,9751],[999,9834],[999,9917],[999,10002],[999,10084],[999,10171],[999,10250],[999,10334],[999,10417],[999,10501],[999,10586],[999,10667],[999,10751],[999,10834],[999,10917],[999,11005],[999,11084],[999,11167],[999,11250],[999,11334],[999,11417],[999,11501],[999,11584],[999,11668],[999,11751],[999,11834],[999,11920],[999,12000],[999,12086]]",1,0,606.1965,619.0694,0,6.9587,"[{""rating"":0,""responseTime"":5.674800000011942},{""rating"":0,""responseTime"":6.9586999999880845}]",space,12.3064,,619.0695,All the time,100,619.0795,,,[],,0,16,16,16,1,audio/Narrative8Situation7.wav,audio/Narrative7Situation7.wav,audio/Narrative6Situation7.wav,audio/Narrative5Situation7.wav,3,5,5,4,,,,,,,,,,,,,,,,,,,,,,,,,,,,,,,,,,,,,,,
,,,,,,663bc31529719b8501c52820,2024-05-13_09h47.29.972,group3.1-3.2-social-tom,2023.2.2,Win32,60.24096386,65c5074098b851296ff0b7ed,6642359042c402beb5a17b68,,,,,,,,,,,,,,,,,,,,,,,,,,,,,619.0797,1,audio/Narrative8Situation8.wav,622.096,,622.0961,634.9486,"[[999,0],[999,84],[999,165],[999,249],[999,332],[999,416],[999,499],[999,584],[999,665],[999,749],[999,832],[999,915],[999,1001],[999,1084],[999,1167],[999,1250],[999,1336],[999,1416],[999,1501],[999,1582],[999,1667],[999,1749],[999,1832],[999,1918],[999,2001],[999,2082],[999,2169],[999,2249],[999,2332],[999,2424],[999,2499],[999,2583],[999,2665],[999,2751],[999,2832],[999,2916],[999,2999],[999,3082],[999,3165],[999,3249],[999,3333],[999,3417],[999,3499],[999,3583],[999,3665],[999,3752],[999,3832],[999,3916],[999,3999],[999,4082],[999,4166],[999,4249],[999,4334],[999,4416],[999,4499],[999,4585],[999,4666],[999,4749],[999,4833],[999,4916],[999,5001],[999,5084],[999,5166],[999,5249],[999,5333],[999,5416],[999,5499],[999,5582],[999,5668],[999,5749],[999,5833],[999,5916],[999,6002],[999,6082],[999,6168],[999,6250],[999,6334],[999,6416],[999,6499],[999,6583],[999,6668],[999,6749],[999,6833],[999,6916],[999,7000],[999,7083],[999,7166],[999,7251],[999,7333],[999,7416],[999,7500],[999,7583],[999,7666],[999,7750],[999,7833],[999,7916],[999,7999],[999,8083],[999,8166],[999,8252],[999,8333],[999,8416],[999,8500],[999,8583],[999,8666],[999,8750],[999,8833],[999,8916],[999,9000],[999,9084],[999,9166],[999,9250],[999,9333],[999,9418],[999,9503],[999,9583],[999,9666],[999,9750],[999,9835],[999,9918],[999,10000],[999,10083],[999,10166],[999,10250],[999,10335],[999,10416],[999,10500],[999,10585],[999,10666],[999,10752],[999,10833],[999,10916],[999,11000],[999,11083],[999,11166],[999,11250],[999,11333],[999,11416],[999,11500],[999,11586],[999,11666],[999,11750],[999,11835],[999,11916],[999,12002],[999,12083],[999,12169],[999,12250],[999,12333],[999,12417],[999,12502],[999,12583],[999,12666],[999,12752],[999,12833]]",1,0,634.9487,640.9331,25.41666826,4.5753,"[{""rating"":25.416668256123863,""responseTime"":4.575299999952335}]",space,5.4347,,640.9331,Half the time,50,640.9361,,,[],,0,17,17,17,1,audio/Narrative8Situation8.wav,audio/Narrative7Situation8.wav,audio/Narrative6Situation8.wav,audio/Narrative5Situation8.wav,3,2,5,3,,,,,,,,,,,,,,,,,,,,,,,,,,,,,,,,,,,,,,,
,,,,,,663bc31529719b8501c52820,2024-05-13_09h47.29.972,group3.1-3.2-social-tom,2023.2.2,Win32,60.24096386,65c5074098b851296ff0b7ed,6642359042c402beb5a17b68,,,,,,,,,,,,,,,,,,,,,,,,,,,,,640.9364,1,audio/Narrative8Situation9.wav,643.9475,,643.9476,655.2674,"[[999,8],[999,82],[999,166],[999,249],[999,333],[999,416],[999,499],[999,582],[999,669],[999,754],[999,835],[999,916],[999,999],[999,1084],[999,1166],[999,1251],[999,1335],[999,1418],[999,1499],[999,1583],[999,1666],[999,1750],[999,1834],[999,1916],[999,2000],[999,2083],[999,2166],[999,2251],[999,2332],[999,2416],[999,2500],[999,2585],[999,2666],[999,2749],[999,2833],[999,2916],[999,3000],[999,3085],[999,3166],[999,3250],[999,3334],[999,3416],[999,3500],[999,3583],[999,3666],[999,3750],[999,3835],[999,3916],[999,3999],[999,4083],[999,4166],[999,4250],[999,4333],[999,4417],[999,4499],[999,4583],[999,4666],[999,4750],[999,4835],[999,4916],[999,5002],[999,5085],[999,5167],[999,5250],[999,5333],[999,5416],[999,5502],[999,5585],[999,5667],[999,5750],[999,5833],[999,5918],[999,6000],[999,6083],[999,6169],[999,6250],[999,6333],[999,6416],[999,6500],[999,6585],[999,6666],[999,6750],[999,6833],[999,6916],[999,7000],[999,7083],[999,7167],[999,7250],[999,7335],[999,7417],[999,7502],[999,7583],[999,7668],[999,7750],[999,7835],[999,7917],[999,8000],[999,8083],[999,8167],[999,8250],[999,8333],[999,8417],[999,8501],[999,8583],[999,8667],[999,8750],[999,8835],[999,8916],[999,9001],[999,9083],[999,9167],[999,9252],[999,9333],[999,9417],[999,9502],[999,9583],[999,9669],[999,9750],[999,9835],[999,9917],[999,10000],[999,10086],[999,10168],[999,10252],[999,10335],[999,10418],[999,10503],[61,10586],[60.3,10669],[60,10752],[60.3,10836],[60.9,10920],[61.3,11003],[61.9,11086],[62.5,11169],[63,11253]]",1,0,655.2675,658.3487,63.95833492,2.1494,"[{""rating"":67.08333492279053,""responseTime"":1.1178000000119255},{""rating"":63.95833492279053,""responseTime"":2.14939999997614}]",space,2.5322,,658.3488,Half the time,50,658.3507,,,[],,0,18,18,18,1,audio/Narrative8Situation9.wav,audio/Narrative7Situation9.wav,audio/Narrative6Situation9.wav,audio/Narrative5Situation9.wav,3,2,4,3,,,,,,,,,,,,,,,,,,,,,,,,,,,,,,,,,,,,,,,
,,,,,,663bc31529719b8501c52820,2024-05-13_09h47.29.972,group3.1-3.2-social-tom,2023.2.2,Win32,60.24096386,65c5074098b851296ff0b7ed,6642359042c402beb5a17b68,,,,,,,,,,,,,,,,,,,,,,,,,,,663.2915,665.8658,665.8775,2,audio/Narrative13Situation2.wav,665.8776,,665.8776,695.6207,"[[999,0],[999,71],[999,157],[999,238],[999,324],[999,404],[999,488],[999,571],[999,654],[999,738],[999,821],[999,907],[999,990],[999,1072],[999,1158],[999,1238],[999,1323],[999,1406],[999,1489],[999,1574],[999,1654],[999,1738],[999,1823],[999,1906],[999,1990],[999,2071],[999,2157],[999,2238],[999,2323],[999,2406],[999,2490],[999,2574],[999,2657],[999,2740],[999,2821],[999,2905],[999,2988],[999,3071],[999,3157],[999,3240],[68.4,3323],[68.4,3406],[68.4,3490],[68.4,3573],[68.4,3655],[70.2,3740],[71.8,3824],[72.4,3904],[72.4,3988],[72.4,4072],[72.4,4156],[72.4,4240],[72.4,4322],[72.4,4405],[72.4,4488],[72.4,4572],[72.4,4655],[72.4,4741],[72.4,4823],[72.4,4905],[72.4,4988],[72.4,5071],[72.4,5158],[72.4,5238],[72.4,5322],[72.4,5405],[72.4,5488],[72.4,5572],[72.4,5655],[72.4,5738],[72.4,5822],[72.4,5905],[72.4,5988],[72.4,6074],[72.4,6155],[72.4,6239],[72.4,6322],[72.4,6405],[72.4,6490],[72.4,6572],[72.4,6655],[72.4,6740],[72.4,6822],[72.4,6908],[72.4,6988],[72.4,7072],[72.4,7157],[72.4,7240],[72.4,7322],[72.4,7408],[72.4,7490],[72.4,7572],[72.4,7656],[72.4,7739],[72.4,7822],[72.4,7905],[72.4,7988],[72.4,8074],[72.4,8155],[72.4,8240],[72.4,8322],[72.4,8407],[72.4,8489],[72.4,8572],[72.4,8655],[72.4,8741],[72.4,8822],[72.4,8905],[72.4,8988],[72.4,9072],[72.4,9155],[72.4,9241],[72.4,9322],[72.4,9405],[72.4,9490],[72.4,9572],[72.4,9655],[72.4,9741],[72.4,9822],[72.4,9905],[72.4,9991],[72.4,10074],[72.4,10155],[72.4,10240],[72.4,10324],[72.4,10406],[72.4,10489],[72.4,10575],[72.4,10655],[72.4,10741],[72.4,10822],[72.4,10906],[72.4,10989],[72.4,11072],[72.4,11157],[72.4,11239],[72.4,11322],[72.4,11405],[72.4,11489],[72.4,11572],[72.4,11657],[72.4,11739],[72.4,11822],[72.4,11906],[72.4,11991],[72.4,12072],[72.4,12156],[72.4,12241],[72.4,12322],[72.4,12405],[72.4,12489],[72.4,12574],[72.4,12655],[72.4,12740],[72.4,12822],[72.4,12906],[72.4,12989],[72.4,13075],[72.4,13156],[72.4,13239],[72.4,13322],[72.4,13406],[72.4,13489],[72.4,13572],[72.4,13656],[72.4,13739],[72.4,13822],[72.4,13908],[72.4,13990],[72.4,14076],[72.4,14156],[72.4,14239],[72.4,14324],[72.4,14406],[72.4,14489],[72.4,14572],[72.4,14656],[72.4,14740],[72.4,14822],[72.4,14906],[72.4,14990],[72.4,15074],[72.4,15155],[72.4,15239],[72.4,15322],[72.4,15406],[72.4,15491],[72.4,15572],[72.4,15656],[72.4,15739],[72.4,15822],[72.4,15906],[72.4,15991],[72.4,16072],[72.4,16156],[72.4,16239],[72.4,16322],[72.4,16406],[72.4,16491],[72.4,16572],[72.4,16656],[72.4,16739],[72.4,16822],[72.4,16906],[72.4,16991],[72.4,17073],[72.4,17156],[72.4,17241],[72.4,17323],[72.4,17406],[72.4,17491],[72.4,17575],[72.4,17656],[72.4,17739],[72.4,17822],[72.4,17906],[72.4,17989],[72.4,18073],[72.4,18156],[72.4,18239],[72.4,18323],[72.4,18406],[72.4,18491],[72.4,18573],[72.4,18656],[72.4,18740],[72.4,18823],[72.4,18906],[72.4,18989],[72.4,19075],[72.4,19158],[72.4,19239],[72.4,19323],[72.4,19408],[72.4,19489],[72.4,19573],[72.4,19659],[72.4,19739],[72.4,19823],[72.4,19906],[72.4,19991],[72.4,20073],[72.4,20156],[72.4,20241],[72.4,20323],[72.4,20406],[72.4,20491],[72.4,20573],[72.4,20656],[72.4,20740],[72.4,20823],[72.4,20908],[72.4,20990],[72.4,21073],[72.4,21156],[72.4,21240],[72.4,21325],[72.4,21408],[72.4,21490],[72.4,21573],[72.4,21659],[72.4,21740],[72.4,21823],[72.4,21907],[72.4,21990],[72.4,22073],[72.4,22159],[72.4,22242],[72.4,22324],[72.4,22406],[72.4,22490],[72.4,22573],[72.4,22658],[72.4,22742],[72.4,22823],[72.4,22906],[72.4,22990],[72.4,23073],[72.4,23158],[72.4,23240],[72.4,23325],[72.4,23407],[72.4,23490],[72.4,23575],[72.4,23657],[72.4,23740],[72.4,23823],[72.4,23906],[72.4,23991],[72.4,24075],[72.4,24156],[72.4,24240],[72.4,24325],[72.4,24406],[71,24500],[68.3,24576],[65.7,24659],[64.2,24742],[63.2,24823],[62.6,24907],[62.6,24990],[62.6,25073],[62.6,25158],[62.6,25243],[62.6,25323],[62.6,25406],[62.6,25490],[62.6,25575],[62.6,25658],[62.6,25742],[62.6,25823],[62.6,25907],[62.6,25990],[62.6,26076],[62.6,26157],[62.6,26240],[62.6,26324],[62.6,26407],[62.6,26490],[62.6,26576],[62.6,26657],[62.6,26740],[62.6,26823],[62.6,26907],[62.6,26990],[62.6,27075],[62.6,27157],[62.6,27242],[62.6,27323],[62.6,27407],[62.6,27490],[62.6,27575],[62.6,27659],[62.3,27740],[61,27825],[59.5,27907],[59.5,27993],[59.5,28075],[59.5,28158],[59.5,28240],[59.5,28326],[59.5,28407],[59.5,28492],[59.5,28574],[59.5,28657],[59.5,28740],[59.5,28824],[59.5,28907],[59.5,28990],[59.5,29073],[59.5,29157],[59.5,29240],[59.5,29324],[59.5,29407],[59.5,29490],[59.5,29576],[59.5,29657],[59.5,29743]]",1,0,695.6209,695.6228,,,[],,,,695.6228,Not at all,0,695.625,,,[],,0,0,0,0,1,audio/Narrative13Situation2.wav,audio/Narrative13Situation2.wav,audio/Narrative13Situation2.wav,audio/Narrative13Situation2.wav,2,2,2,2,,,,,658.3514,663.2836,space,4.4062,,,,,,,,,,,,,,,,,,,,,,,,,,,,,,,
,,,,,,663bc31529719b8501c52820,2024-05-13_09h47.29.972,group3.1-3.2-social-tom,2023.2.2,Win32,60.24096386,65c5074098b851296ff0b7ed,6642359042c402beb5a17b68,,,,,,,,,,,,,,,,,,,,,,,,,,,,,695.6252,2,audio/Narrative5Situation1.wav,700.6357,,700.6358,713.9056,"[[999,8],[999,82],[999,166],[999,249],[999,332],[999,416],[999,501],[999,583],[999,667],[999,750],[999,833],[999,918],[999,999],[999,1085],[999,1168],[61.4,1252],[61.4,1335],[61,1419],[61,1499],[61,1585],[61,1666],[61,1752],[61,1833],[61,1918],[61,1999],[61,2085],[61,2168],[61,2249],[60.3,2335],[58.8,2418],[57.9,2501],[56.9,2585],[56.7,2666],[56.6,2752],[56.6,2833],[56.6,2916],[56.6,2999],[56.6,3085],[56.6,3168],[56.6,3250],[56.6,3333],[56.6,3416],[56.6,3500],[56.6,3585],[56.6,3666],[56.6,3749],[56.6,3833],[56.6,3916],[56.6,4000],[56.6,4086],[56.6,4166],[56.6,4250],[56.6,4333],[56.6,4416],[56.6,4500],[56.6,4583],[56.6,4666],[56.6,4752],[56.6,4833],[56.6,4916],[56.6,5002],[56.6,5083],[56.1,5169],[56,5252],[51.4,5919],[53.6,6002],[54.2,6085],[54.6,6167],[54.9,6250],[55.2,6335],[56.3,6419],[57,6502],[57.1,6583],[57.2,6666],[57.2,6752],[57.2,6833],[57.2,6916],[57.2,7000],[57.2,7086],[57.2,7167],[57.2,7250],[57.2,7335],[57.2,7416],[59.3,8585],[59.5,8666],[59.5,8752],[59.5,8833],[59.7,8918],[60.4,9002],[60.4,9085],[60.4,9167],[60.4,9250],[60.4,9334],[60.4,9418],[59.8,9500],[59.1,9584],[59.1,9667],[59.1,9750],[59,9833],[58.9,9917],[58.5,10002],[58.5,10084],[58.5,10167],[58.5,10250],[58.5,10335],[58.5,10417],[58.5,10500],[58.5,10584],[58.5,10667],[58.5,10750],[58.5,10834],[58.5,10917],[58.5,11002],[58.5,11083],[58.5,11169],[58.5,11250],[58.5,11333],[58.5,11419],[58.5,11500],[58.5,11583],[58.5,11669],[58.5,11753],[58.5,11834],[58.5,11917],[58.5,12000],[58.5,12086],[58.5,12169],[58.5,12252],[60.2,12335],[60.8,12420],[60.9,12500],[60.9,12584],[60.9,12669],[60.9,12750],[61.1,12835],[61.4,12917],[61.4,13003],[61.4,13084],[60.8,13169],[59.2,13253]]",1,0,713.9058,723.7564,23.6458381,9.0742,"[{""rating"":42.08333492279053,""responseTime"":6.353599999964217},{""rating"":23.645838101704914,""responseTime"":9.074199999988082}]",space,9.3172,,723.7564,All the time,100,723.7592,,,[],,0,1,1,1,1,audio/Narrative7Situation1.wav,audio/Narrative8Situation1.wav,audio/Narrative5Situation1.wav,audio/Narrative6Situation1.wav,2,5,5,2,,,,,,,,,,,,,,,,,,,,,,,,,,,,,,,,,,,,,,,
,,,,,,663bc31529719b8501c52820,2024-05-13_09h47.29.972,group3.1-3.2-social-tom,2023.2.2,Win32,60.24096386,65c5074098b851296ff0b7ed,6642359042c402beb5a17b68,,,,,,,,,,,,,,,,,,,,,,,,,,,,,723.7595,2,audio/Narrative5Situation2.wav,726.7713,,726.7713,756.2235,"[[999,9],[999,82],[999,168],[999,249],[999,333],[999,416],[999,499],[999,585],[999,666],[999,750],[999,833],[999,916],[999,999],[999,1083],[999,1166],[999,1249],[999,1333],[999,1416],[999,1499],[999,1583],[999,1666],[999,1750],[999,1833],[999,1916],[999,2001],[999,2083],[999,2166],[999,2249],[999,2335],[999,2418],[999,2501],[999,2583],[999,2666],[999,2749],[999,2833],[999,2918],[999,3000],[999,3083],[999,3169],[999,3252],[999,3335],[999,3418],[999,3502],[49.7,3585],[49.9,3668],[50.1,3752],[50.6,3835],[56.9,3919],[62.3,4002],[63.2,4085],[63.2,4169],[64.1,4250],[64.6,4335],[64.6,4419],[64.6,4500],[64.5,4586],[64.5,4666],[64.5,4750],[64.5,4833],[64.5,4918],[64.5,5000],[64.5,5083],[64.5,5166],[64.5,5250],[62.1,5336],[61.6,5417],[61.4,5500],[61.4,5583],[61.4,5666],[61.4,5751],[61.4,5836],[61.3,5918],[60.9,6002],[60.5,6083],[60.2,6169],[60.1,6250],[60.1,6333],[60.1,6420],[60.1,6500],[60.1,6585],[60.1,6666],[60.1,6750],[60.1,6833],[60.1,6916],[60.1,7000],[60.1,7084],[60.1,7167],[60.1,7250],[60.1,7333],[60.1,7419],[60.1,7500],[60.1,7585],[60.1,7668],[60.1,7750],[60.1,7833],[60.1,7919],[60.1,8000],[60.1,8083],[60.1,8166],[60.1,8250],[58.9,8336],[57.2,8420],[54.8,8503],[49.8,8585],[47.1,8669],[47,8750],[45.9,8836],[42.8,8919],[41.8,9002],[40.7,9086],[40.7,9167],[40.7,9250],[40.7,9333],[40.7,9417],[40.7,9500],[40.7,9583],[40.7,9668],[40.7,9750],[40.7,9833],[40.7,9917],[40.7,10000],[40.7,10083],[40.7,10169],[40.7,10250],[40.7,10333],[40.7,10419],[40.7,10500],[34.6,16252],[36.5,16336],[37.9,16420],[38,16501],[38,16584],[35.8,16669],[35,16752],[35,16836],[35,16920],[35,17002],[35,17086],[35,17168],[33.6,17253],[32.7,17336],[31.4,17417],[31.4,17501],[31.4,17584],[31.4,17669],[31.4,17751],[31.4,17834],[31.4,17919],[31.4,18001],[31.4,18084],[31.4,18167],[31.4,18253],[31.4,18334],[31.4,18418],[31.4,18503],[31.4,18584],[31.4,18668],[31.4,18751],[31.4,18836],[31.4,18919],[31.4,19001],[31.4,19084],[31.4,19168],[31.4,19251],[31.4,19334],[31.4,19417],[31.4,19501],[31.4,19584],[31.4,19670],[31.4,19753],[31.4,19834],[31.4,19919],[31.4,20003],[31.4,20084],[31.4,20170],[31.4,20251],[31.4,20334],[31.4,20418],[31.4,20501],[31.4,20587],[31.4,20668],[31.4,20753],[31.4,20835],[31.4,20921],[31.4,21001],[31.4,21087],[31.4,21168],[31.4,21251],[31.4,21334],[31.4,21418],[31.4,21503],[31.4,21586],[31.4,21668],[31.4,21753],[31.4,21834],[31.4,21918],[31.4,22001],[31.4,22084],[31.4,22169],[31.4,22251],[31.4,22334],[31.4,22420],[31.4,22501],[31.4,22586],[31.4,22669],[31.4,22751],[31.4,22835],[31.4,22920],[31.4,23003],[31.4,23087],[31.4,23168],[31.4,23252],[31.4,23335],[31.4,23418],[31.4,23503],[31.4,23584],[31.4,23668],[31.4,23753],[31.4,23834],[31.4,23918],[31.4,24001],[31.4,24085],[31.4,24168],[31.4,24251],[31.5,24337],[32.8,24420],[34.4,24504],[35.2,24587],[35.4,24668],[35.4,24751],[36.3,24837],[36.9,24921],[36.9,25001],[36.9,25086],[36.9,25168],[36.9,25251],[36.9,25335],[36.9,25420],[36.9,25502],[36.9,25585],[36.9,25668],[37,25753],[37,25837],[37,25918],[37,26001],[37,26085],[37,26169],[37,26254],[37,26335],[37,26418],[37,26501],[37.2,26585],[37.2,26668],[37.5,26752],[38,26837],[38.4,26921],[39.8,27004],[39.8,27085],[39.8,27168],[39.8,27252],[39.8,27336],[39.8,27418],[39.8,27504],[39.8,27585],[39.8,27671],[39.8,27753],[39.8,27835],[39.8,27920],[39.8,28002],[39.8,28085],[39.8,28170],[39.8,28253],[40.5,28337],[41.5,28419],[41.5,28502],[41.5,28585],[41.5,28668],[41.5,28752],[41.5,28836],[41.5,28918],[41.5,29002],[41.5,29087],[41.5,29168],[41.5,29252],[41.5,29337],[41.5,29418]]",1,0,756.2237,762.7925,44.58333651,2.5316,"[{""rating"":44.583336512247726,""responseTime"":2.5315999999642145}]",space,6.0259,,762.7926,Not at all,0,762.803,,,[],,0,2,2,2,1,audio/Narrative7Situation2.wav,audio/Narrative8Situation2.wav,audio/Narrative5Situation2.wav,audio/Narrative6Situation2.wav,3,3,3,3,,,,,,,,,,,,,,,,,,,,,,,,,,,,,,,,,,,,,,,
,,,,,,663bc31529719b8501c52820,2024-05-13_09h47.29.972,group3.1-3.2-social-tom,2023.2.2,Win32,60.24096386,65c5074098b851296ff0b7ed,6642359042c402beb5a17b68,,,,,,,,,,,,,,,,,,,,,,,,,,,,,762.8033,2,audio/Narrative5Situation3.wav,765.8078,,765.8078,779.7273,"[[999,8],[999,83],[999,168],[999,250],[999,335],[999,416],[999,500],[999,583],[999,666],[999,750],[999,833],[999,916],[999,1000],[999,1089],[999,1169],[999,1250],[999,1333],[999,1418],[999,1500],[999,1583],[999,1666],[999,1750],[999,1835],[999,1918],[999,2002],[58.8,2086],[58.2,2169],[58.2,2249],[58.2,2333],[58.2,2416],[58.2,2500],[58.2,2583],[58.2,2666],[57.2,2752],[55.4,2835],[50.5,3919],[50.6,4002],[50.6,4084],[50.6,4168],[50.4,4252],[50.2,4333],[50.1,4417],[50.1,4500],[50.1,4585],[50.1,4666],[50.1,4750],[50.1,4833],[50.1,4916],[51.1,5002],[52.9,5086],[55.5,5169],[56.9,5253],[57.1,5333],[57.1,5416],[57.1,5500],[57.1,5583],[57.1,5668],[57.1,5750],[57.1,5833],[57.1,5917],[57.1,6000],[57.3,6086],[57.9,6169],[57.9,6253],[58.2,6335],[59.4,6419],[59.4,6500],[59.4,6583],[59.6,6667],[59.6,6750],[59.6,6834],[59.6,6917],[59.6,7000],[59.6,7083],[59.6,7167],[59.6,7250],[59.6,7336],[59.6,7418],[59.6,7500],[59.6,7584],[59.6,7669],[59.6,7750],[59.6,7835],[59.6,7919],[59.6,8000],[59.6,8083],[59.6,8167],[59.6,8250],[59.6,8334],[59.6,8418],[59.6,8500],[60.6,8586],[64.3,8670],[66.4,8752],[67.8,8835],[69.7,8919],[71.7,9002],[72.8,9086],[73.1,9167],[73.1,9250],[73.1,9334],[73.1,9417],[73.1,9500],[73.1,9586],[74.1,9669],[75.5,9752],[76.5,9836],[77.1,9920],[77.6,10003],[77.6,10086],[77.6,10167],[77.6,10250],[77.6,10334],[77.6,10417],[77.6,10500],[77.6,10586],[77.8,10669],[77.9,10752],[79.5,10836],[79.5,10917],[79.5,11002],[79.6,11086],[79.6,11169],[79.6,11252],[79.6,11334],[79.6,11417],[79.6,11503],[79.6,11585],[79.6,11667],[79.6,11752],[80,11837],[80.4,11919],[80.7,12003],[80.7,12084],[80.7,12167],[80.7,12251],[81.1,12334],[81.1,12420],[81.1,12501],[81.1,12586],[81.1,12669],[81.1,12750],[81.1,12834],[81.1,12919],[81.1,13001],[81.1,13084],[84.5,13169],[89,13253],[91.6,13336],[93.4,13420],[97.2,13503],[100,13587],[100,13667],[100,13753],[100,13836],[100,13919]]",1,0,779.7275,782.7445,99.68749682,1.9189,"[{""rating"":99.68749682108562,""responseTime"":1.9189000000357055}]",space,2.4837,,782.7446,Not at all,0,782.7464,,,[],,0,3,3,3,1,audio/Narrative7Situation3.wav,audio/Narrative8Situation3.wav,audio/Narrative5Situation3.wav,audio/Narrative6Situation3.wav,8,4,3,5,,,,,,,,,,,,,,,,,,,,,,,,,,,,,,,,,,,,,,,
,,,,,,663bc31529719b8501c52820,2024-05-13_09h47.29.972,group3.1-3.2-social-tom,2023.2.2,Win32,60.24096386,65c5074098b851296ff0b7ed,6642359042c402beb5a17b68,,,,,,,,,,,,,,,,,,,,,,,,,,,,,782.7468,2,audio/Narrative5Situation4.wav,783.7613,,783.7613,804.1613,"[[999,0],[999,82],[999,164],[999,247],[999,331],[999,414],[999,499],[999,581],[999,665],[999,750],[999,831],[999,914],[999,998],[999,1081],[999,1165],[999,1250],[999,1331],[999,1414],[999,1498],[999,1581],[999,1664],[999,1748],[999,1831],[999,1915],[999,1998],[999,2081],[999,2164],[999,2248],[999,2331],[999,2414],[999,2498],[999,2584],[999,2664],[999,2748],[999,2833],[999,2914],[999,3000],[999,3083],[999,3164],[999,3248],[999,3331],[999,3414],[999,3498],[999,3583],[999,3667],[999,3748],[999,3831],[999,3916],[999,4000],[999,4084],[999,4167],[999,4248],[999,4333],[999,4415],[999,4498],[999,4582],[999,4665],[999,4750],[999,4833],[999,4916],[62.8,5000],[62.8,5083],[62.8,5165],[62.8,5248],[62.8,5333],[63.4,5417],[66,5501],[68.8,5584],[68.9,5667],[68.9,5748],[69.5,5834],[69.8,5917],[70,5998],[70.1,6081],[70.1,6167],[70.1,6248],[70.1,6331],[70.1,6417],[70.1,6498],[70.1,6581],[70.1,6665],[70.1,6748],[70.1,6831],[70.1,6915],[70.1,6998],[71.1,7083],[71.3,7165],[71.4,7248],[71.6,7332],[74.5,7417],[75.9,7500],[75.9,7582],[75.9,7665],[75.7,7750],[72.9,7834],[72.5,7917],[72,8000],[72,8081],[72,8165],[71.8,8251],[71.8,8331],[71.8,8415],[71.8,8498],[71.8,8584],[71.8,8667],[71.8,8751],[71.8,8831],[71.8,8917],[71.8,9000],[71.8,9083],[71.8,9165],[71.8,9248],[71.8,9334],[71.8,9415],[71.8,9499],[71.8,9582],[71.8,9665],[71.8,9748],[71.8,9833],[71.8,9915],[71.8,9999],[71.8,10082],[71.8,10167],[71.8,10248],[71.8,10332],[71.8,10417],[71.8,10501],[71.8,10582],[71.8,10665],[71.8,10748],[71.8,10834],[71.8,10915],[71.8,10998],[71.8,11084],[71.8,11167],[71.8,11250],[71.8,11334],[71.8,11415],[71.8,11501],[71.8,11582],[71.8,11665],[71.8,11751],[71.8,11833],[71.8,11915],[71.8,11999],[71.8,12082],[71.8,12167],[71.8,12249],[71.8,12333],[71.8,12415],[71.8,12498],[71.8,12582],[71.8,12665],[71.8,12751],[71.8,12832],[71.8,12918],[71.8,12999],[71.8,13084],[71.8,13165],[71.8,13248],[71.8,13332],[71.8,13415],[71.8,13501],[71.8,13582],[71.8,13665],[71.8,13748],[71.8,13832],[71.8,13915],[71.8,13999],[71.8,14082],[71.8,14165],[71.8,14249],[71.8,14334],[71.8,14416],[71.8,14499],[71.8,14582],[71.8,14665],[71.8,14748],[71.8,14834],[71.8,14916],[71.8,14999],[71.8,15084],[71.8,15165],[71.8,15249],[71.8,15332],[71.8,15416],[71.8,15500],[71.8,15582],[71.8,15668],[71.8,15749],[71.8,15833],[71.8,15915],[71.8,15999],[71.8,16082],[71.8,16166],[71.8,16251],[71.8,16334],[71.8,16417],[71.8,16499],[71.8,16583],[71.8,16667],[71.8,16749],[71.8,16832],[71.8,16916],[71.8,17001],[71.8,17082],[71.8,17165],[71.8,17249],[71.8,17332],[71.8,17415],[71.8,17499],[71.8,17582],[71.8,17666],[71.8,17749],[71.8,17832],[71.8,17918],[71.8,17999],[71.8,18084],[71.8,18168],[71.8,18251],[71.8,18334],[71.8,18418],[71.8,18502],[71.8,18584],[71.8,18666],[71.8,18749],[71.8,18834],[71.8,18916],[71.8,18999],[71.8,19082],[71.8,19166],[71.8,19251],[71.8,19332],[71.8,19416],[71.8,19502],[71.8,19582],[71.8,19668],[71.8,19749],[71.8,19833],[71.8,19918],[71.8,20001],[71.8,20082],[71.8,20166],[71.8,20249],[71.8,20333]]",1,0,804.1614,805.8305,68.02083651,1.1355,"[{""rating"":68.02083651224771,""responseTime"":1.135499999999979}]",space,1.1253,,805.8305,All the time,100,805.8331,,,[],,0,4,4,4,1,audio/Narrative7Situation4.wav,audio/Narrative8Situation4.wav,audio/Narrative5Situation4.wav,audio/Narrative6Situation4.wav,3,3,1,2,,,,,,,,,,,,,,,,,,,,,,,,,,,,,,,,,,,,,,,
,,,,,,663bc31529719b8501c52820,2024-05-13_09h47.29.972,group3.1-3.2-social-tom,2023.2.2,Win32,60.24096386,65c5074098b851296ff0b7ed,6642359042c402beb5a17b68,,,,,,,,,,,,,,,,,,,,,,,,,,,,,805.8333,2,audio/Narrative5Situation5.wav,810.8475,,810.8475,826.282,"[[67.8,15001],[67.8,15084]]",1,0,826.282,833.6661,98.4375,5.594,"[{""rating"":92.39583015441895,""responseTime"":2.032800000011889},{""rating"":98.4375,""responseTime"":5.593999999999937}]",space,6.8494,,833.6661,Not at all,0,843.581,0,5.6063,"[{""rating"":0.2083341280619322,""responseTime"":4.631800000011822},{""rating"":0,""responseTime"":5.606300000011856}]",space,0,5,5,5,1,audio/Narrative7Situation5.wav,audio/Narrative8Situation5.wav,audio/Narrative5Situation5.wav,audio/Narrative6Situation5.wav,5,2,5,2,,,9.3695,,,,,,,,,,,,,,,,,,,,,,,,,,,,,,,,,,,,
,,,,,,663bc31529719b8501c52820,2024-05-13_09h47.29.972,group3.1-3.2-social-tom,2023.2.2,Win32,60.24096386,65c5074098b851296ff0b7ed,6642359042c402beb5a17b68,,,,,,,,,,,,,,,,,,,,,,,,,,,,,843.5889,2,audio/Narrative5Situation6.wav,846.598,,846.598,852.2676,"[[999,8],[999,83],[999,166],[999,250],[999,333],[999,416],[999,500],[999,583],[999,666],[999,750],[999,833],[999,916],[999,1000],[999,1083],[999,1169],[999,1250],[999,1333],[999,1419],[999,1500],[999,1585],[999,1669],[999,1750],[999,1833],[999,1917],[999,2000],[999,2086],[999,2166],[999,2250],[999,2334],[999,2417],[999,2500],[999,2586],[999,2666],[999,2750],[999,2833],[999,2918],[999,3000],[999,3085],[999,3167],[999,3250],[999,3336],[999,3417],[999,3500],[999,3585],[999,3667],[999,3750],[999,3833],[999,3916],[999,4000],[999,4083],[999,4167],[999,4250],[999,4335],[999,4416],[999,4500],[999,4585],[999,4668],[999,4750],[999,4834],[999,4917],[999,5000],[999,5084],[999,5167],[999,5250],[999,5333],[999,5418],[999,5500],[999,5583],[999,5669]]",1,0,852.2677,870.0002,41.87500477,5.5097,"[{""rating"":36.04166507720947,""responseTime"":4.872199999988084},{""rating"":41.87500476837158,""responseTime"":5.509699999988129}]",space,17.2007,,870.0002,Not at all,0,870.01,,,[],,0,6,6,6,1,audio/Narrative7Situation6.wav,audio/Narrative8Situation6.wav,audio/Narrative5Situation6.wav,audio/Narrative6Situation6.wav,3,2,3,2,,,,,,,,,,,,,,,,,,,,,,,,,,,,,,,,,,,,,,,
,,,,,,663bc31529719b8501c52820,2024-05-13_09h47.29.972,group3.1-3.2-social-tom,2023.2.2,Win32,60.24096386,65c5074098b851296ff0b7ed,6642359042c402beb5a17b68,,,,,,,,,,,,,,,,,,,,,,,,,,,,,870.0101,2,audio/Narrative5Situation7.wav,874.0174,,874.0174,895.069,"[[999,8],[999,82],[999,166],[999,249],[999,332],[999,416],[999,500],[999,584],[999,666],[999,749],[999,835],[999,916],[999,1002],[999,1082],[999,1168],[999,1252],[999,1333],[999,1416],[999,1500],[999,1583],[999,1666],[999,1752],[999,1836],[999,1916],[999,1999],[999,2083],[999,2166],[999,2249],[999,2333],[999,2416],[999,2500],[999,2583],[999,2666],[999,2751],[999,2833],[999,2921],[999,3001],[999,3086],[999,3169],[999,3251],[57.7,3335],[55.5,3417],[55.4,3500],[55.4,3585],[55.4,3666],[55.4,3750],[55.4,3833],[55.4,3918],[55.4,4002],[55.4,4083],[55.4,4168],[55.4,4250],[55.4,4333],[55.4,4416],[55.4,4502],[55.4,4583],[55.4,4668],[55.4,4750],[55.4,4833],[55.4,4918],[55.4,5000],[55.4,5083],[55.4,5166],[54.7,5251],[54,5335],[53.3,5417],[53.2,5502],[53.2,5583],[53.2,5667],[53.2,5750],[53.2,5833],[53.2,5918],[53.2,6001],[53.2,6083],[53.2,6167],[53.2,6250],[53.2,6335],[53.2,6416],[53.2,6502],[53.2,6583],[53.2,6668],[53.2,6750],[53.2,6835],[53.2,6918],[53.2,7000],[53.2,7083],[53.2,7168],[53.2,7250],[53.2,7333],[53.2,7417],[53.2,7500],[53.2,7583],[53.2,7668],[53.2,7750],[53.2,7835],[53.2,7916],[53.2,8000],[53.2,8083],[53.2,8166],[53.2,8250],[53.2,8333],[53.2,8416],[53.2,8500],[53.2,8585],[53.2,8666],[53.2,8750],[53.2,8837],[53.2,8917],[53.2,9000],[53.2,9083],[53.2,9166],[53.2,9250],[53.2,9334],[53.2,9417],[53.2,9501],[53.2,9583],[53.2,9667],[53.2,9750],[53.2,9833],[53.2,9917],[53.2,10002],[53.2,10083],[53.2,10169],[53.2,10250],[53.2,10335],[53.2,10418],[53.2,10500],[53.2,10586],[53.2,10667],[53.2,10750],[53.2,10835],[53.2,10917],[53.2,11001],[53.2,11086],[53.2,11169],[53.2,11250],[53.2,11335],[53.2,11418],[53.2,11502],[53.2,11586],[53.2,11669],[53.4,11752],[53.4,11835],[53.2,11919],[52.7,12003],[52.5,12083],[52.5,12168],[52.3,12253],[50.3,12336],[48.3,12418],[47,12503],[47,12584],[43.8,12669],[41.8,12752],[41.4,12836],[41.2,12920],[41.2,13000],[41,13085],[40.9,13170],[40.9,13250],[40.7,13335],[40.7,13417],[40.7,13500],[40.7,13584],[40.7,13668],[40.7,13751],[40.7,13834],[40.7,13919],[40.7,14000],[40.7,14084],[40.7,14169],[40.7,14250],[40.7,14336],[40.7,14419],[40.7,14504],[40.7,14585],[40.7,14667],[40.7,14751],[40.7,14834],[40.7,14917],[40.7,15001],[40.7,15084],[40.7,15167],[40.7,15252],[40.7,15334],[40.7,15417],[40.7,15500],[40.7,15584],[40.7,15667],[40.7,15751],[40.7,15834],[40.7,15917],[40.7,16001],[40.7,16086],[40.7,16167],[40.7,16250],[40.7,16334],[40.7,16418],[40.7,16501],[40.7,16586],[40.7,16669],[40.7,16751],[40.7,16835],[40.7,16919],[40.7,17001],[40.7,17086],[40.7,17169],[40.7,17251],[40.7,17334],[40.7,17420],[40.7,17503],[40.7,17584],[40.7,17668],[40.7,17751],[40.7,17834],[40.7,17921],[40.7,18001],[40.7,18084],[40.7,18168],[40.7,18251],[40.7,18334],[40.7,18417],[40.7,18501],[40.7,18584],[40.7,18668],[40.7,18752],[40.7,18837],[40.7,18917],[40.7,19002],[40.7,19084],[40.7,19169],[40.7,19251],[40.7,19334],[40.7,19418],[40.7,19501],[40.7,19584],[40.7,19669],[40.7,19751],[40.7,19834],[40.7,19918],[40.7,20003],[40.7,20084],[40.7,20169],[40.7,20251],[40.7,20335],[40.7,20418],[38.1,20503],[33.5,20586],[31.9,20671],[30.3,20753],[28.6,20836],[28.6,20918],[28.6,21002]]",1,0,895.0692,899.7055,31.66666826,3.8394,"[{""rating"":34.58333810170492,""responseTime"":2.8849000000358274},{""rating"":31.666668256123863,""responseTime"":3.8394000000357664}]",space,4.1008,,899.7055,All the time,100,899.7085,,,[],,0,7,7,7,1,audio/Narrative7Situation7.wav,audio/Narrative8Situation7.wav,audio/Narrative5Situation7.wav,audio/Narrative6Situation7.wav,5,3,4,5,,,,,,,,,,,,,,,,,,,,,,,,,,,,,,,,,,,,,,,
,,,,,,663bc31529719b8501c52820,2024-05-13_09h47.29.972,group3.1-3.2-social-tom,2023.2.2,Win32,60.24096386,65c5074098b851296ff0b7ed,6642359042c402beb5a17b68,,,,,,,,,,,,,,,,,,,,,,,,,,,,,899.7087,2,audio/Narrative5Situation8.wav,902.72,,902.7201,911.5539,"[[999,8],[999,84],[999,168],[999,249],[999,332],[999,418],[999,499],[999,582],[999,666],[999,749],[999,833],[999,916],[999,1001],[999,1085],[999,1166],[999,1251],[999,1334],[999,1417],[999,1501],[999,1585],[999,1667],[999,1751],[999,1833],[999,1916],[999,1999],[999,2084],[999,2168],[999,2251],[999,2335],[999,2418],[999,2499],[999,2585],[999,2668],[999,2751],[999,2833],[999,2916],[999,2999],[999,3083],[999,3166],[999,3249],[999,3335],[999,3416],[999,3499],[999,3583],[999,3666],[999,3749],[999,3835],[999,3918],[999,4002],[999,4085],[999,4168],[999,4252],[999,4335],[999,4418],[999,4499],[999,4582],[999,4666],[999,4752],[999,4835],[999,4919],[999,4999],[999,5083],[999,5166],[999,5249],[999,5333],[999,5418],[999,5499],[999,5583],[999,5666],[999,5752],[999,5833],[999,5916],[999,6000],[999,6083],[999,6166],[999,6250],[999,6333],[999,6416],[999,6500],[999,6583],[999,6668],[999,6751],[999,6835],[999,6916],[999,7000],[999,7083],[999,7168],[999,7250],[999,7334],[999,7417],[999,7500],[999,7585],[999,7666],[999,7750],[999,7835],[999,7916],[999,8003],[999,8083],[999,8166],[999,8250],[999,8333],[999,8419],[999,8500],[999,8583],[999,8667],[999,8750],[999,8833]]",1,0,911.554,920.8713,66.04166826,8.99,"[{""rating"":57.08333651224772,""responseTime"":5.23310000002391},{""rating"":66.04166825612387,""responseTime"":8.990000000000009}]",space,8.7859,,920.8713,Not at all,0,920.8744,,,[],,0,8,8,8,1,audio/Narrative7Situation8.wav,audio/Narrative8Situation8.wav,audio/Narrative5Situation8.wav,audio/Narrative6Situation8.wav,2,3,3,5,,,,,,,,,,,,,,,,,,,,,,,,,,,,,,,,,,,,,,,
,,,,,,663bc31529719b8501c52820,2024-05-13_09h47.29.972,group3.1-3.2-social-tom,2023.2.2,Win32,60.24096386,65c5074098b851296ff0b7ed,6642359042c402beb5a17b68,,,,,,,,,,,,,,,,,,,,,,,,,,,,,920.8746,2,audio/Narrative5Situation9.wav,923.8882,,923.8883,963.4252,"[[65.3,7751],[62.4,7835],[61.9,7917],[61.4,8002],[60.8,8083],[60.8,8167],[60.8,8250],[60.8,8335],[60.7,8418],[60.7,8500],[60.7,8584],[60.7,8668],[60.7,8750],[60.7,8833],[60.7,8919],[61.9,9003],[64.9,9086],[67.5,9168],[67.7,9252],[67.7,9336],[67.7,9417],[67.7,9500],[67.7,9583],[67.7,9667],[67.7,9750],[67.7,9833],[67.7,9917],[67.7,10000],[67.7,10083],[67.7,10167],[67.7,10252],[67.7,10334],[67.7,10418],[67.7,10500],[67.7,10585],[67.7,10667],[67.7,10750],[67.7,10834],[67.7,10917],[67.7,11000],[67.7,11083],[67.7,11167],[67.7,11250],[67.7,11334],[67.7,11417],[67.7,11501],[67.7,11586],[67.7,11669],[67.7,11750],[67.7,11835],[67.7,11917],[67.7,12001],[67.7,12084],[67.7,12167],[67.7,12252],[67.7,12334],[67.7,12417],[67.7,12502],[67.7,12584],[67.7,12669],[67.7,12750],[67.7,12833],[67.7,12917],[67.7,13000],[67.7,13084],[67.7,13168],[67.7,13250],[67.7,13334],[67.7,13417],[67.7,13500],[67.7,13586],[67.7,13667],[67.7,13750],[67.7,13834],[67.7,13917],[67.7,14001],[67.7,14084],[67.7,14169],[67.7,14251],[67.7,14334],[67.7,14419],[67.7,14500],[67.7,14586],[67.7,14668],[67.7,14751],[67.7,14834],[67.7,14918],[67.7,15000],[67.7,15086],[67.7,15167],[67.7,15251],[67.7,15334],[67.7,15417],[67.7,15501],[67.7,15586],[67.7,15668],[67.7,15751],[67.7,15837],[67.7,15917],[67.7,16001],[67.7,16086],[67.7,16169],[67.7,16251],[67.7,16334],[67.7,16419],[67.7,16505],[67.7,16584],[67.7,16668],[67.7,16753],[67.7,16834],[67.7,16919],[67.7,17001],[67.7,17084],[70.3,17168],[70.7,17253],[70.9,17334],[71.4,17419],[71.4,17501],[71.9,17587],[72.4,17670],[73.8,17753],[74,17837],[74,17919],[74,18001],[74,18084],[74,18167],[74,18251],[74,18336],[74.3,18418],[74.4,18501],[75.5,18586],[77.4,18670],[78.6,18754],[79,18834],[79.4,18919],[79.4,19001],[79.4,19084],[79.4,19168],[79.4,19251],[79.4,19335],[79.4,19420],[79.4,19501],[79.4,19585],[79.4,19668],[79.4,19751],[79.4,19834],[79.4,19918],[79.4,20003],[79.4,20086],[79.4,20168],[79.4,20251],[79.4,20334],[79.4,20418],[79.4,20504],[79.4,20585],[79.4,20668],[79.4,20751],[79.4,20836],[82.3,20918],[85.8,21003],[86.7,21087],[87.7,21170],[88.1,21253],[89.1,21337],[90.1,21420],[90.8,21501],[91,21584],[91,21669],[91,21751],[91.1,21835],[92.4,21921],[92.5,22001],[92.5,22085],[92.5,22170],[92.5,22251],[92.5,22335],[92.5,22418],[92.5,22501],[92.5,22584],[92.5,22668],[92.5,22753],[92.5,22835],[92.5,22920],[92.5,23003],[92.5,23086],[92.5,23168],[92.5,23251],[92.5,23335],[92.5,23418],[92.5,23501],[92.5,23585],[92.5,23668],[92.5,23751],[92.5,23835],[92.5,23918],[92.5,24001],[92.5,24085],[92.5,24168],[92.5,24251],[92.5,24337],[92.5,24418],[92.5,24503],[92.5,24585],[92.5,24670],[92.5,24754],[92.5,24836],[92.5,24919],[92.5,25002],[92.5,25085],[92.5,25168],[92.5,25251],[92.5,25335],[92.5,25418],[92.5,25501],[92.5,25587],[92.5,25668],[92.5,25751],[92.5,25836],[92.5,25918],[92.5,26003],[92.5,26085],[92.5,26168],[92.5,26254],[92.5,26337],[92.5,26418],[92.6,26501],[92.7,26585],[92.7,26668],[92.9,26752],[92.9,26837],[92.9,26918],[92.9,27002],[92.9,27085],[92.9,27168],[92.9,27252],[92.9,27337],[92.9,27418],[92.9,27501],[92.9,27586],[92.9,27668],[92.9,27753],[92.9,27838],[92.9,27918],[92.9,28002],[92.9,28085],[92.9,28168],[92.9,28253],[92.9,28337],[92.9,28418],[92.9,28502],[92.9,28585],[92.9,28669],[92.9,28752],[92.9,28835],[92.9,28919],[92.9,29002],[92.9,29085],[92.9,29171],[92.9,29252],[92.9,29335],[92.9,29418],[92.9,29502],[92.9,29585],[92.9,29668],[92.9,29752],[92.9,29835],[92.9,29919],[92.9,30004],[92.9,30085],[92.9,30168],[92.9,30254],[92.9,30335],[92.9,30419],[92.9,30504],[92.9,30585],[92.9,30668],[92.9,30754],[92.9,30837],[92.9,30918],[92.9,31002],[92.9,31085],[92.9,31169],[92.9,31254],[92.9,31335],[92.9,31419],[92.9,31504],[92.9,31586],[92.9,31671],[92.9,31752],[92.9,31835],[92.9,31919],[92.9,32003],[92.9,32085],[92.9,32171],[92.9,32252],[92.9,32337],[92.9,32419],[92.9,32504],[92.9,32586],[92.9,32669],[92.9,32754],[92.9,32835],[92.9,32920],[92.9,33002],[92.9,33088],[92.9,33171],[92.9,33254],[92.9,33337],[92.9,33419],[92.9,33502],[92.9,33588],[92.9,33669],[92.9,33752],[92.9,33836],[92.9,33919],[92.9,34002],[92.9,34088],[92.9,34169],[92.9,34252],[92.9,34335],[92.9,34419],[92.9,34504],[92.9,34586],[92.9,34671],[92.9,34754],[92.9,34836],[92.9,34919],[92.9,35004],[92.9,35086],[92.9,35171],[92.9,35252],[92.9,35336],[92.9,35419],[92.9,35503],[92.9,35586],[92.9,35671],[92.9,35752],[92.9,35838],[92.9,35921],[92.9,36003],[92.9,36086],[92.9,36169],[92.9,36252],[92.9,36336],[92.9,36419],[92.9,36503],[92.9,36586],[92.9,36669],[92.9,36753],[92.9,36836],[92.9,36919],[92.9,37004],[92.9,37086],[92.9,37169],[92.9,37252],[92.9,37338],[92.9,37420],[92.9,37504],[92.9,37586],[92.9,37669],[92.9,37755],[92.9,37836],[92.9,37919],[92.9,38004],[92.9,38086],[92.9,38171],[92.9,38252],[92.9,38338],[92.9,38419],[95.1,38505],[97.4,38588],[99,38671],[99.3,38752],[99.9,38838],[99.9,38921],[99.9,39003],[99.9,39086],[99.7,39172],[99.5,39253],[99.5,39336],[99.5,39421],[99.5,39503]]",1,0,963.4254,966.6609,99.37500954,1.9607,"[{""rating"":99.37500953674316,""responseTime"":1.9607000000477228}]",space,2.6886,,966.6609,Half the time,50,966.6639,,,[],,0,9,9,9,1,audio/Narrative7Situation9.wav,audio/Narrative8Situation9.wav,audio/Narrative5Situation9.wav,audio/Narrative6Situation9.wav,2,3,3,4,,,,,,,,,,,,,,,,,,,,,,,,,,,,,,,,,,,,,,,
,,,,,,663bc31529719b8501c52820,2024-05-13_09h47.29.972,group3.1-3.2-social-tom,2023.2.2,Win32,60.24096386,65c5074098b851296ff0b7ed,6642359042c402beb5a17b68,,,,,,,,,,,,,,,,,,,,,,,,,,,,,966.6642,2,audio/Narrative6Situation1.wav,968.6756,,968.6757,995.2792,"[[999,1],[999,83],[999,168],[999,249],[999,332],[999,416],[999,502],[999,582],[999,666],[999,749],[999,833],[72.9,919],[82.3,18002],[81.6,18087],[81.1,18170],[81.1,18251],[81,18334],[81,18417],[82.2,18502],[84.6,18586],[85.8,18670],[85.8,18753],[85.8,18834],[85.8,18917],[85.8,19001],[85.8,19084],[85.8,19167],[85.8,19252],[85.8,19334],[85.8,19418],[85.7,19503],[85.6,19584],[85.5,19667],[85.5,19752],[85.5,19834],[85.5,19917],[85.5,20001],[85.5,20084],[85.5,20168],[85.5,20251],[85.5,20336],[85.5,20418],[85.5,20501],[85.5,20584],[85.5,20667],[85.5,20751],[85.5,20834],[85.5,20918],[85.5,21001],[85.5,21086],[85.5,21169],[85.5,21252],[85.5,21335],[85.5,21418],[85.5,21503],[85.5,21584],[85.5,21668],[85.5,21751],[85.5,21836],[85.5,21918],[85.5,22001],[85.5,22086],[85.5,22167],[85.5,22251],[85.5,22334],[85.5,22420],[85.5,22501],[85.5,22584],[85.5,22668],[85.5,22751],[85.5,22834],[85.5,22918],[85.5,23003],[85.5,23084],[85.5,23168],[85.5,23253],[85.5,23334],[85.5,23420],[85.5,23501],[85.5,23584],[85.5,23668],[85.5,23751],[85.5,23834],[85.5,23918],[85.5,24001],[85.5,24085],[85.5,24170],[85.5,24251],[85.5,24336],[85.5,24418],[85.5,24501],[85.5,24586],[85.5,24668],[85.5,24752],[85.5,24835],[85.5,24918],[85.5,25001],[85.5,25086],[85.5,25168],[85.6,25254],[85.7,25335],[86.1,25420],[86.9,25504],[87.9,25587],[89,25670],[90.5,25754],[91,25836],[91.1,25920],[91.1,26001],[91.1,26084],[91.1,26168],[91.1,26251],[91.1,26335],[91.1,26418],[91.1,26501],[91.1,26585]]",1,0,995.2794,997.8113,92.70833333,1.217,"[{""rating"":92.70833333333333,""responseTime"":1.2169999999999845}]",space,1.9862,,997.8113,All the time,100,997.814,,,[],,0,10,10,10,1,audio/Narrative8Situation1.wav,audio/Narrative7Situation1.wav,audio/Narrative6Situation1.wav,audio/Narrative5Situation1.wav,5,2,2,5,,,,,,,,,,,,,,,,,,,,,,,,,,,,,,,,,,,,,,,
,,,,,,663bc31529719b8501c52820,2024-05-13_09h47.29.972,group3.1-3.2-social-tom,2023.2.2,Win32,60.24096386,65c5074098b851296ff0b7ed,6642359042c402beb5a17b68,,,,,,,,,,,,,,,,,,,,,,,,,,,,,997.8142,2,audio/Narrative6Situation2.wav,1000.8282,,1000.8283,1029.3498,"[[61.6,16261],[61.6,16334],[61.6,16417],[61.1,16504],[61,16584],[61,16669],[61,16753],[61,16834],[61,16917],[61,17002],[61,17084],[61,17170],[61,17251],[61,17334],[61,17419],[61,17501],[61,17584],[61,17669],[61,17751],[61,17837],[61,17918],[61,18009],[61,18084],[61,18167],[61,18251],[61,18334],[61,18417],[61,18501],[61,18584],[61,18667],[61,18751],[61,18834],[61,18919],[61,19003],[61,19084],[61,19170],[61,19251],[61,19335],[61,19417],[61,19503],[61,19585],[61,19670],[61,19753],[61,19836],[61,19920],[61,20001],[61,20086],[61,20168],[61,20251],[61,20334],[61,20420],[61,20501],[61,20585],[61,20671],[61,20751],[61,20835],[61,20919],[61,21001],[61,21084],[61,21168],[61,21254],[61,21334],[61,21418],[61,21503],[61,21584],[61,21668],[61,21753],[61,21835],[61,21918],[61,22004],[61,22084],[61,22168],[61,22254],[61,22335],[61,22420],[61,22501],[61,22584],[61,22668],[61,22751],[61,22837],[61,22918],[61,23001],[61,23085],[61,23170],[61,23252],[61,23336],[61,23420],[61,23501],[61,23586],[61,23668],[61,23753],[61,23835],[61,23918],[61,24003],[61,24084],[60.3,24168],[59.3,24254],[58.8,24337],[58.1,24418],[57.5,24503],[57.4,24585],[57.4,24668],[57.4,24753],[57.4,24836],[57.4,24918],[57.4,25001],[57.4,25084],[57.4,25168],[57.4,25251],[57.4,25336],[57.4,25420],[57.4,25502],[57.4,25587],[57.4,25668],[57.4,25751],[57.4,25835],[57.4,25918],[57.4,26004],[57.4,26085],[57.4,26168],[57.4,26251],[57.4,26335],[57.4,26418],[57.4,26501],[57.4,26585],[57.4,26668],[57.4,26753],[57.4,26835],[57.4,26918],[57.4,27001],[57.4,27085],[57.4,27170],[57.4,27253],[57.4,27337],[57.4,27420],[57.4,27501],[57.4,27585],[57.4,27668],[57.4,27753],[57.4,27836],[57.4,27920],[57,28005],[54.9,28087],[52.5,28170],[50.9,28254],[49.6,28335],[49.3,28420],[49.2,28504]]",1,0,1029.3501,1032.1996,46.875,1.4828,"[{""rating"":46.875,""responseTime"":1.482799999952249}]",space,2.3094,,1032.1996,Not at all,0,1032.2024,,,[],,0,11,11,11,1,audio/Narrative8Situation2.wav,audio/Narrative7Situation2.wav,audio/Narrative6Situation2.wav,audio/Narrative5Situation2.wav,3,3,3,3,,,,,,,,,,,,,,,,,,,,,,,,,,,,,,,,,,,,,,,
,,,,,,663bc31529719b8501c52820,2024-05-13_09h47.29.972,group3.1-3.2-social-tom,2023.2.2,Win32,60.24096386,65c5074098b851296ff0b7ed,6642359042c402beb5a17b68,,,,,,,,,,,,,,,,,,,,,,,,,,,,,1032.2026,2,audio/Narrative6Situation3.wav,1037.2167,,1037.2168,1049.8491,"[[52.1,2332],[50.8,2416],[50.1,2498],[50.1,2582],[50.1,2664],[50.1,2749],[50.1,2831],[50.1,2914],[50.1,2997],[50.1,3083],[50.1,3164],[50.1,3247],[50.1,3333],[50.1,3414],[50.1,3498],[50.1,3581],[50.1,3666],[50.1,3747],[50.3,3831],[55.3,3917],[60.3,3998],[63.2,4083],[63.4,4164],[64.3,4250],[65.1,4333],[65.5,4416],[65.6,4499],[65.6,4581],[65.6,4664],[65.6,4749],[65.6,4831],[65.6,4914],[65.6,4998],[65.6,5081],[65.6,5166],[65.6,5248],[65.6,5331],[65.6,5414],[65.6,5497],[65.6,5581],[65.6,5664],[65.6,5747],[65.6,5831],[66.9,5914],[67.3,5998],[67.3,6081],[67.3,6164],[67.3,6248],[68,6334],[69.5,6417],[69.5,6500],[69.5,6583],[69.5,6665],[69.5,6749],[69.5,6833],[69.5,6914],[69.5,6998],[69.5,7081],[69.5,7164],[69.5,7249],[69.5,7334],[69.5,7414],[69.5,7498],[69.5,7581],[69.5,7664],[69.5,7748],[69.5,7831],[69.5,7917],[69.5,7998],[69.5,8081],[69.5,8165],[69.5,8250],[69.5,8331],[69.5,8415],[69.5,8498],[69.5,8581],[69.5,8665],[69.5,8750],[69.5,8831],[69.5,8915],[69.5,8998],[69.5,9083],[69.5,9167],[69.5,9250],[69.5,9332],[69.5,9415],[69.5,9498],[69.5,9581],[69.5,9664],[69.5,9750],[69.2,9832],[69.2,9915],[69.2,10000],[69.2,10083],[69.2,10165],[69.1,10248],[69.1,10331],[69.1,10416],[69.1,10500],[69.1,10581],[69.3,10666],[69.3,10748],[69.5,10833],[69.5,10915],[69.6,10998],[69.7,11083],[69.8,11165],[69.8,11248],[69.8,11333],[69.8,11415],[69.8,11498],[69.8,11583],[69.8,11665],[69.8,11748],[69.8,11831],[69.8,11915],[69.8,12000],[69.8,12081],[69.8,12165],[69.8,12250],[69.8,12333],[69.8,12415],[69.8,12498],[69.8,12582]]",1,0,1049.8493,1055.3346,92.70833333,5.1547,"[{""rating"":92.70833333333333,""responseTime"":5.154699999988225}]",space,4.951,,1055.3346,Half the time,50,1055.337,,,[],,0,12,12,12,1,audio/Narrative8Situation3.wav,audio/Narrative7Situation3.wav,audio/Narrative6Situation3.wav,audio/Narrative5Situation3.wav,4,8,5,3,,,,,,,,,,,,,,,,,,,,,,,,,,,,,,,,,,,,,,,
,,,,,,663bc31529719b8501c52820,2024-05-13_09h47.29.972,group3.1-3.2-social-tom,2023.2.2,Win32,60.24096386,65c5074098b851296ff0b7ed,6642359042c402beb5a17b68,,,,,,,,,,,,,,,,,,,,,,,,,,,,,1055.3373,2,audio/Narrative6Situation4.wav,1057.3497,,1057.3498,1069.9696,"[[92.3,3168],[75.4,3753],[77.8,3836],[77.9,3916],[77.9,4000],[77.9,4085],[77.9,4168],[77.9,4250],[77.9,4335],[77.9,4419],[77.9,4500],[77.9,4583],[77.9,4666],[77.9,4750],[77.9,4835],[77.9,4919],[77.9,5000],[77.9,5083],[77.9,5166],[77.9,5250],[77.9,5333],[77.9,5416],[77.9,5500],[77.9,5584],[77.9,5666],[77.9,5750],[77.9,5833],[77.9,5916],[77.9,6000],[77.9,6083],[77.9,6169],[77.9,6250],[77.9,6336],[77.9,6417],[77.9,6500],[77.9,6583],[77.9,6667],[77.9,6750],[77.9,6833],[77.9,6918],[77.9,7002],[77.9,7083],[77.9,7167],[77.9,7250],[77.9,7333],[77.9,7417],[77.9,7500],[77.9,7585],[77.9,7669],[77.9,7750],[77.9,7834],[77.9,7919],[77.9,8000],[77.9,8085],[77.9,8167],[77.9,8250],[77.9,8334],[77.9,8417],[77.9,8500],[77.9,8590],[77.9,8667],[77.9,8750],[77.9,8835],[77.9,8917],[77.9,9000],[77.9,9083],[77.9,9167],[77.9,9250],[77.9,9336],[77.9,9417],[77.9,9500],[77.9,9584],[77.9,9667],[77.9,9753],[77.9,9834],[77.9,9917],[77.9,10000],[77.9,10084],[77.9,10167],[77.9,10254],[77.9,10333],[77.9,10417],[77.9,10502],[77.9,10583],[77.9,10667],[77.9,10750],[77.9,10833],[77.9,10917],[77.9,11000],[77.9,11083],[77.9,11167],[77.9,11250],[77.9,11336],[77.9,11417],[77.9,11500],[77.9,11586],[77.9,11669],[77.9,11750],[77.9,11834],[77.9,11919],[77.9,12000],[77.9,12084],[77.5,12169],[76.4,12253],[75.2,12336],[75.1,12419],[75.1,12501],[75.1,12585]]",1,0,1069.9697,1073.651,6.666668256,2.8788,"[{""rating"":6.666668256123859,""responseTime"":2.878800000011779}]",space,3.1399,,1073.6511,Not at all,0,1073.6543,,,[],,0,13,13,13,1,audio/Narrative8Situation4.wav,audio/Narrative7Situation4.wav,audio/Narrative6Situation4.wav,audio/Narrative5Situation4.wav,3,3,2,1,,,,,,,,,,,,,,,,,,,,,,,,,,,,,,,,,,,,,,,
,,,,,,663bc31529719b8501c52820,2024-05-13_09h47.29.972,group3.1-3.2-social-tom,2023.2.2,Win32,60.24096386,65c5074098b851296ff0b7ed,6642359042c402beb5a17b68,,,,,,,,,,,,,,,,,,,,,,,,,,,,,1073.6546,2,audio/Narrative6Situation5.wav,1075.6682,,1075.6682,1083.6373,"[[999,0],[999,82],[999,166],[999,249],[999,333],[999,416],[999,499],[999,583],[999,666],[999,749],[999,833],[999,916],[999,999],[999,1083],[999,1168],[999,1249],[999,1333],[999,1416],[999,1499],[999,1584],[999,1666],[999,1751],[999,1833],[999,1916],[999,1999],[999,2082],[999,2166],[999,2249],[999,2333],[999,2416],[999,2499],[999,2583],[999,2666],[999,2749],[999,2835],[999,2916],[999,2999],[999,3083],[999,3168],[999,3252],[999,3333],[999,3416],[999,3500],[999,3583],[999,3666],[999,3750],[999,3833],[999,3916],[999,4000],[999,4083],[999,4168],[999,4249],[999,4334],[999,4416],[999,4499],[999,4585],[999,4666],[999,4750],[999,4835],[999,4916],[999,5002],[999,5083],[999,5166],[999,5251],[999,5335],[999,5416],[999,5502],[999,5583],[999,5666],[999,5750],[999,5836],[999,5916],[999,6000],[999,6083],[999,6168],[999,6250],[999,6333],[999,6416],[999,6502],[999,6583],[999,6667],[999,6750],[999,6833],[999,6916],[999,7001],[999,7083],[999,7166],[999,7250],[999,7335],[999,7419],[999,7502],[999,7585],[999,7668],[999,7752],[60.8,7836],[67.9,7918]]",1,0,1083.6375,1088.3879,99.68749682,3.3998,"[{""rating"":99.68749682108562,""responseTime"":3.3998000000119646}]",space,4.201,,1088.3879,All the time,100,1088.391,,,[],,0,14,14,14,1,audio/Narrative8Situation5.wav,audio/Narrative7Situation5.wav,audio/Narrative6Situation5.wav,audio/Narrative5Situation5.wav,2,5,2,5,,,,,,,,,,,,,,,,,,,,,,,,,,,,,,,,,,,,,,,
,,,,,,663bc31529719b8501c52820,2024-05-13_09h47.29.972,group3.1-3.2-social-tom,2023.2.2,Win32,60.24096386,65c5074098b851296ff0b7ed,6642359042c402beb5a17b68,,,,,,,,,,,,,,,,,,,,,,,,,,,,,1088.3913,2,audio/Narrative6Situation6.wav,1090.4025,,1090.4025,1101.5053,"[[999,0],[999,86],[999,166],[999,249],[999,335],[999,416],[999,500],[999,583],[999,668],[999,751],[999,835],[999,916],[999,1000],[999,1083],[999,1169],[999,1249],[999,1333],[999,1416],[999,1500],[999,1583],[999,1666],[999,1749],[999,1833],[999,1916],[999,2000],[999,2083],[999,2169],[999,2250],[999,2333],[999,2416],[999,2503],[999,2583],[999,2666],[999,2750],[999,2833],[999,2916],[999,3000],[999,3083],[999,3167],[999,3250],[999,3333],[999,3418],[999,3500],[999,3583],[999,3667],[999,3750],[999,3834],[999,3916],[999,4000],[999,4083],[999,4167],[999,4250],[999,4333],[999,4416],[999,4500],[999,4590],[999,4668],[999,4752],[999,4833],[999,4917],[999,5000],[999,5083],[999,5167],[999,5250],[999,5333],[999,5417],[999,5502],[999,5585],[999,5667],[999,5751],[999,5834],[999,5917],[999,6000],[999,6083],[999,6168],[999,6250],[999,6334],[999,6419],[999,6500],[999,6583],[999,6667],[999,6750],[999,6833],[999,6917],[999,7000],[999,7084],[999,7167],[999,7252],[999,7333],[999,7419],[999,7500],[999,7583],[999,7667],[999,7750],[999,7834],[999,7919],[999,8002],[999,8084],[999,8167],[999,8250],[999,8333],[999,8419],[999,8500],[999,8584],[999,8667],[999,8752],[999,8836],[999,8917],[999,9000],[999,9083],[999,9167],[999,9250],[999,9334],[999,9418],[999,9500],[999,9584],[999,9669],[999,9750],[999,9836],[999,9917],[999,10002],[999,10086],[999,10167],[999,10250],[999,10334],[999,10420],[999,10502],[999,10586],[999,10669],[999,10752],[51.8,10836],[51.5,10920],[51,11002],[50.9,11084]]",1,0,1101.5055,1109.2232,10.10416746,7.1371,"[{""rating"":16.354167461395264,""responseTime"":5.65019999998799},{""rating"":10.104167461395264,""responseTime"":7.137100000023793}]",space,7.18,,1109.2233,All the time,100,1109.2251,,,[],,0,15,15,15,1,audio/Narrative8Situation6.wav,audio/Narrative7Situation6.wav,audio/Narrative6Situation6.wav,audio/Narrative5Situation6.wav,2,3,2,3,,,,,,,,,,,,,,,,,,,,,,,,,,,,,,,,,,,,,,,
