exp_question,consent.started,consent.stopped,consentResponse.keys,consentResponse.rt,consentResponse.duration,participantID,date,expName,psychopyVersion,OS,frameRate,STUDY_ID,SESSION_ID,opening1.started,opening1.stopped,keyEndingOpening1.keys,keyEndingOpening1.rt,keyEndingOpening1.duration,volumeAdjust.started,volumeAdjust.stopped,endingAdjust.keys,endingAdjust.rt,endingAdjust.duration,opening2.started,opening2.stopped,keyEndingOpening.keys,keyEndingOpening.rt,keyEndingOpening.duration,mouse.x,mouse.y,mouse.leftButton,mouse.midButton,mouse.rightButton,mouse.time,instructionLoop.thisRepN,instructionLoop.thisTrialN,instructionLoop.thisN,instructionLoop.thisIndex,instructionLoop.ran,readyForAudio.started,readyForAudio.stopped,fixation.started,run,audio_played,fixation.stopped,endPractice.keys,audioPre.started,audioPre.stopped,continuousResponses_audio,continuousSlider.response,continuousSlider.rt,intRating.started,intRating.stopped,intQuestionSlider.response,intQuestionSlider.rt,intQuestionSlider.history,confirmResponse.keys,confirmResponse.rt,confirmResponse.duration,catchQuestion.started,catch_label,catch_value,catchQuestion.stopped,catchQuestionSlider.response,catchQuestionSlider.rt,catchQuestionSlider.history,confirmResponse_2.keys,audioRunLoop.thisRepN,audioRunLoop.thisTrialN,audioRunLoop.thisN,audioRunLoop.thisIndex,audioRunLoop.ran,conditions1_1,conditions2_1,conditions1_2,conditions2_2,dur1_1,dur2_1,dur1_2,dur2_2,endPractice.rt,endPractice.duration,confirmResponse_2.rt,confirmResponse_2.duration,runIntervalBreak.started,runIntervalBreak.stopped,endingBreakKey.keys,endingBreakKey.rt,endingBreakKey.duration,connection.started,connection.stopped,connectionEnding.keys,connectionEnding.rt,connectionEnding.duration,readyForText.started,readyForText.stopped,textPre.started,run_dup,textPre.stopped,continuousResponses_text,textRunLoop.thisRepN,textRunLoop.thisTrialN,textRunLoop.thisN,textRunLoop.thisIndex,textRunLoop.ran,text1_1,text1_2,text2_1,text2_2,runBreakText.started,runBreakText.stopped,endingBreakKey_2.keys,endingBreakKey_2.rt,endingBreakKey_2.duration,ending.started,ending.stopped,endingEnding.keys,endingEnding.rt,endingEnding.duration
social,0,8.447,y,8.127,,663cfa8309ab946fcf1b6a9b,2024-05-13_10h39.32.299,group3.1-3.2-social-tom,2023.2.2,Win32,59.95203837,65c5074098b851296ff0b7ed,664233fac460a3834d6401d3,,,,,,,,,,,,,,,,,,,,,,,,,,,,,,,,,,,,,,,,,,,,,,,,,,,,,,,,,,,,,,,,,,,,,,,,,,,,,,,,,,,,,,,,,,,,,,,,,,,,,,,,,,
,,,,,,663cfa8309ab946fcf1b6a9b,2024-05-13_10h39.32.299,group3.1-3.2-social-tom,2023.2.2,Win32,59.95203837,65c5074098b851296ff0b7ed,664233fac460a3834d6401d3,8.448,12.993,space,4.463,,,,,,,,,,,,,,,,,,,,,,,,,,,,,,,,,,,,,,,,,,,,,,,,,,,,,,,,,,,,,,,,,,,,,,,,,,,,,,,,,,,,,,,,,,,,,,,,,,,,,,
,,,,,,663cfa8309ab946fcf1b6a9b,2024-05-13_10h39.32.299,group3.1-3.2-social-tom,2023.2.2,Win32,59.95203837,65c5074098b851296ff0b7ed,664233fac460a3834d6401d3,,,,,,12.993,20.333,space,7.011,,,,,,,,,,,,,,,,,,,,,,,,,,,,,,,,,,,,,,,,,,,,,,,,,,,,,,,,,,,,,,,,,,,,,,,,,,,,,,,,,,,,,,,,,,,,,,,,,
,,,,,,663cfa8309ab946fcf1b6a9b,2024-05-13_10h39.32.299,group3.1-3.2-social-tom,2023.2.2,Win32,59.95203837,65c5074098b851296ff0b7ed,664233fac460a3834d6401d3,,,,,,,,,,,20.339,29.942,space,9.568,,[],[],[],[],[],[],0,0,0,0,1,,,,,,,,,,,,,,,,,,,,,,,,,,,,,,,,,,,,,,,,,,,,,,,,,,,,,,,,,,,,,,,,,,,,,,,,,,,,,,,,
,,,,,,663cfa8309ab946fcf1b6a9b,2024-05-13_10h39.32.299,group3.1-3.2-social-tom,2023.2.2,Win32,59.95203837,65c5074098b851296ff0b7ed,664233fac460a3834d6401d3,,,,,,,,,,,29.946,49.659,space,19.617,,[],[],[],[],[],[],1,0,1,0,1,,,,,,,,,,,,,,,,,,,,,,,,,,,,,,,,,,,,,,,,,,,,,,,,,,,,,,,,,,,,,,,,,,,,,,,,,,,,,,,,
,,,,,,663cfa8309ab946fcf1b6a9b,2024-05-13_10h39.32.299,group3.1-3.2-social-tom,2023.2.2,Win32,59.95203837,65c5074098b851296ff0b7ed,664233fac460a3834d6401d3,,,,,,,,,,,49.661,55.623,space,5.899,,[],[],[],[],[],[],2,0,2,0,1,,,,,,,,,,,,,,,,,,,,,,,,,,,,,,,,,,,,,,,,,,,,,,,,,,,,,,,,,,,,,,,,,,,,,,,,,,,,,,,,
,,,,,,663cfa8309ab946fcf1b6a9b,2024-05-13_10h39.32.299,group3.1-3.2-social-tom,2023.2.2,Win32,59.95203837,65c5074098b851296ff0b7ed,664233fac460a3834d6401d3,,,,,,,,,,,55.624,79.09,space,23.431,,[],[],[],[],[],[],3,0,3,0,1,,,,,,,,,,,,,,,,,,,,,,,,,,,,,,,,,,,,,,,,,,,,,,,,,,,,,,,,,,,,,,,,,,,,,,,,,,,,,,,,
,,,,,,663cfa8309ab946fcf1b6a9b,2024-05-13_10h39.32.299,group3.1-3.2-social-tom,2023.2.2,Win32,59.95203837,65c5074098b851296ff0b7ed,664233fac460a3834d6401d3,,,,,,,,,,,79.095,91.923,space,12.796,,[],[],[],[],[],[],4,0,4,0,1,,,,,,,,,,,,,,,,,,,,,,,,,,,,,,,,,,,,,,,,,,,,,,,,,,,,,,,,,,,,,,,,,,,,,,,,,,,,,,,,
,,,,,,663cfa8309ab946fcf1b6a9b,2024-05-13_10h39.32.299,group3.1-3.2-social-tom,2023.2.2,Win32,59.95203837,65c5074098b851296ff0b7ed,664233fac460a3834d6401d3,,,,,,,,,,,,,,,,,,,,,,,,,,,91.928,94.504,94.529,1,audio/Narrative13Situation2.wav,96.541,,96.541,126.293,"[[999,3],[999,115],[999,201],[999,281],[999,365],[999,448],[999,531],[999,615],[999,697],[999,780],[999,862],[999,947],[999,1028],[999,1114],[999,1197],[999,1281],[999,1367],[999,1451],[999,1532],[999,1614],[999,1701],[999,1782],[999,1866],[999,1948],[999,2032],[999,2115],[999,2201],[999,2280],[999,2369],[999,2449],[999,2531],[999,2616],[999,2703],[999,2782],[999,2866],[999,2949],[999,3032],[999,3116],[999,3203],[999,3282],[999,3364],[999,3451],[999,3532],[999,3619],[999,3697],[999,3782],[999,3867],[999,3951],[999,4032],[999,4115],[999,4201],[999,4282],[999,4367],[999,4448],[999,4531],[999,4616],[999,4703],[999,4782],[999,4865],[999,4950],[999,5033],[999,5116],[999,5198],[999,5282],[999,5364],[999,5447],[999,5530],[999,5614],[999,5695],[999,5781],[999,5861],[999,5951],[999,6031],[999,6117],[999,6203],[999,6282],[999,6365],[47,6450],[47,6531],[47.7,6617],[47.8,6698],[47.8,6781],[47.8,6865],[47.8,6951],[47.8,7031],[47.8,7115],[47.8,7198],[47.8,7282],[48.4,7365],[49.3,7448],[49.3,7532],[50.7,7613],[50.8,7700],[50.8,7781],[50.8,7867],[50.8,7945],[50.4,8030],[50.4,8116],[50.4,8203],[50.4,8282],[50.4,8366],[50.4,8448],[50.4,8531],[50.4,8613],[50.4,8698],[50.4,8782],[50.4,8866],[51.2,8951],[52.3,9032],[54.9,9114],[57.6,9198],[61.5,9282],[65.4,9365],[65.5,9449],[69.3,9532],[74,9616],[74.2,9698],[74.9,9782],[75.8,9864],[76.8,9951],[78.9,10032],[84.8,10116],[90.6,10198],[95.1,10282],[98.2,10366],[100,10450],[100,10531],[100,10615],[100,10699],[100,10782],[100,10867],[100,10948],[100,11032],[100,11115],[100,11195],[100,11281],[100,11366],[100,11448],[100,11532],[100,11616],[100,11703],[100,11782],[100,11865],[100,11949],[100,12032],[100,12115],[100,12197],[100,12282],[100,12366],[100,12449],[100,12531],[100,12616],[100,12699],[100,12782],[100,12865],[100,12948],[100,13032],[100,13116],[100,13198],[100,13287],[100,13366],[100,13448],[100,13532],[100,13615],[100,13700],[100,13782],[100,13866],[100,13950],[100,14028],[100,14115],[100,14203],[100,14282],[100,14363],[100,14448],[100,14532],[100,14615],[100,14695],[100,14781],[100,14866],[100,14951],[100,15030],[100,15115],[100,15203],[100,15281],[100,15364],[100,15448],[100,15532],[100,15616],[100,15697],[100,15782],[100,15866],[100,15951],[100,16032],[100,16116],[100,16200],[100,16282],[100,16365],[100,16448],[100,16531],[100,16616],[100,16697],[100,16781],[100,16866],[100,16953],[100,17031],[100,17115],[100,17204],[100,17282],[100,17365],[100,17453],[100,17532],[100,17615],[100,17702],[100,17782],[100,17861],[100,17950],[100,18032],[100,18115],[100,18195],[100,18282],[100,18366],[100,18448],[100,18532],[100,18616],[100,18699],[100,18783],[100,18865],[100,18952],[100,19032],[100,19115],[100,19197],[100,19278],[100,19366],[100,19449],[100,19532],[100,19616],[100,19703],[100,19781],[100,19866],[100,19945],[100,20032],[100,20114],[100,20202],[100,20282],[100,20363],[100,20448],[100,20531],[100,20615],[100,20698],[100,20782],[100,20866],[100,20950],[100,21031],[100,21115],[100,21198],[100,21282],[100,21364],[100,21448],[100,21532],[100,21615],[100,21695],[100,21782],[100,21866],[100,21948],[100,22028],[100,22115],[100,22198],[100,22282],[100,22366],[100,22448],[100,22531],[100,22616],[100,22703],[100,22782],[100,22866],[100,22949],[100,23028],[100,23111],[100,23198],[100,23282],[100,23361],[100,23448],[100,23531],[100,23616],[100,23698],[100,23782],[100,23865],[100,23949],[100,24028],[100,24111],[100,24195],[100,24280],[100,24364],[100,24448],[100,24531],[100,24615],[100,24694],[100,24778],[100,24865],[100,24948],[100,25032],[100,25116],[100,25198],[100,25282],[100,25365],[100,25449],[100,25530],[100,25615],[100,25703],[100,25782],[100,25863],[100,25948],[100,26032],[100,26113],[100,26198],[100,26282],[100,26365],[100,26449],[100,26530],[100,26615],[100,26700],[100,26782],[100,26861],[100,26950],[100,27032],[100,27116],[100,27198],[100,27282],[100,27366],[100,27450],[100,27532],[100,27611],[100,27700],[100,27782],[100,27865],[100,27948],[100,28028],[100,28116],[100,28200],[100,28282],[100,28361],[100,28448],[100,28532],[100,28616],[100,28699],[100,28778],[100,28865],[100,28948],[100,29032],[100,29111],[100,29199],[100,29282],[100,29365],[100,29450],[100,29532],[100,29615],[100,29697]]",1,0,126.294,135.253,99.73958333,6.738,"[{""rating"":99.73958333333333,""responseTime"":6.7379999999999995}]",space,8.417,,135.253,Definitely yes,100,135.263,,,[],,0,0,0,0,1,audio/Narrative13Situation2.wav,audio/Narrative13Situation2.wav,audio/Narrative13Situation2.wav,audio/Narrative13Situation2.wav,2,2,2,2,,,,,,,,,,,,,,,,,,,,,,,,,,,,,,,,,,,,,,,
,,,,,,663cfa8309ab946fcf1b6a9b,2024-05-13_10h39.32.299,group3.1-3.2-social-tom,2023.2.2,Win32,59.95203837,65c5074098b851296ff0b7ed,664233fac460a3834d6401d3,,,,,,,,,,,,,,,,,,,,,,,,,,,,,135.263,1,audio/Narrative8Situation1.wav,138.854,space,138.854,154.803,"[[999,3],[999,84],[999,169],[999,248],[999,331],[999,420],[999,498],[999,582],[999,670],[999,748],[999,832],[999,915],[999,998],[999,1082],[999,1165],[54.9,1248],[53.5,1335],[53.1,1417],[52.6,1500],[52.5,1584],[52.3,1669],[52.3,1750],[52.3,1837],[52.3,1918],[52.3,1998],[53.3,2086],[56.9,2170],[60.3,2248],[68.6,2334],[76.2,2420],[83.3,2498],[88.7,2582],[96.6,2670],[100,2748],[100,2840],[100,2915],[100,2998],[100,3087],[100,3171],[100,3250],[100,3337],[100,3419],[100,3498],[100,3582],[100,3670],[100,3750],[100,3832],[100,3920],[100,3998],[100,4086],[100,4170],[100,4248],[100,4336],[100,4419],[100,4498],[100,4582],[100,4669],[100,4748],[100,4836],[100,4918],[100,4998],[100,5086],[100,5169],[100,5250],[100,5332],[100,5418],[100,5498],[100,5587],[100,5674],[100,5748],[100,5837],[100,5919],[100,5998],[100,6086],[100,6169],[100,6248],[100,6336],[100,6421],[100,6498],[100,6587],[100,6668],[100,6748],[100,6837],[100,6919],[100,6998],[100,7085],[100,7170],[100,7248],[100,7337],[100,7419],[100,7498],[100,7585],[100,7667],[100,7748],[100,7832],[100,7920],[100,7998],[100,8086],[100,8165],[100,8248],[100,8336],[100,8419],[100,8498],[100,8584],[100,8669],[100,8748],[100,8831],[100,8915],[100,8998],[100,9082],[100,9165],[100,9248],[100,9336],[100,9419],[100,9498],[100,9585],[100,9670],[100,9750],[100,9836],[100,9917],[100,9998],[100,10082],[100,10165],[100,10248],[100,10334],[100,10419],[100,10498],[100,10582],[100,10668],[100,10748],[100,10836],[100,10920],[100,10998],[100,11086],[100,11169],[100,11248],[100,11331],[100,11415],[100,11498],[100,11585],[100,11665],[100,11748],[100,11837],[100,11918],[100,11998],[100,12086],[100,12169],[100,12248],[100,12336],[100,12415],[100,12498],[100,12584],[100,12667],[100,12748],[100,12835],[100,12919],[100,12998],[100,13084],[100,13170],[100,13248],[100,13334],[100,13415],[100,13498],[100,13584],[100,13668],[100,13748],[100,13832],[100,13918],[100,14000],[100,14086],[100,14170],[100,14248],[100,14336],[100,14419],[100,14498],[100,14584],[100,14667],[100,14748],[100,14835],[100,14919],[100,14998],[100,15086],[100,15165],[100,15248],[100,15336],[100,15418],[100,15498],[100,15584],[100,15670],[100,15748],[100,15835],[100,15918]]",1,0,154.804,159.904,100,2.739,"[{""rating"":98.828125,""responseTime"":1.8400000000000034},{""rating"":100,""responseTime"":2.7390000000000043}]",space,4.564,,159.904,Not at all,0,159.914,,,[],,0,1,1,1,1,audio/Narrative7Situation1.wav,audio/Narrative8Situation1.wav,audio/Narrative5Situation1.wav,audio/Narrative6Situation1.wav,2,5,5,2,3.572,,,,,,,,,,,,,,,,,,,,,,,,,,,,,,,,,,,,,,
,,,,,,663cfa8309ab946fcf1b6a9b,2024-05-13_10h39.32.299,group3.1-3.2-social-tom,2023.2.2,Win32,59.95203837,65c5074098b851296ff0b7ed,664233fac460a3834d6401d3,,,,,,,,,,,,,,,,,,,,,,,,,,,,,159.915,1,audio/Narrative8Situation2.wav,162.918,,162.918,173.052,"[[100,7172],[65.2,7256],[38.8,7415],[38.5,7506],[27.7,7583],[24,7668],[22.7,7753],[19.4,7833],[18.2,7922],[15.4,8000],[10.7,8087],[8.5,8170],[5.2,8251],[3.4,8333],[1.8,8421],[1.3,8500],[0.9,8583],[0.8,8667],[0.8,8754],[0.3,8836]]",1,0,173.053,181.438,3.645833333,6.942,"[{""rating"":3.6458333333333313,""responseTime"":6.941999999999979}]",space,7.835,,181.439,Partially,50,181.446,,,[],,0,2,2,2,1,audio/Narrative7Situation2.wav,audio/Narrative8Situation2.wav,audio/Narrative5Situation2.wav,audio/Narrative6Situation2.wav,3,3,3,3,,,,,,,,,,,,,,,,,,,,,,,,,,,,,,,,,,,,,,,
,,,,,,663cfa8309ab946fcf1b6a9b,2024-05-13_10h39.32.299,group3.1-3.2-social-tom,2023.2.2,Win32,59.95203837,65c5074098b851296ff0b7ed,664233fac460a3834d6401d3,,,,,,,,,,,,,,,,,,,,,,,,,,,,,181.447,1,audio/Narrative8Situation3.wav,185.452,,185.453,207.852,"[[999,0],[999,84],[999,168],[999,251],[999,332],[999,417],[999,498],[999,582],[999,665],[999,747],[999,834],[999,919],[999,1000],[999,1084],[999,1169],[999,1248],[999,1332],[999,1417],[999,1500],[999,1584],[999,1668],[999,1751],[999,1834],[999,1917],[999,2000],[999,2082],[999,2167],[999,2246],[999,2334],[999,2418],[999,2498],[999,2582],[999,2667],[999,2748],[999,2831],[999,2917],[999,3000],[999,3084],[999,3169],[999,3248],[999,3330],[999,3419],[999,3500],[999,3582],[999,3665],[999,3748],[999,3834],[999,3915],[999,3997],[999,4084],[999,4169],[999,4248],[999,4334],[999,4419],[999,4500],[999,4582],[999,4667],[999,4747],[999,4834],[999,4917],[999,5000],[999,5082],[999,5168],[999,5250],[999,5334],[999,5415],[999,5496],[999,5584],[999,5667],[999,5751],[999,5832],[999,5915],[999,5998],[999,6084],[999,6170],[999,6250],[999,6332],[999,6417],[999,6497],[999,6582],[999,6665],[999,6750],[999,6834],[999,6914],[999,7000],[999,7084],[999,7167],[999,7247],[999,7334],[999,7420],[999,7501],[999,7582],[999,7667],[999,7751],[999,7834],[999,7914],[999,8000],[999,8084],[999,8168],[999,8248],[999,8332],[999,8420],[999,8500],[999,8584],[999,8670],[999,8750],[999,8834],[999,8917],[999,8996],[999,9084],[999,9167],[999,9250],[999,9332],[999,9417],[999,9498],[999,9581],[999,9668],[999,9750],[999,9834],[999,9917],[999,10000],[999,10084],[999,10165],[999,10250],[81.4,10330],[85.5,10417],[87,10501],[89.5,10584],[89.5,10667],[91.5,10748],[92.1,10834],[92.6,10913],[93,11000],[93.8,11084],[95.4,11167],[96.2,11251],[96.6,11331],[98,11417],[98,11500],[98.6,11584],[99.2,11667],[99.2,11750],[99.2,11834],[99.2,11918],[99.2,11998],[99.2,12079],[99.2,12162],[99.2,12246],[99.2,12329],[99.5,12412],[99.9,12496],[100,12579],[100,12662],[100,12746],[100,12829],[100,12915],[100,13000],[100,13080],[100,13168],[100,13248],[100,13330],[100,13415],[100,13500],[100,13579],[100,13665],[100,13748],[100,13829],[100,13912],[100,13996],[100,14090],[100,14162],[100,14246],[100,14329],[100,14413],[100,14496],[100,14579],[100,14662],[100,14746],[100,14832],[100,14915],[100,14997],[100,15082],[100,15162],[100,15246],[100,15329],[100,15412],[100,15496],[100,15579],[100,15665],[100,15746],[100,15829],[100,15915],[100,16000],[100,16079],[100,16162],[100,16246],[100,16329],[100,16412],[100,16496],[100,16579],[100,16662],[100,16746],[100,16830],[100,16917],[100,16996],[100,17079],[100,17163],[100,17246],[100,17329],[100,17412],[100,17496],[100,17581],[100,17667],[100,17750],[100,17828],[100,17912],[100,17997],[100,18080],[100,18165],[100,18250],[100,18328],[100,18413],[100,18496],[100,18579],[100,18665],[100,18750],[100,18828],[100,18913],[100,18996],[100,19078],[100,19163],[100,19246],[100,19329],[100,19412],[100,19495],[100,19581],[100,19667],[100,19751],[100,19829],[100,19917],[100,19997],[100,20079],[100,20162],[100,20250],[100,20329],[100,20417],[100,20500],[100,20579],[100,20664],[100,20746],[100,20829],[100,20915],[100,20996],[100,21079],[100,21165],[100,21248],[100,21329],[100,21417],[100,21496],[100,21581],[100,21665],[100,21751],[100,21829],[100,21913],[100,21996],[100,22079],[100,22167],[100,22246],[100,22333]]",1,0,207.853,214.172,100,2.757,"[{""rating"":98.56770833333333,""responseTime"":1.8380000000000223},{""rating"":100,""responseTime"":2.757000000000005}]",space,5.786,,214.173,Not at all,0,214.183,,,[],,0,3,3,3,1,audio/Narrative7Situation3.wav,audio/Narrative8Situation3.wav,audio/Narrative5Situation3.wav,audio/Narrative6Situation3.wav,8,4,3,5,,,,,,,,,,,,,,,,,,,,,,,,,,,,,,,,,,,,,,,
,,,,,,663cfa8309ab946fcf1b6a9b,2024-05-13_10h39.32.299,group3.1-3.2-social-tom,2023.2.2,Win32,59.95203837,65c5074098b851296ff0b7ed,664233fac460a3834d6401d3,,,,,,,,,,,,,,,,,,,,,,,,,,,,,214.184,1,audio/Narrative8Situation4.wav,217.2,,217.2,231.384,"[[86.8,83],[83.5,168],[79.4,249],[77.9,333],[59.9,1504],[58.7,1583],[57.8,1672],[55.5,1752],[54.8,1833],[53,1920],[52.6,2002],[52.3,2083],[51.6,2168],[51.6,2252],[50.8,2333],[50.7,2418],[50.7,2499],[50.7,2583],[50.3,2667],[50.3,2752],[50.3,2833],[50.3,2918],[50.3,3002],[50.3,3081],[50.7,3170],[50.8,3252],[50.8,3333],[50.8,3415],[50.8,3504],[50.8,3581],[50.8,3668],[50.8,3754],[50.8,3833],[50.8,3917],[50.8,4004],[50.8,4083],[50.8,4173],[50.8,4254],[50.8,4333],[50.8,4418],[55.9,4499],[58.6,4583],[68.5,4667],[77.7,4754],[86.2,4833],[91.4,4917],[92.4,5004],[95.6,5081],[97.3,5168],[99.6,5252],[100,5333],[100,5415],[100,5504],[100,5581],[100,5668],[100,5754],[100,5833],[100,5920],[100,6004],[100,6081],[100,6170],[100,6254],[100,6333],[100,6418],[100,6502],[100,6583],[100,6665],[100,6752],[100,6831],[100,6920],[100,7002],[100,7081],[100,7167],[100,7254],[100,7331],[100,7417],[100,7502],[100,7583],[100,7667],[100,7754],[100,7833],[100,7920],[100,8002],[100,8083],[100,8168],[100,8252],[100,8331],[100,8417],[100,8504],[100,8583],[100,8668],[100,8750],[100,8833],[100,8918],[100,9002],[100,9083],[100,9170],[100,9252],[100,9333],[100,9417],[100,9502],[100,9583],[100,9668],[100,9749],[100,9831],[100,9918],[100,10004],[100,10081],[100,10165],[100,10247],[100,10331],[100,10417],[100,10504],[100,10581],[100,10668],[100,10752],[100,10831],[100,10920],[100,11002],[100,11081],[100,11165],[100,11249],[100,11331],[100,11415],[100,11500],[100,11584],[100,11665],[100,11752],[100,11833],[100,11920],[100,12004],[100,12081],[100,12168],[100,12251],[100,12331],[100,12415],[100,12502],[100,12581],[100,12670],[100,12750],[100,12834],[100,12920],[100,13004],[100,13081],[100,13167],[100,13254],[100,13333],[100,13417],[100,13501],[100,13581],[100,13668],[100,13752],[100,13833],[100,13918],[100,14002],[100,14083],[100,14168]]",1,0,231.385,234.683,99.47916667,2.456,"[{""rating"":99.47916666666667,""responseTime"":2.4560000000000173}]",space,2.762,,234.684,Partially,50,234.694,,,[],,0,4,4,4,1,audio/Narrative7Situation4.wav,audio/Narrative8Situation4.wav,audio/Narrative5Situation4.wav,audio/Narrative6Situation4.wav,3,3,1,2,,,,,,,,,,,,,,,,,,,,,,,,,,,,,,,,,,,,,,,
,,,,,,663cfa8309ab946fcf1b6a9b,2024-05-13_10h39.32.299,group3.1-3.2-social-tom,2023.2.2,Win32,59.95203837,65c5074098b851296ff0b7ed,664233fac460a3834d6401d3,,,,,,,,,,,,,,,,,,,,,,,,,,,,,234.695,1,audio/Narrative8Situation5.wav,236.698,,236.699,244.933,"[[99.3,834],[99.3,915],[99.3,1000],[99.3,1084],[99.3,1170],[99.3,1253],[99.3,1334],[99.3,1418],[99.3,1504],[99.3,1584],[99.3,1670],[99.3,1748],[99.3,1834],[99.3,1918],[99.3,2002],[99.3,2084],[99.3,2168],[99.9,2255],[100,2335],[100,2416],[100,2503],[100,2582],[100,2671],[100,2752],[100,2834],[100,2916],[100,3004],[100,3084],[100,3168],[100,3254],[100,3334],[100,3419],[100,3498],[100,3584],[100,3665],[100,3748],[100,3831],[100,3915],[100,4002],[100,4084],[100,4168],[100,4250],[100,4334],[100,4418],[100,4502],[100,4584],[100,4670],[100,4752],[100,4834],[100,4918],[100,5004],[100,5084],[100,5168],[100,5253],[100,5334],[100,5418],[100,5505],[100,5582],[100,5668],[100,5753],[100,5834],[100,5918],[100,6007],[100,6084],[100,6168],[100,6253],[100,6332],[100,6418],[100,6502],[100,6582],[100,6668],[100,6753],[100,6834],[100,6916],[100,7000],[100,7084],[100,7169],[100,7253],[100,7334],[100,7418],[100,7504],[100,7582],[100,7670],[100,7750],[100,7834],[100,7919],[100,8002],[100,8084],[100,8169]]",1,0,244.933,248.883,100,3.244,"[{""rating"":98.69791666666667,""responseTime"":2.5930000000000177},{""rating"":100,""responseTime"":3.244000000000028}]",space,3.419,,248.884,Not at all,0,248.894,,,[],,0,5,5,5,1,audio/Narrative7Situation5.wav,audio/Narrative8Situation5.wav,audio/Narrative5Situation5.wav,audio/Narrative6Situation5.wav,5,2,5,2,,,,,,,,,,,,,,,,,,,,,,,,,,,,,,,,,,,,,,,
,,,,,,663cfa8309ab946fcf1b6a9b,2024-05-13_10h39.32.299,group3.1-3.2-social-tom,2023.2.2,Win32,59.95203837,65c5074098b851296ff0b7ed,664233fac460a3834d6401d3,,,,,,,,,,,,,,,,,,,,,,,,,,,,,248.895,1,audio/Narrative8Situation6.wav,250.899,,250.899,257.368,"[[100,4087],[100,4170],[100,4254],[99.3,4332],[99.2,4420],[99.2,4500],[99.2,4584],[99.2,4668],[99.2,4754],[99.2,4834],[99.3,4918],[99.7,5004],[100,5082],[100,5168],[100,5250],[100,5334],[100,5418],[100,5504],[100,5584],[100,5668],[100,5750],[100,5834],[100,5920],[100,5998],[100,6084],[100,6168],[100,6254],[100,6332],[100,6418]]",1,0,257.368,261.318,99.34895833,1.155,"[{""rating"":99.34895833333333,""responseTime"":1.1550000000000296}]",space,3.419,,261.319,Partially,50,261.328,,,[],,0,6,6,6,1,audio/Narrative7Situation6.wav,audio/Narrative8Situation6.wav,audio/Narrative5Situation6.wav,audio/Narrative6Situation6.wav,3,2,3,2,,,,,,,,,,,,,,,,,,,,,,,,,,,,,,,,,,,,,,,
,,,,,,663cfa8309ab946fcf1b6a9b,2024-05-13_10h39.32.299,group3.1-3.2-social-tom,2023.2.2,Win32,59.95203837,65c5074098b851296ff0b7ed,664233fac460a3834d6401d3,,,,,,,,,,,,,,,,,,,,,,,,,,,,,261.329,1,audio/Narrative8Situation7.wav,264.332,,264.332,276.418,"[[999,2],[999,84],[999,165],[999,250],[999,334],[999,418],[999,500],[999,584],[999,668],[999,750],[999,836],[999,918],[999,1000],[999,1084],[999,1170],[999,1247],[999,1336],[999,1418],[999,1500],[999,1583],[999,1665],[999,1747],[999,1831],[999,1915],[999,1997],[999,2081],[999,2165],[999,2250],[999,2334],[999,2413],[999,2497],[999,2581],[999,2665],[999,2747],[999,2831],[999,2916],[999,2999],[999,3081],[78.5,3165],[81.3,3247],[82.6,3331],[84.8,3415],[88.4,3499],[91.4,3581],[94,3670],[94.4,3747],[95.1,3831],[95.3,3916],[95.7,4000],[96,4081],[96.5,4165],[98.7,4247],[99.3,4334],[99.6,4422],[100,4500],[100,4586],[100,4665],[100,4747],[100,4834],[100,4915],[100,4999],[100,5084],[100,5165],[100,5247],[100,5331],[100,5415],[100,5499],[100,5581],[100,5663],[100,5750],[100,5836],[100,5920],[100,5997],[100,6081],[100,6163],[100,6249],[100,6331],[100,6415],[100,6497],[100,6581],[100,6663],[100,6747],[100,6831],[100,6915],[100,6997],[100,7081],[100,7165],[100,7247],[100,7331],[100,7416],[100,7500],[100,7584],[100,7670],[100,7747],[100,7836],[100,7918],[100,8000],[100,8084],[100,8172],[100,8247],[100,8336],[100,8420],[100,8500],[100,8583],[100,8666],[100,8752],[100,8831],[100,8918],[100,8997],[100,9084],[100,9170],[100,9249],[100,9333],[100,9416],[100,9500],[99.9,9584],[99.9,9668],[99.7,9747],[97.9,9834],[97.9,9920],[97.9,10000],[97.9,10084],[97.9,10170],[97.9,10250],[97.9,10331],[96.6,10416],[96.6,10500],[96.6,10584],[95.4,10668],[95.1,10750],[95.1,10834],[95.1,10916],[95.1,11000],[95.1,11086],[95.1,11165],[95.1,11250],[95.1,11336],[95.1,11418],[95.1,11497],[95.1,11584],[95.3,11668],[95.7,11754],[96.6,11833],[96.6,11918],[96.6,12000],[97,12086]]",1,0,276.418,278.219,99.47916667,0.988,"[{""rating"":99.47916666666667,""responseTime"":0.9879999999999995}]",space,1.262,,278.219,Not at all,0,278.226,,,[],,0,7,7,7,1,audio/Narrative7Situation7.wav,audio/Narrative8Situation7.wav,audio/Narrative5Situation7.wav,audio/Narrative6Situation7.wav,5,3,4,5,,,,,,,,,,,,,,,,,,,,,,,,,,,,,,,,,,,,,,,
,,,,,,663cfa8309ab946fcf1b6a9b,2024-05-13_10h39.32.299,group3.1-3.2-social-tom,2023.2.2,Win32,59.95203837,65c5074098b851296ff0b7ed,664233fac460a3834d6401d3,,,,,,,,,,,,,,,,,,,,,,,,,,,,,278.227,1,audio/Narrative8Situation8.wav,281.232,,281.232,294.096,"[[999,2],[999,84],[999,167],[999,251],[999,333],[999,417],[999,500],[999,584],[999,667],[999,748],[999,833],[999,919],[999,1000],[999,1085],[999,1165],[999,1251],[999,1334],[999,1419],[999,1497],[999,1582],[999,1665],[999,1752],[999,1835],[999,1919],[999,2003],[999,2084],[94,2164],[97.8,2251],[98.8,2335],[99,2415],[99,2502],[99,2581],[99,2669],[99,2752],[99,2831],[99,2917],[99,3002],[99,3085],[99,3171],[97,3252],[87.8,3334],[75.8,3419],[65,3502],[58.6,3584],[55.5,3671],[53,3752],[51.4,3835],[51.3,3914],[51.3,4000],[49.6,4081],[48.2,4171],[47.8,4251],[47.7,4332],[46.5,4414],[46.5,4500],[46.5,4580],[46.5,4668],[39.8,4752],[32,4835],[24.2,4917],[17.6,5001],[11.3,5083],[3.8,5165],[8.9,10414],[37.6,10833],[40.1,10918],[41.9,11003],[43.8,11081],[47.7,11167],[51.8,11251],[54.4,11331],[56.6,11415],[56.6,11501],[56.6,11581],[56.6,11667],[56.6,11751],[56.6,11831],[56.6,11920],[56.6,11998],[63.3,12081],[71.6,12168],[75.9,12253],[78.6,12331],[80.6,12415],[80.6,12498],[80.6,12580],[80.5,12663],[80.5,12753],[80.2,12832]]",1,0,294.097,306.134,49.73958333,11.615,"[{""rating"":79.81770833333333,""responseTime"":1.393000000000029},{""rating"":93.88020833333333,""responseTime"":6.182000000000016},{""rating"":79.16666666666667,""responseTime"":10.093000000000018},{""rating"":49.73958333333333,""responseTime"":11.615000000000009}]",space,11.488,,306.135,Definitely yes,100,306.147,,,[],,0,8,8,8,1,audio/Narrative7Situation8.wav,audio/Narrative8Situation8.wav,audio/Narrative5Situation8.wav,audio/Narrative6Situation8.wav,2,3,3,5,,,,,,,,,,,,,,,,,,,,,,,,,,,,,,,,,,,,,,,
,,,,,,663cfa8309ab946fcf1b6a9b,2024-05-13_10h39.32.299,group3.1-3.2-social-tom,2023.2.2,Win32,59.95203837,65c5074098b851296ff0b7ed,664233fac460a3834d6401d3,,,,,,,,,,,,,,,,,,,,,,,,,,,,,306.148,1,audio/Narrative8Situation9.wav,309.15,,309.15,320.464,"[[50.3,11249]]",1,0,320.464,324.949,99.21875,3.707,"[{""rating"":99.21875,""responseTime"":3.7069999999999936}]",space,3.954,,324.949,Not at all,0,324.957,,,[],,0,9,9,9,1,audio/Narrative7Situation9.wav,audio/Narrative8Situation9.wav,audio/Narrative5Situation9.wav,audio/Narrative6Situation9.wav,2,3,3,4,,,,,,,,,,,,,,,,,,,,,,,,,,,,,,,,,,,,,,,
,,,,,,663cfa8309ab946fcf1b6a9b,2024-05-13_10h39.32.299,group3.1-3.2-social-tom,2023.2.2,Win32,59.95203837,65c5074098b851296ff0b7ed,664233fac460a3834d6401d3,,,,,,,,,,,,,,,,,,,,,,,,,,,,,324.958,1,audio/Narrative7Situation1.wav,326.963,,326.963,382.868,"[[100,14500],[95.3,15085],[93.4,15169],[92.1,15248],[92.1,15334],[92.1,15416],[92.2,15503],[92.7,15580],[93.6,15665],[96,15751],[96.4,15831],[96.4,15915],[96.4,15999],[96.6,16082],[97.1,16168],[97.7,16250],[97.8,16333],[97.8,16416],[97.8,16500],[97.8,16583],[97.8,16667],[97.7,16749],[97.7,16835],[97.1,16914],[96.9,17000],[96.9,17083],[96.9,17166],[96.9,17249],[96.9,17334],[96.9,17419],[96.9,17497],[96.9,17583],[96.9,17664],[96.9,17747],[96.9,17835],[96.9,17918],[96.9,18001],[96.9,18083],[96.9,18170],[96.9,18247],[96.9,18333],[96.9,18414],[96.9,18499],[96.7,18585],[96.6,18670],[96.4,18749],[96.2,18835],[94.1,18916],[94.1,19000],[94.1,19083],[94.1,19167],[94.1,19250],[94.1,19333],[94.1,19416],[94.1,19501],[94.1,19585],[94.1,19667],[94.1,19750],[94.1,19830],[94.1,19916],[94.1,20000],[94.1,20083],[94.1,20164],[94.1,20251],[94.1,20330],[94.1,20417],[94.1,20497],[94.1,20583],[94.1,20670],[94.1,20749],[94.1,20835],[94.1,20920],[94.1,21000],[94.1,21083],[94.1,21168],[94.1,21247],[94.1,21333],[94.1,21416],[94.1,21500],[94.1,21583],[94.1,21666],[94.1,21751],[94.1,21833],[94.1,21916],[94.1,21998],[94.1,22082],[94.1,22167],[94.1,22251],[94.1,22331],[94.1,22417],[94.1,22500],[94.1,22583],[94.1,22664],[94.1,22751],[94.1,22834],[94.1,22920],[94.1,23000],[94.1,23083],[94.1,23169],[94.1,23251],[94.1,23335],[94.1,23414],[94.1,23500],[94.1,23582],[94.1,23669],[94.1,23750],[94.1,23830],[94.1,23918],[94.1,23998],[94.1,24084],[94.1,24169],[94.1,24249],[94.1,24334],[94.1,24416],[94.1,24498],[94.1,24582],[94.1,24666],[94.1,24750],[94.1,24832],[94.1,24918],[94.1,24999],[94.1,25085],[94.1,25170],[94.1,25250],[94.1,25334],[94.1,25420],[94.1,25500],[94.1,25583],[94.1,25667],[94.1,25750],[94.1,25834],[94.1,25915],[94.1,25997],[94.1,26082],[94.1,26167],[94.1,26250],[94.1,26333],[94.1,26419],[94.1,26500],[94.1,26586],[94.1,26667],[94.1,26750],[94.1,26834],[94.1,26917],[94.1,26998],[90.1,27084],[88.8,27167],[87.4,27251],[85.5,27332],[85.5,27415],[85.5,27499],[85.5,27584],[85.5,27663],[85.5,27747],[85.5,27834],[85.5,27919],[85.5,27999],[85.5,28083],[85.5,28168],[85.5,28250],[85.5,28334],[85.5,28416],[85.5,28497],[85.5,28584],[85.5,28668],[85.5,28749],[85.5,28831],[85.5,28916],[85.5,29001],[85.5,29083],[85.5,29168],[85.5,29247],[85.5,29334],[85.5,29417],[85.5,29500],[85.5,29580],[85.5,29666],[85.5,29750],[85.5,29830],[85.5,29914],[85.5,30000],[85.5,30083],[85.5,30169],[85.5,30247],[85.5,30330],[85.5,30416],[85.5,30499],[85.5,30579],[85.5,30665],[85.5,30750],[85.5,30834],[85.5,30916],[85.5,31000],[85.5,31082],[85.5,31169],[85.5,31249],[85.5,31330],[85.5,31416],[85.5,31500],[85.5,31583],[85.5,31666],[85.5,31750],[85.5,31829],[85.5,31916],[85.5,32000],[85.5,32079],[85.5,32168],[85.5,32249],[85.5,32334],[85.5,32413],[85.5,32501],[85.5,32580],[85.5,32666],[85.5,32750],[85.5,32830],[85.5,32916],[85.5,33000],[85.5,33084],[85.5,33168],[85.5,33250],[85.5,33330],[85.5,33418],[85.5,33497],[85.5,33579],[85.5,33667],[85.5,33750],[85.5,33830],[85.5,33918],[85.5,34000],[85.5,34080],[85.5,34166],[85.5,34247],[85.5,34330],[85.5,34418],[85.5,34500],[85.5,34580],[85.5,34666],[85.5,34749],[85.5,34829],[85.5,34917],[89.1,35001],[95.3,35082],[95.4,35165],[95.6,35250],[95.6,35330],[96,35419],[99.2,35500],[99.2,35582],[99.2,35666],[99.2,35746],[99.2,35834],[99.2,35916],[99.2,35999],[99.2,36079],[99.2,36165],[99.2,36248],[99.2,36333],[99.2,36417],[99.2,36499],[99.2,36583],[99.2,36667],[99.2,36750],[99.2,36830],[99.2,36915],[99.2,37001],[99.2,37080],[99.2,37164],[99.2,37250],[99.2,37330],[99.2,37419],[99.2,37500],[99.2,37580],[99.2,37666],[99.2,37750],[99.2,37830],[99.2,37914],[99.2,38000],[99.2,38080],[99.2,38168],[99.2,38247],[99.2,38330],[99.2,38418],[99.2,38499],[99.2,38580],[99.2,38665],[99.2,38750],[99.2,38830],[99.2,38913],[99.2,39001],[99.2,39080],[99.2,39166],[99.2,39250],[99.2,39330],[99.2,39416],[99.2,39500],[99.2,39579],[99.2,39666],[99.2,39750],[99.2,39829],[99.2,39919],[99.2,40001],[99.2,40080],[99.2,40167],[99.2,40249],[99.2,40329],[99.2,40416],[99.2,40501],[99.2,40580],[99.2,40667],[99.2,40746],[99.2,40829],[99.2,40916],[99.2,41000],[99.2,41080],[99.2,41166],[99.2,41250],[99.2,41330],[99.2,41415],[99.2,41500],[99.2,41579],[99.2,41668],[99.2,41750],[99.2,41829],[99.2,41917],[99.2,42000],[99.2,42079],[99.2,42167],[99.2,42250],[99.2,42330],[99.2,42416],[99.2,42500],[99.2,42579],[99.2,42667],[99.2,42750],[99.2,42829],[99.2,42916],[99.2,43000],[99.2,43079],[99.2,43165],[99.2,43247],[99.2,43329],[99.2,43416],[99.2,43501],[99.2,43579],[99.2,43667],[99.2,43749],[99.2,43829],[99.2,43915],[99.2,43999],[99.2,44080],[99.2,44168],[99.2,44250],[99.2,44329],[99.2,44418],[99.2,44501],[99.2,44580],[99.2,44666],[99.2,44749],[99.2,44830],[99.2,44917],[99.2,45000],[99.2,45080],[99.2,45168],[99.2,45250],[99.2,45329],[99.2,45415],[99.2,45500],[99.7,45581],[100,45665],[100,45750],[100,45830],[100,45915],[100,46002],[100,46080],[100,46166],[100,46249],[100,46330],[100,46417],[100,46496],[100,46580],[100,46666],[100,46749],[100,46830],[100,46913],[100,47000],[100,47080],[100,47166],[100,47250],[100,47329],[100,47415],[100,47496],[100,47580],[100,47666],[100,47751],[100,47830],[100,47915],[100,48000],[100,48079],[100,48167],[100,48250],[100,48329],[100,48415],[100,48500],[100,48579],[100,48668],[100,48750],[100,48829],[100,48912],[100,49000],[100,49079],[100,49167],[100,49249],[100,49329],[100,49418],[100,49500],[100,49580],[100,49667],[100,49750],[100,49829],[100,49916],[100,50000],[100,50079],[100,50165],[100,50250],[100,50330],[100,50417],[100,50501],[100,50579],[100,50665],[100,50746],[100,50829],[100,50916],[100,51000],[100,51080],[100,51165],[100,51250],[100,51330],[100,51428],[100,51501],[100,51580],[100,51666],[100,51751],[100,51830],[100,51917],[100,52000],[100,52080],[100,52163],[100,52251],[100,52329],[100,52415],[100,52496],[100,52580],[100,52667],[100,52750],[100,52830],[100,52912],[100,53000],[100,53080],[100,53167],[100,53246],[100,53330],[100,53415],[100,53501],[100,53580],[100,53667],[100,53748],[100,53830],[100,53917],[100,53997],[100,54080],[100,54165],[100,54250],[100,54330],[100,54417],[100,54500],[100,54581],[100,54667],[100,54746],[100,54829],[100,54916],[100,54998],[100,55080],[100,55167],[100,55251],[100,55329],[100,55415],[100,55499],[100,55580],[100,55667],[100,55750],[100,55829]]",1,0,382.869,386.73,99.609375,2.732,"[{""rating"":99.609375,""responseTime"":2.731999999999971}]",space,3.321,,386.732,Definitely yes,100,386.744,,,[],,0,10,10,10,1,audio/Narrative8Situation1.wav,audio/Narrative7Situation1.wav,audio/Narrative6Situation1.wav,audio/Narrative5Situation1.wav,5,2,2,5,,,,,,,,,,,,,,,,,,,,,,,,,,,,,,,,,,,,,,,
,,,,,,663cfa8309ab946fcf1b6a9b,2024-05-13_10h39.32.299,group3.1-3.2-social-tom,2023.2.2,Win32,59.95203837,65c5074098b851296ff0b7ed,664233fac460a3834d6401d3,,,,,,,,,,,,,,,,,,,,,,,,,,,,,386.745,1,audio/Narrative7Situation2.wav,389.764,,389.764,397.229,"[[999,2],[999,96],[999,178],[999,264],[999,347],[999,427],[999,514],[999,598],[999,678],[999,762],[999,846],[999,928],[999,1014],[999,1096],[999,1178],[999,1262],[999,1348],[999,1428],[999,1512],[999,1598],[999,1678],[999,1764],[999,1846],[999,1928],[999,2012],[999,2099],[999,2178],[999,2262],[999,2349],[999,2428],[999,2514],[999,2596],[999,2677],[999,2764],[999,2846],[999,2928],[999,3010],[999,3098],[999,3177],[999,3262],[999,3344],[999,3428],[999,3512],[999,3598],[999,3678],[999,3764],[999,3844],[999,3928],[999,4015],[999,4097],[999,4178],[999,4262],[999,4347],[999,4428],[999,4512],[999,4596],[999,4677],[999,4762],[999,4846],[999,4928],[999,5012],[999,5097],[999,5177],[999,5264],[999,5349],[999,5428],[999,5512],[999,5597],[999,5677],[999,5764],[999,5846],[999,5928],[999,6015],[999,6099],[999,6178],[999,6260],[999,6348],[999,6428],[999,6512],[999,6594],[999,6678],[999,6764],[999,6847],[999,6927],[999,7010],[999,7098],[999,7178],[999,7264],[999,7346],[999,7428]]",1,0,397.229,401.091,99.86979167,3.438,"[{""rating"":99.86979166666667,""responseTime"":3.437999999999988}]",space,3.332,,401.091,Definitely yes,100,401.096,,,[],,0,11,11,11,1,audio/Narrative8Situation2.wav,audio/Narrative7Situation2.wav,audio/Narrative6Situation2.wav,audio/Narrative5Situation2.wav,3,3,3,3,,,,,,,,,,,,,,,,,,,,,,,,,,,,,,,,,,,,,,,
,,,,,,663cfa8309ab946fcf1b6a9b,2024-05-13_10h39.32.299,group3.1-3.2-social-tom,2023.2.2,Win32,59.95203837,65c5074098b851296ff0b7ed,664233fac460a3834d6401d3,,,,,,,,,,,,,,,,,,,,,,,,,,,,,401.097,1,audio/Narrative7Situation3.wav,409.11,,409.11,418.36,"[[95.3,246],[56.1,1334],[52.9,1418],[52.9,1497],[53,1582],[52.9,1666],[50.7,1751],[47.7,1831],[47,1915],[47,2002],[47.7,2084],[49.2,2168],[49.2,2246],[49.2,2332],[49.9,2418],[50,2500],[50,2582],[50.3,2665],[50.3,2750],[50.3,2832],[50.3,2915],[50.3,3000],[50.3,3082],[51.8,3168],[55.5,3252],[59.1,3334],[62.6,3416],[63.3,3498],[63.3,3581],[59.9,3666],[48.2,3752],[20.3,4252],[16.4,4332],[12.2,4416],[9.9,4497],[7,4582],[6.3,4665],[4.9,4752],[3.6,4834],[2.9,4916],[1.6,5001],[3.9,5500],[12.6,5582],[23.7,5666],[86.5,6251],[82,6332],[74.2,6415],[66,6500],[53.9,6582],[37.4,6666],[19.8,6752]]",1,0,418.362,423.393,0,4.12,"[{""rating"":0,""responseTime"":4.1200000000000045}]",space,4.503,,423.394,Definitely yes,100,423.403,,,[],,0,12,12,12,1,audio/Narrative8Situation3.wav,audio/Narrative7Situation3.wav,audio/Narrative6Situation3.wav,audio/Narrative5Situation3.wav,4,8,5,3,,,,,,,,,,,,,,,,,,,,,,,,,,,,,,,,,,,,,,,
,,,,,,663cfa8309ab946fcf1b6a9b,2024-05-13_10h39.32.299,group3.1-3.2-social-tom,2023.2.2,Win32,59.95203837,65c5074098b851296ff0b7ed,664233fac460a3834d6401d3,,,,,,,,,,,,,,,,,,,,,,,,,,,,,423.404,1,audio/Narrative7Situation4.wav,426.41,,426.41,438.125,"[[999,5],[999,82],[999,166],[999,252],[999,332],[999,415],[999,497],[999,580],[999,666],[999,752],[999,830],[999,913],[999,1003],[999,1082],[999,1163],[999,1250],[999,1334],[999,1415],[999,1502],[999,1583],[999,1667],[999,1749],[999,1832],[999,1918],[999,2000],[999,2083],[999,2166],[999,2252],[999,2330],[999,2415],[999,2501],[999,2582],[999,2663],[999,2749],[999,2833],[999,2918],[999,2999],[999,3083],[999,3167],[999,3251],[999,3332],[999,3413],[999,3499],[999,3582],[999,3669],[999,3747],[999,3834],[999,3917],[999,4003],[999,4084],[999,4164],[999,4252],[999,4332],[999,4415],[999,4496],[999,4584],[999,4666],[999,4749],[999,4833],[999,4913],[999,5002],[999,5083],[999,5167],[999,5249],[999,5333],[999,5415],[999,5500],[999,5584],[999,5666],[999,5749],[999,5833],[999,5917],[999,5998],[999,6083],[999,6167],[999,6251],[999,6333],[999,6413],[999,6500],[999,6583],[999,6667],[999,6749],[999,6833],[999,6917],[999,7002],[999,7083],[999,7165],[999,7249],[999,7333],[999,7414],[999,7498],[999,7582],[999,7667],[999,7751],[999,7830],[999,7917],[999,8000],[999,8082],[999,8162],[999,8250],[999,8332],[999,8414],[999,8501],[999,8582],[999,8667],[999,8752],[999,8833],[999,8912],[999,9002],[999,9082],[999,9166],[999,9247],[999,9333],[999,9416],[999,9501],[999,9580],[999,9664],[999,9750],[999,9833],[999,9916],[999,10000],[999,10083],[999,10167],[999,10251],[999,10330],[999,10416],[999,10498],[999,10582],[999,10666],[999,10749],[999,10834],[999,10915],[999,10999],[999,11079],[999,11163],[999,11250],[999,11334],[999,11413],[999,11496],[999,11580],[3,11663]]",1,0,438.125,440.523,0.260416667,0.906,"[{""rating"":0.2604166666666685,""responseTime"":0.9060000000000059}]",space,1.854,,440.523,Not at all,0,440.536,,,[],,0,13,13,13,1,audio/Narrative8Situation4.wav,audio/Narrative7Situation4.wav,audio/Narrative6Situation4.wav,audio/Narrative5Situation4.wav,3,3,2,1,,,,,,,,,,,,,,,,,,,,,,,,,,,,,,,,,,,,,,,
,,,,,,663cfa8309ab946fcf1b6a9b,2024-05-13_10h39.32.299,group3.1-3.2-social-tom,2023.2.2,Win32,59.95203837,65c5074098b851296ff0b7ed,664233fac460a3834d6401d3,,,,,,,,,,,,,,,,,,,,,,,,,,,,,440.537,1,audio/Narrative7Situation5.wav,445.544,,445.544,454.046,"[[999,2],[999,78],[999,163],[53.8,247],[62.8,497],[44.7,995],[44.7,1078],[44.7,1163],[44.7,1247],[44.7,1328],[44.7,1415],[44.7,1496],[44.7,1578],[44.7,1665],[44.7,1749],[44.7,1829],[44.7,1913],[44.7,1999],[44.7,2081],[44.7,2162],[44.7,2245],[44.7,2328],[44.7,2415],[44.7,2496],[44.7,2578],[44.7,2667],[44.7,2749],[44.7,2828],[44.7,2915],[44.7,2995],[44.7,3079],[44.7,3165],[44.7,3250],[44.7,3328],[44.7,3415],[44.7,3495],[44.7,3578],[44.7,3667],[44.7,3749],[44.7,3828],[44.7,3913],[44.7,3999],[44.7,4078],[44.7,4165],[44.7,4247],[44.7,4328],[44.7,4415],[44.7,4499],[44.7,4579],[44.7,4665],[44.7,4749],[44.7,4829],[44.7,4917],[44.7,5000],[44.7,5079],[44.7,5165],[44.7,5247],[44.7,5328],[44.7,5415],[44.7,5499],[44.7,5579],[44.7,5665],[44.7,5746],[44.7,5829],[44.7,5913],[44.7,5999],[44.7,6078],[44.7,6167],[44.7,6246],[44.7,6326],[44.7,6415],[44.7,6495],[44.7,6579],[44.7,6663],[44.7,6747],[44.7,6829],[44.7,6915],[44.7,6999],[44.7,7079],[44.7,7165],[44.7,7246],[44.7,7329],[44.7,7415],[44.7,7497],[44.7,7578],[44.7,7661],[44.7,7750],[44.7,7829],[44.7,7915],[44.7,7997],[44.7,8079],[44.7,8165],[44.7,8247],[44.7,8329],[44.7,8415],[44.7,8499]]",1,0,454.046,456.71,1.432291667,1.336,"[{""rating"":1.4322916666666685,""responseTime"":1.3360000000000127}]",space,2.118,,456.71,Not at all,0,456.719,,,[],,0,14,14,14,1,audio/Narrative8Situation5.wav,audio/Narrative7Situation5.wav,audio/Narrative6Situation5.wav,audio/Narrative5Situation5.wav,2,5,2,5,,,,,,,,,,,,,,,,,,,,,,,,,,,,,,,,,,,,,,,
,,,,,,663cfa8309ab946fcf1b6a9b,2024-05-13_10h39.32.299,group3.1-3.2-social-tom,2023.2.2,Win32,59.95203837,65c5074098b851296ff0b7ed,664233fac460a3834d6401d3,,,,,,,,,,,,,,,,,,,,,,,,,,,,,456.72,1,audio/Narrative7Situation6.wav,459.723,,459.723,469.711,"[[11.7,1500],[11.7,1582],[77.7,2168],[86.7,2248],[94,2334],[94,2419],[94.4,2498],[95.7,2582],[95.8,2670],[96.7,2748],[96.9,2834],[98.2,2915],[98.4,2998],[98.4,3084],[100,3169],[100,3250],[100,3334],[100,3420],[100,3500],[100,3586],[100,3668],[100,3748],[99.1,3834],[99.1,3918],[99.1,4000],[99.1,4084],[99.1,4168],[99.1,4248],[99.1,4331],[100,4419],[100,4498],[100,4580],[100,4666],[100,4750],[100,4831],[100,4914],[100,4998],[100,5084],[100,5165],[99.9,5248],[99.9,5331],[99.9,5414],[99.9,5498],[99.9,5581],[99.9,5664],[99.9,5748],[99.9,5834],[99.9,5918],[99.9,6000],[99.9,6081],[99.9,6166],[99.9,6248],[99.9,6334],[99.9,6414],[99.9,6498],[99.9,6584],[99.9,6668],[99.9,6748],[99.9,6830],[99.9,6914],[99.9,7000],[99.9,7086],[99.9,7168],[99.9,7248],[99.9,7331],[99.9,7414],[99.9,7497],[99.9,7581],[99.9,7664],[99.9,7747],[99.9,7831],[99.9,7914],[99.9,7998],[99.9,8084],[99.9,8163],[99.9,8248],[99.9,8334],[99.9,8414],[99.9,8498],[99.9,8586],[99.9,8664],[99.9,8747],[99.9,8831],[99.9,8915],[99.9,8998],[99.9,9081],[99.9,9169],[99.9,9250],[99.9,9334],[99.9,9420],[99.9,9499],[99.9,9586],[99.9,9668],[99.9,9749],[99.9,9834],[99.9,9917]]",1,0,469.711,471.359,99.86979167,0.112,"[{""rating"":99.86979166666667,""responseTime"":0.11199999999996635}]",space,1.112,,471.359,Definitely yes,100,471.37,,,[],,0,15,15,15,1,audio/Narrative8Situation6.wav,audio/Narrative7Situation6.wav,audio/Narrative6Situation6.wav,audio/Narrative5Situation6.wav,2,3,2,3,,,,,,,,,,,,,,,,,,,,,,,,,,,,,,,,,,,,,,,
,,,,,,663cfa8309ab946fcf1b6a9b,2024-05-13_10h39.32.299,group3.1-3.2-social-tom,2023.2.2,Win32,59.95203837,65c5074098b851296ff0b7ed,664233fac460a3834d6401d3,,,,,,,,,,,,,,,,,,,,,,,,,,,,,471.372,1,audio/Narrative7Situation7.wav,476.373,,476.374,493.559,"[[100,499],[100,586],[100,669],[100,747],[100,832],[100,916],[100,997],[100,1082],[100,1168],[100,1247],[100,1332],[100,1416],[100,1497],[100,1582],[100,1666],[100,1749],[100,1832],[100,1913],[100,1999],[100,2081],[100,2168],[100,2247],[100,2332],[100,2419],[100,2497],[100,2584],[100,2664],[100,2747],[100,2831],[100,2919],[100,2999],[100,3083],[100,3168],[100,3247],[90.4,3916],[87.5,3997],[85.2,4081],[79.3,4163],[74.2,4249],[65.4,4333],[59.1,4418],[56.5,4497],[51.7,4582],[50.1,4664],[48.7,4750],[48.3,4831],[48.3,4916],[48.3,4997],[48.7,5086],[49.2,5168],[52.1,5247],[55.6,5331],[59.6,5413],[62.4,5497],[68.9,5584],[81,5666],[85.4,5747],[90.1,5833],[92.1,5915],[93.1,5997],[94.1,6083],[95.7,6165],[96.1,6247],[96.2,6333],[97.5,6419],[97.5,6499],[97.5,6582],[97.8,6664],[98.3,6749],[98.3,6833],[98.3,6915],[98.7,6997],[99,7084],[99,7166],[99,7249],[99,7329],[99,7418],[99,7501],[99,7583],[99,7668],[99,7749],[99,7832],[99,7918],[99,7997],[99,8079],[99,8166],[99,8247],[99,8334],[99,8414],[99,8497],[99,8582],[99,8668],[99,8747],[99,8831],[99,8918],[99,8997],[99,9082],[99,9166],[99,9249],[99,9336],[99,9418],[99,9496],[99,9582],[99,9668],[99,9747],[99,9831],[99,9915],[99,9999],[99,10084],[99,10163],[99,10249],[99,10333],[99,10418],[99,10497],[99,10582],[99,10669],[99,10749],[99,10832],[99,10915],[99,10999],[99,11083],[99,11164],[99,11247],[99,11331],[99,11418],[99,11497],[99,11581],[99,11669],[99,11746],[99,11832],[99,11918],[99,11997],[99,12081],[99,12165],[99,12247],[99,12333],[99,12414],[99,12499],[99,12584],[99,12668],[99,12747],[99,12832],[99,12915],[99,12999],[99,13084],[99,13165],[99,13249],[99,13334],[99,13418],[99,13497],[99,13581],[99,13669],[99,13747],[99,13831],[99,13918],[99,13997],[99,14081],[99,14165],[99,14249],[99,14333],[99,14415],[99,14497],[99,14581],[99,14668],[99,14747],[99,14831],[99,14914],[99,14997],[99,15082],[99,15168],[99,15249],[99,15331],[99,15415],[99,15497],[99,15581],[99,15663],[99,15749],[99,15834],[99,15915],[99,15999],[99,16078],[99,16164],[99,16249],[99,16332],[99,16413],[99,16497],[99,16583],[99,16666],[99,16745],[99,16833],[99,16915],[99,16997],[99,17082],[99,17168]]",1,0,493.56,495.309,99.21875,0.939,"[{""rating"":99.21875,""responseTime"":0.9389999999999645}]",space,1.204,,495.309,Not at all,0,495.318,,,[],,0,16,16,16,1,audio/Narrative8Situation7.wav,audio/Narrative7Situation7.wav,audio/Narrative6Situation7.wav,audio/Narrative5Situation7.wav,3,5,5,4,,,,,,,,,,,,,,,,,,,,,,,,,,,,,,,,,,,,,,,
,,,,,,663cfa8309ab946fcf1b6a9b,2024-05-13_10h39.32.299,group3.1-3.2-social-tom,2023.2.2,Win32,59.95203837,65c5074098b851296ff0b7ed,664233fac460a3834d6401d3,,,,,,,,,,,,,,,,,,,,,,,,,,,,,495.319,1,audio/Narrative7Situation8.wav,497.323,,497.323,507.357,"[[99,1416],[99,1500],[99,1581],[99,1668],[99,1749],[99,1832],[99,1917],[99,1999],[99,2085],[99,2169],[99,2249],[99,2331],[99,2416],[99,2499],[99,2585],[99,2667],[99,2749],[99,2834],[99,2916],[99,2998],[99,3082],[99,3169],[99,3247],[99,3334],[99,3416],[99,3499],[99,3581],[99,3666],[99,3749],[99,3834],[99,3917],[99,3997],[99,4084],[99,4168],[99,4250],[99,4334],[99,4416],[99,4499],[99,4584],[99,4669],[99,4750],[99,4835],[99,4918],[99,4999],[99,5085],[99,5168],[99,5249],[99,5334],[99,5419],[99,5498],[99,5582],[99,5668],[99,5749],[100,5831],[100,5913],[100,6000],[100,6250],[100,6334],[100,6418],[100,6497],[100,6581],[100,6667],[100,6749],[100,6834],[100,6917],[100,7000],[100,7085],[100,7171],[100,7249],[100,7331],[100,7417],[100,7500],[100,7582],[100,7668],[100,7750],[100,7834],[100,7917],[100,7997],[100,8081],[100,8169],[100,8250],[100,8332],[100,8417],[100,8499],[100,8584],[100,8663],[100,8750],[100,8834],[100,8919],[100,8999],[100,9081],[100,9169],[100,9250],[100,9332],[100,9417],[100,9498],[100,9584],[100,9666],[100,9749],[100,9831],[100,9914],[100,10000]]",1,0,507.357,511.622,99.73958333,3.457,"[{""rating"":99.73958333333333,""responseTime"":3.4569999999999936}]",space,3.721,,511.622,Definitely yes,100,511.629,,,[],,0,17,17,17,1,audio/Narrative8Situation8.wav,audio/Narrative7Situation8.wav,audio/Narrative6Situation8.wav,audio/Narrative5Situation8.wav,3,2,5,3,,,,,,,,,,,,,,,,,,,,,,,,,,,,,,,,,,,,,,,
,,,,,,663cfa8309ab946fcf1b6a9b,2024-05-13_10h39.32.299,group3.1-3.2-social-tom,2023.2.2,Win32,59.95203837,65c5074098b851296ff0b7ed,664233fac460a3834d6401d3,,,,,,,,,,,,,,,,,,,,,,,,,,,,,511.629,1,audio/Narrative7Situation9.wav,513.642,,513.643,522.272,"[[99.7,1929],[100,2009],[100,2093],[100,2178],[100,2264],[100,2346],[100,2432],[100,2509],[100,2594],[100,2680],[100,2761],[100,2847],[96.7,2932],[94.1,3009],[95.6,3099],[96.1,3177],[96.6,3260],[97.3,3346],[97.8,3430],[98.2,3511],[98.2,3596],[98.3,3677],[98.3,3759],[98.3,3846],[98.3,3929],[98.3,4010],[98.3,4096],[98.6,4178],[98.6,4262],[98.6,4347],[98.7,4427],[98.8,4509],[98.8,4596],[98.8,4678],[98.8,4759],[98.8,4846],[98.8,4928],[98.8,5011],[98.8,5096],[98.8,5179],[98.8,5259],[98.8,5346],[98.8,5425],[98.8,5509],[98.8,5596],[98.8,5679],[98.8,5759],[98.8,5844],[98.8,5930],[98.8,6009],[98.8,6096],[98.8,6179],[98.8,6259],[98.8,6346],[98.8,6429],[98.8,6509],[98.8,6596],[98.8,6677],[98.8,6759],[98.8,6844],[98.8,6927],[98.8,7009],[98.8,7098],[98.8,7178],[98.8,7259],[98.8,7346],[98.8,7428],[98.8,7509],[98.8,7596],[98.8,7679],[98.8,7759],[98.8,7846],[98.8,7929],[98.8,8009],[98.8,8094],[98.8,8178],[98.8,8261],[98.8,8347],[98.8,8429],[98.8,8509],[98.8,8594]]",1,0,522.274,523.689,98.828125,0.522,"[{""rating"":98.828125,""responseTime"":0.5220000000000482}]",space,0.869,,523.689,Partially,50,534.285,49.73958333,9.216,"[{""rating"":49.73958333333333,""responseTime"":9.215999999999894}]",space,0,18,18,18,1,audio/Narrative8Situation9.wav,audio/Narrative7Situation9.wav,audio/Narrative6Situation9.wav,audio/Narrative5Situation9.wav,3,2,4,3,,,10.069,,,,,,,,,,,,,,,,,,,,,,,,,,,,,,,,,,,,
,,,,,,663cfa8309ab946fcf1b6a9b,2024-05-13_10h39.32.299,group3.1-3.2-social-tom,2023.2.2,Win32,59.95203837,65c5074098b851296ff0b7ed,664233fac460a3834d6401d3,,,,,,,,,,,,,,,,,,,,,,,,,,,552.378,554.953,554.978,2,audio/Narrative13Situation2.wav,554.978,,554.978,584.755,"[[48.3,3924],[39.6,4009],[37.2,4094],[36.6,4174],[30.7,4256],[24.3,4342],[22.1,4425],[19.5,4509],[11.2,4593],[6.1,4674],[0.3,5761],[0.3,5846],[0.4,5923],[0.7,6008],[0.8,6095],[0.8,6174],[0.8,6261],[0.8,6342],[0.8,6425],[0.8,6509],[0.8,6593],[0.8,6674],[0.8,6756],[0.8,6842],[0.8,6924],[0.8,7009],[0.8,7095],[0.8,7175],[0.8,7259],[0.8,7342],[0.8,7424],[0.8,7509],[0.8,7595],[0.8,7675],[0.8,7759],[0.8,7842],[0.8,7925],[0.8,8011],[0.8,8094],[3.1,8174],[40,8259],[94,8844],[97.1,8925],[100,9006],[100,9096],[100,9176],[100,9259],[100,9344],[100,9423],[100,9509],[99.7,9592],[99.6,9675],[99.5,9757],[99.5,9840],[99.5,9922],[99.5,10008],[99.5,10095],[99.5,10174],[99.5,10258],[99.5,10345],[99.5,10425],[99.5,10509],[99.5,10592],[99.5,10675],[99.5,10759],[99.5,10842],[99.5,10925],[99.5,11008],[99.5,11095],[99.5,11175],[99.5,11256],[99.5,11342],[99.5,11424],[99.5,11508],[99.5,11592],[99.5,11674],[99.5,11759],[99.5,11845],[99.5,11924],[99.5,12008],[99.5,12095],[99.5,12174],[99.5,12258],[99.5,12339],[99.5,12424],[99.5,12509],[99.5,12595],[99.5,12672],[99.5,12756],[99.5,12839],[99.5,12924],[99.5,13006],[99.5,13095],[99.5,13174],[99.5,13261],[99.5,13339],[99.5,13425],[99.5,13511],[99.5,13594],[99.5,13674],[99.5,13759],[99.5,13846],[99.5,13924],[99.5,14011],[99.5,14094],[99.5,14174],[99.5,14259],[99.5,14342],[99.5,14425],[99.5,14508],[99.5,14592],[99.5,14674],[99.5,14754],[99.5,14839],[99.5,14922],[99.5,15006],[99.5,15091],[99.5,15174],[99.5,15259],[99.5,15345],[99.5,15424],[99.5,15508],[99.5,15595],[99.5,15674],[99.5,15758],[99.5,15840],[99.5,15923],[99.5,16007],[99.5,16095],[99.5,16174],[99.5,16258],[99.5,16345],[99.5,16424],[99.5,16508],[99.5,16595],[99.5,16672],[99.5,16759],[99.5,16842],[99.5,16924],[99.5,17007],[99.5,17092],[99.5,17175],[99.5,17259],[99.5,17345],[99.5,17423],[99.5,17509],[99.5,17594],[99.5,17674],[99.5,17759],[99.5,17844],[99.5,17925],[99.5,18009],[99.5,18090],[99.5,18174],[99.5,18258],[99.5,18342],[99.5,18425],[99.5,18508],[99.5,18593],[99.5,18674],[99.5,18758],[99.5,18838],[99.5,18924],[99.5,19009],[99.5,19096],[99.5,19172],[99.5,19259],[99.5,19345],[99.5,19424],[99.5,19508],[99.5,19592],[99.5,19673],[99.5,19759],[99.5,19840],[99.5,19924],[99.5,20009],[99.5,20094],[99.5,20174],[99.5,20254],[99.5,20345],[99.5,20424],[99.5,20509],[99.5,20589],[99.5,20675],[99.5,20758],[99.5,20845],[99.5,20923],[99.5,21008],[99.5,21091],[99.5,21174],[99.5,21258],[99.5,21345],[99.5,21424],[99.5,21509],[99.5,21592],[99.5,21675],[99.5,21758],[99.5,21842],[99.5,21924],[99.5,22008],[99.5,22095],[99.5,22172],[99.5,22258],[99.5,22344],[99.5,22425],[99.5,22509],[99.5,22592],[99.5,22672],[99.5,22759],[99.5,22842],[99.5,22925],[99.5,23008],[99.5,23095],[99.5,23172],[99.5,23259],[99.5,23341],[99.5,23424],[99.5,23507],[99.5,23589],[99.5,23675],[99.5,23759],[99.5,23841],[99.5,23925],[99.5,24008],[99.5,24092],[99.5,24174],[99.5,24258],[99.5,24339],[99.5,24425],[99.5,24509],[99.5,24592],[99.5,24672],[99.5,24756],[99.5,24841],[99.5,24923],[99.5,25009],[99.5,25091],[99.5,25174],[99.5,25258],[99.5,25345],[99.5,25423],[99.5,25508],[99.5,25593],[99.5,25674],[99.5,25757],[99.5,25843],[99.5,25924],[99.5,26007],[99.5,26091],[99.5,26174],[99.5,26259],[99.5,26343],[99.5,26425],[99.5,26508],[99.5,26591],[99.5,26675],[99.5,26759],[99.5,26841],[99.5,26924],[99.5,27006],[99.5,27095],[99.5,27174],[99.5,27254],[99.5,27342],[99.5,27425],[99.5,27507],[99.5,27589],[99.5,27674],[99.5,27759],[99.5,27843],[99.5,27924],[99.5,28008],[99.5,28092],[99.5,28175],[99.5,28258],[99.5,28341],[99.5,28424],[99.5,28509],[99.5,28591],[99.5,28675],[99.5,28758],[99.5,28841],[99.5,28925],[99.5,29009],[99.5,29089],[99.5,29175],[99.5,29259],[99.5,29343],[99.5,29423],[99.5,29506],[99.5,29592],[99.5,29674],[99.5,29757]]",1,0,584.756,584.773,,,[],,,,584.773,Definitely yes,100,584.784,,,[],,0,0,0,0,1,audio/Narrative13Situation2.wav,audio/Narrative13Situation2.wav,audio/Narrative13Situation2.wav,audio/Narrative13Situation2.wav,2,2,2,2,,,,,534.286,552.375,space,17.552,,,,,,,,,,,,,,,,,,,,,,,,,,,,,,,
,,,,,,663cfa8309ab946fcf1b6a9b,2024-05-13_10h39.32.299,group3.1-3.2-social-tom,2023.2.2,Win32,59.95203837,65c5074098b851296ff0b7ed,664233fac460a3834d6401d3,,,,,,,,,,,,,,,,,,,,,,,,,,,,,584.784,2,audio/Narrative6Situation1.wav,586.804,,586.804,613.384,"[[94.7,668],[95.1,750],[95.4,832],[95.7,917],[96.6,1000],[97.4,1085],[97.7,1166],[98.2,1248],[98.2,1332],[98.2,1414],[98.2,1499],[98.2,1582],[98.2,1664],[98.2,1750],[98.2,1835],[98.2,1917],[98.2,1998],[98.2,2081],[98.2,2164],[98.2,2248],[98.6,2332],[99.2,2414],[99.2,2498],[99.2,2581],[99.2,2668],[99.2,2748],[98.8,2831],[98.8,2914],[98.8,2998],[98.8,3082],[98.8,3164],[98.8,3249],[98.8,3330],[98.8,3417],[98.8,3499],[98.8,3581],[98.8,3663],[98.8,3748],[98.8,3832],[98.8,3913],[98.8,3997],[98.8,4081],[98.8,4163],[98.8,4245],[98.8,4331],[98.8,4414],[98.8,4498],[98.8,4582],[98.8,4668],[98.8,4745],[98.8,4831],[98.8,4918],[98.8,4995],[98.8,5079],[98.8,5164],[98.8,5248],[98.8,5330],[98.8,5413],[98.8,5499],[98.8,5579],[98.8,5668],[98.8,5749],[98.8,5827],[97.5,5916],[94.9,5998],[94.9,6077],[95.4,6166],[96.1,6248],[96.2,6330],[97.9,6417],[99.1,6499],[99.1,6577],[99.1,6667],[99.1,6749],[99.1,6832],[99.1,6913],[99.1,6998],[99.1,7082],[99.1,7168],[99.1,7250],[99.1,7329],[99.1,7414],[99.1,7498],[99.1,7581],[99.1,7663],[99.1,7749],[99.1,7831],[99.1,7914],[99.1,7999],[99.1,8077],[99.1,8161],[99.1,8248],[99.1,8327],[99.1,8413],[99.1,8499],[99.1,8577],[99.1,8661],[99.1,8745],[99.1,8827],[99.1,8913],[99.1,8998],[99.1,9081],[99.1,9163],[99.1,9245],[99.1,9327],[99.1,9414],[99.1,9495],[99.1,9580],[99.1,9666],[99.1,9745],[99.1,9827],[99.1,9913],[99.1,9995],[99.1,10079],[99.1,10162],[99.1,10248],[99.1,10327],[99.1,10412],[99.1,10495],[99.1,10581],[99.1,10662],[99.1,10745],[99.1,10831],[99.1,10913],[99.1,10995],[99.1,11080],[99.1,11163],[99.1,11244],[99.1,11330],[99.1,11413],[99.1,11499],[99.1,11579],[99.1,11663],[99.1,11744],[99.1,11831],[99.1,11916],[99.1,11998],[99.1,12079],[99.1,12162],[99.1,12247],[99.1,12327],[99.1,12413],[99.1,12499],[99.1,12577],[99.1,12662],[99.1,12745],[99.1,12827],[99.1,12912],[99.1,12999],[99.1,13079],[99.1,13161],[99.1,13245],[99.1,13326],[99.1,13414],[99.1,13499],[99.1,13577],[99.1,13666],[99.1,13750],[99.1,13829],[99.1,13917],[99.1,13995],[99.1,14077],[99.1,14164],[99.1,14245],[99.1,14329],[99.1,14416],[99.1,14498],[99.1,14579],[99.1,14666],[99.1,14749],[99.1,14831],[99.1,14914],[99.1,14995],[99.1,15079],[99.1,15164],[99.1,15249],[99.1,15327],[99.1,15416],[99.1,15498],[99.1,15579],[99.1,15666],[99.1,15750],[99.1,15827],[99.1,15914],[99.1,15998],[99.1,16077],[99.1,16166],[99.1,16248],[99.1,16327],[99.1,16413],[99.1,16499],[99.1,16579],[99.1,16663],[99.1,16749],[99.1,16827],[99.1,16913],[99.1,16999],[99.1,17079],[99.1,17163],[99.1,17248],[99.1,17327],[99.1,17414],[99.1,17499],[99.1,17577],[99.1,17664],[99.1,17745],[99.1,17830],[99.1,17913],[99.1,17995],[99.1,18077],[99.1,18166],[99.1,18249],[99.1,18327],[99.1,18412],[99.1,18498],[99.1,18577],[99.1,18666],[99.1,18748],[99.1,18827],[99.1,18916],[98.7,18999],[97.9,19077],[97.9,19163],[97.9,19249],[97.9,19327],[97.9,19413],[97.9,19499],[97.9,19577],[97.9,19666],[97.9,19749],[97.9,19827],[97.9,19913],[97.9,19998],[97.9,20079],[97.9,20163],[97.9,20248],[97.9,20327],[97.9,20414],[97.9,20498],[97.9,20577],[97.9,20666],[97.9,20748],[97.9,20827],[97.9,20916],[97.9,21000],[97.9,21077],[97.9,21166],[97.9,21249],[97.9,21327],[97.9,21413],[97.9,21499],[97.9,21577],[97.9,21666],[97.9,21749],[97.9,21827],[97.9,21916],[97.9,21998],[97.9,22079],[97.9,22166],[98.6,22249],[98.6,22327],[98.6,22414],[98.6,22498],[98.6,22579],[98.6,22667],[98.6,22749],[98.6,22827],[98.6,22916],[98.6,22999],[98.6,23077],[98.6,23162],[98.6,23249],[98.6,23327],[98.6,23416],[98.6,23499],[98.6,23577],[98.6,23667],[98.6,23749],[98.6,23827],[98.6,23916],[98.6,23999],[98.6,24077],[98.6,24163],[98.6,24249],[98.6,24327],[98.6,24416],[98.6,24499],[98.6,24579],[98.6,24663],[98.6,24748],[98.6,24827],[98.6,24912],[98.6,24998],[98.6,25077],[98.6,25166],[98.6,25250],[98.6,25329],[98.6,25416],[98.6,25497],[98.6,25577],[98.6,25663],[98.6,25748],[98.6,25829],[98.6,25913],[98.6,25997],[98.6,26079],[98.6,26166],[98.6,26249],[98.6,26329],[98.6,26413],[98.6,26499],[98.6,26577]]",1,0,613.385,619.182,98.69791667,1.925,"[{""rating"":98.69791666666667,""responseTime"":1.9249999999999545}]",space,5.252,,619.182,Not at all,0,619.197,,,[],,0,1,1,1,1,audio/Narrative7Situation1.wav,audio/Narrative8Situation1.wav,audio/Narrative5Situation1.wav,audio/Narrative6Situation1.wav,2,5,5,2,,,,,,,,,,,,,,,,,,,,,,,,,,,,,,,,,,,,,,,
,,,,,,663cfa8309ab946fcf1b6a9b,2024-05-13_10h39.32.299,group3.1-3.2-social-tom,2023.2.2,Win32,59.95203837,65c5074098b851296ff0b7ed,664233fac460a3834d6401d3,,,,,,,,,,,,,,,,,,,,,,,,,,,,,619.197,2,audio/Narrative6Situation2.wav,622.204,,622.204,650.719,"[[98.2,1579],[98.2,1661],[98.2,1745],[98.2,1828],[98.2,1913],[98.2,1999],[98.2,2079],[98.2,2163],[98.2,2248],[98.2,2329],[98.2,2412],[98.2,2497],[98.2,2578],[98.2,2666],[98.2,2745],[98.2,2828],[98.2,2913],[98.2,3000],[98.2,3079],[98.2,3162],[98.2,3249],[98.2,3328],[98.2,3412],[98.2,3499],[98.2,3579],[98.2,3665],[98.2,3746],[98.2,3828],[98.2,3913],[98.2,3999],[98.2,4079],[98.2,4163],[98.2,4244],[98.2,4328],[98.2,4413],[98.2,4497],[98.2,4579],[98.2,4663],[98.2,4749],[98.2,4828],[98.2,4916],[98.2,5000],[98.2,5080],[98.2,5165],[98.2,5249],[98.2,5329],[98.2,5413],[98.2,5498],[98.2,5578],[98.2,5666],[98.2,5750],[98.2,5828],[98.2,5913],[98.2,5997],[98.2,6079],[98.2,6163],[98.2,6249],[98.2,6329],[98.2,6413],[98.2,6499],[98.2,6579],[98.2,6662],[98.2,6749],[98.2,6828],[98.2,6916],[98.2,6997],[98.2,7079],[98.2,7165],[98.2,7250],[98.2,7328],[98.2,7411],[98.2,7495],[98.2,7578],[98.2,7663],[98.2,7746],[98.2,7826],[98.2,7915],[98.2,7996],[98.2,8078],[98.2,8163],[98.2,8248],[98.2,8328],[98.2,8411],[98.2,8498],[98.2,8578],[98.2,8665],[98.2,8747],[98.2,8829],[98.2,8913],[98.2,8997],[98.2,9079],[98.2,9165],[98.2,9249],[98.2,9328],[98.2,9413],[98.2,9499],[98.2,9578],[98.2,9663],[98.2,9749],[98.2,9828],[98.2,9915],[98.2,9999],[98.2,10076],[98.2,10163],[98.2,10250],[98.2,10329],[98.2,10415],[98.2,10494],[98.2,10578],[98.2,10663],[98.2,10750],[98.2,10828],[98.2,10911],[98.2,10998],[98.2,11079],[98.2,11165],[98.2,11247],[98.2,11326],[98.2,11412],[98.2,11499],[98.2,11578],[98.2,11660],[98.2,11746],[98.2,11828],[98.2,11915],[98.2,11995],[98.2,12079],[98.2,12163],[98.2,12249],[98.2,12329],[98.2,12413],[98.2,12496],[98.2,12578],[98.2,12662],[98.2,12744],[98.2,12828],[98.2,12915],[98.2,12999],[98.2,13079],[98.2,13163],[98.2,13248],[97.8,13329],[97.5,13413],[96.1,13494],[96.1,13578],[96.1,13662],[96.1,13746],[96.4,13829],[96.9,13913],[97.4,13998],[97.8,14078],[98.2,14163],[98.2,14248],[98.2,14328],[98.2,14413],[98.2,14496],[98.2,14579],[98.2,14665],[98.2,14746],[98.2,14828],[98.2,14913],[98.2,14999],[98.2,15078],[98.2,15165],[98.2,15247],[98.2,15328],[98.2,15413],[98.2,15499],[98.2,15579],[98.2,15658],[98.2,15748],[98.2,15828],[98.2,15916],[98.2,15996],[98.2,16078],[98.2,16163],[98.2,16248],[98.2,16329],[98.2,16412],[98.2,16499],[98.2,16577],[98.2,16663],[98.2,16746],[98.2,16829],[98.2,16913],[98.2,16996],[98.2,17078],[98.2,17163],[98.2,17248],[98.2,17328],[98.2,17413],[98.2,17500],[98.2,17579],[98.2,17663],[98.2,17746],[98.2,17828],[98.2,17913],[98.2,17999],[98.2,18078],[98.2,18161],[98.2,18249],[98.2,18328],[98.2,18413],[98.2,18495],[98.2,18578],[98.2,18663],[98.2,18746],[98.2,18827],[98.2,18913],[98.2,18999],[98.2,19078],[98.2,19162],[98.2,19249],[98.2,19328],[98.2,19413],[98.2,19496],[98.2,19577],[98.2,19663],[98.2,19747],[98.2,19828],[98.2,19912],[98.2,19999],[98.2,20079],[98.2,20163],[98.2,20243],[98.2,20328],[98.2,20413],[98.2,20499],[98.2,20578],[98.2,20660],[98.2,20749],[98.2,20828],[98.2,20913],[98.2,20994],[98.2,21079],[98.2,21162],[98.2,21246],[98.2,21329],[98.2,21412],[98.2,21498],[98.2,21578],[98.2,21662],[98.2,21743],[98.2,21828],[98.2,21915],[98.2,21996],[98.2,22076],[98.2,22163],[98.2,22246],[98.2,22328],[98.2,22408],[98.2,22499],[98.2,22578],[98.2,22663],[98.2,22744],[98.2,22829],[98.2,22913],[98.2,22998],[98.2,23078],[98.2,23160],[98.2,23249],[98.2,23328],[98.2,23413],[98.2,23497],[98.2,23578],[98.2,23663],[98.2,23745],[98.2,23828],[98.2,23913],[98.2,23999],[98.2,24076],[98.2,24162],[98.2,24243],[98.2,24327],[98.2,24412],[98.2,24495],[98.2,24576],[98.2,24663],[98.2,24746],[98.2,24829],[98.2,24911],[98.2,24996],[98.2,25079],[98.2,25165],[98.2,25249],[98.2,25326],[98.2,25411],[98.2,25498],[98.2,25579],[98.2,25663],[98.2,25744],[98.2,25827],[98.2,25913],[98.2,25995],[98.2,26078],[98.2,26162],[98.2,26246],[98.2,26329],[98.2,26413],[98.2,26496],[98.2,26578],[98.2,26663],[98.2,26744],[98.2,26829],[98.2,26913],[98.2,26995],[98.2,27078],[98.2,27162],[98.2,27248],[98.2,27328],[98.2,27412],[98.2,27495],[98.2,27578],[98.2,27663],[98.2,27749],[98.2,27826],[98.2,27912],[98.2,27993],[98.2,28078],[98.2,28163],[98.2,28247],[98.2,28329],[98.2,28412],[98.2,28496]]",1,0,650.72,659.483,98.17708333,8.051,"[{""rating"":98.17708333333333,""responseTime"":8.051000000000045}]",space,8.218,,659.483,Definitely yes,100,659.498,,,[],,0,2,2,2,1,audio/Narrative7Situation2.wav,audio/Narrative8Situation2.wav,audio/Narrative5Situation2.wav,audio/Narrative6Situation2.wav,3,3,3,3,,,,,,,,,,,,,,,,,,,,,,,,,,,,,,,,,,,,,,,
,,,,,,663cfa8309ab946fcf1b6a9b,2024-05-13_10h39.32.299,group3.1-3.2-social-tom,2023.2.2,Win32,59.95203837,65c5074098b851296ff0b7ed,664233fac460a3834d6401d3,,,,,,,,,,,,,,,,,,,,,,,,,,,,,659.5,2,audio/Narrative6Situation3.wav,664.513,,664.513,677.13,"[[97.8,755],[93.5,836],[93,916],[93,998],[90.5,1081],[90.5,1165],[90.5,1248],[90.5,1337],[90.5,1419],[90.5,1498],[90.5,1582],[90.5,1668],[90.5,1751],[90.5,1837],[90.5,1918],[90.5,2001],[83.7,2086],[80.9,2168],[71.2,2254],[64.1,2336],[57.6,2416],[54.3,2502],[51.6,2586],[48.4,2669],[46.6,2750],[46.1,2836],[45.4,2920],[41.3,3002],[34.2,3087],[24.9,3170],[18.5,3253],[14.3,3336],[12.5,3418],[12.2,3503],[10.8,3589],[10.5,3671],[10.3,3751],[10.3,3834],[10.3,3915],[10.3,4001],[10.3,4086],[10.3,4169],[10.3,4250],[10.3,4337],[10.3,4418],[10.3,4501],[10.3,4586],[10.3,4666],[10.3,4750],[10.3,4836],[10.3,4919],[10.3,5000],[10.3,5087],[10.3,5168],[10.3,5251],[10.3,5334],[10.3,5418],[10.3,5501],[10.3,5587],[10.3,5669],[10.3,5748],[10.3,5836],[10.3,5918],[10.3,5998],[10.3,6087],[10.3,6169],[10.3,6250],[10.3,6337],[10.3,6419],[10.3,6500],[10.3,6586],[10.3,6668],[10.3,6748],[10.3,6836],[10.3,6916],[10.3,7000],[10.3,7084],[10.3,7168],[10.3,7248],[10.3,7338],[10.3,7418],[10.3,7501],[10.3,7586],[10.3,7669],[10.3,7748],[10.3,7836],[10.3,7919],[10.3,8000],[10.3,8084],[10.3,8168],[10.3,8248],[10.3,8336],[10.3,8416],[10.3,8500],[10.3,8586],[10.3,8669],[10.3,8750],[10.3,8834],[10.3,8918],[10.3,9000],[10.3,9083],[10.3,9169],[10.3,9248],[10.3,9337],[10.3,9418],[10.3,9501],[10.3,9587],[10.3,9668],[10.3,9748],[10.3,9838],[10.3,9915],[10.3,9997],[10.3,10081],[10.3,10165],[10.7,10248],[48.8,10665],[75.7,10998],[77.9,11082],[80.5,11165],[82.9,11248],[83.9,11331],[88,11414],[90,11498],[93,11582],[93.5,11665],[94.5,11748],[96.4,11832],[96.6,11914],[98.3,11998],[98.4,12082],[98.7,12165],[99.3,12248],[99.3,12332],[99.3,12415],[99.3,12500],[99.3,12581]]",1,0,677.13,678.546,98.69791667,0.512,"[{""rating"":98.69791666666667,""responseTime"":0.5119999999999436}]",space,0.875,,678.546,Not at all,0,678.553,,,[],,0,3,3,3,1,audio/Narrative7Situation3.wav,audio/Narrative8Situation3.wav,audio/Narrative5Situation3.wav,audio/Narrative6Situation3.wav,8,4,3,5,,,,,,,,,,,,,,,,,,,,,,,,,,,,,,,,,,,,,,,
,,,,,,663cfa8309ab946fcf1b6a9b,2024-05-13_10h39.32.299,group3.1-3.2-social-tom,2023.2.2,Win32,59.95203837,65c5074098b851296ff0b7ed,664233fac460a3834d6401d3,,,,,,,,,,,,,,,,,,,,,,,,,,,,,678.554,2,audio/Narrative6Situation4.wav,680.562,,680.562,693.179,"[[98.6,6665],[97.8,6750],[94,6831],[93.2,6917],[92.4,7000],[84.6,7082],[81,7167],[68.5,7249],[57.8,7332],[53.3,7417],[50.3,7500],[49.6,7583],[49.6,7667],[49.6,7749],[49.6,7833],[46.2,7915],[40.4,8000],[40.2,8082],[40.2,8165],[40.2,8249],[40.2,8332],[40.2,8417],[40.2,8499],[40.2,8582],[40.2,8665],[40.2,8749],[40.2,8832],[40.2,8917],[40.2,8999],[40.2,9082],[40.2,9165],[40.2,9250],[40.2,9332],[40.2,9417],[40.2,9499],[40.2,9582],[40.2,9665],[40.2,9749],[40.2,9832],[40.2,9917],[40.2,9999],[40.2,10081],[40.2,10167],[40.2,10249],[40.2,10333],[40.2,10417],[40.2,10500],[40.2,10582],[40.2,10665],[40.2,10749],[40.2,10832],[40.2,10917],[40.2,10999],[40.2,11082],[40.2,11165],[40.2,11250],[40.2,11333],[40.2,11415],[40.2,11499],[40.2,11582],[40.2,11665],[40.2,11749],[40.2,11832],[40.2,11915],[40.2,12000],[40.2,12082],[40.2,12167],[40.2,12250],[40.2,12332],[40.2,12415],[40.2,12500],[40.2,12583]]",1,0,693.179,695.829,45.3125,1.561,"[{""rating"":45.3125,""responseTime"":1.5610000000000355}]",space,2.123,,695.829,Not at all,0,695.834,,,[],,0,4,4,4,1,audio/Narrative7Situation4.wav,audio/Narrative8Situation4.wav,audio/Narrative5Situation4.wav,audio/Narrative6Situation4.wav,3,3,1,2,,,,,,,,,,,,,,,,,,,,,,,,,,,,,,,,,,,,,,,
,,,,,,663cfa8309ab946fcf1b6a9b,2024-05-13_10h39.32.299,group3.1-3.2-social-tom,2023.2.2,Win32,59.95203837,65c5074098b851296ff0b7ed,664233fac460a3834d6401d3,,,,,,,,,,,,,,,,,,,,,,,,,,,,,695.835,2,audio/Narrative6Situation5.wav,697.845,,697.845,705.811,"[[45.6,665],[45.6,750],[47.7,1500],[48.6,1582],[48.7,1665],[48.7,1748],[48.7,1832],[48.7,1915],[48.7,1998],[48.8,2082],[48.8,2165],[48.8,2250],[49.3,2333],[50.5,2415],[50.5,2500],[50.5,2582],[50.5,2665],[50.5,2750],[50.5,2832],[50.5,2915],[50.5,3000],[50.5,3082],[50.5,3165],[50.5,3248],[50.5,3332],[50.5,3415],[50.5,3500],[50.5,3582],[50.5,3665],[50.5,3750],[50.5,3832],[50.5,3915],[50.5,4000],[50.5,4082],[50.5,4165],[50.5,4248],[50.5,4331],[50.5,4416],[50.5,4500],[50.5,4582],[50.5,4665],[50.5,4750],[50.5,4832],[50.5,4915],[50.5,5000],[50.5,5082],[50.5,5165],[50.5,5250],[50.5,5333],[50.5,5415],[50.5,5498],[50.5,5582],[50.5,5665],[50.5,5750],[50.5,5832],[50.5,5915],[50.5,6000],[50.5,6082],[50.5,6165],[50.5,6250],[50.5,6332],[50.5,6415],[50.5,6500],[50.5,6582],[50.5,6664],[50.5,6750],[50.5,6832],[50.5,6915],[50.5,7000],[50.5,7083],[50.5,7166],[50.5,7250],[50.5,7332],[50.5,7415],[50.5,7498],[50.5,7582],[50.5,7665],[50.5,7748],[50.5,7831],[50.5,7915]]",1,0,705.812,715.078,19.01041667,8.575,"[{""rating"":19.010416666666668,""responseTime"":8.574999999999932}]",space,8.735,,715.078,Not at all,0,715.084,,,[],,0,5,5,5,1,audio/Narrative7Situation5.wav,audio/Narrative8Situation5.wav,audio/Narrative5Situation5.wav,audio/Narrative6Situation5.wav,5,2,5,2,,,,,,,,,,,,,,,,,,,,,,,,,,,,,,,,,,,,,,,
,,,,,,663cfa8309ab946fcf1b6a9b,2024-05-13_10h39.32.299,group3.1-3.2-social-tom,2023.2.2,Win32,59.95203837,65c5074098b851296ff0b7ed,664233fac460a3834d6401d3,,,,,,,,,,,,,,,,,,,,,,,,,,,,,715.084,2,audio/Narrative6Situation6.wav,717.095,,717.095,728.177,"[[20.1,3664],[21.7,3748],[24,3832],[26.8,3914],[28.8,3998],[32.6,4081],[37.8,4165],[41.4,4247],[46,4331],[48.7,4415],[50.8,4500],[52.2,4582],[52.2,4664],[52.2,4747],[52.2,4831],[52.2,4915],[52.2,4998],[52.2,5081],[52.2,5164],[52.2,5247],[52.2,5331],[52.2,5414],[52.2,5498],[52.2,5581],[52.2,5664],[52.2,5748],[52.2,5831],[52.2,5914],[52.2,5998],[52.2,6081],[52.2,6164],[52.2,6248],[52.2,6331],[52.2,6414],[52.2,6498],[52.2,6581],[52.2,6665],[52.2,6748],[52.2,6831],[52.2,6914],[52.2,6998],[52.2,7081],[52.2,7164],[52.2,7248],[52.2,7331],[52.2,7415],[52.2,7498],[52.2,7581],[52.2,7664],[52.2,7748],[52.2,7831],[52.2,7914],[52.2,7997],[52.2,8081],[52.2,8164],[54.4,8248],[59.4,8331],[61.2,8415],[63.8,8498],[64.1,8581],[65.4,8665],[77.7,8748],[89.5,8831],[89.6,8914],[91.4,8998],[92.4,9081],[93.6,9165],[95.6,9247],[96.1,9331],[96.7,9415],[97.3,9498],[97.7,9581],[97.9,9664],[98,9747],[98,9831],[98.2,9915],[98.2,9998],[98.2,10081],[98.2,10163],[98.2,10247],[98.2,10331],[98.2,10414],[98.2,10497],[98.2,10581],[98.2,10664],[98.2,10747],[98.2,10831],[98.2,10914],[98.2,10997],[98.2,11081]]",1,0,728.177,729.11,98.17708333,0.494,"[{""rating"":98.17708333333333,""responseTime"":0.4940000000000282}]",space,0.399,,729.11,Partially,50,729.117,,,[],,0,6,6,6,1,audio/Narrative7Situation6.wav,audio/Narrative8Situation6.wav,audio/Narrative5Situation6.wav,audio/Narrative6Situation6.wav,3,2,3,2,,,,,,,,,,,,,,,,,,,,,,,,,,,,,,,,,,,,,,,
,,,,,,663cfa8309ab946fcf1b6a9b,2024-05-13_10h39.32.299,group3.1-3.2-social-tom,2023.2.2,Win32,59.95203837,65c5074098b851296ff0b7ed,664233fac460a3834d6401d3,,,,,,,,,,,,,,,,,,,,,,,,,,,,,729.117,2,audio/Narrative6Situation7.wav,734.127,,734.127,758.977,"[[99.2,7917],[100,8416],[94.9,8500],[94.3,8583],[94,8665],[94,8749],[94.7,8833],[95.7,8916],[96.6,8999],[97.1,9081],[97.3,9166],[97.3,9249],[97.3,9333],[97.3,9416],[97.3,9499],[97.3,9581],[97.5,9666],[97.5,9749],[97.9,9833],[98,9916],[98,9999],[98.2,10083],[98.2,10166],[98.2,10249],[98.2,10333],[98.2,10416],[98.2,10499],[98.2,10583],[98.2,10665],[98.2,10749],[98.2,10833],[98.2,10916],[98.2,11000],[98.2,11083],[98.2,11165],[98.2,11249],[98.2,11333],[98.2,11416],[98.2,11499],[98.2,11581],[98.2,11666],[98.2,11749],[98.2,11831],[98.2,11916],[98.2,11999],[98.2,12083],[98.2,12166],[98.2,12249],[98.2,12331],[98.2,12416],[98.2,12499],[98.2,12581],[98.2,12665],[98.2,12749],[98.2,12833],[98.2,12915],[98.2,12999],[98.2,13083],[98.2,13166],[98.2,13248],[98.2,13333],[98.2,13416],[98.2,13498],[98.2,13581],[98.2,13665],[98.2,13749],[98.2,13833],[98.2,13915],[98.2,13999],[98.2,14083],[98.2,14165],[98.2,14249],[98.2,14333],[98.2,14415],[98.2,14500],[98.2,14583],[98.2,14666],[98.2,14749],[98.2,14831],[98.2,14915],[98.2,14999],[98.2,15083],[98.2,15166],[98.2,15249],[98.2,15331],[98.2,15415],[98.2,15499],[98.2,15581],[98.2,15665],[98.2,15749],[98.2,15833],[98.2,15915],[98.2,15999],[98.2,16083],[98.2,16166],[98.2,16249],[98.2,16331],[98.2,16415],[98.2,16498],[98.2,16583],[98.2,16665],[98.2,16749],[98.2,16831],[98.2,16915],[98.2,16999],[98.2,17081],[98.2,17165],[98.2,17249],[98.2,17331],[98.2,17415],[98.2,17499],[98.2,17581],[98.2,17665],[98.2,17749],[98.2,17831],[98.2,17915],[98.2,17998],[98.2,18081],[98.2,18165],[98.2,18249],[98.2,18331],[98.2,18415],[98.2,18499],[98.2,18581],[98.2,18666],[98.2,18749],[98.2,18831],[98.2,18915],[98.2,18999],[98.2,19081],[98.2,19165],[98.2,19249],[98.2,19331],[98.2,19415],[98.2,19499],[98.2,19581],[98.2,19665],[98.2,19749],[98.2,19831],[98.2,19915],[98.2,19999],[98.2,20081],[98.2,20165],[98.2,20249],[98.2,20331],[98.2,20415],[98.2,20499],[98.2,20581],[98.2,20665],[98.2,20749],[98.2,20831],[98.2,20915],[98.2,20998],[98.2,21081],[98.2,21165],[98.2,21249],[98.2,21331],[98.2,21415],[98.2,21499],[98.2,21581],[98.2,21665],[98.2,21748],[98.2,21831],[98.2,21915],[98.2,21998],[98.2,22081],[98.2,22165],[98.2,22248],[98.2,22331],[98.2,22415],[98.2,22499],[98.2,22581],[98.2,22665],[98.2,22748],[98.2,22831],[98.2,22915],[98.2,22999],[98.2,23081],[98.2,23163],[98.2,23248],[98.2,23331],[98.2,23415],[98.2,23498],[98.2,23581],[98.2,23663],[98.2,23749],[98.2,23831],[98.2,23915],[98.2,23998],[98.2,24081],[98.2,24165],[98.2,24249],[98.2,24331],[98.2,24415],[98.2,24498],[98.2,24581],[98.2,24663],[98.2,24749],[98.2,24833]]",1,0,758.977,761.525,98.17708333,1.607,"[{""rating"":98.17708333333333,""responseTime"":1.606999999999971}]",space,2.001,,761.526,Definitely yes,100,761.533,,,[],,0,7,7,7,1,audio/Narrative7Situation7.wav,audio/Narrative8Situation7.wav,audio/Narrative5Situation7.wav,audio/Narrative6Situation7.wav,5,3,4,5,,,,,,,,,,,,,,,,,,,,,,,,,,,,,,,,,,,,,,,
,,,,,,663cfa8309ab946fcf1b6a9b,2024-05-13_10h39.32.299,group3.1-3.2-social-tom,2023.2.2,Win32,59.95203837,65c5074098b851296ff0b7ed,664233fac460a3834d6401d3,,,,,,,,,,,,,,,,,,,,,,,,,,,,,761.533,2,audio/Narrative6Situation8.wav,766.542,,766.542,773.408,"[[95.8,6665],[81.5,6748]]",1,0,773.408,775.341,0.390625,1.112,"[{""rating"":0.390625,""responseTime"":1.1119999999999663}]",space,1.403,,775.342,Definitely yes,100,775.345,,,[],,0,8,8,8,1,audio/Narrative7Situation8.wav,audio/Narrative8Situation8.wav,audio/Narrative5Situation8.wav,audio/Narrative6Situation8.wav,2,3,3,5,,,,,,,,,,,,,,,,,,,,,,,,,,,,,,,,,,,,,,,
,,,,,,663cfa8309ab946fcf1b6a9b,2024-05-13_10h39.32.299,group3.1-3.2-social-tom,2023.2.2,Win32,59.95203837,65c5074098b851296ff0b7ed,664233fac460a3834d6401d3,,,,,,,,,,,,,,,,,,,,,,,,,,,,,775.346,2,audio/Narrative6Situation9.wav,779.358,,779.358,789.308,"[[999,4],[999,83],[999,166],[999,250],[999,331],[999,416],[999,500],[999,583],[999,667],[999,750],[999,833],[999,916],[999,1000],[999,1083],[999,1167],[999,1250],[999,1333],[999,1417],[999,1500],[999,1581],[999,1667],[999,1750],[999,1833],[999,1916],[999,2000],[999,2083],[999,2167],[999,2250],[999,2331],[999,2416],[999,2500],[999,2581],[999,2667],[999,2750],[999,2833],[999,2916],[999,3000],[999,3083],[999,3166],[999,3249],[999,3333],[999,3417],[999,3499],[999,3583],[999,3666],[999,3750],[999,3833],[999,3916],[999,4000],[999,4084],[999,4166],[999,4250],[999,4331],[999,4416],[999,4500],[999,4581],[999,4667],[999,4750],[999,4833],[999,4916],[999,5000],[999,5083],[999,5167],[999,5250],[999,5333],[999,5417],[999,5500],[999,5583],[999,5667],[999,5750],[999,5831],[999,5917],[999,6000],[999,6081],[999,6166],[999,6249],[999,6333],[999,6416],[999,6500],[999,6583],[999,6666],[999,6749],[1.6,6833],[3.9,6916],[3.9,6999],[3,7081],[2.5,7166],[2.2,7250],[2.1,7333],[2.1,7417],[2.1,7500],[1.8,7583],[1.8,7666],[1.8,7750],[1.8,7833],[1.8,7916],[1.8,7999],[1.8,8083],[1.8,8166],[1.8,8249],[1.8,8333],[1.8,8416],[1.8,8500],[1.8,8581],[1.8,8667],[1.8,8749],[1.8,8831],[1.8,8916],[1.8,9000],[1.8,9083],[1.8,9166],[1.8,9250],[1.8,9333],[1.8,9417],[1.8,9499],[1.8,9583],[1.8,9667],[1.8,9750],[1.8,9833],[1.8,9917]]",1,0,789.309,790.908,1.302083333,0.992,"[{""rating"":1.3020833333333315,""responseTime"":0.9920000000000755}]",space,1.05,,790.908,Definitely yes,100,790.913,,,[],,0,9,9,9,1,audio/Narrative7Situation9.wav,audio/Narrative8Situation9.wav,audio/Narrative5Situation9.wav,audio/Narrative6Situation9.wav,2,3,3,4,,,,,,,,,,,,,,,,,,,,,,,,,,,,,,,,,,,,,,,
,,,,,,663cfa8309ab946fcf1b6a9b,2024-05-13_10h39.32.299,group3.1-3.2-social-tom,2023.2.2,Win32,59.95203837,65c5074098b851296ff0b7ed,664233fac460a3834d6401d3,,,,,,,,,,,,,,,,,,,,,,,,,,,,,790.914,2,audio/Narrative5Situation1.wav,795.923,,795.923,809.224,"[[1.2,5417],[1,5501],[1,5583],[1,5667],[1,5750],[1,5833],[1,5917],[1,6000],[1,6083],[1,6167],[1,6250],[1,6332],[1,6417],[1,6500],[1,6583],[1,6667],[1,6750],[1,6833],[1,6917],[1,7000],[1,7082],[1,7168],[1,7250],[1,7333],[1,7417],[1,7500],[1,7583],[1,7668],[1,7750],[1,7833],[1,7917],[1,8000],[1,8085],[1,8168],[1,8250],[1,8333],[1,8418],[1,8500],[1,8583],[1,8665],[1,8750],[1,8833],[1,8917],[1,9000],[1,9083],[1,9167],[1,9250],[1,9333],[1,9417],[1,9500],[1,9583],[1,9667],[1,9750],[1,9833],[1,9917],[1,10000],[1,10083],[1,10167],[1,10250],[1,10332],[1,10417],[1,10500],[1,10583],[1,10667],[1,10750],[1,10833],[1,10917],[1,11000],[1,11083],[1,11167],[1,11250],[1,11333],[1,11417],[1,11500],[1,11583],[1,11668],[1,11750],[1,11833],[1,11917],[1,12000],[1,12082],[1,12167],[1,12250],[1,12333],[1,12417],[1,12500],[1,12583],[1,12667],[1,12750],[1,12833],[1,12918],[1,13000],[1,13082],[1,13167],[1,13250]]",1,0,809.224,811.523,1.041666667,1.175,"[{""rating"":1.0416666666666685,""responseTime"":1.1749999999999545}]",space,1.749,,811.524,Not at all,0,823.239,0,10.821,"[{""rating"":0,""responseTime"":10.820999999999913}]",space,0,10,10,10,1,audio/Narrative8Situation1.wav,audio/Narrative7Situation1.wav,audio/Narrative6Situation1.wav,audio/Narrative5Situation1.wav,5,2,2,5,,,11.167,,,,,,,,,,,,,,,,,,,,,,,,,,,,,,,,,,,,
,,,,,,663cfa8309ab946fcf1b6a9b,2024-05-13_10h39.32.299,group3.1-3.2-social-tom,2023.2.2,Win32,59.95203837,65c5074098b851296ff0b7ed,664233fac460a3834d6401d3,,,,,,,,,,,,,,,,,,,,,,,,,,,,,823.24,2,audio/Narrative5Situation2.wav,826.24,,826.24,855.721,"[[0.8,1249],[1.8,1331],[2.1,1415],[2.7,2165],[2.7,2249],[1.6,2331],[0.9,2415],[0.9,2499],[0.9,2581],[0.9,2665],[0.9,2749],[0.9,2831],[0.9,2915],[0.9,2999],[0.9,3081],[0.9,3165],[0.9,3249],[0.9,3331],[0.9,3415],[0.9,3499],[0.9,3581],[0.9,3664],[0.9,3750],[0.9,3831],[0.9,3915],[0.9,4000],[0.9,4081],[0.9,4164],[0.9,4250],[0.9,4331],[0.9,4415],[0.9,4499],[0.9,4581],[0.9,4664],[0.9,4749],[0.9,4831],[0.9,4915],[0.9,4999],[0.9,5081],[0.9,5165],[0.9,5250],[0.9,5331],[0.9,5415],[0.9,5499],[0.9,5581],[0.9,5665],[0.9,5747],[0.9,5831],[0.9,5915],[0.9,5999],[0.9,6081],[0.9,6165],[0.9,6249],[0.9,6331],[0.9,6414],[0.9,6499],[0.9,6581],[0.9,6665],[0.9,6747],[0.9,6831],[0.9,6915],[0.9,6999],[0.9,7081],[0.9,7165],[0.9,7249],[0.9,7331],[0.9,7415],[0.9,7499],[0.9,7581],[0.9,7665],[0.9,7749],[0.9,7831],[0.9,7915],[0.9,7999],[0.9,8081],[0.9,8164],[0.9,8249],[0.9,8331],[0.9,8414],[0.9,8499],[0.9,8581],[0.9,8665],[0.9,8749],[0.9,8831],[0.9,8915],[0.9,8997],[0.9,9081],[0.9,9165],[0.9,9247],[0.9,9331],[0.9,9415],[0.9,9499],[0.9,9581],[0.9,9664],[0.9,9749],[0.9,9831],[0.9,9914],[0.9,9997],[0.9,10081],[0.9,10165],[0.9,10249],[0.9,10331],[0.9,10414],[0.9,10497],[0.9,10581],[0.9,10665],[0.9,10749],[0.9,10831],[0.9,10914],[0.9,10999],[0.9,11081],[0.9,11165],[0.9,11249],[0.9,11331],[0.9,11414],[0.9,11499],[0.9,11581],[0.9,11664],[0.9,11749],[0.9,11831],[0.9,11914],[0.9,11997],[0.9,12081],[0.9,12165],[0.9,12249],[0.9,12331],[0.9,12414],[0.9,12499],[0.9,12581],[0.9,12664],[1.2,12749],[4.9,12831],[7.9,12914],[28.1,13081],[56.9,13164],[64.7,13249],[66.4,13331],[73.7,13414],[83.1,13500],[93.9,13581],[94.8,13664],[94.8,13747],[95.6,13831],[96,13914],[96.1,13999],[97.1,14081],[97.7,14164],[97.9,14249],[99,14331],[99,14414],[99,14499],[99,14581],[99,14665],[99,14749],[99,14831],[99,14915],[99,14997],[99,15081],[99,15164],[99,15249],[99,15331],[99,15414],[99,15499],[99,15581],[99,15664],[99,15747],[99,15831],[99,15915],[99,15999],[99,16081],[99,16164],[99,16249],[99,16331],[99,16414],[99,16497],[99,16581],[99,16664],[99,16749],[99,16831],[99,16915],[99,16999],[99,17081],[99,17165],[99,17247],[99,17331],[99,17414],[99,17497],[99,17581],[99,17664],[99,17747],[99,17831],[99,17915],[99,17997],[99,18081],[99,18164],[99,18247],[99,18331],[99,18415],[99,18499],[99,18581],[99,18664],[96.2,18749],[81.6,18831],[73,18915],[61.1,18999],[48.6,19081],[29.6,19164],[10.8,19250],[0.3,20499],[0.3,20581],[0.3,20663],[0.8,20747],[0.9,20831],[0.9,20914],[0.9,20997],[0.9,21081],[0.9,21164],[0.9,21249],[0.9,21331],[0.9,21414],[0.9,21497],[0.9,21581],[0.9,21664],[0.9,21749],[0.9,21831],[0.9,21914],[0.9,21997],[0.9,22081],[0.9,22163],[0.9,22249],[0.9,22331],[0.9,22413],[0.9,22497],[0.9,22581],[0.9,22664],[0.9,22749],[0.9,22831],[1.3,22913],[3.9,22997],[9.9,23081],[19,23164],[22,23247],[22,23331],[21.9,23414],[20.6,23497],[19.3,23581],[19,23664],[19,23747],[19,23831],[19,23914],[19,23997],[19,24081],[19,24164],[19,24249],[19,24331],[19,24414],[19,24499],[19,24581],[19,24664],[19,24747],[19,24831],[19,24914],[19,24999],[19,25081],[19,25164],[19,25249],[19,25331],[19,25414],[19,25497],[19,25581],[19,25664],[19,25749],[19,25831],[19,25914],[19,25997],[19,26081],[19,26163],[19,26247],[19,26331],[19,26414],[19,26497],[19,26581],[19,26664],[19,26749],[19,26831],[19,26914],[19,26997],[19,27080],[19,27164],[19,27247],[19,27331],[19,27413],[19,27497],[19,27581],[19,27664],[19,27747],[19,27831],[19,27913],[19,27997],[19,28081],[19,28164],[19,28247],[19,28331],[19,28413],[19,28497],[18.1,28581],[13.3,28664],[11.7,28747],[7.6,28831],[6.1,28913],[6.1,28997],[5.1,29081],[4.9,29164],[4.6,29246],[4.6,29331],[4.6,29414]]",1,0,855.722,860.005,49.21875,3.522,"[{""rating"":49.21875,""responseTime"":3.5219999999999345}]",space,3.732,,860.005,Partially,50,860.014,,,[],,0,11,11,11,1,audio/Narrative8Situation2.wav,audio/Narrative7Situation2.wav,audio/Narrative6Situation2.wav,audio/Narrative5Situation2.wav,3,3,3,3,,,,,,,,,,,,,,,,,,,,,,,,,,,,,,,,,,,,,,,
,,,,,,663cfa8309ab946fcf1b6a9b,2024-05-13_10h39.32.299,group3.1-3.2-social-tom,2023.2.2,Win32,59.95203837,65c5074098b851296ff0b7ed,664233fac460a3834d6401d3,,,,,,,,,,,,,,,,,,,,,,,,,,,,,860.014,2,audio/Narrative5Situation3.wav,863.02,,863.022,876.938,"[[46.4,6331],[51.6,6414],[59.1,6497],[68.1,6581],[72.4,6665],[76.8,6748],[87.8,6832],[88.9,6914],[94.3,6997],[99.1,7081],[99.5,7164],[99.5,7248],[99.5,7331],[99.5,7414],[99.5,7497],[99.5,7581],[99.5,7664],[99.5,7747],[99.5,7830],[99.5,7914],[99.5,7998],[99.5,8082],[99.5,8164],[99.5,8247],[99.5,8331],[99.5,8415],[99.5,8497],[99.5,8580],[99.5,8665],[99.5,8747],[99.5,8831],[99.5,8915],[99.5,8997],[99.5,9081],[99.5,9164],[99.5,9248],[99.5,9331],[99.5,9415],[99.5,9497],[99.5,9582],[99.5,9664],[99.5,9747],[99.5,9831],[99.5,9914],[99.5,9998],[99.5,10081],[99.5,10164],[99.5,10247],[99.5,10331],[99.5,10415],[99.5,10497],[99.5,10581],[99.5,10664],[99.5,10748],[99.5,10831],[99.5,10914],[99.5,10997],[99.5,11081],[99.5,11164],[99.5,11248],[99.5,11331],[99.5,11414],[99.5,11497],[99.5,11581],[99.5,11664],[99.5,11748],[99.5,11830],[99.5,11914],[99.5,11998],[99.5,12081],[99.5,12163],[99.5,12247],[99.5,12331],[99.5,12414],[99.5,12497],[99.5,12580],[99.5,12664],[99.5,12748],[99.5,12831],[99.5,12914],[99.5,12997],[99.5,13080],[99.5,13164],[99.5,13248],[99.5,13331],[99.5,13414],[99.5,13497],[99.5,13580],[99.5,13664],[99.5,13748],[99.5,13831],[99.5,13914]]",1,0,876.939,878.42,99.47916667,0.657,"[{""rating"":99.47916666666667,""responseTime"":0.6570000000000391}]",space,0.939,,878.421,Not at all,0,878.429,,,[],,0,12,12,12,1,audio/Narrative8Situation3.wav,audio/Narrative7Situation3.wav,audio/Narrative6Situation3.wav,audio/Narrative5Situation3.wav,4,8,5,3,,,,,,,,,,,,,,,,,,,,,,,,,,,,,,,,,,,,,,,
,,,,,,663cfa8309ab946fcf1b6a9b,2024-05-13_10h39.32.299,group3.1-3.2-social-tom,2023.2.2,Win32,59.95203837,65c5074098b851296ff0b7ed,664233fac460a3834d6401d3,,,,,,,,,,,,,,,,,,,,,,,,,,,,,878.429,2,audio/Narrative5Situation4.wav,879.437,,879.437,899.836,"[[100,19915]]",1,0,899.836,902.269,98.4375,1.81,"[{""rating"":98.4375,""responseTime"":1.8100000000000591}]",space,1.902,,902.269,Partially,50,902.277,,,[],,0,13,13,13,1,audio/Narrative8Situation4.wav,audio/Narrative7Situation4.wav,audio/Narrative6Situation4.wav,audio/Narrative5Situation4.wav,3,3,2,1,,,,,,,,,,,,,,,,,,,,,,,,,,,,,,,,,,,,,,,
,,,,,,663cfa8309ab946fcf1b6a9b,2024-05-13_10h39.32.299,group3.1-3.2-social-tom,2023.2.2,Win32,59.95203837,65c5074098b851296ff0b7ed,664233fac460a3834d6401d3,,,,,,,,,,,,,,,,,,,,,,,,,,,,,902.277,2,audio/Narrative5Situation5.wav,907.286,,907.287,922.718,"[[7.9,7497],[6,7580],[5.7,7663],[2.9,7747],[2.9,7831],[2.3,7914],[1.3,7997],[1.3,8080],[1.3,8164],[1.2,8248],[1.2,8331],[1.2,8413],[1.2,8497],[1.2,8580],[1.2,8663],[1.2,8747],[1.2,8830],[1.2,8913],[1.2,8997],[1.2,9081],[1.2,9163],[1.2,9247],[1.2,9330],[1.2,9414],[1.2,9497],[1.2,9581],[1.2,9663],[1.2,9747],[1.2,9830],[1.2,9913],[1.2,9997],[1.2,10081],[1.2,10163],[1.2,10248],[1.2,10330],[1.2,10414],[1.2,10497],[1.2,10580],[1.2,10664],[1.2,10747],[1.2,10831],[1.2,10913],[1.2,10997],[1.2,11081],[1.2,11163],[1.2,11248],[1.2,11330],[1.2,11413],[1.2,11496],[1.2,11580],[1.2,11664],[1.2,11748],[1.2,11831],[1.2,11913],[1.2,11997],[1.2,12081],[1.2,12163],[1.2,12247],[1.2,12331],[1.2,12413],[1.2,12497],[1.2,12580],[1.2,12663],[1.2,12748],[1.2,12831],[1.2,12914],[1.2,12997],[1.2,13080],[1.2,13164],[1.2,13247],[1.2,13330],[1.2,13413],[1.2,13497],[1.2,13580],[1.2,13664],[1.2,13747],[1.2,13830],[1.2,13913],[1.2,13997],[1.2,14080],[1.2,14163],[1.2,14247],[1.2,14330],[1.2,14413],[1.2,14497],[1.2,14580],[1.2,14664],[1.2,14747],[1.2,14831],[1.2,14913],[1.2,14997],[1.2,15081],[1.2,15164],[1.2,15247],[1.2,15330],[1.2,15413]]",1,0,922.719,924.719,0.78125,1.271,"[{""rating"":0.78125,""responseTime"":1.2710000000000719}]",space,1.466,,924.719,Not at all,0,924.727,,,[],,0,14,14,14,1,audio/Narrative8Situation5.wav,audio/Narrative7Situation5.wav,audio/Narrative6Situation5.wav,audio/Narrative5Situation5.wav,2,5,2,5,,,,,,,,,,,,,,,,,,,,,,,,,,,,,,,,,,,,,,,
,,,,,,663cfa8309ab946fcf1b6a9b,2024-05-13_10h39.32.299,group3.1-3.2-social-tom,2023.2.2,Win32,59.95203837,65c5074098b851296ff0b7ed,664233fac460a3834d6401d3,,,,,,,,,,,,,,,,,,,,,,,,,,,,,924.727,2,audio/Narrative5Situation6.wav,927.735,,927.735,933.418,[],1,0,933.418,940.735,74.21875,7.122,"[{""rating"":94.27083333333333,""responseTime"":4.708000000000084},{""rating"":74.21875,""responseTime"":7.122000000000071}]",space,6.785,,940.735,Not at all,0,940.739,,,[],,0,15,15,15,1,audio/Narrative8Situation6.wav,audio/Narrative7Situation6.wav,audio/Narrative6Situation6.wav,audio/Narrative5Situation6.wav,2,3,2,3,,,,,,,,,,,,,,,,,,,,,,,,,,,,,,,,,,,,,,,
,,,,,,663cfa8309ab946fcf1b6a9b,2024-05-13_10h39.32.299,group3.1-3.2-social-tom,2023.2.2,Win32,59.95203837,65c5074098b851296ff0b7ed,664233fac460a3834d6401d3,,,,,,,,,,,,,,,,,,,,,,,,,,,,,940.74,2,audio/Narrative5Situation7.wav,944.751,,944.751,965.817,"[[73.2,4500],[69,4581],[3,4999],[0.7,5667],[1.3,5749],[1.6,5832],[1.6,5916],[1.6,5999],[1.6,6081],[1.6,6166],[1.6,6249],[1.6,6332],[1.6,6416],[1.6,6499],[1.6,6581],[1.6,6666],[1.6,6749],[1.6,6832],[1.6,6916],[1.6,7000],[1.6,7082],[1.6,7166],[1.6,7249],[1.6,7332],[1.6,7416],[1.6,7499],[1.6,7581],[1.6,7666],[1.6,7749],[1.6,7832],[1.6,7916],[1.6,7999],[1.6,8082],[1.6,8166],[1.6,8249],[1.6,8331],[1.6,8416],[1.6,8499],[1.6,8582],[1.6,8666],[1.6,8749],[1.6,8832],[1.6,8916],[1.6,8999],[1.6,9081],[1.6,9166],[1.6,9249],[1.6,9332],[1.6,9416],[1.6,9499],[1.6,9582],[1.6,9666],[1.6,9749],[1.6,9832],[1.6,9916],[1.6,9999],[1.6,10082],[1.6,10166],[1.6,10250],[1.6,10332],[1.6,10416],[1.6,10499],[1.6,10582],[1.6,10666],[1.6,10749],[1.6,10831],[1.6,10916],[1.6,10999],[1.6,11082],[1.6,11166],[1.6,11249],[1.6,11332],[1.6,11416],[1.6,11499],[1.6,11581],[1.6,11666],[1.6,11749],[1.6,11832],[1.6,11916],[1.6,11999],[1.6,12082],[1.6,12166],[1.6,12249],[1.6,12332],[1.6,12414],[1.6,12499],[1.6,12581],[1.6,12666],[1.6,12749],[1.6,12832],[1.6,12914],[1.6,12999],[1.6,13082],[1.6,13166],[1.6,13249],[1.6,13331],[1.6,13414],[1.6,13499],[1.6,13582],[1.6,13664],[1.6,13750],[1.6,13831],[1.6,13914],[1.6,13999],[1.6,14081],[1.6,14164],[1.6,14249],[1.6,14331],[1.6,14416],[1.6,14499],[1.6,14581],[1.6,14666],[1.6,14749],[1.6,14832],[1.6,14914],[1.6,14999],[1.6,15081],[1.6,15166],[1.6,15249],[1.6,15331],[1.6,15414],[1.6,15500],[1.6,15582],[1.6,15666],[1.6,15749],[1.6,15831],[1.6,15914],[1.6,15999],[1.6,16081],[1.6,16166],[1.6,16249],[1.6,16331],[1.6,16416],[1.6,16500],[1.6,16581],[1.6,16666],[1.6,16750],[1.6,16831],[1.6,16914],[1.6,16999],[1.6,17081],[1.6,17166],[1.6,17249],[1.6,17331],[1.6,17416],[1.6,17499],[1.6,17581],[1.6,17666],[1.6,17749],[1.6,17831],[1.6,17914],[1.6,17998],[1.6,18081],[1.6,18166],[1.6,18249],[1.6,18331],[1.6,18416],[1.6,18499],[1.6,18581],[1.6,18666],[1.6,18749],[1.6,18831],[1.6,18916],[1.6,18999],[1.6,19081],[1.6,19164],[1.6,19249],[1.6,19331],[1.6,19416],[1.6,19499],[1.6,19581],[1.6,19664],[1.6,19749],[1.6,19831],[1.6,19914],[1.6,19999],[1.6,20081],[1.6,20164],[1.6,20249],[1.6,20331],[1.6,20414],[1.6,20499],[1.6,20581],[1.6,20664],[1.6,20749],[1.6,20831],[1.6,20914],[1.6,20999]]",1,0,965.817,967.2,1.5625,0.742,"[{""rating"":1.5625,""responseTime"":0.7419999999999618}]",space,0.837,,967.2,Partially,50,967.207,,,[],,0,16,16,16,1,audio/Narrative8Situation7.wav,audio/Narrative7Situation7.wav,audio/Narrative6Situation7.wav,audio/Narrative5Situation7.wav,3,5,5,4,,,,,,,,,,,,,,,,,,,,,,,,,,,,,,,,,,,,,,,
,,,,,,663cfa8309ab946fcf1b6a9b,2024-05-13_10h39.32.299,group3.1-3.2-social-tom,2023.2.2,Win32,59.95203837,65c5074098b851296ff0b7ed,664233fac460a3834d6401d3,,,,,,,,,,,,,,,,,,,,,,,,,,,,,967.207,2,audio/Narrative5Situation8.wav,970.217,,970.217,979.05,"[[0.9,5000],[0.8,5081],[0.8,5164],[0.8,5249],[0.8,5331],[0.8,5414],[0.8,5499],[0.8,5582],[0.8,5666],[0.9,5749],[1.4,5832],[1.4,5916],[1.4,5999],[1.4,6082],[1.4,6164],[1.4,6249],[1.4,6331],[1.4,6416],[1.4,6499],[1.4,6581],[1.4,6666],[1.4,6749],[1.4,6831],[1.4,6914],[1.4,6999],[1.4,7081],[1.4,7164],[1.4,7249],[1.4,7332],[1.4,7414],[1.4,7499],[1.4,7581],[1.4,7664],[1.4,7749],[1.4,7832],[1.4,7914],[1.4,7999],[1.4,8081],[1.4,8166],[1.4,8250],[1.4,8331],[1.4,8414],[1.4,8499],[1.4,8582],[1.4,8666],[1.4,8749],[1.4,8831]]",1,0,979.051,984.066,1.432291667,4.272,"[{""rating"":1.4322916666666685,""responseTime"":4.2719999999999345}]",space,4.469,,984.067,Definitely yes,100,984.075,,,[],,0,17,17,17,1,audio/Narrative8Situation8.wav,audio/Narrative7Situation8.wav,audio/Narrative6Situation8.wav,audio/Narrative5Situation8.wav,3,2,5,3,,,,,,,,,,,,,,,,,,,,,,,,,,,,,,,,,,,,,,,
,,,,,,663cfa8309ab946fcf1b6a9b,2024-05-13_10h39.32.299,group3.1-3.2-social-tom,2023.2.2,Win32,59.95203837,65c5074098b851296ff0b7ed,664233fac460a3834d6401d3,,,,,,,,,,,,,,,,,,,,,,,,,,,,,984.075,2,audio/Narrative5Situation9.wav,987.082,,987.082,1026.63,"[[1,2666],[1,2749],[1,2832],[1,2916],[1,2998],[1,3082],[1,3166],[1,3249],[1,3332],[1,3416],[1,3498],[1,3583],[1,3666],[1,3748],[1,3832],[1,3915],[1,3999],[1,4082],[1,4165],[1,4248],[1,4332],[1,4416],[1,4499],[1,4583],[1,4665],[1,4749],[1,4833],[1,4915],[1,4999],[1,5082],[1,5166],[1,5249],[1,5332],[1,5415],[1,5499],[1,5582],[1,5666],[1,5749],[1,5832],[1,5915],[1,5999],[1,6082],[1,6165],[1,6248],[1,6332],[1,6415],[1,6498],[1,6582],[1,6666],[1,6749],[1,6833],[1,6915],[1,6998],[1,7081],[1,7165],[1,7249],[1,7332],[1,7415],[1,7498],[1,7581],[1,7664],[1,7749],[1,7832],[1,7916],[1,7999],[1,8082],[1,8166],[1,8249],[1,8331],[1,8415],[1,8498],[1,8582],[1,8666],[1,8748],[1,8832],[1,8916],[1,8999],[1,9082],[1,9166],[1,9248],[1,9332],[1,9416],[1,9499],[1,9582],[1,9666],[1,9748],[1,9832],[1,9916],[1,9998],[1,10082],[1,10166],[1,10249],[1,10332],[1,10415],[1,10499],[1,10582],[1,10665],[1,10748],[1,10832],[1,10916],[1,10998],[1,11082],[1,11166],[1,11248],[1,11332],[1,11415],[1,11498],[1,11582],[1,11666],[1,11748],[1,11832],[1,11915],[1,11998],[1,12082],[1,12166],[1,12249],[1,12332],[1,12415],[1,12498],[1,12582],[1,12666],[1,12748],[1,12832],[1,12916],[1,12998],[1,13082],[1,13166],[1,13248],[1,13332],[1,13415],[1,13499],[1,13583],[1,13665],[1,13748],[1,13832],[1,13915],[1,13999],[1,14082],[1,14165],[1,14248],[1,14332],[1,14416],[1,14498],[1,14582],[1,14666],[1,14748],[1,14832],[1,14915],[1,14998],[1,15082],[1,15166],[1,15248],[1,15332],[1,15415],[1,15497],[1,15582],[1,15665],[1,15748],[1,15831],[1,15915],[1,15998],[4.2,16082],[12.1,16166],[26.8,16248],[44.4,16331],[66.3,16416],[96.9,16832],[97.7,16916],[98.8,16998],[98.8,17082],[98.8,17165],[98.8,17248],[98.8,17332],[98.8,17415],[98.8,17497],[98.8,17582],[98.8,17666],[98.8,17748],[98.8,17832],[98.8,17915],[98.8,17997],[98.8,18082],[98.8,18166],[98.8,18248],[98.8,18332],[98.8,18415],[98.8,18497],[98.8,18582],[98.8,18665],[98.8,18748],[98.8,18832],[98.8,18915],[98.8,18998],[98.8,19082],[98.8,19165],[98.8,19247],[98.8,19332],[98.8,19415],[98.8,19498],[98.8,19582],[98.8,19666],[98.8,19748],[98.8,19832],[98.8,19915],[98.8,19998],[98.8,20081],[98.8,20165],[98.8,20248],[98.8,20332],[98.8,20416],[98.8,20498],[98.8,20581],[98.8,20665],[98.8,20748],[98.8,20832],[98.8,20915],[98.8,20998],[98.8,21081],[98.8,21165],[98.8,21248],[98.8,21332],[98.8,21416],[98.8,21498],[98.8,21581],[98.8,21665],[98.8,21748],[98.8,21832],[98.8,21915],[98.8,21997],[98.8,22081],[98.8,22165],[98.8,22247],[98.8,22332],[98.8,22415],[98.8,22497],[98.8,22581],[98.8,22664],[98.8,22748],[98.8,22831],[98.8,22915],[98.8,22998],[98.8,23081],[98.8,23164],[98.8,23247],[98.8,23332],[98.8,23415],[98.8,23498],[98.8,23582],[98.8,23665],[98.8,23747],[98.8,23832],[98.8,23915],[98.8,23998],[98.8,24081],[98.8,24164],[98.8,24248],[98.8,24331],[98.8,24415],[98.8,24498],[98.8,24581],[98.8,24664],[98.8,24748],[98.8,24832],[98.8,24915],[98.8,24997],[98.8,25081],[98.8,25165],[98.8,25248],[98.8,25332],[98.8,25414],[98.8,25498],[98.8,25581],[98.8,25665],[98.8,25748],[98.8,25832],[98.8,25915],[98.8,25997],[98.8,26081],[98.8,26165],[98.8,26248],[98.8,26332],[98.8,26415],[98.8,26497],[98.8,26582],[98.8,26665],[98.8,26748],[98.8,26832],[98.8,26915],[98.8,26998],[98.8,27082],[98.8,27165],[98.8,27247],[98.8,27332],[98.8,27415],[98.8,27497],[98.8,27582],[98.8,27664],[98.8,27747],[98.8,27832],[98.8,27915],[98.8,27998],[98.8,28081],[98.8,28164],[98.8,28248],[98.8,28332],[98.8,28415],[98.8,28498],[98.8,28581],[98.8,28665],[98.8,28748],[98.8,28831],[98.8,28915],[98.8,28997],[98.8,29081],[98.8,29165],[98.8,29248],[98.8,29331],[98.8,29415],[98.8,29498],[98.8,29582],[98.8,29665],[98.8,29748],[98.8,29831],[98.8,29914],[98.8,29998],[98.8,30081],[98.8,30165],[98.8,30248],[98.8,30331],[98.8,30414],[98.8,30498],[98.8,30581],[98.8,30665],[98.8,30747],[98.8,30831],[98.8,30914],[98.8,30998],[98.8,31081],[98.8,31165],[98.8,31248],[98.8,31331],[98.8,31415],[98.8,31497],[98.8,31582],[98.8,31664],[98.8,31748],[98.8,31831],[98.8,31914],[98.8,31997],[98.8,32081],[98.8,32164],[98.8,32247],[98.8,32331],[98.8,32414],[98.8,32497],[98.8,32581],[98.8,32664],[98.8,32748],[98.8,32830],[98.8,32914],[98.8,32998],[98.8,33081],[98.8,33165],[98.8,33247],[98.8,33331],[98.8,33414],[98.8,33497],[98.8,33581],[98.8,33665],[98.8,33748],[98.8,33831],[98.8,33915],[98.8,33997],[98.8,34082],[98.8,34165],[98.8,34248],[98.8,34331],[98.8,34414],[98.8,34497],[98.8,34581],[98.8,34665],[98.8,34747],[98.8,34831],[98.8,34915],[98.8,34998],[98.8,35082],[98.8,35164],[98.8,35247],[98.8,35331],[98.8,35415],[98.8,35497],[98.8,35580],[98.8,35665],[98.8,35747],[98.8,35831],[98.8,35914],[98.8,35997],[98.8,36081],[98.8,36164],[98.8,36247],[98.8,36331],[98.8,36414],[98.8,36497],[98.8,36581],[98.8,36664],[98.8,36747],[98.8,36831],[98.8,36915],[98.8,36998],[98.8,37081],[98.8,37164],[98.8,37247],[98.8,37331],[98.8,37415],[98.8,37497],[98.8,37581],[98.8,37664],[98.8,37748],[98.8,37831],[98.8,37914],[98.8,37997],[98.8,38080],[98.8,38164],[98.8,38248],[98.8,38331],[98.8,38414],[98.8,38497],[98.8,38581],[98.8,38665],[98.8,38747],[98.8,38831],[98.8,38914],[98.8,38997],[98.8,39081],[98.8,39165],[98.8,39248],[98.8,39330],[98.8,39413],[98.8,39497]]",1,0,1026.631,1035.18,97.39583333,8.061,"[{""rating"":97.39583333333333,""responseTime"":8.060999999999922}]",space,7.998,,1035.181,Not at all,0,1035.189,,,[],,0,18,18,18,1,audio/Narrative8Situation9.wav,audio/Narrative7Situation9.wav,audio/Narrative6Situation9.wav,audio/Narrative5Situation9.wav,3,2,4,3,,,,,,,,,,,,,,,,,,,,,,,,,,,,,,,,,,,,,,,
,,,,,,663cfa8309ab946fcf1b6a9b,2024-05-13_10h39.32.299,group3.1-3.2-social-tom,2023.2.2,Win32,59.95203837,65c5074098b851296ff0b7ed,664233fac460a3834d6401d3,,,,,,,,,,,,,,,,,,,,,,,,,,,,,,,,,,,,,,,,,,,,,,,,,,,,,,,,,,,,,,,,,,,,,,,,1035.189,1063.979,space,28.269,,1063.979,1075.561,space,11.254,,,,,,,,,,,,,,,,,,,,,,,,,,
