consent.started,consent.stopped,consentResponse.keys,consentResponse.rt,consentResponse.duration,participantID,date,expName,psychopyVersion,OS,frameRate,STUDY_ID,SESSION_ID,opening1.started,opening1.stopped,keyEndingOpening1.keys,keyEndingOpening1.rt,keyEndingOpening1.duration,volumeAdjust.started,volumeAdjust.stopped,endingAdjust.keys,endingAdjust.rt,endingAdjust.duration,opening2.started,opening2.stopped,keyEndingOpening.keys,keyEndingOpening.rt,keyEndingOpening.duration,mouse.x,mouse.y,mouse.leftButton,mouse.midButton,mouse.rightButton,mouse.time,instructionLoop.thisRepN,instructionLoop.thisTrialN,instructionLoop.thisN,instructionLoop.thisIndex,instructionLoop.ran,readyForAudio.started,readyForAudio.stopped,fixation.started,run,audio_played,fixation.stopped,endPractice.keys,audioPre.started,audioPre.stopped,continuousResponses_audio,intRating.started,intRating.stopped,intQuestionSlider.response,intQuestionSlider.rt,intQuestionSlider.history,confirmResponse.keys,confirmResponse.rt,confirmResponse.duration,catchQuestion.started,catch_label,catch_value,catchQuestion.stopped,catchQuestionSlider.response,catchQuestionSlider.rt,catchQuestionSlider.history,confirmResponse_2.keys,audioRunLoop.thisRepN,audioRunLoop.thisTrialN,audioRunLoop.thisN,audioRunLoop.thisIndex,audioRunLoop.ran,conditions1_1,conditions2_1,conditions1_2,conditions2_2,dur1_1,dur2_1,dur1_2,dur2_2,endPractice.rt,endPractice.duration,confirmResponse_2.rt,confirmResponse_2.duration,runIntervalBreak.started,runIntervalBreak.stopped,endingBreakKey.keys,endingBreakKey.rt,endingBreakKey.duration,connection.started,connection.stopped,connectionEnding.keys,connectionEnding.rt,connectionEnding.duration,readyForText.started,readyForText.stopped,textPre.started,run_dup,textPre.stopped,continuousResponses_text,textRunLoop.thisRepN,textRunLoop.thisTrialN,textRunLoop.thisN,textRunLoop.thisIndex,textRunLoop.ran,text1_1,text1_2,text2_1,text2_2,runBreakText.started,runBreakText.stopped,endingBreakKey_2.keys,endingBreakKey_2.rt,endingBreakKey_2.duration,ending.started,ending.stopped,endingEnding.keys,endingEnding.rt,endingEnding.duration
0.0002,7.7226,y,7.4157,,545f1e11fdf99b3156e7588b,2025-07-07_22h00.25.414,group3.4_multiperson,2023.2.2,MacIntel,117.6470588,686c2ebf0248f13bef9af11f,686c7ba8e2b52ea08f1fc40f,,,,,,,,,,,,,,,,,,,,,,,,,,,,,,,,,,,,,,,,,,,,,,,,,,,,,,,,,,,,,,,,,,,,,,,,,,,,,,,,,,,,,,,,,,,,,,,,,,,,,,,,
,,,,,545f1e11fdf99b3156e7588b,2025-07-07_22h00.25.414,group3.4_multiperson,2023.2.2,MacIntel,117.6470588,686c2ebf0248f13bef9af11f,686c7ba8e2b52ea08f1fc40f,7.7226,15.2268,space,7.4943,,,,,,,,,,,,,,,,,,,,,,,,,,,,,,,,,,,,,,,,,,,,,,,,,,,,,,,,,,,,,,,,,,,,,,,,,,,,,,,,,,,,,,,,,,,,,,,,,,,,
,,,,,545f1e11fdf99b3156e7588b,2025-07-07_22h00.25.414,group3.4_multiperson,2023.2.2,MacIntel,117.6470588,686c2ebf0248f13bef9af11f,686c7ba8e2b52ea08f1fc40f,,,,,,15.2268,23.6684,space,8.128,,,,,,,,,,,,,,,,,,,,,,,,,,,,,,,,,,,,,,,,,,,,,,,,,,,,,,,,,,,,,,,,,,,,,,,,,,,,,,,,,,,,,,,,,,,,,,,
,,,,,545f1e11fdf99b3156e7588b,2025-07-07_22h00.25.414,group3.4_multiperson,2023.2.2,MacIntel,117.6470588,686c2ebf0248f13bef9af11f,686c7ba8e2b52ea08f1fc40f,,,,,,,,,,,23.6706,28.1519,space,4.4671,,[],[],[],[],[],[],0,0,0,0,1,,,,,,,,,,,,,,,,,,,,,,,,,,,,,,,,,,,,,,,,,,,,,,,,,,,,,,,,,,,,,,,,,,,,,,,,,,,,,,
,,,,,545f1e11fdf99b3156e7588b,2025-07-07_22h00.25.414,group3.4_multiperson,2023.2.2,MacIntel,117.6470588,686c2ebf0248f13bef9af11f,686c7ba8e2b52ea08f1fc40f,,,,,,,,,,,28.1521,35.0599,space,6.8709,,[],[],[],[],[],[],1,0,1,0,1,,,,,,,,,,,,,,,,,,,,,,,,,,,,,,,,,,,,,,,,,,,,,,,,,,,,,,,,,,,,,,,,,,,,,,,,,,,,,,
,,,,,545f1e11fdf99b3156e7588b,2025-07-07_22h00.25.414,group3.4_multiperson,2023.2.2,MacIntel,117.6470588,686c2ebf0248f13bef9af11f,686c7ba8e2b52ea08f1fc40f,,,,,,,,,,,35.0601,43.5183,space,8.4408,,[],[],[],[],[],[],2,0,2,0,1,,,,,,,,,,,,,,,,,,,,,,,,,,,,,,,,,,,,,,,,,,,,,,,,,,,,,,,,,,,,,,,,,,,,,,,,,,,,,,
,,,,,545f1e11fdf99b3156e7588b,2025-07-07_22h00.25.414,group3.4_multiperson,2023.2.2,MacIntel,117.6470588,686c2ebf0248f13bef9af11f,686c7ba8e2b52ea08f1fc40f,,,,,,,,,,,43.5185,52.9268,space,9.4012,,[],[],[],[],[],[],3,0,3,0,1,,,,,,,,,,,,,,,,,,,,,,,,,,,,,,,,,,,,,,,,,,,,,,,,,,,,,,,,,,,,,,,,,,,,,,,,,,,,,,
,,,,,545f1e11fdf99b3156e7588b,2025-07-07_22h00.25.414,group3.4_multiperson,2023.2.2,MacIntel,117.6470588,686c2ebf0248f13bef9af11f,686c7ba8e2b52ea08f1fc40f,,,,,,,,,,,52.927,61.6685,space,8.7344,,[],[],[],[],[],[],4,0,4,0,1,,,,,,,,,,,,,,,,,,,,,,,,,,,,,,,,,,,,,,,,,,,,,,,,,,,,,,,,,,,,,,,,,,,,,,,,,,,,,,
,,,,,545f1e11fdf99b3156e7588b,2025-07-07_22h00.25.414,group3.4_multiperson,2023.2.2,MacIntel,117.6470588,686c2ebf0248f13bef9af11f,686c7ba8e2b52ea08f1fc40f,,,,,,,,,,,61.6688,66.1605,space,4.4808,,[],[],[],[],[],[],5,0,5,0,1,,,,,,,,,,,,,,,,,,,,,,,,,,,,,,,,,,,,,,,,,,,,,,,,,,,,,,,,,,,,,,,,,,,,,,,,,,,,,,
,,,,,545f1e11fdf99b3156e7588b,2025-07-07_22h00.25.414,group3.4_multiperson,2023.2.2,MacIntel,117.6470588,686c2ebf0248f13bef9af11f,686c7ba8e2b52ea08f1fc40f,,,,,,,,,,,,,,,,,,,,,,,,,,,66.1629,68.7435,68.7625,1,audio/Narrative13Situation2.wav,70.7646,,70.7649,100.5062,"[[999,1],[999,90],[999,174],[999,257],[999,341],[999,424],[999,507],[999,590],[999,674],[999,753],[999,836],[999,919],[999,1002],[999,1086],[999,1169],[999,1252],[999,1336],[999,1420],[999,1503],[999,1586],[999,1668],[999,1749],[999,1832],[39.3,1915],[38.7,1999],[37.1,2082],[36,2165],[35.9,2248],[35.8,2332],[34.7,2415],[33.5,2499],[33.5,2582],[29.6,2665],[16.3,2745],[0.9,15241],[2.9,15324],[5.1,15406],[5.6,15490],[5.6,15574],[6.6,15657],[18.6,15740],[26.5,15824],[35.3,15907],[41.6,15990],[46.5,16074],[54.1,16157],[58.5,16241],[60.4,16324],[60.9,16407],[60.9,16490],[60.9,16574],[60.9,16657],[64.1,16740],[100,20903],[100,20986],[100,21070],[100,21153],[100,21235],[100,21319],[100,21403],[100,21486],[100,21570],[100,21653],[100,21736],[100,21819],[100,21903],[100,21986],[100,22070],[100,22153],[100,22236],[100,22320],[100,22403],[100,22486],[100,22570],[100,22653],[100,22736],[100,22820],[100,22903],[100,22986],[100,23070],[100,23153],[100,23236],[100,23321],[100,23403],[100,23490],[100,23570],[100,23653],[100,23736],[100,23820],[100,23903],[100,23986],[100,24069],[100,24149],[100,24232],[100,24315],[100,24399],[100,24482],[100,24566],[100,24649],[100,24731],[100,24816],[100,24899],[100,24982],[100,25065],[100,25149],[100,25232],[100,25315],[100,25399],[100,25482],[100,25565],[100,25649],[100,25732],[100,25815],[100,25899],[100,25982],[100,26065],[100,26149],[100,26232],[100,26315],[100,26399],[100,26482],[100,26566],[100,26649],[100,26732],[100,26815],[100,26899],[100,26982],[100,27065],[100,27149],[100,27232],[100,27316],[100,27399],[100,27482],[100,27566],[100,27649],[100,27732],[100,27816],[100,27899],[100,27982],[100,28066],[100,28149],[100,28231],[100,28315],[100,28399],[100,28482],[100,28565],[100,28649],[100,28732],[100,28816],[100,28899],[100,28982],[100,29065],[100,29149],[100,29232],[100,29316],[100,29399],[100,29482],[100,29566],[100,29649],[100,29732]]",100.5064,108.386,100,7.2058,"[{""rating"":100,""responseTime"":7.205800000071534}]",space,7.3615,,108.3864,Definitely yes,100,108.3904,,,[],,0,0,0,0,1,audio/Narrative13Situation2.wav,audio/Narrative13Situation2.wav,audio/Narrative13Situation2.wav,audio/Narrative13Situation2.wav,2,2,2,2,,,,,,,,,,,,,,,,,,,,,,,,,,,,,,,,,,,,,,,
,,,,,545f1e11fdf99b3156e7588b,2025-07-07_22h00.25.414,group3.4_multiperson,2023.2.2,MacIntel,117.6470588,686c2ebf0248f13bef9af11f,686c7ba8e2b52ea08f1fc40f,,,,,,,,,,,,,,,,,,,,,,,,,,,,,108.3906,1,audio/Narrative7Situation1.wav,109.5769,space,109.577,165.4539,"[[100,995],[85.9,1078],[74.6,1162],[72.2,1245],[72.2,1328],[72.2,1412],[72.2,1495],[72.2,1579],[72.2,1661],[72.3,1745],[72.9,1828],[72.9,1911],[73,1995],[77.4,2078],[88.2,2162],[97.5,2245],[100,2328],[100,2412],[100,2495],[100,2578],[100,2662],[100,2745],[100,2832],[100,2916],[100,2999],[100,3083],[100,3166],[100,3249],[100,3333],[100,3415],[100,3499],[100,3583],[100,3666],[100,3749],[100,3833],[100,3915],[100,3999],[100,4082],[100,4166],[100,4249],[100,4332],[100,4416],[100,4499],[100,4583],[100,4666],[100,4749],[100,4832],[100,4915],[100,4999],[100,5083],[100,5166],[100,5250],[100,5333],[100,5416],[100,5499],[100,5582],[100,5666],[100,5749],[100,5833],[100,5916],[100,5999],[100,6083],[100,6166],[100,6249],[100,6333],[100,6416],[100,6499],[100,6582],[100,6669],[100,6749],[100,6833],[100,6916],[100,6999],[100,7083],[100,7166],[100,7249],[100,7332],[100,7416],[100,7499],[100,7582],[100,7666],[100,7749],[100,7833],[100,7916],[100,8000],[100,8082],[100,8166],[100,8249],[100,8333],[100,8416],[100,8499],[100,8583],[100,8666],[100,8749],[100,8833],[100,8916],[100,8999],[100,9083],[100,9166],[100,9249],[100,9332],[100,9416],[100,9499],[100,9582],[100,9666],[100,9749],[100,9833],[100,9916],[100,9995],[100,10079],[100,10162],[100,10245],[100,10328],[100,10412],[100,10495],[100,10578],[100,10662],[100,10745],[100,10828],[100,10912],[100,10995],[100,11078],[100,11162],[100,11245],[100,11328],[100,11412],[100,11495],[100,11575],[100,11658],[100,11740],[100,11824],[100,11908],[100,11991],[100,12076],[100,12158],[100,12240],[100,12324],[100,12408],[100,12491],[100,12574],[100,12658],[100,12741],[100,12824],[100,12908],[100,12992],[100,13074],[100,13160],[100,13241],[100,13324],[100,13408],[100,13491],[100,13574],[100,13658],[100,13741],[100,13824],[100,13908],[100,13991],[100,14074],[100,14157],[100,14241],[100,14324],[100,14408],[100,14491],[100,14574],[100,14657],[100,14741],[100,14825],[100,14908],[100,14991],[100,15074],[100,15158],[100,15240],[100,15325],[100,15408],[100,15491],[100,15574],[100,15657],[100,15741],[100,15825],[100,15908],[100,15991],[100,16074],[100,16157],[100,16241],[100,16324],[100,16408],[100,16490],[100,16574],[100,16658],[100,16741],[100,16824],[100,16908],[100,16991],[100,17074],[100,17158],[100,17241],[100,17324],[100,17408],[100,17491],[100,17574],[100,17658],[100,17741],[100,17824],[100,17908],[100,17991],[100,18075],[100,18158],[100,18241],[100,18324],[100,18408],[100,18491],[100,18574],[100,18658],[100,18741],[100,18824],[100,18908],[100,18991],[100,19074],[100,19158],[100,19240],[100,19324],[100,19408],[100,19491],[100,19574],[100,19658],[100,19741],[100,19824],[100,19908],[100,19991],[100,20074],[100,20157],[100,20241],[100,20324],[100,20408],[100,20491],[100,20575],[100,20658],[100,20741],[100,20824],[100,20907],[100,20991],[100,21074],[100,21158],[100,21241],[100,21324],[100,21408],[100,21491],[100,21574],[100,21658],[100,21741],[100,21824],[100,21907],[100,21991],[100,22074],[100,22158],[100,22241],[100,22324],[100,22407],[100,22491],[100,22577],[100,22658],[100,22741],[100,22824],[100,22908],[100,22991],[100,23074],[100,23158],[100,23241],[100,23324],[100,23408],[100,23491],[100,23574],[100,23657],[100,23741],[100,23825],[100,23911],[100,23991],[100,24074],[100,24158],[100,24241],[100,24324],[100,24408],[100,24491],[100,24576],[100,24657],[100,24741],[100,24825],[100,24909],[100,24991],[100,25074],[100,25158],[100,25241],[100,25324],[100,25408],[100,25491],[100,25574],[100,25658],[100,25741],[100,25824],[100,25908],[100,25991],[100,26078],[100,26158],[100,26240],[100,26324],[100,26408],[100,26490],[100,26574],[100,26658],[100,26741],[100,26824],[100,26908],[100,26991],[100,27074],[100,27158],[100,27241],[100,27324],[100,27407],[100,27491],[100,27574],[100,27657],[100,27741],[100,27825],[100,27908],[100,27991],[100,28075],[100,28158],[100,28241],[100,28324],[100,28408],[100,28491],[100,28574],[100,28660],[100,28741],[100,28824],[100,28908],[100,28991],[100,29074],[100,29158],[100,29241],[100,29324],[100,29408],[100,29491],[100,29574],[100,29658],[100,29741],[100,29825],[100,29910],[100,29991],[100,30074],[100,30157],[100,30241],[100,30324],[100,30408],[100,30491],[100,30574],[100,30658],[100,30741],[100,30824],[100,30908],[100,30991],[100,31076],[100,31157],[100,31241],[100,31324],[100,31407],[100,31491],[100,31574],[100,31658],[100,31741],[100,31825],[100,31908],[100,31991],[100,32074],[100,32158],[100,32241],[100,32324],[100,32408],[100,32491],[100,32574],[100,32658],[100,32741],[100,32824],[100,32908],[100,32991],[100,33074],[100,33158],[100,33241],[100,33324],[100,33408],[100,33491],[100,33574],[100,33658],[100,33741],[100,33824],[100,33908],[100,33991],[100,34074],[100,34158],[100,34241],[100,34324],[100,34408],[100,34491],[100,34574],[100,34658],[100,34741],[100,34824],[100,34908],[100,34991],[100,35074],[100,35157],[100,35243],[100,35324],[100,35408],[100,35491],[100,35574],[100,35658],[100,35741],[100,35825],[100,35908],[100,35991],[100,36074],[100,36158],[100,36241],[100,36324],[100,36408],[100,36491],[100,36574],[100,36658],[100,36741],[100,36824],[100,36908],[100,36991],[100,37074],[100,37157],[100,37241],[100,37324],[100,37408],[100,37491],[100,37574],[100,37658],[100,37740],[100,37824],[100,37907],[100,37991],[100,38075],[100,38158],[100,38241],[100,38324],[100,38408],[100,38491],[100,38574],[100,38658],[100,38740],[100,38825],[100,38908],[100,38991],[100,39074],[100,39158],[100,39241],[100,39324],[100,39408],[100,39491],[100,39574],[100,39658],[100,39741],[100,39825],[100,39910],[100,39990],[100,40075],[100,40158],[100,40241],[100,40324],[100,40408],[100,40491],[100,40574],[100,40658],[100,40741],[100,40825],[100,40908],[100,40991],[100,41077],[100,41158],[100,41241],[100,41324],[100,41408],[100,41491],[100,41574],[100,41658],[100,41741],[100,41824],[100,41908],[100,41991],[100,42074],[100,42158],[100,42241],[100,42325],[100,42408],[100,42491],[100,42574],[100,42658],[100,42741],[100,42825],[100,42907],[100,42991],[100,43074],[100,43158],[100,43241],[100,43324],[100,43407],[100,43491],[100,43574],[100,43657],[100,43743],[100,43824],[100,43908],[100,43991],[100,44074],[100,44160],[100,44241],[100,44325],[100,44408],[100,44491],[100,44575],[100,44658],[100,44740],[100,44824],[100,44908],[100,44991],[100,45074],[100,45158],[100,45240],[100,45324],[100,45408],[100,45491],[100,45574],[100,45658],[100,45741],[100,45824],[100,45908],[100,45991],[100,46074],[100,46158],[100,46241],[100,46324],[100,46408],[100,46491],[100,46574],[100,46658],[100,46745],[100,46824],[100,46908],[100,46991],[100,47074],[100,47158],[100,47243],[100,47324],[100,47408],[100,47491],[100,47574],[100,47658],[100,47741],[100,47824],[100,47908],[100,47991],[100,48074],[100,48159],[100,48241],[100,48324],[100,48408],[100,48491],[100,48574],[100,48658],[100,48741],[100,48824],[100,48910],[100,48991],[100,49081],[100,49158],[100,49241],[100,49324],[100,49408],[100,49491],[100,49574],[100,49658],[100,49741],[100,49825],[100,49908],[100,49991],[100,50074],[100,50157],[100,50241],[100,50324],[100,50407],[100,50491],[100,50574],[100,50658],[100,50741],[100,50825],[100,50908],[100,50991],[100,51076],[100,51158],[100,51241],[100,51325],[100,51408],[100,51491],[100,51574],[100,51657],[100,51741],[100,51824],[100,51908],[100,51991],[100,52074],[100,52158],[100,52241],[100,52324],[100,52408],[100,52491],[100,52575],[100,52659],[100,52741],[100,52824],[100,52908],[100,52991],[100,53074],[100,53158],[100,53241],[100,53324],[100,53408],[100,53491],[100,53575],[100,53658],[100,53741],[100,53824],[100,53908],[100,53991],[100,54075],[100,54157],[100,54241],[100,54324],[100,54408],[100,54491],[100,54574],[100,54658],[100,54741],[100,54824],[100,54908],[100,54991],[100,55074],[100,55158],[100,55241],[100,55324],[100,55408],[100,55491],[100,55574],[100,55658],[100,55741],[100,55825]]",165.4545,170.4811,100,4.0034,"[{""rating"":100,""responseTime"":4.003399999976153}]",space,4.5104,,170.4812,Not at all,0,170.4832,,,[],,0,1,1,1,1,audio/Narrative7Situation1.wav,audio/Narrative8Situation1.wav,audio/Narrative5Situation1.wav,audio/Narrative6Situation1.wav,2,5,5,2,1.1691,,,,,,,,,,,,,,,,,,,,,,,,,,,,,,,,,,,,,,
,,,,,545f1e11fdf99b3156e7588b,2025-07-07_22h00.25.414,group3.4_multiperson,2023.2.2,MacIntel,117.6470588,686c2ebf0248f13bef9af11f,686c7ba8e2b52ea08f1fc40f,,,,,,,,,,,,,,,,,,,,,,,,,,,,,170.4833,1,audio/Narrative7Situation2.wav,173.4893,,173.4894,180.9561,"[[100,2500],[100,2583],[96.8,2666],[94.8,2750],[94.8,2833],[93.6,2916],[91.9,3000],[91.8,3083],[91.8,3166],[92.4,3249],[98.3,3333],[100,3416],[100,3499],[100,3583],[100,3666],[100,3749],[100,3833],[100,3916],[100,4000],[100,4083],[100,4169],[100,4250],[100,4333],[100,4416],[100,4499],[100,4583],[100,4666],[100,4750],[100,4833],[100,4916],[100,5000],[100,5082],[100,5165],[100,5250],[100,5333],[100,5416],[100,5500],[100,5583],[100,5666],[100,5749],[100,5833],[100,5915],[100,6000],[100,6085],[100,6166],[100,6249],[100,6332],[100,6416],[100,6500],[100,6583],[100,6666],[100,6749],[100,6833],[100,6916],[100,6999],[100,7083],[100,7166],[100,7252],[100,7333],[100,7416]]",180.9562,183.8343,100,2.3609,"[{""rating"":100,""responseTime"":2.360899999976141}]",space,2.3581,,183.8344,Partially,50,183.8363,,,[],,0,2,2,2,1,audio/Narrative7Situation2.wav,audio/Narrative8Situation2.wav,audio/Narrative5Situation2.wav,audio/Narrative6Situation2.wav,3,3,3,3,,,,,,,,,,,,,,,,,,,,,,,,,,,,,,,,,,,,,,,
,,,,,545f1e11fdf99b3156e7588b,2025-07-07_22h00.25.414,group3.4_multiperson,2023.2.2,MacIntel,117.6470588,686c2ebf0248f13bef9af11f,686c7ba8e2b52ea08f1fc40f,,,,,,,,,,,,,,,,,,,,,,,,,,,,,183.8365,1,audio/Narrative7Situation3.wav,191.8396,,191.8396,201.0812,"[[100,7579],[100,7658],[100,7741],[99.9,7824],[99.6,7908],[99.2,7991],[98,8074],[98,8158],[98,8241],[99.8,8324],[100,8407],[100,8490],[100,8574],[100,8658],[100,8741],[100,8824],[100,8908],[100,8991],[100,9074],[100,9158],[100,9241]]",201.0814,203.3936,100,2.3066,"[{""rating"":100,""responseTime"":2.3066000000238205}]",space,0.3523,,203.3937,Not at all,0,203.3949,,,[],,0,3,3,3,1,audio/Narrative7Situation3.wav,audio/Narrative8Situation3.wav,audio/Narrative5Situation3.wav,audio/Narrative6Situation3.wav,8,4,3,5,,,,,,,,,,,,,,,,,,,,,,,,,,,,,,,,,,,,,,,
,,,,,545f1e11fdf99b3156e7588b,2025-07-07_22h00.25.414,group3.4_multiperson,2023.2.2,MacIntel,117.6470588,686c2ebf0248f13bef9af11f,686c7ba8e2b52ea08f1fc40f,,,,,,,,,,,,,,,,,,,,,,,,,,,,,203.3951,1,audio/Narrative7Situation4.wav,206.4023,space,206.4023,218.1189,"[[100,5883],[100,5966],[98.8,6049],[98.2,6133],[98,6216],[97.3,6299],[95.5,6383],[95.4,6466],[95.4,6549],[98.6,6633],[100,6716],[100,6799],[100,6882],[100,6966],[100,7049],[100,7133],[100,7216],[100,7299],[100,7382],[100,7466],[100,7551],[100,7632],[100,7717],[100,7799],[100,7882],[100,7966],[100,8049],[100,8132],[100,8216],[100,8299],[100,8382],[100,8468],[100,8549],[100,8633],[100,8716],[100,8799],[100,8883],[100,8966],[100,9049],[100,9133],[100,9216],[100,9299],[100,9382],[100,9466],[100,9549],[100,9632],[100,9716],[100,9799],[100,9882],[100,9966],[100,10049],[100,10132],[100,10216],[100,10300],[100,10382],[100,10465],[100,10549],[100,10632],[100,10716],[100,10799],[100,10882],[100,10966],[100,11049],[100,11132],[100,11216],[100,11299],[100,11383],[100,11465],[100,11549],[100,11632],[100,11716]]",218.1192,224.4103,13.40250523,6.0592,"[{""rating"":22.573776489768676,""responseTime"":1.4846999999284662},{""rating"":13.40250523432156,""responseTime"":6.059199999928467}]",space,5.7693,,224.4105,Not at all,0,224.4115,,,[],,0,4,4,4,1,audio/Narrative7Situation4.wav,audio/Narrative8Situation4.wav,audio/Narrative5Situation4.wav,audio/Narrative6Situation4.wav,3,3,1,2,0.2822,,,,,,,,,,,,,,,,,,,,,,,,,,,,,,,,,,,,,,
,,,,,545f1e11fdf99b3156e7588b,2025-07-07_22h00.25.414,group3.4_multiperson,2023.2.2,MacIntel,117.6470588,686c2ebf0248f13bef9af11f,686c7ba8e2b52ea08f1fc40f,,,,,,,,,,,,,,,,,,,,,,,,,,,,,224.4116,1,audio/Narrative7Situation5.wav,229.4186,,229.4187,237.8888,"[[15,2579],[20.7,2662],[25.7,2745],[34,2829],[39.4,2912],[40.5,2995],[40.5,3078],[40.5,3162],[40.5,3245],[41.9,3329],[46.3,3408],[48,3491],[49.5,3574],[50.5,3658],[50.6,3741],[50.6,3824],[50.6,3908],[50.6,3991],[50.1,4074],[49.8,4158],[49.7,4241],[49.7,4324],[49.7,4408],[49.7,4491],[49.7,4574],[49.7,4658],[49.7,4741],[49.7,4824],[49.7,4908],[49.7,4991],[49.7,5074],[49.7,5158],[49.7,5241],[49.7,5324],[49.7,5408],[49.7,5491],[49.7,5574],[49.7,5658],[49.7,5741],[49.7,5824],[49.7,5908],[49.8,5991],[50.4,6071],[50.4,6141],[50.4,6207],[50.4,6274],[50.4,6340],[50.4,6407],[50.4,6473],[50.4,6540],[50.4,6606],[50.4,6673],[50.4,6744],[50.4,6827],[50.5,6909],[50.5,6994],[50.5,7077],[50.6,7160],[50.6,7244],[50.6,7326],[50.6,7410],[50.6,7494],[50.6,7577],[50.6,7661],[50.6,7744],[50.6,7827],[50.6,7910],[50.6,7994],[50.6,8077],[50.6,8160],[50.6,8244],[50.6,8328],[50.6,8411]]",237.8889,247.1186,93.45820991,8.9583,"[{""rating"":93.45820991243865,""responseTime"":8.958300000071546}]",space,8.712,,247.1187,Definitely yes,100,247.12,,,[],,0,5,5,5,1,audio/Narrative7Situation5.wav,audio/Narrative8Situation5.wav,audio/Narrative5Situation5.wav,audio/Narrative6Situation5.wav,5,2,5,2,,,,,,,,,,,,,,,,,,,,,,,,,,,,,,,,,,,,,,,
,,,,,545f1e11fdf99b3156e7588b,2025-07-07_22h00.25.414,group3.4_multiperson,2023.2.2,MacIntel,117.6470588,686c2ebf0248f13bef9af11f,686c7ba8e2b52ea08f1fc40f,,,,,,,,,,,,,,,,,,,,,,,,,,,,,247.1201,1,audio/Narrative7Situation6.wav,250.127,,250.127,260.0771,"[[91,1583],[88.7,1667],[87,1750],[85.8,1833],[85.6,1916],[85.6,2000],[85.6,2083],[85.6,2165],[88.8,2250],[96.8,2333],[100,2416],[100,2500],[100,2583],[100,2666],[100,2750],[100,2833],[100,2916],[100,3000],[100,3082],[100,3166],[100,3250],[100,3333],[100,3416],[100,3500],[100,3583],[100,3666],[100,3750],[100,3833],[100,3919],[100,4000],[100,4083],[100,4166],[100,4250],[100,4332],[100,4419],[100,4499],[100,4583],[100,4668],[100,4750],[100,4833],[100,4916],[100,5000],[100,5083],[100,5166],[100,5250],[100,5332],[100,5416],[100,5500],[100,5585],[100,5666],[100,5750],[100,5832],[100,5916],[100,6000],[100,6082],[100,6166],[100,6250],[100,6335],[100,6416],[100,6499],[100,6583],[100,6666],[100,6750],[100,6833],[100,6916],[100,7000],[100,7083],[100,7166],[100,7249],[100,7333],[100,7416],[100,7500],[100,7583],[100,7668],[100,7750],[100,7833],[100,7915],[100,8000],[100,8083],[100,8166],[100,8250],[100,8333],[100,8416],[100,8500],[100,8583],[100,8666],[100,8750],[100,8833],[100,8915],[100,9000],[100,9083],[100,9166],[100,9250],[100,9333],[100,9419],[100,9500],[100,9583],[100,9669],[100,9750],[100,9833],[100,9916]]",260.0772,262.3509,100,1.7421,"[{""rating"":100,""responseTime"":1.7421000000238678}]",space,1.75,,262.351,Definitely yes,100,262.352,,,[],,0,6,6,6,1,audio/Narrative7Situation6.wav,audio/Narrative8Situation6.wav,audio/Narrative5Situation6.wav,audio/Narrative6Situation6.wav,3,2,3,2,,,,,,,,,,,,,,,,,,,,,,,,,,,,,,,,,,,,,,,
,,,,,545f1e11fdf99b3156e7588b,2025-07-07_22h00.25.414,group3.4_multiperson,2023.2.2,MacIntel,117.6470588,686c2ebf0248f13bef9af11f,686c7ba8e2b52ea08f1fc40f,,,,,,,,,,,,,,,,,,,,,,,,,,,,,262.3522,1,audio/Narrative7Situation7.wav,267.3601,,267.3601,284.514,"[[100,1329],[91.6,1412],[83.1,1496],[82.1,1579],[82,1662],[82,1746],[82,1829],[82.1,1912],[82.1,1996],[82.1,2079],[96.4,2162],[100,2246],[100,2496],[52.7,2746],[45.8,2829],[39.3,2912],[33.8,2996],[29.2,3079],[26.8,3162],[25,3246],[22.6,3329],[21.8,3412],[21.8,3496],[21.8,3579],[21.8,3662],[21.8,3746],[21.8,3829],[21.8,3912],[21.8,3996],[21.8,4079],[21.8,4162],[21.8,4246],[21.8,4329],[21.8,4412],[21.8,4496],[21.8,4579],[21.8,4663],[21.8,4746],[21.9,4830],[22.1,4914],[29.1,4996],[56.5,5079],[80,5162]]",284.5141,289.1186,100,4.3815,"[{""rating"":100,""responseTime"":4.381500000000017}]",space,4.0926,,289.1187,Definitely yes,100,289.1195,,,[],,0,7,7,7,1,audio/Narrative7Situation7.wav,audio/Narrative8Situation7.wav,audio/Narrative5Situation7.wav,audio/Narrative6Situation7.wav,5,3,4,5,,,,,,,,,,,,,,,,,,,,,,,,,,,,,,,,,,,,,,,
,,,,,545f1e11fdf99b3156e7588b,2025-07-07_22h00.25.414,group3.4_multiperson,2023.2.2,MacIntel,117.6470588,686c2ebf0248f13bef9af11f,686c7ba8e2b52ea08f1fc40f,,,,,,,,,,,,,,,,,,,,,,,,,,,,,289.1196,1,audio/Narrative7Situation8.wav,291.1269,,291.1269,301.1229,"[[999,0],[999,83],[999,166],[999,250],[999,333],[999,416],[999,500],[999,585],[999,664],[999,746],[999,828],[999,912],[999,995],[999,1079],[999,1162],[999,1245],[999,1329],[999,1412],[999,1495],[999,1579],[999,1662],[999,1746],[999,1829],[999,1912],[999,1995],[999,2079],[999,2162],[999,2245],[999,2328],[999,2411],[999,2495],[999,2579],[999,2662],[999,2745],[999,2831],[999,2912],[999,2995],[999,3079],[999,3162],[999,3245],[999,3329],[999,3412],[999,3495],[999,3579],[999,3662],[999,3745],[999,3829],[999,3912],[999,3995],[999,4079],[999,4162],[999,4245],[999,4329],[999,4412],[999,4495],[999,4579],[999,4662],[999,4745],[999,4829],[999,4912],[999,4996],[999,5079],[999,5162],[999,5245],[999,5329],[999,5412],[999,5498],[999,5579],[999,5662],[999,5745],[999,5829],[999,5912],[999,5995],[999,6079],[999,6162],[999,6245],[999,6329],[999,6412],[999,6496],[999,6579],[999,6662],[999,6745],[999,6829],[999,6912],[999,6995],[999,7079],[999,7162],[999,7249],[999,7328],[999,7412],[999,7499],[999,7579],[999,7664],[999,7746],[999,7829],[999,7912],[999,7995],[999,8079],[999,8162],[999,8246],[999,8329],[999,8412],[999,8496],[999,8579],[999,8662],[999,8746],[999,8830],[999,8913],[999,8996],[999,9080],[999,9162],[999,9246],[999,9330],[999,9413],[999,9495],[999,9579],[999,9662],[999,9746],[999,9829],[999,9914],[999,9995]]",301.123,306.1257,100,1.6015,"[{""rating"":90.97401818688338,""responseTime"":0.9868999999761741},{""rating"":100,""responseTime"":1.601500000000044}]",space,4.4795,,306.1258,Partially,50,306.1274,,,[],,0,8,8,8,1,audio/Narrative7Situation8.wav,audio/Narrative8Situation8.wav,audio/Narrative5Situation8.wav,audio/Narrative6Situation8.wav,2,3,3,5,,,,,,,,,,,,,,,,,,,,,,,,,,,,,,,,,,,,,,,
,,,,,545f1e11fdf99b3156e7588b,2025-07-07_22h00.25.414,group3.4_multiperson,2023.2.2,MacIntel,117.6470588,686c2ebf0248f13bef9af11f,686c7ba8e2b52ea08f1fc40f,,,,,,,,,,,,,,,,,,,,,,,,,,,,,306.1275,1,audio/Narrative7Situation9.wav,308.1348,,308.1348,316.7523,"[[999,0],[999,83],[999,166],[999,249],[999,333],[999,416],[999,499],[999,585],[999,666],[999,750],[999,833],[999,916],[999,999],[999,1083],[999,1166],[999,1250],[999,1333],[999,1417],[999,1500],[999,1583],[999,1667],[999,1757],[999,1824],[999,1891],[999,1957],[999,2024],[999,2090],[999,2157],[999,2232],[999,2315],[999,2399],[999,2482],[999,2565],[999,2648],[999,2732],[999,2814],[999,2899],[999,2982],[999,3065],[999,3149],[999,3232],[999,3315],[999,3399],[999,3482],[999,3566],[999,3649],[999,3732],[999,3816],[999,3899],[999,3982],[999,4066],[999,4149],[999,4233],[999,4316],[999,4399],[999,4483],[999,4566],[999,4649],[999,4733],[999,4816],[999,4899],[999,4983],[999,5066],[999,5150],[999,5233],[999,5316],[999,5400],[999,5483],[999,5566],[999,5650],[999,5733],[999,5816],[999,5900],[999,5983],[999,6066],[999,6150],[999,6233],[999,6316],[999,6400],[999,6483],[999,6566],[999,6650],[999,6732],[999,6817],[999,6900],[999,6983],[999,7067],[999,7150],[999,7233],[999,7317],[999,7400],[999,7483],[999,7576],[999,7658],[999,7742],[999,7825],[999,7908],[999,7992],[999,8075],[999,8159],[999,8242],[999,8325],[999,8408],[999,8492],[999,8575]]",316.7524,320.2938,100,2.8565,"[{""rating"":100,""responseTime"":2.8565000000000396}]",space,3.0196,,320.2938,Definitely yes,100,320.2954,,,[],,0,9,9,9,1,audio/Narrative7Situation9.wav,audio/Narrative8Situation9.wav,audio/Narrative5Situation9.wav,audio/Narrative6Situation9.wav,2,3,3,4,,,,,,,,,,,,,,,,,,,,,,,,,,,,,,,,,,,,,,,
,,,,,545f1e11fdf99b3156e7588b,2025-07-07_22h00.25.414,group3.4_multiperson,2023.2.2,MacIntel,117.6470588,686c2ebf0248f13bef9af11f,686c7ba8e2b52ea08f1fc40f,,,,,,,,,,,,,,,,,,,,,,,,,,,,,320.2955,1,audio/Narrative8Situation1.wav,325.492,,325.492,341.3982,"[[999,0],[999,84],[999,168],[999,251],[999,334],[999,417],[999,501],[999,584],[999,668],[999,751],[999,834],[999,918],[999,2388],[999,2472],[999,2555],[999,2639],[999,2722],[999,2805],[999,2889],[999,2971],[999,3054],[999,3139],[999,3222],[999,3306],[999,3389],[999,3472],[999,3555],[999,3639],[999,3722],[999,3806],[999,3889],[999,3972],[999,4056],[68,4139],[68,4222],[68,4305],[68,4389],[68,4472],[68,4556],[68.3,4639],[68.7,4722],[68.9,4805],[69.1,4889],[69.1,4972],[69.2,5055],[69.6,5139],[70.7,5222],[72,5305],[72.2,5389],[72.2,5472],[79.3,5556],[95.9,5639],[100,5722],[100,5806],[100,5889],[100,5972],[100,6055],[100,6139],[100,6222],[100,6306],[100,6389],[100,6472],[100,6555],[100,6639],[100,6722],[100,6806],[100,6889],[100,6972],[100,7055],[100,7139],[100,7222],[100,7305],[100,7389],[100,7472],[100,7555],[100,7638],[100,7722],[100,7805],[100,7889],[100,7972],[100,8055],[100,8139],[100,8222],[100,8306],[100,8389],[100,8472],[100,8555],[100,8639],[100,8722],[100,8805],[100,8889],[100,8972],[100,9055],[100,9139],[100,9222],[100,9305],[100,9389],[100,9472],[100,9555],[100,9639],[100,9722],[100,9806],[100,9889],[100,9972],[100,10055],[100,10139],[100,10222],[100,10305],[100,10389],[100,10472],[100,10555],[100,10639],[100,10722],[100,10805],[100,10888],[100,10972],[100,11055],[100,11139],[100,11222],[100,11305],[100,11388],[100,11472],[100,11556],[100,11639],[100,11722],[100,11805],[100,11889],[100,11972],[100,12055],[100,12139],[100,12222],[100,12306],[100,12389],[100,12472],[100,12555],[100,12639],[100,12722],[100,12806],[100,12889],[100,12972],[100,13056],[100,13139],[100,13222],[100,13307],[100,13389],[100,13472],[100,13556],[100,13639],[100,13722],[100,13805],[100,13889],[100,13972],[100,14055],[100,14139],[100,14222],[100,14306],[100,14389],[100,14472],[100,14555],[100,14639],[100,14722],[100,14806],[100,14889],[100,14972],[100,15056],[97,15138],[96.8,15222],[97,15306],[97.1,15389],[97.1,15472],[97.1,15555],[98,15639],[100,15722],[100,15806],[100,15889]]",341.3982,344.2355,100,2.6394,"[{""rating"":100,""responseTime"":2.639399999976149}]",space,2.3157,,344.2355,Definitely yes,100,344.2363,,,[],,0,10,10,10,1,audio/Narrative8Situation1.wav,audio/Narrative7Situation1.wav,audio/Narrative6Situation1.wav,audio/Narrative5Situation1.wav,5,2,2,5,,,,,,,,,,,,,,,,,,,,,,,,,,,,,,,,,,,,,,,
,,,,,545f1e11fdf99b3156e7588b,2025-07-07_22h00.25.414,group3.4_multiperson,2023.2.2,MacIntel,117.6470588,686c2ebf0248f13bef9af11f,686c7ba8e2b52ea08f1fc40f,,,,,,,,,,,,,,,,,,,,,,,,,,,,,344.2364,1,audio/Narrative8Situation2.wav,347.2438,,347.2438,357.3472,"[[100,8829],[100,8912],[91.3,8995],[87.1,9079],[86.7,9162],[86.7,9245],[86.7,9329],[88.1,9412],[94,9495],[100,9579],[100,9662],[100,9745],[100,9829],[100,9912],[100,9995],[100,10079]]",357.3473,358.898,100,1.1611,"[{""rating"":100,""responseTime"":1.1611000000238505}]",space,1.0396,,358.898,Partially,50,358.8995,,,[],,0,11,11,11,1,audio/Narrative8Situation2.wav,audio/Narrative7Situation2.wav,audio/Narrative6Situation2.wav,audio/Narrative5Situation2.wav,3,3,3,3,,,,,,,,,,,,,,,,,,,,,,,,,,,,,,,,,,,,,,,
,,,,,545f1e11fdf99b3156e7588b,2025-07-07_22h00.25.414,group3.4_multiperson,2023.2.2,MacIntel,117.6470588,686c2ebf0248f13bef9af11f,686c7ba8e2b52ea08f1fc40f,,,,,,,,,,,,,,,,,,,,,,,,,,,,,358.8996,1,audio/Narrative8Situation3.wav,362.9022,,362.9022,385.2733,"[[100,7920],[90.2,8004],[87.4,8087],[86.3,8170],[85.5,8254],[85.4,8337],[85.4,8420],[88.5,8503],[98.6,8587],[100,8670],[100,8754],[100,8837],[100,8920],[100,9004],[100,9087],[100,9170],[100,9254],[100,9337],[100,9420],[100,9504],[100,9587],[100,9671],[100,9754],[100,9837],[100,9920],[100,10004],[100,10087],[100,10170],[100,10254],[100,10337],[100,10420],[100,10504],[100,10587],[100,10670],[100,10753],[100,10837],[100,10920],[100,11004],[100,11087],[100,11170],[100,11254],[100,11337],[100,11420],[100,11504],[100,11587],[100,11671],[100,11754],[100,11837],[100,11920],[100,12004],[100,12087],[100,12170],[100,12254],[100,12337],[100,12420],[100,12503],[100,12587],[100,12670],[100,12755],[100,12838],[100,12920],[100,13003],[100,13086],[100,13170],[100,13254],[100,13336],[100,13420],[100,13504],[100,13587],[100,13670],[100,13754],[100,13837],[100,13920],[100,14004],[100,14087],[100,14170],[100,14253],[100,14337],[100,14419],[100,14503],[100,14586],[100,14670],[100,14754],[100,14837],[100,14920],[100,15004],[100,15087],[100,15170],[100,15254],[100,15338],[100,15421],[100,15504],[100,15587],[100,15670],[100,15753],[100,15838],[100,15920],[100,16004],[100,16087],[100,16170],[100,16253],[100,16337],[100,16420],[100,16504],[100,16587],[100,16670],[100,16754],[100,16837],[100,16920],[100,17004],[100,17086],[100,17170],[100,17254],[100,17337],[100,17420],[100,17504],[100,17587],[100,17670],[100,17754],[100,17837],[100,17920],[100,18004],[100,18087],[100,18170],[100,18253],[100,18337],[100,18420],[100,18503],[100,18587],[100,18670],[100,18754],[100,18837],[100,18920],[100,19004],[100,19087],[100,19170],[100,19254],[100,19336],[100,19420],[100,19503],[100,19587],[100,19670],[100,19754],[100,19837],[100,19920],[100,20004],[100,20087],[100,20170],[100,20254],[100,20337],[100,20420],[100,20504],[100,20587],[100,20670],[100,20754],[100,20836],[100,20920],[100,21004],[100,21087],[100,21170],[100,21254],[100,21337],[100,21420],[100,21504],[100,21587],[100,21670],[100,21754],[100,21837],[100,21920],[100,22004],[100,22087],[100,22170],[100,22254],[100,22337]]",385.2734,390.3471,100,4.6675,"[{""rating"":100,""responseTime"":4.667500000000018}]",space,4.5535,,390.3471,Partially,50,390.3487,,,[],,0,12,12,12,1,audio/Narrative8Situation3.wav,audio/Narrative7Situation3.wav,audio/Narrative6Situation3.wav,audio/Narrative5Situation3.wav,4,8,5,3,,,,,,,,,,,,,,,,,,,,,,,,,,,,,,,,,,,,,,,
,,,,,545f1e11fdf99b3156e7588b,2025-07-07_22h00.25.414,group3.4_multiperson,2023.2.2,MacIntel,117.6470588,686c2ebf0248f13bef9af11f,686c7ba8e2b52ea08f1fc40f,,,,,,,,,,,,,,,,,,,,,,,,,,,,,390.3489,1,audio/Narrative8Situation4.wav,393.3565,,393.3566,407.5148,"[[100,7249],[100,7333],[100,7416],[96.8,7499],[94.9,7582],[94.8,7666],[94.8,7749],[94.7,7832],[94.7,7916],[100,7999],[100,8083],[100,8166],[100,8249],[100,8332],[100,8416],[100,8499],[100,8583],[100,8665],[100,8749],[100,8833],[100,8916],[100,8999],[100,9083],[100,9166],[100,9249],[100,9333],[100,9416],[100,9499],[100,9583],[100,9666],[100,9749],[100,9833],[100,9916],[100,9999],[100,10083],[100,10166],[100,10249],[100,10333],[100,10416],[100,10500],[100,10583],[100,10666],[100,10749],[100,10833],[100,10916],[100,10999],[100,11083],[100,11166],[100,11249],[100,11333],[100,11416],[100,11499],[100,11582],[100,11665],[100,11749],[100,11832],[100,11916],[100,11999],[100,12083],[100,12165],[100,12249],[100,12333],[100,12416],[100,12499],[100,12583],[100,12665],[100,12749],[100,12833],[100,12916],[100,12999],[100,13083],[100,13166],[100,13249],[100,13333],[100,13416],[100,13499],[100,13583],[100,13666],[100,13749],[100,13833],[100,13916],[100,13999],[100,14083]]",407.5149,409.5851,100,1.8183,"[{""rating"":100,""responseTime"":1.818300000071531}]",space,1.5478,,409.5851,Partially,50,409.5859,,,[],,0,13,13,13,1,audio/Narrative8Situation4.wav,audio/Narrative7Situation4.wav,audio/Narrative6Situation4.wav,audio/Narrative5Situation4.wav,3,3,2,1,,,,,,,,,,,,,,,,,,,,,,,,,,,,,,,,,,,,,,,
,,,,,545f1e11fdf99b3156e7588b,2025-07-07_22h00.25.414,group3.4_multiperson,2023.2.2,MacIntel,117.6470588,686c2ebf0248f13bef9af11f,686c7ba8e2b52ea08f1fc40f,,,,,,,,,,,,,,,,,,,,,,,,,,,,,409.586,1,audio/Narrative8Situation5.wav,411.5939,,411.5939,419.8233,"[[97.8,8106],[88.8,8187]]",419.8234,421.4599,100,0.5894,"[{""rating"":100,""responseTime"":0.5893999999761377}]",space,1.1162,,421.46,Partially,50,421.4608,,,[],,0,14,14,14,1,audio/Narrative8Situation5.wav,audio/Narrative7Situation5.wav,audio/Narrative6Situation5.wav,audio/Narrative5Situation5.wav,2,5,2,5,,,,,,,,,,,,,,,,,,,,,,,,,,,,,,,,,,,,,,,
,,,,,545f1e11fdf99b3156e7588b,2025-07-07_22h00.25.414,group3.4_multiperson,2023.2.2,MacIntel,117.6470588,686c2ebf0248f13bef9af11f,686c7ba8e2b52ea08f1fc40f,,,,,,,,,,,,,,,,,,,,,,,,,,,,,421.461,1,audio/Narrative8Situation6.wav,423.4646,,423.4647,429.9232,"[[83.2,999],[79.1,1083],[74.5,1165],[74.1,1250],[75.9,1333],[79.4,1416],[80.6,1500],[80.9,1583],[81.3,1666],[82.8,1750],[83.6,1833],[84.3,1916],[84.6,2000],[84.6,2083],[84.6,2166],[84.6,2249],[84.6,2333],[84.6,2416],[84.6,2500],[84.6,2583],[84.6,2666],[84.6,2750],[84.6,2833],[84.6,2916],[84.6,3000],[84.6,3083],[84.6,3166],[84.6,3250],[84.6,3333],[84.6,3416],[84.6,3500],[84.6,3583],[84.6,3666],[84.6,3750],[84.6,3833],[84.6,3916],[84.6,4000],[84.6,4083],[84.6,4165],[84.6,4249],[84.6,4333],[84.6,4416],[84.6,4500],[84.6,4583],[84.6,4666],[84.6,4750],[84.6,4833],[84.6,4916],[84.6,5000],[84.6,5083],[84.6,5166],[84.6,5250],[84.6,5333],[84.6,5416],[84.6,5500],[84.6,5583],[84.6,5666],[84.6,5750],[84.6,5833],[84.6,5916],[84.6,6000],[84.6,6083],[84.6,6166],[84.6,6250],[84.6,6333],[84.6,6416]]",429.9232,436.1232,6.481374059,4.0411,"[{""rating"":6.4813740586451285,""responseTime"":4.041100000023846}]",space,5.6763,,436.1233,Definitely yes,100,436.1257,,,[],,0,15,15,15,1,audio/Narrative8Situation6.wav,audio/Narrative7Situation6.wav,audio/Narrative6Situation6.wav,audio/Narrative5Situation6.wav,2,3,2,3,,,,,,,,,,,,,,,,,,,,,,,,,,,,,,,,,,,,,,,
,,,,,545f1e11fdf99b3156e7588b,2025-07-07_22h00.25.414,group3.4_multiperson,2023.2.2,MacIntel,117.6470588,686c2ebf0248f13bef9af11f,686c7ba8e2b52ea08f1fc40f,,,,,,,,,,,,,,,,,,,,,,,,,,,,,436.1258,1,audio/Narrative8Situation7.wav,439.1314,,439.1314,451.194,"[[999,0],[999,83],[999,166],[999,250],[999,333],[999,416],[999,500],[999,583],[999,666],[999,750],[999,832],[999,916],[999,1000],[999,1083],[999,1166],[999,1249],[999,1333],[999,1416],[999,1500],[999,1583],[999,1663],[999,1745],[999,1829],[999,1912],[999,1993],[999,2061],[999,2128],[999,2194],[999,2261],[999,2327],[999,2394],[999,2460],[999,2527],[999,2593],[999,2660],[999,2726],[999,2798],[999,2867],[999,2934],[999,3000],[999,3067],[999,3133],[999,3200],[999,3266],[999,3333],[999,3399],[999,3466],[999,3532],[999,3599],[999,3667],[999,3749],[999,3832],[999,3916],[999,3999],[999,4082],[999,4166],[999,4249],[999,4333],[999,4416],[999,4500],[999,4582],[999,4666],[999,4749],[999,4833],[999,4921],[999,5004],[999,5087],[999,5170],[999,5254],[999,5336],[999,5420],[999,5504],[999,5587],[999,5670],[999,5754],[999,5837],[999,5920],[999,6004],[999,6087],[999,6170],[999,6254],[999,6339],[999,6423],[999,6504],[999,6587],[999,6670],[999,6754],[999,6837],[999,6920],[999,7004],[999,7087],[999,7170],[999,7254],[999,7337],[999,7420],[999,7504],[999,7587],[999,7670],[999,7754],[999,7837],[999,7920],[999,8004],[999,8087],[999,8170],[999,8254],[999,8337],[999,8420],[999,8503],[999,8587],[999,8679],[999,8762],[999,8845],[999,8929],[999,9012],[999,9095],[999,9179],[999,9262],[999,9345],[999,9429],[999,9512],[999,9595],[999,9679],[999,9762],[999,9845],[999,9929],[999,10012],[999,10095],[999,10178],[999,10262],[999,10345],[999,10429],[999,10512],[999,10595],[999,10679],[999,10762],[999,10845],[999,10929],[999,11012],[999,11095],[999,11179],[999,11262],[999,11345],[999,11429],[999,11512],[999,11595],[999,11678],[999,11762],[999,11845],[999,11929],[999,12012]]",451.1942,460.2982,86.35787088,8.3807,"[{""rating"":86.35787087596347,""responseTime"":8.380699999928481}]",space,8.5837,,460.2982,Definitely yes,100,460.2992,,,[],,0,16,16,16,1,audio/Narrative8Situation7.wav,audio/Narrative7Situation7.wav,audio/Narrative6Situation7.wav,audio/Narrative5Situation7.wav,3,5,5,4,,,,,,,,,,,,,,,,,,,,,,,,,,,,,,,,,,,,,,,
,,,,,545f1e11fdf99b3156e7588b,2025-07-07_22h00.25.414,group3.4_multiperson,2023.2.2,MacIntel,117.6470588,686c2ebf0248f13bef9af11f,686c7ba8e2b52ea08f1fc40f,,,,,,,,,,,,,,,,,,,,,,,,,,,,,460.2993,1,audio/Narrative8Situation8.wav,463.3066,,463.3066,476.1482,"[[999,0],[999,83],[999,166],[999,249],[999,332],[999,416],[999,499],[999,583],[999,664],[999,745],[999,829],[999,912],[999,995],[999,1078],[999,1162],[999,1245],[999,1329],[999,1412],[999,1495],[999,1579],[999,1662],[999,1744],[999,1829],[999,1912],[999,1995],[999,2079],[999,2162],[999,2246],[999,2328],[999,2412],[999,2495],[999,2579],[999,2662],[999,2746],[999,2829],[999,2920],[999,3004],[999,3087],[999,3170],[999,3254],[999,3337],[999,3420],[999,3504],[999,3587],[999,3670],[999,3753],[999,3837],[999,3920],[999,4004],[999,4087],[999,4170],[999,4254],[999,4337],[999,4421],[999,4504],[999,4587],[999,4670],[999,4754],[999,4837],[999,4920],[999,5004],[999,5087],[999,5170],[999,5254],[999,5336],[999,5420],[999,5504],[999,5587],[999,5670],[999,5753],[999,5837],[999,5920],[999,6004],[999,6086],[999,6170],[999,6254],[999,6337],[999,6420],[999,6504],[999,6587],[999,6670],[999,6754],[999,6837],[999,6920],[999,7004],[999,7088],[999,7170],[999,7254],[999,7337],[999,7420],[999,7504],[999,7587],[999,7670],[999,7754],[999,7837],[999,7920],[999,8004],[999,8087],[999,8170],[999,8254],[999,8337],[999,8420],[999,8504],[999,8587],[999,8670],[999,8754],[999,8837],[999,8920],[90.1,9004],[91.1,9087],[91.6,9170],[91.6,9254],[91.5,9337],[91.5,9420],[92.4,9501],[97.3,9583],[100,9666],[100,9750],[100,9833],[100,9916],[100,9999],[100,10083],[100,10166],[100,10249],[100,10333],[100,10418],[100,10499],[100,10583],[100,10666],[100,10749],[100,10833],[100,10916],[100,10999],[100,11083],[100,11166],[100,11249],[100,11333],[100,11416],[100,11499],[100,11583],[100,11666],[100,11749],[100,11833],[100,11916],[100,11999],[100,12083],[100,12166],[100,12249],[100,12333],[100,12416],[100,12500],[100,12582],[100,12666],[100,12750],[100,12833]]",476.1483,477.3315,100,0.9684,"[{""rating"":100,""responseTime"":0.9683999999761568}]",space,0.6591,,477.3315,Definitely yes,100,477.3322,,,[],,0,17,17,17,1,audio/Narrative8Situation8.wav,audio/Narrative7Situation8.wav,audio/Narrative6Situation8.wav,audio/Narrative5Situation8.wav,3,2,5,3,,,,,,,,,,,,,,,,,,,,,,,,,,,,,,,,,,,,,,,
,,,,,545f1e11fdf99b3156e7588b,2025-07-07_22h00.25.414,group3.4_multiperson,2023.2.2,MacIntel,117.6470588,686c2ebf0248f13bef9af11f,686c7ba8e2b52ea08f1fc40f,,,,,,,,,,,,,,,,,,,,,,,,,,,,,477.3323,1,audio/Narrative8Situation9.wav,480.3399,,480.34,491.6482,"[[100,8033],[100,8115],[100,8199],[97.7,8283],[97.6,8366],[97.6,8449],[100,8533],[100,8616],[100,8700],[100,8783],[100,8866],[100,8949],[100,9033],[100,9116],[100,9199],[100,9282],[100,9366],[100,9449],[100,9533],[100,9616],[100,9699],[100,9783],[100,9866],[100,9949],[100,10033],[100,10116],[100,10199],[100,10283],[100,10366],[100,10449],[100,10533],[100,10616],[100,10699],[100,10783],[100,10866],[100,10949],[100,11033],[100,11116],[99.3,11199],[99.3,11283]]",491.6483,494.6524,100,2.0647,"[{""rating"":100,""responseTime"":2.0646999999284503}]",space,2.4805,,494.6525,Partially,50,500.0692,49.60481046,5.1007,"[{""rating"":49.60481045869959,""responseTime"":5.100700000047652}]",space,0,18,18,18,1,audio/Narrative8Situation9.wav,audio/Narrative7Situation9.wav,audio/Narrative6Situation9.wav,audio/Narrative5Situation9.wav,3,2,4,3,,,4.9043,,,,,,,,,,,,,,,,,,,,,,,,,,,,,,,,,,,,
,,,,,545f1e11fdf99b3156e7588b,2025-07-07_22h00.25.414,group3.4_multiperson,2023.2.2,MacIntel,117.6470588,686c2ebf0248f13bef9af11f,686c7ba8e2b52ea08f1fc40f,,,,,,,,,,,,,,,,,,,,,,,,,,,503.353,505.9274,505.9358,2,audio/Narrative13Situation2.wav,505.9359,,505.936,535.6734,"[[45,3654],[47.3,4737],[45.4,4820],[45.7,4903],[50.4,4987],[56.4,5070],[60.4,5153],[62.8,5237],[62.9,5320],[62.9,5402],[65.9,5487],[74.7,5570],[79.7,5653],[83.9,5737],[85.7,5820],[85.7,5903],[85.7,5987],[85.7,6070],[85.7,6153],[85.7,6237],[85.7,6320],[85.7,6403],[85.7,6487],[85.7,6570],[85.7,6653],[85.6,6737],[85.6,6820],[85.6,6903],[85.6,6987],[85.6,7070],[85.6,7153],[85.6,7237],[85.6,7320],[85.6,7403],[85.6,7487],[85.6,7570],[85.6,7653],[85.6,7736],[85.6,7820],[85.6,7903],[85.6,7987],[85.6,8070],[85.6,8153],[85.6,8238],[85.6,8320],[85.6,8403],[85.6,8487],[85.6,8570],[85.6,8653],[85.6,8737],[85.6,8820],[85.6,8903],[85.6,8987],[84.6,9070],[83,9152],[82.7,9237],[82.7,9320],[82.7,9403],[82.8,9487],[82.8,9570],[85.5,9654],[97.8,9737],[100,9820],[100,9904],[100,9987],[100,10070],[100,10153],[100,10249],[100,10328],[100,10412],[100,10495],[100,10578],[100,10662],[100,10746],[100,10828],[100,10912],[100,10995],[100,11078],[100,11162],[100,11245],[100,11328],[100,11412],[100,11495],[100,11578],[100,11662],[100,11745],[100,11828],[100,11912],[100,11995],[100,12078],[100,12162],[100,12245],[100,12329],[100,12412],[100,12495],[100,12579],[100,12662],[100,12745],[100,12829],[100,12912],[100,12995],[100,13078],[100,13162],[100,13245],[100,13328],[100,13412],[100,13495],[100,13578],[100,13662],[100,13744],[100,13828],[100,13912],[100,13995],[100,14087],[100,14169],[100,14253],[100,14337],[100,14420],[100,14504],[100,14587],[100,14670],[100,14753],[100,14837],[100,14920],[100,15003],[100,15087],[100,15169],[100,15253],[100,15337],[100,15420],[100,15503],[100,15587],[100,15671],[100,15756],[100,15837],[100,15920],[100,16003],[100,16087],[100,16170],[100,16253],[100,16337],[100,16420],[100,16503],[100,16587],[100,16670],[100,16753],[100,16837],[100,16920],[100,17003],[100,17087],[100,17170],[100,17253],[100,17337],[100,17420],[100,17504],[100,17587],[100,17670],[100,17753],[100,17836],[100,17915],[100,17995],[100,18081],[100,18162],[100,18245],[100,18329],[100,18412],[100,18495],[100,18579],[100,18661],[100,18745],[100,18828],[100,18912],[100,18995],[100,19078],[100,19162],[100,19245],[100,19329],[100,19412],[100,19495],[100,19579],[100,19662],[100,19745],[100,19829],[100,19912],[100,19995],[100,20079],[100,20162],[100,20245],[100,20328],[100,20412],[100,20495],[100,20578],[100,20662],[100,20745],[100,20828],[100,20912],[100,20995],[100,21078],[100,21162],[100,21245],[100,21329],[100,21412],[100,21495],[100,21579],[100,21662],[100,21745],[100,21829],[100,21912],[100,21995],[100,22079],[100,22162],[100,22245],[100,22329],[100,22412],[100,22495],[100,22578],[100,22662],[100,22745],[100,22829],[100,22912],[100,22995],[100,23078],[100,23162],[100,23245],[100,23328],[100,23412],[100,23495],[100,23579],[100,23662],[100,23745],[100,23828],[100,23912],[100,23995],[100,24078],[100,24162],[100,24245],[100,24329],[100,24412],[96.6,24495],[96.6,24579],[96.6,24662],[96.6,24745],[96.6,24828],[96.6,24912],[100,24995],[100,25079],[100,25162]]",535.6734,535.6744,,,[],,,,535.6744,Partially,50,535.6748,,,[],,0,0,0,0,1,audio/Narrative13Situation2.wav,audio/Narrative13Situation2.wav,audio/Narrative13Situation2.wav,audio/Narrative13Situation2.wav,2,2,2,2,,,,,500.0695,503.3528,space,2.7658,,,,,,,,,,,,,,,,,,,,,,,,,,,,,,,
,,,,,545f1e11fdf99b3156e7588b,2025-07-07_22h00.25.414,group3.4_multiperson,2023.2.2,MacIntel,117.6470588,686c2ebf0248f13bef9af11f,686c7ba8e2b52ea08f1fc40f,,,,,,,,,,,,,,,,,,,,,,,,,,,,,535.6749,2,audio/Narrative5Situation1.wav,540.6817,space,540.6818,553.9564,"[[999,0],[999,83],[999,166],[999,249],[999,332],[999,416],[999,499],[999,583],[999,666],[999,750],[999,833],[999,916],[999,1000],[999,1083],[999,1166],[999,1249],[999,1333],[999,1416],[999,1500],[999,1583],[999,1666],[999,1749],[999,1834],[999,1916],[999,2000],[999,2083],[999,2166],[999,2249],[999,2333],[999,2416],[999,2499],[999,2583],[999,2666],[999,2749],[999,2835],[999,2916],[999,2999],[999,3083],[999,3166],[999,3249],[999,3333],[999,3417],[999,3499],[999,3583],[999,3666],[999,3749],[999,3833],[999,3916],[999,3999],[999,4083],[999,4166],[999,4249],[999,4333],[999,4416],[999,4499],[999,4583],[999,4666],[999,4749],[999,4833],[999,4916],[999,4999],[999,5083],[999,5166],[999,5249],[999,5333],[999,5416],[999,5499],[999,5583],[999,5666],[999,5749],[999,5833],[999,5916],[999,5999],[999,6083],[999,6166],[999,6249],[999,6333],[999,6416],[999,6499],[999,6583],[999,6666],[999,6749],[999,6833],[999,6916],[999,6999],[999,7083],[999,7166],[999,7249],[999,7333],[999,7416],[999,7499],[999,7583],[999,7666],[999,7750],[999,7833],[999,7916],[999,7999],[999,8083],[999,8166],[999,8249],[999,8333],[999,8416],[999,8499],[999,8583],[999,8666],[999,8749],[999,8833],[999,8916],[999,8999],[999,9083],[999,9166],[999,9249],[999,9335],[999,9416],[999,9499],[999,9585],[999,9666],[56.1,9749],[81.7,10166],[85.4,10249],[89.6,10333],[90.2,10416],[90.2,10499],[91.4,10583],[100,10666],[100,10749],[100,10833],[100,10916],[100,10999],[100,11083],[100,11166],[100,11249],[100,11333],[100,11416],[100,11499],[100,11583],[100,11666],[100,11750],[100,11833],[100,11916],[100,11999],[100,12083],[100,12166],[100,12249],[100,12333],[100,12416],[100,12499],[100,12583],[100,12666],[100,12749],[100,12833],[100,12916],[100,12999],[100,13083],[100,13167],[100,13249]]",553.9564,558.5817,100,4.0685,"[{""rating"":100,""responseTime"":4.068499999999972}]",space,4.1078,,558.5817,Partially,50,558.5828,,,[],,0,1,1,1,1,audio/Narrative7Situation1.wav,audio/Narrative8Situation1.wav,audio/Narrative5Situation1.wav,audio/Narrative6Situation1.wav,2,5,5,2,4.3458,,,,,,,,,,,,,,,,,,,,,,,,,,,,,,,,,,,,,,
,,,,,545f1e11fdf99b3156e7588b,2025-07-07_22h00.25.414,group3.4_multiperson,2023.2.2,MacIntel,117.6470588,686c2ebf0248f13bef9af11f,686c7ba8e2b52ea08f1fc40f,,,,,,,,,,,,,,,,,,,,,,,,,,,,,558.5829,2,audio/Narrative5Situation2.wav,561.59,,561.59,591.0401,"[[100,23508],[100,23591],[100,23675],[96.8,23758],[94.7,23841],[94.7,23925],[94.7,24008],[99.8,24091],[100,24175],[100,24258],[100,24341],[100,24425],[100,24508],[100,24591],[100,24675],[100,24758],[100,24841],[100,24925],[100,25008],[100,25091],[100,25175],[100,25258],[100,25341],[100,25425],[100,25508],[100,25591],[100,25675],[100,25758],[100,25841],[100,25925],[100,26008],[100,26091],[100,26175],[100,26258],[100,26341],[100,26425],[100,26508],[100,26591],[100,26675],[100,26758],[100,26841],[100,26925],[100,27008],[100,27091],[100,27175],[100,27258],[100,27341],[100,27425],[100,27508],[100,27591],[100,27674],[100,27758],[100,27841],[100,27925],[100,28008],[100,28091],[100,28175],[100,28258],[100,28342],[100,28425],[100,28508],[100,28591],[100,28675],[100,28758],[100,28841],[100,28925],[100,29008],[100,29091],[100,29175],[100,29258],[100,29341],[100,29425]]",591.0402,593.5486,100,1.9353,"[{""rating"":100,""responseTime"":1.935299999952349}]",space,1.989,,593.5486,Not at all,0,596.5485,0,2.6089,"[{""rating"":0,""responseTime"":2.608899999976188}]",space,0,2,2,2,1,audio/Narrative7Situation2.wav,audio/Narrative8Situation2.wav,audio/Narrative5Situation2.wav,audio/Narrative6Situation2.wav,3,3,3,3,,,2.4778,,,,,,,,,,,,,,,,,,,,,,,,,,,,,,,,,,,,
,,,,,545f1e11fdf99b3156e7588b,2025-07-07_22h00.25.414,group3.4_multiperson,2023.2.2,MacIntel,117.6470588,686c2ebf0248f13bef9af11f,686c7ba8e2b52ea08f1fc40f,,,,,,,,,,,,,,,,,,,,,,,,,,,,,596.5491,2,audio/Narrative5Situation3.wav,599.5563,,599.5564,613.4482,[],613.4483,674.9651,92.55058389,61.2149,"[{""rating"":92.550583893307,""responseTime"":61.21489999997618}]",space,61.001,,674.9651,Partially,50,674.9666,,,[],,0,3,3,3,1,audio/Narrative7Situation3.wav,audio/Narrative8Situation3.wav,audio/Narrative5Situation3.wav,audio/Narrative6Situation3.wav,8,4,3,5,,,,,,,,,,,,,,,,,,,,,,,,,,,,,,,,,,,,,,,
,,,,,545f1e11fdf99b3156e7588b,2025-07-07_22h00.25.414,group3.4_multiperson,2023.2.2,MacIntel,117.6470588,686c2ebf0248f13bef9af11f,686c7ba8e2b52ea08f1fc40f,,,,,,,,,,,,,,,,,,,,,,,,,,,,,674.9668,2,audio/Narrative5Situation4.wav,675.9734,,675.9735,696.3486,"[[92.8,7145],[92.8,7228],[95.2,7309],[96.8,7391],[98,7475],[100,7557],[100,7641],[100,7725],[100,7808],[100,7891],[100,7975],[100,8058],[100,8141],[100,8224],[100,8308],[100,8391],[100,8475],[100,8558],[100,8640],[100,8725],[100,8807],[100,8891],[100,8975],[100,9058],[97.5,9141],[91.1,9225],[88.6,9307],[88.6,9391],[95,9474],[100,9558],[100,9641],[100,9725],[100,9808],[100,9890],[100,9975],[100,10058],[100,10140],[100,10224],[100,10308],[100,10390],[100,10475],[100,10558],[100,10641],[100,10725],[100,10808],[100,10891],[100,10974],[100,11058],[100,11141],[100,11225],[100,11308],[100,11391],[100,11475],[100,11558],[100,11641],[100,11725],[100,11808],[100,11891],[100,11975],[100,12058],[100,12142],[100,12225],[100,12308],[100,12391],[100,12475],[100,12558],[100,12642],[100,12725],[100,12808],[100,12891],[100,12974],[100,13058],[100,13141],[100,13225],[100,13308],[100,13391],[100,13475],[100,13558],[100,13641],[100,13725],[100,13808],[100,13891],[100,13974],[100,14057],[100,14141],[100,14224],[100,14308],[100,14391],[100,14474],[100,14558],[100,14641],[100,14725],[100,14808],[100,14891],[100,14975],[100,15058],[100,15141],[100,15225],[100,15308],[100,15391],[100,15475],[100,15558],[100,15641],[100,15725],[100,15808],[100,15893],[100,15975],[100,16058],[100,16141],[100,16225],[100,16308],[100,16391],[100,16475],[100,16558],[100,16641],[100,16725],[100,16808],[100,16891],[100,16975],[100,17058],[100,17141],[100,17225],[100,17308],[100,17391],[100,17475],[100,17558],[100,17641],[100,17725],[100,17808],[100,17896],[100,17983],[100,18066],[100,18150],[100,18233],[100,18316],[100,18399],[100,18483],[100,18566],[100,18649],[100,18733],[100,18816],[100,18899],[100,18983],[100,19066],[100,19149],[100,19233],[100,19316],[100,19399],[100,19483],[100,19566],[100,19650],[96.1,19733],[95.8,19816],[95.1,19900],[95,19983],[98.7,20066],[100,20150],[100,20233],[100,20316]]",696.3487,698.0359,100,1.2538,"[{""rating"":100,""responseTime"":1.2537999999523208}]",space,1.1637,,698.036,Not at all,0,698.0373,,,[],,0,4,4,4,1,audio/Narrative7Situation4.wav,audio/Narrative8Situation4.wav,audio/Narrative5Situation4.wav,audio/Narrative6Situation4.wav,3,3,1,2,,,,,,,,,,,,,,,,,,,,,,,,,,,,,,,,,,,,,,,
,,,,,545f1e11fdf99b3156e7588b,2025-07-07_22h00.25.414,group3.4_multiperson,2023.2.2,MacIntel,117.6470588,686c2ebf0248f13bef9af11f,686c7ba8e2b52ea08f1fc40f,,,,,,,,,,,,,,,,,,,,,,,,,,,,,698.0374,2,audio/Narrative5Situation5.wav,703.0443,,703.0444,718.4528,"[[100,3000],[100,3083],[96.8,3166],[95.5,3250],[94.5,3333],[92.5,3416],[91.9,3499],[91.9,3583],[91.9,3666],[91.9,3750],[95,3833],[96.1,3916],[96.1,3999],[96.1,4083],[96.1,4166],[96.1,4249],[96.1,4333],[96.1,4416],[96.1,4500],[96.1,4583],[96.1,4666],[95.6,4749],[94.4,4833],[94.3,4916],[94.3,4999],[94.3,5083],[93.3,5166],[93.2,5248],[93.2,5333],[93.2,5416],[93.2,5499],[92.2,5583],[90.2,5666],[90.1,5749],[90.1,5832],[90.1,5916],[90.1,5999],[90.1,6082],[90.1,6166],[90.1,6249],[90.1,6333],[90.1,6416],[90.1,6500],[90.1,6583],[90.1,6666],[90.1,6750],[90.1,6833],[90.1,6916],[90.1,7000],[90.1,7083],[90.1,7166],[90.1,7250],[90.1,7333],[90.1,7416],[90.1,7499],[90.1,7583],[90.1,7666],[90.1,7749],[90.1,7833],[90.1,7916],[90.1,7999],[90.1,8083],[90.1,8166],[90.1,8250],[90.1,8333],[90.1,8415],[90.1,8500],[90.1,8583],[90.1,8666],[90.1,8750],[90.1,8833],[90.1,8915],[90.1,9000],[90.1,9083],[90.1,9166],[90.1,9249],[90.1,9333],[90.1,9416],[90.1,9499],[90.1,9583],[90.1,9666],[90.1,9749],[90.1,9833],[90.1,9916],[90.1,9999],[90.1,10082],[90.1,10166],[90.1,10250],[90.1,10333],[90.1,10416],[90.1,10499],[90.1,10583],[90.1,10666],[90.1,10749],[90.1,10833],[90.1,10916],[90.1,11000],[90.1,11083],[90.1,11166],[90.1,11251],[90.1,11332],[90.1,11416],[90.1,11499],[90.1,11583],[90.1,11666],[90.1,11750],[90.1,11833],[90.1,11916],[90.1,12000],[90.1,12083],[90.1,12166],[90.1,12251],[90.1,12332],[90.1,12416],[90.1,12500],[90.1,12583],[90.1,12666],[90.1,12749],[90.1,12833],[90.1,12916],[90.1,13000],[90.1,13083],[90.1,13166],[90.1,13250],[90.1,13333],[90.1,13416],[90.1,13500],[90.1,13583],[90.1,13666],[90.1,13750],[90.1,13833],[90.1,13916],[90.1,13999],[90.1,14083],[90.1,14166],[90.1,14249],[90.1,14333],[90.1,14416],[90.1,14499],[90.1,14583],[90.1,14666],[90.1,14749],[90.1,14833],[90.1,14916],[90.1,15000],[90.1,15083],[90.1,15166],[90.1,15250],[90.1,15333]]",718.4529,722.1652,80.4687298,2.8897,"[{""rating"":80.46872979523168,""responseTime"":2.8897000000476964}]",space,3.1921,,722.1652,Definitely yes,100,722.1667,,,[],,0,5,5,5,1,audio/Narrative7Situation5.wav,audio/Narrative8Situation5.wav,audio/Narrative5Situation5.wav,audio/Narrative6Situation5.wav,5,2,5,2,,,,,,,,,,,,,,,,,,,,,,,,,,,,,,,,,,,,,,,
,,,,,545f1e11fdf99b3156e7588b,2025-07-07_22h00.25.414,group3.4_multiperson,2023.2.2,MacIntel,117.6470588,686c2ebf0248f13bef9af11f,686c7ba8e2b52ea08f1fc40f,,,,,,,,,,,,,,,,,,,,,,,,,,,,,722.1668,2,audio/Narrative5Situation6.wav,725.1736,,725.1736,730.8403,"[[87.4,5408],[95.7,5491],[96.8,5574],[96.8,5658]]",730.8404,732.1611,100,0.857,"[{""rating"":100,""responseTime"":0.8569999999999709}]",space,0.8016,,732.1612,Partially,50,732.1632,,,[],,0,6,6,6,1,audio/Narrative7Situation6.wav,audio/Narrative8Situation6.wav,audio/Narrative5Situation6.wav,audio/Narrative6Situation6.wav,3,2,3,2,,,,,,,,,,,,,,,,,,,,,,,,,,,,,,,,,,,,,,,
,,,,,545f1e11fdf99b3156e7588b,2025-07-07_22h00.25.414,group3.4_multiperson,2023.2.2,MacIntel,117.6470588,686c2ebf0248f13bef9af11f,686c7ba8e2b52ea08f1fc40f,,,,,,,,,,,,,,,,,,,,,,,,,,,,,732.1634,2,audio/Narrative5Situation7.wav,736.1696,,736.1697,757.1945,"[[100,14833],[92.8,14916],[84.3,15249],[86.8,15333],[88.6,15416],[88.6,15499],[88.6,15583],[93,15666],[100,15749],[100,15833]]",757.1945,758.5699,100,1.1523,"[{""rating"":100,""responseTime"":1.152300000071591}]",space,0.865,,758.5701,Definitely yes,100,758.5716,,,[],,0,7,7,7,1,audio/Narrative7Situation7.wav,audio/Narrative8Situation7.wav,audio/Narrative5Situation7.wav,audio/Narrative6Situation7.wav,5,3,4,5,,,,,,,,,,,,,,,,,,,,,,,,,,,,,,,,,,,,,,,
,,,,,545f1e11fdf99b3156e7588b,2025-07-07_22h00.25.414,group3.4_multiperson,2023.2.2,MacIntel,117.6470588,686c2ebf0248f13bef9af11f,686c7ba8e2b52ea08f1fc40f,,,,,,,,,,,,,,,,,,,,,,,,,,,,,758.5718,2,audio/Narrative5Situation8.wav,761.5779,,761.578,770.3781,[],770.3783,794.7864,100,24.0684,"[{""rating"":100,""responseTime"":24.068399999976236}]",space,23.8857,,794.7866,Partially,50,794.7892,,,[],,0,8,8,8,1,audio/Narrative7Situation8.wav,audio/Narrative8Situation8.wav,audio/Narrative5Situation8.wav,audio/Narrative6Situation8.wav,2,3,3,5,,,,,,,,,,,,,,,,,,,,,,,,,,,,,,,,,,,,,,,
,,,,,545f1e11fdf99b3156e7588b,2025-07-07_22h00.25.414,group3.4_multiperson,2023.2.2,MacIntel,117.6470588,686c2ebf0248f13bef9af11f,686c7ba8e2b52ea08f1fc40f,,,,,,,,,,,,,,,,,,,,,,,,,,,,,794.7894,2,audio/Narrative5Situation9.wav,797.7969,,797.7972,837.3198,"[[100,5664],[100,5747],[100,5830],[100,5914],[100,5997],[100,6080],[100,6164],[100,6247],[100,6330],[100,6414],[100,6497],[100,6580],[100,6664],[100,6747],[100,6830],[100,6914],[100,6997],[100,7080],[100,7163],[100,7247],[100,7330],[100,7414],[100,7497],[100,7580],[100,7664],[100,7747],[100,7830],[100,7914],[100,7997],[100,8080],[100,8163],[100,8246],[100,8330],[100,8413],[100,8497],[100,8580],[100,8663],[100,8747],[100,8832],[100,8914],[100,8997],[100,9080],[100,9164],[100,9247],[100,9330],[100,9414],[100,9497],[100,9580],[100,9663],[100,9747],[100,9830],[100,9914],[100,9998],[100,10080],[100,10164],[100,10247],[100,10330],[100,10413],[100,10497],[100,10580],[100,10664],[100,10747],[100,10830],[100,10916],[100,10996],[100,11080],[100,11164],[100,11247],[100,11330],[100,11413],[100,11497],[100,11580],[100,11664],[100,11747],[100,11830],[100,11914],[100,11997],[100,12080],[100,12164],[100,12247],[100,12330],[100,12413],[100,12497],[100,12580],[100,12664],[100,12747],[100,12830],[100,12914],[100,12997],[100,13080],[100,13163],[100,13247],[100,13330],[100,13414],[100,13497],[100,13580],[100,13664],[100,13747],[100,13830],[100,13914],[100,13997],[100,14079],[100,14164],[100,14247],[100,14330],[100,14414],[100,14497],[100,14580],[100,14664],[100,14747],[100,14830],[100,14914],[100,14997],[100,15080],[100,15164],[100,15247],[100,15330],[100,15414],[100,15497],[100,15580],[100,15664],[100,15747],[100,15830],[100,15914],[100,15997],[100,16080],[100,16164],[100,16247],[100,16330],[100,16414],[100,16497],[100,16580],[100,16664],[100,16747],[100,16830],[100,16914],[100,16997],[100,17080],[100,17164],[100,17247],[100,17330],[100,17414],[100,17497],[100,17580],[100,17664],[100,17747],[100,17831],[100,17914],[100,17997],[100,18080],[100,18164],[100,18247],[100,18330],[100,18414],[100,18497],[100,18580],[100,18663],[100,18747],[100,18830],[100,18914],[100,18997],[100,19080],[100,19164],[100,19247],[100,19330],[100,19413],[100,19496],[100,19580],[100,19663],[100,19747],[100,19830],[100,19916],[100,19997],[100,20080],[100,20164],[100,20247],[100,20330],[100,20414],[100,20497],[100,20580],[100,20664],[100,20747],[100,20830],[100,20914],[100,20996],[100,21080],[100,21163],[100,21247],[100,21330],[100,21414],[100,21497],[100,21580],[100,21664],[100,21747],[100,21830],[100,21914],[100,21997],[100,22080],[100,22164],[100,22247],[100,22330],[100,22414],[100,22503],[100,22580],[100,22664],[100,22747],[100,22830],[100,22914],[100,22997],[100,23080],[100,23163],[100,23246],[100,23330],[100,23414],[100,23497],[100,23580],[100,23663],[100,23747],[100,23830],[100,23914],[100,23997],[100,24080],[100,24163],[100,24247],[100,24330],[100,24414],[100,24497],[100,24580],[100,24664],[100,24747],[100,24830],[100,24914],[100,24997],[100,25080],[100,25164],[100,25247],[100,25330],[100,25414],[100,25497],[100,25580],[100,25664],[100,25747],[100,25830],[100,25914],[100,25996],[100,26080],[100,26164],[100,26247],[100,26330],[100,26413],[100,26497],[100,26580],[100,26664],[100,26747],[100,26830],[100,26914],[100,26997],[100,27080],[100,27164],[100,27247],[100,27330],[100,27414],[100,27497],[100,27580],[100,27664],[100,27747],[100,27830],[100,27913],[100,27997],[100,28080],[100,28164],[100,28247],[100,28330],[100,28414],[100,28497],[100,28580],[100,28663],[100,28747],[100,28830],[100,28914],[100,28997],[100,29080],[100,29164],[100,29247],[100,29330],[100,29414],[100,29497],[96,29580],[84.1,29664],[78.2,29747],[77.5,29830],[77.4,29914],[81.2,29997],[94.2,30080],[100,30164],[100,30247],[100,30330]]",837.32,907.7616,93.92940299,70.437,"[{""rating"":93.92940299471127,""responseTime"":70.43700000000001}]",space,0.763,,907.7616,Not at all,0,907.7633,,,[],,0,9,9,9,1,audio/Narrative7Situation9.wav,audio/Narrative8Situation9.wav,audio/Narrative5Situation9.wav,audio/Narrative6Situation9.wav,2,3,3,4,,,,,,,,,,,,,,,,,,,,,,,,,,,,,,,,,,,,,,,
,,,,,545f1e11fdf99b3156e7588b,2025-07-07_22h00.25.414,group3.4_multiperson,2023.2.2,MacIntel,117.6470588,686c2ebf0248f13bef9af11f,686c7ba8e2b52ea08f1fc40f,,,,,,,,,,,,,,,,,,,,,,,,,,,,,907.7634,2,audio/Narrative6Situation1.wav,909.7741,,909.7741,936.3407,"[[100,4647],[100,4729],[100,4813],[99.2,4890],[98.6,4972],[98.6,5056],[98.5,5139],[98.5,5223],[98.5,5306],[98.5,5390],[98.5,5472],[98.5,5557],[98.5,5640],[98.5,5723],[98.5,5807],[98.5,5890],[98.5,5974],[98.5,6057],[98.5,6141],[98.5,6227],[98.5,6307],[98.5,6391],[98.5,6474],[98.5,6558],[98.5,6645],[98.5,6728],[98.5,6812],[98.5,6895],[98.5,6978],[98.5,7062],[98.5,7145],[98.5,7228],[98.5,7312],[98.5,7395],[98.5,7478],[98.5,7562],[98.5,7645],[98.5,7728],[98.5,7812],[98.5,7895],[98.5,7979],[98.5,8062],[98.5,8145],[98.5,8228],[98.5,8312],[98.5,8395],[98.5,8478],[98.5,8561],[98.5,8645],[98.5,8729],[98.5,8812],[98.5,8895],[98.5,8979],[98.5,9062],[98.5,9145],[98.5,9228],[98.5,9312],[98.5,9394],[98.5,9478],[98.5,9562],[98.5,9645],[98.5,9728],[98.5,9812],[98.5,9895],[98.5,9979],[98.5,10062],[98.5,10145],[98.5,10228],[98.5,10312],[98.5,10395],[98.5,10478],[98.5,10562],[98.5,10645],[98.5,10728],[98.5,10812],[98.5,10895],[98.5,10979],[98.5,11062],[98.5,11145],[98.5,11228],[98.5,11312],[98.5,11395],[98.5,11479],[98.5,11562],[98.5,11645],[98.5,11728],[98.5,11811],[98.5,11895],[98.5,11978],[98.5,12062],[98.5,12145],[98.5,12228],[98.5,12312],[98.5,12395],[98.5,12478],[98.5,12562],[98.5,12645],[98.5,12728],[98.5,12812],[98.5,12895],[98.5,12978],[98.5,13062],[98.5,13145],[98.5,13228],[98.5,13312],[98.5,13395],[98.5,13478],[98.5,13562],[98.5,13645],[98.5,13731],[98.5,13812],[98.5,13893],[98.5,13974],[98.5,14058],[98.5,14141],[98.5,14224],[98.5,14307],[98.5,14391],[98.5,14474],[98.5,14558],[98.5,14641],[98.5,14724],[98.5,14807],[98.5,14891],[98.5,14974],[98.5,15058],[98.5,15141],[98.5,15224],[98.5,15308],[98.5,15391],[98.5,15474],[98.5,15558],[98.5,15641],[98.5,15724],[98.5,15808],[98.5,15891],[98.5,15974],[98.5,16057],[98.5,16141],[98.5,16224],[98.5,16309],[98.5,16393],[98.5,16474],[98.5,16558],[98.5,16640],[98.5,16724],[98.5,16808],[98.5,16891],[98.5,16974],[98.5,17058],[98.5,17141],[98.5,17224],[98.5,17308],[98.5,17391],[98.5,17474],[98.5,17558],[98.5,17641],[98.5,17724],[98.5,17808],[98.5,17890],[98.5,17974],[98.5,18058],[98.5,18141],[98.5,18224],[98.5,18308],[98.5,18391],[98.5,18474],[98.5,18557],[98.5,18641],[98.5,18724],[98.5,18808],[98.5,18895],[98.5,18974],[98.5,19058],[98.5,19141],[98.5,19224],[98.5,19308],[98.5,19391],[98.5,19474],[98.5,19557],[98.5,19641],[98.5,19724],[98.5,19808],[98.5,19891],[98.5,19974],[98.5,20058],[98.5,20141],[98.5,20224],[98.5,20308],[98.5,20391],[98.5,20474],[98.5,20558],[98.5,20641],[98.5,20724],[98.5,20808],[98.5,20893],[98.5,20974],[98.5,21058],[98.5,21140],[98.5,21224],[98.5,21308],[98.5,21391],[98.5,21474],[98.5,21558],[98.5,21641],[98.5,21724],[98.5,21808],[98.5,21891],[98.5,21974],[98.5,22058],[98.5,22141],[98.5,22224],[98.5,22308],[98.5,22391],[98.5,22474],[98.5,22558],[98.5,22641],[98.5,22724],[98.5,22808],[98.5,22891],[98.5,22974],[98.5,23058],[98.5,23141],[98.5,23224],[98.5,23308],[98.5,23391],[98.5,23474],[98.5,23557],[98.5,23641],[98.5,23724],[98.5,23808],[98.5,23891],[98.5,23974],[98.5,24058],[98.5,24141],[98.5,24224],[98.5,24307],[98.5,24391],[98.5,24474],[98.5,24558],[98.5,24641],[98.5,24724],[98.5,24808],[98.5,24890],[98.5,24974],[98.5,25058],[98.5,25141],[98.5,25224],[98.5,25308],[98.5,25391],[98.5,25474],[98.5,25558],[98.5,25641],[98.5,25724],[98.5,25807],[98.5,25891],[98.5,25974],[98.5,26058],[98.5,26141],[98.5,26224],[98.5,26307],[98.5,26391],[98.5,26474],[98.5,26559]]",936.3408,975.849,97.12965372,38.4518,"[{""rating"":97.12965371578576,""responseTime"":38.451800000071444}]",space,38.9849,,975.8491,Not at all,0,975.8502,,,[],,0,10,10,10,1,audio/Narrative8Situation1.wav,audio/Narrative7Situation1.wav,audio/Narrative6Situation1.wav,audio/Narrative5Situation1.wav,5,2,2,5,,,,,,,,,,,,,,,,,,,,,,,,,,,,,,,,,,,,,,,
,,,,,545f1e11fdf99b3156e7588b,2025-07-07_22h00.25.414,group3.4_multiperson,2023.2.2,MacIntel,117.6470588,686c2ebf0248f13bef9af11f,686c7ba8e2b52ea08f1fc40f,,,,,,,,,,,,,,,,,,,,,,,,,,,,,975.8504,2,audio/Narrative6Situation2.wav,978.8575,,978.8576,1007.3449,"[[96.2,16578],[94.6,16662],[94.6,16744],[94.6,16828],[94.6,16912],[94.6,16995],[91.2,17078],[89.2,17162],[89.1,17245],[89.1,17328],[89.1,17412],[89.1,17495],[89.1,17578],[89.1,17662],[89.1,17745],[89.1,17828],[89.1,17912],[89.1,17995],[89.1,18078],[89.1,18162],[89.1,18245],[89.1,18328],[89.1,18412],[89.1,18495],[89.1,18578],[89.1,18662],[89.1,18745],[89.1,18828],[89.1,18912],[89.1,18995],[89.1,19078],[89.1,19162],[89.1,19245],[89.1,19328],[89.1,19412],[89.1,19495],[89.1,19578],[89.1,19662],[89.1,19745],[89.1,19828],[89.1,19912],[89.1,19995],[89.1,20078],[89.1,20162],[89.1,20245],[89.1,20328],[89.1,20412],[89.1,20494],[89.1,20578],[89.1,20662],[89.1,20745],[89.1,20828],[89.1,20912],[89.1,20995],[89.1,21078],[89.1,21162],[89.1,21245],[89.1,21328],[89.1,21413],[89.1,21495],[89.1,21578],[89.1,21661],[89.1,21745],[89.1,21828],[89.1,21912],[89.1,21995],[89.1,22078],[89.1,22162],[89.1,22245],[89.1,22328],[89.1,22412],[89.1,22495],[89.1,22578],[89.1,22662],[89.1,22745],[89.1,22828],[89.1,22912],[89.1,22995],[89.1,23078],[89.1,23162],[89.1,23245],[89.1,23328],[89.1,23412],[89.1,23495],[89.1,23578],[89.1,23662],[89.1,23745],[89.1,23828],[89.1,23912],[89.1,23995],[89.1,24078],[89.1,24162],[89.1,24244],[89.1,24328],[89.1,24412],[89.1,24495],[89.1,24578],[89.1,24662],[89.1,24745],[89.1,24828],[89.1,24912],[89.1,24995],[89.1,25078],[89.1,25162],[89.1,25245],[89.1,25328],[89.1,25412],[89.1,25495],[89.1,25578],[89.1,25662],[89.1,25745],[89.1,25828],[89.1,25912],[89.1,25995],[89.1,26078],[89.1,26162],[89.1,26245],[89.1,26328],[89.1,26412],[89.1,26495],[89.1,26579],[89.1,26662],[89.1,26745],[89.1,26828],[89.1,26912],[89.1,26995],[89.1,27078],[89.1,27162],[89.1,27245],[89.1,27328],[89.1,27412],[89.1,27495],[89.1,27578],[89.1,27662],[89.1,27745],[89.1,27828],[89.1,27912],[89.1,27994],[89.1,28078],[89.1,28162],[89.1,28245],[89.1,28328],[89.1,28412]]",1007.345,2037.4704,85.27258189,1028.8239,"[{""rating"":76.52461196230712,""responseTime"":1028.1483999999762},{""rating"":85.27258189138476,""responseTime"":1028.8238999999762}]",space,1029.6047,,2037.4705,Definitely yes,100,2037.472,,,[],,0,11,11,11,1,audio/Narrative8Situation2.wav,audio/Narrative7Situation2.wav,audio/Narrative6Situation2.wav,audio/Narrative5Situation2.wav,3,3,3,3,,,,,,,,,,,,,,,,,,,,,,,,,,,,,,,,,,,,,,,
,,,,,545f1e11fdf99b3156e7588b,2025-07-07_22h00.25.414,group3.4_multiperson,2023.2.2,MacIntel,117.6470588,686c2ebf0248f13bef9af11f,686c7ba8e2b52ea08f1fc40f,,,,,,,,,,,,,,,,,,,,,,,,,,,,,2037.472,2,audio/Narrative6Situation3.wav,2042.4796,,2042.4796,2055.0704,"[[85.6,6745],[88.6,6825],[95.7,6908],[97.2,6991],[97.2,7074],[97.2,7158],[98.1,7241],[100,7325],[100,7408],[100,7491],[100,7574],[100,7658],[100,7741],[100,7824],[100,7908],[100,7991],[100,8075],[100,8157],[100,8241],[100,8324],[100,8408],[100,8491],[100,8575],[100,8658],[100,8741],[100,8825],[100,8908],[100,8991],[100,9074],[100,9158],[100,9241],[100,9324],[100,9407],[100,9491],[100,9574],[100,9658],[100,9741],[100,9825],[100,9908],[100,9991],[100,10074],[100,10158],[100,10241],[100,10325],[100,10408],[100,10491],[100,10574],[100,10658],[100,10741],[100,10824],[100,10908],[100,10991],[100,11074],[100,11157],[100,11241],[100,11325],[100,11408],[100,11491],[100,11576],[100,11657],[100,11741],[100,11824],[100,11908],[100,11992],[100,12075],[100,12158],[100,12241],[100,12325],[100,12408],[100,12491],[100,12575]]",2055.0705,2060.1338,100,4.8404,"[{""rating"":100,""responseTime"":4.840400000095087}]",space,4.5505,,2060.1339,Definitely yes,100,2060.1345,,,[],,0,12,12,12,1,audio/Narrative8Situation3.wav,audio/Narrative7Situation3.wav,audio/Narrative6Situation3.wav,audio/Narrative5Situation3.wav,4,8,5,3,,,,,,,,,,,,,,,,,,,,,,,,,,,,,,,,,,,,,,,
,,,,,545f1e11fdf99b3156e7588b,2025-07-07_22h00.25.414,group3.4_multiperson,2023.2.2,MacIntel,117.6470588,686c2ebf0248f13bef9af11f,686c7ba8e2b52ea08f1fc40f,,,,,,,,,,,,,,,,,,,,,,,,,,,,,2060.1346,2,audio/Narrative6Situation4.wav,2062.1421,,2062.1421,2074.7466,"[[999,0],[999,83],[999,166],[999,249],[999,333],[999,416],[999,500],[999,584],[999,666],[999,749],[999,832],[999,916],[999,999],[999,1083],[999,1166],[999,1249],[999,1333],[999,1417],[999,1500],[999,1583],[999,1666],[999,1750],[999,1833],[999,1916],[999,1999],[999,2083],[999,2166],[999,2249],[999,2333],[999,2416],[999,2501],[999,2583],[999,2667],[999,2749],[999,2833],[999,2916],[999,2999],[999,3083],[999,3166],[999,3250],[999,3333],[999,3416],[999,3500],[999,3583],[999,3666],[999,3750],[999,3833],[999,3916],[999,4000],[999,4083],[999,4166],[999,4250],[999,4333],[999,4416],[999,4500],[999,4583],[999,4667],[999,4750],[999,4833],[999,4916],[999,5000],[999,5083],[999,5167],[999,5250],[999,5333],[999,5416],[999,5491],[999,5571],[999,5653],[999,5737],[999,5820],[999,5904],[999,5987],[999,6070],[999,6153],[999,6237],[999,6320],[999,6403],[999,6487],[999,6570],[999,6654],[999,6737],[999,6820],[999,6903],[999,6987],[999,7070],[999,7154],[999,7236],[999,7320],[999,7404],[999,7487],[999,7570],[999,7654],[999,7736],[999,7820],[999,7912],[999,7995],[999,8079],[999,8162],[999,8244],[999,8328],[999,8412],[999,8495],[999,8579],[999,8662],[999,8745],[999,8829],[999,8937],[999,9020],[999,9104],[999,9187],[999,9270],[999,9354],[999,9437],[999,9520],[999,9604],[999,9687],[999,9770],[999,9854],[999,9937],[999,10020],[999,10104],[999,10187],[999,10270],[999,10354],[999,10437],[999,10520],[999,10604],[999,10687],[999,10770],[999,10854],[999,10937],[999,11020],[999,11104],[999,11187],[999,11270],[999,11354],[999,11437],[999,11520],[999,11604],[999,11687],[999,11770],[999,11854],[999,11937],[999,12020],[999,12104],[999,12187],[999,12270],[999,12354],[999,12437],[999,12520],[999,12604]]",2074.7467,2090.234,100,14.9257,"[{""rating"":100,""responseTime"":14.925700000047527}]",space,14.9647,,2090.2341,Not at all,0,2090.2363,,,[],,0,13,13,13,1,audio/Narrative8Situation4.wav,audio/Narrative7Situation4.wav,audio/Narrative6Situation4.wav,audio/Narrative5Situation4.wav,3,3,2,1,,,,,,,,,,,,,,,,,,,,,,,,,,,,,,,,,,,,,,,
,,,,,545f1e11fdf99b3156e7588b,2025-07-07_22h00.25.414,group3.4_multiperson,2023.2.2,MacIntel,117.6470588,686c2ebf0248f13bef9af11f,686c7ba8e2b52ea08f1fc40f,,,,,,,,,,,,,,,,,,,,,,,,,,,,,2090.2364,2,audio/Narrative6Situation5.wav,2092.2378,,2092.2378,2100.184,[],2100.1841,2101.9211,100,1.0801,"[{""rating"":100,""responseTime"":1.0801000000237764}]",space,1.2128,,2101.9212,Not at all,0,2101.9219,,,[],,0,14,14,14,1,audio/Narrative8Situation5.wav,audio/Narrative7Situation5.wav,audio/Narrative6Situation5.wav,audio/Narrative5Situation5.wav,2,5,2,5,,,,,,,,,,,,,,,,,,,,,,,,,,,,,,,,,,,,,,,
,,,,,545f1e11fdf99b3156e7588b,2025-07-07_22h00.25.414,group3.4_multiperson,2023.2.2,MacIntel,117.6470588,686c2ebf0248f13bef9af11f,686c7ba8e2b52ea08f1fc40f,,,,,,,,,,,,,,,,,,,,,,,,,,,,,2101.9221,2,audio/Narrative6Situation6.wav,2103.9297,,2103.9298,2114.9925,"[[999,0],[999,83],[999,167],[999,250],[999,333],[999,415],[999,499],[999,583],[999,666],[999,749],[999,833],[999,916],[999,999],[999,1083],[999,1166],[999,1249],[999,1333],[999,1415],[999,1499],[999,1583],[999,1665],[999,1749],[999,1833],[999,1916],[999,1999],[999,2083],[999,2166],[999,2249],[999,2332],[999,2417],[999,2499],[999,2582],[999,2666],[999,2749],[999,2833],[999,2916],[999,2999],[999,3083],[999,3166],[999,3249],[999,3333],[999,3416],[999,3499],[999,3582],[999,3666],[999,3749],[999,3829],[999,3912],[999,3995],[999,4078],[999,4162],[92.9,4245],[93.1,4329],[93.3,4412],[93.5,4495],[93.5,4578],[95.1,4662],[100,4745],[100,4829],[100,4912],[100,4995],[100,5078],[100,5162],[100,5245],[100,5328],[100,5412],[100,5495],[100,5578],[100,5662],[100,5744],[100,5828],[100,5912],[100,5995],[100,6078],[100,6162],[100,6245],[100,6329],[100,6412],[100,6495],[100,6578],[100,6662],[100,6745],[100,6829],[100,6912],[100,6995],[100,7078],[100,7162],[100,7245],[100,7328],[100,7412],[100,7495],[100,7578],[100,7662],[100,7745],[100,7829],[100,7912],[100,7995],[100,8079],[100,8162],[100,8245],[100,8328],[100,8412],[100,8495],[100,8578],[100,8662],[100,8745],[100,8829],[100,8912],[100,8995],[100,9078],[100,9162],[100,9244],[100,9328],[100,9412],[100,9495],[100,9578],[100,9662],[100,9745],[100,9829],[100,9912],[100,9995],[100,10078],[100,10162],[100,10245],[100,10329],[100,10411],[100,10495],[100,10578],[100,10662],[100,10745],[100,10829],[100,10912],[100,10995]]",2114.9926,2116.0172,100,0.7602,"[{""rating"":100,""responseTime"":0.7602000000474618}]",space,0.505,,2116.0173,Definitely yes,100,2116.0185,,,[],,0,15,15,15,1,audio/Narrative8Situation6.wav,audio/Narrative7Situation6.wav,audio/Narrative6Situation6.wav,audio/Narrative5Situation6.wav,2,3,2,3,,,,,,,,,,,,,,,,,,,,,,,,,,,,,,,,,,,,,,,
,,,,,545f1e11fdf99b3156e7588b,2025-07-07_22h00.25.414,group3.4_multiperson,2023.2.2,MacIntel,117.6470588,686c2ebf0248f13bef9af11f,686c7ba8e2b52ea08f1fc40f,,,,,,,,,,,,,,,,,,,,,,,,,,,,,2116.0185,2,audio/Narrative6Situation7.wav,2121.0252,,2121.0253,2145.8549,"[[999,0],[999,83],[999,166],[999,250],[999,333],[999,416],[999,500],[999,583],[999,666],[999,750],[999,833],[999,916],[999,1000],[999,1083],[999,1166],[999,1250],[999,1333],[999,1416],[999,1500],[999,1582],[999,1666],[999,1750],[999,1833],[999,1916],[999,2000],[999,2083],[999,2166],[999,2250],[999,2333],[999,2416],[999,2500],[999,2584],[999,2666],[999,2750],[999,2837],[999,2916],[999,3000],[999,3083],[999,3167],[999,3250],[100,3333]]",2145.8551,2176.8883,100,30.8261,"[{""rating"":100,""responseTime"":30.826099999904727}]",space,30.5158,,2176.8884,Partially,50,2176.8901,,,[],,0,16,16,16,1,audio/Narrative8Situation7.wav,audio/Narrative7Situation7.wav,audio/Narrative6Situation7.wav,audio/Narrative5Situation7.wav,3,5,5,4,,,,,,,,,,,,,,,,,,,,,,,,,,,,,,,,,,,,,,,
,,,,,545f1e11fdf99b3156e7588b,2025-07-07_22h00.25.414,group3.4_multiperson,2023.2.2,MacIntel,117.6470588,686c2ebf0248f13bef9af11f,686c7ba8e2b52ea08f1fc40f,,,,,,,,,,,,,,,,,,,,,,,,,,,,,2176.8902,2,audio/Narrative6Situation8.wav,2181.8967,,2181.8967,2188.7341,"[[100,6603]]",2188.7342,2190.0296,0,0.9571,"[{""rating"":0,""responseTime"":0.9571000000241838}]",space,0.7737,,2190.0297,Definitely yes,100,2190.0308,,,[],,0,17,17,17,1,audio/Narrative8Situation8.wav,audio/Narrative7Situation8.wav,audio/Narrative6Situation8.wav,audio/Narrative5Situation8.wav,3,2,5,3,,,,,,,,,,,,,,,,,,,,,,,,,,,,,,,,,,,,,,,
,,,,,545f1e11fdf99b3156e7588b,2025-07-07_22h00.25.414,group3.4_multiperson,2023.2.2,MacIntel,117.6470588,686c2ebf0248f13bef9af11f,686c7ba8e2b52ea08f1fc40f,,,,,,,,,,,,,,,,,,,,,,,,,,,,,2190.0309,2,audio/Narrative6Situation9.wav,2194.0386,,2194.0386,2203.9717,"[[999,0],[999,82],[999,166],[999,249],[999,332],[999,416],[999,499],[999,582],[999,666],[999,749],[999,832],[999,916],[999,999],[999,1082],[999,1166],[999,1249],[999,1332],[999,1416],[999,1499],[999,1582],[999,1666],[999,1749],[999,1832],[999,1916],[999,1999],[999,2083],[999,2165],[999,2249],[999,2333],[999,2416],[999,2499],[999,2583],[999,2666],[999,2748],[999,2832],[999,2916],[999,2999],[999,3082],[999,3166],[999,3249],[999,3332],[999,3415],[999,3499],[999,3583],[999,3666],[999,3750],[999,3833],[999,3916],[999,3999],[999,4082],[999,4166],[999,4249],[999,4332],[999,4415],[999,4499],[999,4582],[999,4668],[999,4749],[999,4833],[999,4916],[999,4999],[999,5082],[999,5166],[999,5249],[999,5333],[999,5416],[999,5499],[999,5582],[999,5666],[999,5749],[999,5833],[999,5915],[999,5998],[999,6083],[999,6166],[999,6249],[999,6333],[999,6415],[999,6499],[999,6583],[999,6666],[999,6749],[999,6833],[999,6916],[999,6999],[999,7083],[999,7166],[2.1,7499],[2.7,7583],[2.9,7666],[3,7749],[3,7833],[2.4,7916]]",2203.9718,2206.7923,0,2.5635,"[{""rating"":0,""responseTime"":2.563499999999749}]",space,2.2983,,2206.7923,Definitely yes,100,2206.7931,,,[],,0,18,18,18,1,audio/Narrative8Situation9.wav,audio/Narrative7Situation9.wav,audio/Narrative6Situation9.wav,audio/Narrative5Situation9.wav,3,2,4,3,,,,,,,,,,,,,,,,,,,,,,,,,,,,,,,,,,,,,,,
,,,,,545f1e11fdf99b3156e7588b,2025-07-07_22h00.25.414,group3.4_multiperson,2023.2.2,MacIntel,117.6470588,686c2ebf0248f13bef9af11f,686c7ba8e2b52ea08f1fc40f,,,,,,,,,,,,,,,,,,,,,,,,,,,,,,,,,,,,,,,,,,,,,,,,,,,,,,,,,,,,,,,,,,,,,,2206.7932,2208.5963,space,1.2927,,2208.5964,2211.2499,space,2.3436,,,,,,,,,,,,,,,,,,,,,,,,,,
,,,,,545f1e11fdf99b3156e7588b,2025-07-07_22h00.25.414,group3.4_multiperson,2023.2.2,MacIntel,117.6470588,686c2ebf0248f13bef9af11f,686c7ba8e2b52ea08f1fc40f,,,,,,,,,,,,,,,,,,,,,,,,,,,,,2213.8311,1,audio/Narrative8Situation9.wav,2215.8341,,,,,2247.6845,2252.2104,49.16065305,3.5796,"[{""rating"":49.16065304508195,""responseTime"":3.5796000000236745}]",space,4.0024,,2252.2105,Definitely yes,100,2252.2116,,,[],,,,,,,,,,,2,2,2,2,,,,,,,,,,,,,,,2211.2506,2213.8259,2215.8343,3,2247.6845,"[[78.3,4674],[78.3,4758],[78.3,4841],[77.1,4924],[19.3,5591],[14.6,5674],[14.3,5758],[13.7,5841],[13.6,5924],[11.7,6008],[1.2,22416],[4.5,22498],[4.7,22582],[4.6,22666],[1.4,22749],[0.8,22833],[1.2,22916],[4.5,22999],[4.8,23083],[3.9,23166],[1.2,23249],[0.8,23333],[0.8,23416],[0.8,23498],[0.8,23582],[0.7,23666],[0.4,23749],[0.4,23833],[0.4,23916],[0.4,23999],[0.4,24083],[0.4,24166],[0.4,24249],[0.7,24333],[1.6,24415],[1.8,24499],[1.8,24583],[1.8,24666],[1.8,24749],[1.7,24833],[1.7,24915],[1.7,24999],[2,25082],[9.3,25166],[16,25249],[23,25333],[27.3,25416],[32,25500],[35.9,25583],[38.1,25666],[38.4,25749],[38.4,25833],[38.4,25916],[38.4,25999],[38.4,26083],[38.3,26166],[38.3,26249],[38.3,26333],[38.3,26416],[38.3,26499],[38.3,26583],[38.3,26666],[38.3,26749],[38.3,26833],[38.3,26916],[38.3,26999],[40.1,27083],[59.5,27166],[69,27249],[71.1,27333],[73.3,27416],[75.2,27500],[75.2,27583],[75.2,27666],[75.2,27749],[75.2,27833],[75.2,27916],[75.1,27999],[75.1,28083],[75.1,28166],[75.1,28249],[75.1,28333],[75.1,28416],[75.1,28500],[75.1,28583],[75.1,28666],[75.1,28749],[75.1,28833],[75.1,28916],[75.1,29000],[75.1,29082],[75.1,29166],[75.1,29249],[75.1,29333],[75.1,29416],[75.1,29499],[75.1,29583],[75.1,29666],[75.1,29749],[75.1,29833],[75.1,29916],[75.1,29999],[75.1,30083],[75.1,30166],[75.1,30249],[75.1,30333],[75.1,30416],[75.1,30500],[75.1,30583],[75.1,30666],[75.1,30749],[75.1,30832],[75.1,30916],[75.1,30999],[75.1,31083],[75.1,31166],[75.1,31249],[75.1,31333],[75.1,31416],[75.1,31499],[75.1,31583],[75.1,31666],[75.1,31749],[75.1,31833]]",0,0,0,0,1,"Larry had recently lost his family, job and home, and was now living on his own in the park. He had most of his belongings, including some clothes, a blanket, and his mother’s special necklace. His family had been very important to him and he felt as though he did not have much going for him. One of his first days in the park he came across a family that did not have much food and looked very cold. He decided to give them some of his food and his blanket.","Larry had recently lost his family, job and home, and was now living on his own in the park. He had most of his belongings, including some clothes, a blanket, and his mother’s special necklace. His family had been very important to him and he felt as though he did not have much going for him. One of his first days in the park he came across a family that did not have much food and looked very cold. He decided to give them some of his food and his blanket.","Larry had recently lost his family, job and home, and was now living on his own in the park. He had most of his belongings, including some clothes, a blanket, and his mother’s special necklace. His family had been very important to him and he felt as though he did not have much going for him. One of his first days in the park he came across a family that did not have much food and looked very cold. He decided to give them some of his food and his blanket.","Larry had recently lost his family, job and home, and was now living on his own in the park. He had most of his belongings, including some clothes, a blanket, and his mother’s special necklace. His family had been very important to him and he felt as though he did not have much going for him. One of his first days in the park he came across a family that did not have much food and looked very cold. He decided to give them some of his food and his blanket.",,,,,,,,,,
,,,,,545f1e11fdf99b3156e7588b,2025-07-07_22h00.25.414,group3.4_multiperson,2023.2.2,MacIntel,117.6470588,686c2ebf0248f13bef9af11f,686c7ba8e2b52ea08f1fc40f,,,,,,,,,,,,,,,,,,,,,,,,,,,,,2252.2117,1,audio/Narrative8Situation9.wav,2255.2298,space,,,,2288.7513,2292.1677,72.52719524,2.2765,"[{""rating"":72.52719523974845,""responseTime"":2.276499999999942}]",space,2.8926,,2292.1678,Not at all,0,2292.1708,,,[],,,,,,,,,,,6,2,3,9,3.0121,,,,,,,,,,,,,,,,2255.2298,3,2288.7511,"[[999,1],[999,83],[999,166],[999,249],[999,333],[999,416],[999,500],[999,583],[999,667],[999,750],[999,838],[999,916],[999,1000],[999,1083],[999,1166],[999,1249],[999,1333],[999,1416],[999,1500],[999,1583],[999,1667],[999,1750],[999,1833],[999,1916],[999,2000],[999,2083],[999,2166],[999,2250],[999,2333],[999,2416],[999,2500],[999,2584],[999,2669],[999,2750],[999,2833],[999,2916],[999,3000],[48.7,3083],[34.7,3166],[34,3250],[34,3333],[34,3416],[26,3500],[12.5,3583],[9.1,3666],[6.9,3750],[5.5,3833],[5.5,3916],[5.5,4000],[4.7,4083],[0.4,4166],[14.3,13000],[41,13083],[50.8,13167],[52.9,13250],[52.9,13333],[52.9,13416],[59.2,13500],[65.1,13583],[70.6,13667],[77.8,13750],[81.5,13833],[81.6,13916],[81.6,14000],[81.6,14083],[81.6,14166],[81.6,14250],[81.6,14333],[81.6,14417],[82,14500],[82.6,14579],[83.9,14662],[84.1,14745],[84,14829],[84,14912],[84,14996],[84,15079],[84,15162],[84,15245],[84,15330],[84,15412],[84,15496],[84,15579],[84,15662],[84,15746],[84,15829],[84,15912],[84,15995],[84,16079],[84,16162],[84,16246],[84,16329],[84,16412],[84,16496],[84.1,16579],[84.2,16662],[84.2,16746],[84.2,16829],[84.2,16912],[84.2,16996],[84.2,17078],[84.2,17162],[84.2,17246],[84.2,17329],[84.2,17412],[84.2,17496],[84.2,17579],[84.2,17662],[84.2,17746],[84.2,17828],[84.4,17912],[84.4,17996],[84.4,18079],[84.4,18162],[86.8,18246],[88.4,18329],[88.5,18412],[90.3,18495],[92.1,18579],[92.2,18662],[92.2,18745],[92.2,18829],[92.3,18912],[92.3,18995],[92.3,19079],[92.3,19162],[92.3,19246],[92.3,19329],[92.3,19412],[92.3,19496],[92.3,19579],[92.3,19662],[92.3,19746],[92.3,19829],[92.3,19912],[92.3,19996],[92.3,20078],[92.3,20162],[92.3,20246],[92.3,20329],[92.3,20412],[92.3,20496],[92.3,20579],[92.3,20662],[92.3,20746],[92.3,20829],[92.3,20912],[92.3,20996],[92.3,21079],[92.3,21162],[92.3,21246],[92.3,21329],[92.3,21421],[92.3,21504],[92.3,21587],[92.3,21671],[92.3,21754],[92.3,21837],[92.3,21921],[92.3,22004],[92.3,22087],[92.3,22171],[92.3,22254],[92.3,22337],[92.3,22421],[92.3,22504],[92.3,22588],[92.3,22671],[92.3,22754],[92.3,22837],[92.3,22921],[92.3,23004],[92.3,23087],[92.3,23171],[92.3,23254],[92.3,23337],[92.3,23421],[92.3,23504],[92.3,23587],[92.3,23671],[92.3,23754],[92.3,23837],[92.3,23921],[92.3,24000],[92.3,24083],[92.3,24166],[92.3,24250],[92.3,24333],[92.3,24416],[92.3,24500],[92.3,24583],[92.3,24683],[92.3,24766],[92.3,24850],[92.3,24932],[92.3,25016],[92.3,25100],[92.3,25183],[92.3,25266],[92.3,25349],[92.3,25433],[92.3,25533],[92.3,25616],[92.3,25700],[92.3,25783],[92.3,25866],[92.3,25950],[92.3,26033],[92.3,26116],[92.3,26200],[92.3,26283],[92.3,26366],[92.3,26450],[92.3,26533],[92.3,26616],[92.3,26700],[92.3,26783],[92.3,26866],[92.3,26950],[92.3,27033],[92.3,27116],[92.3,27200],[92.3,27292],[92.3,27375],[92.3,27458],[92.3,27541],[92.3,27625],[92.3,27708],[92.3,27791],[92.3,27875],[92.3,27958],[92.3,28042],[92.3,28125],[92.3,28208],[92.3,28291],[92.3,28375],[92.3,28458],[92.3,28541],[92.3,28625],[92.3,28708],[92.3,28791],[92.3,28875],[92.3,28958],[92.3,29041],[92.3,29125],[92.3,29208],[92.3,29291],[92.3,29374],[92.3,29458],[92.3,29541],[92.3,29625],[92.3,29708],[92.3,29791],[92.3,29875],[92.3,29958],[92.3,30041],[92.3,30125],[92.3,30208],[92.3,30291],[93.7,30375],[96.9,30455],[99,30537],[100,30621],[100,30704],[100,30787],[100,30871],[100,30954],[100,31037],[100,31121],[100,31204],[100,31287],[100,31371],[100,31454],[100,31537],[100,31621],[100,31704],[100,31787],[100,31871],[100,31954],[100,32037],[99.2,32121],[97.6,32204],[97,32287],[97,32371],[97,32454],[97,32537],[97,32621],[97,32704],[97,32787],[97,32871],[97,32954],[98.8,33038],[100,33121],[100,33204],[100,33287],[100,33371],[100,33454]]",0,1,1,1,1,"It was just another Sunday afternoon for Lucy, she was on her way to the farmer's market to pick up some produce. When she arrived at the old train depot that housed the market, she noticed two men fighting on the steps. Before she could call for help, one of the men crumpled to his knees. The other man dropped an object that appeared to be a knife and ran off. When Lucy approached the crime scene she realized that the man who had been murdered was the Mayor and that he had a gunshot wound.","One day at work, Margaret walked up to her partner, Al, to ask him to talk to the chief of staff at the local hospital where she worked as a nurse.","Luke always thought of himself as an honest man. That's why during his evening jog around the swamp, he pondered his recent affair with the receptionist at work. Luke looked up at the sky and asked God why he was so weak and unfaithful. He thought of the impact this would have on his family and told God of his conflicted feelings toward telling his wife Marta.","Linda and Amy had been best friends since kindergarten, they even found homes on the same street in the forest on the edge of town. Their biggest fight had been over who gets the bigger slice of cake, until Amy married Dan. Linda loathed Dan, she thought he was manipulative and had a violent temper. She only put up with him because Amy loved him. ",,,,,,,,,,
,,,,,545f1e11fdf99b3156e7588b,2025-07-07_22h00.25.414,group3.4_multiperson,2023.2.2,MacIntel,117.6470588,686c2ebf0248f13bef9af11f,686c7ba8e2b52ea08f1fc40f,,,,,,,,,,,,,,,,,,,,,,,,,,,,,2292.1712,1,audio/Narrative8Situation9.wav,2296.1759,,,,,2314.7008,2318.0259,98.40573728,1.9949,"[{""rating"":98.40573727630111,""responseTime"":1.9948999999760417}]",space,2.8092,,2318.026,Definitely yes,100,2318.0275,,,[],,,,,,,,,,,4,5,2,2,,,,,,,,,,,,,,,,,2296.176,3,2314.7006,"[[73.2,2750],[73.6,2833],[72.5,2916],[54.9,2999],[21.9,3083],[8.7,3166],[7.9,3249],[7.9,3333],[7.9,3416],[7.9,3499],[6,3583],[1.7,3666],[0.1,6400],[0.9,6479],[0.9,6562],[0.9,6645],[1.3,6729],[1.3,6808],[1.7,6891],[2.7,6974],[3.4,7057],[3.5,7141],[3.5,7224],[3.5,7307],[3.6,7399],[3.6,7483],[3.6,7566],[3.6,7650],[4.9,7729],[6.1,7809],[6.2,7891],[6.2,7974],[6.2,8057],[6.2,8140],[6.2,8224],[6.2,8308],[7.4,8391],[23.9,8474],[34.2,8557],[41.5,8641],[50.3,8724],[59.9,8808],[66.4,8891],[67.7,8974],[67.7,9057],[67.7,9141],[67.7,9224],[73.9,9308],[77.3,9391],[78.3,9474],[79.6,9558],[81.3,9641],[81.3,9724],[81.3,9808],[81.3,9891],[81.3,9974],[81.3,10058],[81.3,10141],[81.3,10224],[81.3,10308],[81.3,10391],[81.3,10474],[81.3,10558],[81.3,10641],[81.3,10724],[81.3,10807],[81.3,10891],[81.3,10974],[81.3,11058],[81.3,11141],[81.3,11224],[81.3,11307],[81.3,11391],[81.3,11474],[81.3,11566],[81.3,11649],[81.3,11733],[81.3,11816],[81.3,11899],[81.3,11983],[81.3,12067],[81.3,12150],[81.3,12233],[81.3,12316],[81.3,12399],[81.3,12483],[81.3,12566],[81.3,12649],[81.3,12733],[81.3,12816],[81.3,12899],[81.3,12983],[81.3,13063],[81.3,13145],[81.3,13229],[81.3,13312],[81.3,13395],[81.3,13479],[81.3,13562],[81.3,13645],[81.3,13729],[81.3,13812],[81.3,13895],[81.3,13978],[81.3,14062],[81.3,14153],[81.3,14237],[81.3,14320],[81.3,14404],[81.3,14487],[81.3,14570],[81.3,14653],[81.3,14737],[81.3,14820],[81.3,14903],[81.3,14987],[81.3,15070],[81.9,15153],[90.4,15233],[95.3,15316],[99.1,15399],[100,15483],[100,15566],[100,15649],[100,15733],[100,15816],[100,15899],[100,15983],[100,16066],[100,16149],[100,16233],[100,16316],[100,16399],[100,16483],[100,16566],[100,16649],[100,16733],[100,16816],[100,16899],[100,16983],[100,17066],[100,17149],[100,17233],[100,17316],[100,17400],[100,17483],[100,17566],[100,17649],[100,17733],[100,17816],[100,17899],[100,17983],[100,18066],[100,18149],[100,18233],[100,18316],[100,18399],[100,18482]]",0,2,2,2,1,On the ground beside him was a pen that she had mistaken for a knife. Lucy looked for the gunman and saw a suspicious man in black with distinct pointy features darting into an alley across the street. Cops who were nearby chased the man who had fled and arrested him.,"While waiting outside the chief of staff's office, Al heard nondescript shouting and yelling, there was a loud clatter in the room and then an eerie silence. An unfamiliar employee ran hastily out of the office with a terrified look on their face.","Suddenly, Luke heard a woman call out his name and when he turned around he saw Carly, his receptionist, across the road with a gun in her hand. Carly ran to him and explained how she had followed him here to confess her love. She exclaimed if Luke didn't love her back that she would kill him and his family. Carly explained that the only way they could be together is to kill Marta.","This feeling of hate between Amy and Dan was mutual, Dan didn't like how much time his wife spent with her and thought Amy was creating distance between their marriage. That's why Dan decided to try and tarnish Linda's reputation with his wife, in hopes it would get rid of her. He came home one afternoon and exclaimed that Linda had tried to kiss him. Amy was taken aback and immediately called Linda to confront her about these accusations. When Linda arrived she denied having made a move on Dan, but discovered Dan had enlisted the help of his friend Will who said he witnessed it all happen.",,,,,,,,,,
,,,,,545f1e11fdf99b3156e7588b,2025-07-07_22h00.25.414,group3.4_multiperson,2023.2.2,MacIntel,117.6470588,686c2ebf0248f13bef9af11f,686c7ba8e2b52ea08f1fc40f,,,,,,,,,,,,,,,,,,,,,,,,,,,,,2318.0277,1,audio/Narrative8Situation9.wav,2320.0343,,,,,2331.8843,2333.9842,0,1.765,"[{""rating"":0,""responseTime"":1.7649999999998727}]",space,1.5763,,2333.9844,Definitely yes,100,2333.9854,,,[],,,,,,,,,,,2,2,1,4,,,,,,,,,,,,,,,,,2320.0344,3,2331.8843,"[[97.5,3083],[70.2,3166],[45.4,3754],[56.9,3837],[57.3,3920],[57.3,4004],[57.3,4087],[66.3,4171],[72,4254],[72.3,4337],[72.3,4420],[74.1,4504],[76.8,4587],[79,4671],[80.4,4754],[81,4837],[81.5,4920],[81.8,5004],[81.8,5087],[81.8,5170],[81.8,5254],[81.8,5337],[81.8,5420],[81.8,5504],[81.8,5587],[81.8,5670],[81.8,5754],[81.8,5837],[81.8,5920],[81.8,6004],[81.8,6087],[81.8,6170],[81.8,6254],[81.8,6337],[81.8,6420],[68,6504],[33.9,6587],[23.1,6670],[11.1,6754]]",0,3,3,3,1,"But Lucy knew the charged man was innocent, which meant the killer was free. Lucy vowed to find out who the real murderer was and to stop him at all costs.","Al explained to the chief of staff that Margaret wanted to be excused from her absences last week. The chief of staff, Susan, revealed that she wanted to fire Margaret and never see her again. Susan and Al had been having an affair and she wanted Margaret ""out of the picture"". Al was conflicted, but agreed it would be for the best.","Luke thought of his child and felt like this was his only option. He agreed to the plan and called his wife to meet him at the swamp to watch the sunset with him. When she arrived, Marta called out for her husband, but found Carly waiting for her. She immediately drew her gun and shot her in the chest, knocking her unconscious.","Since it was their word against her own, she decided to go home and admit defeat. She knew how much it would hurt Amy to know the truth.",,,,,,,,,,
,,,,,545f1e11fdf99b3156e7588b,2025-07-07_22h00.25.414,group3.4_multiperson,2023.2.2,MacIntel,117.6470588,686c2ebf0248f13bef9af11f,686c7ba8e2b52ea08f1fc40f,,,,,,,,,,,,,,,,,,,,,,,,,,,,,2333.9856,1,audio/Narrative8Situation9.wav,2334.9925,,,,,2364.5054,2368.8052,87.35896306,3.8023,"[{""rating"":87.3589630638738,""responseTime"":3.8023000000712273}]",space,3.7791,,2368.8053,Partially,50,2368.8067,,,[],,,,,,,,,,,1,1,3,3,,,,,,,,,,,,,,,,,2334.9926,3,2364.5052,"[[0.7,1583],[1.9,1666],[2.1,1749],[2.1,1833],[2.1,1916],[2.1,2000],[0.4,2083],[43.2,15904],[48.5,15987],[55.4,16070],[58.5,16161],[59.6,16231],[59.6,16312],[59.6,16395],[64.8,16479],[72.2,16562],[75,16645],[75,16729],[75,16812],[75,16895],[75,16979],[75,17062],[75,17145],[75,17228],[75,17312],[75,17394],[78.2,17478],[92.9,17562],[98.7,17645],[99.8,17728],[100,17812],[100,17895],[100,17978],[100,18062],[100,18145],[100,18228],[100,18312],[100,18394],[100,18478],[100,18562],[100,18644],[100,18729],[100,18812],[100,18895],[100,18979],[100,19062],[100,19145],[100,19229],[100,19312],[100,19395],[100,19479],[100,19562],[100,19645],[100,19728],[100,19812],[100,19895],[100,19979],[100,20062],[100,20145],[100,20229],[100,20312],[100,20395],[100,20479],[100,20562],[100,20645],[100,20729],[100,20812],[100,20895],[100,20979],[100,21062],[100,21145],[100,21229],[100,21312],[100,21395],[100,21479],[100,21562],[100,21645],[100,21729],[100,21812],[100,21895],[100,21979],[100,22062],[100,22145],[100,22229],[100,22312],[100,22396],[100,22479],[100,22562],[100,22646],[100,22729],[100,22812],[100,22895],[100,22979],[100,23062],[100,23145],[100,23229],[100,23312],[100,23395],[100,23479],[100,23562],[100,23645],[100,23729],[100,23812],[100,23895],[100,23979],[100,24062],[100,24145],[100,24229],[100,24312],[100,24395],[100,24479],[100,24562],[100,24645],[100,24729],[100,24812],[100,24895],[100,24979],[100,25062],[100,25145],[100,25229],[100,25312],[100,25395],[100,25479],[100,25562],[100,25645],[100,25729],[100,25812],[100,25895],[100,25978],[100,26062],[100,26145],[100,26229],[100,26312],[100,26395],[100,26479],[100,26562],[100,26645],[100,26728],[100,26812],[100,26895],[100,26979],[100,27062],[100,27145],[100,27229],[100,27312],[100,27395],[100,27479],[100,27562],[100,27645],[100,27729],[100,27812],[100,27895],[100,27979],[100,28062],[100,28145],[100,28229],[100,28312],[100,28395],[100,28479],[100,28562],[100,28645],[100,28729],[100,28812],[100,28895],[100,28979],[100,29062],[100,29145],[100,29229],[100,29312],[100,29395],[100,29479]]",0,4,4,4,1,"The next day the mayors successor, Mr. Smith, a man who was very unpopular due to his strong ties to the oil companies, took office. After a long day of brainstorming about the mysterious killer, Lucy decided to attend his welcome ceremony in the city. During the mayor's speech, she noticed one of the security guards looked strangely familiar. It dawned on her that this new mayor had motive to kill and that the man in black could've been the guard working for him.","Weeks passed and nobody had seen Margaret. Coworkers and friends searched the nearby city looking for her. One day on patrol in a nearby town, a police officer heard someone crying for help in the basement of a house and went in to investigate. Margaret yelled that she was being held captive and needed help.","Luke ran to Marta, and filled with regret over his decision to go along with Carly's plan, picked her up and rushed her to the hospital. The doctors tried to help Marta by taking her into emergency surgery but failed to save her life. Once the doctor called the time of death, Luke fell to his knees and sobbed over his rash decision.","Months later Dan had taken up a mistress, he was growing bored with his marriage ever since he got rid of Linda and was only still with Amy for her family's money. In a hotel room in a nearby town, Dan and his mistress, Nicole, conspired to secretly kill Amy while still obtaining her fortune.",,,,,,,,,,
,,,,,545f1e11fdf99b3156e7588b,2025-07-07_22h00.25.414,group3.4_multiperson,2023.2.2,MacIntel,117.6470588,686c2ebf0248f13bef9af11f,686c7ba8e2b52ea08f1fc40f,,,,,,,,,,,,,,,,,,,,,,,,,,,,,2368.8068,1,audio/Narrative8Situation9.wav,2371.8135,,,,,2388.3223,2389.7803,100,1.1683,"[{""rating"":100,""responseTime"":1.168299999952069}]",space,0.934,,2389.7804,Definitely yes,100,2389.7831,,,[],,,,,,,,,,,3,1,3,3,,,,,,,,,,,,,,,,,2371.8136,3,2388.3222,"[[75.5,1333],[54.8,1416],[51.7,1499],[65,1583],[100,1666],[100,14399],[100,14483],[100,14566],[100,14649],[100,14733],[100,14816],[100,14899],[100,14983],[100,15066],[100,15149],[100,15233],[100,15316],[100,15399],[100,15483],[100,15566],[100,15649],[100,15733],[100,15816],[100,15899],[100,15983],[100,16066],[100,16149],[100,16233],[100,16316],[100,16399],[100,16483]]",0,5,5,5,1,"Lucy decided to confront the mayor after his ceremony. But when she tried to accuse him, the security guards threatened to hurt her if she went to the police with her theory. Before she could say another word a man pulled her from the crowd.","In a rush, the police officer broke down the door and was attacked by a man in the house. Without hesitation, the officer shot the man and the man fell to the floor.","He then saw Marta's brother Zach enter the hospital. Zach ran over to Luke and punched him. Zach screamed at Luke that it's his fault his sister is dead and that he knew about the affair. Luke quickly tried to explain that he felt horrible about Marta's death and that Carly had manipulated him into going along with her plan. Zach, still angry at his brother-in-law, realized his mistake in judgement and shifted his anger toward Carly.","They decided to have Dan invite her to the hotel room under the guise of a romantic date. Once she arrived, Nicole was there to tie her up. Once she was secured to a chair, Nicole demanded Amy's bank passwords. Amy obliged and gave her access to her bank accounts.",,,,,,,,,,
