consent.started,consent.stopped,consentResponse.keys,consentResponse.rt,consentResponse.duration,participantID,date,expName,psychopyVersion,OS,frameRate,STUDY_ID,SESSION_ID,opening1.started,opening1.stopped,keyEndingOpening1.keys,keyEndingOpening1.rt,keyEndingOpening1.duration,volumeAdjust.started,volumeAdjust.stopped,endingAdjust.keys,endingAdjust.rt,endingAdjust.duration,opening2.started,opening2.stopped,keyEndingOpening.keys,keyEndingOpening.rt,keyEndingOpening.duration,mouse.x,mouse.y,mouse.leftButton,mouse.midButton,mouse.rightButton,mouse.time,instructionLoop.thisRepN,instructionLoop.thisTrialN,instructionLoop.thisN,instructionLoop.thisIndex,instructionLoop.ran,readyForAudio.started,readyForAudio.stopped,fixation.started,run,audio_played,fixation.stopped,endPractice.keys,audioPre.started,audioPre.stopped,continuousResponses_audio,intRating.started,intRating.stopped,intQuestionSlider.response,intQuestionSlider.rt,intQuestionSlider.history,confirmResponse.keys,confirmResponse.rt,confirmResponse.duration,catchQuestion.started,catch_label,catch_value,catchQuestion.stopped,catchQuestionSlider.response,catchQuestionSlider.rt,catchQuestionSlider.history,confirmResponse_2.keys,audioRunLoop.thisRepN,audioRunLoop.thisTrialN,audioRunLoop.thisN,audioRunLoop.thisIndex,audioRunLoop.ran,conditions1_1,conditions2_1,conditions1_2,conditions2_2,dur1_1,dur2_1,dur1_2,dur2_2,endPractice.rt,endPractice.duration,confirmResponse_2.rt,confirmResponse_2.duration,runIntervalBreak.started,runIntervalBreak.stopped,endingBreakKey.keys,endingBreakKey.rt,endingBreakKey.duration,connection.started,connection.stopped,connectionEnding.keys,connectionEnding.rt,connectionEnding.duration,readyForText.started,readyForText.stopped,textPre.started,run_dup,textPre.stopped,continuousResponses_text,textRunLoop.thisRepN,textRunLoop.thisTrialN,textRunLoop.thisN,textRunLoop.thisIndex,textRunLoop.ran,text1_1,text1_2,text2_1,text2_2,runBreakText.started,runBreakText.stopped,endingBreakKey_2.keys,endingBreakKey_2.rt,endingBreakKey_2.duration,ending.started,ending.stopped,endingEnding.keys,endingEnding.rt,endingEnding.duration
0.0005,56.4162,y,56.0819,,559c3b0efdf99b32b6963e81,2025-07-07_22h01.19.151,group3.4_multiperson,2023.2.2,Win32,59.52380952,686c2ebf0248f13bef9af11f,686c7b8d2c46d9fc5383faba,,,,,,,,,,,,,,,,,,,,,,,,,,,,,,,,,,,,,,,,,,,,,,,,,,,,,,,,,,,,,,,,,,,,,,,,,,,,,,,,,,,,,,,,,,,,,,,,,,,,,,,,
,,,,,559c3b0efdf99b32b6963e81,2025-07-07_22h01.19.151,group3.4_multiperson,2023.2.2,Win32,59.52380952,686c2ebf0248f13bef9af11f,686c7b8d2c46d9fc5383faba,56.4171,120.2946,space,63.8298,,,,,,,,,,,,,,,,,,,,,,,,,,,,,,,,,,,,,,,,,,,,,,,,,,,,,,,,,,,,,,,,,,,,,,,,,,,,,,,,,,,,,,,,,,,,,,,,,,,,
,,,,,559c3b0efdf99b32b6963e81,2025-07-07_22h01.19.151,group3.4_multiperson,2023.2.2,Win32,59.52380952,686c2ebf0248f13bef9af11f,686c7b8d2c46d9fc5383faba,,,,,,120.2952,151.5496,space,30.9159,,,,,,,,,,,,,,,,,,,,,,,,,,,,,,,,,,,,,,,,,,,,,,,,,,,,,,,,,,,,,,,,,,,,,,,,,,,,,,,,,,,,,,,,,,,,,,,
,,,,,559c3b0efdf99b32b6963e81,2025-07-07_22h01.19.151,group3.4_multiperson,2023.2.2,Win32,59.52380952,686c2ebf0248f13bef9af11f,686c7b8d2c46d9fc5383faba,,,,,,,,,,,151.5613,162.5296,space,10.9383,,[],[],[],[],[],[],0,0,0,0,1,,,,,,,,,,,,,,,,,,,,,,,,,,,,,,,,,,,,,,,,,,,,,,,,,,,,,,,,,,,,,,,,,,,,,,,,,,,,,,
,,,,,559c3b0efdf99b32b6963e81,2025-07-07_22h01.19.151,group3.4_multiperson,2023.2.2,Win32,59.52380952,686c2ebf0248f13bef9af11f,686c7b8d2c46d9fc5383faba,,,,,,,,,,,162.5306,187.5371,space,24.8738,,[],[],[],[],[],[],1,0,1,0,1,,,,,,,,,,,,,,,,,,,,,,,,,,,,,,,,,,,,,,,,,,,,,,,,,,,,,,,,,,,,,,,,,,,,,,,,,,,,,,
,,,,,559c3b0efdf99b32b6963e81,2025-07-07_22h01.19.151,group3.4_multiperson,2023.2.2,Win32,59.52380952,686c2ebf0248f13bef9af11f,686c7b8d2c46d9fc5383faba,,,,,,,,,,,187.5376,214.4782,space,26.867,,[],[],[],[],[],[],2,0,2,0,1,,,,,,,,,,,,,,,,,,,,,,,,,,,,,,,,,,,,,,,,,,,,,,,,,,,,,,,,,,,,,,,,,,,,,,,,,,,,,,
,,,,,559c3b0efdf99b32b6963e81,2025-07-07_22h01.19.151,group3.4_multiperson,2023.2.2,Win32,59.52380952,686c2ebf0248f13bef9af11f,686c7b8d2c46d9fc5383faba,,,,,,,,,,,214.4797,247.0839,space,32.573,,[],[],[],[],[],[],3,0,3,0,1,,,,,,,,,,,,,,,,,,,,,,,,,,,,,,,,,,,,,,,,,,,,,,,,,,,,,,,,,,,,,,,,,,,,,,,,,,,,,,
,,,,,559c3b0efdf99b32b6963e81,2025-07-07_22h01.19.151,group3.4_multiperson,2023.2.2,Win32,59.52380952,686c2ebf0248f13bef9af11f,686c7b8d2c46d9fc5383faba,,,,,,,,,,,247.0855,258.8798,space,11.7676,,[],[],[],[],[],[],4,0,4,0,1,,,,,,,,,,,,,,,,,,,,,,,,,,,,,,,,,,,,,,,,,,,,,,,,,,,,,,,,,,,,,,,,,,,,,,,,,,,,,,
,,,,,559c3b0efdf99b32b6963e81,2025-07-07_22h01.19.151,group3.4_multiperson,2023.2.2,Win32,59.52380952,686c2ebf0248f13bef9af11f,686c7b8d2c46d9fc5383faba,,,,,,,,,,,258.8808,274.0914,space,15.1794,,[],[],[],[],[],[],5,0,5,0,1,,,,,,,,,,,,,,,,,,,,,,,,,,,,,,,,,,,,,,,,,,,,,,,,,,,,,,,,,,,,,,,,,,,,,,,,,,,,,,
,,,,,559c3b0efdf99b32b6963e81,2025-07-07_22h01.19.151,group3.4_multiperson,2023.2.2,Win32,59.52380952,686c2ebf0248f13bef9af11f,686c7b8d2c46d9fc5383faba,,,,,,,,,,,,,,,,,,,,,,,,,,,274.0963,276.6734,276.7228,1,audio/Narrative13Situation2.wav,278.7395,,278.7399,308.4963,"[[999,1],[999,132],[999,215],[999,299],[999,382],[999,465],[999,549],[999,632],[999,715],[999,798],[999,882],[999,965],[999,1048],[999,1132],[999,1215],[999,1298],[999,1382],[999,1465],[999,1548],[999,1632],[999,1715],[999,1798],[999,1882],[999,1965],[999,2048],[999,2131],[999,2215],[999,2298],[999,2381],[999,2465],[999,2548],[999,2631],[999,2714],[999,2798],[999,2881],[999,2965],[999,3048],[999,3131],[999,3214],[999,3298],[999,3381],[999,3464],[999,3548],[999,3631],[999,3714],[999,3798],[999,3881],[999,3964],[999,4047],[999,4131],[999,4214],[999,4297],[999,4381],[999,4464],[999,4547],[999,4631],[999,4714],[999,4797],[999,4881],[999,4964],[999,5047],[999,5131],[999,5214],[999,5298],[999,5381],[999,5464],[999,5548],[51.7,5630],[50.8,5714],[50,5797],[50,5880],[50,5963],[50,6047],[50,6130],[50,6213],[50,6296],[50,6380],[50,6463],[50,6546],[50,6630],[50,6713],[50,6796],[50,6880],[50,6963],[50,7046],[50,7130],[50,7213],[50,7296],[50,7380],[50,7463],[50.1,7546],[50.1,7629],[50.1,7713],[50.1,7796],[50.1,7879],[50.1,7962],[50.2,8047],[50.8,8130],[50.9,8213],[51.1,8297],[52.3,8380],[53.3,8463],[53.3,8546],[55.3,8630],[69.7,8714],[87,8796],[87.7,8879],[87.7,8962],[89.5,9046],[93.8,9129],[94.3,9212],[94.3,9296],[95.1,9379],[96.1,9463],[96.4,9546],[96.4,9629],[97.3,9713],[98.1,9796],[98.8,9879],[99,9962],[99.4,10045],[99.4,10129],[99.4,10212],[99.7,10296],[100,10379],[100,10462],[100,10545],[100,10628],[100,10712],[100,10795],[100,10878],[100,10962],[100,11045],[100,11128],[100,11212],[100,11295],[100,11378],[100,11462],[100,11545],[100,11628],[100,11712],[100,11795],[100,11878],[100,11961],[100,12045],[100,12128],[100,12211],[100,12294],[100,12378],[100,12461],[100,12545],[100,12628],[100,12711],[100,12794],[100,12878],[100,12961],[100,13044],[100,13128],[100,13211],[100,13294],[100,13377],[100,13461],[100,13544],[100,13627],[100,13711],[100,13794],[100,13877],[100,13961],[100,14044],[100,14127],[100,14211],[100,14294],[100,14377],[100,14461],[100,14544],[100,14627],[100,14710],[100,14794],[100,14877],[100,14960],[100,15043],[100,15127],[100,15210],[100,15294],[100,15377],[100,15460],[100,15543],[100,15627],[100,15710],[100,15793],[100,15877],[100,15960],[100,16043],[100,16127],[100,16210],[100,16293],[100,16376],[100,16460],[100,16543],[100,16626],[100,16710],[100,16793],[100,16876],[100,16960],[100,17043],[100,17126],[100,17210],[100,17293],[100,17376],[100,17459],[100,17543],[99.2,17627],[95.4,17710],[93.4,17793],[92.9,17876],[92.1,17960],[88.3,18043],[88.2,18126],[88.2,18209],[88.2,18293],[88.1,18377],[82.2,18460],[75.3,18543],[74.2,18626],[73.9,18709],[73.9,18792],[73.9,18876],[73.9,18959],[73.9,19042],[73.9,19126],[73.9,19209],[73.4,19293],[67.4,19376],[62.6,19460],[62.5,19542],[62.5,19625],[59.6,19710],[53.4,19792],[50.2,19876],[48.4,19959],[48.4,20042],[48.4,20125],[48.4,20209],[48.3,20292],[48.3,20375],[48.3,20459],[48.3,20542],[49,20625],[49.8,20708],[49.8,20792],[49.8,20875],[49.8,20958],[49.8,21042],[49.8,21125],[49.8,21208],[49.8,21292],[49.8,21375],[49.8,21458],[49.8,21541],[49.8,21625],[49.8,21708],[49.9,21791],[52,21875],[59,21959],[68.4,22042],[74.4,22125],[80.5,22209],[88.2,22292],[96.7,22375],[100,22459],[100,22542],[100,22624],[100,22708],[100,22791],[100,22874],[100,22958],[100,23041],[100,23124],[100,23208],[100,23291],[100,23374],[100,23457],[100,23541],[100,23625],[99.9,23708],[99.9,23791],[99.9,23874],[99.9,23957],[99.9,24041],[99.9,24124],[99.9,24207],[99.9,24290],[99.9,24374],[99.9,24457],[99.9,24540],[99.9,24624],[99.9,24707],[99.9,24790],[99.9,24873],[99.9,24957],[99.9,25040],[99.9,25123],[99.9,25207],[99.9,25290],[99.9,25373],[99.9,25457],[99.9,25540],[99.9,25623],[99.9,25707],[99.9,25790],[99.9,25873],[99.9,25957],[99.9,26040],[99.9,26123],[99.9,26206],[99.9,26290],[99.9,26373],[99.9,26456],[99.9,26540],[99.9,26623],[99.9,26706],[99.9,26790],[99.9,26874],[99.9,26956],[99.9,27039],[99.9,27123],[99.9,27206],[99.9,27289],[99.9,27373],[99.9,27456],[99.9,27540],[99.9,27623],[99.9,27706],[99.9,27789],[99.9,27873],[99.9,27956],[99.9,28039],[99.9,28123],[99.9,28206],[99.9,28289],[99.9,28372],[99.9,28456],[99.9,28539],[99.9,28622],[99.9,28705],[99.9,28789],[99.9,28872],[99.9,28955],[99.9,29039],[99.9,29122],[99.9,29206],[99.9,29289],[99.9,29372],[99.9,29455],[99.9,29539],[99.9,29622],[99.9,29705]]",308.4969,325.6907,99.79166667,12.8867,"[{""rating"":93.125,""responseTime"":7.092999999999961},{""rating"":99.79166666666667,""responseTime"":12.886699999988082}]",space,16.6509,,325.6914,Definitely yes,100,325.7037,,,[],,0,0,0,0,1,audio/Narrative13Situation2.wav,audio/Narrative13Situation2.wav,audio/Narrative13Situation2.wav,audio/Narrative13Situation2.wav,2,2,2,2,,,,,,,,,,,,,,,,,,,,,,,,,,,,,,,,,,,,,,,
,,,,,559c3b0efdf99b32b6963e81,2025-07-07_22h01.19.151,group3.4_multiperson,2023.2.2,Win32,59.52380952,686c2ebf0248f13bef9af11f,686c7b8d2c46d9fc5383faba,,,,,,,,,,,,,,,,,,,,,,,,,,,,,325.7043,1,audio/Narrative8Situation1.wav,333.9371,space,333.9372,349.8654,"[[999,1],[999,83],[999,166],[999,249],[999,333],[999,416],[999,499],[999,582],[999,666],[999,749],[999,832],[999,916],[999,999],[999,1082],[999,1166],[999,1249],[999,1332],[999,1416],[999,1499],[999,1582],[999,1666],[999,1749],[999,1832],[999,1916],[999,1999],[999,2082],[999,2165],[999,2248],[999,2332],[999,2415],[999,2498],[999,2582],[999,2665],[999,2748],[999,2832],[999,2915],[999,2998],[999,3082],[999,3165],[999,3248],[999,3331],[999,3415],[999,3498],[999,3582],[999,3665],[999,3748],[999,3832],[999,3915],[999,3998],[999,4082],[999,4165],[999,4248],[999,4331],[999,4415],[999,4498],[999,4581],[999,4664],[999,4748],[999,4831],[999,4914],[999,4998],[999,5082],[999,5165],[999,5248],[999,5331],[999,5414],[999,5498],[999,5581],[999,5665],[999,5748],[999,5831],[999,5915],[999,5998],[49.3,6081],[49.6,6165],[50.2,6248],[50.5,6331],[50.5,6414],[50.5,6497],[50.5,6580],[50.4,6664],[50.3,6747],[50.3,6830],[50.3,6914],[50.3,6997],[50.3,7080],[50.3,7164],[50.3,7247],[50.3,7330],[50.3,7413],[50.3,7497],[50.3,7580],[50.3,7663],[50.3,7747],[50.3,7830],[50.3,7913],[50.3,7997],[50.3,8080],[50.3,8163],[50.3,8247],[50.3,8330],[50.3,8413],[50.3,8496],[50.3,8580],[50.3,8663],[50.3,8746],[50.3,8830],[50.3,8913],[50.3,8996],[50.3,9080],[50.3,9163],[50.3,9246],[51,9330],[52.7,9413],[54.2,9497],[54.3,9579],[54.3,9663],[55.6,9747],[57.8,9830],[58,9913],[58.6,9996],[62,10080],[66.8,10163],[70.2,10247],[73.3,10330],[76.9,10413],[81.4,10497],[86,10580],[91.4,10663],[95.8,10746],[98.8,10829],[100,10913],[100,10996],[100,11079],[100,11162],[100,11246],[100,11329],[100,11412],[100,11495],[100,11579],[100,11662],[100,11745],[100,11829],[100,11912],[100,11995],[100,12078],[100,12162],[100,12245],[100,12329],[100,12412],[100,12495],[100,12579],[100,12662],[100,12745],[100,12828],[100,12912],[100,12995],[100,13078],[100,13162],[100,13245],[100,13328],[100,13411],[100,13494],[100,13578],[100,13662],[100,13745],[100,13828],[100,13911],[100,13995],[100,14078],[100,14161],[100,14245],[100,14328],[100,14411],[100,14495],[100,14578],[100,14661],[100,14745],[100,14828],[100,14911],[100,14994],[100,15077],[100,15161],[100,15244],[100,15327],[100,15411],[100,15494],[100,15577],[100,15661],[100,15744],[100,15827],[100,15911]]",349.8658,373.3907,99.6875,21.5677,"[{""rating"":97.91666666666667,""responseTime"":4.1028999999761595},{""rating"":100,""responseTime"":8.307599999964225},{""rating"":95.83333333333333,""responseTime"":10.985000000000014},{""rating"":100,""responseTime"":11.555299999952297},{""rating"":95.20833333333334,""responseTime"":15.606399999976134},{""rating"":97.8125,""responseTime"":16.107399999976167},{""rating"":96.875,""responseTime"":16.619399999976167},{""rating"":99.6875,""responseTime"":21.567699999988065}]",space,22.981,0.0037,373.391,Not at all,0,373.4001,,,[],,0,1,1,1,1,audio/Narrative7Situation1.wav,audio/Narrative8Situation1.wav,audio/Narrative5Situation1.wav,audio/Narrative6Situation1.wav,2,5,5,2,8.2039,,,,,,,,,,,,,,,,,,,,,,,,,,,,,,,,,,,,,,
,,,,,559c3b0efdf99b32b6963e81,2025-07-07_22h01.19.151,group3.4_multiperson,2023.2.2,Win32,59.52380952,686c2ebf0248f13bef9af11f,686c7b8d2c46d9fc5383faba,,,,,,,,,,,,,,,,,,,,,,,,,,,,,373.4006,1,audio/Narrative8Situation2.wav,376.4061,,376.4062,386.5363,"[[100,2582],[49.7,3415],[49.5,3498],[50.2,3582],[50.5,3665],[50.4,3749],[50.2,3832],[50.2,3915],[50.2,3998],[50.2,4081],[50.2,4165],[50.2,4248],[50.3,4331],[50.3,4415],[50.3,4498],[50.3,4581],[50.3,4664],[50.3,4748],[50.3,4831],[50.3,4914],[50.3,4998],[50.3,5081],[50.3,5164],[50.3,5248],[50.3,5331],[50.3,5414],[50.3,5497],[50.3,5581],[50.3,5664],[50.3,5747],[50.3,5831],[50.3,5914],[50.3,5997],[50.3,6080],[50.3,6164],[50.3,6247],[50.3,6331],[50.3,6414],[50.3,6497],[50.3,6581],[50.3,6664],[50.3,6747],[50.3,6830],[50.3,6914],[50.3,6997],[50.3,7080],[50.3,7163],[50.3,7247],[50.3,7330],[50.3,7414],[50.3,7497],[50.3,7580],[50.3,7663],[49.2,7747],[41.1,7831],[28.5,7914],[23.4,7997],[14,8081],[8.9,8164],[7.1,8247],[5.5,8330],[3.9,8414],[2.7,8497],[2.4,8580],[2.3,8663],[2.3,8746],[2.3,8830],[2.3,8913],[2.3,8996],[2.3,9080],[2.3,9163],[2.3,9246],[2.3,9329],[2.3,9413],[2.3,9497],[2.3,9579],[2.3,9663],[2.3,9746],[2.3,9829],[2.3,9913],[2.3,9996],[2.3,10079]]",386.5365,395.4165,17.1875,5.57,"[{""rating"":17.1875,""responseTime"":5.569999999999993}]",space,8.3312,,395.4166,Partially,50,395.423,,,[],,0,2,2,2,1,audio/Narrative7Situation2.wav,audio/Narrative8Situation2.wav,audio/Narrative5Situation2.wav,audio/Narrative6Situation2.wav,3,3,3,3,,,,,,,,,,,,,,,,,,,,,,,,,,,,,,,,,,,,,,,
,,,,,559c3b0efdf99b32b6963e81,2025-07-07_22h01.19.151,group3.4_multiperson,2023.2.2,Win32,59.52380952,686c2ebf0248f13bef9af11f,686c7b8d2c46d9fc5383faba,,,,,,,,,,,,,,,,,,,,,,,,,,,,,395.4235,1,audio/Narrative8Situation3.wav,399.4318,,399.4319,421.8244,"[[999,1],[999,82],[999,166],[999,249],[999,332],[999,416],[999,499],[999,582],[999,666],[999,749],[999,832],[999,916],[999,999],[999,1082],[999,1165],[999,1249],[999,1332],[999,1415],[999,1499],[999,1582],[999,1665],[999,1749],[999,1832],[999,1915],[999,1999],[999,2082],[999,2165],[999,2248],[999,2332],[999,2415],[999,2498],[999,2582],[999,2665],[999,2748],[999,2832],[999,2915],[999,2998],[999,3082],[999,3165],[999,3248],[999,3332],[999,3415],[999,3498],[999,3581],[999,3665],[999,3748],[999,3831],[999,3915],[999,3998],[999,4081],[999,4165],[999,4248],[999,4331],[999,4414],[999,4498],[999,4582],[999,4665],[999,4748],[999,4831],[999,4914],[999,4998],[999,5082],[999,5165],[51.9,5248],[51.9,5331],[51.4,5415],[50.7,5498],[50.3,5581],[50.1,5664],[50.1,5747],[50.1,5831],[50.1,5914],[50.3,5998],[50.5,6080],[50.5,6164],[50.5,6247],[50.5,6330],[50.5,6414],[50.5,6497],[50.9,6580],[50.9,6664],[50.9,6747],[50.9,6830],[50.9,6914],[50.9,6997],[50.9,7080],[50.9,7163],[50.9,7247],[50.9,7330],[50.9,7413],[50.9,7497],[50.9,7580],[50.9,7663],[50.9,7747],[50.9,7830],[51.3,7914],[51.3,7997],[51.4,8080],[53.6,8164],[59.6,8247],[62.1,8331],[62.9,8413],[62.9,8496],[62.9,8580],[62.9,8663],[62.9,8746],[62.9,8829],[64.4,8913],[65.4,8996],[66.7,9079],[68.4,9163],[69.7,9246],[71.9,9330],[72,9413],[72.8,9496],[75.1,9580],[76.3,9663],[77.3,9746],[78.6,9830],[79.9,9913],[81.4,9996],[83,10080],[83.4,10162],[83.8,10246],[84.8,10330],[86,10413],[86.9,10496],[87.9,10579],[88.5,10663],[88.9,10746],[89.1,10829],[89.4,10913],[89.8,10996],[90.3,11079],[90.7,11162],[90.7,11245],[91,11329],[91.3,11412],[91.6,11495],[91.8,11579],[91.9,11662],[91.9,11745],[91.9,11829],[91.9,11912],[91.9,11995],[91.9,12078],[90.9,12162],[90.7,12245],[90.7,12328],[90.7,12412],[91.7,12496],[92.4,12579],[92.9,12662],[94.6,12745],[98.1,12829],[100,12912],[100,12996],[100,13078],[100,13161],[100,13245],[100,13328],[100,13411],[100,13495],[100,13578],[100,13661],[100,13745],[100,13828],[100,13912],[98.6,13995],[97.8,14078],[97.8,14161],[98.3,14245],[100,14328],[100,14411],[100,14494],[100,14577],[100,14661],[100,14744],[100,14828],[100,14912],[100,14994],[100,15077],[100,15161],[100,15244],[100,15327],[100,15411],[100,15494],[100,15577],[100,15661],[100,15744],[100,15827],[100,15911],[100,15994],[100,16077],[100,16161],[100,16244],[100,16327],[100,16410],[100,16494],[100,16577],[100,16660],[100,16743],[100,16827],[100,16910],[100,16994],[100,17077],[100,17160],[100,17243],[100,17327],[100,17410],[100,17493],[100,17577],[100,17660],[100,17743],[100,17827],[100,17910],[100,17993],[100,18077],[100,18160],[100,18243],[100,18326],[100,18410],[100,18493],[100,18576],[100,18660],[100,18743],[100,18826],[100,18910],[100,18993],[100,19076],[100,19159],[100,19243],[100,19326],[100,19409],[100,19493],[100,19576],[100,19659],[100,19743],[100,19826],[100,19909],[100,19992],[100,20076],[100,20159],[100,20242],[100,20326],[100,20409],[100,20492],[100,20576],[100,20659],[100,20742],[100,20826],[100,20909],[100,20992],[100,21076],[100,21159],[100,21242],[100,21325],[100,21409],[100,21492],[100,21575],[100,21659],[100,21742],[100,21825],[100,21908],[100,21992],[100,22075],[100,22158],[100,22242],[100,22325]]",421.8247,428.522,97.1875,4.0539,"[{""rating"":97.1875,""responseTime"":4.053899999976181}]",space,6.1495,,428.5222,Definitely yes,100,428.529,,,[],,0,3,3,3,1,audio/Narrative7Situation3.wav,audio/Narrative8Situation3.wav,audio/Narrative5Situation3.wav,audio/Narrative6Situation3.wav,8,4,3,5,,,,,,,,,,,,,,,,,,,,,,,,,,,,,,,,,,,,,,,
,,,,,559c3b0efdf99b32b6963e81,2025-07-07_22h01.19.151,group3.4_multiperson,2023.2.2,Win32,59.52380952,686c2ebf0248f13bef9af11f,686c7b8d2c46d9fc5383faba,,,,,,,,,,,,,,,,,,,,,,,,,,,,,428.5295,1,audio/Narrative8Situation4.wav,431.5376,,431.5377,445.7162,"[[999,0],[999,83],[999,166],[999,249],[999,333],[999,416],[999,499],[999,582],[999,665],[999,749],[999,832],[999,915],[999,999],[999,1082],[999,1165],[999,1249],[999,1332],[999,1415],[999,1499],[999,1582],[999,1665],[999,1749],[999,1832],[999,1915],[999,1999],[999,2082],[999,2165],[999,2248],[999,2332],[999,2415],[999,2498],[999,2582],[999,2665],[999,2748],[999,2832],[999,2915],[999,2998],[999,3081],[999,3165],[999,3248],[999,3332],[90.7,3415],[99.5,3498],[99.1,3582],[98.5,3665],[98.9,3748],[99.9,3832],[100,3915],[100,3998],[100,4081],[100,4165],[100,4248],[100,4331],[100,4414],[100,4498],[100,4581],[100,4664],[100,4748],[100,4831],[100,4914],[100,4998],[100,5081],[100,5164],[100,5248],[100,5331],[100,5414],[100,5497],[100,5581],[100,5664],[100,5747],[100,5831],[100,5914],[100,5997],[100,6081],[100,6164],[100,6247],[100,6330],[100,6414],[100,6497],[100,6580],[100,6664],[100,6747],[100,6830],[100,6914],[100,6997],[100,7080],[100,7163],[100,7247],[100,7330],[100,7413],[100,7497],[100,7580],[100,7663],[100,7747],[100,7830],[100,7913],[100,7996],[100,8080],[100,8163],[100,8246],[100,8330],[100,8413],[100,8496],[100,8580],[100,8663],[100,8746],[100,8829],[100,8913],[100,8996],[100,9080],[100,9163],[100,9246],[100,9329],[100,9413],[100,9496],[100,9579],[100,9663],[100,9746],[100,9829],[100,9913],[100,9996],[100,10079],[100,10162],[100,10246],[100,10329],[100,10412],[100,10496],[100,10579],[100,10662],[100,10746],[100,10829],[100,10912],[100,10995],[100,11079],[100,11162],[100,11245],[100,11329],[100,11412],[100,11495],[100,11578],[100,11662],[100,11745],[100,11828],[100,11912],[100,11995],[100,12078],[100,12162],[100,12245],[100,12328],[100,12412],[100,12495],[100,12578],[100,12662],[100,12745],[100,12828],[100,12911],[100,12995],[100,13078],[100,13161],[100,13245],[100,13328],[100,13411],[100,13495],[100,13578],[100,13661],[100,13745],[100,13828],[100,13911],[100,13995],[100,14078],[100,14161]]",445.7165,451.3974,99.79166667,4.8375,"[{""rating"":99.79166666666667,""responseTime"":4.837499999999977}]",space,5.1326,,451.3976,Definitely yes,100,451.4017,,,[],,0,4,4,4,1,audio/Narrative7Situation4.wav,audio/Narrative8Situation4.wav,audio/Narrative5Situation4.wav,audio/Narrative6Situation4.wav,3,3,1,2,,,,,,,,,,,,,,,,,,,,,,,,,,,,,,,,,,,,,,,
,,,,,559c3b0efdf99b32b6963e81,2025-07-07_22h01.19.151,group3.4_multiperson,2023.2.2,Win32,59.52380952,686c2ebf0248f13bef9af11f,686c7b8d2c46d9fc5383faba,,,,,,,,,,,,,,,,,,,,,,,,,,,,,451.4023,1,audio/Narrative8Situation5.wav,453.4135,,453.4136,461.6608,"[[999,0],[999,82],[999,166],[999,249],[999,332],[999,416],[999,499],[999,582],[999,666],[999,749],[999,832],[999,915],[999,999],[999,1082],[999,1166],[999,1249],[999,1332],[999,1415],[999,1499],[999,1582],[999,1665],[999,1748],[999,1832],[999,1915],[999,1998],[999,2082],[999,2165],[999,2249],[999,2332],[999,2415],[999,2499],[86.8,2582],[90.4,2666],[94.6,2749],[97,2832],[99.1,2916],[100,2999],[100,3081],[100,3165],[100,3248],[100,3331],[100,3415],[100,3498],[100,3581],[100,3665],[100,3748],[100,3831],[100,3915],[100,3998],[100,4081],[100,4164],[100,4248],[100,4331],[100,4415],[100,4498],[100,4581],[100,4664],[100,4748],[100,4831],[100,4914],[100,4998],[100,5081],[100,5164],[100,5247],[100,5331],[100,5414],[100,5497],[100,5581],[100,5664],[100,5747],[100,5831],[100,5914],[100,5997],[100,6080],[100,6164],[100,6247],[100,6330],[100,6414],[100,6497],[100,6580],[100,6664],[100,6747],[100,6830],[100,6913],[100,6997],[100,7080],[100,7163],[100,7247],[100,7330],[100,7413],[100,7497],[100,7580],[100,7663],[100,7747],[100,7830],[100,7913],[100,7996],[100,8080],[100,8163],[100,8247]]",461.661,468.8081,100,4.4211,"[{""rating"":99.16666666666667,""responseTime"":3.6791000000238228},{""rating"":100,""responseTime"":4.421100000023841}]",space,6.5986,,468.8084,Partially,50,468.817,,,[],,0,5,5,5,1,audio/Narrative7Situation5.wav,audio/Narrative8Situation5.wav,audio/Narrative5Situation5.wav,audio/Narrative6Situation5.wav,5,2,5,2,,,,,,,,,,,,,,,,,,,,,,,,,,,,,,,,,,,,,,,
,,,,,559c3b0efdf99b32b6963e81,2025-07-07_22h01.19.151,group3.4_multiperson,2023.2.2,Win32,59.52380952,686c2ebf0248f13bef9af11f,686c7b8d2c46d9fc5383faba,,,,,,,,,,,,,,,,,,,,,,,,,,,,,468.8178,1,audio/Narrative8Situation6.wav,470.8242,,470.8242,477.3056,"[[999,0],[999,83],[999,166],[999,249],[999,333],[999,416],[999,499],[999,582],[999,666],[999,749],[999,832],[999,916],[999,999],[999,1082],[999,1165],[999,1249],[999,1332],[999,1416],[999,1499],[999,1582],[999,1665],[999,1749],[999,1832],[999,1915],[999,1999],[999,2082],[999,2165],[999,2248],[999,2332],[999,2415],[999,2498],[999,2582],[999,2665],[999,2749],[999,2832],[999,2915],[999,2998],[999,3082],[999,3166],[999,3249],[999,3332],[999,3416],[999,3498],[999,3582],[78.1,3665],[79.7,3749],[80.1,3832],[80.2,3915],[81,3999],[84.4,4082],[86.3,4164],[87.1,4248],[89.8,4332],[91,4415],[92.2,4498],[92.2,4581],[92.2,4664],[92.2,4748],[92.2,4831],[92.2,4914],[92.2,4998],[92.2,5081],[92.2,5164],[92.2,5248],[92.2,5331],[92.2,5414],[92.2,5497],[92.3,5581],[92.5,5664],[92.8,5748],[93.3,5831],[93.6,5914],[93.6,5997],[94.8,6082],[98.9,6165],[100,6248],[100,6330],[100,6414]]",477.3058,482.0704,99.89583333,2.8039,"[{""rating"":99.89583333333334,""responseTime"":2.8039000000357532}]",space,4.2206,,482.0705,Definitely yes,100,482.0773,,,[],,0,6,6,6,1,audio/Narrative7Situation6.wav,audio/Narrative8Situation6.wav,audio/Narrative5Situation6.wav,audio/Narrative6Situation6.wav,3,2,3,2,,,,,,,,,,,,,,,,,,,,,,,,,,,,,,,,,,,,,,,
,,,,,559c3b0efdf99b32b6963e81,2025-07-07_22h01.19.151,group3.4_multiperson,2023.2.2,Win32,59.52380952,686c2ebf0248f13bef9af11f,686c7b8d2c46d9fc5383faba,,,,,,,,,,,,,,,,,,,,,,,,,,,,,482.0778,1,audio/Narrative8Situation7.wav,485.086,,485.0861,497.182,"[[99.1,2582],[99.1,2666],[99.1,2748],[99.1,2832],[99.1,2915],[99.1,2998],[99.1,3082],[99.1,3165],[99.8,3249],[100,3332],[99.9,3415],[93.9,3499],[93.8,3581],[96,3666],[98.8,3748],[99.7,3832],[100,3915],[100,3998],[100,4081],[100,4164],[100,4248],[100,4331],[100,4414],[100,4498],[100,4581],[100,4664],[100,4748],[100,4831],[100,4914],[100,4997],[100,5081],[100,5164],[100,5247],[100,5331],[100,5414],[100,5497],[100,5581],[100,5664],[100,5747],[100,5831],[100,5914],[100,5997],[100,6081],[100,6164],[100,6247],[100,6330],[100,6414],[100,6497],[100,6580],[100,6663],[100,6747],[100,6830],[100,6914],[100,6997],[100,7080],[100,7164],[100,7247],[100,7330],[100,7413],[100,7497],[100,7580],[100,7663],[100,7747],[100,7830],[100,7913],[100,7997],[100,8080],[100,8163],[100,8246],[100,8330],[100,8413],[100,8496],[100,8580],[100,8663],[100,8746],[100,8830],[100,8913],[100,8996],[100,9079],[100,9163],[100,9246],[100,9329],[100,9413],[100,9496],[100,9579],[100,9663],[100,9746],[100,9829],[100,9913],[100,9996],[100,10079],[100,10163],[100,10246],[100,10329],[100,10413],[100,10496],[100,10579],[100,10663],[100,10746],[100,10829],[100,10912],[100,10995],[100,11079],[100,11162],[100,11245],[100,11329],[100,11412],[100,11495],[100,11579],[100,11662],[100,11745],[100,11829],[100,11912],[100,11995],[100,12079]]",497.1822,502.5969,99.27083333,2.5693,"[{""rating"":99.27083333333333,""responseTime"":2.5693000000118786}]",space,4.872,,502.5969,Not at all,0,502.6038,,,[],,0,7,7,7,1,audio/Narrative7Situation7.wav,audio/Narrative8Situation7.wav,audio/Narrative5Situation7.wav,audio/Narrative6Situation7.wav,5,3,4,5,,,,,,,,,,,,,,,,,,,,,,,,,,,,,,,,,,,,,,,
,,,,,559c3b0efdf99b32b6963e81,2025-07-07_22h01.19.151,group3.4_multiperson,2023.2.2,Win32,59.52380952,686c2ebf0248f13bef9af11f,686c7b8d2c46d9fc5383faba,,,,,,,,,,,,,,,,,,,,,,,,,,,,,502.6044,1,audio/Narrative8Situation8.wav,505.6124,,505.6124,518.4748,"[[99.9,6415],[100,6498],[100,6581],[100,6664],[100,6747],[100,6830],[100,6914],[100,6997],[100,7080],[100,7164],[100,7247],[100,7330],[100,7413],[100,7497],[100,7580],[100,7663],[100,7747],[100,7830],[100,7913],[100,7997],[100,8080],[100,8163],[100,8247],[100,8330],[100,8413],[100,8496],[100,8580],[100,8663],[100,8747],[100,8830],[100,8913],[100,8996],[100,9080],[100,9163],[100,9246],[100,9330],[100,9413],[100,9496],[100,9580],[100,9663],[100,9746],[100,9829],[100,9913],[100,9996],[100,10079],[100,10163],[100,10246],[100,10329],[100,10412],[100,10496],[100,10579],[100,10662],[100,10746],[100,10829],[100,10912],[100,10996],[100,11079],[100,11162],[100,11246],[100,11329],[100,11412],[100,11495],[100,11579],[100,11662],[100,11745],[100,11829],[100,11912],[100,11995],[100,12079],[100,12162],[100,12245],[100,12329],[100,12412],[100,12495],[100,12579],[100,12662],[100,12745],[100,12829]]",518.475,524.5393,100,5.1874,"[{""rating"":98.85416666666667,""responseTime"":4.324600000023793},{""rating"":100,""responseTime"":5.187400000035723}]",space,5.5157,,524.5395,Definitely yes,100,524.5455,,,[],,0,8,8,8,1,audio/Narrative7Situation8.wav,audio/Narrative8Situation8.wav,audio/Narrative5Situation8.wav,audio/Narrative6Situation8.wav,2,3,3,5,,,,,,,,,,,,,,,,,,,,,,,,,,,,,,,,,,,,,,,
,,,,,559c3b0efdf99b32b6963e81,2025-07-07_22h01.19.151,group3.4_multiperson,2023.2.2,Win32,59.52380952,686c2ebf0248f13bef9af11f,686c7b8d2c46d9fc5383faba,,,,,,,,,,,,,,,,,,,,,,,,,,,,,524.546,1,audio/Narrative8Situation9.wav,527.555,,527.5551,538.8845,"[[99.8,5581],[99,5664],[99,5747],[99.1,5831],[99.1,5914],[99.1,5997],[99.1,6081],[99.5,6164],[99.6,6247],[99.6,6330],[100,6415],[100,6497],[100,6580],[100,6664],[100,6747],[100,6830],[100,6914],[100,6997],[100,7080],[100,7163],[100,7247],[100,7330],[100,7413],[100,7497],[100,7580],[100,7663],[100,7747],[100,7830],[100,7913],[100,7997],[100,8080],[100,8163],[100,8246],[100,8330],[100,8413],[100,8496],[100,8580],[100,8663],[100,8746],[100,8830],[100,8913],[100,8996],[100,9080],[100,9163],[100,9246],[100,9329],[100,9413],[100,9496],[100,9579],[100,9663],[100,9746],[100,9829],[100,9913],[100,9996],[100,10079],[100,10163],[100,10246],[100,10329],[100,10413],[100,10496],[100,10579],[100,10662],[100,10746],[100,10829],[100,10912],[100,10995],[100,11079],[100,11162],[100,11246],[100,11329]]",538.8847,547.4151,100,7.5085,"[{""rating"":99.6875,""responseTime"":5.954699999988065},{""rating"":100,""responseTime"":6.739800000011883},{""rating"":100,""responseTime"":7.508500000000026}]",space,7.9898,,547.4151,Not at all,0,547.421,,,[],,0,9,9,9,1,audio/Narrative7Situation9.wav,audio/Narrative8Situation9.wav,audio/Narrative5Situation9.wav,audio/Narrative6Situation9.wav,2,3,3,4,,,,,,,,,,,,,,,,,,,,,,,,,,,,,,,,,,,,,,,
,,,,,559c3b0efdf99b32b6963e81,2025-07-07_22h01.19.151,group3.4_multiperson,2023.2.2,Win32,59.52380952,686c2ebf0248f13bef9af11f,686c7b8d2c46d9fc5383faba,,,,,,,,,,,,,,,,,,,,,,,,,,,,,547.4215,1,audio/Narrative7Situation1.wav,549.4309,,549.431,605.3288,"[[100,4998],[100,5082],[93.6,5165],[80.4,5247],[80.2,5331],[79.8,5414],[74.4,5498],[74.3,5581],[74.7,5664],[74.7,5747],[74.7,5831],[74.7,5914],[74.7,5997],[74.7,6081],[74.7,6164],[74.7,6247],[74.7,6330],[73.9,6415],[73.9,6497],[73.9,6580],[73.9,6664],[73.9,6747],[73.9,6830],[73.9,6914],[73.9,6997],[73.9,7080],[74,7164],[74,7247],[74,7330],[74,7413],[74,7497],[74,7580],[74,7664],[74,7747],[74,7830],[74,7913],[74,7997],[74,8080],[74,8163],[77.2,8248],[91.7,8330],[92.8,8413],[92.8,8496],[92.8,8580],[92.9,8663],[92.9,8746],[94.8,8831],[96.8,8913],[97,8996],[97,9080],[97,9163],[98.1,9247],[99.6,9330],[99.8,9413],[99.8,9496],[99.8,9579],[99.8,9662],[99.8,9746],[99.8,9829],[99.8,9913],[99.8,9996],[99.8,10079],[99.8,10162],[99.8,10246],[99.8,10329],[99.8,10412],[99.8,10496],[99.8,10579],[99.8,10662],[99.8,10746],[99.8,10829],[99.8,10912],[99.8,10995],[99.8,11079],[99.8,11162],[99.8,11245],[99.8,11329],[99.8,11412],[99.8,11495],[99.8,11579],[99.8,11662],[99.8,11745],[99.8,11829],[99.8,11912],[99.8,11995],[99.8,12079],[99.8,12162],[99.8,12245],[99.8,12328],[99.8,12412],[99.8,12495],[99.8,12578],[99.8,12662],[99.8,12745],[99.8,12828],[99.8,12912],[99.8,12995],[99.8,13078],[99.8,13162],[99.8,13245],[99.8,13328],[99.8,13411],[99.8,13495],[99.8,13578],[99.8,13661],[99.8,13745],[99.8,13828],[99.8,13911],[99.8,13995],[99.8,14078],[99.8,14161],[99.8,14245],[99.8,14328],[99.8,14411],[99.8,14494],[99.8,14578],[99.8,14661],[99.8,14744],[99.8,14828],[99.8,14911],[99.8,14994],[99.8,15078],[99.8,15161],[99.8,15244],[99.8,15327],[99.8,15411],[99.8,15494],[99.8,15577],[99.8,15661],[99.8,15744],[99.8,15827],[99.8,15911],[99.8,15994],[99.8,16077],[99.8,16160],[99.8,16244],[99.8,16327],[99.8,16410],[99.8,16494],[99.8,16577],[99.8,16660],[99.8,16744],[99.8,16827],[99.8,16910],[99.8,16994],[99.8,17077],[99.8,17160],[99.8,17243],[99.8,17327],[99.8,17410],[99.8,17493],[99.8,17577],[99.8,17660],[99.8,17743],[99.8,17827],[99.8,17910],[99.8,17993],[99.8,18077],[99.8,18160],[99.8,18243],[99.8,18326],[99.8,18410],[99.8,18493],[99.8,18576],[99.8,18660],[99.8,18743],[99.8,18826],[99.8,18910],[99.8,18993],[99.8,19076],[99.8,19160],[99.8,19243],[99.8,19326],[99.8,19409],[99.8,19493],[99.8,19576],[99.8,19659],[99.8,19743],[99.8,19826],[99.8,19909],[99.8,19992],[99.8,20076],[99.8,20159],[99.8,20242],[99.8,20326],[99.8,20409],[99.8,20492],[99.8,20575],[99.8,20659],[99.8,20742],[99.8,20826],[99.8,20909],[99.8,20992],[99.8,21076],[99.8,21159],[99.8,21242],[99.8,21325],[99.8,21408],[99.8,21492],[99.8,21575],[99.8,21658],[99.8,21742],[99.8,21825],[99.8,21908],[99.8,21991],[99.8,22075],[99.8,22158],[99.8,22242],[99.8,22325],[99.8,22408],[99.8,22492],[99.8,22575],[99.8,22658],[99.8,22742],[99.8,22825],[99.8,22908],[99.8,22992],[99.8,23075],[99.8,23158],[99.8,23241],[99.8,23325],[99.8,23408],[99.8,23491],[99.8,23575],[99.8,23658],[99.8,23741],[99.8,23825],[99.8,23908],[99.8,23991],[99.8,24075],[99.8,24158],[99.8,24241],[99.8,24324],[99.8,24408],[99.8,24491],[99.8,24574],[99.8,24658],[99.8,24741],[99.8,24824],[99.8,24908],[99.8,24991],[99.8,25074],[99.8,25157],[99.8,25241],[99.8,25324],[99.8,25407],[99.8,25491],[99.8,25574],[99.8,25657],[99.8,25741],[99.8,25824],[99.8,25907],[99.8,25991],[99.8,26074],[99.8,26157],[99.8,26240],[99.8,26324],[99.8,26407],[99.8,26490],[99.8,26574],[99.8,26657],[99.8,26740],[99.8,26824],[99.8,26907],[99.8,26990],[99.8,27073],[99.8,27157],[99.8,27240],[99.8,27323],[99.8,27407],[99.8,27490],[99.8,27573],[99.8,27657],[99.8,27740],[99.8,27823],[99.8,27907],[99.8,27990],[99.8,28073],[99.8,28156],[99.8,28240],[99.8,28323],[99.8,28406],[99.8,28490],[99.8,28573],[99.8,28656],[100,28740],[100,28823],[100,28907],[100,28990],[100,29073],[100,29156],[100,29239],[100,29323],[100,29406],[100,29490],[100,29572],[100,29656],[100,29739],[100,29822],[100,29906],[100,29989],[100,30072],[100,30156],[100,30239],[100,30322],[100,30406],[100,30489],[100,30572],[100,30655],[100,30739],[100,30822],[100,30905],[100,30989],[100,31072],[100,31155],[100,31239],[100,31322],[100,31405],[100,31489],[100,31572],[100,31655],[100,31739],[100,31822],[100,31905],[100,31988],[100,32072],[100,32155],[100,32238],[100,32322],[100,32405],[100,32488],[100,32572],[100,32655],[100,32738],[100,32821],[100,32905],[100,32988],[100,33071],[100,33155],[100,33238],[100,33321],[100,33405],[100,33488],[100,33571],[100,33655],[100,33738],[100,33821],[100,33904],[100,33988],[100,34071],[100,34154],[100,34238],[100,34321],[100,34404],[100,34488],[100,34571],[100,34654],[100,34737],[100,34821],[100,34904],[100,34988],[100,35071],[100,35154],[100,35238],[100,35321],[100,35404],[100,35487],[100,35570],[100,35654],[100,35737],[100,35820],[100,35904],[100,35987],[100,36070],[100,36154],[100,36237],[100,36320],[100,36404],[100,36487],[100,36570],[100,36654],[100,36737],[100,36820],[100,36904],[100,36987],[100,37070],[100,37153],[100,37237],[100,37320],[100,37403],[100,37486],[100,37570],[100,37653],[100,37736],[100,37820],[100,37903],[100,37986],[100,38070],[100,38153],[100,38236],[100,38320],[100,38403],[100,38486],[100,38569],[100,38653],[100,38736],[100,38820],[100,38903],[100,38986],[100,39069],[100,39153],[100,39236],[100,39319],[100,39403],[100,39486],[100,39569],[100,39652],[100,39736],[100,39819],[100,39902],[100,39986],[100,40069],[100,40152],[100,40236],[100,40319],[100,40402],[100,40485],[100,40569],[100,40652],[100,40735],[100,40819],[100,40902],[100,40985],[100,41069],[100,41152],[100,41235],[100,41318],[100,41402],[100,41485],[100,41569],[100,41652],[100,41735],[100,41818],[100,41902],[100,41985],[100,42068],[100,42151],[100,42235],[100,42318],[100,42401],[100,42485],[100,42568],[100,42652],[100,42735],[100,42818],[100,42901],[100,42985],[100,43068],[100,43151],[100,43235],[100,43318],[100,43401],[100,43485],[100,43568],[100,43651],[100,43735],[100,43818],[100,43901],[100,43984],[100,44068],[100,44151],[100,44234],[100,44318],[100,44401],[100,44484],[100,44568],[100,44651],[100,44734],[100,44817],[100,44901],[100,44984],[100,45067],[100,45151],[100,45234],[100,45317],[100,45401],[100,45484],[100,45567],[100,45651],[100,45734],[100,45817],[100,45900],[100,45984],[100,46067],[100,46150],[100,46234],[100,46317],[100,46401],[100,46484],[100,46567],[100,46650],[100,46733],[100,46817],[100,46900],[100,46983],[100,47067],[100,47150],[100,47233],[100,47317],[100,47400],[100,47483],[100,47567],[100,47650],[100,47733],[100,47816],[100,47900],[100,47983],[100,48066],[100,48150],[100,48233],[100,48316],[100,48400],[100,48483],[100,48566],[100,48650],[100,48733],[100,48816],[100,48899],[100,48983],[100,49066],[100,49149],[100,49233],[100,49316],[100,49399],[100,49482],[100,49566],[100,49649],[100,49732],[100,49816],[100,49899],[100,49982],[100,50066],[100,50149],[100,50232],[100,50316],[100,50399],[100,50482],[100,50565],[100,50649],[100,50732],[100,50815],[100,50899],[100,50982],[100,51065],[100,51149],[100,51232],[100,51315],[100,51399],[100,51482],[100,51565],[100,51648],[100,51732],[100,51815],[100,51898],[100,51982],[100,52065],[100,52148],[100,52232],[100,52315],[100,52398],[100,52482],[100,52565],[100,52648],[100,52731],[100,52815],[100,52898],[100,52981],[100,53065],[100,53148],[100,53231],[100,53315],[100,53398],[100,53481],[100,53565],[100,53648],[100,53731],[100,53814],[100,53898],[100,53981],[100,54064],[100,54148],[100,54231],[100,54314],[100,54398],[100,54481],[100,54564],[100,54647],[100,54731],[100,54814],[100,54897],[100,54981],[100,55064],[100,55147],[100,55231],[100,55314],[100,55397],[100,55480],[100,55564],[100,55647],[100,55731],[100,55814],[100,55897]]",605.3292,609.6271,99.6875,2.545,"[{""rating"":99.6875,""responseTime"":2.544999999999959}]",space,3.7533,,609.6271,Definitely yes,100,609.634,,,[],,0,10,10,10,1,audio/Narrative8Situation1.wav,audio/Narrative7Situation1.wav,audio/Narrative6Situation1.wav,audio/Narrative5Situation1.wav,5,2,2,5,,,,,,,,,,,,,,,,,,,,,,,,,,,,,,,,,,,,,,,
,,,,,559c3b0efdf99b32b6963e81,2025-07-07_22h01.19.151,group3.4_multiperson,2023.2.2,Win32,59.52380952,686c2ebf0248f13bef9af11f,686c7b8d2c46d9fc5383faba,,,,,,,,,,,,,,,,,,,,,,,,,,,,,609.6346,1,audio/Narrative7Situation2.wav,612.6428,,612.6428,620.1238,"[[999,0],[999,83],[999,166],[999,249],[999,332],[999,416],[999,499],[999,582],[999,666],[999,749],[999,833],[999,916],[999,999],[999,1082],[999,1166],[999,1249],[999,1332],[999,1416],[999,1499],[999,1582],[999,1666],[999,1749],[999,1832],[999,1916],[999,1999],[999,2082],[999,2165],[999,2249],[999,2332],[999,2415],[999,2499],[999,2582],[999,2665],[999,2749],[999,2832],[999,2915],[999,2998],[999,3082],[999,3166],[100,3249],[100,3331],[100,3415],[100,3498],[100,3581],[100,3665],[100,3748],[100,3831],[100,3915],[100,3998],[100,4081],[100,4165],[100,4248],[100,4331],[100,4414],[100,4498],[100,4581],[100,4664],[100,4748],[100,4831],[100,4914],[100,4998],[100,5081],[100,5164],[100,5248],[100,5331],[100,5414],[100,5497],[100,5581],[100,5664],[100,5747],[100,5831],[100,5914],[100,5997],[100,6081],[100,6164],[100,6247],[100,6330],[100,6414],[100,6497],[100,6580],[100,6664],[100,6747],[100,6830],[100,6913],[100,6997],[100,7080],[100,7164],[100,7247],[100,7330],[100,7413]]",620.124,625.2717,100,3.0874,"[{""rating"":99.89583333333334,""responseTime"":1.5391999999881136},{""rating"":100,""responseTime"":3.087399999976128}]",space,4.5995,,625.2718,Partially,50,625.2788,,,[],,0,11,11,11,1,audio/Narrative8Situation2.wav,audio/Narrative7Situation2.wav,audio/Narrative6Situation2.wav,audio/Narrative5Situation2.wav,3,3,3,3,,,,,,,,,,,,,,,,,,,,,,,,,,,,,,,,,,,,,,,
,,,,,559c3b0efdf99b32b6963e81,2025-07-07_22h01.19.151,group3.4_multiperson,2023.2.2,Win32,59.52380952,686c2ebf0248f13bef9af11f,686c7b8d2c46d9fc5383faba,,,,,,,,,,,,,,,,,,,,,,,,,,,,,625.2794,1,audio/Narrative7Situation3.wav,633.2858,,633.2859,642.5495,"[[999,0],[999,83],[999,166],[999,249],[999,333],[999,416],[999,499],[999,583],[999,666],[999,749],[999,832],[999,916],[999,999],[999,1082],[999,1166],[999,1249],[999,1332],[999,1416],[999,1499],[999,1582],[999,1665],[999,1749],[999,1832],[999,1915],[999,1999],[999,2082],[999,2165],[999,2249],[999,2332],[999,2415],[999,2498],[999,2582],[999,2665],[999,2748],[999,2832],[999,2915],[999,2999],[999,3082],[999,3165],[999,3248],[999,3331],[999,3415],[999,3498],[999,3581],[999,3665],[999,3748],[999,3831],[999,3914],[999,3998],[75.7,4082],[78.4,4165],[79,4249],[79,4331],[79,4415],[79.6,4498],[80.7,4581],[82.4,4665],[85.4,4748],[89.9,4831],[91.3,4914],[91.3,4998],[91.4,5081],[91.6,5164],[91.9,5248],[92.2,5331],[92.3,5414],[92.3,5497],[92.3,5581],[92.3,5664],[92.3,5747],[92.3,5831],[92.3,5914],[92.3,5997],[92.3,6081],[92.5,6164],[93.2,6248],[93.3,6330],[93.3,6414],[93.3,6497],[93.3,6580],[93.3,6664],[93.3,6747],[93.3,6830],[93.3,6914],[93.3,6997],[93.3,7080],[93.3,7163],[93.3,7247],[93.3,7330],[93.3,7413],[93.3,7497],[93.3,7580],[93.3,7663],[93.3,7747],[93.3,7830],[93.3,7913],[93.3,7996],[94.9,8080],[98.2,8164],[100,8247],[100,8330],[100,8413],[100,8496],[100,8580],[100,8663],[100,8746],[99.9,8830],[99.9,8913],[99.9,8996],[99.9,9080],[99.9,9163],[99.9,9246]]",642.5497,645.9648,96.5625,1.1583,"[{""rating"":96.5625,""responseTime"":1.1582999999523054}]",space,2.8701,,645.965,Partially,50,645.9678,,,[],,0,12,12,12,1,audio/Narrative8Situation3.wav,audio/Narrative7Situation3.wav,audio/Narrative6Situation3.wav,audio/Narrative5Situation3.wav,4,8,5,3,,,,,,,,,,,,,,,,,,,,,,,,,,,,,,,,,,,,,,,
,,,,,559c3b0efdf99b32b6963e81,2025-07-07_22h01.19.151,group3.4_multiperson,2023.2.2,Win32,59.52380952,686c2ebf0248f13bef9af11f,686c7b8d2c46d9fc5383faba,,,,,,,,,,,,,,,,,,,,,,,,,,,,,645.9689,1,audio/Narrative7Situation4.wav,648.9804,,648.9805,660.7102,"[[999,0],[999,82],[999,166],[999,249],[999,333],[999,416],[999,499],[999,582],[999,666],[999,749],[999,832],[999,916],[999,999],[999,1082],[999,1166],[999,1249],[999,1332],[999,1416],[999,1499],[999,1582],[999,1665],[999,1749],[999,1832],[999,1915],[999,1999],[999,2082],[999,2165],[999,2249],[999,2332],[999,2415],[999,2498],[999,2582],[999,2665],[999,2748],[999,2831],[999,2915],[999,2998],[999,3082],[999,3165],[999,3248],[999,3331],[999,3415],[999,3498],[999,3581],[999,3665],[999,3748],[999,3831],[999,3915],[999,3998],[999,4081],[999,4165],[999,4248],[999,4332],[999,4415],[999,4498],[999,4581],[999,4664],[999,4748],[999,4831],[999,4914],[999,4998],[999,5081],[999,5164],[999,5248],[999,5331],[999,5414],[999,5497],[999,5582],[999,5664],[999,5747],[999,5831],[999,5915],[999,5998],[0.9,6497],[1.5,6580],[1.5,6664],[1.4,6748],[0.7,6830],[0.6,6914],[0.1,6997]]",660.7105,664.2087,4.375,2.3914,"[{""rating"":4.375000000000001,""responseTime"":2.3914000000357873}]",space,2.9524,,664.2088,Partially,50,664.2128,,,[],,0,13,13,13,1,audio/Narrative8Situation4.wav,audio/Narrative7Situation4.wav,audio/Narrative6Situation4.wav,audio/Narrative5Situation4.wav,3,3,2,1,,,,,,,,,,,,,,,,,,,,,,,,,,,,,,,,,,,,,,,
,,,,,559c3b0efdf99b32b6963e81,2025-07-07_22h01.19.151,group3.4_multiperson,2023.2.2,Win32,59.52380952,686c2ebf0248f13bef9af11f,686c7b8d2c46d9fc5383faba,,,,,,,,,,,,,,,,,,,,,,,,,,,,,664.2134,1,audio/Narrative7Situation5.wav,669.2236,,669.2236,677.7209,"[[999,0],[999,83],[999,166],[999,249],[999,333],[999,416],[999,499],[999,582],[999,666],[999,749],[999,832],[999,916],[999,999],[999,1082],[999,1166],[999,1249],[999,1332],[999,1415],[999,1499],[999,1582],[999,1666],[999,1749],[999,1832],[999,1915],[999,1999],[999,2082],[999,2165],[999,2249],[999,2332],[999,2415],[999,2499],[999,2582],[999,2665],[999,2749],[999,2832],[999,2915],[999,2999],[999,3082],[73.9,3165],[100,3915],[98.8,3999],[98.8,4081],[98.8,4165],[99.1,4248],[99.7,4332],[99.9,4414],[100,4498],[100,4581],[100,4664],[100,4748],[100,4831],[100,4914],[100,4998],[100,5081],[100,5164],[100,5248],[100,5331],[100,5414],[100,5497],[100,5581],[100,5664],[100,5747],[100,5831],[100,5914],[100,5997],[100,6081],[100,6164],[100,6247],[100,6330],[100,6414],[100,6497],[100,6581],[100,6664],[100,6747],[100,6831],[100,6914],[100,6997],[100,7080],[100,7164],[100,7247],[100,7330],[100,7413],[100,7497],[100,7580],[100,7663],[100,7747],[100,7830],[100,7913],[100,7997],[100,8080],[100,8163],[100,8247],[100,8330],[100,8413],[100,8496]]",677.7211,682.0689,100,3.1378,"[{""rating"":98.95833333333333,""responseTime"":2.54280000001188},{""rating"":100,""responseTime"":3.1378000000119073}]",space,3.8021,,682.0689,Definitely yes,100,682.0725,,,[],,0,14,14,14,1,audio/Narrative8Situation5.wav,audio/Narrative7Situation5.wav,audio/Narrative6Situation5.wav,audio/Narrative5Situation5.wav,2,5,2,5,,,,,,,,,,,,,,,,,,,,,,,,,,,,,,,,,,,,,,,
,,,,,559c3b0efdf99b32b6963e81,2025-07-07_22h01.19.151,group3.4_multiperson,2023.2.2,Win32,59.52380952,686c2ebf0248f13bef9af11f,686c7b8d2c46d9fc5383faba,,,,,,,,,,,,,,,,,,,,,,,,,,,,,682.0727,1,audio/Narrative7Situation6.wav,685.0849,,685.0849,695.0649,"[[999,0],[999,83],[999,166],[999,249],[999,333],[999,416],[999,499],[999,582],[999,666],[999,749],[999,832],[999,916],[999,999],[999,1082],[999,1165],[999,1249],[999,1332],[999,1416],[999,1499],[999,1582],[999,1666],[999,1749],[999,1832],[999,1916],[999,1999],[999,2082],[999,2165],[999,2249],[999,2332],[999,2416],[999,2499],[96.1,2582],[98.9,2665],[99.1,2749],[99.2,2832],[99.6,2916],[99.8,2998],[99.8,3082],[99.8,3165],[99.8,3248],[99.8,3332],[99.8,3415],[99.8,3498],[99.8,3581],[99.8,3665],[99.8,3748],[99.8,3831],[99.8,3915],[99.8,3998],[99.8,4081],[99.8,4165],[99.8,4248],[99.8,4331],[99.8,4415],[99.8,4498],[99.8,4581],[99.8,4664],[99.8,4748],[99.8,4831],[99.8,4914],[99.8,4997],[99.8,5081],[99.8,5164],[99.8,5248],[99.8,5331],[99.8,5414],[99.8,5497],[99.8,5581],[99.8,5664],[99.8,5747],[99.8,5831],[99.8,5914],[99.8,5997],[99.8,6081],[99.8,6164],[99.8,6247],[99.8,6331],[99.8,6414],[99.8,6497],[99.8,6581],[99.8,6664],[99.8,6747],[99.8,6830],[99.8,6914],[99.8,6997],[99.8,7080],[99.8,7164],[99.8,7247],[99.8,7330],[99.8,7413],[99.8,7497],[99.8,7580],[99.8,7664],[99.8,7747],[99.8,7830],[99.8,7913],[99.8,7997],[99.8,8080],[99.8,8163],[99.8,8247],[99.8,8330],[99.8,8413],[99.8,8497],[99.8,8580],[99.8,8663],[99.8,8746],[99.8,8830],[99.8,8913],[99.8,8996],[99.8,9080],[99.8,9163],[99.8,9246],[99.8,9329],[99.8,9413],[99.8,9496],[99.8,9579],[99.8,9663],[99.8,9746],[99.8,9829],[99.8,9913]]",695.0652,699.0303,99.58333333,2.5061,"[{""rating"":99.58333333333333,""responseTime"":2.506099999964249}]",space,3.4167,,699.0304,Definitely yes,100,699.0343,,,[],,0,15,15,15,1,audio/Narrative8Situation6.wav,audio/Narrative7Situation6.wav,audio/Narrative6Situation6.wav,audio/Narrative5Situation6.wav,2,3,2,3,,,,,,,,,,,,,,,,,,,,,,,,,,,,,,,,,,,,,,,
,,,,,559c3b0efdf99b32b6963e81,2025-07-07_22h01.19.151,group3.4_multiperson,2023.2.2,Win32,59.52380952,686c2ebf0248f13bef9af11f,686c7b8d2c46d9fc5383faba,,,,,,,,,,,,,,,,,,,,,,,,,,,,,699.035,1,audio/Narrative7Situation7.wav,704.0452,,704.0453,721.2228,"[[999,0],[999,82],[999,166],[999,249],[999,332],[999,416],[999,499],[999,582],[999,666],[999,749],[999,832],[999,916],[999,999],[999,1082],[999,1166],[999,1249],[999,1332],[999,1416],[999,1499],[999,1582],[999,1665],[999,1749],[999,1832],[999,1915],[999,1999],[999,2082],[999,2165],[999,2248],[999,2332],[999,2415],[999,2499],[999,2582],[999,2665],[999,2748],[999,2831],[999,2915],[999,2998],[999,3082],[999,3165],[93.8,3248],[94.5,3332],[95.1,3417],[95.5,3499],[95.8,3582],[96.1,3665],[96.5,3748],[96.7,3832],[96.7,3914],[96.7,3998],[96.7,4081],[96.7,4164],[96.7,4248],[96.7,4331],[96.7,4414],[96.7,4498],[96.7,4581],[96.7,4664],[96.7,4747],[96.7,4831],[96.7,4914],[96.7,4998],[96.7,5081],[96.7,5164],[96.7,5247],[96.7,5331],[96.7,5414],[96.7,5497],[96.7,5581],[96.7,5664],[96.7,5747],[96.7,5831],[96.7,5914],[96.7,5997],[96.7,6081],[96.7,6164],[96.7,6247],[96.7,6330],[96.7,6414],[96.7,6497],[96.7,6580],[96.7,6664],[96.7,6747],[96.7,6830],[96.7,6914],[96.7,6997],[96.7,7080],[96.7,7163],[96.7,7247],[96.8,7331],[99,7414],[99.7,7497],[100,7580],[100,7663],[100,7747],[100,7830],[100,7913],[100,7997],[100,8080],[100,8163],[100,8246],[100,8330],[100,8413],[100,8496],[100,8579],[100,8663],[100,8746],[100,8829],[100,8913],[100,8996],[100,9079],[100,9163],[100,9246],[100,9329],[100,9413],[100,9496],[100,9579],[100,9662],[100,9746],[100,9829],[100,9913],[100,9996],[100,10079],[100,10162],[100,10246],[100,10329],[100,10412],[100,10496],[100,10579],[100,10662],[100,10745],[100,10829],[100,10912],[100,10995],[100,11079],[100,11162],[100,11245],[100,11329],[100,11412],[100,11495],[100,11579],[100,11662],[100,11745],[100,11829],[100,11912],[100,11995],[100,12078],[100,12162],[100,12245],[100,12328],[100,12412],[100,12495],[100,12578],[100,12662],[100,12745],[100,12828],[100,12911],[100,12995],[100,13078],[100,13161],[100,13245],[100,13328],[100,13411],[100,13495],[100,13578],[100,13661],[100,13745],[100,13828],[100,13911],[100,13995],[100,14078],[100,14161],[100,14244],[100,14328],[100,14411],[100,14494],[100,14577],[100,14661],[100,14744],[100,14827],[100,14911],[100,14994],[100,15077],[100,15161],[100,15244],[100,15327],[100,15411],[100,15494],[100,15577],[100,15661],[100,15744],[100,15827],[100,15910],[100,15994],[100,16077],[100,16160],[100,16244],[100,16327],[100,16410],[100,16494],[100,16577],[100,16660],[100,16744],[100,16827],[100,16910],[100,16994],[100,17077],[100,17160]]",721.2231,725.3212,99.89583333,2.7607,"[{""rating"":99.89583333333334,""responseTime"":2.7607000000476773}]",space,3.5593,,725.3213,Not at all,0,725.3286,,,[],,0,16,16,16,1,audio/Narrative8Situation7.wav,audio/Narrative7Situation7.wav,audio/Narrative6Situation7.wav,audio/Narrative5Situation7.wav,3,5,5,4,,,,,,,,,,,,,,,,,,,,,,,,,,,,,,,,,,,,,,,
,,,,,559c3b0efdf99b32b6963e81,2025-07-07_22h01.19.151,group3.4_multiperson,2023.2.2,Win32,59.52380952,686c2ebf0248f13bef9af11f,686c7b8d2c46d9fc5383faba,,,,,,,,,,,,,,,,,,,,,,,,,,,,,725.3291,1,audio/Narrative7Situation8.wav,727.3378,,727.3378,737.3674,"[[91.7,3331],[93.6,3415],[93.9,3498],[95.1,3581],[96,3664],[96.3,3748],[97.5,3831],[98.5,3914],[98.5,3997],[98.5,4080],[98.5,4164],[98.5,4247],[98.5,4331],[98.5,4414],[98.5,4497],[98.5,4581],[98.5,4664],[98.5,4747],[98.5,4830],[99.3,4914],[99.6,4998],[100,5081],[100,5164],[100,5247],[100,5330],[100,5414],[100,5497],[100,5580],[100,5664],[100,5747],[100,5830],[100,5914],[100,5997],[100,6080],[100,6163],[100,6247],[100,6330],[100,6413],[100,6497],[100,6580],[100,6663],[100,6746],[100,6830],[100,6913],[100,6996],[100,7080],[100,7163],[100,7246],[100,7330],[100,7413],[100,7496],[100,7580],[100,7663],[100,7746],[100,7830],[100,7913],[100,7996],[100,8079],[100,8163],[100,8246],[100,8329],[100,8413],[100,8496],[100,8579],[100,8663],[100,8746],[100,8829],[100,8912],[100,8996],[100,9079],[100,9162],[100,9246],[100,9329],[100,9412],[100,9496],[100,9579],[100,9662],[100,9745],[100,9829],[100,9912],[100,9995]]",737.3675,740.9659,99.89583333,2.5377,"[{""rating"":99.89583333333334,""responseTime"":2.537699999988149}]",space,3.055,,740.966,Partially,50,748.2469,49.79166667,4.0451,"[{""rating"":49.791666666666664,""responseTime"":4.045100000023808}]",space,0,17,17,17,1,audio/Narrative8Situation8.wav,audio/Narrative7Situation8.wav,audio/Narrative6Situation8.wav,audio/Narrative5Situation8.wav,3,2,5,3,,,6.7396,,,,,,,,,,,,,,,,,,,,,,,,,,,,,,,,,,,,
,,,,,559c3b0efdf99b32b6963e81,2025-07-07_22h01.19.151,group3.4_multiperson,2023.2.2,Win32,59.52380952,686c2ebf0248f13bef9af11f,686c7b8d2c46d9fc5383faba,,,,,,,,,,,,,,,,,,,,,,,,,,,,,748.2475,1,audio/Narrative7Situation9.wav,750.2628,,750.2628,758.8934,"[[59.8,1583],[82.1,1666],[93.6,1749],[99.2,1833],[100,1916],[100,1999],[100,2082],[100,2165],[100,2249],[100,2332],[100,2415],[100,2499],[100,2582],[100,2665],[100,2748],[100,2832],[100,2915],[100,2999],[100,3082],[100,3165],[100,3248],[100,3332],[100,3415],[100,3498],[100,3581],[100,3665],[100,3748],[100,3832],[100,3915],[100,3998],[100,4081],[100,4164],[100,4248],[100,4331],[100,4415],[100,4498],[100,4581],[100,4664],[100,4748],[100,4831],[100,4914],[100,4998],[100,5081],[100,5165],[100,5248],[100,5331],[100,5415],[100,5498],[100,5581],[100,5665],[100,5747],[100,5832],[100,5915],[99.9,5998],[99.3,6081],[99.1,6164],[99.1,6247],[99.3,6331],[99.9,6415],[100,6498],[100,6581],[100,6664],[100,6747],[100,6831],[100,6914],[100,6997],[100,7080],[100,7164],[100,7247],[100,7330],[100,7413],[100,7497],[100,7580],[100,7663],[100,7747],[100,7830],[100,7913],[100,7997],[100,8080],[100,8163],[100,8247],[100,8330],[100,8413],[100,8496],[100,8580]]",758.8937,763.2249,99.47916667,3.1449,"[{""rating"":99.47916666666667,""responseTime"":3.1448999999762464}]",space,3.7832,,763.225,Partially,50,763.2298,,,[],,0,18,18,18,1,audio/Narrative8Situation9.wav,audio/Narrative7Situation9.wav,audio/Narrative6Situation9.wav,audio/Narrative5Situation9.wav,3,2,4,3,,,,,,,,,,,,,,,,,,,,,,,,,,,,,,,,,,,,,,,
,,,,,559c3b0efdf99b32b6963e81,2025-07-07_22h01.19.151,group3.4_multiperson,2023.2.2,Win32,59.52380952,686c2ebf0248f13bef9af11f,686c7b8d2c46d9fc5383faba,,,,,,,,,,,,,,,,,,,,,,,,,,,795.167,797.7467,797.7827,2,audio/Narrative13Situation2.wav,797.7829,,797.783,827.5366,"[[999,0],[999,80],[999,163],[999,246],[999,330],[999,413],[999,496],[999,579],[999,663],[999,746],[999,829],[999,913],[999,996],[999,1079],[999,1163],[999,1246],[999,1329],[999,1413],[999,1496],[999,1579],[999,1663],[999,1746],[999,1829],[999,1912],[999,1996],[999,2079],[999,2163],[999,2246],[999,2329],[999,2413],[999,2496],[999,2579],[999,2662],[999,2746],[999,2829],[999,2912],[999,2996],[999,3079],[999,3163],[999,3245],[999,3329],[999,3412],[999,3496],[999,3579],[999,3662],[999,3745],[999,3829],[999,3913],[999,3995],[999,4078],[999,4162],[999,4245],[999,4328],[999,4412],[76.6,4496],[77.2,4578],[77.4,4662],[77.8,4745],[77.8,4828],[77.8,4911],[77.8,4995],[77.8,5078],[77.8,5161],[78.6,5245],[79,5328],[79,5411],[79,5495],[79,5578],[79,5661],[79,5745],[79,5828],[79,5911],[79,5994],[79,6078],[79,6161],[79,6244],[79,6327],[79,6411],[79,6494],[79,6577],[79,6661],[79,6744],[79,6827],[79,6911],[79,6994],[79,7077],[79,7161],[79,7244],[79,7327],[79,7411],[79,7494],[79,7577],[79,7660],[79,7744],[79,7827],[79,7910],[79,7994],[79,8077],[79,8160],[80.8,8244],[84.2,8328],[87.7,8411],[88.5,8494],[88.5,8577],[90,8661],[93.9,8744],[97.8,8827],[100,8911],[100,8993],[100,9077],[100,9160],[100,9243],[100,9327],[100,9410],[100,9493],[100,9576],[100,9660],[100,9743],[100,9826],[100,9910],[100,9993],[100,10076],[100,10160],[93.4,10244],[89.9,10327],[88.4,10410],[84.6,10494],[79.3,10577],[77.6,10660],[74.2,10743],[67.7,10827],[63,10910],[58.6,10993],[55.4,11077],[52.7,11160],[51.1,11243],[50.4,11326],[49.6,11410],[49.1,11492],[49.1,11576],[49.1,11659],[42.6,11743],[33,11826],[30.3,11910],[29.2,11993],[29.2,12076],[29.2,12159],[29.2,12242],[29.2,12326],[29.2,12409],[29.2,12492],[29.2,12575],[29.1,12659],[27.8,12743],[27.7,12825],[27.7,12909],[27.7,12992],[27.7,13075],[27.7,13159],[27.7,13242],[27.7,13325],[27.7,13409],[27.7,13492],[27.7,13575],[27.7,13658],[27.7,13742],[27.7,13825],[27.7,13908],[27.7,13992],[27.7,14075],[27.7,14158],[27.7,14242],[27.7,14325],[27.9,14409],[28.9,14492],[29.1,14575],[29.1,14658],[29.1,14741],[29.1,14825],[29.1,14908],[29.1,14991],[29.1,15075],[29.1,15158],[29.1,15241],[29.1,15325],[29.1,15408],[29.1,15491],[29.1,15574],[29.1,15658],[29.1,15741],[29.1,15825],[29.1,15908],[29.1,15991],[29.1,16074],[29.1,16158],[29.1,16241],[29.1,16324],[29.1,16408],[29.1,16491],[29.1,16574],[29.1,16658],[29.1,16741],[29.1,16824],[29.1,16907],[29.4,16991],[29.5,17074],[29.6,17158],[31.1,17241],[35.4,17324],[38.6,17408],[38.9,17491],[38.9,17574],[38.9,17657],[38.9,17740],[38.9,17824],[38.9,17907],[38.9,17990],[37.9,18074],[20,18158],[16.1,18240],[16.1,18323],[16.1,18407],[16.1,18490],[16.1,18573],[16.1,18657],[16.1,18740],[16.1,18823],[16.1,18907],[16.1,18990],[16.1,19073],[16.1,19157],[16.1,19240],[16.1,19323],[16.1,19407],[16.1,19490],[16.1,19573],[16.1,19656],[16.1,19740],[16.3,19823],[16.8,19907],[16.8,19990],[16.8,20073],[16.8,20156],[16.8,20240],[16.8,20323],[16.8,20406],[16.8,20490],[16.8,20573],[16.8,20656],[16.8,20739],[16.8,20823],[16.8,20906],[16.8,20989],[16.8,21073],[16.8,21156],[16.8,21239],[16.8,21322],[18.5,21406],[22.2,21490],[25.6,21573],[31.1,21656],[34.6,21740],[36.4,21823],[39.2,21906],[43.4,21989],[46.8,22072],[47.8,22156],[51.6,22240],[59.9,22323],[68.6,22406],[75.1,22489],[79.3,22572],[81.7,22656],[86.7,22739],[90.3,22822],[93.3,22906],[93.9,22988],[94.6,23072],[95.1,23156],[95.1,23238],[95.9,23322],[96.1,23405],[96.1,23488],[96.1,23572],[96.1,23655],[96.1,23738],[96.1,23822],[96.1,23905],[96.1,23988],[96.1,24072],[96.1,24155],[96.1,24238],[96.1,24321],[96.1,24405],[96.1,24488],[96.1,24571],[96.1,24655],[96.1,24738],[96.1,24821],[96.1,24905],[96.4,24988],[98.2,25072],[98.2,25155],[98.2,25238],[98.3,25321],[98.3,25405],[98.3,25488],[98.3,25571],[98.3,25654],[98.3,25738],[98.3,25821],[98.3,25904],[96.9,25988],[95.6,26072],[94.7,26155],[94.1,26238],[94.1,26321],[94.1,26404],[93.9,26488],[93.4,26571],[93.4,26654],[93.4,26737],[93.4,26821],[93.4,26904],[93.4,26987],[93.4,27070],[92.6,27154],[89.4,27238],[89.3,27320],[89.3,27404],[89.3,27487],[89.3,27570],[89.3,27654],[89.3,27737],[89.3,27820],[89.3,27903],[89.3,27987],[89.3,28070],[89.3,28153],[89.3,28237],[88.4,28321],[84.8,28404],[84.8,28487],[84.8,28570],[84.8,28653],[84.8,28737],[84.8,28820],[84.8,28903],[84.8,28987],[84.8,29070],[84.8,29153],[84.8,29237],[84.8,29320],[84.8,29403],[84.8,29486],[84.8,29570],[84.8,29653],[84.8,29736]]",827.5369,827.5408,,,[],,,,827.541,Not at all,0,827.545,,,[],,0,0,0,0,1,audio/Narrative13Situation2.wav,audio/Narrative13Situation2.wav,audio/Narrative13Situation2.wav,audio/Narrative13Situation2.wav,2,2,2,2,,,,,763.2306,795.1661,space,31.407,,,,,,,,,,,,,,,,,,,,,,,,,,,,,,,
,,,,,559c3b0efdf99b32b6963e81,2025-07-07_22h01.19.151,group3.4_multiperson,2023.2.2,Win32,59.52380952,686c2ebf0248f13bef9af11f,686c7b8d2c46d9fc5383faba,,,,,,,,,,,,,,,,,,,,,,,,,,,,,827.5454,2,audio/Narrative6Situation1.wav,829.5526,,829.5527,856.1441,"[[999,0],[999,83],[999,166],[999,249],[999,332],[999,416],[999,499],[999,583],[999,666],[999,749],[999,833],[999,916],[999,999],[999,1082],[999,1166],[999,1249],[999,1332],[999,1416],[999,1499],[999,1582],[999,1666],[999,1749],[999,1832],[999,1915],[999,1999],[999,2082],[999,2165],[999,2248],[999,2332],[999,2415],[999,2499],[999,2582],[999,2665],[999,2748],[999,2832],[999,2915],[999,2998],[999,3081],[999,3165],[999,3248],[999,3331],[999,3415],[999,3498],[999,3581],[999,3665],[999,3748],[999,3831],[999,3915],[999,3998],[999,4081],[999,4165],[999,4248],[999,4331],[999,4415],[999,4498],[999,4581],[999,4664],[999,4748],[999,4831],[999,4914],[999,4998],[999,5081],[999,5164],[999,5247],[999,5331],[999,5414],[999,5497],[999,5580],[999,5664],[999,5747],[999,5831],[999,5914],[999,5997],[999,6081],[999,6165],[999,6248],[86.3,6331],[87.2,6414],[87.5,6498],[87.5,6581],[87.6,6664],[88.4,6747],[89.7,6831],[90.8,6914],[91.6,6998],[91.9,7081],[92,7164],[92.1,7247],[92.2,7330],[92.8,7414],[93.3,7497],[94,7581],[94.5,7664],[95,7747],[96.4,7831],[97.5,7914],[97.8,7997],[98.4,8080],[98.6,8163],[98.9,8247],[99.1,8330],[99.1,8413],[99.1,8496],[99.2,8580],[99.3,8663],[99.3,8747],[99.3,8830],[99.3,8913],[99.3,8996],[99.3,9080],[99.3,9163],[99.3,9246],[99.3,9329],[99.3,9413],[99.3,9496],[99.3,9579],[99.3,9662],[99.3,9746],[99.3,9829],[99.3,9912],[99.3,9996],[99.3,10079],[99.3,10163],[99.3,10246],[99.3,10329],[99.3,10413],[99.3,10496],[99.3,10579],[99.3,10662],[99.3,10746],[99.3,10829],[99.3,10912],[99.3,10996],[99.3,11079],[99.3,11162],[99.3,11245],[99.3,11329],[99.3,11412],[99.3,11495],[99.3,11579],[99.3,11662],[99.3,11745],[99.3,11829],[99.3,11912],[99.3,11995],[99.3,12079],[99.3,12162],[99.3,12245],[99.3,12328],[99.3,12412],[99.3,12495],[99.3,12578],[99.3,12662],[99.3,12745],[99.3,12828],[99.3,12912],[99.3,12995],[99.3,13078],[99.3,13162],[99.3,13245],[99.3,13328],[99.3,13411],[99.3,13495],[99.3,13578],[99.3,13661],[99.3,13745],[99.3,13828],[99.3,13911],[99.3,13995],[99.3,14078],[99.3,14161],[99.3,14245],[98.9,14328],[90.4,14412],[87.4,14495],[86,14578],[85.6,14661],[83,14745],[77.4,14828],[65,14912],[59.8,14995],[58.1,15078],[56.6,15161],[56.4,15244],[56.4,15327],[55.3,15412],[54.1,15495],[53.5,15578],[53.1,15661],[52.7,15744],[52,15828],[51.7,15911],[51.3,15994],[51.3,16077],[51.3,16161],[51.3,16244],[50.7,16328],[50.1,16411],[49.2,16494],[48.1,16578],[47.4,16661],[47.2,16744],[47.2,16827],[47.2,16910],[45.8,16994],[44.6,17077],[44.3,17160],[44.1,17244],[43.9,17327],[43.5,17410],[43.2,17494],[42.9,17577],[42.5,17660],[42.1,17744],[41.7,17827],[41.6,17910],[41.1,17994],[40.6,18077],[40.1,18160],[39.5,18243],[39.5,18326],[39.5,18410],[39.5,18493],[39.5,18577],[39.5,18660],[39.5,18743],[39.5,18826],[39.5,18910],[39.5,18993],[39.5,19076],[39.5,19160],[39.5,19243],[39.5,19326],[39.5,19410],[39.5,19493],[39.5,19576],[39.5,19659],[39.5,19743],[39.5,19826],[39.5,19909],[39.5,19993],[39.5,20076],[39.5,20159],[39.5,20242],[39.5,20326],[39.5,20409],[39.5,20493],[39.8,20576],[40.4,20659],[40.8,20743],[42.4,20826],[45.2,20909],[49.7,20993],[52.7,21076],[55.9,21159],[61.6,21242],[68.5,21325],[74.4,21408],[79.7,21492],[85.2,21575],[87.2,21659],[88,21742],[89.8,21826],[91.9,21909],[94.3,21992],[96.1,22076],[97.5,22159],[98,22242],[98.5,22326],[99.4,22409],[99.4,22492],[99.4,22575],[99.4,22658],[99.4,22741],[99.4,22825],[99.4,22908],[99.4,22992],[99.4,23075],[99.4,23158],[99.4,23241],[99.4,23325],[99.4,23410],[99.4,23491],[99.4,23575],[99.4,23658],[99.4,23741],[99.4,23825],[99.4,23908],[99.4,23991],[99.4,24075],[99.4,24158],[99.4,24241],[99.4,24324],[99.4,24408],[99.4,24491],[99.4,24574],[99.4,24658],[99.4,24741],[99.4,24824],[99.4,24908],[99.4,24991],[99.4,25074],[99.4,25158],[99.4,25241],[99.4,25324],[99.4,25407],[99.4,25491],[99.4,25574],[99.4,25657],[99.4,25741],[99.4,25824],[99.4,25907],[99.4,25990],[99.4,26074],[99.4,26157],[99.4,26240],[99.4,26324],[99.4,26407],[99.4,26490],[99.4,26574]]",856.1444,861.1421,74.47916667,3.287,"[{""rating"":74.47916666666666,""responseTime"":3.2870000000000346}]",space,4.4584,,861.1422,Partially,50,861.1485,,,[],,0,1,1,1,1,audio/Narrative7Situation1.wav,audio/Narrative8Situation1.wav,audio/Narrative5Situation1.wav,audio/Narrative6Situation1.wav,2,5,5,2,,,,,,,,,,,,,,,,,,,,,,,,,,,,,,,,,,,,,,,
,,,,,559c3b0efdf99b32b6963e81,2025-07-07_22h01.19.151,group3.4_multiperson,2023.2.2,Win32,59.52380952,686c2ebf0248f13bef9af11f,686c7b8d2c46d9fc5383faba,,,,,,,,,,,,,,,,,,,,,,,,,,,,,861.1491,2,audio/Narrative6Situation2.wav,864.1576,,864.1577,892.6646,"[[999,0],[999,83],[999,166],[999,249],[999,332],[999,416],[999,499],[999,582],[999,666],[999,749],[999,832],[999,916],[999,999],[999,1082],[999,1165],[999,1249],[999,1332],[999,1415],[999,1498],[999,1582],[999,1665],[999,1749],[999,1832],[999,1915],[999,1999],[999,2082],[999,2165],[999,2249],[999,2332],[999,2415],[999,2499],[999,2582],[999,2665],[999,2748],[999,2832],[999,2915],[999,2998],[999,3082],[999,3165],[999,3248],[999,3331],[999,3415],[999,3498],[999,3581],[999,3665],[999,3748],[999,3831],[999,3915],[999,3998],[999,4081],[999,4165],[999,4249],[87,4332],[91,4415],[95.4,4498],[98.3,4582],[99.6,4665],[100,4748],[100,4831],[100,4914],[100,4998],[100,5081],[100,5164],[100,5248],[100,5331],[100,5414],[100,5498],[100,5581],[100,5664],[100,5747],[100,5831],[100,5914],[100,5997],[100,6081],[100,6164],[100,6247],[100,6330],[100,6414],[100,6497],[100,6580],[100,6663],[100,6747],[100,6830],[100,6913],[100,6997],[100,7080],[100,7164],[100,7247],[100,7330],[100,7413],[100,7497],[100,7580],[100,7663],[100,7747],[100,7830],[100,7913],[100,7997],[100,8080],[100,8163],[100,8247],[100,8330],[100,8413],[100,8496],[100,8580],[100,8663],[100,8746],[100,8830],[100,8913],[100,8996],[100,9080],[100,9163],[100,9246],[100,9329],[100,9413],[100,9496],[100,9579],[100,9663],[100,9746],[100,9829],[100,9913],[100,9996],[100,10079],[100,10162],[100,10246],[100,10329],[100,10413],[100,10496],[100,10579],[100,10662],[100,10746],[100,10829],[100,10912],[100,10996],[100,11079],[100,11162],[100,11245],[100,11329],[100,11412],[100,11495],[100,11579],[100,11662],[100,11745],[100,11829],[100,11912],[100,11995],[100,12079],[100,12162],[100,12245],[100,12328],[100,12412],[100,12495],[100,12578],[100,12662],[100,12745],[100,12828],[100,12912],[100,12995],[100,13078],[100,13162],[100,13245],[100,13328],[100,13411],[100,13495],[100,13578],[100,13661],[100,13745],[100,13828],[100,13911],[100,13995],[100,14078],[100,14161],[100,14245],[100,14328],[100,14411],[100,14494],[100,14578],[100,14661],[100,14744],[100,14828],[100,14911],[100,14994],[100,15077],[100,15161],[100,15244],[100,15327],[100,15411],[100,15494],[100,15577],[100,15661],[100,15744],[100,15827],[100,15910],[100,15994],[100,16077],[100,16160],[100,16244],[100,16327],[100,16410],[100,16494],[100,16577],[100,16660],[100,16744],[100,16827],[100,16910],[100,16994],[100,17077],[100,17160],[100,17243],[100,17327],[100,17410],[100,17493],[100,17577],[100,17660],[100,17743],[100,17827],[100,17910],[100,17993],[100,18077],[100,18160],[100,18243],[100,18326],[100,18409],[100,18493],[100,18576],[100,18660],[100,18743],[100,18826],[100,18909],[100,18993],[100,19076],[100,19159],[100,19243],[100,19326],[100,19409],[100,19493],[100,19576],[100,19659],[100,19743],[100,19826],[100,19909],[100,19993],[100,20076],[100,20159],[100,20242],[100,20326],[100,20409],[100,20492],[100,20576],[100,20659],[100,20742],[100,20826],[100,20909],[100,20993],[100,21076],[100,21159],[100,21242],[100,21325],[100,21409],[100,21492],[100,21575],[100,21659],[100,21742],[100,21825],[100,21908],[100,21992],[100,22075],[100,22159],[100,22242],[100,22325],[100,22408],[100,22492],[100,22575],[100,22658],[100,22741],[100,22825],[100,22908],[100,22991],[100,23075],[100,23158],[100,23241],[100,23325],[100,23408],[100,23491],[100,23575],[100,23658],[100,23741],[100,23825],[100,23908],[100,23991],[100,24075],[100,24158],[100,24241],[100,24324],[100,24408],[100,24491],[100,24574],[100,24658],[100,24741],[100,24824],[100,24908],[100,24991],[100,25074],[100,25157],[100,25241],[100,25324],[99.8,25408],[99.6,25490],[99.5,25574],[99.5,25657],[99.5,25741],[100,25824],[100,25907],[100,25991],[100,26074],[100,26157],[100,26240],[100,26324],[100,26407],[100,26490],[100,26574],[100,26657],[100,26740],[100,26824],[100,26907],[100,26990],[100,27074],[100,27157],[100,27240],[100,27323],[100,27407],[100,27490],[100,27573],[100,27657],[100,27740],[100,27823],[100,27906],[100,27990],[100,28073],[100,28156],[100,28240],[100,28323],[100,28406],[100,28490]]",892.6648,907.1598,100,4.8872,"[{""rating"":98.95833333333333,""responseTime"":4.088099999964243},{""rating"":100,""responseTime"":4.88719999998807}]",space,13.9537,,907.1598,Partially,50,913.9743,49.79166667,3.8109,"[{""rating"":49.791666666666664,""responseTime"":3.8108999999760726}]",space,0,2,2,2,1,audio/Narrative7Situation2.wav,audio/Narrative8Situation2.wav,audio/Narrative5Situation2.wav,audio/Narrative6Situation2.wav,3,3,3,3,,,6.2753,,,,,,,,,,,,,,,,,,,,,,,,,,,,,,,,,,,,
,,,,,559c3b0efdf99b32b6963e81,2025-07-07_22h01.19.151,group3.4_multiperson,2023.2.2,Win32,59.52380952,686c2ebf0248f13bef9af11f,686c7b8d2c46d9fc5383faba,,,,,,,,,,,,,,,,,,,,,,,,,,,,,913.9753,2,audio/Narrative6Situation3.wav,918.9889,,918.989,931.6183,"[[999,0],[999,83],[999,166],[999,249],[999,332],[999,416],[999,499],[999,582],[999,666],[999,749],[999,832],[999,916],[999,999],[999,1082],[999,1166],[999,1249],[999,1332],[999,1416],[999,1499],[999,1582],[999,1665],[999,1749],[999,1832],[999,1915],[999,1999],[999,2082],[999,2165],[999,2249],[999,2332],[999,2415],[999,2498],[999,2582],[999,2665],[999,2748],[999,2832],[999,2915],[999,2998],[999,3082],[999,3165],[999,3248],[999,3331],[999,3415],[999,3498],[999,3582],[999,3665],[999,3748],[999,3831],[999,3915],[999,3998],[999,4081],[999,4165],[999,4248],[999,4331],[999,4414],[999,4498],[999,4581],[999,4664],[999,4748],[999,4831],[999,4914],[999,4998],[999,5081],[999,5164],[999,5247],[999,5331],[999,5414],[999,5498],[999,5581],[999,5665],[999,5748],[999,5831],[77.1,5915],[81.1,5998],[81.6,6081],[81.6,6164],[81.6,6247],[83.8,6331],[85.9,6415],[85.9,6497],[85.9,6580],[85.9,6664],[85.9,6747],[85.9,6830],[90.3,6915],[99.2,6998],[99.4,7080],[99.7,7164],[100,7247],[100,7330],[100,7413],[100,7496],[100,7580],[100,7663],[100,7747],[100,7830],[100,7913],[100,7997],[100,8080],[100,8163],[100,8247],[100,8330],[100,8413],[100,8496],[100,8580],[100,8663],[100,8746],[100,8830],[100,8913],[100,8996],[100,9080],[100,9163],[100,9246],[100,9329],[100,9413],[100,9496],[100,9579],[100,9663],[100,9746],[100,9829],[100,9913],[100,9996],[100,10079],[100,10163],[100,10246],[100,10329],[100,10412],[100,10496],[100,10579],[100,10662],[100,10746],[100,10829],[100,10912],[100,10996],[100,11079],[100,11162],[100,11245],[100,11329],[100,11412],[100,11495],[100,11579],[100,11662],[100,11745],[100,11829],[100,11912],[100,11995],[100,12079],[100,12162],[100,12245],[100,12329],[100,12412],[100,12495],[100,12578]]",931.6186,936.3497,97.91666667,3.1743,"[{""rating"":99.6875,""responseTime"":1.7641000000238591},{""rating"":97.91666666666667,""responseTime"":3.1743000000119537}]",space,4.1832,,936.3498,Partially,50,936.3544,,,[],,0,3,3,3,1,audio/Narrative7Situation3.wav,audio/Narrative8Situation3.wav,audio/Narrative5Situation3.wav,audio/Narrative6Situation3.wav,8,4,3,5,,,,,,,,,,,,,,,,,,,,,,,,,,,,,,,,,,,,,,,
,,,,,559c3b0efdf99b32b6963e81,2025-07-07_22h01.19.151,group3.4_multiperson,2023.2.2,Win32,59.52380952,686c2ebf0248f13bef9af11f,686c7b8d2c46d9fc5383faba,,,,,,,,,,,,,,,,,,,,,,,,,,,,,936.3548,2,audio/Narrative6Situation4.wav,938.3657,,938.3657,950.9783,"[[97.4,167],[96.4,250],[97.1,833],[97.1,916],[96.7,999],[96.5,1082],[96.5,1166],[96.5,1249],[96.5,1332],[96.5,1416],[96.5,1499],[96.5,1582],[96.5,1666],[96.5,1749],[96.5,1832],[96.5,1916],[96.5,1999],[96.5,2082],[96.5,2166],[96.5,2249],[96.5,2332],[96.5,2415],[96.4,2499],[95.2,2582],[94.3,2665],[94.3,2748],[94.3,2832],[94.3,2915],[94.3,2998],[94.3,3082],[94.3,3165],[94.3,3248],[95.2,3332],[97.5,3416],[99.9,3499],[100,3582],[100,3665],[100,3748],[100,3831],[100,3915],[100,3998],[100,4081],[100,4165],[100,4248],[100,4331],[100,4415],[100,4498],[100,4581],[100,4665],[100,4748],[100,4831],[100,4915],[100,4998],[100,5081],[100,5165],[100,5248],[100,5331],[100,5414],[100,5498],[100,5581],[100,5664],[100,5748],[100,5831],[100,5914],[100,5997],[100,6081],[100,6164],[100,6247],[100,6331],[100,6414],[100,6497],[100,6580],[100,6664],[100,6747],[100,6831],[100,6914],[100,6997],[100,7080],[100,7164],[100,7247],[100,7330],[100,7413],[100,7497],[100,7580],[100,7664],[100,7747],[100,7830],[100,7913],[100,7997],[100,8080],[100,8163],[100,8247],[100,8330],[100,8413],[100,8497],[100,8580],[100,8663],[100,8746],[100,8830],[100,8913],[100,8996],[100,9080],[100,9163],[100,9246],[100,9330],[100,9413],[100,9496],[100,9580],[100,9663],[100,9746],[100,9829],[100,9913],[100,9996],[100,10079],[100,10163],[100,10246],[100,10329],[100,10413],[100,10496],[100,10579],[100,10662],[100,10746],[100,10829],[100,10912],[100,10996],[100,11079],[100,11162],[100,11246],[100,11329],[100,11412],[100,11496],[100,11579],[100,11662],[100,11745],[100,11829],[100,11912],[100,11995],[100,12079],[100,12162],[100,12245],[100,12329],[100,12412],[100,12495],[100,12579]]",950.9786,956.0599,96.35416667,3.6301,"[{""rating"":99.79166666666667,""responseTime"":1.9633999999762182},{""rating"":96.35416666666667,""responseTime"":3.2041999999880773},{""rating"":96.35416666666667,""responseTime"":3.6300999999642727}]",space,4.5503,,956.06,Partially,50,956.065,,,[],,0,4,4,4,1,audio/Narrative7Situation4.wav,audio/Narrative8Situation4.wav,audio/Narrative5Situation4.wav,audio/Narrative6Situation4.wav,3,3,1,2,,,,,,,,,,,,,,,,,,,,,,,,,,,,,,,,,,,,,,,
,,,,,559c3b0efdf99b32b6963e81,2025-07-07_22h01.19.151,group3.4_multiperson,2023.2.2,Win32,59.52380952,686c2ebf0248f13bef9af11f,686c7b8d2c46d9fc5383faba,,,,,,,,,,,,,,,,,,,,,,,,,,,,,956.0655,2,audio/Narrative6Situation5.wav,958.0759,,958.0759,966.0231,"[[96.5,333],[96.4,416],[96.4,499],[96.4,582],[96.4,666],[96.4,749],[96.4,833],[96.4,915],[96.4,999],[96.4,1082],[96.4,1166],[96.4,1249],[96.4,1332],[96.4,1415],[96.4,1499],[96.4,1582],[96.4,1665],[96.4,1749],[97.4,1833],[98.8,1916],[99.4,1999],[99.7,2082],[99.8,2165],[100,2248],[100,2332],[100,2415],[100,2498],[100,2582],[100,2665],[100,2748],[100,2831],[100,2915],[100,2998],[100,3082],[100,3165],[100,3248],[100,3331],[100,3415],[100,3498],[100,3581],[100,3665],[100,3748],[100,3831],[100,3915],[100,3998],[100,4081],[100,4164],[100,4248],[100,4331],[100,4414],[100,4498],[100,4581],[100,4664],[100,4748],[100,4831],[100,4914],[100,4997],[100,5081],[100,5164],[100,5247],[100,5331],[100,5414],[100,5497],[100,5581],[100,5664],[100,5747],[100,5831],[100,5914],[100,5997],[100,6081],[100,6164],[100,6247],[100,6330],[100,6414],[100,6497],[100,6580],[100,6663],[100,6747],[100,6830],[100,6914],[100,6997],[100,7080],[100,7163],[100,7247],[100,7330],[100,7413],[100,7496],[100,7580],[100,7663],[100,7747],[100,7830],[100,7913]]",966.0234,968.7223,99.79166667,1.8391,"[{""rating"":99.79166666666667,""responseTime"":1.839099999964219}]",space,2.1586,,968.7223,Partially,50,968.7266,,,[],,0,5,5,5,1,audio/Narrative7Situation5.wav,audio/Narrative8Situation5.wav,audio/Narrative5Situation5.wav,audio/Narrative6Situation5.wav,5,2,5,2,,,,,,,,,,,,,,,,,,,,,,,,,,,,,,,,,,,,,,,
,,,,,559c3b0efdf99b32b6963e81,2025-07-07_22h01.19.151,group3.4_multiperson,2023.2.2,Win32,59.52380952,686c2ebf0248f13bef9af11f,686c7b8d2c46d9fc5383faba,,,,,,,,,,,,,,,,,,,,,,,,,,,,,968.7271,2,audio/Narrative6Situation6.wav,970.7381,,970.7381,981.818,"[[999,0],[999,83],[999,166],[999,249],[999,333],[999,416],[999,499],[999,582],[999,666],[999,749],[999,832],[999,916],[999,999],[999,1082],[999,1166],[999,1249],[999,1332],[999,1416],[999,1499],[999,1582],[999,1665],[999,1749],[999,1832],[999,1915],[999,1999],[999,2082],[999,2165],[999,2249],[999,2332],[999,2416],[999,2499],[97.4,2582],[98.3,2665],[98.3,2749],[98.9,2832],[100,2916],[100,2998],[100,3082],[100,3165],[100,3248],[100,3331],[100,3415],[100,3498],[100,3581],[100,3665],[100,3748],[100,3831],[100,3914],[100,3998],[100,4081],[100,4164],[100,4248],[100,4331],[100,4415],[100,4498],[100,4581],[100,4665],[100,4748],[100,4831],[100,4914],[100,4998],[100,5081],[100,5164],[100,5248],[100,5331],[100,5414],[100,5498],[100,5581],[100,5664],[100,5748],[100,5831],[100,5914],[100,5998],[100,6081],[100,6164],[100,6247],[100,6331],[100,6414],[100,6497],[100,6581],[100,6664],[100,6747],[100,6831],[100,6914],[100,6997],[100,7080],[100,7164],[100,7247],[100,7330],[100,7413],[100,7497],[100,7580],[100,7663],[100,7747],[100,7830],[100,7913],[100,7997],[100,8080],[100,8163],[100,8247],[100,8330],[100,8413],[100,8496],[100,8580],[100,8663],[100,8746],[100,8830],[100,8913],[100,8996],[100,9080],[100,9163],[100,9246],[100,9330],[100,9413],[100,9496],[100,9580],[100,9663],[100,9746],[100,9829],[100,9913],[100,9996],[100,10079],[100,10163],[100,10246],[100,10329],[100,10413],[100,10496],[100,10579],[100,10662],[100,10746],[100,10829],[100,10912],[100,10996],[100,11079]]",981.8182,984.4668,99.79166667,1.4437,"[{""rating"":99.79166666666667,""responseTime"":1.4436999999880982}]",space,2.108,,984.4669,Partially,50,984.4705,,,[],,0,6,6,6,1,audio/Narrative7Situation6.wav,audio/Narrative8Situation6.wav,audio/Narrative5Situation6.wav,audio/Narrative6Situation6.wav,3,2,3,2,,,,,,,,,,,,,,,,,,,,,,,,,,,,,,,,,,,,,,,
,,,,,559c3b0efdf99b32b6963e81,2025-07-07_22h01.19.151,group3.4_multiperson,2023.2.2,Win32,59.52380952,686c2ebf0248f13bef9af11f,686c7b8d2c46d9fc5383faba,,,,,,,,,,,,,,,,,,,,,,,,,,,,,984.4715,2,audio/Narrative6Situation7.wav,989.4819,,989.4819,1014.3403,"[[999,0],[999,83],[999,166],[999,249],[999,332],[999,416],[999,499],[999,582],[999,666],[999,749],[999,832],[999,916],[999,999],[999,1082],[999,1166],[999,1249],[999,1332],[999,1415],[999,1499],[999,1582],[999,1666],[999,1749],[999,1832],[999,1915],[999,1999],[999,2082],[999,2165],[999,2249],[999,2332],[999,2415],[999,2498],[999,2582],[999,2665],[999,2748],[999,2831],[999,2915],[999,2999],[999,3082],[999,3165],[999,3248],[999,3331],[999,3415],[999,3499],[999,3582],[999,3665],[999,3748],[999,3832],[999,3915],[999,3998],[999,4082],[999,4165],[999,4248],[999,4331],[999,4414],[999,4498],[999,4581],[999,4665],[999,4748],[999,4831],[73.3,4915],[73.3,4998],[73.3,5081],[73.3,5164],[73.3,5248],[73.3,5331],[73.3,5414],[73.3,5497],[73.3,5581],[73.3,5664],[73.3,5747],[73.3,5831],[73.3,5914],[73.3,5997],[73.3,6081],[73.3,6164],[73.3,6247],[73.3,6331],[73.3,6414],[73.3,6497],[73.3,6581],[73.9,6664],[74.2,6747],[74.2,6830],[74.2,6914],[74.3,6997],[74.7,7081],[75.6,7164],[76.3,7247],[77.5,7331],[81.3,7414],[87.7,7497],[92.9,7581],[96.8,7664],[98.4,7747],[99.6,7830],[100,7913],[100,7997],[100,8080],[100,8163],[100,8247],[100,8330],[100,8413],[100,8497],[100,8580],[100,8663],[100,8746],[100,8830],[100,8913],[100,8996],[100,9080],[100,9163],[100,9246],[100,9329],[100,9413],[100,9496],[100,9579],[100,9663],[100,9746],[100,9829],[100,9913],[100,9996],[100,10079],[100,10163],[100,10246],[100,10329],[100,10413],[100,10496],[100,10579],[100,10662],[100,10746],[100,10829],[100,10912],[100,10996],[100,11079],[100,11162],[100,11245],[100,11329],[100,11412],[100,11495],[100,11579],[100,11662],[100,11745],[100,11829],[100,11912],[100,11995],[100,12078],[100,12162],[100,12245],[100,12329],[100,12412],[100,12495],[100,12578],[100,12662],[100,12745],[100,12828],[100,12912],[100,12995],[100,13078],[100,13162],[100,13245],[100,13328],[100,13411],[100,13495],[100,13578],[100,13661],[100,13744],[100,13828],[100,13911],[100,13994],[100,14078],[100,14161],[100,14245],[100,14328],[100,14411],[100,14494],[100,14577],[100,14661],[100,14744],[100,14827],[100,14911],[100,14994],[100,15077],[100,15161],[100,15244],[100,15327],[100,15411],[100,15494],[100,15577],[100,15661],[100,15744],[100,15827],[100,15911],[100,15994],[100,16077],[100,16161],[100,16244],[100,16327],[100,16410],[100,16494],[100,16577],[100,16660],[100,16744],[100,16827],[100,16910],[100,16994],[100,17077],[100,17160],[100,17243],[100,17327],[100,17410],[100,17493],[100,17577],[100,17660],[100,17743],[100,17826],[100,17910],[100,17993],[100,18077],[100,18160],[100,18243],[100,18326],[100,18410],[100,18493],[100,18576],[100,18660],[100,18743],[100,18826],[100,18910],[100,18993],[100,19076],[100,19159],[100,19243],[100,19326],[100,19409],[100,19493],[100,19576],[100,19659],[100,19743],[100,19826],[100,19909],[100,19993],[100,20076],[100,20159],[100,20242],[100,20326],[100,20409],[100,20493],[100,20576],[100,20659],[100,20742],[100,20826],[100,20909],[100,20992],[100,21076],[100,21159],[100,21242],[100,21325],[100,21409],[100,21492],[100,21575],[100,21658],[100,21742],[100,21825],[100,21909],[100,21992],[100,22075],[100,22158],[100,22242],[100,22325],[100,22408],[100,22492],[100,22575],[100,22658],[100,22741],[100,22825],[100,22908],[100,22991],[100,23075],[100,23158],[100,23241],[100,23325],[100,23408],[100,23491],[100,23575],[100,23658],[100,23741],[100,23825],[100,23908],[100,23991],[100,24075],[100,24158],[100,24241],[100,24324],[100,24408],[100,24491],[100,24574],[100,24658],[100,24741],[100,24824]]",1014.3405,1017.9388,96.14583333,2.795,"[{""rating"":97.5,""responseTime"":0.9225000000000136},{""rating"":96.14583333333333,""responseTime"":2.7950000000000728}]",space,3.0491,,1017.939,Definitely yes,100,1017.9452,,,[],,0,7,7,7,1,audio/Narrative7Situation7.wav,audio/Narrative8Situation7.wav,audio/Narrative5Situation7.wav,audio/Narrative6Situation7.wav,5,3,4,5,,,,,,,,,,,,,,,,,,,,,,,,,,,,,,,,,,,,,,,
,,,,,559c3b0efdf99b32b6963e81,2025-07-07_22h01.19.151,group3.4_multiperson,2023.2.2,Win32,59.52380952,686c2ebf0248f13bef9af11f,686c7b8d2c46d9fc5383faba,,,,,,,,,,,,,,,,,,,,,,,,,,,,,1017.9457,2,audio/Narrative6Situation8.wav,1022.9538,,1022.9538,1029.8182,"[[999,0],[999,83],[999,166],[999,249],[999,332],[999,416],[999,499],[999,582],[999,666],[999,749],[999,832],[999,916],[999,999],[999,1082],[999,1166],[999,1249],[999,1332],[999,1415],[999,1499],[999,1582],[999,1665],[999,1749],[999,1832],[999,1915],[999,1999],[999,2082],[999,2165],[999,2248],[999,2332],[999,2415],[999,2499],[999,2582],[999,2665],[999,2749],[999,2832],[999,2915],[999,2999],[999,3082],[999,3165],[999,3249],[999,3332],[999,3415],[999,3498],[999,3581],[999,3665],[999,3748],[999,3831],[999,3915],[999,3999],[999,4081],[999,4165],[999,4248],[999,4332],[999,4415],[999,4498],[999,4581],[999,4664],[999,4748],[999,4831],[999,4914],[999,4998],[999,5082],[999,5165],[999,5248],[999,5331],[999,5415],[999,5497],[999,5581],[999,5664],[999,5747],[999,5831],[999,5915],[999,5998],[999,6081],[999,6164],[999,6247],[999,6330],[999,6415],[999,6498],[12.5,6582],[9.8,6664],[9.3,6748],[8.8,6830]]",1029.8185,1037.3656,0.833333333,3.0243,"[{""rating"":0.8333333333333359,""responseTime"":3.0243000000118627}]",space,6.9985,,1037.3657,Definitely yes,100,1037.3705,,,[],,0,8,8,8,1,audio/Narrative7Situation8.wav,audio/Narrative8Situation8.wav,audio/Narrative5Situation8.wav,audio/Narrative6Situation8.wav,2,3,3,5,,,,,,,,,,,,,,,,,,,,,,,,,,,,,,,,,,,,,,,
,,,,,559c3b0efdf99b32b6963e81,2025-07-07_22h01.19.151,group3.4_multiperson,2023.2.2,Win32,59.52380952,686c2ebf0248f13bef9af11f,686c7b8d2c46d9fc5383faba,,,,,,,,,,,,,,,,,,,,,,,,,,,,,1037.371,2,audio/Narrative6Situation9.wav,1041.3808,,1041.3809,1051.3443,"[[999,0],[999,83],[999,166],[999,249],[999,333],[999,416],[999,499],[999,582],[999,666],[999,749],[999,833],[999,916],[999,999],[999,1082],[999,1166],[999,1249],[999,1332],[999,1415],[999,1499],[999,1582],[999,1665],[999,1749],[999,1832],[999,1915],[999,1999],[999,2082],[999,2165],[999,2249],[999,2332],[999,2415],[999,2498],[999,2582],[999,2665],[999,2749],[999,2832],[999,2915],[999,2998],[999,3082],[999,3165],[999,3248],[999,3331],[999,3415],[999,3499],[999,3582],[999,3665],[999,3749],[999,3832],[999,3915],[999,3998],[999,4081],[999,4165],[999,4248],[999,4332],[8.5,4415],[7.3,4498],[6.3,4582],[6,4664],[5.9,4748],[5.7,4832],[5.5,4914],[5.5,4998],[5.5,5081],[5.5,5164],[5.5,5248],[5.5,5331],[5.5,5414],[5.5,5498],[5.5,5581],[5.5,5664],[5.5,5748],[5.5,5831],[5.5,5914],[5.5,5997],[5.5,6081],[5.5,6164],[5.5,6247],[5.5,6331],[5.5,6414],[5.5,6497],[5.5,6580],[5.5,6663],[5.5,6747],[5.5,6830],[4.9,6914],[2.8,6997],[2,7081],[1.3,7164],[1.1,7247],[1.1,7330],[1.1,7413],[0.7,7497],[0.4,7580],[0.2,7663]]",1051.3445,1057.9253,0,3.7911,"[{""rating"":1.3541666666666674,""responseTime"":3.0385000000001128},{""rating"":0,""responseTime"":3.7911000000240165}]",space,6.0417,,1057.9254,Partially,50,1057.9313,,,[],,0,9,9,9,1,audio/Narrative7Situation9.wav,audio/Narrative8Situation9.wav,audio/Narrative5Situation9.wav,audio/Narrative6Situation9.wav,2,3,3,4,,,,,,,,,,,,,,,,,,,,,,,,,,,,,,,,,,,,,,,
,,,,,559c3b0efdf99b32b6963e81,2025-07-07_22h01.19.151,group3.4_multiperson,2023.2.2,Win32,59.52380952,686c2ebf0248f13bef9af11f,686c7b8d2c46d9fc5383faba,,,,,,,,,,,,,,,,,,,,,,,,,,,,,1057.9317,2,audio/Narrative5Situation1.wav,1062.9403,,1062.9404,1076.2359,"[[999,0],[999,82],[999,166],[999,249],[999,332],[999,415],[999,499],[999,582],[999,666],[999,749],[999,832],[999,915],[999,999],[999,1082],[999,1166],[999,1249],[999,1332],[999,1415],[999,1499],[999,1582],[999,1665],[999,1749],[999,1832],[999,1915],[999,2000],[999,2082],[999,2166],[999,2249],[999,2332],[999,2415],[999,2498],[999,2582],[999,2665],[999,2748],[999,2832],[999,2915],[999,2999],[999,3081],[999,3165],[999,3249],[999,3332],[999,3415],[999,3498],[999,3581],[999,3665],[999,3749],[999,3832],[999,3915],[999,3999],[999,4081],[50,4165],[50,4248],[50,4331],[50,4414],[50,4498],[51.7,4582],[57.1,4665],[59.8,4748],[64,4831],[67.3,4915],[68.1,4998],[68.1,5081],[68.1,5164],[68.1,5247],[68.1,5331],[68.2,5414],[68.2,5497],[68.2,5581],[68.2,5664],[68,5748],[68.8,5831],[69.3,5915],[71.8,5998],[72.9,6081],[73.4,6164],[73.9,6247],[73.9,6330],[74.5,6415],[76.7,6498],[79.1,6581],[80.1,6663],[80.5,6747],[81.6,6831],[82,6914],[82,6997],[82,7080],[82,7163],[82,7247],[82,7330],[82,7413],[82,7497],[82,7580],[82,7663],[82,7747],[82,7830],[82,7913],[82,7996],[82,8080],[82,8163],[82,8246],[82,8329],[82,8413],[82,8496],[82,8580],[82,8663],[82,8746],[82,8829],[82,8913],[82,8996],[82,9079],[82,9163],[82,9246],[82,9329],[82,9413],[82,9496],[82,9579],[82,9663],[82.5,9746],[84.5,9830],[85.3,9913],[85.3,9996],[85.4,10080],[85.9,10163],[86.8,10246],[88.3,10330],[91,10413],[93.2,10496],[94.5,10579],[95.3,10663],[95.6,10746],[95.6,10829],[95.7,10913],[95.8,10995],[95.9,11079],[96.1,11162],[96.4,11246],[96.4,11329],[96.5,11412],[96.5,11495],[96.5,11578],[96.5,11662],[96.6,11745],[96.7,11828],[96.7,11912],[96.7,11995],[96.7,12078],[96.9,12162],[97,12245],[97.1,12328],[97.1,12412],[97.1,12495],[97.1,12578],[97.1,12662],[97.1,12745],[97.1,12828],[97.1,12911],[97.1,12995],[97.1,13078],[97.1,13162],[97.1,13245]]",1076.2362,1079.8846,96.875,2.3912,"[{""rating"":96.875,""responseTime"":2.3911999999882028}]",space,3.1099,,1079.8847,Definitely yes,100,1079.8909,,,[],,0,10,10,10,1,audio/Narrative8Situation1.wav,audio/Narrative7Situation1.wav,audio/Narrative6Situation1.wav,audio/Narrative5Situation1.wav,5,2,2,5,,,,,,,,,,,,,,,,,,,,,,,,,,,,,,,,,,,,,,,
,,,,,559c3b0efdf99b32b6963e81,2025-07-07_22h01.19.151,group3.4_multiperson,2023.2.2,Win32,59.52380952,686c2ebf0248f13bef9af11f,686c7b8d2c46d9fc5383faba,,,,,,,,,,,,,,,,,,,,,,,,,,,,,1079.8915,2,audio/Narrative5Situation2.wav,1082.9002,,1082.9002,1112.3736,"[[999,0],[999,82],[999,166],[999,249],[999,332],[999,416],[999,500],[999,582],[999,666],[999,749],[999,832],[999,916],[999,999],[999,1082],[999,1166],[999,1249],[999,1332],[999,1415],[999,1499],[999,1582],[999,1665],[999,1749],[999,1832],[999,1915],[999,1999],[999,2082],[999,2165],[999,2248],[999,2332],[999,2415],[999,2499],[999,2582],[999,2665],[999,2749],[999,2832],[999,2915],[999,2998],[999,3081],[999,3165],[999,3248],[999,3331],[999,3415],[999,3498],[999,3581],[999,3665],[999,3749],[999,3832],[999,3915],[999,3998],[999,4081],[999,4165],[999,4248],[999,4332],[999,4415],[999,4498],[999,4581],[999,4664],[999,4748],[999,4831],[999,4914],[999,4998],[999,5081],[999,5165],[999,5248],[999,5331],[999,5414],[999,5497],[999,5581],[999,5664],[999,5747],[999,5831],[999,5914],[999,5998],[86.1,6080],[86.7,6165],[87.8,6248],[89.9,6331],[91.8,6414],[92.8,6498],[93.2,6580],[93.2,6664],[93.2,6747],[93.2,6830],[93.2,6914],[93.2,6997],[93.2,7080],[93.2,7164],[93.2,7247],[93.2,7330],[94,7414],[95.8,7497],[97.4,7580],[98.1,7664],[98.8,7747],[99.1,7830],[99.1,7913],[99.1,7997],[99.1,8080],[99.1,8163],[99.1,8246],[99.1,8330],[99.2,8414],[99.2,8496],[99.2,8580],[99.2,8663],[99.2,8746],[99.2,8830],[99.2,8913],[99.2,8996],[99.2,9079],[99.2,9163],[99.2,9246],[99.2,9329],[99.2,9413],[99.2,9496],[99.2,9579],[99.2,9663],[99.2,9746],[99.2,9829],[99.2,9913],[99.2,9996],[99.2,10079],[99.2,10163],[99.2,10246],[99.2,10329],[99.2,10412],[99.2,10496],[99.2,10579],[99.2,10662],[99.2,10746],[99.2,10829],[99.2,10912],[99.2,10996],[99.2,11079],[99.2,11162],[99.2,11246],[99.2,11329],[99.2,11412],[99.2,11495],[99.2,11579],[99.2,11662],[99.2,11745],[99.2,11829],[99.2,11912],[99.2,11995],[99.2,12079],[99.2,12162],[99.2,12245],[99.2,12328],[99.2,12412],[99.2,12495],[99.2,12578],[99.2,12662],[99.2,12745],[99.2,12828],[99.2,12912],[99.2,12995],[99.2,13078],[99.2,13162],[99.2,13245],[99.2,13328],[99.2,13411],[99.2,13495],[99.2,13578],[99.2,13661],[99.2,13744],[99.2,13828],[99.2,13911],[99.2,13995],[99.2,14078],[99.2,14161],[99.2,14244],[99.2,14328],[99.2,14411],[99.2,14494],[99.2,14577],[99.2,14661],[99.2,14744],[99.2,14827],[99.2,14911],[99.2,14994],[99.2,15077],[99.2,15161],[99.2,15244],[99.2,15327],[99.2,15411],[99.2,15494],[99.2,15577],[99.2,15661],[99.2,15744],[99.2,15827],[99.2,15911],[99.2,15994],[99.2,16077],[99.2,16161],[99.2,16244],[99.2,16327],[99.2,16411],[99.2,16494],[99.2,16577],[99.2,16660],[99.2,16743],[99.2,16827],[99.2,16910],[99.2,16994],[99.2,17077],[99.2,17160],[99.2,17243],[99.2,17327],[99.2,17410],[99.2,17493],[99.2,17577],[99.2,17660],[99.2,17743],[99.2,17827],[99.2,17910],[99.2,17993],[99.2,18077],[99.2,18160],[99.2,18243],[99.2,18327],[99.2,18410],[99.2,18493],[99.2,18576],[99.2,18660],[99.2,18743],[99.2,18826],[99.2,18909],[99.2,18993],[99.2,19076],[99.2,19159],[99.2,19243],[99.2,19326],[99.2,19409],[99.2,19493],[99.2,19576],[99.2,19659],[99.2,19743],[99.2,19826],[99.2,19909],[99.2,19993],[99.2,20076],[99.2,20159],[99.2,20242],[99.2,20326],[99.2,20409],[99.2,20492],[99.2,20576],[99.2,20659],[99.2,20742],[99.2,20826],[99.2,20909],[99.2,20992],[99.2,21076],[99.2,21159],[99.2,21242],[99.2,21325],[99.2,21409],[99.2,21492],[99.2,21575],[99.2,21659],[99.2,21742],[99.2,21825],[99.2,21908],[99.2,21992],[99.2,22075],[99.2,22158],[99.2,22242],[99.2,22325],[99.2,22408],[99.2,22492],[99.2,22575],[99.2,22658],[99.2,22742],[99.2,22825],[99.2,22908],[99.2,22991],[99.2,23075],[99.2,23158],[99.2,23241],[99.2,23325],[99.2,23408],[99.2,23491],[99.2,23575],[99.2,23658],[99.2,23741],[99.2,23825],[99.2,23908],[99.2,23991],[99.2,24074],[99.2,24157],[99.2,24241],[99.2,24324],[99.2,24407],[99.2,24491],[99.2,24574],[99.2,24657],[99.2,24741],[99.2,24824],[99.2,24907],[99.2,24991],[99.2,25074],[99.2,25157],[99.2,25241],[99.2,25324],[99.2,25407],[99.2,25491],[99.2,25574],[99.2,25657],[99.2,25741],[99.2,25824],[99.2,25907],[99.2,25990],[99.2,26073],[99.2,26157],[99.2,26240],[99.2,26324],[99.2,26407],[99.2,26490],[99.2,26574],[99.2,26657],[99.2,26740],[99.2,26823],[99.2,26907],[99.2,26990],[99.2,27073],[99.2,27157],[99.2,27240],[99.2,27323],[99.2,27407],[99.2,27490],[99.2,27573],[99.2,27656],[99.2,27740],[99.2,27823],[99.2,27906],[99.2,27990],[99.2,28073],[99.2,28156],[99.2,28240],[99.2,28323],[99.2,28406],[99.2,28490],[99.2,28573],[99.2,28656],[99.2,28740],[99.2,28823],[99.2,28906],[99.2,28989],[99.2,29073],[99.2,29156],[99.2,29240],[99.2,29323],[99.2,29406]]",1112.3739,1115.789,99.89583333,1.6419,"[{""rating"":99.89583333333334,""responseTime"":1.6418999999762036}]",space,2.8667,,1115.7891,Partially,50,1115.7953,,,[],,0,11,11,11,1,audio/Narrative8Situation2.wav,audio/Narrative7Situation2.wav,audio/Narrative6Situation2.wav,audio/Narrative5Situation2.wav,3,3,3,3,,,,,,,,,,,,,,,,,,,,,,,,,,,,,,,,,,,,,,,
,,,,,559c3b0efdf99b32b6963e81,2025-07-07_22h01.19.151,group3.4_multiperson,2023.2.2,Win32,59.52380952,686c2ebf0248f13bef9af11f,686c7b8d2c46d9fc5383faba,,,,,,,,,,,,,,,,,,,,,,,,,,,,,1115.7958,2,audio/Narrative5Situation3.wav,1118.8046,,1118.8047,1132.7167,"[[100,750],[100,832],[96.6,917],[74.3,1916],[74.4,1999],[73.6,2083],[71.6,2166],[70.3,2249],[68.4,2333],[65.9,2416],[64.8,2500],[64.7,2582],[64.7,2665],[64.7,2748],[64.7,2832],[64.7,2915],[65.2,2999],[83.5,3082],[99.9,3165],[100,3248],[100,3332],[100,3415],[100,3498],[100,3581],[100,3665],[100,3748],[100,3831],[100,3915],[100,3998],[100,4081],[100,4164],[100,4248],[100,4331],[100,4415],[100,4498],[100,4581],[100,4664],[100,4748],[100,4831],[100,4914],[100,4998],[100,5081],[100,5164],[100,5248],[100,5331],[100,5414],[100,5497],[100,5581],[100,5664],[100,5747],[100,5831],[100,5914],[100,5997],[100,6081],[100,6164],[100,6247],[100,6330],[100,6414],[100,6497],[100,6581],[100,6663],[100,6747],[100,6830],[100,6913],[100,6997],[100,7080],[100,7164],[100,7247],[100,7330],[100,7413],[100,7497],[100,7580],[100,7663],[100,7747],[100,7830],[100,7913],[100,7996],[100,8080],[100,8163],[100,8246],[100,8330],[100,8413],[100,8497],[100,8580],[100,8663],[100,8746],[100,8830],[100,8913],[100,8996],[100,9079],[100,9163],[100,9246],[100,9329],[100,9413],[100,9496],[100,9579],[100,9663],[100,9746],[100,9829],[100,9913],[100,9996],[100,10079],[100,10163],[100,10246],[100,10329],[100,10412],[100,10496],[100,10579],[100,10662],[100,10746],[100,10829],[100,10912],[100,10996],[100,11079],[100,11162],[100,11246],[100,11329],[100,11412],[100,11496],[100,11579],[100,11662],[100,11745],[100,11829],[100,11912],[100,11995],[100,12079],[100,12162],[100,12245],[100,12329],[100,12412],[100,12495],[100,12578],[100,12662],[100,12745],[100,12828],[100,12912],[100,12995],[100,13078],[100,13162],[100,13245],[100,13328],[100,13411],[100,13495],[100,13578],[100,13661],[100,13745],[100,13828],[100,13911]]",1132.7168,1136.0322,96.35416667,2.278,"[{""rating"":98.64583333333333,""responseTime"":1.2381000000236781},{""rating"":96.35416666666667,""responseTime"":2.27800000000002}]",space,2.7702,,1136.0323,Not at all,0,1136.0385,,,[],,0,12,12,12,1,audio/Narrative8Situation3.wav,audio/Narrative7Situation3.wav,audio/Narrative6Situation3.wav,audio/Narrative5Situation3.wav,4,8,5,3,,,,,,,,,,,,,,,,,,,,,,,,,,,,,,,,,,,,,,,
,,,,,559c3b0efdf99b32b6963e81,2025-07-07_22h01.19.151,group3.4_multiperson,2023.2.2,Win32,59.52380952,686c2ebf0248f13bef9af11f,686c7b8d2c46d9fc5383faba,,,,,,,,,,,,,,,,,,,,,,,,,,,,,1136.039,2,audio/Narrative5Situation4.wav,1137.0484,,1137.0485,1157.4419,"[[999,0],[999,83],[999,166],[999,249],[999,333],[999,416],[999,499],[999,582],[999,666],[999,749],[999,832],[999,915],[999,999],[999,1082],[999,1165],[999,1249],[999,1332],[999,1415],[999,1499],[999,1582],[999,1666],[999,1749],[999,1832],[999,1915],[999,2000],[999,2083],[95.6,2166],[97.8,2249],[98,2332],[98.2,2415],[99.5,2499],[99.9,2581],[99.9,2665],[99.9,2748],[99.9,2832],[99.9,2915],[99.9,2998],[99.9,3082],[99.9,3165],[99.9,3248],[99.9,3331],[99.9,3415],[99.9,3498],[99.9,3581],[99.9,3665],[99.9,3748],[99.9,3831],[99.9,3915],[99.9,3998],[99.9,4081],[99.9,4165],[99.9,4248],[99.9,4331],[99.9,4415],[99.9,4498],[99.9,4581],[99.9,4664],[99.9,4748],[99.9,4831],[99.9,4914],[99.9,4998],[99.9,5081],[99.9,5164],[99.9,5248],[99.9,5331],[99.9,5414],[99.9,5497],[99.9,5581],[99.9,5664],[98.5,5748],[94.7,5831],[94.1,5914],[92.3,5998],[92.2,6081],[92.2,6164],[92.2,6248],[88.9,6331],[70.6,6414],[53.2,6498],[48.8,6581],[48.2,6664],[48.2,6747],[48.2,6830],[45.1,6915],[33.5,6998],[29.4,7081],[29.4,7163],[29.4,7247],[29,7331],[24.6,7414],[24.3,7497],[24.3,7580],[24.3,7663],[23,7747],[21.7,7831],[21.1,7913],[21.1,7997],[21.1,8080],[21.1,8163],[21.1,8247],[20.4,8330],[19.7,8413],[19.7,8496],[19.7,8580],[19.7,8663],[19.7,8746],[19.7,8830],[19.7,8913],[19.7,8996],[19.7,9080],[19.7,9163],[19.7,9247],[19.8,9329],[19.8,9413],[22.1,9497],[39.3,9580],[64.9,9663],[80.5,9746],[84,9830],[88.2,9913],[93.4,9996],[96.5,10079],[96.5,10162],[96.9,10246],[97.5,10330],[98.8,10413],[99.4,10496],[99.9,10580],[99.9,10662],[99.9,10746],[99.9,10829],[99.9,10912],[99.9,10996],[99.9,11079],[99.9,11162],[99.9,11246],[99.9,11329],[99.9,11412],[99.9,11495],[99.9,11579],[99.9,11662],[99.9,11745],[99.9,11829],[99.9,11912],[99.9,11996],[99.9,12079],[99.9,12162],[99.9,12245],[99.9,12328],[99.9,12412],[99.9,12495],[99.9,12578],[99.9,12662],[99.9,12745],[99.9,12828],[99.9,12912],[99.9,12995],[99.9,13078],[99.9,13161],[99.9,13245],[99.9,13328],[99.9,13412],[99.9,13495],[99.9,13578],[99.9,13662],[99.9,13745],[99.9,13828],[99.9,13911],[99.9,13995],[99.9,14078],[99.9,14161],[99.9,14244],[99.9,14328],[99.9,14411],[99.9,14494],[99.9,14578],[99.9,14661],[99.9,14744],[99.9,14827],[99.9,14911],[99.9,14994],[99.9,15078],[99.9,15161],[99.9,15244],[99.9,15327],[99.9,15411],[99.9,15494],[99.9,15577],[99.9,15661],[99.9,15744],[99.9,15827],[99.9,15911],[99.9,15994],[99.9,16077],[99.9,16160],[99.9,16244],[99.9,16327],[99.9,16410],[99.9,16494],[99.9,16577],[99.9,16660],[99.9,16744],[99.9,16827],[99.9,16910],[99.9,16994],[99.9,17077],[99.9,17160],[99.9,17244],[99.9,17327],[99.9,17410],[99.9,17493],[99.9,17577],[99.9,17660],[99.9,17743],[99.9,17827],[99.9,17910],[99.9,17993],[99.9,18077],[99.9,18160],[99.9,18243],[99.9,18326],[99.9,18410],[99.9,18493],[99.9,18576],[99.9,18660],[99.9,18743],[99.9,18826],[99.9,18910],[99.9,18993],[99.9,19076],[99.9,19160],[99.9,19243],[99.9,19326],[99.9,19410],[99.9,19493],[99.9,19576],[99.9,19660],[99.9,19743],[99.9,19826],[99.9,19909],[99.9,19993],[99.9,20076],[99.9,20159],[99.9,20242],[99.9,20326]]",1157.4422,1163.1729,97.60416667,4.1373,"[{""rating"":91.77083333333333,""responseTime"":2.838300000011941},{""rating"":97.60416666666667,""responseTime"":4.137300000011919}]",space,5.1926,,1163.173,Partially,50,1163.1791,,,[],,0,13,13,13,1,audio/Narrative8Situation4.wav,audio/Narrative7Situation4.wav,audio/Narrative6Situation4.wav,audio/Narrative5Situation4.wav,3,3,2,1,,,,,,,,,,,,,,,,,,,,,,,,,,,,,,,,,,,,,,,
,,,,,559c3b0efdf99b32b6963e81,2025-07-07_22h01.19.151,group3.4_multiperson,2023.2.2,Win32,59.52380952,686c2ebf0248f13bef9af11f,686c7b8d2c46d9fc5383faba,,,,,,,,,,,,,,,,,,,,,,,,,,,,,1163.1797,2,audio/Narrative5Situation5.wav,1168.1878,,1168.1879,1183.6162,"[[999,0],[999,83],[999,166],[999,249],[999,333],[999,416],[999,499],[999,583],[999,666],[999,749],[999,832],[999,916],[999,999],[999,1082],[999,1166],[999,1249],[999,1332],[999,1416],[999,1499],[999,1582],[999,1665],[999,1749],[999,1832],[999,1915],[999,1999],[999,2082],[999,2165],[999,2249],[999,2332],[999,2415],[999,2498],[999,2582],[999,2665],[999,2749],[999,2832],[999,2915],[999,2998],[999,3082],[999,3165],[999,3248],[999,3332],[999,3415],[999,3498],[999,3582],[999,3665],[999,3749],[999,3832],[999,3915],[999,3998],[999,4081],[999,4165],[999,4248],[999,4332],[999,4415],[999,4498],[999,4581],[999,4664],[999,4748],[999,4832],[999,4915],[999,4998],[999,5082],[999,5165],[999,5248],[8.9,5331],[7.6,5415],[6.7,5498],[6,5581],[5.9,5664],[5.5,5748],[5.1,5831],[4.7,5914],[4.6,5998],[4.2,6081],[4.1,6164],[4,6247],[3.9,6331],[3.9,6414],[3.9,6497],[3.9,6581],[3.9,6664],[3.9,6747],[3.9,6830],[3.9,6914],[3.9,6997],[3.9,7080],[3.9,7164],[3.9,7247],[3.9,7330],[3.9,7414],[3.9,7497],[3.9,7580],[3.9,7663],[3.9,7747],[3.9,7830],[3.9,7913],[3.9,7997],[3.9,8080],[3.9,8163],[3.9,8247],[3.9,8330],[3.9,8413],[3.9,8496],[3.9,8579],[3.9,8663],[3.9,8746],[3.9,8830],[3.9,8913],[3.9,8996],[3.8,9079],[3.8,9163],[3.2,9247],[1.6,9330],[1.3,9413],[1.3,9496],[1.3,9579],[1.3,9663],[1.3,9746],[1.3,9829],[1.3,9913],[1.3,9996],[1.3,10079],[1.3,10163],[1.3,10246],[1.3,10329],[1.3,10412],[1.3,10496],[1.3,10579],[1.3,10663],[1.3,10746],[1,10830],[0.1,10913]]",1183.6165,1186.9816,0,2.6728,"[{""rating"":0,""responseTime"":1.5066999999880863},{""rating"":0,""responseTime"":2.6728000000118755}]",space,2.8253,,1186.9817,Not at all,0,1186.9882,,,[],,0,14,14,14,1,audio/Narrative8Situation5.wav,audio/Narrative7Situation5.wav,audio/Narrative6Situation5.wav,audio/Narrative5Situation5.wav,2,5,2,5,,,,,,,,,,,,,,,,,,,,,,,,,,,,,,,,,,,,,,,
,,,,,559c3b0efdf99b32b6963e81,2025-07-07_22h01.19.151,group3.4_multiperson,2023.2.2,Win32,59.52380952,686c2ebf0248f13bef9af11f,686c7b8d2c46d9fc5383faba,,,,,,,,,,,,,,,,,,,,,,,,,,,,,1186.9888,2,audio/Narrative5Situation6.wav,1189.9971,,1189.9972,1195.6798,"[[999,0],[999,83],[999,166],[999,249],[999,333],[999,416],[999,499],[999,582],[999,666],[999,749],[999,832],[999,916],[999,999],[999,1082],[999,1166],[999,1249],[999,1332],[999,1415],[999,1499],[999,1582],[999,1666],[999,1750],[999,1833],[999,1915],[999,1999],[999,2083],[999,2166],[999,2249],[999,2333],[999,2415],[999,2498],[999,2582],[999,2665],[999,2749],[999,2832],[999,2915],[999,2999],[999,3082],[999,3165],[999,3248],[999,3332],[999,3415],[999,3499],[999,3581],[999,3665],[999,3748],[999,3832],[999,3915],[999,3998],[999,4082],[999,4165],[59,4249],[58.9,4331],[58.8,4414],[58.8,4498],[58.1,4582],[54,4665],[52.8,4748],[51.6,4832],[50.7,4915],[50.6,4998],[50.6,5081],[50.6,5164],[50.6,5248],[50.6,5331],[50.6,5414],[50.6,5497],[50.6,5581],[54.4,5665]]",1195.6801,1201.9598,70.83333333,4.2716,"[{""rating"":70.83333333333334,""responseTime"":4.27159999996411}]",space,5.7323,,1201.96,Partially,50,1201.9658,,,[],,0,15,15,15,1,audio/Narrative8Situation6.wav,audio/Narrative7Situation6.wav,audio/Narrative6Situation6.wav,audio/Narrative5Situation6.wav,2,3,2,3,,,,,,,,,,,,,,,,,,,,,,,,,,,,,,,,,,,,,,,
