consent.started,consent.stopped,consentResponse.keys,consentResponse.rt,consentResponse.duration,participantID,date,expName,psychopyVersion,OS,frameRate,STUDY_ID,SESSION_ID,opening1.started,opening1.stopped,keyEndingOpening1.keys,keyEndingOpening1.rt,keyEndingOpening1.duration,volumeAdjust.started,volumeAdjust.stopped,endingAdjust.keys,endingAdjust.rt,endingAdjust.duration,opening2.started,opening2.stopped,keyEndingOpening.keys,keyEndingOpening.rt,keyEndingOpening.duration,mouse.x,mouse.y,mouse.leftButton,mouse.midButton,mouse.rightButton,mouse.time,instructionLoop.thisRepN,instructionLoop.thisTrialN,instructionLoop.thisN,instructionLoop.thisIndex,instructionLoop.ran,readyForAudio.started,readyForAudio.stopped,fixation.started,run,audio_played,fixation.stopped,endPractice.keys,audioPre.started,audioPre.stopped,continuousResponses_audio,intRating.started,intRating.stopped,intQuestionSlider.response,intQuestionSlider.rt,intQuestionSlider.history,confirmResponse.keys,confirmResponse.rt,confirmResponse.duration,catchQuestion.started,catch_label,catch_value,catchQuestion.stopped,catchQuestionSlider.response,catchQuestionSlider.rt,catchQuestionSlider.history,confirmResponse_2.keys,audioRunLoop.thisRepN,audioRunLoop.thisTrialN,audioRunLoop.thisN,audioRunLoop.thisIndex,audioRunLoop.ran,conditions1_1,conditions2_1,conditions1_2,conditions2_2,dur1_1,dur2_1,dur1_2,dur2_2,endPractice.rt,endPractice.duration,confirmResponse_2.rt,confirmResponse_2.duration,runIntervalBreak.started,runIntervalBreak.stopped,endingBreakKey.keys,endingBreakKey.rt,endingBreakKey.duration,connection.started,connection.stopped,connectionEnding.keys,connectionEnding.rt,connectionEnding.duration,readyForText.started,readyForText.stopped,textPre.started,run_dup,textPre.stopped,continuousResponses_text,textRunLoop.thisRepN,textRunLoop.thisTrialN,textRunLoop.thisN,textRunLoop.thisIndex,textRunLoop.ran,text1_1,text1_2,text2_1,text2_2,runBreakText.started,runBreakText.stopped,endingBreakKey_2.keys,endingBreakKey_2.rt,endingBreakKey_2.duration,ending.started,ending.stopped,endingEnding.keys,endingEnding.rt,endingEnding.duration
0.0002,4.5348,y,4.2211,,55ec49b67480920010aaa4e8,2025-07-07_23h19.16.262,group3.4_multiperson,2023.2.2,Win32,144.9275362,686c2ebf0248f13bef9af11f,686c8dcd263603325a5369f5,,,,,,,,,,,,,,,,,,,,,,,,,,,,,,,,,,,,,,,,,,,,,,,,,,,,,,,,,,,,,,,,,,,,,,,,,,,,,,,,,,,,,,,,,,,,,,,,,,,,,,,,
,,,,,55ec49b67480920010aaa4e8,2025-07-07_23h19.16.262,group3.4_multiperson,2023.2.2,Win32,144.9275362,686c2ebf0248f13bef9af11f,686c8dcd263603325a5369f5,4.5349,9.6527,space,5.0655,,,,,,,,,,,,,,,,,,,,,,,,,,,,,,,,,,,,,,,,,,,,,,,,,,,,,,,,,,,,,,,,,,,,,,,,,,,,,,,,,,,,,,,,,,,,,,,,,,,,
,,,,,55ec49b67480920010aaa4e8,2025-07-07_23h19.16.262,group3.4_multiperson,2023.2.2,Win32,144.9275362,686c2ebf0248f13bef9af11f,686c8dcd263603325a5369f5,,,,,,9.6528,35.1664,space,25.2056,,,,,,,,,,,,,,,,,,,,,,,,,,,,,,,,,,,,,,,,,,,,,,,,,,,,,,,,,,,,,,,,,,,,,,,,,,,,,,,,,,,,,,,,,,,,,,,
,,,,,55ec49b67480920010aaa4e8,2025-07-07_23h19.16.262,group3.4_multiperson,2023.2.2,Win32,144.9275362,686c2ebf0248f13bef9af11f,686c8dcd263603325a5369f5,,,,,,,,,,,35.1683,44.8191,space,9.6428,,[],[],[],[],[],[],0,0,0,0,1,,,,,,,,,,,,,,,,,,,,,,,,,,,,,,,,,,,,,,,,,,,,,,,,,,,,,,,,,,,,,,,,,,,,,,,,,,,,,,
,,,,,55ec49b67480920010aaa4e8,2025-07-07_23h19.16.262,group3.4_multiperson,2023.2.2,Win32,144.9275362,686c2ebf0248f13bef9af11f,686c8dcd263603325a5369f5,,,,,,,,,,,44.8194,58.194,space,13.3364,,[],[],[],[],[],[],1,0,1,0,1,,,,,,,,,,,,,,,,,,,,,,,,,,,,,,,,,,,,,,,,,,,,,,,,,,,,,,,,,,,,,,,,,,,,,,,,,,,,,,
,,,,,55ec49b67480920010aaa4e8,2025-07-07_23h19.16.262,group3.4_multiperson,2023.2.2,Win32,144.9275362,686c2ebf0248f13bef9af11f,686c8dcd263603325a5369f5,,,,,,,,,,,58.1943,67.1035,space,8.8887,,[],[],[],[],[],[],2,0,2,0,1,,,,,,,,,,,,,,,,,,,,,,,,,,,,,,,,,,,,,,,,,,,,,,,,,,,,,,,,,,,,,,,,,,,,,,,,,,,,,,
,,,,,55ec49b67480920010aaa4e8,2025-07-07_23h19.16.262,group3.4_multiperson,2023.2.2,Win32,144.9275362,686c2ebf0248f13bef9af11f,686c8dcd263603325a5369f5,,,,,,,,,,,67.1038,93.145,space,26.0334,,[],[],[],[],[],[],3,0,3,0,1,,,,,,,,,,,,,,,,,,,,,,,,,,,,,,,,,,,,,,,,,,,,,,,,,,,,,,,,,,,,,,,,,,,,,,,,,,,,,,
,,,,,55ec49b67480920010aaa4e8,2025-07-07_23h19.16.262,group3.4_multiperson,2023.2.2,Win32,144.9275362,686c2ebf0248f13bef9af11f,686c8dcd263603325a5369f5,,,,,,,,,,,93.1451,104.7005,space,11.5441,,[],[],[],[],[],[],4,0,4,0,1,,,,,,,,,,,,,,,,,,,,,,,,,,,,,,,,,,,,,,,,,,,,,,,,,,,,,,,,,,,,,,,,,,,,,,,,,,,,,,
,,,,,55ec49b67480920010aaa4e8,2025-07-07_23h19.16.262,group3.4_multiperson,2023.2.2,Win32,144.9275362,686c2ebf0248f13bef9af11f,686c8dcd263603325a5369f5,,,,,,,,,,,104.7007,115.5824,space,10.8743,,[],[],[],[],[],[],5,0,5,0,1,,,,,,,,,,,,,,,,,,,,,,,,,,,,,,,,,,,,,,,,,,,,,,,,,,,,,,,,,,,,,,,,,,,,,,,,,,,,,,
,,,,,55ec49b67480920010aaa4e8,2025-07-07_23h19.16.262,group3.4_multiperson,2023.2.2,Win32,144.9275362,686c2ebf0248f13bef9af11f,686c8dcd263603325a5369f5,,,,,,,,,,,,,,,,,,,,,,,,,,,115.5835,118.1587,118.1676,1,audio/Narrative13Situation2.wav,120.1726,,120.1728,149.9086,"[[999,0],[999,96],[999,180],[999,263],[999,346],[999,430],[999,513],[999,596],[999,680],[999,763],[999,846],[999,930],[999,1013],[999,1097],[999,1180],[999,1263],[999,1346],[999,1430],[999,1513],[999,1597],[999,1680],[51.5,1763],[52.5,1847],[52.7,1930],[52.7,2013],[52.7,2096],[52.7,2180],[51.7,2263],[48.2,2347],[47.9,2430],[47.9,2513],[47.9,2596],[47.9,2680],[47.9,2763],[47.9,2846],[47.9,2930],[47.9,3013],[47.9,3096],[47.9,3180],[47.9,3263],[47.9,3346],[47.9,3430],[47.6,3513],[46,3596],[44.9,3680],[44.9,3763],[44.9,3846],[44.9,3930],[44.9,4013],[44.9,4096],[44.9,4180],[44.9,4263],[44.9,4346],[44.9,4430],[44.9,4513],[44.9,4596],[44.9,4680],[44.9,4763],[44.7,4846],[42,4930],[40.7,5013],[36.7,5096],[33.1,5180],[32.2,5263],[32.2,5346],[32.2,5430],[32.2,5513],[32.2,5596],[32.2,5680],[32.2,5763],[32.2,5846],[32.2,5930],[32.2,6013],[32.2,6096],[32.2,6180],[32.2,6263],[32.2,6346],[32.2,6430],[32.2,6513],[31.8,6596],[30.3,6680],[29.8,6763],[29.8,6846],[29.8,6930],[29.8,7013],[29.8,7096],[29.8,7180],[29.8,7263],[29.8,7346],[29.8,7430],[29.8,7513],[29.8,7596],[29.8,7680],[29.8,7763],[29.8,7846],[29.8,7930],[30.2,8013],[87.2,8513],[86.9,8596],[86.8,8680],[86.7,8763],[86.7,8846],[86.8,8930],[87.7,9013],[89.5,9096],[91.2,9180],[91.9,9263],[92.1,9346],[92.5,9430],[92.9,9513],[93.8,9596],[94.6,9680],[94.7,9763],[94.7,9846],[94.7,9930],[94.9,10013],[95.6,10096],[96.3,10180],[96.3,10263],[96.3,10346],[96.3,10430],[96.3,10513],[96.3,10596],[96.3,10680],[96.3,10763],[96.3,10846],[96.3,10930],[96.3,11013],[96.3,11096],[96.3,11180],[96.3,11263],[96.3,11346],[96.2,11430],[95.8,11513],[95,11596],[93.9,11680],[93.9,11763],[93.9,11846],[93.9,11930],[93.9,12013],[93.9,12096],[93.9,12179],[93.9,12263],[93.9,12346],[93.9,12430],[93.9,12513],[93.9,12596],[93.9,12680],[93.9,12763],[93.9,12846],[93.9,12929],[93.9,13013],[93.9,13096],[93.9,13180],[93.9,13263],[93.9,13346],[94.2,13430],[94.7,13513],[96.4,13596],[96.7,13680],[96.7,13763],[96.7,13846],[96.7,13930],[96.7,14013],[96.7,14096],[96.7,14180],[96.7,14263],[96.7,14346],[96.7,14430],[96.7,14513],[96.7,14596],[96.7,14680],[96.7,14763],[96.7,14846],[96.7,14930],[96.6,15013],[96.5,15096],[96.5,15179],[87.7,15263],[83.5,15346],[83.4,15430],[78.1,15513],[64.9,15596],[61.3,15680],[60.5,15763],[60.5,15846],[56,15930],[46.3,16013],[39.6,16096],[35.7,16180],[33.5,16263],[32.1,16346],[29.8,16430],[28.8,16513],[28.8,16596],[28.8,16680],[28.8,16763],[28.7,16846],[24.7,16930],[24.5,17013],[24.5,17096],[24.5,17179],[24.5,17263],[24.5,17346],[24.2,17430],[24.1,17513],[23.8,17596],[23.8,17680],[23.8,17763],[23.7,17846],[22.7,17930],[21.4,18013],[21.3,18096],[21.3,18180],[21.3,18263],[20.6,18346],[20.5,18430],[20.3,18513],[20.2,18596],[18.9,18680],[18.8,18763],[18.8,18846],[18.8,18929],[18.8,19013],[18.8,19096],[18.8,19180],[18.8,19263],[18.8,19346],[18.8,19430],[18.6,19513],[18.6,19596],[18.6,19680],[18.6,19763],[18.6,19846],[18.6,19929],[18.6,20013],[18.6,20096],[16.7,20180],[15.2,20263],[15.2,20346],[15.2,20430],[15.2,20513],[15.2,20596],[15.2,20680],[15.2,20763],[15.2,20846],[15.2,20929],[15.2,21013],[15.2,21096],[15.2,21180],[15.2,21263],[15.2,21346],[15.2,21429],[15.2,21513],[15.2,21596],[15.2,21680],[15.2,21763],[15.2,21846],[15.2,21929],[15.2,22013],[15.2,22096],[15.2,22180],[15.2,22263],[15.2,22346],[18.2,22430],[23.1,22513],[29.2,22596],[36,22680],[42.3,22763],[49.1,22846],[53.2,22929],[57.4,23013],[59.5,23096],[65.6,23180],[65.6,23263],[65.6,23346],[65.6,23430],[65.6,23513],[65.6,23596],[65.6,23680],[65.6,23763],[65.6,23846],[65.6,23929],[65.6,24013],[65.6,24096],[65.6,24180],[65.6,24263],[65.6,24346],[65.6,24430],[65.6,24513],[65.6,24596],[65.7,24680],[67.7,24764],[68.8,24847],[68.8,24929],[68.8,25013],[68.8,25096],[68.8,25179],[68.8,25263],[68.8,25346],[68.8,25429],[68.8,25513],[68.8,25596],[68.8,25679],[68.8,25763],[68.8,25846],[68.8,25929],[68.8,26013],[68.8,26096],[68.8,26179],[68.8,26263],[70.4,26350],[71.3,26430],[71.3,26513],[71.3,26596],[71.3,26680],[71.1,26763],[70.8,26846],[70.8,26930],[71.5,27016],[80,27099],[85.6,27180],[86.6,27266],[86.9,27346],[87.4,27430],[89.1,27514],[89.8,27597],[90.5,27679],[91,27763],[91,27846],[91,27929],[91,28013],[91,28096],[91,28181],[91,28263],[91,28346],[91,28429],[91,28513],[91,28596],[90.9,28679],[90.9,28763],[90.9,28846],[90.9,28929],[90.9,29013],[90.9,29096],[90.9,29179],[90.9,29263],[90.9,29346],[90.8,29429],[90.8,29513],[90.8,29596],[90.8,29679]]",149.9088,157.8251,75.61549039,5.7615,"[{""rating"":74.2874640843614,""responseTime"":4.973599999999976},{""rating"":75.61549039419863,""responseTime"":5.761499999999984}]",space,7.3975,,157.8254,Not at all,0,157.8272,,,[],,0,0,0,0,1,audio/Narrative13Situation2.wav,audio/Narrative13Situation2.wav,audio/Narrative13Situation2.wav,audio/Narrative13Situation2.wav,2,2,2,2,,,,,,,,,,,,,,,,,,,,,,,,,,,,,,,,,,,,,,,
,,,,,55ec49b67480920010aaa4e8,2025-07-07_23h19.16.262,group3.4_multiperson,2023.2.2,Win32,144.9275362,686c2ebf0248f13bef9af11f,686c8dcd263603325a5369f5,,,,,,,,,,,,,,,,,,,,,,,,,,,,,157.8273,1,audio/Narrative7Situation1.wav,165.4362,space,165.4362,221.3108,"[[999,0],[999,83],[999,166],[999,249],[999,333],[999,416],[999,499],[999,583],[999,666],[999,749],[999,833],[999,916],[999,999],[999,1083],[999,1166],[999,1249],[999,1333],[999,1416],[999,1499],[999,1583],[999,1666],[999,1749],[999,1833],[75.3,1916],[78.2,2000],[81,2083],[81,2166],[81,2249],[81,2333],[79.5,2416],[79.4,2499],[79.4,2583],[80.5,2666],[85.6,2749],[88.2,2833],[88.2,2916],[88.2,2999],[88.2,3083],[88.8,3166],[89.9,3249],[92.1,3333],[92.3,3416],[92.3,3499],[92.3,3583],[92.3,3666],[92.3,3749],[92.3,3833],[92.3,3916],[92.3,3999],[90.9,4083],[70.6,4166],[40.4,4250],[39.9,4333],[39.8,4416],[39.7,4499],[39.7,4583],[39.7,4666],[42.3,4749],[58.1,4833],[79.2,4916],[81.9,4999],[85.6,5083],[85.6,5166],[85.6,5249],[84.9,5332],[84.9,5416],[84.9,5499],[84.9,5583],[84.9,5666],[84.9,5749],[84.2,5833],[82.3,5916],[77,5999],[63.7,6083],[61.6,6166],[55.3,6249],[54.7,6333],[52.5,6416],[52.5,6499],[52.8,6583],[59.9,6666],[73.3,6749],[74.2,6833],[74.2,6916],[73.8,6999],[73.3,7083],[73.3,7166],[73.3,7249],[74.3,7333],[74.9,7416],[75,7499],[75,7583],[75,7666],[75,7749],[75.3,7833],[75.6,7916],[75.6,7999],[75.6,8083],[75.7,8166],[76.3,8249],[77.4,8333],[77.8,8416],[77.8,8499],[77.8,8583],[77.8,8666],[77.8,8749],[77.8,8832],[77.8,8916],[77.8,8999],[77.8,9083],[77.8,9166],[77.8,9249],[77.8,9333],[77.8,9416],[77.8,9499],[77.8,9582],[77.8,9666],[75.7,9749],[67.1,9833],[65.6,9916],[65.6,9999],[65.6,10082],[65.6,10166],[65.6,10249],[65.6,10332],[65.6,10416],[65.6,10506],[65.6,10590],[65.5,10673],[63.1,10756],[55.7,10840],[55.7,10923],[55.7,11006],[55.7,11090],[55.1,11173],[53.9,11256],[51,11340],[50.2,11423],[50.2,11506],[50.2,11590],[50.2,11673],[50.2,11756],[50.2,11840],[50.2,11923],[50.2,12006],[50.2,12090],[50.7,12173],[54,12256],[56.5,12340],[58.8,12423],[63.1,12506],[63.1,12590],[63.1,12673],[63.1,12756],[63.1,12840],[63.1,12923],[63.1,13006],[63.1,13090],[63.1,13173],[63.1,13256],[63.1,13340],[63.1,13423],[63.1,13506],[63.1,13589],[63.1,13673],[63.1,13756],[63.1,13839],[63.1,13923],[63.1,14006],[63.1,14090],[63.1,14173],[63.1,14256],[63.1,14340],[63.1,14423],[63.1,14506],[63.1,14590],[63.1,14673],[63.1,14756],[63.1,14840],[63.1,14923],[63.1,15006],[63.1,15090],[63.1,15173],[63.1,15256],[63.1,15340],[63.1,15423],[63.1,15506],[63.1,15590],[63.1,15673],[63.1,15756],[63.1,15840],[63.1,15923],[63.1,16006],[63.1,16090],[63.1,16173],[63.1,16256],[63.1,16340],[63.1,16423],[63.1,16506],[63.1,16590],[63.1,16673],[63.1,16756],[63.1,16839],[63.1,16923],[63.1,17006],[63.1,17090],[63.1,17173],[63,17256],[63,17339],[63,17423],[63,17506],[63,17589],[63,17673],[63,17756],[63,17840],[63,17923],[63,18006],[63,18089],[63,18173],[63,18256],[63,18340],[63,18423],[63,18506],[63,18589],[63,18673],[63,18756],[63,18840],[63,18923],[63,19006],[63,19090],[63,19173],[63,19256],[63,19339],[63,19423],[63,19506],[63,19590],[63,19673],[63,19756],[63,19839],[63,19923],[63,20006],[63,20089],[63,20173],[63,20256],[63,20339],[63,20423],[63,20506],[63,20590],[63,20673],[63,20756],[63,20839],[63,20923],[63,21006],[63,21090],[63,21173],[63,21256],[63,21339],[63,21423],[63,21506],[63,21590],[63,21673],[63,21756],[63,21839],[63,21923],[63,22006],[63,22089],[63,22173],[63,22256],[63,22339],[63,22423],[63,22506],[63,22589],[63,22673],[63,22756],[63,22839],[63,22923],[63,23006],[63,23089],[63,23173],[63,23256],[63,23340],[63,23423],[63,23506],[63,23590],[63,23673],[63,23756],[63,23839],[63.3,23923],[64.2,24006],[64.7,24090],[64.8,24173],[63.5,24256],[52.7,24340],[45.2,24423],[43.1,24506],[42.1,24590],[41.7,24673],[41,24756],[40.1,24840],[39.9,24923],[39.9,25006],[39.9,25090],[40,25173],[40.3,25256],[45.4,25340],[56,25423],[59.4,25506],[59.6,25589],[59.7,25673],[59.7,25756],[59.7,25839],[59.7,25923],[59.7,26006],[59.7,26089],[59.7,26173],[59.7,26256],[58.2,26339],[50.9,26423],[49.4,26506],[49.4,26589],[51.7,26673],[69.8,26756],[71.3,26839],[71.4,26923],[71.4,27006],[73.1,27090],[78.3,27173],[79.4,27256],[79.4,27339],[79.4,27423],[79.4,27506],[79.4,27589],[79.4,27673],[79.4,27756],[79.4,27839],[79.4,27923],[79.4,28006],[79.4,28089],[79.4,28173],[79.4,28263],[79.4,28346],[79.4,28430],[79.4,28513],[79.4,28596],[79.4,28680],[79.4,28763],[79.4,28846],[79.4,28930],[79.4,29013],[79.4,29096],[79.4,29180],[79.4,29263],[79.4,29346],[79.4,29430],[79.4,29513],[79.4,29596],[79.4,29680],[79.4,29763],[79.4,29846],[79.4,29930],[79.4,30013],[79.4,30096],[79.4,30180],[79.4,30263],[79.4,30346],[79.4,30430],[79.4,30513],[79.4,30596],[79.4,30680],[79.4,30763],[79.4,30846],[79.4,30930],[79.4,31013],[79.4,31096],[79.4,31180],[79.4,31263],[79.4,31346],[79.5,31430],[79.6,31513],[79.6,31596],[79.6,31680],[79.6,31763],[79.6,31846],[79.6,31930],[79.6,32013],[79.6,32096],[79.6,32180],[79.6,32263],[79.6,32346],[79.5,32430],[78.5,32514],[78.2,32596],[77.3,32680],[76.3,32763],[76.3,32846],[76.3,32930],[76.3,33013],[76.3,33096],[76.3,33180],[76.3,33263],[76.4,33346],[76.6,33430],[76.6,33513],[76.6,33596],[76.6,33680],[76.6,33763],[76.6,33846],[76.6,33930],[76.6,34013],[76.6,34096],[76.6,34180],[76.6,34263],[76.6,34346],[76.6,34430],[76.6,34513],[76.6,34596],[76.6,34680],[76.6,34763],[76.6,34846],[76.6,34930],[76.6,35013],[76.6,35096],[76.6,35180],[76.6,35263],[76.6,35346],[76.6,35430],[76.6,35513],[76.6,35596],[76.6,35680],[76.6,35763],[76.6,35846],[76.6,35930],[76.6,36013],[76.6,36096],[76.6,36180],[76.6,36263],[76.6,36346],[76.6,36430],[76.6,36513],[76.6,36596],[76.6,36680],[76.6,36763],[76.6,36846],[76.6,36930],[76.6,37013],[76.6,37096],[76.6,37180],[76.6,37263],[76.6,37346],[76.6,37430],[76.6,37513],[76.6,37596],[76.6,37680],[76.6,37763],[76.6,37846],[76.6,37930],[76.6,38013],[76.6,38096],[76.6,38180],[76.6,38263],[76.6,38346],[76.6,38430],[76.6,38513],[76.6,38596],[76.6,38680],[76.6,38763],[76.6,38846],[76.6,38930],[76.6,39013],[76.6,39096],[76.6,39180],[76.6,39263],[76.6,39346],[76.6,39430],[76.6,39513],[76.6,39596],[76.6,39680],[76.6,39763],[76.6,39846],[76.6,39930],[76.6,40013],[76.6,40096],[76.6,40180],[76.6,40263],[76.6,40346],[76.6,40437],[76.6,40520],[76.6,40603],[76.6,40687],[76.6,40770],[76.6,40853],[76.6,40937],[76.6,41020],[76.6,41103],[76.6,41187],[76.6,41270],[76.6,41353],[76.6,41437],[76.6,41520],[76.6,41603],[76.6,41687],[76.6,41770],[76.6,41853],[76.6,41937],[76.6,42020],[76.6,42103],[76.6,42187],[76.6,42270],[76.6,42353],[76.6,42436],[76.6,42520],[76.6,42603],[76.6,42687],[76.6,42770],[76.6,42853],[76.6,42937],[76.6,43020],[76.6,43103],[76.6,43187],[76.6,43270],[76.6,43353],[76.6,43437],[43.5,44021],[45,44103],[63,44187],[69.7,44271],[78.3,44353],[78.8,44437],[79.9,44521],[79.9,44603],[79.9,44687],[79.9,44770],[79.9,44853],[79.2,44937],[78.1,45021],[77.1,45104],[77.1,45187],[77.1,45270],[76.2,50771],[76.3,50853],[76.3,50937],[76.3,51020],[76.3,51103],[76.3,51187],[76.3,51270],[76.3,51353],[76.3,51436],[76.3,51520],[76.3,51603],[76.3,51690],[76.3,51770],[76.3,51853],[76.3,51937],[76.3,52020],[76.3,52103],[76.3,52187],[76.3,52270],[76.3,52353],[76.3,52436],[76.3,52520],[76.3,52603],[76.3,52686],[76.3,52770],[76.3,52853],[76.3,52936],[76.3,53020],[76.3,53103],[76.3,53186],[76.3,53270],[76.3,53353],[76.3,53436],[76.3,53520],[76.3,53603],[76.3,53686],[76.3,53770],[76.3,53853],[76.3,53936],[76.3,54020],[76.3,54103],[76.3,54187],[76.3,54270],[76.3,54353],[76.3,54437],[76.3,54520],[76.3,54604],[76.3,54686],[76.3,54770],[76.3,54853],[70.3,55353],[63.5,55437],[59.9,55520],[58.4,55603],[57.2,55687],[53.5,55771],[53.5,55853]]",221.311,230.4287,94.44219309,7.5186,"[{""rating"":94.4421930929933,""responseTime"":7.518600000000049}]",space,8.5948,,230.4287,Partially,50,230.43,,,[],,0,1,1,1,1,audio/Narrative7Situation1.wav,audio/Narrative8Situation1.wav,audio/Narrative5Situation1.wav,audio/Narrative6Situation1.wav,2,5,5,2,7.6001,,,,,,,,,,,,,,,,,,,,,,,,,,,,,,,,,,,,,,
,,,,,55ec49b67480920010aaa4e8,2025-07-07_23h19.16.262,group3.4_multiperson,2023.2.2,Win32,144.9275362,686c2ebf0248f13bef9af11f,686c8dcd263603325a5369f5,,,,,,,,,,,,,,,,,,,,,,,,,,,,,230.4301,1,audio/Narrative7Situation2.wav,233.4356,,233.4357,240.9008,"[[999,0],[999,83],[999,166],[999,249],[999,333],[999,416],[999,500],[999,583],[999,666],[999,754],[999,833],[999,916],[999,1000],[999,1084],[52.3,1167],[52,1249],[52,1333],[52,1416],[52,1499],[52,1583],[52,1666],[52,1749],[52,1833],[52,1916],[52,1999],[52,2083],[52,2166],[52,2249],[52,2333],[52,2416],[52,2500],[52,2583],[52,2666],[52,2749],[52,2833],[52,2916],[52,2999],[52,3083],[52,3166],[52,3249],[52,3333],[52,3416],[51.8,3499],[51.7,3583],[51.7,3666],[51.7,3749],[51.7,3833],[52.1,3919],[53.6,3999],[54.7,4083],[55.3,4166],[55.4,4249],[55.5,4333],[55.5,4416],[55.5,4499],[55.5,4583],[55.5,4666],[55.5,4749],[55.5,4833],[55.5,4916],[55.5,4999],[55.5,5083],[55.5,5166],[55.5,5249],[55.5,5333],[55.5,5416],[55.5,5499],[55.5,5582],[55.5,5666],[55,5750],[53.2,5835],[51.3,5918],[50.7,5999],[50.7,6083],[50.7,6166],[50.7,6249],[50.7,6333],[50.7,6416],[50.7,6499],[50.7,6583],[50.7,6666],[50.7,6749],[50.7,6833],[50.7,6916],[50.7,6999],[50.7,7082],[50.7,7166],[50.7,7249],[50.7,7333],[50.7,7416]]",240.9009,245.5674,95.06714766,3.7065,"[{""rating"":95.0671476602601,""responseTime"":3.7065000000000055}]",space,4.1524,,245.5675,Not at all,0,245.5687,,,[],,0,2,2,2,1,audio/Narrative7Situation2.wav,audio/Narrative8Situation2.wav,audio/Narrative5Situation2.wav,audio/Narrative6Situation2.wav,3,3,3,3,,,,,,,,,,,,,,,,,,,,,,,,,,,,,,,,,,,,,,,
,,,,,55ec49b67480920010aaa4e8,2025-07-07_23h19.16.262,group3.4_multiperson,2023.2.2,Win32,144.9275362,686c2ebf0248f13bef9af11f,686c8dcd263603325a5369f5,,,,,,,,,,,,,,,,,,,,,,,,,,,,,245.5688,1,audio/Narrative7Situation3.wav,253.5744,,253.5744,262.8173,"[[999,0],[999,83],[999,166],[999,249],[999,333],[999,416],[999,499],[999,583],[999,666],[999,749],[999,833],[999,916],[999,999],[999,1083],[999,1166],[999,1249],[999,1333],[999,1416],[999,1499],[999,1583],[999,1666],[999,1749],[999,1833],[999,1916],[999,1999],[999,2083],[999,2166],[999,2249],[999,2333],[999,2416],[999,2499],[999,2583],[999,2666],[999,2749],[999,2833],[999,2916],[999,2999],[999,3083],[999,3166],[999,3249],[999,3333],[999,3416],[999,3499],[999,3583],[999,3666],[999,3749],[999,3833],[999,3916],[999,3999],[999,4083],[999,4166],[999,4249],[999,4333],[999,4416],[999,4499],[999,4583],[999,4666],[999,4749],[999,4833],[999,4917],[72.1,5000],[85.1,5168],[86.2,5249],[86.2,5333],[87.1,5416],[89.6,5499],[89.9,5583],[90.6,5666],[92.9,5752],[93,5833],[93,5916],[93,5999],[93,6083],[93.3,6167],[94.3,6250],[94.6,6333],[94.6,6416],[94.7,6499],[95.1,6583],[95.2,6666],[95.3,6749],[95.3,6833],[95.3,6916],[95.3,6999],[95.3,7083],[95.3,7166],[95.3,7249],[95.3,7333],[95.3,7416],[95.3,7499],[95.3,7583],[95.3,7666],[94.5,7749],[91.4,7834],[87.2,7916],[85.6,7999],[81.7,8084],[75.5,8167],[71.4,8250],[66.1,8334],[63.7,8417],[59.6,8500],[59.5,8583],[59.5,8666],[59.5,8749],[59.5,8833],[59.5,8916],[59.5,9000],[59.5,9083],[59.5,9166]]",262.8174,267.193,59.83543477,3.8519,"[{""rating"":53.742149199211184,""responseTime"":1.6648000000000138},{""rating"":59.83543477401546,""responseTime"":3.8519000000000005}]",space,3.8607,,267.193,Definitely yes,100,267.1944,,,[],,0,3,3,3,1,audio/Narrative7Situation3.wav,audio/Narrative8Situation3.wav,audio/Narrative5Situation3.wav,audio/Narrative6Situation3.wav,8,4,3,5,,,,,,,,,,,,,,,,,,,,,,,,,,,,,,,,,,,,,,,
,,,,,55ec49b67480920010aaa4e8,2025-07-07_23h19.16.262,group3.4_multiperson,2023.2.2,Win32,144.9275362,686c2ebf0248f13bef9af11f,686c8dcd263603325a5369f5,,,,,,,,,,,,,,,,,,,,,,,,,,,,,267.1945,1,audio/Narrative7Situation4.wav,270.1992,,270.1992,281.9146,"[[59.3,1430],[59.3,1513],[59.3,1597],[59.3,1680],[59.3,1763],[58.8,1847],[57.9,1930],[55.6,2013],[51,2097],[48.9,2180],[48.8,2263],[48.8,2347],[48.8,2430],[48.8,2513],[48.8,2597],[48.8,2680],[48.8,2763],[48.8,2847],[48.8,2930],[48.8,3013],[48.8,3097],[48.8,3180],[48.8,3263],[48.8,3346],[48.8,3430],[48.8,3513],[48.8,3597],[48.8,3680],[48.8,3763],[49.1,3847],[50.3,3930],[51.6,4013],[51.6,4097],[51.6,4180],[51.6,4263],[51.6,4347],[51.6,4430],[51.6,4513],[51.6,4597],[51.6,4680],[51.6,4763],[49,4847],[45.6,4930],[33.5,5347],[29.4,5430],[26.1,5513],[25,5597],[22.6,5680],[19.8,5763],[13.6,5847],[9.7,5930],[9.7,6013],[9.7,6096],[9.7,6180],[9.7,6263],[9.7,6347],[9.7,6430],[9.7,6513],[9.7,6597],[9.5,6680],[8.8,6763],[7.9,6847],[7.5,6930],[7.4,7013],[6.5,7097],[6.4,7180],[6.4,7263],[6.4,7347],[6.4,7430],[6.4,7513],[6.4,7597],[6.4,7680],[6.4,7763],[5.9,7847],[5.9,7930],[5.8,8013],[4.6,8097],[3.3,8180],[3.2,8263],[3.2,8347],[3.2,8430],[3.2,8513],[3.2,8596],[3.2,8680],[3.2,8763],[3.2,8847],[3.2,8930],[3.2,9013],[3.2,9097],[3.2,9180],[3.2,9263],[3.2,9347],[3.3,9430],[3.3,9513],[3.3,9597],[3.3,9680],[3.3,9763],[3.3,9847],[3.3,9930],[3.3,10013],[3.3,10097],[3.3,10180],[3.3,10263],[3.3,10347],[3.3,10430],[3.3,10513],[3.3,10596],[3.3,10680],[3.3,10763],[3.3,10847],[3.3,10930],[3.3,11013],[3.3,11096],[3.3,11180],[3.3,11263],[3.3,11347],[3.3,11430],[3.3,11513],[3.3,11596],[3.3,11680]]",281.9147,285.2685,6.16762223,2.0243,"[{""rating"":0.1524538308313117,""responseTime"":1.1777000000000157},{""rating"":6.16762223033192,""responseTime"":2.0242999999999824}]",space,2.836,,285.2686,Definitely yes,100,285.2694,,,[],,0,4,4,4,1,audio/Narrative7Situation4.wav,audio/Narrative8Situation4.wav,audio/Narrative5Situation4.wav,audio/Narrative6Situation4.wav,3,3,1,2,,,,,,,,,,,,,,,,,,,,,,,,,,,,,,,,,,,,,,,
,,,,,55ec49b67480920010aaa4e8,2025-07-07_23h19.16.262,group3.4_multiperson,2023.2.2,Win32,144.9275362,686c2ebf0248f13bef9af11f,686c8dcd263603325a5369f5,,,,,,,,,,,,,,,,,,,,,,,,,,,,,285.2694,1,audio/Narrative7Situation5.wav,290.2755,,290.2755,298.7476,"[[999,0],[999,83],[999,166],[999,249],[999,333],[999,416],[999,499],[999,583],[999,666],[999,749],[999,833],[999,916],[999,999],[999,1083],[999,1166],[999,1249],[999,1333],[999,1416],[999,1499],[999,1583],[999,1666],[999,1749],[999,1833],[999,1916],[999,1999],[999,2083],[999,2166],[999,2249],[999,2333],[999,2417],[999,2499],[999,2583],[999,2666],[999,2749],[999,2833],[999,2916],[999,2999],[999,3083],[999,3166],[999,3249],[999,3333],[999,3416],[999,3499],[999,3583],[999,3667],[999,3750],[999,3833],[999,3917],[999,4000],[999,4084],[999,4167],[999,4250],[999,4334],[59.4,4418],[60.3,4499],[60.4,4583],[60.4,4666],[60.4,4749],[60.4,4833],[60.4,4916],[60.4,4999],[60.4,5083],[63.7,5168],[66.4,5251],[66.4,5333],[66.4,5416],[66.4,5499],[66.4,5583],[66.4,5666],[66.4,5749],[66.4,5833],[66.4,5916],[66.4,5999],[66.4,6083],[66.4,6166],[66.4,6249],[66.4,6333],[66.4,6416],[66.4,6499],[66.3,6583],[65.3,6667],[63.4,6750],[59.5,6833],[54.7,6917],[51.7,6999],[50.7,7083],[50.7,7166],[50.8,7249],[54.9,7334],[60.5,7419],[61.6,7499],[61.6,7583],[61.6,7666],[61.6,7749],[61.7,7833],[61.7,7916],[61.7,7999],[61.7,8083],[61.7,8166],[61.7,8249],[61.7,8333],[61.7,8416]]",298.7477,302.2823,78.74025465,3.0768,"[{""rating"":70.85022254681284,""responseTime"":2.5699000000000183},{""rating"":78.74025464811382,""responseTime"":3.0767999999999915}]",space,3.0166,,302.2823,Not at all,0,302.2836,,,[],,0,5,5,5,1,audio/Narrative7Situation5.wav,audio/Narrative8Situation5.wav,audio/Narrative5Situation5.wav,audio/Narrative6Situation5.wav,5,2,5,2,,,,,,,,,,,,,,,,,,,,,,,,,,,,,,,,,,,,,,,
,,,,,55ec49b67480920010aaa4e8,2025-07-07_23h19.16.262,group3.4_multiperson,2023.2.2,Win32,144.9275362,686c2ebf0248f13bef9af11f,686c8dcd263603325a5369f5,,,,,,,,,,,,,,,,,,,,,,,,,,,,,302.2836,1,audio/Narrative7Situation6.wav,305.2892,,305.2892,315.2475,"[[60.6,668],[57.1,750],[57,833],[57,916],[57,999],[57,1083],[57,1166],[57,1249],[57,1333],[57,1416],[57,1500],[57,1583],[57,1666],[57,1749],[57,1833],[57,1916],[57,1999],[57,2083],[57,2166],[57,2249],[57,2333],[57,2416],[57,2499],[57,2583],[57,2666],[57,2749],[57,2833],[57,2916],[57,3000],[57,3083],[57,3166],[57,3249],[57,3333],[57.1,3416],[57.1,3499],[57.8,3584],[59.7,3666],[62,3750],[65,3834],[69.9,3917],[72.5,4000],[80.2,4084],[84.5,4167],[87.2,4249],[89.7,4334],[92.2,4416],[93.7,4500],[94.9,4583],[95.3,4668],[95.3,4749],[95.3,4833],[95.3,4916],[95.3,4999],[95.3,5083],[95.3,5167],[95.3,5249],[95.3,5333],[95.3,5416],[95.3,5499],[95.3,5583],[95.4,5667],[95.9,5750],[96.7,5833],[96.8,5916],[97.1,5999],[97.1,6083],[97.1,6166],[97.1,6249],[97.1,6333],[97.1,6416],[97,6499],[96.4,6583],[95.9,6667],[95.3,6749],[93.8,6833],[93.8,6916],[93.8,6999],[93.8,7083],[93.8,7166],[93.8,7249],[93.8,7333],[93.8,7416],[93.8,7499],[95.1,7585],[96.8,7669],[97,7749],[97,7833],[97.3,7916],[97.5,7999],[97.8,8083],[98.5,8166],[98.5,8249],[98.5,8333],[98.6,8416],[98.6,8499],[98.7,8583],[98.8,8666],[98.8,8749],[98.8,8833],[98.8,8916],[98.8,8999],[98.8,9083],[98.8,9166],[98.9,9249],[98.9,9333],[98.9,9416],[98.9,9499],[98.9,9583],[98.9,9666],[98.9,9749],[98.9,9833],[98.9,9916]]",315.2475,317.0322,98.19190333,0.8122,"[{""rating"":98.19190333175652,""responseTime"":0.6782000000000039},{""rating"":98.19190333175652,""responseTime"":0.8122000000000185}]",space,1.2693,,317.0322,Definitely yes,100,317.0333,,,[],,0,6,6,6,1,audio/Narrative7Situation6.wav,audio/Narrative8Situation6.wav,audio/Narrative5Situation6.wav,audio/Narrative6Situation6.wav,3,2,3,2,,,,,,,,,,,,,,,,,,,,,,,,,,,,,,,,,,,,,,,
,,,,,55ec49b67480920010aaa4e8,2025-07-07_23h19.16.262,group3.4_multiperson,2023.2.2,Win32,144.9275362,686c2ebf0248f13bef9af11f,686c8dcd263603325a5369f5,,,,,,,,,,,,,,,,,,,,,,,,,,,,,317.0335,1,audio/Narrative7Situation7.wav,322.0391,,322.0391,339.1987,"[[76.4,1000],[75.6,1083],[75.6,1166],[75.6,1249],[75,1334],[74.9,1583],[74.9,1666],[74.9,1749],[74.9,1833],[74.9,1916],[73.2,2000],[68.3,2084],[61.4,2166],[53.9,2250],[52.7,2333],[52.7,2416],[52.7,2499],[52.7,2583],[52.7,2666],[52.7,2749],[56,2834],[59.2,2917],[60,3000],[62,3083],[62,3166],[62,3249],[62,3333],[60.1,3416],[57.3,3500],[54.7,3583],[54.7,3666],[54.5,3750],[51.9,3833],[51.9,3916],[51.9,3999],[51.9,4083],[51.9,4166],[51.9,4249],[51.9,4333],[53.5,4416],[58.8,4502],[64.3,4583],[67.8,4666],[71.7,4751],[78.2,4835],[81.3,4919],[83.1,5001],[85.6,5085],[88.7,5168],[90.6,5249],[91,5333],[91.4,5416],[92.4,5500],[94.3,5584],[95.1,5666],[95.6,5749],[95.6,5833],[95.6,5916],[95.6,5999],[95.7,6083],[96.1,6166],[96.5,6250],[96.7,6333],[97.1,6417],[97.4,6499],[97.4,6583],[97.4,6666],[97.4,6749],[97.4,6833],[97.4,6916],[97.4,6999],[97.4,7083],[97.4,7166],[97.4,7249],[97.4,7333],[97.7,7416],[97.7,7499],[97.7,7583],[97.7,7666],[97.7,7749],[97.7,7833],[97.7,7916],[97.7,7999],[97.7,8083],[97.7,8166],[97.7,8249],[97.7,8333],[97.7,8416],[98.1,8499],[99.4,8584],[100,8666],[100,8749],[100,8833],[100,8916],[100,8999],[100,9083],[100,9166],[100,9249],[100,9334],[100,9416],[100,9499],[100,9583],[100,9666],[100,9749],[100,9833],[100,9916],[100,9999],[100,10083],[100,10166],[100,10249],[99.9,10333],[99.8,10416],[99.8,10499],[99.8,10583],[99.8,10666],[99.8,10749],[99.8,10833],[99.7,10916],[99.7,10999],[99.7,11083],[99.7,11166],[99.7,11249],[99.7,11333],[99.7,11416],[99.7,11499],[99.7,11583],[99.7,11666],[99.7,11749],[99.7,11833],[99.7,11916],[99.7,11999],[99.5,12083],[99.5,12166],[99.5,12249],[99.5,12333],[99.5,12416],[99.5,12499],[99.5,12583],[99.5,12666],[99.5,12749],[99.5,12833],[99.5,12916],[99.5,12999],[99.5,13083],[99.5,13166],[99.5,13249],[99.5,13333],[99.5,13416],[99.5,13499],[99.5,13583],[99.5,13666],[99.5,13749],[99.5,13833],[99.5,13916],[99.5,14002],[99.5,14083],[99.5,14166],[99.4,14249],[98.1,14336],[96.7,14416],[96.7,14499],[96.7,14583],[96.8,14666],[97.1,14749],[97.3,14833],[97.8,14917],[98.1,14999],[98.1,15083],[98.3,15166],[98.3,15249],[98.3,15333],[98.3,15416],[98.3,15499],[98.3,15583],[98.3,15666],[98.3,15749],[98.3,15833],[98.3,15916],[98.3,15999],[98.3,16083],[98.3,16166],[98.3,16249],[98.3,16333],[98.3,16416],[98.3,16499],[98.3,16583],[98.3,16666],[98.3,16749],[98.3,16833],[98.2,16916],[98.2,16999],[98.2,17083]]",339.1988,340.8791,99.67616399,0.9979,"[{""rating"":99.67616399220107,""responseTime"":0.9979000000000156}]",space,1.1635,,340.8793,Partially,50,340.8805,,,[],,0,7,7,7,1,audio/Narrative7Situation7.wav,audio/Narrative8Situation7.wav,audio/Narrative5Situation7.wav,audio/Narrative6Situation7.wav,5,3,4,5,,,,,,,,,,,,,,,,,,,,,,,,,,,,,,,,,,,,,,,
,,,,,55ec49b67480920010aaa4e8,2025-07-07_23h19.16.262,group3.4_multiperson,2023.2.2,Win32,144.9275362,686c2ebf0248f13bef9af11f,686c8dcd263603325a5369f5,,,,,,,,,,,,,,,,,,,,,,,,,,,,,340.8806,1,audio/Narrative7Situation8.wav,342.8862,,342.8862,352.8938,"[[92,83],[91.4,166],[91.4,249],[91.1,333],[90.1,417],[88.9,500],[88.9,583],[88.9,666],[88.9,749],[88.9,833],[88.9,916],[88.9,999],[88.9,1083],[88.9,1166],[88.9,1249],[85.6,1333],[81.7,1417],[77.9,1500],[76,1584],[74.6,1667],[72.2,1750],[71.7,1834],[71.7,1916],[80,2000],[91.9,2084],[92.8,2167],[93,2249],[93.3,2334],[94.6,2416],[95.2,2499],[96,2584],[96.4,2666],[96.5,2749],[96.5,2833],[92.1,2917],[80.9,2999],[80.7,3083],[80.7,3166],[80.7,3249],[80.7,3333],[80.7,3416],[80.7,3499],[80.7,3583],[80.7,3666],[80.7,3749],[80.7,3833],[80.7,3916],[80.7,3999],[80.7,4083],[80.7,4166],[80.7,4249],[80.7,4333],[80.7,4416],[80.7,4499],[80.6,4584],[80.6,4666],[80.6,4750],[80.6,4833],[80.6,4916],[80.6,4999],[80.6,5083],[80.6,5166],[80.6,5249],[80.6,5333],[80.6,5416],[80.6,5499],[80.8,5583],[80.8,5666],[83,5749],[84.2,5834],[84.3,5916],[84.4,5999],[84.4,6083],[84.4,6166],[84.4,6249],[84.4,6333],[84.4,6416],[84.4,6499],[84.4,6583],[84.4,6666],[84.4,6749],[84.4,6833],[84.4,6916],[84.4,6999],[84.4,7083],[84.4,7166],[84.4,7249],[84.4,7333],[84.4,7416],[84.4,7499],[84.4,7583],[84.4,7666],[84.4,7749],[84.4,7833],[84.4,7916],[84.4,7999],[84.4,8083],[84.3,8166],[84.3,8249],[84.3,8333],[84.3,8416],[84.3,8499],[84.3,8583],[84.3,8666],[84.3,8749],[84.5,8833],[89.2,8917],[91.7,9000],[92.5,9084],[96,9166],[98.6,9252],[98.8,9333],[99.2,9416],[99.2,9499],[99.2,9583],[99.2,9666],[99.2,9749],[99.2,9833],[99.2,9916],[97,10000]]",352.894,354.4973,100,1.0406,"[{""rating"":100,""responseTime"":1.0406000000000404}]",space,1.08,,354.4973,Partially,50,357.7471,49.9143132,2.748,"[{""rating"":49.914313202725566,""responseTime"":2.7479999999999905}]",space,0,8,8,8,1,audio/Narrative7Situation8.wav,audio/Narrative8Situation8.wav,audio/Narrative5Situation8.wav,audio/Narrative6Situation8.wav,2,3,3,5,,,2.7305,,,,,,,,,,,,,,,,,,,,,,,,,,,,,,,,,,,,
,,,,,55ec49b67480920010aaa4e8,2025-07-07_23h19.16.262,group3.4_multiperson,2023.2.2,Win32,144.9275362,686c2ebf0248f13bef9af11f,686c8dcd263603325a5369f5,,,,,,,,,,,,,,,,,,,,,,,,,,,,,357.7474,1,audio/Narrative7Situation9.wav,359.754,,359.754,368.3721,"[[999,0],[999,83],[999,166],[999,250],[999,333],[999,416],[999,500],[999,583],[999,666],[999,750],[999,833],[999,916],[999,1000],[999,1083],[999,1166],[999,1250],[999,1333],[999,1416],[999,1500],[999,1583],[53.3,1667],[63.3,1750],[67,1834],[73.3,1917],[78.4,2000],[98.1,2166],[98.1,2249],[98.1,2334],[98.1,2416],[98.1,2500],[98.1,2584],[98.1,2666],[98.1,2749],[98.7,2836],[99.2,2916],[99.2,2999],[99.1,3083],[98.5,3168],[97.4,3251],[97.4,3333],[97.4,3416],[97.4,3500],[97.4,3583],[97.4,3666],[97.4,3749],[97.4,3833],[97.4,3916],[97.5,4000],[97.9,4084],[98.2,4166],[98.5,4250],[98.8,4333],[98.8,4416],[98.8,4500],[98.8,4583],[98.8,4666],[98.8,4750],[98.8,4833],[98.8,4916],[98.8,4999],[98.8,5083],[98.8,5166],[98.8,5249],[98.8,5333],[98.8,5416],[98.8,5499],[98.8,5583],[98.8,5666],[98.8,5750],[98.8,5833],[98.8,5916],[98.8,5999],[98.8,6083],[98.8,6166],[98.8,6249],[98.8,6333],[98.8,6416],[98.8,6499],[98.8,6583],[98.8,6666],[98.8,6750],[98.8,6833],[98.8,6916],[98.8,6999],[98.8,7083],[98.8,7166],[98.8,7249],[98.8,7333],[98.8,7416],[98.8,7499],[98.8,7583],[98.8,7666],[98.8,7750],[98.8,7833],[98.8,7916],[98.8,8000],[98.8,8083],[98.8,8166],[98.8,8249],[98.8,8333],[98.8,8416],[98.8,8500],[98.8,8583]]",368.3722,369.7679,100,1.034,"[{""rating"":100,""responseTime"":1.0339999999999918}]",space,0.8754,,369.7679,Partially,50,369.7687,,,[],,0,9,9,9,1,audio/Narrative7Situation9.wav,audio/Narrative8Situation9.wav,audio/Narrative5Situation9.wav,audio/Narrative6Situation9.wav,2,3,3,4,,,,,,,,,,,,,,,,,,,,,,,,,,,,,,,,,,,,,,,
,,,,,55ec49b67480920010aaa4e8,2025-07-07_23h19.16.262,group3.4_multiperson,2023.2.2,Win32,144.9275362,686c2ebf0248f13bef9af11f,686c8dcd263603325a5369f5,,,,,,,,,,,,,,,,,,,,,,,,,,,,,369.7688,1,audio/Narrative8Situation1.wav,374.7747,,374.7748,390.6845,"[[999,0],[999,83],[999,166],[999,249],[999,333],[999,416],[999,499],[999,583],[999,666],[999,750],[999,833],[999,916],[999,999],[999,1083],[999,1166],[999,1249],[999,1333],[999,1417],[999,1499],[999,1583],[999,1667],[999,1749],[999,1833],[999,1916],[999,2000],[999,2083],[999,2166],[999,2250],[999,2333],[54.9,2417],[57.1,2500],[58.8,2583],[59.4,2666],[59.4,2749],[59.4,2833],[61.1,2917],[63,3000],[63.7,3083],[65.1,3167],[66.6,3249],[67.3,3336],[68.1,3418],[68.2,3499],[68.6,3583],[69.1,3666],[69.1,3749],[69.1,3833],[69.1,3916],[69.1,3999],[69.1,4083],[69.1,4166],[69.6,4249],[71.5,4333],[72.2,4417],[73.2,4499],[73.2,4583],[73.2,4666],[73.2,4749],[73.2,4833],[73.6,4916],[76.7,5000],[78.1,5083],[78.7,5166],[79.2,5249],[79.2,5333],[79.2,5416],[79.2,5499],[79.2,5583],[79.2,5666],[79.2,5749],[79.3,5833],[79.3,5916],[79.3,5999],[79.3,6083],[79.3,6166],[80.1,6251],[91.6,6334],[94.6,6416],[94.6,6499],[94.2,6584],[91.7,6666],[91.4,6749],[91.4,6833],[91.4,6916],[91.4,6999],[91.4,7083],[91.4,7166],[91.4,7249],[91.4,7333],[91.5,7416],[93.5,7500],[96,7583],[96,7667],[96,7749],[96,7833],[96.4,7916],[96.7,7999],[96.7,8083],[97,8167],[97.1,8249],[97.1,8333],[97.1,8416],[97.1,8500],[97.1,8583],[97.1,8666],[97.1,8749],[97.1,8835],[96.9,8916],[96.9,8999],[96.9,9083],[97,9166],[97.3,9256],[97.4,9340],[97.7,9423],[97.7,9506],[97.8,9590],[97.8,9673],[97.9,9757],[98.1,9840],[98.1,9923],[98.1,10006],[98.1,10090],[98.1,10174],[98.1,10256],[98.1,10340],[98.1,10423],[97.9,10507],[97.1,10591],[95.4,10674],[93,10756],[91.3,10841],[90.3,10924],[90,11007],[89.8,11090],[89,11176],[88.4,11260],[87.7,11340],[87.7,11423],[87.7,11506],[87.7,11590],[87.7,11673],[87.7,11756],[87.7,11840],[87.6,11923],[87.5,12007],[86.4,12090],[83.5,12173],[80.3,12257],[79.1,12341],[78.5,12423],[78.2,12506],[78.2,12590],[78.2,12673],[78.2,12756],[78.2,12840],[78.2,12923],[77.9,13007],[77.8,13090],[77.4,13173],[77.4,13256],[74.6,13340],[73.7,13424],[73.6,13506],[73.6,13590],[73.6,13673],[73.6,13756],[73.6,13840],[73.6,13923],[73.6,14006],[73.6,14090],[73.6,14173],[73.6,14256],[73.6,14339],[75,14424],[81,14507],[86.5,14590],[87.1,14673],[87.1,14756],[87.1,14840],[87.1,14924],[87.1,15006],[87.1,15090],[87,15173],[85.3,15257],[83.8,15340],[82.7,15423],[82.1,15506],[82.1,15590],[82.1,15673],[82,15756],[82,15840]]",390.6846,392.6079,84.44294576,1.4364,"[{""rating"":84.44294576398102,""responseTime"":1.436399999999992}]",space,1.4029,,392.6081,Partially,50,392.6089,,,[],,0,10,10,10,1,audio/Narrative8Situation1.wav,audio/Narrative7Situation1.wav,audio/Narrative6Situation1.wav,audio/Narrative5Situation1.wav,5,2,2,5,,,,,,,,,,,,,,,,,,,,,,,,,,,,,,,,,,,,,,,
,,,,,55ec49b67480920010aaa4e8,2025-07-07_23h19.16.262,group3.4_multiperson,2023.2.2,Win32,144.9275362,686c2ebf0248f13bef9af11f,686c8dcd263603325a5369f5,,,,,,,,,,,,,,,,,,,,,,,,,,,,,392.6091,1,audio/Narrative8Situation2.wav,395.6149,,395.6149,405.719,"[[84.4,2000],[84.2,2086],[84,2166],[84,2250],[84,2333],[84,2416],[84,2499],[84,2583],[84,2666],[84,2749],[84,2833],[80.4,2917],[72.8,3000],[72.4,3084],[69.7,3167],[69.6,3249],[69.3,3333],[68.6,3416],[67.6,3500],[67.6,3583],[67.6,3666],[65.7,3750],[56.7,3834],[49.5,3917],[46.9,4002],[46.7,4083],[46.7,4166],[46,4250],[44.6,4335],[42.7,4417],[39.6,4500],[39.5,4583],[39.4,4666],[39.4,4750],[39.4,4833],[38.9,4916],[36.7,5000],[33.8,5084],[33.1,5167],[31.1,5250],[30.2,5333],[30.2,5416],[30.2,5499],[30.2,5583],[30.2,5666],[29.3,5750],[27.7,5833],[26.1,5917],[25.2,6000],[19.6,6084],[15.7,6167],[15.2,6249],[14.9,6334],[13.9,6420],[12.8,6499],[12.8,6583],[12.8,6666],[12.8,6749],[12.8,6833],[12.8,6916],[12.8,6999],[12.8,7083],[12.8,7166],[12.8,7249],[12.8,7333],[12.7,7416],[12.7,7499],[12,7583],[11.7,7666],[11.1,7749],[10.6,7833],[10.1,7916],[9.7,7999],[9.6,8083],[9.3,8166],[9.3,8249],[8.3,8334],[6.9,8416],[6.9,8499],[6.8,8583],[6.8,8666],[6.8,8749],[6.8,8833],[7,8916],[7.2,8999],[7.8,9083],[7.9,9166],[7.9,9249],[8.4,9333],[9.1,9418],[9.5,9499],[9.8,9585],[10.1,9666],[10.6,9752],[10.7,9833],[10.7,9916],[10.7,9999],[10.7,10083]]",405.7191,409.5044,43.58666752,3.6347,"[{""rating"":48.50816971758468,""responseTime"":2.8455999999999904},{""rating"":43.58666751959157,""responseTime"":3.6346999999999525}]",space,3.2682,,409.5044,Not at all,0,409.5054,,,[],,0,11,11,11,1,audio/Narrative8Situation2.wav,audio/Narrative7Situation2.wav,audio/Narrative6Situation2.wav,audio/Narrative5Situation2.wav,3,3,3,3,,,,,,,,,,,,,,,,,,,,,,,,,,,,,,,,,,,,,,,
,,,,,55ec49b67480920010aaa4e8,2025-07-07_23h19.16.262,group3.4_multiperson,2023.2.2,Win32,144.9275362,686c2ebf0248f13bef9af11f,686c8dcd263603325a5369f5,,,,,,,,,,,,,,,,,,,,,,,,,,,,,409.5055,1,audio/Narrative8Situation3.wav,413.5106,,413.5106,435.8785,"[[999,0],[999,83],[999,166],[999,249],[999,333],[999,416],[999,500],[999,583],[999,666],[999,750],[999,833],[999,916],[999,999],[999,1085],[999,1166],[999,1250],[999,1333],[999,1416],[999,1499],[999,1583],[999,1666],[999,1752],[999,1833],[999,1916],[47.6,2004],[47,2085],[46.8,2166],[46.8,2249],[46.5,2333],[43.2,2417],[40.1,2500],[36.7,2584],[33.3,2666],[32.1,2749],[32.1,2833],[32.1,2916],[32.1,2999],[32.1,3083],[33.2,3167],[35.6,3250],[44.9,3333],[57.4,3417],[64.6,3500],[65.8,3583],[65.8,3666],[65.8,3749],[65.7,3833],[61.2,3917],[57.5,4000],[53.1,4088],[50.3,4172],[49,4249],[49,4333],[49.1,4416],[51,4500],[52.7,4584],[55.3,4667],[57.7,4750],[59.3,4833],[59.4,4916],[59.4,5000],[59.4,5083],[59.4,5166],[59.5,5250],[62.7,5333],[64.2,5416],[64.4,5499],[67.5,5584],[72.8,5667],[75.3,5750],[77.2,5833],[77.5,5916],[77.8,6000],[77.8,6083],[77.8,6166],[77.8,6249],[77.8,6333],[77.8,6416],[77.8,6500],[77.8,6583],[78.5,6671],[80.2,6752],[81,6838],[81.1,6916],[81.1,6999],[81.1,7083],[81.1,7166],[81.1,7249],[81.1,7333],[81.1,7416],[81.1,7499],[81.1,7583],[81.1,7666],[81.1,7749],[81.1,7833],[81.1,7916],[81.1,7999],[81.1,8083],[81.1,8166],[81.1,8249],[81.1,8333],[81.1,8416],[81.1,8499],[81.1,8583],[81.1,8666],[81.1,8749],[81.1,8833],[81.1,8916],[81.1,8999],[81.1,9083],[81.1,9166],[81.1,9249],[81.7,9334],[82.3,9417],[83.1,9500],[84,9583],[86.5,9667],[87.1,9750],[87.1,9833],[87.2,9917],[88.4,10000],[90.1,10088],[91.4,10166],[93.7,10255],[95.8,10339],[96.8,10416],[97.5,10500],[98.5,10584],[98.5,10666],[98.5,10749],[98.5,10833],[98.5,10916],[98.5,10999],[98.5,11083],[98.5,11166],[98.5,11250],[98.5,11333],[98,11417],[97.4,11499],[97.2,11583],[97.1,11666],[97,11749],[96.9,11833],[96.9,11916],[96.9,11999],[96.9,12083],[96.9,12166],[96.9,12249],[96.9,12333],[96.9,12416],[96.9,12499],[96.9,12583],[96.9,12666],[96.9,12749],[96.9,12833],[96.8,12916],[93.5,13004],[92.8,13083],[92.8,13166],[92.8,13249],[93.2,13334],[94.4,13416],[94.9,13499],[95,13583],[95,13667],[95,13749],[95,13833],[95,13916],[95,13999],[95,14083],[95,14166],[95,14249],[95,14333],[95,14416],[95,14499],[95,14583],[95,14666],[95,14750],[95,14833],[95,14916],[95,14999],[95,15083],[95,15166],[95,15249],[95,15333],[96,15420],[96.8,15504],[97.3,15583],[97.8,15670],[98,15749],[98.5,15833],[98.5,15916],[98.5,15999],[98.5,16083],[98.5,16166],[98.5,16249],[98.5,16333],[98.5,16416],[98.5,16499],[98.5,16583],[98.5,16666],[98.5,16749],[98.5,16833],[98.5,16916],[98.5,16999],[98.5,17083],[98.5,17166],[98.5,17249],[98.5,17333],[98.5,17416],[98.5,17499],[98.5,17583],[98.5,17666],[98.5,17749],[98.5,17833],[98.5,17916],[98.5,17999],[98.5,18083],[98.5,18166],[98.5,18249],[98.5,18333],[98.5,18416],[98.5,18499],[98.5,18583],[98.5,18666],[98.5,18749],[98.5,18833],[98.5,18916],[98.5,18999],[98.5,19083],[98.5,19166],[98.5,19249],[98.5,19333],[98.5,19416],[98.5,19499],[98.5,19583],[98.5,19666],[98.5,19749],[98.5,19833],[98.5,19916],[98.5,19999],[98.5,20083],[98.5,20166],[98.5,20249],[98.5,20333],[98.5,20416],[98.5,20499],[98.5,20583],[98.5,20666],[98.5,20749],[98.5,20833],[98.5,20916],[98.5,20999],[98.5,21083],[98.5,21166],[98.5,21249],[98.5,21333],[97.4,21416],[96.5,21504],[96.5,21583],[96.5,21666],[96.5,21749],[96.5,21832],[97.5,21918],[98.1,21999],[98.2,22082],[98.2,22166],[98.2,22249],[98.2,22333]]",435.8786,437.5174,99.05120942,1.4033,"[{""rating"":98.50438919780865,""responseTime"":0.8823999999999614},{""rating"":99.0512094249343,""responseTime"":1.4033000000000015}]",space,1.1261,,437.5174,Definitely yes,100,437.5187,,,[],,0,12,12,12,1,audio/Narrative8Situation3.wav,audio/Narrative7Situation3.wav,audio/Narrative6Situation3.wav,audio/Narrative5Situation3.wav,4,8,5,3,,,,,,,,,,,,,,,,,,,,,,,,,,,,,,,,,,,,,,,
,,,,,55ec49b67480920010aaa4e8,2025-07-07_23h19.16.262,group3.4_multiperson,2023.2.2,Win32,144.9275362,686c2ebf0248f13bef9af11f,686c8dcd263603325a5369f5,,,,,,,,,,,,,,,,,,,,,,,,,,,,,437.5188,1,audio/Narrative8Situation4.wav,440.5243,,440.5243,454.6839,"[[91.1,750],[87.7,833],[82.7,917],[79.2,1000],[77.5,1084],[76.7,1166],[74.7,1250],[72.4,1334],[70.7,1417],[68.1,1500],[67.4,1583],[67.4,1666],[67.4,1749],[67.4,1833],[67.4,1916],[67.4,1999],[67.4,2083],[67.4,2166],[67.4,2249],[67.4,2333],[67.4,2416],[67.4,2499],[67.4,2583],[67.4,2666],[67.4,2749],[67.4,2833],[67.4,2916],[67.4,2999],[67.4,3083],[67.4,3166],[67.4,3249],[67.4,3333],[67.4,3416],[67.4,3499],[67.4,3583],[67.4,3666],[67.4,3749],[67.4,3833],[67.4,3916],[67.4,3999],[67.4,4083],[67.4,4166],[67.4,4249],[67.4,4333],[67.4,4416],[67.4,4499],[67.4,4583],[67.4,4666],[67.3,4750],[65.9,4833],[64.6,4917],[63.3,5000],[62,5083],[62,5166],[62,5249],[62,5333],[62,5416],[62,5499],[60.6,5587],[60.6,5666],[60.6,5749],[60.6,5833],[60.6,5916],[60.6,5999],[60.6,6083],[60.6,6166],[60.6,6250],[59.5,6333],[54.8,6416],[54.8,6499],[60.5,6584],[77.1,6667],[83.9,6749],[84.1,6834],[87.5,6917],[89.2,7000],[92.3,7084],[95.6,7166],[99.6,7249],[100,7333],[100,7417],[100,7499],[100,7583],[99.2,7667],[98.3,7749],[98.1,7833],[98.1,7916],[98.1,7999],[98.1,8083],[98.1,8166],[98.1,8249],[98,8333],[98,8416],[98,8499],[97.8,8584],[97.8,8666],[97.8,8749],[97.8,8833],[97.5,8916],[97.5,8999],[97.5,9083],[97.5,9166],[97.5,9249],[98.2,9338],[99.5,9421],[99.8,9499],[99.9,9583],[99.9,9666],[99.9,9749],[99.9,9833],[99.9,9916],[99.9,9999],[99.9,10083],[99.9,10166],[99.9,10249],[99.9,10333],[99.9,10416],[99.9,10499],[99.9,10583],[99.9,10666],[99.9,10750],[99.8,10833],[99.8,10916],[99.6,10999],[99.6,11083],[99.6,11166],[99.6,11249],[99.6,11333],[99.6,11416],[99.6,11499],[99.6,11583],[99.6,11673],[99.6,11756],[99.6,11840],[99.6,11923],[99.6,12006],[99.6,12090],[99.6,12173],[99.6,12256],[99.6,12340],[99.6,12423],[99.6,12506],[99.6,12590],[99.6,12673],[99.6,12756],[99.6,12840],[99.6,12923],[99.6,13006],[99.6,13090],[99.6,13173],[99.6,13256],[99.6,13340],[99.6,13423],[99.6,13506],[99.6,13590],[99.6,13673],[99.6,13756],[99.6,13840],[99.6,13923],[99.6,14006],[99.6,14090]]",454.684,464.7838,100,9.9621,"[{""rating"":88.81761915242976,""responseTime"":3.7912999999999784},{""rating"":88.50514186879637,""responseTime"":7.599099999999964},{""rating"":100,""responseTime"":9.962099999999964}]",space,9.5872,,464.7838,Definitely yes,100,464.7845,,,[],,0,13,13,13,1,audio/Narrative8Situation4.wav,audio/Narrative7Situation4.wav,audio/Narrative6Situation4.wav,audio/Narrative5Situation4.wav,3,3,2,1,,,,,,,,,,,,,,,,,,,,,,,,,,,,,,,,,,,,,,,
,,,,,55ec49b67480920010aaa4e8,2025-07-07_23h19.16.262,group3.4_multiperson,2023.2.2,Win32,144.9275362,686c2ebf0248f13bef9af11f,686c8dcd263603325a5369f5,,,,,,,,,,,,,,,,,,,,,,,,,,,,,464.7846,1,audio/Narrative8Situation5.wav,466.7899,,466.7899,475.0171,"[[67.2,83],[67.1,164],[67.1,247],[67.1,331],[67.1,414],[67.1,497],[67.1,581],[67.1,664],[67.1,747],[67,831],[64.5,914],[69.2,998],[80.1,1082],[84.9,1164],[84.9,1247],[84.9,1331],[84.9,1414],[84.9,1497],[84.9,1581],[84.9,1664],[84.9,1747],[84.6,1831],[82.5,1915],[74.8,2415],[83.5,2498],[88.3,2582],[93,2665],[98.1,2748],[100,3250],[100,3331],[100,3417],[100,3497],[100,3581],[100,3664],[100,3748],[100,3831],[99.8,3914],[99.7,3997],[99.6,4081],[99.6,4164],[99.2,4248],[99,4331],[99,4414],[99,4497],[98.9,4581],[98.9,4664],[98.9,4747],[98.9,4831],[98.9,4914],[98.7,4998],[98.7,5081],[98.7,5164],[98.5,5247],[98.5,5331],[98.5,5414],[98.5,5497],[98.5,5581],[98.5,5664],[98.5,5747],[98.4,5831],[98.4,5914],[98.4,5997],[98.1,6081],[98.1,6164],[97.9,6248],[97.8,6331],[97.8,6414],[97.8,6497],[97.8,6581],[97.8,6664],[97.8,6747],[97.8,6831],[97.8,6914],[97.8,6997],[97.8,7081],[97.8,7164],[97.9,7248],[98.1,7331],[98.2,7415],[98.6,7497],[98.6,7581],[98.6,7664],[98.7,7747],[98.7,7831],[98.7,7914],[98.7,7997],[98.7,8081],[98.7,8164]]",475.0171,476.6837,99.75428117,1.2201,"[{""rating"":99.75428116750477,""responseTime"":1.2201000000000022}]",space,1.148,,476.6837,Partially,50,476.6848,,,[],,0,14,14,14,1,audio/Narrative8Situation5.wav,audio/Narrative7Situation5.wav,audio/Narrative6Situation5.wav,audio/Narrative5Situation5.wav,2,5,2,5,,,,,,,,,,,,,,,,,,,,,,,,,,,,,,,,,,,,,,,
,,,,,55ec49b67480920010aaa4e8,2025-07-07_23h19.16.262,group3.4_multiperson,2023.2.2,Win32,144.9275362,686c2ebf0248f13bef9af11f,686c8dcd263603325a5369f5,,,,,,,,,,,,,,,,,,,,,,,,,,,,,476.6849,1,audio/Narrative8Situation6.wav,478.6906,,478.6907,485.1489,"[[90,84],[88.1,167],[86,250],[85.1,333],[85.1,416],[85.1,499],[85.1,583],[85.3,666],[86.4,750],[88.3,833],[89.1,916],[89.4,999],[89.4,1083],[89.4,1166],[89.4,1250],[89.7,1333],[89.7,1416],[89.7,1499],[89.4,1583],[88.7,1667],[88.3,1751],[87.1,1833],[85.5,1917],[83.4,2000],[82,2083],[81.6,2167],[81.6,2249],[81.6,2333],[81.6,2416],[81.6,2499],[84.1,2584],[89.5,2667],[93.7,2751],[94.2,2833],[94.2,2916],[94.1,3000],[94,3083],[94,3166],[94,3249],[94,3333],[94,3416],[93.3,3500],[92.8,3584],[92.4,3666],[91.9,3750],[91.6,3833],[90.9,3916],[89,4000],[88.2,4083],[87,4167],[86.4,4251],[86,4333],[85.3,4417],[84.4,4499],[84.4,4583],[84.4,4666],[84.4,4749],[84.4,4833],[84,4916],[84,5000],[84,5083],[84,5166],[83.8,5250],[83.7,5333],[83.7,5416],[83.7,5499],[83.7,5583],[83.7,5666],[83.7,5749],[83.7,5833],[83.7,5916],[83.7,5999],[83.7,6083],[83.7,6166],[83.7,6249],[83.7,6333],[83.7,6416]]",485.149,486.5872,99.67616399,1.2815,"[{""rating"":99.67616399220107,""responseTime"":1.281499999999994}]",space,0.9203,,486.5873,Not at all,0,486.5884,,,[],,0,15,15,15,1,audio/Narrative8Situation6.wav,audio/Narrative7Situation6.wav,audio/Narrative6Situation6.wav,audio/Narrative5Situation6.wav,2,3,2,3,,,,,,,,,,,,,,,,,,,,,,,,,,,,,,,,,,,,,,,
,,,,,55ec49b67480920010aaa4e8,2025-07-07_23h19.16.262,group3.4_multiperson,2023.2.2,Win32,144.9275362,686c2ebf0248f13bef9af11f,686c8dcd263603325a5369f5,,,,,,,,,,,,,,,,,,,,,,,,,,,,,486.5885,1,audio/Narrative8Situation7.wav,489.5933,,489.5933,501.6627,"[[999,0],[999,83],[999,166],[999,250],[999,333],[999,416],[999,500],[999,583],[999,666],[999,750],[999,833],[999,916],[999,999],[999,1083],[999,1166],[999,1250],[999,1333],[999,1416],[999,1500],[999,1583],[999,1666],[999,1750],[999,1833],[999,1916],[999,2000],[999,2083],[999,2169],[999,2252],[56.4,2336],[46.6,2834],[46.6,2916],[46.7,3000],[46.3,3084],[49.5,3167],[52.5,3250],[58.8,3333],[59.2,3416],[59.9,3500],[64.4,3584],[69.5,3667],[74.6,3750],[77.8,3833],[80.1,3917],[86.7,4000],[90.5,4083],[94.2,4167],[95.1,4252],[95.1,4333],[95.1,4416],[95.1,4499],[95.1,4583],[95.2,4666],[95.8,4750],[96.7,4834],[97.3,4917],[97.7,5000],[97.9,5084],[98,5166],[98,5249],[98,5333],[98,5416],[98,5499],[98,5583],[98,5666],[98,5749],[98,5833],[98,5916],[98,5999],[98,6083],[98,6166],[98,6249],[98,6333],[98,6416],[98,6499],[98,6583],[98,6666],[98,6749],[98,6833],[98,6916],[98,6999],[98,7083],[98,7166],[98,7249],[98,7333],[98.1,7416],[98.4,7500],[98.5,7583],[98.5,7666],[98.5,7749],[98.5,7833],[98.5,7916],[98.5,8000],[98.5,8083],[98.5,8166],[98.5,8249],[98.5,8333],[98.5,8416],[98.5,8499],[98.5,8583],[98.5,8666],[98.5,8750],[98.5,8833],[98.5,8916],[98.5,8999],[98.5,9083],[98.5,9166],[98.5,9250],[98.5,9333],[98.5,9416],[98.5,9499],[98.5,9583],[98.5,9666],[98.5,9749],[98.5,9833],[98.5,9916],[98.5,9999],[98.5,10083],[98.5,10166],[98.5,10249],[98.5,10333],[98.5,10416],[98.5,10499],[98.5,10583],[98.4,10667],[98.4,10749],[98.4,10833],[98.4,10916],[98.4,10999],[98.4,11083],[98.4,11166],[98.4,11249],[98.4,11333],[98.4,11416],[98.4,11499],[98.4,11583],[98.4,11666],[98.4,11749],[98.4,11833],[98.4,11916],[98.3,12002]]",501.6627,504.0446,100,1.9657,"[{""rating"":100,""responseTime"":1.9657000000000835}]",space,1.8661,,504.0447,Partially,50,504.046,,,[],,0,16,16,16,1,audio/Narrative8Situation7.wav,audio/Narrative7Situation7.wav,audio/Narrative6Situation7.wav,audio/Narrative5Situation7.wav,3,5,5,4,,,,,,,,,,,,,,,,,,,,,,,,,,,,,,,,,,,,,,,
,,,,,55ec49b67480920010aaa4e8,2025-07-07_23h19.16.262,group3.4_multiperson,2023.2.2,Win32,144.9275362,686c2ebf0248f13bef9af11f,686c8dcd263603325a5369f5,,,,,,,,,,,,,,,,,,,,,,,,,,,,,504.046,1,audio/Narrative8Situation8.wav,507.0515,,507.0515,519.8918,"[[97.6,1167],[96.1,1250],[94.8,1334],[92.1,1417],[91.7,1499],[91.7,1583],[91.7,1666],[93.1,1750],[96,1834],[98.6,1916],[99.9,2000],[99.9,2083],[99.9,2166],[99.9,2250],[99.9,2333],[99.8,2416],[99.8,2499],[99.8,2583],[99.8,2666],[99.8,2749],[99.7,2833],[99.7,2916],[99.7,2999],[99.6,3083],[99.6,3166],[99.6,3249],[99.6,3333],[99.5,3419],[99.5,3499],[99.4,3583],[99.3,3666],[99.3,3749],[99.3,3833],[99.3,3916],[99.3,3999],[99.3,4083],[99.3,4166],[99.3,4249],[99.3,4333],[99.3,4416],[99.3,4499],[99.3,4583],[99.2,4666],[99.2,4749],[99.2,4833],[99.2,4916],[99.2,4999],[99.2,5083],[99.2,5166],[99.2,5250],[99.1,5333],[97.9,5419],[96,5503],[95.2,5583],[94.9,5666],[94.9,5749],[95.1,5833],[96.1,5916],[97.7,6000],[98.2,6084],[98.5,6166],[98.5,6249],[98.5,6333],[98.5,6416],[98.5,6500],[98.5,6583],[98.5,6666],[98.5,6750],[98.5,6833],[98.5,6916],[98.5,6999],[98.5,7083],[98.4,7166],[98.4,7250],[98.4,7333],[98.4,7416],[98.4,7499],[98.4,7583],[98.4,7666],[98.4,7749],[98.4,7833],[98.4,7916],[98.4,7999],[98.4,8083],[98.4,8166],[98.4,8249],[98.4,8333],[98.4,8416],[98.4,8499],[98.4,8583],[98.4,8666],[98.4,8750],[98.4,8833],[98.4,8916],[98.4,8999],[98.4,9083],[98.4,9166],[98.4,9249],[98.4,9333],[98.4,9416],[98.4,9499],[98.4,9583],[98.4,9666],[98.4,9749],[98.4,9833],[98.4,9916],[98.4,9999],[98.4,10083],[98.4,10166],[98.4,10249],[98.4,10333],[98.4,10416],[98.4,10500],[98.4,10583],[98.4,10666],[98.4,10749],[98.4,10833],[98.4,10916],[98.4,10999],[98.4,11083],[98.4,11166],[98.4,11249],[98.4,11333],[98.4,11416],[98.4,11500],[98.4,11583],[98.4,11666],[98.4,11749],[98.4,11833],[98.4,11916],[98.4,11999],[98.4,12083],[98.4,12166],[98.4,12249],[98.4,12333],[98.4,12416],[98.4,12499],[98.4,12583],[98.4,12666],[98.4,12749],[98.4,12833]]",519.8919,522.5584,99.12934377,1.0997,"[{""rating"":99.12934376507542,""responseTime"":1.0996999999999844}]",space,2.1551,,522.5585,Partially,50,522.5593,,,[],,0,17,17,17,1,audio/Narrative8Situation8.wav,audio/Narrative7Situation8.wav,audio/Narrative6Situation8.wav,audio/Narrative5Situation8.wav,3,2,5,3,,,,,,,,,,,,,,,,,,,,,,,,,,,,,,,,,,,,,,,
,,,,,55ec49b67480920010aaa4e8,2025-07-07_23h19.16.262,group3.4_multiperson,2023.2.2,Win32,144.9275362,686c2ebf0248f13bef9af11f,686c8dcd263603325a5369f5,,,,,,,,,,,,,,,,,,,,,,,,,,,,,522.5594,1,audio/Narrative8Situation9.wav,525.5652,,525.5653,536.8709,"[[98.2,1500],[97.8,1584],[98,1667],[98.7,1749],[98.7,1833],[98.8,1916],[98.8,1999],[98.8,2083],[98.8,2166],[98.8,2249],[98.8,2333],[98.1,2418],[97.1,2501],[94.9,2585],[93.6,2668],[93.3,2750],[93.3,2833],[93.5,2916],[94.7,3000],[96.6,3084],[97.1,3167],[97.8,3250],[97.9,3333],[98.6,3416],[99,3500],[99.2,3583],[99.2,3666],[99.2,3749],[99.2,3833],[99.2,3916],[99.2,3999],[99.2,4083],[99.2,4166],[99.2,4249],[99.2,4333],[99.2,4416],[99.2,4499],[99.2,4583],[99.2,4666],[99.2,4749],[99.1,4833],[99.1,4916],[99.1,4999],[99.1,5083],[99.1,5166],[99.1,5249],[99,5333],[98.9,5416],[98.8,5500],[98.8,5583],[98.8,5666],[98.8,5749],[98.8,5833],[98.8,5916],[98.8,5999],[98.8,6083],[98.8,6166],[98.8,6249],[98.7,6333],[98.7,6416],[98.7,6499],[98.7,6583],[98.7,6666],[98.7,6749],[98.7,6833],[98.7,6916],[98.7,6999],[98.7,7083],[98.7,7166],[98.7,7249],[98.7,7333],[98.7,7416],[98.7,7499],[98.7,7583],[98.7,7666],[98.7,7749],[98.7,7833],[98.7,7916],[98.6,7999],[98.6,8083],[98.6,8166],[98.6,8249],[98.6,8333],[98.6,8416],[98.6,8499],[98.6,8583],[98.6,8666],[98.6,8749],[98.6,8833],[98.5,8917],[98.5,8999],[98.5,9083],[98.5,9166],[98.5,9249],[98.5,9333],[98.5,9416],[98.5,9499],[98.5,9583],[98.5,9666],[98.5,9749],[98.5,9833],[98.5,9916],[98.5,9999],[98.5,10083],[98.5,10166],[98.5,10249],[98.5,10333],[98.5,10416],[98.5,10499],[98.5,10583],[98.5,10666],[98.5,10749],[98.5,10833],[98.5,10916],[98.5,11000],[98.6,11083],[98.6,11166],[98.7,11249]]",536.871,538.0236,99.20746094,0.7755,"[{""rating"":99.20746094037911,""responseTime"":0.6334000000000515},{""rating"":99.20746094037911,""responseTime"":0.7754999999999654}]",space,0.6329,,538.0236,Partially,50,538.0248,,,[],,0,18,18,18,1,audio/Narrative8Situation9.wav,audio/Narrative7Situation9.wav,audio/Narrative6Situation9.wav,audio/Narrative5Situation9.wav,3,2,4,3,,,,,,,,,,,,,,,,,,,,,,,,,,,,,,,,,,,,,,,
,,,,,55ec49b67480920010aaa4e8,2025-07-07_23h19.16.262,group3.4_multiperson,2023.2.2,Win32,144.9275362,686c2ebf0248f13bef9af11f,686c8dcd263603325a5369f5,,,,,,,,,,,,,,,,,,,,,,,,,,,598.0234,600.5994,600.6055,2,audio/Narrative13Situation2.wav,600.6055,,600.6055,630.3432,"[[98.7,827],[84.2,1411],[62.4,1743],[62.4,1827],[62.4,1910],[62.4,1994],[63.7,2078],[64.5,2161],[64.6,2243],[64.6,2327],[64.6,2410],[64.6,2493],[64.9,2577],[66.6,2662],[69.9,2745],[70.8,2827],[71.5,2910],[71.6,2993],[71.6,3077],[71.6,3160],[68.1,3245],[53.8,3329],[41.6,3411],[39.9,3493],[39.9,3577],[37.9,3661],[35,3744],[32.7,3828],[26.3,3911],[24.1,3994],[20.3,4077],[19,4160],[17.4,4244],[17.3,4327],[17.3,4410],[17.3,4493],[17.3,4577],[17.3,4660],[17.3,4743],[17.3,4827],[17.3,4910],[17.3,4993],[17.3,5077],[17.3,5160],[17.3,5243],[17.3,5327],[17.3,5410],[17.3,5493],[17.3,5577],[17.3,5660],[17.3,5743],[17.3,5827],[17.3,5910],[17.3,5993],[17.3,6077],[17.3,6160],[17.3,6243],[17.3,6327],[17.3,6410],[17.3,6493],[17.3,6577],[18.1,6660],[18.1,6743],[18.1,6827],[17.3,6910],[14.8,6994],[13.4,7077],[13.4,7160],[13.4,7243],[13.4,7327],[13.4,7410],[13.4,7493],[13.4,7577],[13.4,7660],[13.4,7743],[13.4,7827],[13.4,7910],[13.4,7993],[13.4,8077],[13.4,8160],[13.4,8243],[13.4,8327],[13.4,8410],[13.4,8493],[13.9,8577],[15.2,8662],[35.7,8745],[45.9,8827],[46,8910],[46,8993],[46,9077],[42.7,9161],[33.6,9244],[29.9,9328],[28.1,9410],[28.5,9494],[34.8,9577],[34.8,9660],[34.8,9743],[34.8,9826],[34.3,9910],[34.3,9993],[34.3,10077],[34.3,10160],[34.1,10244],[32.4,10328],[18.8,10917],[18,11000],[17.6,11086],[17.5,11167],[16.2,11250],[13.8,11334],[13.8,11417],[13.5,11500],[13.4,11584],[13.2,11668],[13.1,11750],[13.1,11833],[13.1,11917],[13.1,12000],[13.1,12083],[13.1,12167],[13.1,12250],[13.2,12334],[14.2,12417],[14.6,12501],[14.6,12584],[14.6,12667],[14.5,12750],[14.5,12834],[14.5,12917],[14,13001],[11.9,13084],[10.6,13167],[10.6,13250],[10.5,13333],[10.5,13417],[10.5,13500],[10.1,13584],[9.5,13667],[9.5,13750],[9.4,13833],[8.3,13917],[8.1,14000],[8.1,14083],[8.1,14167],[8.1,14250],[8.1,14333],[8.1,14417],[8.1,14500],[8.1,14583],[8.1,14667],[8.1,14750],[8.1,14834],[8.1,14917],[8.1,15000],[8.4,15083],[8.7,15167],[11.3,15251],[14.2,15335],[20.6,15418],[21.9,15501],[27.6,15587],[33.8,15670],[40.6,15750],[42.4,15835],[44.9,15918],[50.3,16001],[51.8,16083],[51.8,16167],[51.8,16250],[51.8,16334],[49.9,16418],[46,16501],[44,16584],[42.5,16667],[42.5,16750],[42.5,16833],[42.5,16917],[42.5,17000],[42.5,17083],[42.5,17167],[42.5,17250],[44.6,17334],[45.8,17418],[46.1,17500],[46.9,17583],[46.9,17667],[46.9,17750],[48.8,17835],[50.6,17917],[50.6,18000],[50.6,18083],[52.3,18169],[54.9,18250],[56.5,18335],[56.7,18419],[57.3,18503],[58.1,18583],[58.1,18667],[56.9,18752],[54.5,18833],[51.3,18920],[50.5,19001],[49.5,19083],[48.7,19167],[48.7,19250],[48.7,19333],[48.7,19417],[48.7,19500],[48.7,19583],[48.7,19667],[48.7,19750],[48.5,19834],[48.2,19917],[47.6,20000],[47.6,20083],[47.3,20167],[44.8,20250],[42.5,20333],[41.9,20418],[41.7,20500],[41.7,20583],[41.7,20667],[41.7,20750],[41.7,20833],[41.7,20917],[41.7,21000],[41.7,21083],[41.7,21167],[41.7,21250],[41.7,21333],[41.7,21417],[41.7,21500],[43.1,21584],[45.9,21668],[47.2,21750],[47.2,21833],[47.3,21917],[47.3,22000],[47.3,22083],[47.3,22167],[47.3,22250],[46.3,22334],[44.5,22417],[42.3,22501],[40.2,22583],[39.9,22667],[39.9,22750],[39.6,22833],[39.6,22917],[39.6,23000],[39.6,23083],[39.6,23167],[39.6,23250],[39.6,23333],[39.6,23417],[39.6,23500],[39.6,23583],[39.6,23667],[39.7,23750],[40.7,23834],[41.7,23917],[44,24000],[48.1,24083],[50.3,24168],[50.3,24250],[50.3,24333],[50.3,24417],[50.3,24500],[50.3,24583],[50.3,24667],[50.4,24750],[50.6,24834],[52.9,24918],[54,25000],[54,25084],[54,25167],[54,25250],[54,25333],[54,25417],[54,25500],[54,25583],[54,25667],[54,25750],[54,25833],[54,25917],[53.7,26001],[53.3,26084],[53.2,26167],[53.2,26250],[53.2,26333],[53.2,26417],[53.2,26500],[53.2,26583],[53.2,26667],[53.2,26750],[53.2,26833],[53.2,26917],[50.6,27001],[49.1,27083],[49,27167],[49,27250],[49,27333],[49,27417],[48.5,27501],[47.1,27920],[46.8,28002],[44.8,28085],[43.1,28167],[42.5,28250],[38.1,28334],[36.2,28418],[36,28500],[36,28583],[35,28668],[35,28750],[34.4,28834],[33.5,28917],[33.5,29000],[33.5,29083],[33.5,29167],[33.6,29250],[34.5,29334],[35.7,29418],[37,29501],[40.7,29584],[42.2,29667]]",630.3433,630.344,,,[],,,,630.344,Definitely yes,100,630.3447,,,[],,0,0,0,0,1,audio/Narrative13Situation2.wav,audio/Narrative13Situation2.wav,audio/Narrative13Situation2.wav,audio/Narrative13Situation2.wav,2,2,2,2,,,,,538.0251,598.0232,,,,,,,,,,,,,,,,,,,,,,,,,,,,,,,,,
,,,,,55ec49b67480920010aaa4e8,2025-07-07_23h19.16.262,group3.4_multiperson,2023.2.2,Win32,144.9275362,686c2ebf0248f13bef9af11f,686c8dcd263603325a5369f5,,,,,,,,,,,,,,,,,,,,,,,,,,,,,630.3449,2,audio/Narrative5Situation1.wav,635.3493,,635.3493,648.6199,"[[54.9,1001],[54.4,1083],[53.8,1166],[53.8,1250],[53.8,1333],[53.5,1417],[51.1,1500],[49.9,1584],[48.8,1667],[47.9,1749],[47.9,1833],[47.9,1916],[49.2,2000],[53,2083],[53,2166],[52.8,2250],[48.3,2333],[43.9,2417],[40.9,2499],[40.9,2583],[40.9,2666],[40,2750],[38.2,2833],[37.9,2917],[34,3003],[32,3083],[30.2,3166],[29,3253],[28.1,3333],[28.1,3416],[28.1,3499],[28.1,3583],[28.1,3666],[27.8,3750],[27.7,3833],[27.7,3916],[27.7,3999],[27.7,4083],[27.3,4166],[27.3,4249],[27.3,4333],[27.3,4416],[27.3,4499],[27.3,4583],[27.3,4666],[27.3,4749],[27.3,4833],[27.3,4916],[27.3,4999],[27.3,5083],[27.3,5166],[27.3,5249],[27.3,5333],[27.3,5416],[27.7,5499],[27.7,5584],[27.7,5666],[27.7,5749],[27.7,5833],[27.7,5916],[27.7,5999],[27.7,6083],[27.7,6166],[27.7,6249],[27.7,6333],[27.7,6416],[27.7,6499],[27.7,6583],[27.7,6666],[28.1,6750],[29,6834],[29.1,6916],[29.1,6999],[29.1,7083],[29.1,7166],[29.1,7249],[29.1,7333],[29.1,7416],[29.1,7499],[29.1,7583],[29.1,7666],[29.1,7749],[29.1,7833],[29.1,7917],[29.1,7999],[29.1,8083],[29.1,8166],[29.1,8249],[29.1,8333],[29.1,8416],[29.1,8499],[29.1,8583],[29.1,8666],[29.1,8749],[29.1,8833],[29.1,8916],[29.1,8999],[29.1,9083],[29.1,9166],[29.1,9249],[29.1,9333],[29.1,9416],[29.1,9499],[29.1,9583],[29.1,9666],[29.1,9749],[29.1,9833],[29.1,9916],[29.1,9999],[29.1,10083],[29.1,10166],[29.1,10249],[29.1,10333],[29.1,10416],[29.1,10499],[29.1,10583],[29.1,10666],[29.1,10749],[29.1,10833],[29.1,10916],[29.1,10999],[29.1,11083],[29.1,11166],[29.1,11249],[29.1,11333],[29.1,11416],[29.1,11499],[29.1,11583],[29.1,11666],[29.1,11750],[29.1,11833],[29.1,11916],[29.1,11999],[29.1,12083],[29.1,12166],[29.1,12249],[29.1,12332],[29.1,12416],[29,12499],[29,12583],[29,12666],[29,12749],[29,12833],[28.9,12917],[28.9,12999],[28.9,13083],[29.7,13167],[30.6,13249]]",648.62,652.5018,59.28859738,2.6454,"[{""rating"":59.28859738205235,""responseTime"":2.6453999999998814}]",space,3.3583,,652.5018,Definitely yes,100,652.5026,,,[],,0,1,1,1,1,audio/Narrative7Situation1.wav,audio/Narrative8Situation1.wav,audio/Narrative5Situation1.wav,audio/Narrative6Situation1.wav,2,5,5,2,,,,,,,,,,,,,,,,,,,,,,,,,,,,,,,,,,,,,,,
,,,,,55ec49b67480920010aaa4e8,2025-07-07_23h19.16.262,group3.4_multiperson,2023.2.2,Win32,144.9275362,686c2ebf0248f13bef9af11f,686c8dcd263603325a5369f5,,,,,,,,,,,,,,,,,,,,,,,,,,,,,652.5028,2,audio/Narrative5Situation2.wav,655.5087,,655.5087,684.9599,"[[59.6,1416],[87.4,1584],[83.7,1667],[72.3,1750],[53.9,2250],[56.2,2334],[56.3,2416],[56.3,2499],[56.7,2583],[56.7,2666],[56.7,2750],[56.5,2833],[53.3,2917],[50.7,3000],[48.7,3084],[45.8,3167],[45.7,3249],[45.7,3333],[45.5,3416],[45.2,3499],[44.9,3583],[44.9,3666],[44.9,3749],[44.9,3835],[44.8,3916],[44.3,4002],[43.8,4083],[43,4169],[42.6,4250],[42.6,4333],[42.6,4416],[42.6,4499],[42.6,4583],[42.1,4666],[42.1,4749],[42,4833],[42,4916],[42,4999],[42,5083],[42,5166],[42,5249],[42,5333],[42,5416],[42,5499],[42,5583],[42,5667],[42,5749],[42.2,5834],[44.7,5916],[44.7,5999],[44.7,6083],[44.7,6166],[44.7,6249],[44.7,6333],[44.7,6416],[44.7,6499],[44.7,6583],[44.7,6666],[44.7,6749],[44.7,6833],[44.7,6916],[44.7,6999],[44.7,7083],[44.7,7166],[44.7,7249],[44.7,7333],[44.7,7416],[44.7,7499],[44.7,7583],[44.7,7666],[44.7,7750],[44.7,7833],[44.7,7916],[44.7,7999],[44.7,8083],[44.7,8166],[44.7,8249],[44.4,8335],[43.8,8419],[43.8,8499],[43.8,8583],[43.8,8666],[43.8,8749],[43.8,8833],[43.8,8916],[43.8,8999],[43.8,9083],[43.8,9166],[43.8,9249],[43.8,9333],[43.8,9416],[43.8,9499],[43.8,9583],[43.8,9666],[43.8,9749],[43.8,9833],[43.8,9916],[43.8,9999],[43.8,10083],[43.8,10166],[43.8,10249],[43.8,10333],[43.8,10416],[43.8,10499],[43.8,10583],[43.8,10666],[43.8,10749],[43.8,10833],[43.8,10916],[43.8,10999],[43.8,11083],[43.8,11166],[43.8,11249],[43.8,11333],[43.8,11416],[43.8,11499],[43.8,11583],[43.8,11666],[43.8,11749],[43.8,11833],[43.8,11916],[43.8,11999],[43.8,12083],[43.8,12166],[43.8,12249],[43.8,12333],[43.8,12416],[43.8,12499],[43.8,12583],[43.8,12666],[43.8,12749],[43.8,12833],[43.8,12916],[43.8,12999],[43.8,13084],[43.8,13166],[43.8,13249],[43.8,13333],[43.8,13418],[43.8,13499],[43.8,13583],[43.8,13666],[43.8,13749],[43.8,13833],[43.8,13916],[43.8,13999],[43.8,14083],[43.8,14166],[43.8,14249],[54.9,14750],[54.7,14833],[54.7,14916],[58,15000],[64.6,15084],[64.7,15166],[64.9,15249],[64.9,15333],[64.9,15416],[64.9,15499],[63.7,15583],[62.8,15666],[61.8,15749],[60.2,15834],[57.6,15917],[55.6,16000],[52.4,16083],[50.2,16167],[47.1,16250],[45.6,16334],[45.2,16416],[45.2,16499],[45.2,16583],[45.2,16666],[48.4,16752],[55.7,16836],[56.5,16916],[57.7,17002],[57.8,17083],[57.8,17166],[57.8,17250],[57.8,17333],[58.5,17417],[58.5,17499],[58.5,17583],[58.5,17666],[58.5,17749],[55.6,17833],[49.5,17917],[46.9,18000],[44.7,18084],[42.8,18167],[42.4,18249],[42.4,18333],[42.4,18416],[42.4,18499],[42.4,18583],[42.4,18666],[42.6,18749],[43.6,18833],[47.5,18918],[47.8,18999],[47.8,19083],[47.8,19166],[47.8,19249],[47.8,19333],[47.8,19416],[47.8,19499],[47.8,19583],[47.8,19666],[47.8,19749],[48.1,19834],[56.3,19917],[64.4,20000],[70.6,20084],[76.3,20167],[80.8,20250],[81.2,20333],[83.5,20417],[86.5,20499],[86.7,20583],[86.7,20666],[86.7,20749],[86.7,20833],[86.7,20916],[86.7,20999],[86.7,21083],[86.7,21166],[86.7,21249],[86.7,21333],[86.7,21416],[86.7,21500],[86.7,21583],[86.7,21666],[86.7,21749],[86.7,21835],[86.7,21916],[86.7,21999],[86.7,22083],[86.7,22166],[86.7,22249],[86.7,22333],[86.7,22416],[86.7,22499],[86.7,22583],[86.5,22668],[85.6,22751],[84.2,22834],[83.2,22917],[79.6,23000],[77,23083],[75.6,23166],[75.6,23249],[75.6,23333],[75.6,23416],[75.6,23499],[75.6,23583],[75.6,23666],[75.6,23749],[75.6,23833],[75.6,23916],[75.6,23999],[75.6,24083],[75.6,24166],[75.6,24249],[75.6,24333],[75.6,24416],[75.6,24499],[75.6,24583],[75.6,24666],[75.6,24752],[75.6,24833],[75.6,24916],[75.6,24999],[75.6,25083],[75.6,25166],[75.6,25249],[75.6,25333],[75.6,25416],[75.6,25499],[75.6,25583],[75.6,25666],[75.6,25749],[75.6,25833],[75.6,25916],[75.6,25999],[75.6,26083],[75.6,26166],[75.6,26249],[75.6,26333],[75.6,26416],[75.6,26499],[75.6,26583],[75.6,26666],[75.6,26749],[75.6,26833],[75.6,26916],[75.6,26999],[75.6,27083],[75.6,27166],[75.6,27249],[75.6,27333],[75.6,27416],[75.6,27499],[75.6,27583],[75.6,27666],[75.6,27750],[75.6,27833],[75.6,27916],[75.6,27999],[75.6,28083],[75.6,28166],[75.6,28249],[75.6,28333],[75.6,28416],[75.6,28499],[75.6,28583],[75.6,28666],[75.6,28749],[75.6,28833],[75.6,28916],[75.6,28999],[75.6,29083],[75.6,29166],[75.6,29249],[75.6,29333],[75.6,29416]]",684.9599,688.7097,94.28595874,3.0769,"[{""rating"":86.86463827532575,""responseTime"":2.3823999999999614},{""rating"":94.28595874238599,""responseTime"":3.0768999999999096}]",space,3.2331,,688.7098,Partially,50,688.7109,,,[],,0,2,2,2,1,audio/Narrative7Situation2.wav,audio/Narrative8Situation2.wav,audio/Narrative5Situation2.wav,audio/Narrative6Situation2.wav,3,3,3,3,,,,,,,,,,,,,,,,,,,,,,,,,,,,,,,,,,,,,,,
,,,,,55ec49b67480920010aaa4e8,2025-07-07_23h19.16.262,group3.4_multiperson,2023.2.2,Win32,144.9275362,686c2ebf0248f13bef9af11f,686c8dcd263603325a5369f5,,,,,,,,,,,,,,,,,,,,,,,,,,,,,688.711,2,audio/Narrative5Situation3.wav,691.7168,,691.7169,705.6125,"[[79.3,1584],[74.7,1667],[74.6,1749],[74.6,1833],[70.6,1922],[65.3,2005],[62,2088],[57.1,2171],[52,2254],[51.5,2333],[49.7,2416],[49.7,2499],[49.7,2583],[49.7,2666],[49.9,2749],[51,2834],[51.6,2917],[52.8,3000],[53.5,3083],[53.5,3166],[53.5,3249],[53.5,3332],[53.5,3416],[53.5,3499],[53.5,3583],[53.5,3666],[53.5,3749],[53.5,3832],[53.5,3916],[53.5,3999],[53.5,4083],[53.5,4166],[53.5,4249],[53.5,4333],[53.5,4416],[53.5,4499],[53.5,4583],[53.5,4666],[53.5,4749],[53.5,4832],[53.5,4916],[53.5,4999],[53.5,5083],[53.5,5166],[53.5,5249],[53.5,5332],[53.5,5416],[53.5,5499],[53.5,5582],[53.5,5666],[53.5,5749],[53.5,5832],[53.5,5916],[53.5,5999],[53.5,6082],[53.5,6166],[53.5,6249],[53.5,6332],[53.5,6416],[53.5,6499],[53.5,6583],[53.5,6666],[53.5,6749],[53.5,6832],[53.5,6916],[53.5,6999],[53.5,7082],[53.5,7166],[53.5,7249],[53.5,7332],[53.5,7416],[53.5,7499],[53.5,7583],[53.5,7666],[53.5,7749],[53.5,7832],[53.5,7916],[53.5,7999],[53.5,8082],[53.5,8166],[53.5,8249],[53.5,8332],[53.5,8416],[53.5,8499],[53.5,8583],[53.5,8666],[53.5,8749],[53.5,8832],[53.5,8916],[53.5,8999],[53.5,9082],[53.5,9166],[53.5,9249],[53.5,9332],[53.5,9416],[53.5,9499],[53.5,9582],[53.5,9666],[53.5,9749],[53.5,9832],[53.5,9916],[53.5,9999],[53.5,10082],[53.5,10166],[53.5,10249],[53.5,10332],[53.5,10416],[53.5,10499],[53.5,10586],[53.5,10666],[53.5,10749],[53.5,10832],[53.5,10916],[53.5,10999],[53.5,11082],[53.5,11166],[53.5,11249],[53.5,11332],[53.5,11416],[53.5,11499],[53.5,11583],[53.5,11666],[53.5,11749],[53.5,11832],[53.5,11916],[53.5,11999],[53.5,12082],[53.5,12166],[53.5,12249],[53.5,12332],[53.5,12416],[53.5,12499],[53.5,12582],[53.5,12666],[53.5,12749],[53.5,12832],[53.5,12916],[53.5,12999],[53.5,13082],[53.5,13166],[53.5,13249],[53.5,13332],[53.5,13416],[53.5,13499],[53.5,13582],[53.5,13666],[53.5,13749],[53.5,13832]]",705.6125,709.6611,86.31780947,2.0643,"[{""rating"":86.31780946578138,""responseTime"":2.0642999999998892}]",space,3.5317,,709.6611,Partially,50,709.6619,,,[],,0,3,3,3,1,audio/Narrative7Situation3.wav,audio/Narrative8Situation3.wav,audio/Narrative5Situation3.wav,audio/Narrative6Situation3.wav,8,4,3,5,,,,,,,,,,,,,,,,,,,,,,,,,,,,,,,,,,,,,,,
,,,,,55ec49b67480920010aaa4e8,2025-07-07_23h19.16.262,group3.4_multiperson,2023.2.2,Win32,144.9275362,686c2ebf0248f13bef9af11f,686c8dcd263603325a5369f5,,,,,,,,,,,,,,,,,,,,,,,,,,,,,709.662,2,audio/Narrative5Situation4.wav,710.668,,710.668,731.0429,"[[72.2,20090],[71.5,20173],[71.3,20256],[68.6,20340]]",731.0429,733.39,100,1.7066,"[{""rating"":100,""responseTime"":1.706600000000094}]",space,1.8296,,733.3901,Partially,50,733.3909,,,[],,0,4,4,4,1,audio/Narrative7Situation4.wav,audio/Narrative8Situation4.wav,audio/Narrative5Situation4.wav,audio/Narrative6Situation4.wav,3,3,1,2,,,,,,,,,,,,,,,,,,,,,,,,,,,,,,,,,,,,,,,
,,,,,55ec49b67480920010aaa4e8,2025-07-07_23h19.16.262,group3.4_multiperson,2023.2.2,Win32,144.9275362,686c2ebf0248f13bef9af11f,686c8dcd263603325a5369f5,,,,,,,,,,,,,,,,,,,,,,,,,,,,,733.391,2,audio/Narrative5Situation5.wav,738.3969,,738.3969,753.8066,"[[68.9,2333],[69.3,2416],[68.9,2500],[68.2,2583],[68.2,2666],[68.2,2749],[67.3,2833],[64.9,2916],[61.6,3000],[59.6,3083],[58.8,3166],[58.8,3249],[58.8,3333],[58.8,3416],[58.6,3500],[58.6,3583],[58.6,3666],[57.8,3750],[56.9,3833],[55.5,3916],[52.8,4000],[51.1,4083],[47.8,4166],[46.2,4249],[45.2,4333],[40,4416],[32.4,4500],[29,4583],[27,4666],[20.5,4750],[17.2,4833],[17.2,4916],[17.2,5000],[16.3,5083],[13.8,5166],[11.7,5250],[8.5,5333],[6.4,5417],[4.9,5500],[3.5,5583],[3.5,5666],[3.5,5750],[3.5,5833],[3.5,5916],[3.5,5999],[3.6,6083],[3.9,6166],[4.2,6250],[4.4,6333],[4.6,6416],[4.6,6499],[4.6,6583],[4.6,6666],[4.6,6749],[4.6,6833],[4.6,6916],[4.6,6999],[4.6,7083],[4.6,7166],[4.6,7249],[4.6,7333],[4.6,7416],[4.6,7499],[4.6,7583],[4.6,7666],[4.6,7749],[4.6,7833],[4.7,7916],[4.7,7999],[4.7,8083],[4.7,8166],[4.7,8249],[4.7,8333],[4.7,8416],[4.7,8499],[4.7,8583],[4.7,8666],[4.7,8749],[4.7,8833],[4.7,8916],[4.7,8999],[4.7,9083],[4.7,9166],[4.7,9249],[4.7,9333],[4.7,9416],[4.7,9506],[4.7,9590],[4.7,9673],[4.7,9756],[4.7,9840],[4.7,9923],[4.7,10006],[4.7,10090],[4.7,10173],[4.7,10256],[4.7,10340],[4.7,10423],[4.7,10506],[4.7,10590],[4.7,10673],[4.7,10756],[4.7,10840],[4.7,10923],[4.7,11006],[4.9,11090],[4.9,11173],[5.3,11256],[5.9,11340],[5.9,11423],[5.9,11506],[5.9,11590],[5.9,11673],[5.9,11756],[5.9,11840],[5.9,11923],[5.9,12006],[5.9,12090],[5.9,12173],[5.9,12256],[5.9,12340],[5.9,12423],[5.9,12506],[5.9,12590],[5.9,12673],[5.9,12756],[5.9,12840],[5.9,12923],[5.9,13006],[5.9,13090],[5.9,13173],[5.9,13256],[5.9,13340],[5.9,13423],[5.9,13506],[5.9,13590],[5.9,13673],[5.9,13756],[5.9,13840],[5.9,13923],[5.9,14006],[5.9,14090],[5.9,14173],[5.9,14256],[5.9,14340],[5.9,14423],[5.9,14506],[5.9,14590],[5.9,14673],[5.9,14756],[5.9,14840],[5.9,14923],[5.9,15006],[5.9,15090],[5.9,15173],[5.9,15256],[5.9,15340]]",753.8066,757.994,3.35533526,3.4174,"[{""rating"":3.3553352600501407,""responseTime"":3.4174000000000433}]",space,3.6695,,757.994,Not at all,0,757.9954,,,[],,0,5,5,5,1,audio/Narrative7Situation5.wav,audio/Narrative8Situation5.wav,audio/Narrative5Situation5.wav,audio/Narrative6Situation5.wav,5,2,5,2,,,,,,,,,,,,,,,,,,,,,,,,,,,,,,,,,,,,,,,
,,,,,55ec49b67480920010aaa4e8,2025-07-07_23h19.16.262,group3.4_multiperson,2023.2.2,Win32,144.9275362,686c2ebf0248f13bef9af11f,686c8dcd263603325a5369f5,,,,,,,,,,,,,,,,,,,,,,,,,,,,,757.9956,2,audio/Narrative5Situation6.wav,761.0009,,761.001,766.6676,[],766.6676,772.0842,37.25902184,4.5885,"[{""rating"":37.25902183645757,""responseTime"":4.588499999999954}]",space,4.8984,,772.0842,Not at all,0,772.0852,,,[],,0,6,6,6,1,audio/Narrative7Situation6.wav,audio/Narrative8Situation6.wav,audio/Narrative5Situation6.wav,audio/Narrative6Situation6.wav,3,2,3,2,,,,,,,,,,,,,,,,,,,,,,,,,,,,,,,,,,,,,,,
,,,,,55ec49b67480920010aaa4e8,2025-07-07_23h19.16.262,group3.4_multiperson,2023.2.2,Win32,144.9275362,686c2ebf0248f13bef9af11f,686c8dcd263603325a5369f5,,,,,,,,,,,,,,,,,,,,,,,,,,,,,772.0854,2,audio/Narrative5Situation7.wav,776.091,,776.0911,797.1118,"[[38.7,1250],[43.8,1333],[50.3,1416],[60,1499],[60,1583],[58.3,1666],[58,1749],[57.4,1833],[57.4,1916],[57.4,1999],[57,2083],[55.6,2166],[55.6,2249],[55.6,2333],[55.6,2416],[55.6,2499],[55.6,2583],[55.6,2666],[55.6,2749],[55.6,2833],[55.6,2916],[55.6,2999],[55.6,3083],[55.6,3166],[55.6,3249],[55.6,3333],[55.6,3416],[55.6,3499],[55.6,3583],[55.6,3666],[55.6,3749],[55.6,3833],[55.6,3916],[55.6,4006],[55.6,4090],[55.6,4173],[55.6,4256],[55.6,4340],[55.6,4423],[55.6,4506],[55.6,4590],[55.6,4673],[55.6,4756],[55.6,4840],[55.6,4923],[55.6,5006],[55.6,5090],[55.6,5173],[55.6,5256],[55.6,5340],[55.6,5423],[55.6,5506],[55.6,5590],[55.6,5673],[55.6,5756],[55.6,5840],[55.6,5923],[55.6,6006],[55.6,6090],[55.6,6173],[55.6,6256],[55.6,6340],[55.6,6423],[55.6,6506],[55.6,6590],[55.6,6673],[55.6,6756],[55.6,6840],[55.6,6923],[55.6,7006],[55.6,7090],[55.6,7173],[55.6,7256],[55.6,7340],[55.6,7423],[55.6,7506],[55.6,7590],[55.6,7673],[55.6,7756],[55.6,7840],[55.6,7923],[55.6,8006],[55.6,8090],[55.6,8173],[55.6,8256],[55.6,8340],[55.6,8423],[55.6,8506],[55.6,8590],[55.6,8673],[55.6,8756],[55.6,8840],[55.6,8923],[55.6,9006],[55.6,9090],[55.6,9173],[55.6,9256],[55.6,9340],[55.6,9423],[55.6,9506],[55.6,9590],[55.6,9673],[55.6,9756],[55.6,9840],[55.6,9923],[55.6,10006],[55.6,10090],[55.6,10173],[55.6,10256],[55.6,10340],[55.6,10423],[55.6,10506],[55.6,10590],[55.6,10673],[55.6,10756],[55.6,10840],[55.6,10923],[55.6,11006],[55.6,11090],[55.6,11173],[55.6,11256],[55.6,11340],[55.6,11423],[55.6,11506],[55.6,11590],[55.6,11673],[55.6,11756],[55.6,11840],[55.6,11923],[55.6,12006],[55.6,12090],[55.6,12173],[55.6,12256],[55.6,12340],[55.6,12423],[55.6,12506],[55.6,12590],[55.6,12673],[55.6,12756],[55.6,12840],[55.6,12923],[55.6,13006],[55.6,13090],[55.6,13173],[55.6,13256],[55.6,13340],[55.6,13423],[55.6,13506],[55.6,13590],[55.6,13673],[55.6,13756],[55.6,13840],[55.6,13923],[55.6,14006],[55.6,14090],[55.6,14173],[55.6,14256],[55.6,14340],[55.6,14423],[55.6,14506],[55.6,14590],[55.6,14673],[55.6,14756],[55.6,14840],[55.6,14923],[55.6,15006],[55.6,15090],[55.6,15173],[55.6,15256],[55.6,15340],[55.6,15423],[55.6,15506],[55.6,15590],[55.6,15673],[55.6,15756],[55.6,15840],[55.6,15923],[56,16006],[67.4,16090],[69.6,16173],[69.7,16256],[69.7,16340],[69.7,16423],[69.7,16506],[69.2,16590],[68.3,16673],[54.2,17256],[51.8,17340],[52.4,17423],[53.3,17506],[53.5,17590],[66.1,18339],[66.1,18423],[66.2,18506],[66.1,18589],[66,18673],[61.3,18756],[59.4,18839],[58.5,18923],[57.1,19006],[57.1,19090],[57.1,19173],[56.3,19256],[55.1,19340],[54.5,19423],[54.5,19506],[54.5,19589],[54.5,19673],[54.5,19756],[54.4,19840],[54.4,19923],[54.4,20006],[53.5,20089],[52.7,20173],[52.7,20256],[52.7,20339],[52.6,20423],[49.7,20506],[49,20589],[49,20673],[49,20756],[49,20840],[49,20923],[49,21006]]",797.1119,800.452,45.46152264,1.7208,"[{""rating"":45.46152263897317,""responseTime"":1.7207999999999402}]",space,2.8245,,800.452,Definitely yes,100,800.4531,,,[],,0,7,7,7,1,audio/Narrative7Situation7.wav,audio/Narrative8Situation7.wav,audio/Narrative5Situation7.wav,audio/Narrative6Situation7.wav,5,3,4,5,,,,,,,,,,,,,,,,,,,,,,,,,,,,,,,,,,,,,,,
,,,,,55ec49b67480920010aaa4e8,2025-07-07_23h19.16.262,group3.4_multiperson,2023.2.2,Win32,144.9275362,686c2ebf0248f13bef9af11f,686c8dcd263603325a5369f5,,,,,,,,,,,,,,,,,,,,,,,,,,,,,800.4532,2,audio/Narrative5Situation8.wav,803.459,,803.459,812.2644,"[[999,0],[999,83],[999,166],[999,249],[999,333],[999,416],[999,499],[999,583],[999,666],[999,750],[999,833],[999,916],[999,999],[999,1083],[999,1166],[999,1249],[999,1333],[999,1416],[999,1499],[999,1583],[999,1666],[999,1749],[999,1833],[999,1916],[999,1999],[999,2083],[999,2166],[999,2249],[999,2333],[999,2416],[999,2499],[999,2583],[999,2666],[999,2749],[999,2833],[999,2916],[69.5,2999],[69.1,3083],[68.9,3166],[68.9,3249],[68.9,3333],[68.8,3416],[68.8,3499],[70.6,3583],[72.2,3666],[73.1,3749],[73.2,3833],[73.2,3916],[72,3999],[64.8,4083],[58.4,4166],[57.8,4249],[57.8,4333],[63.1,4416],[71.8,4499],[72,4583],[72.1,4666],[72.1,4749],[72.1,4833],[72.1,4916],[72.1,4999],[72.1,5083],[73.3,5166],[74.9,5249],[75,5333],[75,5416],[75,5499],[75,5583],[75,5666],[75,5749],[75,5833],[75,5916],[75,5999],[75,6083],[75,6166],[75,6249],[75,6333],[75,6416],[75,6499],[75,6583],[75,6666],[75,6749],[75,6833],[75,6916],[75,6999],[75,7083],[75,7166],[75,7249],[75,7333],[75,7416],[75,7499],[75,7583],[75,7666],[75,7749],[75,7833],[75,7916],[75.8,7999],[79.5,8083],[79.5,8166],[79.5,8249],[79.5,8333],[79.5,8416],[79.5,8499],[79.5,8583],[79.5,8666],[79.5,8749]]",812.2645,815.5421,87.41147567,2.5215,"[{""rating"":87.41147566728887,""responseTime"":2.5214999999999463}]",space,2.7621,,815.5421,Not at all,0,815.5433,,,[],,0,8,8,8,1,audio/Narrative7Situation8.wav,audio/Narrative8Situation8.wav,audio/Narrative5Situation8.wav,audio/Narrative6Situation8.wav,2,3,3,5,,,,,,,,,,,,,,,,,,,,,,,,,,,,,,,,,,,,,,,
,,,,,55ec49b67480920010aaa4e8,2025-07-07_23h19.16.262,group3.4_multiperson,2023.2.2,Win32,144.9275362,686c2ebf0248f13bef9af11f,686c8dcd263603325a5369f5,,,,,,,,,,,,,,,,,,,,,,,,,,,,,815.5434,2,audio/Narrative5Situation9.wav,818.5492,,818.5492,858.0765,"[[999,0],[999,83],[999,166],[999,249],[999,333],[999,416],[999,500],[999,583],[999,667],[999,750],[56.6,833],[57.3,916],[57.3,999],[57.3,1083],[57.3,1166],[54.2,1249],[50.1,1333],[49.5,1416],[49.2,1499],[47.5,1583],[47.4,1666],[47.4,1749],[47.4,1833],[47.4,1916],[47.4,1999],[47.4,2083],[51.3,2166],[64.4,2249],[68,2333],[69.5,2416],[74.4,2499],[78.2,2583],[87.4,2666],[87.4,2749],[89,2833],[90.4,2916],[90.4,2999],[90.4,3083],[91.4,3166],[93.2,3249],[94.7,3333],[96.4,3416],[97.6,3499],[97.8,3583],[98,3666],[98.1,3749],[98.3,3833],[98.3,3916],[98.4,3999],[98.4,4083],[98.4,4166],[98.4,4249],[98.4,4333],[98.4,4416],[98.4,4499],[98.4,4583],[98.4,4666],[98.4,4749],[98.4,4833],[98.4,4916],[98.4,4999],[98.4,5083],[98.4,5166],[98.4,5249],[98.4,5333],[98.4,5416],[98.4,5499],[98.4,5583],[98.4,5666],[98.4,5749],[98.4,5833],[98.4,5916],[98.4,5999],[98.4,6083],[98.3,6166],[98.2,6249],[98.1,6332],[98,6416],[98,6499],[98,6583],[98,6666],[98,6749],[98,6833],[98,6916],[98,6999],[98,7082],[98,7166],[98,7249],[98,7333],[98,7416],[98,7499],[98,7583],[98,7666],[98,7749],[98,7833],[98,7916],[98,7999],[98,8082],[98,8166],[98,8249],[98,8333],[98,8416],[98,8499],[98,8583],[98,8666],[98,8749],[98,8832],[98,8916],[98,8999],[98,9083],[98,9166],[98,9249],[98,9333],[98,9416],[98,9499],[98,9583],[98,9666],[98,9749],[98,9833],[98,9916],[98,9999],[98,10082],[98,10166],[98,10249],[98,10332],[98,10416],[98,10499],[98,10583],[98,10666],[98,10749],[98,10832],[98,10916],[98,10999],[98,11082],[98,11166],[98,11249],[98,11333],[98,11416],[98,11499],[98,11583],[98,11666],[98,11749],[98,11833],[98,11916],[98,11999],[98,12082],[98,12166],[98,12249],[98,12332],[98,12416],[98,12499],[98,12583],[98,12666],[98,12749],[98,12832],[98,12916],[98,12999],[98,13083],[98,13166],[98,13249],[98,13332],[98,13416],[98,13499],[98,13582],[98,13666],[98,13749],[98,13832],[98,13916],[98,13999],[98,14082],[98,14166],[98,14249],[98,14332],[98,14416],[98,14499],[98,14582],[98,14666],[98,14749],[98,14833],[98,14923],[98,15006],[98,15089],[98,15173],[98,15256],[98,15339],[98,15423],[98,15506],[98,15590],[98,15673],[98,15756],[98,15839],[98,15923],[98,16006],[98,16089],[98,16173],[98,16256],[98,16339],[98,16423],[98,16506],[98,16589],[98,16673],[98,16756],[98,16839],[98,16923],[98,17006],[98,17090],[98,17173],[98,17256],[98,17339],[98,17423],[98,17506],[98,17590],[98,17673],[98,17756],[98,17839],[98,17923],[98,18006],[98,18089],[98,18173],[98,18256],[98,18339],[98,18423],[98,18506],[98,18589],[98,18673],[98,18756],[98,18839],[98,18923],[98,19006],[98,19089],[98,19173],[98,19256],[98,19339],[98,19423],[98,19506],[98,19589],[98,19673],[98.3,19756],[98.3,19839],[98.3,19923],[98.3,20006],[98.3,20089],[98.3,20173],[98.3,20256],[98.3,20339],[98.3,20423],[98.3,20506],[98.3,20589],[98.3,20673],[98.3,20756],[98.3,20839],[98.3,20923],[98.3,21006],[98.3,21089],[98.3,21173],[98.3,21256],[98.3,21339],[98.3,21423],[98.3,21506],[98.3,21590],[98.3,21673],[98.3,21756],[98.3,21839],[98.3,21923],[98.3,22006],[98.3,22089],[98.3,22173],[98.3,22256],[98.3,22339],[98.3,22423],[98.3,22506],[98.3,22589],[98.3,22673],[98.3,22756],[98.3,22839],[98.3,22923],[98.3,23006],[98.3,23089],[98.3,23173],[98.3,23256],[98.3,23339],[98.3,23423],[98.3,23506],[98.3,23589],[98.3,23673],[98.3,23756],[98.3,23839],[98.3,23923],[98.3,24006],[98.3,24089],[98.3,24173],[98.3,24256],[98.3,24339],[98.3,24423],[98.3,24506],[98.3,24589],[98.3,24673],[98.3,24756],[98.3,24839],[98.3,24923],[98.3,25006],[98.3,25089],[98.3,25173],[98.3,25256],[98.3,25339],[98.3,25423],[98.3,25506],[98.3,25589],[98.3,25673],[98.3,25756],[98.3,25839],[98.3,25923],[98.3,26006],[98.3,26089],[98.3,26173],[98.3,26256],[98.3,26339],[98.3,26423],[98.3,26506],[98.3,26589],[98.3,26673],[98.3,26756],[98.3,26839],[98.3,26923],[98.3,27006],[98.3,27089],[98.3,27173],[98.3,27256],[98.3,27339],[98.3,27423],[98.3,27506],[98.3,27589],[98.3,27673],[98.3,27756],[98.3,27839],[98.3,27923],[98.3,28006],[98.3,28089],[98.3,28173],[98.3,28256],[98.3,28339],[98.3,28423],[98.3,28506],[98.3,28589],[98.3,28673],[98.3,28756],[98.3,28839],[98.3,28923],[98.3,29006],[98.2,29089],[98.2,29173],[98.2,29256],[98,29346],[97.6,29430],[96.4,29513],[96.4,29596],[96.4,29680],[96.4,29763],[96.4,29846],[96.4,29930],[96.4,30013],[97,30096],[97.7,30180],[98.6,30263],[98.6,30346],[98.6,30430],[98.6,30513],[98.6,30596],[98.6,30679],[98.6,30763],[98.6,30846],[98.6,30930],[98.6,31013],[98.6,31096],[98.6,31180],[98.6,31263],[98.6,31346],[98.6,31430],[98.6,31513],[98.6,31596],[98.6,31680],[98.6,31763],[98.6,31846],[98.6,31930],[98.6,32013],[98.6,32096],[98.6,32180],[98.6,32263],[98.6,32346],[98.6,32430],[98.6,32513],[98.6,32596],[98.6,32679],[98.6,32763],[98.6,32846],[98.6,32930],[98.6,33013],[98.6,33096],[98.6,33180],[98.6,33263],[98.6,33346],[98.6,33430],[98.6,33513],[98.6,33596],[98.6,33679],[98.6,33763],[98.6,33846],[98.6,33930],[98.6,34013],[98.6,34096],[98.6,34180],[98.6,34263],[98.6,34346],[98.6,34430],[98.6,34513],[98.6,34596],[98.6,34680],[98.6,34763],[98.6,34846],[98.6,34930],[98.6,35013],[98.6,35096],[98.6,35180],[98.6,35263],[98.6,35346],[98.6,35429],[98.6,35513],[98.6,35596],[98.6,35679],[98.6,35763],[98.6,35846],[98.6,35929],[98.6,36013],[98.6,36096],[98.6,36180],[98.6,36263],[98.6,36346],[98.6,36430],[98.6,36513],[98.6,36596],[98.6,36679],[98.6,36763],[98.6,36846],[98.6,36930],[98.6,37013],[98.6,37096],[98.6,37180],[98.6,37263],[98.6,37346],[98.6,37430],[98.6,37513],[98.6,37596],[98.6,37679],[98.6,37763],[98.6,37846],[98.6,37929],[98.6,38013],[98.6,38096],[98.6,38179],[98.6,38263],[98.6,38346],[98.6,38430],[98.6,38513],[98.6,38596],[98.6,38680],[98.6,38763],[98.6,38846],[98.6,38930],[98.6,39013],[98.6,39096],[98.6,39179],[98.6,39263],[98.6,39346],[98.6,39430],[98.6,39513]]",858.0766,861.1876,100,2.1135,"[{""rating"":100,""responseTime"":2.113499999999931}]",space,2.5897,,861.1876,Partially,50,861.1886,,,[],,0,9,9,9,1,audio/Narrative7Situation9.wav,audio/Narrative8Situation9.wav,audio/Narrative5Situation9.wav,audio/Narrative6Situation9.wav,2,3,3,4,,,,,,,,,,,,,,,,,,,,,,,,,,,,,,,,,,,,,,,
,,,,,55ec49b67480920010aaa4e8,2025-07-07_23h19.16.262,group3.4_multiperson,2023.2.2,Win32,144.9275362,686c2ebf0248f13bef9af11f,686c8dcd263603325a5369f5,,,,,,,,,,,,,,,,,,,,,,,,,,,,,861.1887,2,audio/Narrative6Situation1.wav,863.1944,,863.1945,889.7638,"[[99.6,833],[95.1,916],[57,1833],[55.3,1916],[55.3,1999],[55.3,2083],[58.2,2166],[61.1,2250],[61.1,2333],[61.1,2423],[61,2507],[59.6,2590],[57.3,2673],[56.6,2757],[56.6,2840],[56.6,2923],[68.5,3007],[82.2,3090],[83.2,3173],[88.8,3257],[94.6,3340],[98.3,3423],[98.9,3506],[98.9,3590],[98.9,3673],[98.9,3756],[98.9,3840],[98.9,3923],[98.9,4007],[98.9,4090],[98.9,4173],[98.9,4256],[98.9,4340],[98.9,4423],[98.9,4506],[98.9,4590],[98.9,4673],[98.9,4756],[97.7,4840],[96,4923],[89.1,5007],[88.3,5090],[83.5,5173],[82.9,5256],[82.9,5340],[82.9,5423],[82.9,5506],[86,5590],[92.8,5673],[94.3,5757],[94.7,5840],[97.4,5923],[100,6006],[100,6090],[100,6173],[100,6256],[99.7,6340],[96.7,6423],[94.7,6507],[92.5,6590],[92.5,6673],[91.1,6757],[78.1,6840],[72.4,6923],[69.9,7007],[69.6,7090],[69.6,7173],[69.6,7256],[69.6,7340],[70.4,7423],[70.6,7506],[70.6,7590],[70.6,7673],[70.6,7756],[70.6,7840],[70.6,7923],[70.6,8006],[70.6,8090],[70.6,8173],[70.6,8256],[70.6,8340],[70.6,8423],[70.6,8506],[70.6,8590],[70.6,8673],[70.6,8756],[70.6,8840],[70.6,8923],[70.6,9006],[70.6,9090],[70.6,9173],[70.6,9256],[70.6,9340],[70.6,9423],[70.6,9506],[70.6,9590],[70.6,9673],[63.8,9756],[60.2,9840],[60.2,9923],[60.2,10006],[59.9,10090],[58.5,10173],[58.1,10256],[58.1,10340],[58.1,10423],[58.1,10506],[58.1,10590],[58.1,10673],[58.1,10756],[58.1,10840],[58.1,10923],[58.1,11006],[58.1,11090],[51.7,11173],[44.3,11256],[30.6,11590],[29.3,11673],[26.8,11756],[26.4,11840],[22.5,11923],[20.9,12006],[20.2,12090],[17.7,12173],[16.2,12256],[15.6,12340],[12.9,12423],[12.8,12506],[12.8,12590],[12.7,12673],[12.5,12756],[12.5,12840],[12.5,12923],[12.5,13006],[12.5,13090],[12.4,13173],[12.4,13256],[12.4,13340],[12.4,13423],[12.3,13506],[12.3,13590],[12.3,13673],[12.3,13756],[12.3,13840],[12.3,13923],[12.3,14006],[12.3,14090],[12.3,14173],[12.3,14256],[12.3,14340],[12.3,14423],[12.3,14506],[12.3,14590],[11.4,14673],[9.1,14756],[7.7,14840],[7.3,14923],[7.2,15006],[7.2,15090],[7.2,15173],[7.2,15256],[7.2,15340],[7.2,15423],[7.2,15506],[7.2,15590],[7.2,15673],[7.2,15756],[7.2,15840],[7.2,15923],[7.2,16006],[7.2,16090],[7.2,16173],[7.3,16256],[7.3,16340],[7.3,16423],[7.3,16506],[7.3,16590],[7.3,16673],[7.3,16756],[7.3,16840],[7.3,16923],[7.3,17006],[7.3,17090],[7.3,17173],[7.3,17256],[7.3,17340],[7.3,17423],[7.3,17506],[7.3,17590],[7.3,17673],[7.4,17756],[7.5,17840],[7.5,17923],[7.5,18006],[7.7,18090],[7.8,18173],[7.8,18256],[7.8,18340],[7.8,18423],[7.8,18506],[7.8,18590],[7.8,18673],[7.8,18756],[7.8,18840],[7.8,18923],[7.8,19006],[7.8,19090],[7.8,19173],[7.8,19256],[7.8,19340],[7.8,19423],[7.8,19506],[7.8,19590],[7.8,19673],[7.8,19756],[7.8,19840],[7.8,19923],[7.8,20006],[7.8,20090],[7.8,20173],[7.8,20256],[7.8,20340],[14.5,20423],[16.2,20506],[19.7,20590],[27.7,20673],[62.1,21173],[66.6,21256],[70.8,21340],[71,21423],[71,21506],[71,21590],[71,21673],[71,21756],[70.6,21840],[66.2,21923],[63.3,22006],[63.1,22090],[63.1,22173],[62.9,22256],[57.5,22340],[56.6,22423],[56.5,22506],[56.5,22590],[56.5,22673],[57.2,22756],[58.1,22840],[58.5,22923],[58.5,23006],[58.5,23090],[58.5,23173],[58.5,23256],[58.5,23340],[58.5,23423],[58.5,23506],[58.5,23590],[58.5,23673],[60.6,23756],[65.3,23840],[70.6,23923],[73.9,24006],[76.5,24090],[82.1,24173],[85,24256],[87.7,24340],[91.1,24423],[93.6,24506],[93.6,24590],[93.6,24673],[94,24756],[96.3,24840],[96.4,24923],[96.4,25006],[96.4,25090],[96.4,25173],[96.4,25256],[96.4,25340],[96.4,25423],[96.4,25506],[96.4,25590],[96.4,25673],[96.4,25756],[96.4,25840],[96.4,25923],[96.4,26006],[96.4,26090],[96.4,26173],[96.4,26256],[96.4,26340],[96.4,26423],[96.4,26506]]",889.7639,895.1317,92.25485211,5.2671,"[{""rating"":92.2548521075596,""responseTime"":5.267100000000028}]",space,4.8505,,895.1318,Partially,50,895.1324,,,[],,0,10,10,10,1,audio/Narrative8Situation1.wav,audio/Narrative7Situation1.wav,audio/Narrative6Situation1.wav,audio/Narrative5Situation1.wav,5,2,2,5,,,,,,,,,,,,,,,,,,,,,,,,,,,,,,,,,,,,,,,
,,,,,55ec49b67480920010aaa4e8,2025-07-07_23h19.16.262,group3.4_multiperson,2023.2.2,Win32,144.9275362,686c2ebf0248f13bef9af11f,686c8dcd263603325a5369f5,,,,,,,,,,,,,,,,,,,,,,,,,,,,,895.1326,2,audio/Narrative6Situation2.wav,898.1387,,898.1388,926.6246,"[[999,0],[999,83],[999,166],[999,249],[999,333],[999,416],[999,499],[999,583],[999,666],[999,750],[999,833],[999,916],[999,999],[999,1083],[81.8,1166],[81.5,1249],[80.5,1333],[73.5,1416],[71,1499],[68.9,1583],[66.6,1666],[65.4,1749],[65.4,1833],[69.1,1916],[71.1,1999],[71.1,2083],[71.1,2166],[71.2,2249],[76.3,2333],[83.6,2416],[87.4,2499],[88.5,2583],[91,2666],[95,2749],[95.3,2833],[95.3,2916],[95.5,2999],[95.7,3083],[96,3166],[96.1,3249],[96.3,3333],[96.4,3416],[96.4,3499],[96.4,3583],[96.4,3666],[96.4,3749],[96.3,3833],[96,3916],[96,3999],[96,4083],[96,4166],[96,4249],[96,4333],[96,4416],[96,4499],[96,4583],[96,4666],[96,4749],[96,4833],[96,4916],[96,4999],[96,5083],[96,5166],[96,5249],[96,5333],[96,5416],[96,5499],[96,5583],[96,5666],[96,5749],[96,5833],[96,5916],[96,5999],[96,6083],[96,6166],[96,6249],[96,6333],[96,6416],[96,6499],[96,6583],[96,6666],[96,6749],[96,6833],[96,6916],[96,6999],[96,7083],[96,7166],[96,7249],[96,7333],[96,7416],[96,7499],[96,7583],[96,7666],[96,7749],[96,7833],[96,7916],[96,7999],[96,8083],[96,8166],[96,8249],[96,8333],[96,8416],[96,8499],[96,8583],[96,8666],[96,8749],[96,8833],[96,8916],[96,8999],[96,9083],[96,9166],[96,9249],[96,9333],[96,9416],[96,9499],[96,9583],[96,9666],[96,9749],[96,9833],[96,9916],[96,9999],[96,10083],[96,10166],[96,10249],[96,10333],[96,10416],[96,10499],[96,10583],[96,10666],[96,10749],[96,10833],[96,10916],[96,10999],[96,11083],[96,11166],[96,11249],[96,11333],[96,11416],[96,11499],[96,11583],[96,11666],[96,11749],[96,11833],[96,11916],[95.9,12006],[95.8,12090],[95.8,12173],[96,12256],[96,12340],[96,12423],[96.4,12506],[97.2,12590],[97.5,12673],[97.6,12756],[97.6,12840],[97.6,12923],[97.9,13006],[98.3,13090],[99.1,13173],[99.1,13256],[99.1,13340],[99.1,13423],[99.1,13506],[99.1,13590],[99.1,13673],[99.1,13756],[99,13840],[98.1,13923],[97.7,14006],[97.7,14090],[97.7,14173],[97.7,14256],[97.7,14340],[97.6,14423],[97.1,14506],[96.3,14590],[95.8,14673],[95.8,14756],[95.8,14840],[95.8,14923],[95.8,15006],[95.8,15090],[95.8,15173],[95.8,15256],[95.9,15340],[96.8,15423],[97.6,15506],[97.6,15590],[97.6,15673],[97.6,15756],[97.6,15840],[97.6,15923],[97.6,16006],[97.6,16090],[97.6,16173],[97.6,16256],[97.6,16340],[97.6,16423],[97.6,16506],[97.6,16590],[97.6,16673],[97.6,16756],[97.6,16840],[97.6,16923],[97.6,17006],[97.6,17090],[97.6,17173],[97.6,17256],[97.6,17340],[97.6,17423],[97.6,17506],[97.6,17590],[97.6,17673],[97.6,17756],[97.6,17840],[97.6,17923],[97.6,18006],[97.6,18090],[97.6,18173],[97.6,18256],[97.6,18340],[97.6,18423],[97.6,18506],[97.6,18589],[97.6,18673],[97.6,18756],[97.6,18840],[97.6,18923],[97.6,19006],[97.6,19090],[97.6,19173],[97.6,19256],[97.6,19339],[97.6,19423],[97.6,19506],[97.6,19589],[97.6,19673],[97.6,19756],[97.6,19840],[97.6,19923],[97.6,20006],[97.7,20090],[97.8,20173],[97.8,20256],[97.8,20340],[98,20423],[98.1,20506],[98.5,20589],[98.5,20673],[98.6,20756],[98.6,20839],[98.6,20923],[98.6,21006],[98.6,21089],[98.6,21173],[98.6,21256],[98.7,21340],[98.7,21423],[98.7,21506],[98.7,21590],[98.7,21673],[98.7,21756],[98.7,21839],[98.7,21923],[98.7,22006],[98.7,22090],[98.7,22173],[98.7,22256],[98.7,22340],[98.7,22423],[98.7,22506],[98.7,22589],[98.7,22673],[98.7,22756],[98.7,22839],[98.7,22923],[98.7,23006],[98.7,23089],[98.7,23173],[98.7,23256],[98.7,23339],[98.7,23423],[98.7,23506],[98.7,23589],[98.7,23673],[98.7,23756],[98.7,23839],[98.5,23923],[98.5,24006],[98.5,24089],[98.5,24173],[98.5,24256],[98.5,24339],[98.5,24423],[98.5,24506],[98.5,24589],[98.5,24673],[98.5,24756],[98.5,24839],[98.5,24923],[98.5,25006],[98.5,25089],[98.5,25173],[98.5,25256],[98.5,25339],[98.5,25423],[98.5,25506],[98.5,25589],[98.5,25673],[98.5,25756],[98.5,25839],[98.5,25923],[98.5,26006],[98.5,26089],[98.5,26173],[98.5,26256],[98.5,26339],[98.5,26423],[98.5,26506],[98.5,26589],[98.5,26673],[98.5,26756],[98.5,26839],[98.5,26923],[98.5,27006],[98.5,27089],[98.5,27173],[98.5,27256],[98.5,27339],[98.5,27423],[98.5,27506],[98.5,27589],[98.5,27673],[98.5,27756],[98.5,27839],[98.5,27923],[98.5,28006],[98.5,28089],[98.5,28173],[98.5,28256],[98.5,28339],[98.5,28423]]",926.6247,928.694,99.05120942,1.6011,"[{""rating"":99.0512094249343,""responseTime"":1.601099999999974}]",space,1.5494,,928.694,Partially,50,928.6947,,,[],,0,11,11,11,1,audio/Narrative8Situation2.wav,audio/Narrative7Situation2.wav,audio/Narrative6Situation2.wav,audio/Narrative5Situation2.wav,3,3,3,3,,,,,,,,,,,,,,,,,,,,,,,,,,,,,,,,,,,,,,,
,,,,,55ec49b67480920010aaa4e8,2025-07-07_23h19.16.262,group3.4_multiperson,2023.2.2,Win32,144.9275362,686c2ebf0248f13bef9af11f,686c8dcd263603325a5369f5,,,,,,,,,,,,,,,,,,,,,,,,,,,,,928.6948,2,audio/Narrative6Situation3.wav,933.7009,,933.7009,946.2981,"[[75.5,750],[74.6,833],[74.6,916],[74.6,999],[74.6,1083],[74.6,1166],[74.6,1249],[74.3,1333],[63.7,1416],[58.3,1500],[57.4,1583],[55.6,1666],[54.5,1749],[54.5,1833],[54.5,1916],[54.5,1999],[54.5,2083],[60.6,2166],[72.1,2250],[76,2333],[83.6,2416],[88.7,2500],[92.7,2583],[92.8,2666],[92.5,2749],[89.6,2833],[86.9,2916],[85.6,2999],[85.6,3083],[85.6,3166],[85.6,3249],[85.6,3333],[85.6,3416],[85.6,3499],[85.6,3583],[85.6,3666],[85.6,3749],[85.6,3833],[85.6,3916],[85.6,3999],[85.6,4083],[85.6,4166],[85.6,4249],[85.6,4333],[85.6,4416],[85.6,4499],[85.6,4583],[85.6,4666],[85.6,4749],[85.6,4833],[85.6,4916],[85.6,4999],[85.6,5083],[85.6,5166],[85.6,5249],[85.6,5333],[85.6,5416],[85.6,5499],[85.6,5583],[89.3,5666],[91.7,5750],[95.1,5833],[97.4,5916],[97.4,5999],[97.4,6083],[97.4,6166],[97.4,6249],[97.4,6333],[97.4,6416],[97.4,6499],[97.4,6583],[97.4,6666],[97.7,6749],[98.1,6833],[98.6,6916],[98.7,6999],[98.8,7083],[98.8,7166],[98.8,7249],[98.8,7333],[98.8,7416],[98.8,7499],[98.8,7583],[98.8,7666],[98.8,7749],[98.8,7833],[98.8,7916],[98.8,7999],[98.8,8083],[98.8,8166],[98.8,8249],[98.8,8333],[98.8,8416],[98.8,8499],[98.8,8583],[98.8,8666],[98.8,8749],[98.8,8833],[98.8,8916],[98.8,8999],[98.8,9083],[98.8,9166],[98.8,9249],[98.8,9333],[98.8,9416],[98.8,9499],[98.8,9583],[98.8,9666],[98.8,9749],[98.8,9833],[98.8,9916],[98.8,9999],[98.8,10083],[98.8,10166],[98.8,10249],[98.8,10333],[98.8,10416],[98.8,10499],[98.8,10583],[98.8,10666],[98.8,10749],[98.8,10833],[98.1,10916],[94.6,10999],[90.4,11083],[87.1,11166],[84.2,11250],[80.8,11333],[75.6,11416],[71.7,11499],[68.6,11583],[67.9,11666],[67.8,11749],[67.4,11833],[67,11916],[66.6,11999],[66.6,12083],[66.6,12166],[66,12249],[66,12333],[66,12416],[66,12499],[66,12583]]",946.2982,952.5202,84.5991887,6.0602,"[{""rating"":84.59918869700707,""responseTime"":6.060199999999895}]",space,5.7025,,952.5203,Not at all,0,952.5213,,,[],,0,12,12,12,1,audio/Narrative8Situation3.wav,audio/Narrative7Situation3.wav,audio/Narrative6Situation3.wav,audio/Narrative5Situation3.wav,4,8,5,3,,,,,,,,,,,,,,,,,,,,,,,,,,,,,,,,,,,,,,,
,,,,,55ec49b67480920010aaa4e8,2025-07-07_23h19.16.262,group3.4_multiperson,2023.2.2,Win32,144.9275362,686c2ebf0248f13bef9af11f,686c8dcd263603325a5369f5,,,,,,,,,,,,,,,,,,,,,,,,,,,,,952.5215,2,audio/Narrative6Situation4.wav,954.5272,,954.5272,967.1243,"[[81.2,500],[81.1,583],[81,666],[80.7,750],[80.6,833],[80.6,916],[80.6,999],[80.6,1083],[80.6,1166],[80.6,1249],[80.6,1333],[80.6,1416],[80.6,1499],[80.6,1583],[80.6,1666],[80.6,1749],[80.6,1833],[80.6,1916],[80.6,1999],[80.6,2083],[80.6,2166],[80.5,2249],[80.4,2333],[80.4,2416],[80.3,2499],[80.3,2583],[80.3,2666],[80.3,2749],[80.3,2833],[80.3,2916],[80.3,2999],[80.3,3083],[80.3,3166],[80.3,3249],[80.3,3333],[80.3,3416],[80.3,3499],[80.3,3583],[80.3,3666],[79.9,3750],[79.7,3833],[79.9,3916],[80.6,4000],[81,4083],[81,4166],[81.3,4249],[82.3,4333],[83.4,4416],[83.4,4499],[83.4,4583],[83.4,4666],[83.4,4749],[83.4,4833],[83.4,4916],[83.4,4999],[83.4,5083],[83.4,5166],[83.4,5249],[83.4,5333],[83.4,5416],[83.4,5499],[83.4,5583],[83.4,5666],[83.4,5749],[83.4,5833],[83.4,5916],[83.4,5999],[83.4,6083],[83.3,6166],[83.3,6249],[83.3,6333],[83.3,6416],[83.1,6499],[83.1,6583],[83.1,6666],[83.1,6749],[83.1,6833],[83.1,6916],[83.1,6999],[83.1,7083],[83.1,7166],[83.1,7249],[83.1,7333],[83.1,7416],[83.1,7499],[83.1,7583],[83.1,7666],[83.1,7749],[83.1,7833],[83.1,7916],[83.1,7999],[83.1,8083],[83.1,8166],[83.1,8249],[83.7,8333],[87.2,8416],[89.9,8499],[90.6,8583],[90.7,8666],[90.7,8749],[90.7,8833],[90.7,8916],[90.7,8999],[90.7,9083],[90.6,9166],[90.5,9249],[90.4,9333],[90.4,9416],[90.4,9499],[90.4,9583],[90.4,9666],[90.4,9749],[90.4,9833],[90.4,9916],[90.4,9999],[90.4,10083],[90.4,10166],[90.4,10249],[90.4,10333],[90.4,10416],[90.4,10499],[90.4,10583],[90.4,10666],[90.4,10749],[90.4,10833],[90.4,10916],[90.4,10999],[90.4,11083],[90.4,11166],[90.4,11249],[90.4,11333],[90.4,11416],[90.4,11499],[90.4,11583],[90.1,11666],[90.1,11749],[90.1,11833],[90.1,11916],[90.1,11999],[90.1,12083],[90.1,12166],[90.1,12249],[90.1,12333],[90.1,12416],[90.1,12499],[90.1,12583]]",967.1243,970.7839,100,3.0398,"[{""rating"":100,""responseTime"":3.039800000000014}]",space,3.1431,,970.784,Definitely yes,100,970.7852,,,[],,0,13,13,13,1,audio/Narrative8Situation4.wav,audio/Narrative7Situation4.wav,audio/Narrative6Situation4.wav,audio/Narrative5Situation4.wav,3,3,2,1,,,,,,,,,,,,,,,,,,,,,,,,,,,,,,,,,,,,,,,
,,,,,55ec49b67480920010aaa4e8,2025-07-07_23h19.16.262,group3.4_multiperson,2023.2.2,Win32,144.9275362,686c2ebf0248f13bef9af11f,686c8dcd263603325a5369f5,,,,,,,,,,,,,,,,,,,,,,,,,,,,,970.7853,2,audio/Narrative6Situation5.wav,972.7908,,972.7908,980.7353,"[[999,0],[999,83],[999,166],[999,250],[999,333],[999,416],[999,500],[999,583],[999,666],[999,750],[999,833],[999,916],[999,1000],[999,1083],[999,1166],[999,1250],[999,1333],[999,1416],[999,1500],[999,1583],[999,1666],[999,1750],[999,1833],[999,1916],[999,2000],[999,2083],[999,2166],[80.6,2250],[81.4,2333],[83.5,2416],[85.6,2500],[89.7,2583],[95.4,2666],[96.4,2750],[96.4,2833],[96.4,2916],[96.5,3000],[96.8,3083],[97.6,3166],[97.7,3249],[97.7,3333],[97.7,3416],[97.7,3499],[98.1,3583],[99.2,3666],[99.4,3750],[99.4,3833],[99.4,3916],[99.4,4000],[99.4,4083],[99.4,4166],[99.4,4250],[99.3,4333],[99.2,4416],[99.2,4499],[99.2,4583],[99.1,4666],[99,4750],[99,4833],[99,4916],[99,5000],[99,5083],[99,5166],[99,5250],[99,5333],[99,5416],[99,5500],[99,5583],[99,5666],[99,5749],[99,5833],[99,5916],[99,5999],[99,6083],[99,6166],[99,6250],[99,6333],[99,6416],[99,6499],[99,6583],[99,6666],[99,6750],[99,6833],[99,6916],[99,6999],[99,7083],[99,7166],[99,7250],[99,7333],[99,7416],[99,7499],[99,7583],[99,7666],[99,7750],[99,7833],[99,7916]]",980.7354,982.9088,99.75428117,1.7441,"[{""rating"":99.75428116750477,""responseTime"":1.744100000000003}]",space,1.6576,,982.9088,Not at all,0,982.9098,,,[],,0,14,14,14,1,audio/Narrative8Situation5.wav,audio/Narrative7Situation5.wav,audio/Narrative6Situation5.wav,audio/Narrative5Situation5.wav,2,5,2,5,,,,,,,,,,,,,,,,,,,,,,,,,,,,,,,,,,,,,,,
