consent.started,consent.stopped,consentResponse.keys,consentResponse.rt,consentResponse.duration,participantID,date,expName,psychopyVersion,OS,frameRate,STUDY_ID,SESSION_ID,opening1.started,opening1.stopped,keyEndingOpening1.keys,keyEndingOpening1.rt,keyEndingOpening1.duration,volumeAdjust.started,volumeAdjust.stopped,endingAdjust.keys,endingAdjust.rt,endingAdjust.duration,opening2.started,opening2.stopped,keyEndingOpening.keys,keyEndingOpening.rt,keyEndingOpening.duration,mouse.x,mouse.y,mouse.leftButton,mouse.midButton,mouse.rightButton,mouse.time,instructionLoop.thisRepN,instructionLoop.thisTrialN,instructionLoop.thisN,instructionLoop.thisIndex,instructionLoop.ran,readyForAudio.started,readyForAudio.stopped,fixation.started,run,audio_played,fixation.stopped,endPractice.keys,audioPre.started,audioPre.stopped,continuousResponses_audio,intRating.started,intRating.stopped,intQuestionSlider.response,intQuestionSlider.rt,intQuestionSlider.history,confirmResponse.keys,confirmResponse.rt,confirmResponse.duration,catchQuestion.started,catch_label,catch_value,catchQuestion.stopped,catchQuestionSlider.response,catchQuestionSlider.rt,catchQuestionSlider.history,confirmResponse_2.keys,audioRunLoop.thisRepN,audioRunLoop.thisTrialN,audioRunLoop.thisN,audioRunLoop.thisIndex,audioRunLoop.ran,conditions1_1,conditions2_1,conditions1_2,conditions2_2,dur1_1,dur2_1,dur1_2,dur2_2,endPractice.rt,endPractice.duration,confirmResponse_2.rt,confirmResponse_2.duration,runIntervalBreak.started,runIntervalBreak.stopped,endingBreakKey.keys,endingBreakKey.rt,endingBreakKey.duration,connection.started,connection.stopped,connectionEnding.keys,connectionEnding.rt,connectionEnding.duration,readyForText.started,readyForText.stopped,textPre.started,run_dup,textPre.stopped,continuousResponses_text,textRunLoop.thisRepN,textRunLoop.thisTrialN,textRunLoop.thisN,textRunLoop.thisIndex,textRunLoop.ran,text1_1,text1_2,text2_1,text2_2,runBreakText.started,runBreakText.stopped,endingBreakKey_2.keys,endingBreakKey_2.rt,endingBreakKey_2.duration,ending.started,ending.stopped,endingEnding.keys,endingEnding.rt,endingEnding.duration
9.99999E-05,10.4899,y,10.1783,,58a229e74d580c0001e0a766,2025-07-07_23h06.18.213,group3.4_multiperson,2023.2.2,MacIntel,128.2051282,686c2ebf0248f13bef9af11f,686c8a83d2afe7eed70bc158,,,,,,,,,,,,,,,,,,,,,,,,,,,,,,,,,,,,,,,,,,,,,,,,,,,,,,,,,,,,,,,,,,,,,,,,,,,,,,,,,,,,,,,,,,,,,,,,,,,,,,,,
,,,,,58a229e74d580c0001e0a766,2025-07-07_23h06.18.213,group3.4_multiperson,2023.2.2,MacIntel,128.2051282,686c2ebf0248f13bef9af11f,686c8a83d2afe7eed70bc158,10.4901,13.4399,space,2.9267,,,,,,,,,,,,,,,,,,,,,,,,,,,,,,,,,,,,,,,,,,,,,,,,,,,,,,,,,,,,,,,,,,,,,,,,,,,,,,,,,,,,,,,,,,,,,,,,,,,,
,,,,,58a229e74d580c0001e0a766,2025-07-07_23h06.18.213,group3.4_multiperson,2023.2.2,MacIntel,128.2051282,686c2ebf0248f13bef9af11f,686c8a83d2afe7eed70bc158,,,,,,13.4401,42.1316,space,28.3725,,,,,,,,,,,,,,,,,,,,,,,,,,,,,,,,,,,,,,,,,,,,,,,,,,,,,,,,,,,,,,,,,,,,,,,,,,,,,,,,,,,,,,,,,,,,,,,
,,,,,58a229e74d580c0001e0a766,2025-07-07_23h06.18.213,group3.4_multiperson,2023.2.2,MacIntel,128.2051282,686c2ebf0248f13bef9af11f,686c8a83d2afe7eed70bc158,,,,,,,,,,,42.1344,55.4652,space,13.3158,,[],[],[],[],[],[],0,0,0,0,1,,,,,,,,,,,,,,,,,,,,,,,,,,,,,,,,,,,,,,,,,,,,,,,,,,,,,,,,,,,,,,,,,,,,,,,,,,,,,,
,,,,,58a229e74d580c0001e0a766,2025-07-07_23h06.18.213,group3.4_multiperson,2023.2.2,MacIntel,128.2051282,686c2ebf0248f13bef9af11f,686c8a83d2afe7eed70bc158,,,,,,,,,,,55.4658,92.7143,space,37.2083,,[],[],[],[],[],[],1,0,1,0,1,,,,,,,,,,,,,,,,,,,,,,,,,,,,,,,,,,,,,,,,,,,,,,,,,,,,,,,,,,,,,,,,,,,,,,,,,,,,,,
,,,,,58a229e74d580c0001e0a766,2025-07-07_23h06.18.213,group3.4_multiperson,2023.2.2,MacIntel,128.2051282,686c2ebf0248f13bef9af11f,686c8a83d2afe7eed70bc158,,,,,,,,,,,92.7146,111.1314,space,18.395,,[],[],[],[],[],[],2,0,2,0,1,,,,,,,,,,,,,,,,,,,,,,,,,,,,,,,,,,,,,,,,,,,,,,,,,,,,,,,,,,,,,,,,,,,,,,,,,,,,,,
,,,,,58a229e74d580c0001e0a766,2025-07-07_23h06.18.213,group3.4_multiperson,2023.2.2,MacIntel,128.2051282,686c2ebf0248f13bef9af11f,686c8a83d2afe7eed70bc158,,,,,,,,,,,111.1316,134.1894,space,23.0449,,[],[],[],[],[],[],3,0,3,0,1,,,,,,,,,,,,,,,,,,,,,,,,,,,,,,,,,,,,,,,,,,,,,,,,,,,,,,,,,,,,,,,,,,,,,,,,,,,,,,
,,,,,58a229e74d580c0001e0a766,2025-07-07_23h06.18.213,group3.4_multiperson,2023.2.2,MacIntel,128.2051282,686c2ebf0248f13bef9af11f,686c8a83d2afe7eed70bc158,,,,,,,,,,,134.1897,149.1904,space,14.9844,,[],[],[],[],[],[],4,0,4,0,1,,,,,,,,,,,,,,,,,,,,,,,,,,,,,,,,,,,,,,,,,,,,,,,,,,,,,,,,,,,,,,,,,,,,,,,,,,,,,,
,,,,,58a229e74d580c0001e0a766,2025-07-07_23h06.18.213,group3.4_multiperson,2023.2.2,MacIntel,128.2051282,686c2ebf0248f13bef9af11f,686c8a83d2afe7eed70bc158,,,,,,,,,,,149.1913,162.1812,space,12.9683,,[],[],[],[],[],[],5,0,5,0,1,,,,,,,,,,,,,,,,,,,,,,,,,,,,,,,,,,,,,,,,,,,,,,,,,,,,,,,,,,,,,,,,,,,,,,,,,,,,,,
,,,,,58a229e74d580c0001e0a766,2025-07-07_23h06.18.213,group3.4_multiperson,2023.2.2,MacIntel,128.2051282,686c2ebf0248f13bef9af11f,686c8a83d2afe7eed70bc158,,,,,,,,,,,,,,,,,,,,,,,,,,,162.1826,164.7653,164.7866,1,audio/Narrative13Situation2.wav,166.7896,,166.7897,196.5237,"[[47.8,3032],[47.3,3125],[47.2,3216],[47.2,3307],[47.2,3399],[47.2,3491],[47.2,3583],[47.2,3675],[47.2,3766],[47.2,3858],[47.2,3949],[47.2,4041],[47.2,4133],[47.2,4224],[47.2,4316],[47.2,4408],[47.2,4499],[47.2,4591],[47.2,4682],[47.2,4774],[47.2,4866],[47.2,4958],[47.3,5049],[47.7,5141],[49,5233],[50,5325],[50.3,5415],[50.3,5508],[50.3,5599],[50.3,5690],[50.3,5783],[50.3,5875],[50.3,5965],[50.3,6058],[50.3,6149],[50.3,6241],[50.3,6332],[50.3,6424],[50.3,6516],[50.3,6607],[50.3,6699],[50.3,6790],[50.3,6882],[50.4,6974],[50.5,7066],[50.5,7157],[50.5,7249],[50.5,7341],[50.5,7433],[50.5,7523],[50.5,7616],[50.5,7708],[50.5,7798],[50.5,7891],[50.5,7983],[53.8,8074],[69.9,8166],[73.3,8258],[74.9,8349],[75.9,8441],[77,8533],[77.1,8624],[77.1,8716],[77.1,8807],[77.1,8899],[77.1,8991],[77.1,9082],[77.1,9174],[77.1,9265],[79.7,9358],[83.8,9450],[84,9541],[84,9633],[84,9724],[84,9815],[84,9908],[84,9999],[84,10091],[84,10183],[84,10273],[84,10366],[84,10458],[84,10549],[84,10641],[84,10733],[84,10824],[84,10916],[84,11008],[84,11099],[84,11191],[84,11282],[84,11374],[84,11465],[84,11557],[84,11649],[84,11741],[84,11833],[84,11924],[84.1,12015],[84.1,12108],[84.1,12200],[84.2,12291],[84.2,12383],[84.2,12475],[84.3,12566],[84.5,12657],[84.5,12750],[84.5,12841],[84.5,12933],[84.5,13024],[84.5,13116],[84.5,13207],[84.5,13299],[84.5,13391],[84.5,13483],[84.5,13574],[84.5,13666],[84.5,13758],[84.5,13848],[84.5,13941],[84.5,14032],[84.5,14124],[84.5,14215],[84.5,14307],[84.5,14399],[84.6,14490],[84.8,14583],[85,14674],[85.2,14766],[86.2,14858],[87.2,14949],[87.3,15041],[87.3,15133],[87.3,15224],[87.3,15315],[87.3,15407],[87.3,15499],[87.3,15590],[87.3,15682],[87.3,15774],[87.3,15866],[87.3,15957],[87.3,16049],[87.3,16141],[87.3,16233],[87.3,16324],[87.3,16416],[87.3,16508],[88.6,16599],[89.9,16691],[90,16782],[90,16874],[90.4,16966],[90.4,17058],[90.4,17149],[90.4,17240],[90.4,17333],[90.4,17424],[90.4,17516],[90.2,17607],[89.9,17700],[89.9,17791],[89.9,17882],[89.9,17973],[90,18066],[90,18157],[90,18249],[90,18341],[90,18432],[90,18524],[90,18615],[90,18707],[90,18800],[90,18891],[90,18983],[90,19074],[90,19166],[90,19258],[91,19349],[92.2,19441],[92.3,19533],[92.4,19624],[92.4,19716],[92.4,19807],[92.5,19899],[92.6,19991],[92.6,20082],[92.6,20174],[92.6,20266],[92.6,20358],[92.6,20449],[92.6,20541],[92.6,20633],[92.6,20724],[92.6,20816],[92.6,20907],[92.6,20999],[92.6,21090],[92.6,21182],[92.6,21274],[92.6,21366],[92.6,21458],[92.6,21549],[92.8,21641],[92.8,21732],[92.8,21824],[92.8,21916],[92.8,22007],[92.8,22099],[92.8,22191],[92.8,22282],[92.8,22374],[92.8,22466],[92.8,22557],[92.8,22649],[92.8,22741],[92.8,22833],[92.8,22924],[92.8,23015],[92.8,23108],[92.8,23199],[92.8,23291],[92.8,23382],[92.8,23474],[92.8,23566],[92.8,23657],[92.8,23749],[92.8,23841],[92.8,23932],[92.8,24025],[92.7,24116],[92.2,24207],[92.1,24299],[91.7,24391],[91.5,24483],[91.9,24575],[94.2,24665],[94.7,24757],[94.7,24849],[94.7,24941],[94.7,25032],[94.7,25124],[94.7,25215],[94.5,25307],[94.4,25399],[94.3,25491],[94.3,25583],[94.3,25674],[94.3,25765],[94.3,25857],[94.3,25949],[94.3,26041],[94.3,26132],[94.3,26224],[94.3,26316],[94.3,26407],[94.3,26499],[94.3,26591],[94.3,26682],[94.3,26774],[94.3,26866],[94.3,26957],[94.3,27050],[94.3,27142],[94.3,27233],[94.3,27324],[94.3,27416],[94.3,27508],[94.3,27600],[94.3,27690],[94.3,27782],[94.3,27874],[94.3,27966],[94.3,28057],[94.3,28149],[94.3,28241],[94.3,28333],[94.3,28424],[94.3,28516],[94.3,28608],[94.3,28700],[94.2,28790],[94.2,28883],[93.8,28974],[93.2,29066],[92.5,29158],[92,29250],[91.9,29341],[91.9,29432],[91.9,29524],[91.9,29616],[91.9,29708]]",196.5242,204.2058,94.49462891,5.1592,"[{""rating"":94.49462890625,""responseTime"":5.159199999809232}]",space,7.1603,,204.206,Partially,50,204.2092,,,[],,0,0,0,0,1,audio/Narrative13Situation2.wav,audio/Narrative13Situation2.wav,audio/Narrative13Situation2.wav,audio/Narrative13Situation2.wav,2,2,2,2,,,,,,,,,,,,,,,,,,,,,,,,,,,,,,,,,,,,,,,
,,,,,58a229e74d580c0001e0a766,2025-07-07_23h06.18.213,group3.4_multiperson,2023.2.2,MacIntel,128.2051282,686c2ebf0248f13bef9af11f,686c8a83d2afe7eed70bc158,,,,,,,,,,,,,,,,,,,,,,,,,,,,,204.2094,1,audio/Narrative7Situation1.wav,207.5722,space,207.5723,263.4394,"[[999,1],[999,92],[999,183],[999,275],[999,367],[999,459],[999,550],[999,642],[999,733],[999,825],[999,917],[999,1008],[999,1100],[999,1193],[999,1283],[77.5,1375],[76.2,1467],[76.2,1558],[76.2,1650],[76.2,1741],[76.2,1832],[76.2,1925],[74.2,2016],[70.4,2109],[70.1,2200],[67.3,2291],[62.4,2383],[61.9,2475],[63,2567],[67.6,2658],[69.6,2750],[70.2,2841],[70.3,2934],[71.5,3025],[73.8,3116],[74.7,3208],[74.7,3300],[74.7,3391],[74.7,3483],[74.7,3575],[74.7,3666],[74.7,3757],[74.7,3850],[74.7,3942],[74.7,4033],[74.7,4124],[74.7,4216],[74.7,4308],[74.7,4399],[74.7,4492],[74.7,4583],[74.7,4675],[74.7,4766],[74.7,4858],[74.7,4950],[74.7,5041],[74.8,5133],[74.8,5225],[74.8,5317],[75,5408],[75,5500],[75,5591],[75.7,5683],[75.8,5774],[75.8,5867],[75.8,5959],[75.8,6050],[75.8,6141],[75.8,6233],[75.8,6325],[75.8,6416],[75.8,6508],[75.8,6600],[75.8,6691],[75.8,6783],[75.8,6875],[75.8,6966],[75.8,7058],[75.8,7150],[75.8,7242],[75.8,7332],[75.8,7425],[75.8,7517],[75.8,7608],[76.3,7700],[77.5,7791],[79.2,7883],[81,7975],[84.2,8067],[87.2,8158],[88.2,8250],[89.2,8341],[90.4,8434],[91.5,8525],[92.3,8617],[92.4,8708],[92.4,8800],[92.4,8892],[92.4,8983],[92.4,9074],[92.4,9167],[92.4,9258],[92.4,9350],[92.4,9441],[92.4,9533],[92.4,9625],[92.4,9717],[92.4,9808],[92.4,9899],[92.4,9991],[92.4,10083],[92.4,10175],[92.4,10267],[92.4,10358],[92.4,10450],[92.4,10541],[92.4,10632],[92.4,10725],[92.4,10817],[92.4,10907],[92.4,11000],[92.4,11092],[92.4,11183],[92.4,11274],[92.4,11367],[92.4,11458],[92.4,11550],[92.4,11641],[92.4,11734],[92.4,11826],[92.4,11917],[92.4,12008],[92.4,12100],[92.4,12192],[92.4,12283],[92.4,12375],[92.4,12466],[92.4,12557],[92.4,12650],[92.4,12742],[90.4,12833],[88.8,12925],[87.9,13017],[87.2,13108],[87.1,13200],[85.9,13292],[84.8,13383],[84.6,13475],[84.4,13566],[83.2,13658],[82.4,13750],[81.8,13842],[81.2,13933],[80.3,14025],[79.4,14117],[78.2,14208],[78.1,14300],[78.1,14391],[78.1,14482],[78.1,14575],[78.1,14666],[78.1,14758],[78.1,14850],[78.1,14942],[78.1,15032],[77.4,15125],[76.5,15217],[76.2,15307],[76.2,15400],[75.8,15492],[75.7,15583],[75.7,15675],[75.7,15766],[77.6,15858],[78.7,15949],[79,16042],[79.2,16133],[79.5,16225],[80,16317],[80.2,16408],[80.2,16500],[80.2,16592],[80.5,16683],[80.7,16775],[80.9,16867],[80.9,16957],[80.9,17050],[80.9,17142],[80.9,17233],[80.9,17324],[80.9,17417],[80.9,17509],[81.3,17600],[81.8,17692],[81.8,17783],[81.8,17875],[81.8,17966],[81.8,18058],[81.8,18150],[82.1,18243],[82.2,18334],[82.2,18425],[82.2,18516],[82.9,18608],[84.8,18700],[85.4,18792],[85.4,18883],[85.4,18975],[85.4,19066],[85.5,19158],[85.9,19250],[87.1,19342],[87.9,19432],[88,19525],[88,19617],[88,19708],[88.8,19800],[89,19891],[89,19983],[89,20075],[89,20167],[89,20258],[89,20350],[89,20441],[89,20533],[89,20625],[89,20716],[89,20808],[89,20900],[89,20992],[89,21083],[89,21175],[89,21267],[89,21358],[89,21449],[89,21541],[89,21633],[89,21725],[89,21817],[89,21908],[89,21999],[89,22091],[89,22183],[89,22275],[89,22367],[89,22459],[89,22549],[89,22641],[89,22733],[89,22825],[89,22916],[89,23008],[89,23099],[89,23191],[89,23283],[89,23375],[89,23467],[89,23559],[89,23650],[89,23742],[89,23834],[89,23924],[89,24016],[89,24108],[89,24199],[89,24292],[89,24383],[89,24475],[89,24567],[89,24657],[89,24749],[89,24842],[89,24933],[89,25026],[89,25116],[89,25209],[89,25300],[89,25391],[89,25483],[89,25576],[89,25666],[89,25759],[89,25851],[89.2,25941],[89.2,26033],[89.2,26125],[89.3,26216],[89.3,26308],[88.8,26400],[87.9,26491],[87.6,26583],[87.2,26675],[86.8,26766],[86.8,26858],[86.8,26950],[86.8,27042],[86.1,27133],[85.5,27224],[85.5,27317],[85.5,27409],[85.5,27499],[85.5,27591],[85.5,27682],[85.5,27775],[85.5,27867],[85.5,27958],[85.5,28049],[85.5,28140],[85.5,28233],[85.5,28325],[85.6,28416],[85.7,28508],[85.5,28599],[85.5,28691],[84.8,28783],[83.6,28874],[83.2,28966],[83.1,29058],[82.5,29149],[82.2,29242],[81.9,29333],[81.9,29425],[81.5,29517],[81.5,29608],[81.5,29700],[81.5,29791],[81.1,29883],[80.7,29974],[79.7,30067],[78.5,30158],[78.3,30250],[78.3,30342],[78.2,30433],[78.1,30525],[77.4,30616],[76.8,30708],[76.1,30800],[75.5,30892],[74.8,30983],[74.3,31074],[73.7,31166],[73.5,31258],[73.5,31349],[73.5,31443],[74.2,31533],[77.1,31625],[78.4,31717],[79.1,31808],[79.7,31900],[80.1,31991],[81,32083],[81.7,32175],[82.2,32266],[82.4,32358],[82.6,32450],[82.9,32542],[83.1,32633],[83.2,32725],[83.3,32817],[83.4,32908],[83.4,33000],[83.5,33091],[83.7,33183],[83.8,33276],[83.9,33366],[84.1,33458],[84.2,33550],[84.3,33641],[84.5,33733],[84.8,33825],[85,33916],[85,34008],[85,34100],[85.3,34192],[85.4,34283],[85.4,34375],[85.4,34467],[85.7,34558],[85.9,34649],[86.1,34742],[86.3,34832],[86.3,34925],[86.3,35016],[86.5,35108],[86.5,35200],[86.5,35292],[86.5,35383],[86.6,35475],[87,35567],[87.4,35658],[87.7,35750],[87.7,35841],[87.8,35932],[88,36025],[88,36115],[88.5,36207],[88.8,36300],[88.9,36391],[88.9,36482],[89.2,36574],[89.5,36666],[89.9,36758],[90.2,36850],[90.2,36942],[90.2,37034],[90.2,37125],[90.2,37217],[89.3,37308],[87.5,37401],[85.6,37491],[84.4,37583],[83.3,37675],[82.5,37767],[82.4,37858],[81.5,37950],[80.7,38042],[79,38134],[77.5,38225],[76.9,38317],[76.3,38408],[76.3,38500],[75.4,38592],[75.2,38683],[74.9,38774],[74.3,38867],[74.3,38957],[74.3,39051],[74.3,39141],[74.3,39234],[74.3,39324],[74.1,39416],[74.1,39508],[74.1,39600],[75.4,39691],[77.1,39783],[77.3,39874],[77.3,39967],[77.3,40058],[77.3,40150],[77.3,40242],[77.3,40333],[77.2,40425],[76.6,40517],[76.6,40608],[76.6,40700],[76.6,40792],[76.6,40883],[76.6,40975],[76.6,41067],[76.6,41159],[76.6,41250],[76.6,41341],[76.6,41434],[76.6,41525],[76.6,41617],[76.6,41708],[76.6,41800],[76.6,41891],[76.6,41983],[76.6,42075],[76.6,42166],[76.6,42258],[76.6,42350],[76.6,42442],[76.6,42533],[76.6,42625],[76.6,42716],[76.6,42808],[76.6,42899],[75.5,42992],[69.4,43083],[66.4,43174],[64.7,43267],[62.7,43358],[61.7,43450],[60.4,43542],[59.2,43633],[58.1,43725],[56.3,43816],[55.2,43908],[54.1,44000],[53.4,44092],[53.4,44183],[53.4,44275],[53.4,44366],[53.4,44458],[53.4,44550],[52.4,44642],[51.6,44733],[51.6,44825],[51.6,44916],[51.5,45009],[51,45100],[51,45192],[51,45282],[50.4,45375],[49.7,45467],[49.5,45558],[49.2,45650],[49.1,45741],[49.1,45833],[49.1,45925],[49.1,46016],[49.1,46108],[49.1,46200],[49.1,46292],[48.3,46383],[46.3,46475],[46.1,46566],[46.1,46658],[46.1,46750],[46.1,46842],[46.1,46934],[46.1,47024],[46.1,47117],[46.1,47207],[46.1,47299],[46.1,47391],[46.1,47483],[46.1,47574],[46.1,47667],[47.5,47758],[49.3,47850],[49.5,47941],[49.5,48034],[49.5,48125],[49.5,48216],[49.5,48308],[49.5,48400],[49.5,48490],[49.5,48582],[49.5,48675],[49.5,48766],[49.5,48858],[49.5,48950],[49.5,49041],[49.5,49133],[49.5,49225],[49.5,49316],[49.5,49408],[49.5,49500],[49.5,49591],[49.5,49683],[49.5,49775],[49.5,49866],[49.5,49958],[49.5,50049],[49.5,50141],[49.5,50233],[49.5,50325],[49.5,50416],[53.1,50508],[56.9,50600],[59.5,50691],[61.9,50782],[63.9,50875],[65.4,50967],[66.9,51058],[67.8,51150],[69,51242],[70.5,51333],[72.3,51425],[73.3,51517],[75.5,51608],[76.4,51700],[76.7,51791],[77.9,51883],[77.9,51975],[77.9,52066],[77.9,52158],[78.1,52250],[81.2,52342],[83.1,52433],[83.9,52525],[84.8,52616],[85,52708],[85,52800],[85,52891],[85,52983],[85,53075],[85,53167],[85,53258],[85,53350],[85,53441],[85,53533],[85,53625],[88,53718],[90.3,53808],[90.4,53900],[90.4,53992],[90.4,54083],[89.2,54175],[88.4,54266],[88,54358],[87.9,54450],[87.9,54542],[87.9,54633],[87.9,54725],[87.9,54816],[87.9,54908],[87.3,55000],[87.1,55091],[87,55183],[86.9,55274],[86.9,55366],[86.9,55458],[86.9,55550],[86.9,55641],[86.9,55733],[86.9,55825]]",263.4397,344.4143,82.56022135,76.455,"[{""rating"":82.56022135416667,""responseTime"":76.45499999999998}]",space,80.4591,,344.4144,Definitely yes,100,344.4173,,,[],,0,1,1,1,1,audio/Narrative7Situation1.wav,audio/Narrative8Situation1.wav,audio/Narrative5Situation1.wav,audio/Narrative6Situation1.wav,2,5,5,2,3.3504,,,,,,,,,,,,,,,,,,,,,,,,,,,,,,,,,,,,,,
,,,,,58a229e74d580c0001e0a766,2025-07-07_23h06.18.213,group3.4_multiperson,2023.2.2,MacIntel,128.2051282,686c2ebf0248f13bef9af11f,686c8a83d2afe7eed70bc158,,,,,,,,,,,,,,,,,,,,,,,,,,,,,344.4174,1,audio/Narrative7Situation2.wav,347.4228,,347.4229,354.8894,"[[82.2,91],[81.4,183],[80.6,274],[79.6,366],[79.1,458],[77.7,549],[76.7,641],[76.2,733],[76.2,824],[76.2,916],[76.3,1007],[76.3,1099],[76.3,1191],[76.3,1282],[76.3,1374],[76.3,1466],[76.3,1558],[76.3,1649],[76.3,1741],[76.3,1831],[76.3,1923],[76.3,2016],[76.3,2107],[76.3,2199],[76.3,2291],[77,2384],[80.4,2474],[82,2566],[82.9,2659],[83.7,2749],[83.7,2841],[83.7,2932],[83.7,3026],[83.7,3116],[83.7,3207],[83.7,3299],[83.7,3391],[83.7,3483],[83.7,3574],[83.7,3666],[83.7,3757],[82.9,3848],[82.4,3941],[82.2,4033],[81.6,4124],[81.6,4216],[81.6,4307],[81.6,4399],[81.6,4491],[81.6,4583],[81.6,4674],[81.6,4766],[81.6,4857],[81.6,4949],[81.6,5041],[81.6,5133],[81.6,5225],[81.6,5316],[81.7,5407],[81.8,5499],[81.9,5591],[81.9,5682],[81.9,5774],[82.6,5866],[83.7,5958],[83.9,6051],[84.6,6141],[85.4,6232],[85.6,6324],[85.8,6416],[86.1,6508],[86.1,6599],[86.1,6691],[86.1,6783],[86.1,6874],[86.1,6965],[86.1,7057],[86.1,7149],[86.1,7240],[86.1,7333],[86.1,7425]]",354.8896,360.7391,88.73381438,4.1433,"[{""rating"":86.11608434606481,""responseTime"":2.2852000002861246},{""rating"":88.73381438078704,""responseTime"":4.143300000190777}]",space,5.3248,,360.7392,Definitely yes,100,360.7411,,,[],,0,2,2,2,1,audio/Narrative7Situation2.wav,audio/Narrative8Situation2.wav,audio/Narrative5Situation2.wav,audio/Narrative6Situation2.wav,3,3,3,3,,,,,,,,,,,,,,,,,,,,,,,,,,,,,,,,,,,,,,,
,,,,,58a229e74d580c0001e0a766,2025-07-07_23h06.18.213,group3.4_multiperson,2023.2.2,MacIntel,128.2051282,686c2ebf0248f13bef9af11f,686c8a83d2afe7eed70bc158,,,,,,,,,,,,,,,,,,,,,,,,,,,,,360.7413,1,audio/Narrative7Situation3.wav,368.7483,,368.7484,377.9883,"[[999,1],[999,90],[999,182],[999,274],[999,366],[999,457],[999,549],[999,640],[999,732],[999,824],[999,915],[999,1008],[999,1099],[999,1190],[999,1282],[999,1374],[999,1466],[999,1557],[999,1649],[999,1741],[999,1832],[76.6,1924],[76.9,2015],[76.9,2110],[76.4,2199],[75.4,2291],[70.3,2382],[66.2,2474],[64,2565],[62.1,2657],[60.5,2749],[60.2,2840],[60.2,2932],[60.2,3024],[60.2,3115],[60.2,3206],[60.2,3299],[60.2,3390],[59.7,3482],[58.5,3574],[57.4,3665],[56.2,3757],[55.5,3849],[55.2,3940],[54,4032],[52.7,4123],[52.3,4215],[52.3,4307],[52.3,4399],[52.3,4490],[52.3,4581],[52.3,4673],[52.3,4765],[52.3,4857],[51.9,4949],[53.1,5040],[56,5132],[57.9,5224],[59.1,5315],[61.4,5407],[64,5499],[67.4,5591],[71.1,5682],[73.7,5773],[74.8,5865],[75.5,5957],[76.7,6048],[77.9,6139],[77.9,6232],[77.9,6324],[77.9,6415],[77.9,6507],[78.6,6599],[80.2,6690],[81.3,6782],[81.4,6874],[81.8,6966],[82.6,7057],[83.3,7149],[83.3,7240],[83.3,7331],[83.3,7423],[83.3,7515],[83.3,7607],[83.3,7699],[83.3,7790],[83.3,7882],[83.3,7974],[83.3,8065],[83.3,8157],[83.3,8248],[83.3,8340],[83.3,8432],[83.3,8524],[83.3,8616],[83.3,8707],[83.3,8799],[83.3,8890],[83.3,8982],[83.3,9073],[83.3,9165]]",377.9884,381.2559,78.81266276,2.2086,"[{""rating"":78.81266276041667,""responseTime"":2.2085999999046635}]",space,2.7559,,381.256,Definitely yes,100,381.2575,,,[],,0,3,3,3,1,audio/Narrative7Situation3.wav,audio/Narrative8Situation3.wav,audio/Narrative5Situation3.wav,audio/Narrative6Situation3.wav,8,4,3,5,,,,,,,,,,,,,,,,,,,,,,,,,,,,,,,,,,,,,,,
,,,,,58a229e74d580c0001e0a766,2025-07-07_23h06.18.213,group3.4_multiperson,2023.2.2,MacIntel,128.2051282,686c2ebf0248f13bef9af11f,686c8a83d2afe7eed70bc158,,,,,,,,,,,,,,,,,,,,,,,,,,,,,381.2576,1,audio/Narrative7Situation4.wav,384.2641,,384.2642,395.981,"[[77.3,1374],[73.6,1466],[67,1557],[63.8,1650],[63.5,1741],[63.3,1834],[62.8,1924],[62.7,2016],[62.5,2108],[62,2201],[61.2,2292],[61,2383],[61,2474],[60.9,2566],[58.6,2660],[55.9,2750],[53.8,2841],[51.8,2933],[50,3024],[49.1,3116],[48.3,3208],[48.3,3299],[48.3,3391],[48.3,3483],[48.3,3574],[48.3,3667],[46.6,3758],[45.5,3850],[45.4,3940],[45.4,4033],[45.4,4125],[45.4,4216],[45.4,4308],[44.6,4399],[43.8,4491],[43,4583],[42.3,4675],[41.7,4766],[41.2,4858],[40.3,4950],[39.5,5041],[39.1,5133],[39,5224],[39,5316],[39,5408],[39.4,5500],[42.4,5591],[44.2,5683],[45.2,5774],[45.2,5867],[45.2,5957],[45.2,6049],[45.2,6143],[45.2,6233],[45.2,6324],[45.2,6417],[45.2,6507],[45.2,6599],[45.2,6691],[45.2,6783],[45.2,6875],[45.2,6966],[45.2,7058],[45.2,7149],[44.6,7241],[44.4,7333],[44.4,7425],[44.3,7516],[43.7,7607],[43.2,7700],[42.6,7791],[42.1,7882],[41.6,7974],[40.8,8066],[40.4,8158],[39.9,8249],[39.9,8341],[39.9,8432],[39.9,8524],[39.9,8615],[37.2,8708],[34.5,8799],[33.4,8891],[32.8,8983],[31.7,9074],[31.5,9166],[31.1,9258],[30.3,9350],[29.5,9441],[29.5,9533],[29.5,9625],[29.5,9717],[29.5,9808],[29.5,9899],[29.5,9990],[29.5,10083],[29.5,10174],[29.5,10267],[29.5,10358],[29.5,10450],[29.3,10541],[29.1,10633],[29,10725],[29,10816],[29,10908],[28.6,11001],[28.5,11091],[28.5,11183],[28.5,11274],[28,11366],[27.8,11458],[27.8,11550],[27.8,11641]]",395.9813,398.58,12.8942419,1.6608,"[{""rating"":12.894241898148145,""responseTime"":1.6608000001907612}]",space,2.0769,,398.5801,Partially,50,398.5824,,,[],,0,4,4,4,1,audio/Narrative7Situation4.wav,audio/Narrative8Situation4.wav,audio/Narrative5Situation4.wav,audio/Narrative6Situation4.wav,3,3,1,2,,,,,,,,,,,,,,,,,,,,,,,,,,,,,,,,,,,,,,,
,,,,,58a229e74d580c0001e0a766,2025-07-07_23h06.18.213,group3.4_multiperson,2023.2.2,MacIntel,128.2051282,686c2ebf0248f13bef9af11f,686c8a83d2afe7eed70bc158,,,,,,,,,,,,,,,,,,,,,,,,,,,,,398.5825,1,audio/Narrative7Situation5.wav,403.5886,,403.5887,412.0559,"[[999,0],[999,91],[999,182],[999,274],[999,366],[999,458],[999,550],[999,641],[999,733],[999,825],[999,917],[999,1009],[999,1099],[999,1191],[999,1283],[999,1374],[999,1467],[999,1558],[999,1651],[26.2,1744],[26.1,1834],[26.1,1925],[26.1,2017],[26.1,2109],[26.1,2201],[26.1,2292],[26.1,2383],[28.2,2477],[31,2567],[33.1,2658],[33.5,2749],[35.6,2842],[39.5,2933],[42.9,3025],[45.4,3117],[47.8,3208],[49.1,3300],[49.3,3392],[49.3,3484],[49.3,3575],[49.3,3667],[49.3,3758],[49.3,3850],[49.3,3942],[49.3,4033],[49.3,4125],[49.3,4217],[49.3,4308],[49.3,4400],[49.3,4491],[49.3,4582],[49.3,4675],[49.3,4766],[49.3,4858],[49.6,4950],[49.6,5042],[49.6,5134],[49.5,5224],[49.2,5317],[49,5408],[49,5500],[49,5591],[48.8,5683],[48.8,5775],[48.8,5867],[48.3,5959],[47.6,6051],[47.3,6142],[47.1,6233],[47,6325],[47,6417],[46.8,6508],[46.8,6600],[46.2,6692],[46.2,6783],[46.2,6876],[46.2,6966],[46.2,7059],[46.2,7150],[45.8,7242],[45.7,7333],[45.6,7424],[45.5,7516],[45.3,7608],[45.2,7700],[45.2,7791],[45.2,7884],[45.1,7975],[45,8067],[45,8158],[45,8249],[44.7,8342],[44.7,8434]]",412.056,416.7475,22.53960503,2.8705,"[{""rating"":22.53960503472222,""responseTime"":2.8704999999999927}]",space,4.1739,,416.7477,Partially,50,416.7491,,,[],,0,5,5,5,1,audio/Narrative7Situation5.wav,audio/Narrative8Situation5.wav,audio/Narrative5Situation5.wav,audio/Narrative6Situation5.wav,5,2,5,2,,,,,,,,,,,,,,,,,,,,,,,,,,,,,,,,,,,,,,,
,,,,,58a229e74d580c0001e0a766,2025-07-07_23h06.18.213,group3.4_multiperson,2023.2.2,MacIntel,128.2051282,686c2ebf0248f13bef9af11f,686c8a83d2afe7eed70bc158,,,,,,,,,,,,,,,,,,,,,,,,,,,,,416.7493,1,audio/Narrative7Situation6.wav,419.756,,419.7562,429.7133,"[[30.4,1374],[41.8,1466],[46.7,1557],[51.2,1649],[55.9,1741],[58.1,1832],[58.9,1923],[58.9,2016],[58.9,2107],[58.9,2199],[58.9,2291],[58.9,2383],[58.9,2474],[58.9,2566],[58.9,2658],[58.9,2749],[58.9,2840],[59,2932],[59,3024],[59,3116],[59.7,3207],[60.7,3299],[61.1,3391],[61.5,3482],[62.3,3574],[62.7,3666],[63.2,3757],[63.5,3849],[63.9,3940],[64.1,4034],[64.4,4124],[64.8,4216],[65.2,4308],[65.7,4399],[66,4491],[66.2,4582],[66.4,4674],[66.4,4765],[66.4,4858],[66.4,4950],[66.4,5041],[66.4,5132],[66.4,5224],[66.4,5315],[66.4,5407],[66.4,5500],[65.2,5591],[65,5682],[65,5774],[65,5866],[64.8,5957],[63.8,6051],[63.5,6141],[63.2,6235],[62.5,6324],[61.7,6415],[60.8,6508],[60.2,6599],[59.8,6691],[59,6782],[59,6875],[59,6966],[59,7057],[59,7148],[58.8,7241],[58.2,7331],[58.2,7423],[58.2,7516],[58,7608],[57.6,7699],[57.6,7790],[57.3,7883],[56.5,7974],[55.7,8065],[54.9,8157],[54.4,8248],[53.7,8341],[53.2,8433],[53.1,8524],[53.1,8615],[52.8,8707],[52.7,8798],[52.4,8891],[52.3,8983],[52.2,9074],[52.2,9166],[52.2,9258],[51.9,9349],[51.5,9441],[51.3,9533],[51.2,9623],[51.2,9716],[51.2,9808],[51.2,9899]]",429.7134,432.8651,41.14809389,1.1538,"[{""rating"":41.148093894675924,""responseTime"":1.1537999997138968}]",space,2.6354,,432.8653,Partially,50,439.8314,49.87521701,3.935,"[{""rating"":49.87521701388889,""responseTime"":3.9349999999999454}]",space,0,6,6,6,1,audio/Narrative7Situation6.wav,audio/Narrative8Situation6.wav,audio/Narrative5Situation6.wav,audio/Narrative6Situation6.wav,3,2,3,2,,,6.4431,,,,,,,,,,,,,,,,,,,,,,,,,,,,,,,,,,,,
,,,,,58a229e74d580c0001e0a766,2025-07-07_23h06.18.213,group3.4_multiperson,2023.2.2,MacIntel,128.2051282,686c2ebf0248f13bef9af11f,686c8a83d2afe7eed70bc158,,,,,,,,,,,,,,,,,,,,,,,,,,,,,439.832,1,audio/Narrative7Situation7.wav,444.8393,,444.8393,461.9973,"[[49.4,1099],[49.3,1191],[49.3,1283],[49.3,1373],[49.3,1466],[49.6,1558],[50.7,1649],[51.2,1741],[51.6,1833],[52.2,1924],[52.8,2016],[53.6,2108],[53.9,2199],[53.9,2291],[53.9,2383],[53.9,2474],[53.9,2565],[53.9,2658],[54.6,2750],[55.3,2841],[55.8,2932],[56.3,3024],[56.3,3116],[56.3,3207],[56.3,3299],[56.3,3390],[56.3,3482],[56.3,3574],[56.1,3665],[56,3758],[56,3850],[56,3941],[56,4033],[56,4124],[56.8,4216],[57.2,4307],[57.3,4399],[57.3,4490],[57.4,4585],[57.8,4675],[58.1,4766],[58.1,4857],[58.1,4948],[58.3,5041],[58.6,5132],[58.6,5224],[58.6,5315],[58.6,5408],[58.6,5499],[58.6,5591],[58.6,5683],[59.9,5774],[60.9,5865],[60.9,5957],[60.9,6049],[60.9,6141],[60.9,6233],[60.9,6324],[60.9,6417],[60.9,6507],[60.9,6599],[60.9,6691],[60.9,6782],[60.9,6875],[60.7,6966],[60.7,7058],[60.7,7149],[60.7,7241],[60.7,7333],[60.7,7424],[60.7,7516],[60.4,7608],[60.1,7699],[59.4,7791],[59.1,7883],[58.8,7974],[58.5,8066],[58.2,8158],[58.1,8249],[58,8341],[58,8432],[58,8524],[58,8616],[58,8708],[58,8800],[58,8890],[58,8982],[58,9074],[58.2,9166],[58.9,9258],[58.9,9350],[58.9,9440],[58.9,9533],[58.9,9624],[58.9,9716],[59.7,9808],[62.4,9899],[62.6,9991],[62.6,10083],[62.6,10174],[63,10266],[64.4,10358],[65.6,10449],[66.9,10541],[67.7,10633],[67.9,10724],[67.9,10816],[67.9,10907],[67.9,10999],[70,11091],[73,11183],[75.3,11276],[77.3,11366],[77.5,11458],[78.3,11549],[79.8,11641],[81.1,11732],[81.9,11824],[81.9,11916],[81.9,12008],[81.9,12099],[81.9,12190],[81.9,12283],[81.9,12374],[81.9,12465],[81.9,12558],[81.9,12649],[81.9,12740],[81.9,12832],[81.9,12923],[81.9,13016],[81.9,13107],[81.9,13198],[81.9,13291],[81.9,13382],[82,13474],[82.2,13565],[82.2,13658],[82.2,13750],[82.2,13840],[82.2,13933],[82.2,14024],[82.2,14117],[82.2,14207],[82.2,14299],[82.2,14391],[82.2,14483],[82.2,14575],[82.2,14665],[82.9,14758],[83.2,14849],[83.2,14941],[83.2,15033],[83.2,15124],[83.3,15216],[83.3,15307],[83.3,15400],[83.5,15491],[83.8,15583],[83.8,15675],[83.8,15765],[83.8,15858],[83.8,15949],[83.8,16041],[83.8,16132],[83.8,16225],[83.8,16315],[83.8,16408],[83.8,16499],[83.8,16591],[83.8,16682],[83.8,16774],[83.8,16866],[83.8,16957],[83.8,17049],[83.8,17141]]",461.9974,463.6803,83.93238209,0.7867,"[{""rating"":83.93238208912037,""responseTime"":0.7866999998092297}]",space,1.1579,,463.6804,Definitely yes,100,463.6836,,,[],,0,7,7,7,1,audio/Narrative7Situation7.wav,audio/Narrative8Situation7.wav,audio/Narrative5Situation7.wav,audio/Narrative6Situation7.wav,5,3,4,5,,,,,,,,,,,,,,,,,,,,,,,,,,,,,,,,,,,,,,,
,,,,,58a229e74d580c0001e0a766,2025-07-07_23h06.18.213,group3.4_multiperson,2023.2.2,MacIntel,128.2051282,686c2ebf0248f13bef9af11f,686c8a83d2afe7eed70bc158,,,,,,,,,,,,,,,,,,,,,,,,,,,,,463.6838,1,audio/Narrative7Situation8.wav,465.6887,,465.6888,475.6972,"[[75,1282],[66.6,1375],[65.7,1467],[65.7,1558],[65.4,1651],[65.3,1742],[65.3,1833],[65,1927],[64.9,2017],[64.9,2108],[65.8,2200],[66.6,2291],[67.5,2383],[67.8,2475],[67.8,2565],[67.8,2658],[67.8,2749],[67.8,2841],[68.2,2933],[70.9,3025],[72.7,3117],[74.9,3207],[77.1,3300],[79.3,3392],[80.3,3483],[82.2,3575],[84.8,3666],[86,3758],[86.2,3850],[86.2,3942],[86.2,4033],[86.2,4125],[86.2,4216],[86.2,4308],[86.6,4400],[87.3,4492],[87.8,4584],[87.9,4676],[88.2,4767],[88.4,4858],[88.4,4950],[88.4,5041],[88.5,5133],[88.8,5225],[89,5316],[89,5407],[89.5,5500],[89.9,5592],[90,5683],[90,5776],[90,5866],[90,5958],[91.1,6050],[92.8,6141],[93.5,6233],[93.5,6325],[93.5,6417],[93.5,6508],[93.5,6600],[93.5,6691],[93.5,6782],[93.5,6875],[93.5,6967],[93.5,7059],[93.5,7149],[93.5,7241],[93.5,7333],[93.5,7425],[93.5,7516],[93.5,7608],[93.5,7700],[93.5,7791],[93.5,7884],[93.5,7974],[93.5,8066],[93.5,8158],[93.5,8249],[93.5,8342],[93.5,8433],[93.5,8525],[93.5,8617],[93.5,8708],[93.5,8799],[93.5,8891],[93.5,8983],[93.5,9075],[93.5,9166],[93.5,9258],[93.5,9350],[93.5,9441],[93.5,9534],[93.5,9625],[93.5,9716],[93.5,9808],[93.5,9900],[93.5,9991]]",475.6975,479.8308,97.76837384,1.6042,"[{""rating"":97.7683738425926,""responseTime"":1.6041999998093388}]",space,3.6127,,479.8308,Definitely yes,100,479.8321,,,[],,0,8,8,8,1,audio/Narrative7Situation8.wav,audio/Narrative8Situation8.wav,audio/Narrative5Situation8.wav,audio/Narrative6Situation8.wav,2,3,3,5,,,,,,,,,,,,,,,,,,,,,,,,,,,,,,,,,,,,,,,
,,,,,58a229e74d580c0001e0a766,2025-07-07_23h06.18.213,group3.4_multiperson,2023.2.2,MacIntel,128.2051282,686c2ebf0248f13bef9af11f,686c8a83d2afe7eed70bc158,,,,,,,,,,,,,,,,,,,,,,,,,,,,,479.8322,1,audio/Narrative7Situation9.wav,481.8388,,481.8388,490.4465,"[[999,0],[999,92],[999,182],[999,275],[999,366],[999,458],[999,550],[999,641],[999,733],[999,825],[999,917],[999,1007],[999,1099],[71,1191],[71.8,1283],[72.9,1375],[75.4,1466],[78.7,1557],[82.1,1650],[84.3,1742],[85.2,1833],[86.5,1925],[89.2,2016],[89.9,2108],[89.9,2199],[89.9,2292],[89.9,2383],[89.9,2475],[90,2567],[90.5,2658],[90.6,2750],[91.5,2842],[92,2933],[92.6,3025],[92.6,3117],[92.8,3208],[92.9,3299],[92.9,3392],[92.9,3483],[92.9,3575],[92.9,3665],[92.9,3758],[92.9,3850],[92.9,3942],[92.9,4034],[92.9,4125],[92.9,4216],[92.9,4307],[92.9,4400],[92.9,4491],[92.8,4582],[92.8,4675],[93.3,4766],[93.6,4858],[93.6,4949],[94.1,5042],[94.3,5133],[94.3,5225],[94.6,5317],[94.8,5409],[95,5499],[95,5591],[95.1,5682],[95.4,5775],[95.8,5866],[96,5958],[96.2,6050],[96.3,6142],[96.4,6233],[96.4,6325],[96.4,6417],[97,6508],[97.1,6599],[97.1,6692],[97.1,6783],[97.1,6874],[97.1,6966],[97.1,7058],[97.1,7150],[97.1,7242],[97.1,7333],[97.1,7425],[97.1,7517],[97.1,7607],[97.1,7700],[97.1,7790],[97.1,7884],[97.1,7974],[97.1,8066],[97.1,8158],[97.1,8250],[97.1,8341],[97.2,8433],[97.3,8524]]",490.4467,492.8229,98.29689308,1.1302,"[{""rating"":98.29689308449075,""responseTime"":1.130200000286095}]",space,1.8548,,492.823,Partially,50,492.8266,,,[],,0,9,9,9,1,audio/Narrative7Situation9.wav,audio/Narrative8Situation9.wav,audio/Narrative5Situation9.wav,audio/Narrative6Situation9.wav,2,3,3,4,,,,,,,,,,,,,,,,,,,,,,,,,,,,,,,,,,,,,,,
,,,,,58a229e74d580c0001e0a766,2025-07-07_23h06.18.213,group3.4_multiperson,2023.2.2,MacIntel,128.2051282,686c2ebf0248f13bef9af11f,686c8a83d2afe7eed70bc158,,,,,,,,,,,,,,,,,,,,,,,,,,,,,492.8268,1,audio/Narrative8Situation1.wav,497.8303,,497.8303,513.7314,"[[83.5,917],[64.4,1192],[65.1,1283],[65.3,1374],[65.4,1467],[65.4,1558],[65.8,1650],[66.4,1742],[66.4,1833],[66.3,1925],[65,2017],[64,2108],[63.8,2200],[63.8,2292],[63.8,2383],[65.7,2477],[68.9,2566],[70.3,2658],[71.5,2750],[72.3,2842],[72.3,2933],[72.6,3025],[73.1,3118],[73.8,3208],[74.1,3300],[74.7,3393],[75.2,3483],[75.8,3575],[76.9,3667],[77.8,3758],[78.4,3850],[78.9,3941],[78.9,4033],[78.9,4125],[78.9,4216],[78.9,4308],[78.9,4400],[78.9,4492],[78.9,4583],[78.9,4674],[78.9,4766],[78.9,4858],[78.9,4950],[78.9,5042],[78.7,5133],[77.9,5225],[77.2,5317],[77.1,5408],[76.6,5500],[76.1,5592],[75.4,5683],[74.6,5775],[73.1,5866],[71.9,5958],[70.4,6049],[69.5,6142],[68.9,6233],[68.1,6325],[67.1,6417],[66.6,6508],[66,6599],[65.3,6692],[65.1,6783],[65.1,6875],[65.1,6966],[65.1,7059],[64.5,7150],[62.9,7242],[62,7333],[61.1,7425],[59.8,7518],[59,7609],[58.4,7700],[58,7790],[58,7883],[58,7975],[58,8066],[58,8158],[58,8249],[60.2,8341],[62.1,8434],[64.5,8525],[67.5,8616],[69,8708],[69.4,8799],[71.2,8892],[71.7,8982],[71.7,9076],[71.7,9167],[73.1,9258],[75,9349],[76.1,9441],[76.7,9533],[77.4,9625],[77.4,9717],[77.9,9809],[77.9,9900],[77.9,9991],[77.6,10083],[76.5,10175],[76.2,10266],[76.2,10358],[76.4,10450],[77.1,10542],[77.6,10634],[77.6,10725],[77.6,10817],[77.6,10908],[77.5,11001],[77,11092],[77,11183],[76.7,11275],[76.6,11366],[76.8,11459],[77.2,11550],[77.2,11642],[77.2,11732],[77.2,11825],[77.7,11917],[79,12008],[80.1,12100],[80.7,12193],[81,12283],[81.6,12375],[81.9,12467],[83.1,12558],[84.1,12650],[84.3,12741],[84.3,12832],[84.3,12925],[84.3,13016],[84.3,13108],[84.3,13200],[84.3,13291],[84.3,13383],[84.3,13475],[84.3,13567],[84.3,13658],[84.3,13750],[84.3,13841],[84.3,13933],[84.3,14025],[84.3,14117],[84.3,14208],[84.3,14300],[84.3,14392],[84.3,14483],[84.3,14575],[84.3,14666],[84.3,14757],[84.2,14850],[84.1,14942],[83.7,15033],[83.4,15125],[83.4,15216],[83.4,15308],[83.4,15400],[83.4,15491],[83.4,15582],[83.4,15675],[83.4,15766],[83.4,15858]]",513.7317,517.8978,83.41878255,0.8372,"[{""rating"":83.41878255208333,""responseTime"":0.8372000002860887}]",space,3.6414,,517.898,Partially,50,517.9011,,,[],,0,10,10,10,1,audio/Narrative8Situation1.wav,audio/Narrative7Situation1.wav,audio/Narrative6Situation1.wav,audio/Narrative5Situation1.wav,5,2,2,5,,,,,,,,,,,,,,,,,,,,,,,,,,,,,,,,,,,,,,,
,,,,,58a229e74d580c0001e0a766,2025-07-07_23h06.18.213,group3.4_multiperson,2023.2.2,MacIntel,128.2051282,686c2ebf0248f13bef9af11f,686c8a83d2afe7eed70bc158,,,,,,,,,,,,,,,,,,,,,,,,,,,,,517.9014,1,audio/Narrative8Situation2.wav,520.906,,520.906,531.006,"[[999,0],[999,91],[999,182],[999,275],[999,366],[999,457],[999,549],[999,641],[999,732],[999,824],[999,915],[999,1007],[999,1099],[999,1190],[68.8,1283],[69,1374],[69.2,1466],[69.7,1557],[70.1,1649],[71,1741],[71.6,1833],[71.8,1924],[71.8,2016],[71.8,2107],[71.8,2199],[71.8,2290],[72.1,2382],[72.3,2474],[72.6,2566],[72.6,2656],[72.8,2749],[73.4,2841],[73.6,2932],[74.2,3024],[75.1,3116],[75.7,3208],[75.7,3299],[75.7,3391],[75.7,3483],[75.7,3574],[75.7,3665],[75.2,3756],[74.8,3849],[74.8,3942],[74.8,4033],[74.8,4124],[74.8,4216],[74.8,4307],[74.8,4399],[75.2,4491],[76,4583],[76.1,4674],[76.1,4766],[76.1,4857],[76.1,4949],[76.1,5041],[76.1,5132],[76.1,5224],[76.1,5316],[76.1,5408],[75.9,5499],[75.8,5591],[75.8,5683],[75.5,5774],[75.5,5866],[75.5,5958],[75.5,6049],[75.5,6141],[75.5,6232],[74.9,6324],[74.9,6416],[75,6508],[76.3,6599],[77.2,6691],[77.4,6783],[77.6,6874],[77.6,6965],[77.6,7057],[77.6,7148],[77.6,7241],[77.6,7332],[77.6,7424],[78.3,7516],[78.5,7607],[78.5,7699],[78.5,7791],[78.5,7882],[78.5,7974],[78.5,8065],[78.5,8158],[78.5,8249],[78.5,8341],[78.5,8432],[78.5,8524],[78.5,8615],[78.5,8706],[78.6,8799],[78.8,8891],[78.8,8982],[78.8,9074],[78.8,9165],[78.8,9257],[78.8,9348],[78.8,9441],[78.8,9532],[78.8,9624],[78.8,9716],[78.8,9807],[78.8,9899],[78.8,9991],[78.8,10083]]",531.0063,533.872,73.73679832,1.2649,"[{""rating"":73.73679832175925,""responseTime"":1.2649000000953947}]",space,2.3476,,533.8721,Definitely yes,100,533.8744,,,[],,0,11,11,11,1,audio/Narrative8Situation2.wav,audio/Narrative7Situation2.wav,audio/Narrative6Situation2.wav,audio/Narrative5Situation2.wav,3,3,3,3,,,,,,,,,,,,,,,,,,,,,,,,,,,,,,,,,,,,,,,
,,,,,58a229e74d580c0001e0a766,2025-07-07_23h06.18.213,group3.4_multiperson,2023.2.2,MacIntel,128.2051282,686c2ebf0248f13bef9af11f,686c8a83d2afe7eed70bc158,,,,,,,,,,,,,,,,,,,,,,,,,,,,,533.8745,1,audio/Narrative8Situation3.wav,537.8798,,537.8798,560.2396,"[[70.6,1100],[70.6,1192],[70.7,1284],[70.7,1375],[70.7,1467],[70.9,1559],[71.3,1650],[71.7,1742],[71.9,1834],[72.6,1925],[72.9,2017],[73,2109],[73,2201],[73,2292],[73,2384],[73,2475],[73,2567],[73,2659],[73,2750],[74.2,2842],[75.2,2935],[76.4,3025],[77.4,3117],[77.6,3209],[78.3,3301],[78.7,3392],[79.7,3484],[80.5,3576],[80.9,3667],[80.9,3758],[80.9,3851],[80.9,3942],[80.9,4034],[80.9,4126],[80.9,4216],[81,4309],[82.2,4402],[83.1,4493],[83.2,4585],[83.4,4675],[83.7,4767],[83.8,4859],[84.2,4950],[84.9,5042],[85.1,5134],[85.2,5225],[85.2,5317],[85.2,5409],[85.2,5500],[85.2,5592],[85.2,5684],[85.2,5776],[85.2,5867],[85.2,5959],[85.2,6050],[85.2,6142],[85.2,6234],[85.4,6326],[85.6,6417],[85.7,6508],[85.7,6601],[85.8,6692],[85.8,6784],[85.8,6876],[85.8,6966],[85.8,7059],[85.8,7150],[85.8,7242],[85.8,7334],[85.8,7424],[85.8,7516],[85.8,7608],[85.8,7699],[85.8,7792],[85.8,7884],[85.9,7975],[86,8067],[86,8158],[86.4,8250],[87.4,8342],[88.2,8434],[88.8,8525],[89.3,8617],[89.7,8709],[90.1,8800],[90.2,8892],[90.5,8983],[90.7,9074],[91.1,9166],[91.3,9258],[91.3,9351],[91.5,9443],[92,9534],[92.3,9625],[92.3,9717],[92.3,9809],[92.3,9900],[92.3,9992],[92.3,10083],[92.3,10176],[92.3,10267],[92.3,10359],[92.3,10451],[92.3,10542],[92.3,10635],[92.3,10725],[92.3,10817],[92.3,10909],[92.3,11001],[92.3,11092],[92.3,11184],[92.3,11275],[92.3,11367],[92.3,11459],[92.3,11553],[92.3,11642],[92.3,11734],[92.3,11825],[92.3,11917],[92.3,12008],[92.3,12100],[92.3,12192],[92.3,12284],[92.3,12375],[92.2,12467],[91.9,12558],[91.9,12650],[91.7,12742],[91.7,12833],[91.7,12925],[91.6,13017],[91.6,13108],[91.6,13200],[91.6,13292],[91,13386],[90.8,13476],[90.4,13566],[90.1,13659],[90.1,13750],[89.9,13842],[89.8,13934],[89.8,14025],[89.8,14117],[89.7,14209],[89.6,14300],[89.1,14391],[88,14484],[87.7,14575],[87.4,14667],[87.3,14759],[87.2,14850],[87.1,14942],[87.1,15034],[87.1,15125],[87.1,15217],[87.1,15309],[87.1,15400],[86.9,15492],[86.8,15583],[86.8,15675],[86.7,15767],[86.3,15859],[86.3,15950],[86.3,16042],[86.3,16134],[86.3,16225],[86.3,16317],[86.3,16409],[86.3,16500],[86.5,16592],[86.6,16683],[86.6,16775],[86.6,16867],[87,16959],[87.3,17050],[87.5,17143],[88.1,17234],[88.5,17325],[88.8,17417],[89.3,17508],[89.6,17600],[89.8,17692],[90.2,17783],[90.4,17875],[90.9,17967],[91.2,18059],[91.4,18150],[91.6,18242],[91.8,18333],[91.8,18425],[91.8,18516],[91.8,18609],[91.8,18700],[91.8,18792],[91.8,18884],[91.8,18975],[91.8,19067],[91.8,19159],[91.8,19250],[91.8,19342],[91.8,19434],[91.8,19526],[91.8,19617],[91.8,19709],[91.8,19800],[92,19891],[92.3,19984],[92.8,20075],[93.3,20166],[93.5,20259],[93.5,20350],[93.6,20442],[93.7,20534],[93.7,20626],[93.7,20717],[93.7,20809],[93.7,20900],[93.7,20992],[93.7,21084],[93.7,21175],[93.7,21266],[93.7,21359],[93.7,21451],[93.7,21543],[93.7,21633],[93.7,21725],[93.7,21817],[93.7,21909],[93.7,21999],[93.7,22091],[93.7,22183],[93.7,22276]]",560.24,562.7981,93.67133247,0.904,"[{""rating"":93.67133246527779,""responseTime"":0.9039999999999964}]",space,2.0334,,562.7982,Not at all,0,562.8017,,,[],,0,12,12,12,1,audio/Narrative8Situation3.wav,audio/Narrative7Situation3.wav,audio/Narrative6Situation3.wav,audio/Narrative5Situation3.wav,4,8,5,3,,,,,,,,,,,,,,,,,,,,,,,,,,,,,,,,,,,,,,,
,,,,,58a229e74d580c0001e0a766,2025-07-07_23h06.18.213,group3.4_multiperson,2023.2.2,MacIntel,128.2051282,686c2ebf0248f13bef9af11f,686c8a83d2afe7eed70bc158,,,,,,,,,,,,,,,,,,,,,,,,,,,,,562.802,1,audio/Narrative8Situation4.wav,565.8057,,565.8057,579.964,"[[92.7,1008],[89.6,1101],[65.8,1466],[63.7,1560],[63.4,1649],[63.4,1741],[63.5,1833],[63.6,1925],[64.4,2016],[66.2,2108],[67.6,2199],[69.8,2291],[71.2,2382],[71.6,2475],[71.6,2566],[71.6,2658],[72.4,2750],[75.9,2842],[77.3,2933],[78.4,3025],[80.3,3116],[81.5,3207],[82.5,3300],[83.3,3390],[83.4,3483],[83.3,3575],[83.3,3666],[83.3,3758],[83.3,3849],[83.3,3942],[83.6,4033],[84.2,4126],[84.3,4216],[84.7,4308],[85,4399],[85,4491],[85,4582],[85,4674],[85,4766],[85,4858],[85,4948],[86,5041],[89.2,5133],[90.9,5225],[92.1,5315],[92.5,5408],[93.1,5499],[93.3,5592],[93.9,5683],[94,5774],[94,5866],[94,5958],[94,6049],[94,6141],[94,6233],[94,6324],[94,6416],[94,6508],[94,6598],[94,6691],[94,6782],[94,6874],[94,6966],[94,7058],[94,7149],[94,7241],[94,7333],[94,7424],[94,7516],[94,7607],[94,7699],[94.1,7790],[94.3,7883],[94.5,7974],[94.5,8065],[94.8,8158],[94.8,8248],[95.5,8341],[95.5,8433],[95.7,8525],[95.8,8616],[96.1,8707],[96.1,8799],[96.1,8891],[96.1,8982],[96.1,9073],[96.1,9166],[96.1,9258],[95.8,9349],[95.8,9441],[95.8,9533],[95.8,9624],[95.8,9715],[95.8,9808],[95.8,9899],[95.8,9990],[96,10082],[96,10173],[96.1,10265],[96.1,10357],[96.1,10449],[96.1,10541],[95.7,10632],[95.7,10724],[95.7,10816],[95.7,10908],[95.7,10999],[95.7,11090],[95.7,11183],[95.7,11274],[95.7,11366],[95.7,11458],[95.7,11549],[95.7,11641],[95.7,11733],[95.7,11824],[94.3,11915],[93,12008],[92.1,12099],[91.2,12192],[90.8,12283],[90.3,12374],[90,12466],[90,12558],[90,12649],[89.4,12740],[88.6,12832],[88.2,12925],[87.9,13016],[87.8,13108],[87.8,13199],[87.8,13291],[87.4,13383],[87.3,13475],[87.3,13565],[87.3,13658],[87.3,13748],[87.3,13842],[87.3,13933],[87.3,14024],[87.3,14116]]",579.9642,583.2472,93.72377749,2.5744,"[{""rating"":89.5679615162037,""responseTime"":0.9410000000000309},{""rating"":91.77788628472221,""responseTime"":1.6742000002860777},{""rating"":93.72377748842592,""responseTime"":2.574400000095352}]",space,2.7664,,583.2472,Partially,50,583.2483,,,[],,0,13,13,13,1,audio/Narrative8Situation4.wav,audio/Narrative7Situation4.wav,audio/Narrative6Situation4.wav,audio/Narrative5Situation4.wav,3,3,2,1,,,,,,,,,,,,,,,,,,,,,,,,,,,,,,,,,,,,,,,
,,,,,58a229e74d580c0001e0a766,2025-07-07_23h06.18.213,group3.4_multiperson,2023.2.2,MacIntel,128.2051282,686c2ebf0248f13bef9af11f,686c8a83d2afe7eed70bc158,,,,,,,,,,,,,,,,,,,,,,,,,,,,,583.2483,1,audio/Narrative8Situation5.wav,585.2549,,585.255,593.48,"[[93.1,917],[91.2,1008],[90.3,1100],[90,1192],[90,1283],[90,1375],[90.2,1467],[90.6,1558],[90.7,1650],[90.8,1742],[91.2,1834],[91.6,1925],[91.9,2017],[92.2,2109],[92.4,2200],[92.8,2292],[93.3,2383],[93.4,2475],[93.5,2567],[93.7,2658],[93.9,2749],[93.9,2841],[94.4,2933],[94.6,3025],[95,3117],[95,3208],[95,3300],[95,3391],[95,3483],[95,3575],[95,3667],[95.1,3758],[95.3,3850],[95.3,3942],[95.5,4033],[95.6,4125],[95.6,4216],[95.6,4308],[95.6,4400],[95.6,4492],[95.6,4584],[95.6,4675],[95.6,4767],[95.6,4858],[95.6,4950],[95.6,5042],[95.6,5133],[95.6,5224],[95.6,5317],[95.6,5408],[95.6,5500],[95.6,5593],[95.6,5683],[95.6,5775],[95.6,5867],[95.6,5958],[95.6,6050],[95.7,6141],[95.8,6234],[96.2,6325],[96.3,6417],[96.3,6509],[96.3,6600],[96.3,6692],[96.3,6783],[96.3,6874],[96.3,6966],[96.3,7058],[96.3,7149],[96.3,7241],[96.3,7333],[96.1,7425],[96.1,7517],[96.1,7608],[96.1,7701],[96.1,7792],[96.1,7883],[96.1,7975],[96.1,8066],[96.1,8159]]",593.4801,614.7227,96.13986545,20.5035,"[{""rating"":96.13986545138889,""responseTime"":0.8963000001906494},{""rating"":96.13986545138889,""responseTime"":20.503499999999917}]",space,20.7257,,614.7229,Definitely yes,100,614.7271,,,[],,0,14,14,14,1,audio/Narrative8Situation5.wav,audio/Narrative7Situation5.wav,audio/Narrative6Situation5.wav,audio/Narrative5Situation5.wav,2,5,2,5,,,,,,,,,,,,,,,,,,,,,,,,,,,,,,,,,,,,,,,
,,,,,58a229e74d580c0001e0a766,2025-07-07_23h06.18.213,group3.4_multiperson,2023.2.2,MacIntel,128.2051282,686c2ebf0248f13bef9af11f,686c8a83d2afe7eed70bc158,,,,,,,,,,,,,,,,,,,,,,,,,,,,,614.7275,1,audio/Narrative8Situation6.wav,616.7303,,616.7305,623.1805,"[[94.9,1925],[92.2,2016],[90.9,2108],[89.6,2202],[88.4,2291],[87.7,2383],[86.1,2475],[84,2566],[82.2,2658],[82.2,2750],[82.2,2841],[82.2,2933],[82.2,3024],[82.2,3117],[82.2,3208],[82.2,3300],[81.6,3393],[81.2,3483],[81.1,3575],[81.1,3666],[81.1,3757],[81.1,3850],[81.1,3941],[81.1,4032],[82.6,4125],[83.4,4218],[83.7,4308],[83.7,4400],[83.7,4492],[84.3,4585],[85.4,4676],[86,4766],[86.1,4858],[86.1,4950],[86.1,5041],[86.1,5133],[86.1,5225],[86.1,5316],[86.1,5408],[86.1,5499],[86,5591],[85.9,5683],[85.7,5775],[85.7,5867],[85.5,5957],[85.3,6050],[84.9,6141],[84.6,6233],[84.3,6324],[84.3,6416]]",623.1808,624.9716,74.58812572,1.136,"[{""rating"":74.58812572337963,""responseTime"":1.136000000000081}]",space,1.2788,,624.9716,Partially,50,624.973,,,[],,0,15,15,15,1,audio/Narrative8Situation6.wav,audio/Narrative7Situation6.wav,audio/Narrative6Situation6.wav,audio/Narrative5Situation6.wav,2,3,2,3,,,,,,,,,,,,,,,,,,,,,,,,,,,,,,,,,,,,,,,
,,,,,58a229e74d580c0001e0a766,2025-07-07_23h06.18.213,group3.4_multiperson,2023.2.2,MacIntel,128.2051282,686c2ebf0248f13bef9af11f,686c8a83d2afe7eed70bc158,,,,,,,,,,,,,,,,,,,,,,,,,,,,,624.9731,1,audio/Narrative8Situation7.wav,627.9806,,627.9807,640.0562,"[[74.5,2016],[74.3,2108],[74.3,2198],[74.5,2291],[74.5,2382],[74.7,2475],[75.2,2566],[75.9,2658],[76.6,2749],[77,2841],[77.2,2933],[77.3,3024],[77.4,3116],[77.6,3208],[77.8,3299],[77.9,3393],[78.2,3483],[78.4,3576],[78.7,3665],[79.6,3758],[79.7,3849],[79.7,3941],[79.7,4033],[79.7,4124],[79.7,4216],[79.7,4308],[79.7,4398],[79.7,4490],[79.9,4583],[80.1,4674],[80.5,4766],[80.9,4857],[81,4949],[81,5041],[81,5132],[81,5224],[81,5316],[81,5408],[81,5500],[81,5591],[80.9,5683],[80.9,5774],[80.9,5865],[80.9,5958],[80.9,6049],[80.9,6141],[80.9,6233],[80.9,6324],[80.9,6415],[80.9,6508],[80.9,6599],[80.9,6691],[80.9,6782],[80.9,6874],[80.9,6966],[80.9,7058],[80.9,7149],[80.9,7241],[80.9,7332],[80.9,7424],[81.1,7516],[81.1,7608],[81.2,7699],[81.2,7791],[81.2,7883],[81.2,7974],[81.2,8067],[81.6,8157],[81.6,8249],[81.6,8341],[82.2,8433],[82.3,8524],[82.8,8618],[83.5,8708],[83.7,8799],[83.7,8891],[83.7,8982],[83.7,9073],[83.7,9165],[84.6,9258],[85.1,9349],[85.6,9441],[86.2,9533],[86.6,9624],[86.9,9716],[87.4,9808],[87.8,9898],[88.3,9992],[89.1,10085],[89.7,10174],[89.8,10266],[89.8,10357],[90,10450],[90.4,10541],[91,10633],[91,10724],[91,10816],[91,10908],[91,10999],[91,11091],[91,11183],[91,11273],[91,11366],[91,11457],[91,11549],[91,11641],[91,11733],[91,11824],[91,11916],[91,12009]]",640.0565,641.9047,82.86720558,0.8761,"[{""rating"":82.86720558449075,""responseTime"":0.8760999999046817}]",space,1.3313,,641.9047,Not at all,0,641.9058,,,[],,0,16,16,16,1,audio/Narrative8Situation7.wav,audio/Narrative7Situation7.wav,audio/Narrative6Situation7.wav,audio/Narrative5Situation7.wav,3,5,5,4,,,,,,,,,,,,,,,,,,,,,,,,,,,,,,,,,,,,,,,
,,,,,58a229e74d580c0001e0a766,2025-07-07_23h06.18.213,group3.4_multiperson,2023.2.2,MacIntel,128.2051282,686c2ebf0248f13bef9af11f,686c8a83d2afe7eed70bc158,,,,,,,,,,,,,,,,,,,,,,,,,,,,,641.9058,1,audio/Narrative8Situation8.wav,644.9061,,644.9062,657.7473,"[[81.7,1649],[81.4,1740],[81.3,1832],[81.1,1924],[80.9,2016],[79.4,2107],[78.9,2199],[78.6,2290],[78.4,2382],[78.1,2474],[77.8,2565],[77.5,2657],[77.5,2749],[77.2,2841],[77.1,2932],[77.1,3023],[77.1,3115],[77.1,3207],[77.1,3299],[77.1,3390],[77.1,3482],[77.1,3574],[77.1,3665],[76.7,3757],[74,3849],[72.6,3940],[70.7,4032],[68,4125],[65.8,4216],[63.5,4307],[61.6,4399],[60.4,4491],[60.2,4582],[60.2,4674],[60.2,4766],[60.2,4857],[60.2,4949],[59.4,5041],[57.9,5132],[57.9,5224],[57.9,5316],[58,5407],[58.5,5499],[58.6,5589],[58.6,5682],[58.8,5774],[59.3,5866],[59.9,5957],[60,6049],[60,6141],[60,6233],[60.1,6324],[60.9,6416],[61.6,6507],[62.3,6599],[62.9,6691],[63.3,6782],[63.5,6874],[63.6,6965],[63.9,7057],[64.1,7149],[64.3,7240],[64.3,7332],[64.3,7424],[64.5,7515],[64.6,7608],[64.7,7699],[64.7,7790],[65,7882],[65,7974],[65,8065],[65,8156],[65,8249],[65,8340],[65,8431],[65,8523],[65,8616],[65,8707],[65.1,8799],[66,8891],[66.9,8982],[67.2,9074],[67.7,9166],[68.5,9257],[69.1,9349],[69.5,9440],[70.3,9532],[70.3,9624],[70.3,9716],[70.3,9806],[70.3,9899],[70.3,9990],[70.3,10082],[70.3,10174],[70.3,10265],[70.3,10357],[70.3,10449],[71.2,10541],[72.1,10632],[72.4,10724],[72.4,10815],[72.4,10907],[72.4,10999],[72.4,11091],[72.4,11182],[72.6,11274],[72.6,11366],[72.6,11457],[72.6,11548],[72.6,11640],[72.6,11732],[72.6,11824],[72.6,11916],[73.1,12007],[74.1,12101],[75.1,12190],[76,12282],[76,12374],[76,12466],[76,12557],[76,12649],[76,12740],[76,12832]]",657.7475,660.8555,83.22256583,2.7201,"[{""rating"":79.27652994791667,""responseTime"":1.1452000002860814},{""rating"":80.86841724537037,""responseTime"":2.053700000286085},{""rating"":83.2225658275463,""responseTime"":2.720099999904619}]",space,2.5834,,660.8556,Partially,50,660.8584,,,[],,0,17,17,17,1,audio/Narrative8Situation8.wav,audio/Narrative7Situation8.wav,audio/Narrative6Situation8.wav,audio/Narrative5Situation8.wav,3,2,5,3,,,,,,,,,,,,,,,,,,,,,,,,,,,,,,,,,,,,,,,
,,,,,58a229e74d580c0001e0a766,2025-07-07_23h06.18.213,group3.4_multiperson,2023.2.2,MacIntel,128.2051282,686c2ebf0248f13bef9af11f,686c8a83d2afe7eed70bc158,,,,,,,,,,,,,,,,,,,,,,,,,,,,,660.8587,1,audio/Narrative8Situation9.wav,663.8637,,663.8637,675.1721,"[[81.3,641],[79.6,733],[78.1,825],[77,916],[75.4,1008],[75.1,1100],[75.1,1191],[74.5,1283],[74.5,1374],[74.5,1466],[74.5,1557],[74.5,1649],[74.5,1741],[74.5,1833],[74.5,1925],[74.5,2016],[74.5,2108],[74.5,2200],[74.5,2291],[74.5,2383],[74.5,2474],[74.5,2566],[74.5,2658],[74.5,2750],[74.5,2841],[74.5,2933],[75.2,3025],[75.6,3116],[76.6,3208],[77.9,3300],[79.2,3391],[80.5,3483],[81.3,3575],[81.9,3666],[82,3758],[82,3850],[82,3940],[82,4033],[82,4125],[82,4216],[82,4308],[82.2,4400],[83,4491],[83.6,4584],[84.1,4675],[85,4766],[85.8,4858],[86.8,4951],[87.1,5041],[87.1,5133],[87.1,5225],[87.1,5316],[87.1,5408],[87.1,5500],[87.1,5591],[87.1,5683],[87.1,5775],[87.1,5866],[87.1,5957],[87.1,6050],[87.1,6141],[87.1,6232],[87.1,6324],[87.1,6416],[87.1,6507],[87.1,6600],[87.3,6691],[87.6,6783],[87.6,6875],[87.6,6966],[87.6,7058],[87.6,7150],[87.6,7241],[87.6,7333],[87.6,7425],[87.6,7516],[87.6,7608],[87.6,7700],[87.6,7791],[87.6,7883],[87.6,7974],[87.6,8065],[87.6,8159],[87.6,8249],[87.6,8341],[87.6,8433],[87.6,8524],[87.6,8616],[87.6,8707],[87.6,8800],[87.6,8891],[87.6,8983],[87.6,9074],[87.6,9166],[87.6,9258],[87.7,9349],[88.9,9441],[89.7,9533],[89.8,9625],[89.9,9716],[89.9,9808],[89.9,9899],[89.9,9991],[89.9,10083],[91,10175],[91.6,10266],[91.7,10358],[91.7,10450],[91.7,10541],[91.7,10633],[91.7,10725],[91.7,10817],[91.7,10908],[91.7,11000],[91.7,11091],[91.7,11183],[91.7,11275]]",675.1724,677.6722,91.66757089,1.0274,"[{""rating"":91.6675708912037,""responseTime"":1.0274000000954402}]",space,1.9819,,677.6722,Definitely yes,100,677.6742,,,[],,0,18,18,18,1,audio/Narrative8Situation9.wav,audio/Narrative7Situation9.wav,audio/Narrative6Situation9.wav,audio/Narrative5Situation9.wav,3,2,4,3,,,,,,,,,,,,,,,,,,,,,,,,,,,,,,,,,,,,,,,
,,,,,58a229e74d580c0001e0a766,2025-07-07_23h06.18.213,group3.4_multiperson,2023.2.2,MacIntel,128.2051282,686c2ebf0248f13bef9af11f,686c8a83d2afe7eed70bc158,,,,,,,,,,,,,,,,,,,,,,,,,,,700.5563,703.1303,703.1373,2,audio/Narrative13Situation2.wav,703.1374,,703.1374,732.8645,"[[91.6,1184],[79.7,3934],[79.7,4025],[80,4117],[80.7,4209],[80.7,4301],[80.7,4392],[80.7,4484],[81,4575],[81.9,4668],[82.1,4759],[82.3,4851],[82.3,4942],[82.3,5034],[82.3,5126],[82.3,5217],[82.3,5308],[82.3,5401],[82.3,5493],[82.3,5584],[82.3,5675],[80.2,5768],[79.3,5859],[79.2,5951],[78.6,6043],[78,6134],[77.3,6226],[77.1,6317],[76.4,6409],[75.7,6501],[75.5,6593],[75.5,6684],[75.5,6775],[74.9,6867],[74.6,6959],[74.5,7050],[74.5,7142],[75.3,7234],[77,7326],[77.6,7418],[77.8,7509],[78,7600],[78.6,7693],[79.5,7784],[79.9,7876],[80,7967],[80,8058],[80.3,8151],[80.5,8243],[80.8,8334],[80.9,8426],[81.1,8518],[81.1,8609],[81.1,8700],[81.1,8792],[81.1,8884],[81.1,8976],[81.1,9067],[81.1,9160],[81.1,9251],[81.1,9343],[81.1,9434],[81.1,9526],[81.1,9618],[81.1,9709],[81.1,9801],[81.1,9893],[81.1,9985],[81.1,10076],[81.1,10167],[81.1,10258],[81,10351],[80.1,10442],[79.3,10534],[79.3,10626],[79.2,10718],[78.6,10809],[77.9,10900],[77.7,10992],[77.7,11083],[77.7,11176],[77.7,11268],[77.7,11360],[77.7,11451],[77.7,11542],[77.7,11634],[77.7,11725],[77.7,11818],[77.7,11909],[77.7,12000],[77.7,12093],[77.4,12184],[76.9,12277],[76.5,12368],[76.2,12459],[76.2,12551],[76.2,12642],[76.1,12734],[75.6,12826],[75,12918],[75,13009],[75,13101],[75,13193],[75,13284],[75,13377],[75,13467],[75,13559],[75,13651],[75,13742],[74.4,13834],[70.4,13926],[68.8,14018],[68.3,14108],[67.9,14200],[67.8,14293],[67.3,14384],[66.8,14476],[66.8,14567],[66.8,14658],[66.8,14750],[66.8,14844],[66.8,14934],[66.8,15026],[66.8,15118],[66.8,15209],[66.8,15300],[66.8,15393],[66.8,15484],[66.8,15576],[66.8,15668],[66.8,15758],[66.8,15852],[66.8,15942],[66.8,16035],[67.8,16127],[68.1,16217],[68.1,16308],[68.3,16401],[68.3,16493],[68.3,16584],[68.3,16675],[68.3,16767],[68.3,16859],[68.3,16951],[68.3,17042],[68.3,17134],[68.3,17226],[68.3,17317],[68.3,17409],[68.3,17500],[68.3,17592],[68.3,17685],[68.3,17776],[68.3,17868],[68.3,17959],[68.3,18051],[68.3,18142],[68.3,18234],[68.3,18326],[68.3,18418],[68.3,18509],[68.3,18600],[68.3,18692],[68.3,18784],[68.3,18876],[69.2,18967],[70.6,19059],[70.7,19151],[70.7,19242],[70.7,19334],[70.7,19426],[70.7,19517],[70.7,19609],[70.7,19701],[70.7,19792],[70.8,19883],[71,19976],[71,20066],[71,20158],[71,20250],[71,20343],[71,20434],[71,20526],[71,20617],[71,20709],[71,20801],[71,20893],[71,20984],[71,21076],[71,21168],[71,21259],[71,21351],[71,21443],[71,21534],[71,21626],[71,21717],[71,21809],[71,21900],[71,21993],[71,22085],[71,22175],[71,22268],[71,22360],[71,22451],[71,22542],[71,22634],[71,22725],[71,22817],[71,22910],[71,23001],[71,23093],[69.7,23184],[69.5,23276],[69.5,23369],[69.5,23459],[69.5,23551],[69.2,23644],[68.6,23734],[68.5,23826],[68.5,23918],[68.4,24009],[68.3,24101],[68.3,24193],[68.2,24284],[68.2,24376],[68.2,24468],[68.2,24559],[68.2,24651],[68.2,24743],[68.2,24834],[68.2,24925],[68.2,25017],[68.1,25109],[67.7,25201],[67.4,25292],[67.4,25384],[67.4,25476],[67.4,25567],[67.4,25659],[67.4,25750],[67.4,25843],[67.4,25933],[67.4,26026],[67.4,26117],[67.4,26209],[67.4,26301],[67.4,26393],[67.2,26484],[66.9,26577],[66.8,26668],[66.7,26759],[66.7,26850],[66.7,26943],[66.7,27034],[66.7,27127],[66.7,27216],[66.7,27308],[66.7,27401],[66.7,27493],[66.7,27584],[66.7,27676],[66.7,27767],[66.7,27859],[66.7,27951],[66.7,28043],[66.7,28133],[66.7,28226],[66.7,28318],[66.7,28409],[66.7,28501],[66.7,28593],[66.7,28684],[66.7,28776],[66.7,28867],[66.7,28960],[66.7,29050],[66.7,29142],[66.7,29234],[66.6,29326],[66.2,29417],[66.2,29509],[66.2,29601],[66.2,29692]]",732.8648,732.8676,,,[],,,,732.8676,Definitely yes,100,732.8686,,,[],,0,0,0,0,1,audio/Narrative13Situation2.wav,audio/Narrative13Situation2.wav,audio/Narrative13Situation2.wav,audio/Narrative13Situation2.wav,2,2,2,2,,,,,677.6745,700.5559,space,22.3697,,,,,,,,,,,,,,,,,,,,,,,,,,,,,,,
,,,,,58a229e74d580c0001e0a766,2025-07-07_23h06.18.213,group3.4_multiperson,2023.2.2,MacIntel,128.2051282,686c2ebf0248f13bef9af11f,686c8a83d2afe7eed70bc158,,,,,,,,,,,,,,,,,,,,,,,,,,,,,732.8688,2,audio/Narrative5Situation1.wav,737.871,,737.8711,751.1388,"[[57.7,1467],[59.2,1561],[60,1651],[60.4,1742],[61.3,1834],[63,1925],[64.2,2017],[64.3,2109],[64.3,2200],[64.3,2292],[64.3,2384],[64.3,2475],[64.3,2567],[64.3,2658],[64.3,2750],[64.3,2842],[64.3,2933],[64.3,3026],[64.3,3117],[64.3,3208],[64.3,3300],[64.3,3392],[64.3,3484],[64.3,3576],[64.3,3667],[64.3,3759],[64.3,3851],[64.3,3942],[64.4,4034],[64.4,4125],[64.9,4217],[65.4,4309],[65.5,4400],[65.5,4492],[65.5,4583],[65.8,4676],[67,4767],[67.7,4860],[68.6,4951],[70.4,5042],[71,5134],[71,5225],[71,5317],[71,5409],[71,5501],[71,5591],[71,5683],[71,5775],[71,5867],[71,5959],[71,6049],[71,6142],[71,6234],[71,6326],[71,6418],[71,6509],[71,6600],[71,6692],[71,6783],[71,6875],[71.1,6968],[71.1,7059],[71.1,7150],[71.1,7242],[71.4,7334],[71.5,7425],[71.5,7517],[71.6,7608],[71.7,7700],[71.7,7791],[71.7,7884],[71.7,7976],[71.7,8068],[71.7,8158],[71.7,8251],[71.7,8341],[71.7,8434],[71.7,8525],[71.7,8618],[71.7,8708],[71.7,8800],[71.7,8892],[71.7,8984],[72.1,9075],[72.6,9169],[72.9,9259],[72.9,9350],[73,9442],[73.1,9534],[73.3,9625],[73.6,9717],[73.6,9809],[73.6,9901],[73.6,9991],[73.6,10083],[73.6,10175],[73.6,10267],[73.6,10359],[73.6,10451],[73.6,10542],[73.6,10634],[73.6,10725],[73.6,10817],[73.6,10909],[73.6,11001],[73.6,11092],[73.6,11184],[73.6,11275],[73.6,11366],[73.6,11459],[72.2,11551],[71.7,11642],[71.5,11734],[71.5,11825],[71.1,11919],[70.6,12009],[70.6,12101],[70.6,12192],[70.6,12284],[70.6,12376],[70.6,12467],[70.6,12559],[70.6,12651],[70.6,12742],[70.6,12834],[70.6,12926],[70.6,13017],[70.6,13108],[70.6,13200]]",751.139,753.1386,49.51443142,1.1198,"[{""rating"":49.51443142361111,""responseTime"":1.1198000001907076}]",space,1.4824,,753.1387,Partially,50,753.1398,,,[],,0,1,1,1,1,audio/Narrative7Situation1.wav,audio/Narrative8Situation1.wav,audio/Narrative5Situation1.wav,audio/Narrative6Situation1.wav,2,5,5,2,,,,,,,,,,,,,,,,,,,,,,,,,,,,,,,,,,,,,,,
,,,,,58a229e74d580c0001e0a766,2025-07-07_23h06.18.213,group3.4_multiperson,2023.2.2,MacIntel,128.2051282,686c2ebf0248f13bef9af11f,686c8a83d2afe7eed70bc158,,,,,,,,,,,,,,,,,,,,,,,,,,,,,753.1398,2,audio/Narrative5Situation2.wav,756.1471,,756.1472,785.5979,"[[51.5,2290],[53.2,2383],[53.3,2475],[53.3,2567],[53.3,2658],[53.3,2750],[53.3,2841],[53.3,2933],[53.3,3024],[53.3,3115],[53.3,3208],[53.3,3300],[53.3,3391],[53,3483],[52,3574],[51.6,3666],[50.8,3757],[49.6,3851],[48.4,3941],[47,4033],[46.1,4125],[44.4,4217],[43.8,4308],[43.8,4400],[43.8,4491],[43.8,4583],[43.8,4674],[40.2,4766],[38.9,4858],[38.8,4948],[38.8,5040],[38.6,5133],[37.8,5225],[37.8,5316],[37.8,5408],[37.1,5501],[35.9,5590],[35.7,5682],[35.7,5774],[35.7,5866],[35.7,5957],[35.7,6049],[35.7,6141],[35.7,6232],[35.7,6324],[35.7,6415],[35.7,6508],[35.7,6600],[35.7,6691],[35.7,6782],[35.7,6874],[35.7,6966],[35.7,7057],[35.7,7149],[35.7,7241],[35.7,7332],[35.8,7425],[35.8,7516],[35.8,7608],[36.2,7700],[37,7791],[37.1,7883],[37.7,7975],[37.9,8066],[38.4,8158],[39.1,8250],[39.7,8341],[40.4,8432],[41.4,8524],[42.2,8616],[43.2,8707],[44,8800],[44.7,8891],[44.9,8983],[44.9,9073],[44.9,9167],[44.9,9258],[44.9,9349],[44.9,9441],[44.9,9533],[44.9,9623],[44.9,9715],[44.9,9808],[44.9,9900],[44.9,9992],[44.9,10083],[44.9,10174],[44.9,10266],[44.9,10358],[44.9,10449],[45.1,10541],[45.5,10632],[45.7,10724],[46.6,10815],[46.9,10908],[46.9,10999],[46.9,11091],[46.9,11183],[46.9,11275],[47.1,11366],[47.2,11458],[47.7,11549],[48.2,11640],[48.4,11733],[48.4,11824],[48.4,11916],[48.4,12008],[48.4,12098],[48.5,12191],[48.6,12283],[48.6,12374],[48.6,12466],[48.6,12558],[48.6,12649],[48.6,12741],[48.9,12832],[48.9,12925],[48.9,13016],[48.9,13108],[49.1,13199],[49.1,13292],[49.1,13383],[49.1,13475],[49.1,13566],[49.1,13658],[49.1,13749],[49.1,13841],[49.1,13933],[49.1,14024],[49.1,14116],[49.1,14208],[49.1,14300],[49.1,14390],[49.3,14482],[49.3,14574],[49.3,14665],[49.3,14758],[49.3,14849],[49.3,14941],[49.3,15033],[49.3,15124],[49.3,15216],[49.3,15308],[49.3,15399],[49.3,15491],[49.3,15583],[49.3,15675],[49.3,15766],[49.3,15858],[49.3,15949],[49.3,16040],[49.3,16133],[49.3,16224],[49.3,16316],[49.3,16407],[48.8,16499],[48.4,16591],[48.4,16683],[48.4,16774],[48.4,16866],[48.4,16958],[48.4,17049],[48.4,17140],[48.4,17233],[48.6,17325],[49.1,17416],[49.4,17508],[49.6,17599],[49.9,17692],[50.3,17783],[50.9,17875],[52.3,17966],[53.9,18058],[54.7,18149],[55,18241],[56.2,18333],[57.1,18425],[57.1,18516],[57.1,18608],[57.1,18700],[57.1,18791],[57.1,18883],[57.1,18974],[57.1,19066],[57.1,19158],[57.1,19249],[57.1,19341],[57.1,19433],[57.1,19524],[57.1,19616],[57.1,19708],[57.1,19799],[57.1,19891],[57.1,19983],[57.1,20074],[57.1,20166],[57.1,20258],[57.1,20350],[57.1,20440],[57.1,20533],[57.1,20624],[57.1,20716],[57.1,20808],[57.1,20900],[57.1,20991],[57.1,21083],[57.1,21174],[57.1,21266],[57.1,21358],[57.1,21449],[57.1,21541],[57.2,21633],[57.4,21724],[57.7,21816],[57.9,21908],[57.9,22000],[58,22091],[58,22183],[58.1,22274],[58.5,22366],[59,22457],[59.8,22550],[59.8,22641],[59.8,22735],[60.4,22824],[60.6,22916],[60.6,23008],[60.6,23100],[60.6,23191],[60.6,23283],[60.6,23375],[60.6,23466],[60.6,23557],[60.6,23649],[60.6,23741],[60.6,23833],[60.6,23924],[60.6,24016],[60.6,24108],[60.6,24199],[60.6,24291],[60.6,24383],[60.6,24475],[60.6,24565],[60.6,24658],[60.7,24749],[60.9,24841],[60.9,24933],[60.9,25024],[61.1,25116],[61.2,25207],[61.2,25299],[61.2,25391],[61.2,25482],[61.2,25575],[61.2,25666],[61.2,25758],[61.2,25849],[61.2,25941],[61.2,26033],[61.2,26125],[61.2,26216],[61.2,26307],[61.2,26399],[61.2,26490],[61.2,26583],[61.2,26674],[61.2,26766],[61.2,26858],[61.2,26949],[61.2,27041],[61.2,27133],[61.2,27224],[61.2,27316],[61.2,27408],[61.2,27499],[61.2,27591],[61.2,27683],[61.2,27773],[61.2,27866],[61.2,27957],[61.2,28049],[61.2,28141],[61.2,28232],[61.2,28324],[61.2,28416],[61.2,28509],[61.2,28600],[61.2,28691],[61.2,28783],[61.2,28873],[61.2,28966],[61.2,29058],[61.2,29149],[61.2,29241],[61.2,29332],[61.2,29424]]",785.5985,788.9803,60.55230035,0.7845,"[{""rating"":60.55230034722222,""responseTime"":0.78449999999998}]",space,2.8588,,788.9804,Not at all,0,788.9826,,,[],,0,2,2,2,1,audio/Narrative7Situation2.wav,audio/Narrative8Situation2.wav,audio/Narrative5Situation2.wav,audio/Narrative6Situation2.wav,3,3,3,3,,,,,,,,,,,,,,,,,,,,,,,,,,,,,,,,,,,,,,,
,,,,,58a229e74d580c0001e0a766,2025-07-07_23h06.18.213,group3.4_multiperson,2023.2.2,MacIntel,128.2051282,686c2ebf0248f13bef9af11f,686c8a83d2afe7eed70bc158,,,,,,,,,,,,,,,,,,,,,,,,,,,,,788.9827,2,audio/Narrative5Situation3.wav,791.9893,,791.9894,805.889,"[[60.3,2290],[60.3,2382],[60.3,2474],[60.3,2565],[60.3,2657],[60.3,2750],[60.3,2840],[60.3,2931],[60.3,3024],[60.3,3115],[60.3,3207],[60.3,3299],[60.3,3391],[60.3,3482],[60.3,3574],[61.1,3666],[62.5,3757],[62.7,3848],[63.3,3940],[64.3,4032],[64.7,4124],[64.9,4215],[64.9,4307],[64.9,4399],[64.9,4490],[64.9,4582],[64.9,4674],[64.9,4765],[64.9,4857],[64.9,4949],[64.9,5041],[64.9,5132],[64.9,5224],[64.9,5316],[64.9,5407],[64.9,5499],[64.8,5590],[64.8,5682],[64.8,5774],[64.8,5865],[64.8,5957],[64.8,6048],[64.8,6140],[64.8,6231],[64.8,6324],[64.8,6415],[64.9,6507],[65.1,6599],[65.1,6690],[65.1,6782],[65.1,6874],[65.1,6965],[65.1,7057],[65.1,7149],[65.1,7240],[65.1,7332],[65.1,7424],[65.1,7516],[65.1,7607],[65.1,7698],[65.1,7790],[65.1,7882],[65.1,7975],[65.1,8065],[65.2,8157],[65.2,8249],[65.2,8340],[65.2,8432],[65.2,8523],[65.2,8615],[65.2,8707],[65.2,8799],[65.2,8890],[65.2,8982],[65.2,9074],[65.2,9166],[65.2,9257],[65.2,9349],[65.2,9440],[65.2,9533],[65.2,9624],[65.2,9716],[65.2,9807],[65.2,9899],[65.2,9990],[65.2,10082],[65.2,10173],[65.2,10265],[65.2,10357],[65.2,10449],[65.2,10539],[65.2,10632],[65.2,10724],[65.2,10815],[65.2,10908],[65.2,10999],[65.2,11090],[65.2,11181],[65.2,11273],[65.2,11365],[65.2,11457],[65.2,11549],[65.2,11640],[65.6,11732],[65.7,11824],[65.7,11915],[65.8,12010],[65.9,12098],[65.9,12189],[65.9,12282],[65.9,12374],[65.9,12465],[65.9,12557],[65.9,12648],[65.9,12740],[65.9,12833],[65.9,12924],[65.9,13015],[65.9,13107],[65.9,13199],[65.9,13290],[65.9,13383],[65.9,13474],[65.9,13566],[65.9,13657],[65.9,13749],[65.9,13841]]",805.8892,808.1548,62.0171441,0.8768,"[{""rating"":62.01714409722222,""responseTime"":0.8768000001907694}]",space,1.7463,,808.1549,Definitely yes,100,808.1567,,,[],,0,3,3,3,1,audio/Narrative7Situation3.wav,audio/Narrative8Situation3.wav,audio/Narrative5Situation3.wav,audio/Narrative6Situation3.wav,8,4,3,5,,,,,,,,,,,,,,,,,,,,,,,,,,,,,,,,,,,,,,,
,,,,,58a229e74d580c0001e0a766,2025-07-07_23h06.18.213,group3.4_multiperson,2023.2.2,MacIntel,128.2051282,686c2ebf0248f13bef9af11f,686c8a83d2afe7eed70bc158,,,,,,,,,,,,,,,,,,,,,,,,,,,,,808.1569,2,audio/Narrative5Situation4.wav,809.163,,809.1631,829.5389,"[[61.6,1924],[61.2,2017],[61.2,2108],[61.2,2200],[61,2292],[60.8,2383],[60.8,2475],[60.8,2567],[60.8,2658],[61.3,2750],[61.5,2841],[61.5,2933],[61.5,3025],[61.5,3117],[61.5,3208],[61.5,3300],[61.5,3392],[61.4,3485],[61.4,3575],[61.4,3666],[61.4,3758],[61.4,3850],[61.4,3942],[61.4,4032],[61.4,4124],[61.5,4217],[61.5,4308],[61.5,4400],[61.4,4491],[61.1,4586],[61,4675],[60.9,4766],[60.9,4857],[60.9,4950],[60.7,5041],[60.7,5133],[60.7,5225],[60.6,5317],[60.6,5409],[60.6,5500],[60.6,5591],[60.4,5683],[60.4,5775],[60.2,5867],[60.2,5958],[60.1,6050],[59.8,6141],[59.7,6234],[59.7,6325],[59.7,6417],[59.7,6508],[59.7,6600],[59.7,6691],[59.7,6783],[59.7,6875],[59.7,6967],[59.7,7058],[59.7,7149],[59.8,7241],[59.9,7333],[60,7425],[60.1,7516],[60.1,7608],[60.1,7700],[60.1,7792],[60.1,7883],[60.1,7974],[60.1,8067],[60.1,8158],[60.1,8250],[60.1,8342],[60.1,8433],[60.1,8525],[60.3,8617],[60.5,8707],[60.8,8800],[61.2,8892],[62.2,8983],[62.6,9075],[63.2,9167],[64.9,9258],[66.2,9350],[68.4,9442],[69.7,9532],[69.9,9625],[71.1,9717],[71.4,9808],[71.4,9900],[71.4,9991],[71.4,10084],[71.4,10175],[71.4,10267],[71.4,10359],[71.4,10449],[71.4,10542],[72.2,10633],[72.3,10725],[72.3,10817],[72.3,10908],[72.3,11000],[72.3,11092],[72.3,11183],[72.3,11275],[72.3,11367],[72.4,11458],[72.6,11552],[72.6,11641],[72.6,11734],[73.2,11828],[73.7,11917],[73.9,12007],[73.9,12099],[73.9,12192],[73.9,12283],[73.9,12375],[73.9,12466],[73.9,12558],[73.9,12650],[73.9,12741],[73.9,12833],[74.3,12925],[75.8,13016],[75.9,13107],[75.9,13199],[75.9,13291],[75.9,13383],[75.9,13474],[75.9,13566],[75.8,13658],[75.6,13750],[75.6,13841],[75.5,13933],[75.4,14025],[75.3,14116],[75.3,14208],[75,14299],[74.9,14391],[74.9,14483],[74.9,14575],[74.9,14667],[74.9,14758],[74.9,14849],[74.9,14942],[74.9,15033],[74.9,15124],[74.9,15217],[74.9,15307],[74.9,15400],[74.9,15492],[74.9,15583],[74.9,15675],[74.9,15766],[74.9,15858],[74.9,15949],[74.9,16042],[74.9,16133],[74.9,16225],[74.9,16317],[74.9,16408],[74.9,16500],[74.9,16592],[74.9,16683],[74.9,16775],[74.9,16866],[74.9,16958],[74.9,17050],[74.9,17142],[74.9,17233],[74.9,17325],[74.9,17416],[74.9,17508],[74.9,17600],[74.9,17691],[74.9,17784],[74.9,17875],[74.9,17966],[74.9,18058],[74.9,18149],[74.9,18242],[74.9,18333],[74.9,18425],[74.9,18516],[74.9,18608],[74.9,18700],[74.9,18791],[74.9,18883],[74.9,18975],[74.9,19066],[74.9,19158],[74.9,19250],[74.9,19341],[74.9,19433],[74.9,19524],[74.9,19616],[74.9,19708],[74.9,19800],[74.9,19892],[74.9,19982],[75,20075],[75.1,20167],[75.2,20258],[75.4,20350]]",829.539,830.6146,75.71252894,0.4629,"[{""rating"":75.71252893518519,""responseTime"":0.4629000000953738}]",space,0.5488,,830.6148,Definitely yes,100,830.6171,,,[],,0,4,4,4,1,audio/Narrative7Situation4.wav,audio/Narrative8Situation4.wav,audio/Narrative5Situation4.wav,audio/Narrative6Situation4.wav,3,3,1,2,,,,,,,,,,,,,,,,,,,,,,,,,,,,,,,,,,,,,,,
,,,,,58a229e74d580c0001e0a766,2025-07-07_23h06.18.213,group3.4_multiperson,2023.2.2,MacIntel,128.2051282,686c2ebf0248f13bef9af11f,686c8a83d2afe7eed70bc158,,,,,,,,,,,,,,,,,,,,,,,,,,,,,830.6174,2,audio/Narrative5Situation5.wav,835.6219,,835.622,851.0302,"[[73.4,916],[72,1008],[71,1098],[69.6,1190],[68.6,1283],[68.5,1375],[68.5,1466],[68.5,1557],[68.5,1649],[68.5,1741],[68.5,1833],[68.5,1924],[68.5,2016],[68.5,2108],[68.5,2198],[68.5,2290],[68.4,2383],[67.8,2474],[67.1,2565],[66.9,2658],[66.5,2749],[65.6,2841],[65.5,2933],[65.5,3024],[64.9,3116],[64.8,3207],[64.8,3299],[65.2,3391],[65.8,3482],[65.9,3575],[66.1,3666],[66.3,3758],[66.4,3848],[66.4,3940],[66.4,4033],[66.4,4123],[66.4,4216],[66.4,4307],[66.4,4399],[66.4,4490],[66.4,4583],[66.4,4675],[66.4,4766],[66.4,4858],[66.4,4949],[66.4,5041],[66.4,5132],[66.4,5225],[66.4,5316],[66.4,5408],[66.4,5500],[66.4,5591],[66.4,5683],[66.4,5774],[66.4,5866],[66.4,5958],[66.4,6049],[66.4,6140],[66.4,6233],[66.4,6324],[66.4,6416],[66.4,6507],[66.4,6600],[66.4,6692],[66.9,6783],[67.4,6875],[67.6,6966],[67.6,7057],[67.6,7149],[67.6,7241],[67.6,7332],[67.7,7424],[67.7,7516],[67.7,7608],[67.9,7699],[68,7791],[68.1,7883],[68.4,7974],[68.5,8066],[68.7,8157],[69,8249],[69.2,8341],[69.2,8433],[69.2,8524],[69.2,8616],[69.2,8707],[69.2,8800],[69.2,8892],[69.2,8983],[69.2,9074],[69.2,9166],[69.2,9258],[69.2,9350],[69.4,9441],[69.6,9533],[69.6,9624],[69.7,9716],[69.9,9808],[70,9899],[70.2,9991],[70.3,10083],[70.3,10175],[70.3,10266],[70.3,10358],[70.3,10449],[70.3,10540],[70.3,10633],[70.3,10723],[70.3,10817],[70.3,10908],[70.5,10999],[70.7,11090],[70.8,11183],[70.8,11274],[70.8,11365],[70.8,11458],[70.8,11549],[70.8,11641],[70.7,11733],[70.6,11824],[70.3,11916],[69.8,12008],[69.7,12099],[69.5,12192],[69.5,12282],[69.4,12374],[69.2,12466],[69,12558],[69,12649],[69,12741],[69,12833],[69,12925],[69,13015],[69,13107],[69,13199],[69,13291],[69,13383],[69,13475],[68.9,13566],[68.3,13658],[67.5,13750],[67.3,13840],[67.2,13933],[67.1,14025],[66.9,14115],[66.8,14207],[66.8,14299],[66.8,14391],[66.9,14482],[66.9,14574],[66.9,14665],[66.9,14758],[66.9,14848],[66.9,14941],[66.7,15034],[66.4,15125],[66.4,15216],[66.2,15307],[65.9,15398]]",851.0306,853.3467,62.8096969,0.8278,"[{""rating"":62.80969690393518,""responseTime"":0.8278000001907913}]",space,1.7914,,853.3468,Partially,50,853.3477,,,[],,0,5,5,5,1,audio/Narrative7Situation5.wav,audio/Narrative8Situation5.wav,audio/Narrative5Situation5.wav,audio/Narrative6Situation5.wav,5,2,5,2,,,,,,,,,,,,,,,,,,,,,,,,,,,,,,,,,,,,,,,
,,,,,58a229e74d580c0001e0a766,2025-07-07_23h06.18.213,group3.4_multiperson,2023.2.2,MacIntel,128.2051282,686c2ebf0248f13bef9af11f,686c8a83d2afe7eed70bc158,,,,,,,,,,,,,,,,,,,,,,,,,,,,,853.3478,2,audio/Narrative5Situation6.wav,856.3556,,856.3557,862.022,"[[62.5,1466],[63.3,1557],[64.2,1648],[65.4,1741],[68.2,1832],[68.8,1924],[68.8,2016],[68.8,2107],[68.8,2199],[68.8,2291],[68.8,2382],[68.8,2475],[68.9,2566],[69.8,2658],[70.2,2749],[70.5,2841],[70.9,2932],[71.2,3024],[71.4,3118],[71.6,3207],[71.6,3298],[71.6,3391],[71.6,3482],[71.6,3574],[71.6,3665],[71.6,3757],[71.6,3849],[71.6,3941],[71.7,4033],[73,4124],[73.1,4216],[73.1,4307],[73.1,4399],[74,4491],[75.6,4582],[76.6,4674],[77.7,4768],[78.7,4857],[78.7,4949],[78.7,5042],[78.7,5133],[78.7,5223],[78.7,5315],[78.7,5407],[78.7,5499],[78.7,5590]]",862.0223,864.9889,77.26010923,2.2608,"[{""rating"":82.01813874421296,""responseTime"":0.9689000000953456},{""rating"":77.26010923032408,""responseTime"":2.260800000190784}]",space,2.4492,,864.9891,Partially,50,864.9914,,,[],,0,6,6,6,1,audio/Narrative7Situation6.wav,audio/Narrative8Situation6.wav,audio/Narrative5Situation6.wav,audio/Narrative6Situation6.wav,3,2,3,2,,,,,,,,,,,,,,,,,,,,,,,,,,,,,,,,,,,,,,,
,,,,,58a229e74d580c0001e0a766,2025-07-07_23h06.18.213,group3.4_multiperson,2023.2.2,MacIntel,128.2051282,686c2ebf0248f13bef9af11f,686c8a83d2afe7eed70bc158,,,,,,,,,,,,,,,,,,,,,,,,,,,,,864.9917,2,audio/Narrative5Situation7.wav,868.9969,,868.9969,890.0135,"[[76.6,1924],[73.4,2016],[70.9,2107],[70.8,2199],[70.8,2290],[70.8,2382],[70.8,2474],[70.8,2566],[70.8,2657],[70.8,2749],[70.8,2841],[70.8,2932],[70.8,3024],[70.8,3116],[70.8,3208],[70.8,3300],[70.8,3391],[70.8,3483],[71.2,3575],[72.4,3666],[73.9,3758],[74.4,3849],[75.1,3941],[75.8,4033],[76,4124],[76.2,4216],[76.7,4307],[76.8,4399],[77.1,4490],[77.3,4582],[77.3,4674],[77.3,4766],[77.3,4857],[77.3,4950],[77.3,5041],[77.6,5133],[77.7,5224],[77.7,5316],[77.7,5407],[77.7,5499],[77.7,5591],[77.7,5683],[77.7,5774],[77.7,5866],[78.2,5958],[78.6,6051],[79.1,6141],[79.1,6233],[79.1,6324],[79.1,6417],[79.1,6507],[79.1,6599],[79.1,6691],[79.1,6783],[79.1,6874],[79.1,6966],[79.1,7058],[79.1,7149],[79.1,7240],[79.1,7335],[79.1,7424],[79.1,7516],[79.1,7608],[79.1,7699],[79.1,7792],[79.1,7883],[79.1,7974],[79.1,8066],[79.1,8158],[79.1,8249],[79.2,8341],[79.6,8433],[79.7,8524],[80.1,8616],[80.7,8708],[80.8,8799],[81,8890],[81.5,8983],[81.7,9076],[81.9,9166],[81.9,9257],[81.9,9350],[82.7,9441],[84.1,9532],[84.7,9624],[85.2,9715],[85.6,9808],[86.6,9900],[87.9,9992],[89.3,10083],[91.1,10174],[92.2,10266],[92.4,10358],[92.4,10448],[92.4,10540],[93.4,10634],[94.4,10725],[94.5,10816],[94.5,10908],[94.5,10999],[94.5,11090],[94.5,11183],[94.5,11274],[94.5,11366],[94.5,11458],[94.5,11550],[94.5,11641],[94.5,11732],[94.5,11823],[94.5,11916],[94.5,12008],[94.5,12100],[94.5,12191],[94.5,12283],[94.5,12375],[94.5,12466],[94.5,12558],[94.5,12649],[94.5,12741],[94.5,12833],[94.5,12924],[94.5,13016],[94.5,13108],[94.5,13199],[94.6,13291],[94.7,13383],[94.7,13475],[94.7,13566],[94.7,13658],[94.7,13750],[95.1,13841],[96.1,13933],[96.4,14024],[96.4,14116],[96.4,14207],[96.5,14299],[96.5,14391],[96.5,14483],[96.5,14574],[96.5,14666],[96.5,14758],[96.5,14850],[96.5,14940],[96.5,15033],[96.5,15125],[96.5,15217],[96.5,15308],[96.5,15399],[96.5,15491],[96.4,15583],[96.4,15674],[96.4,15766],[96.4,15857],[96.4,15950],[96.4,16040],[96.4,16132],[96.4,16225],[96.4,16316],[96.4,16408],[96.4,16500],[96.4,16591],[96.4,16683],[96.4,16774],[96.4,16866],[96.4,16958],[96.4,17048],[96.4,17141],[96.4,17233],[96.4,17325],[96.4,17416],[96.4,17508],[96.4,17599],[96.4,17691],[96.4,17783],[96.4,17874],[96.4,17966],[96.4,18058],[96.4,18149],[96.4,18241],[96.4,18333],[96.4,18425],[96.4,18516],[96.4,18608],[96.4,18699],[96.4,18791],[96.4,18883],[96.4,18974],[96.4,19066],[96.4,19158],[96.4,19249],[96.4,19341],[96.4,19432],[96.4,19524],[96.4,19616],[96.4,19707],[96.4,19799],[96.4,19891],[96.4,19983],[96.6,20074],[97.1,20166],[97.4,20258],[97.6,20349],[98.1,20441],[98.1,20533],[98.1,20624],[98.1,20716],[98.1,20808],[98.1,20899],[98.1,20991]]",890.0135,892.2305,98.07400174,0.6944,"[{""rating"":98.07400173611111,""responseTime"":0.6944000000954702}]",space,1.6944,,892.2306,Definitely yes,100,892.2342,,,[],,0,7,7,7,1,audio/Narrative7Situation7.wav,audio/Narrative8Situation7.wav,audio/Narrative5Situation7.wav,audio/Narrative6Situation7.wav,5,3,4,5,,,,,,,,,,,,,,,,,,,,,,,,,,,,,,,,,,,,,,,
,,,,,58a229e74d580c0001e0a766,2025-07-07_23h06.18.213,group3.4_multiperson,2023.2.2,MacIntel,128.2051282,686c2ebf0248f13bef9af11f,686c8a83d2afe7eed70bc158,,,,,,,,,,,,,,,,,,,,,,,,,,,,,892.2344,2,audio/Narrative5Situation8.wav,895.2385,,895.2385,904.0469,"[[96.9,1833],[89,1924],[85.1,2016],[84.3,2108],[81.9,2200],[81.4,2291],[81.4,2383],[81.4,2475],[81.4,2567],[81.4,2657],[81.4,2749],[81.4,2841],[81.4,2933],[81.4,3024],[81.4,3116],[81.4,3208],[81.4,3299],[81.4,3391],[81.4,3483],[81.4,3574],[81.4,3667],[81.4,3758],[81.4,3849],[81.4,3941],[81.4,4033],[81.4,4124],[81.4,4217],[81.4,4308],[81.6,4400],[82.3,4490],[82.5,4583],[82.8,4675],[83.2,4766],[83.5,4858],[83.7,4950],[83.8,5041],[83.9,5133],[83.9,5224],[84.2,5317],[85.1,5407],[85.9,5500],[86.6,5591],[86.9,5683],[87,5775],[87.1,5866],[87.1,5958],[87.4,6050],[87.5,6140],[87.7,6233],[87.7,6326],[87.8,6417],[87.8,6508],[87.8,6600],[87.8,6692],[87.8,6783],[87.8,6874],[87.8,6966],[87.8,7058],[87.8,7150],[87.8,7241],[87.8,7333],[87.8,7425],[87.8,7516],[87.8,7608],[87.8,7699],[87.8,7790],[87.8,7882],[87.8,7974],[87.8,8066],[87.8,8157],[87.8,8250],[87.8,8340],[87.8,8433],[87.8,8524],[87.8,8616],[87.8,8709],[87.8,8799]]",904.047,907.7802,80.70565683,3.2033,"[{""rating"":76.69361255787037,""responseTime"":2.402499999999918},{""rating"":80.7056568287037,""responseTime"":3.2033000001906657}]",space,3.2186,,907.7803,Partially,50,912.3125,49.91816768,2.5053,"[{""rating"":49.918167679398145,""responseTime"":2.5052999997139977}]",space,0,8,8,8,1,audio/Narrative7Situation8.wav,audio/Narrative8Situation8.wav,audio/Narrative5Situation8.wav,audio/Narrative6Situation8.wav,2,3,3,5,,,4.0206,,,,,,,,,,,,,,,,,,,,,,,,,,,,,,,,,,,,
,,,,,58a229e74d580c0001e0a766,2025-07-07_23h06.18.213,group3.4_multiperson,2023.2.2,MacIntel,128.2051282,686c2ebf0248f13bef9af11f,686c8a83d2afe7eed70bc158,,,,,,,,,,,,,,,,,,,,,,,,,,,,,912.3127,2,audio/Narrative5Situation9.wav,915.3138,,915.3139,954.8386,"[[999,0],[999,91],[999,182],[999,274],[999,366],[999,457],[999,549],[999,641],[999,732],[999,824],[999,916],[999,1007],[999,1098],[999,1191],[999,1283],[999,1374],[999,1466],[999,1559],[999,1649],[58.9,1741],[57.5,1832],[57.3,1924],[57.8,2016],[58.4,2107],[58.4,2199],[59.2,2291],[60,2383],[60.1,2474],[60.1,2566],[60.1,2657],[60.1,2749],[60.1,2840],[60.1,2931],[60.1,3024],[60.6,3116],[62,3208],[63,3299],[64,3391],[64.7,3482],[65.3,3574],[65.6,3665],[66,3759],[66.4,3849],[67,3941],[67,4033],[67,4124],[67,4216],[67,4306],[67,4399],[67,4491],[67,4582],[67,4674],[67,4766],[67,4857],[67,4950],[67,5040],[67,5132],[67,5223],[67,5316],[67,5407],[67,5498],[67.9,5591],[68.6,5683],[69.1,5774],[69.1,5865],[69.1,5957],[69.1,6049],[69.1,6141],[69.1,6232],[69.1,6324],[69.1,6416],[69.1,6507],[69.1,6600],[69.1,6690],[69.1,6781],[69.1,6874],[69.1,6966],[69.1,7058],[69.1,7148],[69.1,7241],[69.1,7332],[69.1,7424],[69.1,7516],[69.9,7607],[72,7699],[73.3,7793],[74.5,7882],[75.6,7974],[76.8,8066],[77.2,8157],[77.1,8248],[77.1,8341],[77.1,8431],[77.2,8526],[85.3,8616],[89.9,8707],[92.1,8800],[93.7,8891],[94.6,8982],[95.5,9074],[95.7,9166],[95.8,9260],[96.2,9349],[96.5,9441],[96.5,9532],[96.5,9624],[96.6,9717],[97.1,9807],[97.1,9899],[97.1,9991],[97.1,10082],[97.1,10174],[97.1,10265],[97.1,10357],[97.1,10449],[97.1,10541],[97.1,10633],[97.1,10724],[97.1,10816],[97.1,10907],[97.6,10999],[97.8,11090],[97.8,11182],[97.8,11274],[97.8,11366],[97.8,11457],[98.3,11549],[98.9,11641],[99.2,11733],[99.3,11826],[99.7,11916],[100,12008],[100,12099],[100,12191],[100,12283],[100,12374],[100,12466],[100,12557],[99.9,12649],[99.3,12741],[99,12832],[99,12924],[99,13016],[99,13107],[99,13200],[99,13291],[99,13382],[99,13473],[99,13566],[99,13657],[99,13749],[99,13840],[99,13932],[99,14024],[99,14116],[99,14207],[99,14299],[99,14391],[99,14482],[99,14574],[99,14665],[99,14758],[99,14849],[99,14941],[99,15032],[99,15124],[99,15216],[99,15307],[99,15398],[99,15490],[99,15581],[99,15674],[99,15766],[99,15857],[99,15948],[99,16041],[99,16132],[99,16224],[99,16315],[99,16407],[99,16500],[99,16591],[99,16682],[99.4,16774],[99.5,16866],[99.5,16957],[99.5,17049],[99.5,17141],[99.5,17232],[99.5,17324],[99.5,17415],[99.5,17507],[99.5,17598],[99.5,17691],[99.5,17782],[99.5,17874],[99.5,17965],[99.5,18057],[99.1,18149],[99,18241],[98.1,18333],[97.7,18424],[97.7,18516],[97.7,18606],[97.7,18699],[97.8,18791],[97.9,18883],[97.9,18974],[97.9,19065],[98,19157],[98,19248],[98,19342],[98.1,19432],[98.1,19524],[98.1,19616],[98.1,19707],[98.1,19798],[98.1,19891],[98.1,19982],[98.1,20074],[98.1,20166],[98.1,20258],[98.1,20348],[98.1,20441],[98.1,20533],[98.1,20624],[98.1,20716],[98.1,20807],[98.1,20899],[98.1,20990],[98.1,21083],[98.1,21174],[98.1,21266],[98.1,21357],[98.1,21449],[98.1,21540],[98.1,21633],[98.1,21723],[98.1,21816],[98.1,21907],[98.1,21998],[98.1,22091],[98.1,22182],[98.1,22275],[98.1,22366],[98.1,22458],[98.1,22549],[98.1,22640],[98.1,22732],[98.1,22824],[98.1,22916],[98.1,23007],[98.1,23099],[98.1,23191],[98.4,23282],[98.8,23374],[98.8,23465],[98.8,23557],[98.8,23649],[98.8,23741],[99.3,23833],[99.5,23924],[99.6,24015],[99.7,24107],[99.7,24199],[99.7,24291],[99.7,24382],[99.7,24474],[99.7,24566],[99.7,24658],[99.7,24749],[99.7,24841],[99.7,24932],[99.7,25024],[99.7,25116],[99.7,25208],[100,25299],[100,25391],[100,25483],[100,25575],[100,25665],[100,25757],[100,25848],[100,25941],[100,26033],[100,26124],[100,26215],[100,26307],[100,26399],[100,26490],[100,26582],[100,26674],[100,26765],[100,26856],[100,26948],[99.6,27040],[98.9,27133],[98.9,27224],[98.9,27316],[98.9,27407],[98.9,27500],[98.9,27590],[99,27682],[99,27774],[99.1,27865],[99.2,27957],[99.5,28049],[99.8,28141],[100,28232],[100,28324],[100,28416],[100,28508],[100,28598],[100,28691],[100,28782],[100,28873],[100,28966],[100,29057],[100,29148],[100,29241],[100,29331],[100,29423],[100,29515],[100,29608],[100,29699],[100,29791],[100,29883],[100,29974],[100,30066],[100,30158],[100,30249],[100,30340],[100,30432],[100,30524],[100,30616],[100,30708],[100,30799],[100,30891],[100,30982],[100,31074],[100,31166],[100,31259],[100,31349],[100,31441],[100,31532],[100,31624],[100,31716],[100,31807],[100,31899],[100,31991],[100,32082],[100,32175],[100,32266],[100,32357],[100,32449],[100,32540],[100,32631],[100,32723],[100,32816],[100,32907],[100,32999],[100,33091],[100,33182],[100,33274],[100,33366],[100,33458],[100,33548],[100,33641],[100,33732],[99,33824],[98.6,33916],[98.6,34007],[98.6,34099],[98.6,34191],[98.6,34282],[98.9,34374],[99,34465],[99,34557],[99,34649],[99,34741],[99,34832],[99,34924],[99,35016],[99,35107],[99,35198],[99,35291],[99,35382],[99,35474],[99,35565],[99,35657],[99,35749],[99,35840],[99,35932],[99,36024],[99,36115],[99,36208],[99,36298],[99,36391],[99,36482],[99,36574],[99,36666],[99,36757],[99,36849],[99,36941],[99,37033],[99,37125],[99,37216],[99,37306],[99,37399],[99,37491],[99,37582],[99,37673],[99,37766],[99,37858],[99,37951],[99,38041],[99,38132],[99,38224],[99,38315],[99,38408],[99,38499],[99,38591],[99,38683],[99,38773],[99,38865],[99,38957],[99,39048],[99,39141],[99,39232],[99,39324],[99,39416],[99,39507]]",954.8389,959.4467,100,3.6112,"[{""rating"":97.9008427372685,""responseTime"":2.3029000000954056},{""rating"":100,""responseTime"":3.611199999809287}]",space,4.085,,959.4468,Not at all,0,959.449,,,[],,0,9,9,9,1,audio/Narrative7Situation9.wav,audio/Narrative8Situation9.wav,audio/Narrative5Situation9.wav,audio/Narrative6Situation9.wav,2,3,3,4,,,,,,,,,,,,,,,,,,,,,,,,,,,,,,,,,,,,,,,
,,,,,58a229e74d580c0001e0a766,2025-07-07_23h06.18.213,group3.4_multiperson,2023.2.2,MacIntel,128.2051282,686c2ebf0248f13bef9af11f,686c8a83d2afe7eed70bc158,,,,,,,,,,,,,,,,,,,,,,,,,,,,,959.4491,2,audio/Narrative6Situation1.wav,961.4556,,961.4556,988.0301,"[[999,0],[999,91],[999,182],[999,273],[999,365],[999,458],[999,548],[999,641],[999,732],[999,824],[999,915],[999,1007],[999,1099],[999,1191],[999,1282],[999,1374],[999,1466],[999,1557],[999,1649],[999,1740],[999,1832],[999,1924],[75.2,2016],[75.5,2106],[75.6,2199],[75.4,2290],[75.4,2383],[75.4,2475],[80.7,2566],[82.4,2657],[83.7,2749],[85.3,2841],[86.4,2933],[87.7,3024],[87.9,3115],[88.8,3207],[89.9,3299],[90,3391],[90,3482],[90,3575],[90,3665],[90,3757],[90,3848],[90,3941],[90,4032],[90,4124],[90,4215],[90,4307],[90.5,4399],[90.8,4491],[91.2,4582],[91.3,4673],[91.5,4765],[91.5,4859],[91.5,4949],[92,5043],[92.3,5132],[92.4,5224],[92.4,5316],[92.8,5407],[93.2,5499],[93.6,5591],[93.9,5682],[94.1,5774],[94.1,5866],[94.1,5957],[94.1,6048],[94.1,6141],[94.1,6232],[94.1,6324],[94.1,6415],[94.1,6508],[94.1,6599],[94.1,6691],[94.1,6782],[94.1,6873],[94.1,6965],[94.1,7058],[94.1,7148],[94.1,7240],[94.1,7332],[94.1,7423],[94.1,7515],[94.1,7606],[94.1,7699],[94.1,7791],[94.1,7882],[94.1,7974],[94.1,8066],[94.1,8157],[94.1,8249],[94.1,8340],[94.1,8432],[94.1,8524],[94.1,8616],[94.1,8707],[94.1,8799],[94.1,8891],[94.1,8982],[94.1,9074],[94.1,9166],[94.1,9256],[94.1,9349],[94.1,9440],[94.1,9532],[94,9624],[93.5,9716],[93.5,9807],[93.6,9898],[94.2,9990],[94.3,10081],[94.3,10174],[94.3,10266],[94.3,10356],[94.3,10449],[94.3,10541],[94.3,10632],[94.3,10724],[94.3,10815],[94.3,10906],[94.3,10999],[94.3,11090],[94.3,11182],[94.3,11274],[94.3,11366],[94.3,11457],[94.3,11548],[94.3,11640],[94.3,11732],[94.3,11824],[94.3,11915],[94.3,12007],[94.3,12099],[94.3,12190],[94.3,12282],[94.3,12374],[94.3,12466],[94.3,12557],[94.3,12649],[94.3,12740],[94.3,12832],[94.3,12923],[94.3,13016],[94.3,13107],[94.3,13199],[94.3,13291],[94.3,13382],[94.3,13475],[94.4,13566],[94.6,13657],[94.7,13749],[94.7,13840],[94.7,13931],[94.8,14024],[94.8,14116],[94.8,14207],[94.8,14299],[94.8,14391],[94.8,14482],[94.8,14574],[94.8,14665],[94.8,14757],[94.8,14849],[94.2,14941],[92.2,15032],[91.7,15124],[91.7,15216],[91.7,15307],[91.7,15399],[91.7,15491],[91.7,15582],[91.7,15674],[91.7,15766],[91.7,15857],[91.7,15949],[91.7,16041],[91.7,16132],[91.7,16224],[91.7,16315],[91.7,16407],[91.7,16498],[91.7,16590],[91.7,16682],[91.7,16774],[91.7,16865],[91.7,16956],[91.7,17049],[91.7,17141],[91.7,17232],[91.7,17324],[91.7,17416],[91.7,17507],[91.7,17599],[91.7,17691],[91.7,17782],[91.5,17874],[91.1,17966],[91.1,18057],[91.1,18149],[91.1,18243],[91.5,18332],[91.8,18424],[91.9,18515],[91.9,18607],[91.9,18699],[90.7,18791],[90.1,18883],[89.5,18973],[88.6,19065],[87.3,19157],[85.9,19249],[83.9,19341],[81.9,19432],[80.4,19524],[79.2,19616],[77.7,19707],[76.9,19799],[76.8,19891],[76.8,19982],[76.8,20073],[76.8,20166],[76.8,20256],[76.8,20349],[76.8,20441],[76.8,20531],[76.8,20623],[76.8,20716],[76.8,20807],[76.8,20898],[76.8,20990],[76.8,21082],[76.8,21174],[76.8,21266],[76.8,21357],[76.8,21449],[76.8,21541],[76.8,21631],[76.8,21723],[76.8,21816],[76.8,21906],[76.8,21999],[76.8,22091],[76.8,22182],[76.8,22274],[76.8,22365],[76.8,22459],[76.8,22549],[76.8,22641],[76.8,22733],[76.8,22824],[76.8,22916],[76.8,23007],[76.8,23099],[76.8,23191],[76.8,23283],[76.8,23373],[76.8,23465],[76.8,23556],[76.8,23649],[76.8,23741],[76.8,23832],[76.8,23923],[76.8,24015],[76.8,24108],[76.8,24198],[76.8,24291],[76.8,24383],[76.8,24473],[76.8,24566],[76.8,24657],[76.8,24749],[76.8,24841],[76.8,24932],[76.8,25024],[76.8,25116],[76.8,25207],[76.8,25299],[76.8,25391],[76.8,25482],[76.8,25574],[76.8,25665],[76.8,25757],[76.8,25849],[76.8,25939],[76.8,26033],[76.8,26124],[76.8,26216],[76.8,26307],[76.8,26399],[76.8,26491]]",988.0304,988.9633,76.76821108,0.4227,"[{""rating"":76.76821108217592,""responseTime"":0.4226999998093106}]",space,0.4147,,988.9634,Not at all,0,988.9646,,,[],,0,10,10,10,1,audio/Narrative8Situation1.wav,audio/Narrative7Situation1.wav,audio/Narrative6Situation1.wav,audio/Narrative5Situation1.wav,5,2,2,5,,,,,,,,,,,,,,,,,,,,,,,,,,,,,,,,,,,,,,,
,,,,,58a229e74d580c0001e0a766,2025-07-07_23h06.18.213,group3.4_multiperson,2023.2.2,MacIntel,128.2051282,686c2ebf0248f13bef9af11f,686c8a83d2afe7eed70bc158,,,,,,,,,,,,,,,,,,,,,,,,,,,,,988.9647,2,audio/Narrative6Situation2.wav,991.9717,,991.9718,1020.4548,"[[999,0],[999,91],[999,183],[999,274],[999,365],[999,458],[999,549],[999,641],[999,733],[999,824],[999,916],[999,1008],[999,1099],[999,1191],[999,1283],[999,1374],[999,1466],[999,1558],[999,1650],[999,1740],[999,1833],[999,1924],[999,2016],[999,2107],[999,2200],[999,2292],[999,2383],[999,2474],[58.1,2566],[57.9,2657],[57.2,2750],[52.6,2841],[45.4,2933],[45.1,3024],[45.1,3116],[45,3207],[45,3300],[45,3390],[44.7,3483],[39.8,3574],[39.2,3665],[39.2,3757],[39.1,3849],[39.1,3940],[39.1,4032],[42.4,4124],[44.7,4216],[46.3,4308],[47.9,4399],[49.1,4491],[51.2,4583],[52.8,4674],[52.9,4765],[52.9,4857],[52.9,4949],[52.9,5040],[52.9,5133],[52.9,5224],[52.9,5316],[52.9,5408],[52.9,5499],[52.9,5590],[52.9,5683],[52.9,5774],[52.9,5865],[52.9,5958],[52.9,6050],[52.9,6141],[52.9,6233],[52.9,6324],[52.9,6416],[52.9,6507],[52.9,6599],[52.9,6691],[52.9,6783],[52.9,6875],[52.9,6965],[52.9,7058],[52.9,7150],[52.9,7241],[52.9,7333],[52.9,7423],[53.1,7516],[53.4,7608],[54,7699],[54.4,7791],[54.8,7883],[54.8,7975],[54.9,8067],[55.6,8157],[55.7,8249],[55.7,8341],[55.7,8433],[55.8,8526],[56,8615],[56.1,8707],[56.1,8799],[56.1,8891],[56.1,8983],[56.5,9074],[56.9,9166],[57,9258],[57,9350],[57,9441],[57,9532],[57,9625],[57,9716],[57,9808],[57,9899],[57,9991],[57,10083],[57,10174],[57,10266],[57,10358],[57,10449],[57,10541],[57,10633],[57,10724],[56.6,10816],[55.7,10908],[55.3,10999],[55.3,11090],[56.7,11183],[58.3,11274],[59.1,11366],[59.2,11458],[59.8,11549],[60.6,11640],[60.9,11733],[61.4,11824],[61.5,11916],[61.5,12007],[61.5,12099],[61.5,12191],[62.8,12283],[65,12374],[65.1,12466],[65.1,12558],[65.1,12649],[65.1,12740],[65.1,12832],[65.1,12924],[65.1,13016],[65.1,13108],[66.7,13199],[68.1,13290],[68.3,13383],[68.8,13475],[69.5,13566],[70.7,13659],[72.1,13750],[73.3,13841],[74,13933],[74,14024],[74,14117],[74.3,14207],[74.4,14299],[74.1,14391],[74.1,14483],[74.1,14574],[74.1,14666],[74.1,14757],[74.1,14849],[74.1,14941],[74.1,15033],[74.1,15124],[74.1,15216],[74.1,15307],[74.1,15399],[74.1,15490],[74.1,15582],[74.1,15675],[74.1,15766],[74.1,15857],[74.1,15949],[74.1,16041],[74.1,16132],[74.1,16224],[74.1,16315],[74.1,16408],[74.1,16499],[74.1,16591],[74.1,16682],[74.1,16774],[74.1,16867],[74.1,16958],[74.1,17050],[74.1,17141],[74.1,17232],[74.1,17324],[74.1,17416],[74.1,17508],[74.1,17599],[74.1,17691],[74.1,17782],[74.1,17875],[74.1,17965],[74.1,18058],[74.1,18148],[74.1,18241],[74.1,18333],[74.4,18425],[76,18516],[76.3,18608],[76.5,18698],[76.5,18791],[76.5,18882],[76.5,18974],[76.5,19066],[76.5,19158],[76.5,19249],[76.5,19341],[76.5,19433],[76.5,19524],[76.5,19616],[76.5,19708],[76.5,19799],[76.5,19891],[76.5,19983],[76.5,20074],[76.5,20166],[76.5,20258],[76.5,20350],[76.5,20441],[76.5,20534],[76.5,20624],[76.5,20716],[76.5,20808],[76.5,20900],[76.5,20991],[76.5,21083],[76.5,21174],[76.5,21266],[76.5,21358],[76.5,21449],[76.5,21541],[76.5,21632],[76.5,21724],[76.5,21815],[76.5,21908],[76.5,21999],[76.5,22091],[76.5,22183],[76.5,22274],[76.5,22366],[76.7,22458],[76.8,22550],[77.3,22641],[77.8,22733],[77.8,22824],[77.8,22916],[77.8,23008],[77.8,23099],[77.8,23191],[78,23283],[78,23374],[78,23466],[78,23557],[78,23649],[78,23741],[78,23833],[78,23924],[78,24017],[78,24108],[78,24199],[78,24291],[78,24382],[78,24474],[78,24566],[78,24657],[78,24749],[78,24841],[78,24933],[78.2,25024],[78.2,25116],[78.2,25208],[78.2,25300],[78.2,25390],[78.2,25483],[78.2,25574],[78.2,25666],[78.2,25758],[78.2,25849],[78.2,25941],[78.2,26033],[78.2,26125],[78.2,26216],[78.2,26308],[78.2,26399],[78.2,26491],[78.2,26582],[78.2,26674],[78.2,26766],[78.2,26858],[78.2,26949],[78.2,27041],[78.2,27133],[78.2,27224],[78.2,27316],[78.2,27407],[78.2,27499],[78.2,27591],[78.2,27682],[78.2,27775],[78.2,27866],[78.2,27958],[78.2,28048],[78.2,28141],[78.2,28233],[78.2,28324],[78.2,28416]]",1020.4551,1022.197,84.41885489,0.7678,"[{""rating"":84.4188548900463,""responseTime"":0.7678000001908458}]",space,1.2171,,1022.1971,Definitely yes,100,1022.2006,,,[],,0,11,11,11,1,audio/Narrative8Situation2.wav,audio/Narrative7Situation2.wav,audio/Narrative6Situation2.wav,audio/Narrative5Situation2.wav,3,3,3,3,,,,,,,,,,,,,,,,,,,,,,,,,,,,,,,,,,,,,,,
,,,,,58a229e74d580c0001e0a766,2025-07-07_23h06.18.213,group3.4_multiperson,2023.2.2,MacIntel,128.2051282,686c2ebf0248f13bef9af11f,686c8a83d2afe7eed70bc158,,,,,,,,,,,,,,,,,,,,,,,,,,,,,1022.2008,2,audio/Narrative6Situation3.wav,1027.2056,,1027.2056,1039.8056,"[[999,0],[999,90],[999,183],[999,274],[999,365],[999,457],[999,549],[999,640],[999,732],[999,823],[999,916],[999,1007],[999,1099],[61,1190],[61.3,1282],[61.3,1374],[61.2,1465],[61.2,1557],[61.2,1649],[61.2,1741],[61.2,1832],[57.1,1924],[54.4,2015],[54.4,2108],[54.4,2199],[54.4,2290],[54.4,2382],[54.3,2474],[54,2566],[52.7,2659],[51.7,2749],[51.3,2841],[51.2,2932],[51.2,3024],[51.2,3115],[51.4,3207],[52.4,3299],[53.4,3390],[53.8,3483],[55,3576],[57.2,3666],[57.7,3756],[57.7,3849],[57.7,3941],[57.7,4032],[57.7,4123],[57.7,4215],[57.7,4307],[57.7,4398],[57.7,4490],[57.7,4581],[57.7,4674],[57.7,4765],[57.7,4857],[57.7,4949],[57.7,5040],[57.7,5132],[57.7,5224],[57.7,5315],[57.7,5407],[57.7,5499],[57.7,5590],[57.7,5682],[57.7,5774],[57.7,5865],[57.7,5957],[57.7,6049],[57.7,6140],[57.7,6232],[57.7,6324],[57.7,6415],[57.7,6507],[57.7,6599],[57.7,6691],[60.9,6782],[63.7,6874],[66.3,6965],[69.1,7057],[70.2,7149],[71.2,7241],[74.9,7332],[75.7,7424],[75.7,7515],[75.7,7607],[76.3,7701],[80,7790],[80.1,7883],[80,7973],[80,8065],[80,8157],[80,8249],[80,8341],[80,8432],[80,8524],[80,8615],[80,8707],[80,8799],[80,8891],[80,8981],[80,9074],[80,9166],[80,9257],[80,9349],[80,9440],[80,9532],[80,9624],[80,9715],[80,9807],[80,9899],[80,9991],[80,10082],[80,10173],[80,10265],[80,10358],[80,10449],[80,10541],[80,10632],[80,10724],[80,10815],[80,10907],[80,10999],[80,11090],[80,11182],[80,11274],[80,11365],[80,11457],[80,11548],[80,11641],[80,11732],[80,11824],[80,11915],[80,12007],[80,12099],[80,12191],[80,12282],[80,12374],[80,12465],[80,12557]]",1039.8059,1042.2708,69.56334997,2.0356,"[{""rating"":72.5441261574074,""responseTime"":0.8040000000000873},{""rating"":69.56334997106481,""responseTime"":2.0355999999046617}]",space,1.9424,,1042.271,Partially,50,1042.2736,,,[],,0,12,12,12,1,audio/Narrative8Situation3.wav,audio/Narrative7Situation3.wav,audio/Narrative6Situation3.wav,audio/Narrative5Situation3.wav,4,8,5,3,,,,,,,,,,,,,,,,,,,,,,,,,,,,,,,,,,,,,,,
,,,,,58a229e74d580c0001e0a766,2025-07-07_23h06.18.213,group3.4_multiperson,2023.2.2,MacIntel,128.2051282,686c2ebf0248f13bef9af11f,686c8a83d2afe7eed70bc158,,,,,,,,,,,,,,,,,,,,,,,,,,,,,1042.2739,2,audio/Narrative6Situation4.wav,1044.2801,,1044.2802,1056.8799,"[[999,0],[999,91],[999,182],[999,274],[999,366],[999,457],[999,549],[999,641],[999,732],[999,824],[999,916],[999,1007],[999,1099],[999,1191],[62,1283],[63.1,1377],[63.9,1466],[64.4,1557],[63.6,1649],[63.5,1741],[65.3,1834],[68.3,1924],[69.2,2015],[67.5,2107],[67.5,2199],[67.5,2291],[67.5,2383],[67.5,2474],[67.5,2566],[67.8,2658],[70.1,2749],[71,2841],[71.9,2933],[72.7,3024],[72.8,3116],[72.8,3207],[72.8,3298],[72.8,3390],[72.8,3483],[72.8,3573],[72.8,3665],[72.8,3757],[72.8,3849],[72.8,3940],[72.8,4033],[72.8,4124],[72.8,4216],[72.8,4307],[72.8,4400],[72.8,4491],[72.8,4582],[72.8,4674],[72.8,4765],[72.8,4857],[72.8,4948],[72.8,5041],[72.8,5132],[72.8,5224],[72.8,5315],[72.8,5407],[72.8,5500],[72.8,5591],[72.8,5682],[72.8,5774],[72.8,5865],[72.8,5957],[72.8,6049],[72.8,6141],[72.8,6233],[72.8,6324],[72.8,6415],[74.9,6508],[75.8,6599],[76,6690],[76,6782],[76.4,6874],[77.8,6966],[78.3,7057],[78.3,7149],[78.3,7241],[78.3,7333],[78.3,7424],[78.3,7516],[78.3,7607],[78.3,7699],[78.3,7791],[78.3,7882],[78.3,7974],[78.3,8066],[78.3,8158],[78.3,8249],[78.3,8341],[78.3,8432],[78.3,8524],[78.3,8616],[78.3,8707],[78.3,8799],[78.5,8891],[78.7,8982],[79,9074],[79.1,9166],[80.8,9258],[83,9349],[84.8,9441],[85.8,9533],[87.2,9624],[87.9,9716],[87.9,9807],[87.9,9898],[88.3,9991],[88.3,10083],[88.3,10175],[88.3,10266],[88.3,10357],[88.3,10450],[88.3,10541],[88.3,10632],[88.3,10724],[88.3,10816],[88.3,10907],[88.3,11000],[88.3,11091],[88.3,11182],[88.3,11273],[88.8,11366],[89.3,11460],[89.3,11550],[89.3,11641],[89.3,11732],[90.1,11824],[91,11917],[91.4,12007],[91.6,12099],[91.7,12191],[92,12282],[93.4,12374],[94.1,12466],[94.2,12557]]",1056.88,1058.1716,97.06895616,0.7364,"[{""rating"":97.06895616319444,""responseTime"":0.7364000000952728}]",space,0.7697,,1058.1717,Not at all,0,1058.1735,,,[],,0,13,13,13,1,audio/Narrative8Situation4.wav,audio/Narrative7Situation4.wav,audio/Narrative6Situation4.wav,audio/Narrative5Situation4.wav,3,3,2,1,,,,,,,,,,,,,,,,,,,,,,,,,,,,,,,,,,,,,,,
,,,,,58a229e74d580c0001e0a766,2025-07-07_23h06.18.213,group3.4_multiperson,2023.2.2,MacIntel,128.2051282,686c2ebf0248f13bef9af11f,686c8a83d2afe7eed70bc158,,,,,,,,,,,,,,,,,,,,,,,,,,,,,1058.1737,2,audio/Narrative6Situation5.wav,1060.179,,1060.1791,1068.1132,"[[96.8,642],[94.8,734],[90.4,826],[84.1,917],[71.1,1375],[71.1,1466],[71.9,1559],[71.9,1650],[71.9,1742],[71.9,1833],[71.9,1925],[71.9,2017],[71.9,2108],[73.2,2200],[75.2,2295],[76.4,2384],[77.3,2476],[79.1,2567],[81.5,2659],[82.9,2750],[83.3,2842],[83.4,2934],[83.4,3025],[83.4,3117],[84.1,3208],[85,3300],[85,3392],[85.6,3484],[85.8,3575],[85.8,3667],[85.9,3758],[85.9,3851],[85.9,3942],[85.9,4033],[85.9,4126],[85.9,4216],[85.9,4309],[85.9,4400],[85.9,4492],[85.9,4584],[85.9,4675],[85.9,4767],[85.9,4859],[85.9,4950],[85.9,5042],[85.9,5134],[85.9,5225],[85.9,5317],[85.9,5409],[85.9,5500],[85.9,5592],[85.9,5684],[85.9,5778],[86.8,5867],[89.5,5959],[90.4,6051],[90.5,6141],[90.7,6233],[90.7,6325],[90.7,6418],[90.7,6509],[90.7,6600],[90.7,6692],[90.7,6784],[90.7,6875],[90.7,6967],[90.7,7059],[90.7,7151],[90.7,7242],[90.7,7334],[90.7,7425],[90.7,7517],[90.7,7609],[90.7,7700],[90.7,7792],[90.7,7883]]",1068.1132,1069.6457,90.71768302,0.7141,"[{""rating"":90.7176830150463,""responseTime"":0.7141000003814497}]",space,1.0082,,1069.6457,Partially,50,1069.6482,,,[],,0,14,14,14,1,audio/Narrative8Situation5.wav,audio/Narrative7Situation5.wav,audio/Narrative6Situation5.wav,audio/Narrative5Situation5.wav,2,5,2,5,,,,,,,,,,,,,,,,,,,,,,,,,,,,,,,,,,,,,,,
,,,,,58a229e74d580c0001e0a766,2025-07-07_23h06.18.213,group3.4_multiperson,2023.2.2,MacIntel,128.2051282,686c2ebf0248f13bef9af11f,686c8a83d2afe7eed70bc158,,,,,,,,,,,,,,,,,,,,,,,,,,,,,1069.6485,2,audio/Narrative6Situation6.wav,1071.6545,,1071.6545,1082.7127,"[[90.1,917],[86,1008],[79.6,1100],[75.4,1192],[75.3,1282],[75.3,1375],[75.3,1466],[75.3,1558],[75.3,1650],[75.3,1741],[75.3,1833],[75.3,1925],[75.3,2016],[75.3,2108],[75.3,2199],[75.3,2292],[75.3,2384],[75.3,2475],[75.3,2566],[75.3,2658],[75.3,2750],[75.3,2841],[75.3,2933],[75.3,3024],[75.3,3117],[75.3,3208],[75.3,3299],[75.3,3391],[75.3,3483],[75.3,3575],[75.3,3666],[75.3,3759],[75.3,3849],[75.3,3942],[75.3,4033],[75.3,4125],[75.3,4216],[75.3,4308],[75.3,4400],[75.3,4491],[75.3,4582],[75.3,4675],[75.7,4766],[75.8,4857],[76.1,4950],[76.4,5042],[77,5133],[77.2,5225],[77.7,5316],[78.8,5408],[79.3,5500],[79.3,5591],[79.3,5682],[79.3,5775],[79.3,5867],[79.3,5959],[79.3,6050],[79.3,6141],[79.3,6233],[79.3,6325],[79.3,6417],[79.3,6508],[79.3,6600],[79.3,6692],[79.3,6783],[79.3,6875],[79.3,6966],[79.3,7058],[79.3,7150],[79.3,7241],[79.3,7332],[79.3,7425],[79.3,7516],[79.3,7608],[79.3,7700],[79.3,7792],[79.3,7884],[79.3,7975],[79.3,8066],[79.3,8158],[79.3,8250],[79.3,8342],[79.3,8433],[79.3,8524],[79.3,8616],[79.3,8708],[79.3,8799],[79.3,8892],[79.7,8982],[80.9,9075],[81.2,9166],[81.2,9258],[81.2,9350],[81.2,9441],[82,9533],[83.2,9625],[84.2,9716],[86,9808],[88.2,9900],[90.2,9992],[91.4,10083],[91.5,10175],[91.5,10267],[91.5,10357],[91.5,10450],[91.5,10542],[91.5,10632],[91.5,10725],[91.5,10816],[91.5,10907],[91.5,11000]]",1082.7128,1087.1383,91.66576244,0.6109,"[{""rating"":91.66576244212963,""responseTime"":0.6108999996185958}]",space,3.9145,,1087.1384,Not at all,0,1087.1409,,,[],,0,15,15,15,1,audio/Narrative8Situation6.wav,audio/Narrative7Situation6.wav,audio/Narrative6Situation6.wav,audio/Narrative5Situation6.wav,2,3,2,3,,,,,,,,,,,,,,,,,,,,,,,,,,,,,,,,,,,,,,,
