consent.started,consent.stopped,consentResponse.keys,consentResponse.rt,consentResponse.duration,participantID,date,expName,psychopyVersion,OS,frameRate,STUDY_ID,SESSION_ID,opening1.started,opening1.stopped,keyEndingOpening1.keys,keyEndingOpening1.rt,keyEndingOpening1.duration,volumeAdjust.started,volumeAdjust.stopped,endingAdjust.keys,endingAdjust.rt,endingAdjust.duration,opening2.started,opening2.stopped,keyEndingOpening.keys,keyEndingOpening.rt,keyEndingOpening.duration,mouse.x,mouse.y,mouse.leftButton,mouse.midButton,mouse.rightButton,mouse.time,instructionLoop.thisRepN,instructionLoop.thisTrialN,instructionLoop.thisN,instructionLoop.thisIndex,instructionLoop.ran,readyForAudio.started,readyForAudio.stopped,fixation.started,run,audio_played,fixation.stopped,endPractice.keys,audioPre.started,audioPre.stopped,continuousResponses_audio,intRating.started,intRating.stopped,intQuestionSlider.response,intQuestionSlider.rt,intQuestionSlider.history,confirmResponse.keys,confirmResponse.rt,confirmResponse.duration,catchQuestion.started,catch_label,catch_value,catchQuestion.stopped,catchQuestionSlider.response,catchQuestionSlider.rt,catchQuestionSlider.history,confirmResponse_2.keys,audioRunLoop.thisRepN,audioRunLoop.thisTrialN,audioRunLoop.thisN,audioRunLoop.thisIndex,audioRunLoop.ran,conditions1_1,conditions2_1,conditions1_2,conditions2_2,dur1_1,dur2_1,dur1_2,dur2_2,endPractice.rt,endPractice.duration,confirmResponse_2.rt,confirmResponse_2.duration,runIntervalBreak.started,runIntervalBreak.stopped,endingBreakKey.keys,endingBreakKey.rt,endingBreakKey.duration,connection.started,connection.stopped,connectionEnding.keys,connectionEnding.rt,connectionEnding.duration,readyForText.started,readyForText.stopped,textPre.started,run_dup,textPre.stopped,continuousResponses_text,textRunLoop.thisRepN,textRunLoop.thisTrialN,textRunLoop.thisN,textRunLoop.thisIndex,textRunLoop.ran,text1_1,text1_2,text2_1,text2_2,runBreakText.started,runBreakText.stopped,endingBreakKey_2.keys,endingBreakKey_2.rt,endingBreakKey_2.duration,ending.started,ending.stopped,endingEnding.keys,endingEnding.rt,endingEnding.duration
0.0003,5.3744,y,5.0486,,58f0fca0d40252000192f201,2025-07-07_23h47.59.212,group3.4_multiperson,2023.2.2,Win32,59.88023952,686c2ebf0248f13bef9af11f,686c940c87096a8196933e10,,,,,,,,,,,,,,,,,,,,,,,,,,,,,,,,,,,,,,,,,,,,,,,,,,,,,,,,,,,,,,,,,,,,,,,,,,,,,,,,,,,,,,,,,,,,,,,,,,,,,,,,
,,,,,58f0fca0d40252000192f201,2025-07-07_23h47.59.212,group3.4_multiperson,2023.2.2,Win32,59.88023952,686c2ebf0248f13bef9af11f,686c940c87096a8196933e10,5.3748,11.1388,space,5.7151,,,,,,,,,,,,,,,,,,,,,,,,,,,,,,,,,,,,,,,,,,,,,,,,,,,,,,,,,,,,,,,,,,,,,,,,,,,,,,,,,,,,,,,,,,,,,,,,,,,,
,,,,,58f0fca0d40252000192f201,2025-07-07_23h47.59.212,group3.4_multiperson,2023.2.2,Win32,59.88023952,686c2ebf0248f13bef9af11f,686c940c87096a8196933e10,,,,,,11.1391,81.0113,space,69.5506,,,,,,,,,,,,,,,,,,,,,,,,,,,,,,,,,,,,,,,,,,,,,,,,,,,,,,,,,,,,,,,,,,,,,,,,,,,,,,,,,,,,,,,,,,,,,,,
,,,,,58f0fca0d40252000192f201,2025-07-07_23h47.59.212,group3.4_multiperson,2023.2.2,Win32,59.88023952,686c2ebf0248f13bef9af11f,686c940c87096a8196933e10,,,,,,,,,,,81.0191,88.1148,space,7.0787,,[],[],[],[],[],[],0,0,0,0,1,,,,,,,,,,,,,,,,,,,,,,,,,,,,,,,,,,,,,,,,,,,,,,,,,,,,,,,,,,,,,,,,,,,,,,,,,,,,,,
,,,,,58f0fca0d40252000192f201,2025-07-07_23h47.59.212,group3.4_multiperson,2023.2.2,Win32,59.88023952,686c2ebf0248f13bef9af11f,686c940c87096a8196933e10,,,,,,,,,,,88.1157,114.0288,space,25.8053,,[],[],[],[],[],[],1,0,1,0,1,,,,,,,,,,,,,,,,,,,,,,,,,,,,,,,,,,,,,,,,,,,,,,,,,,,,,,,,,,,,,,,,,,,,,,,,,,,,,,
,,,,,58f0fca0d40252000192f201,2025-07-07_23h47.59.212,group3.4_multiperson,2023.2.2,Win32,59.88023952,686c2ebf0248f13bef9af11f,686c940c87096a8196933e10,,,,,,,,,,,114.0295,124.4631,space,10.3738,,[],[],[],[],[],[],2,0,2,0,1,,,,,,,,,,,,,,,,,,,,,,,,,,,,,,,,,,,,,,,,,,,,,,,,,,,,,,,,,,,,,,,,,,,,,,,,,,,,,,
,,,,,58f0fca0d40252000192f201,2025-07-07_23h47.59.212,group3.4_multiperson,2023.2.2,Win32,59.88023952,686c2ebf0248f13bef9af11f,686c940c87096a8196933e10,,,,,,,,,,,124.4637,140.1975,space,15.7082,,[],[],[],[],[],[],3,0,3,0,1,,,,,,,,,,,,,,,,,,,,,,,,,,,,,,,,,,,,,,,,,,,,,,,,,,,,,,,,,,,,,,,,,,,,,,,,,,,,,,
,,,,,58f0fca0d40252000192f201,2025-07-07_23h47.59.212,group3.4_multiperson,2023.2.2,Win32,59.88023952,686c2ebf0248f13bef9af11f,686c940c87096a8196933e10,,,,,,,,,,,140.1982,158.165,space,17.9401,,[],[],[],[],[],[],4,0,4,0,1,,,,,,,,,,,,,,,,,,,,,,,,,,,,,,,,,,,,,,,,,,,,,,,,,,,,,,,,,,,,,,,,,,,,,,,,,,,,,,
,,,,,58f0fca0d40252000192f201,2025-07-07_23h47.59.212,group3.4_multiperson,2023.2.2,Win32,59.88023952,686c2ebf0248f13bef9af11f,686c940c87096a8196933e10,,,,,,,,,,,158.1656,169.9326,space,11.7516,,[],[],[],[],[],[],5,0,5,0,1,,,,,,,,,,,,,,,,,,,,,,,,,,,,,,,,,,,,,,,,,,,,,,,,,,,,,,,,,,,,,,,,,,,,,,,,,,,,,,
,,,,,58f0fca0d40252000192f201,2025-07-07_23h47.59.212,group3.4_multiperson,2023.2.2,Win32,59.88023952,686c2ebf0248f13bef9af11f,686c940c87096a8196933e10,,,,,,,,,,,,,,,,,,,,,,,,,,,169.9364,172.5165,172.5521,1,audio/Narrative13Situation2.wav,174.5664,,174.5667,204.3224,"[[999,1],[999,116],[999,199],[999,283],[999,366],[999,449],[999,532],[999,615],[999,699],[999,782],[999,866],[999,949],[999,1032],[999,1115],[999,1200],[999,1282],[999,1366],[999,1449],[999,1533],[999,1616],[999,1702],[999,1786],[999,1868],[999,1949],[999,2036],[999,2116],[999,2202],[999,2283],[999,2369],[999,2454],[999,2537],[999,2620],[999,2704],[24.1,2788],[25.8,2871],[27.9,2954],[28.3,3037],[28.3,3119],[28.3,3200],[28.3,3287],[28.3,3366],[28.3,3453],[28.3,3533],[28.3,3620],[28.3,3699],[28.8,3788],[29.2,3869],[29.4,3950],[29.4,4036],[28.5,4121],[21.4,4204],[16.2,4287],[16,4369],[19.4,4454],[19.8,4533],[20,4620],[21.6,4705],[35.5,4787],[47.4,4871],[56.9,4954],[57.8,5036],[58.1,5116],[62,5205],[65.7,5288],[66,5371],[65.8,5453],[65.8,5536],[65.8,5619],[65.8,5700],[65.8,6287],[65.1,6366],[64.9,6454],[64.3,6537],[64.3,6616],[61.4,6704],[54.4,6788],[52.6,6871],[50.1,6954],[48.8,7039],[48.5,7120],[48.4,7204],[48,7288],[47.8,7371],[46.8,7454],[45.5,7538],[44.4,7622],[43.1,7704],[40,7788],[38,7871],[35.8,7954],[34.6,8038],[34.5,8120],[34,8204],[33.3,8290],[32.6,8370],[32.3,8454],[32.3,8536],[31.8,8620],[31.6,8705],[31.6,8786],[31.6,8866],[31.6,8950],[31.6,9033],[31.6,9119],[37.3,9204],[46.9,9288],[54.7,9371],[65.7,10371],[63.9,10454],[64.1,10537],[66.4,10622],[66.7,10703],[66.8,10787],[69.6,10871],[70.9,10955],[75.2,11039],[76.8,11118],[77.5,11204],[85.3,11288],[89.8,11372],[90.3,11454],[90.8,11539],[95.1,11621],[99.5,11705],[100,11788],[100,11866],[100,11950],[100,12033],[100,12117],[100,12203],[100,12287],[100,12370],[100,12453],[100,12536],[100,12617],[100,12700],[100,12788],[100,12867],[100,12950],[100,13033],[100,13117],[100,13200],[100,13285],[100,13367],[100,13450],[100,13537],[100,13618],[100,13703],[100,13783],[100,13870],[100,13950],[100,14038],[100,14120],[100,14203],[100,14283],[100,14367],[100,14454],[100,14537],[100,14617],[100,14700],[100,14783],[100,14871],[100,14953],[100,15037],[100,15117],[100,15200],[100,15284],[100,15368],[100,15450],[100,15534],[100,15617],[100,15704],[100,15784],[100,15867],[100,15955],[100,16034],[100,16117],[100,16200],[100,16288],[100,16367],[100,16450],[100,16534],[100,16622],[100,16700],[100,16786],[100,16867],[100,16954],[100,17034],[100,17121],[100,17204],[100,17283],[100,17371],[100,17454],[100,17537],[100,17621],[100,17704],[100,17786],[100,17870],[100,17954],[100,18034],[100,18117],[100,18200],[100,18287],[100,18371],[100,18450],[100,18538],[100,18617],[100,18703],[100,18784],[100,18867],[100,18950],[100,19037],[100,19117],[100,19201],[100,19288],[100,19371],[100,19450],[100,19537],[100,19617],[100,19704],[100,19784],[100,19871],[100,19954],[100,20037],[100,20117],[100,20200],[100,20284],[100,20367],[100,20454],[100,20534],[100,20621],[100,20701],[100,20788],[100,20868],[100,20954],[100,21038],[100,21118],[100,21201],[100,21288],[100,21367],[100,21451],[100,21537],[100,21617],[100,21703],[100,21784],[100,21868],[100,21953],[100,22036],[100,22117],[100,22204],[100,22284],[100,22371],[100,22454],[100,22538],[100,22617],[100,22701],[100,22788],[100,22871],[100,22954],[100,23039],[100,23117],[100,23201],[100,23288],[100,23371],[100,23454],[100,23538],[100,23621],[100,23701],[100,23788],[100,23868],[100,23954],[100,24038],[98.6,24122],[94.5,24206],[93,24289],[89.7,24372],[89.1,24454],[84.7,24539],[78.1,24622],[78,24701],[78,24784],[78,24867],[78,24951],[78,25037],[78,25121],[78,25203],[78,25288],[78,25371],[78,25451],[78,25538],[78.7,25622],[80.7,25707],[85.3,25784],[85.6,25871],[85.9,25955],[86.2,26035],[86.3,26121],[86.3,26205],[86.3,26286],[86.3,26371],[86.3,26451],[86.3,26538],[86.3,26617],[86.3,26704],[86.3,26785],[86.3,26868],[86.3,26951],[86.3,27038],[86.3,27118],[86.3,27201],[86.3,27284],[86.3,27368],[86.3,27451],[86.3,27534],[86.3,27618],[86.3,27704],[86.3,27788],[86.3,27871],[86.3,27954],[86.3,28034],[86.3,28121],[86.3,28201],[86.3,28288],[87,28372],[87.2,28455],[87.3,28535],[88.2,28622],[89.1,28703],[89.8,28789],[90.6,28872],[91,28951],[91.1,29034],[90.6,29122],[85.3,29206],[77.2,29290],[75.6,29372],[75.6,29455],[70.4,29539],[60.2,29624]]",204.3231,213.4362,62.1522694,7.0584,"[{""rating"":62.15226939970717,""responseTime"":7.058400000095361}]",space,8.5796,,213.4367,Not at all,0,213.444,,,[],,0,0,0,0,1,audio/Narrative13Situation2.wav,audio/Narrative13Situation2.wav,audio/Narrative13Situation2.wav,audio/Narrative13Situation2.wav,2,2,2,2,,,,,,,,,,,,,,,,,,,,,,,,,,,,,,,,,,,,,,,
,,,,,58f0fca0d40252000192f201,2025-07-07_23h47.59.212,group3.4_multiperson,2023.2.2,Win32,59.88023952,686c2ebf0248f13bef9af11f,686c940c87096a8196933e10,,,,,,,,,,,,,,,,,,,,,,,,,,,,,213.4447,1,audio/Narrative8Situation1.wav,215.6698,space,215.6699,231.6045,"[[999,1],[999,82],[999,165],[999,249],[999,332],[999,415],[999,499],[999,582],[999,666],[999,750],[999,833],[999,916],[999,999],[57.3,1083],[56.9,1166],[56.9,1249],[56.7,1332],[56.6,1416],[56.1,1499],[55.9,1583],[59.2,1833],[64.6,1916],[66.4,2000],[68.4,2082],[70.2,2166],[70.5,2249],[70.6,2332],[70.9,2416],[72.1,2499],[73,2582],[73.1,2665],[73.1,2749],[73.1,2832],[73.1,2916],[73.1,2999],[73.1,3082],[73.1,3165],[73.1,3250],[73.3,3332],[73.3,3416],[73.7,3500],[74.2,3582],[74.5,3665],[74.7,3749],[75.3,3833],[75.6,3916],[75.6,3999],[75.6,4082],[75.6,4166],[75.6,4249],[75.6,4332],[75.6,4416],[75.6,4499],[75.6,4582],[75.6,4665],[75.6,4749],[75.6,4832],[75.6,4915],[75.5,5000],[75.3,5083],[75.3,5166],[75.3,5249],[75.2,5332],[75.2,5415],[75,5499],[75,5582],[75,5666],[75,5749],[75,5832],[75,5916],[75.2,5999],[75.3,6083],[75.3,6165],[75.5,6249],[75.8,6332],[76.1,6416],[76.2,6499],[76.2,6583],[76.2,6666],[76.2,6749],[76.1,6833],[75.9,6916],[75.9,6999],[75.8,7083],[75.6,7166],[75.2,7249],[73.9,7333],[72.8,7417],[71.1,7501],[68.2,7583],[66.7,7667],[64.9,7749],[62.3,7833],[58.9,7916],[56.3,8001],[55.1,8083],[54.2,8166],[53.5,8250],[53.2,8333],[52.9,8416],[52.2,8501],[50.6,8583],[49.6,8666],[49.3,8750],[49.3,8833],[49.3,8916],[49.3,9000],[49.3,9083],[49.3,9166],[49.4,9249],[51.6,9333],[59.5,9416],[67.3,9501],[70.2,9584],[72.8,9666],[81.6,9750],[88.9,9833],[89.7,9916],[91.1,10000],[91.7,10083],[92.2,10166],[93.5,10250],[94.2,10333],[94.2,10416],[94.2,10500],[94.2,10583],[94.2,10666],[94.2,10749],[94.2,10833],[94.1,10916],[94.1,11000],[94.1,11083],[94.1,11166],[93.9,11250],[93.9,11333],[93.9,11416],[93.9,11500],[93.9,11583],[93.9,11666],[93.9,11749],[93.9,11832],[93.9,11916],[93.9,12000],[93.9,12083],[93.9,12166],[93.9,12250],[93.9,12333],[93.9,12416],[93.9,12500],[93.9,12583],[93.9,12667],[93.9,12750],[93.9,12833],[93.9,12916],[93.9,13000],[93.9,13083],[93.9,13166],[93.9,13250],[93.9,13333],[94.9,13417],[95.1,13500],[95.1,13583],[95.1,13666],[95.2,13750],[95.2,13833],[95.2,13916],[95.4,14000],[95.4,14083],[95.4,14166],[95.4,14250],[95.4,14334],[95.4,14417],[95.4,14500],[95.4,14584],[95.2,14666],[95.1,14750],[94.8,14833],[94.7,14916],[94.5,15000],[94.5,15083],[94.5,15166],[94.5,15250],[94.5,15333],[94.5,15416],[94.5,15500],[94.5,15583],[94.4,15666],[94.4,15750],[94.4,15833],[93.2,15917]]",231.6048,236.0377,86.4568082,2.6501,"[{""rating"":86.45680819912151,""responseTime"":2.650100000381485}]",space,3.8895,,236.0378,Not at all,0,236.0409,,,[],,0,1,1,1,1,audio/Narrative7Situation1.wav,audio/Narrative8Situation1.wav,audio/Narrative5Situation1.wav,audio/Narrative6Situation1.wav,2,5,5,2,2.1965,,,,,,,,,,,,,,,,,,,,,,,,,,,,,,,,,,,,,,
,,,,,58f0fca0d40252000192f201,2025-07-07_23h47.59.212,group3.4_multiperson,2023.2.2,Win32,59.88023952,686c2ebf0248f13bef9af11f,686c940c87096a8196933e10,,,,,,,,,,,,,,,,,,,,,,,,,,,,,236.0413,1,audio/Narrative8Situation2.wav,239.0545,,239.0546,249.1721,"[[65.4,2834],[63.5,2916],[63,3001],[61.3,3083],[60.1,3167],[55.3,3250],[42.2,3333],[34.3,3416],[23.2,3500],[19.7,3583],[19.7,3666],[19.7,3749],[19.7,3833],[19.7,3916],[19.4,4000],[19.3,4083],[18.8,4166],[17.6,4250],[16.9,4333],[16.8,4416],[16.8,4500],[16.6,4583],[16.6,4666],[16.6,4749],[16.6,4833],[16.6,4916],[16.6,4999],[16.6,5083],[16.6,5166],[16.6,5250],[16.6,5333],[16.6,5416],[16.6,5500],[16.6,5583],[16.6,5666],[16.6,5750],[16.5,5833],[15.9,5917],[15,5999],[14.9,6083],[14.7,6166],[14.7,6250],[14.7,6332],[14.7,6416],[14.7,6500],[14.7,6583],[14.7,6666],[14.7,6749],[14.7,6833],[14.7,6916],[14.7,6999],[14.7,7083],[14.7,7166],[14.7,7249],[14.7,7333],[14.7,7416],[14.7,7500],[14.7,7583],[14.7,7666],[14.7,7750],[14.7,7833],[14.7,7916],[14.7,8000],[14.7,8083],[14.7,8166],[14.7,8249],[14.7,8333],[14.7,8416],[14.7,8500],[14.7,8583],[14.7,8666],[14.7,8750],[14.7,8833],[14.7,8916],[14.7,9000],[14.7,9083],[14.7,9166],[14.7,9250],[14.7,9333],[14.7,9416],[14.7,9500],[14.7,9583],[14.7,9666],[14.7,9750],[14.7,9833],[14.7,9917],[14.7,10000],[14.7,10083]]",249.1723,256.6057,2.70863836,2.5833,"[{""rating"":2.708638360175697,""responseTime"":2.583300000190718}]",space,6.8873,,256.6058,Definitely yes,100,256.6113,,,[],,0,2,2,2,1,audio/Narrative7Situation2.wav,audio/Narrative8Situation2.wav,audio/Narrative5Situation2.wav,audio/Narrative6Situation2.wav,3,3,3,3,,,,,,,,,,,,,,,,,,,,,,,,,,,,,,,,,,,,,,,
,,,,,58f0fca0d40252000192f201,2025-07-07_23h47.59.212,group3.4_multiperson,2023.2.2,Win32,59.88023952,686c2ebf0248f13bef9af11f,686c940c87096a8196933e10,,,,,,,,,,,,,,,,,,,,,,,,,,,,,256.6117,1,audio/Narrative8Situation3.wav,260.6223,,260.6223,282.991,"[[999,1],[999,83],[999,166],[999,250],[999,333],[999,416],[999,500],[999,583],[999,667],[999,750],[999,833],[999,916],[999,1000],[999,1083],[999,1166],[999,1251],[999,1334],[999,1417],[999,1499],[999,1583],[999,1666],[999,1750],[999,1833],[999,1916],[999,2000],[999,2083],[999,2166],[999,2250],[999,2333],[999,2416],[999,2500],[999,2583],[999,2668],[999,2750],[999,2833],[44.7,2919],[44.9,3000],[44.9,3083],[44.4,3167],[43.7,3251],[42.1,3334],[36.2,3417],[31.4,3500],[26.7,3584],[22.3,3667],[21,3750],[20.9,3833],[20.9,3917],[25.5,4000],[33.7,4084],[42.4,4167],[47.5,4251],[55.3,4333],[66.3,4417],[72.4,4500],[72.4,4583],[72.4,4667],[72.4,4750],[72.4,4833],[72.4,4917],[75.2,5000],[78.6,5083],[78.7,5166],[78.7,5250],[79.6,5333],[80.3,5417],[80.6,5500],[80.7,5583],[80.7,5667],[80.7,5750],[80.7,5833],[80.7,5917],[80.7,6000],[80.7,6083],[80.7,6167],[80.7,6250],[80.7,6333],[80.7,6417],[80.7,6500],[80.7,6583],[80.7,6667],[80.7,6750],[80.7,6833],[80.7,6917],[80.7,7000],[80.7,7083],[80.7,7167],[80.7,7250],[80.7,7333],[80.7,7417],[81.9,7500],[84.4,7583],[84.8,7667],[85.1,7750],[85.9,7834],[86.5,7917],[87.2,8000],[87.3,8083],[87.3,8167],[87.3,8250],[87.3,8333],[87.3,8417],[87.3,8500],[87.3,8583],[87.3,8667],[87.3,8750],[87.3,8833],[87.3,8917],[87.3,9000],[87.3,9083],[87.3,9167],[87.3,9250],[87.3,9333],[87.3,9417],[87.3,9501],[87.3,9583],[87.3,9667],[87.3,9750],[87.3,9833],[87.3,9917],[87.3,10000],[87.3,10083],[87.3,10167],[87.3,10250],[87.3,10333],[87.3,10417],[87.3,10500],[87.3,10583],[87.3,10667],[87.3,10750],[87.3,10833],[87.3,10917],[87.3,11000],[87.3,11084],[87.3,11167],[87.3,11251],[87.3,11333],[87.3,11417],[87.3,11500],[87.3,11584],[87.3,11667],[87.3,11750],[87.3,11833],[87.3,11917],[87.3,12001],[87.3,12083],[87.3,12167],[87.3,12250],[88.5,12334],[91,12418],[91.6,12500],[92.2,12584],[93.5,12667],[94.8,12751],[95.5,12834],[95.7,12917],[95.7,13001],[95.7,13084],[95.7,13167],[95.7,13250],[95.7,13334],[95.7,13417],[95.7,13501],[95.7,13584],[95.7,13667],[95.7,13751],[95.7,13834],[95.7,13917],[95.7,14001],[95.7,14084],[95.7,14167],[95.7,14250],[95.7,14334],[95.7,14417],[95.7,14500],[95.7,14584],[95.7,14667],[95.7,14750],[95.7,14834],[95.7,14917],[95.7,15000],[95.7,15084],[95.7,15167],[95.7,15250],[95.7,15333],[95.7,15417],[95.7,15500],[95.7,15584],[95.7,15667],[95.7,15750],[95.7,15834],[95.7,15917],[95.7,16000],[95.7,16084],[95.7,16167],[95.7,16250],[95.7,16334],[95.7,16417],[95.7,16500],[95.7,16584],[95.7,16667],[95.7,16750],[95.7,16834],[95.7,16918],[95.7,17000],[95.7,17084],[95.7,17167],[95.7,17250],[95.7,17334],[95.7,17417],[95.7,17501],[95.7,17584],[95.7,17667],[95.7,17750],[95.7,17834],[95.7,17917],[95.7,18001],[95.7,18084],[95.7,18167],[95.7,18251],[95.7,18334],[95.7,18417],[95.7,18501],[95.7,18584],[95.7,18667],[95.7,18751],[95.7,18834],[95.7,18917],[95.7,19001],[95.7,19084],[95.7,19167],[95.7,19251],[95.7,19334],[95.7,19417],[95.7,19500],[95.7,19584],[95.7,19668],[95.7,19751],[95.7,19834],[95.7,19918],[95.7,20001],[95.7,20084],[95.7,20168],[95.7,20250],[95.7,20334],[95.7,20417],[95.7,20501],[95.7,20584],[95.7,20667],[95.7,20751],[95.7,20834],[95.7,20917],[95.7,21001],[95.7,21085],[95.7,21167],[95.7,21250],[95.7,21334],[95.7,21417],[95.7,21501],[95.7,21585],[95.7,21667],[95.7,21751],[95.7,21834],[95.7,21918],[95.7,22001],[95.7,22084],[95.7,22168],[95.7,22251],[95.7,22334]]",282.9913,285.191,95.68081991,0.5127,"[{""rating"":95.68081991215227,""responseTime"":0.5126999998092856}]",space,1.6565,,285.1911,Partially,50,285.1956,,,[],,0,3,3,3,1,audio/Narrative7Situation3.wav,audio/Narrative8Situation3.wav,audio/Narrative5Situation3.wav,audio/Narrative6Situation3.wav,8,4,3,5,,,,,,,,,,,,,,,,,,,,,,,,,,,,,,,,,,,,,,,
,,,,,58f0fca0d40252000192f201,2025-07-07_23h47.59.212,group3.4_multiperson,2023.2.2,Win32,59.88023952,686c2ebf0248f13bef9af11f,686c940c87096a8196933e10,,,,,,,,,,,,,,,,,,,,,,,,,,,,,285.1961,1,audio/Narrative8Situation4.wav,288.2077,,288.2079,302.3922,"[[999,0],[999,82],[999,166],[999,249],[999,332],[999,416],[999,499],[999,582],[999,667],[999,750],[999,834],[999,916],[999,1000],[67.6,1083],[66,1167],[65.5,1249],[47.1,1666],[46.8,1749],[46.5,1832],[46.3,1917],[46.2,2000],[46.2,2083],[46,2166],[46,2249],[46,2332],[46,2416],[46,2499],[46,2583],[45.3,2666],[44.6,2749],[53.2,2833],[66,2917],[68.6,3000],[68.6,3083],[70.1,3167],[74.3,3249],[78.3,3333],[79.4,3417],[79.6,3499],[79.6,3583],[79.6,3666],[79.6,3750],[79.6,3833],[79.6,3916],[79.6,3999],[79.6,4083],[79.6,4166],[79.6,4249],[79.6,4333],[79.6,4416],[79.6,4500],[79.6,4583],[79.6,4666],[79.6,4749],[79.6,4833],[79.6,4916],[79.6,4999],[79.6,5083],[79.6,5166],[79.6,5249],[79.6,5333],[79.6,5416],[79.6,5500],[79.6,5583],[79.6,5666],[79.6,5749],[79.6,5833],[79.6,5916],[79.6,5999],[79.6,6083],[79.6,6166],[79.6,6250],[79.6,6333],[79.6,6416],[79.6,6500],[79.6,6583],[79.6,6666],[79.6,6750],[79.6,6833],[79.6,6916],[79.6,7000],[83.8,7083],[90.4,7167],[92.5,7250],[93.5,7333],[93.9,7417],[96.7,7500],[100,7583],[100,7666],[100,7749],[100,7833],[100,7916],[100,8000],[100,8083],[100,8166],[100,8250],[100,8333],[100,8416],[100,8500],[100,8583],[100,8666],[100,8750],[100,8833],[100,8916],[100,9000],[100,9083],[100,9166],[100,9250],[100,9333],[100,9417],[100,9500],[100,9583],[100,9666],[100,9750],[100,9832],[100,9916],[100,9999],[100,10083],[100,10166],[100,10250],[100,10333],[100,10416],[100,10500],[100,10583],[100,10666],[100,10750],[100,10833],[100,10916],[100,11000],[100,11083],[100,11166],[100,11250],[100,11333],[100,11416],[100,11500],[100,11583],[100,11667],[100,11750],[100,11833],[100,11917],[100,12000],[100,12083],[100,12167],[100,12250],[100,12333],[100,12417],[100,12500],[100,12583],[100,12667],[100,12750],[100,12833],[100,12917],[100,13000],[100,13084],[100,13166],[100,13250],[100,13333],[100,13417],[100,13500],[100,13584],[100,13667],[100,13750],[100,13834],[100,13917],[100,14000],[100,14084],[100,14167]]",302.3925,307.8587,98.6090776,1.9051,"[{""rating"":98.6090775988287,""responseTime"":1.9050999999046212}]",space,4.9226,,307.859,Partially,50,307.8619,,,[],,0,4,4,4,1,audio/Narrative7Situation4.wav,audio/Narrative8Situation4.wav,audio/Narrative5Situation4.wav,audio/Narrative6Situation4.wav,3,3,1,2,,,,,,,,,,,,,,,,,,,,,,,,,,,,,,,,,,,,,,,
,,,,,58f0fca0d40252000192f201,2025-07-07_23h47.59.212,group3.4_multiperson,2023.2.2,Win32,59.88023952,686c2ebf0248f13bef9af11f,686c940c87096a8196933e10,,,,,,,,,,,,,,,,,,,,,,,,,,,,,307.8622,1,audio/Narrative8Situation5.wav,309.8756,,309.8756,318.1266,"[[97.9,2250],[97.7,2333],[97.7,2416],[97.4,2500],[97.1,2583],[97.1,2666],[97.1,2749],[97.1,2832],[97.1,2916],[97.1,2999],[97.1,3083],[97.1,3166],[97.1,3249],[97.1,3332],[97.1,3416],[97.1,3499],[97.1,3583],[97.1,3667],[97.1,3750],[97.1,3833],[97.1,3917],[97.1,4000],[97.1,4084],[97.1,4167],[97.1,4250],[97.1,4333],[97.1,4417],[97.1,4500],[97.1,4583],[97.1,4667],[97.1,4750],[97.1,4833],[97.1,4916],[97.1,4999],[97.1,5083],[97.1,5167],[97.1,5250],[97.1,5333],[97.1,5416],[97.1,5500],[97.1,5583],[97.1,5667],[97.1,5750],[97.1,5833],[97.1,5917],[97.1,6000],[97.1,6083],[97.1,6167],[97.1,6250],[97.1,6334],[97.1,6416],[97.1,6500],[97.1,6583],[97.1,6667],[97.1,6750],[97.1,6833],[97.1,6917],[97.1,7000],[97.1,7083],[97.1,7167],[97.1,7250],[97.1,7333],[97.1,7417],[97.1,7500],[97.1,7583],[97.1,7667],[97.1,7750],[97.1,7833],[97.1,7917],[97.1,8000],[97.1,8084],[97.1,8167],[97.1,8250]]",318.1268,321.1936,97.87701318,2.5636,"[{""rating"":97.87701317715958,""responseTime"":2.563599999904625}]",space,2.5179,,321.1937,Partially,50,321.1973,,,[],,0,5,5,5,1,audio/Narrative7Situation5.wav,audio/Narrative8Situation5.wav,audio/Narrative5Situation5.wav,audio/Narrative6Situation5.wav,5,2,5,2,,,,,,,,,,,,,,,,,,,,,,,,,,,,,,,,,,,,,,,
,,,,,58f0fca0d40252000192f201,2025-07-07_23h47.59.212,group3.4_multiperson,2023.2.2,Win32,59.88023952,686c2ebf0248f13bef9af11f,686c940c87096a8196933e10,,,,,,,,,,,,,,,,,,,,,,,,,,,,,321.1977,1,audio/Narrative8Situation6.wav,323.21,,323.2102,329.6939,"[[999,0],[999,82],[999,165],[999,249],[999,332],[999,416],[999,499],[999,583],[999,667],[999,750],[999,833],[999,917],[999,1000],[999,1083],[83.5,1167],[86,1250],[86.2,1332],[87.6,1416],[88.8,1500],[94.4,1583],[100,1667],[100,1750],[100,1836],[100,1916],[100,1999],[100,2083],[100,2166],[100,2249],[100,2333],[100,2416],[100,2499],[100,2582],[100,2666],[100,2749],[100,2833],[100,2916],[100,3000],[100,3083],[100,3166],[100,3249],[100,3333],[100,3416],[100,3500],[100,3583],[100,3666],[100,3750],[100,3833],[100,3916],[100,4000],[100,4083],[100,4166],[100,4250],[100,4333],[100,4416],[100,4500],[100,4583],[100,4666],[100,4750],[100,4833],[100,4916],[100,4999],[100,5083],[100,5166],[100,5249],[100,5333],[100,5416],[100,5499],[100,5583],[100,5666],[100,5749],[100,5833],[100,5916],[100,6000],[100,6083],[100,6166],[100,6250],[100,6333],[100,6416]]",329.6944,332.1609,98.31625183,1.656,"[{""rating"":98.31625183016106,""responseTime"":1.656000000000006}]",space,1.9193,,332.1611,Definitely yes,100,332.166,,,[],,0,6,6,6,1,audio/Narrative7Situation6.wav,audio/Narrative8Situation6.wav,audio/Narrative5Situation6.wav,audio/Narrative6Situation6.wav,3,2,3,2,,,,,,,,,,,,,,,,,,,,,,,,,,,,,,,,,,,,,,,
,,,,,58f0fca0d40252000192f201,2025-07-07_23h47.59.212,group3.4_multiperson,2023.2.2,Win32,59.88023952,686c2ebf0248f13bef9af11f,686c940c87096a8196933e10,,,,,,,,,,,,,,,,,,,,,,,,,,,,,332.1664,1,audio/Narrative8Situation7.wav,335.1776,,335.1777,347.2619,"[[89.7,1166],[85.1,1250],[81,1333],[52.6,2250],[53.8,2333],[53.4,2416],[50.9,2499],[50.7,2583],[50.7,2666],[53.4,2750],[58.8,2833],[63.2,2916],[66.1,3000],[70.8,3084],[80.7,3168],[84.7,3250],[84.7,3333],[84.7,3416],[84.7,3499],[84.8,3583],[86.9,3666],[88.9,3750],[91.3,3834],[95.5,3916],[98.2,4000],[98.6,4083],[98.8,4167],[98.8,4250],[98.8,4334],[98.8,4416],[98.8,4499],[98.8,4583],[98.8,4666],[98.8,4750],[98.8,4833],[98.8,4916],[98.8,4999],[98.8,5083],[98.8,5166],[98.8,5250],[98.8,5333],[98.8,5416],[98.8,5500],[98.8,5583],[98.8,5666],[98.8,5749],[98.8,5833],[98.8,5917],[98.8,5999],[98.8,6083],[98.8,6166],[98.8,6250],[98.8,6333],[98.8,6416],[98.8,6500],[98.8,6583],[98.8,6666],[98.8,6749],[98.8,6833],[98.8,6916],[98.8,7000],[98.8,7083],[98.8,7166],[98.8,7250],[98.8,7333],[98.8,7417],[98.8,7500],[98.8,7583],[98.8,7666],[98.8,7750],[98.8,7833],[98.8,7917],[98.8,8000],[98.8,8083],[98.8,8166],[98.8,8250],[98.8,8333],[98.8,8417],[98.8,8500],[98.8,8583],[98.8,8667],[98.8,8750],[98.8,8833],[98.8,8916],[98.8,9000],[98.8,9083],[98.8,9167],[98.8,9251],[98.8,9333],[98.8,9416],[98.8,9500],[98.8,9584],[98.8,9666],[98.8,9750],[98.8,9833],[98.8,9917],[98.8,10000],[98.8,10083],[98.8,10166],[98.8,10250],[98.8,10333],[98.8,10417],[98.8,10500],[98.8,10583],[98.8,10667],[98.8,10750],[98.8,10833],[98.8,10917],[98.8,11000],[98.8,11083],[98.8,11167],[98.8,11250],[98.8,11333],[98.8,11417],[98.8,11500],[98.8,11583],[98.8,11667],[98.8,11750],[98.8,11833],[98.8,11917],[98.8,12000],[98.8,12083]]",347.2622,350.1288,98.16983895,1.6443,"[{""rating"":98.16983894582722,""responseTime"":1.6443000001907535}]",space,2.3228,,350.1289,Definitely yes,100,350.1321,,,[],,0,7,7,7,1,audio/Narrative7Situation7.wav,audio/Narrative8Situation7.wav,audio/Narrative5Situation7.wav,audio/Narrative6Situation7.wav,5,3,4,5,,,,,,,,,,,,,,,,,,,,,,,,,,,,,,,,,,,,,,,
,,,,,58f0fca0d40252000192f201,2025-07-07_23h47.59.212,group3.4_multiperson,2023.2.2,Win32,59.88023952,686c2ebf0248f13bef9af11f,686c940c87096a8196933e10,,,,,,,,,,,,,,,,,,,,,,,,,,,,,350.1324,1,audio/Narrative8Situation8.wav,353.1459,,353.146,366.0135,"[[78,4333],[77.7,4415],[77.7,4499],[77.7,4583],[77.7,4666],[77.7,4749],[77.5,4832],[76.8,4917],[74.2,5000],[64.9,5083],[62.9,5166],[62.6,5249],[62.6,5332],[62.6,5416],[62.6,5499],[68.3,5584],[72.8,5666],[75.2,5749],[80.3,5833],[82.7,5916],[82.8,6000],[82.8,6083],[82.8,6166],[83.8,6249],[85.9,6333],[87,6416],[89.8,6501],[95.1,6584],[100,7416],[100,7500],[100,7582],[100,7666],[100,7749],[100,7833],[100,7916],[100,7999],[100,8083],[100,8166],[100,8249],[100,8333],[100,8416],[100,8499],[100,8583],[100,8666],[100,8750],[100,8833],[100,8916],[100,8999],[100,9083],[100,9166],[100,9249],[100,9333],[100,9416],[100,9499],[100,9583],[100,9666],[100,9749],[100,9833],[100,9916],[100,9999],[100,10083],[100,10166],[100,10249],[100,10333],[100,10416],[100,10499],[100,10583],[100,10666],[100,10749],[100,10833],[100,10916],[100,10999],[100,11083],[100,11166],[100,11249],[100,11333],[100,11416],[100,11499],[100,11583],[100,11667],[100,11749],[100,11833],[100,11916],[100,12000],[100,12083],[100,12166],[100,12249],[100,12333],[100,12416],[100,12499],[100,12583],[100,12666],[100,12750],[100,12833]]",366.0138,370.1465,97.29136164,3.5586,"[{""rating"":97.2913616398243,""responseTime"":3.558600000381489}]",space,3.5844,,370.1467,Definitely yes,100,370.1499,,,[],,0,8,8,8,1,audio/Narrative7Situation8.wav,audio/Narrative8Situation8.wav,audio/Narrative5Situation8.wav,audio/Narrative6Situation8.wav,2,3,3,5,,,,,,,,,,,,,,,,,,,,,,,,,,,,,,,,,,,,,,,
,,,,,58f0fca0d40252000192f201,2025-07-07_23h47.59.212,group3.4_multiperson,2023.2.2,Win32,59.88023952,686c2ebf0248f13bef9af11f,686c940c87096a8196933e10,,,,,,,,,,,,,,,,,,,,,,,,,,,,,370.1503,1,audio/Narrative8Situation9.wav,373.1636,,373.1637,384.4812,"[[90.3,1166],[90.3,1249],[91,1333],[93.5,1416],[95.7,1500],[99.5,1583],[100,1666],[100,1749],[100,1832],[100,1916],[100,1999],[100,2082],[100,2166],[100,2249],[100,2332],[100,2416],[100,2499],[100,2583],[100,2666],[100,2749],[100,2833],[100,2916],[100,2999],[100,3083],[100,3166],[100,3250],[100,3333],[100,3416],[100,3499],[100,3583],[100,3666],[100,3750],[100,3833],[100,3916],[100,3999],[100,4083],[100,4166],[100,4250],[100,4333],[100,4416],[100,4500],[100,4583],[100,4666],[100,4749],[100,4833],[100,4916],[100,5000],[100,5083],[100,5166],[100,5250],[100,5333],[100,5416],[100,5500],[100,5583],[100,5666],[100,5750],[100,5833],[100,5916],[100,6000],[100,6083],[100,6166],[100,6250],[100,6333],[100,6416],[100,6500],[100,6583],[100,6666],[100,6750],[100,6833],[100,6916],[100,7000],[100,7083],[100,7166],[100,7250],[100,7333],[100,7416],[100,7500],[100,7583],[100,7666],[100,7750],[100,7833],[100,7916],[100,8000],[100,8083],[100,8166],[100,8250],[100,8333],[100,8416],[100,8500],[100,8583],[100,8666],[100,8750],[100,8833],[100,8916],[100,9000],[100,9083],[100,9166],[100,9250],[100,9333],[100,9416],[100,9500],[100,9583],[100,9666],[100,9750],[100,9833],[100,9916],[100,10000],[100,10083],[100,10167],[100,10250],[100,10333],[100,10416],[100,10500],[100,10583],[100,10666],[100,10750],[100,10833],[100,10917],[100,11000],[100,11084],[100,11166],[100,11250]]",384.4814,387.1478,99.19472914,1.7592,"[{""rating"":99.19472913616399,""responseTime"":1.7592000002861141}]",space,2.1236,,387.148,Not at all,0,387.1523,,,[],,0,9,9,9,1,audio/Narrative7Situation9.wav,audio/Narrative8Situation9.wav,audio/Narrative5Situation9.wav,audio/Narrative6Situation9.wav,2,3,3,4,,,,,,,,,,,,,,,,,,,,,,,,,,,,,,,,,,,,,,,
,,,,,58f0fca0d40252000192f201,2025-07-07_23h47.59.212,group3.4_multiperson,2023.2.2,Win32,59.88023952,686c2ebf0248f13bef9af11f,686c940c87096a8196933e10,,,,,,,,,,,,,,,,,,,,,,,,,,,,,387.1527,1,audio/Narrative7Situation1.wav,389.1649,,389.1649,445.036,"[[96.3,1250],[81.8,1833],[82.1,1916],[82.1,2000],[82.1,2082],[82.1,2166],[82.1,2249],[82.1,2332],[82.1,2416],[82.1,2499],[82.1,2582],[82.1,2666],[80,2750],[78,2833],[77.8,2916],[77.8,2999],[77.8,3083],[77.8,3166],[78.4,3250],[79,3332],[79.4,3416],[79.4,3499],[79.4,3583],[79.4,3666],[80.3,3750],[80.6,3833],[81.6,3917],[84.8,4000],[89.5,4083],[90.6,4166],[90.7,4249],[90.7,4333],[90.7,4416],[90.7,4499],[90.7,4583],[93.3,4667],[99.9,4750],[99.9,4833],[99.9,4916],[99.6,5000],[99.5,5083],[99.2,5166],[99,5249],[98.9,5333],[98.9,5416],[98.8,5499],[98.6,5583],[98.6,5666],[98.6,5749],[98.6,5833],[98.6,5916],[98.6,6000],[98.6,6083],[98.6,6166],[98.6,6249],[98.6,6333],[98.6,6416],[98.6,6500],[98.6,6582],[98.6,6666],[98.6,6750],[98.6,6833],[98.6,6916],[98.5,6999],[98.5,7083],[98.5,7166],[97.3,7250],[97,7333],[96.7,7416],[96.6,7500],[96.6,7583],[96.6,7666],[96.6,7750],[96.6,7833],[96.6,7916],[96.6,8000],[96.6,8083],[96.6,8166],[96.6,8250],[96.6,8333],[96.6,8417],[96.6,8500],[96.6,8584],[96.6,8666],[96.6,8750],[96.6,8833],[96.6,8917],[96.6,9000],[96.6,9083],[96.6,9166],[96.6,9250],[96.6,9333],[96.6,9417],[96.6,9500],[96.6,9583],[96.6,9666],[96.6,9750],[96.6,9833],[96.6,9917],[96.6,10000],[96.9,10084],[97.1,10166],[97.1,10250],[97.3,10333],[97.3,10416],[97.3,10500],[97.4,10583],[97.4,10666],[97.3,10750],[97.1,10833],[97.1,10916],[97,11000],[97,11083],[97,11166],[97,11250],[97,11333],[97,11417],[97,11500],[97,11583],[97,11666],[97,11750],[97,11833],[97,11916],[97,12000],[97,12083],[97,12166],[97,12250],[97,12333],[97,12416],[97,12500],[97,12583],[97,12667],[97,12750],[97,12833],[97,12916],[97,13000],[97,13083],[97,13167],[97,13250],[97,13333],[97,13416],[97,13500],[97,13583],[97,13666],[97,13750],[97,13833],[97.1,13917],[97.3,14000],[97.7,14084],[98,14167],[98.9,14250],[99.3,14333],[99.5,14416],[99.8,14500],[99.8,14583],[99.8,14666],[99.5,14750],[99.3,14833],[99.3,14917],[99.3,15000],[99.3,15083],[99.3,15167],[99.3,15250],[99.3,15333],[99.3,15417],[99.3,15500],[99.3,15583],[99.3,15667],[99.3,15750],[99.3,15834],[99.3,15917],[99.3,16000],[99.3,16084],[99.3,16166],[99.3,16250],[99.3,16334],[99.3,16417],[99.3,16500],[99.3,16584],[99.3,16667],[99.3,16750],[99.3,16834],[99.3,16916],[99.3,17000],[99.3,17084],[99.3,17167],[99.3,17250],[99.3,17333],[99.3,17417],[99.3,17500],[99.3,17584],[99.3,17667],[99.3,17750],[99.3,17834],[99.3,17917],[99.3,18000],[99.3,18084],[99.3,18167],[99.3,18250],[99.3,18334],[99.3,18417],[99.3,18500],[99.3,18584],[99.3,18667],[99.3,18750],[99.3,18834],[99.3,18917],[99.3,19000],[99.3,19084],[99.3,19167],[99.3,19250],[99.3,19333],[99.3,19417],[99.3,19500],[99.3,19584],[99.3,19667],[99.3,19750],[99.3,19834],[99.3,19917],[99.3,20000],[99.3,20084],[99.3,20167],[99.3,20250],[99.3,20334],[99.3,20417],[99.3,20500],[99.3,20584],[99.3,20667],[99.3,20750],[99.3,20834],[99.3,20917],[99.3,21000],[99.3,21084],[99.3,21167],[99.3,21250],[99.3,21334],[99.3,21417],[99.3,21500],[99.3,21584],[99.3,21667],[97.9,21751],[97.1,21834],[96.9,21917],[96.9,22000],[96.7,22085],[96.1,22168],[95.5,22250],[95.5,22334],[95.5,22417],[95.4,22500],[95.4,22584],[95.4,22667],[95.4,22750],[96.1,22835],[96.9,22918],[97,23001],[97.1,23084],[97.9,23167],[98.5,23251],[98.8,23334],[98.8,23417],[98.8,23500],[98.8,23584],[98.8,23667],[98.8,23750],[98.8,23834],[98.8,23917],[98.8,24000],[98.8,24084],[98.8,24168],[98.8,24251],[98.8,24334],[98.8,24417],[98.8,24500],[98.8,24584],[98.8,24668],[98.8,24750],[98.8,24834],[98.8,24917],[98.8,25000],[98.8,25084],[98.8,25168],[98.8,25251],[98.8,25334],[98.8,25417],[98.8,25500],[98.8,25584],[98.8,25667],[98.8,25750],[98.8,25834],[98.8,25917],[98.8,26000],[98.8,26084],[98.8,26168],[98.8,26251],[98.8,26334],[98.8,26417],[98.8,26500],[98.8,26584],[98.8,26667],[98.8,26750],[98.8,26834],[98.8,26918],[98.8,27001],[98.8,27084],[98.8,27167],[98.8,27251],[98.8,27334],[98.8,27418],[98.8,27500],[98.8,27584],[98.8,27668],[98.8,27751],[98.8,27834],[98.8,27917],[98.8,28001],[98.8,28084],[98.8,28167],[98.8,28251],[98.8,28334],[98.8,28418],[98.8,28501],[98.8,28584],[98.8,28668],[98.8,28751],[98.8,28834],[98.8,28917],[98.8,29001],[98.8,29084],[98.8,29168],[98.8,29251],[98.8,29334],[98.8,29418],[98.8,29501],[98.8,29584],[98.8,29668],[98.8,29751],[98.8,29835],[98.8,29918],[98.8,30001],[98.8,30084],[98.8,30168],[98.8,30251],[98.8,30334],[98.8,30417],[98.8,30501],[98.8,30584],[98.8,30668],[98.8,30751],[98.8,30834],[98.8,30918],[98.8,31001],[98.8,31084],[98.8,31168],[98.8,31251],[98.8,31335],[98.8,31418],[98.8,31501],[98.8,31584],[98.8,31668],[98.8,31751],[98.8,31834],[98.8,31918],[98.8,32001],[98.8,32085],[98.8,32168],[98.8,32251],[98.8,32334],[98.8,32418],[98.8,32501],[98.8,32584],[98.8,32668],[98.8,32751],[98.8,32834],[98.8,32918],[98.8,33001],[98.8,33085],[98.8,33168],[98.8,33251],[98.8,33335],[98.8,33418],[98.8,33501],[98.8,33584],[98.8,33668],[98.8,33752],[98.8,33834],[98.8,33918],[98.8,34001],[98.8,34084],[98.8,34168],[98.8,34251],[98.8,34334],[98.8,34418],[98.8,34502],[98.8,34584],[98.8,34668],[98.8,34751],[98.8,34835],[98.8,34918],[98.8,35001],[98.8,35085],[98.8,35168],[98.8,35251],[98.8,35335],[98.8,35418],[98.8,35502],[98.8,35585],[98.8,35668],[98.8,35752],[98.8,35835],[98.8,35918],[98.8,36001],[98.8,36084],[98.8,36168],[98.8,36251],[98.8,36335],[98.8,36418],[98.8,36501],[98.8,36585],[98.8,36668],[100,36752],[100,36835],[100,36918],[100,37002],[100,37085],[100,37168],[100,37251],[100,37334],[100,37418],[100,37501],[100,37585],[100,37668],[100,37752],[100,37835],[100,37918],[100,38002],[100,38085],[100,38168],[100,38252],[100,38335],[100,38418],[100,38502],[100,38585],[100,38668],[100,38752],[100,38835],[100,38918],[100,39002],[100,39085],[100,39168],[100,39252],[100,39335],[100,39418],[100,39502],[100,39585],[100,39669],[100,39752],[100,39835],[100,39918],[100,40002],[100,40085],[100,40169],[100,40252],[100,40335],[100,40418],[100,40502],[100,40585],[100,40669],[100,40752],[100,40835],[100,40919],[100,41002],[100,41085],[100,41169],[100,41252],[100,41335],[100,41419],[100,41502],[100,41585],[100,41669],[100,41752],[100,41835],[100,41919],[100,42002],[100,42085],[100,42169],[100,42252],[100,42335],[100,42419],[100,42502],[100,42585],[100,42669],[100,42752],[100,42835],[100,42919],[100,43002],[100,43085],[100,43169],[100,43252],[100,43335],[100,43419],[100,43502],[100,43586],[100,43669],[100,43752],[100,43835],[100,43919],[100,44002],[100,44086],[100,44169],[100,44252],[100,44335],[100,44419],[100,44502],[100,44586],[100,44669],[100,44752],[100,44835],[100,44919],[100,45002],[100,45086],[100,45169],[100,45252],[100,45336],[100,45419],[100,45502],[100,45586],[100,45669],[100,45752],[100,45836],[100,45919],[100,46002],[100,46086],[100,46169],[100,46252],[100,46336],[100,46419],[100,46502],[100,46586],[100,46669],[100,46752],[100,46836],[100,46919],[100,47002],[100,47086],[100,47169],[100,47252],[100,47336],[100,47420],[100,47502],[100,47586],[100,47669],[100,47752],[100,47836],[100,47919],[100,48002],[100,48086],[100,48169],[100,48252],[100,48336],[100,48419],[100,48502],[100,48585],[100,48669],[100,48753],[100,48836],[100,48920],[100,49003],[100,49085],[100,49170],[100,49252],[100,49336],[100,49419],[100,49502],[100,49586],[100,49669],[100,49752],[100,49836],[100,49919],[100,50002],[100,50086],[100,50169],[100,50253],[100,50336],[100,50419],[100,50503],[100,50586],[100,50670],[100,50753],[100,50836],[100,50920],[100,51003],[100,51086],[100,51169],[100,51254],[100,51336],[100,51420],[100,51503],[100,51586],[100,51670],[100,51752],[100,51836],[100,51920],[100,52003],[100,52086],[100,52170],[100,52253],[100,52336],[100,52420],[100,52503],[100,52586],[100,52670],[100,52753],[100,52836],[100,52920],[100,53003],[100,53086],[100,53170],[100,53253],[100,53336],[100,53420],[100,53503],[100,53586],[100,53670],[100,53753],[100,53836],[100,53920],[100,54003],[100,54086],[100,54170],[100,54253],[100,54340],[100,54422],[100,54503],[100,54586],[100,54670],[100,54753],[100,54836],[100,54920],[100,55003],[100,55086],[100,55170],[100,55253],[100,55336],[100,55420],[100,55503],[100,55586],[100,55670],[100,55753],[100,55836]]",445.0366,447.4687,99.78038067,1.5548,"[{""rating"":99.78038067349927,""responseTime"":1.5548000001907667}]",space,1.9,,447.4688,Partially,50,447.4735,,,[],,0,10,10,10,1,audio/Narrative8Situation1.wav,audio/Narrative7Situation1.wav,audio/Narrative6Situation1.wav,audio/Narrative5Situation1.wav,5,2,2,5,,,,,,,,,,,,,,,,,,,,,,,,,,,,,,,,,,,,,,,
,,,,,58f0fca0d40252000192f201,2025-07-07_23h47.59.212,group3.4_multiperson,2023.2.2,Win32,59.88023952,686c2ebf0248f13bef9af11f,686c940c87096a8196933e10,,,,,,,,,,,,,,,,,,,,,,,,,,,,,447.4741,1,audio/Narrative7Situation2.wav,450.4854,,450.4855,457.9691,"[[92.2,1250],[83.4,1333],[82.1,1416],[82.1,1499],[82.1,1583],[77.4,2250],[75.3,2333],[80.2,2417],[85.3,2500],[90.1,2583],[94.1,2667],[98,2750],[100,2833],[100,2916],[100,2999],[100,3083],[100,3166],[100,3250],[100,3333],[100,3417],[100,3500],[100,3583],[100,3666],[100,3749],[100,3833],[100,3916],[100,3999],[100,4083],[100,4166],[100,4249],[100,4333],[100,4416],[100,4499],[100,4583],[100,4666],[100,4750],[100,4832],[100,4916],[100,4999],[100,5083],[100,5167],[100,5249],[100,5333],[100,5417],[100,5500],[100,5583],[100,5666],[100,5750],[100,5833],[100,5917],[100,5999],[100,6083],[100,6167],[100,6250],[100,6333],[100,6417],[100,6500],[100,6583],[100,6666],[100,6750],[100,6833],[100,6917],[100,7000],[100,7084],[100,7166],[100,7250],[100,7333],[100,7416]]",457.9692,460.4529,99.19472914,1.9389,"[{""rating"":99.19472913616399,""responseTime"":1.9388999996185134}]",space,1.9349,,460.453,Definitely yes,100,460.4574,,,[],,0,11,11,11,1,audio/Narrative8Situation2.wav,audio/Narrative7Situation2.wav,audio/Narrative6Situation2.wav,audio/Narrative5Situation2.wav,3,3,3,3,,,,,,,,,,,,,,,,,,,,,,,,,,,,,,,,,,,,,,,
,,,,,58f0fca0d40252000192f201,2025-07-07_23h47.59.212,group3.4_multiperson,2023.2.2,Win32,59.88023952,686c2ebf0248f13bef9af11f,686c940c87096a8196933e10,,,,,,,,,,,,,,,,,,,,,,,,,,,,,460.4577,1,audio/Narrative7Situation3.wav,468.4697,,468.4698,477.7206,"[[999,0],[999,83],[999,166],[999,249],[999,333],[999,416],[999,499],[999,583],[999,667],[999,751],[999,834],[999,917],[999,1000],[999,1083],[999,1166],[999,1250],[999,1333],[999,1417],[999,1500],[999,1583],[999,1667],[999,1750],[999,1833],[999,1917],[95.8,2000],[96.3,2084],[97.9,2167],[99,2250],[99.3,2334],[99.6,2417],[100,2500],[100,2583],[100,2666],[100,2749],[100,2833],[100,2917],[100,3000],[100,3083],[100,3167],[100,3250],[100,3333],[100,3417],[100,3500],[100,3583],[100,3666],[100,3750],[100,3833],[100,3917],[100,4000],[100,4083],[100,4167],[100,4250],[100,4333],[100,4416],[100,4500],[100,4583],[100,4666],[100,4749],[100,4833],[100,4916],[100,5000],[100,5083],[100,5167],[100,5250],[100,5333],[100,5417],[100,5500],[100,5584],[100,5666],[100,5750],[100,5833],[100,5916],[100,6000],[100,6083],[100,6167],[100,6250],[100,6333],[100,6417],[100,6500],[100,6584],[100,6667],[100,6750],[100,6834],[100,6917],[100,7000],[100,7083],[100,7167],[100,7250],[100,7333],[100,7417],[100,7500],[100,7584],[100,7666],[100,7750],[100,7834],[100,7917],[100,8000],[100,8084],[100,8167],[100,8250],[100,8334],[100,8417],[100,8500],[100,8584],[100,8667],[100,8750],[100,8833],[100,8917],[100,9000],[100,9084],[100,9167],[100,9250]]",477.7208,480.1877,98.6090776,2.0244,"[{""rating"":98.6090775988287,""responseTime"":2.0244000000953974}]",space,1.9179,,480.1878,Partially,50,480.1924,,,[],,0,12,12,12,1,audio/Narrative8Situation3.wav,audio/Narrative7Situation3.wav,audio/Narrative6Situation3.wav,audio/Narrative5Situation3.wav,4,8,5,3,,,,,,,,,,,,,,,,,,,,,,,,,,,,,,,,,,,,,,,
,,,,,58f0fca0d40252000192f201,2025-07-07_23h47.59.212,group3.4_multiperson,2023.2.2,Win32,59.88023952,686c2ebf0248f13bef9af11f,686c940c87096a8196933e10,,,,,,,,,,,,,,,,,,,,,,,,,,,,,480.1928,1,audio/Narrative7Situation4.wav,483.2047,,483.2049,494.9387,"[[98.5,1249],[98.5,1332],[98.5,1415],[97.1,1500],[92.2,1583],[89.5,1666],[85.6,1750],[68.6,1833],[54.8,1915],[49.6,1999],[49.6,2082],[49.6,2166],[49.6,2249],[49.6,2332],[49.4,2415],[49.3,2500],[49.3,2582],[49.3,2666],[49.3,2749],[56.4,2833],[65.1,2916],[71.7,3000],[74.3,3082],[74.3,3166],[74.3,3249],[74.3,3332],[74.3,3416],[74.3,3500],[74.3,3583],[74.3,3666],[74.3,3749],[74.3,3833],[73.6,3916],[70.6,4000],[68.7,4083],[65.1,4166],[64.6,4249],[64.6,4333],[64.6,4416],[64.6,4499],[64.6,4583],[64.6,4666],[64.5,4750],[59.1,4834],[53.8,4916],[12.1,5333]]",494.939,500.2386,0.366032211,4.9385,"[{""rating"":0.36603221083455484,""responseTime"":4.938499999999976}]",space,4.759,,500.2387,Not at all,0,500.2432,,,[],,0,13,13,13,1,audio/Narrative8Situation4.wav,audio/Narrative7Situation4.wav,audio/Narrative6Situation4.wav,audio/Narrative5Situation4.wav,3,3,2,1,,,,,,,,,,,,,,,,,,,,,,,,,,,,,,,,,,,,,,,
,,,,,58f0fca0d40252000192f201,2025-07-07_23h47.59.212,group3.4_multiperson,2023.2.2,Win32,59.88023952,686c2ebf0248f13bef9af11f,686c940c87096a8196933e10,,,,,,,,,,,,,,,,,,,,,,,,,,,,,500.2436,1,audio/Narrative7Situation5.wav,505.2556,,505.2557,513.7397,"[[999,0],[999,83],[999,166],[999,249],[999,333],[999,416],[999,499],[999,583],[999,667],[999,750],[999,834],[999,916],[999,999],[999,1083],[999,1166],[999,1249],[999,1333],[999,1416],[999,1500],[999,1583],[999,1666],[999,1750],[999,1833],[999,1916],[999,1999],[999,2083],[999,2166],[999,2249],[999,2334],[999,2417],[999,2500],[999,2583],[4.3,2666],[4.3,2749],[4.3,2833],[4.3,2916],[4.3,2999],[4.3,3083],[4.3,3166],[4.3,3249],[5.8,3334],[17.6,3834],[17.3,3916],[17.3,4000],[23.9,4084],[39.8,4168],[53.5,4250],[55,4333],[55,4416],[55,4500],[55,4583],[55.1,4667],[59.7,4750],[63.9,4834],[65.8,4920],[67.7,5000],[69.2,5083],[71.8,5167],[77.2,5250],[78.4,5333],[78.4,5417],[78.4,5500],[78.4,5583],[78.4,5667],[78.4,5750],[78.4,5833],[78.4,5916],[78.4,6000],[78.4,6083],[78.4,6166],[78.4,6250],[78.4,6333],[78.4,6417],[78.4,6500],[78.4,6583],[78.4,6667],[78.4,6750],[78.4,6833],[78.4,6917],[78.4,7000],[78.4,7083],[78.4,7166],[78.4,7250],[78.4,7333],[78.4,7417],[78.4,7500],[78.4,7583],[78.4,7666],[78.4,7750],[78.4,7833],[78.4,7917],[78.4,8000],[78.4,8083],[78.4,8167],[78.4,8250],[78.4,8333],[78.4,8416]]",513.74,524.4739,89.82430454,10.1229,"[{""rating"":86.89604685212299,""responseTime"":2.910199999809265},{""rating"":89.82430453879941,""responseTime"":8.375},{""rating"":89.82430453879941,""responseTime"":8.848999999999933},{""rating"":89.82430453879941,""responseTime"":10.12289999961854}]",space,10.1855,,524.4742,Definitely yes,100,524.4787,,,[],,0,14,14,14,1,audio/Narrative8Situation5.wav,audio/Narrative7Situation5.wav,audio/Narrative6Situation5.wav,audio/Narrative5Situation5.wav,2,5,2,5,,,,,,,,,,,,,,,,,,,,,,,,,,,,,,,,,,,,,,,
,,,,,58f0fca0d40252000192f201,2025-07-07_23h47.59.212,group3.4_multiperson,2023.2.2,Win32,59.88023952,686c2ebf0248f13bef9af11f,686c940c87096a8196933e10,,,,,,,,,,,,,,,,,,,,,,,,,,,,,524.4791,1,audio/Narrative7Situation6.wav,527.4907,,527.4908,537.4753,"[[86,751],[80.3,835],[79.7,917],[80.9,1000],[81,1083],[81,1166],[81,1250],[81,1333],[81,1416],[81,1499],[81,1583],[81,1666],[81,1749],[81,1833],[81,1916],[81,1999],[81,2083],[81,2166],[81,2250],[81,2332],[81,2416],[81,2499],[81,2583],[81,2666],[81,2750],[81,2833],[81,2916],[81,3000],[81,3083],[81,3166],[81,3250],[81,3333],[81,3416],[81,3500],[81,3583],[81,3666],[81,3749],[81,3833],[81,3917],[81,4000],[81,4083],[81,4166],[86,4251],[88.7,4334],[89.5,4416],[91.6,4500],[93,4583],[94.4,4666],[95.5,4750],[97,4832],[97.7,4916],[99.6,5000],[99.8,5082],[99.8,5167],[99.8,5249],[99.8,5333],[99.8,5416],[99.8,5499],[99.8,5583],[99.8,5666],[99.8,5749],[99.8,5833],[99.8,5916],[99.8,5999],[99.8,6082],[99.8,6166],[99.8,6249],[99.8,6333],[99.8,6416],[99.8,6500],[99.8,6583],[99.8,6666],[99.8,6749],[99.8,6833],[99.8,6916],[99.8,7000],[99.8,7083],[99.8,7167],[99.8,7250],[99.8,7333],[99.8,7416],[99.8,7500],[99.8,7583],[99.8,7666],[99.8,7749],[99.8,7834],[99.8,7916],[99.8,7999],[99.8,8082],[99.8,8166],[99.8,8249],[99.8,8333],[99.8,8416],[99.8,8500],[99.8,8583],[99.8,8666],[99.8,8749],[99.8,8833],[99.8,8916],[99.8,8999],[99.8,9083],[99.8,9166],[99.8,9249],[99.8,9333],[99.8,9416],[99.8,9500],[99.8,9583],[99.8,9666],[99.8,9749],[99.8,9834],[99.8,9917]]",537.4757,539.7576,98.75549048,1.2725,"[{""rating"":98.75549048316252,""responseTime"":1.2725000000000364}]",space,1.733,,539.7577,Partially,50,539.7601,,,[],,0,15,15,15,1,audio/Narrative8Situation6.wav,audio/Narrative7Situation6.wav,audio/Narrative6Situation6.wav,audio/Narrative5Situation6.wav,2,3,2,3,,,,,,,,,,,,,,,,,,,,,,,,,,,,,,,,,,,,,,,
,,,,,58f0fca0d40252000192f201,2025-07-07_23h47.59.212,group3.4_multiperson,2023.2.2,Win32,59.88023952,686c2ebf0248f13bef9af11f,686c940c87096a8196933e10,,,,,,,,,,,,,,,,,,,,,,,,,,,,,539.7603,1,audio/Narrative7Situation7.wav,544.7761,,544.7761,561.9434,"[[999,1],[999,82],[999,165],[999,248],[999,331],[96,415],[96.3,498],[96.4,581],[96.4,665],[97.4,749],[100,832],[100,915],[100,1000],[100,1081],[100,1165],[100,1249],[100,1332],[100,1416],[100,1498],[100,1583],[100,1665],[100,1748],[100,1831],[100,1915],[100,1998],[100,2081],[100,2165],[100,2248],[100,2331],[100,2415],[100,2498],[100,2581],[100,2665],[100,2748],[100,2832],[100,2915],[100,2998],[100,3081],[100,3165],[100,3248],[100,3331],[100,3415],[100,3498],[100,3581],[100,3665],[100,3748],[100,3831],[100,3915],[100,3998],[100,4081],[100,4165],[100,4249],[100,4332],[100,4415],[100,4498],[100,4581],[100,4665],[100,4748],[100,4832],[100,4915],[100,4998],[100,5082],[100,5165],[100,5248],[100,5331],[100,5415],[100,5498],[100,5582],[100,5665],[100,5748],[100,5832],[100,5915],[100,5998],[100,6082],[100,6165],[100,6248],[100,6332],[100,6415],[100,6498],[100,6582],[100,6665],[100,6749],[100,6832],[100,6915],[100,6998],[100,7082],[100,7165],[100,7248],[100,7332],[100,7415],[100,7498],[100,7582],[100,7665],[100,7749],[100,7832],[100,7915],[100,7999],[100,8082],[100,8166],[100,8249],[100,8332],[100,8416],[100,8499],[100,8582],[100,8665],[100,8749],[100,8832],[100,8915],[100,8998],[100,9082],[100,9165],[100,9248],[100,9333],[100,9416],[100,9499],[100,9583],[100,9665],[100,9749],[100,9832],[100,9915],[100,9999],[100,10082],[100,10165],[100,10248],[100,10332],[100,10415],[100,10499],[100,10582],[100,10665],[100,10748],[100,10832],[100,10915],[100,10999],[100,11082],[100,11166],[100,11249],[100,11332],[100,11415],[100,11499],[100,11582],[100,11665],[100,11749],[100,11832],[100,11915],[100,11999],[100,12082],[100,12165],[100,12249],[100,12333],[100,12416],[100,12499],[100,12582],[100,12665],[100,12749],[100,12832],[100,12916],[100,12999],[100,13082],[100,13166],[100,13249],[100,13332],[100,13415],[100,13499],[100,13583],[100,13666],[100,13749],[100,13833],[100,13916],[100,13999],[100,14083],[100,14166],[100,14249],[100,14333],[100,14416],[100,14499],[100,14583],[100,14666],[100,14749],[100,14833],[100,14916],[100,14999],[100,15082],[100,15166],[100,15249],[100,15333],[100,15416],[100,15499],[100,15583],[100,15666],[100,15750],[100,15833],[100,15916],[100,15999],[100,16083],[100,16166],[100,16249],[100,16333],[100,16416],[100,16499],[100,16583],[100,16666],[100,16749],[100,16833],[100,16916],[100,16999],[100,17083],[100,17166]]",561.9437,564.4765,99.19472914,1.9329,"[{""rating"":99.19472913616399,""responseTime"":1.932900000095401}]",space,1.9918,,564.4766,Not at all,0,564.4808,,,[],,0,16,16,16,1,audio/Narrative8Situation7.wav,audio/Narrative7Situation7.wav,audio/Narrative6Situation7.wav,audio/Narrative5Situation7.wav,3,5,5,4,,,,,,,,,,,,,,,,,,,,,,,,,,,,,,,,,,,,,,,
,,,,,58f0fca0d40252000192f201,2025-07-07_23h47.59.212,group3.4_multiperson,2023.2.2,Win32,59.88023952,686c2ebf0248f13bef9af11f,686c940c87096a8196933e10,,,,,,,,,,,,,,,,,,,,,,,,,,,,,564.4812,1,audio/Narrative7Situation8.wav,566.4934,,566.4935,576.5276,"[[97.9,5417],[96.6,5500],[96,5584],[96,5666],[96,5750],[97,5833],[97.7,5917],[99,6000],[99.2,6083],[99.2,6166],[99.2,6250],[99.2,6333],[99.2,6416],[99.2,6500],[99.2,6583],[99.2,6667],[99.2,6750],[99.2,6833],[99.2,6916],[99.2,7000],[99.2,7083],[99.2,7167],[99.2,7250],[99.2,7333],[99.2,7417],[99.2,7500],[99.2,7583],[99.2,7666],[99.2,7750],[99.2,7833],[99.2,7917],[99.2,8000],[99.2,8083],[99.2,8166],[99.2,8250],[99.2,8333],[99.2,8417],[99.2,8500],[99.2,8583],[99.2,8667],[99.2,8750],[99.2,8833],[99.2,8917],[99.2,9000],[99.2,9083],[99.2,9167],[99.2,9250],[99.2,9333],[99.2,9417],[99.2,9500],[99.2,9583],[99.2,9667],[99.2,9750],[99.2,9834],[99.2,9917],[99.2,10000]]",576.5278,578.6777,98.16983895,1.6065,"[{""rating"":98.16983894582722,""responseTime"":1.6064999999999827}]",space,1.6025,,578.6779,Definitely yes,100,578.6822,,,[],,0,17,17,17,1,audio/Narrative8Situation8.wav,audio/Narrative7Situation8.wav,audio/Narrative6Situation8.wav,audio/Narrative5Situation8.wav,3,2,5,3,,,,,,,,,,,,,,,,,,,,,,,,,,,,,,,,,,,,,,,
,,,,,58f0fca0d40252000192f201,2025-07-07_23h47.59.212,group3.4_multiperson,2023.2.2,Win32,59.88023952,686c2ebf0248f13bef9af11f,686c940c87096a8196933e10,,,,,,,,,,,,,,,,,,,,,,,,,,,,,578.6826,1,audio/Narrative7Situation9.wav,580.6946,,580.6948,589.3277,"[[98,2416],[97.7,2500],[97.4,2583],[97.3,2666],[97,2750],[97,2832],[97,2915],[97,2999],[97,3083],[97,3166],[97,3249],[97,3333],[97,3416],[97,3499],[97,3583],[97,3666],[97,3749],[97,3833],[97,3916],[97,4000],[97,4083],[97,4166],[97,4250],[97,4333],[97,4416],[97,4499],[97,4583],[97,4666],[97,4749],[97,4832],[97,4916],[97,5000],[97,5083],[97,5166],[97,5250],[97,5332],[97,5416],[97,5500],[97,5583],[97,5666],[97,5750],[97,5833],[97,5916],[97,5999],[97,6083],[97,6166],[97.1,6249],[98.2,6333],[98.6,6416],[99.5,6500],[100,6584],[100,6666],[100,6750],[100,6833],[100,6916],[100,7000],[100,7083],[100,7166],[100,7250],[100,7333],[100,7416],[100,7500],[100,7583],[100,7666],[100,7750],[100,7833],[100,7916],[100,7999],[100,8082],[100,8166],[100,8249],[100,8332],[100,8416],[100,8499],[100,8582]]",589.3278,591.7955,99.4875549,1.7408,"[{""rating"":99.48755490483163,""responseTime"":1.7407999997138859}]",space,1.9428,,591.7955,Definitely yes,100,597.2955,97.43777452,4.8116,"[{""rating"":97.43777452415813,""responseTime"":4.811599999904729}]",space,0,18,18,18,1,audio/Narrative8Situation9.wav,audio/Narrative7Situation9.wav,audio/Narrative6Situation9.wav,audio/Narrative5Situation9.wav,3,2,4,3,,,4.9542,,,,,,,,,,,,,,,,,,,,,,,,,,,,,,,,,,,,
,,,,,58f0fca0d40252000192f201,2025-07-07_23h47.59.212,group3.4_multiperson,2023.2.2,Win32,59.88023952,686c2ebf0248f13bef9af11f,686c940c87096a8196933e10,,,,,,,,,,,,,,,,,,,,,,,,,,,599.9301,602.5126,602.5386,2,audio/Narrative13Situation2.wav,602.5387,,602.5387,632.2815,"[[93.3,1156],[86.9,1240],[85.3,1323],[85.1,1407],[83.1,1490],[65.7,1657],[65.7,1740],[65.7,1823],[65.7,1906],[65.7,1990],[56.1,2074],[51.3,2157],[51.3,2240],[51.3,2323],[51.3,2406],[51.5,2490],[51.6,2573],[52.2,2657],[53.1,2740],[54.2,2824],[54.7,2906],[54.8,2990],[54.8,3073],[54.8,3156],[54.8,3240],[54.8,3323],[54.8,3406],[54.8,3490],[54.8,3573],[54.8,3656],[54.8,3740],[54.8,3823],[54.8,3907],[54.8,3990],[54.8,4073],[54.8,4156],[54.8,4240],[54.8,4324],[54.8,4406],[54.8,4490],[54.8,4574],[54.8,4656],[54.8,4740],[54.8,4824],[54.8,4907],[54.8,4990],[54.8,5074],[54.8,5156],[54.8,5240],[54.7,5323],[54.7,5406],[54.7,5490],[54.7,5573],[54.7,5656],[54.8,5740],[54.8,5823],[54.8,5906],[54.8,5990],[54.8,6073],[54.8,6156],[54.8,6240],[54.8,6323],[54.8,6406],[54.8,6490],[54.8,6573],[54.8,6657],[54.8,6740],[54.8,6824],[54.8,6907],[54.8,6990],[54.8,7074],[54.8,7157],[54.8,7240],[54.8,7324],[54.8,7407],[54.8,7490],[54.8,7574],[54.8,7657],[54.8,7740],[54.8,7824],[54.8,7907],[54.8,7990],[54.8,8074],[54.8,8157],[54.8,8240],[54.8,8324],[54.8,8407],[54.8,8491],[54.8,8574],[54.8,8657],[54.8,8741],[54.8,8824],[54.8,8907],[54.8,8991],[54.8,9074],[54.8,9157],[54.8,9240],[54.8,9323],[54.8,9407],[54.8,9490],[61.6,9574],[67.6,9657],[69.3,9741],[71.1,9824],[75.9,9908],[84.1,9991],[85,10074],[85.1,10157],[85.7,10241],[86.9,10323],[86.9,10406],[86.9,10490],[86.9,10573],[86.9,10656],[86.9,10740],[86.9,10823],[86.9,10907],[86.9,10990],[86.9,11074],[86.9,11157],[86.9,11241],[86.9,11324],[86.9,11407],[86.9,11491],[86.9,11574],[86.9,11657],[86.9,11741],[86.9,11824],[86.9,11907],[86.9,11991],[86.9,12074],[86.9,12157],[86.9,12241],[86.9,12324],[86.9,12407],[86.9,12491],[86.9,12574],[86.9,12657],[86.9,12741],[86.9,12824],[86.9,12907],[86.9,12991],[86.9,13074],[86.9,13157],[87.5,13240],[98,13407],[98.3,13491],[98.8,13574],[99,13657],[99,13741],[99,13824],[99,13908],[99,13991],[99,14074],[99,14157],[99,14241],[99,14324],[99,14408],[99,14491],[99,14574],[99,14657],[99,14741],[99,14824],[99,14908],[99,14991],[99,15074],[99,15158],[99,15241],[99,15324],[99,15407],[99,15490],[99,15574],[99,15658],[99,15741],[99,15824],[99,15907],[99,15991],[99,16074],[99,16158],[99,16241],[99,16324],[99,16407],[99,16491],[99,16574],[99,16658],[97.7,16741],[63.8,16824],[61,16907],[61,16991],[61,17074],[61,17158],[61,17241],[48.7,17324],[41.4,17408],[33.6,17491],[19.7,17575],[19.7,17657],[19.7,17741],[19.7,17824],[19.7,17908],[19.7,17991],[14.7,18075],[14.6,18158],[14.6,18241],[14.6,18324],[14.6,18408],[14.6,18491],[14.6,18574],[14.6,18658],[14.6,18741],[14.6,18825],[14.6,18908],[14.6,18991],[14.6,19075],[14.6,19158],[14.6,19241],[14.6,19324],[14.6,19408],[14.6,19491],[14.6,19575],[14.6,19658],[14.6,19741],[14.6,19824],[14.6,19908],[14.6,19991],[14.6,20074],[14.6,20158],[14.6,20241],[14.6,20324],[14.6,20408],[14.6,20491],[14.6,20574],[14.6,20658],[14.6,20741],[14.6,20825],[14.6,20908],[14.6,20991],[14.6,21075],[14.6,21158],[14.6,21241],[14.6,21325],[14.6,21408],[14.6,21491],[14.6,21575],[14.6,21658],[14.6,21741],[14.6,21825],[14.6,21908],[14.6,21991],[14.6,22075],[14.6,22158],[14.6,22241],[14.6,22325],[14.6,22408],[14.6,22491],[14.6,22575],[14.6,22658],[14.6,22741],[14.6,22825],[14.6,22908],[14.6,22992],[37.4,23159],[41.7,23242],[41.9,23325],[42.2,23408],[43,23492],[43.4,23574],[44.6,23659],[47.4,23742],[49.3,23825],[50.4,23908],[51.2,23992],[51.6,24075],[51.8,24158],[51.8,24241],[51.8,24325],[51.8,24408],[51.8,24491],[51.8,24575],[51.8,24658],[51.8,24741],[51.8,24825],[51.8,24908],[51.8,24991],[51.8,25075],[51.8,25158],[51.8,25241],[51.8,25325],[51.8,25408],[51.8,25492],[51.8,25575],[51.8,25658],[51.8,25741],[51.8,25825],[51.8,25908],[51.8,25991],[41.1,26076],[32,26159],[27.5,26242],[23.2,26325],[23.2,26408],[23.2,26492],[23.2,26575],[23.2,26658],[23.2,26742],[23.2,26825],[23.2,26908],[23.2,26992],[23.2,27075],[23.2,27159],[23.2,27242],[23.2,27325],[23.2,27408],[23.2,27492],[23.2,27575],[23.2,27658],[23.2,27742],[23.2,27825],[23.2,27908],[23.2,27992],[23.2,28075],[23.2,28158],[23.2,28242],[23.2,28325],[23.2,28408],[23.2,28491],[23.2,28575],[23.2,28658],[23.2,28742],[23.2,28825],[23.2,28908],[23.2,28992],[23.2,29075],[23.2,29159],[23.2,29242],[23.2,29325],[23.2,29409],[23.2,29492],[23.2,29575],[23.2,29659],[23.2,29742]]",632.2817,632.2854,,,[],,,,632.2855,Not at all,0,632.2894,,,[],,0,0,0,0,1,audio/Narrative13Situation2.wav,audio/Narrative13Situation2.wav,audio/Narrative13Situation2.wav,audio/Narrative13Situation2.wav,2,2,2,2,,,,,597.2965,599.9296,space,2.1009,,,,,,,,,,,,,,,,,,,,,,,,,,,,,,,
,,,,,58f0fca0d40252000192f201,2025-07-07_23h47.59.212,group3.4_multiperson,2023.2.2,Win32,59.88023952,686c2ebf0248f13bef9af11f,686c940c87096a8196933e10,,,,,,,,,,,,,,,,,,,,,,,,,,,,,632.2899,2,audio/Narrative6Situation1.wav,634.2982,,634.2983,660.8829,"[[28.8,1250],[28.9,1333],[29.1,1416],[29.1,1499],[29.1,1582],[29.1,1666],[29.2,1749],[29.2,1833],[29.2,1916],[29.2,1999],[29.2,2082],[29.2,2166],[29.2,2249],[29.2,2332],[29.2,2416],[29.2,2499],[29.2,2582],[29.2,2666],[29.2,2749],[29.2,2833],[29.2,2916],[29.2,2999],[30.4,3084],[36.7,3167],[39,3250],[39.2,3333],[38.1,3417],[35.2,3500],[31.7,3584],[31.4,3666],[31.4,3749],[31.4,3833],[31.4,3916],[31.4,4000],[31.4,4083],[31.4,4166],[31.4,4249],[31.4,4332],[31.4,4416],[31.4,4499],[31.4,4582],[31.4,4666],[31.4,4749],[31.4,4833],[31.4,4916],[31.4,5000],[31.4,5083],[31.4,5166],[31.4,5250],[31.4,5333],[31.4,5416],[31.4,5499],[76.4,5667],[87.5,5750],[89.1,5833],[89.4,5916],[89.4,6000],[89.1,6083],[88.9,6166],[88.8,6250],[88.8,6333],[88.8,6416],[88.8,6500],[88.8,6583],[88.8,6666],[88.8,6750],[88.8,6833],[88.8,6916],[88.8,7000],[88.8,7083],[88.8,7166],[88.8,7250],[88.8,7333],[88.8,7416],[88.8,7500],[88.8,7583],[88.8,7667],[88.8,7750],[88.8,7833],[88.8,7916],[88.8,8000],[88.8,8083],[88.8,8166],[88.8,8250],[88.8,8333],[88.8,8416],[88.8,8500],[88.8,8583],[88.8,8666],[88.8,8750],[88.8,8833],[88.8,8917],[88.8,9000],[88.8,9083],[88.8,9166],[88.8,9250],[88.8,9333],[88.8,9416],[88.8,9500],[88.8,9583],[88.8,9666],[88.8,9750],[88.8,9833],[88.8,9916],[88.8,10000],[88.8,10083],[88.8,10167],[88.8,10250],[88.8,10333],[88.8,10416],[88.8,10500],[88.8,10583],[88.8,10666],[88.8,10750],[88.8,10833],[88.8,10916],[88.8,11000],[88.8,11083],[88.8,11166],[88.8,11250],[88.8,11333],[83.8,11417],[57.6,11666],[42.8,11750],[38.1,11834],[38.1,11917],[38.1,12000],[38.1,12083],[38.1,12167],[38.1,12250],[38.1,12334],[38.1,12416],[38.1,12500],[38.1,12583],[38.1,12666],[38.1,12750],[38.1,12833],[38.1,12916],[38.1,13000],[38.1,13083],[38.1,13166],[38.1,13250],[38.1,13333],[38.1,13416],[38.1,13500],[38.1,13583],[38.1,13666],[38.1,13750],[38.1,13833],[38.1,13916],[38.1,14000],[38.1,14083],[38.1,14167],[38.1,14250],[38.1,14333],[38.1,14416],[38.1,14500],[38.1,14583],[38.1,14667],[38.1,14750],[38.1,14834],[38.1,14916],[38.1,15000],[38.1,15083],[38.1,15166],[38.1,15250],[38.1,15333],[38.1,15416],[38.1,15500],[38.1,15583],[38.1,15667],[38.1,15750],[38.1,15833],[38.1,15917],[38.1,16000],[38.1,16084],[38.1,16167],[38.1,16250],[38.1,16333],[38.1,16417],[38.1,16500],[38.1,16584],[38.1,16667],[38.1,16750],[38.1,16834],[38.1,16917],[38.1,17000],[38.1,17084],[38.1,17167],[38.1,17250],[38.1,17333],[38.1,17417],[38.1,17500],[38.1,17583],[38.1,17667],[38.1,17750],[38.1,17834],[38.1,17917],[38.1,18000],[38.1,18084],[38.1,18167],[38.1,18250],[38.1,18334],[38.1,18417],[38.1,18500],[38.1,18584],[38.1,18667],[38.1,18750],[38.1,18834],[38.1,18917],[38.1,19000],[38.1,19084],[38.1,19167],[38.1,19251],[38.1,19334],[38.1,19417],[38.1,19500],[38.1,19583],[38.1,19667],[38.1,19750],[38.1,19834],[38.1,19917],[38.1,20000],[38.1,20084],[38.1,20167],[38.1,20250],[38.1,20334],[38.1,20417],[38.1,20500],[38.1,20584],[38.1,20667],[38.1,20750],[38.1,20834],[38.1,20917],[38.1,21001],[42.5,21084],[50.9,21167],[59.1,21250],[65.1,21335],[67.6,21417],[71.4,21501],[77.5,21585],[82.1,21668],[82.2,21751],[82.2,21834],[82.2,21917],[82.2,22000],[82.2,22084],[82.7,22167],[83.2,22251],[83.8,22335],[84.1,22417],[84.7,22501],[85,22584],[85.1,22667],[85.1,22751],[85.1,22834],[85.1,22917],[85.1,23001],[85.1,23084],[85.1,23167],[85.1,23250],[85.1,23334],[85.1,23417],[85.1,23501],[85.1,23584],[85.1,23667],[85.1,23751],[85.1,23834],[85.1,23917],[85.1,24001],[85.1,24084],[85.1,24167],[85.1,24251],[85.1,24334],[85.1,24417],[85.1,24501],[85.1,24584],[85.1,24667],[85.1,24751],[85.1,24834],[89.8,24918],[90.6,25001],[90.7,25084],[90.8,25167],[90.8,25251],[94.9,25334]]",660.8833,666.633,43.26500732,5.4316,"[{""rating"":43.265007320644216,""responseTime"":5.43159999990462}]",space,5.2168,,666.633,Partially,50,666.6359,,,[],,0,1,1,1,1,audio/Narrative7Situation1.wav,audio/Narrative8Situation1.wav,audio/Narrative5Situation1.wav,audio/Narrative6Situation1.wav,2,5,5,2,,,,,,,,,,,,,,,,,,,,,,,,,,,,,,,,,,,,,,,
,,,,,58f0fca0d40252000192f201,2025-07-07_23h47.59.212,group3.4_multiperson,2023.2.2,Win32,59.88023952,686c2ebf0248f13bef9af11f,686c940c87096a8196933e10,,,,,,,,,,,,,,,,,,,,,,,,,,,,,666.6363,2,audio/Narrative6Situation2.wav,669.6502,,669.6503,698.1528,"[[41.9,1750],[40.2,1833],[40,1917],[40,2000],[40,2084],[40,2167],[40,2250],[40,2333],[40,2416],[40,2500],[46.5,2584],[78.7,2667],[89.1,2750],[89.5,2833],[89.2,2917],[89.1,3000],[89.1,3083],[89.1,3166],[89.1,3250],[89.1,3333],[89.1,3416],[89.1,3500],[89.1,3583],[89.1,3666],[89.1,3750],[89.1,3833],[89.1,3916],[89.1,4000],[89.1,4083],[89.1,4167],[89.1,4250],[89.1,4333],[89.1,4417],[89.1,4500],[89.1,4583],[89.1,4667],[89.1,4750],[89.1,4833],[89.1,4916],[89.1,5000],[89.1,5083],[89.1,5167],[89.1,5250],[89.1,5333],[89.1,5417],[89.1,5500],[89.1,5583],[89.1,5667],[89.1,5750],[89.1,5834],[89.1,5916],[89.1,6000],[95.7,6084],[100,13750],[100,13834]]",698.1531,700.3355,97.73060029,1.7546,"[{""rating"":97.73060029282577,""responseTime"":1.754599999904599}]",space,1.6384,,700.3356,Partially,50,700.3383,,,[],,0,2,2,2,1,audio/Narrative7Situation2.wav,audio/Narrative8Situation2.wav,audio/Narrative5Situation2.wav,audio/Narrative6Situation2.wav,3,3,3,3,,,,,,,,,,,,,,,,,,,,,,,,,,,,,,,,,,,,,,,
,,,,,58f0fca0d40252000192f201,2025-07-07_23h47.59.212,group3.4_multiperson,2023.2.2,Win32,59.88023952,686c2ebf0248f13bef9af11f,686c940c87096a8196933e10,,,,,,,,,,,,,,,,,,,,,,,,,,,,,700.3388,2,audio/Narrative6Situation3.wav,705.3531,,705.3532,717.9705,"[[92,3167],[79.7,3416],[79.9,3499],[81.6,4083],[83.8,4167],[85.6,4250],[86.2,4333],[86.2,4416],[86.2,4499],[86.2,4583],[86.2,4666],[86.2,4750],[86.2,4833],[86.2,4916],[86.2,5000],[86.2,5083],[86.2,5166],[86.2,5250],[86.2,5333],[86.2,5416],[86.2,5500],[86.2,5583],[86.2,5666],[86.2,5749],[86.2,5833],[86.2,5916],[86.2,6000],[86.2,6083],[86.2,6166],[86.2,6250],[86.2,6333],[86.2,6416],[86.2,6500],[86.2,6583],[86.2,6666],[86.2,6750],[86.2,6833],[86.2,6916],[86.2,7000],[86.2,7083],[86.2,7166],[86.2,7250],[86.2,7333],[86.2,7416],[86.2,7500],[86.2,7583],[86.2,7666],[86.2,7750],[86.2,7833],[86.2,7916],[86.2,8000],[86.2,8083],[86.2,8166],[86.2,8250],[86.2,8333],[86.2,8417],[86.2,8500],[86.2,8583],[86.2,8667],[86.2,8750],[86.2,8833],[86.2,8917],[86.2,9000],[86.2,9083],[86.2,9167],[86.2,9250],[86.2,9333],[86.2,9416],[86.2,9500],[86.2,9583],[86.2,9667],[86.2,9750],[86.2,9833],[86.2,9917],[86.2,10000],[86.2,10083],[86.2,10167],[86.2,10250],[86.2,10333],[86.2,10417],[86.2,10500],[86.2,10583],[86.2,10667],[86.2,10750],[86.2,10833],[86.2,10917],[86.2,11000],[86.2,11083],[86.2,11166],[86.2,11250],[86.2,11333],[86.2,11417],[86.2,11500],[86.2,11583],[86.2,11666],[86.2,11750],[86.2,11833],[86.2,11916],[86.2,12000],[86.2,12083],[86.2,12167],[86.2,12250],[86.2,12333],[86.2,12417],[86.2,12500],[86.2,12583]]",717.9708,723.4374,91.28843338,2.4887,"[{""rating"":91.28843338213764,""responseTime"":2.488699999809228}]",space,4.919,,723.4376,Partially,50,723.4402,,,[],,0,3,3,3,1,audio/Narrative7Situation3.wav,audio/Narrative8Situation3.wav,audio/Narrative5Situation3.wav,audio/Narrative6Situation3.wav,8,4,3,5,,,,,,,,,,,,,,,,,,,,,,,,,,,,,,,,,,,,,,,
,,,,,58f0fca0d40252000192f201,2025-07-07_23h47.59.212,group3.4_multiperson,2023.2.2,Win32,59.88023952,686c2ebf0248f13bef9af11f,686c940c87096a8196933e10,,,,,,,,,,,,,,,,,,,,,,,,,,,,,723.4406,2,audio/Narrative6Situation4.wav,725.4546,,725.4547,738.0716,"[[999,0],[999,82],[999,166],[999,249],[999,332],[999,416],[999,499],[999,582],[999,666],[999,749],[999,832],[999,916],[999,999],[999,1082],[999,1166],[999,1249],[999,1333],[36.5,2333],[35.1,2415],[35.2,2500],[43.7,2583],[80.5,3333],[83.8,3416],[91.3,3500],[93.6,3583],[93.9,3666],[93.9,3750],[93.9,3832],[93.9,3916],[93.9,3999],[93.9,4083],[93.9,4166],[93.9,4249],[93.9,4333],[93.9,4416],[93.9,4500],[93.9,4583],[93.9,4666],[93.9,4749],[93.9,4832],[93.9,4916],[93.9,4999],[93.9,5083],[93.9,5166],[93.9,5249],[93.9,5333],[93.9,5416],[93.9,5499],[93.9,5583],[93.9,5666],[93.9,5749],[93.9,5833],[93.9,5916],[93.9,5999],[93.9,6082],[93.9,6166],[93.9,6249],[93.9,6332],[93.9,6416],[93.9,6499],[93.9,6583],[93.9,6666],[93.9,6749],[93.9,6833],[93.9,6916],[93.9,6999],[93.9,7083],[93.9,7166],[93.9,7250],[93.9,7333],[93.9,7416],[93.9,7499],[93.9,7583],[93.9,7666],[93.9,7749],[93.9,7833],[93.9,7916],[93.9,7999],[93.9,8083],[93.9,8166],[93.9,8249],[93.9,8333],[93.9,8416],[93.9,8499],[93.9,8583],[93.9,8666],[93.9,8749],[93.9,8833],[93.9,8916],[93.9,8999],[93.9,9083],[93.9,9166],[93.9,9250],[93.9,9333],[93.9,9416],[93.9,9499],[93.9,9583],[93.9,9666],[93.9,9750],[93.9,9833],[93.9,9916],[93.9,10000],[93.9,10083],[93.9,10166],[93.9,10249],[93.9,10333],[93.9,10416],[93.9,10499],[93.9,10583],[93.9,10667],[93.9,10750],[93.9,10833],[93.9,10916],[93.9,11000],[93.9,11083],[93.9,11166],[93.9,11250],[93.9,11333],[93.9,11416],[93.9,11500],[93.9,11583],[93.9,11667],[93.9,11750],[93.9,11833],[93.9,11916],[93.9,12000],[93.9,12083],[93.9,12167],[93.9,12250],[93.9,12333],[93.9,12417],[93.9,12500],[93.9,12583]]",738.0718,748.1393,90.11713031,2.0222,"[{""rating"":90.11713030746706,""responseTime"":2.022199999809345}]",space,9.5194,,748.1395,Not at all,0,748.1443,,,[],,0,4,4,4,1,audio/Narrative7Situation4.wav,audio/Narrative8Situation4.wav,audio/Narrative5Situation4.wav,audio/Narrative6Situation4.wav,3,3,1,2,,,,,,,,,,,,,,,,,,,,,,,,,,,,,,,,,,,,,,,
,,,,,58f0fca0d40252000192f201,2025-07-07_23h47.59.212,group3.4_multiperson,2023.2.2,Win32,59.88023952,686c2ebf0248f13bef9af11f,686c940c87096a8196933e10,,,,,,,,,,,,,,,,,,,,,,,,,,,,,748.1447,2,audio/Narrative6Situation5.wav,750.1556,,750.1556,758.1233,[],758.1236,760.5402,99.34114202,1.7817,"[{""rating"":99.3411420204978,""responseTime"":1.5724000000953993},{""rating"":99.3411420204978,""responseTime"":1.7817000002860368}]",space,1.8782,,760.5403,Definitely yes,100,760.545,,,[],,0,5,5,5,1,audio/Narrative7Situation5.wav,audio/Narrative8Situation5.wav,audio/Narrative5Situation5.wav,audio/Narrative6Situation5.wav,5,2,5,2,,,,,,,,,,,,,,,,,,,,,,,,,,,,,,,,,,,,,,,
,,,,,58f0fca0d40252000192f201,2025-07-07_23h47.59.212,group3.4_multiperson,2023.2.2,Win32,59.88023952,686c2ebf0248f13bef9af11f,686c940c87096a8196933e10,,,,,,,,,,,,,,,,,,,,,,,,,,,,,760.5455,2,audio/Narrative6Situation6.wav,762.5569,,762.5571,773.6411,"[[99,1500],[97.6,1583],[97.4,1666],[97.4,1749],[97.3,1833],[97,1916],[96.7,2000],[96.7,2083],[96.7,2166],[96.7,2249],[96.7,2333],[96.7,2416],[96.7,2499],[96.7,2583],[96.7,2666],[96.7,2749],[96.7,2833],[96.7,2916],[96.7,2999],[96.7,3083],[96.7,3166],[96.7,3250],[96.7,3333],[96.7,3416],[96.7,3499],[96.7,3583],[96.7,3666],[96.7,3749],[96.7,3833],[96.7,3916],[96.7,3999],[96.7,4082],[96.7,4166],[96.7,4250],[96.7,4333],[96.7,4416],[96.7,4499],[96.7,4583],[96.7,4666],[96.7,4750],[96.7,4833],[96.7,4916],[96.7,5000],[96.7,5083],[96.7,5166],[96.7,5250],[96.7,5333],[96.7,5416],[96.7,5500],[96.7,5583],[96.7,5666],[96.7,5750],[96.7,5833],[96.7,5916],[96.7,6000],[96.7,6083],[96.7,6166],[96.7,6250],[96.7,6333],[96.7,6416],[96.7,6500],[96.7,6583],[96.7,6666],[96.7,6750],[96.7,6833],[96.7,6916],[96.7,7000],[96.7,7083],[96.7,7167],[96.7,7250],[96.7,7333],[96.7,7416],[96.7,7499],[96.7,7583],[96.7,7666],[96.7,7750],[100,7833],[100,7916],[100,8000],[100,8083],[100,8166],[100,8250],[100,8333],[100,8416],[100,8500],[100,8583],[100,8667],[100,8750],[100,8833],[100,8917],[100,9000],[100,9083],[100,9167],[100,9250],[100,9333],[100,9417],[100,9500],[100,9583],[100,9667],[100,9750],[100,9833],[100,9917],[100,10000],[100,10083],[100,10167],[100,10250],[100,10333],[100,10417],[100,10500],[100,10583],[100,10667],[100,10750],[100,10833],[100,10917],[100,11000],[100,11083]]",773.6413,776.3592,97.87701318,2.7139,"[{""rating"":97.87701317715958,""responseTime"":2.71390000009535}]",space,0.6678,,776.3593,Definitely yes,100,776.3633,,,[],,0,6,6,6,1,audio/Narrative7Situation6.wav,audio/Narrative8Situation6.wav,audio/Narrative5Situation6.wav,audio/Narrative6Situation6.wav,3,2,3,2,,,,,,,,,,,,,,,,,,,,,,,,,,,,,,,,,,,,,,,
,,,,,58f0fca0d40252000192f201,2025-07-07_23h47.59.212,group3.4_multiperson,2023.2.2,Win32,59.88023952,686c2ebf0248f13bef9af11f,686c940c87096a8196933e10,,,,,,,,,,,,,,,,,,,,,,,,,,,,,776.3642,2,audio/Narrative6Situation7.wav,781.375,space,781.3752,806.243,"[[93.2,3000],[92,3083],[92,3166],[96,3250],[95.5,3334],[91,3416],[89.2,3500],[88.7,3583],[88.9,3666],[89.1,3749],[89.1,3832],[89.1,3915],[89.8,4000],[91.7,4082],[91.9,4166],[91.9,4249],[91.9,4333],[91.7,4416],[91.7,4499],[91.9,4583],[91.9,4666],[91.9,4750],[91.9,4833],[91.9,4916],[91.9,5000],[91.9,5083],[91.9,5166],[48.2,6583],[48.4,6666],[48.4,6749],[48.5,6833],[48.7,6916],[48.7,7000],[58.6,7083],[83.7,7250],[83.7,7333],[83.7,7416],[83.7,7500],[83.7,7583],[85.1,7666],[85.3,7749],[85.7,7833],[85.7,7916],[85.7,7999],[85.7,8083],[85.7,8166],[85.7,8249],[85.7,8332],[85.7,8416],[85.7,8499],[85.7,8583],[85.7,8666],[85.7,8750],[85.7,8833],[85.7,8916],[85.7,9000],[85.7,9083],[85.7,9166],[85.7,9250],[85.7,9333],[85.7,9416],[85.7,9500],[85.7,9583],[85.7,9666],[85.7,9749],[85.7,9833],[85.7,9916],[85.7,9999],[85.7,10083],[85.7,10166],[85.7,10250],[85.7,10333],[85.7,10416],[85.7,10499],[85.7,10583],[85.7,10666],[85.7,10750],[85.7,10833],[85.7,10917],[85.7,11000],[85.7,11083],[85.7,11166],[85.7,11249],[85.7,11333],[85.7,11416],[85.7,11500],[85.7,11583],[85.7,11666],[85.7,11750],[85.7,11833],[85.7,11916],[85.7,12000],[85.7,12083],[85.7,12166],[85.7,12250],[85.7,12333],[85.7,12416],[85.7,12499],[85.7,12583],[85.7,12666],[85.7,12750],[85.7,12833],[85.7,12917],[85.7,13000],[85.7,13084],[85.7,13167],[85.7,13250],[85.7,13333],[85.7,13416],[85.7,13500],[85.7,13583],[85.7,13667],[85.7,13750],[85.7,13834],[85.7,13917],[85.7,14000],[85.7,14083],[85.7,14167],[85.7,14250],[85.7,14333],[85.7,14417],[85.7,14500],[85.7,14583],[85.7,14667],[85.7,14750],[85.7,14833],[85.7,14917],[85.7,15000],[85.7,15083],[85.7,15167],[85.7,15250],[85.7,15333],[85.7,15416],[85.7,15499],[85.7,15583],[85.7,15667],[85.7,15750],[85.7,15833],[85.7,15917],[85.7,16000],[85.7,16083],[85.7,16167],[85.7,16250],[85.7,16333],[85.7,16417],[85.7,16500],[85.7,16583],[85.7,16667],[85.7,16750],[85.7,16833],[85.7,16917],[85.7,17000],[85.7,17083],[85.7,17167],[85.7,17250],[85.7,17333],[85.7,17417],[85.7,17500],[85.7,17583],[85.7,17667],[88.7,17751],[92.8,17834],[95.7,17917],[95.7,18000],[95.7,18083],[95.7,18167],[95.7,18250],[95.7,18334],[95.7,18417],[95.7,18500],[95.7,18584],[95.7,18667],[95.7,18750],[95.7,18834],[95.7,18917],[95.7,19000],[95.7,19084],[95.7,19167],[95.7,19250],[95.7,19334],[95.7,19417],[95.7,19500],[95.7,19584],[95.7,19667],[95.7,19750],[95.7,19833],[95.7,19917],[95.7,20000],[95.7,20084],[95.7,20167],[95.7,20250],[95.7,20333],[95.7,20417],[95.7,20500],[95.7,20584],[95.7,20667],[95.7,20750],[95.7,20834],[95.7,20917],[95.7,21000],[95.7,21084],[95.7,21167],[95.7,21250],[95.7,21334],[95.7,21417],[95.7,21500],[95.7,21584],[95.7,21667],[95.7,21750],[95.7,21834],[95.7,21917],[95.7,22000],[95.7,22084],[95.7,22167],[95.7,22250],[95.7,22334],[95.7,22417],[95.7,22500],[95.7,22584],[95.7,22667],[95.7,22750],[95.7,22834],[95.7,22917],[95.7,23000],[95.7,23084],[95.7,23167],[95.7,23250],[95.7,23334],[95.7,23417],[95.7,23500],[95.7,23584],[95.7,23667],[95.7,23750],[95.7,23834],[95.7,23917],[95.7,24000],[95.7,24084],[95.7,24167],[95.7,24251],[95.7,24334],[95.7,24417],[95.7,24500],[95.7,24584],[95.7,24667],[95.7,24750],[95.7,24834]]",806.2432,808.2937,67.86237189,1.3393,"[{""rating"":67.86237188872622,""responseTime"":1.3393000001907467}]",space,1.5244,,808.2939,Definitely yes,100,808.2971,,,[],,0,7,7,7,1,audio/Narrative7Situation7.wav,audio/Narrative8Situation7.wav,audio/Narrative5Situation7.wav,audio/Narrative6Situation7.wav,5,3,4,5,0.1982,,,,,,,,,,,,,,,,,,,,,,,,,,,,,,,,,,,,,,
,,,,,58f0fca0d40252000192f201,2025-07-07_23h47.59.212,group3.4_multiperson,2023.2.2,Win32,59.88023952,686c2ebf0248f13bef9af11f,686c940c87096a8196933e10,,,,,,,,,,,,,,,,,,,,,,,,,,,,,808.2976,2,audio/Narrative6Situation8.wav,813.3101,,813.3101,820.1777,"[[69,1250],[70.8,1333],[71.7,1417],[72.4,1500],[72.7,1583],[72.7,1666],[72.7,1750],[72.7,1833],[72.7,1916],[72.7,2000],[72.7,2083],[72.7,2166],[72.7,2249],[72.7,2333],[72.7,2417],[30.4,3584],[29.9,3667],[29.9,3750],[29.9,3833],[29.9,3916],[29.9,4000],[29.9,4083],[29.9,4167],[29.9,4250],[29.9,4333],[29.9,4416],[29.9,4500],[29.9,4583],[29.9,4666],[29.9,4750],[29.9,4833],[29.9,4917],[29.9,5000],[29.9,5083],[29.9,5167],[29.9,5250],[29.9,5333],[29.9,5417],[29.9,5500],[29.9,5583],[29.9,5667],[29.9,5750],[29.9,5833],[29.9,5917],[29.9,6000],[29.9,6083],[29.9,6167],[29.9,6250],[29.9,6333],[29.9,6417],[29.9,6500],[29.9,6584],[29.9,6667],[29.9,6750],[29.9,6833]]",820.178,823.761,6.808199122,2.7224,"[{""rating"":6.808199121522696,""responseTime"":2.7224000000953765}]",space,3.0386,,823.7612,Definitely yes,100,823.7648,,,[],,0,8,8,8,1,audio/Narrative7Situation8.wav,audio/Narrative8Situation8.wav,audio/Narrative5Situation8.wav,audio/Narrative6Situation8.wav,2,3,3,5,,,,,,,,,,,,,,,,,,,,,,,,,,,,,,,,,,,,,,,
,,,,,58f0fca0d40252000192f201,2025-07-07_23h47.59.212,group3.4_multiperson,2023.2.2,Win32,59.88023952,686c2ebf0248f13bef9af11f,686c940c87096a8196933e10,,,,,,,,,,,,,,,,,,,,,,,,,,,,,823.7653,2,audio/Narrative6Situation9.wav,827.7778,,827.7779,837.7121,"[[4.2,2500],[4.9,3333],[4.5,3417],[4.2,3500],[5.9,3583],[9.2,3667],[9.7,3750],[9.9,3833],[9.9,3916],[9.9,4000],[9.9,4083],[9.9,4166],[9.9,4250],[9.9,4333],[9.9,4416],[9.9,4500],[9.9,4583],[9.9,4666],[9.9,4750],[9.9,4833],[9.9,4916],[9.9,5000],[9.9,5083],[9.9,5166],[9.9,5250],[9.9,5333],[9.9,5417],[9.9,5499],[9.9,5583],[9.9,5666],[9.9,5750],[9.9,5833],[9.9,5917],[9.9,6000],[9.9,6083],[9.9,6167],[9.9,6250],[9.9,6333],[9.9,6417],[9.9,6500],[9.9,6583],[9.9,6666],[9.9,6750],[9.9,6833],[9.9,6917],[9.9,7000],[9.9,7083],[9.9,7167],[9.9,7250],[9.9,7333],[9.9,7417],[9.9,7500],[9.9,7583],[9.9,7667],[9.9,7750],[9.9,7833],[9.9,7917],[9.9,8000],[9.9,8083],[9.9,8167],[9.9,8250],[9.9,8333],[9.9,8417],[9.9,8500],[9.9,8583],[9.9,8667],[9.9,8750],[9.9,8833],[9.9,8917],[9.9,9000],[9.9,9083],[9.9,9167],[9.9,9250],[9.9,9333],[9.9,9417],[9.9,9500],[9.9,9584],[9.9,9667],[9.9,9750],[9.9,9833],[9.9,9917]]",837.7124,840.1954,3.294289898,1.7713,"[{""rating"":3.2942898975109824,""responseTime"":1.771300000190763}]",space,1.9369,,840.1956,Partially,50,840.2003,,,[],,0,9,9,9,1,audio/Narrative7Situation9.wav,audio/Narrative8Situation9.wav,audio/Narrative5Situation9.wav,audio/Narrative6Situation9.wav,2,3,3,4,,,,,,,,,,,,,,,,,,,,,,,,,,,,,,,,,,,,,,,
,,,,,58f0fca0d40252000192f201,2025-07-07_23h47.59.212,group3.4_multiperson,2023.2.2,Win32,59.88023952,686c2ebf0248f13bef9af11f,686c940c87096a8196933e10,,,,,,,,,,,,,,,,,,,,,,,,,,,,,840.2007,2,audio/Narrative5Situation1.wav,845.2127,space,845.2127,858.4968,"[[999,0],[999,82],[999,166],[999,249],[999,332],[999,416],[999,499],[999,582],[999,667],[999,749],[999,832],[999,916],[999,999],[999,1082],[999,1167],[12.4,1249],[12.1,1332],[12.1,1415],[12.1,1499],[13.4,1583],[51.2,1749],[51.2,1832],[51.2,1916],[51.2,1999],[62.6,2584],[61.9,2666],[61.4,2750],[60.4,2832],[60.4,2916],[60.4,3000],[60.4,3082],[60.4,3166],[60.4,3250],[60.4,3332],[60.4,3416],[60.4,3500],[60.4,3582],[60.4,3666],[60.4,3750],[60.4,3832],[60.4,3916],[60.4,3999],[60.4,4083],[60.4,4166],[60.4,4249],[60.4,4333],[60.4,4416],[60.4,4500],[60.4,4582],[60.4,4666],[60.4,4750],[60.4,4832],[60.4,4916],[60.4,5000],[60.4,5083],[60.4,5166],[60.4,5250],[60.4,5332],[60.4,5416],[60.4,5500],[60.4,5582],[60.4,5666],[60.4,5750],[60.4,5833],[60.4,5916],[60.4,6000],[60.4,6083],[60.4,6166],[60.4,6250],[60.4,6333],[60.4,6416],[60.4,6500],[60.4,6583],[60.4,6666],[60.8,6750],[66.4,6833],[68,6916],[68.3,7000],[68.4,7083],[68.7,7166],[68.9,7250],[68.9,7333],[68.9,7416],[68.9,7499],[68.9,7582],[68.9,7666],[68.9,7749],[68.9,7833],[68.9,7917],[68.9,7999],[68.9,8083],[68.9,8166],[68.9,8249],[68.9,8333],[68.9,8417],[68.9,8500],[68.9,8583],[68.9,8667],[68.9,8750],[68.9,8833],[68.9,8916],[68.9,8999],[68.9,9083],[68.9,9166],[68.9,9250],[68.9,9333],[68.9,9416],[68.9,9500],[75.6,9584],[76.9,9666],[77.2,9750],[77.2,9833],[77.2,9916],[77.2,10000],[77.2,10083],[77.2,10166],[77.2,10250],[77.2,10333],[77.2,10416],[77.2,10500],[77.2,10583],[77.2,10666],[77.2,10750],[77.2,10833],[77.2,10917],[77.2,11000],[77.2,11083],[77.2,11167],[77.2,11250],[77.2,11333],[77.2,11417],[77.2,11500],[77.2,11583],[77.2,11667],[77.2,11750],[77.2,11833],[77.2,11917],[77.2,12000],[77.2,12084],[77.2,12166],[77.2,12250],[77.2,12333],[77.2,12417],[77.2,12500],[77.2,12583],[77.2,12667],[77.2,12750],[77.2,12833],[77.2,12917],[77.2,13000],[77.2,13083],[77.2,13167],[77.2,13250]]",858.497,861.38,80.45387994,2.1794,"[{""rating"":80.45387994143485,""responseTime"":2.17940000009537}]",space,2.334,,861.3801,Not at all,0,861.3845,,,[],,0,10,10,10,1,audio/Narrative8Situation1.wav,audio/Narrative7Situation1.wav,audio/Narrative6Situation1.wav,audio/Narrative5Situation1.wav,5,2,2,5,1.759,,,,,,,,,,,,,,,,,,,,,,,,,,,,,,,,,,,,,,
,,,,,58f0fca0d40252000192f201,2025-07-07_23h47.59.212,group3.4_multiperson,2023.2.2,Win32,59.88023952,686c2ebf0248f13bef9af11f,686c940c87096a8196933e10,,,,,,,,,,,,,,,,,,,,,,,,,,,,,861.3848,2,audio/Narrative5Situation2.wav,864.3971,,864.3972,893.8655,"[[78.7,2166],[76.8,2250],[76.5,2334],[76.5,2416],[76.5,2500],[76.5,2583],[76.8,2666],[78.6,2750],[80.5,2833],[83.2,2916],[84,2999],[84,3083],[84,3166],[84,3250],[84,3333],[84,3416],[84,3500],[84,3583],[84,3666],[84,3750],[84,3833],[84,3917],[84,4000],[84,4083],[84,4166],[84,4250],[84,4333],[84,4416],[84,4500],[84,4583],[84,4667],[84,4750],[84,4833],[84,4916],[84,5000],[84,5083],[84,5167],[84,5250],[84,5333],[84,5417],[84,5500],[84,5583],[84,5666],[84,5750],[84,5833],[84,5917],[84,6000],[84,6083],[84,6167],[84,6250],[84,6333],[84,6416],[84,6500],[84,6583],[84,6666],[84,6750],[84,6833],[84,6917],[84,7000],[84,7083],[84,7167],[84,7250],[84,7333],[84,7417],[84,7499],[84,7584],[84,7667],[84,7750],[84,7833],[84,7917],[84,8000],[84,8083],[84,8167],[84,8250],[84,8333],[84,8416],[84,8500],[84,8583],[84,8666],[84,8749],[84,8833],[84,8916],[84,9000],[84,9083],[84,9166],[84,9249],[84,9333],[84,9417],[84,9500],[84,9584],[84,9667],[84,9750],[84,9833],[84,9917],[84,10000],[83.8,10083],[83.8,10167],[84.3,10250],[84.6,10334],[84.6,10417],[84.8,10500],[85.6,10584],[86.2,10668],[86.7,10751],[87,10834],[87.3,10917],[87.5,11000],[87.9,11084],[88.9,11166],[89.4,11250],[89.5,11333],[90.6,11417],[90.7,11500],[90.7,11584],[90.7,11667],[90.7,11750],[90.7,11834],[90.7,11917],[90.7,12000],[90.7,12083],[90.7,12166],[90.7,12250],[90.7,12334],[90.7,12417],[90.7,12500],[90.7,12584],[90.7,12667],[90.7,12750],[90.7,12834],[90.7,12917],[90.7,13000],[90.7,13084],[90.7,13167],[90.7,13250],[90.7,13334],[90.7,13417],[90.7,13501],[90.7,13584],[90.7,13667],[90.7,13750],[90.8,13834],[90.8,13917],[90.8,14000],[90.8,14084],[90.8,14167],[90.8,14250],[90.8,14334],[90.8,14417],[90.8,14500],[90.8,14584],[90.8,14667],[90.8,14750],[90.8,14834],[90.8,14917],[90.8,15000],[90.8,15084],[90.8,15167],[90.8,15251],[90.8,15333],[90.8,15417],[90.8,15501],[90.8,15584],[90.8,15667],[92.2,15750],[92.3,15834],[92.3,15917],[92.3,16000],[92.3,16084],[92.3,16167],[92.3,16251],[92.3,16334],[92.3,16417],[92.3,16501],[92.3,16584],[92.3,16667],[92.3,16750],[92.3,16834],[92.3,16917],[92.3,17000],[92.3,17084],[92.3,17167],[92.3,17251],[92.3,17334],[92.3,17417],[92.3,17501],[92.3,17584],[92.3,17667],[92.3,17751],[92.3,17834],[92.3,17917],[92.3,18000],[92.3,18084],[92.3,18167],[92.3,18251],[92.3,18334],[92.3,18417],[92.3,18501],[92.3,18584],[92.3,18667],[92.3,18751],[92.3,18834],[92.3,18917],[92.3,19000],[92.3,19084],[92.3,19167],[92.3,19250],[92.3,19334],[92.3,19417],[92.3,19501],[92.3,19584],[92.3,19667],[92.3,19751],[92.3,19834],[92.3,19917],[92.3,20001],[92.3,20084],[92.3,20167],[92.3,20251],[92.3,20334],[94.9,20418],[97.3,20501],[97.6,20584],[97.7,20667],[97.9,20751],[98.3,20834],[98.3,20918],[98.3,21001],[98.3,21084],[98.3,21168],[98.3,21251],[98.3,21334],[98.3,21418],[98.3,21501],[98.3,21584],[98.3,21667],[98.3,21751],[98.3,21834],[98.3,21917],[98.3,22001],[98.3,22084],[98.3,22168],[98.3,22251],[98.3,22334],[98.3,22417],[98.3,22501],[98.3,22584],[98.3,22667],[98.3,22751],[98.3,22834],[98.3,22918],[98.3,23001],[98.3,23084],[98.3,23168],[98.3,23251],[98.3,23334],[98.3,23417],[98.3,23501],[98.3,23584],[98.3,23667],[98.3,23751],[98.3,23834],[98.3,23917],[98.3,24001],[98.3,24084],[98.3,24167],[98.3,24251],[98.3,24335],[98.3,24417],[98.3,24501],[98.3,24584],[98.3,24668],[98.3,24751],[98.3,24834],[98.3,24918],[98.3,25001],[98.3,25085],[98.3,25167],[98.3,25251],[98.3,25335],[98.3,25418],[98.3,25501],[98.3,25585],[98.3,25668],[98.3,25751],[98.3,25835],[98.3,25918],[98.3,26001],[98.3,26085],[98.3,26168],[98.3,26251],[98.3,26335],[98.3,26418],[98.3,26501],[98.3,26585],[98.3,26668],[98.3,26751],[98.3,26835],[98.3,26918],[98.3,27001],[98.3,27085],[98.3,27168],[98.3,27251],[98.3,27335],[98.3,27418],[98.3,27501],[98.3,27585],[98.3,27668],[98.3,27751],[98.3,27835],[98.3,27918],[98.3,28001],[98.3,28085],[98.3,28168],[98.3,28251],[98.3,28335],[98.3,28418],[98.3,28501],[98.3,28585],[98.3,28668],[98.3,28752],[98.3,28835],[98.3,28918],[98.3,29001],[98.3,29085],[98.3,29168],[98.3,29251],[98.3,29335],[98.3,29418]]",893.8657,896.7994,97.73060029,1.9709,"[{""rating"":97.73060029282577,""responseTime"":1.970900000095412}]",space,2.3864,,896.7995,Partially,50,896.8043,,,[],,0,11,11,11,1,audio/Narrative8Situation2.wav,audio/Narrative7Situation2.wav,audio/Narrative6Situation2.wav,audio/Narrative5Situation2.wav,3,3,3,3,,,,,,,,,,,,,,,,,,,,,,,,,,,,,,,,,,,,,,,
,,,,,58f0fca0d40252000192f201,2025-07-07_23h47.59.212,group3.4_multiperson,2023.2.2,Win32,59.88023952,686c2ebf0248f13bef9af11f,686c940c87096a8196933e10,,,,,,,,,,,,,,,,,,,,,,,,,,,,,896.8046,2,audio/Narrative5Situation3.wav,899.816,,899.816,913.734,"[[91.4,2167],[89.4,2250],[89.5,2333],[89.8,2416],[90,2499],[90,2583],[90,2666],[90,2750],[90,2833],[90,2917],[90,3000],[90,3083],[90,3167],[90,3250],[90,3333],[90,3416],[90,3500],[90,3583],[90,3667],[90,3750],[90,3833],[90,3917],[90,4000],[90,4083],[90,4166],[90,4250],[90,4333],[90,4417],[90,4500],[90,4583],[90,4666],[90,4750],[90,4833],[90,4917],[90.1,5000],[96.1,5083],[98.5,5167],[98.8,5250],[98.8,5333],[98.8,5417],[98.8,5500],[98.8,5583],[98.8,5667],[98.8,5750],[98.8,5834],[98.8,5917],[98.8,6000],[98.8,6083],[98.8,6167],[98.8,6250],[98.8,6334],[98.8,6417],[98.8,6500],[98.8,6583],[98.8,6667],[98.8,6750],[98.8,6834],[98.8,6917],[98.8,7000],[98.8,7083],[98.8,7167],[98.8,7250],[98.8,7334],[98.8,7417],[98.8,7500],[98.8,7584],[98.8,7667],[98.8,7750],[98.8,7833],[98.8,7916],[98.8,8000],[98.8,8083],[98.8,8166],[98.8,8250],[98.8,8333],[98.8,8416],[98.8,8500],[98.8,8583],[98.8,8666],[98.8,8750],[98.8,8833],[98.8,8916],[98.8,9000],[98.8,9083],[98.8,9166],[98.8,9250],[98.8,9333],[98.8,9416],[98.8,9500],[98.8,9584],[98.8,9667],[98.8,9750],[98.8,9834],[98.8,9917],[98.8,10001],[98.8,10084],[98.8,10167],[98.8,10250],[98.8,10334],[98.8,10417],[98.8,10500],[98.8,10584],[98.8,10667],[98.8,10750],[98.8,10834],[98.8,10917],[98.8,11000],[98.8,11084],[98.8,11167],[98.8,11250],[98.8,11334],[98.8,11417],[98.8,11500],[98.8,11584],[98.8,11667],[98.8,11751],[98.8,11834],[98.8,11917],[98.8,12000],[98.8,12084],[98.8,12167],[98.8,12251],[98.8,12333],[98.8,12417],[98.8,12500],[98.8,12583],[98.8,12667],[98.8,12750],[98.6,12833],[98.6,12916],[98.6,13000],[98.6,13083],[98.6,13167],[98.6,13250],[98.6,13333],[98.6,13417],[98.6,13500],[98.6,13583],[98.6,13667],[98.6,13750],[98.6,13834],[98.6,13917]]",913.7344,915.7176,99.19472914,0.9991,"[{""rating"":99.19472913616399,""responseTime"":0.9990999999046153}]",space,1.4358,,915.7176,Partially,50,915.7208,,,[],,0,12,12,12,1,audio/Narrative8Situation3.wav,audio/Narrative7Situation3.wav,audio/Narrative6Situation3.wav,audio/Narrative5Situation3.wav,4,8,5,3,,,,,,,,,,,,,,,,,,,,,,,,,,,,,,,,,,,,,,,
,,,,,58f0fca0d40252000192f201,2025-07-07_23h47.59.212,group3.4_multiperson,2023.2.2,Win32,59.88023952,686c2ebf0248f13bef9af11f,686c940c87096a8196933e10,,,,,,,,,,,,,,,,,,,,,,,,,,,,,915.7213,2,audio/Narrative5Situation4.wav,916.734,,916.7341,937.12,"[[92.2,2250],[84.6,2334],[83.5,2416],[82.7,2500],[82.2,2583],[82.2,2666],[82.2,2749],[82.5,2833],[83.4,2917],[83.7,3000],[83.7,3083],[83.7,3166],[83.7,3250],[83.7,3333],[83.7,3417],[83.7,3500],[83.7,3583],[83.7,3667],[83.7,3750],[83.7,3833],[83.7,3916],[83.7,4000],[83.7,4083],[83.7,4167],[83.7,4250],[83.7,4333],[83.7,4417],[83.7,4500],[83.7,4583],[83.7,4667],[83.7,4750],[83.7,4833],[83.7,4917],[83.7,5000],[83.7,5083],[58.9,5167],[46.2,5250],[48.2,5334],[48.5,5417],[50.3,5500],[57.5,5584],[54.4,5916],[24.7,6001],[21.7,6083],[21.7,6167],[21.7,6250],[21.7,6333],[15.3,6416],[11.6,6499],[11.3,6583],[11.3,6667],[11.3,6750],[11.3,6833],[11.3,6917],[11.3,7000],[11.3,7083],[11.3,7167],[11.3,7250],[11.3,7333],[11.3,7417],[11.3,7500],[11.3,7583],[11.3,7666],[11.3,7750],[11.3,7833],[11.3,7917],[11.3,8000],[11.3,8083],[11.3,8167],[11.3,8250],[11.3,8333],[11.3,8417],[11.3,8500],[11.3,8583],[11.3,8667],[11.3,8750],[11.3,8833],[11.3,8917],[11.3,9000],[11.3,9083],[11.3,9167],[11.3,9250],[11.3,9333],[11.3,9417],[11.3,9500],[11.3,9583],[11.3,9667],[11.3,9750],[11.3,9833],[11.3,9917],[11.3,10000],[11.3,10083],[11.3,10167],[11.3,10250],[11.3,10334],[11.3,10417],[11.3,10500],[11.3,10584],[11.3,10667],[11.3,10750],[11.3,10833],[11.3,10917],[11.3,11000],[11.3,11083],[11.3,11167],[11.3,11250],[11.3,11333],[11.3,11417],[11.3,11500],[11.3,11583],[11.3,11667],[11.3,11750],[11.3,11833],[11.3,11917],[11.3,12000],[11.3,12083],[11.3,12167],[11.3,12250],[11.3,12333],[11.3,12417],[11.3,12500],[11.3,12583],[11.3,12667],[11.3,12750],[11.3,12834],[11.3,12917],[11.3,13000],[11.3,13084],[11.3,13167],[11.3,13250],[11.3,13334],[11.3,13417],[11.3,13500],[11.3,13584],[11.3,13667],[11.3,13750],[11.3,13834],[11.3,13917],[11.3,14000],[11.3,14084],[11.3,14167],[11.3,14250],[11.3,14334],[11.3,14417],[11.3,14500],[11.3,14584],[11.3,14667],[11.3,14751],[11.3,14834],[11.3,14917],[11.3,15000],[11.3,15084],[11.3,15167],[11.3,15251],[11.3,15334],[11.3,15417],[11.3,15501],[11.3,15584],[11.3,15667],[11.3,15750],[11.3,15834],[11.3,15917],[11.3,16000],[11.3,16084],[11.3,16167],[11.3,16250],[27.9,16334],[66.1,16834],[68.6,16918],[70.6,17001],[72.8,17084],[74,17168],[76.2,17251],[78.3,17334],[78.3,17417],[78.3,17500],[78.3,17584],[78.3,17668],[78.3,17750],[78.3,17834],[78.3,17917],[78.3,18000],[78.3,18084],[78.3,18168],[78.3,18250],[78.3,18334],[78.3,18417],[78.3,18501],[78.3,18584],[78.3,18668],[78.3,18750],[78.3,18834],[78.3,18918],[78.3,19000],[78.3,19084],[78.3,19168],[78.3,19251],[78.3,19334],[78.3,19417],[78.3,19500],[78.3,19584],[78.3,19668],[78.3,19750],[78.3,19834],[78.3,19918],[78.3,20001],[78.3,20084],[78.3,20167],[78.3,20251],[78.3,20334]]",937.1203,938.9353,61.85944363,1.6759,"[{""rating"":61.85944363103953,""responseTime"":1.6759000000953392}]",space,1.2665,,938.9354,Definitely yes,100,938.9396,,,[],,0,13,13,13,1,audio/Narrative8Situation4.wav,audio/Narrative7Situation4.wav,audio/Narrative6Situation4.wav,audio/Narrative5Situation4.wav,3,3,2,1,,,,,,,,,,,,,,,,,,,,,,,,,,,,,,,,,,,,,,,
,,,,,58f0fca0d40252000192f201,2025-07-07_23h47.59.212,group3.4_multiperson,2023.2.2,Win32,59.88023952,686c2ebf0248f13bef9af11f,686c940c87096a8196933e10,,,,,,,,,,,,,,,,,,,,,,,,,,,,,938.94,2,audio/Narrative5Situation5.wav,943.9527,,943.9527,959.3872,"[[62.3,1583],[62,1666],[61.7,1750],[61.7,1832],[59.1,1916],[29.2,2083],[28.6,2166],[28.6,2249],[28.6,2332],[28.6,2416],[24.8,2500],[20,2583],[15.7,2667],[14.7,2750],[14.6,2833],[13.8,2916],[13.8,2999],[13.8,3083],[13.8,3166],[13.8,3250],[13.8,3333],[13.8,3416],[13.8,3500],[13.8,3583],[13.4,3667],[13.1,3750],[13.1,3833],[13.1,3916],[13.1,4000],[13.1,4083],[13.1,4166],[13.1,4250],[13.1,4333],[13.1,4416],[13.1,4499],[13.1,4583],[13.1,4666],[13.1,4749],[13.1,4833],[13.1,4916],[13.1,4999],[13.1,5083],[13.1,5166],[13.1,5250],[13.1,5333],[13.1,5416],[13.1,5500],[13.1,5583],[13.1,5666],[13.1,5750],[13.1,5833],[13.1,5916],[13.1,6000],[13.1,6083],[13.1,6166],[13.1,6250],[13.1,6333],[13.1,6416],[13.1,6500],[13.1,6583],[13.1,6666],[13.1,6750],[13.1,6833],[13.1,6916],[13.1,7000],[13.1,7083],[13.1,7166],[13.1,7249],[13.1,7333],[13.1,7417],[13.1,7500],[13.1,7583],[13.1,7666],[13.1,7750],[13.1,7833],[13.1,7916],[13.1,8000],[13.1,8083],[11.5,8167],[9.3,8250],[8.6,8334],[8.6,8417],[8.6,8500],[8.6,8583],[8.6,8667],[8.6,8750],[8.6,8833],[8.6,8917],[8.6,9000],[8.6,9083],[8.6,9167],[8.6,9250],[8.6,9333],[8.6,9417],[8.6,9500],[8.6,9583],[8.6,9667],[8.6,9750],[8.6,9833],[8.6,9917],[8.6,10000],[8.6,10083],[8.6,10167],[8.6,10250],[8.6,10333],[8.6,10417],[8.6,10500],[8.6,10583],[8.6,10667],[8.6,10750],[8.6,10833],[8.6,10917],[8.6,11000],[8.6,11083],[8.6,11167],[8.6,11250],[8.6,11334],[8.6,11417],[8.6,11500],[8.6,11583],[8.6,11667],[8.6,11750],[8.6,11833],[8.6,11917],[8.6,12000],[8.6,12084],[8.6,12167],[8.6,12250],[8.6,12333],[8.6,12416],[8.6,12500],[8.6,12583],[8.6,12667],[8.6,12750],[8.6,12833],[8.6,12917],[8.6,13000],[8.6,13083],[8.6,13167],[8.6,13250],[8.6,13334],[8.6,13417],[8.6,13500],[8.6,13583],[8.6,13667],[8.6,13750],[8.6,13834],[8.6,13917],[8.6,14000],[8.6,14083],[8.6,14167],[8.6,14250],[8.6,14334],[8.6,14417],[8.6,14500],[8.6,14584],[8.6,14667],[8.6,14750],[8.6,14834],[8.6,14917],[8.6,15000],[8.6,15084],[8.6,15167],[8.6,15251],[8.6,15334],[8.6,15417]]",959.3875,960.8702,5.05124451,1.2224,"[{""rating"":5.051244509516839,""responseTime"":1.222399999618574}]",space,0.9506,,960.8703,Partially,50,960.8751,,,[],,0,14,14,14,1,audio/Narrative8Situation5.wav,audio/Narrative7Situation5.wav,audio/Narrative6Situation5.wav,audio/Narrative5Situation5.wav,2,5,2,5,,,,,,,,,,,,,,,,,,,,,,,,,,,,,,,,,,,,,,,
,,,,,58f0fca0d40252000192f201,2025-07-07_23h47.59.212,group3.4_multiperson,2023.2.2,Win32,59.88023952,686c2ebf0248f13bef9af11f,686c940c87096a8196933e10,,,,,,,,,,,,,,,,,,,,,,,,,,,,,960.8757,2,audio/Narrative5Situation6.wav,963.8875,,963.8876,969.5714,"[[7.1,2333],[11.3,2417],[11.2,2500],[8.1,2583],[7.8,2666],[7.8,2749],[7.8,2833],[9.9,2917],[19.4,3000],[35.9,3083],[46.6,3166],[50.4,3249],[50.4,3333],[50.4,3416],[50.4,3499],[59.7,3583],[68.2,3666],[68.9,3749],[69.2,3833],[69.6,3916],[71.4,4000],[77.4,4083],[81.3,4167],[81.6,4249],[81.6,4333],[81.6,4416],[81.6,4500],[81.6,4583],[81.6,4666],[81.6,4749],[81.6,4833],[81.6,4916],[81.6,4999],[81.6,5083],[81.6,5166],[81.6,5250],[81.6,5333],[81.6,5416],[81.6,5500],[81.6,5583],[81.6,5666]]",969.5717,971.8213,76.06149341,1.5904,"[{""rating"":76.06149341142022,""responseTime"":1.5904000000954284}]",space,1.7082,,971.8215,Definitely yes,100,971.8261,,,[],,0,15,15,15,1,audio/Narrative8Situation6.wav,audio/Narrative7Situation6.wav,audio/Narrative6Situation6.wav,audio/Narrative5Situation6.wav,2,3,2,3,,,,,,,,,,,,,,,,,,,,,,,,,,,,,,,,,,,,,,,
,,,,,58f0fca0d40252000192f201,2025-07-07_23h47.59.212,group3.4_multiperson,2023.2.2,Win32,59.88023952,686c2ebf0248f13bef9af11f,686c940c87096a8196933e10,,,,,,,,,,,,,,,,,,,,,,,,,,,,,971.8267,2,audio/Narrative5Situation7.wav,975.8382,,975.8383,996.8897,"[[75.8,1416],[68.9,1500],[58.5,1583],[50.3,1667],[49,1749],[48.8,1832],[50,1916],[50.7,1999],[51.9,2082],[53.1,2166],[74.2,2250],[79.1,2332],[79.1,2416],[79.1,2499],[79.1,2582],[79.1,2666],[79.1,2749],[79.1,2833],[79.1,2916],[79.1,2999],[79.1,3083],[79.1,3166],[79.1,3249],[79.1,3333],[79.1,3416],[79.1,3499],[79.1,3583],[79.1,3667],[79.1,3750],[79.1,3833],[79.1,3916],[79.1,4000],[79.1,4083],[79.1,4166],[79.1,4250],[79.1,4333],[79.1,4416],[79.1,4500],[79.1,4582],[79.1,4666],[79.1,4750],[79.1,4833],[79.1,4916],[79.1,4999],[79.1,5083],[79.1,5166],[79.1,5250],[79.1,5333],[79.1,5416],[79.1,5500],[79.1,5583],[79.1,5666],[79.1,5750],[79.1,5833],[79.1,5916],[79.1,6000],[79.1,6083],[79.1,6166],[79.1,6250],[79.1,6333],[79.1,6416],[79.1,6500],[79.1,6583],[79.1,6666],[79.1,6750],[79.1,6833],[79.1,6916],[79.1,6999],[79.1,7083],[79.1,7166],[79.1,7250],[79.1,7333],[79.1,7416],[79.1,7500],[79.1,7583],[79.1,7666],[79.1,7750],[79.1,7833],[79.1,7916],[79.1,7999],[79.1,8083],[79.1,8167],[79.1,8250],[79.1,8333],[79.1,8416],[79.1,8500],[79.1,8583],[79.1,8666],[79.1,8750],[79.1,8833],[79.1,8916],[79.1,9000],[79.1,9083],[79.1,9166],[79.1,9250],[79.1,9334],[79.1,9416],[79.1,9500],[79.1,9583],[79.1,9666],[79.1,9750],[79.1,9833],[79.1,9916],[79.1,10000],[79.1,10083],[79.1,10166],[79.1,10250],[79.1,10334],[79.1,10416],[79.1,10500],[79.1,10584],[79.1,10666],[79.1,10750],[79.1,10833],[79.1,10917],[79.1,11000],[79.1,11083],[79.1,11167],[79.1,11250],[79.1,11333],[79.1,11416],[79.1,11500],[79.1,11584],[79.1,11667],[79.1,11750],[79.1,11834],[79.1,11916],[79.1,12000],[79.1,12084],[79.1,12166],[79.1,12250],[79.1,12334],[79.1,12417],[79.1,12500],[79.1,12584],[79.1,12667],[79.1,12750],[79.1,12833],[79.1,12917],[79.1,13000],[79.1,13084],[79.1,13167],[79.1,13250],[79.1,13333],[79.1,13417],[79.1,13500],[79.1,13584],[79.1,13667],[79.1,13750],[79.1,13833],[79.1,13917],[79.1,14000],[79.1,14083],[79.1,14167],[79.1,14250],[79.1,14334],[79.1,14417],[79.1,14500],[79.1,14584],[79.1,14667],[79.1,14750],[79.1,14834],[79.1,14917],[79.1,15000],[79.1,15084],[79.1,15167],[79.1,15250],[79.1,15334],[79.1,15417],[79.1,15500],[79.1,15584],[79.1,15667],[79.1,15750],[79.1,15834],[79.1,15917],[79.1,16001],[79.1,16084],[79.1,16167],[79.1,16251],[79.1,16334],[79.1,16417],[79.1,16500],[79.1,16584],[79.1,16667],[79.1,16750],[79.1,16834],[79.1,16917],[79.1,17000],[79.1,17084],[79.1,17167],[79.1,17251],[79.1,17334],[79.1,17417],[79.1,17500],[79.1,17584],[79.1,17667],[79.1,17751],[79.1,17834],[79.1,17917],[79.1,18001],[79.1,18084],[79.1,18167],[79.1,18251],[79.1,18334],[79.1,18417],[79.1,18500],[79.1,18584],[79.1,18667],[79.1,18750],[79.1,18834],[79.1,18917],[79.1,19001],[79.1,19084],[79.1,19167],[79.1,19251],[79.1,19334],[79.1,19417],[78,19501],[75.2,19584],[73.9,19668],[73.6,19750],[69.9,19834],[63.8,19918],[62.6,20001],[62.3,20084],[62.3,20167],[62.3,20251],[62,20334],[62,20417],[62,20501],[62,20584],[62,20667],[62,20751],[62,20834],[61.9,20918],[60,21001]]",996.8899,999.0395,53.95314788,1.4717,"[{""rating"":53.95314787701317,""responseTime"":1.4717000002860914}]",space,1.6094,,999.0395,Definitely yes,100,999.0429,,,[],,0,16,16,16,1,audio/Narrative8Situation7.wav,audio/Narrative7Situation7.wav,audio/Narrative6Situation7.wav,audio/Narrative5Situation7.wav,3,5,5,4,,,,,,,,,,,,,,,,,,,,,,,,,,,,,,,,,,,,,,,
,,,,,58f0fca0d40252000192f201,2025-07-07_23h47.59.212,group3.4_multiperson,2023.2.2,Win32,59.88023952,686c2ebf0248f13bef9af11f,686c940c87096a8196933e10,,,,,,,,,,,,,,,,,,,,,,,,,,,,,999.0433,2,audio/Narrative5Situation8.wav,1002.0566,,1002.0566,1010.8742,"[[58.2,5333],[60.1,5417],[60.8,5500],[61.6,5583],[61.9,5667],[62.3,5750],[62.9,5833],[64.1,5917],[64.6,6000],[64.6,6083],[64.6,6167],[64.6,6250],[64.6,6333],[64.6,6416],[64.6,6500],[64.6,6583],[64.6,6667],[64.6,6750],[64.6,6833],[64.6,6917],[64.6,7000],[64.6,7083],[64.6,7167],[64.6,7250],[64.6,7333],[64.6,7417],[64.6,7500],[64.6,7583],[64.6,7667],[64.6,7750],[64.6,7833],[64.6,7917],[64.6,8000],[64.6,8083],[64.6,8167],[64.6,8250],[64.6,8333],[64.6,8417],[64.6,8500],[64.6,8583],[64.6,8667],[64.6,8750]]",1010.8744,1013.1243,65.51976574,1.6707,"[{""rating"":65.51976573938506,""responseTime"":1.6707000002861605}]",space,1.7094,,1013.1244,Partially,50,1013.1289,,,[],,0,17,17,17,1,audio/Narrative8Situation8.wav,audio/Narrative7Situation8.wav,audio/Narrative6Situation8.wav,audio/Narrative5Situation8.wav,3,2,5,3,,,,,,,,,,,,,,,,,,,,,,,,,,,,,,,,,,,,,,,
