consent.started,consent.stopped,consentResponse.keys,consentResponse.rt,consentResponse.duration,participantID,date,expName,psychopyVersion,OS,frameRate,STUDY_ID,SESSION_ID,opening1.started,opening1.stopped,keyEndingOpening1.keys,keyEndingOpening1.rt,keyEndingOpening1.duration,volumeAdjust.started,volumeAdjust.stopped,endingAdjust.keys,endingAdjust.rt,endingAdjust.duration,opening2.started,opening2.stopped,keyEndingOpening.keys,keyEndingOpening.rt,keyEndingOpening.duration,mouse.x,mouse.y,mouse.leftButton,mouse.midButton,mouse.rightButton,mouse.time,instructionLoop.thisRepN,instructionLoop.thisTrialN,instructionLoop.thisN,instructionLoop.thisIndex,instructionLoop.ran,readyForAudio.started,readyForAudio.stopped,fixation.started,run,audio_played,fixation.stopped,endPractice.keys,audioPre.started,audioPre.stopped,continuousResponses_audio,intRating.started,intRating.stopped,intQuestionSlider.response,intQuestionSlider.rt,intQuestionSlider.history,confirmResponse.keys,confirmResponse.rt,confirmResponse.duration,catchQuestion.started,catch_label,catch_value,catchQuestion.stopped,catchQuestionSlider.response,catchQuestionSlider.rt,catchQuestionSlider.history,confirmResponse_2.keys,audioRunLoop.thisRepN,audioRunLoop.thisTrialN,audioRunLoop.thisN,audioRunLoop.thisIndex,audioRunLoop.ran,conditions1_1,conditions2_1,conditions1_2,conditions2_2,dur1_1,dur2_1,dur1_2,dur2_2,endPractice.rt,endPractice.duration,confirmResponse_2.rt,confirmResponse_2.duration,runIntervalBreak.started,runIntervalBreak.stopped,endingBreakKey.keys,endingBreakKey.rt,endingBreakKey.duration,connection.started,connection.stopped,connectionEnding.keys,connectionEnding.rt,connectionEnding.duration,readyForText.started,readyForText.stopped,textPre.started,run_dup,textPre.stopped,continuousResponses_text,textRunLoop.thisRepN,textRunLoop.thisTrialN,textRunLoop.thisN,textRunLoop.thisIndex,textRunLoop.ran,text1_1,text1_2,text2_1,text2_2,runBreakText.started,runBreakText.stopped,endingBreakKey_2.keys,endingBreakKey_2.rt,endingBreakKey_2.duration,ending.started,ending.stopped,endingEnding.keys,endingEnding.rt,endingEnding.duration
0.0007,7.6893,y,7.3574,,59ed2107ae9f950001d848f6,2025-07-07_22h02.23.467,group3.4_multiperson,2023.2.2,Linux x86_64,60.07449237,686c2ebf0248f13bef9af11f,686c7bffd45a59c63b751c75,,,,,,,,,,,,,,,,,,,,,,,,,,,,,,,,,,,,,,,,,,,,,,,,,,,,,,,,,,,,,,,,,,,,,,,,,,,,,,,,,,,,,,,,,,,,,,,,,,,,,,,,
,,,,,59ed2107ae9f950001d848f6,2025-07-07_22h02.23.467,group3.4_multiperson,2023.2.2,Linux x86_64,60.07449237,686c2ebf0248f13bef9af11f,686c7bffd45a59c63b751c75,7.69,18.4351,space,10.6822,,,,,,,,,,,,,,,,,,,,,,,,,,,,,,,,,,,,,,,,,,,,,,,,,,,,,,,,,,,,,,,,,,,,,,,,,,,,,,,,,,,,,,,,,,,,,,,,,,,,
,,,,,59ed2107ae9f950001d848f6,2025-07-07_22h02.23.467,group3.4_multiperson,2023.2.2,Linux x86_64,60.07449237,686c2ebf0248f13bef9af11f,686c7bffd45a59c63b751c75,,,,,,18.4358,51.2093,space,32.4374,,,,,,,,,,,,,,,,,,,,,,,,,,,,,,,,,,,,,,,,,,,,,,,,,,,,,,,,,,,,,,,,,,,,,,,,,,,,,,,,,,,,,,,,,,,,,,,
,,,,,59ed2107ae9f950001d848f6,2025-07-07_22h02.23.467,group3.4_multiperson,2023.2.2,Linux x86_64,60.07449237,686c2ebf0248f13bef9af11f,686c7bffd45a59c63b751c75,,,,,,,,,,,51.2515,62.5123,space,11.2074,,[],[],[],[],[],[],0,0,0,0,1,,,,,,,,,,,,,,,,,,,,,,,,,,,,,,,,,,,,,,,,,,,,,,,,,,,,,,,,,,,,,,,,,,,,,,,,,,,,,,
,,,,,59ed2107ae9f950001d848f6,2025-07-07_22h02.23.467,group3.4_multiperson,2023.2.2,Linux x86_64,60.07449237,686c2ebf0248f13bef9af11f,686c7bffd45a59c63b751c75,,,,,,,,,,,62.5409,94.4564,space,31.6536,,[],[],[],[],[],[],1,0,1,0,1,,,,,,,,,,,,,,,,,,,,,,,,,,,,,,,,,,,,,,,,,,,,,,,,,,,,,,,,,,,,,,,,,,,,,,,,,,,,,,
,,,,,59ed2107ae9f950001d848f6,2025-07-07_22h02.23.467,group3.4_multiperson,2023.2.2,Linux x86_64,60.07449237,686c2ebf0248f13bef9af11f,686c7bffd45a59c63b751c75,,,,,,,,,,,94.4846,129.0799,space,34.461,,[],[],[],[],[],[],2,0,2,0,1,,,,,,,,,,,,,,,,,,,,,,,,,,,,,,,,,,,,,,,,,,,,,,,,,,,,,,,,,,,,,,,,,,,,,,,,,,,,,,
,,,,,59ed2107ae9f950001d848f6,2025-07-07_22h02.23.467,group3.4_multiperson,2023.2.2,Linux x86_64,60.07449237,686c2ebf0248f13bef9af11f,686c7bffd45a59c63b751c75,,,,,,,,,,,129.1077,162.1285,space,32.965,,[],[],[],[],[],[],3,0,3,0,1,,,,,,,,,,,,,,,,,,,,,,,,,,,,,,,,,,,,,,,,,,,,,,,,,,,,,,,,,,,,,,,,,,,,,,,,,,,,,,
,,,,,59ed2107ae9f950001d848f6,2025-07-07_22h02.23.467,group3.4_multiperson,2023.2.2,Linux x86_64,60.07449237,686c2ebf0248f13bef9af11f,686c7bffd45a59c63b751c75,,,,,,,,,,,162.1552,172.746,space,10.5353,,[],[],[],[],[],[],4,0,4,0,1,,,,,,,,,,,,,,,,,,,,,,,,,,,,,,,,,,,,,,,,,,,,,,,,,,,,,,,,,,,,,,,,,,,,,,,,,,,,,,
,,,,,59ed2107ae9f950001d848f6,2025-07-07_22h02.23.467,group3.4_multiperson,2023.2.2,Linux x86_64,60.07449237,686c2ebf0248f13bef9af11f,686c7bffd45a59c63b751c75,,,,,,,,,,,172.7725,189.8783,space,17.0707,,[],[],[],[],[],[],5,0,5,0,1,,,,,,,,,,,,,,,,,,,,,,,,,,,,,,,,,,,,,,,,,,,,,,,,,,,,,,,,,,,,,,,,,,,,,,,,,,,,,,
,,,,,59ed2107ae9f950001d848f6,2025-07-07_22h02.23.467,group3.4_multiperson,2023.2.2,Linux x86_64,60.07449237,686c2ebf0248f13bef9af11f,686c7bffd45a59c63b751c75,,,,,,,,,,,,,,,,,,,,,,,,,,,189.9144,192.4856,192.6055,1,audio/Narrative13Situation2.wav,194.612,,194.6124,224.3698,"[[999,6],[999,221],[999,321],[999,412],[999,512],[999,592],[999,673],[999,752],[999,843],[999,921],[999,1003],[999,1081],[999,1164],[999,1249],[999,1336],[30.8,1451],[30.6,1532],[30.2,1620],[28.7,1703],[28.5,1780],[28.5,1864],[28.8,1949],[28.8,2033],[36.6,2116],[75.1,2718],[75.8,2810],[80,2898],[83.4,2982],[84.6,3069],[84.6,3147],[84.6,3229],[84.5,3314],[84.4,3396],[84.4,3501],[84.4,3581],[84.3,3665],[84.1,3764],[84,3848],[84,3928],[84,4011],[84.1,4102],[84.1,4197],[84.2,4286],[87.4,4414],[88.2,4511],[88.2,4596],[88.3,4678],[88.9,4766],[90.1,4853],[90.4,4930],[90.5,5010],[91.2,5094],[92.4,5191],[93,5273],[93,5353],[93.2,5429],[93.4,5513],[94,5594],[94.1,5676],[94.2,5759],[94.1,5846],[94,5931],[94,6010],[93.9,6095],[93.6,6176],[93.2,6264],[93,6342],[92.7,6426],[92,6509],[91.6,6596],[91.4,6679],[91,6760],[89.6,6854],[89.3,6932],[89.3,7008],[89.2,7091],[89.2,7176],[89.2,7259],[89.3,7345],[89.3,7430],[89.7,7517],[90.2,7603],[94.9,8179],[93.2,8258],[90.6,8344],[90.2,8524],[89.7,8607],[83.2,8709],[82.3,8793],[82.5,8873],[98.2,9480],[97.2,9563],[97.2,9651],[98.5,9748],[99.4,9832],[99.6,9911],[99.9,9993],[99.9,10073],[99.9,10156],[99.9,10238],[99.9,10323],[99.9,10406],[99.9,10488],[99.9,10571],[99.9,10656],[99.9,10741],[99.9,10821],[99.9,10906],[99.9,10989],[99.8,11071],[99.8,11154],[99.7,11238],[99.6,11323],[99,11421],[98.5,11510],[98.5,11592],[98.5,11671],[98.4,11756],[98.4,11838],[98.1,11953],[98.1,12037],[98,12138],[98,12223],[98,12306],[98.1,12387],[98.1,12469],[98.1,12552],[98.1,12643],[98.1,12722],[98.4,12803],[98.4,12891],[98.6,12970],[98.6,13056],[98.6,13137],[98.6,13223],[98.6,13302],[98.4,13386],[96.9,13469],[91.4,13571],[91.3,13652],[91.1,13738],[91,13820],[91.2,13920],[91.4,14001],[91.9,14087],[92.6,14177],[94.1,14257],[94.7,14339],[95.4,14428],[96.4,14513],[97.2,14600],[98.4,14711],[99.4,14790],[99.8,14876],[99.8,14954],[99.8,15036],[99.8,15120],[99.8,15200],[99.8,15287],[99.8,15367],[99.7,15451],[99.7,15533],[99.5,15617],[99.4,15705],[99.4,15784],[99.4,15866],[93.9,15956],[89,16048],[88.1,16128],[85.1,16207],[69.4,16300],[67.3,16384],[67.1,16468],[65.1,16555],[55.4,16636],[54.3,16716],[53.9,16808],[52.7,16893],[52.3,16971],[51.2,17062],[50.2,17151],[49.4,17233],[48.9,17328],[45.3,17428],[44.1,17532],[42.9,17620],[40.5,17708],[40.1,17792],[32.2,17879],[29.5,17964],[29.2,18047],[26.4,18132],[21.8,18218],[21.6,18309],[17.5,18388],[17.4,18463],[16.3,18549],[15.8,18635],[14.4,18728],[14.3,18813],[14.3,18896],[14.3,18985],[14.5,19098],[15.3,19194],[20.8,19292],[43.3,19391],[55.7,19490],[56.2,19578],[57.3,19671],[57.3,19763],[53.8,19859],[39.7,19960],[39.8,20048],[35.2,20177],[34.2,20278],[44.1,20401],[46.4,20517],[48.9,20649],[51.9,20788],[51.7,20923],[51.5,21052],[51.4,21131],[51.4,21210],[51.4,21296],[51.4,21382],[51.4,21466],[51.2,21552],[51.2,21652],[51.2,21762],[51.1,21864],[50.8,21981],[54.6,22090],[58.9,22216],[61,22350],[68.1,22480],[70.1,22578],[70.7,22660],[72.1,22754],[72.7,22844],[74.5,22933],[77.5,23044],[79.8,23163],[80,23269],[79.9,23375],[79.9,23495],[79.9,23578],[80,23659],[80.4,23755],[80.5,23831],[80.5,23917],[80.5,24008],[80.6,24078],[81.6,24168],[81.7,24251],[83.4,24333],[85.7,24426],[85.9,24511],[86.1,24598],[87.5,24707],[89.1,24847],[90.3,24968],[91.3,25101],[93.1,25230],[94.2,25364],[94.3,25490],[94.3,25575],[94.3,25658],[94.3,25740],[94.3,25822],[94.6,25923],[94.6,26061],[95.3,26150],[95.8,26236],[96.8,26321],[96.8,26400],[96.9,26495],[96.9,26597],[96.9,26708],[96.8,26817],[96.8,26918],[96.7,27034],[96.6,27113],[96.4,27191],[96.3,27273],[96.2,27359],[95.9,27441],[95.5,27531],[93.2,27627],[92,27723],[90.6,27810],[89.7,27910],[88.5,28036],[86.9,28174],[81.5,28307],[77.5,28439],[74.4,28572],[71.1,28711],[69.6,28851],[69.2,28983],[69.1,29110],[69.1,29238],[69.1,29391],[69.1,29494],[69.1,29571],[69.1,29656],[69.1,29737]]",224.3709,232.8332,90.96739007,4.7986,"[{""rating"":90.96739007263461,""responseTime"":4.7986000000015}]",space,7.9127,,232.8585,Definitely yes,100,232.8681,,,[],,0,0,0,0,1,audio/Narrative13Situation2.wav,audio/Narrative13Situation2.wav,audio/Narrative13Situation2.wav,audio/Narrative13Situation2.wav,2,2,2,2,,,,,,,,,,,,,,,,,,,,,,,,,,,,,,,,,,,,,,,
,,,,,59ed2107ae9f950001d848f6,2025-07-07_22h02.23.467,group3.4_multiperson,2023.2.2,Linux x86_64,60.07449237,686c2ebf0248f13bef9af11f,686c7bffd45a59c63b751c75,,,,,,,,,,,,,,,,,,,,,,,,,,,,,232.8706,1,audio/Narrative7Situation1.wav,234.6472,space,234.6474,290.5393,"[[999,3],[999,127],[999,236],[999,347],[999,457],[999,567],[999,685],[999,804],[54,927],[54.3,1039],[54.4,1165],[54.3,1239],[54.2,1322],[54.3,1406],[54.3,1515],[54.4,1623],[59.6,1755],[65.2,1837],[67.6,1934],[71.3,2022],[72.7,2109],[75.1,2219],[75.4,2353],[76.4,2439],[77.4,2526],[77.7,2605],[77.7,2687],[77.7,2782],[80.6,2897],[81.1,3004],[82.8,3123],[85.2,3237],[88.4,3358],[88.9,3485],[89.3,3605],[90.3,3738],[90.3,3854],[91.7,3954],[92.6,4037],[93.7,4121],[94.8,4210],[95.7,4321],[95.6,4424],[95.6,4526],[95.6,4632],[95.6,4739],[95.5,4840],[95.5,4952],[95.5,5055],[95.5,5157],[95.3,5260],[95.2,5363],[95.2,5472],[95,5576],[94.6,5685],[93,5801],[88.9,5916],[86.2,6033],[84.7,6161],[82.9,6290],[82.7,6406],[82.7,6528],[82.7,6642],[82.7,6754],[82.8,6837],[82.9,6917],[82.8,7002],[56.7,7711],[56.2,7803],[56.5,7921],[74.8,8034],[85.1,8162],[86.5,8281],[91.9,8410],[93.3,8536],[94.8,8658],[96.1,8788],[98.2,8923],[99.3,9050],[100,9176],[100,9295],[100,9403],[100,9481],[100,9564],[100,9647],[100,9732],[100,9813],[100,9897],[100,9981],[100,10067],[100,10149],[100,10236],[100,10322],[100,10405],[100,10504],[100,10591],[100,10690],[100,10782],[100,10872],[100,10965],[99.9,11058],[99.5,11171],[98.2,11282],[97.3,11399],[97.3,11527],[97.4,11607],[97.6,11689],[97.7,11772],[97.8,11847],[98.1,11932],[99.1,12016],[100,12108],[100,12200],[100,12315],[100,12442],[100,12565],[100,12705],[100,12813],[100,12894],[100,12979],[100,13063],[100,13190],[100,13286],[100,13392],[100,13496],[100,13600],[100,13708],[100,13816],[100,13920],[100,14024],[100,14131],[100,14247],[100,14351],[99.3,14470],[98.8,14585],[94.7,14705],[90.4,14832],[89.9,14951],[89.7,15065],[89.4,15182],[89.2,15302],[89.6,15447],[90.6,15572],[92.3,15715],[94,15848],[95.5,15987],[96.6,16103],[96.8,16179],[96.7,16264],[94.1,16350],[91.7,16439],[88.2,16551],[84.9,16684],[78.1,16765],[75,16851],[71.8,16934],[68.3,17017],[67.8,17102],[61.4,17190],[58.5,17283],[57.9,17373],[50.7,17501],[40.1,17630],[33.2,17754],[29.3,17881],[11.9,18013],[11.9,18137],[11.2,18224],[11.1,18306],[10.8,18389],[5.1,18481],[1.5,18579],[1.2,18695],[0.4,18804],[0.6,18918],[0.7,19026],[0.8,19138],[0.8,19247],[0.8,19352],[0.8,19456],[1.1,19551],[1.9,19635],[2.4,19718],[6.3,19805],[9.4,19897],[12.2,20006],[23.1,20125],[34,20248],[49.5,20374],[52.4,20503],[53.8,20629],[54.9,20757],[55.2,20879],[55.5,21006],[55.7,21128],[58.4,21264],[59,21392],[65.7,21528],[66.4,21644],[67.6,21728],[68,21811],[68,21889],[68.1,21968],[68.2,22054],[69.1,22139],[69.3,22224],[70.2,22324],[72.2,22466],[74.4,22627],[74.9,22719],[75.6,22803],[76.8,22889],[77.1,22969],[78.5,23064],[79,23203],[79.1,23291],[79.1,23368],[79.1,23457],[79.2,23539],[79.2,23617],[79.2,23719],[80.5,23803],[84.5,23889],[86.8,23976],[89.7,24065],[90,24156],[91.5,24270],[93,24383],[93.9,24498],[94.7,24621],[95.7,24760],[96.8,24889],[98,25011],[99.2,25139],[99.7,25258],[99.7,25378],[99.7,25454],[99.7,25534],[99.7,25618],[99.7,25702],[99.5,25781],[98.6,25875],[89.5,25995],[75.1,26107],[62.6,26221],[60.5,26342],[55,26498],[52.1,26610],[51.8,26695],[51.6,26772],[52.1,26856],[57.2,26952],[60.3,27067],[64.3,27195],[69.3,27309],[70.6,27392],[72.7,27482],[72.9,27566],[73.9,27694],[74,27805],[74,27880],[74,27964],[74,28048],[74,28129],[74,28214],[73,28311],[68.9,28426],[64,28543],[61.2,28683],[59,28817],[50.3,28908],[50.4,28987],[50.5,29065],[50.3,29150],[50.4,29232],[50.4,29314],[50.4,29397],[50.4,29480],[50.4,29563],[50.5,29646],[50.8,29736],[55.9,29826],[64.1,29917],[70,30006],[72,30108],[76.3,30209],[81.5,30312],[84.7,30451],[86.1,30546],[86.8,30629],[87.3,30725],[87.9,30813],[88.6,30910],[89.8,31047],[90.8,31133],[91.4,31214],[92,31294],[92.5,31383],[92.8,31469],[92.8,31568],[92.8,31643],[92.8,31728],[92.8,31810],[93.2,31917],[93.2,32013],[93.2,32116],[93.2,32216],[93.1,32328],[93,32431],[93,32536],[92.9,32641],[93.1,32751],[93.2,32845],[93.5,32926],[94.1,33013],[94.6,33100],[94.8,33184],[96.1,33274],[97.5,33369],[97.8,33461],[98.8,33564],[99.5,33672],[100,33782],[100,33882],[100,33957],[100,34039],[100,34127],[100,34206],[100,34292],[100,34379],[100,34468],[100,34552],[100,34635],[100,34734],[100,34822],[100,34917],[100,35004],[100,35101],[100,35189],[100,35284],[100,35383],[100,35477],[100,35570],[100,35672],[100,35773],[100,35870],[100,35973],[98.7,36078],[92.4,36191],[92.4,36296],[92.4,36423],[92.4,36583],[92.4,36740],[92.5,36892],[93.1,37054],[94.8,37215],[95.6,37301],[99.4,37392],[100,37478],[100,37563],[100,37652],[100,37739],[100,37823],[100,37907],[100,37989],[100,38073],[100,38158],[100,38276],[100,38374],[100,38457],[100,38553],[100,38641],[100,38726],[100,38820],[100,38908],[100,39000],[100,39091],[100,39175],[100,39264],[100,39361],[100,39455],[100,39540],[100,39633],[100,39721],[100,39821],[100,39917],[100,40006],[100,40103],[100,40197],[100,40289],[100,40384],[100,40479],[100,40576],[100,40675],[99.6,40797],[98.4,40906],[97,41023],[96.5,41157],[96.4,41286],[96.8,41424],[97.5,41553],[98.6,41690],[99.2,41823],[99.5,41905],[99.7,41988],[100,42074],[100,42158],[100,42241],[100,42344],[100,42450],[100,42556],[100,42659],[100,42762],[100,42862],[100,42957],[100,43078],[100,43148],[100,43235],[100,43317],[100,43397],[100,43482],[100,43564],[100,43646],[100,43732],[100,43821],[100,43919],[100,44008],[100,44097],[100,44188],[100,44278],[100,44372],[100,44460],[100,44548],[100,44639],[100,44732],[100,44816],[100,44909],[100,44999],[100,45090],[100,45179],[100,45272],[100,45364],[100,45454],[100,45543],[100,45634],[100,45725],[100,45817],[100,45914],[100,46007],[100,46097],[100,46186],[100,46262],[100,46347],[100,46427],[100,46513],[97.9,46627],[97.5,46719],[97.4,46829],[97.4,46932],[97.5,47035],[97.8,47146],[97.8,47257],[97.8,47371],[98.1,47482],[99,47599],[99.5,47715],[99.7,47822],[99.8,47933],[99.8,48035],[99.8,48113],[99.8,48192],[99.8,48275],[99.8,48362],[99.8,48455],[99.8,48561],[99.8,48667],[99.7,48770],[99.7,48878],[99.7,48984],[99.7,49094],[99.7,49198],[99.7,49304],[99.7,49413],[99.5,49518],[99.5,49625],[96.5,49733],[95.3,49842],[94.2,49951],[93.9,50056],[94.8,50168],[97.3,50278],[98.6,50397],[98.9,50515],[98.9,50631],[99,50744],[99,50857],[99.2,50974],[99.5,51087],[100,51204],[100,51321],[100,51439],[100,51551],[100,51668],[100,51783],[100,51864],[100,51939],[100,52023],[100,52104],[100,52188],[100,52271],[100,52354],[100,52442],[100,52525],[100,52604],[100,52689],[100,52774],[100,52854],[100,52941],[100,53021],[100,53104],[100,53190],[100,53271],[100,53354],[100,53442],[100,53524],[100,53614],[100,53699],[100,53786],[100,53884],[100,53971],[100,54056],[99.1,54159],[98.4,54254],[97.4,54357],[97.3,54453],[97.3,54541],[97.4,54627],[97.6,54725],[97.7,54822],[97.8,54910],[98.2,55004],[98.6,55102],[99.2,55204],[99.3,55309],[99.3,55407],[99.3,55508],[99.3,55611],[99.3,55708],[99.4,55806]]",290.54,295.0619,97.41793477,3.5662,"[{""rating"":97.41793476712199,""responseTime"":3.566199999995547}]",space,3.972,,295.0621,Partially,50,295.0732,,,[],,0,1,1,1,1,audio/Narrative7Situation1.wav,audio/Narrative8Situation1.wav,audio/Narrative5Situation1.wav,audio/Narrative6Situation1.wav,2,5,5,2,1.7467,,,,,,,,,,,,,,,,,,,,,,,,,,,,,,,,,,,,,,
,,,,,59ed2107ae9f950001d848f6,2025-07-07_22h02.23.467,group3.4_multiperson,2023.2.2,Linux x86_64,60.07449237,686c2ebf0248f13bef9af11f,686c7bffd45a59c63b751c75,,,,,,,,,,,,,,,,,,,,,,,,,,,,,295.074,1,audio/Narrative7Situation2.wav,298.0791,,298.0792,305.5633,"[[27,131],[27.1,231],[27.6,331],[27.7,422],[27.8,519],[28,617],[28,723],[29.3,834],[38.6,947],[49.2,1058],[48.5,1168],[49.6,1277],[49.6,1381],[49.6,1467],[49.6,1544],[49.3,1627],[49.4,1717],[64.9,1816],[66.8,1903],[73.7,2002],[76.5,2098],[76.5,2182],[76.7,2281],[77.9,2387],[79.3,2495],[80.3,2610],[83.4,2723],[85.5,2836],[87.9,2963],[92.1,3098],[93.9,3235],[95.5,3365],[98,3518],[100,3622],[100,3701],[100,3779],[100,3858],[100,3941],[100,4043],[100,4146],[100,4247],[100,4324],[100,4411],[100,4499],[100,4576],[100,4669],[100,4775],[100,4882],[100,4984],[100,5091],[100,5192],[100,5303],[99.9,5408],[99.3,5518],[99.1,5624],[99,5725],[99,5836],[99,5936],[99.1,6046],[99.2,6125],[99.4,6212],[99.5,6299],[99.5,6373],[99.5,6456],[99.6,6540],[99.6,6624],[99.6,6707],[99.6,6794],[99.6,6882],[99.6,6966],[99.6,7051],[99.6,7138],[99.6,7233],[99.6,7326],[99.6,7421]]",305.5635,319.8042,91.35117446,4.1528,"[{""rating"":96.32901776297689,""responseTime"":2.8045000000000186},{""rating"":91.35117446014799,""responseTime"":4.152799999997001}]",space,13.6907,,319.8044,Not at all,0,319.8448,,,[],,0,2,2,2,1,audio/Narrative7Situation2.wav,audio/Narrative8Situation2.wav,audio/Narrative5Situation2.wav,audio/Narrative6Situation2.wav,3,3,3,3,,,,,,,,,,,,,,,,,,,,,,,,,,,,,,,,,,,,,,,
,,,,,59ed2107ae9f950001d848f6,2025-07-07_22h02.23.467,group3.4_multiperson,2023.2.2,Linux x86_64,60.07449237,686c2ebf0248f13bef9af11f,686c7bffd45a59c63b751c75,,,,,,,,,,,,,,,,,,,,,,,,,,,,,319.8455,1,audio/Narrative7Situation3.wav,327.8668,,327.8669,337.1261,"[[999,20],[999,144],[999,218],[999,302],[999,382],[999,466],[999,549],[999,635],[999,723],[999,804],[68.8,899],[68.9,1004],[69.1,1114],[69.1,1219],[69.1,1323],[69.2,1430],[69.2,1546],[69.1,1651],[69.4,1765],[69.6,1878],[69.6,1962],[69.6,2042],[71.3,2128],[76.5,2219],[77.3,2308],[77.3,2411],[78,2523],[78.4,2632],[78.3,2745],[77.7,2860],[71.7,2985],[69.2,3109],[66.5,3233],[66.4,3352],[65.9,3479],[65.9,3599],[63.1,3728],[54.2,3861],[44.3,4015],[22.2,4153],[14.6,4240],[14.8,4326],[14.8,4408],[15,4494],[15.2,4593],[15.4,4698],[15.6,4815],[15.4,4924],[15.1,5028],[14.9,5147],[14.6,5259],[15.5,5376],[20.6,5485],[23,5599],[25.1,5716],[53.8,5855],[54,5938],[59.1,6027],[65.1,6111],[65.8,6197],[67.1,6310],[66.8,6447],[62.8,6532],[61.3,6613],[53.4,6695],[49.5,6797],[48.1,6895],[48.3,7033],[48.3,7111],[48.4,7189],[48.1,7283],[48,7361],[48.1,7450],[48.1,7565],[48.3,7687],[48.3,7805],[42.8,7934],[25.1,8068],[8.5,8196],[6.2,8314],[5.8,8398],[5.7,8475],[5.3,8559],[5.4,8646],[5.5,8741],[5.5,8876],[5.6,8959],[5.6,9037],[5.6,9118],[5.6,9206]]",337.127,340.3254,50.6090101,2.0615,"[{""rating"":50.60901009637844,""responseTime"":2.061499999999967}]",space,2.633,,340.3255,Definitely yes,100,340.3402,,,[],,0,3,3,3,1,audio/Narrative7Situation3.wav,audio/Narrative8Situation3.wav,audio/Narrative5Situation3.wav,audio/Narrative6Situation3.wav,8,4,3,5,,,,,,,,,,,,,,,,,,,,,,,,,,,,,,,,,,,,,,,
,,,,,59ed2107ae9f950001d848f6,2025-07-07_22h02.23.467,group3.4_multiperson,2023.2.2,Linux x86_64,60.07449237,686c2ebf0248f13bef9af11f,686c7bffd45a59c63b751c75,,,,,,,,,,,,,,,,,,,,,,,,,,,,,340.3411,1,audio/Narrative7Situation4.wav,343.3473,,343.3496,355.1093,"[[999,1],[999,91],[999,169],[999,271],[999,381],[999,502],[999,608],[999,683],[999,766],[999,846],[999,937],[999,1024],[999,1107],[999,1191],[999,1281],[999,1381],[999,1476],[999,1562],[999,1666],[999,1760],[999,1855],[999,1948],[999,2049],[999,2144],[999,2244],[999,2345],[999,2448],[999,2574],[999,2657],[999,2732],[999,2811],[999,2894],[999,2979],[999,3060],[999,3146],[48.1,3269],[46.1,3355],[43.1,3447],[26.7,3563],[22.2,3663],[17.5,3745],[17.6,3832],[5.4,4228],[4.7,4396],[4.7,4475],[4.8,4558],[4.9,4644],[5,4727],[5,4813],[3.9,4897],[1.2,4988],[1.2,5074],[1.2,5156],[0.8,5249],[0.1,6842],[0.3,6926],[0.6,7016],[1.7,7136],[1.9,7244],[2.3,7326],[3.1,7411],[3.3,7500],[3.7,7587],[6.8,7697],[8.2,7814],[8.8,7929],[9.8,8050],[11.3,8163],[13,8278],[17.5,8397],[40.5,9300],[41.1,9415],[41.1,9535],[41.3,9655],[46.5,9779],[48.8,9904],[49.9,10030],[49.9,10150],[49.9,10270],[49.9,10386],[50.2,10501],[50.8,10579],[51.1,10664],[52.2,10748],[52.9,10827],[55.4,10920],[57,11014],[57.2,11107],[57.2,11219],[57.2,11323],[57.2,11432],[57,11539],[57,11649],[57,11759]]",355.1098,358.7386,58.53813948,2.8771,"[{""rating"":58.53813948148938,""responseTime"":2.8771000000014624}]",space,3.0876,,358.7388,Definitely yes,100,363.9258,100,4.6557,"[{""rating"":100,""responseTime"":4.655699999995477}]",space,0,4,4,4,1,audio/Narrative7Situation4.wav,audio/Narrative8Situation4.wav,audio/Narrative5Situation4.wav,audio/Narrative6Situation4.wav,3,3,1,2,,,4.6361,,,,,,,,,,,,,,,,,,,,,,,,,,,,,,,,,,,,
,,,,,59ed2107ae9f950001d848f6,2025-07-07_22h02.23.467,group3.4_multiperson,2023.2.2,Linux x86_64,60.07449237,686c2ebf0248f13bef9af11f,686c7bffd45a59c63b751c75,,,,,,,,,,,,,,,,,,,,,,,,,,,,,363.9269,1,audio/Narrative7Situation5.wav,368.9425,,368.9426,377.4232,"[[76.2,769],[75,856],[73.1,953],[68.5,1067],[68.5,1162],[68.4,1275],[68.4,1385],[68.4,1487],[59.7,1600],[56.5,2172],[57.8,2291],[63.9,2464],[64.1,2580],[65.5,2660],[70.7,2746],[70.9,2827],[71,2912],[71.8,3002],[72.8,3101],[72.9,3200],[73.7,3312],[73.8,3415],[73.8,3513],[73.7,3618],[73.5,3723],[59,3838],[58.5,3960],[58.8,4088],[59.2,4174],[59.3,4248],[59.6,4331],[59.9,4414],[60.2,4495],[60.2,4573],[60.3,4657],[60.3,4742],[60.3,4826],[60.5,4911],[60.9,5011],[61.2,5107],[61.4,5206],[61.7,5297],[62.4,5397],[63.3,5499],[64.2,5599],[65.6,5699],[67.1,5810],[68.9,5927],[70,6043],[70.2,6157],[71.1,6272],[72.4,6394],[73.3,6517],[73.8,6627],[73.9,6714],[73.7,6796],[73.7,6871],[73.7,6957],[73.7,7041],[73.7,7124],[73.8,7224],[73.8,7329],[73.8,7433],[73.8,7537],[73.8,7641],[73.9,7740],[74,7853],[74.1,7958],[75.1,8075],[75.5,8178],[75.9,8287],[76,8399]]",377.4235,380.9331,75.96651656,1.9058,"[{""rating"":75.96651656498936,""responseTime"":1.905800000004433}]",space,2.9729,,380.9334,Definitely yes,100,380.943,,,[],,0,5,5,5,1,audio/Narrative7Situation5.wav,audio/Narrative8Situation5.wav,audio/Narrative5Situation5.wav,audio/Narrative6Situation5.wav,5,2,5,2,,,,,,,,,,,,,,,,,,,,,,,,,,,,,,,,,,,,,,,
,,,,,59ed2107ae9f950001d848f6,2025-07-07_22h02.23.467,group3.4_multiperson,2023.2.2,Linux x86_64,60.07449237,686c2ebf0248f13bef9af11f,686c7bffd45a59c63b751c75,,,,,,,,,,,,,,,,,,,,,,,,,,,,,380.9437,1,audio/Narrative7Situation6.wav,383.9561,,383.9567,393.9409,"[[87.6,95],[90.4,416],[89.4,501],[85.8,586],[85.6,669],[81,765],[79.3,882],[74.2,994],[75,1108],[75,1216],[75,1331],[75.7,1415],[76,1498],[76.6,1585],[77,1669],[79.6,1764],[87.3,1863],[94.2,1957],[94.7,2057],[94.9,2159],[96.1,2264],[97.5,2372],[100,3165],[100,3248],[100,3328],[100,3411],[100,3494],[100,3578],[100,3661],[100,3744],[100,3829],[100,3911],[100,3998],[100,4272],[100,4362],[100,4457],[100,4552],[100,4645],[100,4734],[100,5010],[100,5093],[100,5176],[100,5259],[100,5343],[100,5426],[100,5511],[100,5614],[100,5721],[100,5828],[100,5909],[100,5992],[100,6077],[100,6164],[100,6250],[100,6354],[100,6456],[100,6565],[100,6646],[100,6724],[100,6810],[100,6892],[100,6977],[100,7061],[100,7159],[100,7260],[100,7369],[100,7473],[100,7572],[100,7675],[100,7783],[100,7883],[100,7990],[100,8098],[100,8198],[100,8284],[100,8358],[100,8440],[100,8524],[100,8608],[100,8700],[100,8802],[100,8906],[100,9007],[100,9089],[100,9174],[100,9255],[100,9340],[100,9434],[100,9539],[100,9645],[100,9748],[100,9853],[100,9964]]",393.9411,399.1943,100,4.9783,"[{""rating"":99.51577655264133,""responseTime"":3.9625999999940404},{""rating"":100,""responseTime"":4.978299999997034}]",space,4.6913,,399.1947,Partially,50,399.2095,,,[],,0,6,6,6,1,audio/Narrative7Situation6.wav,audio/Narrative8Situation6.wav,audio/Narrative5Situation6.wav,audio/Narrative6Situation6.wav,3,2,3,2,,,,,,,,,,,,,,,,,,,,,,,,,,,,,,,,,,,,,,,
,,,,,59ed2107ae9f950001d848f6,2025-07-07_22h02.23.467,group3.4_multiperson,2023.2.2,Linux x86_64,60.07449237,686c2ebf0248f13bef9af11f,686c7bffd45a59c63b751c75,,,,,,,,,,,,,,,,,,,,,,,,,,,,,399.2107,1,audio/Narrative7Situation7.wav,404.2117,,404.2118,421.4022,"[[999,24],[999,135],[999,250],[999,354],[999,461],[999,569],[92.5,691],[92.7,810],[94.2,936],[94.4,1052],[94.6,1169],[98.1,1288],[99.4,1411],[100,1532],[100,1649],[100,1762],[100,1872],[100,1978],[100,2055],[100,2138],[100,2222],[100,2305],[100,2389],[100,2472],[100,2558],[100,2643],[100,2727],[100,2811],[100,2899],[100,2984],[100,3073],[100,3157],[100,3247],[100,3338],[100,3428],[100,3522],[100,3611],[100,3704],[100,3795],[100,3888],[100,3975],[100,4062],[100,4156],[100,4241],[100,4338],[100,4429],[100,4522],[100,4614],[100,4710],[100,4808],[100,4906],[100,5003],[100,5098],[100,5192],[100,5290],[100,5391],[100,5485],[100,5579],[100,5677],[100,5775],[100,5869],[100,5963],[100,6061],[100,6155],[100,6255],[100,6348],[100,6443],[100,6538],[100,6634],[100,6732],[100,6830],[100,6925],[100,7026],[100,7122],[100,7214],[100,7313],[100,7410],[100,7509],[100,7608],[100,7717],[100,7829],[100,7940],[100,8049],[100,8161],[100,8268],[100,8376],[100,8491],[100,8582],[100,8667],[100,8747],[100,8833],[100,8914],[100,8997],[100,9081],[100,9164],[100,9247],[100,9335],[100,9428],[99,9539],[98.8,9638],[99,9759],[99.1,9846],[99.3,9937],[99.7,10018],[100,10100],[100,10184],[100,10264],[100,10349],[100,10434],[100,10516],[100,10598],[100,10680],[100,10769],[100,10852],[100,10934],[100,11016],[100,11100],[100,11187],[100,11268],[100,11354],[100,11445],[100,11537],[100,11619],[100,11713],[100,11814],[100,11910],[100,12005],[100,12101],[100,12179],[100,12280],[100,12364],[100,12448],[100,12530],[100,12614],[100,12703],[100,12786],[100,12879],[99.8,12975],[99.8,13088],[99.8,13175],[99.8,13268],[99.9,13366],[99.4,13458],[97.1,13566],[96.1,13666],[96.3,13766],[97.5,13865],[98.6,13970],[99,14073],[99,14176],[99.5,14286],[100,14395],[100,14504],[100,14609],[100,14706],[100,14819],[100,14913],[100,14993],[100,15080],[100,15159],[100,15242],[100,15341],[100,15442],[100,15552],[100,15652],[100,15758],[100,15860],[100,15961],[100,16071],[100,16173],[100,16273],[100,16378],[100,16479],[100,16600],[100,16712],[100,16825],[100,16945],[100,17056],[100,17189]]",421.4027,424.4284,100,2.6171,"[{""rating"":100,""responseTime"":2.617099999994025}]",space,2.462,,424.4289,Partially,50,424.4418,,,[],,0,7,7,7,1,audio/Narrative7Situation7.wav,audio/Narrative8Situation7.wav,audio/Narrative5Situation7.wav,audio/Narrative6Situation7.wav,5,3,4,5,,,,,,,,,,,,,,,,,,,,,,,,,,,,,,,,,,,,,,,
,,,,,59ed2107ae9f950001d848f6,2025-07-07_22h02.23.467,group3.4_multiperson,2023.2.2,Linux x86_64,60.07449237,686c2ebf0248f13bef9af11f,686c7bffd45a59c63b751c75,,,,,,,,,,,,,,,,,,,,,,,,,,,,,424.4425,1,audio/Narrative7Situation8.wav,426.465,,426.4651,436.5146,"[[100,870],[95.3,1673],[95.8,1761],[96.7,1856],[97.4,1950],[98.4,2057],[99.5,2159],[100,2274],[100,2382],[100,2490],[100,2600],[100,2708],[100,2813],[100,2918],[100,3036],[100,3184],[100,3343],[100,3495],[100,3652],[100,3743],[100,3826],[100,3910],[100,3993],[100,4076],[100,4165],[100,4280],[100,4434],[100,4591],[100,4749],[100,4901],[100,5056],[100,5132],[100,5211],[100,5292],[100,5378],[100,5466],[100,5572],[100,5677],[98,5821],[94.1,5942],[88,6070],[77,6197],[68.9,6326],[67.2,6450],[60.6,6578],[54.6,6715],[52,6794],[52,6874],[52,6960],[52,7046],[52,7136],[51.3,7279],[51.3,7359],[51.2,7448],[51.2,7526],[51.4,7609],[51.7,7690],[51.9,7781],[51.9,7858],[51.8,7940],[51.5,8030],[51.3,8115],[51.3,8218],[51.5,8355],[52,8482],[52,8586],[51.8,8662],[51.5,8743],[51.1,8823],[49.1,8930],[49.4,9033],[49.4,9145],[49.7,9253],[49.8,9358],[50,9470],[50.1,9586],[50.2,9701],[50.6,9828],[52.4,9949]]",436.5148,440.9464,59.2118945,3.8018,"[{""rating"":59.211894503640686,""responseTime"":3.801800000004505}]",space,3.8792,,440.948,Partially,50,440.9544,,,[],,0,8,8,8,1,audio/Narrative7Situation8.wav,audio/Narrative8Situation8.wav,audio/Narrative5Situation8.wav,audio/Narrative6Situation8.wav,2,3,3,5,,,,,,,,,,,,,,,,,,,,,,,,,,,,,,,,,,,,,,,
,,,,,59ed2107ae9f950001d848f6,2025-07-07_22h02.23.467,group3.4_multiperson,2023.2.2,Linux x86_64,60.07449237,686c2ebf0248f13bef9af11f,686c7bffd45a59c63b751c75,,,,,,,,,,,,,,,,,,,,,,,,,,,,,440.9552,1,audio/Narrative7Situation9.wav,442.9653,,442.9655,451.6044,"[[59.2,754],[59.2,841],[58.2,925],[57.7,1018],[57.7,1104],[57.7,1192],[57.8,1277],[57.8,1366],[57.8,1459],[57.8,1541],[58.3,1616],[59.6,1708],[61.5,1798],[66.3,1890],[69.1,1989],[73.8,2086],[78.1,2192],[87.8,2324],[94,2491],[97.2,2605],[97.3,2682],[97.7,2766],[98.1,2849],[98.4,2928],[99,3013],[99,3094],[99.4,3184],[100,3289],[100,3414],[100,3540],[100,3656],[100,3780],[100,3868],[100,3950],[100,4028],[100,4111],[100,4204],[100,4309],[100,4411],[100,4516],[100,4623],[100,4723],[100,4828],[100,4935],[100,5045],[100,5150],[100,5266],[100,5374],[100,5483],[100,5593],[100,5703],[100,5811],[100,5919],[100,6033],[100,6141],[100,6257],[100,6342],[100,6424],[100,6507],[100,6596],[100,6682],[100,6798],[100,6908],[100,7014],[100,7119],[100,7219],[100,7321],[100,7425],[100,7531],[100,7630],[100,7707],[100,7792],[100,7874],[100,7959],[100,8053],[100,8158],[100,8261],[100,8368],[100,8468],[100,8565],[100,8638]]",451.6047,454.1818,100,2.1184,"[{""rating"":100,""responseTime"":2.1183999999985303}]",space,2.024,,454.182,Not at all,0,454.1933,,,[],,0,9,9,9,1,audio/Narrative7Situation9.wav,audio/Narrative8Situation9.wav,audio/Narrative5Situation9.wav,audio/Narrative6Situation9.wav,2,3,3,4,,,,,,,,,,,,,,,,,,,,,,,,,,,,,,,,,,,,,,,
,,,,,59ed2107ae9f950001d848f6,2025-07-07_22h02.23.467,group3.4_multiperson,2023.2.2,Linux x86_64,60.07449237,686c2ebf0248f13bef9af11f,686c7bffd45a59c63b751c75,,,,,,,,,,,,,,,,,,,,,,,,,,,,,454.1942,1,audio/Narrative8Situation1.wav,459.231,,459.2312,475.1775,"[[999,23],[999,102],[999,184],[999,265],[999,352],[999,443],[999,544],[999,644],[75.4,758],[67.1,875],[66.5,995],[65.7,1122],[65.5,1197],[65.5,1280],[65.7,1365],[65.7,1450],[65.7,1547],[65.7,1651],[65.7,1751],[65.7,1861],[65.7,1959],[64.8,2071],[56.1,2202],[54.2,2363],[53.6,2515],[42.2,2831],[42.4,2923],[42.5,2998],[42.6,3108],[43.1,3260],[44,3421],[43.7,3580],[32.1,3740],[22.4,3898],[18,4059],[9.2,4135],[2.7,4228],[2.1,4311],[2,4395],[1.6,4482],[1.9,4597],[3.2,4764],[14.8,4878],[20.8,4970],[26.7,5065],[28.2,5147],[40,5235],[40.7,5335],[43.1,5513],[45.8,5680],[45.8,5844],[45.9,5915],[45.9,5999],[45.9,6077],[45.9,6161],[45.9,6248],[45.9,6337],[45.9,6413],[45.7,6495],[45.4,6586],[45.3,6674],[44.7,6780],[43.4,6864],[42.8,6942],[39.7,7038],[39,7122],[38.7,7213],[38.7,7308],[38.7,7390],[38.7,7478],[38.7,7557],[38.8,7646],[39,7732],[39,7811],[39,7898],[38.8,8001],[37.5,8101],[36.4,8189],[33.4,8297],[33.2,8382],[29.4,8465],[29.1,8540],[29.1,8625],[29.2,8712],[29.1,8801],[29.1,8903],[29.3,9015],[29.4,9119],[29.4,9227],[31.6,9335],[35.6,9452],[41.6,9580],[50.9,9712],[55,9849],[61.3,9975],[66.8,10099],[75.7,10223],[77.9,10355],[81,10486],[84.1,10568],[85.5,10647],[86.5,10733],[87.5,10823],[89.3,10923],[93.8,11051],[94,11143],[94.9,11235],[95.8,11317],[96,11398],[97.9,11483],[98,11589],[98,11697],[98,11801],[98.3,11909],[99.1,12018],[99.1,12125],[99.2,12243],[99.2,12351],[99.2,12448],[99.1,12530],[98.9,12611],[98.8,12689],[98.6,12769],[98.6,12853],[98.4,12936],[98.1,13021],[97.4,13120],[91.7,13354],[88.1,13483],[83.7,13564],[78.8,13642],[71.3,13720],[67.1,13805],[61.6,13904],[47.6,14045],[35.2,14215],[30.3,14305],[26.1,14400],[25.7,14484],[24.5,14573],[23.4,14666],[23.3,14750],[23.4,14825],[23.4,14900],[41,15002],[58,15170],[79.2,15274],[80.1,15361],[81.2,15440],[84.4,15523],[85,15611],[85.4,15701],[86,15814],[86.4,15924]]",475.1788,477.6629,78.47881659,1.7013,"[{""rating"":78.47881658860716,""responseTime"":1.7013000000044372}]",space,1.943,,477.6635,Not at all,0,477.6719,,,[],,0,10,10,10,1,audio/Narrative8Situation1.wav,audio/Narrative7Situation1.wav,audio/Narrative6Situation1.wav,audio/Narrative5Situation1.wav,5,2,2,5,,,,,,,,,,,,,,,,,,,,,,,,,,,,,,,,,,,,,,,
,,,,,59ed2107ae9f950001d848f6,2025-07-07_22h02.23.467,group3.4_multiperson,2023.2.2,Linux x86_64,60.07449237,686c2ebf0248f13bef9af11f,686c7bffd45a59c63b751c75,,,,,,,,,,,,,,,,,,,,,,,,,,,,,477.6726,1,audio/Narrative8Situation2.wav,480.6929,,480.693,490.8386,"[[55.9,125],[55.9,230],[55.8,338],[55.8,447],[55.9,548],[55.9,626],[55.9,701],[55.9,783],[55.9,868],[55.9,949],[55.8,1037],[56.9,1121],[78.2,1608],[80.6,1705],[83.2,1791],[83.5,1899],[83.5,2003],[83.6,2108],[83.6,2214],[83.3,2312],[68.1,2434],[41.3,2700],[38.4,2785],[37.2,2886],[36.3,2973],[32.2,3067],[16.8,3169],[10.7,3266],[10.7,3401],[10.8,3480],[10.7,3565],[5.1,3657],[1.4,3745],[1.3,3837],[0.2,3968],[0.4,4128],[0.4,4221],[0.3,4301],[0.3,4381],[0.3,4460],[0.3,4544],[0.4,4649],[0.4,4749],[0.6,4872],[1.1,4981],[1.3,5106],[1.4,5220],[1.6,5331],[1.3,5456],[0.9,5573],[0.2,7059],[0.3,7136],[0.4,7213],[0.4,7294],[0.4,7377],[0.4,7459],[1.6,7552],[2.8,7641],[3.1,7727],[3.1,7808],[3.4,7899],[3.3,7990],[3,8089],[2.9,8191],[2.7,8286],[2.6,8402],[2.3,8480],[2.1,8560],[2,8640],[1.9,8723],[1.4,8826],[1.4,8954],[1.5,9040],[1.4,9123],[1.3,9213],[1.3,9292],[1.3,9373],[1.4,9458],[2.3,9548],[2.6,9643],[2.6,9722],[2.7,9810],[2.8,9907],[2.9,9993],[3.1,10089]]",490.8389,494.4499,6.377167421,2.4789,"[{""rating"":6.37716742063219,""responseTime"":2.4788999999984753}]",space,3.0623,,494.4501,Definitely yes,100,494.4632,,,[],,0,11,11,11,1,audio/Narrative8Situation2.wav,audio/Narrative7Situation2.wav,audio/Narrative6Situation2.wav,audio/Narrative5Situation2.wav,3,3,3,3,,,,,,,,,,,,,,,,,,,,,,,,,,,,,,,,,,,,,,,
,,,,,59ed2107ae9f950001d848f6,2025-07-07_22h02.23.467,group3.4_multiperson,2023.2.2,Linux x86_64,60.07449237,686c2ebf0248f13bef9af11f,686c7bffd45a59c63b751c75,,,,,,,,,,,,,,,,,,,,,,,,,,,,,494.4653,1,audio/Narrative8Situation3.wav,498.4759,,498.4771,520.927,"[[10.3,183],[15.3,349],[15.5,503],[15.5,662],[14.6,823],[13.5,989],[12.6,1119],[9.5,1197],[9.2,1281],[9.2,1363],[9.2,1448],[9.3,1549],[9.3,1648],[9.3,1755],[9.3,1829],[8.3,1920],[8,1999],[7.9,2081],[7.1,2182],[2.5,2336],[2.4,2515],[2.3,2594],[2.4,2678],[2.6,2761],[3.2,2845],[8.1,2940],[15.7,3047],[21.4,3165],[25.6,3276],[26.6,3396],[29.4,3512],[30.1,3630],[30.9,3752],[31.6,3866],[32.9,3987],[34.6,4112],[36.5,4228],[38,4352],[43.5,4477],[47.5,4611],[48.9,4738],[51.5,4889],[51.9,5020],[53.1,5152],[54.1,5283],[55,5417],[56.5,5555],[57.3,5688],[57.5,5825],[57.5,5927],[57.5,6007],[57.5,6091],[57.5,6173],[57.5,6257],[57.5,6340],[57.2,6423],[56.6,6524],[51.8,6618],[49.2,6711],[46.8,6827],[41.4,6958],[36.6,7082],[30.4,7215],[30.2,7309],[30.1,7389],[29.8,7478],[29.9,7558],[30,7641],[30.5,7723],[40.2,7808],[42.6,7897],[45.2,7992],[47.8,8095],[49.1,8187],[51,8294],[51.8,8396],[52.4,8505],[55.6,8605],[56.7,8713],[58.2,8827],[61.8,8945],[62.1,9056],[63.3,9175],[67.6,9295],[69,9422],[70.3,9511],[71.4,9593],[73.2,9676],[75.2,9777],[75.9,9861],[76.8,9974],[79.1,10083],[80.2,10200],[83.6,10310],[84.4,10442],[84.6,10561],[85.4,10682],[85.5,10806],[85.2,10924],[79.5,11005],[69.4,11095],[65.4,11176],[56.6,11264],[52.3,11363],[50.4,11474],[49.9,11582],[51,11697],[52.3,11814],[53.4,11929],[54.1,12048],[55,12164],[55.6,12303],[57.1,12439],[57.4,12525],[57.4,12603],[57.2,12686],[57.5,12777],[57.6,12879],[57.5,12996],[56.9,13103],[56.1,13188],[47.5,13275],[45.1,13354],[42.4,13445],[31,13535],[28.3,13626],[26.9,13722],[25.7,13819],[26.4,13926],[39.4,14035],[49.4,14138],[53.2,14249],[63.3,14370],[66.5,14499],[75.1,14620],[76.2,14759],[78.6,14871],[83.4,14966],[85.9,15045],[87,15135],[88.6,15226],[88.8,15327],[90.1,15445],[90.9,15557],[91.6,15665],[93.2,15784],[96.2,15906],[96.3,16017],[96.2,16120],[96.2,16198],[96.1,16280],[96.1,16363],[96.1,16446],[96.1,16546],[96.1,16685],[96.1,16765],[96.1,16846],[96.1,16931],[96.5,17022],[97.2,17111],[98,17203],[98.2,17285],[98.2,17368],[98.4,17452],[98.4,17536],[98.4,17618],[98.4,17699],[98.4,17786],[98.4,17870],[98.3,17958],[98.3,18050],[98.1,18147],[98,18241],[98.1,18342],[100,18453],[100,18559],[100,18663],[100,18769],[100,18871],[100,18973],[100,19076],[100,19181],[100,19285],[100,19394],[100,19487],[100,19566],[100,19645],[100,19727],[100,19812],[100,19909],[100,20016],[100,20120],[100,20232],[100,20337],[100,20450],[100,20558],[100,20668],[100,20776],[100,20887],[100,20993],[100,21101],[100,21209],[100,21325],[100,21439],[100,21547],[97.5,21660],[96.5,21761],[96.3,21841],[96,21926],[95.9,22007],[95.9,22097],[96.3,22189],[99.6,22338],[100,22417]]",520.9274,524.7518,76.35158646,3.251,"[{""rating"":76.35158645801823,""responseTime"":3.25100000000009}]",space,3.2652,,524.752,Not at all,0,524.7624,,,[],,0,12,12,12,1,audio/Narrative8Situation3.wav,audio/Narrative7Situation3.wav,audio/Narrative6Situation3.wav,audio/Narrative5Situation3.wav,4,8,5,3,,,,,,,,,,,,,,,,,,,,,,,,,,,,,,,,,,,,,,,
,,,,,59ed2107ae9f950001d848f6,2025-07-07_22h02.23.467,group3.4_multiperson,2023.2.2,Linux x86_64,60.07449237,686c2ebf0248f13bef9af11f,686c7bffd45a59c63b751c75,,,,,,,,,,,,,,,,,,,,,,,,,,,,,524.7649,1,audio/Narrative8Situation4.wav,527.7735,,527.7736,541.9524,"[[73.9,1268],[73.9,1367],[71.2,1470],[68.7,1571],[68.8,1672],[68.9,1767],[68.9,1874],[68.9,1977],[64,2091],[63.9,2199],[64.6,2308],[67.6,2431],[73.4,2548],[86.4,2665],[90.3,2780],[99.1,2893],[99.1,3004],[99.4,3118],[99.4,3227],[99.3,3344],[99.3,3452],[99.4,3552],[99.4,3633],[100,3722],[100,3800],[100,3885],[100,3975],[100,4079],[100,4180],[100,4291],[100,4396],[100,4503],[100,4605],[100,4706],[100,4799],[100,4886],[100,4968],[100,5049],[100,5143],[100,5245],[100,5351],[100,5454],[100,5559],[100,5661],[100,5767],[100,5868],[100,5971],[100,6072],[100,6177],[100,6282],[100,6387],[99.7,6499],[99.4,6613],[98.9,6729],[98.4,6841],[98.5,6956],[98.8,7073],[99,7188],[99.1,7304],[99.1,7419],[99.3,7538],[100,7659],[100,7773],[100,7889],[100,8004],[100,8119],[100,8233],[100,8346],[100,8462],[100,8578],[100,8680],[100,8753],[100,8832],[100,8914],[100,9009],[100,9100],[100,9187],[100,9261],[100,9345],[100,9429],[100,9512],[100,9595],[100,9681],[100,9765],[100,9853],[100,9942],[100,10028],[100,10110],[100,10195],[100,10288],[100,10378],[100,10472],[100,10568],[100,10688],[99.9,10791],[99.8,10891],[98.3,10999],[97,11118],[97,11215],[97,11292],[97.1,11376],[97.3,11460],[97.4,11543],[97.6,11628],[97.9,11711],[99.1,11823],[99.5,11933],[99.8,12040],[100,12156],[100,12267],[100,12378],[100,12487],[100,12599],[100,12707],[100,12814],[100,12966],[100,13077],[100,13193],[100,13308],[100,13417],[100,13532],[100,13646],[100,13756],[100,13843],[100,13926],[100,14011],[100,14100],[100,14178]]",541.9528,544.6784,100,2.5552,"[{""rating"":99.28939621638678,""responseTime"":1.3817999999970425},{""rating"":100,""responseTime"":2.5552000000029693}]",space,2.1641,,544.6786,Definitely yes,100,544.6892,,,[],,0,13,13,13,1,audio/Narrative8Situation4.wav,audio/Narrative7Situation4.wav,audio/Narrative6Situation4.wav,audio/Narrative5Situation4.wav,3,3,2,1,,,,,,,,,,,,,,,,,,,,,,,,,,,,,,,,,,,,,,,
,,,,,59ed2107ae9f950001d848f6,2025-07-07_22h02.23.467,group3.4_multiperson,2023.2.2,Linux x86_64,60.07449237,686c2ebf0248f13bef9af11f,686c7bffd45a59c63b751c75,,,,,,,,,,,,,,,,,,,,,,,,,,,,,544.69,1,audio/Narrative8Situation5.wav,546.7057,,546.7058,554.9512,"[[62.6,636],[61.4,727],[61.5,810],[61.5,928],[61.2,1040],[61,1176],[61,1256],[61.1,1335],[61.2,1420],[64.4,1504],[76.4,1594],[86.6,1688],[94.5,1820],[99.1,1972],[100,2051],[100,2136],[100,2221],[100,2304],[100,2387],[100,2470],[100,2552],[100,2640],[100,2748],[100,2833],[100,2912],[100,2989],[100,3073],[100,3153],[100,3238],[100,3341],[100,3453],[100,3553],[100,3654],[100,3732],[100,3824],[100,3902],[100,3986],[100,4068],[100,4152],[100,4240],[100,4329],[100,4413],[100,4500],[100,4589],[100,4678],[100,4761],[100,4853],[100,4939],[100,5029],[100,5119],[100,5223],[100,5312],[99.9,5406],[99.8,5496],[99.6,5589],[97,5690],[96.5,5790],[96.9,5888],[98.2,5995],[99.2,6099],[99.6,6199],[99.6,6297],[99.8,6405],[99.8,6506],[99.8,6611],[99.9,6715],[99.9,6822],[99.8,6925],[99.8,7027],[99.8,7127],[99.7,7235],[99.7,7332],[99.7,7437],[99.7,7548],[99.7,7658],[99.7,7767],[99.7,7874],[99.7,7947],[99.7,8028],[99.7,8111],[99.7,8198]]",554.9514,558.4289,99.56913911,2.6814,"[{""rating"":99.56913910641235,""responseTime"":2.6813999999984617}]",space,2.9269,,558.429,Not at all,0,558.4433,,,[],,0,14,14,14,1,audio/Narrative8Situation5.wav,audio/Narrative7Situation5.wav,audio/Narrative6Situation5.wav,audio/Narrative5Situation5.wav,2,5,2,5,,,,,,,,,,,,,,,,,,,,,,,,,,,,,,,,,,,,,,,
,,,,,59ed2107ae9f950001d848f6,2025-07-07_22h02.23.467,group3.4_multiperson,2023.2.2,Linux x86_64,60.07449237,686c2ebf0248f13bef9af11f,686c7bffd45a59c63b751c75,,,,,,,,,,,,,,,,,,,,,,,,,,,,,558.4444,1,audio/Narrative8Situation6.wav,560.4494,,560.4495,566.9263,"[[80,87],[80,169],[80.2,253],[80.2,347],[80.3,473],[80.3,561],[80.4,650],[80.5,732],[80.5,811],[80.5,903],[80.6,1005],[80.6,1109],[80.5,1214],[79.4,1321],[73.3,1454],[73,1589],[72,1706],[71,1791],[71,1872],[94.8,2367],[95.6,2479],[95.3,2579],[95.2,2668],[95.2,2749],[96.1,2832],[97.5,2927],[98,3035],[98.4,3138],[99.9,3260],[100,3366],[100,3477],[100,3591],[100,3707],[100,3824],[100,3933],[100,4052],[100,4169],[99.5,4291],[86.5,4411],[77.5,4543],[77.5,4663],[77.5,4770],[77.6,4845],[78,4927],[81.3,5009],[82.3,5094],[82.4,5177],[82.6,5261],[82.8,5372],[83,5476],[83.1,5576],[83.1,5681],[83.1,5787],[83.1,5890],[83.1,5995],[83.5,6104],[83.8,6213],[83.8,6316],[84.2,6427]]",566.9266,569.5834,93.05568909,1.3369,"[{""rating"":93.05568909093307,""responseTime"":1.3368999999985363}]",space,2.1207,,569.5836,Partially,50,569.5987,,,[],,0,15,15,15,1,audio/Narrative8Situation6.wav,audio/Narrative7Situation6.wav,audio/Narrative6Situation6.wav,audio/Narrative5Situation6.wav,2,3,2,3,,,,,,,,,,,,,,,,,,,,,,,,,,,,,,,,,,,,,,,
,,,,,59ed2107ae9f950001d848f6,2025-07-07_22h02.23.467,group3.4_multiperson,2023.2.2,Linux x86_64,60.07449237,686c2ebf0248f13bef9af11f,686c7bffd45a59c63b751c75,,,,,,,,,,,,,,,,,,,,,,,,,,,,,569.5995,1,audio/Narrative8Situation7.wav,572.6001,,572.6002,584.6956,"[[74.4,109],[74.5,210],[74.4,312],[74.4,423],[74.4,534],[74.4,642],[74.8,754],[79.8,869],[81.4,976],[82.5,1103],[82.8,1220],[82.7,1342],[70.8,1438],[57.3,1519],[56.5,1598],[56.1,1680],[56,1766],[55.9,1872],[52.6,1956],[40.4,2034],[31,2117],[28.9,2207],[24.6,2299],[21.9,2435],[22.1,2530],[32.9,2615],[43,2700],[48.3,2798],[54.5,2896],[61.3,3032],[64.8,3135],[66.7,3220],[74.8,3309],[75.3,3387],[76.8,3475],[78.4,3568],[79.9,3660],[80.7,3758],[81.4,3859],[83.7,3969],[84.2,4078],[86.7,4195],[87.7,4314],[89.3,4432],[90.8,4551],[93.6,4669],[95.1,4802],[96.2,4939],[98.5,5093],[100,5233],[100,5363],[100,5500],[100,5576],[100,5660],[100,5743],[100,5828],[100,5911],[100,6008],[100,6085],[100,6159],[100,6242],[100,6326],[100,6409],[100,6494],[100,6579],[100,6666],[100,6753],[100,6840],[100,6944],[100,7053],[100,7156],[100,7259],[100,7361],[100,7464],[100,7571],[100,7673],[100,7777],[100,7889],[100,7995],[100,8105],[100,8213],[99.9,8322],[99.5,8462],[99.4,8550],[99.4,8625],[99.4,8707],[99.5,8793],[99.6,8874],[99.9,8977],[99.9,9078],[99.9,9181],[100,9285],[100,9399],[100,9502],[100,9604],[100,9705],[100,9814],[100,9910],[100,10013],[100,10092],[99.9,10172],[99.9,10256],[99.9,10343],[99.9,10432],[99.9,10534],[99.9,10639],[99.9,10722],[99.9,10805],[99.9,10889],[99.9,10973],[99.8,11063],[99.7,11171],[99.7,11270],[99.7,11378],[99.7,11482],[99.7,11585],[99.6,11691],[99.6,11800],[99.6,11909],[99.6,12012]]",584.6959,589.3153,99.45608969,1.3091,"[{""rating"":99.45608968706414,""responseTime"":1.3091000000015356}]",space,4.0782,,589.3155,Not at all,0,589.3441,,,[],,0,16,16,16,1,audio/Narrative8Situation7.wav,audio/Narrative7Situation7.wav,audio/Narrative6Situation7.wav,audio/Narrative5Situation7.wav,3,5,5,4,,,,,,,,,,,,,,,,,,,,,,,,,,,,,,,,,,,,,,,
,,,,,59ed2107ae9f950001d848f6,2025-07-07_22h02.23.467,group3.4_multiperson,2023.2.2,Linux x86_64,60.07449237,686c2ebf0248f13bef9af11f,686c7bffd45a59c63b751c75,,,,,,,,,,,,,,,,,,,,,,,,,,,,,589.3448,1,audio/Narrative8Situation8.wav,592.3516,,592.3519,605.2418,"[[999,1],[999,82],[999,183],[999,335],[999,428],[999,513],[999,594],[999,709],[999,836],[83.8,943],[82.2,1049],[81.6,1165],[80.5,1279],[80.3,1393],[80.3,1512],[78.4,1619],[78.1,1697],[78,1777],[78,1859],[78,1942],[77.3,2046],[76.6,2161],[76.6,2266],[76.6,2370],[76.6,2483],[76.6,2593],[76.6,2709],[76.6,2791],[76.6,2874],[76.6,2958],[76.6,3043],[76.6,3127],[76.8,3227],[77,3329],[77.1,3434],[78,3543],[79.4,3660],[80.9,3788],[81.1,3908],[81.3,4028],[81.9,4159],[83.1,4286],[85.4,4400],[85.4,4513],[84.8,4598],[85.2,4703],[85.6,4791],[86.1,4893],[86.4,5005],[86.7,5113],[86.7,5217],[86.9,5321],[87.4,5437],[88.4,5543],[90.2,5660],[90.6,5776],[91.8,5898],[92.1,6011],[92.3,6133],[92.4,6249],[92.5,6369],[92.5,6481],[92.4,6608],[92.4,6722],[92.4,6804],[92.4,6889],[92.4,6971],[92.4,7058],[94,7153],[98.6,7294],[98.7,7377],[98.7,7457],[99,7542],[99.4,7621],[99.4,7707],[99.4,7804],[99.4,7903],[99.5,8021],[99.6,8130],[100,8244],[100,8360],[100,8470],[100,8575],[100,8683],[100,8789],[100,8869],[100,8954],[100,9037],[100,9119],[100,9206],[100,9289],[100,9388],[100,9491],[100,9597],[100,9703],[100,9780],[100,9851],[100,9960],[100,10044],[100,10136],[100,10241],[100,10343],[100,10426],[100,10502],[100,10583],[100,10678],[100,10762],[100,10869],[100,10983],[100,11074],[100,11151],[100,11235],[100,11318],[100,11401],[100,11483],[100,11567],[100,11651],[100,11734],[100,11818],[99.7,11933],[98.4,12021],[96.7,12116],[95.3,12207],[92.4,12303],[89.6,12397],[89.1,12489],[89.1,12578],[89.1,12672],[89.1,12766],[89.1,12852]]",605.2421,611.3368,86.88004553,2.1123,"[{""rating"":86.8800455284713,""responseTime"":2.1123000000044385}]",space,5.5481,,611.3369,Partially,50,611.3708,,,[],,0,17,17,17,1,audio/Narrative8Situation8.wav,audio/Narrative7Situation8.wav,audio/Narrative6Situation8.wav,audio/Narrative5Situation8.wav,3,2,5,3,,,,,,,,,,,,,,,,,,,,,,,,,,,,,,,,,,,,,,,
,,,,,59ed2107ae9f950001d848f6,2025-07-07_22h02.23.467,group3.4_multiperson,2023.2.2,Linux x86_64,60.07449237,686c2ebf0248f13bef9af11f,686c7bffd45a59c63b751c75,,,,,,,,,,,,,,,,,,,,,,,,,,,,,611.3715,1,audio/Narrative8Situation9.wav,614.378,,614.3781,625.7212,"[[51,447],[50.9,554],[50.7,665],[50.9,783],[50.9,887],[51.6,1003],[55.5,1127],[57.2,1252],[59.1,1388],[65.4,1525],[73.3,1636],[73.9,1720],[74.6,1801],[74.7,1878],[74.7,1962],[74.7,2050],[74.8,2131],[74.8,2215],[74.8,2302],[74.8,2391],[75.1,2483],[78.1,2587],[78.9,2693],[79,2813],[79,2932],[79.1,3048],[79.4,3168],[80.2,3293],[81.9,3427],[83.4,3562],[85.3,3703],[86.6,3828],[88.4,3973],[90.7,4109],[92.8,4248],[93.2,4380],[94.3,4532],[94.4,4671],[94.4,4803],[94.6,4918],[94.8,5013],[94.9,5094],[94.9,5174],[94.9,5260],[94.7,5354],[94.8,5455],[95.2,5550],[96.8,5653],[98.8,5759],[98.9,5858],[98.9,5963],[98.9,6069],[98.9,6180],[98.9,6289],[98.9,6418],[99.1,6516],[99.3,6609],[99.3,6689],[99.3,6773],[99.1,6866],[93.2,6967],[92.9,7072],[91.3,7192],[83.2,7312],[76.1,7451],[71.1,7578],[77.9,7708],[84.5,7843],[86.8,7997],[90.5,8157],[91.6,8298],[92.2,8388],[92.7,8478],[93.4,8562],[94.5,8653],[95.5,8784],[96.2,8943],[96.3,9032],[96.3,9129],[96.3,9212],[96.3,9288],[96.3,9375],[96.3,9461],[96.3,9547],[96.4,9660],[96.7,9748],[96.8,9829],[97.1,9913],[97.8,10003],[97.9,10096],[98.6,10236],[100,10394],[100,10542],[100,10623],[100,10703],[100,10789],[100,10874],[100,10972],[100,11080],[100,11184],[100,11293]]",625.7214,628.1129,100,2.2039,"[{""rating"":98.91227393774933,""responseTime"":1.4471000000014556},{""rating"":100,""responseTime"":2.203899999998498}]",space,1.8186,,628.1133,Partially,50,628.1237,,,[],,0,18,18,18,1,audio/Narrative8Situation9.wav,audio/Narrative7Situation9.wav,audio/Narrative6Situation9.wav,audio/Narrative5Situation9.wav,3,2,4,3,,,,,,,,,,,,,,,,,,,,,,,,,,,,,,,,,,,,,,,
,,,,,59ed2107ae9f950001d848f6,2025-07-07_22h02.23.467,group3.4_multiperson,2023.2.2,Linux x86_64,60.07449237,686c2ebf0248f13bef9af11f,686c7bffd45a59c63b751c75,,,,,,,,,,,,,,,,,,,,,,,,,,,635.2387,637.7948,637.9085,2,audio/Narrative13Situation2.wav,637.9092,,637.9093,667.689,"[[999,1],[999,101],[999,187],[999,295],[999,403],[999,530],[999,658],[53.4,772],[54.1,859],[62.9,1391],[64.4,1479],[73.2,1613],[74.1,1723],[83.1,1823],[83.6,1903],[83.6,1974],[83.6,2056],[83.7,2140],[84.3,2223],[98.4,2324],[99.3,2428],[99.3,2560],[99.3,2639],[99.2,2725],[99.2,2805],[99.2,2888],[98.6,2984],[92.7,3094],[69.4,3206],[26.1,3323],[18.5,3441],[10.4,3566],[8.2,3654],[0.4,4708],[0.9,4794],[6,4880],[6.6,4959],[8.5,5067],[11.9,5185],[18.2,5309],[24.9,5460],[27,5539],[42.1,5641],[42.1,5723],[46.5,5812],[46.7,5895],[47.1,6004],[48.9,6103],[50.1,6187],[50.3,6260],[50.5,6364],[50.5,6447],[50.5,6534],[50.4,6624],[50.4,6704],[50.4,6785],[50.4,6875],[50.4,6972],[50.4,7050],[50.4,7135],[50.4,7217],[50.4,7300],[50.4,7388],[50.4,7496],[50.5,7601],[52.9,7717],[53.9,7832],[54.5,7946],[54.7,8059],[54.8,8171],[54.9,8283],[55,8378],[55,8450],[55.3,8533],[57.5,8627],[61.6,8721],[63.5,8829],[67.1,8959],[68.7,9081],[69.7,9168],[70.2,9250],[73.5,9352],[75.9,9468],[76.8,9595],[77.7,9683],[78.2,9762],[78.4,9837],[78.4,9925],[78.4,10010],[78.6,10089],[78.6,10181],[78.7,10268],[78.7,10365],[78.7,10452],[78.8,10547],[78.8,10635],[79,10728],[79.7,10821],[82.9,10929],[83.3,11026],[83.9,11127],[84.7,11243],[88.3,11390],[89.6,11556],[90.4,11647],[90.6,11730],[90.7,11816],[93.3,11903],[93.6,11990],[93.8,12080],[94.3,12167],[94.7,12258],[95.2,12368],[96,12468],[96.4,12571],[96.6,12648],[97.6,12733],[98.2,12818],[98.4,12899],[98.5,12992],[98.8,13108],[99.1,13220],[100,13333],[100,13444],[100,13556],[100,13669],[100,13753],[100,13831],[100,13912],[100,14002],[100,14088],[100,14193],[100,14301],[100,14408],[98.9,14546],[97.7,14674],[97.3,14778],[95.9,14895],[93.7,14984],[84,15073],[81.3,15186],[59.3,15350],[54.1,15442],[54.1,15532],[54.2,15611],[54.3,15693],[54.3,15775],[54.4,15859],[54.4,15942],[54.3,16026],[54.3,16127],[53.8,16225],[53.7,16308],[53.7,16392],[53.7,16476],[53.4,16560],[54,16646],[56.1,16727],[56.6,16822],[57.4,16912],[58.7,17007],[60,17113],[60.4,17221],[63.2,17328],[64,17446],[65.9,17584],[66.8,17711],[67.8,17809],[68.6,17895],[73.2,17981],[76.1,18069],[76.1,18154],[76.1,18252],[76,18353],[76,18462],[74.9,18584],[67.3,18723],[61.7,18836],[58.4,18957],[54.7,19112],[45,19258],[39.6,19405],[40,19533],[40.2,19610],[40.6,19694],[41.5,19776],[43.9,19860],[45.1,19942],[46.3,20034],[46.7,20121],[47.7,20243],[50.7,20361],[51.2,20470],[52.2,20584],[56.9,20705],[58,20782],[58.8,20874],[59,20959],[58.6,21044],[67.4,21125],[68.9,21228],[70.7,21371],[74.2,21453],[77.6,21536],[77.6,21619],[77.8,21704],[78.3,21791],[78.6,21873],[78.4,21953],[78.2,22038],[77.9,22123],[77.4,22244],[77.2,22327],[77.1,22407],[77.1,22485],[77.1,22569],[77.1,22659],[77.1,22766],[77.1,22836],[77.1,22924],[77.1,23001],[77.1,23087],[77.1,23175],[77.1,23278],[77.1,23378],[77.1,23480],[77.5,23595],[77.6,23705],[78.5,23821],[80.8,23934],[82.1,24049],[82.6,24157],[85.9,24287],[86.3,24400],[87,24513],[88.5,24636],[88.8,24749],[88.8,24864],[89.1,24982],[89.7,25097],[90,25199],[90.5,25285],[91.1,25370],[92.3,25454],[93,25541],[93.1,25649],[94.4,25734],[100,25815],[100,25900],[100,25982],[100,26070],[100,26152],[100,26235],[97.6,26322],[89.2,26417],[82.5,26513],[83.3,26603],[84.8,26703],[95.9,26803],[95.9,26902],[95.9,27002],[95.3,27100],[94.1,27216],[93.7,27315],[93.6,27412],[93.3,27485],[92.8,27568],[92,27654],[91.5,27733],[91.5,27814],[91.6,27899],[91.9,27995],[93,28108],[94.7,28225],[96,28341],[100,28456],[100,28574],[100,28717],[100,28831],[100,28946],[100,29062],[100,29165],[100,29245],[100,29329],[100,29415],[100,29497],[100,29587],[100,29692],[100,29778]]",667.6895,667.696,,,[],,,,667.6961,Definitely yes,100,667.7058,,,[],,0,0,0,0,1,audio/Narrative13Situation2.wav,audio/Narrative13Situation2.wav,audio/Narrative13Situation2.wav,audio/Narrative13Situation2.wav,2,2,2,2,,,,,628.1258,635.2128,space,6.5626,,,,,,,,,,,,,,,,,,,,,,,,,,,,,,,
,,,,,59ed2107ae9f950001d848f6,2025-07-07_22h02.23.467,group3.4_multiperson,2023.2.2,Linux x86_64,60.07449237,686c2ebf0248f13bef9af11f,686c7bffd45a59c63b751c75,,,,,,,,,,,,,,,,,,,,,,,,,,,,,667.7066,2,audio/Narrative5Situation1.wav,672.7136,,672.7138,686.014,"[[999,22],[999,183],[999,277],[999,359],[999,436],[999,522],[999,602],[66.4,692],[65.8,779],[65.5,873],[65.6,971],[66.7,1087],[67.5,1208],[67.5,1316],[67.6,1430],[67.6,1527],[67.6,1608],[67.7,1685],[67.7,1768],[67.7,1853],[67.7,1941],[67.7,2050],[67.8,2155],[67.9,2259],[67.8,2333],[67.8,2420],[67.5,2503],[64.8,2591],[61.4,2682],[58.3,2788],[52.4,2896],[50.7,3012],[46.5,3123],[34.4,3239],[28.3,3348],[26.6,3469],[15,3588],[17.2,3697],[24.8,3823],[43.2,3956],[59.8,4088],[62.2,4168],[67.8,4255],[77.2,4342],[79.2,4432],[89.7,4546],[91.7,4652],[93,4764],[93.8,4875],[95.1,5004],[95.3,5125],[95.3,5240],[95.3,5339],[95.3,5413],[95.3,5498],[95.2,5582],[94.3,5671],[92.9,5776],[86.5,5925],[75.3,6042],[75.2,6123],[75.2,6199],[75.2,6279],[75.3,6363],[75.6,6452],[75.7,6539],[75.7,6623],[75.7,6707],[75.7,6793],[75.7,6883],[75.8,7059],[76,7148],[75.8,7241],[75.8,7331],[75.8,7430],[76,7526],[76.1,7622],[76,7719],[76,7815],[76,7914],[76,8013],[76.1,8107],[75.4,8213],[72.4,8316],[69.8,8425],[67.9,8536],[66.6,8655],[64.5,8769],[63.7,8885],[63.7,8999],[64.2,9111],[66.6,9229],[68.4,9349],[70.1,9469],[71.9,9595],[73.7,9714],[76.3,9840],[76.4,9956],[76.8,10073],[78.1,10191],[78.4,10302],[78.9,10427],[78.9,10545],[78.9,10625],[78.9,10709],[79.3,10791],[79.4,10878],[79.5,10960],[81.1,11079],[82.2,11245],[82.3,11324],[82.5,11407],[82.7,11493],[83.2,11579],[83.6,11666],[83.9,11778],[85,11885],[86.3,12002],[86.4,12105],[86.4,12213],[86.4,12316],[86.9,12396],[87.3,12477],[87.5,12561],[87.6,12645],[87.7,12744],[87.7,12828],[87.7,12905],[87.8,12995],[88.1,13077],[88.2,13165],[89.2,13268]]",686.0143,688.3414,92.42232897,1.6556,"[{""rating"":92.42232896837459,""responseTime"":1.6555999999941378}]",space,1.7765,,688.3415,Definitely yes,100,688.3477,,,[],,0,1,1,1,1,audio/Narrative7Situation1.wav,audio/Narrative8Situation1.wav,audio/Narrative5Situation1.wav,audio/Narrative6Situation1.wav,2,5,5,2,,,,,,,,,,,,,,,,,,,,,,,,,,,,,,,,,,,,,,,
,,,,,59ed2107ae9f950001d848f6,2025-07-07_22h02.23.467,group3.4_multiperson,2023.2.2,Linux x86_64,60.07449237,686c2ebf0248f13bef9af11f,686c7bffd45a59c63b751c75,,,,,,,,,,,,,,,,,,,,,,,,,,,,,688.3488,2,audio/Narrative5Situation2.wav,691.357,,691.3571,720.8387,"[[58.6,233],[59.2,343],[56.1,465],[55.9,574],[56.1,681],[56.8,798],[58,921],[58.6,1047],[61.4,1188],[61.7,1314],[61.7,1415],[61.7,1493],[61.7,1572],[61.4,1660],[60.2,1745],[56,1827],[51.6,1926],[50.6,2038],[50.6,2141],[50.1,2246],[49.9,2353],[49.5,2461],[49.3,2542],[49.3,2620],[49.3,2704],[49.3,2788],[49.2,2883],[49,2985],[48.9,3091],[48.9,3193],[48.9,3296],[48.8,3401],[47.2,3509],[46.8,3623],[45.8,3739],[44.6,3863],[42.7,3988],[41.6,4101],[41.4,4186],[41,4270],[40.5,4359],[40.4,4445],[40.5,4533],[41.9,4646],[43.5,4757],[43.9,4865],[44.1,4977],[44.1,5086],[44.4,5187],[44.4,5268],[44.8,5357],[45.3,5445],[45.5,5519],[45.6,5622],[45.9,5729],[46.7,5836],[48.4,5955],[49.5,6035],[50,6117],[50.1,6208],[50.2,6285],[50.3,6367],[51.1,6452],[52.1,6540],[52.3,6631],[52.5,6712],[52.6,6798],[53.6,6892],[53.9,6986],[54.1,7076],[54.5,7182],[55.1,7287],[55.1,7391],[55,7493],[54.8,7602],[54.8,7706],[54.8,7813],[54.8,7892],[54.8,7966],[54.8,8052],[54.9,8137],[56.2,8234],[57.4,8349],[57.6,8447],[58.5,8558],[59.7,8670],[60.8,8779],[62.5,8895],[63.4,9010],[64.3,9127],[66,9241],[66.9,9375],[67.9,9497],[69.7,9621],[70.6,9716],[71,9794],[71.3,9873],[71.6,9952],[71.8,10035],[71.9,10142],[72.1,10247],[72.6,10359],[72.9,10471],[73.4,10587],[73.6,10692],[74.1,10805],[77.4,10911],[77.7,10986],[81.2,11071],[82.8,11155],[85.1,11247],[86.7,11354],[88.1,11465],[88.4,11576],[89.1,11687],[89.8,11804],[93.5,11918],[94.4,12047],[96.1,12136],[96.2,12216],[96.2,12297],[96.8,12391],[97.9,12491],[99,12620],[100,12767],[100,12845],[100,12927],[100,13011],[100,13097],[100,13184],[100,13262],[100,13347],[100,13458],[100,13566],[100,13677],[100,13782],[100,13890],[100,13976],[100,14059],[100,14143],[100,14226],[100,14312],[100,14410],[100,14513],[100,14623],[100,14728],[100,14833],[100,14943],[100,15048],[100,15156],[100,15263],[100,15379],[100,15460],[100,15542],[100,15625],[100,15708],[100,15802],[100,15906],[100,16009],[100,16115],[100,16221],[100,16329],[100,16434],[100,16541],[100,16643],[100,16747],[100,16850],[100,16962],[100,17072],[100,17180],[100,17261],[100,17376],[100,17516],[100,17599],[100,17679],[100,17760],[100,17846],[100,17930],[100,18014],[100,18102],[100,18197],[100,18279],[100,18377],[100,18471],[100,18562],[100,18651],[97.6,18775],[96.9,18877],[96.9,18970],[96.9,19065],[96.4,19168],[95.3,19279],[95.3,19385],[92.9,19499],[86.6,19617],[84.4,19737],[84.1,19848],[80,19965],[78.4,20072],[78.7,20192],[78.9,20306],[79.6,20421],[83.9,20546],[88.6,20666],[90.1,20796],[97.7,20912],[100,21031],[100,21149],[100,21269],[100,21386],[100,21501],[100,21587],[100,21670],[100,21751],[100,21849],[100,21952],[100,22067],[100,22179],[100,22251],[100,22334],[100,22432],[92.1,22517],[87.7,22605],[84.7,22706],[78.6,22848],[71.3,22930],[70.4,23018],[69.5,23103],[68.5,23200],[65.2,23299],[63.1,23443],[61.9,23527],[61.4,23615],[60.9,23692],[58.9,23787],[48.1,23877],[33.2,23991],[27.4,24104],[24,24228],[22.8,24347],[23.9,24475],[46.7,25369],[39.6,25455],[34.3,25544],[34.2,25632],[33.9,25750],[33.6,25836],[33.4,25923],[33.1,26016],[32.1,26109],[31.3,26212],[30.6,26306],[30.6,26406],[30.7,26500],[30.7,26596],[28.7,26701],[28.6,26803],[27.5,26899],[26.1,27015],[22.1,27117],[20.1,27230],[17.7,27337],[17.9,27444],[18,27518],[18.3,27598],[18.6,27682],[18.7,27770],[18.8,27858],[18.9,27958],[19.1,28062],[19.1,28164],[19.1,28271],[19.1,28374],[19.1,28479],[18.7,28593],[17.6,28701],[16.5,28812],[9.7,28928],[9.8,29038],[9.8,29139],[9.8,29219],[10,29304],[10,29382],[10.2,29464]]",720.839,723.4891,89.23641467,1.3772,"[{""rating"":89.23641467138455,""responseTime"":1.3772000000030857}]",space,2.0973,,723.4893,Not at all,0,723.503,,,[],,0,2,2,2,1,audio/Narrative7Situation2.wav,audio/Narrative8Situation2.wav,audio/Narrative5Situation2.wav,audio/Narrative6Situation2.wav,3,3,3,3,,,,,,,,,,,,,,,,,,,,,,,,,,,,,,,,,,,,,,,
,,,,,59ed2107ae9f950001d848f6,2025-07-07_22h02.23.467,group3.4_multiperson,2023.2.2,Linux x86_64,60.07449237,686c2ebf0248f13bef9af11f,686c7bffd45a59c63b751c75,,,,,,,,,,,,,,,,,,,,,,,,,,,,,723.504,2,audio/Narrative5Situation3.wav,726.5205,,726.5208,740.4649,"[[51,280],[51,366],[51,441],[51,529],[51,617],[51.3,707],[51.4,815],[52.2,922],[56.3,1041],[56.4,1150],[56.5,1261],[56.4,1340],[56.2,1424],[54.1,1512],[54,1600],[51.3,1700],[44.3,1826],[39.3,1931],[31.3,2010],[27.9,2102],[5.4,2194],[4.7,2298],[4.2,2440],[4.3,2529],[4.3,2605],[4.6,2693],[8.8,2780],[14.8,2863],[24.3,2952],[26,3038],[36.6,3150],[38.6,3271],[47.8,3377],[48.4,3458],[49.6,3538],[51.3,3625],[53.4,3715],[54,3811],[56.9,3954],[57.2,4030],[57.6,4112],[58.9,4202],[60.2,4289],[61.3,4395],[63.5,4533],[67.4,4623],[68.7,4708],[69.9,4788],[71,4870],[75.3,4961],[76.8,5056],[76.9,5155],[77.8,5275],[78.9,5387],[79.2,5490],[79.2,5594],[79.2,5700],[79.2,5806],[79.1,5909],[78.7,6021],[76.1,6130],[72.1,6222],[69.4,6304],[68.4,6387],[67.8,6475],[67.6,6569],[67.6,6671],[67.6,6771],[67.9,6885],[68.7,7014],[71.7,7124],[74.1,7226],[75.3,7331],[79.1,7475],[79.9,7558],[80.8,7658],[83.1,7817],[87.4,7986],[89.2,8142],[90.2,8260],[90.7,8334],[90.9,8419],[92,8509],[92.7,8595],[92.9,8680],[92.9,8761],[93.3,8855],[93.5,8943],[93.5,9028],[93.6,9110],[93.6,9182],[93.6,9266],[93.6,9349],[93.5,9441],[93.5,9528],[93.5,9655],[93.5,9748],[93.5,9831],[96.6,9923],[97.6,10006],[97.7,10089],[98.3,10201],[99.6,10309],[100,10416],[100,10555],[100,10705],[100,10863],[100,10972],[100,11049],[100,11133],[100,11213],[100,11297],[100,11396],[100,11500],[99.9,11614],[99.5,11727],[99.2,11845],[99.1,11956],[98.1,12075],[96.9,12192],[95.6,12316],[95.1,12448],[94.1,12566],[91.5,12654],[90.3,12734],[90,12811],[89.1,12902],[88.2,13014],[86.6,13149],[84.1,13231],[83.2,13311],[80,13398],[79.4,13478],[76.7,13582],[75.7,13725],[71.9,13884]]",740.4653,743.0193,72.14731721,1.8859,"[{""rating"":72.14731721145633,""responseTime"":1.8858999999985144}]",space,1.9932,,743.0194,Not at all,0,743.0287,,,[],,0,3,3,3,1,audio/Narrative7Situation3.wav,audio/Narrative8Situation3.wav,audio/Narrative5Situation3.wav,audio/Narrative6Situation3.wav,8,4,3,5,,,,,,,,,,,,,,,,,,,,,,,,,,,,,,,,,,,,,,,
,,,,,59ed2107ae9f950001d848f6,2025-07-07_22h02.23.467,group3.4_multiperson,2023.2.2,Linux x86_64,60.07449237,686c2ebf0248f13bef9af11f,686c7bffd45a59c63b751c75,,,,,,,,,,,,,,,,,,,,,,,,,,,,,743.0297,2,audio/Narrative5Situation4.wav,744.0303,,744.0304,764.4272,"[[70.2,124],[69.7,199],[69.1,287],[68,368],[62.9,465],[59.1,579],[58.4,687],[56.8,801],[55.3,940],[55.5,1096],[55.6,1189],[55.6,1262],[55.6,1346],[55.6,1432],[57.6,1518],[66.4,1635],[75.8,1800],[84.9,1946],[89.8,2035],[91.9,2115],[95.8,2195],[96.1,2280],[97.1,2368],[97.2,2495],[98,2588],[98.5,2666],[99.8,2748],[100,2829],[100,2912],[100,3001],[100,3092],[100,3162],[100,3245],[100,3328],[100,3411],[99.9,3494],[99.6,3594],[97.4,3759],[92.8,3913],[87.2,4072],[83.3,4236],[79.8,4379],[75.7,4466],[73.2,4557],[65.6,4654],[61.5,4767],[61.1,4875],[55.9,4998],[45.6,5111],[43.5,5225],[37.1,5343],[31.2,5469],[25.5,5583],[21.1,5696],[7.7,5811],[0.2,7215],[0.9,7364],[1.4,7447],[1.6,7529],[2.5,7616],[3,7709],[3.2,7805],[3.2,7936],[3.6,8078],[3.6,8155],[3.6,8239],[3.6,8322],[3.6,8406],[3.6,8489],[3.4,8581],[3,8674],[2.8,8786],[2.9,8895],[6.5,9023],[13.3,9139],[15.5,9257],[24.7,9389],[38.7,9516],[41,9640],[48.7,9763],[49.8,9890],[52,10023],[52.7,10154],[53.4,10244],[54.6,10328],[56,10418],[56.4,10501],[56.9,10591],[57.2,10708],[58.4,10825],[58.7,10905],[60.1,11001],[60.6,11094],[61.2,11187],[62,11296],[62,11402],[62.3,11509],[63.6,11620],[66.3,11725],[67.6,11850],[69,11967],[69.8,12091],[70,12184],[70,12264],[73.7,12353],[72.7,12441],[72.4,12526],[73.4,12631],[83.5,12750],[83.9,12859],[85.6,12977],[86.3,13085],[88.6,13217],[89.9,13343],[90.1,13463],[90.6,13562],[90.9,13639],[91.3,13720],[91.6,13801],[91.7,13884],[91.8,13974],[91.7,14057],[91.9,14159],[92.8,14277],[93.1,14360],[93.2,14438],[93.3,14518],[93.9,14608],[93.9,14687],[94.4,14773],[94.5,14850],[94.8,14938],[95.6,15021],[95.7,15119],[96,15274],[96.3,15432],[96.6,15586],[98.1,15742],[98.3,15900],[98.7,16079],[99.6,16244],[100,16403],[100,16558],[100,16649],[100,16735],[100,16818],[100,16898],[100,16983],[100,17091],[100,17195],[100,17298],[100,17403],[100,17505],[100,17616],[100,17722],[100,17822],[100,17932],[100,18032],[100,18139],[100,18241],[100,18341],[100,18449],[100,18559],[100,18671],[99.4,18785],[99,18903],[98.1,19021],[98.1,19137],[97.6,19256],[97,19381],[96.5,19496],[96.4,19612],[96.3,19730],[96.3,19841],[96.4,19917],[96.9,20001],[98.1,20095],[99.2,20181],[100,20280]]",764.4276,767.9728,100,3.2626,"[{""rating"":97.73059410494585,""responseTime"":2.4069999999999254},{""rating"":100,""responseTime"":3.262599999993995}]",space,3.0077,,767.973,Partially,50,767.9826,,,[],,0,4,4,4,1,audio/Narrative7Situation4.wav,audio/Narrative8Situation4.wav,audio/Narrative5Situation4.wav,audio/Narrative6Situation4.wav,3,3,1,2,,,,,,,,,,,,,,,,,,,,,,,,,,,,,,,,,,,,,,,
,,,,,59ed2107ae9f950001d848f6,2025-07-07_22h02.23.467,group3.4_multiperson,2023.2.2,Linux x86_64,60.07449237,686c2ebf0248f13bef9af11f,686c7bffd45a59c63b751c75,,,,,,,,,,,,,,,,,,,,,,,,,,,,,767.9836,2,audio/Narrative5Situation5.wav,772.9871,,772.9872,788.4771,"[[62.8,237],[62.8,366],[62.8,501],[62.8,578],[62.9,663],[63,746],[64.1,839],[64.7,941],[65.1,1045],[65.2,1151],[66,1268],[67.8,1395],[68.6,1500],[84.3,2050],[94.4,2163],[97.2,2273],[98.6,2387],[98.6,2487],[98.3,2603],[98.1,2723],[98.1,2876],[96.5,3033],[96.5,3191],[95.8,3350],[94,3504],[93.6,3661],[93.1,3822],[93,3977],[49.6,4139],[39,4300],[0.7,5569],[1.7,5730],[2.6,5887],[2.4,6041],[2.3,6198],[2.1,6363],[2.1,6516],[2.1,6671],[2,6827],[2,6985],[2,7139],[2,7290],[1.7,7446],[1.4,7602],[1,7757],[0.5,7914],[0.3,8072],[0.1,10429],[0.3,10583],[2.1,10744],[3.7,10906],[4.5,11065],[4.6,11222],[4.6,11375],[4.7,11533],[4.5,11690],[3.5,11848],[1.9,12003],[0.4,14982],[0.5,15144],[0.8,15300],[0.9,15458]]",788.4773,794.2566,0,4.1839,"[{""rating"":6.034223637178676,""responseTime"":2.7129999999999654},{""rating"":0,""responseTime"":4.183899999998516}]",space,5.2035,,794.2568,Not at all,0,794.2673,,,[],,0,5,5,5,1,audio/Narrative7Situation5.wav,audio/Narrative8Situation5.wav,audio/Narrative5Situation5.wav,audio/Narrative6Situation5.wav,5,2,5,2,,,,,,,,,,,,,,,,,,,,,,,,,,,,,,,,,,,,,,,
,,,,,59ed2107ae9f950001d848f6,2025-07-07_22h02.23.467,group3.4_multiperson,2023.2.2,Linux x86_64,60.07449237,686c2ebf0248f13bef9af11f,686c7bffd45a59c63b751c75,,,,,,,,,,,,,,,,,,,,,,,,,,,,,794.2694,2,audio/Narrative5Situation6.wav,797.2837,,797.2838,803.0213,"[[44.1,163],[43.3,321],[42.1,479],[31.4,645],[31.4,808],[31.5,960],[31.6,1118],[31.6,1270],[31.8,1429],[34.4,1593],[38,1747],[39.2,1911],[49.5,2070],[57,2232],[66.2,2387],[69.8,2545],[74.5,2715],[77.4,2870],[77.5,3026],[77.5,3180],[78.3,3346],[78.3,3499],[78.6,3656],[79.9,3814],[84.8,3980],[85.9,4138],[87.7,4306],[88.1,4461],[90,4625],[90.9,4783],[92.5,4939],[94,5105],[94.5,5263],[94.7,5423],[94.6,5581],[94.5,5737]]",803.0216,805.2734,94.28847011,1.0704,"[{""rating"":94.28847011379055,""responseTime"":1.0703999999984717}]",space,1.6905,,805.2736,Not at all,0,805.2795,,,[],,0,6,6,6,1,audio/Narrative7Situation6.wav,audio/Narrative8Situation6.wav,audio/Narrative5Situation6.wav,audio/Narrative6Situation6.wav,3,2,3,2,,,,,,,,,,,,,,,,,,,,,,,,,,,,,,,,,,,,,,,
,,,,,59ed2107ae9f950001d848f6,2025-07-07_22h02.23.467,group3.4_multiperson,2023.2.2,Linux x86_64,60.07449237,686c2ebf0248f13bef9af11f,686c7bffd45a59c63b751c75,,,,,,,,,,,,,,,,,,,,,,,,,,,,,805.2803,2,audio/Narrative5Situation7.wav,809.2813,,809.2813,830.3739,"[[56.3,184],[55.2,348],[55.4,502],[55.4,656],[55.2,806],[55.7,973],[63.4,1134],[65.2,1293],[67.8,1456],[73.3,1616],[76.1,1779],[78.8,1937],[80.2,2097],[80.7,2256],[80.9,2409],[80.9,2563],[82.1,2725],[82.5,2885],[82.6,3040],[82.7,3187],[83.1,3352],[83.3,3508],[83.8,3663],[84.3,3824],[86.1,3981],[86.8,4142],[86.8,4296],[86.8,4449],[86.8,4606],[86.7,4762],[86.6,4915],[86.5,5072],[86.2,5227],[85,5381],[82.6,5540],[80.9,5699],[79.5,5862],[78.4,6028],[78.4,6182],[78.5,6339],[78.7,6495],[78.9,6651],[79.1,6810],[79.3,6969],[79.3,7124],[79.5,7279],[79.5,7437],[79.5,7586],[79.6,7746],[79.6,7898],[79.7,8060],[80.1,8216],[81.5,8379],[82.2,8538],[82.3,8693],[82.8,8851],[83.4,9008],[83.6,9168],[83.5,9327],[83.2,9482],[79.8,9644],[77.4,9806],[74.7,9962],[59.8,10122],[54.3,10290],[48,10452],[38.4,10609],[12.5,11077],[12.4,11234],[13.1,11397],[14.1,11558],[14.7,11716],[14.9,11876],[13.2,12035],[12.9,12190],[12.8,12346],[12.8,12501],[12.9,12657],[13.7,12816],[14.2,12974],[13.9,13134],[12.2,13289],[8.7,13444],[6.6,13606],[3.4,13769],[3.5,13927],[3.6,14084],[3.6,14237],[3.6,14393],[3.6,14552],[3.7,14719],[3.9,14875],[4,15032],[4.1,15187],[4.1,15347],[4.1,15499],[3.7,15655],[2.9,15816],[2.2,15970],[0.7,16127],[0.1,18818],[1.3,18975],[3.3,19165],[3.3,19320],[3.2,19475],[3.2,19630],[3.8,19793],[3.8,19948],[3.8,20100],[3.8,20255],[3.8,20408],[3.8,20564],[3.8,20720],[3.8,20876],[3.8,21032]]",830.3742,832.6023,7.239516423,1.7241,"[{""rating"":7.239516423483994,""responseTime"":1.7240999999941096}]",space,1.6547,,832.6025,Not at all,0,832.6113,,,[],,0,7,7,7,1,audio/Narrative7Situation7.wav,audio/Narrative8Situation7.wav,audio/Narrative5Situation7.wav,audio/Narrative6Situation7.wav,5,3,4,5,,,,,,,,,,,,,,,,,,,,,,,,,,,,,,,,,,,,,,,
,,,,,59ed2107ae9f950001d848f6,2025-07-07_22h02.23.467,group3.4_multiperson,2023.2.2,Linux x86_64,60.07449237,686c2ebf0248f13bef9af11f,686c7bffd45a59c63b751c75,,,,,,,,,,,,,,,,,,,,,,,,,,,,,832.6125,2,audio/Narrative5Situation8.wav,835.6142,,835.6144,844.497,"[[999,1],[999,164],[999,318],[999,476],[9.9,631],[10,784],[10.2,946],[10,1107],[10,1261],[10.2,1417],[26.7,1585],[29.2,1749],[29.3,1911],[21.2,2069],[18.5,2227],[0.3,3167],[0.8,3326],[1.8,3486],[1.8,3643],[1.8,3798],[1.8,3950],[1.8,4107],[1.8,4259],[1.7,4418],[1.4,4577],[1.2,4737],[1,4894],[0.8,5052],[0.7,5210],[0.7,5365],[0.8,5521],[0.8,5678],[0.9,5836],[1.1,5995],[1.2,6154],[2.8,6311],[3.7,6478],[4,6634],[4.1,6791],[3.7,6947],[3.2,7107],[3.3,7266],[3,7423],[3.1,7579],[3.2,7733],[3.2,7889],[3.3,8044],[3.3,8201],[3.3,8357],[3.4,8510],[3.4,8668],[3.4,8820]]",844.4973,845.7786,3.446843523,0.6357,"[{""rating"":3.446843523179494,""responseTime"":0.6356999999954951}]",space,0.7131,,845.7787,Partially,50,845.7883,,,[],,0,8,8,8,1,audio/Narrative7Situation8.wav,audio/Narrative8Situation8.wav,audio/Narrative5Situation8.wav,audio/Narrative6Situation8.wav,2,3,3,5,,,,,,,,,,,,,,,,,,,,,,,,,,,,,,,,,,,,,,,
,,,,,59ed2107ae9f950001d848f6,2025-07-07_22h02.23.467,group3.4_multiperson,2023.2.2,Linux x86_64,60.07449237,686c2ebf0248f13bef9af11f,686c7bffd45a59c63b751c75,,,,,,,,,,,,,,,,,,,,,,,,,,,,,845.7891,2,audio/Narrative5Situation9.wav,848.8142,,848.8143,888.4151,"[[4,182],[4,341],[4.1,493],[4.1,648],[4.1,802],[4.1,961],[4.6,1118],[7.7,1283],[13.1,1435],[33.9,1600],[40.5,1765],[50.4,1920],[56.2,2080],[62.9,2269],[65.9,2425],[68.3,2583],[69.8,2750],[73.6,2912],[75.3,3067],[77.7,3230],[79.8,3394],[80.5,3552],[81.3,3712],[81.5,3866],[82,4022],[82.6,4184],[84.6,4341],[85.4,4495],[86.5,4660],[87.4,4823],[88.5,4984],[88.5,5139],[88.5,5294],[89.6,5454],[91.3,5617],[92.9,5781],[93.6,5937],[94.7,6101],[94.8,6253],[95.1,6415],[96.5,6572],[96.6,6731],[97.8,6894],[98.7,7061],[100,7227],[100,7376],[100,7530],[100,7685],[100,7839],[100,8000],[100,8146],[100,8304],[100,8457],[100,8617],[100,8769],[98.9,8929],[98.4,9086],[98.5,9245],[98.7,9397],[98.9,9559],[98.9,9716],[98.9,9867],[98.9,10050],[98.9,10225],[98.8,10382],[98.5,10539],[98.4,10692],[98.3,10844],[97.1,11004],[96.9,11160],[95.9,11318],[95.8,11473],[96,11630],[96.3,11784],[96.6,11942],[97.8,12107],[98.4,12263],[99,12421],[100,12578],[100,12738],[100,12897],[100,13049],[100,13211],[100,13363],[100,13519],[100,13676],[100,13832],[99.2,13989],[97.6,14147],[97.3,14305],[97.3,14461],[97.6,14618],[98.2,14772],[99.2,14930],[100,15098],[100,15250],[100,15410],[100,15565],[100,15722],[100,15878],[100,16032],[100,16193],[100,16345],[100,16500],[100,16655],[99.3,16815],[98.5,16979],[97.9,17133],[97.1,17295],[97.3,17452],[98,17615],[99.2,17777],[99.7,17937],[100,18094],[100,18249],[100,18408],[100,18567],[100,18718],[100,18874],[100,19030],[100,19188],[100,19344],[100,19500],[100,19656],[100,20127],[100,20285],[100,20438],[99.3,20598],[99.1,20752],[98.7,20912],[98.7,21068],[99.2,21233],[99.8,21391],[100,21552],[100,21704],[100,21860],[100,22017],[100,22169],[100,22325],[100,22479],[100,22635],[100,22788],[100,22941],[100,23098],[100,23250],[100,23408],[100,23559],[100,23718],[100,23870],[100,24026],[99.1,24202],[98.7,24354],[98.8,24511],[98.9,24668],[99.1,24822],[99.6,24980],[100,25137],[100,25292],[100,25448],[100,25596],[100,25756],[100,25910],[100,26066],[100,26218],[100,26372],[100,26525],[100,26682],[100,26836],[100,26991],[100,27148],[100,27307],[100,27462],[100,27613],[100,27769],[100,27931],[98.9,28091],[98.3,28243],[96.9,28402],[97.2,28560],[99,28718],[100,28881],[100,29034],[100,29195],[100,29349],[100,29506],[100,29662],[100,29818],[100,29978],[100,30133],[100,30294],[100,30444],[100,30599],[100,30755],[100,30912],[99.8,31070],[98.7,31227],[98,31385],[96.5,31545],[95.1,31702],[95.1,31860],[95.1,32016],[95.1,32168],[95.1,32326],[95.4,32482],[95.8,32638],[97,32804],[98.9,32961],[100,33117],[100,33272],[100,33430],[100,33589],[100,33750],[100,33906],[100,34061],[100,34218],[98.6,34376],[96.8,34539],[94.8,34697],[94,34860],[94.4,35020],[95.2,35176],[98.8,35343],[99.7,35497],[100,35658],[100,35810],[100,35969],[100,36120],[100,36275],[100,36429],[100,36589],[100,36740],[100,36892],[100,37045],[100,37205],[100,37361],[100,37518],[100,37674],[100,37827],[100,37977],[78.4,38144],[78.4,38291],[52.6,38460],[52.1,38617],[52.2,38773],[54.3,38930],[67.6,39084],[70.4,39250],[75.3,39407],[77,39566]]",888.4155,892.3826,100,2.8594,"[{""rating"":100,""responseTime"":2.8594000000059623}]",space,3.4017,,892.3828,Definitely yes,100,892.3931,,,[],,0,9,9,9,1,audio/Narrative7Situation9.wav,audio/Narrative8Situation9.wav,audio/Narrative5Situation9.wav,audio/Narrative6Situation9.wav,2,3,3,4,,,,,,,,,,,,,,,,,,,,,,,,,,,,,,,,,,,,,,,
,,,,,59ed2107ae9f950001d848f6,2025-07-07_22h02.23.467,group3.4_multiperson,2023.2.2,Linux x86_64,60.07449237,686c2ebf0248f13bef9af11f,686c7bffd45a59c63b751c75,,,,,,,,,,,,,,,,,,,,,,,,,,,,,892.3943,2,audio/Narrative6Situation1.wav,894.4005,,894.4006,921.0233,"[[63.7,185],[63.7,338],[63.8,492],[63.7,647],[63.7,802],[64.3,960],[67,1123],[68.3,1279],[68.9,1437],[62.1,1595],[48,1754],[9.4,3085],[7.4,3236],[5.3,3397],[3.1,3561],[1.7,3725],[1.5,3877],[1.5,4033],[1.5,4187],[1.5,4343],[1.5,4496],[5.9,4656],[13.2,4816],[14.8,4975],[15,5134],[35.7,5296],[88.9,5455],[89.1,5612],[98.5,5773],[98.7,5928],[98.5,6083],[97.4,6246],[97.4,6403],[97.5,6559],[97.5,6713],[97.3,6870],[96.9,7024],[96.8,7180],[96.6,7337],[95.7,7495],[85.9,7657],[74.1,7819],[52.8,7980],[47.6,8141],[47.5,8294],[56.4,8455],[77.8,8615],[81.2,8776],[83.1,8940],[86.1,9104],[88.9,9266],[89.1,9420],[89.3,9569],[89.4,9733],[89.4,9891],[89.3,10046],[89.3,10203],[88.9,10356],[88.8,10513],[88.7,10665],[88.6,10821],[88.5,10976],[87.6,11132],[82.2,11289],[73.6,11446],[19.7,11608],[19.7,11763],[1.8,12564],[2.6,12724],[7.8,12880],[7.8,13035],[7.8,13190],[7.8,13341],[7.8,13498],[7.8,13653],[7.6,13818],[7.4,13973],[5.6,14131],[1.7,14293],[1.6,17261],[3.9,17420],[4.6,17575],[4.6,17731],[4.6,17887],[4.6,18043],[4.6,18196],[4.6,18352],[4.6,18509],[4.6,18659],[4.6,18816],[4.6,18972],[4.6,19128],[4.6,19280],[4.6,19436],[4.6,19590],[4.6,19743],[5.8,19903],[6.8,20059],[8.5,20214],[10.8,20373],[15.4,20532],[23.2,20692],[28,20861],[34.4,21024],[35.2,21186],[36.3,21352],[37.4,21516],[38.3,21671],[40.8,21834],[42.6,21991],[44.3,22147],[44.7,22306],[45.4,22461],[48.4,22644],[49,22800],[50.2,22961],[51.6,23122],[52.5,23280],[52.8,23434],[53.5,23590],[53.9,23751],[55.6,23911],[56.5,24070],[57,24233],[58.3,24394],[61.5,24554],[65,24710],[69.6,24868],[75.5,25029],[81.4,25191],[85.7,25350],[90.1,25508],[91.9,25671],[93.8,25832],[96,25990],[98.8,26150],[100,26308],[100,26464],[100,26622]]",921.0237,926.0538,6.380596999,4.4504,"[{""rating"":99.93686874985993,""responseTime"":1.4483999999985144},{""rating"":6.38059699921551,""responseTime"":4.450399999998581}]",space,4.4605,,926.054,Partially,50,926.0664,,,[],,0,10,10,10,1,audio/Narrative8Situation1.wav,audio/Narrative7Situation1.wav,audio/Narrative6Situation1.wav,audio/Narrative5Situation1.wav,5,2,2,5,,,,,,,,,,,,,,,,,,,,,,,,,,,,,,,,,,,,,,,
,,,,,59ed2107ae9f950001d848f6,2025-07-07_22h02.23.467,group3.4_multiperson,2023.2.2,Linux x86_64,60.07449237,686c2ebf0248f13bef9af11f,686c7bffd45a59c63b751c75,,,,,,,,,,,,,,,,,,,,,,,,,,,,,926.0672,2,audio/Narrative6Situation2.wav,929.0895,,929.0897,957.6395,"[[999,1],[999,161],[999,316],[999,468],[47.7,625],[47.3,793],[49,956],[49,1111],[49,1270],[49.5,1429],[75.5,1594],[77,1754],[97.7,1915],[100,2076],[100,2235],[100,2395],[99.1,2553],[97.6,2715],[95.9,2878],[95.9,3040],[95.9,3191],[95.9,3348],[96,3501],[96,3655],[96,3811],[96,3969],[96.1,4126],[96.3,4282],[97.1,4441],[98.6,4604],[100,4767],[100,4924],[100,5082],[100,5238],[100,5394],[100,5548],[100,5703],[100,5864],[100,6020],[100,6174],[100,6330],[100,6486],[100,6641],[100,6795],[100,6950],[99.1,7111],[98.6,7266],[98,7416],[97.6,7573],[96.7,7728],[95.3,7887],[94.6,8050],[94.5,8207],[94.6,8363],[95.1,8512],[96.7,8671],[98,8830],[100,8988],[100,9145],[100,9299],[100,9459],[100,9608],[100,9765],[100,9922],[100,10073],[100,10232],[100,10387],[100,10540],[100,10695],[99.2,10853],[97.3,11006],[95.7,11175],[94.6,11336],[94,11493],[94.2,11654],[96.1,11812],[96.7,11972],[98.5,12136],[99.7,12294],[100,12455],[100,12610],[100,12767],[100,12922],[100,13076],[100,13227],[100,13392],[100,13546],[100,13699],[100,13855],[100,14012],[100,14166],[100,14320],[100,14475],[100,14630],[100,14786],[100,14940],[99.7,15097],[98.7,15255],[98.5,15413],[98.7,15570],[99,15728],[99.3,15887],[100,16047],[100,16203],[100,16355],[100,16513],[100,16669],[100,16823],[100,16975],[100,17132],[100,17286],[100,17442],[100,17594],[100,17757],[100,17910],[99.7,18062],[99.5,18224],[99.5,18375],[99.5,18535],[99.3,18690],[99.3,18847],[99.6,19001],[99.7,19155],[100,19313],[100,19471],[100,19629],[100,19785],[100,19941],[100,20095],[98.3,20252],[96.3,20409],[96,20579],[96.3,20734],[96.9,20890],[98.1,21047],[99.6,21203],[100,21355],[100,21518],[100,21665],[100,21827],[100,21980],[100,22132],[100,22286],[100,22441],[100,22593],[100,22749],[100,22906],[100,23063],[100,23224],[100,23377],[100,23526],[98.7,23702],[98.6,23864],[98.4,24026],[98.7,24176],[99.3,24336],[100,24495],[100,24656],[100,24814],[100,24970],[100,25132],[100,25287],[100,25445],[100,25599],[100,25752],[100,25911],[100,26075],[100,26228],[99.7,26384],[98.4,26542],[96.9,26703],[97.1,26859],[98,27017],[99,27176],[100,27333],[100,27489],[100,27646],[100,27801],[100,27948],[100,28110],[100,28269],[100,28427]]",957.6399,960.2875,95.67988439,1.9065,"[{""rating"":99.66640589600095,""responseTime"":1.1820000000000164},{""rating"":95.67988439391073,""responseTime"":1.906500000000051}]",space,2.0745,,960.2877,Partially,50,960.2965,,,[],,0,11,11,11,1,audio/Narrative8Situation2.wav,audio/Narrative7Situation2.wav,audio/Narrative6Situation2.wav,audio/Narrative5Situation2.wav,3,3,3,3,,,,,,,,,,,,,,,,,,,,,,,,,,,,,,,,,,,,,,,
,,,,,59ed2107ae9f950001d848f6,2025-07-07_22h02.23.467,group3.4_multiperson,2023.2.2,Linux x86_64,60.07449237,686c2ebf0248f13bef9af11f,686c7bffd45a59c63b751c75,,,,,,,,,,,,,,,,,,,,,,,,,,,,,960.2974,2,audio/Narrative6Situation3.wav,965.3165,,965.3165,977.9915,"[[100,180],[100,330],[100,488],[100,649],[100,804],[99.5,961],[98.6,1119],[97.1,1282],[87.4,1452],[87.6,1609],[87.7,1769],[89.2,1928],[90.7,2090],[93.1,2248],[93.9,2400],[95.5,2564],[95.8,2720],[95.7,2879],[94.3,3035],[83.8,3200],[78.6,3352],[63.1,3523],[33.2,3681],[3.3,3842],[2.3,4004],[3.5,4160],[3.7,4321],[3.7,4472],[3.6,4635],[3.4,4789],[3.1,4945],[1.4,5104],[0.1,5262],[0.1,5576],[0.2,5732],[0.3,5891],[0.6,6047],[1.6,6209],[3.3,6373],[5.6,6535],[8,6690],[37.7,6852],[56.4,7017],[59.1,7173],[63.3,7332],[64.7,7494],[64.8,7646],[65.3,7803],[65.6,7957],[66.8,8120],[68.6,8282],[69.3,8442],[70.1,8599],[70.6,8759],[71.8,8919],[82.4,9081],[82.7,9236],[82.7,9399],[83.5,9555],[84.3,9715],[84.6,9876],[86.1,10033],[88.9,10189],[89.2,10345],[89.2,10501],[89.1,10655],[89,10816],[88.2,10975],[87.1,11137],[85.1,11291],[81.9,11448],[79.4,11610],[78.1,11766],[77.7,11920],[76.4,12077],[76.4,12231],[76.5,12390],[73.9,12552]]",977.9919,979.7842,71.20601753,0.926,"[{""rating"":71.20601752679877,""responseTime"":0.9259999999999309}]",space,1.2204,,979.7843,Partially,50,979.7915,,,[],,0,12,12,12,1,audio/Narrative8Situation3.wav,audio/Narrative7Situation3.wav,audio/Narrative6Situation3.wav,audio/Narrative5Situation3.wav,4,8,5,3,,,,,,,,,,,,,,,,,,,,,,,,,,,,,,,,,,,,,,,
,,,,,59ed2107ae9f950001d848f6,2025-07-07_22h02.23.467,group3.4_multiperson,2023.2.2,Linux x86_64,60.07449237,686c2ebf0248f13bef9af11f,686c7bffd45a59c63b751c75,,,,,,,,,,,,,,,,,,,,,,,,,,,,,979.7925,2,audio/Narrative6Situation4.wav,981.8194,,981.8195,994.4869,"[[69.2,170],[68.8,326],[68.4,483],[68.3,640],[68.4,799],[68.5,957],[68.5,1112],[69.5,1278],[69.6,1433],[69.5,1589],[52.3,1749],[47.2,1912],[30.2,2074],[28.7,2233],[5,3016],[18.8,3176],[36.8,3337],[49.2,3496],[55.6,3656],[58.9,3818],[66.6,3979],[70.4,4136],[72,4294],[73.7,4456],[73.8,4612],[73.9,4766],[73.9,4922],[73.9,5074],[73.9,5229],[74.2,5390],[73.8,5549],[71.8,5704],[69.7,5864],[67.8,6033],[66.5,6188],[66.6,6347],[67.2,6506],[68.7,6660],[70.8,6820],[72.7,6981],[74,7163],[74.8,7322],[79,7484],[81.4,7640],[84,7801],[90.7,7955],[90.9,8113],[90.9,8269],[91.1,8425],[91.3,8581],[93.6,8741],[93.8,8897],[93.6,9055],[93.6,9207],[93.6,9361],[93.5,9516],[93.4,9670],[93.4,9821],[93.7,9982],[96.4,10143],[97.9,10294],[99.2,10463],[100,10623],[100,10779],[100,10933],[100,11091],[100,11246],[100,11394],[100,11547],[100,11704],[100,11861],[100,12015],[100,12168],[100,12321],[100,12479],[100,12633]]",994.4871,997.6426,96.56617007,2.1402,"[{""rating"":99.51550443833513,""responseTime"":1.0567000000029338},{""rating"":96.56617007245619,""responseTime"":2.1402000000030057}]",space,2.5785,,997.6427,Definitely yes,100,997.6514,,,[],,0,13,13,13,1,audio/Narrative8Situation4.wav,audio/Narrative7Situation4.wav,audio/Narrative6Situation4.wav,audio/Narrative5Situation4.wav,3,3,2,1,,,,,,,,,,,,,,,,,,,,,,,,,,,,,,,,,,,,,,,
,,,,,59ed2107ae9f950001d848f6,2025-07-07_22h02.23.467,group3.4_multiperson,2023.2.2,Linux x86_64,60.07449237,686c2ebf0248f13bef9af11f,686c7bffd45a59c63b751c75,,,,,,,,,,,,,,,,,,,,,,,,,,,,,997.6521,2,audio/Narrative6Situation5.wav,999.6816,,999.6817,1007.7096,"[[89.4,162],[89.3,317],[89.4,474],[89.4,630],[89.4,785],[89.4,933],[89.5,1095],[90.4,1258],[91.5,1415],[93,1572],[94.1,1732],[97.3,1892],[98,2049],[99.8,2211],[100,2365],[100,2522],[100,2674],[100,2830],[100,2986],[100,3142],[100,3298],[100,3453],[100,3609],[100,3764],[100,3917],[100,4073],[100,4227],[100,4384],[100,4540],[100,4693],[100,4844],[100,5004],[99.5,5161],[98,5322],[97.5,5474],[97.6,5633],[98.9,5789],[100,5944],[100,6099],[100,6260],[100,6414],[100,6568],[100,6722],[100,6874],[100,7033],[100,7183],[100,7341],[100,7494],[100,7656],[100,7811],[100,7967]]",1007.7099,1010.4279,99.48344187,2.2471,"[{""rating"":99.48344186646322,""responseTime"":2.24710000000141}]",space,2.1498,,1010.4296,Definitely yes,100,1010.4367,,,[],,0,14,14,14,1,audio/Narrative8Situation5.wav,audio/Narrative7Situation5.wav,audio/Narrative6Situation5.wav,audio/Narrative5Situation5.wav,2,5,2,5,,,,,,,,,,,,,,,,,,,,,,,,,,,,,,,,,,,,,,,
,,,,,59ed2107ae9f950001d848f6,2025-07-07_22h02.23.467,group3.4_multiperson,2023.2.2,Linux x86_64,60.07449237,686c2ebf0248f13bef9af11f,686c7bffd45a59c63b751c75,,,,,,,,,,,,,,,,,,,,,,,,,,,,,1010.4373,2,audio/Narrative6Situation6.wav,1012.4456,,1012.4458,1023.5691,"[[98,320],[98.1,480],[98.1,631],[98,786],[98.1,938],[98.3,1097],[98.5,1266],[98.9,1425],[100,1585],[100,1747],[100,1901],[100,2055],[100,2208],[100,2367],[100,2522],[100,2676],[100,2831],[100,2987],[100,3137],[100,3293],[100,3451],[100,3608],[100,3764],[96.4,3919],[96.3,4075],[96.5,4233],[97.2,4391],[98,4547],[99.1,4711],[99.9,4877],[100,5041],[100,5196],[100,5350],[100,5508],[100,5663],[100,5820],[100,5979],[100,6131],[100,6287],[100,6442],[99.6,6600],[98.5,6759],[98,6919],[97.7,7068],[97.7,7227],[98,7383],[98.2,7530],[98.5,7693],[99.2,7852],[99.4,8007],[99.2,8166],[98.7,8320],[98.5,8468],[98.3,8628],[97.4,8791],[96.8,8951],[96.1,9108],[95.1,9265],[94.8,9426],[94.8,9580],[94.8,9734],[94.8,9891],[94.8,10043],[94.8,10201],[94.8,10347],[94.8,10511],[94.9,10665],[94.9,10818],[95,10967],[95.1,11123]]",1023.5694,1026.948,100,3.2812,"[{""rating"":98.61638247113858,""responseTime"":2.5488999999984117},{""rating"":100,""responseTime"":3.2811999999955788}]",space,2.8204,,1026.9482,Partially,50,1026.9592,,,[],,0,15,15,15,1,audio/Narrative8Situation6.wav,audio/Narrative7Situation6.wav,audio/Narrative6Situation6.wav,audio/Narrative5Situation6.wav,2,3,2,3,,,,,,,,,,,,,,,,,,,,,,,,,,,,,,,,,,,,,,,
,,,,,59ed2107ae9f950001d848f6,2025-07-07_22h02.23.467,group3.4_multiperson,2023.2.2,Linux x86_64,60.07449237,686c2ebf0248f13bef9af11f,686c7bffd45a59c63b751c75,,,,,,,,,,,,,,,,,,,,,,,,,,,,,1026.9603,2,audio/Narrative6Situation7.wav,1031.9676,,1031.9676,1056.852,"[[90.6,187],[90.5,343],[90.5,498],[90.5,651],[90.6,809],[91.1,970],[93.6,1128],[94,1285],[94.1,1446],[94.2,1601],[95.4,1759],[96.1,1921],[97.4,2081],[98,2240],[98.4,2396],[97,2555],[27,3181],[5.4,3343],[3.8,3498],[3.5,3654],[3.6,3808],[1.6,3964],[0.8,4124],[0.7,5067],[5.4,5244],[7.2,5399],[27.7,5558],[44.1,5718],[51.3,5880],[53.7,6046],[54.6,6204],[54.9,6365],[56.2,6524],[56.3,6685],[56.2,6841],[56.1,7007],[57.4,7167],[58.5,7328],[60.2,7491],[67.3,7652],[71,7814],[71.3,7965],[72.8,8124],[75.1,8285],[76.7,8445],[77.7,8603],[80.6,8764],[80.9,8923],[81.1,9083],[81.5,9240],[83.4,9403],[86.5,9564],[90.9,9723],[95.1,9889],[97.1,10043],[98.4,10203],[100,10361],[100,10514],[100,10668],[100,10823],[100,10978],[100,11138],[100,11292],[100,11455],[100,11611],[100,11768],[100,11927],[100,12080],[100,12236],[100,12389],[100,12551],[98.2,12704],[97.5,12868],[96.5,13029],[96.6,13182],[98.1,13344],[98.8,13505],[100,13661],[100,13821],[100,13977],[100,14135],[100,14288],[100,14443],[100,14597],[100,14755],[100,14906],[100,15064],[100,15218],[99.5,15374],[99.1,15531],[98.6,15689],[98.6,15839],[98.7,16000],[98.8,16155],[99.8,16317],[99.9,16467],[99.9,16622],[100,16776],[100,16935],[100,17095],[99.9,17253],[99.6,17415],[98.1,17575],[95.9,17742],[94.5,17902],[94.4,18059],[94.4,18217],[94.4,18370],[94.4,18521],[94.5,18679],[95.4,18839],[97.1,18995],[97.5,19158],[97.7,19307],[98.5,19472],[99.9,19631],[100,19784],[100,19943],[100,20102],[100,20259],[100,20411],[100,20573],[100,20728],[100,20888],[100,21043],[100,21202],[100,21358],[100,21517],[100,21671],[100,21825],[100,21982],[98.4,22142],[97.2,22299],[96.8,22451],[96.7,22609],[96.8,22765],[99.1,22925],[99.9,23083],[99.9,23241],[99.9,23407],[99.9,23559],[99.8,23711],[99,23870],[98.4,24080],[97.8,24236],[97.7,24388],[97.7,24542],[97.8,24701],[97.8,24854]]",1056.8535,1058.6542,97.66218082,1.0962,"[{""rating"":97.66218081506636,""responseTime"":1.0962000000029093}]",space,1.2212,,1058.6543,Partially,50,1058.6607,,,[],,0,16,16,16,1,audio/Narrative8Situation7.wav,audio/Narrative7Situation7.wav,audio/Narrative6Situation7.wav,audio/Narrative5Situation7.wav,3,5,5,4,,,,,,,,,,,,,,,,,,,,,,,,,,,,,,,,,,,,,,,
,,,,,59ed2107ae9f950001d848f6,2025-07-07_22h02.23.467,group3.4_multiperson,2023.2.2,Linux x86_64,60.07449237,686c2ebf0248f13bef9af11f,686c7bffd45a59c63b751c75,,,,,,,,,,,,,,,,,,,,,,,,,,,,,1058.6628,2,audio/Narrative6Situation8.wav,1063.6733,,1063.6735,1070.5664,"[[90.2,338],[90.2,492],[90.2,648],[90.1,807],[90.1,964],[90.2,1120],[91,1278],[93.8,1430],[94,1581],[90.5,1742],[84.3,1911],[79.8,2075],[62.7,2235],[59.5,2392],[59.2,2553],[59.2,2709],[59.3,2863],[55.6,3012],[36.9,3173],[38.8,3336],[40.4,3497],[40.5,3653],[36.5,3813],[23.1,3971],[15.7,4131],[7,4294],[4.4,4461],[4.1,4616],[2.6,4775],[0.8,4937],[1,5087],[1.1,5243],[1.2,5395],[1.2,5551],[1.3,5708],[1.3,5862],[1.6,6019],[1.7,6171],[1.8,6329],[1.8,6485],[1.9,6640],[2,6797]]",1070.5666,1073.7483,2.067697845,1.1049,"[{""rating"":2.067697844968175,""responseTime"":1.1048999999984517}]",space,2.5842,,1073.7486,Definitely yes,100,1073.7579,,,[],,0,17,17,17,1,audio/Narrative8Situation8.wav,audio/Narrative7Situation8.wav,audio/Narrative6Situation8.wav,audio/Narrative5Situation8.wav,3,2,5,3,,,,,,,,,,,,,,,,,,,,,,,,,,,,,,,,,,,,,,,
,,,,,59ed2107ae9f950001d848f6,2025-07-07_22h02.23.467,group3.4_multiperson,2023.2.2,Linux x86_64,60.07449237,686c2ebf0248f13bef9af11f,686c7bffd45a59c63b751c75,,,,,,,,,,,,,,,,,,,,,,,,,,,,,1073.7585,2,audio/Narrative6Situation9.wav,1077.7764,,1077.7764,1087.7639,"[[999,19],[999,176],[999,329],[999,482],[999,636],[999,793],[999,952],[999,1105],[999,1263],[49.7,1418],[39.9,1577],[34,1738],[14.1,1898],[8,2054],[6.3,2211],[1.8,2368],[1.3,2526],[1.3,2683],[1.4,2835],[1.4,2991],[1.5,3147],[1.5,3300],[1.6,3454],[1.6,3605],[1.5,3759],[1.4,3914],[0.7,4070],[0.5,4223],[0.3,4374],[0.3,4531],[0.4,4685],[0.7,4844],[0.9,4998],[1.1,5153],[1.1,5308],[1.2,5462],[1.1,5617],[0.9,5773],[0.8,5928],[0.6,6082],[0.6,6232],[0.5,6387],[0.5,6541],[0.3,6699],[0.2,6853],[0.2,7005],[0.1,9316],[1.1,9493],[1.4,9647],[1.4,9800],[0.9,9959]]",1087.7643,1092.1295,0,2.691,"[{""rating"":0.8826775744747717,""responseTime"":1.257100000001401},{""rating"":0,""responseTime"":2.691000000000031}]",space,3.7803,,1092.1296,Not at all,0,1095.659,0,2.8655,"[{""rating"":0,""responseTime"":2.8654999999998836}]",space,0,18,18,18,1,audio/Narrative8Situation9.wav,audio/Narrative7Situation9.wav,audio/Narrative6Situation9.wav,audio/Narrative5Situation9.wav,3,2,4,3,,,2.9425,,,,,,,,,,,,,,,,,,,,,,,,,,,,,,,,,,,,
,,,,,59ed2107ae9f950001d848f6,2025-07-07_22h02.23.467,group3.4_multiperson,2023.2.2,Linux x86_64,60.07449237,686c2ebf0248f13bef9af11f,686c7bffd45a59c63b751c75,,,,,,,,,,,,,,,,,,,,,,,,,,,,,,,,,,,,,,,,,,,,,,,,,,,,,,,,,,,,,,,,,,,,,,1095.6594,1097.4275,space,1.2102,,1097.4279,1111.7142,space,13.9372,,,,,,,,,,,,,,,,,,,,,,,,,,
,,,,,59ed2107ae9f950001d848f6,2025-07-07_22h02.23.467,group3.4_multiperson,2023.2.2,Linux x86_64,60.07449237,686c2ebf0248f13bef9af11f,686c7bffd45a59c63b751c75,,,,,,,,,,,,,,,,,,,,,,,,,,,,,1114.3755,1,audio/Narrative8Situation9.wav,1116.3832,,,,,1148.3622,1153.4702,23.98023251,3.5361,"[{""rating"":23.980232505460652,""responseTime"":3.5360999999941214}]",space,4.5281,,1153.4703,Partially,50,1153.4785,,,[],,,,,,,,,,,2,2,2,2,,,,,,,,,,,,,,,1111.7391,1114.323,1116.3839,3,1148.362,"[[999,2],[54.1,177],[54.1,333],[54.4,494],[54.3,654],[54.7,810],[56.5,967],[56.6,1129],[56.6,1282],[56.6,1437],[56.6,1592],[52.6,1749],[44.4,1906],[44.3,2061],[38.2,2220],[27.2,2383],[18.3,2546],[10.7,2705],[1.3,4728],[1.5,4884],[1.3,5040],[1.3,5193],[1.3,5347],[1.3,5500],[1.2,5656],[1.1,5815],[1.1,5973],[1.1,6122],[1.1,6280],[1.1,6434],[1.1,6587],[1.1,6747],[1.1,6904],[1.1,7061],[1.3,7215],[1.4,7373],[2.1,7529],[2.5,7690],[2,7847],[0.6,12295],[1.3,12453],[1.8,12614],[1.7,12771],[1.7,12927],[1.7,13090],[1.7,13251],[1.7,13407],[1.4,13565],[1.3,13724],[1.3,13879],[1.3,14036],[1.2,14194],[1.1,14353],[1,14512],[0.3,14673],[0.6,18458],[2.3,18617],[2.7,18775],[2.7,18934],[2.3,19094],[1.3,19253],[1.1,19412],[0.9,19569],[0.1,19728],[6,21625],[8.4,21787],[11.7,21942],[20.1,22101],[26.4,22258],[35.9,22419],[40.6,22576],[47.5,22741],[50.5,22902],[54.5,23061],[55.7,23219],[56.9,23376],[58.7,23539],[59.5,23701],[59.8,23859],[60.6,24020],[61.2,24180],[61.4,24337],[61.9,24496],[62.4,24655],[63.4,24814],[64.6,24973],[65.9,25133],[67.5,25295],[68.1,25458],[68.4,25615],[69.3,25770],[70.5,25937],[70.5,26091],[70.5,26241],[70.6,26403],[70.6,26561],[70.6,26719],[70.7,26878],[70.9,27039],[72.7,27199],[74.7,27355],[76.1,27512],[78,27676],[78.8,27833],[79.1,27997],[81,28152],[81.5,28309],[81.4,28468],[81.3,28628],[81.6,28783],[83.5,28943],[93.9,29101],[97,29255],[97,29410],[96.9,29573],[96.7,29732],[96.7,29887],[96.7,30046],[96.7,30206],[96.8,30362],[96.9,30519],[97,30674],[97,30832],[97.1,30989],[97.1,31147],[97.5,31305],[98.4,31462],[99.4,31627],[100,31785],[100,31943]]",0,0,0,0,1,"Larry had recently lost his family, job and home, and was now living on his own in the park. He had most of his belongings, including some clothes, a blanket, and his mother’s special necklace. His family had been very important to him and he felt as though he did not have much going for him. One of his first days in the park he came across a family that did not have much food and looked very cold. He decided to give them some of his food and his blanket.","Larry had recently lost his family, job and home, and was now living on his own in the park. He had most of his belongings, including some clothes, a blanket, and his mother’s special necklace. His family had been very important to him and he felt as though he did not have much going for him. One of his first days in the park he came across a family that did not have much food and looked very cold. He decided to give them some of his food and his blanket.","Larry had recently lost his family, job and home, and was now living on his own in the park. He had most of his belongings, including some clothes, a blanket, and his mother’s special necklace. His family had been very important to him and he felt as though he did not have much going for him. One of his first days in the park he came across a family that did not have much food and looked very cold. He decided to give them some of his food and his blanket.","Larry had recently lost his family, job and home, and was now living on his own in the park. He had most of his belongings, including some clothes, a blanket, and his mother’s special necklace. His family had been very important to him and he felt as though he did not have much going for him. One of his first days in the park he came across a family that did not have much food and looked very cold. He decided to give them some of his food and his blanket.",,,,,,,,,,
,,,,,59ed2107ae9f950001d848f6,2025-07-07_22h02.23.467,group3.4_multiperson,2023.2.2,Linux x86_64,60.07449237,686c2ebf0248f13bef9af11f,686c7bffd45a59c63b751c75,,,,,,,,,,,,,,,,,,,,,,,,,,,,,1153.4803,1,audio/Narrative8Situation9.wav,1155.4122,space,,,,1189.0616,1193.5066,36.16975237,3.6792,"[{""rating"":36.16975236697426,""responseTime"":3.679200000002993}]",space,3.8693,,1193.5067,Not at all,0,1193.5163,,,[],,,,,,,,,,,6,2,3,9,1.9011,,,,,,,,,,,,,,,,1155.4124,3,1189.0613,"[[999,2],[999,166],[999,322],[999,479],[999,633],[999,782],[33.9,948],[24.9,1108],[11.6,1425],[29.3,1587],[33.9,1906],[1.5,2537],[2.5,2698],[2.3,2854],[0.2,3011],[4.1,4458],[6.9,4636],[9.5,4793],[12.6,4950],[12.7,5108],[12.7,5262],[10.3,5426],[1.3,5589],[1.1,5751],[1.1,5908],[1.1,6064],[1.1,6221],[1.1,6377],[1.1,6536],[1.1,6693],[1.1,6853],[1.1,7011],[1.1,7171],[1.1,7328],[1.2,7485],[1.2,7640],[1.3,7797],[2.5,7953],[6.9,8113],[11.7,8272],[13,8426],[14.7,8584],[15.5,8741],[15.9,8893],[16,9055],[16,9210],[16,9371],[16,9527],[16.1,9680],[16.1,9841],[16.1,10001],[16.1,10158],[16.1,10318],[16.2,10475],[16.9,10633],[19.5,10791],[21.5,10951],[21.7,11112],[21.7,11265],[21.6,11423],[21.6,11579],[21.6,11738],[22.8,11899],[33.9,12058],[58.4,12214],[75.8,12372],[75.6,12532],[75.5,12692],[75.2,12849],[74.4,13007],[73.8,13168],[73.8,13328],[73.8,13485],[73.8,13643],[73.8,13801],[73.8,13959],[73.6,14113],[66.2,14270],[63.5,14427],[63.8,14585],[63.9,14744],[64,14900],[64.2,15059],[66.1,15221],[67.8,15380],[68.8,15546],[69.1,15703],[69.3,15860],[69.4,16018],[69.4,16174],[69.6,16334],[69.6,16492],[69.6,16648],[69.8,16812],[69.8,16968],[69.8,17126],[69.9,17283],[70.2,17439],[70.6,17601],[71.8,17758],[72.5,17917],[73.4,18069],[75,18235],[76.8,18390],[78.5,18555],[80.5,18715],[86,18873],[88,19034],[89.9,19190],[91.2,19342],[91.5,19503],[91.6,19663],[91.9,19823],[91.9,19979],[91.9,20139],[91.9,20293],[91.9,20448],[91.9,20607],[91.8,20764],[91.8,20923],[91.8,21078],[91.8,21233],[91.9,21390],[92,21549],[92.5,21707],[93.3,21866],[93.6,22023],[94.5,22182],[94.5,22343],[95.1,22501],[96.2,22657],[96.4,22814],[96.4,22972],[97.3,23133],[98,23289],[99.3,23450],[99.6,23610],[100,23771],[99.9,23927],[99.6,24089],[99.1,24249],[97.4,24410],[95,24571],[91.8,24731],[90.1,24894],[89,25049],[84.2,25215],[82.7,25377],[80.9,25537],[79.4,25696],[78.9,25858],[78.7,26015],[77.4,26178],[76.9,26336],[76.6,26496],[75.9,26655],[74.5,26821],[74,26972],[73.7,27136],[71.9,27296],[69.8,27454],[68.8,27608],[67,27768],[65.2,27924],[63,28085],[59.8,28244],[49.7,28408],[37.6,28566],[33.7,28730],[14.2,28888],[10.1,29046],[10.3,29205],[10.4,29364],[9.5,29523],[7.7,29686],[7.6,29844],[7.7,30003],[7.6,30162],[7.5,30318],[7.4,30475],[7.3,30631],[7.2,30790],[5.9,30951],[4.2,31108],[2.9,31266],[2.5,31427],[1.9,31582],[1.8,31735],[1.1,31895],[0.9,32054],[1.1,32212],[1.1,32371],[0.8,32528]]",0,1,1,1,1,"It was just another Sunday afternoon for Lucy, she was on her way to the farmer's market to pick up some produce. When she arrived at the old train depot that housed the market, she noticed two men fighting on the steps. Before she could call for help, one of the men crumpled to his knees. The other man dropped an object that appeared to be a knife and ran off. When Lucy approached the crime scene she realized that the man who had been murdered was the Mayor and that he had a gunshot wound.","One day at work, Margaret walked up to her partner, Al, to ask him to talk to the chief of staff at the local hospital where she worked as a nurse.","Luke always thought of himself as an honest man. That's why during his evening jog around the swamp, he pondered his recent affair with the receptionist at work. Luke looked up at the sky and asked God why he was so weak and unfaithful. He thought of the impact this would have on his family and told God of his conflicted feelings toward telling his wife Marta.","Linda and Amy had been best friends since kindergarten, they even found homes on the same street in the forest on the edge of town. Their biggest fight had been over who gets the bigger slice of cake, until Amy married Dan. Linda loathed Dan, she thought he was manipulative and had a violent temper. She only put up with him because Amy loved him. ",,,,,,,,,,
