consent.started,consent.stopped,consentResponse.keys,consentResponse.rt,consentResponse.duration,participantID,date,expName,psychopyVersion,OS,frameRate,STUDY_ID,SESSION_ID,opening1.started,opening1.stopped,keyEndingOpening1.keys,keyEndingOpening1.rt,keyEndingOpening1.duration,volumeAdjust.started,volumeAdjust.stopped,endingAdjust.keys,endingAdjust.rt,endingAdjust.duration,opening2.started,opening2.stopped,keyEndingOpening.keys,keyEndingOpening.rt,keyEndingOpening.duration,mouse.x,mouse.y,mouse.leftButton,mouse.midButton,mouse.rightButton,mouse.time,instructionLoop.thisRepN,instructionLoop.thisTrialN,instructionLoop.thisN,instructionLoop.thisIndex,instructionLoop.ran,readyForAudio.started,readyForAudio.stopped,fixation.started,run,audio_played,fixation.stopped,endPractice.keys,audioPre.started,audioPre.stopped,continuousResponses_audio,intRating.started,intRating.stopped,intQuestionSlider.response,intQuestionSlider.rt,intQuestionSlider.history,confirmResponse.keys,confirmResponse.rt,confirmResponse.duration,catchQuestion.started,catch_label,catch_value,catchQuestion.stopped,catchQuestionSlider.response,catchQuestionSlider.rt,catchQuestionSlider.history,confirmResponse_2.keys,audioRunLoop.thisRepN,audioRunLoop.thisTrialN,audioRunLoop.thisN,audioRunLoop.thisIndex,audioRunLoop.ran,conditions1_1,conditions2_1,conditions1_2,conditions2_2,dur1_1,dur2_1,dur1_2,dur2_2,endPractice.rt,endPractice.duration,confirmResponse_2.rt,confirmResponse_2.duration,runIntervalBreak.started,runIntervalBreak.stopped,endingBreakKey.keys,endingBreakKey.rt,endingBreakKey.duration,connection.started,connection.stopped,connectionEnding.keys,connectionEnding.rt,connectionEnding.duration,readyForText.started,readyForText.stopped,textPre.started,run_dup,textPre.stopped,continuousResponses_text,textRunLoop.thisRepN,textRunLoop.thisTrialN,textRunLoop.thisN,textRunLoop.thisIndex,textRunLoop.ran,text1_1,text1_2,text2_1,text2_2,runBreakText.started,runBreakText.stopped,endingBreakKey_2.keys,endingBreakKey_2.rt,endingBreakKey_2.duration,ending.started,ending.stopped,endingEnding.keys,endingEnding.rt,endingEnding.duration
0.0004,5.7758,y,5.471,,5ba6d507cf54e40001c45aaf,2025-07-07_23h17.57.761,group3.4_multiperson,2023.2.2,Win32,163.9344262,686c2ebf0248f13bef9af11f,686c9be3cfb02e7a39b67f55,,,,,,,,,,,,,,,,,,,,,,,,,,,,,,,,,,,,,,,,,,,,,,,,,,,,,,,,,,,,,,,,,,,,,,,,,,,,,,,,,,,,,,,,,,,,,,,,,,,,,,,,
,,,,,5ba6d507cf54e40001c45aaf,2025-07-07_23h17.57.761,group3.4_multiperson,2023.2.2,Win32,163.9344262,686c2ebf0248f13bef9af11f,686c9be3cfb02e7a39b67f55,5.776,12.3812,space,6.5689,,,,,,,,,,,,,,,,,,,,,,,,,,,,,,,,,,,,,,,,,,,,,,,,,,,,,,,,,,,,,,,,,,,,,,,,,,,,,,,,,,,,,,,,,,,,,,,,,,,,
,,,,,5ba6d507cf54e40001c45aaf,2025-07-07_23h17.57.761,group3.4_multiperson,2023.2.2,Win32,163.9344262,686c2ebf0248f13bef9af11f,686c9be3cfb02e7a39b67f55,,,,,,12.3814,24.9932,space,12.3068,,,,,,,,,,,,,,,,,,,,,,,,,,,,,,,,,,,,,,,,,,,,,,,,,,,,,,,,,,,,,,,,,,,,,,,,,,,,,,,,,,,,,,,,,,,,,,,
,,,,,5ba6d507cf54e40001c45aaf,2025-07-07_23h17.57.761,group3.4_multiperson,2023.2.2,Win32,163.9344262,686c2ebf0248f13bef9af11f,686c9be3cfb02e7a39b67f55,,,,,,,,,,,24.9968,39.8231,space,14.8042,,[0.07635229878350176],[0.004454342984409799],[1],[0],[0],[14.010799999952312],0,0,0,0,1,,,,,,,,,,,,,,,,,,,,,,,,,,,,,,,,,,,,,,,,,,,,,,,,,,,,,,,,,,,,,,,,,,,,,,,,,,,,,,
,,,,,5ba6d507cf54e40001c45aaf,2025-07-07_23h17.57.761,group3.4_multiperson,2023.2.2,Win32,163.9344262,686c2ebf0248f13bef9af11f,686c9be3cfb02e7a39b67f55,,,,,,,,,,,39.8236,98.4944,space,58.5909,,[],[],[],[],[],[],1,0,1,0,1,,,,,,,,,,,,,,,,,,,,,,,,,,,,,,,,,,,,,,,,,,,,,,,,,,,,,,,,,,,,,,,,,,,,,,,,,,,,,,
,,,,,5ba6d507cf54e40001c45aaf,2025-07-07_23h17.57.761,group3.4_multiperson,2023.2.2,Win32,163.9344262,686c2ebf0248f13bef9af11f,686c9be3cfb02e7a39b67f55,,,,,,,,,,,98.4948,118.6749,space,20.1435,,[],[],[],[],[],[],2,0,2,0,1,,,,,,,,,,,,,,,,,,,,,,,,,,,,,,,,,,,,,,,,,,,,,,,,,,,,,,,,,,,,,,,,,,,,,,,,,,,,,,
,,,,,5ba6d507cf54e40001c45aaf,2025-07-07_23h17.57.761,group3.4_multiperson,2023.2.2,Win32,163.9344262,686c2ebf0248f13bef9af11f,686c9be3cfb02e7a39b67f55,,,,,,,,,,,118.6752,134.1901,space,15.5031,,[],[],[],[],[],[],3,0,3,0,1,,,,,,,,,,,,,,,,,,,,,,,,,,,,,,,,,,,,,,,,,,,,,,,,,,,,,,,,,,,,,,,,,,,,,,,,,,,,,,
,,,,,5ba6d507cf54e40001c45aaf,2025-07-07_23h17.57.761,group3.4_multiperson,2023.2.2,Win32,163.9344262,686c2ebf0248f13bef9af11f,686c9be3cfb02e7a39b67f55,,,,,,,,,,,134.1904,155.8559,space,21.65,,[],[],[],[],[],[],4,0,4,0,1,,,,,,,,,,,,,,,,,,,,,,,,,,,,,,,,,,,,,,,,,,,,,,,,,,,,,,,,,,,,,,,,,,,,,,,,,,,,,,
,,,,,5ba6d507cf54e40001c45aaf,2025-07-07_23h17.57.761,group3.4_multiperson,2023.2.2,Win32,163.9344262,686c2ebf0248f13bef9af11f,686c9be3cfb02e7a39b67f55,,,,,,,,,,,155.8563,162.2922,space,6.4232,,[],[],[],[],[],[],5,0,5,0,1,,,,,,,,,,,,,,,,,,,,,,,,,,,,,,,,,,,,,,,,,,,,,,,,,,,,,,,,,,,,,,,,,,,,,,,,,,,,,,
,,,,,5ba6d507cf54e40001c45aaf,2025-07-07_23h17.57.761,group3.4_multiperson,2023.2.2,Win32,163.9344262,686c2ebf0248f13bef9af11f,686c9be3cfb02e7a39b67f55,,,,,,,,,,,,,,,,,,,,,,,,,,,162.2941,164.874,164.8896,1,audio/Narrative13Situation2.wav,166.8923,,166.8925,196.6249,"[[999,1],[999,102],[999,187],[999,271],[999,363],[999,447],[999,532],[999,617],[999,702],[999,787],[999,878],[999,962],[999,1047],[999,1134],[999,1217],[999,1302],[999,1387],[999,1472],[999,1557],[999,1641],[999,1726],[999,1811],[999,1896],[999,1981],[999,2066],[999,2155],[999,2235],[999,2320],[999,2405],[999,2490],[999,2575],[999,2659],[999,2744],[999,2829],[999,2914],[999,2999],[999,3084],[999,3175],[999,3260],[999,3344],[999,3429],[999,3514],[999,3599],[999,3684],[999,3771],[999,3853],[999,3938],[999,4023],[999,4108],[999,4199],[999,4284],[999,4369],[999,4453],[999,4538],[999,4623],[999,4708],[999,4793],[999,4878],[999,4963],[999,5047],[999,5132],[999,5217],[999,5302],[999,5387],[999,5472],[999,5556],[999,5641],[999,5726],[999,5811],[999,5896],[999,5981],[999,6065],[999,6150],[999,6235],[999,6320],[999,6405],[999,6490],[999,6575],[999,6659],[999,6744],[999,6829],[999,6914],[999,6999],[999,7084],[999,7168],[999,7253],[999,7338],[999,7423],[999,7508],[999,7593],[999,7678],[999,7763],[999,7847],[999,7932],[999,8017],[999,8102],[999,8187],[999,8272],[999,8356],[91.8,8442],[61.1,8956],[61.1,9041],[61.1,9132],[61.1,9217],[61.1,9302],[56,9387],[53.9,9472],[52.9,9556],[52.3,9641],[51.4,9726],[51.4,9811],[51.4,9896],[51.4,9980],[51.4,10066],[51.4,10150],[51.4,10235],[51.4,10320],[51.4,10405],[51.4,10490],[51.4,10575],[51.4,10659],[51.4,10744],[51.4,10829],[51.4,10914],[51.4,10999],[51.4,11084],[51.4,11168],[51.4,11253],[51.4,11338],[51.4,11423],[51.4,11508],[51.4,11593],[51.4,11677],[51.4,11762],[51.4,11847],[51.4,11932],[51.4,12017],[51.4,12102],[51.4,12187],[51.4,12271],[51.4,12356],[51.4,12441],[51.4,12526],[51.4,12611],[51.4,12696],[51.4,12781],[51.4,12865],[51.4,12950],[51.4,13035],[51.4,13120],[51.4,13205],[51.4,13290],[51.4,13374],[51.4,13459],[51.4,13544],[51.4,13629],[51.4,13714],[51.4,13799],[51.4,13884],[51.4,13968],[51.4,14053],[51.4,14144],[51.4,14229],[51.4,14314],[51.4,14399],[51.4,14483],[51.4,14568],[51.4,14653],[51.4,14738],[51.4,14823],[51.4,14908],[51.4,14992],[51.4,15077],[51.4,15162],[51.4,15247],[51.4,15332],[51.4,15417],[51.4,15502],[51.4,15586],[51.4,15671],[51.4,15756],[51.4,15841],[51.4,15926],[51.4,16011],[51.4,16096],[51.4,16181],[51.4,16265],[51.4,16350],[51.4,16435],[51.4,16520],[51.4,16605],[51.4,16690],[51.7,16774],[52.6,16860],[54.3,16944],[55.8,17029],[58.2,17114],[60.3,17199],[63.1,17284],[64.2,17369],[64.6,17453],[65.9,17538],[66.9,17623],[67.2,17708],[67.2,17793],[67.2,17877],[67.2,17968],[67.2,18053],[67.2,18138],[67.2,18223],[67.2,18308],[71.1,18393],[71.4,18477],[72.4,18563],[73.6,18647],[74.3,18732],[74.6,18817],[75.3,18902],[75.4,18986],[75.8,19071],[76,19156],[76.1,19241],[76.2,19326],[76.2,19411],[76.3,19496],[76.3,19580],[76.5,19665],[76.8,19750],[76.9,19835],[77,19920],[77.2,20005],[77.2,20089],[77.2,20174],[77.2,20259],[77.2,20344],[77.2,20429],[77.2,20514],[77.2,20599],[77.2,20683],[77.2,20768],[77.2,20853],[77.2,20938],[77.2,21023],[77.2,21108],[77.2,21193],[77.2,21277],[77.2,21362],[77.2,21447],[77.2,21532],[77.2,21617],[77.2,21702],[77.2,21787],[77.2,21871],[77.2,21956],[77.2,22041],[77.2,22126],[77.2,22211],[77.2,22295],[77.2,22380],[77.2,22465],[77.2,22550],[77.2,22635],[77.2,22720],[77.2,22805],[77.2,22890],[77.2,22974],[77.2,23059],[77.2,23144],[77.2,23229],[77.2,23314],[77.2,23399],[77.2,23483],[77.2,23568],[77.2,23653],[77.2,23738],[77.2,23823],[77.2,23908],[77.2,23992],[77.2,24077],[77.2,24162],[77.2,24247],[77.2,24332],[77.1,24417],[75.2,24502],[74,24586],[72.9,24671],[70.8,24756],[68.7,24841],[67,24926],[64,25011],[62.2,25095],[62.1,25180],[62,25265],[62.2,25350],[62.2,25435],[62.7,25520],[59.1,28405],[57.3,28490],[55.9,28574],[55.8,28659],[55.8,28744],[55.8,28829],[55.8,28914],[55.8,28998],[55.8,29083],[55.8,29168],[55.8,29259],[55.8,29346],[55.8,29429],[55.8,29514],[55.8,29598],[55.8,29683]]",196.6252,209.3706,50.35142378,12.7445,"[{""rating"":50.35142378116825,""responseTime"":12.744499999999988}]",space,9.0258,,209.3709,Definitely yes,100,209.3741,,,[],,0,0,0,0,1,audio/Narrative13Situation2.wav,audio/Narrative13Situation2.wav,audio/Narrative13Situation2.wav,audio/Narrative13Situation2.wav,2,2,2,2,,,,,,,,,,,,,,,,,,,,,,,,,,,,,,,,,,,,,,,
,,,,,5ba6d507cf54e40001c45aaf,2025-07-07_23h17.57.761,group3.4_multiperson,2023.2.2,Win32,163.9344262,686c2ebf0248f13bef9af11f,686c9be3cfb02e7a39b67f55,,,,,,,,,,,,,,,,,,,,,,,,,,,,,209.3743,1,audio/Narrative8Situation1.wav,213.1545,space,213.1545,229.0605,"[[50.8,1530],[50.8,1615],[50.8,1700],[50.8,1784],[48.6,1870],[47.2,1954],[47.2,2039],[47.3,2124],[46.2,2209],[45.6,2294],[45.5,2378],[44,2463],[42.7,2548],[42.6,2633],[42.6,2718],[42.6,2803],[42.6,2888],[42.6,2972],[42.6,3057],[42.6,3142],[42.6,3227],[44.7,3312],[50.2,3397],[52.6,3481],[54.6,3566],[57.5,3651],[59.7,3736],[61.1,3821],[61.8,3906],[62,3991],[62.2,4075],[62.3,4160],[62.5,4245],[62.7,4330],[62.7,4415],[62.7,4500],[62.7,4584],[62.7,4669],[62.7,4754],[62.7,4839],[62.7,4924],[62.7,5009],[62.7,5093],[62.7,5178],[62.7,5263],[62.7,5348],[62.7,5433],[62.7,5518],[62.7,5603],[62.7,5687],[62.7,5772],[62.7,5857],[62.7,5942],[62.7,6027],[62.7,6117],[62.7,6203],[62.7,6287],[62.7,6378],[62.7,6463],[62.7,6548],[62.7,6633],[62.7,6718],[62.7,6802],[62.7,6887],[62.7,6972],[62.7,7057],[62.7,7142],[62.7,7227],[62.7,7312],[61.9,7397],[58.7,7481],[54.2,7566],[51.6,7651],[48.3,7736],[42.7,7821],[39.3,7906],[36.5,7991],[32.9,8075],[30.8,8160],[29.5,8245],[29.3,8330],[29.1,8415],[29.8,8500],[34,8584],[39.5,8669],[42.4,8754],[43.7,8845],[44.1,8930],[44.3,9015],[44.3,9099],[44.3,9184],[44.3,9269],[44.3,9354],[44.3,9439],[45,9524],[45.7,9609],[45.9,9693],[47.4,9778],[48,9863],[48.9,9948],[49.6,10033],[50,10118],[50.8,10203],[51.2,10287],[51.5,10372],[52.5,10457],[52.6,10542],[53.5,10627],[53.7,10712],[54,10797],[56.1,10881],[56.2,10966],[56.4,11051],[57,11136],[58.7,11221],[59.4,11306],[59.9,11390],[60.4,11481],[60.4,11572],[60.4,11657],[60.4,11742],[60.4,11827],[60.4,11912],[60.4,11996],[60.4,12081],[60.4,12166],[60.4,12251],[60.4,12336],[60.6,12421],[61.5,12506],[62.5,12591],[62.9,12675],[63.2,12760],[63.3,12845],[63.3,12930],[63.3,13015],[63.3,13099],[63.3,13184],[63.3,13269],[63.3,13354],[63.3,13439],[63.3,13524],[63.3,13609],[63.3,13693],[63.3,13778],[63.3,13863],[63.3,13948],[63.3,14033],[63.3,14118],[63.3,14202],[63.3,14287],[63.3,14372],[63.3,14457],[63.3,14542],[63.3,14627],[63.3,14712],[63.3,14796],[63.3,14881],[63.3,14966],[63.3,15051],[63.3,15136],[63.3,15221],[63.3,15306],[63.3,15390],[63.3,15475],[63.3,15560],[63.3,15645],[63.3,15730],[63.3,15814],[63.3,15899]]",229.0607,238.2724,58.55134537,7.2137,"[{""rating"":58.55134537399387,""responseTime"":7.21370000004768}]",space,8.6974,,238.2725,Definitely yes,100,245.7814,99.16048326,5.9138,"[{""rating"":99.16048326457549,""responseTime"":5.91380000019069}]",space,0,1,1,1,1,audio/Narrative7Situation1.wav,audio/Narrative8Situation1.wav,audio/Narrative5Situation1.wav,audio/Narrative6Situation1.wav,2,5,5,2,3.7653,,6.9943,,,,,,,,,,,,,,,,,,,,,,,,,,,,,,,,,,,,
,,,,,5ba6d507cf54e40001c45aaf,2025-07-07_23h17.57.761,group3.4_multiperson,2023.2.2,Win32,163.9344262,686c2ebf0248f13bef9af11f,686c9be3cfb02e7a39b67f55,,,,,,,,,,,,,,,,,,,,,,,,,,,,,245.7816,1,audio/Narrative8Situation2.wav,248.7874,,248.7874,258.8844,"[[50.8,1527],[49,1612],[48.7,1696],[48.7,1781],[52.9,1867],[55.1,1955],[55.2,2036],[56.9,2121],[56.9,2205],[56.9,2290],[56.9,2375],[56.9,2460],[56.9,2545],[56.9,2636],[56.9,2721],[56.9,2806],[56.9,2890],[56.9,2975],[56.9,3060],[56.9,3145],[54.5,3230],[52.8,3315],[52.7,3399],[52.5,3484],[52.3,3569],[52.2,3654],[52,3739],[51.8,3824],[51.8,3909],[51.5,3993],[51.3,4078],[51.3,4163],[51.3,4248],[51.3,4333],[51.3,4418],[51.3,4502],[51.3,4587],[51.3,4672],[51.3,4757],[51.3,4842],[51.3,4927],[51.3,5011],[51.3,5096],[51.3,5181],[51.3,5266],[51.3,5351],[51.3,5442],[51.3,5527],[51.3,5612],[51.3,5696],[51.3,5781],[51.3,5866],[51.3,5951],[51.3,6036],[51.3,6121],[51.3,6205],[51.3,6290],[51.3,6375],[51.3,6466],[51.3,6551],[51.3,6636],[51.3,6721],[51.3,6805],[51.3,6890],[51.3,6975],[51.3,7060],[51.3,7145],[51.3,7230],[51.3,7314],[51.3,7399],[51.3,7484],[51.3,7575],[51.3,7660],[51.3,7745],[51.3,7830],[51.2,7914],[50.9,7999],[50.1,8084],[49.7,8169],[49.4,8254],[49.4,8339],[49.4,8424],[49.4,8508],[49.4,8593],[49.4,8678],[49.4,8763],[49.4,8848],[49.3,8932],[49.3,9017],[49.3,9102],[49.2,9187],[49.2,9272],[49.1,9357],[49,9442],[48.6,9527],[48.3,9611],[45.5,9696],[39.7,9781],[33.5,9866],[27.1,9951],[22.1,10036]]",258.8845,263.0841,10.99180014,2.4232,"[{""rating"":10.99180013560529,""responseTime"":2.4232000000477}]",space,3.6847,,263.0841,Partially,50,263.0863,,,[],,0,2,2,2,1,audio/Narrative7Situation2.wav,audio/Narrative8Situation2.wav,audio/Narrative5Situation2.wav,audio/Narrative6Situation2.wav,3,3,3,3,,,,,,,,,,,,,,,,,,,,,,,,,,,,,,,,,,,,,,,
,,,,,5ba6d507cf54e40001c45aaf,2025-07-07_23h17.57.761,group3.4_multiperson,2023.2.2,Win32,163.9344262,686c2ebf0248f13bef9af11f,686c9be3cfb02e7a39b67f55,,,,,,,,,,,,,,,,,,,,,,,,,,,,,263.0865,1,audio/Narrative8Situation3.wav,267.0901,,267.0901,289.4533,"[[39.3,2805],[40.7,2890],[40.9,2975],[40.9,3060],[42.1,3145],[42.2,3230],[42.3,3314],[42.5,3399],[43,3484],[45.1,3569],[48.1,3654],[48.4,3739],[49.1,3824],[49.4,3908],[49.4,3993],[49.4,4078],[49.4,4163],[49.4,4248],[49.4,4333],[49.4,4418],[49.4,4502],[49.4,4587],[49.4,4672],[49.4,4757],[49.4,4842],[49.4,4927],[49.4,5011],[49.4,5097],[49.4,5181],[49.4,5266],[49.4,5351],[49.4,5436],[49.4,5521],[49.4,5605],[49.4,5690],[49.4,5775],[49.4,5860],[49.4,5945],[49.4,6030],[49.4,6114],[49.4,6199],[49.4,6284],[49.4,6369],[49.4,6454],[49.4,6539],[49.4,6624],[49.4,6708],[49.4,6793],[49.4,6878],[49.4,6963],[49.4,7048],[49.4,7133],[49.4,7218],[49.4,7302],[49.4,7387],[49.4,7472],[49.4,7557],[49.4,7642],[49.4,7726],[49.4,7811],[49.4,7896],[49.4,7981],[49.4,8066],[49.4,8151],[49.4,8236],[49.4,8320],[49.4,8405],[49.4,8490],[49.4,8575],[49.4,8660],[49.4,8745],[49.4,8829],[49.4,8914],[49.4,8999],[49.4,9084],[49.4,9169],[49.4,9254],[49.4,9339],[49.4,9423],[49.4,9508],[49.4,9593],[49.7,9678],[54.1,9763],[55.9,9848],[56.9,9932],[57.8,10017],[59.1,10103],[61.1,10187],[63.2,10272],[64.8,10357],[66.5,10442],[68.1,10526],[68.7,10611],[68.7,10696],[68.7,10781],[68.7,10866],[68.7,10951],[69.8,11036],[74.5,11121],[78.8,11205],[82.6,11290],[85.9,11375],[89.4,11460],[89.8,11545],[89.8,11629],[89.8,11714],[89.8,11799],[89.8,11884],[89.8,11969],[89.8,12054],[89.8,12139],[89.8,12223],[89.8,12308],[89.8,12393],[89.8,12483],[89.8,12569],[89.8,12654],[89.8,12739],[89.8,12823],[89.8,12908],[89.8,12993],[89.8,13078],[89.8,13163],[89.8,13248],[89.8,13332],[89.8,13417],[89.8,13502],[89.8,13587],[89.8,13672],[89.8,13757],[89.8,13841],[89.8,13926],[89.8,14011],[89.8,14096],[89.8,14181],[89.8,14272],[89.8,14357],[89.8,14442],[89.8,14526],[91.3,14611],[92.6,14696],[93.8,14781],[94.6,14866],[95.3,14951],[95.9,15036],[95.9,15120],[95.9,15205],[95.9,15290],[95.9,15375],[95.9,15460],[95.9,15545],[95.9,15629],[95.9,15714],[95.9,15799],[95.9,15884],[95.9,15969],[95.9,16054],[95.9,16139],[95.9,16223],[96.2,16308],[96.4,16393],[96.4,16478],[96.4,16563],[96.4,16648],[96.5,16732],[96.5,16817],[96.5,16902],[96.5,16987],[96.5,17072],[96.5,17157],[96.5,17241],[96.5,17326],[96.5,17411],[96.5,17496],[96.7,17581],[96.9,17666],[97.4,17751],[97.9,17835],[97.9,17920],[97.9,18005],[97.9,18090],[97.9,18175],[97.9,18260],[97.9,18344],[97.9,18429],[98.4,18514],[100,18600],[100,18684],[100,18769],[100,18854],[100,18938],[100,19023],[100,19108],[100,19193],[100,19278],[100,19363],[100,19447],[100,19532],[100,19617],[100,19702],[100,19787],[100,19872],[100,19957],[100,20041],[100,20126],[100,20211],[100,20296],[100,20381],[100,20466],[100,20550],[100,20635],[100,20720],[100,20805],[100,20890],[100,20975],[100,21060],[100,21144],[100,21229],[100,21314],[100,21399],[100,21484],[100,21569],[100,21653],[100,21738],[100,21823],[100,21908],[100,21993],[100,22078],[100,22163],[100,22247],[100,22332]]",289.4534,296.5744,95.41194768,5.7657,"[{""rating"":95.41194767928376,""responseTime"":5.765700000047673}]",space,6.6093,,296.5744,Not at all,0,296.5769,,,[],,0,3,3,3,1,audio/Narrative7Situation3.wav,audio/Narrative8Situation3.wav,audio/Narrative5Situation3.wav,audio/Narrative6Situation3.wav,8,4,3,5,,,,,,,,,,,,,,,,,,,,,,,,,,,,,,,,,,,,,,,
,,,,,5ba6d507cf54e40001c45aaf,2025-07-07_23h17.57.761,group3.4_multiperson,2023.2.2,Win32,163.9344262,686c2ebf0248f13bef9af11f,686c9be3cfb02e7a39b67f55,,,,,,,,,,,,,,,,,,,,,,,,,,,,,296.5771,1,audio/Narrative8Situation4.wav,299.5803,,299.5803,313.7379,"[[52,13157],[52.4,13242],[52.9,13327],[54,13411],[55.7,13496],[58.8,13581],[64,13666],[67.2,13751],[67.8,13836],[67.8,13920],[67.8,14005],[67.8,14090]]",313.738,320.3861,83.38540078,5.3136,"[{""rating"":83.38540077631566,""responseTime"":5.313599999904625}]",space,6.1325,,320.3861,Definitely yes,100,320.3882,,,[],,0,4,4,4,1,audio/Narrative7Situation4.wav,audio/Narrative8Situation4.wav,audio/Narrative5Situation4.wav,audio/Narrative6Situation4.wav,3,3,1,2,,,,,,,,,,,,,,,,,,,,,,,,,,,,,,,,,,,,,,,
,,,,,5ba6d507cf54e40001c45aaf,2025-07-07_23h17.57.761,group3.4_multiperson,2023.2.2,Win32,163.9344262,686c2ebf0248f13bef9af11f,686c9be3cfb02e7a39b67f55,,,,,,,,,,,,,,,,,,,,,,,,,,,,,320.3884,1,audio/Narrative8Situation5.wav,322.392,,322.3921,330.6162,"[[74.6,7648],[74.6,7733],[74.6,7817],[75.4,7902],[75.4,7987],[75.4,8072],[75.4,8157]]",330.6162,334.4403,88.30535373,2.6035,"[{""rating"":88.30535373201104,""responseTime"":2.603499999999997}]",space,3.3096,,334.4404,Not at all,0,334.4423,,,[],,0,5,5,5,1,audio/Narrative7Situation5.wav,audio/Narrative8Situation5.wav,audio/Narrative5Situation5.wav,audio/Narrative6Situation5.wav,5,2,5,2,,,,,,,,,,,,,,,,,,,,,,,,,,,,,,,,,,,,,,,
,,,,,5ba6d507cf54e40001c45aaf,2025-07-07_23h17.57.761,group3.4_multiperson,2023.2.2,Win32,163.9344262,686c2ebf0248f13bef9af11f,686c9be3cfb02e7a39b67f55,,,,,,,,,,,,,,,,,,,,,,,,,,,,,334.4426,1,audio/Narrative8Situation6.wav,336.4463,,336.4463,342.8947,"[[87.7,509],[87.2,593],[86.4,678],[85.5,763],[84.6,848],[84.3,933],[82.8,1018],[77.2,1103],[66.4,1187],[60.1,1272],[59.7,1357],[59.7,1442],[59.7,1527],[59.7,1611],[59.7,1696],[59.7,1781],[59.7,1866],[58.1,1957],[56.2,2042],[55,2127],[53.3,2211],[52.2,2296],[51.7,2381],[51.6,2466],[51.6,2551],[51.6,2636],[51.6,2721],[51.6,2805],[51.6,2890],[51.6,2975],[51.6,3060],[51.6,3145],[51.6,3230],[51.6,3314],[51.6,3399],[51.6,3484],[51.6,3569],[51.6,3654],[51.6,3739],[51.6,3824],[51.6,3908],[51.6,3993],[51.6,4078],[51.6,4163],[51.6,4248],[51.6,4333],[51.7,4418],[52.2,4507],[52.6,4587],[52.6,4672],[52.6,4757],[52.6,4842],[52.6,4927],[52.6,5011],[52.6,5096],[52.6,5181],[52.6,5266],[52.6,5351],[52.6,5436],[52.6,5521],[52.6,5605],[52.6,5690],[52.6,5775],[52.6,5860],[52.6,5945],[52.6,6030],[52.6,6114],[52.6,6199],[52.6,6284],[48.7,6369]]",342.8948,346.2886,31.29636551,2.6435,"[{""rating"":31.29636550601399,""responseTime"":2.6435000000000173}]",space,2.8778,,346.2886,Not at all,0,346.29,,,[],,0,6,6,6,1,audio/Narrative7Situation6.wav,audio/Narrative8Situation6.wav,audio/Narrative5Situation6.wav,audio/Narrative6Situation6.wav,3,2,3,2,,,,,,,,,,,,,,,,,,,,,,,,,,,,,,,,,,,,,,,
,,,,,5ba6d507cf54e40001c45aaf,2025-07-07_23h17.57.761,group3.4_multiperson,2023.2.2,Win32,163.9344262,686c2ebf0248f13bef9af11f,686c9be3cfb02e7a39b67f55,,,,,,,,,,,,,,,,,,,,,,,,,,,,,346.2902,1,audio/Narrative8Situation7.wav,349.2911,,349.2911,361.3564,"[[999,0],[999,88],[999,173],[999,257],[999,342],[999,427],[999,512],[999,597],[999,682],[999,767],[999,851],[999,939],[999,1021],[999,1112],[999,3695],[999,3780],[999,3865],[999,3950],[999,4035],[999,4119],[999,4204],[999,4289],[46.6,4374],[46.4,4459],[46.4,4550],[46.4,4635],[46.9,4720],[47.2,4804],[47.2,4889],[47.2,4974],[47.2,5059],[47.2,5144],[47.2,5228],[47.2,5313],[47.2,5398],[47.2,5483],[47.2,5568],[47.2,5653],[47.2,5738],[47.2,5822],[47.2,5907],[47.2,5992],[47.2,6077],[47.2,6162],[47.2,6247],[47.2,6337],[47.2,6422],[47.2,6507],[47.2,6598],[47.2,6683],[47.2,6768],[47.2,6853],[47.2,6938],[47.2,7022],[47.2,7107],[47.2,7192],[50.3,7277],[53.8,7362],[55.1,7447],[56.4,7532],[57.8,7616],[58.5,7701],[58.7,7786],[59.1,7871],[60.1,7956],[62.5,8041],[65.8,8126],[68.8,8210],[70,8295],[70,8380],[70,8465],[70,8550],[70,8634],[70,8719],[70,8804],[70,8889],[70,8974],[70,9059],[70,9144],[69.9,9228],[69.9,9313],[70.6,9398],[71,9483],[71.1,9569],[71.5,9653],[72.1,9738],[73.3,9822],[73.6,9907],[74.2,9992],[74.9,10085],[75.8,10169],[76.3,10253],[77,10338],[77.7,10422],[78.3,10507],[78.4,10592],[79.1,10677],[79.9,10762],[79.9,10847],[79.9,10931],[83.3,11016],[84.3,11101],[85.3,11186],[85.6,11271],[85.7,11356],[86.1,11440],[86.1,11525],[86.1,11610],[86.1,11695],[86.1,11780],[86.1,11865],[86.2,11950],[86.2,12034]]",361.3565,365.5625,86.19680247,0.7504,"[{""rating"":86.19680246528445,""responseTime"":0.7504000000953397}]",space,3.6947,,365.5625,Not at all,0,365.5639,,,[],,0,7,7,7,1,audio/Narrative7Situation7.wav,audio/Narrative8Situation7.wav,audio/Narrative5Situation7.wav,audio/Narrative6Situation7.wav,5,3,4,5,,,,,,,,,,,,,,,,,,,,,,,,,,,,,,,,,,,,,,,
,,,,,5ba6d507cf54e40001c45aaf,2025-07-07_23h17.57.761,group3.4_multiperson,2023.2.2,Win32,163.9344262,686c2ebf0248f13bef9af11f,686c9be3cfb02e7a39b67f55,,,,,,,,,,,,,,,,,,,,,,,,,,,,,365.5641,1,audio/Narrative8Situation8.wav,368.5684,,368.5684,381.4047,"[[54.4,2557],[50.6,2648],[50.2,2733],[50.5,2818],[53.5,2903],[60.8,2988],[61.1,3072],[61.1,3157],[61.1,3242],[61.1,3327],[61.1,3412],[61.1,3496],[61.1,3581],[59.4,3666],[57.5,3751],[55.4,3836],[55.1,3921],[54,4006],[53.4,4090],[51.2,4175],[51.2,4260],[51.2,4345],[51.2,4430],[51.2,4515],[51.2,4605],[51.2,4690],[51.2,4782],[51.2,4866],[51.2,4951],[51.5,5036],[51.5,5121],[51.5,5205],[51.5,5290],[51.5,5375],[51.5,5460],[51.5,5545],[51.5,5630],[51.5,5715],[51.5,5799],[51.5,5884],[51.5,5969],[51.5,6054],[51.5,6139],[53,6224],[56.1,6309],[57.6,6394],[58.4,6478],[58.5,6563],[58.5,6648],[64.5,6733],[64.6,6818],[64.6,6902],[64.6,6987],[64.6,7075],[64.9,7157],[66.2,7242],[67.3,7327],[68.1,7412],[69.1,7496],[70.2,7581],[71.4,7666],[72.3,7751],[73.3,7836],[73.7,7921],[74,8005],[74.4,8090],[74.4,8175],[74.4,8260],[74.4,8345],[74.4,8430],[74.4,8515],[74.4,8599],[74.4,8684],[74.4,8769],[73.3,8854],[73.2,8939],[73.3,9024],[74.7,9109],[75.4,9193],[76.1,9278],[76.3,9363],[76.5,9448],[76.9,9533],[77.2,9623],[77.5,9708],[77.5,9793],[77.5,9878],[77.5,9963],[77.5,10048],[77.5,10133],[77.5,10217],[77.5,10302],[77.5,10387],[77.5,10472],[77.9,10557],[77.9,10642],[78.2,10727],[78.6,10811],[78.9,10896],[79.1,10981],[79.3,11066],[79.3,11151],[79.3,11236],[79.3,11320],[79.3,11405],[79.3,11490],[79.3,11575],[79.3,11660],[79.3,11745],[79.3,11830],[79.3,11914],[79.3,11999],[79.6,12085],[79.7,12169],[79.7,12254],[79.7,12339],[79.7,12423],[79.7,12508],[85.8,12593],[87,12678],[87.1,12763]]",381.4047,383.1075,87.60250331,1.2874,"[{""rating"":87.60250330976886,""responseTime"":0.4943999998569666},{""rating"":87.60250330976886,""responseTime"":1.287399999856973}]",space,1.1894,,383.1077,Not at all,0,383.1092,,,[],,0,8,8,8,1,audio/Narrative7Situation8.wav,audio/Narrative8Situation8.wav,audio/Narrative5Situation8.wav,audio/Narrative6Situation8.wav,2,3,3,5,,,,,,,,,,,,,,,,,,,,,,,,,,,,,,,,,,,,,,,
,,,,,5ba6d507cf54e40001c45aaf,2025-07-07_23h17.57.761,group3.4_multiperson,2023.2.2,Win32,163.9344262,686c2ebf0248f13bef9af11f,686c9be3cfb02e7a39b67f55,,,,,,,,,,,,,,,,,,,,,,,,,,,,,383.1094,1,audio/Narrative8Situation9.wav,386.1139,,386.1139,397.4103,"[[71.3,6617],[62.4,6702],[61.9,6787],[60.6,6872],[51.5,6957],[50.4,7042],[50.4,7126],[50.9,7211],[59.1,7296],[62.6,7381],[63.4,7466],[63.8,7550],[64.1,7635],[65,7720],[67.9,7805],[73.6,7890],[78.4,7975],[81.5,8060],[81.5,8144],[81.5,8229],[81.5,8314],[81.5,8402],[81.5,8484],[85.3,8569],[87.3,8653],[89.1,8745],[91,8829],[91.5,8914],[91.7,8999],[91.7,9084],[91.8,9169],[91.8,9253],[91.8,9338],[91.8,9423],[91.8,9508],[91.8,9593],[91.8,9678],[91.8,9763],[91.8,9847],[91.8,9932],[91.8,10023],[92.2,10108],[92.5,10193],[92.9,10278],[93.6,10363],[94.4,10448],[94.6,10532],[94.7,10617],[94.7,10702],[94.7,10787],[94.7,10872],[94.7,10956],[94.7,11041],[94.7,11126],[94.7,11211],[94.7,11296]]",397.4104,401.6226,94.70909726,0.9185,"[{""rating"":94.70909725704156,""responseTime"":0.9184999999999945}]",space,3.6985,,401.6227,Not at all,0,401.625,,,[],,0,9,9,9,1,audio/Narrative7Situation9.wav,audio/Narrative8Situation9.wav,audio/Narrative5Situation9.wav,audio/Narrative6Situation9.wav,2,3,3,4,,,,,,,,,,,,,,,,,,,,,,,,,,,,,,,,,,,,,,,
,,,,,5ba6d507cf54e40001c45aaf,2025-07-07_23h17.57.761,group3.4_multiperson,2023.2.2,Win32,163.9344262,686c2ebf0248f13bef9af11f,686c9be3cfb02e7a39b67f55,,,,,,,,,,,,,,,,,,,,,,,,,,,,,401.6253,1,audio/Narrative7Situation1.wav,403.6284,,403.6284,459.494,"[[94.2,1018],[68.6,1187],[47.9,1697],[47.6,1781],[47.6,1867],[47.6,1951],[47.6,2036],[47.6,2121],[47.6,2205],[47.6,2290],[47.7,2375],[48.4,2460],[48.9,2545],[49.5,2630],[49.6,2715],[49.7,2799],[49.7,2884],[49.7,2969],[49.7,3054],[49.7,3139],[49.7,3224],[49.7,3308],[49.7,3393],[49.7,3478],[49.7,3563],[49.7,3648],[49.7,3733],[49.7,3818],[49.7,3902],[49.7,3987],[49.7,4072],[49.7,4157],[49.7,4242],[49.7,4327],[49.7,4411],[49.7,4496],[49.7,4581],[49.7,4666],[49.7,4751],[49.7,4842],[49.7,4927],[49.7,5011],[49.7,5096],[49.7,5181],[49.7,5266],[49.7,5351],[49.7,5436],[49.7,5521],[49.7,5605],[49.7,5690],[49.7,5775],[49.7,5860],[49.7,5945],[49.7,6030],[49.7,6115],[49.7,6199],[49.7,6284],[49.7,6369],[49.7,6454],[49.7,6539],[49.7,6624],[49.7,6708],[49.7,6793],[49.7,6878],[49.7,6963],[49.7,7048],[49.7,7132],[49.7,7217],[49.7,7302],[49.7,7387],[49.7,7472],[49.7,7557],[49.7,7642],[49.7,7727],[49.7,7811],[49.7,7896],[49.7,7981],[49.7,8066],[49.7,8151],[49.7,8236],[49.7,8320],[49.7,8405],[49.7,8490],[49.7,8575],[49.7,8666],[49.7,8751],[49.7,8836],[49.7,8920],[49.7,9005],[49.7,9090],[49.7,9175],[49.7,9260],[49.7,9345],[49.7,9430],[49.7,9514],[49.7,9602],[49.7,9684],[49.7,9769],[49.7,9854],[49.7,9939],[49.7,10023],[49.7,10108],[49.7,10193],[49.7,10278],[49.7,10363],[49.7,10448],[49.7,10533],[52.5,10617],[54.9,10702],[55.4,10787],[56.4,10872],[57.6,10957],[58.6,11042],[58.9,11126],[59,11211],[59,11296],[59,11381],[59,11466],[59,11551],[64.2,11636],[92.1,15230],[91.6,15314],[91.6,15399],[91.6,15484],[90.8,15569],[77.4,15654],[68,15739],[67.8,15823],[67.8,15908],[67.5,15993],[67.5,16078],[67.5,16163],[67.5,16248],[67.5,16332],[67.5,16419],[67.5,16502],[67.5,16587],[63.3,17357],[63.4,17442],[64.1,17526],[67.3,17612],[68.1,17696],[68.1,17781],[68.1,17866],[68.1,17950],[68.1,18035],[68.1,18120],[68.1,18205],[68.1,18296],[68.1,18381],[68.1,18466],[68.1,18550],[68.1,18635],[68.1,18720],[68.1,18805],[68.1,18890],[68.1,18975],[68.1,19060],[68.1,19144],[68.1,19229],[68.1,19314],[68.1,19399],[68.1,19484],[68.1,19569],[68.1,19653],[68.1,19738],[68.1,19823],[68.1,19908],[68.1,19993],[68.1,20078],[68.1,20163],[68.1,20247],[68.1,20332],[68.1,20417],[68.1,20502],[68.1,20587],[68.1,20672],[68.1,20757],[68.1,20841],[68.1,20926],[68.1,21011],[68.1,21102],[68.1,21187],[68.1,21272],[68.1,21357],[68.1,21441],[68.1,21526],[68.1,21611],[68.1,21696],[68.1,21781],[68.1,21866],[68.1,21951],[68.1,22035],[68.1,22120],[68.1,22205],[68.1,22290],[68.1,22381],[68.1,22466],[68.1,22550],[68.1,22638],[68.1,22720],[68.1,22811],[68.1,22896],[68.1,22981],[68.1,23066],[68.1,23150],[68.1,23238],[68.1,23320],[68.1,23405],[68.1,23490],[68.1,23575],[68.1,23660],[68.1,23744],[68.1,23829],[68.1,23914],[68.1,23999],[68.1,24084],[68.1,24172],[68.6,24254],[73,24338],[76.3,24423],[77.5,24508],[79.3,24593],[80.1,24678],[80.7,24763],[81.4,24847],[81.7,24932],[81.9,25023],[82.6,25108],[83.1,25193],[83.5,25278],[83.5,25363],[83.5,25447],[83.5,25532],[83.5,25617],[83.5,25702],[83.5,25787],[83.5,25872],[83.5,25956],[83.5,26041],[83.5,26126],[83.5,26211],[83.5,26296],[83.5,26381],[83.5,26466],[83.5,26550],[83.5,26635],[83.5,26720],[83.5,26805],[83.5,26890],[83.5,26976],[83.5,27060],[83.5,27144],[83.5,27229],[83.5,27314],[83.5,27399],[83.5,27484],[83.5,27568],[83.5,27653],[83.5,27738],[83.5,27823],[83.5,27908],[83.5,27993],[83.5,28078],[83.5,28162],[83.5,28247],[83.5,28332],[83.5,28417],[83.5,28502],[83.5,28587],[83.5,28677],[83.5,28763],[83.5,28847],[83.5,28932],[83.5,29017],[83.5,29102],[83.5,29187],[83.5,29271],[83.5,29356],[83.5,29441],[83.5,29526],[83.5,29611],[83.5,29696],[83.5,29781],[83.5,29865],[83.5,29950],[83.5,30035],[83.5,30120],[83.5,30205],[83.5,30290],[83.5,30375],[83.5,30459],[83.5,30544],[83.5,30629],[83.5,30714],[83.5,30799],[83.5,30884],[83.5,30968],[83.5,31053],[83.5,31138],[83.5,31223],[83.5,31308],[83.5,31393],[83.5,31478],[83.5,31562],[83.5,31647],[83.5,31732],[83.5,31817],[83.5,31902],[83.5,31987],[83.5,32072],[83.5,32156],[83.5,32241],[83.5,32326],[83.5,32411],[83.5,32496],[83.5,32581],[83.5,32665],[83.5,32750],[83.5,32835],[83.5,32920],[83.5,33005],[83.5,33090],[83.5,33175],[83.5,33259],[83.5,33344],[83.5,33429],[83.5,33514],[83.5,33599],[83.5,33684],[83.5,33768],[83.5,33853],[83.5,33938],[83.5,34023],[83.5,34108],[83.5,34193],[83.5,34277],[83.5,34362],[83.5,34447],[83.5,34532],[83.5,34617],[83.5,34702],[83.5,34787],[83.5,34871],[83.5,34956],[83.5,35041],[83.5,35126],[88.8,35211],[91.5,35296],[92.6,35381],[93.2,35465],[93.9,35550],[94.3,35635],[94.5,35720],[94.7,35805],[95,35889],[95.3,35975],[95.4,36059],[95.4,36144],[95.4,36229],[95.4,36314],[95.4,36399],[95.4,36484],[95.4,36568],[95.4,36653],[95.4,36738],[95.4,36823],[95.4,36908],[95.4,36993],[95.4,37077],[95.4,37162],[95.4,37247],[95.4,37332],[95.4,37417],[95.4,37502],[95.4,37586],[95.4,37671],[95.4,37756],[95.4,37841],[95.4,37926],[95.4,38011],[95.4,38096],[95.4,38180],[95.4,38265],[95.4,38350],[95.4,38435],[95.4,38520],[95.4,38605],[95.4,38690],[95.4,38774],[95.4,38859],[95.4,38944],[95.4,39029],[95.4,39114],[95.4,39199],[95.4,39283],[95.4,39368],[95.4,39453],[95.4,39538],[95.4,39623],[95.4,39708],[95.4,39793],[95.4,39877],[95.4,39962],[95.4,40047],[95.4,40132],[95.4,40217],[95.4,40302],[95.4,40386],[95.4,40471],[95.4,40556],[95.4,40641],[95.4,40726],[95.4,40811],[95.4,40896],[95.4,40980],[95.4,41065],[95.4,41156],[95.4,41241],[95.4,41326],[95.4,41411],[95.4,41496],[95.4,41581],[95.4,41665],[95.4,41756],[95.4,41841],[95.4,41930],[95.4,42011],[95.4,42096],[95.4,42180],[95.4,42265],[95.4,42350],[95.4,42435],[95.4,42520],[95.4,42605],[95.4,42690],[95.4,42774],[95.4,42859],[95.4,42944],[95.4,43029],[95.4,43114],[95.4,43199],[95.4,43283],[95.4,43368],[95.4,43453],[95.4,43538],[95.4,43623],[95.4,43708],[95.4,43792],[95.4,43877],[95.4,43962],[95.4,44047],[95.4,44132],[95.4,44217],[95.4,44301],[95.4,44386],[95.4,44471],[95.4,44556],[95.4,44641],[95.4,44726],[95.4,44811],[95.4,44895],[95.4,44980],[95.4,45065],[95.4,45151],[95.4,45235],[95.4,45320],[95.4,45405],[95.4,45489],[95.4,45574],[95.4,45659],[95.4,45744],[95.4,45829],[95.4,45913],[95.4,45999],[95.4,46083],[95.4,46168],[95.4,46253],[95.4,46338],[95.4,46423],[95.4,46508],[95.4,46592],[95.4,46677],[95.4,46762],[95.4,46847],[95.4,46932],[95.4,47017],[95.4,47102],[95.4,47186],[95.4,47271],[95.4,47356],[95.4,47441],[95.4,47526],[95.4,47611],[95.4,47695],[95.4,47780],[95.4,47865],[95.4,47950],[95.4,48035],[95.4,48120],[95.4,48211],[95.4,48295],[95.4,48380],[95.4,48465],[95.4,48550],[95.4,48635],[95.4,48720],[95.4,48804],[95.4,48889],[95.4,48974],[95.4,49059],[95.4,49144],[95.4,49229],[95.4,49314],[95.4,49398],[95.4,49483],[95.4,49568],[95.4,49653],[95.4,49738],[95.4,49823],[95.4,49908],[95.4,49992],[95.4,50077],[95.4,50162],[95.4,50247],[95.4,50332],[95.4,50417],[95.4,50501],[95.4,50586],[95.4,50671],[95.4,50756],[95.4,50841],[95.4,50926],[95.4,51010],[95.4,51095],[95.4,51180],[95.4,51265],[95.4,51350],[95.4,51435],[95.4,51520],[95.4,51604],[95.4,51689],[95.4,51774],[95.4,51859],[95.4,51944],[95.4,52029],[95.4,52114],[95.4,52198],[95.4,52283],[95.4,52368],[95.4,52453],[95.4,52538],[95.4,52623],[95.4,52707],[95.4,52792],[95.4,52877],[95.4,52962],[95.4,53047],[95.4,53132],[95.4,53216],[95.4,53301],[95.4,53386],[95.4,53471],[95.4,53556],[95.4,53641],[95.4,53726],[95.4,53810],[95.4,53895],[95.4,53980],[95.4,54065],[95.4,54150],[95.4,54235],[95.4,54319],[95.4,54404],[95.4,54489],[95.4,54574],[95.4,54659],[95.4,54744],[95.4,54829],[95.4,54913],[95.4,54998],[95.4,55083],[95.4,55168],[95.4,55253],[95.4,55338],[95.4,55423],[95.4,55507],[95.4,55592],[95.4,55677],[95.4,55762],[95.4,55847]]",459.4943,461.9666,95.41194768,0.4201,"[{""rating"":95.41194767928376,""responseTime"":0.4201000001430657}]",space,1.9613,,461.9667,Not at all,0,461.9683,,,[],,0,10,10,10,1,audio/Narrative8Situation1.wav,audio/Narrative7Situation1.wav,audio/Narrative6Situation1.wav,audio/Narrative5Situation1.wav,5,2,2,5,,,,,,,,,,,,,,,,,,,,,,,,,,,,,,,,,,,,,,,
,,,,,5ba6d507cf54e40001c45aaf,2025-07-07_23h17.57.761,group3.4_multiperson,2023.2.2,Win32,163.9344262,686c2ebf0248f13bef9af11f,686c9be3cfb02e7a39b67f55,,,,,,,,,,,,,,,,,,,,,,,,,,,,,461.9685,1,audio/Narrative7Situation2.wav,464.9725,,464.9726,472.4331,"[[84.8,770],[74.3,856],[49,1448],[50.3,1533],[51.7,1618],[52.9,1703],[53,1787],[53.3,1872],[55.4,1957],[56.4,2042],[57.2,2127],[59,2212],[60.7,2297],[61.5,2381],[63.3,2466],[64.9,2551],[65.8,2636],[66.1,2721],[66.1,2805],[66.1,2890],[66.1,2975],[66.1,3060],[77.9,3145],[84,3230],[87.2,3315],[89,3399],[89.3,3484],[89.3,3569],[89.3,3654],[90.1,3739],[95.8,3824],[97.2,3908],[98,3993],[98.3,4078],[98.3,4163],[98.3,4248],[98.3,4333],[98.3,4418],[98.3,4502],[98.3,4587],[98.3,4672],[98.3,4757],[98.3,4842],[98.3,4927],[98.3,5012],[98.3,5096],[98.3,5181],[98.3,5266],[98.3,5351],[98.3,5436],[98.3,5521],[98.3,5605],[98.3,5690],[98.3,5775],[98.3,5860],[98.3,5945],[98.3,6030],[98.3,6114],[98.3,6199],[98.3,6284],[98.3,6369],[98.3,6454],[98.3,6539],[98.3,6624],[98.3,6708],[98.3,6793],[98.3,6878],[98.3,6963],[98.3,7048],[98.3,7133],[98.3,7217],[98.3,7302],[98.3,7387]]",472.4332,477.342,96.89573825,4.4134,"[{""rating"":96.89573824861893,""responseTime"":4.413400000095351}]",space,4.3934,,477.3421,Definitely yes,100,477.3443,,,[],,0,11,11,11,1,audio/Narrative8Situation2.wav,audio/Narrative7Situation2.wav,audio/Narrative6Situation2.wav,audio/Narrative5Situation2.wav,3,3,3,3,,,,,,,,,,,,,,,,,,,,,,,,,,,,,,,,,,,,,,,
,,,,,5ba6d507cf54e40001c45aaf,2025-07-07_23h17.57.761,group3.4_multiperson,2023.2.2,Win32,163.9344262,686c2ebf0248f13bef9af11f,686c9be3cfb02e7a39b67f55,,,,,,,,,,,,,,,,,,,,,,,,,,,,,477.3445,1,audio/Narrative7Situation3.wav,485.3479,,485.348,494.5841,"[[54.7,3993],[54.9,4078],[54.9,4163],[55,4248],[55,4333],[55,4417],[55,4502],[55,4587],[55,4672],[55,4757],[55,4842],[68.9,4927],[73.4,5012],[75.1,5096],[76.1,5181],[76.1,5266],[76.1,5351],[76.1,5436],[76.1,5520],[76.1,5605],[76.1,5690],[76.1,5775],[76.1,5860],[76.1,5945],[76.1,6029],[76.1,6114],[76.1,6199],[76.1,6284],[76,6370],[76.1,6460],[82.2,6545],[85.6,6630],[87.8,6715],[88.9,6799],[89.9,6884],[91.1,6969],[91.9,7054],[92.6,7139],[92.6,7223],[92.6,7308],[92.6,7393],[92.6,7478],[92.6,7563],[92.6,7648],[92.6,7733],[92.6,7817],[92.6,7902],[92.6,7987],[92.6,8072],[92.6,8157],[92.6,8242],[92.6,8326],[92.6,8411],[92.6,8496],[92.6,8581],[92.6,8666],[92.6,8751],[92.6,8835],[92.6,8920],[92.6,9005],[92.6,9090],[92.6,9175]]",494.5843,495.6448,92.52245627,0.3017,"[{""rating"":92.52245626546423,""responseTime"":0.301700000047731}]",space,0.5488,,495.6448,Definitely yes,100,495.6463,,,[],,0,12,12,12,1,audio/Narrative8Situation3.wav,audio/Narrative7Situation3.wav,audio/Narrative6Situation3.wav,audio/Narrative5Situation3.wav,4,8,5,3,,,,,,,,,,,,,,,,,,,,,,,,,,,,,,,,,,,,,,,
,,,,,5ba6d507cf54e40001c45aaf,2025-07-07_23h17.57.761,group3.4_multiperson,2023.2.2,Win32,163.9344262,686c2ebf0248f13bef9af11f,686c9be3cfb02e7a39b67f55,,,,,,,,,,,,,,,,,,,,,,,,,,,,,495.6465,1,audio/Narrative7Situation4.wav,498.6507,,498.6507,510.3596,"[[999,0],[999,84],[999,169],[999,254],[999,339],[999,423],[999,509],[999,593],[999,678],[999,763],[999,848],[999,933],[999,1018],[999,1102],[999,1193],[999,1278],[999,1363],[999,1448],[999,1533],[999,1617],[999,1702],[999,1787],[999,1872],[999,1957],[999,2042],[999,2127],[999,2211],[999,2296],[999,2381],[999,2466],[999,2551],[999,2636],[999,2721],[999,2811],[999,2896],[999,2981],[53.3,3066],[53.2,3151],[52.8,3236],[52.3,3321],[52.3,3405],[52.3,3490],[53.1,3576],[54.2,3660],[54.8,3745],[54.8,3830],[54.8,3915],[54.8,3999],[54.8,4084],[54.8,4169],[54.8,4254],[54.8,4339],[54.8,4424],[54.8,4509],[54.8,4593],[54.8,4678],[54.8,4763],[54.8,4848],[54.8,4933],[54.8,5018],[54.8,5102],[54.8,5187],[54.8,5272],[54.8,5357],[54.8,5442],[54.8,5533],[54.8,5617],[54.8,5702],[54.8,5787],[54.8,5872],[54.8,5957],[54.8,6042],[54.8,6126],[54.8,6211],[54.8,6296],[54.8,6381],[54.8,6466],[54.8,6551],[54.8,6636],[54.8,6721],[54.8,6805],[54.8,6890],[54.8,6975],[54.8,7060],[54.8,7145],[54.8,7230],[54.8,7314],[54.8,7399],[54.8,7484],[54.8,7569],[54.8,7654],[54.8,7739],[54.8,7823],[54.8,7908],[54.8,7993],[54.8,8078],[54.8,8163],[53.1,8248],[49.7,8333],[48.5,8417],[48.5,8502],[48.3,8587],[48.1,8672],[47.9,8757],[47.8,8842],[46.4,8927],[44.8,9011],[42,9096],[38.4,9181],[36.2,9266],[30.1,9351],[24.6,9436],[24.5,9520],[24.5,9609],[24.5,9690],[24.5,9775],[24.5,9860],[24.5,9945],[15.1,10030],[12.6,10114],[13.3,10199],[13.3,10284],[13.3,10369],[13.3,10454],[13.3,10539],[13.3,10623],[13.3,10708],[13.3,10793],[13.3,10878],[13.3,10963],[13.3,11048],[13.3,11133],[12,11218],[11,11303],[9.9,11387],[9.9,11472],[9.9,11557],[9.9,11642]]",510.3598,511.9535,9.898476065,0.3406,"[{""rating"":9.898476064934503,""responseTime"":0.34059999990461165}]",space,1.0816,,511.9535,Partially,50,511.9554,,,[],,0,13,13,13,1,audio/Narrative8Situation4.wav,audio/Narrative7Situation4.wav,audio/Narrative6Situation4.wav,audio/Narrative5Situation4.wav,3,3,2,1,,,,,,,,,,,,,,,,,,,,,,,,,,,,,,,,,,,,,,,
,,,,,5ba6d507cf54e40001c45aaf,2025-07-07_23h17.57.761,group3.4_multiperson,2023.2.2,Win32,163.9344262,686c2ebf0248f13bef9af11f,686c9be3cfb02e7a39b67f55,,,,,,,,,,,,,,,,,,,,,,,,,,,,,511.9556,1,audio/Narrative7Situation5.wav,516.9574,,516.9574,525.426,"[[999,0],[999,86],[999,171],[999,256],[999,341],[999,426],[999,511],[999,595],[999,680],[999,765],[999,850],[999,935],[999,1020],[999,1104],[999,1189],[999,1274],[999,1359],[999,1444],[999,1529],[41.7,1614],[43.8,1699],[46.9,1783],[48.1,1868],[48.2,1953],[48.2,2038],[48.2,2123],[48.2,2207],[48.2,2292],[48.2,2377],[48.2,2462],[48.2,2547],[48.2,2632],[48.2,2716],[48.2,2801],[48.2,2886],[48.2,2971],[48.2,3056],[48.2,3141],[48.2,3226],[48.2,3310],[48.2,3395],[48.2,3480],[48.2,3565],[48.2,3650],[48.2,3735],[48.2,3820],[48.2,3904],[49.9,3990],[50.7,4074],[51.2,4159],[51.5,4244],[51.5,4329],[51.5,4413],[51.5,4499],[51.5,4583],[51.5,4668],[51.5,4753],[51.5,4838],[51.5,4923],[51.5,5007],[51.5,5092],[51.5,5177],[51.5,5262],[51.5,5347],[51.5,5432],[51.5,5516],[51.5,5601],[51.5,5686],[51.5,5771],[51.5,5856],[51.5,5941],[51.5,6026],[51.5,6110],[51.5,6195],[51.5,6280],[51.5,6365],[51.5,6450],[51.5,6535],[51.5,6620],[51.5,6704],[51.5,6789],[51.5,6874],[51.5,6959],[51.5,7044],[51.5,7129],[51.5,7213],[51.5,7298],[51.5,7383],[54.1,7468],[58.8,7553],[61.2,7638],[64.3,7723],[65,7807],[65.2,7892],[66,7977],[66.5,8062],[66.6,8147],[66.6,8232],[67.2,8317],[67.2,8401]]",525.4262,526.3834,66.98555044,0.4339,"[{""rating"":66.98555044090021,""responseTime"":0.43390000009537744}]",space,0.4431,,526.3834,Partially,50,526.3846,,,[],,0,14,14,14,1,audio/Narrative8Situation5.wav,audio/Narrative7Situation5.wav,audio/Narrative6Situation5.wav,audio/Narrative5Situation5.wav,2,5,2,5,,,,,,,,,,,,,,,,,,,,,,,,,,,,,,,,,,,,,,,
,,,,,5ba6d507cf54e40001c45aaf,2025-07-07_23h17.57.761,group3.4_multiperson,2023.2.2,Win32,163.9344262,686c2ebf0248f13bef9af11f,686c9be3cfb02e7a39b67f55,,,,,,,,,,,,,,,,,,,,,,,,,,,,,526.3848,1,audio/Narrative7Situation6.wav,550.2784,,550.2785,560.2376,"[[999,5],[999,104],[999,189],[999,274],[999,358],[999,443],[999,528],[999,613],[999,698],[999,783],[999,868],[999,958],[999,1043],[999,1128],[999,1213],[999,1298],[70,1383],[70,1467],[70,1552],[70,1637],[70,1722],[70,1807],[70,1892],[70,1977],[70,2062],[70,2146],[70,2231],[70,2316],[70,2401],[70,2486],[70,2570],[70,2655],[70,2740],[70,2825],[70,2910],[70,2995],[70,3080],[70,3164],[70,3249],[70,3334],[70,3419],[70,3504],[70,3596],[70,3680],[70,3764],[65.8,3850],[56.9,3935],[53,4019],[52.5,4104],[52.5,4189],[52.6,4274],[52.6,4358],[52.6,4443],[52.6,4528],[52.6,4613],[52.6,4698],[52.6,4783],[52.6,4867],[52.6,4952],[52.6,5037],[52.6,5122],[52.6,5207],[52.6,5292],[52.6,5376],[52.6,5461],[52.6,5546],[52.6,5637],[52.6,5727],[52.6,5807],[52.6,5892],[52.6,5977],[52.6,6067],[52.6,6152],[52.6,6237],[52.6,6322],[52.6,6407],[52.6,6492],[52.6,6576],[55.3,6662],[57.6,6746],[61,6831],[62.9,6916],[63.2,7001],[63.2,7086],[63.2,7170],[63.2,7255],[63.2,7340],[63.2,7425],[63.2,7510],[63.2,7595],[63.2,7679],[63.2,7764],[63.2,7849],[63.2,7934],[63.2,8025],[63.2,8110],[63.2,8195],[63.2,8279],[63.2,8364],[63.2,8449],[63.2,8534],[63.2,8619],[63.2,8704],[63.2,8789],[63.2,8873],[63.2,8958],[74.7,9043],[79.6,9128],[81.2,9213],[84.5,9298],[86.1,9382],[87.2,9467],[87.5,9552],[87.5,9637],[87.4,9722],[87.4,9807],[87.4,9891]]",560.2377,563.5645,86.50917566,2.201,"[{""rating"":86.50917566421596,""responseTime"":2.201000000000022}]",space,2.8125,,563.5645,Not at all,0,563.5665,,,[],,0,15,15,15,1,audio/Narrative8Situation6.wav,audio/Narrative7Situation6.wav,audio/Narrative6Situation6.wav,audio/Narrative5Situation6.wav,2,3,2,3,,,,,,,,,,,,,,,,,,,,,,,,,,,,,,,,,,,,,,,
,,,,,5ba6d507cf54e40001c45aaf,2025-07-07_23h17.57.761,group3.4_multiperson,2023.2.2,Win32,163.9344262,686c2ebf0248f13bef9af11f,686c9be3cfb02e7a39b67f55,,,,,,,,,,,,,,,,,,,,,,,,,,,,,563.5668,1,audio/Narrative7Situation7.wav,568.5708,,568.571,585.7278,"[[56.7,938],[55.6,1023],[52.2,1108],[51.9,1193],[51.8,1278],[51.8,1362],[51.8,1447],[51.8,1532],[51.8,1617],[51.8,1702],[51.8,1787],[51.8,1872],[51.8,1956],[51.8,2041],[51.8,2126],[51.8,2211],[51.8,2296],[51.8,2381],[52.1,2466],[52.6,2550],[53,2635],[53,2720],[53,2810],[53,2890],[53,2975],[53,3059],[53,3144],[53,3229],[53,3314],[53,3399],[53,3484],[53,3568],[53,3654],[53,3738],[53,3823],[53,3908],[53,3993],[53,4078],[53,4162],[53,4247],[53,4332],[53,4417],[53,4502],[53,4587],[53,4671],[53,4756],[53,4841],[53,4926],[53,5011],[53,5096],[53,5181],[53,5271],[53,5356],[53,5441],[53,5530],[53,5611],[53,5696],[53,5781],[53,5865],[53,5950],[53,6035],[53,6120],[53,6205],[53,6290],[53,6375],[53,6459],[53,6544],[53,6629],[53,6714],[53,6799],[53,6884],[53,6968],[53,7053],[53,7138],[53,7223],[53,7308],[53,7393],[53,7477],[53,7568],[53,7653],[53,7738],[53,7823],[53,7908],[53,7993],[53,8077],[53,8162],[53,8247],[53,8332],[53,8417],[53,8502],[53,8587],[53,8671],[53.3,8756],[54.3,8841],[54.9,8926],[55,9011],[55,9096],[55,9180],[55,9265],[55,9350],[55,9435],[55,9520],[55,9605],[55,9690],[55,9774],[55,9859],[55,9944],[55,10029],[55,10114],[55,10199],[55,10283],[55,10368],[55,10453],[55,10538],[55,10623],[55,10708],[55,10793],[55,10877],[55,10962],[55,11047],[55,11132],[55,11217],[55,11302],[55,11387],[55,11471],[55,11556],[55,11641],[55,11726],[55,11811],[55,11896],[55,11981],[55,12065],[55,12150],[55,12235],[55,12320],[55,12405],[55,12490],[55,12574],[55,12659],[55,12744],[55,12829],[55,12914],[55,12999],[55,13083],[55,13168],[55,13253],[55,13338],[55,13423],[55,13508],[55,13593],[55.4,13677],[55.4,13762],[56,13847],[56.3,13938],[56.3,14025],[56.3,14108],[56.3,14193],[56.3,14277],[56.3,14362],[56.3,14447],[56.3,14532],[56.3,14617],[56.3,14702],[56.3,14786],[56.3,14871],[56.3,14956],[56.3,15041],[56.3,15126],[56.3,15211],[56.3,15296],[56.3,15380],[56.3,15465],[56.3,15550],[56.3,15635],[56.3,15720],[56.3,15805],[56.3,15889],[56.3,15974],[56.3,16059],[56.3,16144],[56.3,16229],[56.3,16314],[56.3,16399],[56.6,16484],[56.8,16568],[56.8,16653],[63.1,16738],[64.7,16823],[65.3,16908],[65.7,16993],[66.7,17077]]",585.728,588.0428,88.46153318,1.7462,"[{""rating"":88.46153318171255,""responseTime"":1.7462000000476792}]",space,1.8011,,588.0429,Not at all,0,588.0442,,,[],,0,16,16,16,1,audio/Narrative8Situation7.wav,audio/Narrative7Situation7.wav,audio/Narrative6Situation7.wav,audio/Narrative5Situation7.wav,3,5,5,4,,,,,,,,,,,,,,,,,,,,,,,,,,,,,,,,,,,,,,,
,,,,,5ba6d507cf54e40001c45aaf,2025-07-07_23h17.57.761,group3.4_multiperson,2023.2.2,Win32,163.9344262,686c2ebf0248f13bef9af11f,686c9be3cfb02e7a39b67f55,,,,,,,,,,,,,,,,,,,,,,,,,,,,,588.0445,1,audio/Narrative7Situation8.wav,590.0489,,590.0489,600.0547,"[[999,0],[999,84],[999,169],[999,254],[999,339],[999,424],[999,508],[999,593],[999,678],[999,763],[999,848],[999,933],[999,1017],[999,1102],[999,1187],[999,1272],[999,1357],[999,1442],[999,1527],[999,1611],[999,1696],[999,1781],[999,1866],[999,1951],[999,2036],[999,2120],[999,2205],[999,2290],[999,2375],[999,2460],[999,2545],[999,2630],[999,2714],[999,2799],[999,2884],[999,2975],[999,3060],[999,3145],[999,3230],[999,3314],[999,3399],[999,3484],[999,3569],[999,3654],[999,3739],[999,3823],[999,3908],[999,3993],[999,4078],[999,4163],[999,4248],[999,4332],[999,4417],[999,4502],[999,4587],[999,4672],[999,4757],[999,4842],[999,4926],[999,5011],[999,5096],[999,5181],[999,5266],[999,5351],[999,5436],[999,5520],[999,5605],[999,5690],[999,5775],[999,5860],[999,5945],[999,6029],[999,6114],[999,6203],[999,6284],[999,6375],[999,6460],[999,6545],[999,6630],[999,6714],[999,6799],[999,6884],[999,6969],[999,7054],[999,7139],[999,7223],[999,7308],[999,7393],[999,7478],[999,7563],[999,7648],[999,7732],[999,7817],[999,7902],[999,7987],[999,8072],[999,8157],[999,8242],[999,8326],[999,8411],[999,8496],[999,8581],[999,8672],[999,8757],[999,8842],[999,8926],[999,9011],[999,9096],[999,9181],[999,9266],[999,9351],[59.7,9435],[59.4,9520],[59.4,9605],[56.6,9690],[52.9,9775],[52.6,9860],[53.9,9945]]",600.0549,601.7334,59.17609892,1.426,"[{""rating"":59.176098921621076,""responseTime"":1.4260000000000446}]",space,1.1645,,601.7335,Partially,50,601.7355,,,[],,0,17,17,17,1,audio/Narrative8Situation8.wav,audio/Narrative7Situation8.wav,audio/Narrative6Situation8.wav,audio/Narrative5Situation8.wav,3,2,5,3,,,,,,,,,,,,,,,,,,,,,,,,,,,,,,,,,,,,,,,
,,,,,5ba6d507cf54e40001c45aaf,2025-07-07_23h17.57.761,group3.4_multiperson,2023.2.2,Win32,163.9344262,686c2ebf0248f13bef9af11f,686c9be3cfb02e7a39b67f55,,,,,,,,,,,,,,,,,,,,,,,,,,,,,601.7356,1,audio/Narrative7Situation9.wav,603.7394,,603.7394,612.3514,"[[59.7,4502],[95.1,5012],[95.1,5096],[95.5,5182],[95.7,5266],[95.8,5351],[95.9,5436],[95.9,5521],[95.9,5605],[95.9,5690],[95.9,5775],[95.9,5860],[95.9,5945],[95.9,6030],[95.9,6115],[95.9,6199],[95.9,6284],[95.9,6369],[95.9,6454],[96.6,6539],[96.8,6624],[97,6709],[97,6793],[97,6879],[97,6963],[97,7048],[97,7133],[97,7218],[97,7302],[97,7387],[97,7472],[97,7557],[97,7642],[97,7727],[97,7811],[97,7896],[97,7981],[97,8066],[97,8151],[97,8236],[97,8321],[97,8405],[97,8490],[97,8575]]",612.3515,613.6423,96.97384227,0.7896,"[{""rating"":96.97384227299814,""responseTime"":0.7896000001429684}]",space,0.7798,,613.6424,Not at all,0,613.6447,,,[],,0,18,18,18,1,audio/Narrative8Situation9.wav,audio/Narrative7Situation9.wav,audio/Narrative6Situation9.wav,audio/Narrative5Situation9.wav,3,2,4,3,,,,,,,,,,,,,,,,,,,,,,,,,,,,,,,,,,,,,,,
,,,,,5ba6d507cf54e40001c45aaf,2025-07-07_23h17.57.761,group3.4_multiperson,2023.2.2,Win32,163.9344262,686c2ebf0248f13bef9af11f,686c9be3cfb02e7a39b67f55,,,,,,,,,,,,,,,,,,,,,,,,,,,656.0693,656.0693,656.0824,2,audio/Narrative13Situation2.wav,656.0825,,656.0825,685.8168,"[[999,0],[999,132],[999,213],[999,298],[999,383],[999,468],[999,555],[999,638],[999,722],[999,807],[999,892],[999,977],[999,1061],[999,1146],[999,1231],[999,1316],[999,1401],[999,1486],[65.1,1571],[65.1,3692],[58.6,3777],[58.3,3861],[58.3,3946],[58.3,4031],[58.3,4116],[58.3,4201],[58.3,4286],[58.3,4370],[58.3,4455],[58.3,4540],[58.3,4625],[58.3,4710],[58.3,4795],[58.3,4879],[58.3,4964],[58.3,5049],[58.3,5134],[58.3,5219],[58.3,5304],[58.3,5389],[58.3,5473],[58.3,5558],[58.3,5643],[58.3,5728],[58.3,5813],[58.3,5898],[58.3,5983],[58.3,6067],[58.3,6152],[58.3,6237],[58.4,6322],[58.7,6407],[59.4,6492],[60.4,6576],[61.5,6662],[62,6746],[62.2,6831],[62.2,6916],[62.2,7001],[62.2,7086],[62.2,7170],[62.2,7255],[62.2,7340],[62.2,7425],[62.2,7510],[62.2,7595],[62.2,7679],[62.2,7764],[62.2,7849],[62.2,7934],[62.2,8019],[62.2,8104],[62.2,8189],[62.2,8273],[62.2,8358],[62.2,8443],[62.2,8528],[62.2,8613],[62.2,8697],[62.2,8782],[62.9,8868],[63.6,8952],[63.6,9037],[63.6,9122],[64.4,9207],[64.4,9292],[64.4,9376],[64.4,9461],[64.4,9546],[64.4,9631],[64.4,9716],[64.4,9801],[64.4,9885],[64.4,9970],[64.4,10055],[64.4,10140],[64.4,10225],[64.4,10310],[64.4,10401],[64.4,10485],[64.4,10570],[64.4,10655],[64.4,10746],[64.4,10831],[64.4,10916],[64.4,11001],[64.4,11085],[64.4,11170],[64.4,11255],[64.4,11340],[64.4,11428],[64.4,11510],[64.4,11595],[64.4,11679],[64.4,11764],[64.4,11849],[64.4,11934],[64.4,12019],[64.4,12104],[64.4,12188],[64.4,12273],[64.4,12358],[64.4,12443],[64.4,12528],[64.4,12613],[64.4,12698],[64.4,12782],[64.4,12867],[64.4,12952],[64.4,13037],[64.4,13122],[64.4,13207],[64.4,13292],[64.4,13376],[64.4,13461],[64.4,13546],[64.4,13631],[64.4,13716],[64.4,13801],[64.4,13885],[64.4,13970],[64.4,14055],[64.4,14140],[64.4,14225],[64.4,14310],[64.4,14394],[64.4,14480],[64.4,14564],[64.4,14649],[64.4,14734],[64.4,14819],[64.4,14904],[64.4,14988],[64.4,15073],[64.4,15158],[64.4,15243],[64.4,15328],[64.4,15413],[64.4,15498],[64.4,15582],[64.4,15667],[64.4,15752],[64.4,15837],[64.4,15922],[64.4,16007],[64.4,16091],[64.4,16176],[64.4,16261],[64.4,16346],[64.4,16431],[64.4,16516],[64.4,16602],[64.4,16685],[64.4,16770],[64.4,16855],[64.4,16940],[64.4,17025],[64.4,17110],[64.4,17194],[64.4,17279],[64.4,17364],[64.4,17449],[64.4,17534],[64.4,17619],[64.4,17703],[64.4,17788],[64.4,17873],[64.4,17958],[64.4,18049],[64.4,18134],[64.4,18219],[64.4,18303],[64.4,18388],[64.4,18473],[64.4,18558],[64.4,18643],[64.4,18728],[64.4,18813],[64.4,18898],[64.4,18982],[64.4,19067],[64.4,19152],[64.4,19237],[64.4,19322],[64.4,19407],[64.4,19491],[64.4,19578],[64.4,19663],[64.4,19746],[64.4,19831],[64.4,19916],[64.4,20000],[64.4,20085],[64.4,20170],[64.4,20255],[64.4,20340],[64.4,20425],[64.4,20509],[64.4,20594],[64.4,20679],[64.4,20764],[64.4,20849],[64.4,20934],[64.4,21019],[64.4,21103],[64.4,21194],[64.4,21279],[64.4,21364],[64.4,21449],[64.4,21534],[64.4,21619],[64.4,21703],[64.4,21788],[64.5,21873],[64.8,21958],[64.8,22043],[65.1,22128],[65.3,22213],[65.3,22297],[65.3,22382],[65.3,22467],[65.3,22552],[65.3,22637],[65.3,22722],[65.3,22806],[65.3,22891],[65.3,22976],[65.3,23061],[65.3,23146],[65.3,23231],[65.3,23316],[65.3,23400],[65.3,23485],[65.3,23570],[65.3,23655],[65.3,23740],[65.3,23825],[65.3,23910],[65.3,23994],[65.3,24079],[65.3,24164],[65.3,24249],[65.3,24340],[65.3,24425],[65.3,24509],[65.3,24594],[65.3,24679],[65.3,24764],[65.3,24849],[65.3,24934],[65.3,25019],[65.3,25103],[65.3,25188],[65.3,25273],[65.3,25358],[65.3,25443],[65.3,25528],[65.3,25613],[65.3,25697],[65.3,25782],[65.3,25867],[65.3,25952],[65.3,26037],[65.3,26121],[65.3,26206],[65.3,26291],[65.3,26376],[65.3,26461],[65.3,26546],[65.3,26631],[65.3,26716],[65.3,26800],[65.3,26885],[65.3,26976],[65.3,27061],[65.3,27146],[65.3,27230],[65.3,27316],[65.3,27400],[65.3,27485],[65.3,27570],[65.3,27655],[65.4,27740],[66.2,27825],[66.8,27910],[67,27994],[67,28079],[66.7,28164],[66.7,28249],[66.8,28334],[67,28418],[67,28503],[67,28588],[67,28674],[67,28758],[67,28843],[67,28927],[67,29012],[67,29097],[67,29182],[68.3,29267],[70.5,29352],[74.7,29437],[77.8,29522],[80.8,29607],[84.3,29691]]",685.817,685.8184,,,[],,,,685.8184,Definitely yes,100,685.8199,,,[],,0,0,0,0,1,audio/Narrative13Situation2.wav,audio/Narrative13Situation2.wav,audio/Narrative13Situation2.wav,audio/Narrative13Situation2.wav,2,2,2,2,,,,,613.6452,656.069,,,,,,,,,,,,,,,,,,,,,,,,,,,,,,,,,
,,,,,5ba6d507cf54e40001c45aaf,2025-07-07_23h17.57.761,group3.4_multiperson,2023.2.2,Win32,163.9344262,686c2ebf0248f13bef9af11f,686c9be3cfb02e7a39b67f55,,,,,,,,,,,,,,,,,,,,,,,,,,,,,685.8201,2,audio/Narrative6Situation1.wav,687.8226,,687.8227,714.3857,"[[86.8,254],[87.2,339],[87.2,424],[87.2,509],[87.2,593],[87.2,678],[87.2,763],[87.2,848],[87.2,933],[87.2,1017],[87.2,1102],[87.2,1187],[87.2,1272],[87.2,1357],[87.2,1442],[87.2,1527],[86.2,1612],[85.6,1700],[85.3,1782],[85.1,1866],[84.9,1951],[84.5,2036],[84.4,2120],[84.4,2205],[84.4,2290],[84.4,2375],[84.4,2460],[84.4,2545],[84.4,2630],[84.4,2714],[84.4,2799],[84.4,2884],[84.4,2969],[84.4,3054],[84.4,3139],[84.4,3224],[84.4,3308],[84.4,3393],[84.4,3478],[84.4,3563],[84.4,3648],[84.4,3733],[84.4,3817],[84.4,3902],[84.4,3987],[84.4,4072],[84.4,4157],[84.4,4242],[84.4,4327],[84.4,4411],[84.4,4502],[84.4,4587],[84.4,4672],[84.4,4757],[84.4,4842],[84.4,4927],[84.4,5011],[84.4,5096],[84.4,5181],[84.4,5266],[84.4,5351],[84.4,5436],[84.4,5520],[84.4,5605],[84.4,5690],[84.4,5775],[84.4,5860],[84.4,5945],[84.4,6029],[84.4,6114],[84.4,6199],[84.4,6284],[84.4,6369],[84.4,6454],[84.4,6539],[84.4,6623],[84.4,6708],[84.4,6793],[84.4,6878],[84.4,6963],[84.4,7048],[84.4,7132],[84.4,7217],[84.4,7302],[84.4,7387],[84.4,7472],[84.4,7557],[84.4,7642],[84.4,7726],[84.4,7811],[84.4,7896],[84.4,7981],[84.4,8066],[84.4,8151],[84.4,8236],[84.4,8320],[84.4,8405],[84.4,8490],[84.4,8575],[84.4,8660],[84.4,8745],[84.4,8830],[84.4,8920],[84.4,9005],[84.4,9090],[84.4,9176],[84.4,9260],[84.4,9345],[84.4,9430],[84.4,9514],[84.4,9599],[84.4,9684],[84.4,9769],[84.4,9854],[84.4,9939],[84.4,10023],[84.4,10108],[84.4,10193],[84.4,10278],[84.4,10363],[84.4,10448],[84.4,10533],[84.4,10617],[84.4,10702],[84.4,10787],[84.4,10872],[84.4,10957],[84.4,11042],[84.4,11126],[84.4,11211],[84.4,11296],[84.4,11381],[84.4,11466],[84.4,11551],[84.4,11635],[84.4,11726],[84.4,11811],[84.4,11897],[84.4,11981],[84.4,12066],[84.4,12151],[84.4,12235],[84.4,12320],[84.4,12405],[84.4,12490],[84.4,12575],[84.4,12660],[84.4,12745],[84.4,12829],[84.4,12914],[84.4,12999],[84.4,13084],[84.4,13169],[84.4,13254],[84.4,13338],[84.4,13423],[84.4,13508],[84.4,13593],[84.4,13678],[84.4,13763],[84.4,13847],[84.4,13932],[84.4,14017],[84.4,14102],[84.4,14187],[84.4,14272],[84.4,14357],[84.4,14442],[84.4,14526],[84.4,14611],[84.4,14696],[84.4,14781],[84.4,14866],[84.4,14951],[84.4,15035],[84.4,15120],[84.4,15205],[84.4,15290],[84.4,15375],[84.4,15460],[84.4,15544],[84.4,15629],[84.4,15714],[84.4,15799],[84.4,15884],[84.4,15969],[84.4,16054],[84.4,16139],[84.4,16223],[84.4,16308],[84.4,16393],[84.4,16478],[84.4,16563],[84.4,16647],[84.4,16732],[84.4,16817],[84.4,16902],[84.4,16987],[84.4,17072],[84.4,17157],[84.4,17241],[84.4,17327],[84.4,17412],[84.4,17496],[84.4,17581],[84.4,17666],[84.4,17750],[84.4,17841],[84.4,17927],[84.4,18011],[84.4,18096],[84.4,18181],[84.4,18266],[84.4,18351],[84.4,18435],[84.4,18520],[84.4,18605],[84.4,18690],[84.4,18775],[84.4,18860],[84.4,18944],[84.4,19029],[84.4,19114],[84.4,19199],[84.4,19284],[84.4,19369],[84.4,19453],[84.4,19538],[84.4,19623],[84.4,19708],[84.4,19793],[84.4,19878],[84.4,19963],[84.4,20047],[84.4,20132],[84.4,20217],[84.4,20302],[84.4,20387],[84.4,20472],[84.4,20557],[84.4,20641],[84.4,20726],[84.4,20811],[84.4,20896],[84.4,20981],[84.4,21066],[84.4,21150],[84.4,21235],[84.4,21320],[84.4,21405],[84.4,21490],[84.4,21575],[84.4,21659],[84.4,21745],[84.4,21829],[84.4,21914],[84.4,21999],[84.4,22084],[84.4,22169],[84.4,22254],[84.4,22338],[84.4,22423],[84.4,22508],[84.4,22593],[84.4,22678],[84.4,22763],[84.4,22847],[84.4,22932],[84.4,23017],[84.4,23102],[84.4,23187],[84.4,23272],[84.4,23356],[84.4,23441],[84.4,23526],[84.4,23611],[84.4,23696],[84.4,23781],[84.4,23866],[84.4,23950],[84.4,24035],[84.4,24120],[84.4,24205],[84.4,24290],[84.4,24375],[84.4,24459],[84.4,24544],[84.4,24629],[84.4,24714],[84.4,24799],[84.4,24884],[84.4,24969],[84.4,25053],[84.4,25138],[84.4,25223],[84.4,25308],[84.4,25401],[84.4,25484],[84.4,25568],[84.4,25653],[84.4,25738],[84.4,25823],[84.4,25908],[84.4,25993],[84.4,26078],[84.7,26163],[87.1,26247],[87.6,26332],[87.6,26417],[87.6,26502]]",714.3859,717.4403,88.14915998,2.0088,"[{""rating"":88.14915998278107,""responseTime"":2.0087999999523163}]",space,2.5413,,717.4404,Not at all,0,717.4424,,,[],,0,1,1,1,1,audio/Narrative7Situation1.wav,audio/Narrative8Situation1.wav,audio/Narrative5Situation1.wav,audio/Narrative6Situation1.wav,2,5,5,2,,,,,,,,,,,,,,,,,,,,,,,,,,,,,,,,,,,,,,,
,,,,,5ba6d507cf54e40001c45aaf,2025-07-07_23h17.57.761,group3.4_multiperson,2023.2.2,Win32,163.9344262,686c2ebf0248f13bef9af11f,686c9be3cfb02e7a39b67f55,,,,,,,,,,,,,,,,,,,,,,,,,,,,,717.4426,2,audio/Narrative6Situation2.wav,720.4462,,720.4462,748.9305,"[[84,1115],[78.7,1200],[76.9,1284],[76.7,1369],[76.6,1454],[76.6,1539],[76.6,1624],[76.6,1709],[76.6,1793],[76.6,1878],[76.6,1963],[76.6,2048],[76.6,2133],[76.6,2218],[76.6,2302],[76.6,2387],[76.6,2472],[76.6,2557],[76.6,2642],[76.6,2727],[76.6,2812],[76.6,2896],[76.6,2981],[76.6,3066],[76.6,3151],[76.6,3236],[76.6,3321],[76.6,3405],[76.6,3490],[76.6,3575],[76.6,3660],[76.6,3745],[76.6,3830],[76.6,3915],[76.6,3999],[76.6,4084],[76.6,4169],[76.6,4254],[76.6,4339],[76.6,4424],[76.6,4509],[76.6,4593],[76.6,4678],[76.6,4763],[76.6,4848],[76.6,4933],[76.6,5018],[76.6,5103],[76.6,5187],[76.6,5272],[76.6,5357],[76.6,5442],[77.2,5527],[77.7,5612],[78.5,5697],[78.6,5781],[79,5866],[79.3,5951],[79.5,6036],[79.6,6121],[79.8,6205],[80,6290],[80.1,6375],[80.3,6460],[80.9,6545],[81.4,6630],[82.1,6714],[82.3,6799],[82.4,6884],[82.4,6969],[82.4,7054],[82.4,7139],[82.4,7224],[82.4,7308],[82.4,7393],[82.4,7478],[82.4,7563],[82.4,7648],[82.4,7733],[82.4,7817],[82.4,7902],[82.4,7987],[82.4,8072],[82.4,8157],[82.4,8244],[82.4,8326],[82.4,8411],[82.4,8496],[82.4,8587],[83.2,8672],[84,8757],[84.3,8844],[84.5,8927],[84.7,9011],[84.9,9096],[84.9,9181],[84.9,9266],[84.9,9351],[84.9,9436],[84.9,9520],[84.9,9605],[84.9,9690],[84.9,9775],[84.9,9860],[84.9,9945],[84.9,10030],[84.9,10114],[84.9,10199],[84.9,10290],[84.9,10375],[84.9,10460],[84.9,10545],[84.9,10630],[84.9,10714],[84.9,10799],[84.9,10884],[84.9,10969],[84.9,11054],[84.9,11139],[84.9,11224],[84.9,11308],[84.9,11393],[84.9,11478],[84.9,11563],[84.9,11648],[84.9,11733],[84.9,11817],[84.9,11902],[84.9,11987],[84.9,12072],[84.9,12157],[84.9,12242],[84.9,12326],[84.9,12411],[84.9,12496],[84.9,12581],[84.9,12666],[84.9,12751],[84.9,12836],[84.9,12920],[84.9,13005],[84.9,13090],[84.9,13175],[84.9,13260],[84.9,13345],[84.9,13430],[84.9,13514],[84.9,13599],[84.9,13684],[84.9,13769],[84.9,13854],[84.9,13939],[84.9,14023],[84.9,14108],[84.9,14193],[84.9,14278],[84.9,14363],[84.9,14448],[84.9,14533],[84.9,14618],[84.9,14702],[84.9,14787],[84.9,14872],[84.9,14957],[84.9,15042],[84.9,15127],[84.9,15211],[84.9,15296],[84.9,15381],[84.9,15466],[84.9,15551],[84.9,15636],[84.9,15720],[84.9,15805],[84.9,15896],[84.9,15981],[84.9,16066],[84.9,16151],[84.9,16235],[84.9,16320],[84.9,16405],[84.9,16490],[84.9,16575],[84.9,16660],[84.9,16745],[84.9,16829],[84.9,16914],[84.9,16999],[84.9,17084],[84.9,17169],[84.9,17254],[84.9,17338],[84.9,17423],[84.9,17508],[84.9,17593],[84.9,17678],[84.9,17763],[84.9,17848],[84.9,17932],[84.9,18017],[84.9,18102],[84.9,18187],[84.9,18272],[84.9,18361],[84.9,18442],[84.9,18526],[84.9,18611],[84.9,18696],[84.9,18781],[84.9,18866],[84.9,18951],[84.9,19035],[84.9,19120],[84.9,19205],[85.2,19290],[85.9,19375],[86.8,19460],[88.3,19545],[89.2,19629],[89.2,19714],[89.2,19799],[90.2,19884],[90.2,19969],[90.2,20054],[90.2,20138],[90.2,20223],[90.2,20308],[90.2,20393],[90.2,20478],[90.2,20563],[90.2,20647],[90.2,20732],[90.2,20817],[90.2,20902],[90.2,20987],[90.2,21072],[90.2,21157],[90.2,21241],[90.2,21326],[90.2,21411],[90.2,21496],[90.2,21581],[90.2,21666],[90.2,21751],[90.2,21835],[90.2,21920],[90.2,22005],[90.2,22090],[90.2,22175],[90.2,22260],[90.2,22345],[90.2,22429],[90.2,22514],[90.2,22599],[90.2,22684],[90.2,22769],[90.2,22854],[90,22938],[89.5,23024],[89.5,23108],[89.5,23193],[89.5,23279],[89.5,23363],[89.5,23447],[89.5,23532],[89.5,23617],[89.5,23702],[89.5,23787],[89,23872],[88.1,23956],[87.8,24041],[87.6,24126],[87.1,24211],[84.3,24296],[84.2,24381],[84.2,24466],[84.2,24550],[84.2,24635],[84.2,24720],[84.2,24805],[84.2,24890],[84.5,24975],[85,25060],[85.2,25144],[85.7,25230],[85.8,25314],[85.8,25399],[85.8,25484],[85.8,25569],[85.8,25653],[85.8,25738],[85.8,25823],[85.8,25908],[85.8,26000],[85.8,26084],[85.8,26169],[85.8,26259],[85.8,26344],[85.8,26429],[85.8,26514],[85.8,26599],[88.1,26684],[89.2,26769],[91.1,26854],[93.2,26938],[93.6,27023],[93.6,27108],[93.6,27199],[93.6,27284],[93.6,27369],[93.6,27453],[93.6,27538],[93.6,27623],[93.6,27708],[93.6,27793],[93.6,27878],[93.6,27963],[93.6,28048],[93.6,28144],[93.6,28229],[93.6,28314],[93.6,28399],[93.6,28484]]",748.9307,749.779,93.61576961,0.4882,"[{""rating"":93.61576961148867,""responseTime"":0.26210000014305024},{""rating"":93.61576961148867,""responseTime"":0.48820000004764097}]",space,0.3348,,749.7791,Not at all,0,749.7803,,,[],,0,2,2,2,1,audio/Narrative7Situation2.wav,audio/Narrative8Situation2.wav,audio/Narrative5Situation2.wav,audio/Narrative6Situation2.wav,3,3,3,3,,,,,,,,,,,,,,,,,,,,,,,,,,,,,,,,,,,,,,,
,,,,,5ba6d507cf54e40001c45aaf,2025-07-07_23h17.57.761,group3.4_multiperson,2023.2.2,Win32,163.9344262,686c2ebf0248f13bef9af11f,686c9be3cfb02e7a39b67f55,,,,,,,,,,,,,,,,,,,,,,,,,,,,,749.7805,2,audio/Narrative6Situation3.wav,754.7849,,754.785,767.3787,"[[92.6,684],[64.6,854],[64,939],[64,1024],[64,1108],[64,1193],[64,1278],[56.9,1363],[55.1,1454],[55.1,1539],[55.1,1624],[55.1,1708],[55.1,1793],[55.1,1878],[55.1,1963],[53.3,2049],[52,2133],[51.9,2218],[51.9,2302],[51.9,2387],[51.9,2472],[51.9,2557],[51.9,2642],[51.9,2726],[51.9,2811],[51.9,2896],[51.9,2981],[51.9,3066],[51.9,3151],[51.9,3236],[51.9,3321],[51.9,3405],[51.9,3490],[51.9,3575],[51.9,3660],[51.9,3751],[51.9,3836],[51.9,3927],[51.9,4011],[51.9,4096],[51.9,4181],[51.9,4266],[51.9,4351],[51.9,4436],[51.9,4520],[56,4605],[63.3,4690],[65.1,4775],[65.7,4860],[65.7,4945],[65.7,5029],[65.7,5114],[65.7,5199],[65.7,5284],[65.7,5369],[65.7,5461],[65.7,5545],[65.7,5629],[65.7,5714],[65.7,5799],[65.7,5884],[65.7,5975],[65.7,6060],[65.7,6151],[65.7,6242],[65.7,6326],[65.7,6411],[65.7,6496],[65.7,6581],[65.7,6666],[65.7,6751],[65.7,6836],[65.7,6921],[65.7,7005],[65.7,7090],[65.7,7175],[65.7,7260],[65.7,7345],[65.7,7430],[65.7,7520],[65.7,7605],[65.7,7690],[65.6,7775],[100,7878],[100,8200],[100,8304],[100,8414],[100,8496],[100,8581],[100,8666],[100,8751],[100,8836],[100,8920],[100,9005],[100,9090],[69.9,12520]]",767.3788,769.227,85.10347482,1.4944,"[{""rating"":85.10347481973156,""responseTime"":1.4944000000954247}]",space,1.3323,,769.2271,Partially,50,769.229,,,[],,0,3,3,3,1,audio/Narrative7Situation3.wav,audio/Narrative8Situation3.wav,audio/Narrative5Situation3.wav,audio/Narrative6Situation3.wav,8,4,3,5,,,,,,,,,,,,,,,,,,,,,,,,,,,,,,,,,,,,,,,
,,,,,5ba6d507cf54e40001c45aaf,2025-07-07_23h17.57.761,group3.4_multiperson,2023.2.2,Win32,163.9344262,686c2ebf0248f13bef9af11f,686c9be3cfb02e7a39b67f55,,,,,,,,,,,,,,,,,,,,,,,,,,,,,769.2292,2,audio/Narrative6Situation4.wav,771.2331,,771.2331,783.8268,"[[69,4078],[69,4163],[69,4248],[69,4333],[69,4418],[69,4502],[69,4587],[69,4672],[69,4757],[69,4842],[69,4927],[69,5011],[69,5096],[69,5181],[69,5266],[69,5351],[69,5436],[69,5520],[69,5605],[69,5690],[69,5775],[69,5860],[69,5945],[69,6030],[69,6115],[69,6199],[69,6284],[69,6369],[69,6454],[69,6539],[69,6624],[69,6708],[69,6794],[69,6878],[69,6963],[69,7048],[69,7133],[69,7217],[69,7302],[69,7387],[69,7472],[69,7557],[69,7642],[69,7726],[69,7811],[69,7896],[69,7981],[69,8066],[69,8151],[69,8236],[69,8320],[69,8405],[69,8490],[69,8575],[69,8660],[69,8745],[69,8829],[69,8914],[69,8999],[69,9084],[69,9169],[69,9254],[69,9339],[69,9424],[69,9508],[69,9593],[69,9678],[69,9763],[69,9848],[69,9932],[69,10017],[69,10103],[69,10187],[69.5,10272],[75.8,10361],[79.3,10442],[70.4,11466],[68.7,11551],[68.7,11636],[68.7,11720],[68.7,11805],[68.7,11890],[68.7,11975],[68.7,12060],[68.7,12145],[68.7,12230],[68.7,12314],[68.7,12399],[68.7,12484],[68.7,12569]]",783.8269,795.2813,82.8387298,10.9954,"[{""rating"":82.838729803775,""responseTime"":10.995400000095401}]",space,10.9409,,795.2814,Partially,50,795.2832,,,[],,0,4,4,4,1,audio/Narrative7Situation4.wav,audio/Narrative8Situation4.wav,audio/Narrative5Situation4.wav,audio/Narrative6Situation4.wav,3,3,1,2,,,,,,,,,,,,,,,,,,,,,,,,,,,,,,,,,,,,,,,
,,,,,5ba6d507cf54e40001c45aaf,2025-07-07_23h17.57.761,group3.4_multiperson,2023.2.2,Win32,163.9344262,686c2ebf0248f13bef9af11f,686c9be3cfb02e7a39b67f55,,,,,,,,,,,,,,,,,,,,,,,,,,,,,795.2835,2,audio/Narrative6Situation5.wav,797.287,,797.2871,805.2266,[],805.2267,807.499,68.78172136,2.0615,"[{""rating"":68.78172135893108,""responseTime"":2.0615000000000236}]",space,1.76,,807.4991,Definitely yes,100,807.501,,,[],,0,5,5,5,1,audio/Narrative7Situation5.wav,audio/Narrative8Situation5.wav,audio/Narrative5Situation5.wav,audio/Narrative6Situation5.wav,5,2,5,2,,,,,,,,,,,,,,,,,,,,,,,,,,,,,,,,,,,,,,,
,,,,,5ba6d507cf54e40001c45aaf,2025-07-07_23h17.57.761,group3.4_multiperson,2023.2.2,Win32,163.9344262,686c2ebf0248f13bef9af11f,686c9be3cfb02e7a39b67f55,,,,,,,,,,,,,,,,,,,,,,,,,,,,,807.5012,2,audio/Narrative6Situation6.wav,809.505,,809.505,820.5655,[],820.5656,822.1355,92.52245627,1.311,"[{""rating"":92.52245626546423,""responseTime"":1.3109999999999218}]",space,1.0571,,822.1355,Definitely yes,100,822.1367,,,[],,0,6,6,6,1,audio/Narrative7Situation6.wav,audio/Narrative8Situation6.wav,audio/Narrative5Situation6.wav,audio/Narrative6Situation6.wav,3,2,3,2,,,,,,,,,,,,,,,,,,,,,,,,,,,,,,,,,,,,,,,
,,,,,5ba6d507cf54e40001c45aaf,2025-07-07_23h17.57.761,group3.4_multiperson,2023.2.2,Win32,163.9344262,686c2ebf0248f13bef9af11f,686c9be3cfb02e7a39b67f55,,,,,,,,,,,,,,,,,,,,,,,,,,,,,822.1368,2,audio/Narrative6Situation7.wav,827.141,,827.1411,851.977,"[[87.4,2042],[84.3,2127],[84.3,2211],[84.3,2296],[84.3,2381],[84.3,2466],[84.3,2551],[84.3,2636],[84.3,2721],[84.3,2805],[84.3,2890],[84.3,2975],[84.3,3060],[84.3,3145],[84.3,3230],[84.3,3314],[84.3,3399],[84.3,3484],[84.3,3569],[84.3,3654],[84.3,3739],[84.3,3824],[84.3,3908],[84.3,3993],[84.3,4078],[84.3,4169],[78.4,4257],[71.2,4339],[70.2,4423],[70.2,4508],[70.2,4593],[70.2,4678],[70.2,4763],[70.2,4848],[70.2,4933],[70.2,5018],[70.2,5102],[70.2,5187],[70.2,5272],[70.2,5357],[70.2,5442],[70.2,5526],[70.2,5611],[70.2,5696],[70.2,5781],[70.2,5866],[70.2,5951],[70.2,6036],[70.2,6120],[70.2,6205],[70.2,6290],[70.2,6375],[70.2,6460],[70.2,6545],[70.2,6630],[70.2,6714],[70.2,6799],[70.2,6884],[70.2,6969],[70.2,7054],[70.2,7139],[70.2,7223],[74.6,7308],[77.2,7393],[78.6,7478],[79.8,7563],[79.8,7648],[79.8,7732],[79.8,7817],[79.8,7902],[79.8,7987],[79.8,8072],[79.8,8157],[79.8,8242],[79.8,8327],[81.5,8412],[82.8,8496],[83.9,8581],[84.3,8666],[84.3,8751],[84.3,8836],[84.3,8920],[84.3,9005],[84.3,9090],[84.3,9175],[84.3,9260],[84.3,9345],[84.3,9429],[84.3,9514],[84.3,9599],[84.3,9684],[84.3,9769],[84.3,9854],[85,9939],[85.7,10024],[86,10108],[86.5,10193],[86.5,10279],[86.5,10363],[86.5,10448],[86.5,10532],[86.5,10617],[86.5,10708],[86.5,10799],[86.5,10884],[86.5,10969],[86.5,11054],[86.5,11139],[86.5,11223],[86.5,11308],[86.5,11393],[86.5,11478],[86.5,11563],[86.5,11648],[86.5,11732],[86.5,11817],[86.5,11902],[86.5,11987],[86.5,12072],[86.5,12157],[86.5,12242],[86.5,12326],[86.5,12411],[86.5,12496],[86.5,12581],[86.5,12666],[86.5,12751],[86.5,12835],[86.5,12920],[86.5,13005],[86.5,13090],[86.5,13175],[86.5,13260],[86.5,13344],[86.5,13433],[86.5,13514],[86.5,13605],[86.5,13690],[86.5,13775],[86.5,13860],[86.5,13945],[86.5,14029],[86.5,14114],[86.5,14199],[86.5,14284],[86.5,14369],[86.5,14454],[86.5,14539],[86.5,14623],[86.5,14708],[86.5,14793],[87,14878],[87.6,14963],[87.8,15048],[88.3,15132],[88.5,15217],[88.6,15302],[88.6,15387],[88.6,15472],[88.6,15557],[88.6,15642],[88.6,15726],[88.6,15811],[88.6,15902],[88.6,15987],[88.6,16072],[88.6,16157],[88.6,16241],[88.6,16326],[88.6,16411],[88.6,16502],[88.6,16587],[88.6,16672],[88.6,16757],[88.6,16841],[88.6,16926],[88.6,17011],[88.6,17096],[88.6,17181],[88.6,17266],[88.6,17351],[88.6,17435],[88.6,17520],[88.6,17605],[88.6,17690],[88.6,17775],[88.6,17860],[88.6,17944],[88.6,18029],[88.6,18114],[88.6,18199],[88.6,18284],[88.6,18369],[88.6,18454],[88.6,18538],[88.6,18623],[88.6,18708],[88.6,18793],[88.6,18878],[88.6,18963],[88.6,19047],[88.6,19132],[88.6,19217],[88.6,19308],[88.6,19393],[88.6,19478],[88.6,19563],[88.6,19647],[88.6,19732],[88.6,19817],[88.6,19902],[88.6,19987],[88.6,20072],[88.6,20156],[88.6,20241],[88.6,20326],[88.6,20411],[88.6,20496],[88.6,20581],[88.6,20666],[88.6,20750],[88.6,20835],[88.6,20920],[88.6,21005],[88.6,21090],[88.6,21175],[88.6,21260],[88.6,21344],[88.6,21429],[88.6,21514],[88.6,21605],[88.6,21690],[88.6,21775],[88.6,21859],[88.6,21944],[88.6,22029],[88.6,22114],[88.6,22199],[88.6,22284],[88.6,22369],[88.6,22453],[88.6,22538],[88.6,22623],[88.6,22708],[88.6,22793],[88.6,22878],[88.6,22963],[88.6,23047],[88.6,23133],[88.6,23217],[88.6,23302],[88.6,23387],[88.6,23472],[88.6,23556],[88.6,23641],[88.6,23726],[88.6,23811],[88.6,23896],[88.6,23981],[88.6,24065],[88.6,24150],[88.6,24235],[88.6,24320],[88.6,24405],[88.6,24490],[88.6,24575],[88.6,24659],[88.6,24744],[88.6,24829]]",851.9772,856.2798,89.39866708,4.3008,"[{""rating"":89.3986670780355,""responseTime"":4.300799999952233}]",space,2.2063,,856.2799,Definitely yes,100,856.2816,,,[],,0,7,7,7,1,audio/Narrative7Situation7.wav,audio/Narrative8Situation7.wav,audio/Narrative5Situation7.wav,audio/Narrative6Situation7.wav,5,3,4,5,,,,,,,,,,,,,,,,,,,,,,,,,,,,,,,,,,,,,,,
,,,,,5ba6d507cf54e40001c45aaf,2025-07-07_23h17.57.761,group3.4_multiperson,2023.2.2,Win32,163.9344262,686c2ebf0248f13bef9af11f,686c9be3cfb02e7a39b67f55,,,,,,,,,,,,,,,,,,,,,,,,,,,,,856.2819,2,audio/Narrative6Situation8.wav,861.2858,space,861.2858,868.1221,[],868.1221,872.4431,44.96290388,3.8335,"[{""rating"":82.213983405912,""responseTime"":2.2132000000476637},{""rating"":44.96290387731142,""responseTime"":3.833499999999958}]",space,3.8051,,872.4431,Not at all,0,872.445,,,[],,0,8,8,8,1,audio/Narrative7Situation8.wav,audio/Narrative8Situation8.wav,audio/Narrative5Situation8.wav,audio/Narrative6Situation8.wav,2,3,3,5,0.1453,,,,,,,,,,,,,,,,,,,,,,,,,,,,,,,,,,,,,,
,,,,,5ba6d507cf54e40001c45aaf,2025-07-07_23h17.57.761,group3.4_multiperson,2023.2.2,Win32,163.9344262,686c2ebf0248f13bef9af11f,686c9be3cfb02e7a39b67f55,,,,,,,,,,,,,,,,,,,,,,,,,,,,,872.4451,2,audio/Narrative6Situation9.wav,876.449,,876.4491,886.3823,"[[43.6,6721],[36.2,6806],[28.7,6890],[21.6,6975],[19.4,7060],[19.4,7145],[19.4,7230],[19.4,7314],[19.4,7399],[19.4,7484],[19.4,7569],[19.4,7654],[15.8,7739],[12.7,7824],[11,7914],[10.8,7999],[10.8,8090],[10.8,8175],[10.8,8260],[10.8,8345],[10.4,8430],[6.2,8515],[5.2,8599],[5.2,8684],[5.2,8769],[5.1,8854],[5.1,8939],[5.1,9030],[5.1,9115],[5.1,9199],[5.1,9290],[5.1,9375],[5.1,9460],[5.1,9545],[5.1,9629],[5.1,9714],[5.1,9799],[5.1,9884]]",886.3823,887.4368,5.134713284,0.7958,"[{""rating"":5.134713283586989,""responseTime"":0.7957999999523508}]",space,0.5429,,887.4368,Partially,50,887.4385,,,[],,0,9,9,9,1,audio/Narrative7Situation9.wav,audio/Narrative8Situation9.wav,audio/Narrative5Situation9.wav,audio/Narrative6Situation9.wav,2,3,3,4,,,,,,,,,,,,,,,,,,,,,,,,,,,,,,,,,,,,,,,
,,,,,5ba6d507cf54e40001c45aaf,2025-07-07_23h17.57.761,group3.4_multiperson,2023.2.2,Win32,163.9344262,686c2ebf0248f13bef9af11f,686c9be3cfb02e7a39b67f55,,,,,,,,,,,,,,,,,,,,,,,,,,,,,887.4387,2,audio/Narrative5Situation1.wav,892.4427,,892.4427,905.7092,"[[11,12484],[29,12569],[32.1,12654],[32.1,12739],[40.8,12824],[46.7,12908]]",905.7093,908.1635,63.8617684,2.2216,"[{""rating"":63.86176840323572,""responseTime"":2.221599999904697}]",space,1.944,,908.1636,Definitely yes,100,908.1654,,,[],,0,10,10,10,1,audio/Narrative8Situation1.wav,audio/Narrative7Situation1.wav,audio/Narrative6Situation1.wav,audio/Narrative5Situation1.wav,5,2,2,5,,,,,,,,,,,,,,,,,,,,,,,,,,,,,,,,,,,,,,,
,,,,,5ba6d507cf54e40001c45aaf,2025-07-07_23h17.57.761,group3.4_multiperson,2023.2.2,Win32,163.9344262,686c2ebf0248f13bef9af11f,686c9be3cfb02e7a39b67f55,,,,,,,,,,,,,,,,,,,,,,,,,,,,,908.1656,2,audio/Narrative5Situation2.wav,911.1696,,911.1696,940.6115,"[[64,7902],[64,7987],[64,8078],[64,8163],[64,8248],[64,8333],[64,8417],[64,8502],[64,8587],[64,8672],[64,8757],[64,8842],[64,8927],[64,9012],[60.1,9096],[59.6,9181],[59.6,9266],[59.6,9351],[59.6,9436],[59.6,9520],[59.6,9605],[59.6,9690],[59.6,9775],[59.6,9860],[59.6,9945],[59.6,10029],[59.6,10114],[59.6,10199],[59.6,10284],[59.6,10369],[59.6,10454],[59.6,10539],[59.5,10623],[59.8,10709],[60.5,10793],[60.8,10879],[60.8,10963],[60.8,11048],[60.8,11133],[60.8,11217],[60.8,11302],[60.8,11387],[60.8,11472],[60.8,11557],[60.8,11642],[60.8,11726],[60.8,11811],[60.9,11896],[60.3,11981],[59.4,12066],[59.1,12151],[59.1,12242],[59.1,12327],[59.1,12411],[59.1,12502],[59.1,12587],[59.1,12672],[59.1,12757],[59.1,12842],[59.1,12926],[59.1,13011],[59.1,13096],[59.1,13181],[59.1,13266],[59.1,13351],[59.1,13436],[59.1,13520],[59.1,13605],[59.1,13690],[59.1,13775],[59.1,13860],[59.1,13945],[59.1,14030],[58.7,14114],[58.9,14199],[59.2,14284],[59.7,14369],[59.9,14454],[60.1,14538],[60.3,14623],[60.3,14708],[60.4,14793],[60.5,14878],[62.1,14963],[62.1,15048],[62.1,15132],[62.1,15217],[62.1,15302],[62.1,15387],[62.1,15472],[62.1,15557],[62.1,15641],[62.1,15726],[62.1,15811],[62.1,15896],[61.9,15981],[62,16066],[62,16151],[62.4,16236],[62.7,16320],[62.7,16405],[62.7,16490],[62.7,16575],[62.7,16660],[62.7,16745],[62.7,16829],[62.7,16918],[62.7,16999],[62.7,17084],[62.7,17169],[62.7,17254],[62.7,17338],[62.7,17423],[62.7,17508],[62.7,17593],[62.7,17678],[62.7,17763],[62.7,17848],[62.7,17932],[62.7,18018],[62.7,18102],[62.7,18187],[62.7,18276],[62.7,18357],[62.7,18441],[62.7,18526],[62.7,18611],[62.7,18696],[62.7,18781],[62.7,18866],[62.7,18951],[62.7,19035],[62.7,19120],[62.7,19205],[62.7,19290],[62.7,19375],[62.7,19460],[61.7,19544],[61.4,19629],[61.3,19714],[61.3,19799],[61,19884],[61,19969],[61,20053],[61,20138],[61,20229],[61,20314],[61,20399],[61,20490],[61,20575],[61,20660],[61,20744],[61,20829],[61,20917],[61,20999],[61,21084],[61,21169],[61,21253],[61,21338],[61,21423],[61,21508],[61,21593],[61,21678],[61,21762],[61,21847],[61,21932],[61,22017],[61,22102],[61,22187],[61,22272],[61,22356],[61,22441],[61,22526],[61,22611],[61,22696],[61,22781],[61.9,22866],[62.9,22951],[63.1,23035],[63.6,23120],[64.6,23205],[65.8,23290],[67.5,23375],[71.2,23460],[74,23545],[74.1,23629],[74.1,23714],[74.1,23799],[74.1,23884],[74.1,23969],[74.1,24054],[79.8,24138],[80.4,24223],[81.9,24308],[83.7,24393],[84.7,24478],[85.1,24563],[85.1,24647],[85.1,24732],[85.1,24817],[85.1,24902],[85.1,24987],[85.1,25072],[85.1,25156],[85.1,25241],[85.1,25326],[85.1,25415],[85.1,25496],[85.1,25581],[85.1,25666],[85.1,25750],[85.1,25835],[85.1,25920],[85.1,26005],[85.1,26090],[85.1,26175],[85.1,26260],[85.1,26344],[85.1,26429],[85.1,26514],[85.1,26599],[85.1,26684],[85.1,26769],[85.1,26853],[85.1,26938],[85.1,27023],[85.1,27108],[85.1,27193],[85.1,27278],[85.1,27362],[85.1,27447],[85.1,27533],[85.1,27617],[85.1,27702],[85.1,27787],[85.1,27872],[85.1,27956],[85.1,28041],[85.1,28126],[85.1,28211],[85.1,28296],[85.1,28381],[85.1,28465],[85.1,28550],[85.1,28635],[85.1,28720],[85.1,28806],[85.1,28890],[85.1,28975],[85.1,29060],[85.1,29144],[85.1,29229],[85.7,29314],[86.1,29399]]",940.6116,942.0841,86.43108594,1.1257,"[{""rating"":86.4310859393652,""responseTime"":1.1257000000476864}]",space,0.9619,,942.0841,Definitely yes,100,942.0854,,,[],,0,11,11,11,1,audio/Narrative8Situation2.wav,audio/Narrative7Situation2.wav,audio/Narrative6Situation2.wav,audio/Narrative5Situation2.wav,3,3,3,3,,,,,,,,,,,,,,,,,,,,,,,,,,,,,,,,,,,,,,,
,,,,,5ba6d507cf54e40001c45aaf,2025-07-07_23h17.57.761,group3.4_multiperson,2023.2.2,Win32,163.9344262,686c2ebf0248f13bef9af11f,686c9be3cfb02e7a39b67f55,,,,,,,,,,,,,,,,,,,,,,,,,,,,,942.0856,2,audio/Narrative5Situation3.wav,945.0902,,945.0902,958.9808,"[[81.8,848],[80.5,933],[77,1024],[76.4,1111],[72.9,1193],[67.2,6030],[67.1,6114],[67.1,6199],[67.1,6284],[67.1,6369],[67.1,6454],[67.1,6539],[67.1,6623],[67.1,6708],[67.1,6793],[67.1,6878],[67.1,6963],[67.1,7048],[67.1,7133],[67.1,7217],[67.1,7302],[67.1,7387],[67.1,7472],[67.1,7557],[67.1,7642],[67.1,7727],[67.1,7811],[67.1,7897],[67.1,7981],[67.1,8066],[67.1,8151],[67.1,8235],[67.1,8320],[67.1,8405],[67.1,8490],[67.1,8575],[67.1,8660],[67.1,8745],[67.1,8830],[67.1,8914],[67.1,8999],[67.1,9084],[67.1,9169],[67.1,9254],[67.1,9339],[67.1,9424],[67.1,9508],[67.1,9593],[67.1,9678],[67.1,9763],[67.1,9848],[67.1,9932],[67.1,10017],[67.1,10102],[67.1,10187],[67.1,10272],[67.1,10357],[67.1,10442],[64.9,10527],[63,10612],[62.6,10696],[62.5,10781],[62.6,10866],[62.7,10951],[64.4,11036],[66.7,11121],[67.6,11206],[68.3,11290],[68.7,11375],[69.5,11460],[70.5,11551],[70.5,11636],[70.5,11721],[70.5,11805],[70.5,11890],[70.5,11975],[70.5,12060],[70.5,12145],[70.5,12229],[70.5,12314],[70.5,12399],[70.5,12484],[70.5,12569],[70.5,12654],[70.5,12739],[70.5,12823],[70.5,12908],[70.5,12993],[70.9,13078],[77.8,13163],[82.2,13248],[83.3,13332],[86.1,13417],[86.3,13502],[86.3,13587],[86.3,13672],[86.3,13757],[86.3,13841]]",958.9809,960.0292,86.27489219,0.8149,"[{""rating"":86.27489219013522,""responseTime"":0.8148999998569479}]",space,0.536,,960.0293,Partially,50,960.0311,,,[],,0,12,12,12,1,audio/Narrative8Situation3.wav,audio/Narrative7Situation3.wav,audio/Narrative6Situation3.wav,audio/Narrative5Situation3.wav,4,8,5,3,,,,,,,,,,,,,,,,,,,,,,,,,,,,,,,,,,,,,,,
,,,,,5ba6d507cf54e40001c45aaf,2025-07-07_23h17.57.761,group3.4_multiperson,2023.2.2,Win32,163.9344262,686c2ebf0248f13bef9af11f,686c9be3cfb02e7a39b67f55,,,,,,,,,,,,,,,,,,,,,,,,,,,,,960.0313,2,audio/Narrative5Situation4.wav,961.0354,,961.0354,981.4048,"[[85.6,13254],[85.3,13338],[85.1,13423],[85.1,13508],[85.1,13593],[85.1,13678],[85.1,13763],[85.1,13847],[85.1,13932],[85.1,14017],[85.1,14102],[85.1,14187],[85.1,14278],[85.1,14363],[85.1,14447],[85.1,14532],[85.1,14617],[85.1,14702],[85.1,14787],[85.1,14872],[85.1,14956],[85.1,15041],[85.1,15126],[85.1,15211],[85.1,15296],[85.1,15381],[85.1,15466],[85.1,15551],[85.1,15635],[85.1,15720],[85.1,15805],[85.1,15890],[85.1,15975],[85.1,16060],[85.1,16144],[85.1,16229],[85.1,16314],[85.1,16399],[85.1,16484],[85.1,16569],[85.1,16653],[85.1,16738],[85.1,16823],[85.1,16908],[85.1,16993],[85.1,17078],[85.1,17163],[85.1,17248],[85.1,17332],[85.1,17417],[85.1,17502],[85.1,17587],[85.1,17672],[85.1,17756],[85.1,17841],[85.1,17926],[85.1,18011],[85.1,18096],[85.1,18181],[85.1,18266],[85.1,18351],[85.1,18435],[85.1,18520],[85.1,18605],[85.1,18690],[85.1,18775],[85.1,18860],[85.1,18944],[85.1,19029],[85.1,19114],[85.1,19199],[85.1,19284],[85.1,19375],[85.1,19466],[85.1,19550],[85.1,19635],[89.6,19720],[91.1,19805],[92.6,19896],[92.7,19981],[92.7,20066],[92.7,20150],[92.7,20235],[92.7,20320]]",981.4049,986.75,92.13197904,3.8471,"[{""rating"":92.13197904215352,""responseTime"":3.8471000001430866}]",space,4.8324,,986.75,Not at all,0,986.752,,,[],,0,13,13,13,1,audio/Narrative8Situation4.wav,audio/Narrative7Situation4.wav,audio/Narrative6Situation4.wav,audio/Narrative5Situation4.wav,3,3,2,1,,,,,,,,,,,,,,,,,,,,,,,,,,,,,,,,,,,,,,,
,,,,,5ba6d507cf54e40001c45aaf,2025-07-07_23h17.57.761,group3.4_multiperson,2023.2.2,Win32,163.9344262,686c2ebf0248f13bef9af11f,686c9be3cfb02e7a39b67f55,,,,,,,,,,,,,,,,,,,,,,,,,,,,,986.7523,2,audio/Narrative5Situation5.wav,991.7559,,991.7559,1007.1617,"[[87.3,933],[78.1,1017],[70.1,1103],[67,1187],[67,1272],[67,1357],[67,1442],[67,1527],[67,1611],[67,1696],[67,1781],[67,1866],[67,1951],[67,2036],[67,2120],[67,2205],[67,2290],[67,2375],[67,2460],[67,2545],[67,2630],[67,2714],[67,2799],[67,2884],[67,2969],[67,3054],[67,3139],[67,3224],[67,3308],[67,3393],[67,3478],[67,3563],[67,3648],[67,3739],[67,3823],[67,3914],[67,3999],[67,4090],[66.3,4175],[62.6,4260],[61,4345],[60.8,4430],[60.8,4514],[60.8,4599],[60.8,4684],[60.8,4769],[59.9,4854],[59,4939],[59,5024],[59,5108],[59,5193],[59,5278],[59,5363],[59,5448],[57.6,5533],[55.1,5618],[54.8,5702],[54.6,5787],[54.2,5872],[54.2,5957],[54.2,6042],[54.2,6127],[54.2,6211],[54.2,6296],[54.2,6381],[53.6,6466],[50.3,6551],[47.9,6636],[46.9,6726],[46.5,6812],[46.2,6896],[46.1,6981],[46.1,7066],[46.1,7151],[46.1,7236],[46.1,7320],[46.1,7405],[46.1,7490],[46.1,7575],[46.1,7660],[46.1,7745],[46.1,7829],[46.1,7914],[46.1,7999],[46.1,8084],[46.1,8169],[46.1,8254],[46.1,8339],[46.1,8423],[43.7,8508],[43.7,8593],[43.7,8678],[43.7,8763],[43.7,8848],[43.7,8933],[43.7,9017],[43.7,9102],[43.7,9188],[43.7,9272],[43.7,9357],[43.7,9442],[43.7,9526],[43.7,9611],[43.7,9696],[43.7,9781],[43.7,9866],[43.7,9951],[43.7,10035],[43.7,10120],[43.7,10205],[43.7,10290],[43.7,10375],[43.7,10460],[43.7,10545],[43.7,10629],[43.7,10714],[43.7,10800],[40.5,10884],[35.3,10969],[33,11054],[32.6,11139],[32.5,11223],[32.5,11308],[32.5,11393],[32.5,11478],[32.5,11563],[32.5,11648],[32.5,11738],[32.5,11823],[32.5,11908],[32.5,11993],[32.5,12078],[32.5,12163],[32.5,12248],[32.5,12332],[32.5,12417],[32.5,12502],[32.5,12587],[32.5,12672],[32.5,12757],[32.5,12842],[32.5,12926],[32.5,13011],[32.5,13096],[32.5,13181],[32.5,13266],[32.5,13351],[32.5,13435],[32.5,13520],[32.5,13606],[32.5,13690],[32.5,13775],[32.5,13860],[32.5,13945],[32.5,14029],[32.5,14114],[32.5,14199],[32.5,14284],[32.5,14369],[32.5,14454],[32.5,14538],[32.5,14623],[31.9,14708],[27.8,14793],[21.5,14878],[18.8,14963],[15.5,15048],[14.3,15133],[13.6,15217],[13.6,15308],[13.6,15393]]",1007.1617,1008.398,13.49082148,0.4013,"[{""rating"":13.49082147587835,""responseTime"":0.4012999999522435}]",space,0.7232,,1008.3981,Partially,50,1013.0221,49.64857336,4.2335,"[{""rating"":49.64857335892606,""responseTime"":4.233500000000049}]",space,0,14,14,14,1,audio/Narrative8Situation5.wav,audio/Narrative7Situation5.wav,audio/Narrative6Situation5.wav,audio/Narrative5Situation5.wav,2,5,2,5,,,4.1096,,,,,,,,,,,,,,,,,,,,,,,,,,,,,,,,,,,,
,,,,,5ba6d507cf54e40001c45aaf,2025-07-07_23h17.57.761,group3.4_multiperson,2023.2.2,Win32,163.9344262,686c2ebf0248f13bef9af11f,686c9be3cfb02e7a39b67f55,,,,,,,,,,,,,,,,,,,,,,,,,,,,,1013.0223,2,audio/Narrative5Situation6.wav,1016.0281,,1016.0281,1021.6887,[],1021.6888,1025.2461,79.16829824,3.0088,"[{""rating"":79.16829824286249,""responseTime"":2.7301999998092015},{""rating"":79.16829824286249,""responseTime"":3.0087999999523163}]",space,3.045,,1025.2461,Partially,50,1025.2475,,,[],,0,15,15,15,1,audio/Narrative8Situation6.wav,audio/Narrative7Situation6.wav,audio/Narrative6Situation6.wav,audio/Narrative5Situation6.wav,2,3,2,3,,,,,,,,,,,,,,,,,,,,,,,,,,,,,,,,,,,,,,,
,,,,,5ba6d507cf54e40001c45aaf,2025-07-07_23h17.57.761,group3.4_multiperson,2023.2.2,Win32,163.9344262,686c2ebf0248f13bef9af11f,686c9be3cfb02e7a39b67f55,,,,,,,,,,,,,,,,,,,,,,,,,,,,,1025.2476,2,audio/Narrative5Situation7.wav,1029.2521,,1029.2521,1050.2699,"[[77.5,6878],[75.3,6963],[75.2,7048],[75.2,7133],[75.2,7218],[75.2,7303],[75.2,7387],[75.2,7472],[75.2,7563],[79,7648],[83,7739],[83.8,7823],[84,7908],[84,7993],[84,8078],[84,8163],[84,8248],[84,8333],[84,8418],[84,8502],[84,8587],[84,8672],[84,8757],[84,8842],[84,8927],[84,9011],[84,9096],[84,9181],[84,9266],[84,9351],[84,9436],[84,9520],[84,9605],[84,9690],[84,9775],[84,9860],[84,9945],[84,10029],[84,10120],[84,10205],[84,10290],[84,10375],[84,10460],[84,10545],[84,10630],[84,10714],[84,10799],[84,10884],[84,10969],[84,11054],[84,11139],[84,11223],[84,11308],[84,11399],[84,11484],[84,11569],[84,11654],[84,11739],[84,11823],[84,11908],[84,11993],[84,12078],[84,12163],[84,12254],[84,12339],[84,12423],[84,12508],[84,12593],[84,12678],[84,12763],[84,12848],[84,12932],[84,13017],[84,13102],[84,13187],[84,13272],[84,13357],[84,13442],[84,13526],[84,13611],[84,13696],[84,13781],[84,13866],[84,13951],[84,14036],[84,14120],[84,14205],[84,14291],[84,14375],[84,14460],[84,14545],[84,14630],[84,14714],[84,14799],[84,14884],[84,14969],[84,15054],[84,15139],[84,15223],[84,15308],[84,15393],[84,15478],[84,15563],[84.3,15648],[85.3,15733],[86.7,15817],[86.7,15902],[87.8,15987],[87.8,16072],[87.8,16157],[87.8,16242],[87.8,16326],[87.8,16411],[87.8,16496],[87.8,16581],[87.8,16666],[87.8,16750],[87.8,16836],[87.8,16920],[87.8,17005],[87.8,17090],[87.8,17175],[87.8,17260],[87.8,17345],[87.8,17429],[87.8,17514],[87.8,17599],[87.8,17684],[87.8,17769],[87.8,17854],[87.8,17939],[87.8,18023],[87.8,18108],[87.8,18194],[87.8,18278],[87.8,18363],[87.8,18448],[87.8,18532],[87.8,18617],[87.8,18702],[87.8,18787],[87.8,18872],[87.8,18957],[87.8,19042],[87.8,19126],[87.8,19211],[87.8,19296],[87.8,19381],[87.8,19466],[87.8,19551],[87.8,19635],[87.8,19720],[87.8,19805],[87.8,19896],[87.8,19981],[87.8,20066],[87.8,20151],[87.8,20235],[87.8,20320],[87.8,20405],[87.8,20490],[87.8,20575],[87.8,20660],[89.4,20745],[89.7,20829],[89.7,20914],[89.6,20999]]",1050.2701,1051.3002,89.63295055,0.7289,"[{""rating"":89.63295055211621,""responseTime"":0.7289000000953365}]",space,0.5192,,1051.3003,Partially,50,1051.3016,,,[],,0,16,16,16,1,audio/Narrative8Situation7.wav,audio/Narrative7Situation7.wav,audio/Narrative6Situation7.wav,audio/Narrative5Situation7.wav,3,5,5,4,,,,,,,,,,,,,,,,,,,,,,,,,,,,,,,,,,,,,,,
,,,,,5ba6d507cf54e40001c45aaf,2025-07-07_23h17.57.761,group3.4_multiperson,2023.2.2,Win32,163.9344262,686c2ebf0248f13bef9af11f,686c9be3cfb02e7a39b67f55,,,,,,,,,,,,,,,,,,,,,,,,,,,,,1051.3019,2,audio/Narrative5Situation8.wav,1054.3061,,1054.3062,1063.1122,"[[86.9,1448],[78.1,1533],[71,1618],[64.3,4739],[64.7,4823],[64.7,4914],[65.4,4999],[67.6,5090],[68.3,5175],[68.6,5260],[68.6,5345],[68.6,5429],[68.6,5514],[68.6,5599],[68.6,5684],[68.6,5769],[68.6,5854],[68.6,5939],[68.6,6023],[68.6,6108],[68.6,6193],[68.6,6278],[68.6,6363],[68.6,6448],[68.6,6532],[68.6,6617],[68.6,6702],[68.6,6787],[68.6,6872],[68.6,6957],[68.6,7042],[68.6,7126],[68.6,7211],[68.6,7296],[68.6,7387],[68.6,7478],[68.6,7563],[68.6,7654],[68.6,7746],[68.6,7830],[68.6,7920],[68.6,8005],[68.6,8096],[68.6,8181],[68.6,8266],[68.6,8351],[68.6,8435],[68.6,8520],[68.6,8605],[68.6,8690],[68.6,8775]]",1063.1123,1064.9362,77.68449337,1.524,"[{""rating"":77.68449337399889,""responseTime"":1.5239999999998872}]",space,1.3098,,1064.9363,Definitely yes,100,1064.9382,,,[],,0,17,17,17,1,audio/Narrative8Situation8.wav,audio/Narrative7Situation8.wav,audio/Narrative6Situation8.wav,audio/Narrative5Situation8.wav,3,2,5,3,,,,,,,,,,,,,,,,,,,,,,,,,,,,,,,,,,,,,,,
,,,,,5ba6d507cf54e40001c45aaf,2025-07-07_23h17.57.761,group3.4_multiperson,2023.2.2,Win32,163.9344262,686c2ebf0248f13bef9af11f,686c9be3cfb02e7a39b67f55,,,,,,,,,,,,,,,,,,,,,,,,,,,,,1064.9384,2,audio/Narrative5Situation9.wav,1067.9421,,1067.9421,1107.4626,"[[76.1,13163],[71.1,13248],[69.6,13333],[69.6,13418],[69.6,13502],[69.6,13587],[69.6,13672],[69.6,13757],[69.6,13842],[69.6,13927],[71.1,14011],[79.7,14096],[84.2,14181],[85.9,14266],[87,14351],[87.8,14442],[88.6,14527],[90.1,14611],[90.1,14696],[90.1,14781],[90.1,14866],[90.1,14951],[90.1,15036],[90.1,15120],[90.1,15205],[90.1,15290],[90.1,15375],[90.1,15460],[90.1,15545],[90.1,15630],[90.1,15714],[90.1,15799],[90.1,15884],[90.1,15969],[90.1,16054],[90.1,16139],[90.1,16223],[90.1,16308],[90.1,16393],[90.1,16478],[90.1,16563],[90.4,16648],[90.8,16733],[91.2,16817],[92.2,16902],[92.2,16987],[92.4,17072],[92.4,17157],[92.4,17242],[92.4,17327],[92.4,17411],[92.4,17496],[92.4,17581],[92.4,17666],[92.4,17751],[92.4,17836],[92.4,17920],[92.4,18005],[92.4,18096],[92.4,18181],[92.4,18266],[92.4,18351],[92.4,18435],[92.4,18520],[92.4,18605],[92.4,18690],[92.7,18775],[94.1,18860],[94.5,18945],[95.2,19029],[95.2,19114],[95.2,19199],[95.2,19284],[95.2,19369],[95.2,19454],[95.2,19539],[95.2,19623],[95.2,19708],[95.2,19793],[95.2,19878],[95.2,19963],[95.2,20048],[95.2,20133],[95.2,20217],[95.2,20302],[95.2,20387],[95.2,20472],[95.2,20557],[95.2,20642],[95.2,20726],[95.2,20811],[95.2,20896],[95.2,20981],[95.2,21066],[95.2,21151],[95.2,21236],[95.2,21320],[95.2,21405],[95.2,21496],[95.2,21581],[95.2,21666],[95.2,21754],[95.2,21836],[95.2,21920],[95.2,22005],[95.2,22090],[95.2,22175],[95.2,22260],[95.2,22345],[95.2,22430],[95.2,22514],[95.2,22599],[95.2,22684],[95.2,22769],[95.2,22854],[95.2,22939],[95.2,23023],[95.2,23108],[95.2,23193],[95.2,23278],[95.2,23363],[95.2,23453],[95.2,23538],[95.2,23623],[95.2,23708],[95.2,23793],[95.2,23878],[95.2,23963],[95.2,24048],[95.2,24132],[95.2,24217],[95.2,24302],[95.2,24387],[95.2,24472],[95.2,24557],[95.2,24642],[95.2,24726],[95.2,24811],[95.2,24896],[95.2,24981],[95.2,25066],[95.2,25151],[95.2,25235],[95.2,25320],[95.2,25405],[95.2,25490],[95.2,25575],[95.2,25660],[95.2,25745],[95.2,25829],[95.2,25914],[95.2,25999],[95.2,26090],[95.2,26175],[95.2,26260],[95.2,26344],[95.2,26429],[95.2,26514],[95.2,26599],[95.2,26684],[95.2,26769],[95.2,26854],[95.2,26938],[95.2,27023],[95.2,27108],[95.2,27193],[95.2,27278],[95.2,27363],[95.2,27447],[95.2,27532],[95.2,27617],[95.2,27702],[95.2,27787],[95.2,27872],[95.2,27957],[95.2,28041],[95.2,28126],[95.2,28211],[95.2,28296],[95.2,28381],[95.2,28466],[95.2,28550],[95.2,28635],[95.2,28720],[95.2,28805],[95.2,28890],[95.2,28975],[95.2,29059],[95.2,29144],[95.2,29229],[95.2,29314],[95.2,29399],[95.2,29484],[95.2,29569],[95.2,29653],[95.2,29738],[95.2,29823],[95.2,29908],[95.2,29993],[95.2,30078],[95.2,30163],[95.2,30248],[95.2,30332],[95.2,30417],[95.2,30502],[95.2,30587],[95.2,30672],[95.2,30757],[95.2,30841],[95.2,30926],[95.2,31011],[95.2,31096],[95.2,31181],[95.2,31266],[95.2,31350],[95.2,31435],[95.2,31520],[95.2,31605],[95.2,31690],[95.2,31775],[95.2,31860],[95.2,31944],[95.2,32029],[95.2,32114],[95.2,32199],[95.2,32284],[95.2,32368],[95.2,32453],[95.2,32539],[95.2,32623],[95.2,32708],[95.2,32793],[95.2,32878],[95.2,32962],[95.2,33047],[95.2,33132],[95.2,33217],[95.2,33302],[95.2,33387],[95.2,33472],[95.2,33557],[95.2,33641],[95.2,33726],[95.2,33811],[95.2,33896],[95.2,33981],[95.2,34066],[95.2,34151],[95.2,34235],[95.2,34320],[95.2,34405],[95.2,34490],[95.2,34575],[95.2,34660],[95.2,34744],[95.2,34829],[95.2,34914],[95.2,34999],[95.2,35084],[95.2,35169],[95.2,35254],[95.2,35338],[95.2,35423],[95.2,35508],[95.2,35593],[95.2,35678],[95.2,35762],[95.2,35847],[95.2,35932],[95.2,36017],[95.2,36102],[95.2,36187],[95.2,36271],[95.2,36356],[95.2,36441],[95.2,36526],[95.2,36611],[95.2,36696],[95.2,36781],[95.2,36865],[95.2,36950],[95.2,37035],[95.2,37120],[95.2,37205],[95.2,37290],[95.2,37375],[95.2,37459],[95.2,37544],[95.2,37629],[95.2,37714],[95.2,37799],[95.2,37884],[95.2,37969],[95.2,38053],[95.2,38138],[95.2,38223],[95.2,38308],[95.2,38399],[95.2,38484],[95.2,38576],[95.2,38659],[95.2,38744],[95.2,38829],[95.2,38914],[95.2,38999],[95.2,39084],[95.2,39168],[95.2,39253],[95.2,39338],[95.2,39423],[95.2,39508]]",1107.4629,1110.2626,95.17766421,0.7189,"[{""rating"":95.17766420520304,""responseTime"":0.7188999998568306}]",space,2.2856,0.0002,1110.2627,Partially,50,1110.2651,,,[],,0,18,18,18,1,audio/Narrative8Situation9.wav,audio/Narrative7Situation9.wav,audio/Narrative6Situation9.wav,audio/Narrative5Situation9.wav,3,2,4,3,,,,,,,,,,,,,,,,,,,,,,,,,,,,,,,,,,,,,,,
,,,,,5ba6d507cf54e40001c45aaf,2025-07-07_23h17.57.761,group3.4_multiperson,2023.2.2,Win32,163.9344262,686c2ebf0248f13bef9af11f,686c9be3cfb02e7a39b67f55,,,,,,,,,,,,,,,,,,,,,,,,,,,,,,,,,,,,,,,,,,,,,,,,,,,,,,,,,,,,,,,,,,,,,,1110.2652,1112.1899,space,1.4225,,1112.1901,1123.8566,space,11.3593,,,,,,,,,,,,,,,,,,,,,,,,,,
,,,,,5ba6d507cf54e40001c45aaf,2025-07-07_23h17.57.761,group3.4_multiperson,2023.2.2,Win32,163.9344262,686c2ebf0248f13bef9af11f,686c9be3cfb02e7a39b67f55,,,,,,,,,,,,,,,,,,,,,,,,,,,,,1126.4531,1,audio/Narrative7Situation9.wav,1128.4561,,,,,1160.3043,1299.4225,63.39320146,2.5826,"[{""rating"":63.393201455074255,""responseTime"":2.5825999999044598}]",space,138.6067,,1299.4226,Partially,50,1299.4245,,,[],,,,,,,,,,,2,2,2,2,,,,,,,,,,,,,,,1123.8584,1126.4442,1128.4564,3,1160.3042,"[[59.2,6811],[55.8,6896],[55.8,6981],[55.8,7066],[55.8,7151],[55.8,7235],[55.8,7320],[55.8,7405],[55.8,7490],[55.8,7575],[55.8,7660],[55.8,7745],[55.8,7829],[55.8,7914],[55.8,7999],[55.8,8084],[55.8,8169],[55.8,8260],[55.8,8344],[55.8,8429],[55.8,8514],[55.8,8599],[55.8,8684],[55.8,8769],[55.8,8854],[55.8,8938],[55.8,9023],[55.8,9108],[55.8,9193],[55.8,9278],[55.8,9363],[55.8,9448],[55.8,9532],[55.8,9617],[55.8,9702],[55.8,9787],[55.8,9872],[55.8,9957],[55.8,10042],[55.8,10126],[55.8,10211],[55.8,10296],[55.8,10381],[55.8,10466],[55.8,10550],[55.8,10635],[55.8,10720],[55.8,10805],[55.8,10890],[55.8,10975],[55.8,11060],[55.8,11144],[55.8,11229],[55.8,11314],[55.8,11399],[55.8,11484],[55.8,11569],[55.8,11653],[55.8,11738],[55.8,11823],[55.8,11908],[55.8,11993],[55.8,12078],[55.8,12163],[55.8,12247],[55.8,12332],[55.8,12417],[55.8,12502],[55.8,12587],[55.8,12672],[55.8,12756],[55.8,12841],[55.8,12926],[55.8,13011],[55.8,13096],[55.8,13181],[55.8,13266],[55.8,13351],[55.8,13435],[55.8,13520],[55.8,13605],[55.8,13690],[55.8,13775],[55.8,13860],[55.8,13944],[55.8,14035],[55.8,14120],[55.8,14205],[55.8,14296],[55.8,14381],[55.8,14466],[55.8,14550],[55.8,14635],[55.8,14720],[55.8,14805],[55.8,14890],[55.8,14975],[55.8,15059],[55.8,15144],[55.8,15229],[55.8,15314],[55.8,15399],[55.8,15484],[55.8,15568],[55.8,15654],[55.8,15738],[55.8,15823],[55.8,15908],[55.8,15993],[55.8,16078],[55.8,16162],[55.8,16247],[55.8,16332],[55.8,16418],[55.8,16502],[55.8,16587],[55.8,16672],[55.8,16757],[55.8,16841],[55.8,16926],[55.8,17011],[55.8,17096],[55.8,17181],[55.8,17265],[55.8,17350],[55.8,17435],[55.8,17520],[55.8,17605],[55.8,17690],[55.8,17775],[55.8,17860],[55.8,17944],[55.8,18029],[55.8,18114],[55.8,18199],[55.8,18284],[55.8,18369],[55.8,18453],[55.8,18538],[55.8,18623],[55.8,18708],[55.8,18793],[55.8,18877],[55.8,18962],[55.8,19047],[55.8,19132],[55.8,19217],[55.8,19302],[55.8,19387],[55.8,19471],[55.8,19556],[55.8,19641],[55.8,19726],[55.8,19811],[55.8,19896],[55.8,19981],[55.8,20065],[55.8,20150],[55.8,20235],[55.8,20320],[55.8,20405],[55.8,20490],[55.8,20575],[55.8,20659],[55.1,20744],[53.5,20829],[48.3,20914],[46.7,20999],[46.7,21084],[46.7,21169],[46.7,21253],[46.7,21338],[46.7,21423],[46.7,21508],[46.7,21593],[46.7,21678],[46.7,21762],[46.7,21847],[46.7,21932],[46.7,22017],[46.7,22102],[46.7,22193],[46.7,22280],[46.7,22362],[46.7,22447],[46.7,22532],[46.7,22617],[46.7,22702],[46.7,22787],[46.7,22872],[46.7,22956],[46.7,23041],[46.7,23126],[46.7,23211],[46.7,23296],[46.7,23381],[46.7,23465],[46.7,23550],[46.7,23635],[46.7,23720],[46.7,23805],[46.7,23890],[46.7,23974],[46.7,24059],[46.7,24144],[46.7,24229],[46.7,24314],[46.7,24399],[46.7,24484],[46.7,24568],[46.7,24659],[46.7,24744],[46.7,24835],[46.7,24920],[46.7,25005],[46.7,25090],[46.7,25174],[46.7,25259],[46.7,25344],[46.7,25429],[46.7,25514],[46.7,25599],[46.7,25683],[46.7,25768],[46.7,25853],[46.7,25938],[46.7,26023],[46.7,26108],[46.7,26193],[46.7,26278],[46.7,26362],[46.7,26447],[46.7,26532],[46.7,26617],[46.7,26702],[46.7,26786],[46.7,26872],[46.7,26959],[46.7,27041],[46.7,27126],[46.7,27211],[46.7,27296],[46.7,27381],[46.7,27465],[46.7,27550],[46.7,27635],[46.7,27720],[46.7,27805],[46.7,27890],[46.7,27974],[46.7,28059],[46.7,28144],[46.7,28229],[46.7,28314],[46.7,28399],[46.7,28483],[46.7,28568],[46.7,28653],[46.7,28738],[46.7,28823],[46.7,28908],[46.7,28992],[46.7,29077],[46.7,29162],[46.7,29247],[46.7,29332],[46.7,29417],[46.7,29502],[46.7,29586],[46.7,29671],[46.7,29756],[46.7,29841],[46.7,29926],[46.7,30011],[46.7,30096],[46.7,30180],[46.7,30265],[46.7,30350],[46.7,30435],[46.7,30520],[46.7,30605],[46.7,30689],[46.7,30774],[46.7,30859],[46.7,30950],[46.7,31035],[46.7,31120],[46.7,31205],[46.7,31289],[46.7,31374],[46.7,31459],[46.7,31544],[46.7,31629],[46.7,31714],[46.7,31798]]",0,0,0,0,1,"Larry had recently lost his family, job and home, and was now living on his own in the park. He had most of his belongings, including some clothes, a blanket, and his mother’s special necklace. His family had been very important to him and he felt as though he did not have much going for him. One of his first days in the park he came across a family that did not have much food and looked very cold. He decided to give them some of his food and his blanket.","Larry had recently lost his family, job and home, and was now living on his own in the park. He had most of his belongings, including some clothes, a blanket, and his mother’s special necklace. His family had been very important to him and he felt as though he did not have much going for him. One of his first days in the park he came across a family that did not have much food and looked very cold. He decided to give them some of his food and his blanket.","Larry had recently lost his family, job and home, and was now living on his own in the park. He had most of his belongings, including some clothes, a blanket, and his mother’s special necklace. His family had been very important to him and he felt as though he did not have much going for him. One of his first days in the park he came across a family that did not have much food and looked very cold. He decided to give them some of his food and his blanket.","Larry had recently lost his family, job and home, and was now living on his own in the park. He had most of his belongings, including some clothes, a blanket, and his mother’s special necklace. His family had been very important to him and he felt as though he did not have much going for him. One of his first days in the park he came across a family that did not have much food and looked very cold. He decided to give them some of his food and his blanket.",,,,,,,,,,
