consent.started,consent.stopped,consentResponse.keys,consentResponse.rt,consentResponse.duration,participantID,date,expName,psychopyVersion,OS,frameRate,STUDY_ID,SESSION_ID,opening1.started,opening1.stopped,keyEndingOpening1.keys,keyEndingOpening1.rt,keyEndingOpening1.duration,volumeAdjust.started,volumeAdjust.stopped,endingAdjust.keys,endingAdjust.rt,endingAdjust.duration,opening2.started,opening2.stopped,keyEndingOpening.keys,keyEndingOpening.rt,keyEndingOpening.duration,mouse.x,mouse.y,mouse.leftButton,mouse.midButton,mouse.rightButton,mouse.time,instructionLoop.thisRepN,instructionLoop.thisTrialN,instructionLoop.thisN,instructionLoop.thisIndex,instructionLoop.ran,readyForAudio.started,readyForAudio.stopped,fixation.started,run,audio_played,fixation.stopped,endPractice.keys,audioPre.started,audioPre.stopped,continuousResponses_audio,intRating.started,intRating.stopped,intQuestionSlider.response,intQuestionSlider.rt,intQuestionSlider.history,confirmResponse.keys,confirmResponse.rt,confirmResponse.duration,catchQuestion.started,catch_label,catch_value,catchQuestion.stopped,catchQuestionSlider.response,catchQuestionSlider.rt,catchQuestionSlider.history,confirmResponse_2.keys,audioRunLoop.thisRepN,audioRunLoop.thisTrialN,audioRunLoop.thisN,audioRunLoop.thisIndex,audioRunLoop.ran,conditions1_1,conditions2_1,conditions1_2,conditions2_2,dur1_1,dur2_1,dur1_2,dur2_2,endPractice.rt,endPractice.duration,confirmResponse_2.rt,confirmResponse_2.duration,runIntervalBreak.started,runIntervalBreak.stopped,endingBreakKey.keys,endingBreakKey.rt,endingBreakKey.duration,connection.started,connection.stopped,connectionEnding.keys,connectionEnding.rt,connectionEnding.duration,readyForText.started,readyForText.stopped,textPre.started,run_dup,textPre.stopped,continuousResponses_text,textRunLoop.thisRepN,textRunLoop.thisTrialN,textRunLoop.thisN,textRunLoop.thisIndex,textRunLoop.ran,text1_1,text1_2,text2_1,text2_2,runBreakText.started,runBreakText.stopped,endingBreakKey_2.keys,ending.started,ending.stopped,endingEnding.keys,endingEnding.rt,endingEnding.duration
0.0005,8.2848,y,7.9786,,5bf735882dd20c0001317fca,2025-07-07_15h58.03.202,group3.4_multiperson,2023.2.2,Win32,144.9275362,686c2ebf0248f13bef9af11f,686c34a611d9bf22fb3fcff3,,,,,,,,,,,,,,,,,,,,,,,,,,,,,,,,,,,,,,,,,,,,,,,,,,,,,,,,,,,,,,,,,,,,,,,,,,,,,,,,,,,,,,,,,,,,,,,,,,,,,,
,,,,,5bf735882dd20c0001317fca,2025-07-07_15h58.03.202,group3.4_multiperson,2023.2.2,Win32,144.9275362,686c2ebf0248f13bef9af11f,686c34a611d9bf22fb3fcff3,8.285,18.8623,space,10.555,,,,,,,,,,,,,,,,,,,,,,,,,,,,,,,,,,,,,,,,,,,,,,,,,,,,,,,,,,,,,,,,,,,,,,,,,,,,,,,,,,,,,,,,,,,,,,,,,,
,,,,,5bf735882dd20c0001317fca,2025-07-07_15h58.03.202,group3.4_multiperson,2023.2.2,Win32,144.9275362,686c2ebf0248f13bef9af11f,686c34a611d9bf22fb3fcff3,,,,,,18.8623,59.9299,space,40.7617,,,,,,,,,,,,,,,,,,,,,,,,,,,,,,,,,,,,,,,,,,,,,,,,,,,,,,,,,,,,,,,,,,,,,,,,,,,,,,,,,,,,,,,,,,,,,
,,,,,5bf735882dd20c0001317fca,2025-07-07_15h58.03.202,group3.4_multiperson,2023.2.2,Win32,144.9275362,686c2ebf0248f13bef9af11f,686c34a611d9bf22fb3fcff3,,,,,,,,,,,59.9325,70.3681,space,10.4259,,[],[],[],[],[],[],0,0,0,0,1,,,,,,,,,,,,,,,,,,,,,,,,,,,,,,,,,,,,,,,,,,,,,,,,,,,,,,,,,,,,,,,,,,,,,,,,,,,,
,,,,,5bf735882dd20c0001317fca,2025-07-07_15h58.03.202,group3.4_multiperson,2023.2.2,Win32,144.9275362,686c2ebf0248f13bef9af11f,686c34a611d9bf22fb3fcff3,,,,,,,,,,,70.3685,89.8569,space,19.4324,,[],[],[],[],[],[],1,0,1,0,1,,,,,,,,,,,,,,,,,,,,,,,,,,,,,,,,,,,,,,,,,,,,,,,,,,,,,,,,,,,,,,,,,,,,,,,,,,,,
,,,,,5bf735882dd20c0001317fca,2025-07-07_15h58.03.202,group3.4_multiperson,2023.2.2,Win32,144.9275362,686c2ebf0248f13bef9af11f,686c34a611d9bf22fb3fcff3,,,,,,,,,,,89.8573,102.2399,space,12.3583,,[],[],[],[],[],[],2,0,2,0,1,,,,,,,,,,,,,,,,,,,,,,,,,,,,,,,,,,,,,,,,,,,,,,,,,,,,,,,,,,,,,,,,,,,,,,,,,,,,
,,,,,5bf735882dd20c0001317fca,2025-07-07_15h58.03.202,group3.4_multiperson,2023.2.2,Win32,144.9275362,686c2ebf0248f13bef9af11f,686c34a611d9bf22fb3fcff3,,,,,,,,,,,102.2402,120.4931,space,18.2442,,[],[],[],[],[],[],3,0,3,0,1,,,,,,,,,,,,,,,,,,,,,,,,,,,,,,,,,,,,,,,,,,,,,,,,,,,,,,,,,,,,,,,,,,,,,,,,,,,,
,,,,,5bf735882dd20c0001317fca,2025-07-07_15h58.03.202,group3.4_multiperson,2023.2.2,Win32,144.9275362,686c2ebf0248f13bef9af11f,686c34a611d9bf22fb3fcff3,,,,,,,,,,,120.4934,130.2992,space,9.793,,[],[],[],[],[],[],4,0,4,0,1,,,,,,,,,,,,,,,,,,,,,,,,,,,,,,,,,,,,,,,,,,,,,,,,,,,,,,,,,,,,,,,,,,,,,,,,,,,,
,,,,,5bf735882dd20c0001317fca,2025-07-07_15h58.03.202,group3.4_multiperson,2023.2.2,Win32,144.9275362,686c2ebf0248f13bef9af11f,686c34a611d9bf22fb3fcff3,,,,,,,,,,,130.2995,155.5941,space,25.2866,,[],[],[],[],[],[],5,0,5,0,1,,,,,,,,,,,,,,,,,,,,,,,,,,,,,,,,,,,,,,,,,,,,,,,,,,,,,,,,,,,,,,,,,,,,,,,,,,,,
,,,,,5bf735882dd20c0001317fca,2025-07-07_15h58.03.202,group3.4_multiperson,2023.2.2,Win32,144.9275362,686c2ebf0248f13bef9af11f,686c34a611d9bf22fb3fcff3,,,,,,,,,,,,,,,,,,,,,,,,,,,155.5954,158.171,158.1876,1,audio/Narrative13Situation2.wav,160.1928,,160.193,189.9263,"[[59.6,4022],[43.3,5355],[42.7,5437],[42,5520],[41.3,5603],[41,5687],[41,5770],[41,5853],[41,5938],[41,6020],[41,6105],[41,6187],[41,6270],[41,6353],[41,6437],[41,6520],[41.5,6603],[41.5,6687],[41.8,6770],[42.4,6853],[42.5,6937],[42.9,7022],[42.9,7103],[43.3,7187],[43.4,7270],[43.4,7354],[43.4,7437],[43.4,7520],[43.4,7604],[43.4,7687],[43.4,7770],[43.4,7854],[43.4,7937],[43.4,8020],[43.4,8104],[43.4,8187],[43.4,8270],[43.4,8354],[43.4,8437],[44.3,8522],[48.6,8606],[55.2,8689],[62.9,8772],[70.7,8854],[90.8,9520],[74.5,9605],[67,9687],[68.7,9773],[77.3,9854],[85.6,9939],[88.4,10022],[92.8,10106],[94.3,10190],[94.9,10271],[95,10354],[95,10437],[95,10521],[95,10604],[95.1,10687],[13.3,20022],[11.9,20107],[10.9,20189],[10.9,20272],[10.9,20357],[10.8,20440],[73.1,29699]]",189.9265,201.4003,29.96876154,8.0843,"[{""rating"":29.968761536144573,""responseTime"":8.084300000011922}]",space,10.9578,,201.4005,Not at all,0,201.4034,,,[],,0,0,0,0,1,audio/Narrative13Situation2.wav,audio/Narrative13Situation2.wav,audio/Narrative13Situation2.wav,audio/Narrative13Situation2.wav,2,2,2,2,,,,,,,,,,,,,,,,,,,,,,,,,,,,,,,,,,,,,
,,,,,5bf735882dd20c0001317fca,2025-07-07_15h58.03.202,group3.4_multiperson,2023.2.2,Win32,144.9275362,686c2ebf0248f13bef9af11f,686c34a611d9bf22fb3fcff3,,,,,,,,,,,,,,,,,,,,,,,,,,,,,201.4036,1,audio/Narrative8Situation1.wav,204.0517,space,204.0518,219.9636,"[[999,0],[999,83],[999,166],[999,249],[999,333],[999,416],[999,500],[999,583],[999,666],[999,750],[999,833],[999,916],[999,1000],[999,1083],[999,1166],[999,1250],[999,1333],[999,1416],[999,1500],[999,1583],[999,1666],[999,1750],[999,1833],[999,1916],[999,2000],[999,2083],[999,2166],[999,2250],[999,2333],[999,2417],[999,2500],[999,2583],[999,2666],[999,2750],[999,2833],[999,2916],[999,3000],[999,3083],[999,3167],[999,3250],[999,3333],[999,3416],[999,3500],[999,3583],[999,3667],[999,3750],[999,3833],[999,3917],[999,4000],[999,4083],[999,4167],[999,4250],[999,4333],[999,4417],[999,4500],[999,4583],[999,4667],[999,4750],[999,4833],[999,4917],[999,5000],[999,5083],[999,5167],[999,5250],[999,5333],[999,5417],[999,5507],[999,5590],[999,5674],[999,5757],[999,5840],[999,5924],[999,6007],[999,6090],[999,6174],[999,6257],[999,6340],[999,6424],[999,6507],[999,6591],[999,6674],[999,6757],[999,6841],[999,6924],[999,7007],[999,7091],[999,7174],[999,7257],[999,7341],[999,7425],[999,7509],[999,7592],[999,7676],[999,7759],[81.6,7842],[82.2,7926],[82.8,8009],[82.8,8091],[82.8,8174],[82.8,8257],[82.8,8341],[82.8,8424],[82.8,8507],[82.8,8591],[82.8,8674],[82.8,8757],[82.8,8841],[82.8,8924],[82.8,9008],[82.8,9091],[82.8,9174],[82.8,9257],[82.8,9341],[82.8,9424],[82.8,9507],[82.7,9592]]",219.9638,225.2368,84.01014717,3.8707,"[{""rating"":84.01014717417867,""responseTime"":3.8706999999880622}]",space,4.7571,,225.2369,Partially,50,225.2389,,,[],,0,1,1,1,1,audio/Narrative7Situation1.wav,audio/Narrative8Situation1.wav,audio/Narrative5Situation1.wav,audio/Narrative6Situation1.wav,2,5,5,2,2.6349,,,,,,,,,,,,,,,,,,,,,,,,,,,,,,,,,,,,
,,,,,5bf735882dd20c0001317fca,2025-07-07_15h58.03.202,group3.4_multiperson,2023.2.2,Win32,144.9275362,686c2ebf0248f13bef9af11f,686c34a611d9bf22fb3fcff3,,,,,,,,,,,,,,,,,,,,,,,,,,,,,225.2391,1,audio/Narrative8Situation2.wav,228.2425,,228.2425,238.3479,"[[999,0],[999,84],[999,166],[999,249],[999,333],[999,416],[999,499],[999,583],[999,666],[999,749],[999,833],[999,916],[999,1000],[999,1083],[999,1166],[999,1250],[999,1333],[999,1416],[999,1500],[999,1583],[999,1666],[999,1750],[999,1833],[999,1916],[999,2000],[999,2083],[999,2166],[999,2250],[999,2333],[999,2416],[999,2500],[999,2583],[999,2666],[999,2750],[999,2833],[999,2916],[999,3000],[999,3083],[999,3166],[999,3250],[999,3333],[999,3416],[999,3500],[999,3583],[999,3666],[999,3750],[999,3833],[999,3916],[999,4000],[999,4083],[999,4166],[999,4250],[999,4333],[999,4417],[999,4500],[999,4583],[999,4667],[999,4750],[999,4834],[999,4917],[999,5001],[999,5085],[999,5167],[999,5252],[22.2,5333],[20.1,5417],[19.8,5502],[19.6,5585],[18.2,5668],[15.6,5752],[14.8,5835],[13.8,5918],[13.3,6000],[12.9,6084],[12.6,6167],[12.4,6250],[12.3,6333],[12.3,6417],[12.3,6500],[12.3,6584],[12.3,6667],[12.3,6750],[12.3,6834],[12.3,6917],[12.3,7002],[12.3,7084],[12.3,7167],[12.3,7250],[12.3,7334],[12.3,7417],[12.3,7500],[12.3,7584],[12.3,7667],[12.3,7750],[12.3,7834],[12.3,7917],[12.3,8000],[12.3,8084],[12.3,8167],[12.3,8250],[12.3,8334],[12.3,8417],[12.3,8500],[12.3,8584],[12.3,8667],[12.3,8750],[12.3,8834],[12.3,8917],[12.3,9000],[12.3,9084],[12.3,9167],[12.3,9250],[12.3,9334],[12.3,9417],[12.3,9501],[12.3,9584],[12.3,9667],[12.3,9751],[12.3,9834],[12.3,9917],[12.3,10001],[12.3,10084]]",238.3481,239.9384,12.16321751,1.0226,"[{""rating"":12.16321750600895,""responseTime"":1.0226000000238287}]",space,1.0697,,239.9385,Definitely yes,100,239.9407,,,[],,0,2,2,2,1,audio/Narrative7Situation2.wav,audio/Narrative8Situation2.wav,audio/Narrative5Situation2.wav,audio/Narrative6Situation2.wav,3,3,3,3,,,,,,,,,,,,,,,,,,,,,,,,,,,,,,,,,,,,,
,,,,,5bf735882dd20c0001317fca,2025-07-07_15h58.03.202,group3.4_multiperson,2023.2.2,Win32,144.9275362,686c2ebf0248f13bef9af11f,686c34a611d9bf22fb3fcff3,,,,,,,,,,,,,,,,,,,,,,,,,,,,,239.9409,1,audio/Narrative8Situation3.wav,243.9459,,243.9459,266.31,"[[999,0],[999,83],[999,166],[999,249],[999,333],[999,416],[999,500],[999,583],[999,666],[999,750],[999,833],[999,916],[999,999],[999,1083],[999,1166],[999,1250],[999,1333],[999,1416],[999,1500],[999,1583],[999,1666],[999,1750],[999,1833],[999,1916],[999,2000],[999,2083],[999,2166],[999,2250],[999,2333],[999,2416],[999,2500],[999,2583],[999,2666],[999,2750],[999,2833],[999,2916],[999,3000],[999,3083],[999,3166],[999,3250],[999,3333],[999,3416],[999,3500],[999,3583],[999,3666],[999,3750],[999,3833],[999,3916],[999,4000],[999,4083],[999,4167],[999,4250],[999,4333],[999,4417],[999,4500],[999,4583],[999,4667],[999,4750],[999,4833],[999,4917],[999,5000],[999,5083],[999,5167],[999,5250],[999,5333],[999,5417],[999,5500],[999,5583],[999,5667],[999,5750],[999,5833],[999,5917],[999,6000],[999,6084],[999,6167],[999,6250],[999,6334],[999,6417],[999,6500],[999,6584],[999,6667],[999,6750],[999,6834],[999,6917],[999,7000],[999,7084],[999,7167],[999,7250],[999,7334],[999,7417],[999,7500],[999,7584],[999,7667],[999,7750],[999,7834],[999,7917],[999,8000],[999,8084],[999,8167],[999,8250],[999,8334],[999,8417],[999,8500],[999,8584],[999,8667],[999,8750],[999,8834],[999,8917],[999,9000],[999,9085],[67.7,9169],[68.8,9251],[68.8,9334],[68.8,9417],[68.5,9503],[65.2,9586],[79,11419],[78.7,11501],[78.9,11586],[79.9,11670],[81.7,11753],[70.5,16420],[66.1,16502],[65.5,16585],[65.5,16668],[65.8,16752],[70.3,16835],[75,16920],[75.2,17002],[75.4,17087]]",266.31,267.8675,64.43446452,0.7166,"[{""rating"":64.4344645175505,""responseTime"":0.7165999999642167}]",space,1.0306,0.0016,267.8675,Definitely yes,100,267.8688,,,[],,0,3,3,3,1,audio/Narrative7Situation3.wav,audio/Narrative8Situation3.wav,audio/Narrative5Situation3.wav,audio/Narrative6Situation3.wav,8,4,3,5,,,,,,,,,,,,,,,,,,,,,,,,,,,,,,,,,,,,,
,,,,,5bf735882dd20c0001317fca,2025-07-07_15h58.03.202,group3.4_multiperson,2023.2.2,Win32,144.9275362,686c2ebf0248f13bef9af11f,686c34a611d9bf22fb3fcff3,,,,,,,,,,,,,,,,,,,,,,,,,,,,,267.8689,1,audio/Narrative8Situation4.wav,270.8729,,270.873,285.0345,"[[999,0],[999,83],[999,166],[999,249],[999,333],[999,416],[999,499],[999,583],[999,666],[999,749],[999,833],[999,916],[999,1000],[999,1083],[999,1166],[999,1250],[999,1333],[999,1416],[999,1500],[999,1583],[999,1666],[999,1750],[999,1833],[999,1916],[999,2000],[999,2083],[999,2166],[999,2250],[999,2333],[999,2416],[999,2507],[999,2590],[999,2673],[999,2757],[999,2840],[999,2923],[999,3007],[999,3090],[999,3173],[999,3257],[999,3340],[999,3423],[999,3507],[999,3590],[999,3673],[999,3757],[999,3840],[999,3923],[999,4007],[999,4090],[999,4173],[999,4257],[999,4340],[999,4424],[999,4507],[999,4590],[999,4674],[999,4757],[999,4840],[999,4924],[999,5007],[999,5090],[999,5174],[999,5257],[999,5340],[999,5424],[999,5507],[999,5590],[999,5681],[999,5764],[999,5847],[999,5931],[999,6014],[999,6097],[999,6181],[999,6264],[999,6347],[999,6431],[999,6514],[999,6597],[999,6681],[999,6764],[999,6849],[999,6931],[999,7014],[999,7098],[999,7181],[999,7264],[999,7348],[999,7431],[999,7514],[999,7598],[999,7681],[999,7764],[999,7848],[999,7931],[999,8014],[999,8098],[999,8181],[999,8264],[999,8348],[999,8431],[999,8514],[999,8599],[999,8681],[999,8764],[999,8848],[999,8931],[999,9014],[999,9098],[999,9181],[999,9264],[999,9348],[999,9431],[999,9514],[999,9598],[999,9681],[999,9764],[999,9848],[999,9931],[999,10015],[999,10098],[999,10181],[999,10265],[999,10348],[999,10431],[999,10515],[999,10598],[999,10681],[999,10765],[999,10848],[999,10931],[999,11015],[999,11098],[999,11181],[999,11265],[999,11348],[999,11431],[999,11515],[999,11598],[999,11681],[999,11765],[999,11848],[999,11931],[999,12015],[999,12098],[999,12182],[999,12265],[999,12348],[999,12432],[999,12515],[999,12598],[999,12682],[999,12765],[999,12848],[999,12932],[999,13015],[999,13098],[999,13182],[999,13265],[999,13348],[999,13432],[999,13515],[999,13598],[999,13682],[999,13765],[999,13848],[999,13932],[999,14015],[999,14098]]",285.0346,288.2571,73.38930112,1.7526,"[{""rating"":73.38930111569499,""responseTime"":1.7526000000238469}]",space,2.7035,,288.2572,Definitely yes,100,288.2582,,,[],,0,4,4,4,1,audio/Narrative7Situation4.wav,audio/Narrative8Situation4.wav,audio/Narrative5Situation4.wav,audio/Narrative6Situation4.wav,3,3,1,2,,,,,,,,,,,,,,,,,,,,,,,,,,,,,,,,,,,,,
,,,,,5bf735882dd20c0001317fca,2025-07-07_15h58.03.202,group3.4_multiperson,2023.2.2,Win32,144.9275362,686c2ebf0248f13bef9af11f,686c34a611d9bf22fb3fcff3,,,,,,,,,,,,,,,,,,,,,,,,,,,,,288.2583,1,audio/Narrative8Situation5.wav,290.2643,,290.2643,298.4946,"[[999,0],[999,83],[999,166],[999,250],[999,333],[999,417],[38.2,501],[37,583],[37,666],[37,750],[42.7,833],[73,916],[80.5,1002],[80.5,1083],[80.5,1166],[80.5,1250],[72.4,1334],[61.1,1418],[55.7,1502],[55.5,1583],[55.5,1666],[55.5,1750],[55.5,1833],[55.5,1916],[55.5,2000],[55.8,2085],[55.9,2166],[55.9,2250],[55.9,2333],[55.1,3000],[54.7,3083],[54.5,3169],[54,3252],[53.9,3333],[53.6,3416],[53.5,3500],[53.3,3583],[53.3,3667],[53.1,3750],[52.9,3833],[52.9,3917],[52.8,4000],[52.8,4083],[52.8,4167],[52.8,4250],[52.8,4333],[52.8,4417],[52.8,4500],[52.8,4583],[52.8,4667],[52.8,4750],[54,4835],[60.4,4918],[64.4,5002],[68.4,5086],[73.1,5167],[76.6,5252],[82.8,5335],[85.5,5417],[86.2,5502],[92.1,5583],[100,5668],[100,5750],[100,5834],[100,5917],[100,6000],[100,6084],[100,6167],[100,6250],[100,6334],[100,6417],[100,6500],[100,6584],[100,6667],[99.1,6753],[98.7,6834],[98.5,6917],[97.9,7000],[97.5,7085],[97.5,7167],[97.5,7250],[97.5,7334],[97.5,7417],[97.5,7500],[97.5,7584],[97.5,7667],[97.5,7750],[97.5,7834],[97.5,7917],[97.5,8000],[97.5,8084],[97.5,8167]]",298.4948,300.5227,94.110376,1.0759,"[{""rating"":94.11037600095268,""responseTime"":1.0759000000357446}]",space,1.5109,0.0014,300.5228,Not at all,0,300.5246,,,[],,0,5,5,5,1,audio/Narrative7Situation5.wav,audio/Narrative8Situation5.wav,audio/Narrative5Situation5.wav,audio/Narrative6Situation5.wav,5,2,5,2,,,,,,,,,,,,,,,,,,,,,,,,,,,,,,,,,,,,,
,,,,,5bf735882dd20c0001317fca,2025-07-07_15h58.03.202,group3.4_multiperson,2023.2.2,Win32,144.9275362,686c2ebf0248f13bef9af11f,686c34a611d9bf22fb3fcff3,,,,,,,,,,,,,,,,,,,,,,,,,,,,,300.5248,1,audio/Narrative8Situation6.wav,302.5298,,302.5298,308.9891,"[[999,0],[999,83],[999,166],[999,250],[999,334],[999,418],[55.2,500],[55,583],[57.4,666],[58.9,750],[58.9,833],[58.3,919],[49.4,1002],[32.3,1083],[27.3,1166],[82.6,1251],[100,1333],[89.2,1418],[42.6,1502],[56.9,1585],[100,1668],[56.3,1750],[5.8,1833],[49.7,1916],[70.1,2002],[17.3,2083],[16.4,2168],[71.2,2252],[39.7,2333],[25.4,2419],[70.6,2502],[61.7,2585],[64.5,2668],[99.8,2752],[100,2833],[99.8,2917],[99.2,3002],[90.4,3085],[84.1,3169],[84.1,3250],[84.1,3333],[84.1,3417],[84.1,3500],[84.1,3583],[84.1,3667],[84.1,3750],[84.1,3834],[84.1,3917],[84.1,4000],[84.1,4083],[84.1,4167],[84.1,4250],[84.1,4333],[84.1,4417],[84.1,4500],[84.1,4583],[84.1,4667],[84.1,4750],[84.1,4833],[84.1,4917],[84.1,5000],[84.1,5084],[84.1,5167],[84.1,5250],[84.1,5333],[84.1,5417],[84.1,5500],[84.1,5584],[84.1,5667],[84.1,5750],[83.9,5834],[83.9,5917],[83.9,6002],[83.9,6084],[83.9,6167],[83.9,6250],[83.5,6334]]",308.9892,310.8921,80.05336756,0.9815,"[{""rating"":80.0533675561088,""responseTime"":0.9815000000000396}]",space,1.3859,0.0014,310.8921,Definitely yes,100,310.894,,,[],,0,6,6,6,1,audio/Narrative7Situation6.wav,audio/Narrative8Situation6.wav,audio/Narrative5Situation6.wav,audio/Narrative6Situation6.wav,3,2,3,2,,,,,,,,,,,,,,,,,,,,,,,,,,,,,,,,,,,,,
,,,,,5bf735882dd20c0001317fca,2025-07-07_15h58.03.202,group3.4_multiperson,2023.2.2,Win32,144.9275362,686c2ebf0248f13bef9af11f,686c34a611d9bf22fb3fcff3,,,,,,,,,,,,,,,,,,,,,,,,,,,,,310.8941,1,audio/Narrative8Situation7.wav,313.8993,,313.8993,325.9703,"[[70.9,418],[66.6,500],[60.2,585],[46.4,666],[31.9,750],[21.3,835],[10.6,918],[0.1,1001],[13.4,1751],[29.4,1835],[40.7,1916],[49.7,2002],[55.5,2083],[58.6,2166],[58.9,2250],[58.9,2333],[49.3,2419],[11.4,2502],[26.3,2833],[53.8,2918],[66.4,3002],[82.2,3083],[97.2,3168],[100,3251],[100,3335],[100,3416],[100,3500],[100,3583],[100,3667],[100,3750],[100,3833],[100,3917],[100,4000],[100,4083],[100,4168],[100,4252],[100,4335],[100,4417],[100,4500],[100,4584],[100,4667],[100,4750],[100,4835],[100,4917],[100,5000],[100,5084],[100,5167],[100,5250],[100,5334],[100,5417],[100,5500],[100,5584],[100,5667],[100,5750],[100,5834],[100,5917],[100,6000],[100,6084],[100,6167],[100,6250],[100,6334],[100,6417],[100,6500],[100,6584],[100,6667],[100,6750],[100,6834],[100,6917],[100,7000],[100,7084],[100,7167],[100,7250],[100,7334],[100,7417],[100,7500],[100,7584],[100,7667],[100,7750],[100,7834],[100,7917],[100,8000],[100,8084],[100,8167],[100,8250],[100,8334],[100,8417],[100,8501],[100,8584],[100,8667],[100,8750],[100,8834],[100,8917],[100,9001],[100,9084],[100,9167],[100,9251],[100,9334],[100,9417],[100,9501],[100,9584],[100,9667],[100,9751],[100,9834],[100,9917],[100,10001],[100,10084],[100,10168],[100,10251],[100,10334],[100,10418],[100,10501],[100,10586],[100,10668],[100,10751],[100,10834],[100,10918],[100,11001],[100,11084],[100,11168],[100,11251],[100,11334],[100,11418],[100,11501],[100,11584],[100,11668],[100,11751],[100,11834],[100,11918],[100,12001]]",325.9704,327.3454,99.42079188,0.7291,"[{""rating"":99.42079188043033,""responseTime"":0.7290999999642054}]",space,0.8547,0.0004,327.3456,Not at all,0,327.3472,,,[],,0,7,7,7,1,audio/Narrative7Situation7.wav,audio/Narrative8Situation7.wav,audio/Narrative5Situation7.wav,audio/Narrative6Situation7.wav,5,3,4,5,,,,,,,,,,,,,,,,,,,,,,,,,,,,,,,,,,,,,
,,,,,5bf735882dd20c0001317fca,2025-07-07_15h58.03.202,group3.4_multiperson,2023.2.2,Win32,144.9275362,686c2ebf0248f13bef9af11f,686c34a611d9bf22fb3fcff3,,,,,,,,,,,,,,,,,,,,,,,,,,,,,327.3473,1,audio/Narrative8Situation8.wav,330.3529,,330.3529,343.1949,"[[73.9,83],[73.9,166],[73.9,249],[73.6,334],[68.7,416],[62.6,501],[57.7,585],[51.5,666],[46.5,750],[41.3,833],[35.4,918],[30.8,1001],[25.5,1085],[21.7,1168],[17.1,1251],[12.6,1334],[9.1,1418],[7,1502],[4.3,1585],[2.9,1666],[2.7,1750],[3.3,1835],[4.4,1918],[6.6,2000],[12.2,2085],[18.1,2166],[22.2,2251],[24.9,2333],[28.1,2416],[31.5,2500],[33.8,2586],[36,2668],[37.5,2752],[38.7,2835],[39.5,2917],[40.2,3000],[40.3,3083],[40.3,3166],[40.3,3251],[39.3,3335],[37,3418],[33.1,3500],[30.4,3583],[28.9,3667],[28,3750],[27.4,3834],[27.1,3918],[27.1,4000],[27.1,4083],[27.1,4167],[27.1,4250],[27.1,4333],[27.1,4417],[27.1,4500],[27.1,4583],[27.1,4667],[27.1,4750],[27.1,4833],[27.1,4917],[27.1,5000],[27.1,5083],[27.1,5167],[27.1,5250],[27.1,5333],[27.1,5417],[27.1,5500],[27.1,5583],[27.1,5667],[27.2,5752],[27.7,5834],[28.1,5917],[28.6,6000],[29.4,6086],[29.7,6167],[30,6250],[30.3,6334],[33.6,6419],[52.3,6503],[75.2,6586],[89.3,6669],[92.8,6750],[92.8,6834],[92.8,6917],[95.3,7002],[98.3,7084],[98.6,7167],[99.2,7250],[100,7334],[100,7417],[100,7500],[100,7584],[100,7667],[100,7750],[100,7836],[100,7917],[100,8000],[99.6,8084],[99.4,8167],[98.8,8250],[98.3,8334],[97.7,8417],[97.1,8501],[97,8584],[96.7,8667],[96.3,8750],[96,8834],[96,8917],[96,9000],[96,9084],[96,9167],[96,9251],[96,9334],[96,9417],[96,9501],[96,9584],[96,9667],[96,9751],[96,9834],[96,9917],[96,10001],[96,10084],[96,10167],[96,10251],[96,10334],[96,10417],[96,10501],[96,10584],[96,10667],[96,10751],[96,10834],[96,10918],[96,11001],[96,11084],[96,11168],[96,11251],[96,11334],[96,11418],[96,11501],[96,11584],[96,11668],[96,11751],[96,11834],[96,11918],[96,12001],[96,12084],[96,12168],[96,12251],[96,12334],[96,12418],[96,12501],[96,12584],[96,12668],[96,12751],[96,12834]]",343.1951,344.4033,95.88051463,0.369,"[{""rating"":95.88051462744525,""responseTime"":0.3690000000000282}]",space,0.6915,,344.4034,Partially,50,351.3695,49.33619301,5.7587,"[{""rating"":49.33619301023033,""responseTime"":5.758699999988096}]",space,0,8,8,8,1,audio/Narrative7Situation8.wav,audio/Narrative8Situation8.wav,audio/Narrative5Situation8.wav,audio/Narrative6Situation8.wav,2,3,3,5,,,6.4469,0.0008,,,,,,,,,,,,,,,,,,,,,,,,,,,,,,,,,
,,,,,5bf735882dd20c0001317fca,2025-07-07_15h58.03.202,group3.4_multiperson,2023.2.2,Win32,144.9275362,686c2ebf0248f13bef9af11f,686c34a611d9bf22fb3fcff3,,,,,,,,,,,,,,,,,,,,,,,,,,,,,351.3697,1,audio/Narrative8Situation9.wav,354.3698,,354.3699,365.6769,"[[50,1833],[51.5,1918],[54.3,2000],[55.3,2083],[55.6,2166],[56.9,2251],[57.4,2335],[57.5,2416],[57.5,2500],[57.5,2583],[57.5,2666],[57.5,2750],[57.5,2833],[57.5,2916],[57.5,3000],[57.5,3083],[57.5,3166],[57.5,3250],[57.5,3333],[57.5,3416],[61.3,3500],[67.4,3585],[69.9,3667],[70.3,3750],[70.3,3833],[70.3,3917],[70.3,4000],[70.3,4083],[70.5,4168],[73.8,4250],[78,4333],[81.5,4418],[81.8,4500],[82.2,4583],[82.2,4667],[82.2,4750],[82.2,4833],[82.2,4917],[82.2,5000],[82.2,5083],[82.2,5167],[82.5,5252],[82.5,5334],[82.9,5417],[83,5500],[83.1,5584],[83.1,5667],[83.1,5750],[83.1,5834],[83.1,5917],[83.1,6002],[83.1,6084],[83.1,6167],[83.1,6250],[83.1,6334],[83.1,6417],[83.1,6500],[83.1,6584],[83.1,6667],[83.1,6750],[83.1,6834],[83.1,6917],[83.1,7000],[83.1,7084],[83.1,7167],[83.1,7250],[83.1,7334],[83.1,7417],[83.1,7500],[83.1,7584],[83.1,7667],[83.1,7750],[83.1,7834],[83.1,7917],[83.1,8000],[83.1,8084],[83.1,8167],[83.1,8250],[83.1,8334],[83.1,8417],[83.1,8500],[83.1,8584],[83.1,8667],[83.3,8751],[83.3,8834],[83.3,8917],[83.3,9000],[83.3,9084],[83.3,9167],[83.3,9251],[83.3,9334],[83.3,9417],[83.3,9501],[83.3,9584],[83.3,9667],[83.3,9751],[83.3,9834],[83.3,9917],[83.3,10001],[83.3,10084],[83.3,10167],[83.3,10251],[83.3,10334],[83.3,10417],[83.3,10501],[83.3,10584],[83.3,10668],[83.3,10751],[83.3,10834],[83.3,10918],[83.3,11001],[83.3,11084],[83.3,11168],[83.3,11251]]",365.677,367.9154,97.13002172,2.0538,"[{""rating"":97.13002172269964,""responseTime"":2.053800000011904}]",space,1.7211,,367.9154,Partially,50,367.9166,,,[],,0,9,9,9,1,audio/Narrative7Situation9.wav,audio/Narrative8Situation9.wav,audio/Narrative5Situation9.wav,audio/Narrative6Situation9.wav,2,3,3,4,,,,,,,,,,,,,,,,,,,,,,,,,,,,,,,,,,,,,
,,,,,5bf735882dd20c0001317fca,2025-07-07_15h58.03.202,group3.4_multiperson,2023.2.2,Win32,144.9275362,686c2ebf0248f13bef9af11f,686c34a611d9bf22fb3fcff3,,,,,,,,,,,,,,,,,,,,,,,,,,,,,367.9168,1,audio/Narrative7Situation1.wav,369.9204,,369.9205,425.7958,"[[95.7,3335],[91.2,3419],[90,3507],[89.6,3590],[89.6,3673],[89.1,3757],[89.1,3840],[89.1,3923],[89.1,4007],[89.1,4090],[89.1,4173],[89.1,4257],[89.1,4340],[89.1,4424],[89.1,4507],[89.1,4590],[89.1,4674],[89.1,4757],[89.1,4840],[89.1,4924],[89.1,5007],[89.1,5090],[89.1,5174],[89.1,5257],[89.1,5340],[89.1,5424],[89.1,5507],[89.1,5591],[89.1,5674],[89.1,5757],[89.1,5841],[89.1,5924],[89.1,6007],[89.1,6091],[89.1,6174],[89.1,6257],[89.1,6341],[89.1,6424],[89.1,6507],[89.1,6591],[89.1,6674],[89.1,6757],[89.1,6841],[89.1,6924],[89.1,7007],[89.1,7091],[89.1,7174],[89.1,7257],[89.1,7341],[89.1,7424],[89.1,7507],[89.1,7591],[89.1,7674],[89.1,7757],[89.1,7841],[89.1,7924],[89.1,8007],[89.1,8091],[89.1,8174],[89.1,8257],[89.1,8341],[89.1,8424],[89.1,8507],[89.1,8591],[89.1,8674],[89.1,8757],[89.1,8841],[89.1,8924],[89.1,9008],[89.1,9091],[89.1,9174],[89.1,9257],[89.1,9341],[89.1,9424],[89.1,9508],[89.1,9591],[89.1,9674],[89.1,9758],[89.1,9841],[89.1,9924],[89.1,10008],[89.1,10091],[89.1,10174],[89.1,10258],[89.1,10341],[89.1,10424],[89.1,10508],[89.1,10591],[89.1,10674],[89.1,10758],[89.1,10841],[89.1,10925],[89.1,11008],[89.1,11091],[89.1,11175],[89.1,11258],[89.1,11341],[89.1,11425],[89.1,11508],[89.1,11591],[89.1,11675],[89.1,11758],[89.1,11841],[89.1,11925],[89.1,12008],[89.1,12091],[89.1,12175],[89.1,12258],[89.1,12341],[89.1,12425],[89.1,12508],[89.1,12591],[89.1,12675],[89.1,12758],[89.1,12841],[89.1,12925],[89.1,13008],[89.1,13091],[89.1,13175],[89.1,13258],[89.1,13341],[89.1,13425],[89.1,13508],[89.1,13592],[89.1,13675],[89.1,13758],[89.1,13842],[89.1,13925],[89.1,14008],[89.1,14092],[89.1,14175],[89.1,14258],[89.1,14342],[89.1,14425],[89.1,14508],[89.1,14592],[89.1,14675],[89.1,14758],[89.1,14842],[89.1,14925],[89.1,15008],[89.1,15092],[89.1,15175],[89.1,15258],[89.1,15342],[89.1,15425],[89.1,15508],[89.1,15592],[89.1,15675],[89.1,15758],[89.1,15842],[89.1,15925],[89.1,16009],[89.1,16092],[89.1,16175],[89.1,16259],[89.1,16342],[89.1,16425],[89.1,16509],[89.1,16592],[89.1,16675],[89.1,16759],[89.1,16842],[89.1,16925],[89.1,17009],[89.1,17092],[89.1,17175],[89.1,17259],[89.1,17342],[89.1,17425],[89.1,17509],[89.1,17592],[89.1,17675],[89.1,17759],[89.1,17842],[89.1,17925],[89.1,18009],[89.1,18092],[89.1,18175],[89.1,18259],[89.1,18342],[89.1,18425],[89.1,18509],[89.1,18592],[89.1,18675],[89.1,18759],[89.1,18844],[89.1,18925],[89.1,19009],[89.1,19092],[89.1,19175],[89.1,19259],[89.1,19342],[89.1,19425],[89.1,19509],[89.1,19592],[89.1,19676],[89.1,19759],[89.1,19842],[89.1,19926],[89.1,20009],[89.1,20092],[89.1,20176],[89.1,20259],[89.1,20342],[89.1,20426],[89.1,20509],[89.1,20592],[89.1,20676],[89.1,20759],[89.1,20844],[89.1,20926],[89.1,21009],[89.1,21092],[89.1,21177],[89.1,21259],[89.1,21343],[89.1,21426],[89.1,21509],[89.1,21593],[89.1,21678],[89.1,21759],[89.1,21843],[89.1,21926],[89.1,22009],[89.1,22093],[89.1,22176],[89.1,22259],[89.1,22343],[89.1,22426],[89.1,22509],[89.1,22593],[89.1,22676],[89.1,22759],[89.1,22843],[89.1,22926],[89.1,23009],[89.1,23093],[89.1,23176],[89.1,23259],[89.1,23343],[89.1,23426],[89.1,23509],[89.1,23593],[89.1,23676],[89.1,23759],[89.1,23843],[89.1,23926],[89.1,24009],[89.1,24093],[89.1,24176],[89.1,24259],[89.1,24343],[89.1,24426],[89.1,24509],[89.1,24593],[89.1,24676],[89.1,24759],[89.1,24843],[89.1,24926],[89.1,25010],[89.1,25093],[89.1,25176],[89.1,25260],[89.1,25343],[89.1,25426],[89.1,25510],[89.1,25593],[89.1,25676],[89.1,25760],[89.1,25843],[89.1,25926],[89.1,26010],[89.1,26093],[89.1,26176],[89.1,26260],[89.1,26343],[89.1,26426],[89.1,26510],[89.1,26593],[89.1,26676],[89.1,26760],[89.1,26843],[89.1,26926],[89.1,27010],[89.1,27093],[89.1,27177],[89.1,27260],[89.1,27343],[89.1,27427],[89.1,27510],[89.1,27593],[89.1,27677],[89.1,27760],[89.1,27843],[89.1,27927],[89.1,28010],[89.1,28093],[89.1,28177],[89.1,28260],[89.1,28343],[89.1,28427],[89.1,28510],[89.1,28593],[89.1,28677],[89.1,28760],[89.1,28843],[89.1,28927],[89.1,29010],[89.1,29094],[89.1,29177],[89.1,29260],[89.1,29343],[89.1,29427],[89.1,29510],[89.1,29593],[89.1,29677],[89.1,29760],[89.1,29844],[89.1,29927],[89.1,30010],[89.1,30094],[89.1,30177],[89.1,30260],[89.1,30344],[89.1,30427],[89.1,30510],[89.1,30594],[89.1,30677],[89.1,30760],[89.1,30844],[89.1,30927],[89.1,31010],[89.1,31094],[89.1,31177],[89.1,31260],[89.1,31344],[89.1,31427],[89.1,31510],[89.1,31594],[89.1,31677],[89.1,31761],[89.1,31844],[89.1,31927],[89.1,32010],[89.1,32094],[89.1,32177],[89.1,32260],[89.1,32344],[89.1,32427],[89.1,32511],[89.1,32594],[89.1,32677],[89.1,32761],[89.1,32844],[89.1,32927],[89.1,33011],[89.1,33094],[89.1,33177],[89.1,33261],[89.1,33344],[89.1,33427],[89.1,33511],[89.1,33594],[89.1,33677],[89.1,33761],[89.1,33844],[89.1,33927],[89.1,34011],[89.1,34094],[89.1,34178],[89.1,34261],[89.1,34344],[89.1,34428],[89.1,34511],[89.1,34594],[89.1,34678],[89.1,34761],[89.1,34844],[89.1,34928],[89.1,35011],[89.1,35094],[89.1,35178],[89.1,35261],[89.1,35344],[89.1,35428],[89.1,35511],[89.1,35594],[89.1,35678],[89.1,35761],[89.1,35844],[89.1,35928],[89.1,36011],[89.1,36094],[89.1,36178],[89.1,36261],[89.1,36344],[89.1,36428],[89.1,36511],[89.1,36594],[89.1,36678],[89.1,36761],[89.1,36844],[89.1,36928],[89.1,37011],[89.1,37094],[89.1,37178],[89.1,37261],[89.1,37345],[89.1,37428],[89.1,37511],[89.1,37595],[89.1,37678],[89.1,37761],[89.1,37845],[89.1,37928],[89.1,38011],[89.1,38095],[89.1,38178],[88.8,38263],[88.5,38345],[87.7,38428],[86.3,38512],[85.4,38595],[82,38678],[80.8,38763],[80.7,38845],[80.7,38928],[80.7,39012],[80.7,39095],[80.7,39178],[80.7,39262],[80.7,39345],[80.7,39428],[80.7,39512],[80.7,39595],[80.7,39678],[80.7,39762],[80.7,39845],[80.7,39928],[80.7,40012],[80.7,40095],[80.7,40178],[80.7,40262],[80.7,40345],[80.7,40428],[80.7,40512],[80.7,40595],[80.7,40678],[80.7,40762],[80.7,40845],[80.7,40928],[80.7,41012],[80.7,41095],[80.7,41178],[80.7,41262],[80.7,41345],[80.7,41428],[80.7,41512],[80.7,41595],[80.7,41678],[80.7,41762],[80.7,41845],[80.7,41928],[80.7,42012],[80.7,42095],[80.7,42178],[80.7,42262],[80.7,42345],[80.7,42429],[80.7,42512],[80.7,42595],[80.7,42678],[80.7,42762],[80.7,42845],[80.7,42929],[80.7,43012],[80.7,43095],[80.7,43179],[80.7,43263],[80.7,43345],[80.7,43429],[80.7,43512],[80.7,43595],[80.7,43679],[80.7,43762],[80.7,43845],[80.7,43929],[80.7,44012],[80.7,44095],[80.7,44179],[80.7,44262],[80.7,44345],[80.7,44429],[80.7,44512],[80.7,44596],[80.7,44679],[80.7,44762],[80.7,44846],[80.7,44929],[80.7,45012],[80.7,45096],[80.7,45179],[80.7,45262],[80.7,45346],[80.7,45429],[80.7,45512],[80.7,45596],[80.7,45679],[80.7,45762],[80.7,45846],[80.7,45929],[80.7,46012],[80.7,46096],[80.7,46179],[80.7,46262],[80.7,46346],[80.7,46429],[80.7,46512],[80.7,46596],[80.7,46679],[80.7,46762],[80.7,46846],[80.7,46929],[80.7,47013],[80.7,47096],[80.7,47179],[80.7,47262],[80.7,47346],[80.7,47429],[80.7,47513],[80.7,47596],[80.7,47679],[80.7,47763],[80.7,47846],[80.7,47929],[80.7,48013],[80.7,48096],[80.7,48179],[80.7,48263],[80.7,48346],[80.7,48429],[80.7,48513],[80.7,48596],[80.7,48679],[80.7,48763],[80.7,48846],[80.7,48929],[80.7,49013],[80.7,49096],[80.7,49179],[80.7,49263],[80.7,49346],[80.7,49430],[80.7,49513],[80.7,49596],[80.7,49680],[80.7,49763],[80.7,49846],[80.7,49930],[80.7,50013],[80.7,50096],[80.7,50180],[80.7,50263],[80.7,50346],[80.7,50430],[80.7,50513],[80.7,50596],[80.7,50680],[80.7,50763],[80.7,50846],[80.7,50930],[80.7,51013],[80.7,51096],[80.7,51180],[80.7,51263],[80.7,51346],[80.7,51430],[80.7,51513],[80.7,51596],[80.7,51680],[80.7,51763],[80.7,51846],[80.7,51930],[80.7,52013],[80.7,52096],[80.7,52180],[80.7,52263],[80.7,52346],[80.7,52430],[80.7,52513],[80.7,52596],[80.7,52680],[80.7,52763],[80.7,52847],[80.7,52930],[80.7,53013],[80.7,53097],[80.7,53180],[80.7,53263],[80.7,53347],[80.7,53430],[80.7,53513],[80.7,53597],[80.7,53680],[80.7,53763],[80.7,53847],[80.7,53930],[80.7,54013],[80.7,54097],[80.7,54180],[80.7,54263],[80.7,54347],[80.7,54430],[80.7,54514],[80.7,54597],[80.7,54680],[80.7,54763],[80.7,54847],[80.7,54930],[80.7,55014],[80.7,55097],[80.7,55180],[80.7,55264],[80.7,55347],[80.7,55430],[80.7,55514],[80.7,55597],[80.7,55680],[80.7,55764],[80.7,55847]]",425.796,427.1293,97.54652409,1.0386,"[{""rating"":97.54652408778445,""responseTime"":1.0386000000238482}]",space,0.8243,,427.1294,Definitely yes,100,427.1312,,,[],,0,10,10,10,1,audio/Narrative8Situation1.wav,audio/Narrative7Situation1.wav,audio/Narrative6Situation1.wav,audio/Narrative5Situation1.wav,5,2,2,5,,,,,,,,,,,,,,,,,,,,,,,,,,,,,,,,,,,,,
,,,,,5bf735882dd20c0001317fca,2025-07-07_15h58.03.202,group3.4_multiperson,2023.2.2,Win32,144.9275362,686c2ebf0248f13bef9af11f,686c34a611d9bf22fb3fcff3,,,,,,,,,,,,,,,,,,,,,,,,,,,,,427.1313,1,audio/Narrative7Situation2.wav,430.1366,,430.1366,437.6029,"[[51.3,666],[50.5,750],[50.3,833],[49.9,916],[49.9,1000],[51.6,1084],[57.1,1166],[59,1250],[59,1333],[59,1416],[59,1500],[59,1583],[59.6,1668],[59.7,1750],[60.8,1835],[62.5,1916],[64.4,2000],[65.2,2084],[66.4,2168],[73.9,2252],[74,2333],[74,2416],[74,2500],[74,2583],[74,2666],[74,2750],[74,2833],[74,2916],[74,3000],[74,3083],[74,3166],[74,3250],[74,3333],[74,3417],[74,3502],[74,3583],[74,3667],[74,3750],[74,3833],[74,3917],[74,4000],[74,4083],[74,4167],[74,4250],[74,4333],[74,4417],[74,4500],[74,4583],[74,4667],[74,4750],[74,4833],[74,4917],[74,5000],[74,5084],[74,5167],[74,5250],[74,5334],[74,5417],[74,5500],[74,5584],[74,5667],[74,5750],[74,5834],[74,5917],[74,6000],[74,6084],[74,6167],[74,6250],[74,6334],[74,6417],[74,6500],[74,6584],[74,6667],[74,6750],[74,6834],[74,6917],[74,7000],[74,7084],[74,7167],[74,7250],[74.2,7334],[74.2,7417]]",437.6029,439.0961,88.79994582,0.9677,"[{""rating"":88.79994582194661,""responseTime"":0.9676999999880991}]",space,0.9847,,439.0961,Not at all,0,439.0981,,,[],,0,11,11,11,1,audio/Narrative8Situation2.wav,audio/Narrative7Situation2.wav,audio/Narrative6Situation2.wav,audio/Narrative5Situation2.wav,3,3,3,3,,,,,,,,,,,,,,,,,,,,,,,,,,,,,,,,,,,,,
,,,,,5bf735882dd20c0001317fca,2025-07-07_15h58.03.202,group3.4_multiperson,2023.2.2,Win32,144.9275362,686c2ebf0248f13bef9af11f,686c34a611d9bf22fb3fcff3,,,,,,,,,,,,,,,,,,,,,,,,,,,,,439.0982,1,audio/Narrative7Situation3.wav,447.1041,,447.1041,456.3414,"[[65.2,1416],[67.5,1501],[69.1,1583],[70.3,1666],[71.5,1750],[72.5,1833],[75,1918],[75.9,2002],[76.9,2083],[77.1,2166],[77.3,2250],[77.3,2333],[77.3,2416],[77.3,2500],[77.3,2583],[77.3,2667],[77.3,2750],[77.3,2833],[77.3,2917],[77.3,3000],[77.3,3083],[77.3,3167],[77.3,3250],[77.3,3333],[77.3,3417],[77.3,3500],[77.3,3583],[77.3,3667],[77.3,3750],[77.3,3833],[77.3,3917],[77.3,4000],[77.3,4083],[77.3,4168],[77.3,4250],[77.3,4333],[77.3,4417],[77.3,4500],[77.3,4583],[77.3,4667],[77.3,4750],[77.3,4833],[77.3,4917],[77.3,5000],[77.3,5084],[77.3,5167],[77.3,5250],[77.4,5333],[77.4,5417],[77.4,5500],[77.4,5584],[77.4,5667],[77.4,5750],[77.4,5834],[77.4,5917],[77.4,6000],[77.4,6084],[77.4,6167],[77,6253],[76.4,6334],[76.3,6417],[76.3,6500],[76.1,6584],[76.1,6667],[76.1,6750],[76.1,6834],[76.1,6917],[76.1,7000],[76.1,7084],[76.1,7167],[76.1,7250],[76.1,7334],[76.1,7417],[76.1,7500],[76.1,7584],[76.1,7667],[76.1,7751],[77.8,7836],[80,7917],[80.3,8000],[80.3,8084],[80.3,8167],[80.3,8251],[80.3,8334],[80.3,8417],[80.3,8501],[80.3,8584],[80.3,8667],[80.3,8751],[80.3,8834],[80.3,8917],[80.3,9001],[80.3,9084],[80.3,9167]]",456.3415,457.7096,80.26161159,0.7253,"[{""rating"":80.26161158888696,""responseTime"":0.7253000000119414}]",space,0.8559,,457.7097,Not at all,0,457.7108,,,[],,0,12,12,12,1,audio/Narrative8Situation3.wav,audio/Narrative7Situation3.wav,audio/Narrative6Situation3.wav,audio/Narrative5Situation3.wav,4,8,5,3,,,,,,,,,,,,,,,,,,,,,,,,,,,,,,,,,,,,,
,,,,,5bf735882dd20c0001317fca,2025-07-07_15h58.03.202,group3.4_multiperson,2023.2.2,Win32,144.9275362,686c2ebf0248f13bef9af11f,686c34a611d9bf22fb3fcff3,,,,,,,,,,,,,,,,,,,,,,,,,,,,,457.711,1,audio/Narrative7Situation4.wav,460.7119,,460.712,472.4198,"[[41.5,81],[41.4,164],[41.3,248],[43.7,332],[55,417],[73,500],[75.3,583],[77.1,665],[80.3,750],[81.7,831],[81.7,914],[81.8,998],[81.8,1084],[81.8,1165],[81.8,1248],[81.8,1331],[81.8,1414],[81.8,1498],[81.8,1595],[81.8,1678],[81.8,1762],[81.8,1847],[81.8,1928],[81.8,2012],[81.8,2095],[81.8,2178],[81.8,2262],[81.8,2345],[81.8,2428],[81.8,2512],[81.8,2595],[81.8,2678],[81.8,2762],[81.8,2845],[81.8,2929],[81.8,3012],[81.8,3095],[81.8,3179],[81.8,3262],[81.8,3345],[81.8,3429],[81.8,3512],[81.8,3595],[81.8,3679],[81.8,3762],[81.8,3845],[81.8,3929],[81.8,4012],[81.8,4095],[81.8,4179],[81.8,4262],[81.8,4345],[81.8,4429],[81.8,4512],[81.8,4595],[81.8,4679],[81.8,4762],[81.8,4845],[81.8,4929],[81.8,5012],[81.8,5095],[81.8,5179],[81.8,5262],[81.8,5345],[81.8,5429],[81.8,5512],[81.8,5596],[81.8,5679],[81.8,5762],[81.8,5845],[81.8,5929],[81.8,6012],[81.8,6096],[81.8,6179],[81.8,6262],[81.8,6346],[81.8,6429],[81.8,6512],[81.8,6596],[81.8,6679],[81.8,6762],[81.8,6846],[81.8,6929],[81.8,7012],[81.8,7096],[81.8,7179],[81.8,7262],[81.8,7346],[81.8,7429],[81.8,7512],[81.8,7596],[81.8,7679],[81.8,7762],[81.8,7846],[81.8,7929],[81.8,8012],[81.8,8096],[81.8,8179],[81.8,8263],[81.8,8346],[81.8,8429],[81.8,8512],[81.8,8596],[81.8,8679],[81.8,8763],[81.8,8846],[81.8,8929],[81.8,9013],[81.8,9096],[81.8,9179],[81.8,9263],[81.8,9346],[81.8,9429],[81.8,9513],[81.8,9596],[81.8,9679],[81.8,9763],[81.8,9846],[82,9929],[82,10013],[82,10096],[81.3,10181],[77.8,10263],[75.5,10348],[66.1,10432],[56,10514],[56,10596],[56,10679],[56,10763],[56,10846],[56,10929],[58.1,11015],[58.6,11096],[58.6,11179],[58.6,11265],[58.6,11346],[58.6,11430],[58.6,11513],[58.6,11596],[58.6,11680]]",472.4199,473.7743,58.60340996,0.7268,"[{""rating"":58.60340995707054,""responseTime"":0.7268000000119059}]",space,0.8348,0.0015,473.7743,Partially,50,473.776,,,[],,0,13,13,13,1,audio/Narrative8Situation4.wav,audio/Narrative7Situation4.wav,audio/Narrative6Situation4.wav,audio/Narrative5Situation4.wav,3,3,2,1,,,,,,,,,,,,,,,,,,,,,,,,,,,,,,,,,,,,,
,,,,,5bf735882dd20c0001317fca,2025-07-07_15h58.03.202,group3.4_multiperson,2023.2.2,Win32,144.9275362,686c2ebf0248f13bef9af11f,686c34a611d9bf22fb3fcff3,,,,,,,,,,,,,,,,,,,,,,,,,,,,,473.7761,1,audio/Narrative7Situation5.wav,478.7818,,478.7819,487.2551,"[[59.2,1833],[59.4,1916],[59.6,2000],[59.6,2083],[59.6,2166],[59.6,2250],[59.6,2333],[60.2,2418],[60.8,2500],[62.1,2585],[65.8,2668],[70.5,2752],[76,2833],[80.5,2918],[83.3,3001],[85.6,3083],[86.5,3167],[86.5,3250],[86.5,3333],[86.6,3416],[86.6,3500],[86.6,3583],[86.6,3667],[86.6,3750],[86.6,3833],[86.6,3917],[86.6,4000],[86.6,4083],[86.6,4167],[86.6,4250],[86.6,4333],[86.6,4417],[86.6,4500],[86.6,4583],[86.6,4667],[86.6,4750],[86.6,4833],[86.6,4917],[86.6,5000],[86.6,5084],[86.6,5167],[86.6,5250],[86.6,5334],[86.6,5417],[86.6,5500],[86.6,5584],[86.6,5667],[86.6,5750],[86.6,5834],[86.6,5917],[86.6,6000],[86.6,6084],[86.6,6167],[86.6,6250],[86.6,6334],[86.6,6417],[86.6,6500],[86.6,6584],[86.6,6667],[86.6,6750],[86.6,6834],[86.6,6917],[86.6,7000],[86.6,7084],[86.6,7167],[86.6,7250],[86.6,7334],[86.6,7417],[86.6,7500],[86.6,7584],[86.6,7667],[86.6,7750],[86.6,7834],[86.6,7917],[86.6,8001],[86.6,8084],[86.6,8167],[86.6,8251],[86.6,8334],[86.6,8417]]",487.2552,488.5123,81.61524785,0.8035,"[{""rating"":81.61524785029471,""responseTime"":0.8034999999999854}]",space,0.7466,,488.5123,Definitely yes,100,488.514,,,[],,0,14,14,14,1,audio/Narrative8Situation5.wav,audio/Narrative7Situation5.wav,audio/Narrative6Situation5.wav,audio/Narrative5Situation5.wav,2,5,2,5,,,,,,,,,,,,,,,,,,,,,,,,,,,,,,,,,,,,,
,,,,,5bf735882dd20c0001317fca,2025-07-07_15h58.03.202,group3.4_multiperson,2023.2.2,Win32,144.9275362,686c2ebf0248f13bef9af11f,686c34a611d9bf22fb3fcff3,,,,,,,,,,,,,,,,,,,,,,,,,,,,,488.5142,1,audio/Narrative7Situation6.wav,491.5196,,491.5196,501.4792,"[[80.6,918],[78.1,1001],[75.6,1085],[72.8,1168],[72.1,1250],[72,1333],[72,1416],[71.6,1500],[71.6,1583],[71.6,1666],[71.6,1750],[71.6,1833],[71.6,1916],[71.6,2000],[71.6,2083],[71.6,2167],[71.6,2250],[71.6,2333],[71.6,2416],[71.6,2500],[71.6,2583],[71.6,2667],[71.6,2750],[71.6,2833],[71.6,2916],[71.6,3000],[71.6,3083],[71.6,3167],[71.6,3250],[71.6,3333],[71.6,3417],[71.6,3500],[71.6,3583],[71.6,3668],[71.6,3750],[71.6,3833],[71.6,3917],[71.6,4000],[71.6,4083],[71.6,4167],[71.6,4250],[71.6,4333],[71.6,4417],[71.6,4500],[71.6,4583],[71.6,4667],[71.6,4752],[71.6,4833],[71.6,4917],[71.6,5000],[71.6,5083],[71.6,5167],[71.6,5250],[71.6,5334],[71.6,5417],[71.6,5500],[71.6,5583],[71.6,5667],[71.6,5750],[71.6,5834],[71.6,5917],[71.6,6000],[71.6,6084],[71.6,6167],[71.6,6250],[71.6,6334],[71.6,6417],[71.6,6500],[71.6,6584],[71.6,6667],[71.6,6750],[71.6,6834],[71.6,6917],[71.6,7000],[71.6,7084],[71.6,7167],[71.6,7250],[71.6,7334],[71.6,7417],[71.6,7500],[71.6,7584],[71.6,7667],[71.6,7750],[71.6,7834],[71.6,7917],[71.6,8000],[71.6,8084],[71.6,8167],[71.6,8250],[71.6,8334],[71.6,8417],[71.6,8500],[71.6,8584],[71.6,8667],[71.6,8750],[71.6,8834],[71.6,8917],[71.6,9002],[71.6,9084],[71.6,9167],[71.6,9251],[71.6,9336],[71.6,9417],[71.6,9501],[71.6,9584],[71.6,9667],[71.6,9751],[72.4,9836],[77.5,9918]]",501.4793,502.7086,84.11427634,0.7721,"[{""rating"":84.11427634033197,""responseTime"":0.7720999999642117}]",space,0.7145,,502.7087,Partially,50,502.7102,,,[],,0,15,15,15,1,audio/Narrative8Situation6.wav,audio/Narrative7Situation6.wav,audio/Narrative6Situation6.wav,audio/Narrative5Situation6.wav,2,3,2,3,,,,,,,,,,,,,,,,,,,,,,,,,,,,,,,,,,,,,
,,,,,5bf735882dd20c0001317fca,2025-07-07_15h58.03.202,group3.4_multiperson,2023.2.2,Win32,144.9275362,686c2ebf0248f13bef9af11f,686c34a611d9bf22fb3fcff3,,,,,,,,,,,,,,,,,,,,,,,,,,,,,502.7103,1,audio/Narrative7Situation7.wav,507.7161,,507.7161,524.8782,"[[77.2,833],[77,916],[77,1000],[77,1083],[77,1166],[77,1250],[77,1333],[77,1416],[77,1500],[77,1583],[77,1667],[77,1750],[77,1833],[77,1916],[77,2000],[77,2083],[77,2167],[77,2250],[77,2333],[77,2417],[77,2500],[77,2583],[77,2667],[77,2750],[77,2833],[77,2917],[77,3000],[77,3083],[77,3167],[77,3250],[77,3333],[77,3417],[77,3500],[77,3583],[77,3667],[77,3750],[77,3833],[77,3917],[77,4000],[77,4083],[77,4167],[77,4250],[77,4333],[77,4417],[77,4500],[77,4583],[77,4667],[77,4750],[77,4833],[77,4917],[77,5000],[77,5084],[77,5167],[77,5250],[77,5333],[77,5417],[77,5500],[77,5584],[77,5667],[77,5750],[77,5834],[77,5917],[77,6000],[77,6084],[77,6167],[77,6250],[77,6334],[77,6417],[77,6500],[77,6584],[77,6667],[77,6750],[77,6834],[77,6917],[77,7000],[77,7084],[77,7167],[77,7250],[77,7334],[77,7417],[77,7500],[77,7584],[77,7667],[77,7750],[77,7834],[77,7917],[77,8000],[77,8084],[77,8167],[77,8251],[77,8334],[77,8417],[77,8500],[77,8584],[77,8667],[77,8751],[77,8835],[77,8917],[77,9001],[77,9084],[77,9167],[77,9251],[77,9334],[77,9417],[77,9501],[77,9584],[77,9667],[77,9751],[77,9834],[77,9917],[77,10001],[77,10084],[77,10168],[77,10251],[77,10334],[77,10418],[77,10501],[77,10584],[77,10668],[77,10751],[77,10834],[77,10918],[77,11001],[77,11084],[77,11168],[77,11251],[77,11334],[77,11418],[77,11501],[77,11584],[77,11668],[77,11751],[77,11834],[77,11918],[77,12001],[77,12084],[77,12168],[77,12251],[77,12334],[77,12418],[77,12501],[77,12584],[77,12668],[77,12751],[77,12834],[77,12918],[77,13001],[77,13085],[77,13168],[77,13251],[77,13335],[77,13418],[77,13501],[77,13585],[77,13668],[77,13751],[77,13835],[77,13918],[77,14001],[77,14085],[77,14168],[77,14251],[77,14335],[77,14418],[77,14501],[77,14585],[77,14668],[77,14751],[77,14835],[77,14918],[77,15001],[77,15085],[77,15168],[77,15252],[77,15335],[77,15420],[77,15501],[77,15585],[77,15668],[77,15754],[77,15835],[77,15918],[77,16001],[77,16085],[77,16168],[77,16252],[77,16335],[77,16418],[77,16502],[77,16585],[77,16668],[77,16752],[77,16835],[77,16918],[77,17002],[77,17085]]",524.8782,525.7046,88.38344346,0.6447,"[{""rating"":88.38344345686183,""responseTime"":0.64469999998812}]",space,0.3086,,525.7047,Partially,50,525.706,,,[],,0,16,16,16,1,audio/Narrative8Situation7.wav,audio/Narrative7Situation7.wav,audio/Narrative6Situation7.wav,audio/Narrative5Situation7.wav,3,5,5,4,,,,,,,,,,,,,,,,,,,,,,,,,,,,,,,,,,,,,
,,,,,5bf735882dd20c0001317fca,2025-07-07_15h58.03.202,group3.4_multiperson,2023.2.2,Win32,144.9275362,686c2ebf0248f13bef9af11f,686c34a611d9bf22fb3fcff3,,,,,,,,,,,,,,,,,,,,,,,,,,,,,525.7062,1,audio/Narrative7Situation8.wav,527.7118,,527.7118,537.7201,"[[88.3,833],[87.3,916],[83,1000],[80.7,1083],[80.7,1166],[80.7,1250],[80.7,1333],[80.7,1416],[80.7,1500],[80.7,1583],[80.7,1666],[80.7,1750],[80.7,1833],[80.7,1916],[80.5,2000],[80.5,2083],[80.5,2166],[80.5,2250],[80.5,2333],[80.5,2416],[80.5,2500],[80.5,2583],[80.5,2666],[80.5,2751],[80.5,2833],[80.5,2916],[80.5,3000],[80.5,3083],[80.5,3167],[80.5,3250],[80.5,3333],[80.5,3417],[80.5,3500],[80.5,3584],[80.5,3667],[80.5,3750],[80.5,3835],[80.5,3917],[80.5,4000],[80.5,4083],[80.5,4167],[80.5,4250],[80.5,4333],[80.5,4417],[80.5,4500],[80.5,4583],[80.5,4667],[80.5,4750],[80.5,4833],[80.5,4917],[80.5,5000],[80.5,5083],[80.5,5167],[80.5,5250],[80.5,5333],[80.5,5417],[80.5,5500],[80.5,5583],[80.5,5667],[80.5,5750],[80.5,5833],[80.5,5917],[80.5,6000],[80.5,6083],[80.5,6167],[80.5,6250],[80.5,6334],[80.5,6417],[80.5,6500],[80.5,6584],[80.5,6667],[80.5,6750],[80.5,6834],[80.5,6917],[80.5,7000],[80.5,7084],[80.5,7167],[80.5,7250],[80.5,7334],[80.5,7417],[80.5,7500],[80.5,7584],[80.5,7667],[80.5,7750],[80.5,7834],[80.5,7917],[80.5,8000],[80.5,8084],[80.5,8167],[80.5,8250],[80.5,8334],[80.5,8417],[80.5,8500],[80.5,8584],[80.5,8667],[80.5,8751],[80.5,8834],[80.5,8917],[80.5,9001],[80.5,9084],[80.5,9167],[80.5,9251],[80.5,9334],[80.5,9417],[80.5,9501],[80.5,9584],[80.5,9667],[80.5,9751],[80.5,9834],[80.5,9917],[80.5,10001]]",537.7201,539.9425,88.90407499,1.6194,"[{""rating"":88.90407498809994,""responseTime"":1.6194000000358528}]",space,1.7024,,539.9426,Not at all,0,539.9445,,,[],,0,17,17,17,1,audio/Narrative8Situation8.wav,audio/Narrative7Situation8.wav,audio/Narrative6Situation8.wav,audio/Narrative5Situation8.wav,3,2,5,3,,,,,,,,,,,,,,,,,,,,,,,,,,,,,,,,,,,,,
,,,,,5bf735882dd20c0001317fca,2025-07-07_15h58.03.202,group3.4_multiperson,2023.2.2,Win32,144.9275362,686c2ebf0248f13bef9af11f,686c34a611d9bf22fb3fcff3,,,,,,,,,,,,,,,,,,,,,,,,,,,,,539.9446,1,audio/Narrative7Situation9.wav,541.9498,,541.9498,550.569,"[[71.4,83],[71.1,166],[71.1,249],[71,333],[70.5,418],[70.1,499],[69.8,583],[69.8,666],[69.8,750],[69.8,833],[72,918],[74.1,1001],[77.8,1085],[81.4,1166],[81.8,1250],[82.1,1333],[82.2,1416],[82.2,1500],[82.2,1583],[82.2,1666],[82.2,1750],[82.2,1833],[82.2,1916],[82.2,2000],[82.2,2083],[82.2,2166],[82.2,2250],[82.2,2333],[82.2,2416],[82.2,2500],[82.2,2583],[82.5,2666],[82.5,2750],[87.2,2833],[95.4,2918],[99.2,3001],[100,3083],[100,3167],[100,3250],[100,3333],[100,3416],[100,3500],[100,3583],[100,3667],[100,3750],[100,3834],[100,3917],[100,4000],[100,4083],[100,4167],[100,4250],[100,4333],[100,4417],[100,4500],[100,4583],[100,4667],[100,4750],[100,4833],[100,4917],[100,5000],[100,5083],[100,5167],[100,5250],[100,5333],[100,5417],[100,5500],[100,5583],[100,5667],[100,5750],[100,5835],[100,5917],[100,6000],[100,6084],[100,6167],[100,6250],[100,6334],[100,6417],[100,6500],[100,6584],[100,6667],[100,6750],[100,6834],[100,6917],[100,7000],[100,7084],[100,7167],[100,7250],[100,7334],[100,7417],[100,7500],[100,7584],[100,7667],[100,7750],[100,7834],[100,7917],[100,8000],[100,8084],[100,8167],[100,8251],[100,8334],[100,8417],[100,8501],[100,8584]]",550.5691,552.715,99.10841868,1.9057,"[{""rating"":99.1084186814988,""responseTime"":1.9056999999880873}]",space,1.6303,,552.7151,Not at all,0,552.7166,,,[],,0,18,18,18,1,audio/Narrative8Situation9.wav,audio/Narrative7Situation9.wav,audio/Narrative6Situation9.wav,audio/Narrative5Situation9.wav,3,2,4,3,,,,,,,,,,,,,,,,,,,,,,,,,,,,,,,,,,,,,
,,,,,5bf735882dd20c0001317fca,2025-07-07_15h58.03.202,group3.4_multiperson,2023.2.2,Win32,144.9275362,686c2ebf0248f13bef9af11f,686c34a611d9bf22fb3fcff3,,,,,,,,,,,,,,,,,,,,,,,,,,,612.0358,614.6119,614.6229,2,audio/Narrative13Situation2.wav,614.6229,,614.6229,644.352,"[[77.9,2831],[77.9,2914],[77.9,2996],[77.9,3079],[77.9,3163],[79.7,3246],[80.3,3329],[80.5,3413],[80.8,3497],[80.8,3579],[80.8,3663],[80.8,3746],[80.8,3829],[80.8,3913],[80.8,3996],[80.8,4079],[80.8,4163],[80.8,4246],[80.8,4329],[80.8,4413],[80.8,4496],[80.8,4579],[80.8,4663],[80.8,4746],[80.8,4829],[80.8,4915],[80.8,4996],[80.8,5079],[80.8,5163],[80.8,5246],[80.8,5329],[80.8,5413],[80.8,5496],[80.8,5580],[80.8,5663],[80.8,5746],[80.8,5830],[80.8,5913],[80.8,5996],[80.8,6080],[80.8,6163],[80.8,6248],[80.8,6330],[80.8,6413],[80.8,6496],[80.8,6580],[80.8,6663],[80.8,6746],[80.8,6830],[80.8,6913],[80.8,6996],[80.8,7080],[80.8,7163],[80.8,7246],[80.8,7330],[80.8,7413],[80.8,7496],[80.8,7580],[80.8,7663],[80.8,7747],[80.8,7831],[80.8,7913],[80.8,7998],[80.8,8080],[80.8,8165],[80.8,8246],[80.8,8330],[80.8,8413],[80.8,8496],[80.8,8580],[80.8,8663],[80.8,8747],[80.8,8830],[80.8,8913],[80.8,8997],[80.8,9080],[80.8,9163],[80.8,9247],[80.8,9330],[80.8,9413],[80.8,9497],[80.8,9581],[80.8,9663],[80.8,9747],[80.8,9830],[80.8,9913],[80.8,9997],[80.8,10080],[80.8,10163],[80.8,10247],[80.8,10330],[80.8,10413],[80.8,10497],[80.8,10580],[80.8,10663],[80.8,10747],[80.8,10830],[80.8,10914],[80.8,10997],[80.8,11080],[80.8,11163],[80.8,11247],[80.8,11330],[80.8,11413],[80.8,11497],[80.8,11580],[80.8,11664],[80.8,11747],[80.8,11830],[80.8,11914],[80.8,11997],[80.8,12080],[80.8,12164],[80.8,12247],[80.8,12330],[80.8,12414],[80.8,12497],[80.8,12580],[80.8,12664],[80.8,12747],[80.8,12830],[80.8,12914],[80.8,12997],[80.8,13081],[80.8,13164],[80.8,13247],[80.8,13331],[80.8,13414],[80.8,13497],[80.8,13581],[80.8,13664],[80.8,13747],[80.8,13831],[80.8,13914],[80.8,13997],[80.8,14081],[80.8,14164],[80.8,14247],[80.8,14331],[80.8,14414],[80.8,14497],[80.8,14581],[80.8,14664],[80.8,14747],[80.8,14831],[80.8,14914],[80.8,14997],[80.8,15081],[80.8,15164],[80.8,15247],[80.8,15331],[80.8,15414],[80.8,15498],[80.8,15581],[80.8,15664],[80.8,15748],[80.8,15831],[80.8,15914],[80.8,15998],[80.8,16081],[80.8,16164],[80.8,16248],[80.8,16331],[80.8,16414],[80.8,16498],[80.8,16582],[80.8,16664],[80.8,16748],[80.8,16831],[80.8,16914],[80.8,16998],[80.8,17081],[80.8,17164],[80.8,17248],[80.8,17331],[80.8,17414],[80.8,17498],[80.8,17581],[80.8,17666],[80.8,17748],[80.8,17831],[80.8,17914],[80.8,17998],[80.8,18081],[80.8,18165],[80.8,18248],[80.8,18332],[80.8,18415],[80.8,18498],[80.8,18581],[80.8,18664],[80.8,18748],[80.8,18831],[80.8,18914],[80.8,18998],[80.8,19081],[80.8,19165],[80.8,19248],[80.8,19331],[80.8,19415],[80.8,19498],[80.8,19581],[80.8,19665],[80.8,19748],[80.8,19831],[80.8,19915],[80.8,19998],[80.8,20081],[80.8,20165],[80.8,20248],[80.8,20331],[80.8,20415],[80.8,20498],[80.8,20582],[80.8,20665],[80.8,20748],[80.8,20831],[80.8,20915],[80.8,20998],[80.8,21082],[80.8,21165],[80.8,21248],[80.8,21331],[80.8,21415],[80.8,21498],[80.8,21582],[80.8,21665],[80.8,21748],[80.8,21832],[80.8,21915],[80.8,21998],[80.8,22082],[80.8,22165],[80.8,22250],[80.8,22332],[80.8,22415],[80.8,22498],[80.8,22582],[80.8,22665],[80.8,22748],[80.8,22832],[80.8,22915],[80.8,22999],[80.8,23082],[80.8,23165],[80.8,23249],[80.8,23332],[80.8,23415],[80.8,23499],[80.8,23583],[80.8,23665],[80.8,23750],[80.8,23832],[80.8,23915],[80.8,23999],[80.8,24082],[80.8,24165],[80.8,24249],[80.8,24332],[80.8,24415],[80.8,24499],[80.8,24582],[80.8,24665],[80.8,24749],[80.8,24832],[80.8,24915],[80.8,24999],[80.8,25082],[80.8,25165],[80.8,25249],[80.8,25332],[80.8,25415],[80.8,25499],[80.8,25582],[80.8,25665],[80.8,25749],[80.8,25832],[80.8,25915],[80.8,25999],[80.8,26082],[80.8,26166],[80.8,26249],[80.8,26332],[80.8,26416],[80.8,26499],[80.8,26582],[80.8,26666],[80.8,26749],[80.8,26832],[80.8,26916],[80.8,26999],[80.8,27082],[80.8,27166],[80.8,27249],[80.8,27332],[80.8,27416],[80.8,27499],[80.8,27582],[80.8,27666],[80.8,27749],[80.8,27832],[80.8,27916],[80.8,27999],[80.8,28082],[80.8,28166],[80.8,28249],[80.8,28332],[80.8,28416],[80.8,28499],[80.8,28582],[80.8,28666],[80.8,28749],[80.8,28832],[80.8,28916],[80.8,28999],[80.8,29083],[80.8,29166],[80.8,29250],[80.8,29333],[80.8,29416],[80.8,29499],[80.8,29583],[80.8,29666]]",644.3521,644.3535,,,[],,,,644.3535,Not at all,0,644.3542,,,[],,0,0,0,0,1,audio/Narrative13Situation2.wav,audio/Narrative13Situation2.wav,audio/Narrative13Situation2.wav,audio/Narrative13Situation2.wav,2,2,2,2,,,,,552.7168,612.0355,space,58.8101,,,,,,,,,,,,,,,,,,,,,,,,,,,,,
,,,,,5bf735882dd20c0001317fca,2025-07-07_15h58.03.202,group3.4_multiperson,2023.2.2,Win32,144.9275362,686c2ebf0248f13bef9af11f,686c34a611d9bf22fb3fcff3,,,,,,,,,,,,,,,,,,,,,,,,,,,,,644.3544,2,audio/Narrative6Situation1.wav,646.3592,,646.3592,672.9266,"[[80.9,2502],[80.9,2583],[80.9,2666],[80.9,2750],[80.9,2833],[80.9,2916],[80.9,3000],[80.9,3083],[80.9,3166],[80.9,3250],[80.9,3333],[80.9,3416],[80.9,3500],[80.9,3583],[80.9,3666],[80.9,3750],[80.9,3833],[80.9,3916],[80.9,4000],[80.9,4083],[81.3,4167],[81.3,4250],[82.8,4335],[84.6,4417],[86.6,4500],[87.5,4583],[87.5,4667],[87.5,4750],[87.5,4833],[87.5,4917],[87.5,5000],[87.5,5083],[87.5,5167],[87.5,5250],[87.5,5333],[87.5,5417],[87.5,5500],[87.5,5583],[87.5,5667],[87.5,5750],[87.5,5833],[87.5,5917],[87.5,6000],[87.5,6083],[87.5,6167],[87.5,6250],[87.5,6334],[87.5,6417],[87.5,6500],[87.5,6583],[87.5,6667],[87.5,6750],[87.5,6834],[87.5,6917],[87.5,7000],[87.5,7084],[87.5,7167],[87.5,7250],[87.5,7334],[87.5,7417],[87.5,7500],[87.5,7584],[87.5,7667],[87.5,7750],[87.5,7834],[87.5,7917],[87.5,8000],[87.5,8084],[87.5,8167],[87.5,8250],[87.5,8334],[87.5,8417],[87.5,8500],[87.5,8584],[87.5,8667],[87.5,8750],[87.5,8834],[87.5,8917],[87.5,9000],[87.5,9084],[87.5,9167],[87.5,9250],[87.5,9334],[87.5,9417],[87.5,9501],[87.5,9584],[87.5,9667],[87.5,9751],[87.5,9834],[87.5,9917],[87.5,10001],[87.5,10084],[87.5,10167],[87.5,10251],[87.5,10334],[87.5,10418],[87.5,10501],[87.5,10584],[87.5,10667],[87.5,10751],[87.5,10834],[87.5,10917],[87.5,11001],[87.5,11084],[87.5,11168],[87.5,11251],[87.5,11334],[87.5,11418],[87.5,11501],[87.5,11584],[87.5,11668],[87.5,11751],[87.5,11834],[87.5,11918],[87.5,12001],[87.5,12084],[87.5,12168],[87.5,12251],[87.5,12334],[87.5,12418],[87.5,12501],[87.5,12584],[87.5,12668],[87.5,12751],[87.5,12834],[87.5,12918],[87.5,13001],[87.5,13084],[87.5,13168],[87.5,13251],[87.5,13334],[87.5,13418],[87.5,13501],[87.5,13584],[87.5,13668],[87.5,13751],[87.5,13834],[87.5,13918],[87.5,14001],[87.5,14085],[87.5,14168],[87.5,14251],[87.5,14335],[87.5,14418],[87.5,14501],[87.5,14585],[87.5,14668],[87.5,14751],[87.5,14835],[87.5,14918],[87.5,15001],[87.5,15085],[87.5,15168],[87.5,15251],[87.5,15335],[87.5,15418],[87.5,15503],[87.5,15585],[87.5,15668],[87.5,15751],[87.5,15836],[87.5,15918],[87.5,16001],[87.5,16085],[87.5,16168],[87.5,16251],[87.5,16335],[87.5,16418],[87.5,16501],[87.5,16585],[87.5,16668],[87.5,16751],[87.5,16835],[87.5,16918],[87.5,17001],[87.5,17085],[87.5,17168],[87.5,17252],[87.5,17335],[87.5,17418],[87.5,17502],[87.5,17585],[87.5,17668],[87.5,17752],[87.5,17835],[87.5,17918],[87.5,18002],[87.5,18085],[87.5,18168],[87.5,18252],[87.5,18335],[87.5,18418],[87.5,18502],[87.5,18585],[87.5,18668],[87.5,18752],[87.5,18835],[87.5,18918],[87.5,19002],[87.5,19085],[87.5,19168],[87.5,19252],[87.5,19335],[87.5,19419],[87.5,19502],[87.5,19585],[87.5,19669],[87.5,19754],[87.5,19835],[87.5,19918],[87.5,20002],[87.5,20085],[87.5,20169],[87.5,20252],[87.5,20335],[87.5,20419],[87.5,20502],[87.5,20585],[87.5,20669],[87.5,20752],[87.5,20835],[87.5,20919],[87.5,21002],[87.5,21085],[87.5,21169],[87.5,21252],[87.5,21336],[87.5,21419],[87.5,21502],[87.5,21585],[87.5,21669],[87.5,21752],[87.5,21836],[87.5,21919],[87.5,22002],[87.5,22086],[87.5,22169],[87.5,22252],[87.5,22336],[87.5,22419],[87.5,22502],[87.5,22586],[87.5,22669],[87.5,22752],[87.5,22836],[87.5,22919],[87.5,23002],[87.5,23086],[87.5,23169],[87.5,23252],[87.5,23336],[87.5,23419],[87.5,23502],[87.5,23586],[87.5,23669],[87.5,23752],[87.5,23836],[87.5,23919],[87.5,24002],[87.5,24086],[87.5,24169],[87.5,24252],[87.5,24336],[87.5,24419],[87.5,24503],[87.5,24586],[87.5,24669],[87.5,24753],[87.5,24836],[87.5,24919],[87.5,25003],[87.5,25086],[87.5,25169],[87.5,25253],[87.5,25336],[87.5,25419],[87.5,25503],[87.5,25586],[87.5,25669],[87.5,25753],[87.5,25836],[87.5,25919],[88.1,26005],[88.7,26086],[88.9,26169],[89.7,26253],[89.7,26336],[89.7,26419],[89.7,26503]]",672.9267,673.5849,97.85891159,0.5561,"[{""rating"":97.85891158624442,""responseTime"":0.5560999999643172}]",space,0.1384,,673.585,Not at all,0,673.5862,,,[],,0,1,1,1,1,audio/Narrative7Situation1.wav,audio/Narrative8Situation1.wav,audio/Narrative5Situation1.wav,audio/Narrative6Situation1.wav,2,5,5,2,,,,,,,,,,,,,,,,,,,,,,,,,,,,,,,,,,,,,
,,,,,5bf735882dd20c0001317fca,2025-07-07_15h58.03.202,group3.4_multiperson,2023.2.2,Win32,144.9275362,686c2ebf0248f13bef9af11f,686c34a611d9bf22fb3fcff3,,,,,,,,,,,,,,,,,,,,,,,,,,,,,673.5864,2,audio/Narrative6Situation2.wav,676.5922,,676.5922,705.0856,"[[98.9,1583],[100,1668],[78.9,2166],[77.4,2502],[76.4,2583],[76.3,2667],[76.2,2750],[76.2,2833],[76.2,2917],[76.2,3000],[76.2,3083],[76.2,3167],[76.2,3250],[76.2,3333],[76.2,3417],[76.2,3500],[76.2,3583],[76.2,3667],[76.2,3750],[76.2,3833],[76.2,3917],[76.2,4000],[76.2,4083],[76.2,4167],[76.2,4250],[76.2,4333],[76.2,4417],[76.2,4500],[76.2,4583],[76.2,4667],[76.2,4750],[76.2,4833],[76.2,4917],[76.2,5000],[76.2,5084],[76.2,5167],[76.2,5250],[76.2,5334],[76.2,5417],[76.2,5500],[76.2,5584],[76.2,5667],[76.2,5750],[76.2,5834],[76.2,5917],[76.2,6000],[76.2,6084],[76.2,6167],[76.2,6250],[76.2,6334],[76.2,6417],[76.2,6500],[76.2,6584],[76.2,6667],[76.2,6750],[76.2,6834],[76.2,6917],[76.2,7000],[76.2,7084],[76.2,7167],[76.2,7250],[76.2,7334],[76.2,7417],[76.2,7500],[76.2,7584],[76.2,7667],[76.2,7750],[76.2,7834],[76.2,7917],[76.2,8000],[76.2,8084],[76.2,8167],[76.2,8250],[76.2,8334],[76.2,8417],[76.2,8500],[76.2,8584],[76.2,8667],[76.2,8751],[76.2,8834],[76.2,8917],[76.2,9001],[76.2,9084],[76.2,9167],[76.2,9251],[76.2,9334],[76.2,9417],[76.2,9501],[76.2,9584],[76.2,9667],[76.2,9751],[76.2,9834],[76.2,9917],[76.2,10001],[76.2,10084],[76.2,10167],[76.2,10251],[76.2,10336],[76.2,10418],[76.2,10501],[76.2,10584],[76.2,10668],[76.2,10751],[76.2,10834],[76.2,10918],[76.2,11001],[76.2,11084],[76.2,11168],[76.2,11251],[76.2,11334],[76.2,11418],[76.2,11501],[76.2,11584],[76.2,11668],[76.2,11751],[76.2,11834],[76.2,11918],[76.2,12001],[76.2,12084],[76.2,12168],[76.2,12251],[76.2,12334],[76.2,12418],[76.2,12501],[76.2,12584],[76.2,12668],[76.2,12751],[76.2,12835],[76.2,12918],[76.2,13001],[76.2,13085],[76.2,13168],[76.2,13251],[76.2,13335],[76.2,13418],[76.2,13501],[76.2,13585],[76.2,13668],[76.2,13751],[76.2,13835],[76.2,13918],[76.2,14001],[76.2,14085],[76.2,14168],[76.2,14251],[76.2,14335],[76.2,14418],[76.2,14501],[76.2,14585],[76.2,14668],[76.2,14751],[76.2,14835],[76.2,14918],[76.2,15001],[76.2,15085],[76.2,15168],[76.2,15252],[76.2,15335],[76.2,15418],[76.2,15501],[76.2,15585],[76.2,15668],[76.2,15752],[76.2,15835],[76.2,15918],[76.2,16002],[76.2,16085],[76.2,16168],[76.2,16252],[76.2,16335],[76.2,16418],[76.2,16502],[76.2,16585],[76.2,16668],[76.2,16752],[76.2,16835],[76.2,16918],[76.2,17002],[76.2,17085],[76.2,17168],[76.2,17252],[76.2,17335],[76.2,17418],[76.2,17502],[76.2,17585],[76.2,17668],[76.2,17752],[76.2,17835],[76.2,17918],[76.2,18002],[76.2,18085],[76.2,18168],[76.2,18252],[76.2,18335],[76.2,18418],[76.2,18502],[76.2,18585],[76.2,18669],[76.2,18752],[76.2,18835],[76.2,18918],[76.2,19002],[76.2,19085],[76.2,19168],[76.2,19252],[76.2,19335],[76.2,19419],[76.2,19502],[76.2,19585],[76.2,19669],[76.2,19752],[76.2,19835],[76.2,19919],[76.2,20002],[76.2,20085],[76.2,20169],[76.2,20252],[76.2,20336],[76.2,20419],[76.2,20502],[76.2,20586],[76.2,20669],[76.2,20752],[76.2,20836],[76.2,20919],[76.2,21002],[76.2,21086],[76.2,21169],[76.2,21252],[76.2,21336],[76.2,21419],[76.2,21502],[76.2,21586],[76.2,21669],[76.2,21753],[76.2,21836],[76.2,21919],[76.2,22002],[76.2,22087],[76.2,22169],[76.2,22252],[76.2,22338],[76.2,22419],[76.2,22502],[76.2,22586],[76.2,22669],[76.2,22752],[76.2,22836],[76.2,22919],[76.2,23004],[76.2,23086],[76.2,23169],[76.2,23253],[76.2,23336],[76.2,23419],[76.2,23503],[76.2,23586],[76.2,23669],[76.2,23753],[76.2,23836],[76.2,23919],[76.2,24003],[76.2,24086],[76.2,24169],[76.2,24253],[76.2,24336],[76.2,24419],[76.2,24503],[76.2,24586],[76.2,24669],[76.2,24753],[76.2,24836],[76.2,24919],[76.2,25003],[76.2,25086],[76.2,25169],[76.2,25253],[76.2,25336],[76.2,25420],[76.2,25503],[76.2,25586],[76.2,25669],[76.2,25753],[76.2,25854],[76.2,25934],[76.2,27489],[90.3,28206]]",705.0858,706.2986,87.13392206,0.826,"[{""rating"":87.13392206207895,""responseTime"":0.8260000000000218}]",space,0.6677,,706.2987,Not at all,0,706.3006,,,[],,0,2,2,2,1,audio/Narrative7Situation2.wav,audio/Narrative8Situation2.wav,audio/Narrative5Situation2.wav,audio/Narrative6Situation2.wav,3,3,3,3,,,,,,,,,,,,,,,,,,,,,,,,,,,,,,,,,,,,,
,,,,,5bf735882dd20c0001317fca,2025-07-07_15h58.03.202,group3.4_multiperson,2023.2.2,Win32,144.9275362,686c2ebf0248f13bef9af11f,686c34a611d9bf22fb3fcff3,,,,,,,,,,,,,,,,,,,,,,,,,,,,,706.3009,2,audio/Narrative6Situation3.wav,711.3162,,711.3162,723.9351,"[[82.6,8401],[82.6,8604],[82.6,8801],[82.6,9001],[82.6,9203],[82.6,9401],[82.6,9601],[82.6,9801],[82.6,10001],[82.6,10201],[82.6,10401],[82.6,10605],[82.6,10801],[82.6,11001],[82.6,11201],[82.6,11403],[82.6,11603],[82.6,11801],[82.6,12001],[82.6,12204],[82.6,12401],[82.6,12601]]",723.9352,726.1881,86.4050465,1.9019,"[{""rating"":86.40504649806266,""responseTime"":1.9018999999760808}]",space,1.7245,,726.1881,Not at all,0,726.1896,,,[],,0,3,3,3,1,audio/Narrative7Situation3.wav,audio/Narrative8Situation3.wav,audio/Narrative5Situation3.wav,audio/Narrative6Situation3.wav,8,4,3,5,,,,,,,,,,,,,,,,,,,,,,,,,,,,,,,,,,,,,
,,,,,5bf735882dd20c0001317fca,2025-07-07_15h58.03.202,group3.4_multiperson,2023.2.2,Win32,144.9275362,686c2ebf0248f13bef9af11f,686c34a611d9bf22fb3fcff3,,,,,,,,,,,,,,,,,,,,,,,,,,,,,726.1898,2,audio/Narrative6Situation4.wav,728.2024,,728.2025,740.8044,"[[86,800],[84.2,1002],[83.2,1200],[83.2,1399],[83.2,1602],[83.2,1801],[83.2,1999],[83.2,2199],[83.2,2399],[83.2,2600],[83.2,2799],[83.2,3002],[83.2,3200],[83.2,3400],[83.2,3600],[83.2,3800],[83.2,4000],[83.2,4200],[83.2,4400],[83.2,4600],[83.2,4800],[83.2,5000],[83.2,5200],[83.2,5402],[83.2,5600],[83.2,5800],[83.2,6000],[83.2,6200],[83.2,6400],[83.2,6600],[83.2,6800],[83.2,7000],[83.2,7200],[83.2,7401],[83.2,7600],[83.2,7800],[83.2,8000],[83.2,8200],[83.2,8400],[83.2,8601],[83.2,8800],[83.2,9001],[83.2,9203],[83.2,9403],[83.2,9601],[83.2,9801],[83.2,10001],[83.2,10201],[83.2,10404],[83.2,10601],[83.2,10801],[83.2,11001],[83.2,11201],[83.2,11401],[83.2,11601],[83.2,11801],[83.2,12001],[83.2,12201],[83.2,12401],[83.2,12601]]",740.8045,743.2884,93.58974447,2.3118,"[{""rating"":93.58974446971457,""responseTime"":2.3117999999523136}]",space,1.9367,0.0033,743.2884,Definitely yes,100,743.2921,,,[],,0,4,4,4,1,audio/Narrative7Situation4.wav,audio/Narrative8Situation4.wav,audio/Narrative5Situation4.wav,audio/Narrative6Situation4.wav,3,3,1,2,,,,,,,,,,,,,,,,,,,,,,,,,,,,,,,,,,,,,
,,,,,5bf735882dd20c0001317fca,2025-07-07_15h58.03.202,group3.4_multiperson,2023.2.2,Win32,144.9275362,686c2ebf0248f13bef9af11f,686c34a611d9bf22fb3fcff3,,,,,,,,,,,,,,,,,,,,,,,,,,,,,743.2923,2,audio/Narrative6Situation5.wav,745.305,,745.3051,753.2758,"[[93.1,4600],[89.8,4817],[89.6,5019],[90.9,5220],[90.9,5417],[90.9,5621],[90.9,5817],[90.9,6017],[90.9,6217],[90.9,6417],[90.9,6617],[90.9,6817],[90.9,7017],[90.9,7217],[90.9,7417],[90.9,7621],[90.9,7817]]",753.276,757.1238,91.50721834,3.6066,"[{""rating"":91.5072183447621,""responseTime"":3.60659999996426}]",space,3.3067,,757.1239,Not at all,0,757.1274,,,[],,0,5,5,5,1,audio/Narrative7Situation5.wav,audio/Narrative8Situation5.wav,audio/Narrative5Situation5.wav,audio/Narrative6Situation5.wav,5,2,5,2,,,,,,,,,,,,,,,,,,,,,,,,,,,,,,,,,,,,,
,,,,,5bf735882dd20c0001317fca,2025-07-07_15h58.03.202,group3.4_multiperson,2023.2.2,Win32,144.9275362,686c2ebf0248f13bef9af11f,686c34a611d9bf22fb3fcff3,,,,,,,,,,,,,,,,,,,,,,,,,,,,,757.1277,2,audio/Narrative6Situation6.wav,759.1404,,759.1406,770.2257,"[[83.6,10601],[83.6,10801],[83.6,11002]]",770.2258,772.678,92.44435224,1.8211,"[{""rating"":92.444352241085,""responseTime"":1.8211000000238755}]",space,1.9122,,772.6781,Partially,50,772.6811,,,[],,0,6,6,6,1,audio/Narrative7Situation6.wav,audio/Narrative8Situation6.wav,audio/Narrative5Situation6.wav,audio/Narrative6Situation6.wav,3,2,3,2,,,,,,,,,,,,,,,,,,,,,,,,,,,,,,,,,,,,,
,,,,,5bf735882dd20c0001317fca,2025-07-07_15h58.03.202,group3.4_multiperson,2023.2.2,Win32,144.9275362,686c2ebf0248f13bef9af11f,686c34a611d9bf22fb3fcff3,,,,,,,,,,,,,,,,,,,,,,,,,,,,,772.6815,2,audio/Narrative6Situation7.wav,777.6934,,777.6936,802.5494,"[[78.9,1402],[77.4,1600],[77.1,1803],[77.1,2000],[77.1,2200],[77.1,2400],[77.1,2600],[77.1,2800],[77.1,3000],[77.1,3200],[77.1,3400],[77.1,3603],[77.1,3800],[77.1,4000],[77.1,4200],[77.1,4400],[77.1,4600],[77.1,4800],[77.1,5000],[77.1,5200],[77.1,5400],[77.1,5600],[77.1,5800],[77.1,6000],[79.3,6204],[82.7,6420],[84.5,6621],[85.9,6820],[85.9,7018],[85.9,7220],[85.9,7417],[85.9,7617],[85.9,7818],[85.9,8020],[85.9,8218],[85.9,8417],[85.9,8617],[85.9,8817],[85.9,9020],[85.9,9218],[85.9,9418],[85.9,9618],[85.9,9818],[85.9,10018],[85.9,10222],[85.9,10418],[85.9,10618],[85.9,10818],[85.9,11022],[85.9,11218],[85.9,11421],[85.9,11618],[85.9,11818],[85.9,12018],[85.9,12222],[85.9,12418],[85.9,12618],[85.9,12818],[85.9,13018],[85.9,13221],[85.9,13418],[85.9,13618],[85.9,13818],[85.9,14021],[85.9,14218],[85.9,14419],[85.9,14622],[85.9,14819],[85.9,15022],[85.9,15219],[85.9,15419],[85.9,15621],[85.9,15819],[85.9,16019],[85.9,16219],[85.9,16419],[85.9,16619],[85.9,16819],[85.9,17019],[85.9,17219],[85.9,17419],[85.9,17619],[85.9,17819],[85.9,18019],[85.9,18220],[85.9,18419],[85.9,18619],[85.9,18819],[85.9,19019],[85.9,19219],[85.9,19419],[85.9,19620],[85.9,19819],[85.9,20019],[85.9,20224],[85.9,20420],[85.9,20623],[85.9,20822],[85.9,21020],[85.9,21220],[85.9,21420],[85.9,21620],[85.9,21820],[85.9,22020],[85.9,22220],[85.9,22420],[85.9,22620],[85.9,22820],[85.9,23022],[85.9,23223],[85.9,23420],[85.9,23620],[85.9,23820],[85.9,24020],[85.9,24221],[85.9,24420],[85.9,24621],[85.9,24820]]",802.5495,804.4148,79.22034853,1.7406,"[{""rating"":79.22034852641072,""responseTime"":1.7405999999642745}]",space,1.3197,,804.4148,Definitely yes,100,804.4184,,,[],,0,7,7,7,1,audio/Narrative7Situation7.wav,audio/Narrative8Situation7.wav,audio/Narrative5Situation7.wav,audio/Narrative6Situation7.wav,5,3,4,5,,,,,,,,,,,,,,,,,,,,,,,,,,,,,,,,,,,,,
,,,,,5bf735882dd20c0001317fca,2025-07-07_15h58.03.202,group3.4_multiperson,2023.2.2,Win32,144.9275362,686c2ebf0248f13bef9af11f,686c34a611d9bf22fb3fcff3,,,,,,,,,,,,,,,,,,,,,,,,,,,,,804.4188,2,audio/Narrative6Situation8.wav,809.4323,,809.4323,816.3025,"[[81.8,1202],[83.6,1400],[84.7,1603],[85.2,1800],[88,2000],[88.1,2200],[88.1,2400],[88.1,2600],[89.3,2803],[90.2,3003],[91.7,3203],[91.8,3400],[91.8,3600],[91.8,3800],[91.8,4000],[91.8,4200],[91.8,4400],[91.8,4600],[91.8,4800],[91.8,5003],[91.8,5200],[91.8,5400],[91.8,5600],[91.8,5803],[91.8,6000],[91.8,6201],[91.8,6401],[91.8,6603],[91.8,6801]]",816.3026,820.4705,10.28894971,3.1495,"[{""rating"":10.288949713363088,""responseTime"":3.1495000000001028}]",space,3.6305,,820.4706,Not at all,0,820.4734,,,[],,0,8,8,8,1,audio/Narrative7Situation8.wav,audio/Narrative8Situation8.wav,audio/Narrative5Situation8.wav,audio/Narrative6Situation8.wav,2,3,3,5,,,,,,,,,,,,,,,,,,,,,,,,,,,,,,,,,,,,,
,,,,,5bf735882dd20c0001317fca,2025-07-07_15h58.03.202,group3.4_multiperson,2023.2.2,Win32,144.9275362,686c2ebf0248f13bef9af11f,686c34a611d9bf22fb3fcff3,,,,,,,,,,,,,,,,,,,,,,,,,,,,,820.4736,2,audio/Narrative6Situation9.wav,824.4847,,824.4847,834.4199,"[[60.9,803],[70.3,1003],[75.6,1201],[75.9,1400],[75.9,1600],[75.9,1800],[75.9,2000],[75.9,2203],[75.9,2403],[75.9,2602],[75.9,2803],[75.9,3002],[75.9,3200],[75.9,3400],[75.9,3600],[75.9,3800],[75.9,4000],[75.9,4200],[75.9,4400],[75.9,4600],[75.9,4800],[75.9,5000],[75.9,5200],[75.9,5401],[75.9,5600],[75.9,5800],[75.9,6001],[75.9,6200],[75.9,6417],[75.9,6617],[75.9,6818],[75.9,7018],[75.9,7217],[75.9,7417],[42.1,7617],[24.3,7817],[20.1,8018],[18.2,8217],[18,8418],[18,8617],[18,8818],[18,9018],[18,9218],[18,9418],[18,9618],[18,9817]]",834.4201,836.9063,5.811531414,1.5284,"[{""rating"":5.81153141429086,""responseTime"":1.528399999976159}]",space,1.9503,,836.9065,Definitely yes,100,836.9097,,,[],,0,9,9,9,1,audio/Narrative7Situation9.wav,audio/Narrative8Situation9.wav,audio/Narrative5Situation9.wav,audio/Narrative6Situation9.wav,2,3,3,4,,,,,,,,,,,,,,,,,,,,,,,,,,,,,,,,,,,,,
,,,,,5bf735882dd20c0001317fca,2025-07-07_15h58.03.202,group3.4_multiperson,2023.2.2,Win32,144.9275362,686c2ebf0248f13bef9af11f,686c34a611d9bf22fb3fcff3,,,,,,,,,,,,,,,,,,,,,,,,,,,,,836.91,2,audio/Narrative5Situation1.wav,841.9209,,841.9209,855.2067,"[[50.9,3603],[66.2,3803],[71.5,4005],[71.9,4200],[72.1,4400],[72.1,4600],[72.1,4800],[73.6,5004],[75.5,5203],[75.8,5403],[75.8,5600],[75.8,5800],[75.8,6000],[75.8,6201],[75.8,6400],[75.8,6603],[75.8,6801],[75.8,7001],[75.8,7201],[75.8,7401],[75.8,7600],[75.8,7801],[75.8,8001],[75.8,8201],[75.8,8401],[75.8,8601],[75.8,8804],[75.8,9001],[75.8,9201],[75.8,9401],[75.8,9601],[75.8,9801],[75.8,10005],[75.8,10201],[75.8,10401],[75.8,10601],[75.8,10801],[75.8,11001],[75.8,11201],[75.8,11401],[75.8,11604],[75.8,11801],[75.8,12001],[75.8,12204],[75.8,12401],[75.8,12602],[75.8,12801],[75.8,13002],[75.8,13204]]",855.2069,857.1593,83.48951564,1.6526,"[{""rating"":83.48951564294053,""responseTime"":1.652600000023881}]",space,1.3864,,857.1594,Partially,50,857.1623,,,[],,0,10,10,10,1,audio/Narrative8Situation1.wav,audio/Narrative7Situation1.wav,audio/Narrative6Situation1.wav,audio/Narrative5Situation1.wav,5,2,2,5,,,,,,,,,,,,,,,,,,,,,,,,,,,,,,,,,,,,,
,,,,,5bf735882dd20c0001317fca,2025-07-07_15h58.03.202,group3.4_multiperson,2023.2.2,Win32,144.9275362,686c2ebf0248f13bef9af11f,686c34a611d9bf22fb3fcff3,,,,,,,,,,,,,,,,,,,,,,,,,,,,,857.1626,2,audio/Narrative5Situation2.wav,860.1738,,860.1739,889.6489,"[[88.1,1603],[88.1,1800],[88.1,2000],[88.1,2200],[88.1,2400],[88.1,2600],[88.1,2800],[88.1,3000],[88.1,3201],[88.1,3400],[88.1,3600],[88.1,3803],[88.1,4000],[88.1,4200],[88.1,4400],[88.1,4600],[88.1,4800],[88.1,5001],[88.1,5200],[88.1,5400],[88.1,5603],[88.1,5804],[88.1,6000],[88.1,6201],[88.1,6400],[88.1,6600],[88.1,6800],[88.1,7001],[88.1,7201],[88.1,7401],[88.1,7601],[88.1,7803],[88.1,8000],[88.1,8201],[88.1,8404],[88.1,8603],[88.1,8801],[88.1,9001],[88.1,9201],[88.1,9401],[88.1,9601],[88.1,9801],[88.1,10001],[88.1,10201],[88.1,10401],[88.1,10601],[88.1,10801],[88.1,11001],[88.1,11201],[88.1,11401],[88.1,11601],[88.1,11801],[88.1,12001],[88.1,12201],[88.1,12401],[88.1,12602],[88.1,12802],[88.1,13002],[88.1,13201],[88.1,13401],[88.1,13601],[88.1,13802],[88.1,14002],[88.1,14202],[88.1,14402],[88.1,14602],[88.1,14802],[88.1,15002],[88.1,15202],[88.1,15402],[88.1,15602],[88.1,15802],[88.1,16002],[88.1,16206],[88.1,16402],[88.1,16602],[88.1,16802],[88.1,17002],[88.1,17203],[88.1,17402],[88.1,17602],[88.1,17803],[88.1,18005],[88.1,18202],[88.1,18403],[88.1,18603],[88.1,18802],[88.1,19003],[88.1,19206],[88.1,19403],[88.1,19602],[88.1,19803],[88.1,20003],[88.1,20203],[88.1,20403],[88.1,20603],[88.1,20803],[88.1,21003],[88.1,21203],[88.1,21403],[88.1,21603],[88.1,21803],[88.1,22003],[88.1,22203],[88.1,22403],[88.1,22603],[88.1,22803],[88.1,23003],[88.1,23203],[88.1,23403],[88.1,23607],[88.1,23804],[88.1,24003],[88.1,24204],[88.1,24403],[88.1,24604],[88.1,24804],[88.1,25004],[88.1,25203],[88.1,25403],[88.1,25607],[88.1,25804],[88.1,26004],[88.1,26203],[88.1,26404],[88.1,26607],[88.1,26804],[88.1,27004],[88.1,27204],[88.1,27404],[88.1,27604],[88.1,27804],[88.1,28004],[88.1,28204],[88.1,28404],[88.1,28604],[88.1,28804],[88.1,29004],[88.1,29206],[88.1,29405]]",889.6491,891.079,96.92177769,1.2261,"[{""rating"":96.92177768992147,""responseTime"":1.2260999999641626}]",space,0.8744,,891.079,Not at all,0,891.0822,,,[],,0,11,11,11,1,audio/Narrative8Situation2.wav,audio/Narrative7Situation2.wav,audio/Narrative6Situation2.wav,audio/Narrative5Situation2.wav,3,3,3,3,,,,,,,,,,,,,,,,,,,,,,,,,,,,,,,,,,,,,
,,,,,5bf735882dd20c0001317fca,2025-07-07_15h58.03.202,group3.4_multiperson,2023.2.2,Win32,144.9275362,686c2ebf0248f13bef9af11f,686c34a611d9bf22fb3fcff3,,,,,,,,,,,,,,,,,,,,,,,,,,,,,891.0825,2,audio/Narrative5Situation3.wav,894.0961,,894.0962,908.0157,"[[97.4,3204],[91.3,3403],[90.5,3600],[89.8,3800],[89.1,4000],[89.1,4200],[89.1,4400],[89.1,4600],[89.1,4800],[89.1,5000],[89.1,5200],[89.1,5400],[89.1,5602],[89.1,5800],[89.1,6000],[89.1,6203],[89.1,6401],[89.1,6600],[89.1,6800],[89.1,7001],[89.1,7201],[89.1,7401],[89.1,7601],[89.1,7801],[89.1,8000],[89.1,8201],[89.1,8401],[89.1,8601],[89.1,8801],[89.1,9001],[89.1,9201],[89.1,9401],[89.1,9601],[89.1,9801],[89.1,10001],[89.1,10201],[89.1,10401],[89.1,10601],[89.1,10801],[89.1,11004],[89.1,11201],[89.1,11401],[89.1,11601],[89.1,11801],[89.1,12001],[89.1,12202],[89.1,12401],[89.1,12601],[89.1,12802],[89.1,13002],[89.1,13202],[89.1,13402],[89.1,13602],[89.1,13802]]",908.0159,910.1013,93.58974447,1.361,"[{""rating"":93.58974446971457,""responseTime"":1.36099999999999}]",space,1.5475,,910.1013,Not at all,0,910.103,,,[],,0,12,12,12,1,audio/Narrative8Situation3.wav,audio/Narrative7Situation3.wav,audio/Narrative6Situation3.wav,audio/Narrative5Situation3.wav,4,8,5,3,,,,,,,,,,,,,,,,,,,,,,,,,,,,,,,,,,,,,
,,,,,5bf735882dd20c0001317fca,2025-07-07_15h58.03.202,group3.4_multiperson,2023.2.2,Win32,144.9275362,686c2ebf0248f13bef9af11f,686c34a611d9bf22fb3fcff3,,,,,,,,,,,,,,,,,,,,,,,,,,,,,910.1033,2,audio/Narrative5Situation4.wav,911.1183,,911.1184,931.5189,"[[89.8,3997],[84.6,4197],[84.2,4397],[84.2,4597],[84.2,4797],[84.2,4997],[84.2,5197],[84.2,5397],[84.2,5597],[84.2,5801],[84.2,5997],[84.2,6197],[84.2,6398],[84.2,6598],[84.2,6798],[84.2,6998],[84.2,7198],[84.2,7398],[84.2,7598],[84.2,7798],[84.2,7998],[84.2,8198],[84.2,8398],[84.2,8601],[84.2,8798],[84.2,8998],[84.2,9198],[84.2,9398],[84.2,9600],[84.2,9798],[84.2,9998],[84.2,10198],[84.2,10399],[84.2,10599],[84.2,10798],[84.2,10998],[84.2,11198],[84.2,11399],[84.2,11599],[84.2,11798],[84.2,11999],[84.2,12202],[84.2,12399],[84.2,12599],[84.2,12799],[84.2,12999],[84.2,13199],[84.2,13399],[84.2,13599],[84.2,13799],[84.2,13999],[84.2,14199],[84.2,14399],[84.2,14599],[84.2,14799],[84.2,14999],[84.2,15199],[84.2,15399],[84.2,15599],[84.2,15799],[84.2,15999],[84.2,16199],[84.2,16399],[84.2,16599],[84.2,16799],[84.2,16999],[84.2,17199],[84.2,17399],[84.2,17599],[84.2,17800],[84.2,17999],[84.2,18200],[84.2,18402],[84.2,18600],[84.2,18800],[84.2,19000],[84.2,19200],[84.2,19400],[84.2,19600],[84.2,19800],[84.2,20000],[84.2,20203],[84.2,20400]]",931.5192,933.3859,92.96498377,1.6143,"[{""rating"":92.96498377232312,""responseTime"":1.6143000000118946}]",space,1.3176,,933.3859,Not at all,0,933.3879,,,[],,0,13,13,13,1,audio/Narrative8Situation4.wav,audio/Narrative7Situation4.wav,audio/Narrative6Situation4.wav,audio/Narrative5Situation4.wav,3,3,2,1,,,,,,,,,,,,,,,,,,,,,,,,,,,,,,,,,,,,,
,,,,,5bf735882dd20c0001317fca,2025-07-07_15h58.03.202,group3.4_multiperson,2023.2.2,Win32,144.9275362,686c2ebf0248f13bef9af11f,686c34a611d9bf22fb3fcff3,,,,,,,,,,,,,,,,,,,,,,,,,,,,,933.3882,2,audio/Narrative5Situation5.wav,938.4034,,938.4034,953.8093,"[[87.9,5604],[87.5,5800],[87.5,6002],[87.5,6200],[87.5,6401],[87.5,6600],[87.5,6801],[87.5,7000],[87.5,7200],[87.5,7401],[87.5,7601],[87.5,7801],[87.5,8001],[87.5,8201],[87.5,8404],[87.5,8601],[87.5,8801],[87.5,9001],[87.5,9201],[87.5,9403],[87.5,9601],[87.5,9801],[87.5,10003],[87.5,10201],[87.5,10404],[87.5,10604],[87.5,10801],[87.5,11002],[87.5,11201],[87.5,11402],[87.5,11605],[87.5,11801],[87.5,12002],[87.5,12202],[87.5,12404],[87.5,12604],[87.5,12802],[87.5,13002],[87.5,13204],[87.5,13402],[87.5,13602],[87.5,13802],[87.5,14004],[87.5,14205],[87.5,14404],[87.5,14602],[87.5,14802],[87.5,15002],[87.5,15202],[87.5,15405]]",953.8094,956.193,90.88245765,2.1635,"[{""rating"":90.88245764737067,""responseTime"":2.163499999999999}]",space,1.849,,956.193,Not at all,0,956.1949,,,[],,0,14,14,14,1,audio/Narrative8Situation5.wav,audio/Narrative7Situation5.wav,audio/Narrative6Situation5.wav,audio/Narrative5Situation5.wav,2,5,2,5,,,,,,,,,,,,,,,,,,,,,,,,,,,,,,,,,,,,,
,,,,,5bf735882dd20c0001317fca,2025-07-07_15h58.03.202,group3.4_multiperson,2023.2.2,Win32,144.9275362,686c2ebf0248f13bef9af11f,686c34a611d9bf22fb3fcff3,,,,,,,,,,,,,,,,,,,,,,,,,,,,,956.1953,2,audio/Narrative5Situation6.wav,959.2071,,959.2072,964.9109,"[[85.4,5403],[83.9,5603]]",964.9109,967.2437,12.99622224,2.1564,"[{""rating"":12.996222236178562,""responseTime"":2.156399999976088}]",space,1.7841,,967.2437,Not at all,0,967.2455,,,[],,0,15,15,15,1,audio/Narrative8Situation6.wav,audio/Narrative7Situation6.wav,audio/Narrative6Situation6.wav,audio/Narrative5Situation6.wav,2,3,2,3,,,,,,,,,,,,,,,,,,,,,,,,,,,,,,,,,,,,,
,,,,,5bf735882dd20c0001317fca,2025-07-07_15h58.03.202,group3.4_multiperson,2023.2.2,Win32,144.9275362,686c2ebf0248f13bef9af11f,686c34a611d9bf22fb3fcff3,,,,,,,,,,,,,,,,,,,,,,,,,,,,,967.2458,2,audio/Narrative5Situation7.wav,971.2586,,971.2587,992.3295,"[[66.1,803],[66.5,1000],[66.5,1200],[68.6,1400],[68.6,1600],[68.6,1800],[68.6,2000],[68.6,2200],[68.6,2400],[68.6,2600],[68.6,2800],[68.6,3000],[68.6,3200],[68.6,3400],[67.7,3600],[67.3,3800],[66,4003],[67,4200],[72.9,4403],[75.8,4600],[77.5,4800],[77.5,5000],[77.5,5200],[77.5,5400],[77.5,5600],[77.5,5800],[77.5,6000],[77.5,6201],[77.5,6400],[77.5,6603],[77.5,6801],[77.5,7003],[77.5,7201],[77.5,7401],[77.5,7601],[77.5,7801],[77.5,8001],[77.5,8201],[77.5,8401],[77.5,8601],[77.5,8804],[77.5,9001],[77.5,9201],[77.5,9401],[77.5,9601],[77.5,9801],[77.5,10001],[77.5,10201],[77.5,10401],[77.5,10601],[77.5,10801],[77.5,11001],[77.5,11201],[77.5,11401],[77.5,11601],[77.5,11803],[77.5,12004],[77.5,12201],[77.5,12401],[77.5,12604],[77.5,12802],[77.5,13002],[77.5,13202],[77.5,13402],[77.5,13604],[77.5,13802],[77.5,14002],[77.5,14202],[77.5,14402],[77.5,14602],[77.5,14802],[77.5,15002],[77.5,15202],[77.5,15402],[77.5,15602],[77.5,15805],[77.5,16005],[77.5,16202],[77.5,16402],[77.5,16602],[77.5,16802],[77.5,17002],[77.5,17202],[77.5,17403],[77.5,17605],[77.5,17803],[77.5,18003],[77.5,18203],[77.5,18403],[77.5,18602],[77.5,18802],[77.5,19003],[77.5,19203],[77.5,19404],[77.5,19603],[77.5,19806],[77.5,20003],[77.5,20203],[77.5,20403],[77.5,20603],[77.5,20803],[77.5,21006]]",992.3296,994.4959,85.57204177,1.6983,"[{""rating"":85.57204176789304,""responseTime"":1.698300000011841}]",space,1.6253,,994.496,Partially,50,994.5001,,,[],,0,16,16,16,1,audio/Narrative8Situation7.wav,audio/Narrative7Situation7.wav,audio/Narrative6Situation7.wav,audio/Narrative5Situation7.wav,3,5,5,4,,,,,,,,,,,,,,,,,,,,,,,,,,,,,,,,,,,,,
,,,,,5bf735882dd20c0001317fca,2025-07-07_15h58.03.202,group3.4_multiperson,2023.2.2,Win32,144.9275362,686c2ebf0248f13bef9af11f,686c34a611d9bf22fb3fcff3,,,,,,,,,,,,,,,,,,,,,,,,,,,,,994.5005,2,audio/Narrative5Situation8.wav,997.5133,,997.5133,1006.3483,"[[81.6,2404],[80.1,2600],[80.1,2800],[79.9,3000],[79.9,3200],[79.9,3400],[79.9,3600],[79.9,3803],[79.9,4003],[79.9,4200],[79.9,4400],[79.9,4601],[79.9,4800],[79.9,5000],[79.9,5200],[79.9,5400],[79.9,5600],[79.9,5801],[79.9,6001],[79.9,6200],[79.9,6400],[79.9,6600],[79.9,6801],[79.9,7001],[79.9,7201],[79.9,7401],[79.9,7600],[79.9,7801],[79.9,8001],[79.9,8204],[79.9,8401],[79.9,8601],[79.9,8801]]",1006.3484,1008.8684,89.21644819,2.1576,"[{""rating"":89.21644818703143,""responseTime"":2.1576000000238764}]",space,1.9906,,1008.8684,Not at all,0,1008.8716,,,[],,0,17,17,17,1,audio/Narrative8Situation8.wav,audio/Narrative7Situation8.wav,audio/Narrative6Situation8.wav,audio/Narrative5Situation8.wav,3,2,5,3,,,,,,,,,,,,,,,,,,,,,,,,,,,,,,,,,,,,,
,,,,,5bf735882dd20c0001317fca,2025-07-07_15h58.03.202,group3.4_multiperson,2023.2.2,Win32,144.9275362,686c2ebf0248f13bef9af11f,686c34a611d9bf22fb3fcff3,,,,,,,,,,,,,,,,,,,,,,,,,,,,,1008.8719,2,audio/Narrative5Situation9.wav,1011.8819,,1011.882,1051.422,"[[90,1603],[87.3,1803],[85.1,2000],[84.1,2200],[84.1,2400],[84.1,2601],[84.1,2800],[84.1,3000],[84.1,3200],[84.1,3400],[84.1,3604],[84.1,3800],[84.1,4000],[84.1,4202],[84.1,4403],[84.1,4600],[84.1,4800],[84.1,5000],[84.1,5201],[84.1,5402],[84.1,5600],[84.1,5800],[84.1,6000],[84.1,6201],[84.1,6401],[84.1,6601],[84.1,6803],[84.1,7001],[84.1,7201],[84.1,7401],[84.1,7601],[84.1,7801],[84.1,8001],[84.1,8201],[84.1,8401],[84.1,8601],[84.1,8801],[84.1,9001],[84.1,9201],[84.1,9401],[84.1,9601],[84.1,9801],[84.1,10001],[84.1,10202],[84.1,10401],[84.1,10601],[82.7,10806],[80.9,11004],[79.1,11201],[78.8,11402],[78.7,11602],[78.7,11801],[79.3,12004],[79.3,12204],[79.3,12402],[79.3,12602],[79.3,12802],[79.3,13002],[79.3,13202],[79.3,13402],[79.3,13602],[79.3,13802],[79.3,14002],[79.3,14202],[79.3,14402],[79.3,14602],[79.3,14804],[79.3,15002],[79.3,15202],[79.3,15402],[79.3,15604],[79.3,15807],[79.3,16002],[79.3,16202],[79.3,16403],[79.3,16603],[79.3,16803],[79.3,17005],[79.3,17202],[79.3,17406],[79.3,17605],[79.3,17802],[79.3,18002],[79.3,18202],[79.3,18403],[79.3,18603],[79.3,18803],[79.3,19003],[79.3,19203],[79.3,19403],[79.3,19603],[79.3,19806],[79.3,20003],[79.3,20203],[79.3,20403],[79.3,20603],[79.3,20803],[79.3,21003],[79.3,21203],[79.3,21403],[79.3,21605],[79.3,21806],[79.3,22003],[79.3,22204],[79.3,22403],[79.3,22603],[79.3,22806],[79.3,23007],[79.3,23204],[79.3,23404],[79.3,23603],[79.3,23803],[79.3,24003],[79.3,24203],[79.3,24404],[79.3,24604],[79.3,24804],[79.3,25004],[79.3,25204],[79.3,25404],[79.3,25604],[79.3,25804],[79.3,26007],[79.3,26204],[79.3,26404],[79.3,26604],[79.3,26804],[79.3,27004],[79.3,27204],[79.3,27404],[79.3,27607],[79.3,27804],[79.3,28004],[79.3,28204],[79.3,28405],[79.3,28604],[79.3,28807],[79.3,29004],[79.3,29204],[79.3,29404],[79.3,29607],[79.3,29805],[79.3,30005],[79.3,30204],[79.3,30405],[79.3,30605],[79.3,30805],[79.3,31005],[79.3,31208],[79.3,31405],[79.3,31605],[79.3,31805],[79.3,32005],[79.3,32208],[79.3,32405],[79.3,32605],[79.3,32805],[79.3,33005],[79.3,33205],[79.3,33405],[79.3,33605],[79.3,33805],[79.3,34005],[79.3,34205],[79.3,34405],[79.3,34606],[79.3,34805],[79.3,35005],[79.3,35205],[79.3,35405],[79.3,35608],[79.3,35805],[79.3,36005],[79.3,36206],[79.3,36406],[79.3,36605],[79.3,36806],[79.3,37008],[79.3,37206],[79.3,37406],[79.3,37607],[79.3,37806],[79.3,38006],[79.3,38206],[79.3,38406],[79.3,38606],[79.3,38806],[79.3,39009],[79.3,39206],[79.3,39406]]",1051.4223,1053.2558,96.71351936,1.4859,"[{""rating"":96.71351935761486,""responseTime"":1.4858999999762545}]",space,1.3044,,1053.2558,Definitely yes,100,1058.7431,100,4.1522,"[{""rating"":98.9001603491922,""responseTime"":2.690199999988181},{""rating"":100,""responseTime"":4.15219999998817}]",space,0,18,18,18,1,audio/Narrative8Situation9.wav,audio/Narrative7Situation9.wav,audio/Narrative6Situation9.wav,audio/Narrative5Situation9.wav,3,2,4,3,,,4.9481,,,,,,,,,,,,,,,,,,,,,,,,,,,,,,,,,,
,,,,,5bf735882dd20c0001317fca,2025-07-07_15h58.03.202,group3.4_multiperson,2023.2.2,Win32,144.9275362,686c2ebf0248f13bef9af11f,686c34a611d9bf22fb3fcff3,,,,,,,,,,,,,,,,,,,,,,,,,,,,,,,,,,,,,,,,,,,,,,,,,,,,,,,,,,,,,,,,,,,,,,1058.7437,1081.3153,space,22.0556,,1081.3156,1103.8148,space,22.1731,,,,,,,,,,,,,,,,,,,,,,,,
,,,,,5bf735882dd20c0001317fca,2025-07-07_15h58.03.202,group3.4_multiperson,2023.2.2,Win32,144.9275362,686c2ebf0248f13bef9af11f,686c34a611d9bf22fb3fcff3,,,,,,,,,,,,,,,,,,,,,,,,,,,,,1106.4209,1,audio/Narrative7Situation9.wav,1108.4338,,,,,1140.3401,1142.4072,96.08875866,1.5751,"[{""rating"":96.08875866022343,""responseTime"":1.5750999999643227}]",space,1.5183,,1142.4072,Partially,50,1142.4108,,,[],,,,,,,,,,,2,2,2,2,,,,,,,,,,,,,,,1103.8171,1106.3979,1108.4342,3,1140.34,"[[100,2400],[91.6,2600],[88,2800],[87.7,2997],[87.7,3197],[84.8,3401],[83.6,3597],[81.6,3801],[78.4,4001],[75.1,4202],[73.5,4400],[73.3,4597],[73.3,4798],[73.3,4998],[73.3,5197],[73.3,5400],[73.3,5598],[73.3,5798],[73.3,5998],[73.3,6198],[73.3,6398],[73.3,6597],[73.3,6798],[73.3,6998],[73.3,7198],[73.3,7398],[73.2,7598],[71.6,7798],[71.3,7998],[70.9,8201],[70.9,8398],[70.9,8601],[70.9,8799],[71.2,9000],[74,9201],[74.4,9398],[74.6,9598],[74.6,9798],[71.3,10002],[56.9,10201],[45.7,10402],[40.7,10602],[38.9,10798],[38.8,10998],[39.6,11199],[39.7,11398],[39.5,11602],[37.9,11798],[37.7,12001],[37.7,12199],[37.7,12399],[37.7,12602],[37.7,12799],[37.7,12999],[37.7,13199],[37.7,13402],[37.7,13602],[37.7,13799],[37.7,13999],[37.7,14199],[33.8,14403],[32.6,14599],[32.6,14802],[32.6,14999],[32.6,15201],[32.6,15399],[32.6,15599],[32.6,15799],[32.6,15999],[32.6,16203],[32.6,16399],[32.6,16599],[32.6,16799],[32.6,17000],[32.6,17200],[32.6,17403],[32.6,17602],[32.6,17799],[32.6,18000],[32.6,18202],[32.6,18400],[32.6,18600],[32.6,18799],[32.6,19002],[32.6,19200],[32.6,19400],[32,19600],[32,19800],[30.1,20003],[30.1,20200],[30.1,20403],[30.1,20600],[30.1,20800],[30.1,21000],[30.1,21203],[30.2,21400],[30.2,21600],[30.2,21800],[30.2,22003],[30.3,22203],[30.3,22403],[30.3,22600],[30.3,22800],[30.3,23001],[30.3,23203],[30.3,23404],[30.3,23603],[30.3,23803],[30.3,24001],[30.3,24201],[30.3,24401],[30.3,24601],[30.3,24801],[42,25004],[83.7,25604],[84.8,25804],[84.8,26001],[84.8,26201],[84.8,26401],[84.8,26602],[84.8,26801],[84.8,27001],[84.8,27202],[84.8,27401],[84.8,27601],[84.8,27801],[84.8,28001],[84.8,28204],[84.8,28401],[84.8,28604],[84.8,28801],[84.8,29002],[84.8,29201],[84.8,29402],[84.8,29604],[84.8,29801],[84.8,30001],[84.8,30204],[84.8,30405],[84.8,30602],[84.8,30802],[84.8,31004],[87.8,31202],[91.3,31406],[94.3,31606],[99.9,31806]]",0,0,0,0,1,"Larry had recently lost his family, job and home, and was now living on his own in the park. He had most of his belongings, including some clothes, a blanket, and his mother’s special necklace. His family had been very important to him and he felt as though he did not have much going for him. One of his first days in the park he came across a family that did not have much food and looked very cold. He decided to give them some of his food and his blanket.","Larry had recently lost his family, job and home, and was now living on his own in the park. He had most of his belongings, including some clothes, a blanket, and his mother’s special necklace. His family had been very important to him and he felt as though he did not have much going for him. One of his first days in the park he came across a family that did not have much food and looked very cold. He decided to give them some of his food and his blanket.","Larry had recently lost his family, job and home, and was now living on his own in the park. He had most of his belongings, including some clothes, a blanket, and his mother’s special necklace. His family had been very important to him and he felt as though he did not have much going for him. One of his first days in the park he came across a family that did not have much food and looked very cold. He decided to give them some of his food and his blanket.","Larry had recently lost his family, job and home, and was now living on his own in the park. He had most of his belongings, including some clothes, a blanket, and his mother’s special necklace. His family had been very important to him and he felt as though he did not have much going for him. One of his first days in the park he came across a family that did not have much food and looked very cold. He decided to give them some of his food and his blanket.",,,,,,,,
,,,,,5bf735882dd20c0001317fca,2025-07-07_15h58.03.202,group3.4_multiperson,2023.2.2,Win32,144.9275362,686c2ebf0248f13bef9af11f,686c34a611d9bf22fb3fcff3,,,,,,,,,,,,,,,,,,,,,,,,,,,,,1142.4112,1,audio/Narrative7Situation9.wav,1144.5751,space,,,,1168.4581,1171.7458,15.59937274,2.9757,"[{""rating"":15.599372742604938,""responseTime"":2.97569999998791}]",space,2.7673,,1171.746,Partially,50,1171.7483,,,[],,,,,,,,,,,6,2,3,9,2.1525,,,,,,,,,,,,,,,,1144.5752,3,1168.458,"[[92.3,1198],[90.2,1395],[80,1598],[54.3,2196],[52.5,2399],[52.3,2595],[52.3,2798],[52.3,2998],[52.3,3195],[52.3,3395],[52.3,3596],[52.3,3795],[52.3,3995],[52.3,4196],[52.3,4396],[52.3,4596],[52.3,4796],[52.3,4996],[47.3,5199],[39.9,5399],[34.5,5600],[32,5799],[25.4,6000],[24.8,6196],[24.8,6396],[18,6599],[17.9,6796],[17.7,6996],[17.7,7196],[17.8,7400],[18.7,7596],[20.6,7800],[22.5,8000],[22.8,8196],[22.4,8400],[17,8600],[14.5,8799],[13.8,9001],[12,9199],[11.1,9397],[10.8,9596],[10.8,9797],[10.8,9996],[10.8,10197],[10.8,10397],[10.9,10597],[10.9,10797],[10.9,10997],[10.9,11199],[11.1,11397],[11.1,11597],[11.2,11797],[11.6,11997],[11.9,12197],[12.2,12397],[12.4,12597],[12.4,12799],[12.5,12997],[12.6,13197],[12.6,13400],[12.6,13597],[12.6,13797],[12.6,13997],[12.7,14200],[12.7,14397],[12.7,14597],[12.8,14797],[12.8,14998],[12.8,15197],[12.8,15400],[12.8,15600],[12.8,15798],[12.8,15998],[12.8,16198],[12.8,16397],[12.8,16598],[12.9,16801],[12.9,16998],[12.9,17198],[12.9,17398],[12.9,17600],[12.9,17798],[12.9,17998],[13,18198],[13,18398],[13,18598],[13,18798],[13,19001],[13,19198],[13,19402],[13,19598],[13,19798],[13,19998],[13,20198],[13,20398],[13,20598],[13,20798],[13,20998],[13.1,21201],[13.3,21402],[13.4,21601],[13.4,21799],[13.4,21999],[13.4,22200],[13.4,22402],[13.4,22599],[13.4,22798],[13.4,22999],[13.4,23199],[13.4,23399],[13.4,23599],[13.4,23799]]",0,1,1,1,1,"It was just another Sunday afternoon for Lucy, she was on her way to the farmer's market to pick up some produce. When she arrived at the old train depot that housed the market, she noticed two men fighting on the steps. Before she could call for help, one of the men crumpled to his knees. The other man dropped an object that appeared to be a knife and ran off. When Lucy approached the crime scene she realized that the man who had been murdered was the Mayor and that he had a gunshot wound.","One day at work, Margaret walked up to her partner, Al, to ask him to talk to the chief of staff at the local hospital where she worked as a nurse.","Luke always thought of himself as an honest man. That's why during his evening jog around the swamp, he pondered his recent affair with the receptionist at work. Luke looked up at the sky and asked God why he was so weak and unfaithful. He thought of the impact this would have on his family and told God of his conflicted feelings toward telling his wife Marta.","Linda and Amy had been best friends since kindergarten, they even found homes on the same street in the forest on the edge of town. Their biggest fight had been over who gets the bigger slice of cake, until Amy married Dan. Linda loathed Dan, she thought he was manipulative and had a violent temper. She only put up with him because Amy loved him. ",,,,,,,,
,,,,,5bf735882dd20c0001317fca,2025-07-07_15h58.03.202,group3.4_multiperson,2023.2.2,Win32,144.9275362,686c2ebf0248f13bef9af11f,686c34a611d9bf22fb3fcff3,,,,,,,,,,,,,,,,,,,,,,,,,,,,,1171.7488,1,audio/Narrative7Situation9.wav,1176.7592,,,,,1202.9639,1205.1508,94.110376,1.9199,"[{""rating"":94.11037600095268,""responseTime"":1.9198999999762236}]",space,1.6528,,1205.1509,Partially,50,1205.1531,,,[],,,,,,,,,,,4,5,2,2,,,,,,,,,,,,,,,,,1176.7593,3,1202.9638,"[[26.2,400],[27.5,602],[27.8,800],[27.8,1002],[36.6,1203],[44.3,1403],[44.8,1600],[64.8,1803],[80.8,2003],[85.8,2204],[91.1,2403],[91.5,2600],[91.5,2800],[91.5,3003],[91.5,3200],[91.5,3400],[91.5,3602],[91.5,3800],[91.5,4000],[91.5,4200],[91.5,4400],[91.5,4600],[91.5,4800],[91.5,5003],[91.5,5201],[91.5,5400],[91.5,5600],[91.5,5800],[91.5,6000],[91.5,6201],[91.5,6403],[91.5,6600],[91.5,6800],[91.5,7000],[91.5,7201],[91.5,7401],[91.5,7601],[91.5,7801],[91.5,8001],[91.5,8201],[91.5,8401],[91.5,8604],[91.5,8801],[91.5,9003],[91.5,9202],[91.5,9401],[91.5,9601],[91.5,9801],[91.5,10001],[91.5,10201],[91.5,10403],[91.5,10601],[91.5,10801],[91.5,11001],[91.5,11201],[91.5,11402],[91.5,11604],[91.5,11801],[91.5,12001],[91.5,12202],[91.5,12405],[91.5,12602],[91.5,12804],[91.5,13002],[91.5,13202],[91.5,13404],[91.5,13602],[91.5,13802],[91.5,14002],[91.5,14202],[91.5,14402],[91.5,14602],[91.5,14802],[91.5,15002],[91.5,15202],[91.5,15402],[91.5,15602],[91.5,15802],[91.5,16002],[91.5,16205],[91.5,16402],[91.5,16602],[91.5,16802],[91.5,17002],[91.5,17205],[91.5,17402],[91.5,17603],[91.5,17803],[91.5,18002],[91.5,18205],[91.5,18403],[91.5,18603],[91.5,18802],[91.5,19002],[91.5,19202],[91.5,19403],[91.5,19603],[91.5,19803],[91.5,20003],[91.5,20203],[91.5,20403],[91.5,20603],[91.5,20803],[91.5,21006],[91.5,21203],[91.5,21403],[91.5,21603],[91.5,21807],[91.5,22003],[91.5,22203],[91.5,22403],[91.5,22603],[91.5,22803],[91.5,23003],[91.5,23206],[91.5,23406],[91.5,23603],[91.5,23804],[91.5,24004],[91.5,24206],[91.5,24404],[91.5,24604],[91.5,24804],[91.5,25003],[91.5,25203],[91.5,25404],[91.5,25604],[91.5,25804],[91.5,26006],[91.5,26204]]",0,2,2,2,1,On the ground beside him was a pen that she had mistaken for a knife. Lucy looked for the gunman and saw a suspicious man in black with distinct pointy features darting into an alley across the street. Cops who were nearby chased the man who had fled and arrested him.,"While waiting outside the chief of staff's office, Al heard nondescript shouting and yelling, there was a loud clatter in the room and then an eerie silence. An unfamiliar employee ran hastily out of the office with a terrified look on their face.","Suddenly, Luke heard a woman call out his name and when he turned around he saw Carly, his receptionist, across the road with a gun in her hand. Carly ran to him and explained how she had followed him here to confess her love. She exclaimed if Luke didn't love her back that she would kill him and his family. Carly explained that the only way they could be together is to kill Marta.","This feeling of hate between Amy and Dan was mutual, Dan didn't like how much time his wife spent with her and thought Amy was creating distance between their marriage. That's why Dan decided to try and tarnish Linda's reputation with his wife, in hopes it would get rid of her. He came home one afternoon and exclaimed that Linda had tried to kiss him. Amy was taken aback and immediately called Linda to confront her about these accusations. When Linda arrived she denied having made a move on Dan, but discovered Dan had enlisted the help of his friend Will who said he witnessed it all happen.",,,,,,,,
,,,,,5bf735882dd20c0001317fca,2025-07-07_15h58.03.202,group3.4_multiperson,2023.2.2,Win32,144.9275362,686c2ebf0248f13bef9af11f,686c34a611d9bf22fb3fcff3,,,,,,,,,,,,,,,,,,,,,,,,,,,,,1205.1535,1,audio/Narrative7Situation9.wav,1207.1649,,,,,1229.6851,1232.8885,92.13197904,2.9219,"[{""rating"":92.13197904215352,""responseTime"":2.9219000000357482}]",space,2.6589,,1232.8886,Not at all,0,1238.2718,0.50110481,5.0114,"[{""rating"":0.5011048101668969,""responseTime"":5.01139999997622}]",space,,,,,,,,,,2,2,1,4,,,4.8454,,,,,,,,,,,,,,1207.1651,3,1229.6849,"[[81.4,402],[79.8,599],[79.8,799],[81.5,1002],[82.2,1202],[85,1399],[85.3,1601],[85.3,1799],[85.3,2002],[85.3,2199],[85.3,2399],[85.3,2599],[85.3,2799],[85.3,2999],[85.3,3200],[85.3,3400],[85.3,3602],[85.3,3799],[85.3,4002],[85.3,4199],[85.3,4400],[85.3,4600],[85.3,4799],[85.3,4999],[85.3,5200],[85.3,5399],[85.3,5600],[85.3,5799],[85.3,6000],[85.3,6200],[85.3,6400],[85.3,6600],[85.3,6800],[85.3,7000],[85.3,7203],[85.3,7400],[85.3,7600],[85.3,7803],[85.3,8000],[85.3,8200],[85.3,8400],[85.3,8600],[85.3,8800],[85.3,9000],[85.3,9200],[85.3,9400],[85.3,9603],[85.3,9804],[85.3,10000],[85.3,10204],[85.3,10400],[85.3,10602],[85.3,10801],[85.3,11001],[85.3,11200],[85.3,11400],[85.3,11600],[85.3,11801],[85.3,12000],[85.3,12201],[85.3,12401],[85.3,12601],[85.3,12801],[85.3,13003],[85.3,13201],[85.3,13401],[85.3,13601],[85.3,13801],[85.3,14001],[85.3,14201],[85.3,14402],[85.3,14601],[85.3,14801],[85.3,15001],[85.3,15201],[85.3,15404],[85.3,15601],[85.3,15802],[85.3,16001],[85.3,16201],[85.3,16402],[85.3,16602],[85.3,16802],[85.3,17005],[85.3,17202],[85.3,17402],[85.3,17602],[85.3,17802],[85.3,18002],[85.3,18202],[85.3,18404],[85.3,18604],[85.3,18802],[85.3,19002],[85.3,19202],[85.3,19402],[85.3,19602],[85.3,19802],[85.3,20002],[85.3,20202],[85.3,20402],[85.3,20602],[85.3,20802],[85.3,21002],[85.3,21202],[85.3,21405],[85.3,21603],[85.3,21802],[85.3,22005],[85.3,22202],[85.3,22402]]",0,3,3,3,1,"But Lucy knew the charged man was innocent, which meant the killer was free. Lucy vowed to find out who the real murderer was and to stop him at all costs.","Al explained to the chief of staff that Margaret wanted to be excused from her absences last week. The chief of staff, Susan, revealed that she wanted to fire Margaret and never see her again. Susan and Al had been having an affair and she wanted Margaret ""out of the picture"". Al was conflicted, but agreed it would be for the best.","Luke thought of his child and felt like this was his only option. He agreed to the plan and called his wife to meet him at the swamp to watch the sunset with him. When she arrived, Marta called out for her husband, but found Carly waiting for her. She immediately drew her gun and shot her in the chest, knocking her unconscious.","Since it was their word against her own, she decided to go home and admit defeat. She knew how much it would hurt Amy to know the truth.",,,,,,,,
