consent.started,consent.stopped,consentResponse.keys,consentResponse.rt,consentResponse.duration,participantID,date,expName,psychopyVersion,OS,frameRate,STUDY_ID,SESSION_ID,opening1.started,opening1.stopped,keyEndingOpening1.keys,keyEndingOpening1.rt,keyEndingOpening1.duration,volumeAdjust.started,volumeAdjust.stopped,endingAdjust.keys,endingAdjust.rt,endingAdjust.duration,opening2.started,opening2.stopped,keyEndingOpening.keys,keyEndingOpening.rt,keyEndingOpening.duration,mouse.x,mouse.y,mouse.leftButton,mouse.midButton,mouse.rightButton,mouse.time,instructionLoop.thisRepN,instructionLoop.thisTrialN,instructionLoop.thisN,instructionLoop.thisIndex,instructionLoop.ran,readyForAudio.started,readyForAudio.stopped,fixation.started,run,audio_played,fixation.stopped,endPractice.keys,audioPre.started,audioPre.stopped,continuousResponses_audio,intRating.started,intRating.stopped,intQuestionSlider.response,intQuestionSlider.rt,intQuestionSlider.history,confirmResponse.keys,confirmResponse.rt,confirmResponse.duration,catchQuestion.started,catch_label,catch_value,catchQuestion.stopped,catchQuestionSlider.response,catchQuestionSlider.rt,catchQuestionSlider.history,confirmResponse_2.keys,audioRunLoop.thisRepN,audioRunLoop.thisTrialN,audioRunLoop.thisN,audioRunLoop.thisIndex,audioRunLoop.ran,conditions1_1,conditions2_1,conditions1_2,conditions2_2,dur1_1,dur2_1,dur1_2,dur2_2,endPractice.rt,endPractice.duration,confirmResponse_2.rt,confirmResponse_2.duration,runIntervalBreak.started,runIntervalBreak.stopped,endingBreakKey.keys,endingBreakKey.rt,endingBreakKey.duration,connection.started,connection.stopped,connectionEnding.keys,connectionEnding.rt,connectionEnding.duration,readyForText.started,readyForText.stopped,textPre.started,run_dup,textPre.stopped,continuousResponses_text,textRunLoop.thisRepN,textRunLoop.thisTrialN,textRunLoop.thisN,textRunLoop.thisIndex,textRunLoop.ran,text1_1,text1_2,text2_1,text2_2,runBreakText.started,runBreakText.stopped,endingBreakKey_2.keys,endingBreakKey_2.rt,endingBreakKey_2.duration,ending.started,ending.stopped,endingEnding.keys,endingEnding.rt,endingEnding.duration
0.0004,4.6221,y,4.3026,,5c7cf8b58ca9000001b52f6e,2025-07-07_22h15.10.918,group3.4_multiperson,2023.2.2,Win32,59.52380952,686c2ebf0248f13bef9af11f,686c7b9a726c714bb8223fa8,,,,,,,,,,,,,,,,,,,,,,,,,,,,,,,,,,,,,,,,,,,,,,,,,,,,,,,,,,,,,,,,,,,,,,,,,,,,,,,,,,,,,,,,,,,,,,,,,,,,,,,,
,,,,,5c7cf8b58ca9000001b52f6e,2025-07-07_22h15.10.918,group3.4_multiperson,2023.2.2,Win32,59.52380952,686c2ebf0248f13bef9af11f,686c7b9a726c714bb8223fa8,4.623,7.3549,space,2.6917,,,,,,,,,,,,,,,,,,,,,,,,,,,,,,,,,,,,,,,,,,,,,,,,,,,,,,,,,,,,,,,,,,,,,,,,,,,,,,,,,,,,,,,,,,,,,,,,,,,,
,,,,,5c7cf8b58ca9000001b52f6e,2025-07-07_22h15.10.918,group3.4_multiperson,2023.2.2,Win32,59.52380952,686c2ebf0248f13bef9af11f,686c7b9a726c714bb8223fa8,,,,,,7.3554,33.9406,space,26.2552,,,,,,,,,,,,,,,,,,,,,,,,,,,,,,,,,,,,,,,,,,,,,,,,,,,,,,,,,,,,,,,,,,,,,,,,,,,,,,,,,,,,,,,,,,,,,,,
,,,,,5c7cf8b58ca9000001b52f6e,2025-07-07_22h15.10.918,group3.4_multiperson,2023.2.2,Win32,59.52380952,686c2ebf0248f13bef9af11f,686c7b9a726c714bb8223fa8,,,,,,,,,,,33.9467,84.8831,space,50.92,,[],[],[],[],[],[],0,0,0,0,1,,,,,,,,,,,,,,,,,,,,,,,,,,,,,,,,,,,,,,,,,,,,,,,,,,,,,,,,,,,,,,,,,,,,,,,,,,,,,,
,,,,,5c7cf8b58ca9000001b52f6e,2025-07-07_22h15.10.918,group3.4_multiperson,2023.2.2,Win32,59.52380952,686c2ebf0248f13bef9af11f,686c7b9a726c714bb8223fa8,,,,,,,,,,,84.8838,104.1561,space,19.1835,,[],[],[],[],[],[],1,0,1,0,1,,,,,,,,,,,,,,,,,,,,,,,,,,,,,,,,,,,,,,,,,,,,,,,,,,,,,,,,,,,,,,,,,,,,,,,,,,,,,,
,,,,,5c7cf8b58ca9000001b52f6e,2025-07-07_22h15.10.918,group3.4_multiperson,2023.2.2,Win32,59.52380952,686c2ebf0248f13bef9af11f,686c7b9a726c714bb8223fa8,,,,,,,,,,,104.1573,117.1661,space,12.945,,[],[],[],[],[],[],2,0,2,0,1,,,,,,,,,,,,,,,,,,,,,,,,,,,,,,,,,,,,,,,,,,,,,,,,,,,,,,,,,,,,,,,,,,,,,,,,,,,,,,
,,,,,5c7cf8b58ca9000001b52f6e,2025-07-07_22h15.10.918,group3.4_multiperson,2023.2.2,Win32,59.52380952,686c2ebf0248f13bef9af11f,686c7b9a726c714bb8223fa8,,,,,,,,,,,117.1666,142.0207,space,24.8359,,[],[],[],[],[],[],3,0,3,0,1,,,,,,,,,,,,,,,,,,,,,,,,,,,,,,,,,,,,,,,,,,,,,,,,,,,,,,,,,,,,,,,,,,,,,,,,,,,,,,
,,,,,5c7cf8b58ca9000001b52f6e,2025-07-07_22h15.10.918,group3.4_multiperson,2023.2.2,Win32,59.52380952,686c2ebf0248f13bef9af11f,686c7b9a726c714bb8223fa8,,,,,,,,,,,142.0214,152.1821,space,10.1327,,[],[],[],[],[],[],4,0,4,0,1,,,,,,,,,,,,,,,,,,,,,,,,,,,,,,,,,,,,,,,,,,,,,,,,,,,,,,,,,,,,,,,,,,,,,,,,,,,,,,
,,,,,5c7cf8b58ca9000001b52f6e,2025-07-07_22h15.10.918,group3.4_multiperson,2023.2.2,Win32,59.52380952,686c2ebf0248f13bef9af11f,686c7b9a726c714bb8223fa8,,,,,,,,,,,152.1825,159.0954,space,6.8939,,[],[],[],[],[],[],5,0,5,0,1,,,,,,,,,,,,,,,,,,,,,,,,,,,,,,,,,,,,,,,,,,,,,,,,,,,,,,,,,,,,,,,,,,,,,,,,,,,,,,
,,,,,5c7cf8b58ca9000001b52f6e,2025-07-07_22h15.10.918,group3.4_multiperson,2023.2.2,Win32,59.52380952,686c2ebf0248f13bef9af11f,686c7b9a726c714bb8223fa8,,,,,,,,,,,,,,,,,,,,,,,,,,,159.0989,161.6775,161.7094,1,audio/Narrative13Situation2.wav,163.7102,,163.7108,193.4619,"[[999,1],[999,115],[999,198],[999,282],[999,380],[999,448],[999,532],[999,615],[999,698],[999,782],[999,865],[999,948],[999,1031],[999,1114],[999,1198],[999,1281],[999,1364],[999,1448],[999,1531],[999,1614],[999,1697],[999,1781],[999,1864],[999,1947],[999,2031],[999,2114],[999,2197],[999,2281],[999,2364],[999,2447],[999,2530],[999,2614],[999,2697],[999,2780],[999,2864],[999,2947],[999,3030],[999,3114],[999,3197],[999,3280],[999,3364],[999,3447],[999,3530],[999,3614],[999,3696],[999,3780],[999,3863],[999,3947],[999,4030],[999,4113],[999,4196],[999,4280],[999,4365],[999,4447],[999,4530],[999,4613],[999,4696],[999,4779],[999,4863],[999,4946],[999,5029],[999,5113],[999,5196],[999,5279],[999,5363],[999,5446],[999,5530],[999,5613],[999,5696],[999,5779],[88.6,5863],[92.1,5946],[93.6,6029],[97.4,6113],[97.7,6196],[98.2,6279],[98.8,6363],[99.1,6446],[99.5,6529],[99.8,6612],[100,6695],[100,6778],[100,6862],[100,6945],[100,7029],[100,7112],[100,7195],[100,7279],[100,7362],[100,7445],[100,7528],[100,7612],[100,7694],[100,7778],[100,7861],[100,7945],[100,8028],[100,8111],[100,8194],[100,8278],[100,8361],[100,8444],[100,8528],[100,8611],[100,8695],[100,8778],[100,8861],[100,8944],[100,9027],[100,9111],[100,9194],[100,9277],[100,9361],[100,9444],[100,9527],[100,9611],[100,9694],[100,9777],[100,9860],[100,9943],[100,10027],[100,10110],[100,10194],[100,10277],[100,10360],[100,10443],[100,10527],[100,10610],[100,10693],[100,10777],[100,10862],[100,10944],[98.5,11027],[98.5,11110],[98.6,11193],[90.5,11277],[89.9,11360],[100,11443],[100,11527],[100,11610],[100,11693],[100,11776],[100,11859],[100,11942],[100,12026],[100,12109]]",193.4626,206.0726,100,7.9236,"[{""rating"":99.27083333333333,""responseTime"":6.255899999976123},{""rating"":100,""responseTime"":7.923600000023839}]",space,12.0715,,206.0732,Not at all,0,206.079,,,[],,0,0,0,0,1,audio/Narrative13Situation2.wav,audio/Narrative13Situation2.wav,audio/Narrative13Situation2.wav,audio/Narrative13Situation2.wav,2,2,2,2,,,,,,,,,,,,,,,,,,,,,,,,,,,,,,,,,,,,,,,
,,,,,5c7cf8b58ca9000001b52f6e,2025-07-07_22h15.10.918,group3.4_multiperson,2023.2.2,Win32,59.52380952,686c2ebf0248f13bef9af11f,686c7b9a726c714bb8223fa8,,,,,,,,,,,,,,,,,,,,,,,,,,,,,206.0793,1,audio/Narrative7Situation1.wav,207.8216,space,207.8217,263.7105,"[[999,3],[999,82],[999,166],[999,249],[999,332],[999,415],[999,499],[999,582],[999,665],[999,749],[999,832],[999,915],[999,999],[999,1082],[999,1165],[999,1248],[999,1332],[999,1415],[999,1498],[999,1581],[999,1665],[999,1748],[999,1831],[999,1915],[999,1998],[999,2081],[999,2165],[999,2248],[999,2331],[999,2415],[999,2498],[999,2581],[999,2665],[999,2748],[999,2831],[999,2914],[999,2997],[999,3081],[999,3164],[999,3248],[999,3331],[999,3414],[999,3497],[999,3581],[999,3664],[999,3747],[999,3830],[999,3914],[999,3997],[999,4080],[999,4164],[999,4247],[999,4330],[999,4413],[999,4497],[999,4581],[999,4663],[999,4747],[999,4830],[999,4913],[999,4997],[999,5080],[999,5163],[999,5247],[999,5330],[999,5413],[999,5496],[999,5580],[999,5663],[999,5746],[999,5829],[999,5913],[999,5996],[999,6080],[999,6163],[999,6246],[999,6329],[999,6413],[999,6496],[999,6579],[999,6663],[999,6745],[999,6829],[999,6912],[999,6996],[999,7079],[999,7163],[999,7246],[999,7329],[999,7412],[999,7495],[999,7579],[999,7662],[999,7745],[999,7831],[999,7912],[999,7995],[999,8078],[999,8162],[999,8245],[999,8330],[999,8411],[999,8495],[999,8578],[999,8661],[999,8745],[999,8828],[999,8911],[999,8995],[999,9078],[999,9161],[999,9245],[999,9328],[999,9411],[999,9494],[999,9578],[999,9661],[999,9744],[999,9827],[999,9911],[999,9995],[999,10078],[95.7,10161],[96.3,10244],[97.5,10328],[99,10411],[100,10494],[100,10577],[100,10660],[100,10744],[100,10827],[100,10910],[100,10994],[100,11077],[100,11162],[100,11244],[100,11327],[100,11410],[100,11494],[100,11577]]",263.7108,269.5242,100,4.8251,"[{""rating"":98.4375,""responseTime"":4.088099999964243},{""rating"":100,""responseTime"":4.825099999964209}]",space,5.2672,,269.5243,Partially,50,269.5306,,,[],,0,1,1,1,1,audio/Narrative7Situation1.wav,audio/Narrative8Situation1.wav,audio/Narrative5Situation1.wav,audio/Narrative6Situation1.wav,2,5,5,2,1.7244,,,,,,,,,,,,,,,,,,,,,,,,,,,,,,,,,,,,,,
,,,,,5c7cf8b58ca9000001b52f6e,2025-07-07_22h15.10.918,group3.4_multiperson,2023.2.2,Win32,59.52380952,686c2ebf0248f13bef9af11f,686c7b9a726c714bb8223fa8,,,,,,,,,,,,,,,,,,,,,,,,,,,,,269.5311,1,audio/Narrative7Situation2.wav,272.5393,,272.5393,280.0191,"[[100,1416],[72.7,1501],[70.3,1582],[70.3,1665],[70.3,1749],[70.3,1832],[70.3,1915],[70.3,1998],[70.3,2082],[70.3,2165],[70.3,2249],[70.3,2332],[70.3,2415],[70.3,2498],[70.3,2581],[70.3,2665],[57.1,2749],[56.5,2832],[56,2915],[55.5,2998],[55.3,3082],[55.5,3165],[55.8,3248],[55.8,3332],[55.8,3415],[55.8,3498],[55.8,3581],[55.8,3664],[55.8,3748],[55.8,3831],[55.8,3914],[55.8,3997],[55.8,4083],[55.8,4164],[55.8,4247],[55.8,4331],[56.6,4414],[58,4499],[59.8,4581],[60.8,4665],[62.1,4750],[63.4,4831],[63.9,4914],[63.9,4998],[63.9,5083],[63.9,5164],[63.9,5247],[64.3,5331],[71.4,5414],[74.1,5497],[74.3,5580],[74.3,5663],[74.3,5747],[74.3,5830],[74.3,5913],[74.3,5997],[74.3,6080],[74.3,6163],[74.3,6246],[78.2,6330],[81.9,6413],[82,6496],[82,6580],[82,6663],[82,6746],[82,6829],[82,6913],[82,6996],[82,7079],[82,7163],[82,7246],[82,7329],[82,7413]]",280.0193,286.0495,99.16666667,5.1563,"[{""rating"":99.16666666666667,""responseTime"":5.156300000011925}]",space,5.4852,,286.0496,Partially,50,286.0542,,,[],,0,2,2,2,1,audio/Narrative7Situation2.wav,audio/Narrative8Situation2.wav,audio/Narrative5Situation2.wav,audio/Narrative6Situation2.wav,3,3,3,3,,,,,,,,,,,,,,,,,,,,,,,,,,,,,,,,,,,,,,,
,,,,,5c7cf8b58ca9000001b52f6e,2025-07-07_22h15.10.918,group3.4_multiperson,2023.2.2,Win32,59.52380952,686c2ebf0248f13bef9af11f,686c7b9a726c714bb8223fa8,,,,,,,,,,,,,,,,,,,,,,,,,,,,,286.0551,1,audio/Narrative7Situation3.wav,294.0623,,294.0623,303.3244,"[[88.2,4165],[41.7,4914],[41.3,4997],[41.3,5080],[41.3,5163],[41.3,5247],[41.3,5330],[41.3,5413],[52.1,5497],[56.7,5581],[56.7,5664],[56.7,5747],[56.7,5830],[56.7,5913],[58.8,5997],[79.8,6080],[89.3,6163],[89.3,6246],[89.3,6329],[89.3,6413],[89.3,6496],[89.5,6580],[97.1,6663],[100,6746],[100,6829],[100,6913],[100,6996],[100,7079],[100,7162],[100,7246],[100,7329],[100,7412],[100,7495],[100,7579],[100,7662],[100,7745],[100,7829],[100,7912],[100,7996],[100,8079],[100,8162],[100,8245],[100,8329],[100,8412],[100,8495],[100,8578],[100,8662],[100,8745],[100,8828],[100,8911],[100,8995],[100,9078],[100,9161],[100,9245]]",303.3247,305.2403,98.95833333,1.4821,"[{""rating"":98.95833333333333,""responseTime"":1.4820999999642481}]",space,1.3686,,305.2405,Definitely yes,100,305.245,,,[],,0,3,3,3,1,audio/Narrative7Situation3.wav,audio/Narrative8Situation3.wav,audio/Narrative5Situation3.wav,audio/Narrative6Situation3.wav,8,4,3,5,,,,,,,,,,,,,,,,,,,,,,,,,,,,,,,,,,,,,,,
,,,,,5c7cf8b58ca9000001b52f6e,2025-07-07_22h15.10.918,group3.4_multiperson,2023.2.2,Win32,59.52380952,686c2ebf0248f13bef9af11f,686c7b9a726c714bb8223fa8,,,,,,,,,,,,,,,,,,,,,,,,,,,,,305.2454,1,audio/Narrative7Situation4.wav,308.2552,,308.2552,319.9829,"[[96.7,9429],[68.3,10511],[44,10931],[41.8,11011],[41.8,11094],[41.8,11177],[41.8,11261],[41.8,11344],[41.8,11427],[41.8,11511],[41.8,11593],[41.8,11677]]",319.9831,326.0297,2.708333333,3.6794,"[{""rating"":24.375000000000004,""responseTime"":2.4756999999880804},{""rating"":2.708333333333335,""responseTime"":3.6793999999761695}]",space,5.502,,326.0298,Not at all,0,326.0358,,,[],,0,4,4,4,1,audio/Narrative7Situation4.wav,audio/Narrative8Situation4.wav,audio/Narrative5Situation4.wav,audio/Narrative6Situation4.wav,3,3,1,2,,,,,,,,,,,,,,,,,,,,,,,,,,,,,,,,,,,,,,,
,,,,,5c7cf8b58ca9000001b52f6e,2025-07-07_22h15.10.918,group3.4_multiperson,2023.2.2,Win32,59.52380952,686c2ebf0248f13bef9af11f,686c7b9a726c714bb8223fa8,,,,,,,,,,,,,,,,,,,,,,,,,,,,,326.0361,1,audio/Narrative7Situation5.wav,331.0438,,331.0438,339.5401,"[[999,1],[999,83],[999,167],[999,249],[999,333],[999,416],[999,499],[999,582],[999,666],[999,749],[999,832],[999,916],[59.4,999],[59.4,1082],[59.4,1166],[59.4,1249],[59.4,1332],[59.4,1415],[59.4,1499],[59.4,1582],[59.4,1665],[59.4,1749],[59.4,1832],[59.4,1915],[59.4,1998],[59.4,2082],[59.4,2165],[58.9,2249],[58.2,2332],[58,2415],[58,2498],[58,2581],[58,2665],[58,2748],[58,2831],[58,2915],[60,2999],[62.7,3082],[63.2,3165],[63.6,3248],[63.9,3331],[64,3431],[64,3514],[64.2,3598],[64.5,3681],[65.2,3764],[67,3848],[68.9,3931],[69.7,4014],[72.4,4098],[72.6,4181],[72.6,4265],[72.6,4347],[72.6,4431],[72.6,4515],[72.6,4598],[72.6,4680],[72.6,4764],[72.6,4847],[72.6,4930],[72.6,5014],[72.6,5097],[72.6,5180],[72.6,5264],[72.6,5347],[73.1,5431],[74.7,5530],[75.3,5614],[76.4,5697],[76.9,5781],[77.3,5863],[77.3,5947],[77.3,6030],[77.3,6113],[77.3,6196],[77.3,6280],[77.3,6363],[77.3,6446],[77.3,6530],[77.3,6613],[77.3,6696],[77.3,6780],[77.3,6863],[77.3,6946],[77.3,7029],[77.3,7113],[77.3,7196],[80.5,7280],[83.4,7363],[84.5,7446],[84.5,7529],[84.5,7613],[84.5,7696],[84.5,7782],[84.5,7863],[84.5,7945],[84.5,8029],[84.5,8112],[84.5,8196],[84.5,8279],[85.5,8362],[86.6,8446]]",339.5403,342.4048,87.1875,2.8558,"[{""rating"":87.1875,""responseTime"":2.855800000011925}]",space,0.7422,,342.4049,Partially,50,342.41,,,[],,0,5,5,5,1,audio/Narrative7Situation5.wav,audio/Narrative8Situation5.wav,audio/Narrative5Situation5.wav,audio/Narrative6Situation5.wav,5,2,5,2,,,,,,,,,,,,,,,,,,,,,,,,,,,,,,,,,,,,,,,
,,,,,5c7cf8b58ca9000001b52f6e,2025-07-07_22h15.10.918,group3.4_multiperson,2023.2.2,Win32,59.52380952,686c2ebf0248f13bef9af11f,686c7b9a726c714bb8223fa8,,,,,,,,,,,,,,,,,,,,,,,,,,,,,342.4107,1,audio/Narrative7Situation6.wav,345.4201,space,345.4202,355.3985,[],355.3987,360.6346,100,4.839,"[{""rating"":93.22916666666667,""responseTime"":1.5613999999761745},{""rating"":96.14583333333333,""responseTime"":2.747299999952304},{""rating"":97.91666666666667,""responseTime"":3.6387999999523117},{""rating"":98.75,""responseTime"":4.528699999988078},{""rating"":100,""responseTime"":4.838999999999999}]",space,4.6823,,360.6348,Definitely yes,100,370.9908,99.58333333,7.6485,"[{""rating"":99.58333333333333,""responseTime"":7.648499999999956}]",space,0,6,6,6,1,audio/Narrative7Situation6.wav,audio/Narrative8Situation6.wav,audio/Narrative5Situation6.wav,audio/Narrative6Situation6.wav,3,2,3,2,0.0989,,9.8147,,,,,,,,,,,,,,,,,,,,,,,,,,,,,,,,,,,,
,,,,,5c7cf8b58ca9000001b52f6e,2025-07-07_22h15.10.918,group3.4_multiperson,2023.2.2,Win32,59.52380952,686c2ebf0248f13bef9af11f,686c7b9a726c714bb8223fa8,,,,,,,,,,,,,,,,,,,,,,,,,,,,,370.9917,1,audio/Narrative7Situation7.wav,376.0052,,376.0052,393.1632,"[[999,0],[999,83],[999,166],[999,249],[999,332],[999,416],[999,499],[999,582],[999,667],[999,750],[999,833],[999,915],[999,999],[999,1082],[999,1165],[999,1249],[999,1332],[999,1415],[999,1498],[999,1582],[999,1665],[999,1748],[999,1832],[999,1915],[999,1998],[999,2081],[999,2165],[999,2248],[999,2331],[999,2415],[999,2498],[999,2581],[999,2665],[999,2748],[999,2831],[999,2915],[999,2998],[999,3081],[999,3165],[999,3248],[999,3331],[999,3414],[999,3497],[999,3581],[999,3664],[999,3747],[999,3831],[999,3914],[999,3997],[999,4081],[999,4164],[999,4247],[999,4330],[999,4414],[999,4497],[999,4580],[999,4664],[999,4747],[999,4830],[999,4913],[999,4997],[999,5080],[999,5163],[999,5247],[999,5330],[999,5413],[999,5497],[999,5580],[999,5663],[999,5747],[999,5830],[999,5913],[999,5996],[999,6080],[999,6163],[999,6246],[999,6330],[999,6413],[999,6496],[999,6580],[999,6663],[999,6746],[999,6829],[999,6913],[999,6996],[999,7079],[999,7162],[999,7246],[999,7329],[999,7412],[999,7508],[999,7610],[999,7679],[999,7764],[999,7845],[999,7928],[999,8012],[999,8095],[999,8178],[98.2,8262],[96.5,8345],[95.3,8429],[94.6,8512],[93.4,8596],[91.9,8679],[89.3,8762],[89.3,8846],[89.3,8929],[89.3,9011],[89.3,9095],[89.3,9178],[89.3,9262],[89.3,9345],[89.3,9428],[89.3,9511],[89.3,9597],[89.3,9678],[89.3,9761],[90.6,9845],[91.9,9928],[92.7,10011],[93.5,10095],[94.1,10178],[94.6,10261],[94.9,10344],[95.2,10427],[95.2,10511],[95.2,10594],[95.2,10677],[95.2,10760],[95.2,10844],[95.2,10927],[95.2,11010],[95.2,11093],[95.6,11178],[98.1,11261],[99.5,11344],[100,11429],[100,11511],[100,11594],[100,11677],[100,11760],[100,11843],[100,11927],[100,12010],[100,12093],[100,12176],[100,12260],[100,12343],[100,12426],[100,12510],[100,12593],[100,12676],[100,12759],[100,12843],[100,12926],[100,13010],[100,13093],[100,13176],[100,13259],[100,13343],[100,13426],[100,13509],[100,13592],[100,13676],[100,13759],[100,13842],[100,13925],[100,14009],[100,14092],[100,14175],[100,14259],[100,14342],[100,14425],[100,14509],[100,14592],[100,14675],[100,14759],[100,14842],[100,14925],[100,15008],[100,15092],[100,15175],[100,15258],[100,15342],[100,15425],[100,15508],[100,15591],[100,15675],[100,15759],[100,15841],[100,15925],[100,16008],[100,16091],[100,16175],[100,16258],[100,16341],[100,16425],[100,16508],[100,16591],[100,16674],[100,16758],[100,16841],[100,16924],[100,17007],[100,17091]]",393.1634,406.1233,100,4.5729,"[{""rating"":99.79166666666667,""responseTime"":3.605300000011937},{""rating"":100,""responseTime"":4.572899999976187}]",space,12.4386,,406.1233,Not at all,0,406.1287,,,[],,0,7,7,7,1,audio/Narrative7Situation7.wav,audio/Narrative8Situation7.wav,audio/Narrative5Situation7.wav,audio/Narrative6Situation7.wav,5,3,4,5,,,,,,,,,,,,,,,,,,,,,,,,,,,,,,,,,,,,,,,
,,,,,5c7cf8b58ca9000001b52f6e,2025-07-07_22h15.10.918,group3.4_multiperson,2023.2.2,Win32,59.52380952,686c2ebf0248f13bef9af11f,686c7b9a726c714bb8223fa8,,,,,,,,,,,,,,,,,,,,,,,,,,,,,406.129,1,audio/Narrative7Situation8.wav,408.1391,,408.1392,418.1515,"[[90.2,6664],[82,6746],[77.8,6830],[75.9,6913],[73.9,6996],[71.9,7079],[70.5,7163],[70.1,7246],[70.1,7330],[70.5,7413],[70.5,7495],[70.5,7579],[70.5,7662],[70.5,7745],[71.3,7829],[73.8,7919],[76.7,7996],[79.4,8079],[79.7,8174],[79.7,8249],[79.7,8330],[79.7,8415],[79.7,8496],[79.7,8579],[79.7,8662],[79.7,8746],[79.7,8828],[79.7,8911],[79.7,8995],[79.7,9078],[79.7,9161],[80.9,9246],[86.4,9330],[88.2,9415],[88.4,9495],[88.4,9578],[88.4,9662],[88.4,9745],[88.6,9828],[91.5,9912],[92.7,9995]]",418.1518,420.3332,95.52083333,1.9089,"[{""rating"":94.79166666666667,""responseTime"":1.2476000000237946},{""rating"":95.52083333333333,""responseTime"":1.9089000000357146}]",space,1.6345,,420.3333,Definitely yes,100,420.3431,,,[],,0,8,8,8,1,audio/Narrative7Situation8.wav,audio/Narrative8Situation8.wav,audio/Narrative5Situation8.wav,audio/Narrative6Situation8.wav,2,3,3,5,,,,,,,,,,,,,,,,,,,,,,,,,,,,,,,,,,,,,,,
,,,,,5c7cf8b58ca9000001b52f6e,2025-07-07_22h15.10.918,group3.4_multiperson,2023.2.2,Win32,59.52380952,686c2ebf0248f13bef9af11f,686c7b9a726c714bb8223fa8,,,,,,,,,,,,,,,,,,,,,,,,,,,,,420.3435,1,audio/Narrative7Situation9.wav,422.3488,,422.3488,430.9779,"[[55.9,3165],[54.8,3248],[54.7,3331],[54.9,3415],[58,3498],[59.8,3581],[62.5,3665],[64.9,3748],[65.4,3831],[65.4,3914],[65.4,3997],[65.4,4081],[66.3,4164],[79.5,4248],[81.3,4331],[83,4414],[83,4497],[83,4580],[83,4664],[83,4747],[83,4830],[83,4913],[83,4997],[88.3,5081],[91,5164],[92.6,5247],[92.6,5330],[92.6,5414],[92.6,5497],[92.6,5580],[92.6,5663],[92.6,5747],[97.9,5830],[100,5913],[100,5997],[100,6080],[100,6163],[100,6246],[100,6329],[100,6413],[100,6496],[100,6580],[100,6663],[100,6746],[100,6829],[100,6913],[100,6996],[100,7079],[100,7163],[100,7246],[100,7329],[100,7413],[100,7496],[100,7579],[100,7662],[100,7746],[100,7829],[100,7912],[100,7995],[100,8079],[100,8162],[100,8245],[100,8329],[100,8412],[100,8495],[100,8579]]",430.9782,434.0762,99.47916667,1.6394,"[{""rating"":99.47916666666667,""responseTime"":1.639399999976149}]",space,2.5481,,434.0763,Not at all,0,434.0835,,,[],,0,9,9,9,1,audio/Narrative7Situation9.wav,audio/Narrative8Situation9.wav,audio/Narrative5Situation9.wav,audio/Narrative6Situation9.wav,2,3,3,4,,,,,,,,,,,,,,,,,,,,,,,,,,,,,,,,,,,,,,,
,,,,,5c7cf8b58ca9000001b52f6e,2025-07-07_22h15.10.918,group3.4_multiperson,2023.2.2,Win32,59.52380952,686c2ebf0248f13bef9af11f,686c7b9a726c714bb8223fa8,,,,,,,,,,,,,,,,,,,,,,,,,,,,,434.0841,1,audio/Narrative8Situation1.wav,439.0903,,439.0904,455.0159,"[[52.9,1499],[53.2,1582],[53.3,1665],[53.6,1749],[54.1,1832],[54.4,1915],[54.4,1998],[54.4,2082],[54.4,2165],[54.4,2248],[54.4,2332],[55.9,2433],[58.6,2515],[59.6,2599],[60.4,2682],[61.4,2765],[62.2,2848],[63,2932],[63.2,3015],[63.2,3098],[63.2,3181],[63.2,3265],[63.2,3348],[63.2,3434],[63.2,3515],[64.9,3600],[67.3,3682],[67.6,3764],[67.6,3848],[67.6,3931],[67.6,4014],[67.6,4098],[67.6,4181],[67.6,4264],[67.6,4347],[67.6,4431],[67.6,4514],[67.6,4597],[67.6,4680],[67.6,4764],[67.6,4847],[68.3,4931],[70.3,5014],[70.4,5097],[70.4,5180],[70.4,5264],[70.4,5347],[70.4,5430],[70.4,5513],[70.4,5597],[70.4,5680],[70.4,5763],[71.7,5847],[76.3,5930],[76.9,6013],[76.9,6096],[76.9,6180],[76.9,6263],[76.9,6346],[76.9,6430],[76.9,6513],[76.9,6596],[76.9,6679],[76.9,6763],[76.9,6846],[76.9,6929],[76.9,7013],[76.9,7096],[76.9,7179],[76.9,7263],[76.9,7346],[76.9,7430],[76.9,7512],[76.9,7596],[76.9,7679],[76.9,7763],[76.9,7846],[77.3,7929],[79.1,8012],[80.1,8096],[80.5,8179],[80.5,8262],[80.5,8345],[80.5,8429],[80.5,8512],[80.5,8595],[80.5,8678],[80.5,8762],[80.5,8845],[80.5,8928],[80.5,9012],[80.5,9095],[80.5,9178],[80.5,9262],[80.5,9345],[80.5,9428],[80.5,9511],[80.5,9595],[80.5,9678],[80.5,9761],[80.5,9845],[80.5,9928],[80.5,10011],[80.5,10094],[80.5,10178],[80.5,10261],[80.5,10344],[80.5,10428],[80.5,10511],[80.5,10594],[80.5,10678],[80.5,10761],[80.5,10844],[80.5,10927],[80.5,11011],[80.5,11094],[80.5,11177],[80.5,11261],[80.5,11344],[80.5,11427],[80.5,11510],[80.5,11594],[80.5,11677],[84.1,11760],[85.1,11844],[85.1,11927],[85.1,12010],[85.1,12093],[85.1,12177],[85.1,12260],[85.1,12343],[85.1,12427],[85.1,12510],[85.1,12593],[85.1,12677],[85.1,12760],[85.1,12843],[85.1,12927],[85.1,13010],[88,13093],[88.6,13176],[88.6,13260],[88.6,13343],[88.6,13426],[88.6,13510],[88.6,13593],[89.7,13676],[95.2,13760],[95.9,13843],[95.9,13926],[95.9,14009],[95.9,14092],[95.9,14176],[95.9,14259],[95.9,14343],[95.9,14426],[95.9,14509],[98.1,14593],[99.9,14676],[100,14759],[100,14842],[100,14925],[100,15009],[100,15092],[100,15175],[100,15259],[100,15342],[100,15425],[100,15509],[100,15592],[100,15675],[100,15758],[100,15842],[100,15925]]",455.016,457.7481,99.6875,1.9909,"[{""rating"":99.6875,""responseTime"":1.990900000035822}]",space,2.1887,,457.7482,Definitely yes,100,457.756,,,[],,0,10,10,10,1,audio/Narrative8Situation1.wav,audio/Narrative7Situation1.wav,audio/Narrative6Situation1.wav,audio/Narrative5Situation1.wav,5,2,2,5,,,,,,,,,,,,,,,,,,,,,,,,,,,,,,,,,,,,,,,
,,,,,5c7cf8b58ca9000001b52f6e,2025-07-07_22h15.10.918,group3.4_multiperson,2023.2.2,Win32,59.52380952,686c2ebf0248f13bef9af11f,686c7b9a726c714bb8223fa8,,,,,,,,,,,,,,,,,,,,,,,,,,,,,457.7568,1,audio/Narrative8Situation2.wav,460.7631,,460.7632,470.8913,"[[49.4,3831],[45.1,4248],[46.5,4331],[46.6,4414],[46.6,4497],[46.6,4581],[46.6,4665],[46.6,4748],[46.6,4831],[46.6,4913],[46.3,4997],[46.1,5080],[46.1,5163],[46.1,5247],[46.1,5330],[46.1,5413],[46.1,5497],[46.1,5580],[46.1,5664],[46.1,5746],[46.1,5830],[46.6,5913],[46.8,5996],[46.8,6080],[46.8,6163],[46.8,6246],[46.8,6330],[46.8,6413],[46.8,6496],[46.8,6579],[46.8,6663],[51.1,6747],[54,6830],[54.2,6913],[54.2,6996],[54.2,7079],[54.2,7163],[54.2,7246],[54.2,7329],[54.2,7412],[54.2,7496],[54.2,7579],[54.2,7662],[54.2,7747],[54.2,7829],[54.2,7912],[54.2,7996],[54.2,8079],[54.2,8162],[56.4,8245],[59.1,8329],[59.4,8412],[59.4,8495],[59.4,8579],[59.4,8662],[59.4,8745],[59.4,8828],[59.4,8911],[60,8995],[65.1,9079],[65.7,9161],[65.7,9245],[65.7,9328],[65.7,9411],[65.7,9495],[65.7,9578],[65.7,9661],[65.7,9745],[65.7,9828],[65.7,9911],[65.7,9994],[65.7,10077]]",470.8914,478.8708,76.77083333,7.2416,"[{""rating"":69.58333333333333,""responseTime"":1.9126000000237582},{""rating"":76.77083333333333,""responseTime"":7.241600000023823}]",space,7.4476,,478.8709,Not at all,0,478.8749,,,[],,0,11,11,11,1,audio/Narrative8Situation2.wav,audio/Narrative7Situation2.wav,audio/Narrative6Situation2.wav,audio/Narrative5Situation2.wav,3,3,3,3,,,,,,,,,,,,,,,,,,,,,,,,,,,,,,,,,,,,,,,
,,,,,5c7cf8b58ca9000001b52f6e,2025-07-07_22h15.10.918,group3.4_multiperson,2023.2.2,Win32,59.52380952,686c2ebf0248f13bef9af11f,686c7b9a726c714bb8223fa8,,,,,,,,,,,,,,,,,,,,,,,,,,,,,478.8753,1,audio/Narrative8Situation3.wav,482.8858,,482.8859,505.2745,"[[74.8,4664],[66.3,4748],[63.9,4834],[61.4,4915],[60.9,4997],[60.9,5080],[60.9,5163],[60.9,5246],[60.9,5330],[60.9,5413],[60.9,5496],[60.9,5580],[60.9,5663],[66.6,5747],[68.6,5830],[68.6,5913],[68.6,5996],[68.6,6079],[68.6,6163],[68.6,6247],[68.6,6329],[68.6,6413],[70.1,6496],[72,6580],[72.1,6662],[72.1,6746],[72.1,6829],[72.1,6912],[72.1,6996],[72.1,7079],[72.1,7162],[72.1,7245],[72.1,7329],[72.1,7412],[72.6,7495],[78,7579],[81.1,7663],[81.3,7745],[81.3,7829],[81.3,7912],[81.3,7995],[81.3,8079],[81.3,8162],[81.3,8245],[81.3,8328],[81.3,8412],[81.3,8495],[81.7,8578],[86.7,8662],[87.7,8745],[87.9,8828],[87.9,8912],[87.9,8995],[87.9,9078],[87.9,9161],[87.9,9245],[87.9,9328],[87.9,9411],[87.9,9494],[87.9,9578],[87.9,9661],[91.1,9745],[92.1,9829],[92.2,9911],[92.2,9994],[92.2,10078],[92.2,10161],[92.2,10244],[92.2,10327],[92.2,10411],[93.3,10494],[94.3,10577],[95.2,10661],[95.4,10745],[95.4,10828],[95.4,10910],[95.4,10994],[95.9,11077],[99.2,11161],[100,11245],[100,11327],[100,11410],[100,11494],[100,11577],[100,11660],[100,11743],[100,11826],[100,11910],[100,11994],[100,12076],[100,12160],[100,12243],[100,12326],[100,12409],[100,12493],[100,12576],[100,12659],[100,12743],[100,12826],[100,12909],[100,12993],[100,13076],[100,13159],[100,13242],[100,13326],[100,13409],[100,13492],[100,13576],[100,13659],[100,13742],[100,13825],[100,13909],[100,13992],[100,14075],[100,14158],[100,14242],[100,14325],[100,14408],[100,14492],[100,14575],[100,14658],[100,14742],[100,14825],[100,14908],[100,14992],[100,15075],[100,15158],[100,15241],[100,15325],[100,15408],[100,15491],[100,15575],[100,15658],[100,15741],[100,15825],[100,15908],[100,15991],[100,16074],[100,16158],[100,16241],[100,16324],[100,16408],[100,16491],[100,16574],[100,16657],[100,16741],[100,16824],[100,16907],[100,16991],[100,17074],[100,17157],[100,17241],[100,17324],[100,17407],[100,17490],[100,17574],[100,17657],[100,17740],[100,17823],[100,17907],[100,17990],[100,18073],[100,18157],[100,18241],[100,18323],[100,18407],[100,18490],[100,18574],[100,18656],[100,18740],[100,18823],[100,18906],[100,18990],[100,19073],[100,19156],[100,19240],[100,19323],[100,19406],[100,19489],[100,19573],[100,19657],[100,19739],[100,19822],[100,19906],[100,19989],[100,20072],[100,20156],[100,20239],[100,20322],[100,20405],[100,20489],[100,20572],[100,20655],[100,20739],[100,20822],[100,20905],[100,20989],[100,21072],[100,21155],[100,21239],[100,21322],[100,21405],[100,21488],[100,21572],[100,21655],[100,21738],[100,21822],[100,21905],[100,21988],[100,22071],[100,22155],[100,22238],[100,22321]]",505.2746,507.19,99.47916667,1.1729,"[{""rating"":99.47916666666667,""responseTime"":1.1729000000358383}]",space,1.3664,,507.1903,Definitely yes,100,507.1978,,,[],,0,12,12,12,1,audio/Narrative8Situation3.wav,audio/Narrative7Situation3.wav,audio/Narrative6Situation3.wav,audio/Narrative5Situation3.wav,4,8,5,3,,,,,,,,,,,,,,,,,,,,,,,,,,,,,,,,,,,,,,,
,,,,,5c7cf8b58ca9000001b52f6e,2025-07-07_22h15.10.918,group3.4_multiperson,2023.2.2,Win32,59.52380952,686c2ebf0248f13bef9af11f,686c7b9a726c714bb8223fa8,,,,,,,,,,,,,,,,,,,,,,,,,,,,,507.1983,1,audio/Narrative8Situation4.wav,510.2053,,510.2053,524.3816,"[[40,832],[39.5,916],[39.5,999],[39.5,1083],[39.5,1166],[47.5,1251],[50.7,1337],[52.9,1419],[54.3,1499],[54.7,1582],[54.7,1665],[54.7,1749],[54.7,1832],[54.7,1915],[54.7,1998],[54.7,2082],[54.7,2165],[54.7,2249],[54.7,2332],[54.7,2416],[54.7,2498],[54.1,2582],[53.5,2665],[53.4,2748],[53.4,2831],[53.4,2915],[53.4,2998],[54.3,3081],[57.6,3165],[58.4,3248],[59.3,3332],[60.1,3415],[61,3498],[61.8,3581],[61.9,3664],[61.9,3747],[61.9,3831],[61.9,3914],[61.9,3997],[61.9,4081],[61.9,4164],[61.9,4247],[61.9,4331],[62.3,4414],[64.1,4500],[64.7,4581],[64.7,4664],[64.7,4747],[64.7,4830],[64.7,4914],[64.7,4997],[64.7,5081],[64.7,5163],[64.7,5247],[64.7,5330],[64.7,5413],[67.6,5498],[69.5,5581],[69.6,5663],[69.6,5746],[69.6,5830],[69.6,5913],[69.6,5998],[69.6,6080],[69.6,6163],[69.6,6246],[69.6,6330],[69.6,6413],[69.6,6496],[69.6,6579],[71.8,6663],[72.3,6748],[72.3,6829],[72.3,6913],[72.3,6996],[72.3,7079],[72.3,7162],[72.3,7246],[72.3,7329],[72.3,7413],[72.3,7496],[73.1,7580],[75.6,7663],[77.8,7745],[77.8,7830],[77.8,7912],[77.8,7995],[77.8,8079],[77.8,8162],[77.8,8245],[84.1,8329],[86.1,8412],[86.1,8495],[86.1,8578],[86.1,8662],[86.1,8745],[86.1,8828],[86.1,8912],[86.1,8995],[86.1,9078],[86.1,9161],[86.1,9245],[86.1,9328],[86.1,9411],[86.1,9495],[86.1,9578],[90.2,9661],[91.6,9745],[91.6,9828],[91.6,9911],[91.6,9995],[91.6,10078],[91.6,10161],[91.6,10244],[91.6,10328],[91.6,10411],[91.6,10494],[91.6,10577],[91.6,10661],[91.6,10744],[91.6,10827],[91.6,10910],[91.6,10994],[91.6,11077],[91.6,11160],[91.6,11244],[91.6,11327],[91.6,11410],[91.6,11494],[91.6,11577],[91.6,11660],[91.6,11744],[91.6,11827],[91.6,11910],[91.6,11994],[91.6,12077],[91.6,12160],[91.6,12243],[91.6,12327],[91.6,12410],[92.9,12494],[94,12577],[94.8,12660],[95,12743],[95,12826],[95,12910],[95,12993],[95,13077],[95,13160],[95,13243],[95,13326],[95,13409],[95,13493],[95,13576],[95,13659],[95,13743],[95,13826],[95,13909],[95,13993],[95,14076],[95,14159]]",524.3818,527.6468,98.02083333,2.3095,"[{""rating"":98.02083333333333,""responseTime"":2.3094999999999573}]",space,2.7233,,527.6468,Definitely yes,100,527.6498,,,[],,0,13,13,13,1,audio/Narrative8Situation4.wav,audio/Narrative7Situation4.wav,audio/Narrative6Situation4.wav,audio/Narrative5Situation4.wav,3,3,2,1,,,,,,,,,,,,,,,,,,,,,,,,,,,,,,,,,,,,,,,
,,,,,5c7cf8b58ca9000001b52f6e,2025-07-07_22h15.10.918,group3.4_multiperson,2023.2.2,Win32,59.52380952,686c2ebf0248f13bef9af11f,686c7b9a726c714bb8223fa8,,,,,,,,,,,,,,,,,,,,,,,,,,,,,527.65,1,audio/Narrative8Situation5.wav,529.6623,,529.6624,537.9085,"[[55.5,1499],[53,1582],[51.9,1665],[51.4,1749],[51,1832],[50.9,1916],[50.6,2012],[50.6,2098],[50.6,2182],[50.6,2265],[50.6,2348],[50.6,2432],[50.6,2515],[50.6,2598],[53.4,2682],[57.4,2765],[58.5,2848],[58.6,2932],[58.6,3015],[58.6,3098],[58.6,3181],[58.6,3265],[58.6,3348],[58.6,3431],[65,3515],[66.6,3598],[66.6,3681],[66.6,3764],[66.6,3848],[66.6,3931],[66.6,4014],[66.6,4097],[66.6,4181],[66.6,4264],[66.6,4347],[66.6,4431],[66.6,4514],[66.6,4597],[66.6,4680],[66.6,4764],[66.6,4847],[66.6,4930],[66.6,5014],[66.6,5097],[66.6,5180],[66.6,5263],[66.6,5347],[66.6,5431],[66.6,5513],[66.6,5597],[66.6,5682],[66.6,5764],[66.6,5847],[66.6,5930],[66.6,6013],[66.6,6097],[66.6,6180],[66.6,6263],[66.6,6346],[66.6,6430],[66.6,6513],[66.6,6596],[66.6,6680],[66.6,6763],[66.6,6846],[66.6,6930],[66.6,7013],[66.6,7096],[66.6,7179],[66.6,7263],[66.6,7346],[66.6,7429],[66.6,7512],[66.6,7596],[66.6,7679],[66.6,7762],[66.6,7846],[66.6,7929],[66.6,8013],[66.6,8096],[66.6,8179]]",537.9087,543.5567,93.22916667,5.1924,"[{""rating"":83.75,""responseTime"":2.960599999964302},{""rating"":89.16666666666666,""responseTime"":4.34050000000002},{""rating"":93.22916666666667,""responseTime"":5.192399999976146}]",space,5.1169,,543.5568,Not at all,0,543.5634,,,[],,0,14,14,14,1,audio/Narrative8Situation5.wav,audio/Narrative7Situation5.wav,audio/Narrative6Situation5.wav,audio/Narrative5Situation5.wav,2,5,2,5,,,,,,,,,,,,,,,,,,,,,,,,,,,,,,,,,,,,,,,
,,,,,5c7cf8b58ca9000001b52f6e,2025-07-07_22h15.10.918,group3.4_multiperson,2023.2.2,Win32,59.52380952,686c2ebf0248f13bef9af11f,686c7b9a726c714bb8223fa8,,,,,,,,,,,,,,,,,,,,,,,,,,,,,543.564,1,audio/Narrative8Situation6.wav,545.5713,,545.5714,552.0515,"[[53,2331],[52,2415],[52,2498],[52,2581],[52,2665],[52,2748],[52,2831],[52,2915],[52,2998],[52,3081],[52,3164],[52,3248],[52,3331],[52,3414],[52,3498],[52,3581],[52,3664],[52,3748],[52,3831],[52,3914],[52,3997],[52,4081],[52,4164],[52,4247],[52,4330],[52,4414],[52,4497],[52,4580],[52,4664],[52,4747],[52,4830],[52,4913],[52,4997],[52,5080],[52,5163],[52,5247],[52,5330],[52,5413],[52,5496],[52,5580],[52,5663],[52,5747],[52,5830],[52,5913],[52,5996],[52,6080],[52,6163],[52,6246],[52,6329],[52,6413]]",552.0516,558.3329,58.02083333,5.7074,"[{""rating"":50,""responseTime"":3.807199999988029},{""rating"":58.020833333333336,""responseTime"":5.707399999976133}]",space,5.737,,558.3331,Partially,50,558.3403,,,[],,0,15,15,15,1,audio/Narrative8Situation6.wav,audio/Narrative7Situation6.wav,audio/Narrative6Situation6.wav,audio/Narrative5Situation6.wav,2,3,2,3,,,,,,,,,,,,,,,,,,,,,,,,,,,,,,,,,,,,,,,
,,,,,5c7cf8b58ca9000001b52f6e,2025-07-07_22h15.10.918,group3.4_multiperson,2023.2.2,Win32,59.52380952,686c2ebf0248f13bef9af11f,686c7b9a726c714bb8223fa8,,,,,,,,,,,,,,,,,,,,,,,,,,,,,558.3409,1,audio/Narrative8Situation7.wav,561.3469,,561.347,573.4408,"[[53,3415],[52.6,3498],[52.4,3581],[52.3,3664],[52.3,3747],[52.3,3831],[52.3,3914],[52.3,3997],[52.3,4081],[52.3,4164],[54.1,4248],[59.7,4331],[60.7,4414],[60.8,4498],[60.8,4580],[60.8,4664],[60.8,4747],[60.8,4831],[60.8,4914],[60.8,4997],[65,5080],[65.5,5164],[65.5,5247],[65.5,5330],[65.5,5413],[65.5,5496],[65.5,5580],[65.5,5663],[65.5,5746],[65.5,5830],[65.5,5913],[65.5,5996],[65.5,6080],[65.5,6163],[65.5,6246],[65.5,6329],[65.5,6413],[65.7,6496],[70.6,6580],[70.6,6663],[70.6,6746],[70.6,6829],[70.6,6912],[70.6,6996],[70.6,7079],[70.6,7163],[70.6,7246],[70.6,7329],[70.6,7412],[70.6,7495],[70.6,7579],[70.6,7662],[70.6,7745],[70.6,7829],[70.6,7912],[70.6,7995],[70.6,8078],[70.6,8162],[70.6,8245],[70.6,8329],[75.7,8412],[76.4,8495],[76.3,8578],[76.3,8662],[76.3,8745],[76.3,8828],[76.3,8911],[76.3,8995],[76.3,9078],[76.3,9161],[76.3,9245],[76.3,9328],[76.3,9411],[76.3,9495],[76.3,9578],[81.9,9661],[83.9,9745],[84.1,9828],[84.1,9911],[84.1,9994],[84.1,10078],[84.1,10161],[86.7,10245],[89.9,10327],[90.1,10411],[90.1,10494],[90.1,10577],[90.1,10660],[90.1,10744],[90.1,10827],[90.1,10911],[91.6,10994],[95.2,11077],[95.3,11160],[95.3,11244],[95.3,11327],[95.3,11410],[95.3,11493],[95.3,11577],[100,11660],[100,11744],[100,11827],[100,11910],[100,11993],[100,12076]]",573.4409,578.7716,99.6875,2.0731,"[{""rating"":99.6875,""responseTime"":2.0730999999642563}]",space,4.7894,,578.7717,Partially,50,578.7753,,,[],,0,16,16,16,1,audio/Narrative8Situation7.wav,audio/Narrative7Situation7.wav,audio/Narrative6Situation7.wav,audio/Narrative5Situation7.wav,3,5,5,4,,,,,,,,,,,,,,,,,,,,,,,,,,,,,,,,,,,,,,,
,,,,,5c7cf8b58ca9000001b52f6e,2025-07-07_22h15.10.918,group3.4_multiperson,2023.2.2,Win32,59.52380952,686c2ebf0248f13bef9af11f,686c7b9a726c714bb8223fa8,,,,,,,,,,,,,,,,,,,,,,,,,,,,,578.7756,1,audio/Narrative8Situation8.wav,581.7867,,581.7868,594.6473,"[[93.8,2832],[68.3,2915],[64.6,2998],[64.6,3081],[64.6,3164],[64.6,3248],[64.6,3331],[59.1,3415],[56.4,3498],[52.4,3582],[49.5,3664],[49.2,3747],[49.2,3831],[49.2,3915],[49.2,3997],[49.2,4081],[49.2,4164],[49.2,4247],[49.2,4330],[49.2,4414],[49.2,4497],[49.2,4580],[49.2,4663],[49.2,4747],[49,4830],[45.2,4914],[41.3,4998],[40.6,5080],[40.5,5163],[40.5,5247],[40.5,5330],[40.5,5413],[47.3,5497],[53.6,5580],[55.8,5664],[55.8,5746],[55.8,5830],[55.8,5913],[55.8,5996],[66.4,6080],[71.9,6163],[72.5,6246],[72.5,6329],[72.5,6413],[72.5,6496],[72.5,6579],[72.5,6663],[72.5,6748],[72.5,6829],[72.6,6913],[72.9,6997],[72.9,7079],[72.9,7163],[72.8,7246],[72.8,7329],[72.8,7413],[72.8,7496],[72.8,7579],[72.8,7662],[72.8,7745],[72.8,7829],[72.8,7912],[72.8,7995],[72.8,8079],[72.9,8162],[73.2,8246],[73.4,8328],[73.5,8412],[73.8,8495],[73.8,8578],[73.8,8662],[73.9,8745],[73.9,8828],[74.1,8912],[74.3,8995],[75.1,9078],[76.9,9162],[79.1,9246],[81.9,9329],[82.6,9412],[82.6,9495],[82.6,9578],[82.6,9661],[82.6,9745],[83,9828],[84.8,9911],[85.3,9994],[85.5,10078],[85.5,10162],[85.5,10245],[85.5,10327],[85.5,10411],[85.7,10495],[86.5,10578],[87.3,10661],[88.2,10745],[88.9,10828],[89,10911],[89,10994],[89,11077],[89,11160],[89,11244],[94.5,11328],[96.8,11411],[98.9,11494],[100,11577],[100,11660],[100,11743],[100,11827],[100,11910],[100,11993],[100,12077],[100,12160],[100,12243],[100,12327],[100,12410],[100,12493],[100,12576],[100,12660],[100,12743],[100,12826]]",594.6476,600.2276,99.16666667,1.9088,"[{""rating"":99.16666666666667,""responseTime"":1.9087999999522935}]",space,5.0404,,600.2276,Not at all,0,600.2323,,,[],,0,17,17,17,1,audio/Narrative8Situation8.wav,audio/Narrative7Situation8.wav,audio/Narrative6Situation8.wav,audio/Narrative5Situation8.wav,3,2,5,3,,,,,,,,,,,,,,,,,,,,,,,,,,,,,,,,,,,,,,,
,,,,,5c7cf8b58ca9000001b52f6e,2025-07-07_22h15.10.918,group3.4_multiperson,2023.2.2,Win32,59.52380952,686c2ebf0248f13bef9af11f,686c7b9a726c714bb8223fa8,,,,,,,,,,,,,,,,,,,,,,,,,,,,,600.2326,1,audio/Narrative8Situation9.wav,603.2426,,603.2427,614.5708,"[[98.3,3332],[54.5,3665],[54.5,3751],[54.5,3831],[54.5,3914],[54.5,3997],[51.4,4081],[49.3,4164],[49.1,4247],[49.3,4331],[55.5,4414],[59.2,4497],[59.5,4581],[59.5,4664],[59.5,4747],[59.5,4830],[61,4914],[66.3,4998],[68.3,5080],[68.3,5164],[68.3,5247],[68.3,5330],[68.3,5415],[68.3,5497],[68.3,5580],[68.3,5663],[68.3,5759],[68.3,5843],[68.3,5926],[68.3,6009],[71,6082],[77.7,6163],[79.6,6247],[79.6,6330],[79.6,6413],[79.6,6496],[79.6,6580],[79.6,6663],[81.9,6746],[86.9,6831],[87,6913],[87,6996],[87,7079],[87,7163],[87,7246],[87,7329],[87,7412],[93.1,7496],[96.1,7579],[96.1,7662],[96.1,7746],[96.1,7829],[96.1,7912],[100,7996],[100,8080],[100,8162],[100,8245],[100,8329],[100,8412],[100,8508],[100,8586],[100,8662],[100,8745],[100,8831],[100,8912],[100,8995],[100,9078],[100,9162],[100,9245],[100,9328],[100,9413],[100,9508],[100,9580],[100,9662],[100,9745],[100,9832],[100,9912],[100,9995],[100,10081],[100,10161],[100,10244],[100,10328],[100,10411],[100,10494],[100,10578],[100,10662],[100,10744],[100,10827],[100,10911],[100,11006],[100,11078],[100,11161],[100,11244],[100,11327]]",614.5709,616.9693,99.58333333,1.4963,"[{""rating"":99.58333333333333,""responseTime"":1.4963000000119564}]",space,1.8511,,616.9694,Partially,50,616.976,,,[],,0,18,18,18,1,audio/Narrative8Situation9.wav,audio/Narrative7Situation9.wav,audio/Narrative6Situation9.wav,audio/Narrative5Situation9.wav,3,2,4,3,,,,,,,,,,,,,,,,,,,,,,,,,,,,,,,,,,,,,,,
,,,,,5c7cf8b58ca9000001b52f6e,2025-07-07_22h15.10.918,group3.4_multiperson,2023.2.2,Win32,59.52380952,686c2ebf0248f13bef9af11f,686c7b9a726c714bb8223fa8,,,,,,,,,,,,,,,,,,,,,,,,,,,619.7707,622.3501,622.4142,2,audio/Narrative13Situation2.wav,622.4145,,622.4145,652.1523,"[[98.5,1518],[80.6,1604],[48.6,2518],[50.6,2601],[51,2684],[51.3,2767],[51,2851],[51,2934],[51,3017],[51,3100],[51,3183],[51,3268],[51,3350],[51,3433],[51.6,3517],[51.9,3601],[52.1,3683],[52.2,3766],[52.2,3850],[52.2,3933],[52.3,4017],[52.4,4100],[52.5,4183],[52.5,4266],[52.5,4350],[52.5,4433],[52.6,4517],[52.6,4600],[52.6,4683],[52.6,4766],[52.9,4849],[53.3,4933],[53.4,5016],[53.5,5099],[53.6,5182],[53.8,5266],[53.8,5349],[53.8,5432],[53.8,5515],[53.8,5599],[53.8,5682],[53.8,5765],[53.8,5849],[53.5,5932],[53.1,6015],[53.1,6099],[53.1,6182],[53.1,6265],[53.1,6348],[52.7,6432],[50.9,6515],[50.2,6600],[49.9,6682],[49.9,6765],[49.9,6848],[49.9,6932],[49.9,7018],[49.9,7098],[49.9,7203],[49.9,7286],[49.9,7366],[50.9,7448],[52.5,7532],[54,7616],[53.8,7698],[53.8,7781],[53.8,7865],[53.8,7948],[53.8,8031],[53.8,8114],[53.8,8198],[53.8,8281],[53.8,8364],[53.8,8448],[54,8531],[55.1,8615],[56,8698],[57.2,8781],[58.4,8865],[61.3,8950],[62.1,9037],[62.9,9115],[63.4,9198],[63.4,9283],[63.4,9368],[63.4,9447],[63.4,9531],[63.6,9614],[66.7,9698],[68.6,9781],[69.7,9866],[70.5,9947],[71.3,10031],[71.4,10114],[71.4,10197],[71.4,10280],[71.4,10364],[71.4,10447],[71.4,10530],[71.4,10613],[72.1,10697],[73,10780],[74.6,10864],[75.8,10948],[76,11030],[76.4,11114],[76.9,11197],[78.8,11281],[80.9,11365],[81,11446],[81,11529],[81,11613],[81,11696],[81,11779],[81,11863],[81.4,11946],[82,12030],[82.7,12113],[83.4,12196],[83.8,12279],[83.8,12363],[83.9,12446],[83.9,12529],[83.9,12612],[83.9,12696],[83.9,12779],[83.9,12862],[83.9,12945],[84.1,13029],[84.2,13112],[84.3,13195],[84.4,13279],[84.6,13362],[84.8,13445],[85,13529],[85.2,13612],[85.3,13696],[85.7,13779],[87.8,13862],[88.9,13945],[89.7,14029],[90.6,14112],[92.1,14195],[98.1,14279],[100,14361],[100,14444],[100,14528],[100,14611],[100,14694],[100,14778],[100,14861],[100,14945],[100,15029],[100,15111],[100,15194],[100,15277],[100,15361],[100,15444],[100,15528],[100,15610],[100,15694],[100,15777],[100,15860],[100,15944],[100,16027],[100,16110],[100,16194],[100,16277],[100,16360],[100,16443],[100,16527],[100,16610],[100,16711],[100,16777],[100,16860],[100,16944],[100,17026],[100,17110],[100,17193],[100,17276],[100,17360],[100,17443],[100,17526],[100,17610],[100,17693],[100,17776],[100,17859],[100,17943],[100,18026],[100,18109],[100,18193],[100,18276],[100,18359],[100,18442],[100,18526],[100,18609],[100,18695],[100,18776],[100,18859],[100,18943],[100,19026],[100,19109],[100,19192],[100,19275],[100,19359],[100,19442],[100,19525],[100,19609],[100,19692],[100,19775],[100,19859],[100,19942],[100,20025],[100,20109],[100,20192],[100,20288],[100,20360],[100,20441],[100,20525],[100,20608],[100,20691],[100,20775],[100,20858],[100,20942],[98.5,25689],[96.7,25772],[96.5,25855],[96.5,25939],[96.5,26022],[96.5,26106],[96.5,26189],[96.5,26272],[96.5,26355],[96.5,26439],[97.6,26522],[98.6,26605],[99.1,26689],[99.3,26771],[99.4,26855],[99.6,26938],[100,27022],[100,27105],[100,27188],[100,27272],[100,27355],[100,27438],[100,27522],[100,27605],[100,27688],[100,27771],[100,27854],[100,27938],[100,28021],[100,28104],[100,28188],[100,28271],[100,28356],[100,28438],[100,28521],[100,28604],[100,28687],[100,28771],[100,28854],[100,28937],[100,29021],[100,29104],[100,29187],[100,29270],[100,29353],[100,29437],[100,29520],[100,29604],[100,29687]]",652.1525,652.1562,,,[],,,,652.1562,Definitely yes,100,652.159,,,[],,0,0,0,0,1,audio/Narrative13Situation2.wav,audio/Narrative13Situation2.wav,audio/Narrative13Situation2.wav,audio/Narrative13Situation2.wav,2,2,2,2,,,,,616.9766,619.769,space,2.2697,,,,,,,,,,,,,,,,,,,,,,,,,,,,,,,
,,,,,5c7cf8b58ca9000001b52f6e,2025-07-07_22h15.10.918,group3.4_multiperson,2023.2.2,Win32,59.52380952,686c2ebf0248f13bef9af11f,686c7b9a726c714bb8223fa8,,,,,,,,,,,,,,,,,,,,,,,,,,,,,652.1593,2,audio/Narrative5Situation1.wav,657.1662,,657.1663,670.4427,"[[35.5,1182],[31.6,1265],[31.7,1349],[33.4,1433],[47.3,1516],[51.1,1599],[54,1682],[58.1,1766],[58.6,1848],[58.6,1932],[58.6,2015],[58.6,2098],[58.6,2181],[58.6,2265],[58.6,2348],[61.9,2432],[66.9,2515],[67.9,2598],[67.9,2682],[67.9,2765],[67.9,2848],[67.9,2931],[67.9,3014],[67.9,3098],[67.9,3181],[70.3,3264],[74,3348],[74,3431],[74,3514],[74,3597],[74,3681],[74,3764],[74,3847],[74,3931],[74,4014],[74,4097],[74,4181],[74,4264],[74,4348],[74,4430],[74,4514],[74,4597],[74,4680],[74,4765],[74,4848],[74,4930],[74,5014],[74,5097],[74,5180],[74,5263],[74,5347],[74,5430],[74,5513],[74,5596],[74,5680],[74,5763],[74,5847],[74,5930],[74,6013],[74,6096],[74,6180],[74,6263],[75.4,6347],[80.3,6430],[80.4,6513],[80.4,6596],[80.4,6679],[80.4,6762],[80.4,6846],[80.4,6929],[80.4,7012],[80.4,7096],[80.9,7179],[79.4,7262],[79.4,7346],[79.4,7429],[79.4,7512],[79.4,7596],[79.4,7679],[79.4,7762],[79.4,7846],[79.4,7929],[79.4,8012],[79.4,8095],[79.9,8179],[80.1,8262],[80.1,8345],[80.1,8428],[80.1,8512],[80.1,8595],[80.1,8678],[80.1,8762],[80.1,8846],[80.1,8928],[80.1,9012],[80.1,9096],[80.1,9178],[80.1,9261],[80.1,9345],[80.1,9428],[80.1,9511],[80.1,9594],[80.1,9678],[80.1,9761],[80.1,9844],[80.1,9928],[80.1,10011],[80.1,10094],[80.1,10177],[80.1,10261],[80.1,10344],[80.1,10428],[80.1,10511],[80.1,10594],[80.1,10677],[80.1,10761],[80.1,10844],[80.2,10928],[81.8,11011],[82.2,11094],[82.7,11178],[84,11261],[85,11344],[85,11427],[85,11510],[85,11594],[85,11677],[85,11760],[85,11844],[85,11927],[85,12010],[85,12094],[85,12177],[85,12260],[85.5,12344],[87.6,12427],[88,12510],[88.1,12594],[89.9,12676],[90.6,12760],[90.6,12843],[90.6,12926],[90.6,13010],[90.6,13093],[90.6,13176],[90.6,13259]]",670.4429,676.4232,92.70833333,1.2632,"[{""rating"":92.70833333333333,""responseTime"":1.26319999998816}]",space,5.4382,,676.4232,Not at all,0,676.4268,,,[],,0,1,1,1,1,audio/Narrative7Situation1.wav,audio/Narrative8Situation1.wav,audio/Narrative5Situation1.wav,audio/Narrative6Situation1.wav,2,5,5,2,,,,,,,,,,,,,,,,,,,,,,,,,,,,,,,,,,,,,,,
,,,,,5c7cf8b58ca9000001b52f6e,2025-07-07_22h15.10.918,group3.4_multiperson,2023.2.2,Win32,59.52380952,686c2ebf0248f13bef9af11f,686c7b9a726c714bb8223fa8,,,,,,,,,,,,,,,,,,,,,,,,,,,,,676.4275,2,audio/Narrative5Situation2.wav,679.4382,,679.4383,708.9076,"[[53.1,2833],[51.5,2915],[50.7,2998],[50.6,3082],[50.6,3164],[50.6,3248],[50.6,3331],[50.6,3415],[52.3,3498],[53.6,3581],[54.9,3665],[55.4,3748],[55.4,3831],[55.4,3914],[55.4,3998],[55.4,4081],[55.4,4164],[55.4,4247],[55.4,4331],[55.4,4414],[55.4,4497],[55.4,4581],[55.4,4664],[55.4,4747],[55.4,4831],[55.4,4914],[55.4,4997],[55.4,5080],[55.4,5164],[55.9,5248],[57.1,5330],[57.2,5415],[57.2,5497],[57.2,5580],[58.9,5664],[60.7,5747],[61,5830],[61,5913],[61,5997],[61,6080],[61,6163],[61,6246],[61,6330],[61,6413],[61,6496],[62.4,6580],[62.4,6663],[62.4,6746],[62.4,6830],[62.4,6913],[62.4,6996],[61.3,7081],[60,7165],[59.8,7246],[59.8,7329],[59.8,7413],[59.8,7496],[59.8,7579],[59.8,7662],[59.8,7746],[59.8,7829],[59.8,7912],[59.8,7996],[59.8,8079],[59.8,8162],[59.8,8246],[59.8,8329],[59.8,8412],[59.8,8495],[59.5,8579],[59.5,8662],[59.5,8745],[59.5,8829],[57,8912],[56.8,8995],[56.8,9078],[56.8,9162],[56.8,9245],[56.8,9328],[56.8,9412],[56.8,9495],[56.8,9578],[56.8,9662],[56.8,9745],[56.8,9828],[56.8,9912],[56.8,9995],[56.8,10078],[56.8,10161],[56.8,10245],[56.8,10328],[56.8,10411],[56.8,10494],[57.3,10577],[57.3,10661],[57.3,10744],[57.3,10828],[57.3,10911],[57.3,10995],[57.3,11077],[57.3,11161],[57.3,11244],[57.3,11329],[57.3,11411],[57.3,11494],[57.3,11577],[57.5,11661],[58.2,11744],[58.8,11827],[58.9,11911],[59,11994],[59.3,12077],[60.2,12160],[60.2,12244],[60.2,12327],[60.2,12411],[60.2,12494],[60.2,12577],[60.5,12661],[60.9,12743],[61.4,12827],[62.1,12910],[62.6,12993],[62.8,13076],[62.8,13160],[62.8,13243],[62.8,13326],[62.8,13409],[62.8,13493],[62.8,13576],[63.9,13660],[63.9,13743],[63.9,13826],[63.9,13909],[63.9,13993],[63.9,14076],[63.9,14159],[69.5,14243],[72.4,14326],[72.5,14409],[74.3,14493],[76.8,14576],[78.5,14659],[78.5,14742],[78.5,14826],[78.5,14909],[78.5,14992],[78.5,15076],[79.2,15159],[82.1,15242],[84.6,15326],[86.1,15409],[90.1,15493],[93.8,15576],[96.3,15659],[97.1,15742],[96.5,15825],[96.5,15908],[96.5,15991],[96.5,16075],[96.5,16158],[96.6,16241],[96.6,16325],[96.6,16408],[96.8,16491],[97.3,16575],[98.1,16658],[99.3,16741],[99.8,16825],[100,16908],[100,16991],[100,17075],[100,17158],[100,17241],[100,17325],[100,17408],[100,17491],[100,17574],[100,17658],[100,17741],[100,17825],[100,17908],[100,17991],[100,18074],[100,18157],[100,18240],[100,18324],[100,18407],[100,18490],[100,18574],[100,18657],[100,18740],[100,18823],[100,18907],[100,18990],[100,19073],[100,19157],[100,19240],[100,19323],[100,19407],[100,19490],[100,19573],[100,19657],[100,19740],[100,19823],[100,19906],[100,19990],[100,20073],[100,20156],[100,20240],[100,20323],[100,20406],[100,20489],[100,20573],[100,20656],[100,20739],[100,20823],[100,20906],[100,20989],[100,21072],[100,21156],[100,21239],[100,21322],[100,21406],[100,21489],[100,21572],[100,21656],[100,21739],[100,21822],[100,21906],[100,21989],[100,22072],[100,22155],[100,22239],[100,22322],[100,22405],[100,22489],[100,22572],[100,22655],[100,22738],[100,22822],[100,22905],[100,22988],[100,23071],[100,23155],[100,23238],[100,23321],[100,23405],[100,23488],[100,23571],[100,23654],[100,23738],[100,23821],[100,23904],[100,23988],[100,24071],[100,24154],[100,24238],[100,24321],[100,24404],[100,24488],[100,24571],[100,24654],[100,24737],[100,24821],[100,24904],[100,24987],[100,25070],[100,25154],[100,25237],[100,25320],[100,25404],[100,25487],[100,25570],[100,25654],[100,25737],[100,25820],[100,25903],[100,25987],[100,26070],[100,26153],[100,26236],[100,26320],[100,26403],[100,26486],[100,26570],[100,26653],[100,26736],[100,26820],[100,26903],[100,26986],[100,27069],[100,27153],[100,27236],[100,27319],[100,27403],[100,27486],[100,27593],[100,27669],[100,27753],[100,27836],[100,27919],[100,28002],[100,28086],[100,28169],[100,28252],[100,28336],[100,28419],[100,28502],[100,28586],[100,28669],[100,28752],[100,28836],[100,28918],[100,29002],[100,29085],[100,29168],[100,29252],[100,29335],[100,29418]]",708.908,712.5222,97.60416667,2.7233,"[{""rating"":97.60416666666667,""responseTime"":2.72329999995236}]",space,3.0725,,712.5226,Partially,50,716.5871,50.20833333,2.1915,"[{""rating"":50.208333333333336,""responseTime"":2.191500000000019}]",space,0,2,2,2,1,audio/Narrative7Situation2.wav,audio/Narrative8Situation2.wav,audio/Narrative5Situation2.wav,audio/Narrative6Situation2.wav,3,3,3,3,,,3.5219,,,,,,,,,,,,,,,,,,,,,,,,,,,,,,,,,,,,
,,,,,5c7cf8b58ca9000001b52f6e,2025-07-07_22h15.10.918,group3.4_multiperson,2023.2.2,Win32,59.52380952,686c2ebf0248f13bef9af11f,686c7b9a726c714bb8223fa8,,,,,,,,,,,,,,,,,,,,,,,,,,,,,716.5879,2,audio/Narrative5Situation3.wav,719.602,,719.602,733.5118,"[[999,0],[999,82],[999,166],[999,249],[999,332],[999,416],[999,499],[999,582],[999,666],[999,749],[999,832],[999,915],[999,999],[999,1082],[999,1166],[999,1249],[999,1332],[50.1,1416],[49.5,1499],[49.1,1582],[49,1666],[49,1748],[49,1832],[49,1915],[49.1,1999],[49.7,2082],[50.2,2165],[50.2,2249],[50.2,2332],[50.2,2415],[50.2,2498],[50.2,2581],[50.2,2665],[50.2,2748],[50.2,2831],[52,2915],[53.5,2998],[53.5,3081],[53.5,3164],[53.5,3247],[53.5,3331],[53.6,3414],[55.1,3498],[60.1,3581],[61.9,3665],[61.9,3747],[61.9,3831],[61.9,3914],[61.9,3997],[61.9,4081],[63.1,4164],[64.9,4247],[64.9,4330],[64.9,4414],[64.9,4497],[64.9,4580],[64.9,4664],[64.9,4747],[64.9,4830],[64.9,4914],[66.8,4997],[66.8,5080],[66.8,5163],[66.8,5247],[66.8,5330],[66.8,5413],[66.8,5497],[66.8,5580],[66.8,5663],[66.8,5746],[66.8,5830],[66.8,5913],[66.8,5996],[66.8,6080],[66.8,6163],[66.8,6246],[66.8,6330],[66.8,6413],[66.8,6496],[66.8,6579],[66.8,6663],[66.8,6746],[66.8,6829],[66.8,6913],[66.8,6996],[66.8,7079],[66.8,7163],[66.8,7246],[66.8,7329],[66.8,7412],[66.8,7495],[67,7579],[67,7662],[67.5,7746],[67.7,7829],[67.8,7912],[67.8,7995],[68.3,8079],[68.3,8162],[68.8,8245],[69.3,8329],[69.3,8412],[69.3,8495],[69.3,8578],[69.3,8662],[69.3,8745],[69.3,8828],[69.3,8912],[69.3,8995],[69.3,9078],[69.3,9161],[69.3,9245],[69.3,9328],[69.3,9411],[69.3,9495],[69.3,9578],[70.4,9661],[70.4,9745],[70.5,9828]]",733.5121,738.5593,92.39583333,3.2898,"[{""rating"":78.54166666666667,""responseTime"":2.5559999999999263},{""rating"":92.39583333333333,""responseTime"":3.2898000000118373}]",space,4.5018,,738.5595,Definitely yes,100,738.5689,,,[],,0,3,3,3,1,audio/Narrative7Situation3.wav,audio/Narrative8Situation3.wav,audio/Narrative5Situation3.wav,audio/Narrative6Situation3.wav,8,4,3,5,,,,,,,,,,,,,,,,,,,,,,,,,,,,,,,,,,,,,,,
,,,,,5c7cf8b58ca9000001b52f6e,2025-07-07_22h15.10.918,group3.4_multiperson,2023.2.2,Win32,59.52380952,686c2ebf0248f13bef9af11f,686c7b9a726c714bb8223fa8,,,,,,,,,,,,,,,,,,,,,,,,,,,,,738.5696,2,audio/Narrative5Situation4.wav,739.5759,,739.576,759.9841,"[[999,1],[999,82],[999,166],[999,249],[75.2,333],[76.3,416],[76.5,499],[76.5,582],[76.5,665],[76.5,748],[76.5,832],[76.5,915],[76.9,999],[76.9,1082],[76.9,1165],[76.9,1248],[76.9,1332],[76.9,1415],[76.9,1498],[76.9,1582],[76.9,1665],[76.9,1748],[76.9,1831],[76.9,1915],[76.9,1998],[76.9,2081],[76.9,2164],[76.9,2248],[76.9,2331],[76.9,2414],[76.9,2497],[76.9,2581],[76.9,2664],[76.9,2748],[76.9,2831],[76.9,2914],[76.9,2997],[76.9,3081],[76.9,3164],[76.9,3247],[76.9,3331],[76.9,3414],[76.9,3497],[76.9,3580],[76.9,3664],[76.9,3747],[76.9,3830],[76.9,3913],[76.9,3997],[76.9,4080],[76.9,4163],[76.9,4247],[76.9,4330],[76.9,4413],[76.9,4497],[76.9,4580],[76.9,4663],[76.9,4746],[76.9,4830],[76.9,4913],[74.4,4997],[70.8,5080],[66,5163],[60.6,5247],[55.7,5330],[55.1,5413],[53.9,5497],[53.1,5579],[53.1,5663],[53.1,5746],[53.1,5829],[52.6,5913],[52.6,5996],[52.6,6079],[52.6,6163],[52.6,6246],[52.6,6329],[52.5,6412],[52.5,6496],[52.5,6579],[52.5,6662],[52.5,6745],[52.5,6829],[52.5,6912],[52.5,6995],[52.5,7079],[52.5,7162],[52.5,7246],[52.5,7328],[52.5,7412],[52.5,7495],[52.5,7579],[52.5,7662],[52.5,7745],[52.5,7828],[52.5,7912],[52.5,7995],[52.5,8078],[52.5,8162],[52.5,8245],[52.4,8328],[51.8,8411],[51.8,8495],[51.8,8578],[51.8,8661],[51.5,8745],[51.4,8828],[51.4,8911],[51.4,8994],[51.8,9078],[53,9161],[53,9244],[56.3,9328],[57.4,9411],[59.9,9494],[61.5,9578],[62.4,9661],[62.8,9744],[64.3,9827],[66.5,9911],[68.6,9994],[70.6,10078],[70.6,10161],[70.6,10244],[70.6,10328],[71.1,10410],[71.3,10494],[71.3,10577],[71.3,10660],[71.3,10744],[71.3,10827],[71.3,10910],[71.3,10993],[71.3,11077],[71.3,11160],[71.3,11243],[71.3,11327],[71.3,11410],[71.3,11493],[71.3,11576],[71.3,11660],[71.8,11743],[73.5,11827],[74,11910],[74.4,11993],[75.2,12076],[76.5,12159],[76.5,12243],[76.5,12326],[76.5,12409],[76.5,12493],[76.5,12576],[76.5,12659],[76.5,12743],[76.5,12826],[76.5,12909],[76.5,12992],[77.2,13076],[78.9,13159],[78.9,13242],[78.9,13326],[78.9,13409],[78.9,13492],[78.9,13575],[78.9,13659],[78.9,13742],[78.9,13825],[78.9,13909],[78.9,13992],[78.9,14075],[78.9,14158],[78.9,14242],[78.9,14325],[78.9,14408],[78.9,14492],[78.9,14575],[78.9,14658],[78.9,14742],[78.9,14825],[78.9,14908],[78.9,14991],[78.9,15075],[78.9,15158],[78.9,15242],[78.9,15325],[78.9,15408],[78.9,15491],[78.9,15574],[78.9,15658],[78.9,15741],[78.9,15824],[79.5,15908],[79.8,15991],[79.9,16075],[80.2,16158],[80.2,16241],[80.5,16324],[80.9,16426],[81.6,16516],[81.6,16591],[81.6,16674],[82.5,16758],[83.1,16841],[83.6,16924],[83.9,17007],[84,17091],[84.5,17174],[84.5,17257],[84.5,17340],[84.5,17424],[84.5,17507],[84.5,17590],[84.9,17676],[88.9,17757],[88.9,17840],[88.9,17923],[88.9,18007],[88.9,18090],[88.9,18175],[89.6,18257],[90,18340],[92.2,18424],[92.6,18507],[92.6,18590],[92.6,18673],[92.6,18756],[92.6,18840],[96.9,18924],[100,19006],[100,19089],[100,19173],[100,19256],[100,19339],[100,19423],[100,19507],[100,19589],[99.4,19673],[99.3,19756],[99,19840],[98.2,19923],[97.4,20006],[97.1,20089],[93.6,20173]]",759.9844,763.5142,99.16666667,1.4456,"[{""rating"":99.16666666666667,""responseTime"":1.4455999999643154}]",space,2.986,,763.5144,Partially,50,763.5228,,,[],,0,4,4,4,1,audio/Narrative7Situation4.wav,audio/Narrative8Situation4.wav,audio/Narrative5Situation4.wav,audio/Narrative6Situation4.wav,3,3,1,2,,,,,,,,,,,,,,,,,,,,,,,,,,,,,,,,,,,,,,,
,,,,,5c7cf8b58ca9000001b52f6e,2025-07-07_22h15.10.918,group3.4_multiperson,2023.2.2,Win32,59.52380952,686c2ebf0248f13bef9af11f,686c7b9a726c714bb8223fa8,,,,,,,,,,,,,,,,,,,,,,,,,,,,,763.5233,2,audio/Narrative5Situation5.wav,768.5279,,768.528,783.9535,"[[999,1],[999,83],[999,166],[999,249],[999,332],[999,416],[999,499],[999,583],[999,667],[999,749],[999,832],[999,916],[999,999],[999,1083],[999,1166],[999,1249],[999,1332],[47.8,1416],[47.3,1507],[47.3,1582],[47.3,1665],[47.3,1748],[47.3,1832],[47.7,1916],[47.6,1998],[48.5,2082],[49.4,2166],[49.5,2248],[49.5,2331],[49.5,2415],[49.5,2503],[49.5,2581],[49.5,2665],[49.5,2748],[49.5,2831],[49.5,2915],[49.5,2998],[49.5,3081],[49.5,3164],[49.5,3248],[49.5,3331],[49.5,3414],[49.5,3498],[49.5,3581],[49.5,3664],[49.5,3748],[49.5,3831],[49.5,3914],[49.5,3998],[50,4081],[50,4164],[50,4247],[50,4330],[50,4414],[50,4498],[50,4580],[50.1,4664],[50.4,4747],[50.5,4830],[50.5,4913],[50.5,4997],[50.5,5080],[50.5,5163],[50.5,5247],[50.5,5330],[50.5,5413],[50.5,5497],[50.5,5580],[50.5,5663],[50.5,5746],[50.5,5830],[50.5,5913],[50.5,5996],[50.5,6080],[50.5,6163],[50.5,6246],[50.5,6330],[50.5,6413],[50.5,6508],[50.5,6580],[50.5,6662],[50.5,6746],[50.5,6829],[50.5,6912],[50.5,6996],[50.5,7079],[50.5,7163],[50.5,7246],[50.5,7329],[50.5,7412],[50.5,7496],[50.5,7579],[50.5,7662],[50.5,7745],[50.5,7829],[50.5,7912],[50.5,7995],[50.5,8079],[50.5,8162],[50.5,8245],[50.5,8329],[50.5,8412],[50.5,8496],[50.5,8578],[50.5,8662],[50.5,8745],[50.5,8829],[50.7,8912],[50.7,8995],[50.7,9078],[50.7,9161],[50.7,9245],[50.7,9328],[50.7,9411],[50.7,9495],[50.7,9578],[50.7,9661],[50.7,9744],[50.7,9828],[50.7,9911],[50,9994],[49.8,10078],[49.6,10161],[48.1,10245],[47.4,10329],[47,10412],[46.5,10497],[46.3,10577],[46.1,10661],[46.1,10744],[46.1,10827],[46.1,10910],[46.1,10994],[46.1,11077],[46.1,11161],[46.1,11244],[46.1,11327],[46.1,11410],[46.1,11494],[46.1,11577],[46.1,11671],[46.1,11767],[46.1,11844],[46.1,11927],[46.1,12010],[46.1,12093],[46.1,12177],[46.1,12260],[46.1,12343],[45.8,12427],[45.4,12510],[45.1,12594],[44.7,12677],[44.6,12760],[44.4,12843],[44,12927],[42.9,13010],[42.1,13093],[41.7,13176],[41.7,13259],[41.7,13343],[41.7,13426],[41.7,13509],[41.7,13592],[41.7,13676],[41.7,13759],[41.7,13842],[41.7,13926],[41.7,14009],[41.7,14093],[41.7,14176],[41.7,14260],[41.7,14342],[41.7,14425],[40.3,14509],[39.5,14592],[37.7,14676],[35.1,14759],[32.1,14843],[31.1,14925],[30.4,15009],[30.4,15094],[30.4,15175],[30.4,15258],[30.4,15341],[30.4,15425]]",783.9537,788.3847,22.91666667,1.7744,"[{""rating"":27.8125,""responseTime"":0.81510000002379},{""rating"":27.8125,""responseTime"":0.9260000000000446},{""rating"":22.916666666666668,""responseTime"":1.7744000000357119}]",space,3.8863,,788.3848,Not at all,0,788.3934,,,[],,0,5,5,5,1,audio/Narrative7Situation5.wav,audio/Narrative8Situation5.wav,audio/Narrative5Situation5.wav,audio/Narrative6Situation5.wav,5,2,5,2,,,,,,,,,,,,,,,,,,,,,,,,,,,,,,,,,,,,,,,
,,,,,5c7cf8b58ca9000001b52f6e,2025-07-07_22h15.10.918,group3.4_multiperson,2023.2.2,Win32,59.52380952,686c2ebf0248f13bef9af11f,686c7b9a726c714bb8223fa8,,,,,,,,,,,,,,,,,,,,,,,,,,,,,788.3941,2,audio/Narrative5Situation6.wav,791.3999,,791.3999,797.0806,"[[999,0],[999,83],[999,166],[999,250],[999,332],[999,416],[999,499],[999,583],[999,667],[999,749],[999,834],[999,916],[999,999],[999,1082],[999,1165],[999,1249],[999,1332],[999,1416],[999,1500],[999,1584],[52.2,1665],[52.2,1749],[52.2,1832],[52.2,1915],[52.2,1998],[51.7,2084],[51.7,2165],[51.7,2248],[51.7,2332],[51.7,2415],[51.7,2498],[51.7,2581],[51.7,2665],[52.6,2749],[57.4,2832],[58.3,2915],[59.5,2998],[60.4,3081],[61.8,3165],[66.9,3249],[72,3332],[72,3414],[72,3498],[72,3581],[72,3664],[72,3748],[72,3831],[72.1,3914],[72.1,3997],[72.1,4081],[72.1,4164],[72.1,4247],[72.1,4331],[72.1,4414],[72.1,4497],[72.1,4580],[72.1,4664],[72.1,4747],[72.1,4830],[72.1,4914],[72.1,4997],[72.1,5080],[72.1,5164],[72.1,5247],[72.1,5330],[72.1,5414],[72.1,5497],[72.1,5580],[72.1,5663]]",797.0808,801.6283,92.70833333,3.4048,"[{""rating"":83.64583333333333,""responseTime"":2.345699999988028},{""rating"":92.70833333333333,""responseTime"":3.40480000001196}]",space,4.0004,,801.6284,Partially,50,801.6329,,,[],,0,6,6,6,1,audio/Narrative7Situation6.wav,audio/Narrative8Situation6.wav,audio/Narrative5Situation6.wav,audio/Narrative6Situation6.wav,3,2,3,2,,,,,,,,,,,,,,,,,,,,,,,,,,,,,,,,,,,,,,,
,,,,,5c7cf8b58ca9000001b52f6e,2025-07-07_22h15.10.918,group3.4_multiperson,2023.2.2,Win32,59.52380952,686c2ebf0248f13bef9af11f,686c7b9a726c714bb8223fa8,,,,,,,,,,,,,,,,,,,,,,,,,,,,,801.6334,2,audio/Narrative5Situation7.wav,805.6386,,805.6387,826.6657,"[[999,0],[999,77],[999,155],[999,237],[999,320],[999,404],[999,487],[999,570],[999,654],[999,738],[999,821],[999,904],[999,987],[999,1070],[999,1153],[999,1237],[999,1320],[999,1403],[47,1487],[52.7,2237],[52.7,2319],[52.7,2403],[52.1,2486],[51.4,2569],[50.6,2652],[50.6,2736],[50.6,2819],[50.6,2902],[50.6,2985],[50.6,3069],[50.6,3152],[51.5,3236],[53.6,3319],[54.1,3402],[55.8,3486],[55.9,3569],[55.9,3652],[55.9,3735],[55.9,3819],[55.9,3902],[55.9,3985],[55.9,4068],[55.9,4152],[55.9,4247],[56.7,4331],[57.7,4406],[58.8,4495],[58.9,4568],[58.9,4651],[58.9,4734],[58.9,4818],[58.9,4901],[58.9,4985],[58.9,5068],[58.9,5151],[58.9,5235],[59.6,5318],[59.9,5402],[62,5485],[62.2,5567],[62.2,5651],[62.2,5734],[62.8,5817],[62.8,5901],[62.8,5984],[62.8,6067],[62.8,6150],[62.8,6234],[62.8,6317],[62.8,6400],[62.8,6484],[62.8,6567],[62.8,6650],[62.8,6733],[62.8,6817],[62.8,6900],[62.8,6984],[62.8,7067],[62.8,7150],[62.8,7233],[62.8,7317],[63.8,7400],[67.2,7484],[67.7,7568],[70,7650],[70.3,7733],[70.3,7816],[70.3,7900],[70.4,7984],[71.7,8067],[71.7,8149],[71.7,8233],[72,8316],[73.4,8400],[75.9,8483],[79.3,8567],[80.9,8649],[83.4,8733],[86.3,8816],[86.7,8899],[86.7,8985],[88.1,9066],[89.1,9149],[89.1,9232],[89.1,9316],[89.1,9399],[89.1,9482],[89.1,9566],[89.6,9649],[91.5,9733],[93.5,9818],[94.1,9899],[94.4,9983],[94.4,10065],[95.3,10149],[95.6,10232],[96,10315],[96,10398],[96,10482],[96,10565],[96,10648],[96,10731],[96,10815],[96,10899],[96,10984],[96,11065],[96,11148],[96,11231],[96,11314],[96,11398],[96,11481],[96,11564],[96,11648],[96,11731],[96,11815],[96,11898],[96,11981],[96,12064],[96,12147],[96,12231],[96,12314],[96,12397],[96,12480],[96,12564],[96,12647],[96,12730],[96,12814],[96,12897],[96,12980],[96,13064],[96,13147],[96,13230],[96,13313],[96,13397],[96,13480],[96.5,13564],[98.9,13647],[99.7,13730],[100,13814],[100,13897],[100,13980],[100,14063],[100,14146],[100,14230],[100,14313],[100,14397],[100,14480],[100,14563],[100,14646],[100,14730],[100,14813],[100,14896],[100,14980],[100,15063],[100,15146],[100,15230],[100,15313],[100,15396],[100,15479],[100,15563],[100,15646],[100,15729],[100,15812],[100,15896],[100,15979],[100,16062],[100,16145],[100,16229],[100,16312],[100,16395],[100,16479],[100,16562],[100,16645],[100,16729],[100,16812],[100,16895],[100,16979],[100,17062],[100,17145],[100,17228],[100,17312],[100,17395],[100,17478],[100,17562],[100,17645],[100,17728],[100,17811],[100,17895],[100,17978],[100,18061],[100,18145],[100,18228],[100,18311],[100,18395],[100,18478],[100,18561],[100,18644],[100,18728],[100,18811],[100,18894],[100,18977],[100,19061],[100,19144],[100,19227],[100,19311],[100,19394],[100,19477],[100,19560],[100,19644],[100,19727],[100,19810],[100,19894],[100,19977],[100,20060],[100,20144],[100,20227],[100,20310],[100,20393],[100,20477],[100,20560],[100,20643],[100,20726],[100,20810]]",826.6659,832.5629,100,3.9409,"[{""rating"":98.125,""responseTime"":0.8766000000238137},{""rating"":98.125,""responseTime"":0.9631000000238146},{""rating"":100,""responseTime"":3.9409000000357537}]",space,5.3521,,832.563,Definitely yes,100,832.57,,,[],,0,7,7,7,1,audio/Narrative7Situation7.wav,audio/Narrative8Situation7.wav,audio/Narrative5Situation7.wav,audio/Narrative6Situation7.wav,5,3,4,5,,,,,,,,,,,,,,,,,,,,,,,,,,,,,,,,,,,,,,,
,,,,,5c7cf8b58ca9000001b52f6e,2025-07-07_22h15.10.918,group3.4_multiperson,2023.2.2,Win32,59.52380952,686c2ebf0248f13bef9af11f,686c7b9a726c714bb8223fa8,,,,,,,,,,,,,,,,,,,,,,,,,,,,,832.5705,2,audio/Narrative5Situation8.wav,835.578,,835.5781,844.4073,"[[999,0],[999,89],[999,166],[999,249],[999,332],[999,416],[999,499],[999,582],[999,666],[999,749],[999,832],[999,916],[999,999],[999,1082],[999,1165],[999,1249],[999,1332],[999,1415],[999,1499],[999,1582],[999,1666],[999,1748],[999,1832],[999,1916],[999,1999],[999,2082],[999,2165],[999,2248],[999,2331],[999,2415],[999,2498],[999,2583],[999,2684],[999,2765],[999,2848],[999,2932],[51.9,3015],[51.5,3098],[51.4,3182],[51.4,3264],[51.4,3347],[51.4,3431],[51.4,3514],[51.6,3598],[52.6,3682],[52.9,3765],[52.9,3847],[52.9,3931],[53.6,4014],[53.6,4097],[53.6,4181],[53.6,4264],[53.6,4347],[53.6,4430],[53.6,4514],[53.6,4597],[53.6,4681],[53.6,4764],[55.1,4847],[56.5,4931],[57.5,5015],[57.7,5097],[57.7,5180],[57.7,5264],[57.7,5347],[57.7,5430],[57.7,5513],[57.7,5597],[57.8,5680],[57.8,5764],[57.8,5846],[57.8,5930],[57.8,6013],[59,6097],[59.9,6180],[61.1,6263],[61.1,6346],[61.1,6430],[61.1,6513],[64.3,6597],[65.3,6680],[65.7,6763],[66.7,6846],[68.3,6931],[70.3,7013],[71.6,7096],[72.4,7179],[72.5,7262],[72.5,7346],[72.5,7429],[72.5,7512],[72.5,7595],[72.5,7679],[72.5,7762],[72.5,7845],[72.5,7929],[72.5,8012],[72.5,8095],[72.5,8178],[72.5,8262],[79.8,8346],[81.6,8428],[81.6,8512],[83.1,8595],[83.1,8678],[83.1,8762]]",844.4074,849.0881,75.625,2.8716,"[{""rating"":75.625,""responseTime"":2.796300000011911},{""rating"":75.625,""responseTime"":2.871600000023932}]",space,4.1335,,849.0881,Definitely yes,100,849.0907,,,[],,0,8,8,8,1,audio/Narrative7Situation8.wav,audio/Narrative8Situation8.wav,audio/Narrative5Situation8.wav,audio/Narrative6Situation8.wav,2,3,3,5,,,,,,,,,,,,,,,,,,,,,,,,,,,,,,,,,,,,,,,
,,,,,5c7cf8b58ca9000001b52f6e,2025-07-07_22h15.10.918,group3.4_multiperson,2023.2.2,Win32,59.52380952,686c2ebf0248f13bef9af11f,686c7b9a726c714bb8223fa8,,,,,,,,,,,,,,,,,,,,,,,,,,,,,849.0911,2,audio/Narrative5Situation9.wav,852.1031,,852.1032,891.6507,"[[71,832],[52.8,1166],[52,1249],[49.1,1332],[48.4,1415],[48.4,1498],[48.4,1582],[48.4,1665],[49.2,1749],[49.6,1832],[49.8,1915],[51.1,1998],[52,2082],[52.5,2165],[53.4,2248],[55.6,2332],[55.6,2415],[55.6,2498],[55.6,2581],[55.6,2665],[55.6,2748],[55.6,2831],[55.6,2915],[56.4,2998],[57.2,3081],[57.7,3164],[57.7,3248],[57.7,3331],[59.3,3448],[59.6,3531],[62.1,3615],[62.9,3698],[62.9,3781],[62.9,3864],[62.9,3947],[62.9,4031],[62.9,4114],[62.9,4197],[62.9,4281],[62.9,4364],[62.9,4447],[62.9,4531],[62.9,4614],[62.9,4697],[62.9,4780],[63.5,4864],[64.8,4947],[66.9,5031],[67,5113],[67,5197],[67.1,5281],[67.8,5363],[67.8,5447],[67.8,5530],[67.8,5613],[67.8,5696],[67.8,5780],[67.8,5863],[67.8,5946],[69.8,6030],[72.5,6113],[72.8,6197],[73.3,6280],[73.8,6363],[73.8,6446],[73.8,6529],[73.8,6613],[73.8,6696],[73.8,6779],[73.8,6863],[75.5,6946],[78.3,7031],[80.2,7113],[81.9,7196],[83.1,7280],[83.6,7363],[83.9,7446],[84.1,7529],[84.7,7613],[86.8,7696],[88.9,7780],[89.5,7862],[90.7,7946],[91.9,8029],[92.3,8112],[92.7,8196],[93.4,8279],[94.9,8363],[96.3,8446],[97.4,8529],[98.4,8612],[98.6,8695],[99.5,8779],[100,8862],[100,8945],[100,9028],[100,9112],[100,9195],[100,9278],[100,9361],[100,9445],[100,9528],[100,9612]]",891.6508,899.2967,100,3.3394,"[{""rating"":99.58333333333333,""responseTime"":2.1416999999880773},{""rating"":99.58333333333333,""responseTime"":2.208099999964247},{""rating"":99.58333333333333,""responseTime"":2.8083000000119682},{""rating"":100,""responseTime"":3.207099999964271},{""rating"":100,""responseTime"":3.3393999999761945}]",space,7.0992,,899.2968,Definitely yes,100,899.3006,,,[],,0,9,9,9,1,audio/Narrative7Situation9.wav,audio/Narrative8Situation9.wav,audio/Narrative5Situation9.wav,audio/Narrative6Situation9.wav,2,3,3,4,,,,,,,,,,,,,,,,,,,,,,,,,,,,,,,,,,,,,,,
,,,,,5c7cf8b58ca9000001b52f6e,2025-07-07_22h15.10.918,group3.4_multiperson,2023.2.2,Win32,59.52380952,686c2ebf0248f13bef9af11f,686c7b9a726c714bb8223fa8,,,,,,,,,,,,,,,,,,,,,,,,,,,,,899.3013,2,audio/Narrative6Situation1.wav,901.3122,,901.3122,927.899,"[[100,1582],[94.5,1665],[94.5,1749],[94.5,1832],[94.5,1915],[94.5,1998],[94.5,2082],[94.5,2165],[94.5,2248],[94.5,2331],[94.5,2415],[94.5,2498],[94.5,2581],[94.5,2665],[94.5,2748],[94.5,2831],[94.5,2915],[94.5,2998],[94.5,3081],[94.5,3165],[94.5,3248],[94.5,3331],[94.5,3414],[94.5,3498],[94.5,3581],[94.5,3664],[94.5,3748],[94.5,3831],[94.5,3914],[94.5,3997],[94.5,4081],[94.5,4164],[94.5,4247],[94.5,4331],[94.5,4414],[94.3,4497],[84.3,4581],[69.3,4714],[63.1,4797],[53.9,4880],[48.5,4964],[48.5,5047],[48.5,5130],[50.1,5214],[51.6,5297],[52.8,5380],[53.9,5464],[55.5,5547],[56.8,5630],[57.3,5713],[60.4,5797],[63.1,5896],[63.3,5980],[63.3,6063],[63.3,6146],[64.4,6230],[64.7,6313],[64.9,6396],[64.6,6480],[64.4,6563],[64.4,6646],[64.4,6729],[64.4,6813],[66,6896],[75.1,6979],[75.1,7063],[75.1,7146],[75.1,7229],[75.1,7312],[75.1,7396],[75.1,7479],[75.1,7562],[75.4,7645],[75.6,7729],[75.8,7813],[75.9,7895],[75.9,7979],[75.9,8062],[76,8145],[76,8229],[76,8312],[76,8396],[76,8512],[76.3,8595],[77,8679],[77.4,8762],[77.4,8845],[77.4,8929],[77.6,9012],[78,9096],[78,9178],[78,9261],[78.1,9345],[78.5,9429],[78.5,9511],[78.5,9595],[78.5,9678],[78.5,9762],[78.5,9845],[78.5,9928],[78.5,10011],[78.6,10095],[78.8,10178],[79.1,10261],[79.3,10344],[79.3,10428],[79.8,10511],[80.5,10594],[80.8,10678],[81.5,10762],[82.7,10845],[83.1,10930],[83.2,11011],[83.3,11096],[83.3,11177],[83.3,11261],[83.3,11346],[83.6,11428],[85.1,11512],[85.2,11594],[85.2,11677],[85.2,11760],[85.2,11844],[85.2,11927],[85.2,12011],[85.2,12094],[85.2,12177],[85.2,12261],[85.2,12344],[85.2,12427],[85.2,12510],[85.2,12593],[85.2,12676],[85.2,12760],[85.2,12843],[85.2,12926],[85.2,13009],[85.2,13093],[85.3,13177],[86.5,13260],[88.3,13343],[90.6,13427],[91.6,13510],[91.7,13593],[92.1,13676],[93,13759],[93,13842],[94.2,13926],[94.8,14009],[96,14093],[97.3,14178],[98.6,14259],[98.9,14342],[99.4,14426],[100,14509],[100,14592],[100,14675],[100,14759],[100,14842],[100,14926],[100,15009],[100,15092],[100,15176],[100,15259],[100,15344],[100,15425],[100,15509],[100,15592],[100,15675],[100,15758],[100,15842],[100,15925],[100,16008],[100,16091],[100,16175],[100,16258],[100,16341],[100,16425],[100,16508],[100,16591],[100,16674],[100,16758],[100,16841],[100,16925],[100,17010],[100,17091],[100,17174],[100,17258],[100,17341],[100,17425],[100,17508],[100,17591],[100,17674],[100,17757],[100,17841],[100,17924],[100,18007],[100,18091],[100,18174],[100,18258],[100,18340],[100,18424],[100,18507],[100,18591],[100,18673],[100,18757],[100,18840],[100,18923],[100,19006],[100,19090],[100,19173],[100,19257],[100,19340],[100,19423],[100,19506],[100,19590],[100,19673],[100,19756],[100,19840],[100,19923],[100,20006],[100,20089],[100,20173],[100,20256],[100,20339],[100,20423],[100,20506],[100,20589],[100,20672],[100,20756],[100,20839],[100,20924],[100,21006],[100,21089],[100,21173],[100,21256],[100,21339],[100,21422],[100,21505],[100,21589],[100,21672],[100,21755],[100,21839],[100,21922],[100,22005],[100,22089],[100,22172],[100,22255],[100,22338],[100,22422],[100,22505],[100,22588],[100,22672],[100,22755],[100,22838],[100,22921],[100,23005],[100,23088],[100,23171],[100,23255],[100,23338],[100,23421],[100,23504],[100,23588],[100,23671],[100,23754],[100,23838],[100,23921],[100,24004],[100,24088],[100,24171],[100,24254],[100,24337],[100,24421],[100,24504],[100,24587],[100,24671],[100,24754],[100,24837],[100,24920],[100,25004],[100,25087],[100,25170],[100,25254],[100,25337],[100,25420],[100,25503],[100,25587],[100,25670],[100,25753],[100,25837],[100,25920],[100,26003],[100,26087],[100,26170],[100,26253],[100,26336],[100,26420],[100,26503],[100,26586]]",927.8991,931.0809,99.27083333,2.7567,"[{""rating"":99.27083333333333,""responseTime"":2.69660000002375},{""rating"":99.27083333333333,""responseTime"":2.7567000000476582}]",space,2.6353,,931.0809,Not at all,0,931.0851,,,[],,0,10,10,10,1,audio/Narrative8Situation1.wav,audio/Narrative7Situation1.wav,audio/Narrative6Situation1.wav,audio/Narrative5Situation1.wav,5,2,2,5,,,,,,,,,,,,,,,,,,,,,,,,,,,,,,,,,,,,,,,
,,,,,5c7cf8b58ca9000001b52f6e,2025-07-07_22h15.10.918,group3.4_multiperson,2023.2.2,Win32,59.52380952,686c2ebf0248f13bef9af11f,686c7b9a726c714bb8223fa8,,,,,,,,,,,,,,,,,,,,,,,,,,,,,931.0854,2,audio/Narrative6Situation2.wav,934.097,,934.097,962.5988,"[[49.9,833],[50,915],[50,998],[50,1081],[50,1164],[50,1248],[50,1331],[50,1414],[50,1498],[50,1581],[50,1664],[50,1747],[50,1831],[50,1914],[50,1997],[50,2081],[50,2164],[50,2247],[50,2331],[50,2414],[50,2497],[50,2581],[50,2664],[50,2747],[50,2831],[50,2914],[50,2997],[50,3080],[50.1,3165],[51.6,3248],[51.9,3330],[51.9,3413],[51.9,3497],[51.9,3580],[51.9,3663],[51.9,3747],[51.9,3830],[51.6,3914],[49.8,3997],[49.2,4080],[48.5,4164],[47.7,4247],[47.7,4330],[47.7,4413],[47,4497],[46.8,4579],[46.8,4663],[46.5,4746],[46.5,4829],[46.5,4913],[46.5,4996],[46.5,5079],[46.5,5162],[46.5,5246],[46.5,5329],[46.5,5413],[46.5,5496],[46.5,5579],[46.5,5662],[46.5,5745],[46.5,5829],[46.5,5912],[46.5,5995],[46.5,6079],[46.5,6162],[46.5,6245],[46.5,6329],[46.5,6412],[46.5,6495],[46.5,6578],[46.5,6662],[46.5,6745],[46.5,6828],[46.5,6912],[46.5,6995],[46.5,7078],[46.5,7161],[46.5,7245],[46.5,7328],[50.5,7412],[52.7,7495],[52.7,7578],[53.5,7662],[54,7746],[54.2,7829],[55.1,7912],[55.3,7995],[55.7,8078],[55.7,8161],[56.1,8245],[56.7,8328],[57.1,8411],[57.1,8495],[57.1,8577],[57.1,8661],[57.2,8744],[59.2,8828],[60.4,8912],[62.6,8995],[64.4,9078],[64.8,9161],[64.8,9244],[64.8,9327],[64.8,9410],[64.8,9494],[64.8,9577],[64.8,9660],[64.8,9744],[64.8,9827],[64.8,9910],[64.8,9993],[64.8,10078],[64.8,10160],[64.8,10244],[64.8,10327],[64.8,10410],[64.8,10493],[64.8,10577],[64.8,10660],[64.8,10743],[64.8,10826],[64.8,10910],[64.8,10993],[66.3,11079],[69.1,11161],[70.2,11243],[73.3,11328],[75,11410],[76.1,11493],[77.1,11576],[77.3,11659],[77.3,11743],[77.4,11826],[83,11909],[84.6,11993],[84.7,12076],[86.8,12159],[86.9,12242],[87.6,12326],[98.2,12410],[98.4,12492],[98.4,12576],[100,12660],[100,12743],[100,12826],[100,12909],[100,12993],[100,13076],[100,13159],[100,13242],[100,13325],[100,13408],[100,13492],[100,13575],[100,13658],[100,13742],[100,13825],[100,13908],[100,13992],[100,14075],[100,14158],[100,14242],[100,14325],[100,14408],[100,14491],[100,14574],[100,14658],[100,14741],[100,14824],[100,14908],[100,14991],[100,15074],[100,15158],[100,15241],[100,15324],[100,15408],[100,15491],[100,15574],[100,15657],[100,15741],[100,15824],[100,15907],[100,15991],[100,16074],[100,16157],[100,16240],[100,16324],[100,16407],[100,16490],[100,16574],[100,16657],[100,16740],[100,16823],[100,16908],[100,16990],[100,17073],[100,17157],[100,17240],[100,17323],[100,17406],[100,17490],[100,17573],[100,17656],[100,17740],[100,17823],[100,17906],[100,17990],[100,18073],[100,18156],[100,18240],[100,18323],[100,18406],[100,18489],[100,18573],[100,18656],[100,18739],[100,18823],[100,18906],[100,18989],[100,19072],[100,19156],[100,19239],[100,19322],[100,19405],[100,19489],[100,19572],[100,19655],[100,19739],[100,19822],[100,19905],[100,19989],[100,20072],[100,20155],[100,20238],[100,20322],[100,20405],[100,20488],[100,20572],[100,20655],[100,20738],[100,20821],[100,20905],[100,20988],[100,21072],[100,21155],[100,21238],[100,21322],[100,21405],[100,21488],[100,21571],[100,21654],[100,21738],[100,21821],[100,21904],[100,21988],[100,22071],[100,22154],[100,22237],[100,22321],[100,22404],[100,22487],[100,22571],[100,22654],[100,22737],[100,22821],[100,22904],[100,22987],[100,23071],[100,23154],[100,23237],[100,23320],[100,23404],[100,23499],[100,23570],[100,23654],[100,23737],[100,23820],[100,23903],[100,23987],[100,24070],[100,24153],[100,24237],[100,24320],[100,24403],[100,24487],[100,24570],[100,24656],[100,24736],[100,24820],[100,24903],[100,24990],[100,25069],[100,25153],[100,25236],[100,25319],[100,25403],[100,25486],[100,25569],[100,25652],[100,25736],[100,25819],[100,25904],[100,25986],[100,26069],[100,26152],[100,26236],[100,26319],[100,26402],[100,26485],[100,26569],[100,26652],[100,26736],[100,26819],[100,26902],[100,26994],[100,27081],[100,27152],[100,27235],[100,27330],[100,27414],[100,27485],[100,27568],[100,27652],[100,27735],[100,27818],[100,27901],[100,27985],[100,28068],[100,28151],[100,28235],[100,28318],[100,28402],[100,28485]]",962.599,968.5959,100,2.0412,"[{""rating"":98.33333333333334,""responseTime"":1.2916999999880545},{""rating"":98.33333333333334,""responseTime"":1.3756999999881145},{""rating"":98.85416666666667,""responseTime"":1.6558999999761},{""rating"":100,""responseTime"":2.0411999999880663}]",space,5.4676,,968.5961,Not at all,0,968.6021,,,[],,0,11,11,11,1,audio/Narrative8Situation2.wav,audio/Narrative7Situation2.wav,audio/Narrative6Situation2.wav,audio/Narrative5Situation2.wav,3,3,3,3,,,,,,,,,,,,,,,,,,,,,,,,,,,,,,,,,,,,,,,
,,,,,5c7cf8b58ca9000001b52f6e,2025-07-07_22h15.10.918,group3.4_multiperson,2023.2.2,Win32,59.52380952,686c2ebf0248f13bef9af11f,686c7b9a726c714bb8223fa8,,,,,,,,,,,,,,,,,,,,,,,,,,,,,968.6034,2,audio/Narrative6Situation3.wav,973.61,,973.61,986.2373,"[[999,0],[999,82],[999,166],[999,249],[999,332],[999,415],[999,499],[999,582],[999,667],[999,750],[999,833],[999,915],[999,1000],[999,1082],[999,1165],[999,1249],[999,1332],[999,1416],[999,1499],[999,1582],[999,1665],[51.3,1749],[51.3,1832],[51.1,1915],[50,1998],[50,2082],[50,2165],[50,2248],[50,2331],[50,2415],[50,2498],[50,2582],[50,2665],[50,2748],[50,2831],[50,2915],[50,2998],[50,3081],[50,3164],[50,3248],[50,3331],[50,3414],[50,3498],[50,3581],[50,3664],[50,3747],[50,3831],[50,3914],[50,3997],[50,4081],[50,4164],[50,4247],[50,4330],[50,4414],[50,4497],[50,4581],[50,4664],[50,4747],[50,4830],[50,4913],[50,4997],[50,5080],[50,5163],[50,5246],[50,5330],[50,5413],[50,5497],[50,5580],[50,5663],[50,5746],[50,5830],[50,5913],[50,5996],[50,6080],[50,6163],[50,6246],[50,6329],[50,6413],[50,6496],[50,6579],[50,6663],[50,6746],[50,6829],[50,6913],[51,6996],[53.6,7079],[57.8,7163],[59.5,7246],[60.2,7329],[62.3,7412],[64.3,7496],[64.8,7579],[65.5,7664],[67.8,7758],[68.8,7865],[69.8,7946],[70,8029],[70,8112],[70.1,8196],[70.7,8317],[70.7,8412],[70.7,8495],[71.4,8578],[72.1,8662],[72.6,8745],[73.3,8828],[73.4,8912],[74.4,8995],[74.8,9078],[75,9161],[75.4,9245],[75.5,9328],[75.5,9411],[75.5,9494],[75.5,9578],[75.5,9661],[75.5,9744],[75.5,9828],[75.5,9911],[75.5,9994],[75.5,10077],[75.5,10161],[75.5,10244],[75.5,10327],[75.5,10411],[75.5,10494],[75.5,10577],[77.3,10661],[77.4,10744],[78.9,10827],[81.3,10911],[81.4,10994],[81.4,11077],[81.4,11160],[81.4,11244],[81.4,11327],[81.4,11410],[81.4,11493],[81.4,11577],[81.4,11660],[81.4,11743],[90.1,11828],[94.6,11910],[94.6,11993],[94.6,12077],[94.6,12160],[94.6,12243],[94.6,12327],[94.6,12410],[94.6,12493],[94.6,12576]]",986.2375,988.869,94.58333333,0.8553,"[{""rating"":94.58333333333333,""responseTime"":0.7715999999643373},{""rating"":94.58333333333333,""responseTime"":0.8552999999524218}]",space,2.0861,,988.8691,Definitely yes,100,988.8751,,,[],,0,12,12,12,1,audio/Narrative8Situation3.wav,audio/Narrative7Situation3.wav,audio/Narrative6Situation3.wav,audio/Narrative5Situation3.wav,4,8,5,3,,,,,,,,,,,,,,,,,,,,,,,,,,,,,,,,,,,,,,,
,,,,,5c7cf8b58ca9000001b52f6e,2025-07-07_22h15.10.918,group3.4_multiperson,2023.2.2,Win32,59.52380952,686c2ebf0248f13bef9af11f,686c7b9a726c714bb8223fa8,,,,,,,,,,,,,,,,,,,,,,,,,,,,,988.8755,2,audio/Narrative6Situation4.wav,990.885,,990.8851,1003.5116,"[[999,0],[999,82],[999,166],[999,249],[999,333],[999,416],[999,501],[999,582],[999,666],[999,749],[999,832],[999,915],[999,999],[999,1082],[999,1165],[999,1248],[999,1332],[999,1415],[999,1499],[999,1583],[999,1666],[999,1749],[999,1833],[999,1918],[999,1999],[49.2,2082],[48.9,2165],[49.2,2249],[49.2,2331],[49.2,2414],[49.2,2498],[49.4,2581],[52,2665],[52.1,2747],[52.1,2831],[52.1,2914],[52.1,2998],[52.1,3081],[54.6,3164],[55.3,3248],[55.5,3330],[56.7,3414],[57.9,3498],[59.7,3581],[62.3,3664],[68,3748],[73.3,3831],[73.3,3913],[73.3,3997],[73.9,4080],[75.1,4165],[76.3,4247],[77.3,4330],[77.3,4413],[77.3,4497],[77.3,4580],[77.3,4663],[77.3,4747],[77.3,4830],[77.3,4913],[77.3,4997],[77.3,5080],[77.3,5163],[77.3,5246],[77.9,5330],[79,5413],[80,5496],[83.9,5580],[85.9,5663],[88.5,5746],[90.5,5830],[90.8,5913],[92.1,5997],[92.7,6079],[93.4,6163],[94,6246],[94,6329],[94,6412],[94,6496],[94,6579],[94,6662],[94,6746],[94,6829],[94,6912],[94,6995],[94,7079],[94,7162],[94,7245],[94,7329],[94,7412],[95.2,7496],[95.4,7579],[95.4,7662],[95.4,7745],[95.4,7828],[95.4,7912],[95.4,7995],[95.4,8078],[95.4,8162],[95.4,8245],[95.4,8328],[95.4,8411],[95.4,8495],[95.4,8578],[95.4,8661],[95.7,8745],[96.6,8828],[96.4,8911],[96.4,8995],[96.4,9078],[96.4,9161],[96.4,9244],[96.4,9328],[96.4,9411],[96.4,9494],[96.4,9577],[96.4,9661],[96.4,9744],[96.4,9827],[96.4,9911],[96.4,9994],[96.4,10077],[96.4,10161],[96.4,10244],[96.4,10327],[96.4,10411],[96.4,10494],[96.4,10577],[96.4,10661],[96.4,10744],[96.4,10827],[96.4,10910],[96.4,10994],[96.4,11077],[96.4,11160],[96.4,11243],[99.7,11327],[99.7,11410],[99.7,11493],[99.7,11577],[99.7,11660],[99.7,11743],[99.7,11827],[99.7,11910],[99.7,11993],[99.7,12076],[99.7,12160],[99.7,12243],[99.7,12326],[99.7,12410],[99.7,12493],[99.7,12576]]",1003.5117,1007.6101,99.89583333,2.6253,"[{""rating"":99.89583333333334,""responseTime"":2.5448999999759963},{""rating"":99.89583333333334,""responseTime"":2.625300000011748}]",space,3.553,,1007.6102,Partially,50,1007.6152,,,[],,0,13,13,13,1,audio/Narrative8Situation4.wav,audio/Narrative7Situation4.wav,audio/Narrative6Situation4.wav,audio/Narrative5Situation4.wav,3,3,2,1,,,,,,,,,,,,,,,,,,,,,,,,,,,,,,,,,,,,,,,
,,,,,5c7cf8b58ca9000001b52f6e,2025-07-07_22h15.10.918,group3.4_multiperson,2023.2.2,Win32,59.52380952,686c2ebf0248f13bef9af11f,686c7b9a726c714bb8223fa8,,,,,,,,,,,,,,,,,,,,,,,,,,,,,1007.6157,2,audio/Narrative6Situation5.wav,1009.6255,,1009.6256,1017.5718,"[[999,0],[999,82],[999,167],[999,249],[999,333],[999,416],[999,499],[999,582],[999,666],[999,749],[999,832],[49.6,916],[49.2,999],[49.2,1082],[49.2,1165],[49.2,1249],[49.2,1332],[49.2,1415],[49.2,1498],[49.2,1582],[49.2,1665],[49.2,1748],[49.8,1832],[49.9,1915],[50.5,1999],[51.3,2081],[51.3,2165],[51.4,2248],[52.4,2332],[52.9,2415],[53,2498],[53,2581],[53,2664],[57.7,2749],[58.2,2832],[58.2,2914],[58.2,2998],[58.2,3081],[60.6,3165],[67.1,3248],[68.4,3331],[68.8,3414],[69.1,3498],[69.3,3581],[69.3,3665],[69.6,3747],[69.9,3831],[70.2,3915],[70.8,3998],[71.3,4081],[72.6,4164],[72.6,4247],[72.6,4330],[72.6,4414],[72.6,4497],[72.6,4581],[72.6,4664],[72.6,4747],[72.6,4830],[72.6,4913],[72.6,4997],[72.6,5080],[72.6,5163],[72.6,5247],[72.6,5330],[72.6,5413],[72.6,5497],[72.6,5580],[72.6,5664],[72.6,5747],[72.6,5830],[72.6,5913],[72.6,5999],[72.6,6079],[72.6,6163],[72.6,6246],[72.6,6329],[72.6,6413],[72.6,6496],[72.6,6579],[72.6,6663],[72.6,6746],[72.6,6829],[72.6,6912],[72.6,6996],[72.6,7079],[72.6,7162],[72.6,7246],[72.6,7329],[72.6,7412],[72.6,7498],[72.6,7579],[72.6,7662],[72.6,7745],[72.6,7828],[72.6,7912]]",1017.5721,1021.8027,82.39583333,3.0754,"[{""rating"":78.02083333333334,""responseTime"":1.47039999997628},{""rating"":80.9375,""responseTime"":1.8773000000119282},{""rating"":82.39583333333333,""responseTime"":3.075399999976071}]",space,3.6848,,1021.8027,Partially,50,1021.806,,,[],,0,14,14,14,1,audio/Narrative8Situation5.wav,audio/Narrative7Situation5.wav,audio/Narrative6Situation5.wav,audio/Narrative5Situation5.wav,2,5,2,5,,,,,,,,,,,,,,,,,,,,,,,,,,,,,,,,,,,,,,,
,,,,,5c7cf8b58ca9000001b52f6e,2025-07-07_22h15.10.918,group3.4_multiperson,2023.2.2,Win32,59.52380952,686c2ebf0248f13bef9af11f,686c7b9a726c714bb8223fa8,,,,,,,,,,,,,,,,,,,,,,,,,,,,,1021.8062,2,audio/Narrative6Situation6.wav,1023.8185,,1023.8185,1034.8966,"[[999,0],[999,83],[999,166],[999,249],[999,332],[999,416],[999,499],[999,582],[999,666],[999,749],[999,832],[999,916],[999,999],[999,1082],[999,1165],[999,1249],[999,1332],[999,1416],[999,1499],[999,1582],[999,1665],[999,1749],[999,1832],[999,1915],[999,1999],[999,2082],[999,2166],[50.7,2249],[50.5,2331],[50.6,2415],[50.8,2498],[54.9,2582],[57.1,2665],[57.1,2748],[57.1,2831],[57.1,2915],[57.1,2998],[57.1,3081],[57.1,3164],[57.1,3248],[57.1,3331],[57.1,3414],[60.4,3498],[60.6,3581],[60.6,3664],[60.6,3748],[63,3831],[64.2,3914],[64.2,3997],[64.2,4081],[64.2,4164],[64.2,4247],[64.2,4330],[64.2,4414],[64.2,4497],[64.9,4581],[67.5,4664],[68.3,4747],[70,4830],[70.6,4913],[70.6,4997],[70.6,5080],[70.6,5163],[71.1,5247],[73.6,5330],[74.9,5414],[75.1,5497],[75.3,5580],[75.3,5663],[78.1,5747],[79.4,5830],[80.7,5913],[83.4,5997],[83.8,6080],[84.5,6164],[85.4,6246],[85.5,6329],[85.5,6413],[85.5,6509],[85.5,6580],[85.5,6663],[85.5,6746],[86,6830],[86.1,6913],[86.1,6996],[86.7,7079],[86.9,7162],[86.9,7246],[86.9,7329],[87.4,7413],[87.5,7495],[87.5,7579],[87.5,7662],[87.7,7749],[88.4,7829],[89.1,7912],[89.4,7996],[89.9,8079],[90.1,8162],[90.7,8245],[91.5,8328],[91.5,8412],[91.5,8495],[91.8,8578],[91.8,8662],[91.8,8745],[91.8,8828],[91.9,8912],[92.3,8995],[92.3,9078],[92.3,9161],[92.3,9245],[92.3,9328],[93.1,9411],[93.1,9495],[93.2,9578],[93.4,9662],[94,9745],[94.8,9828],[95.1,9911],[95.5,9994],[95.5,10077],[95.5,10161],[95.5,10244],[95.5,10327],[95.5,10411],[95.5,10494],[95.5,10578],[95.5,10661],[95.5,10744],[95.5,10827],[95.5,10911],[95.5,10994],[95.5,11077]]",1034.8967,1042.7092,95,2.7407,"[{""rating"":95,""responseTime"":2.7406999999882373}]",space,7.2742,,1042.7094,Partially,50,1042.7151,,,[],,0,15,15,15,1,audio/Narrative8Situation6.wav,audio/Narrative7Situation6.wav,audio/Narrative6Situation6.wav,audio/Narrative5Situation6.wav,2,3,2,3,,,,,,,,,,,,,,,,,,,,,,,,,,,,,,,,,,,,,,,
,,,,,5c7cf8b58ca9000001b52f6e,2025-07-07_22h15.10.918,group3.4_multiperson,2023.2.2,Win32,59.52380952,686c2ebf0248f13bef9af11f,686c7b9a726c714bb8223fa8,,,,,,,,,,,,,,,,,,,,,,,,,,,,,1042.7157,2,audio/Narrative6Situation7.wav,1047.7232,,1047.7233,1072.5779,"[[999,0],[999,83],[999,166],[999,249],[999,332],[999,416],[999,499],[999,582],[999,666],[999,749],[999,833],[999,916],[53.3,999],[51.1,1082],[50.5,1165],[50.2,1249],[50.2,1332],[50.2,1415],[50.2,1499],[50.2,1582],[50.2,1665],[50.2,1749],[50.2,1832],[50.2,1915],[50.6,1999],[50.6,2082],[50.6,2165],[50.6,2248],[50.6,2332],[50.6,2415],[51.3,2499],[51.3,2581],[51.3,2665],[51.3,2748],[51.3,2831],[52.2,2915],[53.3,3000],[53.3,3081],[54.5,3165],[55.6,3248],[55.7,3331],[56.4,3414],[56.5,3498],[56.5,3581],[57.1,3665],[57.2,3747],[57.2,3831],[57.4,3914],[58.4,3998],[59,4081],[59.2,4164],[59.4,4247],[59.6,4331],[59.8,4414],[60,4497],[60,4580],[60.5,4664],[60.7,4747],[60.7,4830],[60.7,4914],[60.7,4997],[60.7,5080],[60.7,5163],[60.7,5247],[60.7,5330],[60.7,5413],[60.7,5497],[60.7,5580],[60.7,5663],[60.7,5747],[60.7,5830],[60.7,5913],[60.7,5996],[60.8,6080],[63.8,6163],[64.3,6246],[64.3,6330],[65.2,6413],[65.2,6496],[65.2,6580],[65.3,6663],[65.3,6746],[65.3,6831],[65.3,6921],[65.3,7007],[65.3,7100],[67.7,7181],[68.2,7268],[71.7,7445],[71.8,7516],[73.2,7608],[75.2,7693],[78.4,7803],[81.7,7923],[82.4,8004],[83.6,8094],[85.1,8180],[85.1,8280],[85.3,8364],[86.6,8451],[86.7,8536],[86.7,8617],[86.7,8701],[86.7,8783],[86.7,8864],[87,8959],[87.5,9037],[87.5,9117],[87.5,9201],[87.5,9285],[87.5,9362],[87.5,9445],[87.5,9530],[87.5,9618],[87.5,9698],[87.5,9791],[87.5,9879],[87.5,9961],[87.5,10045],[87.5,10128],[87.5,10211],[87.5,10294],[87.5,10378],[87.5,10461],[87.5,10544],[87.5,10628],[87.5,10711],[87.5,10794],[87.5,10878],[87.5,10961],[87.5,11044],[87.5,11127],[87.5,11211],[87.5,11294],[87.5,11377],[87.5,11460],[87.5,11544],[87.5,11627],[87.5,11710],[87.5,11794],[87.5,11877],[87.5,11960],[87.5,12043],[87.5,12127],[87.5,12212],[87.5,12296],[87.5,12377],[87.5,12461],[87.5,12543],[87.5,12626],[87.5,12710],[87.5,12793],[87.5,12876],[87.5,12960],[87.5,13043],[87.5,13126],[87.5,13210],[87.5,13293],[87.5,13376],[87.5,13459],[87.5,13543],[87.5,13626],[87.5,13709],[87.5,13793],[87.5,13876],[87.5,13959],[87.5,14042],[88,14126],[88,14209],[88,14292],[88,14376],[88,14459],[88,14542],[88,14626],[88,14709],[88,14792],[88,14875],[88,14959],[88,15042],[88,15125],[88,15209],[88,15292],[88,15375],[88,15459],[88,15542],[88,15625],[88,15708],[88,15792],[88,15875],[88,15958],[88,16041],[88,16125],[88,16208],[88.9,16292],[89.5,16375],[89.5,16460],[89.5,16541],[89.5,16625],[89.9,16709],[91.1,16791],[91.8,16875],[93.1,16958],[93.3,17042],[94.1,17125],[94.4,17208],[94.4,17291],[94.4,17374],[94.4,17458],[94.4,17541],[94.4,17625],[94.4,17707],[94.4,17790],[94.4,17874],[94.4,17957],[94.4,18041],[94.4,18124],[94.4,18207],[94.4,18290],[94.4,18374],[94.4,18457],[94.4,18540],[94.4,18623],[94.4,18707],[94.4,18790],[94.4,18874],[94.4,18958],[94.4,19040],[94.4,19123],[94.4,19206],[94.4,19290],[94.4,19373],[94.4,19457],[94.4,19540],[94.4,19623],[94.4,19706],[94.4,19790],[94.4,19873],[94.4,19956],[94.4,20039],[94.4,20123],[94.9,20206],[95,20289],[95,20373],[95,20456],[95,20539],[95,20622],[95,20706],[95,20789],[95,20872],[95,20956],[95,21039],[95,21122],[95,21206],[95,21289],[95,21372],[95,21455],[95,21539],[95.4,21622],[96.5,21706],[97.1,21789],[97.4,21872],[97.4,21955],[97.4,22038],[98,22122],[98.1,22205],[97.8,22288],[97.7,22372],[97.7,22455],[97.7,22538],[97.7,22622],[97.7,22705],[97.7,22788],[97.7,22871],[97.7,22955],[97.7,23038],[97.7,23121],[97.7,23205],[97.7,23288],[97.7,23371],[97.7,23455],[97.7,23538],[97.7,23621],[97.7,23704],[97.7,23788],[97.7,23871],[97.7,23954],[97.7,24038],[97.7,24121],[97.7,24204],[97.7,24288],[97.7,24371],[97.7,24454],[97.7,24537],[97.7,24620],[97.7,24704],[97.8,24787]]",1072.5782,1074.2269,98.95833333,1.1061,"[{""rating"":98.95833333333333,""responseTime"":1.0264999999999418},{""rating"":98.95833333333333,""responseTime"":1.1060999999642718}]",space,1.0993,,1074.2269,Not at all,0,1074.2303,,,[],,0,16,16,16,1,audio/Narrative8Situation7.wav,audio/Narrative7Situation7.wav,audio/Narrative6Situation7.wav,audio/Narrative5Situation7.wav,3,5,5,4,,,,,,,,,,,,,,,,,,,,,,,,,,,,,,,,,,,,,,,
,,,,,5c7cf8b58ca9000001b52f6e,2025-07-07_22h15.10.918,group3.4_multiperson,2023.2.2,Win32,59.52380952,686c2ebf0248f13bef9af11f,686c7b9a726c714bb8223fa8,,,,,,,,,,,,,,,,,,,,,,,,,,,,,1074.2305,2,audio/Narrative6Situation8.wav,1079.2411,,1079.2411,1086.1045,"[[74,833],[73.8,916],[73.5,1001],[65.1,1083],[52.7,1196],[51.8,1265],[51.8,1349],[51.8,1432],[51.6,1516],[51.6,1599],[51.6,1682],[51.6,1765],[51.6,1848],[51.6,1932],[51.6,2015],[51.6,2098],[51.6,2182],[51.6,2265],[51.6,2348],[51.6,2432],[51.6,2515],[51.6,2598],[51.6,2698],[51.6,2781],[51.6,2865],[51.6,2948],[51.6,3031],[51.6,3115],[51.6,3198],[51.6,3281],[51.6,3364],[51.6,3448],[51.6,3531],[51.6,3614],[51.6,3697],[51.6,3781],[52.1,3864],[53.6,3947],[53.9,4031],[53.9,4114],[53.9,4197],[53.9,4281],[53.9,4364],[53.9,4447],[53.9,4531],[53.9,4614],[53.9,4697],[53.9,4781],[52.3,4869],[50.6,4949],[49.2,5031],[48.8,5114],[48.1,5198],[47.9,5280],[47.9,5363],[47.9,5447],[47.9,5530],[47.9,5613],[47.9,5697],[47.9,5780],[47.9,5863],[47.9,5947],[47.9,6029],[47.9,6113],[47.9,6196],[47.9,6279],[47.2,6363],[45,6447],[43.2,6530],[40.6,6613],[40.2,6696],[40.2,6779],[38.1,6863]]",1086.1047,1092.3346,0.3125,3.6732,"[{""rating"":0.3124999999999989,""responseTime"":3.673199999988128}]",space,5.6791,,1092.3346,Not at all,0,1092.338,,,[],,0,17,17,17,1,audio/Narrative8Situation8.wav,audio/Narrative7Situation8.wav,audio/Narrative6Situation8.wav,audio/Narrative5Situation8.wav,3,2,5,3,,,,,,,,,,,,,,,,,,,,,,,,,,,,,,,,,,,,,,,
,,,,,5c7cf8b58ca9000001b52f6e,2025-07-07_22h15.10.918,group3.4_multiperson,2023.2.2,Win32,59.52380952,686c2ebf0248f13bef9af11f,686c7b9a726c714bb8223fa8,,,,,,,,,,,,,,,,,,,,,,,,,,,,,1092.3385,2,audio/Narrative6Situation9.wav,1096.3494,,1096.3495,1106.3111,"[[999,0],[999,82],[999,166],[999,249],[999,332],[999,416],[999,499],[999,582],[999,665],[999,749],[999,832],[999,915],[999,999],[999,1082],[999,1165],[999,1249],[999,1332],[999,1415],[49.2,1498],[49.5,1582],[50.3,1665],[50.6,1748],[50.6,1832],[50.6,1915],[50.6,1998],[50.6,2082],[50.6,2165],[50.6,2248],[50.6,2331],[50.6,2415],[50.6,2498],[50.6,2581],[50.6,2664],[50.6,2748],[50.6,2831],[50.6,2914],[50.6,2998],[50.6,3081],[50.6,3164],[50.6,3248],[50.6,3331],[50.6,3414],[48.8,3498],[47.9,3581],[46.9,3664],[46.4,3747],[46.4,3831],[46.4,3914],[46.4,3997],[46.4,4080],[46.4,4164],[45.8,4247],[44,4331],[42.9,4414],[42.6,4497],[42.6,4580],[42.4,4663],[41.3,4747],[41.4,4830],[41.5,4913],[41.7,4997],[41.7,5080],[40,5163],[40,5247],[38.9,5330],[36.7,5413],[36.7,5496],[36.7,5580],[36.7,5663],[33.6,5746],[32.8,5830],[32.1,5913],[31.9,5996],[31.3,6079],[31.3,6163],[31.3,6246],[31.3,6329],[30.9,6413],[27.5,6496],[27,6580],[23.3,6663],[22.8,6746],[22.8,6829],[22.6,6913],[20,6996],[18.5,7079],[18.5,7162],[18.4,7246],[16.5,7329],[15.8,7412],[15.8,7495],[15.8,7579],[15.7,7662],[12,7746],[10.6,7829],[10.2,7912],[10.2,7995],[8.6,8079],[7.7,8162],[7.7,8254],[7.7,8332],[6.8,8412],[5.5,8496],[4.8,8579],[4.8,8662],[4.8,8745],[4.4,8828],[3.4,8912],[3.1,8995],[3,9078],[2.2,9162],[0.4,9245]]",1106.3112,1108.9099,0.520833333,1.3289,"[{""rating"":0.5208333333333315,""responseTime"":1.2451999999880172},{""rating"":0.5208333333333315,""responseTime"":1.3289000000356737}]",space,2.0537,,1108.9099,Not at all,0,1108.915,,,[],,0,18,18,18,1,audio/Narrative8Situation9.wav,audio/Narrative7Situation9.wav,audio/Narrative6Situation9.wav,audio/Narrative5Situation9.wav,3,2,4,3,,,,,,,,,,,,,,,,,,,,,,,,,,,,,,,,,,,,,,,
,,,,,5c7cf8b58ca9000001b52f6e,2025-07-07_22h15.10.918,group3.4_multiperson,2023.2.2,Win32,59.52380952,686c2ebf0248f13bef9af11f,686c7b9a726c714bb8223fa8,,,,,,,,,,,,,,,,,,,,,,,,,,,,,,,,,,,,,,,,,,,,,,,,,,,,,,,,,,,,,,,,,,,,,,1108.9155,1112.0146,space,2.5698,,1112.0152,1122.2037,space,9.8664,,,,,,,,,,,,,,,,,,,,,,,,,,
,,,,,5c7cf8b58ca9000001b52f6e,2025-07-07_22h15.10.918,group3.4_multiperson,2023.2.2,Win32,59.52380952,686c2ebf0248f13bef9af11f,686c7b9a726c714bb8223fa8,,,,,,,,,,,,,,,,,,,,,,,,,,,,,1124.8057,1,audio/Narrative8Situation9.wav,1126.8181,,,,,1158.8081,1164.349,34.0625,3.672,"[{""rating"":34.0625,""responseTime"":3.6720000000000255}]",space,5.0023,,1164.3491,Definitely yes,100,1164.3535,,,[],,,,,,,,,,,2,2,2,2,,,,,,,,,,,,,,,1122.2069,1124.7856,1126.8188,3,1158.8075,"[[999,2],[999,83],[999,165],[999,249],[999,332],[999,415],[999,498],[999,581],[999,665],[999,748],[999,831],[999,915],[999,998],[999,1081],[999,1164],[999,1247],[999,1331],[999,1414],[999,1517],[999,1598],[999,1681],[999,1767],[999,1848],[999,1931],[999,2014],[999,2097],[999,2180],[999,2264],[999,2347],[999,2431],[999,2513],[999,2597],[999,2680],[999,2764],[999,2847],[999,2930],[999,3013],[999,3105],[999,3180],[999,3264],[999,3347],[999,3430],[999,3513],[999,3598],[2.7,3680],[0.1,4596],[0.3,4679],[0.3,4763],[0.3,4846],[0.8,4929],[2.3,5013],[2.6,5096],[2.6,5179],[2.9,5262],[3.1,5346],[3.2,5440],[3.3,5524],[3.9,5609],[3.9,5679],[4,5764],[4,5845],[4,5929],[4.1,6012],[4.1,6095],[4.1,6178],[4.1,6262],[4.1,6345],[4.1,6428],[4.1,6512],[4.1,6595],[4.1,6678],[4.1,6761],[4.1,6845],[4.1,6928],[4.1,7012],[4.1,7095],[4.1,7178],[4.1,7261],[4.1,7344],[4.1,7428],[4.1,7511],[4.1,7595],[4.1,7678],[4.1,7761],[4.1,7844],[4.1,7928],[4.1,8011],[4.1,8094],[4.1,8177],[4.1,8261],[4.1,8344],[6.9,8428],[6.9,8511],[7.1,8595],[8.1,8678],[8.2,8760],[6.9,8846],[6.1,8935],[6,9013],[6,9094],[6,9177],[6,9260],[6,9344],[6,9427],[6,9510],[6,9594],[6,9677],[6,9760],[6,9843],[6,9927],[6,10010],[6,10093],[6,10176],[6,10260],[6,10349],[6.3,10427],[6.3,10510],[6.3,10593],[6.3,10676],[6.3,10760],[6.3,10843],[6.3,10926],[6.3,11010],[6.8,11094],[7.1,11176],[7.9,11260],[8.9,11343],[9.9,11426],[9.9,11509],[9.9,11593],[9.9,11676],[9.9,11759],[9.9,11845],[9.9,11939],[9.6,12011],[8.1,12093],[6.1,12176],[5.9,12259],[5,12342],[4,12426],[4,12509],[4,12592],[4,12675],[4,12759],[4,12842],[3.4,12926],[3,13009],[2.8,13092],[2.2,13175],[1.7,13259],[1.7,13342],[1.7,13425],[1.7,13509],[1.7,13592],[1.7,13675],[1.7,13758],[1.7,13842],[1.7,13925],[1.7,14008],[1.7,14091],[1.7,14174],[1.7,14258],[1.7,14341],[1.7,14424],[1.7,14508],[1.7,14591],[1.7,14674],[1.7,14757],[1.7,14841],[1.6,14924],[0.9,15008],[0.5,15092],[0.3,15174],[0.2,15257],[0.1,15340],[0.1,15424],[0.1,15507],[0.1,15590],[0.1,15674],[0.1,15757],[0.1,15840],[0.1,15924],[0.1,16007],[0.1,16091],[0.1,16174],[0.1,16257],[0.1,16340],[0.1,16423],[0.1,16507],[0.1,16590],[0.1,16673],[0.1,16757],[0.1,16840],[0.1,16923],[0.1,17006],[1.1,22754],[2.3,22837],[2.3,22920],[2.3,23004],[2.5,23087],[2.5,23170],[2.5,23253],[2,23337],[1.7,23420],[1.7,23503],[1.7,23587],[1.7,23670],[2.2,23754],[4.3,23837],[5.5,23920],[6.4,24003],[7.3,24086],[7.8,24170],[8.3,24253],[8.5,24336],[8.5,24420],[8.5,24503],[8.5,24586],[8.5,24669],[8.4,24753],[8.4,24836],[8.4,24919],[8.4,25002],[8.4,25086],[8.5,25170],[8.9,25252],[9.4,25336],[10.4,25419],[11.1,25502],[11.1,25586],[11.1,25669],[11.8,25765],[12.4,25866],[12.8,25937],[16.1,26021],[17.7,26103],[17.8,26186],[19.3,26269],[20.5,26352],[20.5,26435],[20.5,26519],[20.5,26602],[20.1,26685],[20.1,26769],[20.1,26852],[20.1,26935],[21,27019],[23.2,27103],[24.1,27185],[24.5,27268],[26.3,27352],[27.5,27435],[28.8,27519],[29.5,27602],[30.3,27685],[30.5,27768],[30.7,27851],[30.7,27934],[30.7,28018],[31.6,28101],[32,28185],[32,28268],[32,28351],[32,28434],[32,28518],[32,28601],[32,28684],[32,28767],[32,28850],[32,28934],[33.3,29018],[35.5,29102],[37.8,29185],[39.8,29281],[42,29355],[42.3,29435],[42.5,29517],[42.5,29600],[42.5,29684],[42.5,29767],[42.7,29851],[43.8,29934],[44.2,30018],[45.8,30100],[47.6,30184],[48.4,30267],[49.7,30350],[50.8,30435],[52.2,30517],[53,30600],[53.4,30683],[53.4,30766],[53.4,30850],[53.4,30933],[53.4,31016],[53.4,31099],[53.4,31183],[53.4,31266],[54.3,31349],[54.3,31433],[54.7,31516],[54.7,31599],[54.7,31683],[54.7,31778],[55.7,31851],[56.5,31933]]",0,0,0,0,1,"Larry had recently lost his family, job and home, and was now living on his own in the park. He had most of his belongings, including some clothes, a blanket, and his mother’s special necklace. His family had been very important to him and he felt as though he did not have much going for him. One of his first days in the park he came across a family that did not have much food and looked very cold. He decided to give them some of his food and his blanket.","Larry had recently lost his family, job and home, and was now living on his own in the park. He had most of his belongings, including some clothes, a blanket, and his mother’s special necklace. His family had been very important to him and he felt as though he did not have much going for him. One of his first days in the park he came across a family that did not have much food and looked very cold. He decided to give them some of his food and his blanket.","Larry had recently lost his family, job and home, and was now living on his own in the park. He had most of his belongings, including some clothes, a blanket, and his mother’s special necklace. His family had been very important to him and he felt as though he did not have much going for him. One of his first days in the park he came across a family that did not have much food and looked very cold. He decided to give them some of his food and his blanket.","Larry had recently lost his family, job and home, and was now living on his own in the park. He had most of his belongings, including some clothes, a blanket, and his mother’s special necklace. His family had been very important to him and he felt as though he did not have much going for him. One of his first days in the park he came across a family that did not have much food and looked very cold. He decided to give them some of his food and his blanket.",,,,,,,,,,
