consent.started,consent.stopped,consentResponse.keys,consentResponse.rt,consentResponse.duration,participantID,date,expName,psychopyVersion,OS,frameRate,STUDY_ID,SESSION_ID,opening1.started,opening1.stopped,keyEndingOpening1.keys,keyEndingOpening1.rt,keyEndingOpening1.duration,volumeAdjust.started,volumeAdjust.stopped,endingAdjust.keys,endingAdjust.rt,endingAdjust.duration,opening2.started,opening2.stopped,keyEndingOpening.keys,keyEndingOpening.rt,keyEndingOpening.duration,mouse.x,mouse.y,mouse.leftButton,mouse.midButton,mouse.rightButton,mouse.time,instructionLoop.thisRepN,instructionLoop.thisTrialN,instructionLoop.thisN,instructionLoop.thisIndex,instructionLoop.ran,readyForAudio.started,readyForAudio.stopped,fixation.started,run,audio_played,fixation.stopped,endPractice.keys,audioPre.started,audioPre.stopped,continuousResponses_audio,intRating.started,intRating.stopped,intQuestionSlider.response,intQuestionSlider.rt,intQuestionSlider.history,confirmResponse.keys,confirmResponse.rt,confirmResponse.duration,catchQuestion.started,catch_label,catch_value,catchQuestion.stopped,catchQuestionSlider.response,catchQuestionSlider.rt,catchQuestionSlider.history,confirmResponse_2.keys,audioRunLoop.thisRepN,audioRunLoop.thisTrialN,audioRunLoop.thisN,audioRunLoop.thisIndex,audioRunLoop.ran,conditions1_1,conditions2_1,conditions1_2,conditions2_2,dur1_1,dur2_1,dur1_2,dur2_2,endPractice.rt,endPractice.duration,confirmResponse_2.rt,confirmResponse_2.duration,runIntervalBreak.started,runIntervalBreak.stopped,endingBreakKey.keys,endingBreakKey.rt,endingBreakKey.duration,connection.started,connection.stopped,connectionEnding.keys,connectionEnding.rt,connectionEnding.duration,readyForText.started,readyForText.stopped,textPre.started,run_dup,textPre.stopped,continuousResponses_text,textRunLoop.thisRepN,textRunLoop.thisTrialN,textRunLoop.thisN,textRunLoop.thisIndex,textRunLoop.ran,text1_1,text1_2,text2_1,text2_2,runBreakText.started,runBreakText.stopped,endingBreakKey_2.keys,endingBreakKey_2.rt,endingBreakKey_2.duration,ending.started,ending.stopped,endingEnding.keys,endingEnding.rt,endingEnding.duration
0.0009,13.7073,y,13.3721,,5d25df839542a40001a83bf4,2025-07-07_22h36.34.221,group3.4_multiperson,2023.2.2,Win32,61.34969325,686c2ebf0248f13bef9af11f,686c83f8516648845999f7c0,,,,,,,,,,,,,,,,,,,,,,,,,,,,,,,,,,,,,,,,,,,,,,,,,,,,,,,,,,,,,,,,,,,,,,,,,,,,,,,,,,,,,,,,,,,,,,,,,,,,,,,,
,,,,,5d25df839542a40001a83bf4,2025-07-07_22h36.34.221,group3.4_multiperson,2023.2.2,Win32,61.34969325,686c2ebf0248f13bef9af11f,686c83f8516648845999f7c0,13.7076,19.9502,space,6.1568,,,,,,,,,,,,,,,,,,,,,,,,,,,,,,,,,,,,,,,,,,,,,,,,,,,,,,,,,,,,,,,,,,,,,,,,,,,,,,,,,,,,,,,,,,,,,,,,,,,,
,,,,,5d25df839542a40001a83bf4,2025-07-07_22h36.34.221,group3.4_multiperson,2023.2.2,Win32,61.34969325,686c2ebf0248f13bef9af11f,686c83f8516648845999f7c0,,,,,,19.9502,47.2241,space,26.9548,,,,,,,,,,,,,,,,,,,,,,,,,,,,,,,,,,,,,,,,,,,,,,,,,,,,,,,,,,,,,,,,,,,,,,,,,,,,,,,,,,,,,,,,,,,,,,,
,,,,,5d25df839542a40001a83bf4,2025-07-07_22h36.34.221,group3.4_multiperson,2023.2.2,Win32,61.34969325,686c2ebf0248f13bef9af11f,686c83f8516648845999f7c0,,,,,,,,,,,47.2312,64.0413,space,16.7897,,[],[],[],[],[],[],0,0,0,0,1,,,,,,,,,,,,,,,,,,,,,,,,,,,,,,,,,,,,,,,,,,,,,,,,,,,,,,,,,,,,,,,,,,,,,,,,,,,,,,
,,,,,5d25df839542a40001a83bf4,2025-07-07_22h36.34.221,group3.4_multiperson,2023.2.2,Win32,61.34969325,686c2ebf0248f13bef9af11f,686c83f8516648845999f7c0,,,,,,,,,,,64.0444,156.9798,space,92.8244,,[],[],[],[],[],[],1,0,1,0,1,,,,,,,,,,,,,,,,,,,,,,,,,,,,,,,,,,,,,,,,,,,,,,,,,,,,,,,,,,,,,,,,,,,,,,,,,,,,,,
,,,,,5d25df839542a40001a83bf4,2025-07-07_22h36.34.221,group3.4_multiperson,2023.2.2,Win32,61.34969325,686c2ebf0248f13bef9af11f,686c83f8516648845999f7c0,,,,,,,,,,,156.9806,176.2244,space,19.1845,,[],[],[],[],[],[],2,0,2,0,1,,,,,,,,,,,,,,,,,,,,,,,,,,,,,,,,,,,,,,,,,,,,,,,,,,,,,,,,,,,,,,,,,,,,,,,,,,,,,,
,,,,,5d25df839542a40001a83bf4,2025-07-07_22h36.34.221,group3.4_multiperson,2023.2.2,Win32,61.34969325,686c2ebf0248f13bef9af11f,686c83f8516648845999f7c0,,,,,,,,,,,176.2248,206.2583,space,30.0059,,[],[],[],[],[],[],3,0,3,0,1,,,,,,,,,,,,,,,,,,,,,,,,,,,,,,,,,,,,,,,,,,,,,,,,,,,,,,,,,,,,,,,,,,,,,,,,,,,,,,
,,,,,5d25df839542a40001a83bf4,2025-07-07_22h36.34.221,group3.4_multiperson,2023.2.2,Win32,61.34969325,686c2ebf0248f13bef9af11f,686c83f8516648845999f7c0,,,,,,,,,,,206.2592,237.7586,space,31.4726,,[],[],[],[],[],[],4,0,4,0,1,,,,,,,,,,,,,,,,,,,,,,,,,,,,,,,,,,,,,,,,,,,,,,,,,,,,,,,,,,,,,,,,,,,,,,,,,,,,,,
,,,,,5d25df839542a40001a83bf4,2025-07-07_22h36.34.221,group3.4_multiperson,2023.2.2,Win32,61.34969325,686c2ebf0248f13bef9af11f,686c83f8516648845999f7c0,,,,,,,,,,,237.7594,264.0587,space,26.2794,,[],[],[],[],[],[],5,0,5,0,1,,,,,,,,,,,,,,,,,,,,,,,,,,,,,,,,,,,,,,,,,,,,,,,,,,,,,,,,,,,,,,,,,,,,,,,,,,,,,,
,,,,,5d25df839542a40001a83bf4,2025-07-07_22h36.34.221,group3.4_multiperson,2023.2.2,Win32,61.34969325,686c2ebf0248f13bef9af11f,686c83f8516648845999f7c0,,,,,,,,,,,,,,,,,,,,,,,,,,,264.0666,266.642,266.6818,1,audio/Narrative13Situation2.wav,268.6917,,268.6923,298.46,"[[999,7],[999,132],[999,215],[999,299],[999,382],[999,466],[999,548],[999,632],[999,715],[999,798],[999,882],[999,965],[999,1049],[999,1132],[999,1215],[999,1298],[999,1382],[999,1465],[999,1549],[999,1632],[999,1715],[999,1799],[999,1882],[999,1965],[999,2049],[999,2132],[999,2215],[999,2299],[999,2382],[999,2465],[999,2549],[999,2632],[999,2715],[999,2799],[999,2882],[999,2965],[999,3049],[999,3132],[999,3215],[999,3299],[999,3382],[999,3465],[999,3549],[999,3632],[999,3715],[999,3799],[999,3882],[999,3965],[999,4048],[999,4132],[999,4215],[999,4299],[999,4382],[999,4465],[999,4548],[999,4632],[999,4715],[999,4799],[999,4882],[999,4965],[999,5049],[999,5132],[999,5215],[999,5299],[999,5382],[999,5465],[999,5548],[999,5632],[999,5715],[999,5799],[999,5882],[999,5965],[999,6048],[999,6132],[999,6215],[999,6298],[999,6382],[999,6465],[999,6548],[999,6632],[999,6715],[999,6832],[999,6915],[999,6998],[999,7304],[999,7382],[999,7465],[999,7548],[999,7632],[999,7715],[999,7799],[999,7882],[999,7965],[999,8049],[999,8132],[999,8215],[999,8299],[999,8382],[999,8465],[999,8549],[999,8633],[999,8716],[999,8798],[999,8882],[999,8965],[999,9049],[999,9132],[999,9215],[999,9299],[999,9382],[999,9465],[999,9549],[999,9632],[999,9715],[999,9799],[999,9882],[999,9965],[999,10049],[999,10132],[999,10215],[999,10299],[999,10382],[999,10465],[999,10548],[999,10632],[999,10715],[999,10799],[999,10882],[999,10965],[999,11049],[999,11132],[999,11215],[999,11298],[999,11382],[999,11465],[999,11549],[999,11632],[999,11715],[999,11799],[999,11882],[999,11965],[999,12048],[999,12132],[999,12215],[999,12298],[999,12382],[999,12466],[999,12549],[999,12632],[999,12715],[999,12799],[999,12882],[999,12965],[999,13049],[999,13132],[999,13216],[999,13299],[999,13382],[999,13465],[999,13549],[999,13632],[999,13715],[999,13799],[999,13882],[999,13965],[999,14049],[999,14132],[999,14216],[999,14299],[999,14382],[999,14466],[999,14549],[999,14632],[999,14715],[999,14799],[999,14882],[999,14965],[999,15049],[999,15132],[999,15216],[999,15299],[999,15382],[999,15465],[999,15551],[999,15632],[999,15716],[999,15799],[999,15882],[999,15965],[999,16049],[999,16132],[58.8,16216],[73.3,16716],[73.3,16799],[74.5,16883],[74.5,16965],[74.7,17049],[75.4,17133],[75.4,17215],[75.5,17299],[75.7,17392],[75.7,17466],[75.7,17548],[76,17633],[76.1,17716],[76.6,17799],[77,17882],[77.2,17966],[77.3,18049],[77.4,18132],[77.4,18215],[77.4,18299],[77.4,18382],[77.4,18465],[77.4,18549],[77.4,18632],[78,18716],[78.5,18799],[78.6,18882],[78.6,18965],[78.6,19049],[78.6,19132],[79.5,19216],[79.9,19299],[81.7,19382],[83.6,19466],[84.9,19549],[89.7,19633],[90.6,19716],[91.8,19799],[93.4,19883],[93.7,19965],[94.9,20049],[95.5,20133],[95.5,20215],[95.8,20299],[96,20382],[96,20466],[96,20548],[96,20632],[96,20716],[96,20799],[96,20882],[96,20965],[96,21049],[96,21132],[96,21215],[96,21298],[96,21382],[95.3,21467],[94.6,21550],[95.2,21633],[97.2,21715],[97.2,21799],[97.1,21882],[97.1,21965],[97.1,22049],[97.1,22132],[97.1,22215],[97.2,22299],[97.4,22382],[98,22466],[98.2,22549],[98.4,22632],[98.4,22715],[98.4,22799],[98.4,22882],[98.4,22966],[98.4,23049],[98.5,23132],[98.5,23216],[98.5,23299],[98.5,23382],[98.5,23465],[98.5,23549],[98.5,23632],[98.5,23715],[98.5,23799],[98.5,23882],[97.7,23967],[96.8,24049],[93.9,24132],[92.4,24216],[87.7,24299],[77.3,24383],[67.9,24466],[32.3,24715],[26.9,24799],[26.9,24882],[27.8,29717]]",298.4622,314.0921,51.20117028,14.4865,"[{""rating"":33.18706764937438,""responseTime"":7.553599999904634},{""rating"":58.670425871381546,""responseTime"":8.986799999952325},{""rating"":62.624740494369235,""responseTime"":10.019399999856944},{""rating"":55.448397991411866,""responseTime"":11.402599999904623},{""rating"":52.958640764312804,""responseTime"":13.185899999856929},{""rating"":51.20117028023172,""responseTime"":14.486499999999978}]",space,15.0842,,314.0927,Definitely yes,100,314.1048,,,[],,0,0,0,0,1,audio/Narrative13Situation2.wav,audio/Narrative13Situation2.wav,audio/Narrative13Situation2.wav,audio/Narrative13Situation2.wav,2,2,2,2,,,,,,,,,,,,,,,,,,,,,,,,,,,,,,,,,,,,,,,
,,,,,5d25df839542a40001a83bf4,2025-07-07_22h36.34.221,group3.4_multiperson,2023.2.2,Win32,61.34969325,686c2ebf0248f13bef9af11f,686c83f8516648845999f7c0,,,,,,,,,,,,,,,,,,,,,,,,,,,,,314.1052,1,audio/Narrative7Situation1.wav,317.2581,space,317.2582,373.1424,"[[51.5,2350],[52.1,2433],[54.4,2516],[59.4,2600],[62.1,2683],[64.4,2766],[71.6,2850],[72.8,2933],[79.5,3017],[85.9,3100],[90,3183],[90,3266],[90,3349],[90.3,3433],[93.3,3516],[93.4,3601],[93.6,3683],[93.6,3766],[93.6,3850],[93.6,3933],[93.6,4016],[93.6,4100],[93.6,4183],[93.6,4266],[93.6,4350],[93.6,4433],[93.6,4517],[93.6,4599],[93.5,4683],[93.5,4766],[93.5,4850],[93.4,4933],[86.2,5017],[82.6,5100],[79.5,5183],[69.2,5266],[64.6,5350],[64.6,5433],[64.6,5516],[64.6,5600],[64.6,5683],[64.6,5766],[64.6,5850],[64.4,5933],[61.6,6017],[60.3,6100],[56.8,6184],[56.5,6267],[55.8,6350],[54.6,6434],[53.9,6517],[53.1,6600],[52.7,6683],[52.5,6766],[52.5,6850],[52.2,6933],[51.8,7016],[51.8,7100],[51.7,7183],[51.2,7267],[50.9,7351],[50.8,7432],[50.8,7516],[50.8,7600],[50.8,7683],[50.8,7766],[50.8,7849],[50.8,7933],[50.8,8016],[50.8,8100],[50.8,8183],[50.8,8266],[50.8,8349],[50.8,8433],[50.8,8516],[50.8,8600],[49,8683],[47.4,10183],[46.8,10267],[46.8,10350],[46.8,10433],[46.8,10517],[46.8,10600],[46.8,10683],[46.8,10766],[46.7,10849],[46.7,10933],[46.7,11017],[46.7,11100],[46.7,11183],[46.7,11266],[46.7,11350],[46.5,11433],[46.5,11516],[46.5,11599],[46.5,11683],[47.9,11767],[52.7,11850],[57.8,11933],[58.3,12017],[58.3,12099],[58.3,12183],[58.3,12266],[58.3,12350],[58.3,12433],[58.3,12516],[58.2,12600],[58.2,12683],[58.2,12766],[58.2,12849],[58.2,12933],[58.2,13016],[58.2,13100],[58.2,13183],[59,13267],[59.7,13350],[60.5,13433],[61,13517],[62.8,13600],[64.1,13683],[64.8,13767],[65.4,13850],[66,13933],[66.2,14016],[66.2,14100],[67.6,14183],[69.4,14267],[69.8,14350],[69.8,14433],[69.8,14516],[69.8,14600],[69.8,14683],[69.8,14766],[69.8,14850],[69.7,14933],[69.4,15017],[69.4,15100],[69.4,15183],[69.4,15266],[69.2,15350],[69.2,15433],[69.1,15516],[69.1,15600],[69.1,15683],[69.1,15766],[69.1,15850],[69.1,15933],[69.1,16016],[69.1,16100],[69.1,16183],[69.1,16266],[69.1,16350],[69.1,16433],[69.1,16516],[68.9,16599],[68.9,16683],[68.9,16766],[68.9,16850],[68.9,16933],[68.9,17016],[68.9,17100],[68.9,17183],[68.9,17266],[68.9,17349],[68.9,17433],[68.9,17516],[68.9,17600],[68.9,17683],[68.9,17766],[68.9,17850],[68.9,17933],[68.9,18016],[68.9,18099],[68.9,18183],[68.9,18266],[68.9,18350],[68.9,18433],[68.9,18516],[68.9,18600],[68.9,18683],[68.9,18766],[68.9,18850],[68.9,18933],[68.9,19016],[68.9,19100],[68.9,19183],[68.9,19266],[68.9,19349],[68.9,19433],[68.9,19516],[68.9,19600],[68.9,19683],[68.9,19766],[68.9,19850],[68.9,19933],[68.9,20016],[68.9,20099],[68.9,20183],[68.9,20266],[68.9,20350],[68.9,20433],[68.9,20516],[68.9,20599],[68.9,20683],[68.9,20766],[68.9,20850],[68.9,20933],[68.9,21016],[68.9,21100],[68.9,21183],[68.9,21266],[68.9,21350],[68.9,21433],[68.9,21516],[68.9,21599],[68.9,21684],[68.9,21766],[68.9,21850],[68.9,21933],[68.9,22016],[68.9,22099],[68.9,22183],[68.9,22266],[68.9,22350],[68.9,22433],[68.9,22516],[68.9,22600],[68.9,22683],[68.9,22766],[68.9,22850],[68.9,22933],[68.9,23016],[68.9,23100],[68.9,23183],[68.9,23266],[68.9,23350],[68.9,23433],[68.9,23516],[68.9,23599],[68.9,23683],[68.9,23766],[68.9,23850],[68.9,23933],[68.9,24016],[68.9,24100],[68.9,24183],[68.9,24266],[68.9,24350],[68.9,24433],[68.9,24516],[68.9,24600],[68.9,24683],[68.9,24766],[68.9,24850],[68.9,24933],[68.9,25016],[68.9,25100],[68.9,25183],[68.9,25267],[68.9,25350],[68.9,25433],[68.9,25516],[68.9,25600],[68.9,25683],[68.9,25766],[68.9,25850],[68.9,25933],[68.9,26016],[68.9,26099],[68.9,26183],[68.9,26266],[68.9,26349],[68.9,26433],[68.9,26516],[68.9,26599],[68.9,26683],[68.9,26766],[68.9,26850],[68.9,26933],[68.9,27016],[68.9,27100],[68.9,27183],[68.9,27266],[68.9,27350],[68.9,27433],[68.9,27516],[68.9,27599],[68.9,27683],[68.9,27766],[68.9,27850],[68.9,27933],[68.9,28016],[68.9,28100],[68.9,28183],[68.9,28266],[68.9,28350],[68.9,28433],[68.9,28516],[68.9,28600],[68.9,28683],[68.9,28766],[68.9,28849],[68.9,28933],[68.9,29016],[68.9,29100],[68.9,29183],[68.9,29266],[68.9,29349],[68.9,29433],[68.9,29516],[68.9,29600],[68.9,29683],[68.9,29766],[68.9,29850],[68.9,29933],[68.9,30016],[68.9,30100],[68.9,30183],[68.9,30266],[68.9,30350],[68.9,30433],[68.9,30516],[68.9,30600],[68.9,30683],[68.9,30766],[68.9,30850],[68.9,30933],[68.9,31016],[68.9,31100],[68.9,31183],[68.9,31266],[68.9,31349],[68.9,31433],[68.9,31516],[68.9,31600],[68.9,31683],[68.9,31766],[68.9,31850],[68.9,31933],[68.9,32016],[68.9,32100],[68.9,32183],[68.9,32266],[68.9,32350],[68.9,32433],[68.9,32516],[68.9,32600],[68.9,32683],[68.9,32766],[68.9,32849],[68.9,32933],[68.9,33016],[68.9,33099],[68.9,33183],[68.9,33266],[68.9,33350],[68.9,33433],[68.9,33516],[68.9,33600],[68.9,33683],[68.9,33766],[68.9,33849],[68.9,33933],[68.9,34016],[68.9,34100],[68.9,34183],[68.9,34266],[68.9,34350],[68.9,34433],[68.9,34516],[68.9,34599],[68.9,34683],[68.9,34766],[68.9,34850],[68.9,34933],[68.9,35016],[68.9,35100],[68.9,35183],[68.9,35266],[68.9,35350],[68.9,35433],[68.9,35516],[68.9,35600],[68.9,35683],[68.9,35766],[68.9,35850],[68.9,35935],[68.9,36016],[68.9,36100],[68.9,36183],[68.9,36266],[68.9,36350],[68.9,36433],[68.9,36516],[68.9,36600],[68.9,36683],[68.9,36766],[68.9,36850],[68.9,36933],[68.9,37016],[68.9,37100],[68.9,37183],[68.9,37266],[68.9,37350],[68.9,37433],[68.9,37516],[68.9,37599],[68.9,37683],[68.9,37766],[68.9,37850],[68.9,37933],[68.9,38016],[68.9,38100],[68.9,38183],[68.9,38266],[68.9,38350],[68.9,38433],[68.9,38516],[68.9,38600],[68.9,38683],[68.9,38769],[68.9,38849],[68.9,38933],[68.9,39016],[68.9,39100],[68.9,39183],[68.9,39266],[68.9,39349],[68.9,39433],[68.9,39516],[68.9,39600],[68.9,39683],[68.9,39766],[68.9,39850],[68.9,39933],[68.9,40016],[68.9,40100],[68.9,40183],[68.9,40266],[68.9,40349],[68.9,40433],[68.9,40516],[68.9,40600],[68.9,40683],[68.9,40766],[68.9,40850],[68.9,40933],[68.9,41016],[68.9,41100],[68.9,41183],[68.9,41266],[68.9,41349],[68.9,41433],[68.9,41516],[68.9,41601],[68.9,41683],[68.9,41766],[68.9,41850],[68.9,41933],[68.9,42016],[68.9,42100],[68.9,42183],[68.9,42266],[68.9,42350],[68.9,42433],[68.9,42516],[68.9,42601],[68.9,42683],[68.9,42766],[68.9,42850],[68.9,42933],[68.9,43016],[68.9,43100],[68.9,43183],[68.9,43266],[68.9,43350],[68.9,43433],[68.9,43516],[68.9,43600],[68.9,43684],[68.9,43766],[68.9,43850],[68.9,43933],[68.9,44016],[68.9,44100],[68.9,44183],[68.9,44266],[68.9,44351],[70.4,44433],[70.6,44516],[71.4,44600],[72.2,44683],[72.5,44767],[73.6,44850],[76,44934],[78.8,45017],[81.5,45100],[83.5,45183],[83.9,45267],[83.9,45350],[83.9,45433],[83.9,45516],[83.9,45600],[83.9,45683],[83.9,45766],[83.9,45850],[83.9,45933],[83.9,46016],[84,46099],[84,46183],[84.2,46266],[83.9,46350],[83.9,46433],[83.9,46516],[83.9,46600],[83.9,46683],[83.9,46766],[83.9,46850],[83.9,46933],[83.9,47016],[83.9,47100],[83.9,47183],[83.9,47266],[83.9,47350],[83.9,47433],[83.9,47516],[83.9,47600],[83.9,47683],[83.9,47766],[83.9,47850],[83.9,47933],[83.9,48016],[83.9,48100],[83.9,48183],[83.9,48266],[83.9,48350],[83.9,48433],[83.9,48516],[83.9,48600],[83.9,48683],[83.9,48769],[83.9,48850],[83.9,48933],[83.9,49016],[83.9,49099],[83.9,49183],[83.9,49266],[83.9,49350],[83.9,49433],[83.9,49516],[83.9,49600],[83.9,49683],[83.9,49766],[83.9,49849],[83.9,49933],[83.9,50016],[83.9,50100],[83.9,50183],[83.9,50266],[83.9,50349],[83.9,50433],[83.9,50516],[83.9,50600],[83.9,50683],[83.9,50766],[83.9,50850],[83.9,50933],[83.9,51016],[83.9,51100],[83.9,51183],[83.9,51266],[83.9,51350],[83.9,51433],[83.9,51516],[83.9,51600],[83.9,51683],[83.9,51766],[83.9,51849],[83.9,51933],[83.9,52016],[83.9,52100],[83.9,52183],[83.9,52266],[83.9,52349],[83.9,52433],[83.9,52516],[83.9,52600],[83.9,52683],[83.9,52766],[83.9,52850],[83.9,52933],[83.9,53016],[83.9,53100],[83.9,53183],[83.9,53266],[83.9,53349],[83.9,53433],[83.9,53516],[83.9,53600],[83.9,53683],[83.9,53766],[83.9,53850],[83.9,53933],[83.9,54017],[83.9,54100],[83.9,54183],[83.9,54266],[83.9,54349],[83.9,54433],[83.9,54516],[83.9,54600],[83.9,54683],[83.9,54766],[83.9,54850],[83.9,54933],[83.9,55016],[83.9,55100],[83.9,55183],[83.9,55266],[83.9,55350],[83.9,55433],[83.9,55516],[83.9,55600],[83.9,55683],[83.9,55766],[83.9,55850]]",373.1428,378.6249,98.9458508,2.06,"[{""rating"":98.94585079920266,""responseTime"":2.0600000000000023}]",space,4.9428,,378.6251,Not at all,0,378.6312,,,[],,0,1,1,1,1,audio/Narrative7Situation1.wav,audio/Narrative8Situation1.wav,audio/Narrative5Situation1.wav,audio/Narrative6Situation1.wav,2,5,5,2,3.1267,,,,,,,,,,,,,,,,,,,,,,,,,,,,,,,,,,,,,,
,,,,,5d25df839542a40001a83bf4,2025-07-07_22h36.34.221,group3.4_multiperson,2023.2.2,Win32,61.34969325,686c2ebf0248f13bef9af11f,686c83f8516648845999f7c0,,,,,,,,,,,,,,,,,,,,,,,,,,,,,378.6315,1,audio/Narrative7Situation2.wav,381.642,,381.6422,389.126,"[[999,4],[999,82],[999,166],[999,249],[999,332],[999,416],[999,499],[999,582],[999,667],[999,750],[999,832],[999,916],[999,999],[999,1082],[999,1166],[999,1249],[999,1332],[999,1416],[999,1499],[999,1582],[999,1666],[999,1749],[999,1832],[999,1916],[999,1999],[999,2082],[999,2166],[999,2249],[999,2332],[999,2415],[999,2499],[999,2582],[999,2665],[999,2749],[999,2832],[999,2915],[999,2999],[999,3082],[999,3166],[999,3249],[999,3332],[999,3416],[999,3499],[999,3582],[999,3666],[999,3749],[999,3832],[999,3915],[999,3999],[999,4082],[999,4166],[999,4249],[999,4332],[999,4416],[999,4499],[999,4582],[999,4666],[999,4749],[999,4833],[999,4916],[999,4999],[999,5083],[999,5166],[999,5249],[999,5332],[999,5416],[999,5499],[999,5582],[999,5666],[999,5749],[999,5832],[999,5916],[999,5999],[999,6082],[999,6166],[999,6249],[999,6332],[999,6416],[999,6499],[999,6582],[999,6666],[999,6749],[999,6832],[999,6916],[999,6999],[999,7082],[999,7166],[999,7249],[999,7332],[999,7416]]",389.1272,398.0092,97.18838836,6.0884,"[{""rating"":97.18838836019528,""responseTime"":6.088400000095362}]",space,8.3341,,398.0093,Definitely yes,100,398.0158,,,[],,0,2,2,2,1,audio/Narrative7Situation2.wav,audio/Narrative8Situation2.wav,audio/Narrative5Situation2.wav,audio/Narrative6Situation2.wav,3,3,3,3,,,,,,,,,,,,,,,,,,,,,,,,,,,,,,,,,,,,,,,
,,,,,5d25df839542a40001a83bf4,2025-07-07_22h36.34.221,group3.4_multiperson,2023.2.2,Win32,61.34969325,686c2ebf0248f13bef9af11f,686c83f8516648845999f7c0,,,,,,,,,,,,,,,,,,,,,,,,,,,,,398.0161,1,audio/Narrative7Situation3.wav,406.0256,,406.0257,415.2924,"[[999,0],[999,82],[999,166],[999,250],[999,333],[999,416],[999,499],[999,582],[999,666],[999,750],[999,833],[999,916],[999,999],[999,1083],[999,1166],[999,1249],[999,1333],[999,1416],[999,1500],[999,1582],[999,1666],[999,1749],[999,1833],[999,1916],[999,1999],[999,2082],[999,2166],[999,2249],[999,2333],[999,2416],[999,2499],[999,2582],[999,2666],[999,2749],[999,2833],[999,2916],[999,2999],[999,3083],[999,3165],[999,3249],[999,3333],[999,3416],[999,3499],[999,3582],[999,3665],[999,3749],[999,3832],[999,3915],[999,3999],[999,4083],[999,4166],[999,4249],[999,4332],[999,4416],[999,4499],[999,4582],[999,4665],[999,4749],[999,4832],[999,4915],[999,4999],[999,5083],[999,5166],[999,5249],[999,5332],[999,5416],[999,5499],[999,5582],[999,5666],[999,5749],[999,5832],[999,5916],[999,5999],[999,6083],[999,6166],[999,6249],[999,6333],[999,6416],[999,6499],[999,6583],[999,6666],[999,6749],[999,6833],[999,6916],[999,6999],[999,7083],[999,7166],[999,7249],[999,7333],[999,7416],[999,7499],[999,7583],[999,7666],[999,7749],[999,7833],[999,7916],[999,7999],[999,8083],[999,8166],[999,8249],[999,8333],[999,8416],[999,8499],[999,8582],[999,8666],[999,8749],[999,8833],[999,8916],[999,8999],[999,9083],[999,9166],[999,9249]]",415.2926,426.6091,51.3476228,11.1927,"[{""rating"":36.40910357441777,""responseTime"":4.244400000095368},{""rating"":48.12558687674774,""responseTime"":8.64130000019071},{""rating"":48.56496053157326,""responseTime"":9.91380000019069},{""rating"":51.347622801791104,""responseTime"":11.192700000047637}]",space,10.7759,,426.6093,Not at all,0,426.6151,,,[],,0,3,3,3,1,audio/Narrative7Situation3.wav,audio/Narrative8Situation3.wav,audio/Narrative5Situation3.wav,audio/Narrative6Situation3.wav,8,4,3,5,,,,,,,,,,,,,,,,,,,,,,,,,,,,,,,,,,,,,,,
,,,,,5d25df839542a40001a83bf4,2025-07-07_22h36.34.221,group3.4_multiperson,2023.2.2,Win32,61.34969325,686c2ebf0248f13bef9af11f,686c83f8516648845999f7c0,,,,,,,,,,,,,,,,,,,,,,,,,,,,,426.6154,1,audio/Narrative7Situation4.wav,429.6255,,429.6257,441.3592,[],441.3593,449.5592,16.93043953,3.2898,"[{""rating"":16.93043952513497,""responseTime"":3.289799999952322}]",space,7.6496,,449.5594,Partially,50,449.5646,,,[],,0,4,4,4,1,audio/Narrative7Situation4.wav,audio/Narrative8Situation4.wav,audio/Narrative5Situation4.wav,audio/Narrative6Situation4.wav,3,3,1,2,,,,,,,,,,,,,,,,,,,,,,,,,,,,,,,,,,,,,,,
,,,,,5d25df839542a40001a83bf4,2025-07-07_22h36.34.221,group3.4_multiperson,2023.2.2,Win32,61.34969325,686c2ebf0248f13bef9af11f,686c83f8516648845999f7c0,,,,,,,,,,,,,,,,,,,,,,,,,,,,,449.5649,1,audio/Narrative7Situation5.wav,454.5758,,454.5759,463.0759,"[[16.4,5999],[16.4,6082],[16.4,6166],[16.4,6249],[16.4,6332],[16.4,6416],[16.4,6499],[16.4,6582],[16.4,6666],[16.4,6749],[16.4,6832],[16.4,6916],[16.4,6999],[16.4,7082],[16.4,7165],[16.4,7249],[16.4,7333],[16.4,7416],[16.4,7499],[16.4,7582],[16.4,7666],[16.4,7749],[16.4,7833],[16.4,7916],[16.4,7999],[16.4,8083],[16.4,8166],[16.4,8249],[16.4,8333],[16.4,8416],[16.4,8499]]",463.0761,467.3921,92.06242138,3.4377,"[{""rating"":92.06242138443777,""responseTime"":3.4377000000476414}]",space,3.7768,,467.3923,Definitely yes,100,467.3979,,,[],,0,5,5,5,1,audio/Narrative7Situation5.wav,audio/Narrative8Situation5.wav,audio/Narrative5Situation5.wav,audio/Narrative6Situation5.wav,5,2,5,2,,,,,,,,,,,,,,,,,,,,,,,,,,,,,,,,,,,,,,,
,,,,,5d25df839542a40001a83bf4,2025-07-07_22h36.34.221,group3.4_multiperson,2023.2.2,Win32,61.34969325,686c2ebf0248f13bef9af11f,686c83f8516648845999f7c0,,,,,,,,,,,,,,,,,,,,,,,,,,,,,467.3982,1,audio/Narrative7Situation6.wav,470.4094,,470.4095,480.3927,"[[999,0],[999,82],[999,166],[999,249],[999,332],[999,416],[999,499],[999,582],[999,666],[999,750],[999,832],[999,916],[999,1000],[999,1082],[999,1165],[999,1249],[999,1333],[999,1416],[999,1499],[999,1582],[999,1666],[999,1749],[999,1832],[999,1916],[100,2000],[100,2083],[100,2166],[100,2250],[95.5,2333],[90.5,2416],[90.3,2500],[90,2583],[90,2666],[90.5,2749],[91.4,2833],[91.7,2915],[92.4,2999],[93,3083],[93.1,3166],[93.1,3249],[93.7,3332],[93.9,3415],[93.9,3499],[93.9,3582],[93.9,3665],[93.9,3749],[93.9,3832],[93.9,3915],[93.9,3999],[93.9,4082],[93.9,4166],[93.9,4249],[93.9,4332],[93.9,4416],[93.9,4499],[93.9,4582],[93.9,4666],[93.9,4749],[93.9,4832],[93.9,4916],[93.9,4999],[93.9,5082],[93.9,5165],[93.9,5249],[93.9,5332],[93.9,5416],[93.7,5499],[93.7,5582],[93.7,5665],[93.7,5749],[93.7,5832],[93.7,5915],[93.7,5999],[93.7,6082],[93.7,6165],[93.6,6249],[93.6,6332],[93.6,6415],[93.6,6499],[93.6,6582],[93.6,6666],[93.6,6749],[93.6,6832],[93.6,6916],[93.6,6999],[93.6,7083],[93.6,7165],[93.6,7249],[93.6,7332],[93.6,7416],[93.6,7499],[93.6,7582],[93.6,7666],[93.6,7749],[93.6,7832],[93.6,7916],[93.6,7999],[93.6,8082],[93.6,8165],[93.6,8249],[93.6,8332],[93.6,8416],[93.6,8499],[93.6,8582],[93.6,8666],[93.6,8750],[93.6,8832],[93.6,8916],[93.6,8999],[93.6,9082],[93.6,9165],[93.6,9249],[93.6,9332],[93.6,9416],[93.6,9499],[93.6,9582],[93.6,9666],[93.6,9749],[93.6,9832],[93.6,9916]]",480.3929,481.8263,94.25925748,0.99,"[{""rating"":94.25925747827067,""responseTime"":0.9900000000000091}]",space,0.8874,,481.8264,Not at all,0,481.832,,,[],,0,6,6,6,1,audio/Narrative7Situation6.wav,audio/Narrative8Situation6.wav,audio/Narrative5Situation6.wav,audio/Narrative6Situation6.wav,3,2,3,2,,,,,,,,,,,,,,,,,,,,,,,,,,,,,,,,,,,,,,,
,,,,,5d25df839542a40001a83bf4,2025-07-07_22h36.34.221,group3.4_multiperson,2023.2.2,Win32,61.34969325,686c2ebf0248f13bef9af11f,686c83f8516648845999f7c0,,,,,,,,,,,,,,,,,,,,,,,,,,,,,481.8324,1,audio/Narrative7Situation7.wav,486.8426,,486.8427,504.0261,"[[93,1082],[93,1166],[93,1249],[100,1333],[65.6,1417],[38.3,1999],[90.3,2417],[92.1,2499],[92.1,2582],[92.1,2667],[92.1,2750],[92.8,2833],[93.3,2916],[93.6,2999],[93.6,3082],[93.6,3166],[94.1,3249],[95,3333],[95.2,3417],[96.5,3499],[97.1,3582],[97.1,3666],[97.1,3749],[97.1,3832],[97.1,3916],[97.1,3999],[97.1,4082],[97.1,4166],[97.4,4250],[98,4333],[98.4,4417],[99.1,4499],[99.4,4582],[99.4,4666],[99.4,4749],[99.4,4832],[99.4,4916],[99.4,4999],[99.4,5082],[99.4,5166],[99.4,5249],[99.4,5333],[99.4,5416],[99.4,5499],[99.4,5582],[99.4,5666],[99.4,5749],[99.4,5832],[99.4,5916],[99.4,5999],[99.4,6082],[99.4,6166],[99.4,6249],[99.4,6332],[99.4,6416],[99.4,6499],[99.4,6582],[99.4,6666],[99.4,6749],[99.4,6832],[99.4,6916],[99.1,7000],[98.7,7082],[98.7,7166],[98.7,7249],[99.6,7333],[99.1,7416],[99.1,7499],[99.1,7582],[99,7666],[99,7749],[99,7832],[99,7916],[98.4,8000],[97.7,8082],[97.7,8166],[97.7,8249],[97.7,8333],[97.2,8417],[97.1,8499],[97.1,8582],[97.1,8666],[97.1,8749],[97.1,8832],[97.1,8916],[97.1,8999],[97.1,9082],[97.1,9166],[97.1,9249]]",504.0264,506.976,91.76951634,2.5609,"[{""rating"":91.769516341319,""responseTime"":2.560900000095444}]",space,2.4134,,506.9763,Not at all,0,506.981,,,[],,0,7,7,7,1,audio/Narrative7Situation7.wav,audio/Narrative8Situation7.wav,audio/Narrative5Situation7.wav,audio/Narrative6Situation7.wav,5,3,4,5,,,,,,,,,,,,,,,,,,,,,,,,,,,,,,,,,,,,,,,
,,,,,5d25df839542a40001a83bf4,2025-07-07_22h36.34.221,group3.4_multiperson,2023.2.2,Win32,61.34969325,686c2ebf0248f13bef9af11f,686c83f8516648845999f7c0,,,,,,,,,,,,,,,,,,,,,,,,,,,,,506.9813,1,audio/Narrative7Situation8.wav,508.9925,,508.9926,519.0258,"[[91.7,5182],[91.5,5266],[91.5,5349],[91.5,5432],[91.5,5516],[91.5,5599],[91.5,5683],[91.4,5766],[91.4,5849],[91.2,5933],[91.2,6016],[91.2,6099],[91.2,6183],[91.2,6266],[91.2,6349],[91.2,6433],[91.2,6516],[91.2,6599],[91.2,6683],[91.2,6766],[91.2,6849],[91.2,6933],[91.1,7016],[90.9,7099],[90.9,7183],[90.9,7266],[91.1,7350],[91.1,7433],[91.1,7516],[91.1,7599],[91.1,7682],[91.1,7766],[91.1,7849],[91.1,7932],[91.1,8016],[91.1,8099],[91.1,8182],[91.1,8266],[91.1,8349],[91.1,8433],[91.1,8516],[91.1,8599],[91.1,8683],[91.1,8766],[91.1,8849],[91.1,8933],[91.1,9016],[91.1,9099],[91.1,9182],[91.1,9266],[90.9,9349],[89.2,9433],[89.2,9516],[89.2,9599],[89.2,9683],[89.2,9766],[89.2,9849],[89.2,9933],[89.2,10016]]",519.026,526.4755,89.27975911,0.8916,"[{""rating"":89.27975911421993,""responseTime"":0.8915999999045425}]",space,6.9058,,526.4756,Definitely yes,100,526.4816,,,[],,0,8,8,8,1,audio/Narrative7Situation8.wav,audio/Narrative8Situation8.wav,audio/Narrative5Situation8.wav,audio/Narrative6Situation8.wav,2,3,3,5,,,,,,,,,,,,,,,,,,,,,,,,,,,,,,,,,,,,,,,
,,,,,5d25df839542a40001a83bf4,2025-07-07_22h36.34.221,group3.4_multiperson,2023.2.2,Win32,61.34969325,686c2ebf0248f13bef9af11f,686c83f8516648845999f7c0,,,,,,,,,,,,,,,,,,,,,,,,,,,,,526.4819,1,audio/Narrative7Situation9.wav,528.4927,,528.4927,537.1262,"[[89.9,2000],[89.9,2083],[89.9,2166],[89.9,2249],[89.9,2332],[89.9,2416],[89.9,2499],[89.9,2582],[89.9,2666],[89.9,2749],[89.9,2833],[89.9,2916],[89.9,2999],[89.9,3083],[89.9,3166],[89.9,3249],[89.9,3333],[89.9,3416],[89.9,3499],[89.9,3583],[89.9,3666],[89.9,3749],[89.9,3832],[89.9,3916],[89.9,3999],[89.9,4082],[89.9,4166],[89.9,4249],[89.9,4332],[89.9,4416],[89.9,4499],[89.9,4583],[89.9,4666],[89.9,4749],[89.9,4833],[90,4916],[90,4999],[90,5083],[90,5166],[90,5249],[90,5332],[90,5416],[90,5499],[90,5583],[90,5666],[90,5749],[90,5833],[90,5916],[90,5999],[90,6083],[90,6166],[90,6249],[90,6333],[90,6416],[90,6499],[90,6582],[90,6666],[90,6749],[90,6833],[90,6916],[90,6999],[90,7083],[90,7166],[90,7249],[90,7333],[90,7416],[90,7499],[90,7584],[90,7666],[90,7749],[90,7832],[90,7916],[90,7999],[90,8083],[90,8166],[90,8249],[90,8332],[90,8416],[90,8499],[90,8583]]",537.1264,540.9262,93.6734313,2.7399,"[{""rating"":93.67343130188574,""responseTime"":2.7398999998569025}]",space,3.249,,540.9264,Not at all,0,540.9322,,,[],,0,9,9,9,1,audio/Narrative7Situation9.wav,audio/Narrative8Situation9.wav,audio/Narrative5Situation9.wav,audio/Narrative6Situation9.wav,2,3,3,4,,,,,,,,,,,,,,,,,,,,,,,,,,,,,,,,,,,,,,,
,,,,,5d25df839542a40001a83bf4,2025-07-07_22h36.34.221,group3.4_multiperson,2023.2.2,Win32,61.34969325,686c2ebf0248f13bef9af11f,686c83f8516648845999f7c0,,,,,,,,,,,,,,,,,,,,,,,,,,,,,540.9325,1,audio/Narrative8Situation1.wav,545.9426,,545.9428,561.8765,"[[25.6,3916],[25.4,3999],[25.4,4082],[25.4,4166],[25.4,4249],[25.4,4333],[25.4,4416],[25.4,4499],[25.4,4583],[25.4,4666],[25.4,4749],[25.4,4833],[25.4,4916],[25.4,4999],[25.4,5083],[25.4,5166],[25.4,5249],[25.4,5333],[25.4,5416],[25.4,5499],[25.4,5583],[25.4,5666],[25.4,5749],[25.4,5833],[25.4,5916],[25.4,5999],[25.4,6083],[25.4,6166],[25.4,6249],[25.4,6333],[25.4,6416],[25.4,6499],[25.4,6583],[25.4,6666],[25.4,6749],[25.4,6833],[25.4,6916],[25.4,6999],[25.4,7083],[25.4,7166],[25.4,7249],[25.4,7333],[25.4,7416],[25.4,7499],[25.4,7583],[25.4,7666],[25.4,7749],[25.4,7832],[25.4,7916],[25.4,7999],[25.4,8083],[25.4,8166],[25.4,8249],[25.4,8333],[25.4,8416],[25.4,8499],[25.4,8583],[25.4,8666],[25.4,8749],[25.4,8833],[25.4,8916],[25.4,8999],[25.4,9083],[25.4,9166],[25.4,9249],[25.4,9333],[25.4,9416],[25.4,9499],[25.4,9583],[25.4,9666],[25.4,9749],[25.4,9832],[25.4,9916],[25.4,9999],[25.4,10083],[25.4,10166],[25.4,10249],[25.4,10332],[25.4,10416],[25.4,10499],[25.4,10583],[25.4,10666],[25.4,10749],[25.4,10833],[25.4,10916],[25.4,10999],[25.4,11083],[25.4,11166],[25.4,11249],[25.4,11333],[25.4,11416],[25.4,11499],[25.4,11583],[25.4,11666],[25.4,11749],[25.4,11833],[25.4,11916],[25.4,11999],[25.4,12083],[25.4,12166],[25.4,12249],[25.4,12333],[25.4,12416],[25.4,12499],[25.4,12582],[25.4,12666],[25.4,12749],[25.4,12832],[25.4,12916],[25.4,12999],[25.4,13083],[25.4,13166],[25.4,13249],[25.4,13333],[25.4,13416],[25.3,13499],[25.3,13583],[25.3,13666],[25.3,13749],[25.3,13832],[25.3,13916],[25.3,13999],[25.3,14083],[25.3,14166],[25.3,14249],[25.3,14333],[25.3,14416],[25.3,14499],[25.3,14583],[25.3,14666],[25.3,14749],[25.3,14833],[25.3,14916],[25.3,14999],[25.3,15083],[25.3,15166],[25.3,15249],[25.3,15333],[25.3,15416],[25.3,15499],[25.3,15583],[25.3,15666],[25.3,15750],[25.3,15833],[25.3,15916]]",561.8766,568.8261,51.3476228,6.1226,"[{""rating"":51.347622801791104,""responseTime"":6.122600000143052}]",space,6.4007,,568.8264,Partially,50,568.8323,,,[],,0,10,10,10,1,audio/Narrative8Situation1.wav,audio/Narrative7Situation1.wav,audio/Narrative6Situation1.wav,audio/Narrative5Situation1.wav,5,2,2,5,,,,,,,,,,,,,,,,,,,,,,,,,,,,,,,,,,,,,,,
,,,,,5d25df839542a40001a83bf4,2025-07-07_22h36.34.221,group3.4_multiperson,2023.2.2,Win32,61.34969325,686c2ebf0248f13bef9af11f,686c83f8516648845999f7c0,,,,,,,,,,,,,,,,,,,,,,,,,,,,,568.8325,1,audio/Narrative8Situation2.wav,571.8427,,571.8428,581.9764,"[[999,1],[999,83],[999,166],[999,249],[999,333],[999,416],[999,499],[999,582],[999,667],[999,749],[999,833],[999,916],[999,999],[999,1083],[999,1166],[999,1249],[999,1333],[999,1416],[999,1499],[999,1583],[999,1666],[999,1749],[999,1833],[999,1916],[999,1999],[999,2083],[999,2166],[999,2249],[999,2333],[999,2416],[999,2499],[999,2583],[999,2666],[999,2749],[999,2833],[999,2916],[999,2999],[999,3083],[999,3166],[999,3249],[999,3333],[999,3416],[999,3499],[999,3583],[999,3666],[999,3749],[999,3833],[999,3916],[999,3999],[999,4083],[999,4166],[999,4249],[999,4333],[999,4416],[999,4499],[999,4583],[999,4666],[999,4750],[999,4833],[50.6,4917],[75.1,5000],[94.6,5083],[94.7,5167],[94.7,5249],[94.7,5333],[94.7,5416],[94.6,5500],[94.6,5583],[94.4,5666],[94.3,5750],[94.3,5833],[94.3,5916],[94.3,5999],[94.3,6083],[94.1,6167],[83.9,6250],[60,6333],[48.4,6417],[45.7,6500],[37.7,6584],[26.2,6666],[23.7,6749],[23.5,6833],[23.1,6916],[23,6999],[23,7083],[23,7166],[23,7250],[23,7333],[23,7416],[23,7499],[23,7583],[23,7666],[23,7750],[23,7833],[23,7916],[23,8000],[22.8,8083],[22.8,8166],[22.8,8249],[22.8,8333],[22.8,8416],[22.8,8499],[22.8,8583],[22.8,8666],[22.8,8749],[22.8,8832],[22.8,8916],[22.8,8999],[22.8,9083],[22.8,9166],[22.8,9249],[22.8,9333],[22.8,9416],[22.8,9499],[22.8,9583],[22.8,9666],[22.8,9749],[22.8,9833],[22.7,9916],[22.6,10000],[22.6,10083]]",581.9765,583.8761,22.78868118,1.161,"[{""rating"":22.788681176299953,""responseTime"":1.1609999999999445}]",space,1.3513,,583.8764,Definitely yes,100,583.882,,,[],,0,11,11,11,1,audio/Narrative8Situation2.wav,audio/Narrative7Situation2.wav,audio/Narrative6Situation2.wav,audio/Narrative5Situation2.wav,3,3,3,3,,,,,,,,,,,,,,,,,,,,,,,,,,,,,,,,,,,,,,,
,,,,,5d25df839542a40001a83bf4,2025-07-07_22h36.34.221,group3.4_multiperson,2023.2.2,Win32,61.34969325,686c2ebf0248f13bef9af11f,686c83f8516648845999f7c0,,,,,,,,,,,,,,,,,,,,,,,,,,,,,583.8823,1,audio/Narrative8Situation3.wav,587.8928,,587.893,610.2766,"[[25.1,3250],[37.2,3333],[47,3416],[62.1,3500],[75.5,3583],[81,3666],[82.9,3749],[82.9,3832],[82.9,3916],[82.9,3999],[82.9,4083],[82.9,4166],[82.9,4249],[82.9,4332],[82.9,4416],[82.9,4499],[82.9,4583],[82.9,4666],[82.8,4749],[82.8,4832],[82.8,4916],[82.8,4999],[82.8,5083],[82.7,5166],[82,5250],[80.5,5332],[80.5,5416],[80.5,5499],[80.5,5583],[80.5,5666],[80.5,5749],[80.5,5833],[80.5,5916],[80.5,5999],[80.5,6082],[80.5,6166],[80.5,6249],[80.5,6333],[80.5,6416],[80.5,6499],[80.5,6583],[80.2,6666],[79.8,6749],[79.1,6833],[78.6,6916],[78.3,6999],[78.2,7082],[78.2,7166],[78.2,7249],[78.2,7332],[78.2,7416],[78.2,7499],[78.2,7583],[78.2,7666],[78.2,7749],[78.2,7833],[78.2,7916],[78.2,7999],[78.2,8082],[78.2,8165],[78.2,8249],[78.2,8332],[78.2,8416],[78.2,8499],[78.2,8582],[78.2,8666],[78.2,8749],[78.2,8833],[78.2,8916],[78.2,8999],[78.2,9082],[78.2,9166],[78.2,9249],[78.2,9333],[78.2,9416],[78.2,9499],[78.2,9583],[78.2,9666],[78.2,9749],[78.2,9833],[78.2,9916],[78.2,9999],[78.2,10083],[78.2,10166],[78.2,10249],[78.2,10332],[78.2,10416],[78.2,10499],[78.2,10583],[78.2,10666],[78.2,10750],[78.2,10833],[78.2,10916],[78.2,10999],[78.2,11083],[78.2,11166],[78.2,11249],[78.2,11333],[78.2,11416],[78.2,11499],[78.2,11583],[78.2,11666],[78.2,11749],[78.2,11832],[78.2,11916],[78.2,12000],[78.2,12083],[78.2,12166],[78.2,12249],[78.2,12333],[78.2,12416],[78.2,12499],[78.2,12583],[78.2,12666],[78.2,12749],[78.2,12833],[78.2,12916],[78.2,12999],[78.2,13083],[78.2,13166],[78.2,13249],[78.2,13332],[78.2,13416],[78.2,13499],[78.2,13582],[78.2,13666],[78.2,13749],[78.2,13832],[78.2,13916],[78.2,13999],[78.2,14083],[78.2,14166],[78.2,14249],[78.2,14332],[78.2,14416],[78.2,14499],[78.2,14582],[78.2,14666],[78.2,14749],[78.2,14833],[78.2,14916],[78.2,14999],[78.2,15083],[78.2,15166],[78.2,15249],[78.2,15333],[78.2,15416],[78.2,15499],[78.2,15582],[78.2,15666],[78.2,15749],[78.2,15833],[78.2,15916],[78.2,15999],[78.2,16082],[78.2,16166],[78.2,16249],[78.2,16333],[78.2,16416],[78.2,16499],[78.2,16582],[78.2,16666],[78.2,16749],[78.2,16832],[78.2,16916],[78.2,16999],[78.2,17083],[78.2,17166],[78.2,17249],[78.2,17332],[78.2,17416],[78.2,17499],[78.2,17583],[78.2,17666],[78.2,17749],[78.2,17833],[78.2,17916],[78.2,17999],[78.2,18082],[78.2,18166],[78.2,18249],[78.2,18333],[78.2,18416],[78.2,18499],[78.2,18583],[78.2,18666],[78.2,18749],[78.2,18833],[78.2,18916],[78.2,18999],[78.2,19083],[78.2,19166],[78.2,19249],[78.2,19332],[78.2,19416],[78.2,19499],[78.2,19583],[78.2,19666],[78.2,19749],[78.2,19833],[78.2,19916],[78.2,19999],[78.2,20083],[78.2,20166],[78.2,20249],[78.2,20333],[78.2,20416],[78.2,20499],[78.2,20583],[78.2,20666],[78.2,20749],[78.2,20833],[78.2,20916],[78.2,20999],[78.2,21083],[78.2,21166],[78.2,21249],[78.2,21333],[78.2,21416],[78.2,21499],[78.2,21583],[78.2,21666],[78.2,21749],[78.2,21833],[78.2,21916],[78.2,21999],[78.2,22083],[78.1,22166],[78.1,22249],[78.1,22333]]",610.2768,612.9763,72.73021388,2.2562,"[{""rating"":72.73021387925121,""responseTime"":2.25620000004767}]",space,2.1551,,612.9764,Partially,50,612.9823,,,[],,0,12,12,12,1,audio/Narrative8Situation3.wav,audio/Narrative7Situation3.wav,audio/Narrative6Situation3.wav,audio/Narrative5Situation3.wav,4,8,5,3,,,,,,,,,,,,,,,,,,,,,,,,,,,,,,,,,,,,,,,
,,,,,5d25df839542a40001a83bf4,2025-07-07_22h36.34.221,group3.4_multiperson,2023.2.2,Win32,61.34969325,686c2ebf0248f13bef9af11f,686c83f8516648845999f7c0,,,,,,,,,,,,,,,,,,,,,,,,,,,,,612.9825,1,audio/Narrative8Situation4.wav,615.9929,,615.9931,630.1768,"[[73.3,2750],[73.8,2833],[73.9,2915],[73.9,2999],[73.9,3082],[73.9,3166],[73.9,3249],[73.9,3333],[73.9,3416],[73.9,3499],[74.2,3583],[75.7,3666],[75.8,3749],[75.8,3833],[75.8,3916],[75.8,3999],[75.8,4083],[75.8,4166],[75.8,4249],[75.8,4332],[75.8,4416],[75.8,4499],[75.8,4582],[75.8,4666],[75.8,4749],[75.8,4833],[75.8,4916],[75.8,4999],[75.8,5083],[75.8,5166],[75.8,5249],[75.8,5333],[75.8,5416],[75.8,5499],[75.8,5583],[75.8,5666],[75.8,5749],[75.8,5832],[75.8,5916],[75.8,5999],[75.8,6082],[75.8,6166],[75.8,6249],[75.8,6333],[75.8,6416],[75.8,6500],[75.8,6582],[75.8,6666],[75.8,6749],[75.8,6833],[75.8,6916],[75.8,6999],[75.8,7082],[75.8,7166],[75.8,7249],[75.8,7332],[75.8,7416],[75.8,7499],[75.8,7583],[75.8,7666],[75.8,7749],[75.8,7833],[75.8,7916],[75.8,7999],[75.8,8083],[75.7,8166],[75.7,8249],[75.7,8333],[75.7,8416],[75.7,8499],[75.7,8583],[75.7,8666],[75.7,8749],[75.7,8833],[75.7,8916],[75.7,8999],[75.7,9082],[75.7,9166],[75.7,9249],[75.7,9332],[75.7,9416],[75.7,9499],[75.7,9583],[75.7,9666],[75.7,9749],[75.7,9833],[75.7,9916],[75.7,9999],[75.7,10083],[75.7,10166],[75.7,10249],[75.7,10332],[75.7,10416],[75.7,10499],[75.7,10583],[75.7,10666],[75.7,10749],[75.7,10833],[75.7,10916],[75.7,10999],[75.7,11083],[75.7,11166],[75.7,11249],[75.7,11332],[75.7,11416],[75.7,11499],[75.7,11583],[75.7,11666],[75.7,11749],[75.7,11833],[75.7,11916],[75.7,11999],[75.7,12083],[75.7,12166],[75.7,12249],[75.7,12332],[75.7,12416],[75.7,12499],[75.7,12583],[75.7,12666],[75.7,12749],[75.7,12833],[75.7,12916],[75.7,12999],[75.7,13083],[75.7,13166],[75.7,13249],[75.7,13333],[75.7,13416],[75.7,13500],[75.7,13582],[75.7,13666],[75.7,13749],[75.7,13833],[75.7,13916],[75.7,13999],[75.7,14083],[75.7,14166]]",630.177,632.193,76.09870233,1.6752,"[{""rating"":76.09870232585395,""responseTime"":1.6752000000476528}]",space,1.467,,632.1932,Partially,50,632.1977,,,[],,0,13,13,13,1,audio/Narrative8Situation4.wav,audio/Narrative7Situation4.wav,audio/Narrative6Situation4.wav,audio/Narrative5Situation4.wav,3,3,2,1,,,,,,,,,,,,,,,,,,,,,,,,,,,,,,,,,,,,,,,
,,,,,5d25df839542a40001a83bf4,2025-07-07_22h36.34.221,group3.4_multiperson,2023.2.2,Win32,61.34969325,686c2ebf0248f13bef9af11f,686c83f8516648845999f7c0,,,,,,,,,,,,,,,,,,,,,,,,,,,,,632.1981,1,audio/Narrative8Situation5.wav,634.2098,,634.2098,642.4595,"[[76,4582],[76,4666],[76,4749],[76,4832],[76,4916],[76,4999],[76,5082],[76,5166],[76,5249],[76,5333],[76,5416],[76,5499],[76,5582],[76,5666],[76,5749],[76,5832],[75.8,5916],[75.8,5999],[75.8,6082],[75.8,6166],[75.8,6249],[75.8,6332],[75.8,6416],[75.8,6499],[75.8,6582],[75.8,6666],[75.8,6749],[75.8,6832],[75.8,6916],[75.8,6999],[75.8,7082],[75.8,7166],[75.8,7249],[75.8,7332],[75.8,7416],[75.8,7499],[75.8,7582],[75.8,7665],[75.8,7749],[75.8,7832],[75.8,7916],[75.8,7999],[75.8,8083],[75.8,8166],[75.8,8249]]",642.4597,644.6262,78.00263338,1.8252,"[{""rating"":78.0026333765681,""responseTime"":1.8252000000477437}]",space,1.6178,,644.6262,Definitely yes,100,656.226,90.30494286,10.995,"[{""rating"":81.81049547799641,""responseTime"":8.276600000143048},{""rating"":82.39632165438134,""responseTime"":8.278100000143013},{""rating"":85.618349534351,""responseTime"":9.203800000190768},{""rating"":90.30494285528299,""responseTime"":10.995000000000005}]",space,0,14,14,14,1,audio/Narrative8Situation5.wav,audio/Narrative7Situation5.wav,audio/Narrative6Situation5.wav,audio/Narrative5Situation5.wav,2,5,2,5,,,11.0492,,,,,,,,,,,,,,,,,,,,,,,,,,,,,,,,,,,,
,,,,,5d25df839542a40001a83bf4,2025-07-07_22h36.34.221,group3.4_multiperson,2023.2.2,Win32,61.34969325,686c2ebf0248f13bef9af11f,686c83f8516648845999f7c0,,,,,,,,,,,,,,,,,,,,,,,,,,,,,656.2266,1,audio/Narrative8Situation6.wav,658.2431,,658.2432,664.7268,"[[89.5,1000],[87,1084],[85.6,1166],[82.1,1249],[68.8,1333],[29.2,1666],[65.4,1916],[79.2,1999],[84,2083],[87.7,2166],[89.6,2249],[89.7,2332],[89.7,2416],[89.9,2499],[93.3,2583],[97.1,2666],[97.1,2749],[97.1,2833],[97.1,2916],[96.9,2999],[96.9,3083],[96.9,3166],[96.9,3249],[96.9,3332],[96.8,3416],[96.6,3500],[96.6,3583],[96.6,3666],[96.6,3749],[96.6,3833],[96.6,3916],[96.6,3999],[96.6,4083],[96.6,4166],[96.6,4249],[96.6,4332],[96.6,4416],[96.6,4499],[96.6,4583],[96.6,4666],[96.6,4749],[96.6,4832],[96.6,4916],[96.6,4999],[96.6,5082],[96.6,5166],[96.6,5249],[96.6,5333],[96.6,5416],[96.6,5499],[96.6,5582],[96.6,5666],[96.6,5749],[96.6,5833],[96.6,5916],[96.6,5999],[96.6,6083],[96.6,6166],[96.6,6249],[96.6,6333],[96.6,6416]]",664.727,672.3098,84.44670523,6.6286,"[{""rating"":84.44670522665486,""responseTime"":6.628599999904623}]",space,7.0345,,672.3099,Partially,50,672.3156,,,[],,0,15,15,15,1,audio/Narrative8Situation6.wav,audio/Narrative7Situation6.wav,audio/Narrative6Situation6.wav,audio/Narrative5Situation6.wav,2,3,2,3,,,,,,,,,,,,,,,,,,,,,,,,,,,,,,,,,,,,,,,
,,,,,5d25df839542a40001a83bf4,2025-07-07_22h36.34.221,group3.4_multiperson,2023.2.2,Win32,61.34969325,686c2ebf0248f13bef9af11f,686c83f8516648845999f7c0,,,,,,,,,,,,,,,,,,,,,,,,,,,,,672.3159,1,audio/Narrative8Situation7.wav,675.3271,,675.3272,687.4269,"[[999,1],[999,82],[999,165],[999,249],[999,332],[999,416],[999,499],[999,582],[999,665],[68.8,750],[72,832],[72,915],[72,999],[72,1082],[72,1165],[72,1249],[72,1332],[72,1415],[72,1499],[71.9,1582],[71.9,1665],[71.9,1749],[72,1832],[72,1915],[72,1999],[72,2082],[72,2165],[72,2249],[72.2,2332],[72.9,2416],[76.6,2499],[78.9,2582],[80.2,2665],[80.8,2749],[87.1,2833],[89.7,2915],[89.7,2999],[89.9,3082],[89.9,3165],[89.9,3249],[89.9,3332],[89.9,3415],[89.9,3499],[89.9,3582],[89.9,3665],[89.9,3749],[89.9,3832],[89.9,3915],[89.9,3998],[89.9,4082],[89.9,4165],[89.9,4249],[89.9,4332],[89.9,4415],[89.9,4498],[89.9,4582],[89.9,4665],[89.9,4748],[89.9,4832],[89.9,4915],[89.9,4999],[89.9,5082],[89.9,5165],[89.9,5324],[89.9,5399],[89.9,5482],[89.9,5565],[89.9,5649],[89.9,5732],[89.9,5815],[89.9,5899],[89.9,5982],[89.9,6065],[89.9,6149],[89.9,6232],[89.9,6315],[89.9,6399],[89.9,6482],[89.9,6565],[89.9,6649],[89.9,6732],[89.9,6815],[89.9,6899],[89.9,6982],[89.9,7065],[89.9,7149],[89.9,7663],[89.9,7732],[89.9,7815],[89.9,7899],[89.9,7982],[89.9,8065],[89.9,8148],[89.9,8232],[89.9,8315],[89.9,8399],[89.9,8482],[89.9,8565],[89.9,8649],[89.9,8732],[89.9,8815],[89.9,8899],[89.9,8982],[89.9,9067],[89.9,9149],[89.9,9232],[89.9,9315],[89.9,9398],[89.9,9482],[89.9,9565],[89.9,9649],[89.9,9732],[89.9,9815],[89.9,9898],[89.9,9982],[89.9,10065],[89.9,10149],[89.9,10232],[89.9,10315],[89.9,10398],[89.9,10482],[89.9,10565],[89.9,10648],[89.9,10732],[89.9,10815],[89.9,10899],[89.9,10982],[89.9,11065],[89.9,11148],[89.9,11232],[89.9,11315],[89.9,11399],[89.9,11482],[89.9,11565],[89.9,11649],[89.9,11734],[89.9,11815],[89.9,11899],[89.9,11982],[89.9,12065]]",687.4271,689.1599,90.59786399,1.3285,"[{""rating"":90.59786398854916,""responseTime"":1.3285000000000764}]",space,1.1843,,689.16,Partially,50,689.1653,,,[],,0,16,16,16,1,audio/Narrative8Situation7.wav,audio/Narrative7Situation7.wav,audio/Narrative6Situation7.wav,audio/Narrative5Situation7.wav,3,5,5,4,,,,,,,,,,,,,,,,,,,,,,,,,,,,,,,,,,,,,,,
,,,,,5d25df839542a40001a83bf4,2025-07-07_22h36.34.221,group3.4_multiperson,2023.2.2,Win32,61.34969325,686c2ebf0248f13bef9af11f,686c83f8516648845999f7c0,,,,,,,,,,,,,,,,,,,,,,,,,,,,,689.1656,1,audio/Narrative8Situation8.wav,692.1766,,692.1766,705.0437,"[[90.8,1750],[93.7,1833],[93.9,1916],[93.9,1999],[93.9,2083],[93.9,2166],[93.9,2249],[93.9,2333],[96.8,2450],[97.7,2533],[97.7,2616],[97.7,2699],[97.7,2782],[97.7,2866],[97.7,2949],[97.7,3033],[97.7,3116],[97.7,3199],[97.7,3283],[97.7,3366],[97.7,3449],[97.7,3533],[97.7,3616],[97.7,3699],[97.7,3783],[97.7,3866],[97.7,3949],[97.7,4033],[97.7,4116],[97.7,4200],[97.7,4283],[97.7,4366],[97.7,4449],[97.7,4533],[97.7,4616],[97.7,4699],[97.7,4783],[97.7,4866],[97.7,4949],[97.7,5033],[97.7,5116],[97.7,5199],[97.7,5283],[97.7,5366],[97.7,5449],[97.7,5533],[97.7,5616],[97.7,5700],[97.7,5783],[97.7,5866],[97.7,5949],[97.7,6033],[97.7,6116],[97.7,6199],[97.7,6283],[97.7,6366],[97.7,6449],[97.7,6533],[97.7,6616],[97.7,6700],[97.7,6783],[97.7,6866],[97.7,6949],[97.7,7033],[97.7,7116],[97.7,7199],[97.7,7283],[97.7,7366],[97.7,7450],[97.7,7533],[97.7,7616],[97.7,7699],[97.7,7783],[97.7,7866],[97.7,7949],[97.7,8033],[97.7,8116],[97.7,8199],[97.7,8283],[97.7,8367],[97.7,8449],[97.7,8533],[97.7,8616],[97.7,8699],[97.7,8783],[97.7,8866],[97.7,8949],[97.7,9033],[97.7,9116],[97.7,9200],[97.7,9283],[97.7,9366],[97.7,9449],[97.7,9533],[97.7,9616],[97.7,9699],[97.7,9783],[97.7,9866],[97.7,9949],[97.7,10033],[97.7,10116],[97.7,10200],[97.7,10283],[97.7,10366],[97.7,10450],[97.7,10533],[97.7,10616],[97.7,10699],[97.7,10783],[97.7,10866],[97.7,10950],[97.7,11033],[97.7,11116],[97.7,11199],[97.7,11283],[97.7,11366],[97.7,11449],[97.7,11533],[97.7,11616],[97.7,11699],[97.7,11783],[97.7,11866],[97.7,11949],[97.7,12033],[97.7,12116],[97.7,12199],[97.7,12283],[97.7,12366],[97.7,12449],[97.7,12533],[97.7,12616],[97.7,12699],[97.7,12782],[97.7,12866]]",705.0439,706.8599,97.77421454,0.481,"[{""rating"":97.77421453658019,""responseTime"":0.48099999999999454}]",space,1.2697,,706.8602,Definitely yes,100,706.8657,,,[],,0,17,17,17,1,audio/Narrative8Situation8.wav,audio/Narrative7Situation8.wav,audio/Narrative6Situation8.wav,audio/Narrative5Situation8.wav,3,2,5,3,,,,,,,,,,,,,,,,,,,,,,,,,,,,,,,,,,,,,,,
,,,,,5d25df839542a40001a83bf4,2025-07-07_22h36.34.221,group3.4_multiperson,2023.2.2,Win32,61.34969325,686c2ebf0248f13bef9af11f,686c83f8516648845999f7c0,,,,,,,,,,,,,,,,,,,,,,,,,,,,,706.866,1,audio/Narrative8Situation9.wav,709.8766,,709.8768,721.2103,"[[98.1,1749],[98.1,1832],[98.1,1916],[98.1,1999],[98.1,2083],[98.1,2166],[98.1,2249],[98.1,2332],[98.1,2416],[98.1,2499],[98.1,2582],[98.1,2666],[98.1,2749],[98.1,2832],[98.1,2916],[98.1,2999],[98.1,3082],[98.1,3166],[98.1,3249],[98.1,3332],[98.1,3416],[98.1,3499],[98.1,3582],[98.1,3666],[98.1,3749],[98.1,3832],[98.1,3916],[98.1,3999],[98.1,4082],[98.1,4166],[98.1,4249],[98.1,4332],[98.1,4416],[98.1,4499],[98.1,4582],[98.1,4666],[98.1,4749],[98.1,4833],[98.1,4916],[98.1,4999],[98.1,5082],[98.1,5166],[98.1,5249],[98.1,5332],[98.1,5416],[98.1,5499],[98.1,5582],[98.1,5666],[98.1,5749],[98.1,5832],[98.1,5916],[98.1,5999],[98.1,6082],[98.1,6166],[98.1,6249],[98.1,6332],[98.1,6416],[98.1,6499],[98.1,6583],[98.1,6666],[98.1,6749],[98.1,6833],[98.1,6916],[98.1,6999],[98.1,7082],[98.1,7166],[98.1,7249],[98.1,7333],[98.1,7416],[98.1,7499],[98.1,7583],[98.2,7666],[98.2,7749],[98.2,7833],[98.2,7916],[98.2,7999],[98.2,8082],[98.2,8166],[98.2,8249],[98.2,8332],[98.2,8416],[98.2,8499],[98.2,8583],[98.2,8666],[98.2,8749],[98.2,8832],[98.2,8916],[98.2,8999],[98.2,9082],[98.2,9166],[98.2,9249],[98.2,9332],[98.2,9416],[98.2,9499],[98.2,9583],[98.2,9666],[98.2,9749],[98.2,9832],[98.2,9916],[98.2,9999],[98.2,10083],[98.2,10166],[98.2,10249],[98.2,10332],[98.2,10416],[98.2,10499],[98.2,10582],[98.2,10666],[98.2,10749],[98.2,10832],[98.2,10916],[98.2,10999],[98.2,11082],[98.2,11166],[98.2,11249],[98.2,11333]]",721.2106,723.9099,98.2135721,1.1564,"[{""rating"":98.21357210125834,""responseTime"":1.1564000000953456}]",space,2.1597,,723.9101,Not at all,0,723.9156,,,[],,0,18,18,18,1,audio/Narrative8Situation9.wav,audio/Narrative7Situation9.wav,audio/Narrative6Situation9.wav,audio/Narrative5Situation9.wav,3,2,4,3,,,,,,,,,,,,,,,,,,,,,,,,,,,,,,,,,,,,,,,
,,,,,5d25df839542a40001a83bf4,2025-07-07_22h36.34.221,group3.4_multiperson,2023.2.2,Win32,61.34969325,686c2ebf0248f13bef9af11f,686c83f8516648845999f7c0,,,,,,,,,,,,,,,,,,,,,,,,,,,730.5124,733.0934,733.1209,2,audio/Narrative13Situation2.wav,733.1209,,733.121,762.8604,"[[98.8,1155],[100,1238],[100,1989],[99.7,2072],[99.6,2155],[99.3,2238],[98.7,2322],[96,2405],[95.9,2488],[95.9,2572],[96,2655],[97.2,2739],[98.5,2822],[98.8,2905],[98.8,2988],[98.8,3072],[98.8,3155],[98.8,3238],[98.8,3322],[98.8,3405],[98.8,3488],[98.8,3572],[98.8,3655],[98.8,3739],[98.8,3822],[98.8,3905],[98.8,3988],[98.8,4072],[98.8,4155],[98.8,4238],[98.8,4322],[98.8,4405],[98.8,4488],[98.8,4572],[98.8,4655],[98.8,4738],[98.8,4822],[98.8,4905],[98.8,4988],[98.8,5072],[98.8,5155],[98.8,5239],[98.8,5322],[98.8,5405],[98.8,5488],[98.8,5572],[98.8,5655],[98.8,5739],[98.8,5822],[98.8,5905],[98.8,5991],[98.8,6071],[98.8,6155],[98.8,6238],[98.8,6322],[98.8,6405],[98.8,6489],[98.8,6572],[98.8,6655],[98.8,6738],[98.8,6822],[98.8,6905],[98.8,6988],[98.8,7072],[98.8,7155],[98.8,7238],[98.8,7322],[98.8,7405],[98.8,7488],[98.8,7572],[98.8,7655],[98.8,7738],[98.8,7822],[98.8,7905],[98.8,7988],[98.8,8072],[98.8,8155],[98.8,8238],[98.8,8322],[98.8,8405],[98.8,8488],[98.8,8572],[98.8,8655],[98.8,8739],[98.8,8822],[98.8,8905],[98.8,8988],[98.8,9072],[98.8,9155],[98.8,9238],[98.8,9322],[98.8,9405],[98.8,9489],[98.8,9572],[98.8,9655],[98.8,9739],[98.8,9822],[98.8,9905],[98.8,9988],[98.8,10072],[98.8,10155],[98.8,10238],[98.8,10322],[98.8,10405],[98.8,10488],[98.8,10572],[98.8,10655],[98.8,10739],[98.8,10822],[98.8,10905],[98.8,10988],[98.8,11072],[98.8,11155],[98.8,11238],[98.8,11322],[98.8,11405],[98.8,11489],[98.8,11572],[98.8,11655],[98.8,11738],[98.8,11822],[98.8,11905],[98.8,11988],[98.8,12072],[98.8,12155],[98.8,12238],[98.8,12322],[98.8,12405],[98.8,12488],[98.8,12572],[98.8,12655],[98.8,12738],[98.8,12822],[98.8,12905],[98.8,12989],[98.8,13072],[98.8,13155],[98.8,13239],[98.8,13322],[98.8,13405],[98.8,13488],[98.8,13572],[98.8,13655],[98.8,13738],[98.8,13822],[98.8,13905],[98.8,13988],[98.8,14072],[98.8,14155],[98.8,14238],[98.8,14322],[98.8,14405],[98.8,14488],[98.8,14572],[98.8,14655],[98.8,14738],[98.8,14822],[98.8,14905],[98.8,14988],[98.8,15072],[98.8,15155],[98.8,15239],[98.8,15322],[98.8,15405],[98.8,15489],[98.8,15572],[98.8,15655],[98.8,15739],[98.8,15822],[98.8,15905],[98.8,15989],[98.8,16072],[98.8,16155],[98.8,16238],[98.8,16322],[98.8,16405],[98.8,16488],[98.8,16572],[98.8,16655],[98.8,16739],[98.8,16822],[98.8,16905],[98.8,16989],[98.8,17072],[98.8,17155],[98.8,17239],[98.8,17322],[98.8,17405],[98.8,17489],[98.8,17572],[98.8,17655],[98.8,17738],[98.8,17822],[98.8,17905],[98.8,17988],[98.8,18072],[98.8,18155],[98.8,18239],[98.8,18322],[98.8,18405],[98.8,18488],[98.8,18572],[98.8,18655],[98.8,18739],[98.8,18822],[98.8,18905],[98.8,18989],[98.8,19072],[98.8,19155],[98.8,19239],[98.8,19322],[98.8,19405],[98.8,19489],[98.8,19572],[98.8,19655],[98.8,19739],[98.8,19822],[98.8,19905],[98.8,19989],[98.8,20072],[98.8,20155],[98.8,20239],[98.8,20322],[98.8,20405],[98.8,20489],[98.8,20572],[98.8,20655],[98.8,20739],[98.8,20822],[98.8,20906],[98.8,20989],[98.8,21072],[98.8,21155],[98.8,21239],[98.8,21322],[98.8,21405],[98.8,21488],[98.8,21572],[98.8,21655],[98.8,21739],[98.8,21822],[98.8,21905],[98.8,21989],[98.8,22072],[98.8,22155],[98.8,22239],[98.8,22322],[98.8,22405],[98.8,22489],[98.8,22572],[98.8,22655],[98.8,22739],[98.8,22823],[98.8,22905],[98.8,22989],[98.8,23072],[98.8,23155],[98.8,23239],[98.8,23322],[98.8,23405],[98.8,23489],[98.8,23572],[98.8,23655],[98.8,23739],[98.8,23822],[98.8,23905],[99,23989],[99,24072],[99,24155],[99,24239],[99,24322],[99,24405],[99,24489],[99,24572],[99,24655],[99,24739],[99,24822],[99,24905],[99,24989],[99,25072],[99,25155],[99,25239],[99,25322],[99,25405],[99,25491],[99,25572],[99,25655],[99,25739],[99,25822],[99,25905],[99,25988],[99,26072],[99,26155],[99,26239],[99,26323],[99,26405],[99,26489],[99,26572],[99,26655],[99,26739],[99,26822],[99,26905],[99,26989],[99,27072],[99,27155],[99,27239],[99,27322],[99,27405],[99,27489],[99,27572],[99,27655],[99,27739],[99,27822],[99,27905],[99,27989],[99,28072],[99,28155],[99,28239],[99,28322],[99,28405],[99,28489],[99,28572],[99,28655],[99,28739],[99,28822],[99,28905],[99,28989],[99,29072],[99,29155],[99,29239],[99,29322],[99,29405],[99,29489],[99,29572],[99,29655],[99,29739]]",762.8607,762.8652,,,[],,,,762.8653,Partially,50,762.8678,,,[],,0,0,0,0,1,audio/Narrative13Situation2.wav,audio/Narrative13Situation2.wav,audio/Narrative13Situation2.wav,audio/Narrative13Situation2.wav,2,2,2,2,,,,,723.9213,730.5109,space,6.0703,,,,,,,,,,,,,,,,,,,,,,,,,,,,,,,
,,,,,5d25df839542a40001a83bf4,2025-07-07_22h36.34.221,group3.4_multiperson,2023.2.2,Win32,61.34969325,686c2ebf0248f13bef9af11f,686c83f8516648845999f7c0,,,,,,,,,,,,,,,,,,,,,,,,,,,,,762.8681,2,audio/Narrative5Situation1.wav,767.8769,,767.877,781.1773,"[[57.7,1500],[59.7,1583],[59.7,1666],[59.7,1749],[59.7,1833],[59.7,1916],[59.7,1999],[59.6,2083],[59.7,2166],[60.2,2250],[61.2,2333],[64.4,2416],[68.1,2500],[69.2,2583],[69.4,2666],[69.5,2749],[69.5,2833],[69.5,2916],[69.4,2999],[69.4,3083],[69.4,3166],[69.4,3249],[69.4,3333],[69.2,3416],[69.1,3499],[69.1,3583],[69.4,3666],[70.3,3750],[73.2,3833],[74.7,3916],[76.4,4000],[76.4,4083],[76.4,4166],[84.3,4250],[85.9,4333],[85.9,4416],[85.9,4500],[86.5,4583],[90.3,4666],[91.2,4749],[91.2,4833],[91.2,4916],[91.4,5000],[92.8,5083],[93,5166],[93,5249],[93,5333],[93,5416],[93,5499],[93,5583],[93,5666],[93,5749],[93,5833],[93,5916],[93,5999],[93,6083],[93,6166],[93,6249],[93,6333],[93,6416],[93,6499],[93,6582],[93,6666],[93,6749],[93,6833],[93,6916],[93,6999],[93,7083],[93,7166],[93,7249],[93,7332],[93,7416],[93,7499],[93,7583],[93,7666],[93,7749],[93,7833],[93,7916],[93,7999],[93,8082],[93,8166],[93,8249],[93,8333],[93,8416],[93,8499],[93,8583],[93,8666],[93,8749],[93,8832],[93,8916],[93,9000],[93,9083],[93,9166],[93,9249],[93,9333],[93,9416],[93,9499],[93,9583],[93,9666],[93,9749],[93,9833],[92.8,9916],[92.8,9999],[92.8,10083],[92.8,10166],[92.8,10249],[92.8,10333],[92.7,10416],[92.7,10499],[92.7,10583],[92.7,10666],[92.7,10749],[92.7,10833],[92.7,10916],[92.7,10999],[92.7,11083],[92.7,11166],[92.7,11249],[92.7,11333],[92.7,11416],[92.7,11499],[92.7,11583],[92.7,11666],[92.7,11749],[92.7,11833],[92.7,11916],[92.7,11999],[92.7,12083],[92.7,12166],[92.7,12249],[92.7,12333],[92.7,12416],[92.7,12499],[92.7,12583],[92.7,12666],[92.7,12749],[92.7,12833],[92.5,12916],[92.4,12999],[92.4,13083],[92.4,13167],[92.4,13249]]",781.1775,784.2102,92.35532643,2.2068,"[{""rating"":92.35532642755653,""responseTime"":2.2068000001906967}]",space,2.4843,,784.2104,Partially,50,784.2151,,,[],,0,1,1,1,1,audio/Narrative7Situation1.wav,audio/Narrative8Situation1.wav,audio/Narrative5Situation1.wav,audio/Narrative6Situation1.wav,2,5,5,2,,,,,,,,,,,,,,,,,,,,,,,,,,,,,,,,,,,,,,,
,,,,,5d25df839542a40001a83bf4,2025-07-07_22h36.34.221,group3.4_multiperson,2023.2.2,Win32,61.34969325,686c2ebf0248f13bef9af11f,686c83f8516648845999f7c0,,,,,,,,,,,,,,,,,,,,,,,,,,,,,784.2154,2,audio/Narrative5Situation2.wav,787.2269,,787.2271,816.6935,"[[92.5,16666],[92.5,16749],[92.5,16833],[92.5,16916],[92.5,16999],[92.5,17083],[92.5,17166],[92.5,17249],[92.5,17332],[92.5,17416],[92.5,17499],[92.7,17583],[95.2,17667],[98.5,17750],[98.5,17833],[98.5,17916],[98.5,17999],[98.1,18083],[97.8,18166],[97.4,18250],[97.4,18333],[97.4,18416],[97.4,18499],[97.2,18583],[97.2,18666],[97.4,18749],[97.4,18833],[97.4,18916],[97.4,18999],[97.4,19083],[97.4,19166],[97.4,19249],[97.8,19333],[98.4,19416],[98.4,19499],[98.4,19583],[98.5,19666],[98.5,19749],[98.5,19833],[98.5,19916],[98.5,19999],[98.5,20083],[98.5,20166],[98.5,20249],[98.5,20333],[98.5,20416],[98.5,20499],[98.5,20583],[98.5,20666],[98.5,20749],[98.5,20832],[98.5,20916],[98.5,20999],[98.5,21083],[98.5,21166],[98.5,21249],[98.5,21333],[98.5,21416],[98.5,21499],[98.5,21583],[98.5,21666],[98.5,21749],[98.5,21833],[98.5,21916],[98.5,21999],[98.5,22083],[98.5,22166],[98.5,22249],[98.5,22333],[98.5,22416],[98.5,22499],[98.5,22583],[98.5,22666],[98.5,22749],[98.5,22833],[98.5,22916],[98.5,22999],[98.5,23083],[98.5,23167],[98.5,23249],[98.5,23333],[98.5,23416],[98.5,23499],[98.5,23583],[98.5,23666],[98.5,23749],[98.5,23833],[98.5,23916],[98.5,23999],[98.5,24083],[98.5,24166],[98.5,24249],[98.5,24333],[98.5,24416],[98.5,24499],[98.5,24583],[98.5,24666],[98.5,24749],[98.5,24833],[98.5,24916],[98.5,24999],[98.5,25083],[98.5,25166],[98.5,25249],[98.5,25333],[98.5,25416],[98.5,25499],[98.5,25583],[98.5,25666],[98.5,25749],[98.5,25833],[98.5,25916],[98.5,25999],[98.5,26082],[98.5,26166],[98.5,26249],[98.5,26333],[98.5,26416],[98.5,26500],[98.5,26583],[98.5,26666],[98.5,26749],[98.5,26833],[98.5,26916],[98.5,26999],[98.5,27083],[98.5,27166],[98.5,27249],[98.5,27333],[98.5,27416],[98.5,27499],[98.5,27583],[98.5,27666],[98.5,27749],[98.5,27833],[98.5,27916],[98.5,27999],[98.5,28083],[98.5,28166],[98.5,28249],[98.5,28333],[98.5,28416],[98.5,28499],[98.5,28582],[98.5,28666],[98.5,28749],[98.5,28832],[98.5,28916],[98.5,28999],[98.5,29083],[98.5,29167],[98.5,29249],[98.5,29332],[98.5,29416]]",816.6936,818.8771,98.65294576,1.414,"[{""rating"":98.65294575608391,""responseTime"":1.4139999999999873}]",space,1.6535,,818.8773,Not at all,0,818.8829,,,[],,0,2,2,2,1,audio/Narrative7Situation2.wav,audio/Narrative8Situation2.wav,audio/Narrative5Situation2.wav,audio/Narrative6Situation2.wav,3,3,3,3,,,,,,,,,,,,,,,,,,,,,,,,,,,,,,,,,,,,,,,
,,,,,5d25df839542a40001a83bf4,2025-07-07_22h36.34.221,group3.4_multiperson,2023.2.2,Win32,61.34969325,686c2ebf0248f13bef9af11f,686c83f8516648845999f7c0,,,,,,,,,,,,,,,,,,,,,,,,,,,,,818.8832,2,audio/Narrative5Situation3.wav,821.8938,,821.894,835.8107,"[[98.5,1416],[98.1,1500],[97.7,1583],[97.2,1666],[97.2,1749],[97.2,1833],[97.2,1916],[97.2,1999],[97.2,2083],[97.2,2166],[97.2,2249],[96.9,2332],[95.9,2416],[95.6,2499],[95,2582],[94.9,2666],[94.7,2749],[94.7,2832],[94.7,2916],[94.7,2999],[94.7,3082],[94.7,3166],[94.7,3249],[94.9,3332],[94.9,3416],[94.9,3499],[94.9,3582],[94.9,3666],[94.9,3749],[94.9,3832],[94.9,3916],[94.9,4000],[94.9,4082],[94.9,4166],[95,4250],[95,4332],[95,4416],[95,4500],[95,4582],[95,4666],[95,4749],[95,4832],[95,4916],[95,4999],[95,5082],[95,5166],[95,5249],[95,5332],[95,5416],[95,5499],[95,5583],[95,5666],[95,5749],[95,5832],[95,5916],[95,5999],[95,6082],[95,6166],[95,6249],[95,6332],[95,6416],[95,6499],[95,6583],[95,6666],[95,6749],[95,6833],[95,6916],[95,6999],[95,7083],[95,7166],[95,7249],[95,7333],[95,7416],[95,7499],[95,7582],[95,7666],[95,7749],[95,7833],[95,7916],[95,7999],[95,8082],[95,8166],[95,8249],[95,8333],[95,8416],[95,8499],[95,8583],[95,8666],[95,8749],[95,8832],[95,8916],[95,8999],[95,9083],[95,9166],[95,9249],[95,9332],[95,9416],[95,9499],[95,9583],[95,9666],[95,9749],[95,9833],[95,9916],[95,9999],[95,10082],[95,10166],[95,10249],[95,10332],[95,10416],[95,10499],[95,10583],[95,10666],[95,10749],[95,10832],[95,10916],[95,10999],[95,11082],[95,11166],[95,11249],[95,11333],[95,11416],[95,11499],[95,11582],[95,11666],[95,11749],[95,11832],[95,11916],[95,11999],[95,12082],[95,12166],[95,12249],[95,12332],[95,12416],[95,12499],[95,12582],[95,12666],[95,12749],[95,12833],[95,12916],[95,12999],[95,13082],[95,13166],[95,13249],[95,13333],[95,13416],[95,13499],[95,13583],[95,13666],[95,13749],[95,13832],[95,13916]]",835.811,837.5829,96.60256218,1.1765,"[{""rating"":96.60256218381036,""responseTime"":1.1765000000000327}]",space,1.218,,837.583,Partially,50,837.5907,,,[],,0,3,3,3,1,audio/Narrative7Situation3.wav,audio/Narrative8Situation3.wav,audio/Narrative5Situation3.wav,audio/Narrative6Situation3.wav,8,4,3,5,,,,,,,,,,,,,,,,,,,,,,,,,,,,,,,,,,,,,,,
,,,,,5d25df839542a40001a83bf4,2025-07-07_22h36.34.221,group3.4_multiperson,2023.2.2,Win32,61.34969325,686c2ebf0248f13bef9af11f,686c83f8516648845999f7c0,,,,,,,,,,,,,,,,,,,,,,,,,,,,,837.5909,2,audio/Narrative5Situation4.wav,838.5939,,838.594,858.9942,"[[96.9,999],[97.2,1083],[97.8,1166],[98,1249],[98,1333],[98,1416],[98,1499],[98,1582],[98,1666],[98,1749],[98,1833],[98,1916],[98,1999],[98,2082],[97.8,2166],[97.8,2249],[97.8,2333],[97.5,2416],[96.9,2500],[96.8,2583],[96.8,2666],[96.8,2749],[96.8,2833],[96.8,2916],[96.8,2999],[96.8,3083],[96.8,3166],[96.8,3249],[96.8,3332],[96.8,3416],[96.8,3499],[96.8,3583],[96.8,3666],[96.8,3749],[96.8,3833],[96.8,3916],[96.8,3999],[96.8,4083],[96.8,4166],[96.8,4249],[96.8,4333],[96.8,4416],[96.8,4499],[96.8,4583],[96.8,4666],[96.8,4749],[96.8,4833],[96.8,4916],[96.8,4999],[96.8,5082],[96.8,5166],[96.8,5249],[96.8,5333],[96.8,5416],[96.8,5499],[96.8,5583],[96.8,5666],[96.8,5749],[96.8,5833],[96.8,5916],[96.8,5999],[96.8,6083],[96.8,6166],[96.8,6249],[96.8,6333],[96.8,6416],[96.8,6499],[96.8,6583],[96.8,6666],[96.8,6749],[96.8,6833],[96.8,6916],[96.8,6999],[96.8,7083],[96.8,7166],[96.8,7249],[96.8,7333],[96.8,7416],[96.8,7499],[96.8,7583],[96.8,7666],[96.8,7749],[96.8,7833],[96.8,7916],[96.8,7999],[96.8,8083],[96.9,8166],[96.9,8249],[96.9,8333],[96.9,8416],[96.9,8499],[96.9,8583],[96.9,8666],[96.9,8750],[96.9,8832],[96.9,8917],[96.9,8999],[96.9,9083],[96.9,9166],[96.9,9249],[96.9,9333],[96.9,9416],[96.9,9499],[96.9,9583],[96.9,9666],[96.9,9749],[96.9,9833],[96.9,9916],[96.9,9999],[96.9,10083],[96.9,10166],[96.9,10249],[96.9,10333],[96.9,10416],[96.9,10499],[96.9,10583],[96.9,10666],[96.9,10749],[96.9,10833],[96.9,10916],[96.9,10999],[96.9,11083],[96.9,11166],[96.9,11249],[96.9,11333],[96.9,11416],[96.9,11499],[96.9,11583],[96.9,11666],[96.9,11749],[96.9,11833],[96.9,11916],[96.9,11999],[96.9,12083],[96.9,12166],[96.9,12249],[96.9,12333],[96.9,12416],[96.9,12499],[96.9,12583],[96.9,12666],[96.9,12749],[96.9,12832],[96.9,12916],[96.9,12999],[96.9,13082],[96.9,13166],[96.9,13249],[96.9,13333],[96.9,13416],[96.9,13499],[96.9,13583],[96.9,13666],[96.9,13749],[96.9,13833],[96.9,13916],[96.9,13999],[96.9,14083],[96.9,14166],[96.9,14249],[96.9,14332],[96.9,14416],[96.9,14499],[96.9,14583],[96.9,14666],[96.9,14749],[96.9,14833],[96.9,14916],[96.9,14999],[96.9,15083],[96.9,15166],[96.9,15249],[96.9,15333],[96.9,15416],[96.9,15499],[96.9,15583],[96.9,15666],[96.9,15749],[96.9,15833],[96.9,15916],[96.9,15999],[96.9,16083],[96.9,16166],[96.9,16249],[96.9,16333],[96.9,16416],[96.9,16499],[96.9,16583],[96.9,16666],[96.9,16749],[96.9,16833],[96.9,16916],[96.9,16999],[96.9,17083],[96.9,17166],[96.9,17249],[96.9,17333],[96.9,17416],[96.9,17499],[96.9,17583],[96.9,17666],[96.9,17749],[96.9,17833],[96.9,17916],[96.9,17999],[96.9,18083],[96.9,18166],[96.9,18249],[96.9,18333],[96.9,18416],[96.9,18499],[96.9,18583],[96.9,18666],[96.9,18749],[96.9,18833],[96.9,18916],[96.9,18999],[96.9,19083],[96.9,19166],[96.9,19249],[96.9,19333],[96.9,19416],[96.9,19499],[96.9,19583],[96.9,19666],[96.9,19749],[96.9,19833],[96.9,19916],[96.9,19999],[96.9,20083],[96.9,20166],[96.9,20249],[96.9,20333]]",858.9945,861.3774,96.89546723,1.8454,"[{""rating"":96.89546722692913,""responseTime"":1.8454000000953101}]",space,1.8347,,861.3776,Not at all,0,861.3862,,,[],,0,4,4,4,1,audio/Narrative7Situation4.wav,audio/Narrative8Situation4.wav,audio/Narrative5Situation4.wav,audio/Narrative6Situation4.wav,3,3,1,2,,,,,,,,,,,,,,,,,,,,,,,,,,,,,,,,,,,,,,,
,,,,,5d25df839542a40001a83bf4,2025-07-07_22h36.34.221,group3.4_multiperson,2023.2.2,Win32,61.34969325,686c2ebf0248f13bef9af11f,686c83f8516648845999f7c0,,,,,,,,,,,,,,,,,,,,,,,,,,,,,861.3867,2,audio/Narrative5Situation5.wav,866.3941,,866.3943,881.8278,"[[97.1,2583],[97.1,2666],[97.1,2749],[97.1,2832],[97.1,2916],[97.1,2999],[97.1,3082],[97.1,3166],[97.2,3250],[97.2,3332],[97.2,3416],[97.2,3499],[97.2,3582],[97.2,3666],[97.2,3749],[97.2,3832],[97.2,3916],[97.2,3999],[97.2,4082],[97.2,4166],[97.2,4249],[97.2,4332],[97.2,4416],[97.2,4499],[97.2,4582],[97.2,4666],[97.2,4749],[97.2,4832],[97.2,4916],[97.2,4999],[97.2,5082],[97.2,5166],[97.2,5249],[97.2,5332],[97.2,5416],[97.2,5499],[97.2,5582],[97.2,5666],[97.2,5749],[97.2,5832],[97.2,5916],[97.2,5999],[97.2,6082],[97.2,6166],[97.2,6249],[97.2,6332],[97.2,6416],[97.2,6499],[97.2,6583],[97.2,6666],[97.2,6749],[97.2,6832],[97.2,6916],[97.2,6999],[97.2,7082],[97.2,7166],[97.2,7249],[97.2,7332],[97.2,7416],[97.2,7499],[97.2,7582],[97.2,7666],[97.2,7749],[97.2,7832],[97.2,7916],[97.2,7999],[97.2,8082],[97.2,8166],[97.2,8249],[97.2,8332],[97.2,8416],[97.2,8499],[97.2,8582],[97.2,8666],[97.2,8749],[97.2,8832],[97.2,8916],[97.2,8999],[97.2,9082],[97.2,9168],[97.2,9249],[97.2,9332],[97.2,9416],[97.2,9499],[97.2,9582],[97.2,9666],[97.2,9749],[97.2,9832],[97.2,9916],[97.2,9999],[97.2,10082],[97.2,10166],[97.2,10249],[97.2,10333],[97.2,10416],[97.2,10499],[97.2,10582],[97.2,10666],[97.2,10749],[97.2,10832],[97.2,10916],[97.2,10999],[97.2,11082],[97.2,11166],[97.2,11249],[97.2,11332],[97.2,11416],[97.2,11499],[97.2,11582],[97.2,11666],[97.2,11749],[97.2,11832],[97.2,11916],[97.2,11999],[97.2,12082],[97.2,12166],[97.2,12249],[97.2,12332],[97.2,12416],[97.2,12499],[97.2,12582],[97.2,12666],[97.2,12749],[97.2,12832],[97.2,12916],[97.2,12999],[97.2,13082],[97.2,13166],[97.2,13249],[97.2,13332],[97.2,13416],[97.2,13499],[97.2,13582],[97.2,13666],[97.2,13749],[97.2,13832],[97.2,13916],[97.2,13999],[97.2,14082],[97.2,14166],[97.2,14249],[97.2,14332],[97.2,14416],[97.2,14499],[97.2,14583],[97.2,14666],[97.2,14749],[97.2,14832],[97.2,14916],[97.2,14999],[97.2,15082],[97.2,15166],[97.2,15249],[97.2,15332],[97.2,15416]]",881.8279,887.8942,97.18838836,2.3725,"[{""rating"":97.18838836019528,""responseTime"":2.3724999999999454}]",space,5.5217,,887.8944,Partially,50,887.9,,,[],,0,5,5,5,1,audio/Narrative7Situation5.wav,audio/Narrative8Situation5.wav,audio/Narrative5Situation5.wav,audio/Narrative6Situation5.wav,5,2,5,2,,,,,,,,,,,,,,,,,,,,,,,,,,,,,,,,,,,,,,,
,,,,,5d25df839542a40001a83bf4,2025-07-07_22h36.34.221,group3.4_multiperson,2023.2.2,Win32,61.34969325,686c2ebf0248f13bef9af11f,686c83f8516648845999f7c0,,,,,,,,,,,,,,,,,,,,,,,,,,,,,887.9003,2,audio/Narrative5Situation6.wav,890.9106,,890.9107,896.5946,"[[96.9,1333],[96.8,1416],[96.6,1500],[96.3,1582],[96.3,1666],[96.3,1749],[96.3,1832],[96.2,1916],[96.2,1999],[96.2,2082],[96.2,2166],[96.2,2249],[96.2,2333],[96.2,2416],[96.2,2499],[96.2,2583],[96.2,2675],[96.2,2750],[96.2,2833],[96.2,2916],[96.2,2999],[96.2,3083],[96.2,3166],[96.2,3249],[96.2,3333],[96.2,3417],[96.2,3500],[96.2,3583],[96.2,3666],[96.2,3750],[96.2,3833],[96.2,3916],[96.2,4000],[96.2,4083],[96.2,4166],[96.2,4250],[96.2,4333],[96.2,4416],[96.2,4500],[96.2,4583],[96.2,4666],[96.2,4750],[96.2,4833],[96.2,4916],[96.2,5000],[96.2,5083],[96.2,5167],[96.2,5249],[96.2,5333],[96.2,5416],[96.2,5500],[96.2,5583],[96.2,5666]]",896.5948,898.4622,96.60256218,1.0229,"[{""rating"":96.60256218381036,""responseTime"":1.022900000095433}]",space,1.321,,898.4626,Not at all,0,898.4669,,,[],,0,6,6,6,1,audio/Narrative7Situation6.wav,audio/Narrative8Situation6.wav,audio/Narrative5Situation6.wav,audio/Narrative6Situation6.wav,3,2,3,2,,,,,,,,,,,,,,,,,,,,,,,,,,,,,,,,,,,,,,,
,,,,,5d25df839542a40001a83bf4,2025-07-07_22h36.34.221,group3.4_multiperson,2023.2.2,Win32,61.34969325,686c2ebf0248f13bef9af11f,686c83f8516648845999f7c0,,,,,,,,,,,,,,,,,,,,,,,,,,,,,898.4671,2,audio/Narrative5Situation7.wav,902.4779,,902.478,923.5281,"[[96,14583],[93.3,14667],[92.5,14749],[92.5,14832],[92.5,14916],[91.8,15000],[90.9,15082],[90.9,15166],[90.8,15250],[90,15333],[87.3,15417],[81.8,15500],[78.8,15583],[77.6,15666],[74.5,15750],[65.7,15834],[62.4,15916],[60.2,16002],[43.2,16166],[34.8,16251],[28.1,16333],[26,16417],[24.7,16500],[24.3,16585],[24,16666],[24,16749],[24,16832],[24,16916],[24,16999],[24,17083],[24,17166],[24,17249],[24,17332],[24,17416],[24.3,17499],[24.6,17583],[24.7,17666],[24.7,17749],[24.7,17833],[25.4,17916],[26.3,17999],[26.6,18082],[26.8,18165],[27.3,18250],[27.8,18333],[29.2,18416],[31.4,18500],[31.4,18583],[31.9,18666],[33.6,18750],[36.1,18833],[36.4,18916],[36.6,19000],[36.6,19083],[36.6,19166],[36.6,19249],[36.6,19332],[36.6,19416],[36.6,19499],[36.6,19582],[36.4,19666],[36.3,19749],[36.3,19832],[36.3,19916],[36.3,19999],[36.3,20082],[36.3,20166],[36.3,20249],[36.3,20333],[36.3,20416],[36.3,20499],[36.3,20583],[36.3,20666],[36.1,20750],[36.1,20833],[36,20916],[36,20999]]",923.5282,925.9272,33.04060708,2.1231,"[{""rating"":33.0406070827413,""responseTime"":2.123099999904639}]",space,1.8507,,925.9274,Partially,50,925.9333,,,[],,0,7,7,7,1,audio/Narrative7Situation7.wav,audio/Narrative8Situation7.wav,audio/Narrative5Situation7.wav,audio/Narrative6Situation7.wav,5,3,4,5,,,,,,,,,,,,,,,,,,,,,,,,,,,,,,,,,,,,,,,
,,,,,5d25df839542a40001a83bf4,2025-07-07_22h36.34.221,group3.4_multiperson,2023.2.2,Win32,61.34969325,686c2ebf0248f13bef9af11f,686c83f8516648845999f7c0,,,,,,,,,,,,,,,,,,,,,,,,,,,,,925.9335,2,audio/Narrative5Situation8.wav,928.9445,,928.9445,937.7782,"[[999,0],[999,83],[999,166],[999,249],[999,333],[999,416],[999,499],[999,583],[999,666],[999,750],[999,835],[999,916],[999,999],[999,1083],[999,1166],[999,1249],[999,1333],[999,1416],[999,1499],[999,1583],[999,1666],[999,1749],[999,1833],[999,1917],[999,2000],[999,2083],[999,2167],[999,2250],[999,2333],[999,2417],[61.6,2500],[49.8,2586],[36.6,2667],[34.2,2750],[29.8,2835],[28.4,2916],[28.4,2999],[28.2,3083],[28.2,3166],[28.4,3250],[28.5,3333],[28.5,3416],[28.5,3499],[28.5,3583],[28.5,3666],[28.5,3750],[28.5,3833],[28.5,3916],[28.5,3999],[28.5,4083],[28.5,4166],[28.5,4250],[28.5,4333],[28.5,4416],[28.5,4499],[28.5,4583],[28.5,4666],[28.5,4749],[28.5,4833],[28.5,4916],[28.5,4999],[28.5,5083],[28.5,5166],[28.5,5249],[28.5,5333],[28.5,5416],[28.5,5499],[28.5,5583],[28.5,5666],[28.5,5749],[28.5,5833],[28.5,5916],[28.5,5999],[28.5,6083],[28.5,6166],[28.5,6249],[28.5,6333],[28.5,6416],[28.4,6499],[28.4,6583],[28.4,6666],[28.4,6749],[28.4,6833],[28.4,6916],[28.4,6999],[28.4,7083],[28.4,7166],[28.4,7249],[28.4,7333],[28.4,7420],[28.4,7499],[28.4,7583],[28.4,7666],[28.4,7749],[28.4,7833],[28.4,7916],[28.4,8000],[28.4,8083],[28.4,8166],[28.4,8249],[28.4,8333],[28.4,8416],[28.4,8499],[28.4,8583],[28.4,8666],[28.4,8749],[28.4,8833]]",937.7787,940.5113,33.62643326,2.427,"[{""rating"":33.62643325912622,""responseTime"":2.4269999999999072}]",space,2.1924,,940.5115,Definitely yes,100,940.5167,,,[],,0,8,8,8,1,audio/Narrative7Situation8.wav,audio/Narrative8Situation8.wav,audio/Narrative5Situation8.wav,audio/Narrative6Situation8.wav,2,3,3,5,,,,,,,,,,,,,,,,,,,,,,,,,,,,,,,,,,,,,,,
,,,,,5d25df839542a40001a83bf4,2025-07-07_22h36.34.221,group3.4_multiperson,2023.2.2,Win32,61.34969325,686c2ebf0248f13bef9af11f,686c83f8516648845999f7c0,,,,,,,,,,,,,,,,,,,,,,,,,,,,,940.517,2,audio/Narrative5Situation9.wav,943.5277,,943.5278,983.0784,"[[33.5,917],[33.5,1000],[33.5,1083],[33.5,1166],[33.5,1250],[33.5,1333],[33.5,1416],[33.5,1499],[33.5,1582],[33.5,1666],[33.5,1750],[33.5,1833],[33.5,1916],[33.5,1999],[33.5,2083],[33.5,2166],[33.5,2249],[33.5,2333],[33.5,2416],[33.5,2500],[33.5,2583],[33.5,2666],[33.5,2750],[33.5,2833],[33.5,2916],[33.5,2999],[33.5,3083],[33.5,3166],[33.5,3249],[33.5,3333],[33.5,3416],[33.5,3499],[33.5,3583],[33.4,3666],[33.4,3749],[33.4,3833],[33.4,3916],[33.4,4000],[33.4,4083],[33.4,4166],[33.4,4250],[33.4,4333],[33.4,4416],[33.4,4499],[33.4,4583],[33.4,4666],[33.4,4749],[33.4,4835],[33.4,4916],[33.4,4999],[33.4,5083],[33.4,5166],[33.4,5249],[33.4,5333],[33.4,5416],[33.4,5500],[33.1,5583],[32.8,5666],[32.8,5749],[32.8,5833],[32.8,5916],[32.8,6000],[32.8,6083],[32.8,6166],[32.8,6249],[32.8,6333],[32.8,6416],[31.9,6500],[31.6,6583],[31.6,6666],[31.6,6750],[31.6,6833],[31.6,6917],[31.6,6999],[31.6,7083],[31.6,7166],[31.6,7249],[31.6,7333],[31.6,7416],[31.6,7500],[31.6,7583],[31.6,7666],[31.6,7750],[31.6,7833],[31.6,7916],[31.6,7999],[31.6,8082],[31.6,8166],[31.6,8250],[31.6,8333],[31.6,8416],[31.6,8499],[31.6,8583],[31.6,8666],[31.6,8750],[31.6,8833],[31.6,8916],[31.6,9000],[31.6,9083],[31.6,9166],[31.6,9250],[31.6,9333],[31.6,9416],[31.6,9500],[31.6,9583],[31.6,9666],[31.6,9751],[31.6,9833],[31.6,9916],[31.6,10000],[31.6,10083],[31.6,10166],[31.6,10250],[31.6,10333],[31.6,10416],[31.6,10500],[31.6,10583],[31.6,10666],[31.6,10750],[31.6,10833],[31.6,10916],[31.6,10999],[31.6,11083],[31.6,11166],[31.6,11250],[31.6,11333],[31.6,11416],[31.6,11500],[31.6,11583],[31.6,11666],[31.6,11750],[31.6,11833],[31.6,11916],[31.6,12000],[31.6,12083],[31.6,12166],[31.6,12250],[31.6,12333],[31.6,12416],[31.6,12499],[31.6,12582],[31.6,12666],[31.6,12750],[31.6,12835],[31.6,12916],[31.6,13000],[31.6,13083],[31.6,13166],[31.6,13250],[31.6,13333],[31.6,13416],[31.6,13499],[31.6,13582],[31.6,13666],[31.6,13749],[31.6,13833],[31.6,13916],[31.6,14000],[31.6,14083],[31.6,14166],[31.6,14250],[31.6,14333],[31.6,14417],[31.6,14500],[31.6,14583],[31.6,14666],[31.6,14750],[31.6,14833],[31.6,14916],[31.6,15000],[31.6,15083],[31.6,15166],[31.6,15250],[31.6,15333],[31.6,15416],[31.6,15500],[31.6,15583],[31.6,15666],[31.6,15749],[31.6,15833],[31.6,15916],[31.6,15999],[31.6,16083],[31.6,16166],[31.6,16250],[31.6,16333],[31.6,16416],[31.6,16500],[31.6,16583],[31.6,16666],[31.6,16749],[31.6,16833],[31.6,16916],[31.6,17000],[31.6,17083],[31.6,17167],[31.6,17250],[31.6,17333],[31.6,17416],[31.6,17500],[31.6,17583],[31.6,17666],[31.6,17749],[31.6,17833],[31.6,17916],[31.6,18000],[31.6,18084],[31.6,18166],[31.6,18250],[31.6,18332],[31.6,18417],[31.6,18500],[31.6,18583],[31.6,18666],[31.6,18750],[31.6,18833],[31.6,18916],[31.6,19000],[31.6,19083],[31.6,19166],[31.6,19249],[31.6,19333],[31.6,19416],[31.6,19500],[31.6,19583],[31.6,19666],[31.6,19750],[31.6,19833],[31.6,19916],[31.6,20000],[31.6,20083],[31.6,20166],[31.6,20250],[31.6,20333],[31.6,20416],[31.6,20500],[31.6,20583],[31.6,20666],[31.6,20750],[31.6,20833],[31.6,20916],[31.6,21000],[31.6,21083],[31.6,21166],[31.6,21250],[31.6,21333],[31.6,21416],[31.6,21499],[31.6,21583],[31.6,21666],[31.6,21750],[31.6,21833],[31.6,21917],[31.6,22000],[31.6,22083],[31.6,22166],[31.6,22249],[31.6,22333],[31.6,22416],[31.6,22504],[31.6,22585],[31.6,22666],[31.6,22749],[31.6,22832],[31.6,22916],[31.6,22999],[31.6,23083],[31.6,23166],[31.6,23249],[31.6,23333],[31.6,23416],[31.6,23500],[31.6,23583],[31.6,23666],[31.6,23750],[31.6,23833],[31.6,23916],[31.6,24000],[31.6,24083],[31.6,24166],[31.6,24250],[31.6,24333],[31.6,24416],[31.6,24499],[31.6,24583],[31.6,24666],[31.6,24750],[31.6,24833],[31.6,24916],[31.6,24999],[31.6,25083],[31.6,25166],[31.6,25250],[31.6,25333],[31.6,25416],[31.6,25500],[31.6,25583],[31.6,25666],[31.6,25750],[31.6,25833],[31.6,25916],[31.6,26000],[31.6,26083],[31.6,26166],[31.6,26250],[31.6,26333],[31.6,26416],[31.6,26500],[31.6,26583],[31.6,26666],[31.6,26750],[31.6,26833],[31.6,26916],[31.6,27000],[31.6,27083],[31.6,27166],[31.6,27250],[31.6,27333],[31.6,27416],[31.6,27500],[31.6,27583],[31.6,27666],[31.6,27749],[31.6,27833],[31.6,27916],[31.6,28000],[31.6,28083],[31.6,28166],[31.6,28251],[31.6,28333],[31.6,28416],[31.6,28500],[31.6,28583],[31.6,28666],[31.6,28750],[31.6,28833],[31.6,28916],[31.6,29000],[31.6,29083],[31.6,29166],[31.6,29250],[31.6,29333],[31.6,29416],[31.6,29500],[31.6,29583],[31.6,29666],[31.6,29750],[31.6,29832],[31.6,29916],[31.6,29999],[31.6,30083],[31.6,30166],[31.6,30249],[31.6,30333],[31.6,30416],[31.6,30499],[31.6,30583],[31.6,30666],[33.6,30750],[38.6,30833],[40.4,31000],[41.1,31083],[90,31917],[89.7,32000],[89.5,32083],[89.3,32166],[89,32249],[89,32333],[89,32416],[89,32500],[89,32583],[89,32666],[89,32750],[89,32833],[89,32916],[89,33000],[89,33083],[89,33170],[89,33250],[89,33333],[89,33416],[89,33500],[89,33583],[89,33666],[89,33750],[89,33833],[89,33916],[89,34000],[89,34083],[89,34166],[89,34250],[89,34333],[89,34416],[89,34500],[89,34583],[89,34667],[89,34750],[89,34833],[89,34916],[89,35000],[89,35083],[89,35166],[89,35250],[89,35333],[89,35416],[89,35500],[89,35583],[89,35666],[89,35750],[89,35833],[89,35917],[89,36000],[89,36083],[89,36166],[89,36250],[89,36333],[89,36416],[89,36500],[89,36583],[89,36666],[89,36750],[89,36835],[89,36916],[89,37000],[89,37083],[89,37166],[89,37249],[89,37332],[89,37416],[89,37500],[89,37583],[89,37666],[89,37750],[89,37833],[89,37916],[89,38000],[89,38083],[89,38166],[89,38250],[89,38333],[89,38416],[89,38500],[89,38583],[89,38666],[89,38750],[89,38833],[89,38916],[89,39000],[89,39083],[89,39166],[89,39250],[89,39333],[89,39416],[89,39500]]",983.0791,990.5452,88.54748042,5.6421,"[{""rating"":88.54748041627562,""responseTime"":5.642100000143046}]",space,6.9233,,990.5453,Partially,50,990.551,,,[],,0,9,9,9,1,audio/Narrative7Situation9.wav,audio/Narrative8Situation9.wav,audio/Narrative5Situation9.wav,audio/Narrative6Situation9.wav,2,3,3,4,,,,,,,,,,,,,,,,,,,,,,,,,,,,,,,,,,,,,,,
,,,,,5d25df839542a40001a83bf4,2025-07-07_22h36.34.221,group3.4_multiperson,2023.2.2,Win32,61.34969325,686c2ebf0248f13bef9af11f,686c83f8516648845999f7c0,,,,,,,,,,,,,,,,,,,,,,,,,,,,,990.5513,2,audio/Narrative6Situation1.wav,992.5612,,992.5613,1019.1447,"[[87.8,16666],[88,16749],[93.3,16833],[100,17000],[100,17083],[100,17166],[100,17249],[100,17334],[100,17417],[100,17500],[100,17583],[98.1,17667],[91.1,17752],[89.6,17833],[88.6,17916],[88.6,18000],[88.6,18083],[88.6,18166],[88.6,18249],[88.6,18333],[88.6,18416],[88.6,18500],[88.6,18583],[88.6,18667],[88.6,18750],[88.6,18833],[88.6,18916],[88.6,19000],[88.6,19083],[88.6,19167],[88.6,19250],[88.6,19333],[88.6,19416],[88.6,19500],[88.6,19583],[88.6,19666],[88.6,19750],[88.6,19833],[88.6,19916],[88.6,20000],[88.6,20083],[88.6,20166],[88.6,20249],[88.6,20333],[88.6,20417],[88.6,20500],[88.6,20583],[88.6,20666],[88.6,20750],[88.6,20833],[88.6,20917],[88.6,21000],[88.6,21083],[88.6,21166],[88.6,21249],[88.6,21333],[88.6,21416],[88.6,21500],[88.6,21583],[88.6,21667],[88.6,21750],[88.6,21833],[88.6,21916],[88.6,22000],[88.6,22083],[88.6,22166],[88.6,22250],[88.6,22333],[88.6,22416],[88.6,22500],[88.6,22583],[88.6,22666],[88.6,22750],[88.6,22833],[88.6,22916],[88.6,22999],[88.6,23083],[88.6,23167],[88.6,23249],[88.6,23333],[88.6,23416],[88.6,23499],[88.6,23583],[88.6,23666],[88.6,23749],[88.6,23833],[88.6,23916],[88.6,24001],[88.6,24083],[88.6,24167],[88.6,24249],[88.6,24333],[88.6,24417],[88.6,24500],[88.6,24583],[88.6,24670],[88.6,24750],[88.6,24833],[88.6,24916],[88.6,24999],[88.6,25083],[88.6,25166],[88.6,25249],[88.6,25333],[88.6,25416],[88.6,25501],[88.6,25583],[88.6,25666],[88.6,25750],[88.6,25833],[88.6,25917],[88.6,26000],[88.6,26083],[88.6,26166],[88.6,26250],[88.6,26333],[88.6,26416],[88.6,26499],[88.6,26583]]",1019.1448,1022.195,88.98683798,1.8407,"[{""rating"":88.98683798095377,""responseTime"":1.8407000000477183}]",space,2.5257,,1022.1951,Definitely yes,100,1022.2007,,,[],,0,10,10,10,1,audio/Narrative8Situation1.wav,audio/Narrative7Situation1.wav,audio/Narrative6Situation1.wav,audio/Narrative5Situation1.wav,5,2,2,5,,,,,,,,,,,,,,,,,,,,,,,,,,,,,,,,,,,,,,,
,,,,,5d25df839542a40001a83bf4,2025-07-07_22h36.34.221,group3.4_multiperson,2023.2.2,Win32,61.34969325,686c2ebf0248f13bef9af11f,686c83f8516648845999f7c0,,,,,,,,,,,,,,,,,,,,,,,,,,,,,1022.2009,2,audio/Narrative6Situation2.wav,1025.2114,,1025.2115,1053.7289,"[[89.2,12833],[89.2,12916],[89.2,13000],[89.2,13083],[89.2,13167],[89.2,13250],[89.2,13333],[89.2,13417],[89.2,13500],[89.2,13583],[89.2,13666],[89.2,13749],[89.2,13833],[89.2,13917],[89.2,13999],[89.2,14083],[89.2,14167],[89.2,14250],[89.2,14334],[89.2,14417],[89.2,14499],[89.2,14583],[89.2,14666],[89.2,14750],[89.2,14833],[89.2,14917],[89.2,14999],[89.2,15083],[89.2,15167],[89.2,15250],[89.2,15333],[89.2,15417],[89.2,15499],[89.2,15583],[89.2,15666],[89.2,15749],[89.2,15833],[89.2,15916],[89.2,15999],[89.2,16083],[89.2,16167],[89.2,16250],[89.2,16333],[89.2,16417],[89.2,16500],[89.2,16583],[89.2,16667],[89.2,16749],[89.2,16833],[89.2,16916],[89.2,16999],[89.2,17083],[89.2,17167],[89.2,17249],[89.2,17333],[89.2,17416],[89.2,17499],[89.2,17583],[89.2,17666],[89.2,17749],[89.2,17832],[89.2,17917],[89.2,18000],[89.2,18083],[89.2,18166],[89.2,18249],[89.2,18334],[89.2,18416],[89.2,18499],[89.2,18583],[89.2,18667],[89.2,18750],[89.2,18833],[89.2,18917],[89.2,18999],[89.2,19083],[89.2,19166],[89.2,19250],[89.2,19333],[89.2,19416],[89.2,19500],[89.2,19583],[89.2,19666],[89.2,19749],[89.2,19833],[89.2,19916],[89.2,20000],[89.2,20083],[89.2,20166],[89.2,20250],[89.2,20334],[89.2,20416],[89.2,20499],[89.2,20583],[89.2,20666],[89.2,20750],[89.2,20833],[89.2,20917],[89.2,21000],[89.2,21083],[89.2,21167],[89.2,21250],[89.2,21333],[89.2,21416],[89.2,21499],[89.2,21583],[89.2,21667],[89.2,21750],[89.2,21833],[89.2,21916],[89.2,22000],[89.2,22083],[89.2,22166],[89.2,22249],[89.2,22334],[89.2,22416],[89.2,22500],[89.2,22583],[89.2,22666],[89.2,22750],[89.2,22833],[89.2,22917],[89.2,23000],[89.2,23083],[89.2,23166],[89.2,23250],[89.2,23333],[89.2,23416],[89.2,23500],[89.2,23583],[89.2,23666],[89.2,23749],[89.2,23833],[89.2,23917],[89.2,24000],[89.2,24083],[89.2,24167],[89.2,24249],[89.2,24333],[89.2,24416],[89.2,24499],[89.2,24583],[89.2,24666],[89.2,24750],[89.2,24833],[89.2,24917],[89.2,24999],[89.2,25083],[89.2,25166],[89.2,25250],[89.2,25334],[89.2,25416],[89.2,25499],[89.2,25583],[89.2,25667],[89.2,25750],[89.2,25833],[89.2,25917],[89.2,25999],[89.2,26083],[89.2,26167],[89.2,26250],[89.2,26333],[89.2,26417],[89.2,26500],[89.2,26583],[89.2,26667],[89.2,26750],[89.2,26833],[89.2,26916],[89.2,27000],[89.2,27083],[89.2,27166],[89.2,27250],[89.2,27333],[89.2,27417],[89.2,27500],[89.2,27583],[89.2,27666],[89.2,27750],[89.2,27833],[89.2,27917],[89.2,27999],[89.2,28083],[89.2,28166],[89.2,28250],[89.2,28334],[89.2,28417],[89.2,28500]]",1053.7292,1058.8286,71.55856957,3.0733,"[{""rating"":71.55856957155507,""responseTime"":3.073299999952269}]",space,4.552,,1058.8287,Definitely yes,100,1058.8329,,,[],,0,11,11,11,1,audio/Narrative8Situation2.wav,audio/Narrative7Situation2.wav,audio/Narrative6Situation2.wav,audio/Narrative5Situation2.wav,3,3,3,3,,,,,,,,,,,,,,,,,,,,,,,,,,,,,,,,,,,,,,,
,,,,,5d25df839542a40001a83bf4,2025-07-07_22h36.34.221,group3.4_multiperson,2023.2.2,Win32,61.34969325,686c2ebf0248f13bef9af11f,686c83f8516648845999f7c0,,,,,,,,,,,,,,,,,,,,,,,,,,,,,1058.8332,2,audio/Narrative6Situation3.wav,1063.8451,,1063.8453,1076.4614,[],1076.4615,1080.212,46.36811639,2.4604,"[{""rating"":46.36811639266665,""responseTime"":2.460399999856918}]",space,3.2272,,1080.2121,Definitely yes,100,1080.2163,,,[],,0,12,12,12,1,audio/Narrative8Situation3.wav,audio/Narrative7Situation3.wav,audio/Narrative6Situation3.wav,audio/Narrative5Situation3.wav,4,8,5,3,,,,,,,,,,,,,,,,,,,,,,,,,,,,,,,,,,,,,,,
,,,,,5d25df839542a40001a83bf4,2025-07-07_22h36.34.221,group3.4_multiperson,2023.2.2,Win32,61.34969325,686c2ebf0248f13bef9af11f,686c83f8516648845999f7c0,,,,,,,,,,,,,,,,,,,,,,,,,,,,,1080.2167,2,audio/Narrative6Situation4.wav,1082.229,,1082.229,1094.8621,"[[42.3,249],[42.3,332],[42.3,415],[42.3,499],[42.3,582],[42.3,666],[42.3,750],[42.3,833],[42.3,916],[42.3,999],[42.3,1082],[42.3,1165],[42.3,1249],[42.3,1333],[42.3,1415],[42.3,1499],[42.3,1582],[42.3,1666],[42.3,1749],[42.3,1832],[42.3,1915],[42.7,1999],[43.6,2083],[44.6,2166],[44.9,2250],[45.2,2332],[45.2,2415],[45.8,2499],[46.4,2583],[47.1,2666],[47.6,2748],[47.7,2832],[47.7,2915],[47.6,2999],[47.6,3082],[47.4,3165],[47.4,3249],[47.4,3332],[47.4,3416],[47.4,3499],[47.4,3582],[47.4,3666],[47.4,3749],[47.4,3832],[47.7,3916],[48,4001],[55.6,4083],[87.8,4750],[87.8,4832],[87.8,4915],[87.8,4999],[87.8,5082],[87.8,5166],[87.8,5249],[87.8,5332],[87.8,5416],[87.8,5499],[87.8,5582],[87.8,5665],[87.8,5749],[87.8,5832],[87.8,5916],[87.8,5998],[87.8,6082],[87.8,6165],[87.8,6249],[87.8,6332],[87.8,6416],[87.8,6499],[87.8,6582],[87.7,6665],[87.7,6749],[87.7,6832],[87.7,6916],[87.7,6999],[87.7,7082],[87.7,7166],[87.7,7249],[87.7,7332],[87.7,7416],[87.7,7499],[87.7,7582],[87.7,7666],[87.7,7749],[87.7,7832],[87.7,7915],[87.7,7999],[87.7,8082],[87.7,8165],[87.7,8249],[87.7,8332],[87.7,8416],[87.7,8499],[87.7,8582],[87.7,8665],[87.7,8749],[87.7,8832],[87.7,8916],[87.7,8999],[87.7,9083],[87.7,9166],[87.7,9249],[87.7,9332],[87.7,9416],[87.7,9499],[87.7,9582],[87.7,9666],[87.7,9749],[87.7,9832],[87.7,9915],[87.7,9999],[87.7,10083],[87.7,10165],[87.7,10249],[87.7,10332],[87.7,10416],[87.7,10499],[87.7,10582],[87.7,10666],[87.7,10749],[87.7,10832],[87.7,10916],[87.7,10999],[87.7,11082],[87.7,11166],[87.7,11249],[87.7,11332],[87.7,11416],[87.7,11499],[87.7,11582],[87.7,11666],[87.7,11749],[87.7,11832],[87.7,11916],[87.7,11999],[87.7,12082],[87.7,12166],[87.7,12250],[87.7,12332],[87.7,12416],[87.7,12499],[87.7,12582]]",1094.8623,1103.5454,87.66873311,2.628,"[{""rating"":87.66873310662456,""responseTime"":2.627999999999929}]",space,8.1352,,1103.5454,Definitely yes,100,1108.4953,90.01203781,2.4767,"[{""rating"":90.01203781216425,""responseTime"":2.476699999809398}]",space,0,13,13,13,1,audio/Narrative8Situation4.wav,audio/Narrative7Situation4.wav,audio/Narrative6Situation4.wav,audio/Narrative5Situation4.wav,3,3,2,1,,,4.3969,,,,,,,,,,,,,,,,,,,,,,,,,,,,,,,,,,,,
,,,,,5d25df839542a40001a83bf4,2025-07-07_22h36.34.221,group3.4_multiperson,2023.2.2,Win32,61.34969325,686c2ebf0248f13bef9af11f,686c83f8516648845999f7c0,,,,,,,,,,,,,,,,,,,,,,,,,,,,,1108.4962,2,audio/Narrative6Situation5.wav,1110.5118,,1110.5119,1118.4788,"[[72.2,83],[72.2,166],[72.2,249],[72.2,333],[72,416],[71.7,499],[71.4,583],[71.4,667],[71.4,750],[71.4,833],[71.4,916],[71.4,999],[71.4,1083],[71.4,1166],[71.4,1249],[71.3,1333],[71.3,1416],[71.3,1499],[71.3,1583],[71.3,1667],[71.3,1749],[71.3,1833],[71.3,1916],[71.3,1999],[71.3,2083],[71.3,2166],[71.3,2249],[71.3,2333],[71.3,2416],[71.3,2500],[71.3,2583],[71.3,2666],[71.3,2749],[71.3,2833],[71.3,2916],[71.3,3000],[71.3,3082],[71.3,3167],[71.3,3249],[71.3,3333],[71.3,3417],[71.3,3499],[71.3,3583],[71.3,3666],[71.3,3750],[71.3,3833],[71.3,3916],[71.3,3999],[71.3,4083],[71.3,4166],[71.3,4250],[71.3,4333],[71.3,4417],[71.3,4500],[71.3,4583],[71.3,4666],[71.3,4749],[71.3,4833],[71.3,4916],[71.3,4999],[71.3,5083],[71.3,5167],[71.3,5249],[71.3,5333],[71.3,5416],[71.3,5499],[71.3,5583],[71.3,5666],[71.3,5749],[71.3,5833],[71.3,5916],[71.3,5999],[71.3,6083],[71.1,6166],[71.1,6249],[71.1,6333],[71.1,6416],[71.1,6499],[71.1,6583],[71.1,6666],[71.1,6749],[71.1,6833],[71.1,6916],[71.1,6999],[71.1,7083],[71.1,7166],[71.1,7250],[71.1,7333],[71.1,7416],[71.1,7500],[71.1,7583],[71.1,7666],[71.1,7749],[71.1,7833],[71.1,7916]]",1118.479,1135.2118,70.53336974,15.2569,"[{""rating"":70.53336974034458,""responseTime"":15.256899999857069}]",space,16.1864,,1135.212,Partially,50,1135.218,,,[],,0,14,14,14,1,audio/Narrative8Situation5.wav,audio/Narrative7Situation5.wav,audio/Narrative6Situation5.wav,audio/Narrative5Situation5.wav,2,5,2,5,,,,,,,,,,,,,,,,,,,,,,,,,,,,,,,,,,,,,,,
,,,,,5d25df839542a40001a83bf4,2025-07-07_22h36.34.221,group3.4_multiperson,2023.2.2,Win32,61.34969325,686c2ebf0248f13bef9af11f,686c83f8516648845999f7c0,,,,,,,,,,,,,,,,,,,,,,,,,,,,,1135.2182,2,audio/Narrative6Situation6.wav,1137.2285,,1137.2285,1148.296,"[[70.7,4083],[70.7,4166],[70.7,4249],[70.7,4333],[70.7,4416],[70.7,4500],[70.7,4583],[70.7,4666],[70.7,4749],[70.7,4833],[70.7,4916],[70.7,4999],[70.6,5083],[70.6,5166],[70.6,5249],[70.6,5333],[70.6,5416],[70.6,5500],[70.6,5583],[70.6,5666],[70.6,5750],[70.6,5833],[70.6,5916],[70.6,6000],[70.6,6083],[70.6,6166],[70.6,6250],[70.6,6333],[70.6,6416],[70.6,6500],[70.6,6583],[70.6,6666],[70.6,6749],[70.6,6833],[70.6,6916],[70.6,6999],[70.6,7083],[70.6,7166],[70.6,7249],[70.6,7333],[70.6,7416],[70.6,7500],[70.6,7583],[70.6,7666],[70.6,7750],[70.6,7833],[70.6,7916],[70.6,8000],[70.6,8083],[70.6,8166],[70.6,8250],[70.6,8333],[70.6,8416],[70.6,8500],[70.6,8583],[70.6,8666],[70.6,8750],[70.6,8832],[70.6,8916],[70.6,8999],[70.6,9083],[70.6,9166],[70.6,9250],[70.6,9333],[70.6,9416],[70.6,9499],[70.6,9582],[70.6,9666],[70.6,9750],[70.6,9833],[70.6,9916],[70.6,10000],[71,10083],[71,10166],[71,10249],[70.7,10333],[70.7,10416],[70.4,10500],[70.4,10583],[70.4,10666],[72,10750],[74.7,10833],[75.7,10917],[77,11000]]",1148.2961,1151.0952,81.37112182,1.6053,"[{""rating"":81.37112182317085,""responseTime"":1.6052999999521944}]",space,2.2517,,1151.0953,Partially,50,1151.1003,,,[],,0,15,15,15,1,audio/Narrative8Situation6.wav,audio/Narrative7Situation6.wav,audio/Narrative6Situation6.wav,audio/Narrative5Situation6.wav,2,3,2,3,,,,,,,,,,,,,,,,,,,,,,,,,,,,,,,,,,,,,,,
,,,,,5d25df839542a40001a83bf4,2025-07-07_22h36.34.221,group3.4_multiperson,2023.2.2,Win32,61.34969325,686c2ebf0248f13bef9af11f,686c83f8516648845999f7c0,,,,,,,,,,,,,,,,,,,,,,,,,,,,,1151.1005,2,audio/Narrative6Situation7.wav,1156.1117,,1156.1118,1180.979,[],1180.9791,1186.1453,81.81049548,1.8424,"[{""rating"":81.81049547799641,""responseTime"":1.8424000000954948}]",space,4.6182,,1186.1456,Not at all,0,1186.1513,,,[],,0,16,16,16,1,audio/Narrative8Situation7.wav,audio/Narrative7Situation7.wav,audio/Narrative6Situation7.wav,audio/Narrative5Situation7.wav,3,5,5,4,,,,,,,,,,,,,,,,,,,,,,,,,,,,,,,,,,,,,,,
,,,,,5d25df839542a40001a83bf4,2025-07-07_22h36.34.221,group3.4_multiperson,2023.2.2,Win32,61.34969325,686c2ebf0248f13bef9af11f,686c83f8516648845999f7c0,,,,,,,,,,,,,,,,,,,,,,,,,,,,,1186.1515,2,audio/Narrative6Situation8.wav,1191.162,,1191.162,1198.0291,"[[81.5,2499],[81.5,2583],[81.5,2666],[81.5,2749],[81.5,2833],[81.5,2916],[81.5,2999],[81.5,3083],[81.5,3166],[81.5,3249],[81.5,3333],[81.5,3416],[81.5,3499],[81.5,3583],[81.5,3666],[81.5,3749],[81.5,3833],[81.5,3916],[81.5,3999],[81.5,4083],[81.5,4166],[81.5,4249],[81.5,4333],[81.5,4416],[81.5,4499],[81.5,4583],[81.5,4666],[81.5,4749],[81.5,4833],[81.5,4916],[81.5,4999],[81.5,5083],[81.5,5166],[81.5,5249],[81.5,5333],[81.5,5416],[81.5,5499],[81.5,5583],[81.5,5666],[81.5,5749],[81.5,5833],[81.5,5916],[81.5,5999],[81.5,6083],[81.5,6166],[81.5,6249],[81.5,6333],[81.5,6416],[81.5,6499],[81.5,6583],[81.5,6666],[81.5,6749],[81.5,6833]]",1198.0293,1201.6291,23.52096792,2.5925,"[{""rating"":23.520967919317947,""responseTime"":2.5924999999999727}]",space,3.052,,1201.6292,Partially,50,1201.6344,,,[],,0,17,17,17,1,audio/Narrative8Situation8.wav,audio/Narrative7Situation8.wav,audio/Narrative6Situation8.wav,audio/Narrative5Situation8.wav,3,2,5,3,,,,,,,,,,,,,,,,,,,,,,,,,,,,,,,,,,,,,,,
,,,,,5d25df839542a40001a83bf4,2025-07-07_22h36.34.221,group3.4_multiperson,2023.2.2,Win32,61.34969325,686c2ebf0248f13bef9af11f,686c83f8516648845999f7c0,,,,,,,,,,,,,,,,,,,,,,,,,,,,,1201.6346,2,audio/Narrative6Situation9.wav,1205.6454,,1205.6455,1215.5955,"[[24.6,6916],[26.3,6999],[26.3,7083],[26.3,7166],[26.3,7249],[26.3,7333],[26.3,7416],[26.3,7499],[26.3,7583],[26.3,7666],[26.3,7749],[26.3,7833],[26.3,7916],[26.3,7999],[26.3,8083],[26.3,8166],[26.3,8249],[26.3,8333],[26.3,8416],[26.3,8499],[26.3,8583],[26.5,8666],[26.5,8749],[26.5,8833],[26.5,8916],[26.5,8999],[26.5,9083],[26.5,9166],[26.5,9249],[26.5,9333],[26.5,9416],[26.5,9499],[26.5,9583],[26.5,9666],[26.3,9750],[26,9833],[25.9,9916]]",1215.5957,1218.0639,24.25324662,1.1899,"[{""rating"":24.253246617262263,""responseTime"":1.1898999998568343}]",space,1.9174,,1218.0641,Definitely yes,100,1218.0681,,,[],,0,18,18,18,1,audio/Narrative8Situation9.wav,audio/Narrative7Situation9.wav,audio/Narrative6Situation9.wav,audio/Narrative5Situation9.wav,3,2,4,3,,,,,,,,,,,,,,,,,,,,,,,,,,,,,,,,,,,,,,,
,,,,,5d25df839542a40001a83bf4,2025-07-07_22h36.34.221,group3.4_multiperson,2023.2.2,Win32,61.34969325,686c2ebf0248f13bef9af11f,686c83f8516648845999f7c0,,,,,,,,,,,,,,,,,,,,,,,,,,,,,,,,,,,,,,,,,,,,,,,,,,,,,,,,,,,,,,,,,,,,,,1218.0684,1221.8792,space,3.2859,,1221.8809,1236.2461,space,14.0356,,,,,,,,,,,,,,,,,,,,,,,,,,
,,,,,5d25df839542a40001a83bf4,2025-07-07_22h36.34.221,group3.4_multiperson,2023.2.2,Win32,61.34969325,686c2ebf0248f13bef9af11f,686c83f8516648845999f7c0,,,,,,,,,,,,,,,,,,,,,,,,,,,,,1238.8531,1,audio/Narrative8Situation9.wav,1240.8621,,,,,1272.7132,1277.8287,79.32073825,2.7471,"[{""rating"":79.32073825089734,""responseTime"":2.747100000143064}]",space,4.5708,,1277.8289,Not at all,0,1277.8351,,,[],,,,,,,,,,,2,2,2,2,,,,,,,,,,,,,,,1236.2567,1238.8293,1240.8666,3,1272.713,"[[23.7,10245],[23.5,10328],[23.4,10412],[23.4,10495],[23.4,10578],[23.4,10662],[23.4,10745],[23.4,10828],[23.4,10912],[23.4,10995],[23.4,11079],[23.4,11162],[23.4,11245],[23.4,11328],[23.4,11412],[23.4,11495],[23.4,11578],[23.4,11662],[23.4,11745],[23.4,11828],[23.4,11912],[23.4,11995],[23.4,12079],[23.4,12162],[23.4,12245],[23.4,12328],[23.4,12412],[23.4,12495],[23.4,12578],[23.4,12662],[23.4,12746],[23.4,12828],[23.4,12912],[23.4,12995],[23.4,13078],[23.4,13162],[23.4,13245],[23.4,13328],[23.4,13412],[23.4,13495],[23.4,13578],[23.4,13662],[23.4,13745],[23.4,13828],[23.4,13912],[23.4,13995],[23.4,14078],[23.4,14162],[23.4,14245],[23.4,14328],[23.4,14412],[23.4,14495],[23.4,14578],[23.4,14662],[23.4,14745],[23.4,14828],[23.4,14912],[23.4,14995],[23.4,15078],[23.4,15162],[23.4,15245],[23.4,15328],[23.4,15412],[23.4,15495],[23.4,15578],[23.4,15662],[23.4,15745],[23.4,15828],[23.4,15912],[23.4,15995],[23.4,16078],[23.4,16161],[23.4,16245],[23.4,16328],[23.4,16412],[23.4,16495],[23.4,16578],[23.4,16662],[23.4,16745],[23.4,16828],[23.4,16912],[23.4,16995],[23.4,17078],[23.4,17162],[23.4,17245],[23.4,17328],[23.4,17412],[23.4,17495],[23.4,17578],[23.4,17662],[23.4,17745],[23.4,17828],[23.4,17912],[23.4,17995],[23.4,18079],[23.4,18162],[23.4,18245],[23.4,18328],[23.4,18412],[23.4,18495],[23.4,18578],[23.4,18662],[23.4,18746],[23.4,18828],[23.4,18912],[23.4,18995],[23.4,19078],[23.4,19162],[23.4,19245],[23.4,19328],[23.4,19412],[23.4,19495],[23.4,19579],[23.4,19662],[23.4,19745],[23.4,19829],[23.4,19912],[23.4,19995],[23.4,20078],[23.4,20162],[23.4,20246],[23.4,20328],[23.4,20412],[23.4,20495],[23.4,20578],[23.4,20662],[23.4,20745],[23.4,20829],[23.4,20912],[23.4,20995],[23.4,21078],[23.4,21162],[23.4,21245],[23.4,21328],[23.4,21412],[23.4,21495],[23.4,21578],[23.4,21662],[23.4,21745],[23.4,21828],[23.4,21912],[23.4,21995],[23.4,22078],[23.4,22162],[23.4,22245],[23.4,22328],[23.4,22412],[23.4,22495],[23.4,22578],[23.4,22662],[23.4,22745],[23.4,22829],[23.4,22912],[23.4,22995],[23.4,23078],[23.4,23162],[23.4,23246],[23.4,23328],[23.4,23412],[23.4,23495],[23.4,23578],[23.4,23662],[23.4,23745],[23.4,23828],[23.4,23912],[23.4,23995],[23.4,24078],[23.4,24162],[23.4,24245],[23.4,24328],[23.4,24412],[23.4,24495],[23.4,24578],[23.4,24662],[23.4,24745],[23.4,24828],[23.4,24912],[23.4,24995],[23.4,25078],[23.4,25162],[23.4,25245],[23.4,25328],[23.4,25411],[23.4,25495],[23.4,25578],[23.4,25662],[23.4,25745],[23.4,25828],[23.4,25912],[23.4,25995],[23.4,26078],[23.4,26162],[23.4,26245],[23.4,26328],[23.4,26412],[23.4,26495],[23.4,26579],[23.4,26662],[23.4,26745],[23.4,26828],[23.4,26912],[23.4,26995],[23.5,27078],[23.5,27162],[23.5,27245],[23.5,27328],[23.5,27412],[23.5,27495],[23.5,27578],[23.7,27662],[23.7,27745],[23.8,27829],[24.3,27912],[25.9,27996],[28.8,28079],[32,28162],[39.8,28245],[45.9,28329],[54.7,28412],[78.8,28862],[78.8,28945],[78.8,29028],[78.8,29112],[78.6,29195],[78.6,29278],[78.6,29362],[78.6,29445],[78.6,29528],[78.6,29612],[78.6,29695],[78.5,29778],[78.5,29862],[78.5,29945],[78.5,30028],[78.5,30112],[78.5,30195],[78.5,30278],[78.5,30361],[78.5,30445],[78.5,30528],[78.5,30612],[78.5,30695],[78.5,30778],[78.5,30862],[78.5,30945],[78.5,31028],[78.5,31112],[78.5,31195],[78.5,31278],[78.5,31362],[78.5,31445],[78.5,31528],[78.5,31612],[78.5,31695],[78.5,31778]]",0,0,0,0,1,"Larry had recently lost his family, job and home, and was now living on his own in the park. He had most of his belongings, including some clothes, a blanket, and his mother’s special necklace. His family had been very important to him and he felt as though he did not have much going for him. One of his first days in the park he came across a family that did not have much food and looked very cold. He decided to give them some of his food and his blanket.","Larry had recently lost his family, job and home, and was now living on his own in the park. He had most of his belongings, including some clothes, a blanket, and his mother’s special necklace. His family had been very important to him and he felt as though he did not have much going for him. One of his first days in the park he came across a family that did not have much food and looked very cold. He decided to give them some of his food and his blanket.","Larry had recently lost his family, job and home, and was now living on his own in the park. He had most of his belongings, including some clothes, a blanket, and his mother’s special necklace. His family had been very important to him and he felt as though he did not have much going for him. One of his first days in the park he came across a family that did not have much food and looked very cold. He decided to give them some of his food and his blanket.","Larry had recently lost his family, job and home, and was now living on his own in the park. He had most of his belongings, including some clothes, a blanket, and his mother’s special necklace. His family had been very important to him and he felt as though he did not have much going for him. One of his first days in the park he came across a family that did not have much food and looked very cold. He decided to give them some of his food and his blanket.",,,,,,,,,,
