consent.started,consent.stopped,consentResponse.keys,consentResponse.rt,consentResponse.duration,participantID,date,expName,psychopyVersion,OS,frameRate,STUDY_ID,SESSION_ID,opening1.started,opening1.stopped,keyEndingOpening1.keys,keyEndingOpening1.rt,keyEndingOpening1.duration,volumeAdjust.started,volumeAdjust.stopped,endingAdjust.keys,endingAdjust.rt,endingAdjust.duration,opening2.started,opening2.stopped,keyEndingOpening.keys,keyEndingOpening.rt,keyEndingOpening.duration,mouse.x,mouse.y,mouse.leftButton,mouse.midButton,mouse.rightButton,mouse.time,instructionLoop.thisRepN,instructionLoop.thisTrialN,instructionLoop.thisN,instructionLoop.thisIndex,instructionLoop.ran,readyForAudio.started,readyForAudio.stopped,fixation.started,run,audio_played,fixation.stopped,endPractice.keys,audioPre.started,audioPre.stopped,continuousResponses_audio,intRating.started,intRating.stopped,intQuestionSlider.response,intQuestionSlider.rt,intQuestionSlider.history,confirmResponse.keys,confirmResponse.rt,confirmResponse.duration,catchQuestion.started,catch_label,catch_value,catchQuestion.stopped,catchQuestionSlider.response,catchQuestionSlider.rt,catchQuestionSlider.history,confirmResponse_2.keys,audioRunLoop.thisRepN,audioRunLoop.thisTrialN,audioRunLoop.thisN,audioRunLoop.thisIndex,audioRunLoop.ran,conditions1_1,conditions2_1,conditions1_2,conditions2_2,dur1_1,dur2_1,dur1_2,dur2_2,endPractice.rt,endPractice.duration,confirmResponse_2.rt,confirmResponse_2.duration,runIntervalBreak.started,runIntervalBreak.stopped,endingBreakKey.keys,endingBreakKey.rt,endingBreakKey.duration,connection.started,connection.stopped,connectionEnding.keys,connectionEnding.rt,connectionEnding.duration,readyForText.started,readyForText.stopped,textPre.started,run_dup,textPre.stopped,continuousResponses_text,textRunLoop.thisRepN,textRunLoop.thisTrialN,textRunLoop.thisN,textRunLoop.thisIndex,textRunLoop.ran,text1_1,text1_2,text2_1,text2_2,runBreakText.started,runBreakText.stopped,endingBreakKey_2.keys,endingBreakKey_2.rt,endingBreakKey_2.duration,ending.started,ending.stopped,endingEnding.keys,endingEnding.rt,endingEnding.duration
0.0004,10.7508,y,10.4321,,5f0a7dec44c42c19a6c9f6d9,2025-07-07_21h40.11.233,group3.4_multiperson,2023.2.2,Win32,30.12048193,686c2ebf0248f13bef9af11f,686c84c1c371d07582eccb9e,,,,,,,,,,,,,,,,,,,,,,,,,,,,,,,,,,,,,,,,,,,,,,,,,,,,,,,,,,,,,,,,,,,,,,,,,,,,,,,,,,,,,,,,,,,,,,,,,,,,,,,,
,,,,,5f0a7dec44c42c19a6c9f6d9,2025-07-07_21h40.11.233,group3.4_multiperson,2023.2.2,Win32,30.12048193,686c2ebf0248f13bef9af11f,686c84c1c371d07582eccb9e,10.7515,39.7602,space,28.951,,,,,,,,,,,,,,,,,,,,,,,,,,,,,,,,,,,,,,,,,,,,,,,,,,,,,,,,,,,,,,,,,,,,,,,,,,,,,,,,,,,,,,,,,,,,,,,,,,,,
,,,,,5f0a7dec44c42c19a6c9f6d9,2025-07-07_21h40.11.233,group3.4_multiperson,2023.2.2,Win32,30.12048193,686c2ebf0248f13bef9af11f,686c84c1c371d07582eccb9e,,,,,,39.7606,50.5936,space,10.4955,,,,,,,,,,,,,,,,,,,,,,,,,,,,,,,,,,,,,,,,,,,,,,,,,,,,,,,,,,,,,,,,,,,,,,,,,,,,,,,,,,,,,,,,,,,,,,,
,,,,,5f0a7dec44c42c19a6c9f6d9,2025-07-07_21h40.11.233,group3.4_multiperson,2023.2.2,Win32,30.12048193,686c2ebf0248f13bef9af11f,686c84c1c371d07582eccb9e,,,,,,,,,,,50.5982,63.35,space,12.7335,,[],[],[],[],[],[],0,0,0,0,1,,,,,,,,,,,,,,,,,,,,,,,,,,,,,,,,,,,,,,,,,,,,,,,,,,,,,,,,,,,,,,,,,,,,,,,,,,,,,,
,,,,,5f0a7dec44c42c19a6c9f6d9,2025-07-07_21h40.11.233,group3.4_multiperson,2023.2.2,Win32,30.12048193,686c2ebf0248f13bef9af11f,686c84c1c371d07582eccb9e,,,,,,,,,,,63.3506,108.8776,space,45.4289,,[],[],[],[],[],[],1,0,1,0,1,,,,,,,,,,,,,,,,,,,,,,,,,,,,,,,,,,,,,,,,,,,,,,,,,,,,,,,,,,,,,,,,,,,,,,,,,,,,,,
,,,,,5f0a7dec44c42c19a6c9f6d9,2025-07-07_21h40.11.233,group3.4_multiperson,2023.2.2,Win32,30.12048193,686c2ebf0248f13bef9af11f,686c84c1c371d07582eccb9e,,,,,,,,,,,108.8783,141.3312,space,32.4111,,[-0.226328719586024],[-0.7837915972933743],[1],[0],[0],[30.199200000047682],2,0,2,0,1,,,,,,,,,,,,,,,,,,,,,,,,,,,,,,,,,,,,,,,,,,,,,,,,,,,,,,,,,,,,,,,,,,,,,,,,,,,,,,
,,,,,5f0a7dec44c42c19a6c9f6d9,2025-07-07_21h40.11.233,group3.4_multiperson,2023.2.2,Win32,30.12048193,686c2ebf0248f13bef9af11f,686c84c1c371d07582eccb9e,,,,,,,,,,,141.3315,177.6534,space,36.2972,,[],[],[],[],[],[],3,0,3,0,1,,,,,,,,,,,,,,,,,,,,,,,,,,,,,,,,,,,,,,,,,,,,,,,,,,,,,,,,,,,,,,,,,,,,,,,,,,,,,,
,,,,,5f0a7dec44c42c19a6c9f6d9,2025-07-07_21h40.11.233,group3.4_multiperson,2023.2.2,Win32,30.12048193,686c2ebf0248f13bef9af11f,686c84c1c371d07582eccb9e,,,,,,,,,,,177.6547,213.1098,space,35.4194,,[],[],[],[],[],[],4,0,4,0,1,,,,,,,,,,,,,,,,,,,,,,,,,,,,,,,,,,,,,,,,,,,,,,,,,,,,,,,,,,,,,,,,,,,,,,,,,,,,,,
,,,,,5f0a7dec44c42c19a6c9f6d9,2025-07-07_21h40.11.233,group3.4_multiperson,2023.2.2,Win32,30.12048193,686c2ebf0248f13bef9af11f,686c84c1c371d07582eccb9e,,,,,,,,,,,213.111,229.6259,space,16.4883,,[],[],[],[],[],[],5,0,5,0,1,,,,,,,,,,,,,,,,,,,,,,,,,,,,,,,,,,,,,,,,,,,,,,,,,,,,,,,,,,,,,,,,,,,,,,,,,,,,,,
,,,,,5f0a7dec44c42c19a6c9f6d9,2025-07-07_21h40.11.233,group3.4_multiperson,2023.2.2,Win32,30.12048193,686c2ebf0248f13bef9af11f,686c84c1c371d07582eccb9e,,,,,,,,,,,,,,,,,,,,,,,,,,,229.6312,232.2089,232.2328,1,audio/Narrative13Situation2.wav,234.251,,234.2514,264.0168,"[[999,2],[999,91],[999,123],[999,157],[999,191],[999,223],[999,257],[999,290],[999,324],[999,357],[999,390],[999,425],[999,457],[999,491],[999,524],[999,557],[999,590],[999,623],[999,657],[999,690],[999,724],[999,757],[999,790],[999,825],[999,858],[999,892],[999,923],[999,957],[999,990],[999,1024],[999,1057],[999,1090],[999,1123],[999,1157],[999,1190],[999,1223],[999,1257],[999,1291],[999,1323],[999,1357],[999,1390],[999,1423],[999,1457],[999,1490],[999,1524],[999,1558],[999,1590],[999,1623],[999,1657],[999,1691],[999,1724],[999,1761],[999,1801],[999,1823],[999,1863],[999,1893],[999,1930],[999,1957],[999,1992],[999,2025],[999,2063],[999,2090],[999,2127],[999,2166],[999,2192],[999,2232],[999,2257],[999,2301],[999,2333],[999,2357],[999,2390],[999,2432],[999,2466],[999,2492],[999,2533],[999,2566],[999,2591],[999,2633],[999,2661],[999,2699],[999,2731],[999,2757],[999,2790],[999,2824],[999,2858],[999,2897],[999,2923],[999,2957],[999,3000],[999,3023],[999,3061],[999,3096],[999,3124],[999,3157],[999,3191],[999,3224],[999,3257],[999,3293],[999,3324],[999,3357],[999,3393],[999,3425],[999,3463],[999,3492],[999,3524],[999,3557],[999,3598],[999,3624],[999,3663],[999,3691],[999,3729],[999,3763],[999,3791],[999,3830],[999,3863],[999,3897],[999,3926],[999,3957],[999,3996],[999,4031],[999,4057],[999,4090],[999,4132],[999,4160],[999,4190],[999,4231],[999,4267],[999,4291],[999,4326],[999,4357],[999,4397],[999,4428],[999,4457],[999,4496],[999,4531],[999,4557],[999,4597],[999,4626],[999,4658],[999,4696],[999,4730],[999,4757],[999,4798],[999,4824],[999,4857],[999,4899],[999,4925],[999,4958],[999,4997],[999,5024],[999,5057],[999,5096],[999,5131],[999,5158],[999,5191],[999,5232],[999,5257],[999,5290],[999,5326],[999,5359],[999,5397],[999,5426],[999,5457],[999,5496],[999,5524],[999,5562],[999,5599],[999,5624],[999,5664],[999,5696],[999,5724],[999,5762],[999,5797],[999,5829],[999,5857],[999,5894],[999,5924],[999,5957],[999,5990],[999,6024],[999,6062],[999,6091],[999,6134],[999,6157],[999,6191],[999,6229],[999,6257],[999,6296],[999,6328],[999,6365],[999,6397],[999,6424],[999,6457],[999,6498],[999,6524],[999,6557],[999,6597],[999,6629],[999,6660],[999,6693],[999,6729],[999,6759],[999,6797],[999,6830],[999,6857],[999,6896],[999,6923],[999,6963],[999,6996],[999,7024],[999,7057],[999,7093],[999,7123],[999,7160],[999,7190],[999,7223],[999,7265],[999,7299],[999,7323],[999,7357],[999,7391],[999,7423],[999,7464],[999,7497],[999,7531],[999,7565],[999,7590],[999,7624],[999,7663],[999,7698],[999,7729],[999,7765],[999,7790],[999,7823],[999,7865],[999,7891],[999,7930],[999,7966],[999,7990],[999,8030],[999,8060],[999,8091],[999,8132],[999,8157],[999,8196],[999,8227],[999,8257],[999,8290],[999,8330],[999,8365],[999,8390],[999,8430],[999,8457],[999,8495],[999,8526],[999,8563],[999,8596],[999,8629],[999,8657],[999,8694],[999,8730],[999,8757],[999,8793],[999,8830],[999,8862],[999,8893],[999,8928],[999,8963],[999,8993],[999,9026],[999,9057],[999,9090],[999,9124],[999,9161],[999,9197],[999,9230],[999,9264],[999,9290],[999,9323],[999,9365],[999,9397],[999,9431],[999,9463],[999,9493],[999,9524],[999,9562],[999,9597],[999,9623],[999,9664],[999,9699],[999,9723],[999,9763],[999,9798],[999,9823],[999,9857],[999,9891],[999,9924],[999,9962],[999,9996],[999,10024],[999,10063],[999,10096],[999,10123],[999,10157],[999,10190],[999,10230],[999,10262],[999,10296],[999,10330],[999,10363],[999,10391],[999,10430],[999,10457],[999,10490],[999,10524],[999,10563],[999,10595],[999,10629],[999,10657],[999,10690],[999,10729],[999,10763],[999,10790],[999,10829],[999,10860],[999,10890],[999,10930],[999,10957],[999,10990],[999,11030],[999,11057],[999,11096],[999,11129],[999,11158],[999,11196],[999,11226],[999,11263],[999,11291],[999,11323],[999,11362],[999,11396],[999,11430],[999,11457],[999,11490],[999,11523],[999,11557],[999,11591],[999,11630],[999,11657],[999,11690],[999,11723],[999,11757],[999,11798],[999,11823],[999,11857],[999,11893],[999,11928],[999,11957],[999,11998],[999,12024],[999,12058],[999,12091],[999,12124],[999,12161],[999,12196],[999,12226],[999,12259],[999,12296],[999,12323],[999,12357],[999,12390],[999,12423],[999,12457],[999,12490],[999,12524],[999,12563],[999,12596],[999,12623],[999,12657],[999,12690],[999,12726],[999,12762],[999,12796],[999,12824],[999,12857],[999,12890],[999,12924],[999,12963],[999,12996],[999,13026],[999,13064],[999,13090],[999,13124],[999,13157],[999,13191],[999,13224],[999,13257],[999,13290],[999,13326],[999,13357],[999,13390],[999,13430],[999,13457],[999,13490],[999,13529],[999,13563],[999,13590],[999,13629],[999,13664],[999,13690],[999,13724],[999,13757],[999,13790],[999,13831],[999,13862],[999,13893],[999,13931],[999,13963],[999,13990],[999,14030],[999,14063],[999,14097],[999,14126],[999,14157],[999,14190],[999,14226],[999,14263],[999,14290],[999,14326],[999,14357],[999,14390],[999,14430],[999,14463],[999,14490],[999,14524],[999,14557],[999,14596],[999,14623],[999,14664],[999,14696],[999,14729],[999,14757],[999,14790],[999,14823],[999,14864],[999,14898],[999,14931],[999,14957],[999,14998],[999,15033],[999,15066],[999,15100],[999,15123],[999,15157],[999,15197],[999,15224],[999,15264],[999,15291],[999,15327],[999,15366],[999,15397],[999,15431],[999,15457],[999,15496],[999,15524],[999,15564],[999,15592],[999,15626],[999,15665],[999,15691],[999,15724],[999,15758],[999,15797],[999,15831],[999,15857],[999,15899],[999,15924],[999,15964],[999,15998],[999,16025],[999,16059],[999,16095],[68.5,16127],[68.5,16165],[68.5,16197],[68.5,16223],[68.5,16257],[68.5,16297],[68.6,16325],[68.6,16357],[68.6,16396],[68.6,16425],[68.6,16464],[68.6,16498],[68.6,16532],[68.6,16563],[68.6,16598],[68.6,16631],[68.6,16664],[68.6,16699],[68.6,16731],[68.6,16764],[68.6,16790],[68.6,16824],[68.6,16857],[68.6,16891],[68.6,16930],[68.6,16963],[68.6,16991],[68.6,17030],[68.6,17064],[68.6,17097],[68.6,17130],[68.6,17157],[68.6,17191],[68.6,17230],[68.6,17264],[68.6,17291],[68.6,17330],[68.6,17364],[68.6,17390],[68.6,17423],[68.6,17460],[68.6,17491],[68.6,17531],[68.6,17557],[68.6,17598],[68.6,17623],[68.6,17657],[68.6,17698],[68.6,17724],[68.6,17765],[68.6,17798],[68.6,17823],[68.6,17857],[68.6,17898],[68.6,17924],[68.6,17957],[68.6,17992],[68.6,18039],[68.6,18065],[68.8,18098],[69.3,18132],[70,18167],[71,18198],[71.4,18231],[71.7,18267],[71.8,18297],[72.2,18331],[72.7,18364],[73,18398],[73.1,18424],[73.1,18458],[73.1,18497],[73.1,18524],[73.1,18557],[73.1,18596],[73.1,18629],[73.1,18657],[73.1,18697],[73.1,18723],[73.1,18764],[73.1,18798],[73.1,18829],[73.1,18857],[73.1,18891],[73.1,18924],[73.1,18958],[73.1,19000],[73.1,19032],[73.1,19065],[73.1,19098],[73.1,19132],[73.1,19165],[73.1,19199],[73.1,19229],[73.1,19265],[73.1,19290],[73.1,19324],[73.1,19364],[73.1,19390],[73.1,19432],[73.1,19464],[73.1,19491],[73.1,19530],[73.1,19566],[73.1,19599],[73.1,19623],[73.1,19664],[73.1,19699],[73.1,19724],[73.1,19762],[73.1,19793],[73.1,19832],[73.1,19865],[73.1,19891],[73.1,19930],[73.1,19957],[73.1,19991],[73.1,20031],[73.1,20064],[73.1,20091],[73.1,20129],[73.1,20159],[73.1,20190],[73.1,20230],[73.1,20263],[73.1,20296],[73.1,20331],[73.1,20363],[73.1,20396],[73.1,20431],[73.1,20458],[73.1,20497],[73.1,20524],[73.1,20557],[73.1,20597],[73.1,20623],[73.1,20657],[73.1,20697],[73.1,20733],[73.1,20760],[73.1,20798],[73.1,20824],[73.1,20866],[73.1,20891],[73.1,20931],[73.1,20963],[73.1,21000],[73.1,21030],[73.1,21057],[73.1,21099],[73.1,21124],[73.1,21166],[73.1,21191],[73.1,21225],[73.1,21263],[73.1,21292],[73,21331],[73,21363],[73,21391],[73,21431],[73,21464],[73,21496],[73,21525],[73,21557],[73,21598],[73,21623],[73,21657],[73,21693],[73,21728],[73,21764],[73,21792],[73,21823],[73,21864],[73,21895],[73,21924],[73,21957],[73,21994],[73,22030],[73,22057],[73,22090],[73,22124],[73,22157],[73,22192],[73,22231],[73,22263],[73,22290],[73,22324],[73,22357],[73,22398],[73,22433],[73,22459],[73,22498],[73,22526],[73,22565],[73,22598],[73,22632],[73,22657],[73,22690],[73,22726],[73,22758],[73,22798],[73,22828],[73,22859],[73,22896],[73,22932],[73,22957],[73,22997],[73,23024],[73,23063],[73,23095],[73,23131],[73,23157],[73,23197],[73,23231],[73,23258],[73,23294],[73,23324],[73,23365],[73,23400],[73,23423],[73,23464],[73,23496],[73,23524],[73,23563],[73,23595],[73,23630],[73,23664],[73,23692],[73,23730],[73,23764],[73,23790],[73,23829],[73,23857],[73,23898],[73,23923],[73,23957],[73,23991],[73,24030],[73,24065],[73,24091],[73,24131],[73,24165],[73,24190],[73,24231],[73,24257],[73,24290],[73,24330],[73,24363],[73,24396],[73,24430],[73,24465],[73,24490],[73,24531],[73,24563],[73,24597],[73,24630],[73,24662],[73,24697],[73,24730],[73,24758],[73,24797],[73,24824],[73,24857],[73,24891],[73,24923],[73,24957],[73,24999],[73,25030],[73,25062],[73,25098],[73,25124],[73,25157],[73,25196],[73,25230],[73,25257],[73,25296],[73,25330],[73,25357],[73,25396],[73,25430],[73,25457],[73,25497],[73,25526],[73,25557],[73,25594],[73,25623],[73,25657],[73,25695],[73,25723],[73,25765],[73,25795],[73,25832],[73,25865],[73,25891],[73,25925],[73,25957],[73,25992],[73,26030],[73,26059],[73,26096],[73,26124],[73,26158],[73,26190],[73,26224],[73,26257],[73,26297],[73,26329],[73,26364],[73,26390],[73,26428],[73,26463],[73,26490],[73,26530],[73,26563],[73,26597],[73,26629],[73,26657],[73,26691],[73,26729],[73,26758],[73,26791],[73,26830],[73,26857],[73,26897],[73,26923],[73,26961],[73,26994],[73,27031],[73,27057],[73,27096],[73,27126],[73,27162],[73,27196],[73,27224],[73,27257],[73,27298],[73,27332],[73.1,27364],[73.1,27397],[73.1,27424],[73.1,27457],[73.1,27498],[73.1,27524],[73.1,27557],[73.1,27591],[73.2,27630],[73.2,27662],[73.2,27696],[73.3,27726],[74.1,27769],[75.3,27799],[76.4,27831],[77.3,27866],[78.4,27900],[80.5,27931],[83.8,27964],[86.8,28001],[89.2,28031],[91.3,28064],[92.3,28098],[93,28131],[93.9,28165],[94.9,28199],[95.6,28231],[96.3,28265],[97.1,28298],[98.4,28333],[99.1,28366],[99.5,28401],[99.8,28433],[99.8,28457],[99.8,28492],[99.9,28526],[99.9,28557],[99.9,28597],[99.9,28632],[99.9,28657],[99.9,28691],[99.9,28730],[99.9,28757],[99.9,28793],[99.9,28831],[99.9,28857],[99.9,28890],[99.9,28931],[99.9,28958],[99.9,28991],[99.9,29033],[99.9,29057],[99.9,29091],[99.9,29132],[99.9,29157],[99.9,29196],[99.9,29231],[99.9,29258],[99.9,29296],[99.9,29323],[99.9,29358],[99.9,29394],[99.9,29431],[99.9,29460],[99.9,29499],[99.9,29528],[99.9,29560],[99.9,29597],[99.9,29624],[99.9,29657],[99.9,29698],[99.9,29724],[99.9,29764]]",264.0177,278.3596,96.97494551,7.2357,"[{""rating"":96.97494551208864,""responseTime"":7.2357000000477}]",space,13.8089,,278.3602,Not at all,0,278.369,,,[],,0,0,0,0,1,audio/Narrative13Situation2.wav,audio/Narrative13Situation2.wav,audio/Narrative13Situation2.wav,audio/Narrative13Situation2.wav,2,2,2,2,,,,,,,,,,,,,,,,,,,,,,,,,,,,,,,,,,,,,,,
,,,,,5f0a7dec44c42c19a6c9f6d9,2025-07-07_21h40.11.233,group3.4_multiperson,2023.2.2,Win32,30.12048193,686c2ebf0248f13bef9af11f,686c84c1c371d07582eccb9e,,,,,,,,,,,,,,,,,,,,,,,,,,,,,278.3695,1,audio/Narrative8Situation1.wav,281.2266,space,281.227,297.1588,"[[96.8,3183],[96.4,3215],[95.4,3249],[95.1,3282],[94.8,3316],[94.2,3350],[93.8,3382],[93.7,3415],[93.7,3448],[93.7,3481],[93.7,3515],[93.7,3548],[93.7,3582],[93.7,3616],[93.7,3648],[93.7,3681],[93.7,3715],[93.7,3748],[93.7,3781],[93.7,3815],[93.7,3848],[93.7,3882],[93.7,3916],[93.7,3948],[93.7,3981],[93.7,4014],[93.7,4049],[93.7,4081],[93.7,4115],[93.7,4148],[93.7,4181],[93.7,4217],[93.7,4249],[93.7,4281],[93.7,4314],[93.7,4349],[93.7,4382],[93.7,4415],[93.7,4448],[93.7,4481],[93.7,4515],[93.7,4548],[93.7,4582],[93.7,4614],[93.7,4648],[93.7,4681],[93.7,4715],[93.7,4748],[93.7,4782],[93.7,4815],[93.7,4848],[93.7,4881],[93.7,4915],[93.7,4948],[93.7,4982],[93.7,5016],[93.7,5048],[93.7,5082],[93.7,5115],[93.7,5148],[93.7,5181],[93.7,5215],[93.7,5248],[93.7,5281],[93.7,5316],[93.6,5348],[93.5,5381],[93.5,5415],[93.5,5448],[93.5,5481],[93.5,5515],[93.5,5549],[93.5,5582],[93.5,5615],[93.5,5648],[93.5,5681],[93.5,5715],[93.5,5748],[93.5,5782],[93.5,5816],[93.5,5848],[93.5,5881],[93.5,5915],[93.5,5948],[93.5,5981],[93.5,6014],[93.5,6048],[93.5,6081],[93.5,6115],[93.5,6148],[93.5,6181],[93.5,6215],[93.5,6248],[93.5,6281],[93.5,6315],[93.5,6348],[93.5,6381],[93.5,6415],[93.5,6448],[93.5,6481],[93.5,6514],[93.5,6548],[93.5,6581],[93.5,6614],[93.5,6648],[93.5,6681],[93.5,6715],[93.5,6748],[93.5,6781],[93.5,6815],[93.5,6849],[93.5,6882],[93.5,6915],[93.5,6948],[93.5,6981],[93.5,7015],[93.5,7049],[93.5,7081],[93.5,7115],[93.5,7148],[93.5,7181],[93.5,7215],[93.5,7248],[93.5,7281],[93.5,7314],[93.5,7348],[93.5,7382],[93.5,7415],[93.5,7448],[93.5,7481],[93.5,7515],[93.5,7548],[93.5,7581],[93.5,7615],[93.5,7648],[93.5,7681],[93.5,7715],[93.5,7748],[93.5,7781],[93.5,7815],[93.5,7848],[93.5,7882],[93.5,7915],[93.5,7948],[93.5,7981],[93.5,8015],[93.5,8049],[93.5,8082],[93.5,8115],[93.5,8148],[93.5,8181],[93.5,8215],[93.5,8250],[93.5,8282],[93.5,8315],[93.5,8348],[93.5,8382],[93.5,8416],[93.5,8448],[93.5,8482],[93.5,8515],[93.5,8548],[93.5,8581],[93.5,8615],[93.5,8648],[93.5,8681],[93.5,8715],[93.5,8748],[93.5,8781],[93.5,8816],[93.5,8848],[93.5,8882],[93.5,8916],[93.5,8948],[93.5,8981],[93.5,9015],[93.5,9048],[93.5,9082],[93.5,9115],[93.5,9148],[93.5,9182],[93.5,9214],[93.5,9248],[93.5,9282],[93.5,9315],[93.5,9348],[93.5,9382],[93.5,9415],[93.5,9448],[93.5,9482],[93.5,9515],[93.5,9548],[93.5,9582],[93.5,9615],[93.5,9648],[93.5,9681],[93.5,9714],[93.5,9748],[93.5,9781],[93.5,9815],[93.5,9848],[93.5,9882],[93.5,9915],[93.5,9948],[93.5,9981],[93.5,10014],[93.5,10048],[93.5,10082],[93.5,10115],[93.5,10148],[93.5,10181],[93.5,10215],[93.5,10248],[93.5,10282],[93.5,10316],[93.5,10348],[93.5,10381],[93.5,10415],[93.5,10448],[93.5,10482],[93.5,10515],[93.5,10548],[93.5,10581],[93.5,10615],[93.5,10648],[93.5,10681],[93.5,10715],[93.5,10748],[93.5,10781],[93.5,10815],[93.5,10848],[93.5,10882],[93.5,10916],[93.5,10950],[93.5,10981],[93.5,11015],[93.5,11049],[93.5,11082],[93.5,11115],[93.5,11148],[93.5,11181],[93.5,11215],[93.5,11248],[93.5,11281],[93.5,11314],[93.5,11348],[93.5,11381],[93.5,11415],[93.5,11448],[93.5,11481],[93.5,11514],[93.5,11548],[93.5,11581],[93.5,11614],[93.5,11648],[93.5,11681],[93.5,11714],[93.5,11748],[93.5,11781],[93.5,11814],[93.5,11848],[93.5,11881],[93.5,11914],[93.5,11948],[93.5,11981],[93.5,12015],[94.6,12049],[95.6,12083],[96.8,12115],[97.2,12149],[97.3,12181],[97.8,12215],[98.2,12248],[98.7,12281],[98.7,12314],[98.7,12348],[98.7,12381],[98.7,12414],[98.7,12448],[98.7,12481],[98.7,12514],[98.9,12548],[98.9,12581],[98.9,12614],[98.9,12648],[98.9,12681],[98.9,12714],[98.9,12748],[98.9,12781],[98.9,12815],[98.9,12848],[98.9,12881],[98.9,12915],[98.9,12948],[98.9,12981],[98.9,13015],[98.9,13048],[98.9,13081],[98.9,13115],[98.9,13148],[98.9,13181],[98.9,13215],[98.9,13248],[98.9,13281],[98.9,13314],[98.9,13348],[98.9,13381],[98.9,13415],[98.9,13448],[98.9,13481],[98.9,13514],[98.9,13548],[98.9,13581],[98.9,13615],[98.9,13648],[98.9,13681],[98.9,13714],[98.9,13748],[98.9,13781],[98.9,13814],[98.9,13848],[98.9,13881],[98.9,13915],[98.9,13948],[98.9,13981],[98.9,14015],[98.9,14048],[98.9,14082],[98.9,14115],[98.9,14148],[98.9,14181],[98.9,14214],[98.9,14248],[98.9,14281],[98.9,14315],[98.9,14348],[98.9,14381],[98.9,14415],[98.9,14448],[98.9,14481],[98.9,14514],[98.9,14548],[98.9,14581],[98.9,14614],[98.9,14648],[98.9,14681],[98.9,14715],[98.9,14748],[98.9,14781],[98.9,14814],[98.9,14848],[98.9,14881],[98.9,14915],[98.9,14948],[98.9,14981],[98.9,15014],[98.9,15048],[98.9,15081],[98.9,15115],[98.9,15148],[98.9,15181],[98.9,15215],[98.9,15248],[98.9,15281],[98.9,15314],[98.9,15348],[98.9,15381],[98.9,15415],[98.9,15448],[98.9,15481],[98.9,15514],[98.9,15548],[98.9,15581],[98.9,15615],[98.9,15648],[98.9,15681],[98.9,15715],[98.9,15748],[98.9,15781],[98.9,15815],[98.9,15848],[98.9,15881],[98.9,15914]]",297.159,302.1087,98.53630319,4.2607,"[{""rating"":98.53630319314628,""responseTime"":3.5386000000237914},{""rating"":98.53630319314628,""responseTime"":4.260700000047677}]",space,4.4007,,302.109,Not at all,0,302.1115,,,[],,0,1,1,1,1,audio/Narrative7Situation1.wav,audio/Narrative8Situation1.wav,audio/Narrative5Situation1.wav,audio/Narrative6Situation1.wav,2,5,5,2,2.8333,,,,,,,,,,,,,,,,,,,,,,,,,,,,,,,,,,,,,,
,,,,,5f0a7dec44c42c19a6c9f6d9,2025-07-07_21h40.11.233,group3.4_multiperson,2023.2.2,Win32,30.12048193,686c2ebf0248f13bef9af11f,686c84c1c371d07582eccb9e,,,,,,,,,,,,,,,,,,,,,,,,,,,,,302.1119,1,audio/Narrative8Situation2.wav,305.1261,,305.1263,315.2592,[],315.2595,321.4754,50.65494031,4.1414,"[{""rating"":50.65494030970348,""responseTime"":4.141400000095416}]",space,5.6668,,321.4756,Not at all,0,321.4783,,,[],,0,2,2,2,1,audio/Narrative7Situation2.wav,audio/Narrative8Situation2.wav,audio/Narrative5Situation2.wav,audio/Narrative6Situation2.wav,3,3,3,3,,,,,,,,,,,,,,,,,,,,,,,,,,,,,,,,,,,,,,,
,,,,,5f0a7dec44c42c19a6c9f6d9,2025-07-07_21h40.11.233,group3.4_multiperson,2023.2.2,Win32,30.12048193,686c2ebf0248f13bef9af11f,686c84c1c371d07582eccb9e,,,,,,,,,,,,,,,,,,,,,,,,,,,,,321.4786,1,audio/Narrative8Situation3.wav,325.492,,325.4921,347.8755,"[[51.8,5666],[52.1,5700],[52.5,5735],[53,5768],[53.6,5801],[54.4,5834],[55,5866],[55.3,5900],[55.3,5934],[55.3,5966],[55.4,6001],[55.8,6034],[56.4,6067],[57.1,6101],[57.8,6135],[58.6,6167],[59.5,6202],[60.4,6235],[61.2,6267],[61.7,6301],[61.9,6333],[62.3,6367],[62.6,6400],[63.1,6433],[63.6,6467],[64.1,6501],[65,6535],[65.6,6567],[66.1,6600],[66.6,6633],[67,6666],[67.2,6700],[67.6,6733],[68.1,6766],[68.3,6799],[68.3,6833],[68.3,6866],[68.3,6901],[68.3,6933],[68.3,6966],[68.3,7000],[68.3,7033],[68.3,7066],[68.3,7100],[68.3,7133],[68.3,7167],[68.3,7200],[68.3,7233],[68.3,7266],[68.3,7300],[68.3,7333],[68.3,7366],[68.3,7400],[68.3,7433],[68.3,7466],[68.3,7500],[68.3,7533],[68.3,7566],[68.3,7600],[68.3,7633],[68.3,7667],[68.3,7699],[68.3,7733],[68.3,7766],[68.3,7800],[68.3,7833],[68.3,7866],[68.5,7900],[68.5,7933],[68.5,7966],[68.5,8001],[68.7,8033],[68.7,8066],[68.7,8099],[68.7,8133],[68.7,8166],[68.7,8200],[68.7,8233],[68.7,8266],[68.7,8300],[68.7,8333],[68.7,8366],[68.7,8400],[68.7,8433],[68.7,8466],[68.7,8499],[68.7,8533],[68.7,8566],[68.7,8599],[68.7,8633],[68.7,8670],[68.7,8700],[68.7,8733],[68.7,8766],[68.7,8800],[68.7,8833],[68.9,8866],[70.5,8900],[72.6,8935],[74,8966],[74.5,9000],[75.1,9038],[75.9,9067],[76.5,9101],[77.5,9133],[78.6,9168],[79.7,9201],[81.6,9234],[83.6,9267],[85.6,9301],[86.6,9335],[88.3,9366],[89.4,9400],[90.9,9433],[91.8,9467],[92.3,9501],[92.4,9533],[92.4,9567],[92.4,9599],[92.4,9633],[92.6,9666],[93.3,9700],[93.8,9735],[94.3,9767],[94.5,9800],[94.7,9834],[94.9,9866],[95.4,9900],[95.5,9933],[95.9,9968],[96,10000],[96.2,10033],[96.3,10067],[96.5,10103],[96.5,10133],[96.5,10166],[96.7,10201],[96.9,10233],[96.9,10266],[97.2,10300],[97.5,10334],[97.5,10366],[97.5,10399],[97.5,10433],[97.5,10466],[97.5,10500],[97.5,10533],[97.5,10567],[97.5,10600],[97.5,10633],[97.5,10666],[97.5,10699],[97.5,10732],[97.5,10766],[97.5,10800],[97.5,10833],[97.5,10866],[97.5,10899],[97.5,10933],[97.5,10966],[97.5,11000],[97.5,11033],[97.5,11066],[97.5,11099],[97.5,11134],[97.5,11166],[97.5,11199],[97.5,11235],[97.5,11267],[97.5,11299],[97.5,11333],[97.5,11366],[97.5,11399],[97.5,11433],[97.5,11466],[97.5,11500],[97.5,11533],[97.5,11566],[97.5,11600],[97.5,11633],[97.5,11666],[97.5,11700],[97.5,11733],[97.5,11768],[97.5,11800],[97.5,11833],[97.5,11866],[97.5,11899],[97.5,11933],[97.5,11966],[97.5,11999],[97.5,12033],[97.5,12066],[97.5,12100],[97.5,12134],[97.5,12167],[97.5,12199],[97.5,12233],[97.5,12266],[97.5,12300],[97.5,12333],[97.5,12366],[97.5,12399],[97.5,12433],[97.5,12466],[97.5,12500],[97.5,12533],[97.5,12566],[97.5,12600],[97.5,12633],[97.5,12667],[97.5,12700],[97.5,12733],[97.5,12766],[97.5,12800],[97.5,12833],[97.5,12866],[97.5,12900],[97.5,12933],[97.5,12966],[97.5,13000],[97.5,13033],[97.5,13066],[97.5,13100],[97.5,13134],[97.5,13168],[97.5,13200],[97.5,13233],[97.5,13267],[97.5,13299],[97.5,13333],[97.5,13366],[97.5,13400],[97.5,13433],[97.5,13466],[97.5,13499],[97.5,13533],[97.5,13566],[97.5,13600],[97.5,13633],[97.5,13667],[97.5,13700],[97.5,13733],[97.5,13767],[97.5,13799],[97.5,13833],[97.5,13866],[97.5,13900],[97.5,13933],[97.5,13966],[97.5,14000],[97.5,14033],[97.5,14066],[97.5,14100],[97.5,14133],[97.5,14166],[97.5,14200],[97.5,14233],[97.5,14266],[97.5,14299],[97.5,14333],[97.5,14366],[97.5,14399],[97.5,14433],[97.5,14466],[97.5,14500],[97.5,14533],[97.5,14566],[97.5,14600],[97.5,14635],[97.5,14666],[97.5,14700],[97.5,14733],[97.5,14767],[97.5,14800],[97.5,14833],[97.5,14866],[97.5,14900],[97.5,14933],[97.5,14966],[97.5,15000],[97.5,15033],[97.5,15068],[97.5,15099],[97.5,15133],[97.5,15167],[97.5,15200],[97.5,15233],[97.5,15266],[97.5,15299],[97.5,15333],[97.5,15367],[97.5,15399],[97.5,15433],[97.5,15466],[97.5,15500],[97.5,15533],[97.5,15567],[97.5,15600],[97.5,15633],[97.5,15666],[97.5,15700],[97.5,15733],[97.5,15768],[97.5,15800],[97.5,15833],[97.5,15866],[97.5,15899],[97.5,15933],[97.5,15966],[97.5,16000],[97.5,16033],[97.5,16066],[97.5,16100],[97.5,16133],[97.5,16166],[97.5,16200],[97.5,16233],[97.5,16266],[97.5,16300],[97.5,16333],[97.5,16366],[97.5,16400],[97.5,16433],[97.5,16466],[97.5,16500],[97.5,16533],[97.5,16566],[97.5,16600],[97.5,16633],[97.5,16666],[97.5,16699],[97.5,16733],[97.5,16766],[97.5,16800],[97.5,16833],[97.5,16866],[97.5,16899],[97.5,16933],[97.5,16966],[97.5,16999],[97.5,17032],[97.5,17066],[97.5,17100],[97.5,17133],[97.5,17166],[97.5,17200],[97.5,17233],[97.5,17266],[97.5,17300],[97.5,17333],[97.5,17366],[97.5,17399],[97.5,17433],[97.5,17466],[97.5,17499],[97.5,17533],[97.5,17567],[97.5,17600],[97.5,17633],[97.5,17666],[97.5,17700],[97.5,17733],[97.5,17768],[97.5,17800],[97.5,17833],[97.5,17866],[97.5,17899],[97.5,17934],[97.5,17966],[97.5,18000],[97.5,18033],[97.5,18066],[97.5,18100],[97.5,18133],[97.5,18166],[97.5,18200],[97.5,18233],[97.5,18266],[97.5,18300],[97.5,18333],[97.5,18366],[97.5,18400],[97.5,18433],[97.5,18466],[97.5,18500],[97.5,18533],[97.5,18566],[97.5,18599],[97.5,18633],[97.5,18666],[97.5,18699],[97.5,18733],[97.5,18767],[97.5,18800],[97.5,18833],[97.5,18866],[97.5,18899],[97.5,18933],[97.5,18966],[97.5,18999],[97.5,19033],[97.5,19066],[97.5,19099],[97.5,19133],[97.5,19167],[97.5,19200],[97.5,19233],[97.5,19266],[97.5,19299],[97.5,19333],[97.5,19366],[97.5,19399],[97.5,19433],[97.5,19466],[97.5,19499],[97.5,19533],[97.5,19566],[97.5,19599],[97.5,19633],[97.5,19666],[97.5,19699],[97.5,19733],[97.5,19766],[97.5,19800],[97.5,19833],[97.5,19866],[97.5,19899],[97.5,19933],[97.5,19966],[97.5,19999],[97.5,20033],[97.5,20066],[97.5,20099],[97.5,20132],[97.5,20166],[97.5,20199],[97.5,20233],[97.5,20266],[97.5,20299],[97.5,20333],[97.5,20366],[97.5,20399],[97.5,20433],[97.5,20466],[97.5,20499],[97.5,20533],[97.5,20566],[97.5,20599],[97.5,20633],[97.5,20666],[97.5,20700],[97.5,20733],[97.5,20766],[97.5,20800],[97.5,20833],[97.5,20866],[97.5,20899],[97.5,20933],[97.5,20966],[97.5,20999],[97.5,21033],[97.5,21066],[97.5,21099],[97.5,21133],[97.5,21166],[97.5,21199],[97.5,21233],[97.5,21266],[97.5,21299],[97.5,21333],[97.5,21366],[97.5,21399],[97.5,21433],[97.5,21466],[97.5,21499],[97.5,21533],[97.5,21566],[97.5,21599],[97.5,21633],[97.5,21666],[97.5,21699],[97.5,21733],[97.5,21766],[97.5,21800],[97.5,21833],[97.5,21867],[97.5,21900],[97.5,21933],[97.5,21966],[97.5,21999],[97.5,22032],[97.5,22066],[97.5,22099],[97.5,22133],[97.5,22166],[97.5,22199],[97.5,22233],[97.5,22266],[97.5,22299],[97.5,22333],[97.5,22366]]",347.8757,355.7775,99.99355635,6.7948,"[{""rating"":99.99355635345125,""responseTime"":6.794799999952318}]",space,7.3538,,355.7777,Partially,50,355.7835,,,[],,0,3,3,3,1,audio/Narrative7Situation3.wav,audio/Narrative8Situation3.wav,audio/Narrative5Situation3.wav,audio/Narrative6Situation3.wav,8,4,3,5,,,,,,,,,,,,,,,,,,,,,,,,,,,,,,,,,,,,,,,
,,,,,5f0a7dec44c42c19a6c9f6d9,2025-07-07_21h40.11.233,group3.4_multiperson,2023.2.2,Win32,30.12048193,686c2ebf0248f13bef9af11f,686c84c1c371d07582eccb9e,,,,,,,,,,,,,,,,,,,,,,,,,,,,,355.7838,1,audio/Narrative8Situation4.wav,358.7941,,358.7941,372.9823,"[[96.9,4173],[95.9,4209],[93.4,4240],[91.1,4271],[88.4,4307],[84.1,4340],[79.1,4371],[74,4405],[68.4,4441],[63.5,4471],[61.8,4505],[59.1,4538],[57.9,4571],[56.9,4604],[56,4638],[54.6,4672],[53.5,4706],[52.5,4739],[52,4775],[51.9,4805],[51.9,4831],[51.9,4867],[51.9,4903],[51.9,4934],[51.9,4965],[51.9,4997],[51.9,5039],[51.9,5065],[51.9,5104],[51.9,5134],[51.9,5170],[51.9,5204],[51.9,5237],[51.9,5271],[51.9,5302],[51.9,5334],[51.9,5365],[51.9,5405],[51.9,5432],[51.9,5466],[51.9,5504],[51.9,5536],[51.9,5565],[51.9,5603],[51.9,5631],[51.9,5664],[51.9,5704],[51.9,5738],[51.9,5764],[51.9,5806],[52.5,5843],[52.9,5874],[53.5,5905],[54,5939],[54.8,5974],[55.3,6005],[56.1,6044],[56.9,6072],[58,6105],[58.8,6138],[59.6,6172],[60.4,6205],[61.3,6237],[61.9,6273],[62.6,6306],[63,6340],[63.5,6374],[64.3,6405],[65.5,6439],[67.9,6473],[70.3,6507],[72.8,6539],[74.8,6571],[76.2,6604],[76.8,6639],[76.8,6664],[76.8,6698],[76.8,6734],[76.8,6764],[76.8,6799],[76.8,6837],[77,6870],[77.2,6906],[77.6,6939],[78.5,6975],[80.4,7005],[83.9,7038],[85.3,7071],[86.6,7105],[87.7,7139],[88.9,7172],[89.8,7207],[91.2,7239],[91.9,7273],[92.1,7305],[92.8,7339],[93.4,7373],[93.8,7408],[94.3,7441],[95.1,7472],[95.7,7504],[95.9,7538],[96.3,7571],[96.9,7604],[97.3,7638],[97.8,7671],[98.2,7705],[98.6,7739],[98.7,7771],[98.8,7805],[98.8,7837],[98.8,7870],[98.8,7904],[98.8,7931],[98.8,7964],[98.7,8005],[98.7,8031],[98.7,8065],[98.7,8105],[98.7,8138],[98.7,8172],[98.7,8198],[98.7,8231],[98.7,8271],[98.7,8301],[98.7,8339],[98.7,8364],[98.7,8403],[98.7,8431],[98.7,8465],[98.7,8503],[98.7,8532],[98.7,8571],[98.7,8600],[98.7,8631],[98.7,8665],[98.7,8697],[98.7,8731],[98.7,8770],[98.7,8804],[98.7,8838],[98.7,8870],[98.7,8898],[98.7,8931],[98.7,8965],[98.7,9004],[98.7,9039],[98.7,9065],[98.7,9104],[98.7,9136],[98.7,9170],[98.7,9204],[98.7,9233],[98.7,9265],[98.7,9303],[98.7,9337],[98.7,9370],[98.7,9405],[98.7,9432],[98.7,9471],[98.7,9499],[98.7,9537],[98.7,9570],[98.7,9603],[98.7,9634],[98.7,9664],[98.7,9698],[98.7,9731],[98.7,9770],[98.7,9798],[98.7,9834],[98.7,9871],[98.7,9904],[98.7,9931],[98.7,9965],[98.7,9998],[98.7,10031],[98.7,10064],[98.7,10098],[98.7,10137],[98.7,10168],[98.7,10204],[98.7,10231],[98.7,10270],[98.7,10305],[98.7,10335],[98.7,10370],[98.7,10398],[98.7,10437],[98.7,10464],[98.7,10500],[98.7,10537],[98.7,10564],[98.7,10598],[98.7,10640],[98.7,10671],[98.7,10699],[98.7,10731],[98.7,10766],[98.7,10806],[98.7,10831],[98.7,10865],[98.7,10898],[98.7,10934],[98.7,10964],[98.7,11003],[98.7,11040],[98.7,11064],[98.7,11103],[98.7,11139],[98.7,11165],[98.7,11199],[98.7,11239],[98.7,11266],[98.7,11306],[98.7,11331],[98.7,11364],[98.7,11408],[98.7,11440],[98.7,11473],[98.7,11504],[98.7,11532],[98.7,11570],[98.7,11597],[98.7,11631],[98.7,11665],[98.7,11698],[98.7,11731],[98.7,11771],[98.7,11798],[98.7,11831],[98.7,11864],[98.7,11904],[98.7,11931],[98.7,11970],[98.7,12004],[98.7,12031],[98.7,12064],[98.7,12098],[98.7,12131],[98.7,12164],[98.7,12199],[98.7,12231],[98.7,12270],[98.7,12304],[98.7,12331],[98.7,12369],[98.7,12400],[98.7,12431],[98.7,12466],[98.7,12504],[98.7,12531],[98.7,12564],[98.7,12603],[98.7,12631],[98.7,12664],[98.7,12703],[98.7,12739],[98.7,12764],[98.7,12804],[98.7,12840],[98.7,12870],[98.7,12904],[98.7,12931],[98.7,12965],[98.7,13005],[98.7,13031],[98.7,13072],[98.7,13105],[98.7,13131],[98.7,13167],[98.7,13198],[98.7,13240],[98.7,13273],[98.7,13298],[98.7,13331],[98.7,13365],[98.7,13398],[98.7,13431],[98.7,13473],[98.7,13502],[98.7,13531],[98.7,13564],[98.7,13598],[98.7,13637],[98.7,13665],[98.7,13700],[98.7,13738],[98.7,13764],[98.7,13798],[98.7,13834],[98.7,13867],[98.7,13898],[98.7,13937],[98.7,13964],[98.7,13998],[98.7,14037],[98.7,14073],[98.7,14098],[98.7,14138],[98.7,14164]]",372.9826,377.3491,99.57719831,1.3992,"[{""rating"":99.57719830764984,""responseTime"":1.3992000000476992}]",space,3.8258,,377.3491,Definitely yes,100,377.353,,,[],,0,4,4,4,1,audio/Narrative7Situation4.wav,audio/Narrative8Situation4.wav,audio/Narrative5Situation4.wav,audio/Narrative6Situation4.wav,3,3,1,2,,,,,,,,,,,,,,,,,,,,,,,,,,,,,,,,,,,,,,,
,,,,,5f0a7dec44c42c19a6c9f6d9,2025-07-07_21h40.11.233,group3.4_multiperson,2023.2.2,Win32,30.12048193,686c2ebf0248f13bef9af11f,686c84c1c371d07582eccb9e,,,,,,,,,,,,,,,,,,,,,,,,,,,,,377.3533,1,audio/Narrative8Situation5.wav,379.3591,,379.3592,387.6157,"[[99.2,4544],[98.8,4573],[98.3,4608],[98,4639],[97.9,4670],[97.9,4706],[97.7,4736],[97.7,4769],[97.7,4809],[97.7,4834],[97.7,4872],[97.7,4904],[97.7,4938],[97.7,4972],[97.7,4999],[97.7,5034],[97.7,5066],[97.7,5106],[97.7,5134],[97.7,5171],[97.7,5204],[97.7,5240],[97.7,5266],[97.7,5304],[97.7,5340],[97.7,5373],[97.7,5405],[97.7,5432],[97.7,5466],[97.7,5501],[97.7,5540],[97.7,5566],[97.7,5600],[97.7,5638],[97.7,5666],[97.7,5703],[97.7,5738],[97.7,5774],[97.7,5799],[97.7,5839],[97.7,5866],[97.7,5908],[97.7,5939],[97.7,5968],[97.7,6005],[97.7,6038],[97.7,6066],[97.7,6106],[97.7,6138],[97.7,6169],[97.7,6205],[97.7,6240],[97.7,6266],[97.7,6308],[97.7,6340],[97.7,6374],[97.7,6400],[97.7,6434],[97.7,6466],[97.7,6500],[97.7,6538],[97.7,6573],[97.7,6599],[97.7,6636],[97.7,6673],[97.7,6708],[97.7,6741],[97.7,6774],[97.7,6799],[97.7,6832],[97.7,6867],[97.7,6899],[97.7,6940],[97.7,6973],[97.7,6999],[97.7,7032],[97.7,7072],[97.7,7106],[97.7,7138],[97.7,7170],[97.7,7199],[97.7,7232],[97.7,7268],[97.7,7300],[97.7,7341],[97.7,7367],[97.7,7399],[97.7,7433],[97.7,7473],[97.7,7500],[97.7,7533],[97.7,7575],[97.7,7599],[97.7,7639],[97.7,7676],[97.7,7700],[97.7,7739],[97.7,7769],[97.7,7799],[97.7,7843],[97.7,7875],[97.7,7899],[97.7,7942],[97.7,7967],[97.7,8000],[97.7,8041],[97.7,8067],[97.7,8105],[97.7,8139],[97.7,8167],[97.7,8208],[97.7,8233]]",387.6159,390.6489,98.11994515,1.2643,"[{""rating"":98.11994514734484,""responseTime"":1.2642999999523}]",space,2.4788,,390.6491,Partially,50,390.6561,,,[],,0,5,5,5,1,audio/Narrative7Situation5.wav,audio/Narrative8Situation5.wav,audio/Narrative5Situation5.wav,audio/Narrative6Situation5.wav,5,2,5,2,,,,,,,,,,,,,,,,,,,,,,,,,,,,,,,,,,,,,,,
,,,,,5f0a7dec44c42c19a6c9f6d9,2025-07-07_21h40.11.233,group3.4_multiperson,2023.2.2,Win32,30.12048193,686c2ebf0248f13bef9af11f,686c84c1c371d07582eccb9e,,,,,,,,,,,,,,,,,,,,,,,,,,,,,390.6566,1,audio/Narrative8Situation6.wav,392.6652,,392.6653,399.1648,[],399.1649,404.249,80.94510071,3.7824,"[{""rating"":80.94510071152452,""responseTime"":3.7823999999761213}]",space,4.544,,404.2491,Definitely yes,100,404.253,,,[],,0,6,6,6,1,audio/Narrative7Situation6.wav,audio/Narrative8Situation6.wav,audio/Narrative5Situation6.wav,audio/Narrative6Situation6.wav,3,2,3,2,,,,,,,,,,,,,,,,,,,,,,,,,,,,,,,,,,,,,,,
,,,,,5f0a7dec44c42c19a6c9f6d9,2025-07-07_21h40.11.233,group3.4_multiperson,2023.2.2,Win32,30.12048193,686c2ebf0248f13bef9af11f,686c84c1c371d07582eccb9e,,,,,,,,,,,,,,,,,,,,,,,,,,,,,404.2534,1,audio/Narrative8Situation7.wav,407.2589,,407.2591,419.3648,"[[79.7,808],[79.5,842],[79.2,875],[79.2,905],[79.2,937],[79.2,968],[79.2,1005],[79.1,1037],[79.1,1066],[79.1,1105],[79,1136],[78.8,1172],[78.6,1206],[78.6,1238],[78.4,1267],[78.2,1306],[77.6,1339],[77,1373],[76.6,1406],[76.1,1439],[75.6,1473],[75,1506],[73.6,1539],[72,1573],[71.4,1607],[71,1639],[70,1673],[68.4,1706],[64.7,1739],[61.2,1772],[59.6,1807],[58.9,1839],[58.5,1873],[58.2,1906],[57.7,1939],[56.6,1972],[55.5,2009],[54.8,2040],[54.2,2074],[53.7,2108],[53.3,2140],[52.9,2172],[51.8,2208],[51.5,2241],[51.3,2272],[50.9,2306],[50.7,2339],[50.7,2366],[50.7,2399],[50.7,2433],[50.7,2466],[50.7,2499],[50.7,2536],[50.7,2574],[50.7,2600],[50.7,2639],[50.7,2669],[50.7,2704],[50.7,2735],[50.7,2766],[50.7,2801],[50.7,2832],[50.7,2866],[50.7,2906],[50.7,2938],[50.7,2966],[50.7,3000],[50.7,3039],[50.7,3068],[50.7,3104],[50.7,3139],[50.7,3173],[50.7,3199],[50.7,3233],[50.7,3273],[50.6,3307],[50.8,3336],[51,3373],[51.2,3402],[52.1,3442],[53.1,3474],[54.8,3507],[56.1,3540],[58.5,3574],[61.4,3606],[62.8,3639],[63.4,3674],[64.4,3709],[65.8,3743],[66.8,3773],[67.9,3806],[69,3840],[70.3,3875],[71.1,3908],[71.8,3940],[72.4,3974],[72.9,4010],[73.7,4039],[74.5,4073],[75.5,4107],[76.6,4139],[77.2,4174],[77.7,4206],[78.4,4244],[79,4273],[79.6,4310],[80.9,4341],[81.6,4373],[82,4408],[82.9,4441],[83.4,4474],[83.6,4500],[83.8,4539],[84.1,4573],[84.4,4606],[84.5,4639],[84.8,4674],[85.5,4707],[86.2,4740],[87.6,4774],[89.5,4808],[90.7,4840],[91.6,4874],[92.1,4908],[92.6,4940],[93,4978],[93.8,5007],[94.3,5039],[95.4,5073],[96,5106],[96.5,5139],[96.9,5176],[96.9,5200],[97.1,5239],[97.5,5275],[97.7,5307],[97.8,5339],[97.8,5373],[97.8,5405],[97.8,5436],[97.8,5466],[97.8,5505],[97.8,5540],[97.8,5566],[97.8,5600],[97.8,5635],[97.8,5669],[97.8,5699],[97.8,5742],[97.8,5766],[97.8,5806],[97.8,5840],[97.8,5866],[97.8,5900],[97.8,5934],[97.8,5973],[97.8,6008],[97.8,6034],[97.8,6072],[97.8,6105],[97.8,6135],[97.8,6172],[97.8,6199],[97.8,6240],[97.8,6266],[97.8,6299],[97.8,6333],[97.8,6366],[97.8,6399],[97.8,6440],[97.8,6474],[97.8,6500],[97.8,6535],[97.8,6566],[97.8,6599],[97.8,6633],[97.8,6672],[97.8,6706],[97.8,6735],[97.8,6774],[97.8,6800],[97.8,6841],[97.8,6873],[97.8,6899],[97.8,6940],[97.8,6974],[97.8,6999],[97.8,7039],[97.8,7066],[97.8,7104],[97.8,7132],[97.8,7166],[97.8,7199],[97.8,7233],[97.8,7270],[97.8,7305],[97.8,7339],[97.8,7366],[97.8,7405],[97.8,7438],[97.8,7466],[97.8,7505],[97.8,7535],[97.8,7566],[97.8,7605],[97.8,7638],[97.8,7666],[97.8,7705],[97.8,7736],[97.8,7766],[97.8,7799],[97.8,7839],[97.8,7873],[97.8,7904],[97.8,7940],[97.8,7972],[97.8,8006],[97.8,8038],[97.8,8068],[97.8,8106],[97.8,8132],[97.8,8166],[97.8,8205],[97.8,8241],[97.8,8266],[97.8,8299],[97.8,8332],[97.8,8368],[97.8,8408],[97.8,8440],[97.8,8468],[97.8,8508],[97.8,8539],[97.8,8575],[97.8,8599],[97.8,8639],[97.8,8674],[97.8,8702],[97.8,8732],[97.8,8766],[97.8,8800],[97.8,8834],[97.8,8874],[97.8,8900],[97.8,8938],[97.8,8974],[97.8,9001],[97.8,9038],[97.8,9074],[97.8,9099],[97.8,9138],[97.8,9168],[97.8,9200],[98.2,9243],[98.2,9266],[98.7,9311],[99,9342],[99.5,9375],[99.8,9406],[100,9444],[100,9474],[100,9505],[100,9535],[100,9575],[100,9600],[100,9633],[100,9666],[100,9705],[100,9738],[100,9769],[100,9799],[100,9834],[100,9875],[100,9900],[100,9935],[100,9974],[100,10004],[100,10033],[100,10074],[100,10099],[100,10135],[100,10175],[100,10199],[100,10238],[100,10276],[100,10299],[100,10333],[100,10368],[100,10399],[100,10432],[100,10476],[100,10499],[100,10535],[100,10576],[100,10605],[100,10641],[100,10674],[100,10709],[100,10733],[100,10767],[100,10806],[100,10841],[100,10867],[100,10908],[100,10940],[100,10967],[100,11006],[100,11041],[100,11066],[100,11099],[100,11132],[100,11167],[100,11208],[100,11240],[100,11273],[100,11301],[100,11333],[100,11375],[100,11399],[100,11440],[100,11475],[100,11501],[100,11538],[100,11567],[100,11599],[100,11634],[100,11673],[100,11701],[100,11741],[100,11775],[100,11799],[100,11832],[100,11874],[100,11900],[100,11933],[100,11966],[100,12005],[100,12038],[100,12075],[100,12105]]",419.3649,422.0327,99.05675075,1.1684,"[{""rating"":99.05675075039807,""responseTime"":1.1683999999761454}]",space,2.1301,,422.0328,Partially,50,422.0391,,,[],,0,7,7,7,1,audio/Narrative7Situation7.wav,audio/Narrative8Situation7.wav,audio/Narrative5Situation7.wav,audio/Narrative6Situation7.wav,5,3,4,5,,,,,,,,,,,,,,,,,,,,,,,,,,,,,,,,,,,,,,,
,,,,,5f0a7dec44c42c19a6c9f6d9,2025-07-07_21h40.11.233,group3.4_multiperson,2023.2.2,Win32,30.12048193,686c2ebf0248f13bef9af11f,686c84c1c371d07582eccb9e,,,,,,,,,,,,,,,,,,,,,,,,,,,,,422.0394,1,audio/Narrative8Situation8.wav,425.0465,,425.0469,437.9088,"[[98.9,5179],[98.9,5211],[98.9,5245],[98.9,5278],[98.9,5311],[98.9,5344],[98.9,5378],[98.9,5411],[98.9,5444],[98.9,5478],[98.9,5511],[98.6,5545],[98.3,5578],[98,5611],[97.2,5646],[95.9,5679],[92.9,5711],[90.6,5745],[88,5778],[84.5,5811],[82.6,5845],[81.5,5878],[81.1,5912],[80.6,5945],[80.1,5978],[79.4,6012],[78.7,6045],[78.1,6078],[77.2,6112],[76.9,6145],[76.6,6178],[76.4,6211],[76.1,6246],[76,6280],[75.9,6311],[75.8,6345],[75.8,6378],[75.8,6411],[75.8,6444],[75.8,6478],[75.8,6511],[75.8,6544],[75.8,6578],[75.8,6611],[75.8,6644],[75.8,6678],[75.8,6711],[75.8,6745],[75.8,6778],[75.8,6811],[75.8,6845],[75.8,6878],[75.8,6911],[75.8,6945],[75.8,6978],[75.8,7011],[75.8,7044],[75.8,7078],[75.8,7111],[75.8,7145],[76.1,7178],[76.8,7212],[79.3,7245],[84.6,7280],[88.5,7312],[89.6,7345],[90.5,7379],[91.4,7412],[92.1,7445],[92.6,7478],[93.2,7512],[94,7545],[94.6,7578],[95.2,7611],[95.5,7645],[95.6,7678],[96,7712],[96.4,7745],[96.5,7778],[96.5,7811],[96.8,7845],[96.9,7878],[97.2,7912],[97.3,7945],[97.7,7978],[97.8,8011],[97.8,8045],[97.8,8078],[97.8,8111],[97.8,8145],[97.8,8178],[97.8,8211],[97.8,8245],[97.8,8278],[97.8,8311],[97.8,8345],[97.8,8378],[97.8,8411],[97.8,8444],[97.8,8478],[97.8,8511],[97.8,8545],[97.8,8578],[97.8,8611],[97.8,8645],[97.8,8678],[97.8,8711],[97.8,8744],[97.8,8778],[97.8,8811],[97.8,8845],[97.8,8878],[97.8,8911],[97.8,8944],[97.8,8978],[97.8,9011],[97.8,9044],[97.8,9078],[97.8,9111],[97.8,9144],[97.8,9178],[97.8,9211],[97.8,9245],[97.8,9278],[97.8,9311],[97.8,9344],[97.8,9378],[97.8,9411],[97.8,9445],[97.8,9478],[97.8,9511],[97.8,9544],[97.8,9578],[98.2,9612],[98.6,9645],[99,9678],[99.1,9712],[99.3,9744],[99.4,9778],[99.5,9811],[99.8,9845],[99.8,9878],[99.8,9911],[99.8,9944],[99.8,9978],[99.8,10011],[99.8,10044],[99.8,10078],[99.8,10111],[99.8,10145],[99.8,10178],[99.8,10211],[99.8,10245],[99.8,10278],[99.8,10311],[99.8,10345],[99.8,10378],[99.8,10411],[99.8,10445],[99.8,10478],[99.8,10511],[99.8,10545],[99.8,10578],[99.8,10611],[99.8,10645],[99.8,10678],[99.8,10711],[99.8,10745],[99.8,10778],[99.8,10811],[99.8,10844],[99.8,10878],[99.8,10911],[99.8,10944],[99.8,10978],[99.8,11011],[99.8,11045],[99.8,11078],[99.8,11111],[99.8,11144],[99.8,11178],[99.8,11211],[99.8,11245],[99.8,11278],[99.8,11311],[99.8,11345],[99.8,11378],[99.8,11411],[99.8,11444],[99.8,11478],[99.8,11511],[99.8,11544],[99.8,11578],[99.8,11611],[99.8,11645],[99.8,11678],[99.8,11711],[99.8,11745],[99.8,11778],[99.8,11812],[99.8,11844],[99.8,11878],[99.8,11911],[99.8,11946],[99.8,11979],[99.8,12011],[99.8,12045],[99.8,12078],[99.8,12112],[99.8,12145],[99.8,12179],[99.8,12212],[99.8,12245],[99.8,12279],[99.8,12311],[99.8,12344],[99.8,12378],[99.8,12411],[99.8,12445],[99.8,12478],[99.8,12512],[99.8,12545],[99.8,12578],[99.8,12611],[99.8,12645],[99.8,12678],[99.8,12713],[99.8,12745],[99.8,12778],[99.8,12811],[99.8,12844]]",437.9092,440.1469,98.84857173,1.3918,"[{""rating"":98.84857172749734,""responseTime"":1.3917999999523545}]",space,1.7013,,440.1471,Partially,50,440.1531,,,[],,0,8,8,8,1,audio/Narrative7Situation8.wav,audio/Narrative8Situation8.wav,audio/Narrative5Situation8.wav,audio/Narrative6Situation8.wav,2,3,3,5,,,,,,,,,,,,,,,,,,,,,,,,,,,,,,,,,,,,,,,
,,,,,5f0a7dec44c42c19a6c9f6d9,2025-07-07_21h40.11.233,group3.4_multiperson,2023.2.2,Win32,30.12048193,686c2ebf0248f13bef9af11f,686c84c1c371d07582eccb9e,,,,,,,,,,,,,,,,,,,,,,,,,,,,,440.1538,1,audio/Narrative8Situation9.wav,443.165,,443.1651,454.5147,"[[80.9,534],[81.2,569],[81.6,601],[82,633],[82.3,669],[82.5,701],[82.5,727],[82.5,760],[82.5,794],[82.5,828],[82.5,867],[82.5,896],[82.5,934],[82.5,967],[82.7,995],[82.9,1033],[83.1,1067],[83.1,1095],[83.1,1134],[83.1,1160],[83.1,1199],[83.1,1227],[83.1,1268],[83.1,1299],[83.1,1333],[83.1,1360],[83.1,1401],[83.1,1434],[83.1,1460],[83.1,1499],[83.1,1533],[83.1,1565],[83.1,1593],[83.1,1632],[83.1,1667],[83.1,1700],[83.1,1727],[83.1,1766],[83.1,1793],[83.1,1833],[83.1,1860],[83.1,1894],[83.1,1929],[83.1,1960],[83.1,1999],[83.1,2033],[83.1,2068],[83.1,2102],[83.1,2127],[83.1,2168],[83.1,2193],[83.1,2233],[83.1,2268],[83.1,2294],[83.1,2333],[83.1,2369],[83.1,2393],[83.1,2434],[83.1,2469],[83.1,2497],[83.1,2534],[83.1,2570],[83.1,2598],[83.1,2632],[83.1,2660],[83.1,2694],[83.1,2727],[83.1,2760],[83.1,2793],[83.1,2832],[83.1,2866],[83.1,2903],[83.1,2927],[83.1,2962],[83.1,3002],[83.1,3027],[83.1,3067],[83.1,3103],[83.1,3126],[83.1,3167],[83.1,3193],[83.1,3227],[83.1,3266],[83.1,3301],[83.1,3326],[83.1,3363],[83.1,3400],[83.1,3433],[83.1,3462],[83.1,3500],[83.1,3527],[83.1,3560],[83.1,3598],[83.1,3629],[83.1,3663],[83.1,3701],[83.1,3735],[83.1,3766],[83.1,3793],[83.1,3833],[83.1,3866],[83.1,3901],[83.1,3928],[83.1,3967],[83.1,4000],[83.1,4033],[83.1,4060],[83.1,4095],[83.1,4133],[83.1,4166],[83.1,4193],[83.1,4234],[83.1,4262],[83.1,4299],[83.1,4333],[83.1,4366],[83.1,4399],[83.1,4426],[83.1,4463],[83.1,4494],[83.1,4526],[83.1,4560],[83.1,4599],[83.1,4633],[83.1,4660],[83.1,4694],[83.1,4733],[83.1,4766],[83.4,4801],[83.6,4835],[83.8,4866],[84.1,4902],[84.4,4935],[84.9,4970],[85.8,5001],[86.4,5029],[87.8,5067],[88.6,5101],[89,5135],[89.6,5167],[90.7,5201],[91.6,5233],[92.8,5268],[93.3,5302],[93.8,5334],[94.5,5370],[95.4,5402],[96,5435],[96.4,5468],[96.8,5512],[97.2,5534],[98,5569],[98.2,5600],[98.5,5633],[98.7,5668],[98.7,5693],[98.9,5734],[99.1,5769],[99.5,5802],[99.7,5837],[99.9,5868],[99.9,5900],[99.9,5927],[99.9,5968],[99.9,5993],[99.9,6028],[99.9,6068],[99.9,6098],[99.9,6135],[99.9,6166],[99.9,6200],[99.9,6235],[99.9,6262],[99.9,6301],[99.9,6336],[99.9,6360],[99.9,6393],[99.9,6428],[99.9,6470],[99.9,6497],[99.9,6533],[99.9,6560],[99.9,6599],[99.9,6637],[99.9,6660],[99.9,6700],[99.9,6736],[99.9,6760],[99.9,6800],[99.9,6836],[99.9,6860],[99.9,6901],[99.9,6935],[99.9,6960],[99.9,6996],[99.9,7034],[99.9,7069],[99.9,7103],[99.9,7135],[99.9,7166],[99.9,7199],[99.9,7227],[99.9,7260],[99.9,7299],[99.9,7334],[99.9,7368],[99.9,7395],[99.9,7428],[99.9,7460],[99.9,7502],[99.9,7530],[99.9,7565],[99.9,7593],[99.9,7632],[99.9,7667],[99.9,7693],[99.9,7726],[99.9,7765],[99.9,7793],[99.9,7829],[99.9,7865],[99.9,7900],[99.9,7933],[99.9,7966],[99.9,7994],[99.9,8028],[99.9,8066],[99.9,8102],[99.9,8128],[99.9,8162],[99.9,8193],[99.9,8233],[99.9,8268],[99.9,8294],[99.9,8336],[99.9,8368],[99.9,8393],[99.9,8434],[99.9,8460],[99.9,8495],[99.9,8528],[99.9,8568],[99.9,8600],[99.9,8628],[99.9,8666],[99.9,8694],[99.9,8726],[99.9,8762],[99.9,8798],[99.9,8833],[99.9,8868],[99.9,8898],[99.9,8933],[99.9,8967],[99.9,8999],[99.9,9034],[99.9,9067],[99.9,9095],[99.9,9126],[99.9,9160],[99.9,9200],[99.9,9232],[99.9,9267],[99.9,9294],[99.9,9326],[99.9,9360],[99.9,9399],[99.9,9432],[99.9,9460],[99.9,9500],[99.9,9534],[99.9,9560],[99.9,9593],[99.9,9632],[99.9,9667],[99.9,9700],[99.9,9732],[99.9,9763],[99.9,9800],[99.9,9827],[99.9,9869],[99.9,9895],[99.9,9934],[99.9,9969],[99.9,9994],[99.9,10028],[99.9,10067],[99.9,10093],[99.9,10135],[99.9,10168],[99.9,10194],[99.9,10227],[99.9,10270],[99.9,10295],[99.9,10331],[99.9,10363],[99.9,10403],[99.9,10428],[99.9,10460],[99.9,10499],[99.9,10532],[99.9,10565],[99.9,10599],[99.9,10634],[99.9,10662],[99.9,10693],[99.9,10727],[99.9,10760],[99.9,10798],[99.9,10826],[99.9,10860],[99.9,10899],[99.9,10933],[99.9,10960],[99.9,10998],[99.9,11033],[99.9,11060],[99.9,11100],[99.9,11133],[99.9,11160],[99.9,11200],[99.9,11229],[99.9,11265],[99.9,11300],[99.9,11326]]",454.5149,456.0484,99.4731088,0.7837,"[{""rating"":99.47310879619948,""responseTime"":0.7836999999284444}]",space,0.9872,,456.0484,Not at all,0,456.0513,,,[],,0,9,9,9,1,audio/Narrative7Situation9.wav,audio/Narrative8Situation9.wav,audio/Narrative5Situation9.wav,audio/Narrative6Situation9.wav,2,3,3,4,,,,,,,,,,,,,,,,,,,,,,,,,,,,,,,,,,,,,,,
,,,,,5f0a7dec44c42c19a6c9f6d9,2025-07-07_21h40.11.233,group3.4_multiperson,2023.2.2,Win32,30.12048193,686c2ebf0248f13bef9af11f,686c84c1c371d07582eccb9e,,,,,,,,,,,,,,,,,,,,,,,,,,,,,456.0515,1,audio/Narrative7Situation1.wav,458.0589,,458.0591,513.9591,"[[99.8,3305],[99.8,3339],[99.8,3366],[99.8,3405],[99.8,3439],[99.8,3471],[99.8,3507],[99.8,3540],[99.8,3566],[99.8,3606],[99.7,3640],[99.7,3666],[99.7,3706],[99.7,3739],[99.7,3773],[99.7,3799],[99.7,3838],[99.7,3873],[99.7,3907],[99.7,3933],[99.7,3973],[99.7,4000],[99.7,4033],[99.7,4066],[99.7,4108],[99.7,4140],[99.7,4173],[99.7,4206],[99.7,4239],[99.7,4266],[99.7,4299],[99.7,4339],[99.7,4366],[99.7,4404],[99.7,4433],[99.7,4474],[99.7,4501],[99.7,4533],[99.7,4566],[99.7,4603],[99.7,4640],[99.7,4668],[99.7,4699],[99.7,4732],[99.7,4766],[99.7,4807],[99.7,4839],[99.7,4874],[99.7,4899],[99.7,4940],[99.7,4971],[99.7,5006],[99.7,5033],[99.7,5066],[99.7,5100],[99.7,5133],[99.7,5166],[99.7,5206],[99.7,5240],[99.7,5270],[99.7,5306],[99.7,5340],[99.7,5373],[99.7,5407],[99.6,5434],[99.6,5471],[99.6,5504],[99.6,5533],[99.6,5574],[99.6,5599],[99.6,5634],[99.6,5667],[99.6,5701],[99.6,5738],[99.6,5766],[99.6,5800],[99.6,5841],[99.6,5875],[99.3,5909],[98.8,5941],[98,5975],[96.6,6006],[96.1,6043],[95.5,6079],[94.5,6105],[93.3,6144],[92.2,6173],[90.9,6211],[89.5,6240],[86.8,6272],[84.4,6306],[83.2,6341],[82.1,6373],[81.5,6408],[81.3,6439],[81.3,6472],[81.3,6499],[81.3,6537],[81.3,6573],[81.3,6600],[81.3,6636],[81.3,6673],[81.3,6706],[81.3,6732],[81.3,6773],[81.3,6806],[81.3,6832],[81.3,6870],[81.3,6899],[81.3,6938],[81.3,6971],[81.3,7005],[81.3,7035],[81.3,7072],[81.3,7099],[81.3,7139],[81.3,7166],[81.3,7199],[81.3,7240],[81.3,7272],[81.3,7299],[81.3,7341],[81.3,7366],[81.3,7408],[81.3,7433],[81.3,7472],[81.3,7499],[81.3,7533],[81.3,7566],[81.3,7607],[81.3,7640],[81.1,7677],[81.6,7709],[82.1,7740],[83.2,7774],[84.8,7805],[86.3,7839],[88.4,7873],[90.4,7908],[91.9,7941],[93.1,7975],[93.7,8006],[94.2,8040],[94.6,8074],[95.2,8106],[95.4,8140],[95.6,8170],[96.3,8208],[96.5,8240],[96.9,8272],[97.5,8307],[98.1,8341],[98.2,8374],[98.6,8408],[98.6,8435],[99,8473],[99.1,8505],[99.3,8539],[99.5,8573],[99.7,8606],[99.8,8639],[99.9,8673],[100,8706],[100,8733],[100,8773],[100,8805],[100,8835],[100,8871],[100,8906],[100,8935],[100,8966],[100,9007],[100,9033],[100,9066],[100,9106],[100,9132],[100,9173],[100,9208],[100,9234],[100,9272],[100,9299],[100,9338],[100,9373],[100,9399],[100,9433],[100,9466],[100,9503],[100,9533],[100,9572],[100,9600],[100,9640],[100,9666],[100,9699],[100,9740],[100,9774],[100,9799],[100,9832],[100,9873],[100,9902],[100,9939],[100,9973],[100,10001],[100,10038],[100,10073],[100,10099],[100,10134],[100,10174],[100,10199],[100,10235],[100,10274],[100,10306],[100,10342],[100,10366],[100,10400],[100,10439],[100,10466],[100,10508],[100,10533],[100,10566],[100,10599],[100,10640],[100,10668],[100,10706],[100,10732],[100,10768],[100,10805],[100,10840],[100,10874],[100,10908],[100,10939],[100,10975],[100,11000],[100,11033],[100,11075],[100,11107],[100,11132],[100,11166],[100,11201],[100,11239],[100,11272],[100,11299],[100,11332],[100,11373],[100,11400],[100,11433],[100,11466],[100,11501],[100,11539],[100,11566],[100,11599],[100,11638],[100,11673],[100,11699],[100,11740],[100,11766],[100,11799],[100,11838],[100,11866],[100,11899],[100,11939],[100,11974],[100,12000],[100,12039],[100,12066],[100,12099],[100,12133],[100,12170],[100,12206],[100,12239],[100,12271],[100,12306],[100,12337],[100,12371],[100,12400],[100,12436],[100,12469],[100,12500],[100,12532],[100,12566],[100,12608],[100,12640],[100,12666],[100,12699],[100,12733],[100,12773],[100,12803],[100,12833],[100,12872],[100,12902],[100,12933],[100,12967],[100,13000],[100,13034],[100,13074],[100,13103],[100,13133],[100,13166],[100,13205],[100,13234],[100,13272],[100,13299],[100,13333],[100,13366],[100,13399],[100,13439],[100,13466],[100,13508],[100,13534],[100,13566],[100,13599],[100,13637],[100,13674],[100,13699],[100,13739],[100,13773],[100,13799],[100,13833],[100,13866],[100,13907],[100,13940],[100,13966],[100,14000],[100,14038],[100,14074],[100,14099],[100,14140],[100,14173],[100,14208],[100,14240],[100,14272],[100,14308],[100,14336],[100,14370],[100,14403],[100,14441],[100,14468],[100,14509],[100,14533],[100,14569],[100,14607],[100,14642],[100,14666],[100,14708],[100,14733],[100,14771],[100,14803],[100,14833],[100,14873],[100,14909],[100,14932],[100,14975],[100,14999],[100,15040],[100,15076],[100,15099],[100,15138],[100,15172],[100,15200],[100,15234],[100,15272],[100,15299],[100,15338],[100,15366],[100,15408],[100,15442],[100,15466],[100,15500],[100,15540],[100,15566],[100,15605],[100,15632],[100,15666],[100,15705],[100,15733],[100,15769],[100,15806],[100,15832],[100,15866],[100,15899],[100,15939],[100,15966],[100,16002],[100,16040],[100,16073],[100,16105],[100,16142],[100,16166],[100,16206],[100,16239],[100,16268],[100,16305],[100,16339],[100,16366],[100,16405],[100,16439],[100,16466],[100,16500],[100,16538],[100,16573],[100,16608],[100,16633],[100,16673],[100,16707],[100,16733],[100,16776],[100,16800],[100,16832],[100,16872],[100,16899],[100,16933],[100,16966],[100,16999],[100,17033],[100,17071],[100,17105],[100,17133],[100,17166],[100,17200],[100,17239],[100,17269],[100,17300],[100,17340],[100,17366],[100,17399],[100,17440],[100,17474],[100,17500],[100,17533],[100,17572],[100,17599],[100,17641],[100,17666],[100,17708],[100,17743],[100,17767],[100,17799],[100,17832],[100,17866],[100,17906],[100,17938],[100,17975],[100,18009],[100,18037],[100,18073],[100,18108],[100,18133],[100,18167],[100,18206],[100,18235],[100,18274],[100,18302],[100,18333],[100,18366],[100,18406],[100,18442],[100,18468],[100,18506],[100,18542],[100,18570],[100,18601],[100,18635],[100,18666],[100,18704],[100,18740],[100,18776],[100,18800],[100,18832],[100,18872],[100,18905],[100,18938],[100,18966],[100,18999],[100,19034],[100,19073],[100,19099],[100,19138],[100,19168],[100,19203],[100,19240],[100,19272],[100,19299],[100,19337],[100,19366],[100,19400],[100,19439],[100,19474],[100,19502],[100,19540],[100,19570],[100,19600],[100,19641],[100,19666],[100,19700],[100,19739],[100,19773],[100,19800],[100,19840],[100,19871],[100,19906],[100,19941],[100,19972],[100,19999],[100,20034],[100,20073],[100,20103],[100,20141],[100,20174],[100,20208],[100,20233],[100,20267],[100,20307],[100,20339],[100,20366],[100,20404],[100,20433],[100,20473],[100,20500],[100,20533],[100,20574],[100,20601],[100,20639],[100,20666],[100,20706],[100,20738],[100,20771],[100,20805],[100,20838],[100,20866],[100,20899],[100,20932],[100,20972],[100,21006],[100,21032],[100,21072],[100,21099],[100,21132],[100,21173],[100,21207],[100,21233],[100,21266],[100,21299],[100,21333],[100,21372],[100,21402],[100,21432],[100,21471],[100,21505],[100,21533],[100,21566],[100,21599],[100,21637],[100,21671],[100,21699],[100,21738],[100,21769],[100,21799],[100,21839],[100,21872],[100,21899],[100,21932],[100,21966],[100,22005],[100,22038],[100,22072],[100,22102],[100,22138],[100,22172],[100,22199],[100,22239],[100,22272],[100,22299],[100,22333],[100,22365],[100,22399],[100,22432],[100,22466],[100,22500],[100,22539],[100,22566],[100,22607],[100,22638],[100,22666],[100,22707],[100,22733],[100,22766],[100,22799],[100,22833],[100,22866],[100,22899],[100,22932],[100,22972],[100,23005],[100,23035],[100,23072],[100,23104],[100,23138],[100,23172],[100,23199],[100,23235],[100,23271],[100,23306],[100,23333],[100,23371],[100,23404],[100,23438],[100,23471],[100,23499],[100,23538],[100,23571],[100,23599],[100,23638],[100,23671],[100,23699],[100,23738],[100,23766],[100,23799],[100,23838],[100,23868],[100,23899],[100,23932],[100,23966],[100,23999],[100,24037],[100,24073],[100,24099],[100,24135],[100,24166],[100,24205],[100,24238],[100,24266],[100,24305],[100,24338],[100,24366],[100,24405],[100,24435],[100,24472],[100,24499],[100,24535],[100,24571],[100,24605],[100,24632],[100,24666],[100,24705],[100,24733],[100,24771],[100,24806],[100,24836],[100,24866],[100,24905],[100,24939],[100,24971],[100,25006],[100,25033],[100,25066],[100,25105],[100,25132],[100,25168],[100,25207],[100,25241],[100,25266],[100,25307],[100,25338],[100,25371],[100,25405],[100,25439],[100,25472],[100,25506],[100,25533],[100,25572],[100,25605],[100,25638],[100,25669],[100,25699],[100,25739],[100,25772],[100,25799],[100,25833],[100,25866],[100,25899],[100,25939],[100,25971],[100,26005],[100,26039],[100,26073],[100,26104],[100,26138],[100,26172],[100,26203],[100,26238],[100,26272],[100,26299],[100,26338],[100,26372],[100,26399],[100,26432],[100,26466],[100,26504],[100,26536],[100,26572],[100,26605],[100,26638],[100,26666],[100,26705],[100,26733],[100,26766],[100,26806],[100,26840],[100,26866],[100,26899],[100,26932],[100,26966],[100,26999],[100,27032],[100,27066],[100,27099],[100,27132],[100,27166],[100,27199],[100,27240],[100,27274],[100,27305],[100,27340],[100,27372],[100,27405],[100,27432],[100,27471],[100,27506],[100,27533],[100,27571],[100,27606],[100,27633],[100,27672],[100,27707],[100,27732],[100,27771],[100,27799],[100,27832],[100,27871],[100,27904],[100,27932],[100,27966],[100,27999],[100,28039],[100,28071],[100,28105],[100,28138],[100,28171],[100,28199],[100,28238],[100,28266],[100,28299],[100,28338],[100,28371],[100,28404],[100,28437],[100,28471],[100,28499],[100,28533],[100,28566],[100,28599],[100,28638],[100,28668],[100,28699],[100,28740],[100,28775],[100,28799],[100,28838],[100,28873],[100,28900],[100,28934],[100,28974],[100,29003],[100,29034],[100,29066],[100,29105],[100,29139],[100,29166],[100,29199],[100,29241],[100,29267],[100,29305],[100,29338],[100,29366],[100,29406],[100,29440],[100,29466],[100,29500],[100,29539],[100,29572],[100,29599],[100,29633],[100,29666],[100,29699],[100,29733],[100,29767],[100,29800],[100,29833],[100,29866],[100,29899],[100,29932],[100,29971],[100,29999],[100,30033],[100,30074],[100,30107],[100,30139],[100,30172],[100,30200],[100,30239],[100,30271],[100,30306],[100,30332],[100,30374],[100,30399],[100,30433],[100,30470],[100,30508],[100,30534],[100,30573],[100,30608],[100,30639],[100,30675],[100,30699],[100,30734],[100,30770],[100,30803],[100,30841],[100,30869],[100,30904],[100,30933],[100,30966],[100,31001],[100,31042],[100,31066],[100,31102],[100,31142],[100,31169],[100,31199],[100,31240],[100,31268],[100,31308],[100,31333],[100,31368],[100,31400],[100,31433],[100,31468],[100,31499],[100,31544],[100,31569],[100,31609],[100,31634],[100,31673],[100,31708],[100,31735],[100,31769],[100,31806],[100,31841],[100,31866],[100,31905],[100,31938],[100,31973],[100,32004],[100,32041],[100,32075],[100,32108],[100,32139],[100,32166],[100,32205],[100,32233],[100,32271],[100,32306],[100,32338],[100,32372],[100,32406],[100,32439],[100,32472],[100,32506],[100,32533],[100,32571],[100,32603],[100,32633],[100,32674],[100,32699],[100,32740],[100,32772],[100,32804],[100,32839],[100,32868],[100,32906],[100,32940],[100,32971],[100,33002],[100,33041],[100,33066],[100,33100],[100,33139],[100,33173],[100,33205],[100,33237],[100,33266],[100,33306],[100,33333],[100,33366],[100,33406],[100,33441],[100,33466],[100,33506],[100,33540],[100,33567],[100,33599],[100,33641],[100,33672],[100,33699],[100,33734],[100,33774],[100,33799],[100,33833],[100,33874],[100,33908],[100,33938],[100,33966],[100,33999],[100,34041],[100,34068],[100,34102],[100,34135],[100,34175],[100,34199],[100,34235],[100,34274],[100,34299],[100,34339],[100,34375],[100,34408],[100,34438],[100,34466],[100,34501],[100,34533],[100,34574],[100,34599],[100,34635],[100,34670],[100,34706],[100,34733],[100,34768],[100,34800],[100,34837],[100,34866],[100,34901],[100,34940],[100,34966],[100,35005],[100,35033],[100,35071],[100,35105],[100,35140],[100,35173],[100,35206],[100,35240],[100,35273],[100,35299],[100,35335],[100,35366],[100,35407],[100,35434],[100,35466],[100,35502],[100,35534],[100,35569],[100,35608],[100,35635],[100,35674],[100,35700],[100,35733],[100,35766],[100,35808],[100,35834],[100,35866],[100,35906],[100,35933],[100,35973],[100,36000],[100,36035],[100,36075],[100,36099],[100,36142],[100,36173],[100,36205],[100,36239],[100,36273],[100,36299],[100,36333],[100,36372],[100,36409],[100,36433],[100,36469],[100,36501],[100,36539],[100,36566],[100,36608],[100,36642],[100,36673],[100,36700],[100,36735],[100,36774],[100,36799],[100,36839],[100,36871],[100,36899],[100,36938],[100,36973],[100,36999],[100,37039],[100,37066],[100,37100],[100,37132],[100,37173],[100,37204],[100,37238],[100,37272],[100,37303],[100,37333],[100,37371],[100,37399],[100,37439],[100,37472],[100,37506],[100,37539],[100,37571],[100,37599],[100,37639],[100,37666],[100,37699],[100,37734],[100,37766],[100,37805],[100,37838],[100,37866],[100,37905],[100,37938],[100,37966],[100,38002],[100,38035],[100,38069],[100,38105],[100,38141],[100,38166],[100,38204],[100,38238],[100,38266],[100,38304],[100,38339],[100,38366],[100,38405],[100,38440],[100,38467],[100,38499],[100,38536],[100,38566],[100,38599],[100,38636],[100,38666],[100,38707],[100,38736],[100,38766],[100,38806],[100,38840],[100,38866],[100,38906],[100,38939],[100,38972],[100,39000],[100,39039],[100,39066],[100,39103],[100,39133],[100,39166],[100,39201],[100,39240],[100,39271],[100,39302],[100,39333],[100,39374],[100,39399],[100,39438],[100,39475],[100,39502],[100,39538],[100,39573],[100,39599],[100,39639],[100,39674],[100,39705],[100,39733],[100,39772],[100,39800],[100,39841],[100,39875],[100,39899],[100,39933],[100,39966],[100,40000],[100,40036],[100,40066],[100,40107],[100,40142],[100,40169],[100,40206],[100,40234],[100,40274],[100,40308],[100,40333],[100,40368],[100,40402],[100,40438],[100,40471],[100,40499],[100,40541],[100,40575],[100,40600],[100,40635],[100,40670],[100,40708],[100,40735],[100,40766],[100,40807],[100,40832],[100,40866],[100,40899],[100,40939],[100,40969],[100,41002],[100,41039],[100,41066],[100,41107],[100,41140],[100,41166],[100,41199],[100,41238],[100,41272],[100,41301],[100,41332],[100,41366],[100,41406],[100,41439],[100,41466],[100,41504],[100,41539],[100,41566],[100,41607],[100,41639],[100,41666],[100,41705],[100,41733],[100,41769],[100,41799],[100,41833],[100,41873],[100,41899],[100,41934],[100,41966],[100,41999],[100,42038],[100,42066],[100,42100],[100,42139],[100,42170],[100,42205],[100,42235],[100,42272],[100,42299],[100,42332],[100,42366],[100,42406],[100,42434],[100,42470],[100,42502],[100,42533],[100,42573],[100,42607],[100,42634],[100,42672],[100,42708],[100,42741],[100,42772],[100,42803],[100,42832],[100,42866],[100,42907],[100,42933],[100,42972],[100,42999],[100,43033],[100,43075],[100,43102],[100,43136],[100,43170],[100,43206],[100,43233],[100,43266],[100,43299],[100,43332],[100,43369],[100,43399],[100,43432],[100,43466],[100,43499],[100,43532],[100,43566],[100,43600],[100,43634],[100,43666],[100,43708],[100,43740],[100,43766],[100,43801],[100,43833],[100,43866],[100,43899],[100,43933],[100,43966],[100,43999],[100,44033],[100,44066],[100,44099],[100,44142],[100,44180],[100,44202],[100,44244],[100,44276],[100,44305],[100,44338],[100,44366],[100,44408],[100,44433],[100,44475],[100,44502],[100,44541],[100,44566],[100,44599],[100,44641],[100,44666],[100,44699],[100,44739],[100,44766],[100,44799],[100,44841],[100,44866],[100,44899],[100,44939],[100,44977],[100,45001],[100,45036],[100,45066],[100,45102],[100,45133],[100,45171],[100,45199],[100,45234],[100,45272],[100,45305],[100,45333],[100,45372],[100,45400],[100,45433],[100,45466],[100,45499],[100,45538],[100,45568],[100,45604],[100,45639],[100,45673],[100,45706],[100,45733],[100,45773],[100,45799],[100,45832],[100,45866],[100,45900],[100,45933],[100,45968],[100,46006],[100,46032],[100,46073],[100,46107],[100,46132],[100,46171],[100,46207],[100,46239],[100,46272],[100,46305],[100,46332],[100,46371],[100,46406],[100,46438],[100,46472],[100,46499],[100,46535],[100,46569],[100,46599],[100,46638],[100,46671],[100,46699],[100,46738],[100,46771],[100,46799],[100,46838],[100,46872],[100,46899],[100,46938],[100,46972],[100,47004],[99.6,47038],[98.9,47072],[98.3,47107],[96.8,47140],[96.1,47173],[95.1,47206],[94.1,47240],[93.7,47274],[93.7,47299],[93.7,47338],[93.7,47372],[93.7,47399],[93.7,47432],[94.1,47473],[95.2,47506],[96.2,47539],[97.2,47573],[98.7,47606],[99.4,47639],[99.5,47672],[99.5,47705],[99.5,47738],[99.5,47766],[99.5,47799],[99.5,47832],[99.5,47866],[100,47905],[100,47940],[100,47973],[100,48006],[100,48039],[100,48072],[100,48106],[100,48140],[100,48166],[100,48204],[100,48240],[100,48271],[100,48304],[100,48336],[100,48366],[100,48404],[100,48433],[100,48466],[100,48505],[100,48539],[100,48572],[100,48606],[100,48639],[100,48673],[100,48705],[100,48732],[100,48771],[100,48804],[100,48835],[100,48869],[100,48905],[100,48938],[100,48966],[100,49005],[100,49038],[100,49066],[100,49106],[100,49135],[100,49174],[100,49199],[100,49238],[100,49275],[100,49305],[100,49339],[100,49371],[100,49407],[100,49433],[100,49469],[100,49499],[100,49532],[100,49571],[100,49605],[100,49637],[100,49669],[100,49705],[100,49733],[100,49772],[100,49799],[100,49833],[100,49868],[100,49899],[100,49933],[100,49971],[100,50005],[100,50033],[100,50071],[100,50106],[100,50132],[100,50170],[100,50199],[100,50240],[100,50272],[100,50307],[100,50333],[100,50374],[100,50406],[100,50439],[100,50469],[100,50504],[100,50540],[100,50566],[100,50599],[100,50632],[100,50666],[100,50699],[100,50740],[100,50774],[100,50805],[100,50839],[100,50866],[100,50905],[100,50940],[100,50973],[100,51005],[100,51041],[100,51066],[100,51105],[100,51133],[100,51166],[100,51199],[100,51234],[100,51269],[100,51302],[100,51332],[100,51366],[100,51407],[100,51440],[100,51466],[100,51506],[100,51538],[100,51566],[100,51608],[100,51639],[100,51666],[100,51702],[100,51733],[100,51774],[100,51802],[100,51838],[100,51866],[100,51908],[100,51932],[100,51974],[100,52004],[100,52038],[100,52066],[100,52099],[100,52132],[100,52171],[100,52199],[100,52238],[100,52272],[100,52299],[100,52338],[100,52369],[100,52399],[100,52438],[100,52468],[100,52499],[100,52539],[100,52566],[100,52599],[100,52633],[100,52668],[100,52705],[100,52739],[100,52772],[100,52799],[100,52833],[100,52866],[100,52899],[100,52940],[100,52973],[100,52999],[100,53040],[100,53069],[100,53106],[100,53139],[100,53173],[100,53199],[100,53233],[100,53269],[100,53299],[100,53340],[100,53375],[100,53399],[100,53433],[100,53466],[100,53504],[100,53533],[100,53568],[100,53605],[100,53643],[100,53666],[100,53706],[100,53739],[100,53774],[100,53806],[100,53838],[100,53872],[100,53906],[100,53933],[100,53966],[100,54006],[100,54033],[100,54074],[100,54099],[100,54140],[100,54173],[100,54204],[100,54236],[100,54274],[100,54300],[100,54339],[100,54374],[100,54399],[100,54441],[100,54466],[100,54509],[100,54535],[100,54575],[100,54600],[100,54640],[100,54674],[100,54699],[100,54733],[100,54772],[100,54799],[100,54833],[100,54871],[100,54906],[100,54940],[100,54974],[100,54999],[100,55038],[100,55074],[100,55099],[100,55133],[100,55166],[100,55206],[100,55240],[100,55274],[100,55305],[100,55338],[100,55366],[100,55406],[100,55439],[100,55468],[100,55507],[100,55533],[100,55567],[100,55605],[100,55640],[100,55671],[100,55705],[100,55740],[100,55766],[100,55801],[100,55835],[100,55874],[100,55899]]",513.9598,522.9173,99.88946684,2.8585,"[{""rating"":99.8894668420009,""responseTime"":2.858500000000049}]",space,8.4212,,522.9174,Partially,50,522.9201,,,[],,0,10,10,10,1,audio/Narrative8Situation1.wav,audio/Narrative7Situation1.wav,audio/Narrative6Situation1.wav,audio/Narrative5Situation1.wav,5,2,2,5,,,,,,,,,,,,,,,,,,,,,,,,,,,,,,,,,,,,,,,
,,,,,5f0a7dec44c42c19a6c9f6d9,2025-07-07_21h40.11.233,group3.4_multiperson,2023.2.2,Win32,30.12048193,686c2ebf0248f13bef9af11f,686c84c1c371d07582eccb9e,,,,,,,,,,,,,,,,,,,,,,,,,,,,,522.9204,1,audio/Narrative7Situation2.wav,525.9313,,525.9314,533.4333,"[[96.8,1903],[94.4,1934],[92,1967],[88.6,2001],[83.9,2036],[78.6,2067],[73.7,2104],[67.9,2137],[66.1,2167],[63.8,2202],[61.1,2235],[58.7,2267],[57.3,2301],[56.3,2336],[55.6,2368],[55.1,2401],[54.8,2435],[54.1,2469],[53.3,2501],[52.9,2536],[52.1,2569],[51.6,2603],[51.2,2636],[51.2,2661],[51.2,2693],[51.2,2727],[51.2,2766],[51.2,2800],[51.2,2827],[51.2,2860],[51.2,2899],[51.2,2927],[51.2,2960],[51.2,2994],[51.2,3027],[51.2,3068],[51.2,3100],[51.2,3127],[51.2,3168],[51.2,3194],[51.2,3227],[51.2,3266],[51.2,3298],[51.2,3333],[51.2,3361],[51.2,3396],[51.2,3427],[51.2,3460],[51.2,3499],[51.2,3533],[51.2,3566],[51.2,3599],[51.2,3633],[51.2,3666],[51.2,3693],[51.2,3734],[51.2,3760],[51.2,3794],[51.2,3833],[51.2,3868],[51.2,3893],[51.2,3927],[51.2,3960],[51.2,4001],[51.2,4032],[51.2,4060],[51.2,4093],[51.2,4134],[51.2,4161],[51.2,4194],[51.2,4236],[51.2,4261],[51.2,4299],[51.2,4332],[51.2,4366],[51.2,4398],[51.2,4430],[51.2,4460],[51.2,4494],[51.2,4527],[51.1,4561],[51.1,4594],[51.1,4627],[51.1,4660],[51.1,4694],[51.1,4727],[51.1,4763],[51.3,4800],[51.6,4834],[51.8,4867],[52.1,4901],[52.3,4928],[52.7,4967],[53,5001],[53.1,5033],[53.5,5067],[53.9,5100],[54.4,5136],[55.2,5166],[55.6,5200],[56,5233],[56.2,5267],[56.6,5301],[57.1,5334],[57.7,5367],[58.1,5402],[58.4,5434],[59.1,5469],[59.8,5501],[60.4,5533],[60.8,5567],[60.9,5600],[61,5633],[61,5660],[61.5,5700],[62.1,5735],[62.4,5767],[62.7,5800],[62.8,5834],[63.4,5869],[63.6,5900],[63.7,5935],[63.7,5967],[63.7,5994],[63.7,6034],[63.7,6061],[63.7,6093],[63.7,6135],[63.7,6160],[63.7,6196],[63.7,6227],[63.7,6260],[63.7,6293],[63.7,6334],[63.7,6369],[63.7,6397],[63.7,6434],[63.7,6460],[63.7,6501],[63.7,6535],[63.7,6560],[63.7,6594],[63.7,6634],[63.7,6663],[63.7,6701],[63.7,6734],[63.7,6760],[63.7,6799],[63.7,6835],[63.7,6868],[63.7,6897],[63.7,6927],[63.7,6960],[63.7,7000],[63.7,7033],[63.7,7060],[64.9,7101],[65.7,7134],[66.4,7167],[67.4,7201],[69.2,7235],[73.2,7267],[76.5,7300],[77.8,7334],[78.9,7367],[80.1,7401],[80.5,7433],[80.7,7467],[81.1,7501]]",533.4333,537.0332,92.91543956,2.2315,"[{""rating"":92.9154395562224,""responseTime"":2.2314999999999827}]",space,3.0444,,537.0333,Definitely yes,100,537.037,,,[],,0,11,11,11,1,audio/Narrative8Situation2.wav,audio/Narrative7Situation2.wav,audio/Narrative6Situation2.wav,audio/Narrative5Situation2.wav,3,3,3,3,,,,,,,,,,,,,,,,,,,,,,,,,,,,,,,,,,,,,,,
,,,,,5f0a7dec44c42c19a6c9f6d9,2025-07-07_21h40.11.233,group3.4_multiperson,2023.2.2,Win32,30.12048193,686c2ebf0248f13bef9af11f,686c84c1c371d07582eccb9e,,,,,,,,,,,,,,,,,,,,,,,,,,,,,537.0374,1,audio/Narrative7Situation3.wav,545.0496,,545.0501,554.3087,"[[92.8,2342],[91.5,2375],[90.9,2410],[88.7,2442],[87.7,2476],[86.9,2509],[86.1,2542],[84.5,2576],[83.5,2609],[82.6,2643],[82.1,2675],[81.7,2709],[80.6,2743],[78.8,2777],[77.8,2809],[77.1,2843],[76.9,2875],[76.9,2908],[76.9,2941],[76.9,2975],[76.9,3008],[76.9,3043],[76.9,3075],[76.9,3108],[76.9,3141],[76.9,3174],[76.9,3208],[76.9,3241],[76.9,3275],[76.9,3308],[76.9,3341],[76.9,3375],[76.9,3408],[76.9,3442],[76.9,3475],[76.9,3508],[76.9,3542],[76.9,3575],[76.5,3608],[76.4,3643],[76.1,3677],[75.8,3710],[75.7,3742],[75.6,3776],[75.4,3808],[75.3,3842],[75.3,3875],[75.2,3908],[75.1,3942],[75,3975],[74.8,4008],[74.8,4041],[74.7,4075],[74.7,4108],[74.7,4141],[74.7,4175],[74.7,4208],[74.7,4243],[74.7,4274],[74.7,4308],[74.7,4341],[74.7,4375],[74.7,4408],[74.7,4442],[74.7,4475],[74.7,4508],[74.7,4542],[74.7,4575],[74.7,4608],[74.7,4642],[74.7,4675],[74.7,4708],[74.7,4741],[74.7,4775],[74.7,4808],[74.7,4842],[74.7,4875],[74.7,4908],[74.7,4941],[74.7,4975],[74.7,5008],[74.7,5042],[74.7,5075],[74.7,5108],[74.7,5142],[74.7,5175],[74.7,5208],[74.7,5243],[74.7,5275],[74.7,5308],[74.7,5341],[74.7,5375],[74.7,5408],[74.7,5442],[74.7,5477],[74.7,5509],[74.7,5542],[74.7,5575],[74.7,5608],[74.7,5642],[74.8,5675],[75.1,5709],[75.4,5743],[75.5,5775],[75.7,5808],[76.1,5842],[76.9,5875],[77.9,5909],[78.3,5943],[78.5,5975],[78.7,6009],[79.4,6043],[80.3,6075],[81.3,6110],[82.1,6142],[83.1,6175],[84.1,6209],[86.1,6242],[88.8,6277],[90.7,6308],[91.5,6342],[92,6375],[93,6408],[94,6443],[94.3,6476],[94.6,6508],[94.8,6544],[95.2,6577],[95.2,6608],[95.4,6642],[95.8,6676],[96.2,6710],[96.7,6743],[96.9,6778],[97.2,6809],[97.3,6842],[97.3,6875],[97.7,6908],[97.8,6941],[98.1,6975],[98.1,7008],[98.1,7041],[98.2,7076],[98.4,7108],[98.6,7141],[98.6,7175],[98.7,7209],[98.9,7242],[99,7276],[99.1,7308],[99.3,7341],[99.3,7375],[99.3,7408],[99.3,7441],[99.3,7475],[99.3,7508],[99.3,7542],[99.3,7575],[99.3,7608],[99.3,7641],[99.3,7675],[99.3,7708],[99.3,7742],[99.3,7775],[99.3,7808],[99.3,7841],[99.3,7875],[99.3,7908],[99.3,7941],[99.3,7975],[99.3,8009],[99.3,8042],[99.3,8075],[99.4,8109],[99.4,8141],[99.4,8177],[99.4,8209],[99.4,8243],[99.4,8275],[99.4,8308],[99.4,8341],[99.4,8375],[99.4,8409],[99.4,8442],[99.4,8475],[99.4,8509],[99.4,8542],[99.4,8575],[99.4,8608],[99.4,8642],[99.4,8675],[99.4,8708],[99.4,8742],[99.4,8775],[99.4,8809],[99.4,8841],[99.4,8875],[99.4,8908],[99.4,8941],[99.4,8975],[99.4,9008],[99.4,9041],[99.4,9075],[99.4,9108],[99.4,9141],[99.4,9175],[99.4,9208],[99.4,9241]]",554.3091,557.2252,99.36901928,1.8556,"[{""rating"":99.36901928474913,""responseTime"":1.8556000000238555}]",space,2.3659,,557.2253,Partially,50,557.2297,,,[],,0,12,12,12,1,audio/Narrative8Situation3.wav,audio/Narrative7Situation3.wav,audio/Narrative6Situation3.wav,audio/Narrative5Situation3.wav,4,8,5,3,,,,,,,,,,,,,,,,,,,,,,,,,,,,,,,,,,,,,,,
,,,,,5f0a7dec44c42c19a6c9f6d9,2025-07-07_21h40.11.233,group3.4_multiperson,2023.2.2,Win32,30.12048193,686c2ebf0248f13bef9af11f,686c84c1c371d07582eccb9e,,,,,,,,,,,,,,,,,,,,,,,,,,,,,557.2299,1,audio/Narrative7Situation4.wav,560.2422,,560.2422,571.9598,"[[98.6,2100],[97.5,2133],[96.3,2167],[94.4,2200],[93,2234],[91,2266],[89.3,2301],[87.1,2335],[85.2,2368],[83.1,2400],[80.6,2434],[78.7,2466],[77.2,2501],[75.8,2534],[74.5,2567],[73.5,2600],[72.8,2633],[72,2666],[71.2,2700],[70.3,2734],[69.4,2767],[68.7,2801],[67.4,2834],[65.7,2867],[64.4,2900],[63.3,2933],[62.4,2966],[61.4,3002],[60.4,3038],[59.4,3067],[58.9,3100],[57.8,3134],[57.3,3168],[56.7,3200],[56.3,3235],[55.9,3268],[55.5,3301],[54.9,3334],[54.5,3367],[54.1,3400],[53.8,3435],[53.7,3467],[53.4,3500],[53.1,3534],[52.9,3567],[52.7,3601],[52.5,3634],[52,3666],[51.9,3701],[51.9,3733],[51.9,3766],[51.9,3799],[51.9,3833],[51.9,3866],[51.9,3900],[51.7,3933],[51.6,3967],[51.5,4000],[51.5,4034],[51.5,4066],[51.5,4100],[51.5,4133],[51.5,4166],[51.5,4200],[51.5,4232],[51.5,4266],[51.5,4299],[51.5,4333],[51.5,4367],[51.5,4400],[51.5,4433],[51.5,4466],[51.5,4499],[51.5,4533],[51.5,4566],[51.5,4599],[51.5,4633],[51.5,4666],[51.5,4700],[51.5,4733],[51.5,4766],[51.5,4800],[51.5,4833],[51.5,4867],[51.5,4901],[51.5,4933],[51.5,4966],[51.4,4999],[51.4,5033],[51.4,5066],[51.4,5100],[51.4,5133],[51.4,5166],[51.8,5200],[52.1,5234],[52.5,5267],[52.8,5301],[53.4,5333],[53.8,5368],[54.2,5403],[54.8,5434],[55.3,5467],[55.8,5501],[56.1,5533],[56.2,5566],[56.6,5601],[57.1,5633],[57.6,5666],[58,5700],[58.7,5734],[59.2,5766],[59.8,5801],[60.9,5834],[61.3,5868],[61.8,5901],[62.7,5933],[63.2,5967],[63.7,6001],[64.4,6033],[64.9,6067],[65.2,6100],[65.7,6133],[65.7,6166],[65.7,6199],[65.7,6233],[65.7,6266],[65.7,6299],[65.7,6333],[65.7,6366],[65.8,6401],[66.5,6434],[67.4,6468],[69.5,6502],[72.9,6533],[74.7,6566],[75.7,6599],[76.3,6633],[76.8,6666],[77,6700],[77,6732],[77,6766],[77,6799],[77,6833],[77,6866],[77,6899],[77,6933],[77,6967],[77,6999],[77,7033],[77,7067],[77,7099],[77,7133],[77,7166],[77,7201],[77,7233],[77,7267],[76.9,7299],[76.6,7334],[76.4,7366],[75.9,7400],[74.5,7433],[72.7,7467],[71.1,7500],[68.2,7533],[65.2,7567],[63.2,7600],[60.7,7633],[59,7666],[58.3,7700],[57.5,7733],[56.1,7766],[55.2,7801],[54.3,7834],[53.8,7867],[53.3,7901],[53.1,7933],[52.9,7966],[52.6,8000],[52.4,8034],[52.1,8067],[51.6,8100],[51.3,8133],[51.1,8166],[50.8,8200],[50.7,8233],[50.4,8266],[50.2,8300],[49.9,8335],[49.3,8367],[48.9,8401],[47.6,8434],[46.1,8467],[44.7,8501],[43.3,8533],[42.2,8566],[41.4,8600],[40.7,8633],[40.2,8666],[39,8700],[38,8735],[37.1,8768],[36.2,8801],[35.1,8834],[34.2,8867],[33.2,8899],[32.3,8933],[31.8,8968],[31.4,9000],[30.8,9034],[30.3,9066],[29.9,9100],[29.7,9134],[29.2,9167],[29,9201],[28.8,9234],[28.4,9267],[28,9302],[27.7,9335],[27.1,9367],[26.2,9401],[25.8,9434],[25.4,9466],[25.1,9500],[24.9,9536],[24.9,9567],[24.6,9600],[24.5,9633],[24.5,9666],[24.5,9700],[24.2,9733],[24.2,9766],[24.2,9801],[24.2,9833],[24.2,9866],[24.2,9900],[24.2,9932],[24.2,9966],[24.2,10000],[24.2,10035],[24.2,10067],[24.2,10100],[24.2,10133],[24.2,10166],[24.2,10200],[24.2,10233],[24.2,10266],[24.2,10300],[24.2,10333],[24,10367],[23.2,10400],[22.2,10433],[20.7,10467],[19.2,10500],[18.7,10536],[18.3,10567],[18.3,10600],[18.3,10633],[18.1,10666],[18.1,10699],[18.1,10734],[18.1,10766],[18,10799],[18,10833],[17.9,10868],[17.9,10901],[17.9,10932],[17.9,10966],[17.9,11000],[17.9,11033],[17.9,11066],[17.9,11100],[17.9,11133],[17.9,11166],[17.9,11200],[17.9,11233],[17.9,11266],[17.9,11300],[17.9,11333],[17.9,11367],[17.9,11400],[17.9,11433],[17.9,11466],[17.9,11499],[17.9,11533],[17.9,11567],[17.9,11599],[17.9,11632],[17.9,11666],[17.9,11699]]",571.9602,576.192,6.624908112,1.7234,"[{""rating"":6.624908111551764,""responseTime"":1.723399999976209}]",space,3.686,,576.1921,Definitely yes,100,576.1958,,,[],,0,13,13,13,1,audio/Narrative8Situation4.wav,audio/Narrative7Situation4.wav,audio/Narrative6Situation4.wav,audio/Narrative5Situation4.wav,3,3,2,1,,,,,,,,,,,,,,,,,,,,,,,,,,,,,,,,,,,,,,,
,,,,,5f0a7dec44c42c19a6c9f6d9,2025-07-07_21h40.11.233,group3.4_multiperson,2023.2.2,Win32,30.12048193,686c2ebf0248f13bef9af11f,686c84c1c371d07582eccb9e,,,,,,,,,,,,,,,,,,,,,,,,,,,,,576.1961,1,audio/Narrative7Situation5.wav,581.2086,,581.2087,589.7094,"[[6.9,2633],[7.3,2668],[7.5,2700],[7.8,2733],[8.3,2766],[9.6,2800],[14,2834],[17.3,2866],[17.3,2899],[17.6,2933],[18.2,2967],[19,3000],[19.9,3033],[20.8,3067],[21.5,3100],[22.2,3133],[23.2,3166],[25.6,3200],[28.2,3233],[30.3,3266],[31.4,3300],[34.8,3333],[40.6,3366],[44.3,3400],[46.4,3433],[47,3467],[48.2,3500],[51.2,3533],[54.6,3566],[56,3600],[56.2,3633],[56.6,3666],[57.1,3700],[57.8,3733],[58,3767],[58.3,3800],[58.7,3833],[59.4,3867],[60.2,3900],[60.5,3933],[60.9,3966],[61,4000],[61,4033],[61.1,4067],[61.1,4100],[61.3,4133],[61.9,4166],[62.8,4199],[63.5,4233],[64.1,4266],[64.5,4299],[65,4333],[65.4,4366],[65.4,4399],[65.4,4433],[65.4,4466],[65.4,4499],[65.7,4533],[65.9,4567],[66.2,4600],[66.2,4633],[66.5,4666],[67,4700],[67.8,4733],[68.1,4766],[68.1,4799],[68.1,4833],[68.5,4866],[68.7,4900],[68.8,4933],[68.8,4966],[69.1,4999],[69.6,5033],[70.1,5066],[70.3,5100],[70.3,5133],[70.7,5167],[71.1,5200],[71.8,5233],[72.4,5267],[72.5,5299],[72.5,5333],[72.5,5366],[72.5,5399],[72.5,5433],[72.5,5466],[72.5,5499],[72.5,5533],[72.5,5566],[72.5,5599],[72.5,5633],[72.5,5666],[72.5,5699],[72.5,5732],[72.5,5766],[72.5,5799],[72.5,5833],[72.5,5866],[72.5,5899],[72.5,5933],[72.5,5966],[72.5,5999],[72.5,6033],[72.5,6066],[72.5,6101],[72.5,6133],[72.5,6167],[72.5,6199],[72.8,6233],[73.3,6266],[73.7,6300],[73.7,6333],[73.9,6366],[74.1,6400],[74.4,6433],[74.4,6466],[74.4,6500],[74.5,6533],[74.5,6566],[74.6,6600],[74.6,6633],[74.6,6666],[74.6,6699],[74.6,6733],[74.6,6766],[74.6,6799],[74.6,6833],[74.6,6866],[74.6,6899],[74.6,6933],[74.6,6966],[74.6,6999],[74.6,7033],[74.6,7066],[74.6,7100],[74.6,7133],[74.6,7166],[74.6,7199],[74.6,7233],[74.6,7266],[74.6,7299],[74.6,7333],[74.6,7366],[74.6,7399],[74.6,7433],[74.6,7466],[74.6,7499],[74.6,7533],[74.6,7566],[74.6,7600],[74.6,7633],[74.6,7666],[74.6,7700],[74.6,7733],[74.6,7766],[74.6,7800],[74.6,7833],[74.6,7868],[74.6,7900],[74.6,7933],[74.6,7967],[74.6,8000],[74.6,8034],[74.6,8066],[74.6,8100],[74.6,8133],[74.6,8167],[74.6,8200],[74.6,8233],[74.6,8266],[74.6,8300],[74.6,8333],[74.6,8367],[74.6,8399],[74.6,8433],[74.6,8466],[74.6,8500]]",589.7099,592.993,50.44676129,2.7744,"[{""rating"":50.44676128680277,""responseTime"":2.77439999997614}]",space,2.7369,,592.9931,Not at all,0,592.9976,,,[],,0,14,14,14,1,audio/Narrative8Situation5.wav,audio/Narrative7Situation5.wav,audio/Narrative6Situation5.wav,audio/Narrative5Situation5.wav,2,5,2,5,,,,,,,,,,,,,,,,,,,,,,,,,,,,,,,,,,,,,,,
,,,,,5f0a7dec44c42c19a6c9f6d9,2025-07-07_21h40.11.233,group3.4_multiperson,2023.2.2,Win32,30.12048193,686c2ebf0248f13bef9af11f,686c84c1c371d07582eccb9e,,,,,,,,,,,,,,,,,,,,,,,,,,,,,592.9979,1,audio/Narrative7Situation6.wav,596.0088,,596.0089,605.9921,"[[999,1],[999,32],[999,66],[999,99],[999,133],[999,166],[999,199],[999,233],[999,266],[999,299],[999,333],[999,366],[999,399],[999,432],[999,466],[999,499],[999,533],[999,566],[999,599],[999,633],[999,666],[999,699],[999,733],[999,766],[999,800],[999,833],[999,866],[999,899],[999,933],[999,966],[999,999],[999,1033],[999,1066],[999,1101],[999,1133],[999,1166],[999,1199],[999,1233],[999,1266],[999,1299],[999,1333],[999,1366],[999,1399],[999,1433],[999,1466],[999,1499],[999,1533],[999,1566],[999,1599],[999,1633],[999,1666],[999,1699],[999,1733],[999,1766],[999,1799],[999,1833],[59.4,1866],[59.8,1900],[59.9,1933],[60.4,1967],[60.9,2000],[61.4,2034],[61.5,2066],[61.5,2099],[61.5,2133],[61.9,2168],[62.6,2200],[63.4,2234],[63.9,2268],[64.5,2302],[65.4,2334],[67,2366],[68.4,2399],[69.2,2433],[70.3,2467],[72.1,2500],[75.1,2534],[78.5,2566],[79.6,2601],[79.7,2633],[80.2,2667],[81.2,2700],[81.9,2734],[82.8,2768],[83.6,2801],[84.5,2834],[88.4,2867],[92.6,2900],[94.3,2933],[94.9,2966],[95.2,2999],[95.8,3033],[96.2,3067],[96.4,3100],[96.5,3133],[96.7,3166],[96.9,3201],[97.3,3235],[98,3268],[98,3300],[98,3333],[98,3366],[98,3400],[98,3433],[98,3466],[98.1,3500],[98.1,3533],[98.2,3566],[98.4,3600],[98.4,3632],[98.4,3666],[98.4,3700],[98.4,3733],[98.4,3766],[98.4,3799],[98.4,3833],[98.4,3867],[98.4,3899],[98.4,3933],[98.4,3966],[98.4,4000],[98.4,4034],[98.4,4066],[98.4,4100],[98.4,4133],[98.4,4166],[98.4,4200],[98.4,4232],[98.4,4266],[98.4,4299],[98.4,4333],[98.4,4366],[98.4,4399],[98.4,4433],[98.4,4466],[98.4,4500],[98.4,4533],[98.4,4566],[98.4,4599],[98.4,4632],[98.4,4666],[98.4,4699],[98.4,4733],[98.4,4766],[98.4,4800],[98.4,4833],[98.4,4866],[98.4,4900],[98.4,4934],[98.4,4966],[98.4,4999],[98.4,5033],[98.4,5066],[98.4,5100],[98.4,5133],[98.4,5166],[98.4,5199],[98.4,5233],[98.4,5267],[98.4,5299],[98.4,5333],[98.4,5367],[98.4,5401],[98.4,5433],[98.4,5466],[98.4,5499],[98.4,5533],[98.4,5566],[98.4,5599],[98.4,5633],[98.4,5666],[98.4,5699],[98.4,5733],[98.4,5766],[98.4,5800],[98.4,5833],[98.4,5866],[98.4,5900],[98.4,5933],[98.4,5966],[98.4,5999],[98.4,6034],[98.4,6066],[98.4,6099],[98.4,6134],[98.4,6166],[98.4,6199],[98.4,6233],[98.4,6266],[98.4,6300],[98.4,6334],[98.4,6366],[98.4,6400],[98.4,6433],[98.4,6466],[98.4,6499],[98.4,6534],[98.4,6566],[98.4,6599],[98.4,6634],[98.4,6666],[98.4,6699],[98.4,6733],[98.4,6766],[98.4,6801],[98.4,6834],[98.4,6866],[98.4,6899],[98.4,6933],[98.4,6966],[98.4,7000],[98.4,7033],[98.4,7066],[98.4,7100],[98.4,7133],[98.4,7166],[98.4,7200],[98.4,7233],[98.4,7268],[98.4,7300],[98.4,7333],[98.4,7367],[98.4,7399],[98.4,7433],[98.4,7466],[98.4,7499],[98.4,7533],[98.4,7566],[98.4,7599],[98.4,7633],[98.4,7666],[98.4,7700],[98.4,7733],[98.4,7766],[98.4,7800],[98.4,7833],[98.4,7866],[98.4,7900],[98.4,7933],[98.4,7966],[98.4,7999],[98.4,8033],[98.4,8066],[98.4,8100],[98.4,8133],[98.4,8166],[98.4,8199],[98.4,8233],[98.4,8267],[98.4,8300],[98.4,8333],[98.4,8366],[98.4,8399],[98.4,8432],[98.4,8466],[98.4,8499],[98.4,8533],[98.4,8566],[98.4,8599],[98.4,8633],[98.4,8666],[98.4,8699],[98.4,8733],[98.4,8766],[98.4,8800],[98.4,8833],[98.4,8866],[98.4,8899],[98.4,8932],[98.4,8966],[98.4,8999],[98.4,9033],[98.4,9066],[98.4,9099],[98.4,9133],[98.4,9166],[98.4,9200],[98.4,9233],[98.4,9266],[98.4,9299],[98.4,9333],[98.4,9366],[98.4,9399],[98.4,9433],[98.4,9466],[98.4,9499],[98.4,9534],[98.4,9566],[98.4,9600],[98.4,9634],[98.4,9666],[98.4,9699],[98.4,9733],[98.4,9766],[98.4,9799],[98.4,9833],[98.4,9866],[98.4,9899],[98.4,9932],[98.4,9966]]",605.9924,610.2586,100,3.4613,"[{""rating"":96.66267697773755,""responseTime"":2.5634999999999764},{""rating"":100,""responseTime"":3.4612999999523026}]",space,3.7193,,610.2586,Partially,50,610.2628,,,[],,0,15,15,15,1,audio/Narrative8Situation6.wav,audio/Narrative7Situation6.wav,audio/Narrative6Situation6.wav,audio/Narrative5Situation6.wav,2,3,2,3,,,,,,,,,,,,,,,,,,,,,,,,,,,,,,,,,,,,,,,
,,,,,5f0a7dec44c42c19a6c9f6d9,2025-07-07_21h40.11.233,group3.4_multiperson,2023.2.2,Win32,30.12048193,686c2ebf0248f13bef9af11f,686c84c1c371d07582eccb9e,,,,,,,,,,,,,,,,,,,,,,,,,,,,,610.2631,1,audio/Narrative7Situation7.wav,615.2757,,615.2762,632.4587,"[[999,2],[999,48],[999,83],[999,116],[999,149],[999,182],[999,215],[999,249],[999,282],[999,315],[999,349],[999,383],[999,416],[999,449],[999,483],[999,516],[999,549],[999,582],[999,615],[999,649],[999,682],[999,715],[999,749],[999,782],[999,817],[999,849],[999,882],[999,916],[999,949],[999,982],[999,1015],[999,1049],[999,1084],[999,1117],[999,1149],[999,1182],[999,1216],[999,1250],[999,1283],[999,1316],[999,1349],[999,1382],[999,1416],[999,1449],[999,1482],[999,1516],[999,1549],[74.5,1582],[74.8,1615],[75.5,1649],[76.1,1682],[76.7,1716],[77,1749],[77.7,1782],[78.3,1816],[78.5,1848],[78.9,1882],[79.4,1916],[80.6,1949],[82.6,1982],[87.3,2016],[92.1,2050],[93.8,2082],[94.1,2115],[94.1,2149],[94.1,2182],[94.1,2216],[94.1,2249],[94.1,2282],[94.1,2315],[94.1,2349],[94.1,2382],[94.1,2416],[94.1,2448],[94.1,2482],[94.1,2515],[94.1,2548],[94.1,2582],[94.1,2615],[94.1,2649],[94.1,2682],[94.1,2715],[94.1,2749],[94.1,2782],[94.1,2815],[94.1,2848],[94.1,2882],[94.1,2915],[94.1,2948],[94.1,2982],[94.1,3015],[94.1,3048],[94.1,3082],[94.1,3115],[94.1,3148],[94.1,3182],[94.1,3215],[94.1,3249],[94.1,3282],[94.1,3316],[94.1,3349],[94.1,3382],[94.1,3415],[94.1,3448],[94.1,3482],[94.1,3515],[94.1,3549],[94.1,3582],[94.1,3615],[94.1,3649],[94.1,3682],[94.1,3715],[94.1,3748],[94.1,3783],[94.1,3816],[94.1,3848],[94.1,3882],[94.1,3915],[94.1,3948],[94.1,3982],[94.1,4015],[94.1,4048],[94.1,4082],[94.1,4115],[94.1,4149],[94.3,4182],[94.3,4215],[94.6,4250],[94.9,4283],[95.4,4316],[95.8,4349],[96,4382],[96,4415],[96,4449],[96.2,4483],[96.5,4515],[96.8,4549],[96.8,4582],[96.8,4615],[96.8,4649],[96.8,4682],[96.8,4715],[96.8,4749],[96.8,4782],[96.8,4815],[96.8,4849],[96.8,4882],[96.8,4915],[96.8,4949],[96.8,4982],[96.8,5015],[96.8,5049],[96.8,5082],[96.8,5116],[96.8,5150],[96.8,5182],[96.8,5215],[96.8,5248],[96.8,5282],[96.8,5316],[96.8,5349],[96.8,5382],[96.8,5415],[96.8,5449],[96.8,5482],[96.8,5516],[96.8,5549],[96.8,5582],[96.8,5615],[96.8,5649],[96.8,5682],[96.8,5716],[96.8,5750],[96.8,5783],[96.8,5816],[96.8,5849],[96.8,5882],[96.8,5916],[96.8,5949],[96.8,5984],[96.8,6015],[96.8,6048],[96.8,6082],[96.8,6116],[96.8,6149],[96.8,6182],[96.8,6216],[96.8,6249],[96.8,6282],[96.8,6316],[96.8,6349],[96.8,6384],[96.8,6416],[96.8,6449],[96.8,6482],[96.8,6515],[96.8,6549],[96.8,6582],[96.8,6615],[96.8,6649],[96.8,6683],[96.8,6715],[96.8,6749],[96.8,6782],[96.8,6817],[96.8,6849],[96.8,6883],[96.8,6916],[96.8,6949],[96.8,6982],[96.8,7015],[96.8,7049],[96.8,7082],[96.8,7115],[96.8,7149],[96.8,7182],[96.8,7215],[96.8,7249],[96.8,7282],[96.8,7315],[96.8,7349],[96.8,7382],[96.8,7415],[96.8,7449],[96.8,7482],[96.8,7516],[96.8,7549],[96.8,7582],[96.8,7616],[96.8,7649],[96.8,7682],[96.8,7716],[96.8,7749],[96.8,7782],[96.8,7816],[96.8,7849],[96.8,7882],[96.8,7916],[96.8,7949],[96.8,7982],[96.8,8016],[96.8,8049],[96.8,8082],[96.8,8116],[96.8,8149],[96.8,8182],[96.8,8216],[96.8,8249],[96.8,8282],[96.8,8315],[96.8,8349],[96.8,8382],[96.8,8415],[96.8,8449],[96.8,8482],[96.8,8517],[96.8,8549],[96.8,8582],[96.8,8615],[96.8,8649],[96.8,8682],[96.8,8715],[96.8,8749],[96.8,8782],[96.8,8815],[96.8,8849],[96.8,8882],[96.8,8915],[96.8,8949],[96.8,8982],[96.8,9016],[96.8,9049],[96.8,9082],[96.8,9115],[96.8,9149],[96.8,9182],[96.8,9215],[96.8,9248],[96.8,9282],[96.8,9315],[96.8,9348],[96.8,9382],[96.8,9415],[96.8,9449],[96.8,9483],[96.8,9516],[96.8,9549],[96.8,9582],[96.8,9615],[96.8,9649],[96.8,9682],[96.8,9716],[96.8,9750],[96.8,9782],[96.8,9815],[96.8,9849],[96.8,9882],[96.8,9916],[96.8,9950],[96.8,9982],[96.8,10016],[96.8,10049],[96.8,10082],[96.8,10116],[96.8,10149],[96.8,10182],[96.8,10216],[96.8,10249],[96.8,10282],[96.8,10315],[96.8,10349],[96.8,10382],[96.8,10418],[96.8,10449],[96.8,10482],[96.8,10515],[96.8,10548],[96.8,10582],[96.8,10615],[96.8,10649],[96.8,10682],[96.8,10715],[96.8,10749],[96.8,10782],[96.8,10816],[96.8,10851],[96.8,10882],[96.8,10915],[96.8,10948],[96.8,10982],[96.8,11016],[96.8,11049],[96.8,11082],[96.8,11115],[96.8,11149],[96.8,11183],[96.8,11215],[96.8,11249],[96.8,11283],[96.8,11316],[96.8,11349],[96.8,11382],[96.8,11415],[96.8,11448],[96.8,11482],[96.8,11515],[96.8,11548],[96.8,11582],[96.8,11615],[96.8,11649],[96.8,11682],[96.8,11715],[96.8,11748],[96.8,11782],[96.8,11815],[96.8,11848],[96.8,11882],[96.8,11915],[96.8,11949],[96.8,11982],[96.8,12015],[96.8,12048],[96.8,12082],[96.8,12115],[96.8,12148],[96.8,12182],[96.8,12215],[96.8,12249],[96.8,12282],[96.8,12315],[96.8,12348],[96.8,12382],[96.8,12415],[96.8,12448],[96.8,12482],[96.8,12515],[96.8,12548],[96.8,12582],[96.8,12615],[96.8,12648],[96.8,12682],[96.8,12715],[96.8,12748],[96.8,12782],[96.8,12816],[96.8,12848],[96.8,12882],[96.8,12916],[96.8,12949],[96.8,12982],[96.8,13015],[96.8,13049],[96.8,13082],[96.8,13115],[96.8,13149],[96.8,13182],[96.8,13215],[96.8,13249],[96.8,13282],[96.8,13315],[96.8,13348],[96.8,13382],[96.8,13415],[96.8,13448],[96.8,13482],[96.8,13515],[96.8,13549],[96.8,13582],[96.8,13615],[96.8,13649],[96.8,13682],[96.8,13715],[96.8,13749],[96.8,13782],[96.8,13815],[96.8,13848],[96.8,13882],[96.8,13915],[96.8,13949],[96.8,13982],[96.8,14015],[96.8,14049],[96.8,14082],[96.8,14115],[96.8,14148],[96.8,14182],[96.8,14215],[96.8,14249],[96.8,14282],[96.8,14315],[96.8,14349],[96.8,14382],[96.8,14415],[96.8,14449],[96.8,14482],[96.8,14515],[96.8,14549],[96.8,14582],[96.8,14615],[96.8,14648],[96.8,14682],[96.8,14715],[96.8,14749],[96.8,14782],[96.8,14816],[96.8,14849],[96.8,14882],[96.8,14915],[96.8,14950],[96.8,14982],[96.8,15015],[96.8,15049],[96.8,15082],[96.8,15115],[96.8,15149],[96.8,15182],[96.8,15215],[96.8,15249],[96.8,15282],[96.8,15315],[96.8,15348],[96.8,15382],[96.8,15415],[96.8,15449],[96.8,15483],[96.8,15515],[96.8,15548],[96.8,15582],[96.8,15615],[96.8,15648],[96.8,15682],[96.8,15715],[96.8,15749],[96.8,15782],[96.8,15815],[96.8,15848],[96.8,15882],[96.8,15915],[96.8,15948],[96.8,15982],[96.8,16015],[96.8,16049],[96.8,16082],[96.8,16115],[96.8,16148],[96.8,16182],[96.8,16215],[96.8,16248],[96.8,16282],[96.8,16315],[96.8,16349],[96.8,16382],[96.8,16415],[96.8,16448],[96.8,16482],[96.8,16515],[96.8,16548],[96.8,16582],[96.8,16615],[96.8,16648],[96.8,16682],[96.8,16715],[96.8,16748],[96.8,16782],[96.8,16815],[96.8,16848],[96.8,16882],[96.8,16915],[96.8,16948],[96.8,16982],[96.8,17016],[96.8,17049],[96.8,17082],[96.8,17115],[96.8,17148],[96.8,17182]]",632.4589,635.792,99.88946684,1.8411,"[{""rating"":99.8894668420009,""responseTime"":1.8411000000238573}]",space,2.7843,,635.792,Definitely yes,100,635.7957,,,[],,0,16,16,16,1,audio/Narrative8Situation7.wav,audio/Narrative7Situation7.wav,audio/Narrative6Situation7.wav,audio/Narrative5Situation7.wav,3,5,5,4,,,,,,,,,,,,,,,,,,,,,,,,,,,,,,,,,,,,,,,
,,,,,5f0a7dec44c42c19a6c9f6d9,2025-07-07_21h40.11.233,group3.4_multiperson,2023.2.2,Win32,30.12048193,686c2ebf0248f13bef9af11f,686c84c1c371d07582eccb9e,,,,,,,,,,,,,,,,,,,,,,,,,,,,,635.796,1,audio/Narrative7Situation8.wav,637.8086,,637.8086,647.842,"[[99.3,1100],[98.4,1134],[96.3,1167],[94,1200],[92.2,1233],[90.1,1267],[87.1,1300],[85.9,1334],[85.5,1368],[85.5,1400],[85.4,1434],[85.2,1468],[85.2,1499],[84.7,1533],[84,1568],[83,1600],[82.3,1635],[82.1,1666],[82.1,1700],[82.1,1733],[82.1,1766],[82.1,1799],[82.1,1834],[82.1,1867],[82.1,1900],[82.1,1933],[82.1,1966],[82.1,1999],[82.1,2034],[82.1,2066],[82.1,2100],[82.1,2133],[82.1,2167],[82.1,2199],[82.1,2233],[82.1,2267],[82.1,2300],[82.1,2334],[82.1,2366],[82.1,2399],[82.1,2433],[82.1,2466],[82.1,2500],[82.1,2533],[82.1,2566],[82.1,2599],[82.1,2633],[82.1,2666],[82.1,2699],[82.1,2733],[82.1,2766],[82.1,2799],[82.1,2833],[82.1,2866],[82.1,2899],[82.1,2934],[82.1,2966],[81.9,3000],[81.9,3033],[81.9,3066],[81.9,3099],[81.9,3133],[81.9,3166],[81.9,3200],[81.9,3234],[81.9,3267],[81.9,3299],[81.9,3333],[81.9,3366],[81.9,3401],[81.9,3433],[81.9,3466],[81.9,3499],[81.9,3533],[81.9,3566],[81.9,3600],[81.9,3634],[81.9,3666],[81.9,3700],[81.9,3733],[81.9,3766],[81.9,3799],[81.9,3833],[81.9,3866],[81.9,3900],[81.9,3933],[81.9,3967],[81.9,4000],[81.9,4034],[81.9,4066],[81.9,4099],[81.9,4133],[81.9,4166],[81.9,4199],[81.9,4234],[81.9,4267],[81.9,4299],[81.9,4333],[81.9,4366],[81.9,4400],[81.9,4433],[81.9,4468],[81.9,4500],[81.9,4533],[81.9,4567],[81.9,4600],[81.9,4633],[81.9,4666],[81.9,4700],[81.9,4734],[81.9,4767],[81.9,4800],[81.9,4833],[81.9,4866],[81.9,4899],[81.9,4934],[81.9,4967],[81.9,5000],[81.9,5033],[81.9,5066],[81.9,5099],[81.9,5133],[81.9,5168],[81.9,5200],[81.9,5233],[81.9,5266],[81.9,5300],[81.9,5333],[81.9,5366],[81.9,5400],[81.9,5433],[81.9,5467],[81.9,5500],[81.9,5533],[81.9,5568],[81.9,5599],[81.9,5633],[81.9,5667],[81.9,5700],[81.9,5733],[81.9,5767],[81.9,5800],[81.9,5833],[81.9,5866],[81.9,5900],[81.9,5933],[81.9,5966],[81.9,6000],[81.9,6033],[81.9,6066],[81.9,6100],[81.9,6133],[81.9,6166],[81.9,6200],[81.9,6233],[81.9,6266],[81.9,6299],[81.9,6333],[81.9,6367],[81.9,6399],[81.9,6433],[81.9,6466],[81.9,6500],[81.9,6533],[81.9,6567],[81.9,6600],[81.9,6633],[81.9,6666],[81.9,6700],[81.9,6733],[81.9,6766],[81.9,6800],[81.9,6834],[81.9,6866],[81.9,6899],[81.9,6934],[81.9,6966],[81.9,7001],[81.9,7033],[81.9,7066],[81.9,7099],[81.9,7133],[81.9,7166],[81.9,7200],[81.9,7234],[81.9,7266],[81.9,7300],[81.9,7333],[81.9,7366],[81.9,7400],[81.9,7433],[81.9,7468],[81.9,7500],[81.9,7533],[81.9,7566],[81.9,7600],[81.9,7633],[81.9,7666],[81.9,7699],[81.9,7733],[81.9,7766],[81.9,7799],[81.9,7833],[81.9,7866],[81.9,7899],[81.9,7933],[81.9,7967],[81.9,8000],[81.9,8033],[81.9,8066],[81.9,8099],[81.9,8133],[81.9,8166],[81.9,8199],[81.9,8233],[81.9,8266],[81.9,8299],[81.9,8333],[81.9,8366],[81.9,8399],[81.9,8433],[81.9,8466],[81.9,8501],[81.9,8533],[81.9,8566],[81.9,8599],[81.9,8633],[81.9,8666],[81.9,8699],[81.9,8733],[81.9,8766],[81.9,8799],[81.9,8833],[81.9,8866],[81.9,8899],[81.9,8933],[81.9,8966],[81.9,8999],[81.9,9033],[81.9,9066],[81.9,9099],[81.9,9133],[81.9,9166],[81.9,9199],[81.9,9233],[81.9,9266],[81.9,9300],[81.9,9333],[81.9,9366],[81.9,9399],[81.9,9433],[81.9,9466],[81.9,9500],[81.9,9533],[81.9,9566],[81.9,9599],[81.9,9633],[81.9,9666],[81.9,9699],[81.9,9733],[81.9,9766],[81.9,9799],[81.9,9833],[81.9,9866],[81.9,9899],[81.9,9933],[81.9,9966],[81.9,9999],[81.9,10033]]",647.8421,650.3921,87.29459093,1.2244,"[{""rating"":81.8819063145777,""responseTime"":0.15899999999999181},{""rating"":87.29459092860085,""responseTime"":1.2243999999760717}]",space,2.0179,,650.3923,Partially,50,650.3962,,,[],,0,17,17,17,1,audio/Narrative8Situation8.wav,audio/Narrative7Situation8.wav,audio/Narrative6Situation8.wav,audio/Narrative5Situation8.wav,3,2,5,3,,,,,,,,,,,,,,,,,,,,,,,,,,,,,,,,,,,,,,,
,,,,,5f0a7dec44c42c19a6c9f6d9,2025-07-07_21h40.11.233,group3.4_multiperson,2023.2.2,Win32,30.12048193,686c2ebf0248f13bef9af11f,686c84c1c371d07582eccb9e,,,,,,,,,,,,,,,,,,,,,,,,,,,,,650.3966,1,audio/Narrative7Situation9.wav,652.4092,,652.4099,661.0425,"[[999,0],[999,33],[999,65],[999,98],[999,132],[999,165],[999,198],[999,232],[999,266],[999,298],[999,332],[999,365],[999,399],[999,433],[999,465],[999,498],[999,532],[999,565],[999,599],[999,632],[999,667],[999,698],[999,732],[999,765],[999,799],[999,833],[999,865],[999,899],[999,932],[999,965],[999,998],[999,1031],[999,1065],[999,1099],[999,1131],[999,1165],[999,1198],[999,1232],[999,1265],[999,1299],[999,1332],[999,1365],[999,1398],[999,1432],[999,1466],[999,1498],[999,1532],[999,1565],[999,1598],[999,1631],[999,1665],[999,1699],[999,1732],[999,1765],[999,1798],[999,1832],[999,1865],[999,1899],[999,1932],[999,1965],[999,1998],[999,2032],[999,2065],[999,2098],[999,2132],[999,2168],[999,2199],[999,2232],[999,2265],[999,2299],[999,2332],[999,2366],[999,2399],[999,2432],[999,2466],[999,2498],[999,2531],[999,2565],[999,2599],[999,2632],[999,2665],[999,2698],[999,2733],[999,2765],[999,2798],[999,2832],[999,2866],[999,2898],[999,2931],[999,2965],[999,2999],[999,3033],[999,3066],[81.2,3101],[80.9,3132],[80.7,3167],[80.5,3199],[80.4,3233],[80.2,3267],[79.8,3299],[79.8,3332],[79.7,3366],[79.7,3398],[79.7,3432],[79.7,3465],[79.7,3498],[79.5,3532],[79.5,3565],[79.5,3598],[79.5,3632],[79.5,3665],[79.5,3699],[79.5,3732],[79.5,3765],[79.5,3798],[79.5,3831],[79.5,3865],[79.5,3899],[79.5,3931],[79.5,3965],[79.5,3998],[79.5,4032],[79.5,4065],[79.5,4098],[79.5,4131],[79.5,4165],[79.5,4198],[79.5,4231],[79.5,4265],[79.5,4298],[79.5,4331],[79.5,4365],[79.5,4398],[79.5,4432],[79.5,4465],[79.5,4498],[79.5,4531],[79.5,4565],[79.5,4598],[79.5,4631],[79.5,4665],[79.5,4698],[79.5,4731],[79.5,4765],[79.5,4798],[79.5,4831],[79.5,4865],[79.5,4898],[79.5,4931],[79.5,4965],[79.5,4998],[79.5,5031],[79.5,5065],[79.5,5098],[79.5,5131],[79.5,5165],[79.5,5198],[79.5,5232],[79.5,5265],[79.5,5298],[79.5,5331],[79.5,5365],[79.5,5398],[79.5,5431],[79.5,5465],[79.5,5498],[79.5,5531],[79.5,5565],[79.5,5598],[79.5,5631],[79.5,5665],[79.5,5698],[79.5,5731],[79.5,5765],[79.5,5798],[79.5,5831],[79.5,5865],[79.5,5899],[79.5,5932],[79.5,5965],[79.5,5998],[79.5,6031],[79.5,6065],[79.5,6098],[79.5,6131],[79.5,6165],[79.5,6198],[79.5,6231],[79.5,6265],[79.5,6298],[79.5,6332],[79.5,6365],[79.5,6398],[79.5,6432],[79.5,6465],[79.5,6498],[79.5,6531],[79.5,6565],[79.5,6598],[79.5,6631],[79.5,6665],[79.5,6698],[79.5,6731],[79.5,6765],[79.5,6798],[79.5,6831],[79.5,6865],[79.5,6899],[79.5,6932],[79.5,6965],[79.5,6998],[79.5,7031],[79.8,7065],[82.1,7099],[85.7,7132],[88.5,7165],[92.1,7199],[93.4,7232],[94.6,7265],[95.4,7298],[95.8,7332],[96.1,7366],[97.1,7399],[98.1,7432],[98.4,7469],[98.4,7498],[98.4,7531],[98.4,7565],[98.4,7598],[98.4,7631],[98.4,7665],[98.4,7698],[98.4,7731],[98.4,7765],[98.4,7798],[98.4,7831],[98.4,7865],[98.4,7898],[98.3,7932],[98.3,7965],[98.3,7998],[98.3,8031],[98.3,8065],[98.3,8098],[98.3,8132],[98.3,8165],[98.3,8198],[98.3,8231],[98.3,8265],[98.3,8298],[98.3,8332],[98.3,8365],[98.3,8398],[98.3,8432],[98.3,8465],[98.3,8499],[97.5,8532],[96.8,8565],[96.6,8598],[96.4,8632]]",661.0427,675.2095,99.05675075,9.6588,"[{""rating"":99.05675075039807,""responseTime"":9.658800000071551}]",space,13.6212,,675.2099,Not at all,0,693.7755,0,10.7392,"[{""rating"":0,""responseTime"":10.739200000047617}]",space,0,18,18,18,1,audio/Narrative8Situation9.wav,audio/Narrative7Situation9.wav,audio/Narrative6Situation9.wav,audio/Narrative5Situation9.wav,3,2,4,3,,,18.02,,,,,,,,,,,,,,,,,,,,,,,,,,,,,,,,,,,,
