consent.started,consent.stopped,consentResponse.keys,consentResponse.rt,consentResponse.duration,participantID,date,expName,psychopyVersion,OS,frameRate,STUDY_ID,SESSION_ID,opening1.started,opening1.stopped,keyEndingOpening1.keys,keyEndingOpening1.rt,keyEndingOpening1.duration,volumeAdjust.started,volumeAdjust.stopped,endingAdjust.keys,endingAdjust.rt,endingAdjust.duration,opening2.started,opening2.stopped,keyEndingOpening.keys,keyEndingOpening.rt,keyEndingOpening.duration,mouse.x,mouse.y,mouse.leftButton,mouse.midButton,mouse.rightButton,mouse.time,instructionLoop.thisRepN,instructionLoop.thisTrialN,instructionLoop.thisN,instructionLoop.thisIndex,instructionLoop.ran,readyForAudio.started,readyForAudio.stopped,fixation.started,run,audio_played,fixation.stopped,endPractice.keys,audioPre.started,audioPre.stopped,continuousResponses_audio,intRating.started,intRating.stopped,intQuestionSlider.response,intQuestionSlider.rt,intQuestionSlider.history,confirmResponse.keys,confirmResponse.rt,confirmResponse.duration,catchQuestion.started,catch_label,catch_value,catchQuestion.stopped,catchQuestionSlider.response,catchQuestionSlider.rt,catchQuestionSlider.history,confirmResponse_2.keys,audioRunLoop.thisRepN,audioRunLoop.thisTrialN,audioRunLoop.thisN,audioRunLoop.thisIndex,audioRunLoop.ran,conditions1_1,conditions2_1,conditions1_2,conditions2_2,dur1_1,dur2_1,dur1_2,dur2_2,endPractice.rt,endPractice.duration,confirmResponse_2.rt,confirmResponse_2.duration,runIntervalBreak.started,runIntervalBreak.stopped,endingBreakKey.keys,endingBreakKey.rt,endingBreakKey.duration,connection.started,connection.stopped,connectionEnding.keys,connectionEnding.rt,connectionEnding.duration,readyForText.started,readyForText.stopped,textPre.started,run_dup,textPre.stopped,continuousResponses_text,textRunLoop.thisRepN,textRunLoop.thisTrialN,textRunLoop.thisN,textRunLoop.thisIndex,textRunLoop.ran,text1_1,text1_2,text2_1,text2_2,runBreakText.started,runBreakText.stopped,endingBreakKey_2.keys,endingBreakKey_2.rt,endingBreakKey_2.duration,ending.started,ending.stopped,endingEnding.keys,endingEnding.rt,endingEnding.duration
0.0005,4.9898,y,4.6547,,5fc2c0cfdb80f9025c6b4810,2025-07-08_00h22.03.597,group3.4_multiperson,2023.2.2,Win32,60.24096386,686c2ebf0248f13bef9af11f,686c9bd86b2de1eab73e6b2c,,,,,,,,,,,,,,,,,,,,,,,,,,,,,,,,,,,,,,,,,,,,,,,,,,,,,,,,,,,,,,,,,,,,,,,,,,,,,,,,,,,,,,,,,,,,,,,,,,,,,,,,
,,,,,5fc2c0cfdb80f9025c6b4810,2025-07-08_00h22.03.597,group3.4_multiperson,2023.2.2,Win32,60.24096386,686c2ebf0248f13bef9af11f,686c9bd86b2de1eab73e6b2c,4.9905,9.7025,space,4.6772,,,,,,,,,,,,,,,,,,,,,,,,,,,,,,,,,,,,,,,,,,,,,,,,,,,,,,,,,,,,,,,,,,,,,,,,,,,,,,,,,,,,,,,,,,,,,,,,,,,,
,,,,,5fc2c0cfdb80f9025c6b4810,2025-07-08_00h22.03.597,group3.4_multiperson,2023.2.2,Win32,60.24096386,686c2ebf0248f13bef9af11f,686c9bd86b2de1eab73e6b2c,,,,,,9.7028,23.9762,space,13.9535,,,,,,,,,,,,,,,,,,,,,,,,,,,,,,,,,,,,,,,,,,,,,,,,,,,,,,,,,,,,,,,,,,,,,,,,,,,,,,,,,,,,,,,,,,,,,,,
,,,,,5fc2c0cfdb80f9025c6b4810,2025-07-08_00h22.03.597,group3.4_multiperson,2023.2.2,Win32,60.24096386,686c2ebf0248f13bef9af11f,686c9bd86b2de1eab73e6b2c,,,,,,,,,,,23.9827,34.681,space,10.6825,,[],[],[],[],[],[],0,0,0,0,1,,,,,,,,,,,,,,,,,,,,,,,,,,,,,,,,,,,,,,,,,,,,,,,,,,,,,,,,,,,,,,,,,,,,,,,,,,,,,,
,,,,,5fc2c0cfdb80f9025c6b4810,2025-07-08_00h22.03.597,group3.4_multiperson,2023.2.2,Win32,60.24096386,686c2ebf0248f13bef9af11f,686c9bd86b2de1eab73e6b2c,,,,,,,,,,,34.6818,52.1483,space,17.3563,,[],[],[],[],[],[],1,0,1,0,1,,,,,,,,,,,,,,,,,,,,,,,,,,,,,,,,,,,,,,,,,,,,,,,,,,,,,,,,,,,,,,,,,,,,,,,,,,,,,,
,,,,,5fc2c0cfdb80f9025c6b4810,2025-07-08_00h22.03.597,group3.4_multiperson,2023.2.2,Win32,60.24096386,686c2ebf0248f13bef9af11f,686c9bd86b2de1eab73e6b2c,,,,,,,,,,,52.1488,69.8494,space,17.6467,,[],[],[],[],[],[],2,0,2,0,1,,,,,,,,,,,,,,,,,,,,,,,,,,,,,,,,,,,,,,,,,,,,,,,,,,,,,,,,,,,,,,,,,,,,,,,,,,,,,,
,,,,,5fc2c0cfdb80f9025c6b4810,2025-07-08_00h22.03.597,group3.4_multiperson,2023.2.2,Win32,60.24096386,686c2ebf0248f13bef9af11f,686c9bd86b2de1eab73e6b2c,,,,,,,,,,,69.8496,84.2204,space,14.352,,[],[],[],[],[],[],3,0,3,0,1,,,,,,,,,,,,,,,,,,,,,,,,,,,,,,,,,,,,,,,,,,,,,,,,,,,,,,,,,,,,,,,,,,,,,,,,,,,,,,
,,,,,5fc2c0cfdb80f9025c6b4810,2025-07-08_00h22.03.597,group3.4_multiperson,2023.2.2,Win32,60.24096386,686c2ebf0248f13bef9af11f,686c9bd86b2de1eab73e6b2c,,,,,,,,,,,84.2208,92.4633,space,8.214,,[],[],[],[],[],[],4,0,4,0,1,,,,,,,,,,,,,,,,,,,,,,,,,,,,,,,,,,,,,,,,,,,,,,,,,,,,,,,,,,,,,,,,,,,,,,,,,,,,,,
,,,,,5fc2c0cfdb80f9025c6b4810,2025-07-08_00h22.03.597,group3.4_multiperson,2023.2.2,Win32,60.24096386,686c2ebf0248f13bef9af11f,686c9bd86b2de1eab73e6b2c,,,,,,,,,,,92.4636,103.8913,space,11.4158,,[],[],[],[],[],[],5,0,5,0,1,,,,,,,,,,,,,,,,,,,,,,,,,,,,,,,,,,,,,,,,,,,,,,,,,,,,,,,,,,,,,,,,,,,,,,,,,,,,,,
,,,,,5fc2c0cfdb80f9025c6b4810,2025-07-08_00h22.03.597,group3.4_multiperson,2023.2.2,Win32,60.24096386,686c2ebf0248f13bef9af11f,686c9bd86b2de1eab73e6b2c,,,,,,,,,,,,,,,,,,,,,,,,,,,103.8933,106.4713,106.4996,1,audio/Narrative13Situation2.wav,108.5163,,108.5167,138.2736,"[[999,1],[999,115],[999,198],[999,282],[999,365],[999,448],[999,531],[999,614],[999,698],[999,781],[999,864],[999,948],[999,1181],[999,1264],[999,1347],[999,1430],[999,1514],[999,1597],[999,1680],[999,1764],[999,1847],[999,1930],[999,2013],[999,2097],[999,2180],[999,2263],[999,2346],[999,2430],[999,2513],[999,2596],[999,2679],[999,2763],[999,2846],[999,2929],[999,3012],[999,3096],[999,3179],[999,3262],[999,3346],[999,3429],[999,3512],[999,3595],[999,3679],[999,3762],[999,3845],[999,3928],[999,4012],[999,4095],[999,4178],[999,4261],[999,4344],[999,4428],[999,4511],[999,4595],[999,4678],[999,4761],[999,4844],[999,4928],[999,5011],[999,5094],[999,5177],[999,5261],[999,5344],[999,5427],[999,5510],[999,5594],[999,5677],[999,5760],[999,5843],[999,5927],[999,6010],[999,6093],[999,6177],[78.9,6260],[82.3,6343],[83.5,6426],[83.8,6510],[87.2,6593],[87.3,6676],[87.3,6759],[87.3,6842],[87.5,6926],[89.8,7009],[91.5,7092],[92.7,7175],[93.4,7259],[93.8,7342],[93.8,7425],[93.8,7509],[93.8,7592],[93.8,7675],[93.8,7758],[93.8,7842],[93.8,7925],[93.8,8008],[93.8,8092],[93.8,8175],[93.8,8258],[93.8,8341],[93.8,8425],[93.8,8508],[93.8,8591],[93.8,8674],[93.8,8758],[93.8,8841],[93.8,8924],[93.8,9007],[93.8,9091],[93.8,9174],[93.8,9257],[93.8,9340],[93.8,9424],[93.8,9507],[93.8,9590],[93.8,9673],[93.8,9757],[93.8,9840],[93.8,9923],[93.8,10006],[93.8,10090],[93.8,10173],[93.8,10256],[93.8,10340],[93.8,10423],[93.8,10506],[93.8,10589],[93.8,10672],[93.8,10756],[93.8,10839],[93.8,10922],[93.8,11006],[93.8,11089],[93.8,11172],[93.8,11255],[93.8,11338],[93.8,11422],[93.8,11505],[93.8,11588],[93.8,11672],[93.8,11755],[93.8,11838],[93.8,11921],[93.8,12005],[93.8,12088],[93.8,12171],[93.8,12254],[93.8,12338],[93.8,12421],[93.8,12504],[93.8,12587],[93.8,12671],[93.8,12754],[93.8,12837],[93.8,12921],[93.8,13004],[93.8,13087],[93.8,13170],[93.8,13254],[93.8,13337],[93.8,13420],[93.8,13503],[93.8,13586],[93.8,13670],[93.8,13753],[93.8,13836],[93.8,13920],[93.8,14003],[93.8,14086],[93.8,14169],[93.8,14253],[93.8,14336],[93.8,14419],[93.8,14503],[93.8,14586],[93.8,14669],[93.8,14752],[93.8,14836],[93.8,14919],[93.8,15002],[93.8,15085],[93.8,15169],[93.8,15252],[93.8,15335],[93.8,15418],[93.8,15502],[93.8,15585],[93.8,15668],[93.8,15751],[93.8,15835],[93.8,15918],[93.8,16001],[93.8,16085],[93.8,16168],[93.8,16251],[93.8,16334],[93.8,16417],[93.8,16501],[93.8,16584],[93.8,16667],[93.8,16751],[93.8,16834],[93.8,16917],[93.8,17000],[93.8,17083],[93.8,17167],[93.8,17250],[93.8,17333],[93.8,17416],[93.8,17500],[93.8,17583],[93.8,17666],[93.8,17750],[93.8,17833],[93.8,17916],[93.8,17999],[93.8,18083],[93.8,18166],[93.8,18249],[93.8,18332],[93.8,18416],[93.8,18499],[93.8,18582],[93.8,18666],[93.8,18749],[93.8,18832],[93.8,18915],[93.8,18998],[93.8,19082],[93.8,19165],[93.8,19248],[93.8,19332],[93.8,19415],[93.8,19498],[93.8,19581],[93.8,19665],[93.8,19748],[93.8,19831],[93.8,19915],[93.8,19998],[93.8,20081],[93.8,20164],[93.8,20247],[93.3,20331],[92,20415],[90.9,20498],[89.5,20581],[88.6,20664],[87.4,20748],[86.1,20830],[84.8,20913],[83.4,20997],[82.4,21080],[82.2,21163],[82.2,21247],[82.2,21330],[81.7,21413],[81.1,21496],[80.1,21580],[78.9,21663],[77,21747],[74.4,21830],[73.2,21913],[72.5,21996],[71.6,22079],[71,22162],[70.9,22246],[70.9,22329],[70.9,22412],[70.9,22496],[70.9,22579],[70.9,22662],[70.9,22745],[70.9,22828],[70.9,22912],[70.9,22995],[70.9,23078],[70.9,23162],[70.9,23245],[70.9,23328],[69.8,23412],[69.5,23495],[69.4,23578],[69.4,23661],[69.3,23745],[69.3,23828],[69.3,23911],[69,23995],[68.9,24077],[68.9,24161],[68.9,24244],[68.9,24327],[68.9,24410],[68.9,24494],[68.9,24577],[68.9,24660],[68.9,24744],[68.9,24827],[68.9,24910],[68.9,24993],[68.9,25077],[68.9,25160],[68.9,25243],[68.9,25326],[68.9,25410],[68.9,25493],[68.9,25576],[68.9,25659],[68.9,25742],[68.9,25826],[68.9,25909],[68.9,25992],[68.9,26076],[68.9,26159],[68.9,26242],[68.9,26326],[68.9,26409],[68.9,26492],[68.9,26575],[68.9,26659],[68.9,26742],[69,26825],[70.6,26909],[72,26992],[73.9,27075],[75.4,27158],[75.5,27241],[76.6,27325],[77.1,27408],[77.5,27491],[77.6,27575],[77.8,27658],[77.8,27741],[77.7,27824],[77.7,27907],[77.2,27991],[77.2,28074],[77.2,28157],[77.2,28240],[77.2,28324],[77.2,28407],[77.2,28490],[77.2,28574],[77.2,28657],[77.2,28740],[77.2,28823],[77.2,28907],[77.2,28990],[77.2,29073],[77.2,29157],[77.2,29240],[77.2,29323],[77.2,29406],[77.2,29489],[77.2,29573],[77.2,29656],[77.2,29739]]",138.2742,144.9006,81.66666826,4.5376,"[{""rating"":81.66666825612386,""responseTime"":4.5376000000238434}]",space,6.082,,144.9008,Definitely yes,100,144.9053,,,[],,0,0,0,0,1,audio/Narrative13Situation2.wav,audio/Narrative13Situation2.wav,audio/Narrative13Situation2.wav,audio/Narrative13Situation2.wav,2,2,2,2,,,,,,,,,,,,,,,,,,,,,,,,,,,,,,,,,,,,,,,
,,,,,5fc2c0cfdb80f9025c6b4810,2025-07-08_00h22.03.597,group3.4_multiperson,2023.2.2,Win32,60.24096386,686c2ebf0248f13bef9af11f,686c9bd86b2de1eab73e6b2c,,,,,,,,,,,,,,,,,,,,,,,,,,,,,144.9055,1,audio/Narrative7Situation1.wav,147.8481,space,147.8482,203.7496,"[[999,1],[999,83],[999,166],[999,249],[999,332],[999,416],[999,499],[999,582],[999,665],[999,749],[999,832],[999,915],[999,998],[999,1082],[999,1165],[999,1248],[999,1331],[999,1415],[999,1498],[999,1581],[999,1664],[999,1748],[999,1831],[999,1914],[999,1998],[999,2081],[999,2164],[88.1,2248],[88.5,2331],[88.7,2414],[88.7,2497],[88.7,2580],[88.7,2664],[88.7,2747],[88.7,2830],[88.7,2913],[88.7,2997],[88.7,3080],[88.7,3163],[88.7,3246],[88.7,3330],[88.7,3413],[88.7,3496],[88.7,3580],[88.7,3663],[88.7,3746],[88.7,3829],[88.7,3913],[88.7,3996],[88.7,4079],[88.7,4163],[88.7,4246],[88.7,4329],[88.7,4412],[88.7,4495],[88.7,4579],[88.7,4662],[88.7,4745],[88.7,4829],[88.7,4912],[88.7,4995],[88.7,5078],[88.7,5161],[88.7,5245],[88.7,5328],[88.7,5411],[88.7,5495],[88.7,5578],[88.7,5661],[88.7,5745],[88.7,5828],[88.7,5911],[88.7,5994],[88.7,6078],[88.7,6161],[88.7,6244],[88.7,6327],[88.7,6410],[88.7,6494],[88.7,6577],[88.7,6660],[88.7,6743],[88.7,6827],[88.7,6910],[88.7,6993],[88.7,7076],[88.7,7160],[88.7,7243],[88.7,7326],[88.7,7409],[88.7,7493],[88.7,7576],[88.7,7659],[88.7,7742],[88.7,7826],[88.7,7909],[88.7,7992],[88.7,8076],[88.7,8159],[88.7,8242],[88.7,8325],[88.7,8409],[88.7,8492],[88.7,8575],[88.7,8658],[88.7,8742],[88.7,8825],[88.7,8908],[88.7,8991],[89,9075],[89.4,9159],[90,9241],[90.5,9325],[90.6,9408],[90.6,9491],[90.6,9574],[90.6,9657],[90.6,9741],[90.6,9824],[90.6,9908],[90.6,9991],[90.6,10074],[90.6,10157],[90.6,10240],[90.6,10324],[90.6,10407],[90.6,10490],[90.6,10573],[90.6,10657],[90.6,10740],[90.6,10823],[90.6,10907],[90.6,10990],[90.6,11073],[90.6,11156],[90.6,11240],[90.6,11323],[90.6,11406],[90.6,11489],[90.6,11573],[90.6,11656],[90.6,11739],[90.6,11823],[90.6,11906],[90.6,11989],[90.6,12072],[90.6,12155],[90.6,12239],[90.6,12322],[90.6,12405],[90.6,12488],[90.6,12572],[90.6,12655],[90.6,12739],[90.6,12822],[90.6,12905],[90.6,12988],[90.6,13071],[90.6,13154],[90.6,13238],[90.6,13321],[90.6,13404],[90.6,13488],[90.6,13571],[90.6,13654],[90.6,13737],[90.6,13821],[90.6,13904],[90.6,13987],[90.6,14070],[90.6,14153],[90.6,14237],[90.8,14320],[90.8,14403],[90.8,14487],[90.9,14570],[90.9,14653],[90.9,14737],[90.9,14820],[90.9,14903],[90.9,14986],[90.9,15070],[90.9,15153],[90.9,15236],[90.9,15319],[90.9,15403],[90.9,15486],[90.9,15569],[90.9,15652],[90.9,15735],[90.9,15819],[90.9,15902],[90.9,15985],[90.9,16069],[90.9,16152],[90.9,16235],[90.9,16319],[90.9,16402],[90.9,16485],[90.9,16568],[90.9,16651],[90.9,16735],[90.9,16818],[90.9,16901],[90.9,16985],[90.9,17068],[90.9,17151],[90.9,17234],[90.9,17317],[90.9,17401],[90.9,17484],[90.9,17567],[90.9,17651],[90.9,17734],[90.9,17817],[90.9,17901],[90.9,17984],[90.9,18067],[90.9,18150],[90.9,18233],[90.9,18317],[90.9,18400],[90.9,18483],[90.9,18567],[90.9,18650],[90.9,18733],[90.9,18816],[90.9,18899],[90.9,18983],[90.9,19066],[90.9,19149],[90.9,19233],[90.9,19316],[90.9,19399],[90.9,19482],[90.9,19566],[90.9,19649],[90.9,19732],[90.9,19815],[90.9,19899],[90.9,19982],[90.9,20065],[90.9,20148],[90.9,20232],[90.9,20315],[90.9,20398],[90.9,20482],[90.9,20565],[90.9,20648],[90.9,20731],[90.9,20814],[90.9,20898],[90.9,20981],[90.9,21064],[90.9,21147],[90.9,21231],[90.9,21314],[90.9,21397],[90.9,21480],[90.9,21564],[90.9,21647],[90.9,21730],[90.9,21813],[90.9,21897],[90.9,21980],[90.9,22063],[90.9,22146],[88,22230],[85.3,22313],[74.6,22646],[70.3,22730],[69.3,22813],[69.1,22896],[69.1,22979],[69.1,23062],[69.1,23146],[69.1,23229],[69.1,23312],[69.1,23395],[69.1,23479],[69.1,23562],[69.1,23645],[69.1,23729],[69.1,23812],[69.1,23895],[69.1,23978],[69.1,24062],[69.1,24145],[69.1,24228],[69.1,24311],[69.1,24395],[69.1,24478],[69.1,24561],[69.1,24644],[69.1,24728],[69.1,24811],[69.1,24894],[69.1,24977],[69.1,25061],[69.1,25144],[69.1,25227],[69.1,25311],[69.1,25394],[69.1,25477],[69.1,25560],[69.1,25644],[69.1,25727],[69.1,25810],[69.1,25893],[69.1,25977],[69.1,26060],[69.1,26143],[69.1,26227],[69.1,26310],[69.1,26393],[69.1,26476],[69.1,26559],[69.1,26643],[69.1,26726],[69.1,26809],[69.1,26893],[69.1,26976],[69.1,27059],[69.1,27142],[69.1,27225],[69.1,27309],[69.1,27392],[69.1,27475],[69.1,27559],[69.1,27642],[69.1,27725],[69.1,27809],[69.1,27892],[69.1,27975],[69.1,28058],[69.1,28141],[69.1,28225],[69.1,28308],[69.1,28391],[69.1,28475],[69.1,28558],[69.1,28641],[69.1,28724],[69.1,28808],[69.1,28891],[69.1,28974],[69.1,29057],[69.1,29141],[69.1,29224],[69.1,29307],[69.1,29390],[69.1,29474],[69.1,29557],[69.1,29640],[69.1,29723],[69.1,29807],[69.1,29890],[69.1,29973],[69.1,30056],[69.1,30140],[69.1,30223],[69.1,30306],[69.1,30389],[69.1,30473],[69.1,30556],[69.1,30639],[69.1,30722],[69.1,30806],[69.1,30889],[69.1,30972],[69.1,31055],[69.1,31139],[69.1,31222],[69.1,31305],[69.1,31389],[69.1,31472],[69.1,31555],[69.1,31638],[69.1,31722],[69.1,31805],[69.1,31888],[69.1,31971],[69.1,32055],[69.1,32138],[69.1,32221],[69.1,32304],[69.1,32388],[69.1,32471],[69.1,32554],[69.1,32638],[69.1,32721],[69.1,32804],[69.1,32887],[69.1,32971],[69.1,33054],[69.1,33137],[69.1,33220],[69.1,33304],[69.1,33387],[69.3,33470],[70.8,33553],[72.6,33637],[74.4,33720],[76,33803],[77.3,33887],[78.4,33970],[79.9,34053],[81.3,34136],[82,34220],[82.3,34303],[82.3,34386],[82.3,34469],[82.3,34552],[82.3,34636],[82.3,34719],[82.3,34802],[82.3,34886],[82.3,34969],[82.3,35052],[82.3,35135],[82.3,35218],[82.3,35302],[82.3,35385],[82.3,35468],[82.3,35552],[82.3,35635],[82.3,35718],[82.3,35802],[82.3,35885],[82.3,35968],[82.3,36051],[82.3,36134],[82.3,36218],[82.3,36301],[82.3,36384],[82.3,36468],[82.3,36551],[82.3,36634],[82.3,36717],[82.3,36800],[82.3,36884],[82.3,36967],[82.3,37050],[82.3,37134],[82.3,37217],[82.3,37300],[82.3,37383],[82.3,37466],[82.3,37550],[82.3,37633],[82.3,37716],[82.3,37799],[82.3,37883],[82.3,37966],[82.3,38049],[82.3,38132],[82.3,38216],[82.3,38299],[82.3,38383],[82.3,38466],[82.3,38549],[82.3,38632],[82.3,38715],[82.3,38799],[82.3,38882],[82.3,38966],[82.3,39048],[82.3,39132],[82.3,39215],[82.3,39298],[82.3,39382],[82.3,39464],[82.3,39548],[82.3,39631],[82.3,39715],[82.3,39798],[82.3,39881],[82.3,39964],[82.3,40048],[82.3,40131],[82.3,40214],[82.3,40298],[82.4,40381],[82.4,40464],[82.4,40547],[82.4,40631],[82.4,40714],[82.4,40797],[82.4,40880],[82.4,40963],[82.4,41047],[82.4,41130],[82.4,41213],[82.4,41297],[82.4,41380],[82.4,41463],[82.4,41546],[82.4,41629],[82.4,41713],[82.4,41796],[82.4,41879],[82.4,41963],[82.4,42046],[82.4,42129],[82.4,42213],[82.4,42296],[82.4,42379],[82.4,42462],[82.4,42545],[82.4,42629],[82.4,42712],[82.4,42795],[82.4,42878],[82.4,42962],[82.4,43045],[82.4,43128],[82.4,43211],[82.4,43295],[82.4,43378],[82.4,43461],[82.4,43545],[82.4,43628],[82.4,43711],[82.4,43794],[82.4,43878],[82.4,43961],[82.4,44044],[82.4,44127],[82.4,44211],[82.4,44294],[82.4,44377],[82.4,44461],[82.4,44544],[82.4,44627],[82.4,44710],[82.4,44793],[82.4,44877],[82.4,44960],[82.4,45043],[82.4,45127],[82.4,45210],[82.4,45293],[82.4,45377],[82.4,45460],[82.4,45543],[82.4,45626],[82.4,45709],[82.4,45793],[82.4,45876],[82.4,45959],[82.4,46042],[82.4,46126],[82.4,46209],[82.4,46292],[82.4,46375],[82.4,46458],[82.4,46542],[82.4,46625],[82.4,46708],[82.4,46792],[82.4,46875],[82.4,46958],[82.4,47041],[82.4,47125],[82.4,47208],[82.4,47291],[82.4,47375],[82.4,47458],[82.4,47541],[82.4,47624],[82.4,47708],[82.4,47791],[82.4,47874],[82.4,47958],[82.4,48041],[82.4,48124],[82.4,48207],[82.4,48291],[82.4,48374],[82.4,48457],[82.4,48541],[82.4,48624],[82.4,48707],[82.4,48790],[82.4,48873],[82.4,48956],[82.4,49040],[82.4,49123],[82.4,49206],[82.4,49289],[82.4,49372],[82.4,49456],[82.4,49540],[82.4,49623],[82.4,49706],[82.4,49789],[82.4,49873],[82.4,49956],[82.4,50039],[82.4,50122],[82.4,50206],[82.4,50289],[82.4,50372],[82.4,50455],[82.4,50538],[82.4,50622],[82.4,50705],[82.4,50788],[82.4,50872],[82.4,50955],[82.4,51038],[82.4,51122],[82.4,51205],[83.1,51288],[83.9,51371],[85.3,51455],[86.1,51538],[86.5,51621],[86.5,51704],[86.5,51788],[86.5,51871],[86.5,51954],[86.5,52037],[86.5,52121],[86.5,52204],[86.5,52287],[86.5,52370],[86.5,52453],[86.5,52537],[86.5,52620],[86.5,52704],[86.5,52787],[86.5,52870],[86.5,52953],[86.5,53036],[86.5,53120],[86.5,53203],[86.5,53286],[86.5,53369],[86.5,53453],[86.5,53536],[86.5,53619],[86.5,53703],[86.5,53786],[86.5,53869],[86.5,53952],[86.5,54036],[86.5,54119],[86.5,54202],[86.5,54285],[86.5,54369],[86.5,54452],[86.5,54535],[86.5,54618],[86.5,54702],[86.5,54785],[86.5,54868],[86.5,54951],[86.5,55035],[86.5,55118],[86.5,55201],[86.5,55285],[86.5,55368],[86.5,55451],[86.5,55534],[86.5,55618],[86.5,55701],[86.5,55784],[86.5,55867]]",203.7503,209.8607,90.52084287,1.3587,"[{""rating"":90.52084287007649,""responseTime"":1.3586999999881186}]",space,5.5656,,209.8608,Definitely yes,100,209.8635,,,[],,0,1,1,1,1,audio/Narrative7Situation1.wav,audio/Narrative8Situation1.wav,audio/Narrative5Situation1.wav,audio/Narrative6Situation1.wav,2,5,5,2,2.9155,,,,,,,,,,,,,,,,,,,,,,,,,,,,,,,,,,,,,,
,,,,,5fc2c0cfdb80f9025c6b4810,2025-07-08_00h22.03.597,group3.4_multiperson,2023.2.2,Win32,60.24096386,686c2ebf0248f13bef9af11f,686c9bd86b2de1eab73e6b2c,,,,,,,,,,,,,,,,,,,,,,,,,,,,,209.8639,1,audio/Narrative7Situation2.wav,212.8747,,212.8747,220.3685,"[[999,0],[999,83],[999,166],[999,249],[999,333],[999,416],[999,499],[999,582],[999,665],[999,749],[999,832],[999,915],[999,999],[999,1082],[999,1165],[999,1249],[999,1332],[999,1415],[999,1499],[999,1581],[999,1665],[999,1748],[999,1831],[999,1915],[999,1998],[999,2081],[999,2165],[82.5,2248],[84.7,2331],[86.5,2414],[87.5,2497],[87.9,2581],[89.1,2664],[90.5,2747],[90.6,2830],[90.6,2914],[90.6,2997],[90.6,3080],[90.6,3163],[90.6,3247],[90.6,3330],[90.6,3413],[90.6,3497],[90.6,3580],[90.6,3663],[90.6,3746],[90.6,3829],[90.6,3913],[90.6,3996],[90.6,4079],[90.6,4163],[90.6,4246],[90.6,4329],[90.6,4412],[90.6,4496],[90.6,4579],[90.6,4662],[90.6,4745],[90.6,4829],[90.6,4912],[90.6,4995],[90.6,5078],[90.6,5162],[90.6,5245],[90.6,5328],[90.6,5412],[90.6,5495],[90.6,5578],[90.6,5661],[90.6,5745],[90.6,5828],[90.6,5911],[90.6,5994],[90.6,6077],[90.6,6161],[90.6,6244],[90.6,6327],[90.6,6410],[90.6,6494],[90.6,6577],[90.6,6660],[90.6,6744],[90.6,6827],[90.6,6910],[90.6,6993],[90.6,7076],[90.6,7160],[90.6,7243],[90.6,7327],[90.6,7410],[90.6,7493]]",220.3687,223.3996,90.20833969,1.668,"[{""rating"":90.20833969116211,""responseTime"":1.6680000000000064}]",space,2.4917,,223.3998,Partially,50,223.4067,,,[],,0,2,2,2,1,audio/Narrative7Situation2.wav,audio/Narrative8Situation2.wav,audio/Narrative5Situation2.wav,audio/Narrative6Situation2.wav,3,3,3,3,,,,,,,,,,,,,,,,,,,,,,,,,,,,,,,,,,,,,,,
,,,,,5fc2c0cfdb80f9025c6b4810,2025-07-08_00h22.03.597,group3.4_multiperson,2023.2.2,Win32,60.24096386,686c2ebf0248f13bef9af11f,686c9bd86b2de1eab73e6b2c,,,,,,,,,,,,,,,,,,,,,,,,,,,,,223.4071,1,audio/Narrative7Situation3.wav,231.409,,231.409,240.6672,"[[999,0],[999,82],[999,166],[999,249],[999,332],[999,415],[999,498],[999,582],[999,665],[999,748],[999,832],[999,915],[999,998],[999,1081],[999,1165],[999,1248],[999,1331],[999,1414],[999,1498],[999,1581],[999,1664],[999,1747],[999,1831],[999,1914],[999,1997],[999,2081],[999,2164],[999,2247],[999,2331],[999,2414],[999,2497],[999,2580],[999,2664],[999,2747],[84.9,2830],[85,2913],[85,2997],[85,3080],[85.2,3163],[85.4,3246],[85.4,3329],[85.5,3413],[85.5,3496],[85.5,3580],[85.5,3663],[85.6,3746],[85.6,3829],[85.6,3912],[85.6,3996],[85.6,4079],[85.6,4162],[85.6,4245],[85.6,4329],[85.6,4412],[85.6,4495],[85.6,4579],[85.6,4662],[85.6,4745],[85.6,4828],[85.6,4911],[85.6,4995],[85.6,5078],[85.6,5161],[85.6,5244],[85.6,5328],[85.6,5411],[85.6,5494],[85.6,5577],[85.6,5660],[85.6,5744],[85.6,5827],[85.6,5911],[85.6,5994],[85.6,6077],[85.6,6160],[85.6,6244],[86.3,6327],[87.5,6410],[88,6493],[88.9,6577],[89.6,6660],[90,6743],[90.1,6827],[90.1,6910],[90.1,6993],[90.1,7076],[90.1,7160],[90.1,7243],[90.1,7326],[90.1,7409],[90.1,7492],[90.1,7576],[90.1,7659],[90.1,7742],[90.1,7826],[90.1,7909],[90.1,7992],[90.1,8075],[90.1,8158],[90.1,8242],[90.1,8325],[90.1,8408],[90.1,8492],[90.1,8575],[90.1,8658],[90.1,8742],[90.1,8825],[90.1,8908],[90.1,8991],[90.1,9075],[90.1,9158],[90.1,9241]]",240.6674,244.4306,84.7916762,2.8394,"[{""rating"":84.79167620340984,""responseTime"":2.8394000000357664}]",space,3.2146,,244.4307,Definitely yes,100,244.4354,,,[],,0,3,3,3,1,audio/Narrative7Situation3.wav,audio/Narrative8Situation3.wav,audio/Narrative5Situation3.wav,audio/Narrative6Situation3.wav,8,4,3,5,,,,,,,,,,,,,,,,,,,,,,,,,,,,,,,,,,,,,,,
,,,,,5fc2c0cfdb80f9025c6b4810,2025-07-08_00h22.03.597,group3.4_multiperson,2023.2.2,Win32,60.24096386,686c2ebf0248f13bef9af11f,686c9bd86b2de1eab73e6b2c,,,,,,,,,,,,,,,,,,,,,,,,,,,,,244.4357,1,audio/Narrative7Situation4.wav,247.4445,,247.4445,259.1847,"[[86.5,2664],[87.9,2747],[89.1,2831],[89.3,2914],[89.4,2997],[89.6,3080],[90.1,3163],[90.1,3247],[90.1,3330],[90.1,3413],[90.1,3497],[90.1,3580],[90.1,3663],[90.1,3746],[90.1,3829],[90.1,3913],[90.1,3996],[90.1,4079],[90.1,4163],[90.1,4246],[90.1,4329],[90.1,4412],[90.1,4496],[90.1,4579],[90.1,4662],[90.1,4745],[90.1,4829],[90.1,4912],[90.1,4995],[89.7,5078],[87.1,5162],[85.1,5245],[82.9,5328],[79.6,5412],[72.4,5495],[66.9,5578],[63.4,5662],[61.1,5745],[59.3,5828],[57.1,5911],[52.1,5994],[50.2,6078],[48.8,6161],[47.5,6244],[45.8,6328],[40.7,6411],[31.7,6494],[26.3,6577],[25.6,6660],[24.3,6744],[22,6827],[19.7,6910],[17,6994],[14.4,7077],[13.1,7160],[12.3,7244],[12.3,7327],[12.3,7410],[12.3,7493],[12.3,7576],[12.2,7660],[11.7,7743],[10.9,7826],[10.6,7909],[10.5,7992],[9,8076],[8.4,8159],[7.7,8242],[7.5,8326],[7.4,8409],[7.4,8492],[7.4,8576],[7.4,8658],[7.4,8742],[7.4,8825],[7.4,8908],[7.4,8992],[7.4,9075],[7.4,9158],[7.4,9242],[7.4,9325],[7.4,9408],[7.4,9491],[7.4,9575],[7.4,9658],[7.4,9741],[7.4,9824],[7.4,9908],[7.4,9991],[7.4,10074],[7.4,10157],[7.4,10240],[7.4,10324],[7.4,10407],[7.4,10490],[7.4,10574],[7.4,10657],[7.4,10740],[7.1,10823],[7.1,10907],[7.1,10990],[7.1,11073],[7.1,11157],[7.1,11240],[7.1,11323],[7.1,11406],[7.1,11490],[7.1,11573],[7.1,11656],[7.1,11739]]",259.1848,266.5447,1.250000795,5.844,"[{""rating"":1.2500007947285952,""responseTime"":5.843999999999994}]",space,6.8153,,266.5448,Not at all,0,266.5489,,,[],,0,4,4,4,1,audio/Narrative7Situation4.wav,audio/Narrative8Situation4.wav,audio/Narrative5Situation4.wav,audio/Narrative6Situation4.wav,3,3,1,2,,,,,,,,,,,,,,,,,,,,,,,,,,,,,,,,,,,,,,,
,,,,,5fc2c0cfdb80f9025c6b4810,2025-07-08_00h22.03.597,group3.4_multiperson,2023.2.2,Win32,60.24096386,686c2ebf0248f13bef9af11f,686c9bd86b2de1eab73e6b2c,,,,,,,,,,,,,,,,,,,,,,,,,,,,,266.5491,1,audio/Narrative7Situation5.wav,271.5571,,271.5572,280.0497,"[[47.6,249],[47.7,332],[47.7,415],[47.8,499],[47.8,582],[47.8,665],[47.8,749],[47.8,832],[47.8,915],[47.8,999],[47.8,1082],[47.8,1165],[47.6,1248],[47.4,1331],[47.4,1415],[47.4,1498],[47.6,1581],[47.9,1665],[48.6,1748],[48.9,1831],[48.9,1914],[48.9,1997],[48.9,2081],[48.9,2164],[48.9,2247],[48.9,2331],[48.9,2414],[48.9,2497],[48.9,2580],[48.9,2664],[48.9,2747],[48.9,2830],[47.5,2913],[45.9,2997],[44.3,3080],[43.9,3163],[43.6,3246],[43.6,3329],[43.4,3413],[42,3496],[40.2,3579],[38.2,3663],[36.5,3746],[36,3829],[36,3913],[35.5,3996],[32.5,4079],[30.8,4162],[29.8,4246],[29.6,4329],[29.3,4412],[29.1,4495],[28.4,4579],[26.8,4662],[25,4745],[23.8,4829],[23.3,4912],[23.3,4995],[23.3,5078],[23.3,5161],[23.3,5244],[23.3,5328],[23.3,5411],[23.3,5494],[23.3,5577],[23.3,5661],[23.3,5744],[23.3,5827],[23.3,5911],[23.3,5994],[23.3,6077],[23.3,6161],[23.3,6244],[23.3,6327],[23.3,6410],[23.3,6494],[23.3,6577],[23.3,6660],[23.3,6743],[23.3,6826],[23.3,6910],[23.6,6993],[23.8,7076],[23.8,7160],[23.8,7243],[23.8,7326],[23.8,7409],[23.8,7493],[23.8,7576],[23.8,7659],[23.8,7743],[23.8,7826],[23.8,7909],[23.8,7992],[23.8,8075],[23.8,8158],[23.8,8242],[23.8,8325],[23.8,8408],[23.8,8492]]",280.0498,283.1304,49.79166985,1.8576,"[{""rating"":49.791669845581055,""responseTime"":1.8576000000238082}]",space,2.5381,,283.1304,Not at all,0,283.132,,,[],,0,5,5,5,1,audio/Narrative7Situation5.wav,audio/Narrative8Situation5.wav,audio/Narrative5Situation5.wav,audio/Narrative6Situation5.wav,5,2,5,2,,,,,,,,,,,,,,,,,,,,,,,,,,,,,,,,,,,,,,,
,,,,,5fc2c0cfdb80f9025c6b4810,2025-07-08_00h22.03.597,group3.4_multiperson,2023.2.2,Win32,60.24096386,686c2ebf0248f13bef9af11f,686c9bd86b2de1eab73e6b2c,,,,,,,,,,,,,,,,,,,,,,,,,,,,,283.1325,1,audio/Narrative7Situation6.wav,286.1443,,286.1444,296.1189,"[[999,0],[999,82],[999,166],[999,249],[999,332],[999,415],[999,499],[999,582],[999,665],[999,749],[999,832],[999,915],[999,998],[999,1082],[999,1165],[999,1248],[999,1331],[999,1415],[999,1498],[999,1581],[999,1665],[999,1748],[999,1831],[999,1915],[61.9,1998],[62.9,2081],[64,2164],[64.5,2247],[64.6,2331],[64.6,2414],[64.6,2497],[64.6,2580],[64.6,2664],[64.6,2747],[64.6,2830],[64.6,2913],[64.6,2997],[64.6,3080],[64.6,3163],[64.6,3246],[64.6,3330],[64.6,3413],[64.6,3496],[64.6,3580],[64.6,3663],[64.6,3746],[64.6,3829],[64.6,3912],[64.6,3996],[66,4079],[68.4,4163],[70.7,4246],[73.3,4329],[74.4,4412],[74.7,4496],[75.8,4579],[79.7,4662],[80.5,4745],[80.7,4829],[80.8,4912],[80.9,4995],[80.9,5079],[80.9,5162],[80.9,5245],[80.9,5328],[80.9,5412],[80.9,5495],[80.9,5578],[80.9,5661],[80.9,5744],[80.9,5828],[80.9,5911],[80.9,5994],[80.9,6077],[80.9,6161],[80.9,6244],[80.9,6327],[80.9,6410],[80.9,6494],[80.9,6577],[80.9,6660],[80.9,6744],[80.9,6827],[80.9,6910],[81.1,6994],[81.4,7076],[81.6,7160],[81.8,7243],[81.8,7326],[81.8,7410],[81.8,7493],[81.8,7576],[81.8,7659],[81.8,7742],[81.8,7826],[81.8,7909],[81.8,7992],[81.8,8076],[81.8,8159],[81.8,8242],[81.8,8325],[81.8,8408],[81.8,8492],[81.8,8575],[81.8,8658],[81.8,8742],[81.8,8825],[81.8,8908],[81.8,8992],[81.8,9075],[81.8,9158],[81.8,9241],[81.8,9324],[81.8,9408],[81.8,9491],[81.8,9574],[81.8,9658],[81.8,9741],[81.8,9824],[81.8,9907]]",296.1192,298.2005,85.9375,1.3903,"[{""rating"":85.9375,""responseTime"":1.390300000011905}]",space,1.5414,,298.2006,Definitely yes,100,298.2058,,,[],,0,6,6,6,1,audio/Narrative7Situation6.wav,audio/Narrative8Situation6.wav,audio/Narrative5Situation6.wav,audio/Narrative6Situation6.wav,3,2,3,2,,,,,,,,,,,,,,,,,,,,,,,,,,,,,,,,,,,,,,,
,,,,,5fc2c0cfdb80f9025c6b4810,2025-07-08_00h22.03.597,group3.4_multiperson,2023.2.2,Win32,60.24096386,686c2ebf0248f13bef9af11f,686c9bd86b2de1eab73e6b2c,,,,,,,,,,,,,,,,,,,,,,,,,,,,,298.2062,1,audio/Narrative7Situation7.wav,303.2129,,303.213,320.3977,"[[999,0],[999,82],[999,166],[999,249],[999,332],[999,415],[999,499],[999,582],[999,665],[999,748],[999,832],[999,915],[999,998],[999,1082],[999,1165],[999,1248],[999,1331],[999,1414],[999,1498],[999,1581],[999,1665],[78.6,1748],[78.6,1831],[78.6,1914],[78.5,1997],[78.5,2081],[78.5,2164],[78.5,2247],[78.5,2330],[78.5,2414],[79.5,2497],[79.7,2580],[79.7,2663],[80.3,2747],[81.3,2830],[81.8,2914],[82.3,2997],[82.6,3080],[82.6,3163],[82.6,3246],[82.6,3330],[82.6,3413],[82.6,3496],[82.6,3579],[82.6,3663],[82.6,3746],[82.6,3829],[82.6,3913],[82.6,3996],[82.6,4079],[82.6,4162],[82.6,4245],[82.6,4329],[82.6,4412],[82.6,4495],[82.6,4579],[82.6,4662],[82.6,4745],[82.6,4828],[82.6,4911],[82.6,4995],[82.6,5078],[82.6,5161],[82.6,5245],[82.6,5328],[82.6,5411],[82.6,5494],[82.6,5578],[82.6,5661],[82.6,5744],[82.6,5827],[82.6,5911],[82.6,5994],[82.6,6077],[82.6,6160],[82.6,6244],[82.6,6327],[82.6,6410],[82.6,6493],[82.6,6577],[82.6,6660],[82.6,6743],[82.6,6827],[82.6,6910],[82.6,6993],[82.6,7076],[82.6,7159],[82.6,7243],[82.7,7326],[82.8,7409],[83.1,7493],[83.2,7576],[83.3,7659],[83.3,7742],[83.3,7826],[83.3,7909],[83.3,7992],[83.3,8075],[83.3,8159],[83.3,8242],[83.3,8325],[83.3,8408],[83.3,8492],[83.3,8575],[83.3,8658],[83.3,8741],[83.3,8825],[83.3,8908],[83.3,8991],[83.3,9075],[83.3,9158],[83.3,9241],[83.3,9324],[83.3,9407],[83.3,9491],[83.3,9574],[83.3,9657],[83.3,9741],[83.3,9824],[83.3,9907],[83.2,9990],[83.2,10074],[83.2,10157],[83.2,10240],[83.2,10323],[83.2,10407],[83.2,10490],[83.2,10573],[83.2,10657],[83.2,10740],[83.2,10823],[83.2,10906],[83.2,10990],[83.2,11073],[83.2,11156],[83.2,11240],[83.2,11323],[83.2,11406],[83.3,11489],[84.8,11572],[86.5,11656],[87.8,11739],[88.5,11822],[90,11905],[91.5,11989],[92.4,12072],[92.5,12155],[92.5,12239],[92.5,12322],[92.5,12405],[92.5,12488],[92.5,12571],[92.5,12655],[92.5,12738],[92.5,12821],[92.5,12905],[92.5,12988],[92.5,13071],[92.5,13154],[92.5,13238],[92.5,13321],[92.5,13404],[92.5,13487],[92.5,13571],[92.5,13654],[92.5,13737],[92.5,13820],[92.5,13904],[92.5,13987],[92.5,14070],[92.5,14153],[92.5,14237],[92.5,14320],[92.5,14403],[92.5,14487],[92.5,14570],[92.5,14653],[92.5,14736],[92.5,14820],[92.5,14903],[92.5,14986],[92.5,15069],[92.5,15152],[92.5,15236],[92.5,15319],[92.6,15402],[92.6,15486],[92.7,15569],[92.7,15652],[92.7,15735],[92.6,15818],[92.3,15902],[92.3,15985],[92.3,16068],[92.3,16151],[92.3,16235],[92.3,16318],[92.3,16402],[92.3,16485],[92.2,16568],[92.1,16652],[92.1,16734],[92.1,16818],[92.1,16901],[92.2,16984],[92.2,17067],[92.2,17151]]",320.3979,323.3951,97.81250954,1.4032,"[{""rating"":97.81250953674316,""responseTime"":1.4031999999880327}]",space,2.4483,,323.3952,Not at all,0,323.3995,,,[],,0,7,7,7,1,audio/Narrative7Situation7.wav,audio/Narrative8Situation7.wav,audio/Narrative5Situation7.wav,audio/Narrative6Situation7.wav,5,3,4,5,,,,,,,,,,,,,,,,,,,,,,,,,,,,,,,,,,,,,,,
,,,,,5fc2c0cfdb80f9025c6b4810,2025-07-08_00h22.03.597,group3.4_multiperson,2023.2.2,Win32,60.24096386,686c2ebf0248f13bef9af11f,686c9bd86b2de1eab73e6b2c,,,,,,,,,,,,,,,,,,,,,,,,,,,,,323.3999,1,audio/Narrative7Situation8.wav,325.41,,325.4101,335.4347,"[[97.4,1498],[97.4,1581],[97.4,1664],[97.4,1748],[97.4,1831],[97.4,1914],[97.4,1998],[97.4,2081],[97.4,2164],[97.4,2247],[97.4,2331],[97.4,2414],[97.4,2497],[97.4,2580],[97.4,2664],[97.4,2747],[97.4,2830],[97.4,2913],[97.4,2997],[97.4,3080],[97.4,3163],[97.4,3247],[97.4,3330],[97.4,3413],[97.4,3496],[97.4,3580],[97.4,3663],[97.4,3746],[97.4,3829],[97.4,3913],[97.4,3996],[97.4,4079],[97.4,4162],[97.4,4246],[97.4,4329],[97.4,4412],[97.4,4495],[97.4,4579],[97.4,4662],[97.4,4745],[97.4,4828],[97.4,4912],[97.4,4995],[97.4,5078],[97.4,5161],[97.4,5245],[97.4,5328],[97.4,5411],[97.4,5495],[97.4,5578],[97.4,5661],[97.4,5744],[97.4,5828],[97.4,5911],[97.4,5994],[97.4,6077],[97.4,6161],[97.4,6244],[97.4,6327],[97.4,6410],[97.4,6494],[97.4,6577],[97.4,6660],[97.4,6743],[97.4,6827],[97.6,6910],[97.7,6993],[97.8,7076],[97.8,7160],[97.8,7243],[97.8,7326],[97.8,7410],[97.8,7493],[97.8,7576],[97.8,7659],[97.8,7743],[97.8,7826],[97.8,7909],[97.8,7992],[97.8,8076],[97.8,8159],[97.8,8242],[97.8,8325],[97.8,8409],[97.8,8492],[97.8,8575],[97.8,8659],[97.8,8742],[97.8,8825],[97.8,8908],[97.8,8991],[97.8,9075],[97.8,9158],[97.8,9241],[97.8,9325],[97.8,9408],[97.8,9491],[97.8,9574],[97.8,9658],[97.6,9741],[97.1,9824],[97.1,9907],[97,9991]]",335.4348,337.8825,97.50000636,0.8025,"[{""rating"":97.50000635782878,""responseTime"":0.8025000000000091}]",space,1.9056,,337.8826,Not at all,0,337.8867,,,[],,0,8,8,8,1,audio/Narrative7Situation8.wav,audio/Narrative8Situation8.wav,audio/Narrative5Situation8.wav,audio/Narrative6Situation8.wav,2,3,3,5,,,,,,,,,,,,,,,,,,,,,,,,,,,,,,,,,,,,,,,
,,,,,5fc2c0cfdb80f9025c6b4810,2025-07-08_00h22.03.597,group3.4_multiperson,2023.2.2,Win32,60.24096386,686c2ebf0248f13bef9af11f,686c9bd86b2de1eab73e6b2c,,,,,,,,,,,,,,,,,,,,,,,,,,,,,337.8871,1,audio/Narrative7Situation9.wav,339.8974,,339.8975,348.54,"[[97.2,1082],[96.9,1165],[96.7,1249],[96.7,1332],[96.7,1415],[96.7,1498],[96.7,1581],[96.7,1665],[96.7,1748],[96.7,1831],[96.7,1914],[96.7,1998],[96.7,2081],[96.7,2164],[96.7,2247],[96.7,2331],[96.7,2414],[96.7,2497],[96.7,2580],[96.7,2664],[96.7,2747],[96.7,2830],[96.7,2914],[96.7,2997],[96.7,3080],[96.7,3164],[96.7,3247],[96.7,3330],[96.7,3413],[96.7,3497],[96.7,3580],[96.7,3663],[96.7,3746],[96.7,3830],[96.7,3913],[96.7,3996],[96.7,4079],[96.7,4162],[96.7,4246],[96.7,4329],[96.7,4412],[96.7,4496],[96.7,4579],[96.7,4662],[96.7,4745],[96.7,4829],[96.7,4912],[96.7,4995],[96.7,5078],[96.7,5161],[96.7,5245],[96.7,5328],[96.7,5411],[96.7,5495],[96.7,5578],[96.7,5661],[96.7,5744],[96.7,5828],[96.7,5911],[96.7,5994],[96.7,6078],[96.7,6161],[96.7,6244],[96.7,6327],[96.7,6411],[96.7,6494],[96.7,6577],[96.7,6660],[96.7,6744],[96.7,6827],[96.7,6910],[96.7,6993],[96.7,7077],[96.7,7160],[96.7,7243],[96.7,7326],[96.7,7410],[96.7,7493],[96.7,7576],[96.7,7659],[96.7,7743],[96.7,7826],[96.7,7909],[96.7,7993],[96.7,8076],[96.7,8159],[96.7,8242],[96.7,8326],[96.7,8409],[96.7,8492],[96.7,8575]]",348.5401,350.5216,97.2916762,0.9911,"[{""rating"":97.29167620340984,""responseTime"":0.9911000000238346}]",space,1.4323,,350.5217,Definitely yes,100,350.5251,,,[],,0,9,9,9,1,audio/Narrative7Situation9.wav,audio/Narrative8Situation9.wav,audio/Narrative5Situation9.wav,audio/Narrative6Situation9.wav,2,3,3,4,,,,,,,,,,,,,,,,,,,,,,,,,,,,,,,,,,,,,,,
,,,,,5fc2c0cfdb80f9025c6b4810,2025-07-08_00h22.03.597,group3.4_multiperson,2023.2.2,Win32,60.24096386,686c2ebf0248f13bef9af11f,686c9bd86b2de1eab73e6b2c,,,,,,,,,,,,,,,,,,,,,,,,,,,,,350.5255,1,audio/Narrative8Situation1.wav,355.5339,,355.5339,371.4701,"[[96.6,1748],[96.6,1831],[96.5,1915],[95.5,1998],[94.2,2081],[93.3,2165],[93.3,2247],[93.3,2331],[93.3,2414],[93.3,2497],[93.3,2581],[93.3,2664],[93.3,2747],[93.3,2830],[93.3,2913],[93.3,2997],[93.3,3080],[93.3,3163],[93.3,3247],[93.3,3330],[93.3,3413],[93.3,3496],[93.3,3580],[93.3,3663],[93.3,3746],[93.3,3829],[93.3,3913],[93.3,3996],[93.3,4079],[93.3,4162],[93.3,4246],[93.3,4329],[93.3,4412],[93.3,4496],[93.3,4579],[93.3,4662],[93.3,4745],[93.3,4828],[93.3,4912],[93.3,4995],[93.3,5078],[93.3,5162],[93.3,5245],[93.3,5328],[93.3,5411],[93.3,5495],[93.3,5578],[93.3,5661],[93.3,5745],[93.3,5828],[93.3,5911],[93.3,5994],[93.3,6078],[93.3,6161],[93.3,6244],[93.3,6327],[93.3,6410],[93.3,6494],[93.3,6577],[93.3,6660],[93.3,6744],[93.3,6827],[93.3,6910],[93.3,6993],[93.3,7077],[93.3,7160],[93.3,7243],[93.3,7326],[93.3,7410],[93.3,7493],[93.3,7576],[93.3,7659],[93.3,7742],[93.3,7826],[93.3,7909],[93.3,7992],[93.3,8076],[93.3,8159],[93.3,8242],[93.3,8325],[93.3,8409],[93.3,8492],[93.3,8575],[93.3,8659],[93.3,8742],[93.3,8825],[93.3,8908],[93.3,8991],[93.3,9075],[93.3,9158],[93.3,9241],[93.3,9324],[93.3,9408],[93.3,9491],[93.3,9574],[93.3,9658],[93.3,9741],[93.3,9824],[93.3,9908],[93.3,9991],[93.3,10074],[93.3,10157],[93.3,10240],[93.3,10324],[93.3,10407],[93.3,10490],[93.3,10573],[93.3,10657],[93.3,10740],[93.3,10823],[93.3,10907],[93.3,10990],[93.3,11073],[93.3,11156],[93.3,11240],[93.3,11323],[93.3,11406],[93.3,11489],[93.3,11573],[93.3,11656],[93.3,11739],[93.3,11823],[93.3,11906],[93.3,11989],[93.3,12072],[93.3,12156],[93.3,12239],[93.3,12322],[93.3,12405],[93.3,12489],[93.3,12572],[93.3,12655],[93.3,12738],[93.3,12822],[93.3,12905],[93.3,12988],[93.3,13071],[93.3,13155],[93.3,13238],[93.3,13321],[93.3,13404],[93.3,13488],[93.3,13571],[93.3,13654],[93.3,13738],[93.3,13821],[93.3,13904],[93.3,13987],[93.3,14070],[93.3,14154],[93.3,14237],[93.3,14320],[93.3,14403],[93.3,14487],[93.3,14570],[93.3,14653],[93.3,14736],[93.3,14820],[93.3,14903],[93.3,14986],[93.3,15069],[93.3,15153],[93.3,15236],[93.3,15319],[93.3,15403],[93.3,15486],[93.3,15569],[93.3,15652],[93.3,15736],[93.3,15819],[93.3,15902]]",371.4703,374.5837,94.27083333,2.1269,"[{""rating"":94.27083333333333,""responseTime"":2.1268999999761604}]",space,2.5709,,374.5838,Not at all,0,374.5869,,,[],,0,10,10,10,1,audio/Narrative8Situation1.wav,audio/Narrative7Situation1.wav,audio/Narrative6Situation1.wav,audio/Narrative5Situation1.wav,5,2,2,5,,,,,,,,,,,,,,,,,,,,,,,,,,,,,,,,,,,,,,,
,,,,,5fc2c0cfdb80f9025c6b4810,2025-07-08_00h22.03.597,group3.4_multiperson,2023.2.2,Win32,60.24096386,686c2ebf0248f13bef9af11f,686c9bd86b2de1eab73e6b2c,,,,,,,,,,,,,,,,,,,,,,,,,,,,,374.5872,1,audio/Narrative8Situation2.wav,377.598,,377.598,387.706,"[[93.3,416],[92.5,499],[92.5,582],[92.5,665],[92.6,749],[92.6,832],[92.6,915],[92.7,999],[92.7,1082],[92.7,1165],[92.7,1248],[92.7,1331],[92.7,1415],[92.7,1498],[92.7,1581],[92.7,1665],[92.7,1748],[92.7,1831],[92.7,1914],[92.7,1998],[92.7,2081],[92.7,2164],[92.7,2247],[92.7,2331],[92.7,2414],[92.7,2497],[92.7,2580],[92.7,2664],[91.8,2747],[90.2,2830],[89.8,2913],[89.8,2997],[89.8,3080],[89.8,3163],[89.7,3246],[84.2,3330],[68.3,3413],[60.3,3497],[49.3,3580],[37.6,3663],[30.5,3746],[28.9,3830],[27.1,3913],[26.3,3996],[25.2,4079],[24.7,4162],[24.6,4246],[24.1,4329],[22.2,4413],[19.1,4495],[16.9,4579],[16.5,4662],[15.7,4745],[15.5,4829],[15,4912],[14.8,4995],[14.2,5078],[13.9,5162],[13.2,5245],[13.1,5328],[12.9,5411],[12.4,5495],[12.1,5578],[12.1,5661],[11.9,5744],[11.7,5828],[11.4,5911],[10.8,5994],[10.5,6078],[10,6161],[9.3,6244],[9,6328],[8.8,6411],[8.5,6494],[8.2,6577],[7.9,6660],[7.4,6744],[6.9,6827],[6.7,6910],[6.7,6993],[6.7,7076],[6.7,7160],[6.7,7243],[6.7,7326],[6.7,7410],[6.7,7493],[6.7,7576],[6.7,7659],[6.7,7743],[6.7,7826],[6.7,7909],[6.7,7992],[6.7,8076],[6.7,8159],[6.7,8242],[6.7,8326],[6.7,8409],[6.7,8492],[6.7,8575],[6.7,8658],[6.7,8742],[6.7,8825],[6.7,8908],[6.7,8991],[6.7,9074],[6.7,9158],[6.7,9241],[6.7,9324],[6.7,9408],[6.7,9491],[6.7,9574],[6.6,9658],[6.1,9741],[6,9824],[5.9,9907],[5.9,9991],[5.8,10074]]",387.7062,390.1037,5.416667461,1.3027,"[{""rating"":5.416667461395264,""responseTime"":1.3026999999880786}]",space,1.8483,,390.1039,Not at all,0,390.1062,,,[],,0,11,11,11,1,audio/Narrative8Situation2.wav,audio/Narrative7Situation2.wav,audio/Narrative6Situation2.wav,audio/Narrative5Situation2.wav,3,3,3,3,,,,,,,,,,,,,,,,,,,,,,,,,,,,,,,,,,,,,,,
,,,,,5fc2c0cfdb80f9025c6b4810,2025-07-08_00h22.03.597,group3.4_multiperson,2023.2.2,Win32,60.24096386,686c2ebf0248f13bef9af11f,686c9bd86b2de1eab73e6b2c,,,,,,,,,,,,,,,,,,,,,,,,,,,,,390.1068,1,audio/Narrative8Situation3.wav,394.1169,,394.1169,416.514,"[[5,1415],[4.9,1498],[4.9,1581],[4.9,1665],[4.9,1748],[4.9,1831],[4.9,1914],[4.9,1998],[4.9,2081],[4.8,2164],[4.8,2247],[4.8,2331],[4.8,2414],[4.6,2497],[4.6,2581],[4.6,2664],[4.6,2747],[4.6,2830],[4.6,2914],[4.6,2997],[6.9,3080],[10.4,3163],[12.4,3247],[15.8,3330],[19.1,3413],[26,3497],[34.1,3580],[40.8,3663],[47.3,3746],[52,3829],[54.7,3913],[59.8,3996],[65.9,4079],[68.1,4162],[70.4,4246],[72.5,4329],[74.5,4413],[76.5,4495],[78.4,4579],[79.2,4662],[79.2,4745],[79.2,4829],[79.2,4912],[79.2,4995],[79.2,5078],[79.2,5162],[79.2,5245],[79.2,5328],[79.2,5411],[79.2,5495],[79.2,5578],[79.2,5661],[79.2,5745],[80,5828],[80.3,5911],[80.4,5994],[80.4,6077],[80.4,6161],[80.4,6244],[80.4,6327],[80.4,6411],[80.4,6494],[80.4,6577],[80.4,6660],[80.4,6743],[80.4,6827],[80.4,6910],[80.4,6993],[80.4,7076],[80.4,7160],[80.4,7243],[80.4,7326],[80.4,7409],[80.4,7493],[80.4,7576],[80.4,7659],[80.4,7742],[80.4,7826],[80.4,7909],[80.4,7992],[80.4,8076],[80.4,8159],[80.4,8242],[80.4,8326],[81.1,8409],[82.3,8492],[83.8,8576],[84.6,8659],[85.4,8742],[85.8,8825],[86,8908],[86.1,8991],[86.3,9075],[86.4,9158],[86.6,9241],[86.8,9324],[86.9,9408],[86.9,9491],[86.9,9574],[87,9658],[87,9741],[87,9824],[87,9907],[87,9991],[87,10074],[87,10157],[87,10240],[87,10324],[87,10407],[87,10490],[87,10573],[87,10657],[87,10740],[87,10824],[87,10907],[87,10990],[87,11074],[87,11156],[87,11240],[87,11323],[87,11406],[87,11490],[87.5,11573],[87.9,11656],[87.9,11739],[87.9,11822],[88,11906],[88,11989],[88,12072],[88,12156],[88,12239],[88,12322],[88,12405],[88,12488],[88,12572],[88,12655],[88,12738],[88,12822],[88,12905],[88,12988],[88,13071],[88,13154],[88,13238],[88,13321],[88,13404],[88,13488],[88,13571],[88,13654],[88,13737],[88,13820],[88.2,13904],[88.3,13987],[88.4,14071],[88.5,14154],[88.5,14237],[88.5,14320],[88.5,14404],[88.5,14487],[88.9,14570],[89,14653],[89.1,14736],[89.1,14820],[89.1,14903],[89.1,14986],[89.3,15070],[89.4,15153],[89.4,15236],[89.5,15319],[89.5,15402],[89.5,15486],[89.5,15569],[89.6,15653],[89.8,15736],[89.9,15819],[89.9,15902],[89.9,15985],[89.9,16069],[89.9,16152],[89.9,16235],[89.9,16319],[89.9,16402],[89.9,16485],[89.9,16568],[89.9,16651],[89.9,16735],[89.9,16818],[89.9,16901],[89.9,16985],[89.9,17068],[89.9,17151],[89.9,17234],[89.9,17318],[89.9,17401],[89.9,17484],[89.9,17567],[89.9,17651],[89.9,17734],[89.9,17817],[90,17901],[90.1,17984],[90.4,18067],[90.6,18150],[90.8,18233],[91,18317],[91.1,18400],[91.1,18483],[91.1,18567],[91.1,18650],[91.1,18733],[91.1,18816],[91.1,18900],[91.1,18983],[91.1,19066],[91.1,19149],[91.1,19233],[91.1,19316],[91.1,19399],[91.1,19483],[91.1,19566],[91.1,19649],[91.1,19732],[91.1,19815],[91.1,19899],[91.1,19982],[91.1,20065],[91.1,20149],[91.1,20232],[91.1,20315],[91.1,20398],[91.1,20481],[91.1,20565],[91.1,20648],[91.1,20731],[91.1,20814],[91.1,20898],[91.1,20981],[91.1,21064],[91.1,21148],[91.1,21231],[91.1,21314],[91.1,21398],[91.1,21481],[91.1,21564],[91.1,21647],[91.1,21730],[91.1,21814],[91.1,21897],[91.1,21980],[91.1,22064],[91.1,22146],[91.1,22248],[91.1,22330]]",416.5145,418.8955,91.87499682,1.2721,"[{""rating"":91.87499682108562,""responseTime"":1.2721000000238405}]",space,1.8324,,418.8956,Not at all,0,418.8977,,,[],,0,12,12,12,1,audio/Narrative8Situation3.wav,audio/Narrative7Situation3.wav,audio/Narrative6Situation3.wav,audio/Narrative5Situation3.wav,4,8,5,3,,,,,,,,,,,,,,,,,,,,,,,,,,,,,,,,,,,,,,,
,,,,,5fc2c0cfdb80f9025c6b4810,2025-07-08_00h22.03.597,group3.4_multiperson,2023.2.2,Win32,60.24096386,686c2ebf0248f13bef9af11f,686c9bd86b2de1eab73e6b2c,,,,,,,,,,,,,,,,,,,,,,,,,,,,,418.8979,1,audio/Narrative8Situation4.wav,421.9099,,421.91,436.0974,"[[92.7,2584],[94.3,2668],[95.1,2747],[95.2,2830],[95.3,2913],[95.3,2996],[95.3,3079],[95.3,3167],[95.3,3250],[95.3,3329],[95.3,3413],[95.3,3496],[95.3,3579],[95.3,3662],[95.3,3745],[95.3,3829],[95.3,3912],[95.3,3995],[95.3,4079],[95.3,4162],[95.3,4245],[95.3,4328],[95.3,4412],[95.3,4495],[95.3,4578],[95.3,4662],[95.3,4745],[95.3,4828],[95.3,4911],[95.3,4995],[95.3,5078],[95.3,5161],[95.3,5244],[95.3,5328],[95.3,5411],[95.3,5494],[95.3,5577],[95.3,5660],[95.3,5744],[95.3,5827],[95.3,5910],[95.3,5994],[95.3,6077],[95.3,6160],[95.3,6243],[95.3,6327],[95.3,6410],[95.3,6493],[95.3,6577],[95.3,6660],[95.3,6743],[95.3,6826],[95.3,6909],[95.3,6993],[95.3,7076],[95.3,7160],[95.3,7242],[95.3,7326],[95.3,7409],[95.3,7492],[95.3,7576],[95.6,7659],[95.8,7746],[95.8,7825],[95.8,7909],[95.8,7992],[95.8,8075],[95.8,8158],[95.8,8241],[95.8,8325],[95.8,8408],[95.8,8491],[95.8,8575],[96.3,8658],[96.9,8746],[97.2,8825],[97.6,8908],[97.9,8992],[97.9,9074],[97.9,9158],[97.9,9241],[97.9,9324],[97.9,9407],[97.9,9491],[97.9,9574],[97.9,9657],[97.9,9740],[97.9,9824],[97.9,9907],[97.9,9990],[97.9,10073],[97.9,10156],[97.9,10240],[97.9,10323],[97.9,10406],[97.9,10490],[97.9,10573],[97.9,10656],[97.9,10740],[97.9,10823],[97.8,10906],[97.8,10989],[97.8,11073],[97.8,11156],[97.7,11239],[97.7,11322],[97.7,11406],[97.6,11489],[97.5,11572],[97.3,11656],[97.3,11739],[97.3,11822],[97.2,11905],[97.2,11988],[97.2,12072],[97,12159],[97,12242],[97,12322],[97,12405],[97,12488],[97,12571],[97,12654],[97,12738],[97,12821],[97,12904],[97,12987],[96.8,13074],[96.8,13154],[96.8,13237],[96.8,13321],[96.8,13404],[96.8,13487],[96.8,13570],[96.8,13654],[96.8,13737],[96.8,13820],[96.8,13903],[96.8,13987],[96.8,14071],[96.8,14153]]",436.0977,438.7116,97.50000636,1.2897,"[{""rating"":97.50000635782878,""responseTime"":1.2896999999879881}]",space,2.0719,,438.7119,Partially,50,438.7155,,,[],,0,13,13,13,1,audio/Narrative8Situation4.wav,audio/Narrative7Situation4.wav,audio/Narrative6Situation4.wav,audio/Narrative5Situation4.wav,3,3,2,1,,,,,,,,,,,,,,,,,,,,,,,,,,,,,,,,,,,,,,,
,,,,,5fc2c0cfdb80f9025c6b4810,2025-07-08_00h22.03.597,group3.4_multiperson,2023.2.2,Win32,60.24096386,686c2ebf0248f13bef9af11f,686c9bd86b2de1eab73e6b2c,,,,,,,,,,,,,,,,,,,,,,,,,,,,,438.7157,1,audio/Narrative8Situation5.wav,440.7264,,440.7265,448.9886,"[[97.2,999],[97.7,1085],[97.7,1165],[97.7,1248],[97.7,1331],[97.8,1415],[97.8,1498],[97.8,1581],[97.8,1664],[97.8,1748],[97.8,1831],[97.8,1914],[97.8,1997],[97.8,2081],[97.8,2164],[97.8,2247],[97.8,2334],[97.8,2414],[97.8,2497],[97.8,2580],[97.8,2664],[97.8,2747],[97.8,2830],[97.8,2913],[97.8,2997],[97.8,3080],[97.8,3163],[97.8,3246],[97.8,3330],[97.8,3413],[97.8,3496],[97.8,3579],[97.8,3663],[97.8,3746],[97.8,3829],[97.8,3913],[97.8,3996],[97.8,4079],[97.8,4162],[97.8,4245],[97.8,4329],[97.8,4412],[97.8,4495],[97.8,4579],[97.8,4662],[97.8,4745],[97.8,4828],[97.8,4912],[97.8,4995],[97.8,5078],[97.8,5161],[97.8,5245],[97.8,5328],[97.8,5411],[97.8,5495],[97.8,5578],[97.8,5665],[97.8,5744],[97.8,5827],[97.8,5911],[97.8,5994],[97.8,6080],[97.8,6160],[97.8,6244],[97.8,6327],[97.8,6410],[97.8,6494],[97.8,6577],[97.8,6660],[97.8,6743],[97.8,6827],[97.8,6913],[97.8,6993],[97.8,7077],[97.8,7160],[97.8,7243],[97.8,7326],[97.8,7410],[97.8,7493],[97.8,7576],[97.8,7660],[97.8,7743],[97.8,7826],[97.8,7909],[97.8,7992],[97.8,8075],[97.8,8159],[97.8,8242]]",448.9887,451.8,97.81250954,1.5381,"[{""rating"":97.81250953674316,""responseTime"":1.53810000002386}]",space,2.253,,451.8001,Definitely yes,100,451.8033,,,[],,0,14,14,14,1,audio/Narrative8Situation5.wav,audio/Narrative7Situation5.wav,audio/Narrative6Situation5.wav,audio/Narrative5Situation5.wav,2,5,2,5,,,,,,,,,,,,,,,,,,,,,,,,,,,,,,,,,,,,,,,
,,,,,5fc2c0cfdb80f9025c6b4810,2025-07-08_00h22.03.597,group3.4_multiperson,2023.2.2,Win32,60.24096386,686c2ebf0248f13bef9af11f,686c9bd86b2de1eab73e6b2c,,,,,,,,,,,,,,,,,,,,,,,,,,,,,451.8036,1,audio/Narrative8Situation6.wav,453.8152,,453.8153,460.2927,"[[97.7,1248],[98,1335],[98,1414],[98,1498],[98,1581],[98,1664],[98,1747],[98,1831],[98,1914],[98,1998],[98,2081],[98,2164],[98,2247],[98,2331],[98,2413],[98,2497],[98,2580],[98,2663],[98,2747],[98,2830],[98,2916],[98,2999],[98,3080],[98,3163],[98,3246],[98,3330],[98,3412],[98,3496],[98,3583],[98,3663],[98,3746],[98,3829],[98,3912],[98,3996],[98,4079],[98,4162],[98,4245],[98,4329],[98,4412],[98,4495],[98,4579],[98,4662],[98,4745],[98,4828],[98,4911],[98,4995],[98,5078],[98,5161],[98,5245],[98,5332],[98,5411],[98,5494],[98,5577],[98,5664],[98,5744],[98,5827],[98,5911],[98,5994],[98,6077],[98,6160],[98,6244],[98,6326],[98,6410]]",460.293,462.2787,98.22916985,1.1364,"[{""rating"":98.22916984558105,""responseTime"":1.1363999999761063}]",space,1.4458,,462.2787,Definitely yes,100,462.2797,,,[],,0,15,15,15,1,audio/Narrative8Situation6.wav,audio/Narrative7Situation6.wav,audio/Narrative6Situation6.wav,audio/Narrative5Situation6.wav,2,3,2,3,,,,,,,,,,,,,,,,,,,,,,,,,,,,,,,,,,,,,,,
,,,,,5fc2c0cfdb80f9025c6b4810,2025-07-08_00h22.03.597,group3.4_multiperson,2023.2.2,Win32,60.24096386,686c2ebf0248f13bef9af11f,686c9bd86b2de1eab73e6b2c,,,,,,,,,,,,,,,,,,,,,,,,,,,,,462.2799,1,audio/Narrative8Situation7.wav,465.2888,,465.2889,477.3778,"[[98.4,920],[98.6,999],[98.6,1081],[98.6,1165],[98.6,1247],[98.6,1331],[98.6,1414],[98.6,1500],[98.6,1581],[98.6,1664],[98.6,1747],[98.6,1831],[98.6,1914],[98.6,2000],[98.6,2081],[98.6,2164],[98.6,2247],[98.6,2330],[98.6,2414],[98.6,2497],[98.6,2580],[98.6,2663],[98.6,2747],[98.6,2830],[98.6,2913],[98.6,2997],[98.6,3079],[98.6,3163],[98.6,3246],[98.6,3329],[98.5,3413],[98,3499],[96.7,3583],[95.7,3665],[95.7,3746],[95.7,3832],[95.7,3913],[96.5,3999],[96.9,4079],[96.9,4162],[96.9,4248],[96.9,4328],[96.9,4412],[96.9,4495],[96.9,4578],[96.9,4662],[96.9,4745],[97,4828],[96.5,4915],[96.5,4995],[96.5,5078],[96.5,5163],[96.5,5244],[96.5,5327],[96.5,5411],[96.7,5495],[96.8,5577],[96.9,5661],[96.9,5744],[96.9,5827],[96.9,5911],[96.9,5994],[96.9,6077],[96.9,6160],[96.9,6243],[96.9,6326],[96.9,6410],[96.9,6496],[96.9,6576],[96.9,6660],[96.9,6746],[96.9,6826],[96.9,6910],[96.9,6993],[96.9,7076],[96.9,7159],[96.9,7243],[96.9,7326],[96.9,7413],[96.9,7492],[96.9,7576],[96.9,7659],[96.9,7745],[96.9,7826],[96.9,7909],[96.8,7996],[96.8,8075],[96.8,8158],[96.8,8242],[96.8,8325],[96.8,8408],[96.8,8492],[96.9,8575],[96.9,8658],[97.2,8745],[97.2,8825],[97.3,8908],[97.4,8991],[97.6,9074],[97.7,9158],[97.7,9241],[97.7,9324],[97.7,9407],[97.7,9491],[97.7,9574],[97.7,9657],[97.7,9740],[97.7,9823],[97.7,9907],[97.7,9990],[97.7,10073],[97.7,10156],[97.7,10240],[97.7,10323],[97.7,10406],[97.7,10490],[97.6,10573],[97.5,10656],[97.5,10739],[97.5,10823],[97.5,10906],[97.5,10989],[97.5,11072],[97.5,11156],[97.5,11239],[97.5,11322],[97.5,11405],[97.5,11489],[97.8,11576],[97.8,11655],[97.8,11739],[97.8,11822],[97.9,11905],[97.9,11988],[98.2,12076]]",477.3781,479.5924,98.64583015,0.8434,"[{""rating"":98.64583015441895,""responseTime"":0.8433999999762136}]",space,1.6694,,479.5926,Not at all,0,479.596,,,[],,0,16,16,16,1,audio/Narrative8Situation7.wav,audio/Narrative7Situation7.wav,audio/Narrative6Situation7.wav,audio/Narrative5Situation7.wav,3,5,5,4,,,,,,,,,,,,,,,,,,,,,,,,,,,,,,,,,,,,,,,
,,,,,5fc2c0cfdb80f9025c6b4810,2025-07-08_00h22.03.597,group3.4_multiperson,2023.2.2,Win32,60.24096386,686c2ebf0248f13bef9af11f,686c9bd86b2de1eab73e6b2c,,,,,,,,,,,,,,,,,,,,,,,,,,,,,479.5962,1,audio/Narrative8Situation8.wav,482.6064,,482.6064,495.479,"[[94.3,750],[95,832],[95.3,915],[95.6,999],[96.5,1086],[97,1169],[97.4,1249],[97.7,1332],[97.7,1415],[97.7,1498],[97.7,1581],[97.7,1665],[97.7,1748],[97.7,1831],[97.7,1914],[97.7,1998],[97.7,2081],[97.7,2164],[97.7,2247],[97.7,2331],[97.6,2414],[97.6,2501],[97.6,2581],[97.6,2664],[97.6,2747],[97.6,2834],[97.6,2917],[97.6,2997],[97.6,3080],[97.4,3163],[97.3,3247],[97.3,3334],[97.2,3414],[97.2,3496],[97.2,3580],[97.2,3663],[97.2,3747],[97.2,3830],[97.2,3913],[97.2,3996],[97.2,4080],[97.2,4163],[97.4,4246],[97.4,4329],[97.6,4413],[97.7,4496],[97.7,4579],[97.7,4662],[97.7,4745],[97.7,4829],[97.7,4912],[97.7,4995],[97.7,5078],[97.7,5161],[97.7,5245],[97.7,5328],[97.9,5416],[98,5499],[98,5578],[98.1,5665],[98.1,5745],[98.2,5828],[98.5,5911],[98.8,5995],[98.8,6078],[98.8,6161],[98.8,6245],[98.8,6327],[98.8,6411],[98.8,6494],[98.9,6577],[98.9,6660],[98.9,6744],[98.9,6827],[98.9,6910],[98.9,6993],[98.9,7077],[98.9,7160],[98.9,7243],[98.9,7326],[98.6,7410],[98.5,7493],[98.5,7577],[98.3,7660],[98.3,7743],[98.3,7826],[98.3,7909],[98.3,7993],[98.3,8076],[98.3,8159],[98.3,8242],[98.3,8326],[98.3,8409],[98.3,8492],[98.3,8576],[98.3,8659],[98.3,8742],[98.3,8825],[98.3,8909],[98.3,8992],[98.3,9075],[98.3,9158],[98.3,9241],[98.3,9325],[98.3,9408],[98.3,9491],[98.3,9575],[98.3,9658],[98.3,9741],[98.3,9824],[98.3,9908],[98.3,9991],[98.3,10074],[98.3,10158],[98.3,10241],[98.3,10324],[98.3,10407],[98.3,10490],[98.3,10574],[98.3,10657],[98.3,10740],[98.3,10824],[98.3,10907],[98.3,10990],[98.3,11073],[98.3,11156],[98.3,11240],[98.3,11323],[98.3,11406],[98.3,11490],[98.3,11573],[98.3,11656],[98.3,11739],[98.3,11826],[98.3,11906],[98.3,11989],[98.3,12072],[98.3,12155],[98.3,12239],[98.3,12322],[98.3,12405],[98.3,12489],[98.3,12572],[98.3,12655],[98.3,12739],[98.2,12822]]",495.4793,497.2605,98.12499682,0.6562,"[{""rating"":98.12499682108562,""responseTime"":0.6561999999880754}]",space,1.2353,,497.2605,Definitely yes,100,497.2644,,,[],,0,17,17,17,1,audio/Narrative8Situation8.wav,audio/Narrative7Situation8.wav,audio/Narrative6Situation8.wav,audio/Narrative5Situation8.wav,3,2,5,3,,,,,,,,,,,,,,,,,,,,,,,,,,,,,,,,,,,,,,,
,,,,,5fc2c0cfdb80f9025c6b4810,2025-07-08_00h22.03.597,group3.4_multiperson,2023.2.2,Win32,60.24096386,686c2ebf0248f13bef9af11f,686c9bd86b2de1eab73e6b2c,,,,,,,,,,,,,,,,,,,,,,,,,,,,,497.2646,1,audio/Narrative8Situation9.wav,500.2742,,500.2744,511.6145,"[[98.6,670],[99.8,749],[99.9,832],[99.9,915],[99.9,999],[99.9,1082],[99.9,1165],[99.9,1248],[99.9,1331],[99.9,1415],[99.9,1498],[99.1,1581],[98.5,1665],[98.5,1748],[98.5,1831],[98.5,1915],[98.5,1997],[98.5,2081],[98.5,2164],[98.5,2247],[98.5,2331],[98.5,2414],[98.5,2497],[98.5,2581],[98.5,2664],[98.5,2747],[98.5,2830],[98.5,2914],[98.5,2997],[98.5,3080],[98.5,3163],[98.5,3247],[98.5,3330],[98.5,3413],[98.5,3496],[98.5,3580],[98.5,3663],[98.5,3746],[98.5,3829],[98.5,3913],[98.5,3996],[98.5,4079],[98.5,4163],[98.5,4245],[98.5,4329],[98.5,4412],[98.5,4495],[98.5,4579],[98.5,4662],[98.5,4745],[98.5,4829],[98.5,4912],[98.5,4999],[98.5,5082],[98.5,5166],[98.5,5245],[98.5,5328],[98.5,5411],[98.5,5495],[98.5,5578],[98.5,5661],[98.5,5745],[98.5,5828],[98.5,5911],[98.5,5994],[98.5,6078],[98.5,6161],[98.5,6244],[98.5,6327],[98.5,6410],[98,6494],[97.8,6577],[97.8,6660],[97.8,6743],[97.8,6827],[97.8,6910],[97.8,6993],[97.8,7077],[97.8,7160],[97.9,7247],[98.1,7327],[98.4,7414],[98.6,7493],[98.9,7580],[99,7659],[99,7743],[99,7826],[99,7909],[99,7992],[99,8076],[99,8159],[99,8242],[99,8325],[99,8408],[99,8492],[99,8575],[99,8658],[99,8742],[99,8825],[99,8911],[99,8992],[99,9075],[99,9158],[98.9,9242],[97.8,9329],[97.8,9408],[97.8,9491],[97.8,9574],[97.8,9658],[97.8,9741],[97.8,9824],[97.9,9908],[98.2,9995],[98.5,10078],[98.5,10157],[98.5,10241],[98.5,10324],[98.5,10407],[98.5,10490],[98.5,10574],[98.5,10657],[98.5,10740],[98.5,10823],[98.5,10906],[98.5,10990],[98.5,11073],[98.5,11156],[98.5,11243],[98.5,11323]]",511.6147,513.1631,98.54167302,0.728,"[{""rating"":98.54167302449544,""responseTime"":0.7280000000000655}]",space,1.0092,,513.1633,Definitely yes,100,516.5269,99.68749682,3.3507,"[{""rating"":99.68749682108562,""responseTime"":3.3506999999881373}]",space,0,18,18,18,1,audio/Narrative8Situation9.wav,audio/Narrative7Situation9.wav,audio/Narrative6Situation9.wav,audio/Narrative5Situation9.wav,3,2,4,3,,,0.0837,,,,,,,,,,,,,,,,,,,,,,,,,,,,,,,,,,,,
,,,,,5fc2c0cfdb80f9025c6b4810,2025-07-08_00h22.03.597,group3.4_multiperson,2023.2.2,Win32,60.24096386,686c2ebf0248f13bef9af11f,686c9bd86b2de1eab73e6b2c,,,,,,,,,,,,,,,,,,,,,,,,,,,519.8745,522.4552,522.4665,2,audio/Narrative13Situation2.wav,522.4667,,522.4667,552.2129,"[[94.4,71],[94.1,154],[94,238],[94,321],[93.5,404],[90.8,487],[89.2,571],[87.3,654],[85.1,738],[84.5,820],[84.5,903],[84.5,987],[84.5,1070],[84.5,1153],[84.5,1236],[84.5,1320],[84.5,1403],[84.5,1486],[84.5,1570],[84.5,1653],[84.5,1736],[84.5,1820],[84.5,1903],[84.5,1986],[85.4,2070],[87.6,2153],[89.3,2236],[91,2319],[92,2403],[93.2,2486],[94.2,2569],[94.8,2652],[95,2735],[95.1,2819],[95.2,2902],[95.2,2985],[95.2,3069],[95.2,3152],[95.2,3235],[95.2,3318],[95.2,3402],[95.2,3485],[94.9,3568],[94.9,3651],[94.9,3735],[94.9,3818],[94.9,3901],[94.9,3985],[94.9,4067],[94.9,4151],[94.9,4234],[94.9,4317],[94.9,4401],[94.9,4484],[94.9,4567],[94.9,4650],[94.9,4734],[94.9,4817],[94.9,4900],[94.9,4984],[94.9,5067],[94.9,5150],[94.9,5233],[94.9,5316],[94.9,5400],[94.9,5483],[94.9,5567],[94.9,5650],[94.9,5733],[94.9,5816],[94.9,5899],[94.9,5983],[94.9,6066],[94.9,6149],[94.9,6232],[94.9,6316],[94.9,6399],[94.9,6482],[94.9,6565],[94.9,6649],[94.9,6732],[94.9,6815],[94.9,6899],[94.9,6982],[94.9,7065],[94.9,7148],[94.9,7231],[94.9,7315],[94.9,7398],[94.9,7481],[94.9,7565],[94.9,7648],[94.9,7731],[94.9,7814],[94.9,7897],[94.9,7981],[94.9,8064],[94.9,8147],[94.9,8230],[94.9,8314],[94.9,8397],[94.9,8480],[94.9,8564],[94.9,8647],[94.9,8730],[94.9,8814],[94.9,8897],[94.9,8980],[94.9,9063],[94.9,9147],[94.9,9230],[94.9,9313],[94.9,9396],[94.9,9480],[94.9,9563],[94.9,9646],[94.9,9729],[94.9,9813],[94.9,9896],[94.9,9979],[94.9,10062],[94.9,10146],[94.9,10229],[94.9,10312],[94.9,10395],[94.9,10479],[94.9,10562],[94.9,10645],[94.9,10729],[94.9,10812],[94.9,10895],[94.9,10978],[94.9,11062],[94.9,11145],[94.9,11228],[94.9,11311],[94.9,11395],[94.9,11478],[94.9,11561],[94.9,11644],[94.9,11728],[94.9,11811],[94.9,11894],[94.9,11977],[94.9,12061],[94.9,12144],[94.9,12227],[94.9,12311],[94.9,12394],[94.9,12477],[94.9,12560],[94.9,12643],[94.9,12727],[94.9,12810],[94.9,12893],[94.9,12976],[94.9,13060],[94.9,13143],[94.9,13226],[94.9,13310],[94.9,13393],[94.9,13476],[94.9,13559],[94.9,13643],[94.9,13726],[94.9,13809],[94.9,13893],[94.9,13976],[94.9,14059],[94.9,14142],[94.9,14225],[94.9,14309],[94.9,14392],[94.9,14475],[94.9,14558],[94.9,14642],[94.9,14725],[94.9,14808],[94.9,14891],[94.9,14975],[94.9,15058],[94.9,15141],[94.9,15225],[94.9,15308],[94.9,15391],[94.9,15474],[94.9,15558],[94.9,15641],[94.9,15724],[94.9,15807],[94.9,15891],[94.9,15974],[94.9,16057],[94.9,16140],[94.9,16224],[94.9,16307],[94.9,16390],[94.9,16473],[94.9,16557],[94.9,16640],[94.9,16723],[94.9,16807],[94.9,16890],[94.9,16973],[94.9,17056],[94.9,17140],[94.9,17223],[94.9,17306],[94.9,17389],[94.9,17473],[94.9,17556],[94.9,17639],[94.9,17722],[94.9,17806],[94.9,17889],[93.2,17972],[91.6,18056],[90.7,18139],[88.3,18222],[84.4,18306],[83.6,18389],[83.2,18472],[81.3,18555],[79.4,18638],[79.3,18722],[78.1,18805],[76.7,18888],[76.1,18971],[75.8,19055],[75.1,19138],[74.8,19221],[74.8,19305],[74.8,19388],[74.8,19471],[74.7,19554],[74.7,19637],[74.7,19721],[74.7,19804],[74.7,19887],[74.7,19970],[74.7,20054],[74.7,20137],[74.7,20220],[74.7,20303],[74.7,20387],[74.6,20470],[74.6,20553],[74.6,20637],[74.6,20720],[74.6,20803],[74.6,20886],[74.6,20970],[74.6,21053],[74.6,21136],[74.6,21219],[74.4,21303],[74.4,21386],[74.4,21469],[74.4,21552],[74.4,21636],[74.3,21719],[67.4,21802],[59.2,21886],[44,22552],[45.3,22635],[46.3,22718],[46.4,22802],[46.6,22884],[46.6,22968],[46.7,23051],[46.7,23134],[46.7,23218],[46.7,23301],[47.3,23384],[48.6,23468],[49.7,23551],[50.3,23634],[50.3,23717],[50.3,23801],[50.3,23884],[50.3,23967],[50.3,24050],[50.3,24134],[50.3,24217],[50.3,24300],[50.3,24383],[50.3,24466],[50.3,24550],[50.3,24633],[50.3,24716],[50.3,24799],[50.3,24883],[50.3,24966],[50.3,25049],[50.3,25133],[50.3,25215],[50.3,25299],[50.3,25382],[50.3,25466],[50.3,25549],[51.5,25633],[53.5,25716],[54.2,25799],[55.8,25882],[57.8,25965],[59.5,26048],[61,26132],[62.5,26215],[64.3,26298],[65.8,26382],[67.7,26465],[69.5,26548],[71.1,26632],[72.4,26715],[73.1,26798],[73.1,26881],[73.1,26964],[73.1,27048],[73.1,27131],[73.1,27214],[73.1,27297],[73.1,27380],[73.1,27464],[73.1,27547],[73.1,27630],[73.1,27714],[73.1,27797],[73.1,27880],[73.1,27963],[73.1,28047],[73.1,28130],[73.1,28213],[73.1,28296],[73.1,28380],[73.1,28463],[73.1,28546],[73.1,28630],[73.5,28713],[74,28796],[74.1,28879],[74.1,28963],[74.1,29046],[74.1,29129],[74.1,29212],[74.1,29296],[74.1,29379],[74.5,29462],[75.4,29546],[75.9,29629],[76.5,29712]]",552.2132,552.216,,,[],,,,552.2161,Definitely yes,100,552.2179,,,[],,0,0,0,0,1,audio/Narrative13Situation2.wav,audio/Narrative13Situation2.wav,audio/Narrative13Situation2.wav,audio/Narrative13Situation2.wav,2,2,2,2,,,,,516.5273,519.8742,space,2.8229,,,,,,,,,,,,,,,,,,,,,,,,,,,,,,,
,,,,,5fc2c0cfdb80f9025c6b4810,2025-07-08_00h22.03.597,group3.4_multiperson,2023.2.2,Win32,60.24096386,686c2ebf0248f13bef9af11f,686c9bd86b2de1eab73e6b2c,,,,,,,,,,,,,,,,,,,,,,,,,,,,,552.2182,2,audio/Narrative5Situation1.wav,557.2247,,557.2247,570.5132,"[[73.8,382],[73.8,466],[73.8,549],[73.8,632],[73.8,716],[73.8,799],[73.8,882],[73.8,965],[73.8,1048],[73.8,1132],[73.8,1215],[73.8,1298],[73.8,1382],[74,1465],[74.5,1548],[74.5,1631],[74.5,1715],[74.7,1798],[75.5,1881],[77.1,1965],[77.8,2048],[79.1,2131],[81,2214],[84.1,2298],[89.1,2381],[91.5,2464],[91.9,2548],[91.9,2631],[91.9,2714],[91.9,2797],[92,2881],[93.8,2964],[94.5,3047],[94.5,3130],[94.5,3213],[94.5,3297],[94.5,3380],[94.5,3463],[93.5,3546],[92.1,3630],[91.8,3713],[91.6,3796],[91.6,3880],[91.6,3963],[91.6,4046],[91.6,4129],[91.6,4212],[91.6,4296],[91.6,4379],[91.6,4462],[91.6,4546],[91.6,4629],[91.6,4712],[91.6,4795],[91.6,4879],[91.6,4962],[91.6,5045],[91.6,5128],[91.6,5212],[91.6,5295],[91.6,5378],[91.6,5461],[91.6,5545],[91.6,5628],[91.6,5711],[91.6,5794],[91.6,5878],[91.6,5961],[91.6,6044],[91.6,6127],[91.6,6211],[91.6,6294],[91.6,6377],[91.6,6460],[91.6,6544],[91.6,6627],[91.6,6710],[91.6,6794],[91.6,6876],[91.6,6960],[91.6,7043],[91.6,7126],[91.6,7210],[91.6,7293],[91.6,7376],[91.6,7460],[91.6,7543],[91.6,7626],[91.6,7710],[91.6,7793],[91.6,7876],[91.6,7959],[91.6,8043],[91.6,8126],[91.6,8209],[91.6,8292],[91.6,8376],[91.6,8459],[91.6,8542],[91.6,8625],[91.6,8708],[91.6,8792],[91.6,8875],[91.6,8958],[91.6,9042],[91.6,9125],[91.6,9208],[91.6,9292],[91.6,9375],[91.6,9458],[91.6,9541],[91.6,9625],[91.6,9707],[91.6,9791],[91.6,9874],[91.6,9957],[91.6,10041],[91.6,10124],[91.6,10207],[91.6,10291],[91.6,10374],[91.6,10457],[91.6,10540],[91.6,10624],[91.6,10707],[91.6,10790],[91.6,10873],[91.6,10957],[91.6,11040],[91.6,11123],[91.6,11207],[91.6,11290],[91.6,11373],[91.6,11456],[91.6,11540],[91.6,11623],[91.6,11706],[91.6,11789],[91.6,11872],[91.6,11956],[91.6,12039],[91.6,12122],[91.6,12206],[91.6,12289],[91.6,12372],[91.6,12455],[91.6,12538],[91.6,12622],[91.6,12705],[91.6,12788],[91.6,12872],[91.6,12955],[91.6,13038],[91.6,13121],[91.9,13205],[92,13288]]",570.5134,572.7114,95.41667302,1.0864,"[{""rating"":95.41667302449544,""responseTime"":1.0863999999761518}]",space,1.6485,,572.7116,Definitely yes,100,572.7133,,,[],,0,1,1,1,1,audio/Narrative7Situation1.wav,audio/Narrative8Situation1.wav,audio/Narrative5Situation1.wav,audio/Narrative6Situation1.wav,2,5,5,2,,,,,,,,,,,,,,,,,,,,,,,,,,,,,,,,,,,,,,,
,,,,,5fc2c0cfdb80f9025c6b4810,2025-07-08_00h22.03.597,group3.4_multiperson,2023.2.2,Win32,60.24096386,686c2ebf0248f13bef9af11f,686c9bd86b2de1eab73e6b2c,,,,,,,,,,,,,,,,,,,,,,,,,,,,,572.7135,2,audio/Narrative5Situation2.wav,575.7255,,575.7256,605.1997,"[[95.8,1831],[95.9,1914],[96,1998],[96,2080],[96,2164],[96,2247],[96,2331],[96,2414],[96,2497],[96,2581],[96,2664],[96,2747],[96,2830],[96,2913],[96,2997],[96,3080],[96,3163],[96,3246],[95.2,3330],[95.1,3413],[95.1,3496],[95.1,3579],[95.1,3663],[95.1,3746],[95.1,3829],[95.1,3912],[95.1,3996],[95.1,4079],[95.1,4162],[95.1,4246],[95.1,4329],[95.1,4412],[95.1,4495],[95.1,4579],[95.6,4662],[96,4745],[96,4828],[96,4912],[96,4995],[96.1,5078],[96.1,5161],[96.1,5245],[96.1,5328],[96.1,5411],[96.1,5494],[96.1,5578],[96.1,5661],[96.1,5744],[96.1,5827],[96.1,5911],[96.1,5994],[96.1,6077],[96.1,6161],[96.1,6244],[96.1,6327],[96.1,6410],[96.1,6494],[96.1,6577],[96.4,6660],[96.4,6743],[96.6,6826],[96.6,6910],[96.6,6993],[96.6,7076],[96.6,7160],[96.6,7243],[96.6,7326],[96.6,7409],[96.6,7493],[96.6,7576],[96.6,7659],[96.6,7743],[96.6,7826],[96.6,7909],[96.6,7992],[96.6,8075],[96.6,8159],[96.9,8242],[97.6,8325],[97.7,8408],[97.8,8492],[97.8,8575],[97.8,8658],[97.8,8742],[97.8,8825],[97.8,8908],[97.8,8991],[97.8,9074],[97.8,9158],[97.8,9241],[97.8,9324],[97.8,9408],[97.8,9491],[97.8,9574],[97.8,9658],[97.8,9741],[97.8,9824],[97.8,9907],[97.8,9990],[97.8,10074],[97.8,10157],[97.8,10240],[97.8,10324],[97.8,10407],[97.8,10490],[97.8,10573],[97.8,10657],[97.8,10740],[97.8,10823],[97.8,10906],[97.8,10990],[97.8,11073],[97.8,11156],[97.8,11239],[97.8,11323],[97.8,11406],[97.8,11489],[97.8,11573],[97.8,11656],[97.8,11739],[97.8,11822],[97.8,11906],[97.8,11989],[97.8,12072],[97.8,12155],[97.8,12238],[97.8,12322],[97.8,12405],[97.8,12488],[97.8,12571],[97.8,12655],[97.8,12738],[97.8,12821],[97.8,12905],[97.8,12988],[97.8,13071],[97.8,13155],[97.8,13238],[97.8,13321],[97.8,13404],[97.8,13488],[97.8,13571],[97.8,13654],[97.8,13737],[97.8,13821],[97.8,13904],[97.8,13987],[97.8,14070],[97.8,14153],[97.8,14237],[97.8,14320],[97.8,14403],[97.8,14486],[97.8,14570],[97.7,14653],[97.5,14737],[97.5,14819],[97,14903],[97,14986],[97,15069],[97,15153],[97,15236],[97,15319],[97,15403],[97,15485],[97,15569],[97,15652],[97.2,15735],[97.2,15819],[97.3,15902],[97.4,15985],[97.4,16069],[97.6,16152],[97.7,16235],[97.7,16318],[97.7,16402],[97.7,16485],[97.7,16568],[97.7,16651],[97.7,16735],[97.7,16818],[97.7,16901],[97.7,16984],[97.7,17068],[97.7,17151],[97.7,17234],[97.7,17318],[97.7,17401],[97.7,17484],[97.7,17567],[97.7,17651],[97.7,17734],[97.8,17817],[97.8,17900],[97.8,17984],[97.8,18067],[97.9,18150],[97.9,18233],[97.9,18317],[97.9,18400],[97.9,18483],[97.9,18566],[97.9,18650],[98.1,18733],[98.1,18816],[98.1,18899],[98.1,18983],[98.1,19066],[98.1,19149],[98.1,19232],[98.1,19316],[98.1,19399],[98.1,19482],[98.1,19566],[98.1,19649],[98.1,19732],[98.1,19815],[98.1,19899],[98.1,19982],[98.1,20065],[98.1,20148],[98.1,20232],[98.1,20315],[98.1,20398],[98.1,20481],[98.1,20565],[98.1,20648],[98.1,20731],[98.1,20814],[98.1,20898],[98.1,20981],[98.1,21064],[98.1,21147],[98.1,21231],[98.1,21314],[98.1,21397],[98.1,21481],[98.1,21564],[98.1,21647],[98.1,21730],[98.1,21814],[98.1,21897],[98.1,21980],[98.1,22063],[98.1,22147],[98.1,22230],[98.1,22313],[98.1,22396],[98.1,22480],[98.1,22563],[98.1,22646],[98.1,22730],[98.1,22813],[98.1,22896],[98.1,22979],[98.1,23062],[98.1,23146],[98.1,23229],[98.1,23312],[98.1,23395],[98.1,23479],[98.1,23562],[98.1,23645],[98.1,23729],[98.1,23812],[98.1,23895],[98.1,23978],[98.1,24062],[98.1,24145],[98.1,24228],[98.1,24311],[98.1,24395],[98.1,24478],[98.1,24561],[98.1,24644],[98.1,24728],[98.1,24811],[98.1,24894],[98.1,24977],[98.1,25061],[98.1,25144],[98.1,25227],[98.1,25311],[98.1,25394],[98.1,25477],[98.1,25560],[98.1,25644],[98.1,25727],[98.1,25810],[98.1,25893],[98.1,25977],[98.1,26060],[98.2,26143],[98.2,26226],[98.2,26310],[98.2,26393],[98.2,26476],[98.2,26559],[98.2,26643],[98.2,26726],[98.2,26809],[98.2,26892],[98.2,26976],[98.2,27059],[98.2,27142],[98.2,27226],[98.2,27309],[98.2,27392],[98.2,27475],[98.2,27559],[98.2,27642],[98.2,27725],[98.2,27808],[98.2,27892],[98.2,27975],[98.3,28058],[98.3,28141],[98.3,28225],[98.3,28308],[98.3,28391],[98.3,28475],[98.3,28557],[98.3,28641],[98.3,28724],[98.3,28807],[98.3,28891],[98.3,28974],[98.3,29057],[98.3,29141],[98.3,29224],[98.3,29307],[98.3,29390],[98.3,29473]]",605.1998,607.131,98.33334287,0.6138,"[{""rating"":98.33334287007649,""responseTime"":0.6138000000119064}]",space,1.3855,,607.1312,Definitely yes,100,607.1336,,,[],,0,2,2,2,1,audio/Narrative7Situation2.wav,audio/Narrative8Situation2.wav,audio/Narrative5Situation2.wav,audio/Narrative6Situation2.wav,3,3,3,3,,,,,,,,,,,,,,,,,,,,,,,,,,,,,,,,,,,,,,,
,,,,,5fc2c0cfdb80f9025c6b4810,2025-07-08_00h22.03.597,group3.4_multiperson,2023.2.2,Win32,60.24096386,686c2ebf0248f13bef9af11f,686c9bd86b2de1eab73e6b2c,,,,,,,,,,,,,,,,,,,,,,,,,,,,,607.1343,2,audio/Narrative5Situation3.wav,610.1455,,610.1455,624.067,"[[999,0],[999,83],[85.6,166],[84.9,249],[84.8,332],[84.7,416],[84.6,499],[84.6,582],[84.6,665],[84.6,749],[84.6,832],[84.6,915],[84.6,999],[84.6,1082],[84.6,1165],[84.6,1248],[84.8,1332],[84.9,1415],[84.9,1498],[84.9,1581],[84.9,1665],[84.9,1748],[84.9,1831],[84.9,1914],[84.9,1997],[83.9,2081],[79.5,2165],[77.3,2247],[76.3,2331],[74.9,2414],[73.1,2497],[71.5,2581],[69.5,2664],[67.7,2747],[66.8,2830],[66.4,2913],[66.2,2996],[66.2,3080],[66.2,3163],[66.2,3246],[68.1,3330],[70,3413],[71.6,3496],[73.4,3579],[75.9,3663],[80.2,3746],[83.6,3829],[84.4,3913],[84.4,3996],[84.4,4079],[84.4,4162],[84.6,4246],[84.9,4329],[85.2,4413],[85.4,4495],[85.4,4579],[85.4,4662],[85.8,4745],[86.1,4828],[86.1,4912],[86.1,4995],[86.1,5078],[86.1,5162],[86.1,5245],[85.8,5328],[85.8,5411],[85.8,5495],[85.8,5578],[85.8,5661],[85.8,5745],[85.8,5827],[85.8,5911],[86.5,5994],[87.4,6077],[87.5,6161],[87.5,6244],[87.5,6327],[87.5,6410],[87.5,6494],[87.5,6577],[87.5,6660],[87.5,6743],[87.5,6827],[87.5,6910],[87.5,6993],[87.5,7076],[87.5,7160],[87.5,7243],[87.5,7326],[87.5,7409],[87.5,7493],[87.5,7576],[87.5,7659],[87.5,7742],[87.5,7826],[87.5,7909],[87.5,7992],[87.5,8076],[87.5,8159],[87.5,8242],[87.5,8325],[87.5,8409],[87.5,8492],[87.5,8575],[87.5,8659],[87.5,8742],[87.5,8825],[87.5,8908],[87.5,8991],[87.5,9075],[87.5,9158],[87.5,9241],[87.5,9324],[87.5,9408],[87.5,9491],[87.5,9574],[87.5,9658],[87.5,9741],[87.9,9824],[88.5,9908],[90,9991],[91.5,10074],[93,10157],[94,10241],[94.5,10324],[94.5,10407],[94.5,10490],[94.5,10573],[94.5,10657],[94.5,10740],[94.5,10823],[94.5,10906],[94.5,10990],[94.5,11073],[94.5,11156],[94.5,11239],[94.5,11323],[94.5,11406],[94.5,11489],[94.5,11573],[94.5,11656],[94.5,11739],[94.5,11822],[94.5,11906],[94.5,11989],[94.5,12072],[94.5,12155],[94.5,12239],[94.5,12322],[94.5,12405],[94.5,12488],[94.5,12572],[94.5,12655],[94.5,12738],[94.5,12821],[94.5,12905],[94.5,12988],[94.5,13071],[94.5,13154],[94.5,13238],[94.5,13321],[94.5,13404],[94.5,13488],[94.8,13571],[95,13654],[95.1,13737],[95.3,13821],[95.5,13904]]",624.0671,626.0482,95.41667302,0.9405,"[{""rating"":95.41667302449544,""responseTime"":0.9405000000000427}]",space,1.4436,,626.0483,Partially,50,626.0516,,,[],,0,3,3,3,1,audio/Narrative7Situation3.wav,audio/Narrative8Situation3.wav,audio/Narrative5Situation3.wav,audio/Narrative6Situation3.wav,8,4,3,5,,,,,,,,,,,,,,,,,,,,,,,,,,,,,,,,,,,,,,,
,,,,,5fc2c0cfdb80f9025c6b4810,2025-07-08_00h22.03.597,group3.4_multiperson,2023.2.2,Win32,60.24096386,686c2ebf0248f13bef9af11f,686c9bd86b2de1eab73e6b2c,,,,,,,,,,,,,,,,,,,,,,,,,,,,,626.0519,2,audio/Narrative5Situation4.wav,627.0639,,627.0639,647.463,"[[94.1,1249],[94.8,1332],[94.8,1415],[94.8,1498],[94.8,1581],[94.8,1665],[94.8,1748],[94.8,1831],[95.1,1915],[95.5,1998],[95.6,2081],[95.6,2164],[95.6,2248],[95.6,2331],[95.6,2414],[96.1,2498],[96.4,2581],[96.6,2664],[96.7,2747],[96.7,2830],[96.7,2913],[96.7,2997],[96.7,3080],[96.7,3163],[96.7,3246],[96.7,3330],[96.7,3413],[96.7,3496],[96.7,3580],[96.7,3663],[96.7,3746],[96.7,3830],[96.7,3913],[96.7,3996],[96.7,4079],[96.7,4163],[96.7,4246],[96.7,4329],[96.7,4412],[96.7,4495],[96.7,4579],[96.7,4662],[96.7,4745],[96.7,4829],[96.7,4912],[96.7,4995],[96.7,5078],[96.7,5161],[96.7,5245],[96.7,5328],[96.7,5412],[96.7,5495],[96.7,5578],[96.7,5661],[96.7,5745],[96.7,5828],[95.6,5911],[94.6,5994],[94.6,6077],[94.5,6161],[94.5,6244],[94.5,6327],[94.5,6411],[94.5,6494],[95.2,6577],[97,6661],[97.1,6744],[97.1,6827],[97.1,6910],[97.1,6993],[97.1,7077],[97.1,7160],[97.1,7243],[97.1,7327],[97.1,7410],[97.1,7493],[97.1,7576],[97.1,7659],[97.1,7743],[97,7826],[97,7909],[97,7992],[97,8076],[97,8159],[97,8243],[97,8326],[97,8409],[97,8492],[96,8575],[91.9,8659],[89.5,8742],[87,8825],[79.2,8909],[51.5,9158],[47.9,9241],[47,9325],[47,9408],[47.4,9491],[51.8,9575],[54,9658],[54.7,9741],[54.7,9824],[55.2,9908],[57,9991],[58.5,10074],[59.4,10157],[59.7,10241],[60.1,10324],[61.6,10407],[63,10491],[64.1,10573],[64.1,10657],[64.1,10740],[64.1,10823],[64.1,10907],[64.1,10990],[64.1,11073],[64.8,11157],[66.1,11240],[67,11323],[68.2,11407],[70.1,11490],[71.7,11573],[72.8,11656],[73.9,11739],[74.3,11823],[74.9,11906],[75.4,11989],[76,12072],[76.9,12156],[77.4,12239],[77.4,12322],[77.4,12405],[77.4,12489],[77.4,12572],[77.8,12655],[78.3,12738],[79.2,12822],[80,12905],[80.2,12988],[80.7,13072],[82,13155],[83.2,13238],[84.9,13321],[86.1,13404],[86.9,13488],[87.5,13571],[87.5,13654],[87.6,13737],[87.7,13821],[87.8,13904],[87.9,13987],[87.9,14071],[87.9,14154],[87.9,14237],[87.9,14320],[87.9,14404],[87.9,14487],[87.9,14570],[87.9,14653],[87.9,14737],[87.9,14820],[87.9,14903],[87.9,14987],[88,15070],[89.1,15153],[90.3,15236],[91.4,15320],[91.7,15403],[91.7,15486],[91.7,15569],[91.7,15653],[91.7,15736],[91.7,15819],[91.7,15902],[91.7,15986],[91.7,16069],[91.7,16152],[91.7,16235],[91.7,16318],[91.7,16402],[91.7,16485],[91.7,16568],[91.7,16652],[91.7,16735],[91.7,16818],[91.7,16902],[91.7,16985],[91.7,17068],[91.7,17151],[91.7,17235],[91.7,17318],[91.7,17401],[91.8,17484],[91.8,17568],[91.8,17651],[91.8,17734],[91.8,17817],[91.8,17900],[91.8,17984],[91.8,18067],[91.8,18150],[91.8,18234],[91.8,18317],[91.8,18400],[91.8,18483],[91.8,18567],[91.8,18650],[91.8,18733],[91.8,18817],[91.8,18900],[91.8,18983],[91.8,19066],[91.8,19149],[91.8,19233],[91.8,19316],[91.8,19399],[91.8,19482],[91.8,19566],[91.8,19649],[91.8,19732],[91.8,19816],[91.8,19899],[91.8,19982],[92.6,20066],[93.2,20149],[93.4,20232],[93.4,20315],[93.4,20398]]",647.4632,649.1949,93.43749682,0.5628,"[{""rating"":93.43749682108562,""responseTime"":0.5627999999522899}]",space,1.1825,,649.1949,Not at all,0,649.1993,,,[],,0,4,4,4,1,audio/Narrative7Situation4.wav,audio/Narrative8Situation4.wav,audio/Narrative5Situation4.wav,audio/Narrative6Situation4.wav,3,3,1,2,,,,,,,,,,,,,,,,,,,,,,,,,,,,,,,,,,,,,,,
,,,,,5fc2c0cfdb80f9025c6b4810,2025-07-08_00h22.03.597,group3.4_multiperson,2023.2.2,Win32,60.24096386,686c2ebf0248f13bef9af11f,686c9bd86b2de1eab73e6b2c,,,,,,,,,,,,,,,,,,,,,,,,,,,,,649.1997,2,audio/Narrative5Situation5.wav,654.2069,,654.207,669.6434,"[[93.5,499],[93.8,582],[94,666],[94,749],[94.3,832],[94.4,915],[94.4,998],[94.8,1082],[95.2,1165],[95.3,1249],[95.3,1331],[95.3,1415],[95.5,1498],[95.5,1581],[95.5,1665],[95.5,1748],[95.5,1831],[95.5,1914],[95.5,1998],[95.5,2081],[95.5,2164],[95.5,2247],[95.5,2331],[95.5,2414],[95.5,2497],[95.5,2580],[95.5,2664],[95.5,2747],[95.5,2830],[95.5,2914],[95.5,2997],[95.5,3080],[95.5,3163],[95.5,3246],[95.5,3330],[95.5,3413],[95.5,3496],[95.5,3579],[95.5,3663],[95.5,3746],[95.5,3829],[95.5,3912],[95.5,3996],[95.5,4079],[95.5,4162],[95.5,4245],[95.5,4329],[95.5,4412],[95.5,4495],[95.5,4579],[95.5,4662],[95.5,4745],[95.5,4829],[95.5,4912],[95.5,4995],[95.5,5078],[95.5,5162],[95.5,5245],[95.5,5328],[93.9,5411],[93.1,5495],[92,5578],[89.8,5661],[84.4,5745],[80.6,5828],[74.8,5911],[61,5995],[11.1,6577],[10.2,6660],[9.5,6744],[9.5,6827],[9.5,6910],[9.1,6993],[8.1,7077],[6.5,7160],[6.1,7243],[6.1,7326],[6.1,7410],[6.1,7493],[5.9,7576],[5.4,7659],[5.1,7743],[4.9,7826],[4.9,7909],[4.9,7992],[4.9,8076],[4.9,8159],[4.9,8242],[4.9,8325],[4.9,8409],[4.9,8492],[4.9,8575],[4.8,8658],[4.8,8742],[4.8,8825],[4.8,8908],[4.8,8992],[4.8,9075],[4.8,9158],[4.8,9241],[4.8,9325],[4.8,9408],[4.8,9491],[4.8,9574],[4.8,9658],[4.8,9741],[4.8,9824],[4.8,9907],[4.6,9991],[4.5,10074],[4.5,10157],[4.4,10240],[4.4,10324],[4.4,10407],[4.4,10490],[4.4,10573],[4.4,10657],[4.4,10740],[4.4,10823],[4.4,10907],[4.4,10989],[4.4,11073],[4.4,11156],[4.4,11240],[4.4,11323],[4.4,11406],[4.4,11489],[4.4,11573],[4.4,11656],[4.4,11739],[4.4,11822],[4.4,11906],[4.4,11989],[4.4,12072],[4.4,12156],[4.4,12239],[4.4,12322],[4.4,12405],[4.4,12489],[4.4,12572],[4.4,12655],[4.4,12738],[4.4,12822],[4.4,12905],[4.4,12988],[4.4,13071],[4.4,13155],[4.4,13238],[4.4,13321],[4.4,13404],[4.4,13488],[4.4,13571],[4.4,13654],[4.4,13737],[4.4,13821],[4.4,13904],[4.4,13987],[4.4,14070],[4.4,14154],[4.4,14237],[4.4,14320],[4.4,14404],[4.4,14487],[4.4,14570],[4.4,14653],[4.3,14736],[4.3,14820],[4.1,14903],[3.8,14986],[3.8,15070],[3.8,15153],[3.8,15236],[3.8,15319],[3.8,15403]]",669.6435,672.1081,1.874999205,1.0594,"[{""rating"":1.8749992052714048,""responseTime"":1.0594000000357937}]",space,1.9229,,672.1082,Not at all,0,672.1116,,,[],,0,5,5,5,1,audio/Narrative7Situation5.wav,audio/Narrative8Situation5.wav,audio/Narrative5Situation5.wav,audio/Narrative6Situation5.wav,5,2,5,2,,,,,,,,,,,,,,,,,,,,,,,,,,,,,,,,,,,,,,,
,,,,,5fc2c0cfdb80f9025c6b4810,2025-07-08_00h22.03.597,group3.4_multiperson,2023.2.2,Win32,60.24096386,686c2ebf0248f13bef9af11f,686c9bd86b2de1eab73e6b2c,,,,,,,,,,,,,,,,,,,,,,,,,,,,,672.112,2,audio/Narrative5Situation6.wav,675.122,,675.122,680.8005,"[[0.1,832],[0.7,915],[1.8,999],[1.9,1082],[1.9,1165],[1.9,1249],[1.9,1332],[1.9,1415],[1.9,1498],[12.8,1581],[67,2248],[68.2,2331],[68.6,2414],[68.6,2497],[68.8,2581],[69,2664],[69.7,2747],[70.3,2831],[71.5,2914],[72.9,2997],[74.9,3080],[77.2,3164],[78.4,3247],[80.1,3330],[81.5,3413],[82.8,3497],[83.8,3580],[84.1,3663],[84.1,3746],[84.1,3830],[84.1,3913],[85.1,3996],[86.1,4080],[87.3,4163],[88,4246],[88,4329],[88,4412],[88,4496],[88,4579],[88.2,4662],[88.2,4745],[88.2,4829],[88.3,4912],[88.3,4995],[88.4,5078],[88.4,5162],[88.4,5245],[88.4,5328],[88.4,5412],[88.4,5495],[88.4,5578],[88.4,5661]]",680.8006,682.9653,93.33333969,1.2021,"[{""rating"":93.33333969116211,""responseTime"":1.2021000000238473}]",space,1.6206,,682.9654,Definitely yes,100,682.9699,,,[],,0,6,6,6,1,audio/Narrative7Situation6.wav,audio/Narrative8Situation6.wav,audio/Narrative5Situation6.wav,audio/Narrative6Situation6.wav,3,2,3,2,,,,,,,,,,,,,,,,,,,,,,,,,,,,,,,,,,,,,,,
,,,,,5fc2c0cfdb80f9025c6b4810,2025-07-08_00h22.03.597,group3.4_multiperson,2023.2.2,Win32,60.24096386,686c2ebf0248f13bef9af11f,686c9bd86b2de1eab73e6b2c,,,,,,,,,,,,,,,,,,,,,,,,,,,,,682.9702,2,audio/Narrative5Situation7.wav,686.9784,,686.9784,708.0268,"[[93.1,1415],[93.2,1498],[93.4,1581],[93.4,1665],[93.5,1748],[94.5,1831],[94.8,1914],[94.8,1998],[95,2081],[95.1,2164],[95.3,2247],[95.5,2331],[95.7,2414],[95.8,2497],[95.8,2581],[95.8,2664],[95.8,2747],[95.8,2830],[95.8,2913],[95.8,2997],[95.8,3080],[95.8,3163],[95.8,3247],[95.8,3330],[95.8,3413],[95.8,3496],[95.8,3580],[95.8,3663],[95.8,3746],[95.8,3829],[95.8,3913],[95.8,3996],[95.8,4079],[95.8,4162],[95.8,4246],[95.8,4329],[95.8,4412],[95.8,4495],[95.8,4579],[95.8,4662],[95.8,4745],[95.8,4829],[95.5,4912],[95.5,4995],[95.5,5078],[95.5,5162],[95.5,5245],[95.5,5328],[95.5,5411],[95.5,5495],[95.5,5578],[95.5,5661],[95.5,5744],[95.5,5828],[95.5,5911],[95.5,5994],[95.5,6077],[95.5,6161],[95.5,6244],[95.5,6327],[95.5,6411],[95.5,6494],[95.5,6577],[95.5,6660],[95.5,6744],[95.5,6827],[95.5,6910],[95.5,6994],[95.5,7077],[95.5,7160],[95.5,7243],[95.5,7326],[95.5,7410],[95.5,7493],[95.5,7576],[95.5,7660],[95.5,7743],[95.5,7826],[95.5,7909],[95.5,7992],[95.5,8076],[95.5,8159],[95.5,8242],[95.5,8326],[95.5,8409],[95.5,8492],[95.5,8575],[95.5,8659],[95.5,8742],[95.5,8825],[95.5,8908],[95.5,8992],[95.5,9075],[95.5,9158],[95.5,9241],[95.5,9325],[95.7,9408],[96,9491],[96.1,9574],[96.3,9658],[96.4,9741],[96.4,9824],[96.4,9908],[96.4,9991],[96.4,10074],[96.4,10157],[96.4,10241],[96.4,10324],[96.4,10407],[96.4,10490],[96.4,10574],[96.4,10657],[96.4,10740],[96.4,10823],[96.4,10907],[96.4,10990],[96.4,11073],[96.4,11156],[96.4,11240],[96.4,11323],[96.4,11406],[96.4,11490],[96.4,11573],[96.4,11656],[96.4,11739],[96.4,11822],[96.4,11906],[96.4,11989],[96.4,12072],[96.4,12155],[96.4,12239],[96.4,12322],[96.4,12405],[96.4,12489],[96.4,12572],[96.4,12655],[96.4,12738],[96.4,12822],[96.4,12905],[96.4,12988],[96.4,13072],[96.3,13154],[96.3,13238],[96.3,13321],[96.3,13404],[96.3,13488],[96.3,13571],[96.3,13654],[96.3,13737],[96.3,13821],[96.3,13904],[96.3,13988],[96.3,14071],[96.3,14154],[96.3,14237],[96.3,14320],[96.3,14403],[96.3,14487],[96.3,14570],[96.3,14653],[96.3,14736],[96.3,14820],[96.3,14903],[96.3,14986],[96.3,15070],[96.3,15153],[96.3,15236],[96.3,15319],[96.3,15403],[96.3,15486],[96.3,15569],[96.3,15653],[96.3,15736],[96.3,15819],[96.3,15902],[96.3,15985],[96.3,16069],[96.3,16152],[96.3,16235],[96.3,16319],[96.3,16403],[96.3,16485],[96.3,16568],[96.3,16652],[96.3,16735],[96.3,16818],[96.3,16901],[96.3,16985],[96.3,17068],[96.3,17151],[96.3,17234],[96.3,17318],[96.3,17401],[96.1,17485],[95.5,17568],[94.7,17651],[94.5,17734],[94.5,17817],[94.4,17901],[94.4,17984],[94.4,18067],[94.4,18150],[95.2,18234],[96.4,18317],[96.9,18400],[96.9,18483],[97,18567],[97,18650],[97,18733],[97,18816],[97,18900],[97,18983],[97,19066],[97,19149],[97,19233],[97,19316],[96.8,19399],[96.7,19482],[96.6,19566],[96.5,19649],[96.5,19732],[96.5,19816],[96.5,19899],[96.5,19982],[96.5,20065],[96.5,20149],[96.5,20232],[96.5,20315],[96.5,20398],[96.5,20482],[96.5,20565],[96.5,20648],[96.5,20731],[96.5,20815],[96.5,20898],[96.5,20981]]",708.0271,710.325,96.45833969,0.9348,"[{""rating"":96.45833969116211,""responseTime"":0.9348000000119328}]",space,1.7603,,710.325,Partially,50,716.3528,50.31250318,4.7754,"[{""rating"":49.791669845581055,""responseTime"":3.299399999976117},{""rating"":50.31250317891439,""responseTime"":4.775399999976116}]",space,0,7,7,7,1,audio/Narrative7Situation7.wav,audio/Narrative8Situation7.wav,audio/Narrative5Situation7.wav,audio/Narrative6Situation7.wav,5,3,4,5,,,5.4787,,,,,,,,,,,,,,,,,,,,,,,,,,,,,,,,,,,,
,,,,,5fc2c0cfdb80f9025c6b4810,2025-07-08_00h22.03.597,group3.4_multiperson,2023.2.2,Win32,60.24096386,686c2ebf0248f13bef9af11f,686c9bd86b2de1eab73e6b2c,,,,,,,,,,,,,,,,,,,,,,,,,,,,,716.3532,2,audio/Narrative5Situation8.wav,719.3668,,719.3669,728.1759,"[[56.6,333],[55.8,1249],[55.8,1332],[55.8,1415],[55.8,1498],[55.8,1582],[55.8,1665],[55.8,1748],[55.8,1831],[55.8,1914],[55.8,1998],[55.8,2081],[55.8,2164],[55.8,2247],[55.8,2331],[55.8,2414],[57.7,2497],[64.3,2581],[67,2664],[68.8,2747],[70.7,2831],[73.5,2914],[76.3,2997],[77.9,3080],[80.2,3163],[82.4,3247],[83.8,3330],[84.6,3413],[85.3,3496],[85.9,3580],[86.5,3663],[86.9,3746],[87,3830],[87.5,3913],[88.3,3996],[89.5,4079],[90.5,4163],[90.8,4246],[91,4329],[91.6,4413],[92.4,4496],[92.9,4579],[93.2,4662],[93.4,4745],[93.4,4829],[93.4,4912],[93.4,4995],[93.4,5078],[93.4,5162],[93.4,5245],[93.4,5328],[93.4,5412],[93.4,5495],[93.4,5578],[93.4,5661],[93.4,5744],[93.4,5828],[93.4,5911],[93.4,5994],[93.4,6078],[93.4,6161],[93.4,6244],[93.4,6327],[93.4,6410],[93.4,6494],[93.4,6577],[93.4,6660],[93.4,6744],[93.4,6827],[93.4,6910],[93.4,6994],[93.4,7077],[93.4,7160],[93.4,7243],[93.4,7326],[93.4,7410],[93.4,7493],[93.4,7576],[93.4,7660],[93.4,7743],[93.4,7826],[93.4,7909],[93.4,7992],[93.4,8076],[93.4,8159],[93.4,8242],[93.4,8325],[93.4,8409],[93.4,8492],[93.4,8575],[93.4,8658],[93.4,8742]]",728.1761,730.1077,93.43749682,0.5809,"[{""rating"":93.43749682108562,""responseTime"":0.5808999999761681}]",space,1.3868,,730.1077,Definitely yes,100,730.1119,,,[],,0,8,8,8,1,audio/Narrative7Situation8.wav,audio/Narrative8Situation8.wav,audio/Narrative5Situation8.wav,audio/Narrative6Situation8.wav,2,3,3,5,,,,,,,,,,,,,,,,,,,,,,,,,,,,,,,,,,,,,,,
,,,,,5fc2c0cfdb80f9025c6b4810,2025-07-08_00h22.03.597,group3.4_multiperson,2023.2.2,Win32,60.24096386,686c2ebf0248f13bef9af11f,686c9bd86b2de1eab73e6b2c,,,,,,,,,,,,,,,,,,,,,,,,,,,,,730.1122,2,audio/Narrative5Situation9.wav,733.1216,,733.1217,772.6708,"[[90,1415],[90.4,1498],[90.9,1581],[91.5,1665],[92.6,1748],[94,1831],[94.6,1914],[95.1,1998],[95.8,2081],[96.8,2164],[96.8,2248],[97.1,2331],[97.1,2414],[97.1,2497],[97.1,2580],[97.1,2664],[97.1,2747],[97.1,2830],[97.1,2914],[97.1,2997],[97.1,3080],[97.1,3163],[97.1,3247],[97.1,3330],[97.1,3413],[97.1,3496],[97.1,3580],[97.1,3663],[97.1,3746],[97.1,3829],[97.1,3913],[97.1,3996],[97.1,4079],[97.1,4163],[97.1,4246],[97.1,4329],[97.1,4412],[97.1,4496],[97.1,4579],[97.1,4662],[97.1,4745],[97.1,4829],[97.1,4912],[97.1,4995],[97.1,5078],[97.1,5162],[97.1,5245],[97.1,5328],[97.1,5411],[97.1,5495],[97.1,5578],[97.1,5661],[97.1,5744],[97.1,5828],[97.1,5911],[97.1,5994],[97.1,6077],[97.1,6161],[97.1,6244],[97.1,6327],[97.1,6410],[97.1,6494],[97.1,6577],[97.1,6660],[97.1,6743],[97.1,6827],[97.1,6910],[97.1,6993],[97.1,7076],[97.1,7160],[97.1,7243],[97.1,7326],[97.1,7410],[97.1,7493],[97.1,7576],[97.1,7659],[97.1,7743],[97.1,7826],[97.1,7909],[97.1,7992],[97.1,8076],[97.1,8159],[97.1,8242],[97.1,8325],[97.1,8409],[97.1,8492],[97.1,8575],[97.1,8658],[97.1,8742],[97.1,8825],[97.1,8908],[97.1,8991],[97.1,9075],[97.1,9158],[97.1,9241],[97.1,9325],[97.1,9408],[97.1,9491],[97.1,9574],[97.1,9658],[97.1,9741],[97.1,9824],[97.1,9907],[97.1,9991],[97.1,10074],[97.1,10157],[97.1,10240],[97.1,10324],[97.1,10407],[97.1,10490],[97.1,10573],[97.1,10657],[97.1,10740],[97.1,10823],[97.1,10906],[97.1,10990],[97.1,11073],[97.1,11156],[97.1,11240],[97.1,11323],[97.1,11406],[97.1,11489],[97.1,11573],[97.1,11656],[97.1,11739],[97.1,11822],[97.1,11906],[97.1,11989],[97.1,12072],[97.1,12155],[97.1,12238],[97.1,12322],[97.1,12405],[97.1,12488],[97.1,12572],[97.1,12655],[97.1,12738],[97.1,12822],[97.1,12905],[97.1,12988],[97.1,13071],[97.1,13155],[97.1,13238],[97.1,13321],[97.1,13404],[97.1,13488],[97.1,13571],[97.1,13654],[97.1,13737],[97.1,13821],[97.1,13904],[97.1,13987],[97.1,14070],[97.1,14154],[97.1,14237],[97.1,14320],[97.1,14403],[97.1,14487],[97.1,14570],[97.1,14653],[97.1,14736],[97.1,14820],[97.1,14903],[97.1,14986],[97.1,15070],[97.1,15153],[97.1,15236],[97.1,15319],[97.1,15403],[97.1,15486],[97.1,15569],[97.1,15652],[97.1,15735],[97.1,15819],[97.1,15902],[97.1,15985],[97.1,16069],[97.1,16152],[97.1,16235],[97.1,16318],[97.1,16402],[97.1,16485],[97.1,16568],[97.1,16652],[97.2,16735],[97.4,16818],[97.5,16901],[97.5,16985],[97.5,17068],[97.5,17151],[97.5,17234],[97.5,17318],[97.5,17401],[97.5,17484],[97.5,17567],[97.5,17650],[97.5,17734],[97.5,17817],[97.5,17900],[97.5,17984],[97.5,18067],[97.5,18150],[97.5,18233],[97.5,18317],[97.5,18400],[97.5,18483],[97.5,18566],[97.5,18650],[97.5,18733],[97.5,18816],[97.5,18900],[97.5,18983],[97.5,19066],[97.5,19149],[97.5,19233],[97.5,19316],[97.5,19399],[97.5,19482],[97.5,19566],[97.5,19649],[97.5,19732],[97.5,19815],[97.5,19899],[97.5,19982],[97.5,20065],[97.5,20148],[97.5,20232],[97.5,20315],[97.5,20398],[97.5,20481],[97.5,20565],[97.5,20648],[97.5,20731],[97.5,20815],[97.5,20898],[97.5,20981],[97.5,21064],[97.5,21148],[97.5,21231],[97.5,21314],[97.5,21397],[97.5,21480],[97.5,21564],[97.5,21647],[97.5,21730],[97.5,21814],[97.5,21897],[97.5,21980],[97.5,22063],[97.5,22147],[97.5,22230],[97.5,22313],[97.5,22396],[97.5,22480],[97.5,22563],[97.5,22646],[97.5,22730],[97.5,22813],[97.5,22896],[97.5,22979],[97.5,23063],[97.5,23146],[97.5,23229],[97.5,23312],[97.5,23396],[97.5,23479],[97.5,23562],[97.5,23645],[97.5,23729],[97.8,23812],[97.9,23895],[98.1,23979],[98.1,24062],[98.1,24145],[98.1,24228],[98.1,24311],[98.1,24395],[98.1,24478],[98.1,24561],[98.1,24645],[98.1,24728],[98.1,24811],[98.1,24895],[98.1,24978],[98.1,25061],[98.1,25144],[98.1,25227],[98,25310],[97.9,25394],[97.9,25477],[97.9,25560],[97.8,25644],[97.8,25727],[97.8,25810],[97.8,25894],[97.8,25977],[97.8,26060],[97.8,26143],[97.8,26226],[97.8,26310],[97.8,26393],[97.8,26476],[97.8,26560],[97.8,26643],[97.8,26726],[97.8,26809],[97.8,26893],[97.8,26976],[97.8,27059],[97.8,27142],[97.8,27226],[97.8,27309],[97.8,27392],[97.8,27475],[97.8,27559],[97.8,27642],[97.8,27725],[97.8,27808],[97.8,27892],[97.8,27975],[97.8,28058],[97.8,28141],[97.8,28225],[97.8,28308],[97.8,28391],[97.8,28475],[97.8,28558],[97.8,28641],[97.8,28724],[97.8,28808],[97.8,28891],[97.8,28974],[97.8,29057],[97.8,29141],[97.8,29224],[97.8,29307],[97.8,29391],[97.8,29474],[97.7,29557],[97.7,29640],[97.7,29724],[97.7,29807],[97.7,29890],[97.7,29973],[97.7,30056],[97.7,30140],[97.7,30223],[97.7,30306],[97.7,30390],[97.7,30473],[97.7,30556],[97.7,30639],[97.7,30723],[97.7,30806],[97.7,30889],[97.7,30972],[97.7,31056],[97.7,31139],[97.7,31222],[97.7,31305],[97.7,31389],[97.7,31472],[97.7,31555],[97.7,31638],[97.7,31722],[97.8,31805],[97.9,31888],[98.1,31972],[98.1,32055],[98.2,32138],[98.2,32221],[98.3,32305],[98.3,32388],[98.3,32471],[98.3,32555],[98.3,32638],[98.3,32721],[98.3,32804],[98.3,32887],[98.3,32970],[98.3,33054],[98.3,33137],[98.3,33220],[98.3,33304],[98.3,33387],[98.3,33470],[98.3,33553],[98.3,33637],[98.3,33720],[98.3,33803],[98.3,33887],[98.3,33970],[98.3,34053],[98.3,34136],[98.3,34220],[98.3,34303],[98.3,34386],[98.3,34469],[98.3,34553],[98.3,34636],[98.3,34719],[98.3,34802],[98.3,34886],[98.3,34969],[98.3,35052],[98.3,35135],[98.3,35219],[98.3,35302],[98.3,35385],[98.3,35469],[98.3,35551],[98.3,35635],[98.3,35718],[98.3,35801],[98.3,35884],[98.3,35968],[98.3,36051],[98.3,36134],[98.3,36218],[98.3,36301],[98.3,36384],[98.3,36468],[98.3,36551],[98.3,36634],[98.3,36717],[98.3,36801],[98.3,36884],[98.3,36967],[98.3,37050],[98.3,37134],[98.3,37217],[98.3,37300],[98.3,37384],[98.2,37467],[98,37550],[97.3,37633],[97.2,37716],[97.2,37800],[97.4,37883],[98.9,37967],[98.9,38050],[98.9,38133],[98.9,38216],[98.9,38299],[98.9,38382],[98.6,38466],[98.3,38549],[98.3,38632],[98.3,38716],[98.3,38799],[98.3,38882],[98.3,38965],[98.3,39049],[98.3,39132],[98.3,39215],[98.3,39298],[98.3,39382],[98.3,39465],[98.3,39548]]",772.671,774.5855,98.95833333,0.8202,"[{""rating"":98.95833333333333,""responseTime"":0.8201999999880627}]",space,1.3727,,774.5855,Not at all,0,774.5899,,,[],,0,9,9,9,1,audio/Narrative7Situation9.wav,audio/Narrative8Situation9.wav,audio/Narrative5Situation9.wav,audio/Narrative6Situation9.wav,2,3,3,4,,,,,,,,,,,,,,,,,,,,,,,,,,,,,,,,,,,,,,,
,,,,,5fc2c0cfdb80f9025c6b4810,2025-07-08_00h22.03.597,group3.4_multiperson,2023.2.2,Win32,60.24096386,686c2ebf0248f13bef9af11f,686c9bd86b2de1eab73e6b2c,,,,,,,,,,,,,,,,,,,,,,,,,,,,,774.5902,2,audio/Narrative6Situation1.wav,776.6004,,776.6004,803.1939,"[[90.2,3413],[87.9,3496],[85.8,3580],[85,3663],[84.8,3746],[84.8,3829],[84.9,3913],[85,3996],[85,4079],[85,4162],[85,4246],[85,4329],[85,4412],[85,4495],[85,4579],[85,4662],[85,4745],[85,4828],[85,4912],[85,4995],[85,5078],[85,5161],[85,5245],[85,5328],[85,5411],[85,5495],[85,5578],[85,5661],[85,5744],[85,5828],[85,5911],[85,5994],[85.8,6078],[89.4,6161],[93.1,6244],[94.7,6327],[95,6410],[95,6494],[95,6577],[95,6660],[95,6743],[95,6827],[95,6910],[95,6993],[95,7076],[95,7160],[95,7243],[95,7326],[95,7410],[95,7493],[95,7577],[94.9,7659],[94.7,7743],[94.7,7826],[94.7,7909],[94.6,7993],[94.6,8076],[94.6,8159],[94.6,8242],[94.6,8325],[94.6,8409],[94.6,8492],[94.6,8575],[94.6,8658],[94.6,8742],[94.6,8825],[94.6,8908],[94.6,8991],[94.6,9075],[94.6,9158],[94.6,9242],[94.6,9324],[94.6,9408],[94.6,9491],[94.6,9574],[94.6,9658],[94.6,9741],[94.6,9824],[94.6,9907],[94.6,9991],[94.6,10074],[94.6,10157],[94.6,10240],[94.6,10324],[94.6,10407],[94.6,10490],[94.6,10574],[94.6,10657],[94.6,10740],[94.6,10823],[94.6,10907],[94.6,10990],[94.6,11073],[94.6,11156],[94.6,11240],[94.6,11323],[94.6,11406],[94.6,11489],[94.6,11573],[94.6,11656],[94.6,11739],[94.6,11822],[94.6,11906],[94.6,11989],[94.6,12072],[94.6,12156],[94.6,12239],[94.6,12322],[94.6,12405],[94.6,12488],[94.6,12572],[94.6,12655],[94.6,12738],[94.6,12821],[94.6,12905],[94.6,12988],[94.6,13071],[94.6,13155],[94.6,13238],[94.6,13321],[94.6,13404],[94.6,13487],[94.6,13571],[94.6,13654],[94.6,13737],[94.6,13821],[94.6,13904],[94.6,13987],[94.6,14070],[94.6,14154],[94.6,14237],[94.6,14320],[94.6,14404],[94.6,14487],[94.6,14570],[94.6,14653],[94.6,14736],[94.6,14820],[94.6,14903],[94.6,14986],[94.6,15070],[94.6,15153],[94.6,15236],[94.6,15319],[94.6,15403],[94.6,15486],[94.6,15569],[94.6,15652],[94.6,15736],[94.6,15819],[94.6,15902],[94.6,15986],[94.6,16069],[94.6,16152],[94.6,16235],[94.6,16318],[94.6,16402],[94.6,16485],[94.6,16568],[94.6,16651],[94.6,16735],[94.6,16818],[94.6,16901],[94.6,16984],[94.6,17068],[94.6,17151],[94.6,17234],[94.6,17318],[94.6,17401],[94.6,17484],[94.6,17567],[94.6,17651],[94.6,17734],[94.6,17817],[94.6,17900],[94.6,17984],[94.6,18067],[94.6,18150],[94.6,18233],[94.6,18317],[94.6,18400],[94.6,18483],[94.6,18566],[94.6,18650],[94.6,18733],[94.6,18816],[94.6,18900],[94.6,18983],[94.6,19066],[94.6,19149],[94.6,19233],[94.6,19316],[94.6,19399],[94.5,19482],[94.4,19566],[94.1,19649],[94.1,19732],[94,19816],[93.9,19899],[92.4,19982],[87.4,20065],[82,20149],[80.8,20232],[80.4,20315],[80.4,20398],[80.4,20481],[80.5,20565],[82,20649],[83,20731],[84.7,20815],[86.3,20898],[87.5,20981],[89.2,21065],[90.5,21148],[90.9,21231],[90.9,21314],[90.9,21397],[91.1,21481],[91.7,21564],[92.1,21647],[93,21731],[93.9,21814],[94,21897],[94,21980],[94,22063],[94,22147],[94,22230],[94,22313],[94,22396],[94,22480],[94,22563],[94,22646],[94,22730],[94,22813],[94,22896],[94.2,22980],[94.3,23063],[94.6,23146],[94.7,23229],[94.7,23312],[94.7,23396],[94.7,23479],[94.7,23562],[94.7,23646],[94.7,23729],[94.7,23812],[94.7,23895],[94.7,23978],[94.7,24062],[94.7,24145],[94.7,24228],[94.7,24312],[94.7,24395],[94.7,24478],[94.7,24561],[94.7,24645],[94.7,24728],[94.7,24811],[94.7,24894],[94.7,24978],[94.7,25061],[94.7,25144],[94.7,25227],[94.7,25311],[94.7,25394],[94.7,25477],[94.7,25560],[94.7,25644],[94.7,25727],[94.7,25810],[94.7,25893],[94.7,25977],[94.7,26060],[94.7,26143],[94.7,26226],[94.7,26310],[94.7,26393],[94.7,26476],[94.7,26560]]",803.1941,805.1089,97.60416349,0.6716,"[{""rating"":97.60416348775227,""responseTime"":0.6716000000238864}]",space,1.369,,805.1091,Partially,50,805.1142,,,[],,0,10,10,10,1,audio/Narrative8Situation1.wav,audio/Narrative7Situation1.wav,audio/Narrative6Situation1.wav,audio/Narrative5Situation1.wav,5,2,2,5,,,,,,,,,,,,,,,,,,,,,,,,,,,,,,,,,,,,,,,
,,,,,5fc2c0cfdb80f9025c6b4810,2025-07-08_00h22.03.597,group3.4_multiperson,2023.2.2,Win32,60.24096386,686c2ebf0248f13bef9af11f,686c9bd86b2de1eab73e6b2c,,,,,,,,,,,,,,,,,,,,,,,,,,,,,805.1147,2,audio/Narrative6Situation2.wav,808.123,,808.123,836.6314,"[[97.5,1082],[97.5,1165],[97.5,1248],[97.5,1331],[97.3,1415],[97.3,1498],[97.3,1581],[97.3,1665],[97.3,1748],[97.3,1831],[97.3,1914],[97.3,1998],[97.3,2081],[97.3,2164],[97.3,2247],[97.3,2331],[97.3,2414],[97.3,2497],[97.3,2580],[97.3,2664],[97.3,2747],[97.3,2830],[97.3,2914],[97.3,2997],[97.3,3080],[97.4,3163],[97.4,3246],[97.4,3330],[97.4,3413],[97.4,3496],[97.4,3580],[97.4,3663],[97.4,3746],[97.4,3829],[97.4,3913],[97.4,3996],[97.4,4079],[97.4,4162],[97.4,4246],[97.4,4329],[97.4,4412],[97.4,4495],[97.4,4579],[97.4,4662],[97.4,4745],[97.4,4829],[97.4,4912],[97.4,4995],[97.4,5078],[98.1,5162],[98.4,5245],[98.4,5328],[98.4,5411],[98.4,5495],[98.4,5578],[98.4,5661],[98.4,5744],[98.4,5827],[98.4,5911],[98.4,5994],[98.4,6077],[98.4,6161],[98.4,6244],[98.4,6327],[98.4,6410],[98.4,6494],[98.4,6577],[98.4,6660],[98.4,6743],[98.4,6827],[98.4,6910],[98.4,6993],[98.4,7076],[98.4,7160],[98.4,7243],[98.4,7326],[98.4,7409],[98.4,7493],[98.4,7576],[98.4,7659],[98.4,7743],[98.4,7826],[98.4,7909],[98.4,7992],[98.4,8076],[98.4,8159],[98.4,8242],[98.4,8325],[98.4,8409],[98.4,8492],[98.4,8575],[98.4,8658],[98.4,8742],[98.4,8825],[98.4,8908],[98.4,8991],[98.4,9075],[98.4,9158],[98.4,9241],[98.4,9324],[98.4,9408],[98.4,9491],[98.4,9574],[98.4,9658],[98.4,9741],[98.4,9824],[98.4,9907],[98.4,9991],[98.4,10074],[98.4,10157],[98.4,10240],[98.4,10324],[98.4,10407],[98.4,10490],[98.4,10574],[98.4,10657],[98.4,10740],[98.4,10823],[98.4,10907],[98.4,10990],[98.4,11073],[98.4,11156],[98.4,11239],[98.4,11323],[98.4,11406],[98.4,11489],[98.4,11572],[98.4,11656],[98.4,11739],[98.3,11822],[98.2,11906],[98.2,11989],[98.2,12072],[98.2,12155],[98.2,12239],[98.3,12322],[99.2,12405],[100,12489],[100,12572],[100,12655],[100,12738],[100,12821],[100,12905],[100,12988],[100,13071],[100,13155],[100,13238],[100,13321],[100,13404],[100,13488],[100,13571],[100,13654],[100,13738],[100,13820],[100,13904],[100,13987],[100,14070],[100,14154],[100,14237],[100,14320],[100,14403],[100,14487],[100,14570],[100,14653],[100,14736],[100,14820],[100,14903],[100,14986],[100,15070],[100,15153],[100,15236],[100,15319],[100,15403],[100,15486],[100,15569],[100,15652],[100,15735],[100,15819],[100,15902],[100,15985],[100,16069],[100,16152],[100,16235],[100,16318],[100,16402],[100,16485],[100,16568],[100,16652],[100,16735],[100,16818],[100,16901],[100,16984],[100,17068],[100,17151],[100,17234],[100,17317],[100,17401],[100,17484],[100,17567],[100,17651],[100,17734],[100,17817],[100,17900],[100,17984],[100,18067],[100,18150],[100,18234],[100,18317],[100,18400],[100,18483],[100,18567],[100,18650],[100,18733],[100,18816],[100,18900],[100,18983],[100,19066],[100,19149],[100,19233],[100,19316],[100,19399],[100,19482],[100,19566],[100,19649],[100,19732],[100,19816],[100,19899],[100,19982],[100,20065],[100,20149],[100,20232],[100,20315],[100,20398],[100,20481],[100,20565],[100,20648],[100,20731],[100,20815],[100,20897],[100,20981],[100,21064],[100,21148],[100,21231],[100,21314],[100,21397],[100,21481],[100,21564],[100,21647],[100,21730],[100,21814],[100,21897],[100,21980],[100,22064],[100,22147],[100,22230],[100,22313],[100,22397],[100,22480],[100,22563],[100,22646],[100,22729],[100,22813],[100,22896],[100,22979],[100,23063],[100,23146],[100,23229],[100,23312],[100,23396],[100,23479],[100,23562],[100,23645],[100,23729],[100,23812],[100,23895],[100,23979],[100,24062],[100,24145],[100,24228],[100,24312],[100,24395],[100,24478],[100,24561],[100,24644],[100,24728],[100,24811],[100,24894],[100,24978],[100,25061],[100,25144],[100,25227],[100,25311],[100,25394],[100,25477],[100,25560],[100,25644],[100,25727],[100,25810],[100,25894],[100,25977],[100,26060],[100,26143],[100,26226],[100,26310],[100,26393],[100,26476],[100,26560],[100,26643],[100,26726],[100,26809],[100,26893],[100,26976],[100,27059],[100,27142],[100,27226],[100,27309],[100,27392],[100,27475],[100,27559],[100,27642],[100,27725],[100,27808],[100,27892],[100,27975],[100,28058],[100,28141],[100,28225],[100,28308],[100,28391],[100,28474]]",836.6317,839.4457,99.37500954,1.5524,"[{""rating"":99.37500953674316,""responseTime"":1.5524000000357319}]",space,2.2704,,839.4457,Not at all,0,839.4499,,,[],,0,11,11,11,1,audio/Narrative8Situation2.wav,audio/Narrative7Situation2.wav,audio/Narrative6Situation2.wav,audio/Narrative5Situation2.wav,3,3,3,3,,,,,,,,,,,,,,,,,,,,,,,,,,,,,,,,,,,,,,,
,,,,,5fc2c0cfdb80f9025c6b4810,2025-07-08_00h22.03.597,group3.4_multiperson,2023.2.2,Win32,60.24096386,686c2ebf0248f13bef9af11f,686c9bd86b2de1eab73e6b2c,,,,,,,,,,,,,,,,,,,,,,,,,,,,,839.4503,2,audio/Narrative6Situation3.wav,844.4579,,844.4581,857.0803,"[[95.2,1998],[95.1,2081],[95.1,2164],[95.1,2247],[95.1,2331],[95.1,2414],[95.3,2497],[96.6,2581],[97.3,2664],[97.9,2747],[98.2,2830],[98.2,2913],[98.2,2997],[98.2,3080],[98.2,3163],[98.2,3246],[98.2,3330],[98.2,3413],[98.2,3496],[98.2,3579],[98.2,3663],[98.2,3746],[98.2,3829],[98.2,3912],[98.2,3996],[98.2,4079],[98.2,4162],[98.2,4246],[98.2,4329],[98.2,4412],[98.2,4495],[98.2,4579],[98.2,4662],[98.2,4745],[98.2,4829],[98.2,4912],[98.2,4995],[98.2,5078],[98.2,5161],[98.2,5245],[98.2,5328],[98.2,5411],[98.2,5494],[98.2,5578],[98.2,5661],[98.2,5744],[98.2,5827],[98.2,5911],[98.2,5994],[98.2,6077],[98.2,6161],[98.2,6244],[98.2,6327],[98.2,6410],[98.2,6494],[98.2,6577],[98.2,6660],[98.2,6743],[98.2,6827],[98.2,6910],[98.2,6993],[98.2,7076],[98.2,7160],[98.2,7243],[98.2,7326],[98.2,7409],[98.2,7493],[98.2,7576],[98.2,7659],[98.2,7743],[98.2,7826],[98.2,7909],[98.2,7992],[98.2,8076],[98.2,8159],[98.2,8242],[98.2,8325],[98.2,8409],[98.2,8492],[98.2,8575],[98.2,8658],[98.2,8742],[98.2,8825],[98.2,8908],[98.2,8991],[98.2,9075],[98.2,9158],[98.2,9241],[98.2,9324],[98.2,9408],[98.2,9491],[98.2,9574],[98.2,9658],[98.2,9741],[98.2,9824],[98.2,9907],[98.2,9991],[98.2,10074],[98.2,10157],[98.2,10240],[98.2,10324],[98.2,10407],[98.2,10490],[98.2,10573],[98.2,10657],[98.2,10740],[98.2,10823],[98.2,10906],[98.2,10990],[98.2,11073],[98.2,11156],[98.2,11239],[98.2,11323],[98.2,11406],[98.2,11489],[98.2,11573],[98.2,11656],[98.2,11739],[98.2,11822],[98.2,11906],[98.2,11989],[98.2,12072],[98.2,12155],[98.2,12239],[98.2,12322],[98.2,12405],[98.2,12488],[98.2,12572]]",857.0805,861.2435,81.4583381,2.4782,"[{""rating"":81.45833810170491,""responseTime"":2.478199999988078}]",space,3.6267,,861.2436,Partially,50,861.2479,,,[],,0,12,12,12,1,audio/Narrative8Situation3.wav,audio/Narrative7Situation3.wav,audio/Narrative6Situation3.wav,audio/Narrative5Situation3.wav,4,8,5,3,,,,,,,,,,,,,,,,,,,,,,,,,,,,,,,,,,,,,,,
