consent.started,consent.stopped,consentResponse.keys,consentResponse.rt,consentResponse.duration,participantID,date,expName,psychopyVersion,OS,frameRate,STUDY_ID,SESSION_ID,opening1.started,opening1.stopped,keyEndingOpening1.keys,keyEndingOpening1.rt,keyEndingOpening1.duration,volumeAdjust.started,volumeAdjust.stopped,endingAdjust.keys,endingAdjust.rt,endingAdjust.duration,opening2.started,opening2.stopped,keyEndingOpening.keys,keyEndingOpening.rt,keyEndingOpening.duration,mouse.x,mouse.y,mouse.leftButton,mouse.midButton,mouse.rightButton,mouse.time,instructionLoop.thisRepN,instructionLoop.thisTrialN,instructionLoop.thisN,instructionLoop.thisIndex,instructionLoop.ran,readyForAudio.started,readyForAudio.stopped,fixation.started,run,audio_played,fixation.stopped,endPractice.keys,audioPre.started,audioPre.stopped,continuousResponses_audio,intRating.started,intRating.stopped,intQuestionSlider.response,intQuestionSlider.rt,intQuestionSlider.history,confirmResponse.keys,confirmResponse.rt,confirmResponse.duration,catchQuestion.started,catch_label,catch_value,catchQuestion.stopped,catchQuestionSlider.response,catchQuestionSlider.rt,catchQuestionSlider.history,confirmResponse_2.keys,audioRunLoop.thisRepN,audioRunLoop.thisTrialN,audioRunLoop.thisN,audioRunLoop.thisIndex,audioRunLoop.ran,conditions1_1,conditions2_1,conditions1_2,conditions2_2,dur1_1,dur2_1,dur1_2,dur2_2,endPractice.rt,endPractice.duration,confirmResponse_2.rt,confirmResponse_2.duration,runIntervalBreak.started,runIntervalBreak.stopped,endingBreakKey.keys,endingBreakKey.rt,endingBreakKey.duration,connection.started,connection.stopped,connectionEnding.keys,connectionEnding.rt,connectionEnding.duration,readyForText.started,readyForText.stopped,textPre.started,run_dup,textPre.stopped,continuousResponses_text,textRunLoop.thisRepN,textRunLoop.thisTrialN,textRunLoop.thisN,textRunLoop.thisIndex,textRunLoop.ran,text1_1,text1_2,text2_1,text2_2,runBreakText.started,runBreakText.stopped,endingBreakKey_2.keys,endingBreakKey_2.rt,endingBreakKey_2.duration,ending.started,ending.stopped,endingEnding.keys,endingEnding.rt,endingEnding.duration
0.0003,4.5467,y,4.2243,,5fc30c35704ddd267cc9123f,2025-07-07_20h58.02.552,group3.4_multiperson,2023.2.2,Win32,60.60606061,686c2ebf0248f13bef9af11f,686c7b18fed9f566a7afbd6d,,,,,,,,,,,,,,,,,,,,,,,,,,,,,,,,,,,,,,,,,,,,,,,,,,,,,,,,,,,,,,,,,,,,,,,,,,,,,,,,,,,,,,,,,,,,,,,,,,,,,,,,
,,,,,5fc30c35704ddd267cc9123f,2025-07-07_20h58.02.552,group3.4_multiperson,2023.2.2,Win32,60.60606061,686c2ebf0248f13bef9af11f,686c7b18fed9f566a7afbd6d,4.5475,11.0799,space,6.4109,,,,,,,,,,,,,,,,,,,,,,,,,,,,,,,,,,,,,,,,,,,,,,,,,,,,,,,,,,,,,,,,,,,,,,,,,,,,,,,,,,,,,,,,,,,,,,,,,,,,
,,,,,5fc30c35704ddd267cc9123f,2025-07-07_20h58.02.552,group3.4_multiperson,2023.2.2,Win32,60.60606061,686c2ebf0248f13bef9af11f,686c7b18fed9f566a7afbd6d,,,,,,11.0807,20.5193,space,9.1075,,,,,,,,,,,,,,,,,,,,,,,,,,,,,,,,,,,,,,,,,,,,,,,,,,,,,,,,,,,,,,,,,,,,,,,,,,,,,,,,,,,,,,,,,,,,,,,
,,,,,5fc30c35704ddd267cc9123f,2025-07-07_20h58.02.552,group3.4_multiperson,2023.2.2,Win32,60.60606061,686c2ebf0248f13bef9af11f,686c7b18fed9f566a7afbd6d,,,,,,,,,,,20.5387,34.9136,space,14.3224,,[],[],[],[],[],[],0,0,0,0,1,,,,,,,,,,,,,,,,,,,,,,,,,,,,,,,,,,,,,,,,,,,,,,,,,,,,,,,,,,,,,,,,,,,,,,,,,,,,,,
,,,,,5fc30c35704ddd267cc9123f,2025-07-07_20h58.02.552,group3.4_multiperson,2023.2.2,Win32,60.60606061,686c2ebf0248f13bef9af11f,686c7b18fed9f566a7afbd6d,,,,,,,,,,,34.9162,70.0551,space,34.915,,[-0.4137426900584795],[-0.10197368421052631],[1],[0],[0],[29.125399999976153],1,0,1,0,1,,,,,,,,,,,,,,,,,,,,,,,,,,,,,,,,,,,,,,,,,,,,,,,,,,,,,,,,,,,,,,,,,,,,,,,,,,,,,,
,,,,,5fc30c35704ddd267cc9123f,2025-07-07_20h58.02.552,group3.4_multiperson,2023.2.2,Win32,60.60606061,686c2ebf0248f13bef9af11f,686c7b18fed9f566a7afbd6d,,,,,,,,,,,70.0564,84.4466,space,14.2794,,[],[],[],[],[],[],2,0,2,0,1,,,,,,,,,,,,,,,,,,,,,,,,,,,,,,,,,,,,,,,,,,,,,,,,,,,,,,,,,,,,,,,,,,,,,,,,,,,,,,
,,,,,5fc30c35704ddd267cc9123f,2025-07-07_20h58.02.552,group3.4_multiperson,2023.2.2,Win32,60.60606061,686c2ebf0248f13bef9af11f,686c7b18fed9f566a7afbd6d,,,,,,,,,,,84.4485,124.1249,space,39.6312,0.0013,[],[],[],[],[],[],3,0,3,0,1,,,,,,,,,,,,,,,,,,,,,,,,,,,,,,,,,,,,,,,,,,,,,,,,,,,,,,,,,,,,,,,,,,,,,,,,,,,,,,
,,,,,5fc30c35704ddd267cc9123f,2025-07-07_20h58.02.552,group3.4_multiperson,2023.2.2,Win32,60.60606061,686c2ebf0248f13bef9af11f,686c7b18fed9f566a7afbd6d,,,,,,,,,,,124.1263,144.838,space,20.6529,,[],[],[],[],[],[],4,0,4,0,1,,,,,,,,,,,,,,,,,,,,,,,,,,,,,,,,,,,,,,,,,,,,,,,,,,,,,,,,,,,,,,,,,,,,,,,,,,,,,,
,,,,,5fc30c35704ddd267cc9123f,2025-07-07_20h58.02.552,group3.4_multiperson,2023.2.2,Win32,60.60606061,686c2ebf0248f13bef9af11f,686c7b18fed9f566a7afbd6d,,,,,,,,,,,144.84,158.8973,space,14.0198,,[],[],[],[],[],[],5,0,5,0,1,,,,,,,,,,,,,,,,,,,,,,,,,,,,,,,,,,,,,,,,,,,,,,,,,,,,,,,,,,,,,,,,,,,,,,,,,,,,,,
,,,,,5fc30c35704ddd267cc9123f,2025-07-07_20h58.02.552,group3.4_multiperson,2023.2.2,Win32,60.60606061,686c2ebf0248f13bef9af11f,686c7b18fed9f566a7afbd6d,,,,,,,,,,,,,,,,,,,,,,,,,,,158.9064,161.4826,161.5459,1,audio/Narrative13Situation2.wav,163.5503,,163.5508,193.3288,"[[999,6],[999,198],[999,282],[999,365],[999,449],[999,532],[999,615],[999,698],[999,782],[999,865],[999,948],[999,1032],[999,1138],[999,1222],[999,1299],[999,1389],[999,1474],[999,1549],[999,1642],[999,1721],[999,1807],[999,1892],[999,1966],[999,2057],[999,2133],[999,2216],[999,2307],[999,2386],[999,2476],[999,2559],[999,2643],[999,2728],[999,2809],[999,2892],[999,2975],[999,3051],[999,3134],[999,3225],[999,3301],[999,3384],[999,3468],[999,3558],[999,3643],[999,3727],[999,3801],[999,3884],[999,3976],[999,4052],[999,4142],[999,4218],[999,4302],[999,4392],[999,4469],[74.6,4563],[73.5,4646],[58.9,4812],[51.9,4896],[47.9,4979],[46.2,5062],[45.8,5144],[45.7,5225],[45.7,5312],[45.7,5393],[45.7,5477],[45.7,5560],[45.7,5636],[45.7,5719],[45.7,5803],[45.7,5893],[45.7,5971],[45.7,6061],[45.7,6136],[46.9,6231],[47.1,6312],[47.7,6395],[49.6,6480],[50.1,6562],[50.1,6636],[50.1,6720],[50.3,6812],[50.8,6899],[50.5,6977],[50.6,7061],[50.6,7137],[50.6,7224],[50.6,7312],[50.7,7388],[50.7,7478],[50.7,7554],[50.7,7637],[50.7,7728],[50.7,7813],[50.7,7887],[50.7,7978],[50.7,8062],[50.7,8138],[50.7,8221],[50.7,8305],[50.7,8388],[50.7,8471],[50.7,8555],[50.7,8638],[50.7,8721],[50.7,8804],[50.7,8893],[50.7,8971],[50.7,9055],[50.7,9146],[50.7,9226],[50.7,9312],[50.7,9388],[50.7,9472],[50.7,9555],[50.7,9639],[50.7,9729],[50.7,9805],[50.7,9889],[50.7,9977],[50.7,10055],[50.7,10139],[50.7,10222],[50.7,10313],[50.7,10396],[50.7,10473],[50.7,10556],[50.7,10639],[50.7,10728],[50.7,10813],[55.1,10900],[58.8,10984],[60.4,11059],[60.4,11145],[61.1,11233],[62.1,11317],[63.5,11400],[64.8,11482],[67,11566],[68.1,11649],[68.9,11733],[69.3,11814],[70,11900],[70.5,11981],[71.1,12069],[71.9,12149],[71.9,12232],[71.9,12308],[71.9,12398],[71.9,12474],[71.9,12557],[71.9,12641],[71.9,12724],[71.9,12807],[71.9,12892],[71.9,12975],[71.9,13057],[71.9,13141],[71.9,13231],[71.9,13316],[71.9,13399],[71.9,13482],[71.9,13558],[71.9,13641],[71.9,13724],[71.9,13808],[71.9,13892],[71.9,13975],[71.9,14058],[71.9,14142],[71.9,14225],[71.9,14308],[71.9,14392],[71.9,14475],[71.9,14559],[71.9,14642],[71.9,14725],[71.9,14816],[71.9,14897],[71.9,14976],[71.9,15059],[71.9,15142],[71.9,15233],[71.9,15309],[71.9,15393],[71.9,15483],[71.9,15567],[71.9,15648],[71.9,15726],[71.9,15809],[71.9,15900],[71.9,15976],[71.9,16067],[71.9,16152],[71.9,16226],[71.9,16317],[71.9,16401],[69.6,16485],[68.2,16569],[67.5,16652],[67.4,16735],[67.4,16810],[67.4,16894],[67.4,16977],[67.4,17060],[67.4,17144],[67.4,17234],[67.4,17319],[67.4,17394],[67.4,17485],[67.4,17561],[67.4,17644],[66.6,17736],[65.4,17822],[63.8,17903],[61.9,17988],[60.2,18071],[58.7,18155],[56.6,18237],[54.6,18321],[52.9,18403],[52,18489],[51.2,18570],[51.1,18653],[51.1,18728],[50.9,18811],[50.5,18904],[50.5,18978],[50.2,19070],[50.1,19145],[50.1,19228],[50.1,19312],[50.1,19395],[50.1,19478],[50.1,19570],[50.1,19645],[50.1,19729],[50.1,19820],[50.1,19896],[50.1,19979],[50.1,20067],[50.1,20146],[50.1,20229],[50.1,20317],[50.1,20396],[50.1,20479],[50.1,20570],[50.1,20646],[50.1,20729],[50.1,20821],[50.1,20896],[50.1,20980],[50.1,21069],[50.1,21146],[50.1,21230],[50.1,21314],[50.1,21396],[50.1,21480],[50.1,21572],[50.1,21647],[50.1,21730],[50.1,21821],[50.1,21897],[50.1,21988],[50.1,22071],[50.1,22148],[50.1,22230],[50.1,22315],[50.1,22397],[50.1,22481],[50.1,22572],[50.1,22648],[50.1,22731],[50.1,22820],[50.1,22898],[50.1,22981],[52,23074],[58.4,23157],[61.8,23242],[64.3,23324],[66.7,23406],[67.3,23481],[67.3,23572],[67.3,23648],[67.3,23731],[67.3,23815],[67.3,23906],[67.3,23988],[67.3,24065],[67.3,24148],[67.3,24232],[67.3,24315],[67.3,24399],[67.3,24491],[67.3,24565],[58.8,24658],[44.7,24742],[39.8,24825],[38.2,24909],[34.9,24994],[33.6,25075],[32.5,25158],[31.7,25242],[31.7,25323],[31.7,25407],[31.7,25491],[31.7,25566],[31.7,25649],[31.7,25733],[31.7,25817],[31.7,25900],[31.7,25983],[31.7,26066],[31.7,26158],[31.7,26240],[31.7,26317],[31.7,26400],[31.7,26483],[31.7,26574],[31.7,26650],[31.7,26733],[31.7,26817],[31.7,26900],[33.6,26993],[43.9,27078],[46.2,27160],[47.6,27242],[52,27327],[56.6,27411],[59.9,27494],[62.9,27578],[65.6,27661],[66.1,27742],[66.2,27817],[66.2,27901],[66.2,27991],[66.2,28069],[66.3,28151],[66.4,28238],[66.4,28325],[66.4,28402],[66.4,28485],[66.4,28568],[66.4,28656],[66.4,28747],[66.4,28823],[66.4,28902],[66.4,28993],[66.4,29068],[66.4,29152],[66.4,29243],[66.4,29319],[66.4,29403],[66.4,29485],[66.4,29569],[66.4,29663],[66.4,29737]]",193.3298,205.6462,30.55555556,8.0402,"[{""rating"":30.555555555555557,""responseTime"":8.04019999998809}]",space,11.7809,,205.6474,Not at all,0,205.6646,,,[],,0,0,0,0,1,audio/Narrative13Situation2.wav,audio/Narrative13Situation2.wav,audio/Narrative13Situation2.wav,audio/Narrative13Situation2.wav,2,2,2,2,,,,,,,,,,,,,,,,,,,,,,,,,,,,,,,,,,,,,,,
,,,,,5fc30c35704ddd267cc9123f,2025-07-07_20h58.02.552,group3.4_multiperson,2023.2.2,Win32,60.60606061,686c2ebf0248f13bef9af11f,686c7b18fed9f566a7afbd6d,,,,,,,,,,,,,,,,,,,,,,,,,,,,,205.6655,1,audio/Narrative8Situation1.wav,209.8827,space,209.883,225.8264,"[[32.3,1440],[39.8,1526],[45.5,1609],[47.7,1697],[50.9,1776],[53.3,1859],[53.8,1932],[53.8,2023],[53.9,2109],[53.3,2191],[52.7,2275],[51.7,2359],[51.2,2441],[51.2,2516],[51.2,2608],[54.7,2692],[56.1,2774],[59.1,2861],[60.9,2942],[61.7,3026],[63.2,3110],[64.9,3194],[66.2,3277],[67.4,3359],[68.4,3444],[69.3,3527],[69.6,3601],[69.7,3691],[69.9,3768],[70.3,3859],[70.9,3943],[71.5,4027],[71.6,4108],[71.8,4190],[71.9,4274],[72.7,4361],[72.7,4435],[72.7,4526],[72.7,4609],[72.7,4693],[72.7,4768],[72.7,4857],[75.8,4946],[77.8,5028],[80.4,5112],[82.6,5194],[83,5269],[83.9,5360],[83.8,5436],[83.7,5519],[83.7,5602],[83.7,5690],[83.7,5769],[83.7,5852],[83.7,5936],[83.7,6026],[83.7,6108],[83.7,6186],[83.7,6277],[82.1,6363],[81.5,6444],[80.8,6529],[80.6,6603],[80.6,6686],[80.6,6778],[80.6,6861],[80.8,6939],[81.6,7029],[81.9,7111],[82.1,7193],[82.1,7278],[82.1,7358],[82.1,7436],[82.1,7520],[82.1,7604],[82.1,7687],[82.1,7770],[82.1,7854],[82.1,7937],[82.1,8025],[82.1,8104],[82.1,8187],[82.1,8270],[82.1,8354],[82.1,8445],[82.1,8527],[82.1,8606],[82.1,8688],[82.1,8776],[82.1,8862],[82.1,8945],[82.1,9029],[82.1,9105],[82.1,9188],[82.1,9271],[82.1,9362],[82.1,9438],[82.1,9529],[82.1,9605],[82.1,9696],[82.1,9772],[82.1,9855],[82.1,9946],[82.1,10029],[82.1,10105],[82.1,10188],[82.1,10272],[82.1,10355],[82.1,10439],[82.1,10522],[82.1,10606],[82.1,10689],[82.1,10772],[82.1,10861],[82.1,10939],[82.1,11030],[82.1,11106],[82.1,11189],[82.1,11273],[82.1,11356],[82.1,11447],[82.1,11523],[82.1,11606],[82.1,11690],[82.1,11773],[82.1,11856],[82.1,11945],[82.1,12023],[82.1,12106],[82.1,12190],[82.1,12273],[82.1,12357],[82.1,12441],[82.1,12524],[82.1,12614],[82.1,12690],[82.1,12774],[82.1,12864],[82.1,12947],[82.1,13024],[82.1,13108],[82.1,13191],[82.1,13282],[82.1,13358],[82.1,13448],[82.1,13524],[82.1,13608],[82.1,13699],[82.1,13782],[82.1,13858],[82.1,13949],[82.1,14025],[82.1,14108],[82.1,14192],[82.1,14275],[82.1,14358],[82.1,14449],[82.1,14532],[82.1,14615],[82.1,14691],[82.1,14774],[82.1,14864],[82.1,14942],[82.1,15025],[82.1,15109],[82.1,15192],[82.1,15275],[82.1,15359],[82.1,15442],[82.1,15526],[82.1,15609],[82.1,15692],[82.1,15776],[82.1,15859],[82.1,15942]]",225.8275,232.1646,32.96783626,5.3895,"[{""rating"":32.96783625730994,""responseTime"":5.389499999999998}]",space,5.7891,,232.1649,Definitely yes,100,232.1765,,,[],,0,1,1,1,1,audio/Narrative7Situation1.wav,audio/Narrative8Situation1.wav,audio/Narrative5Situation1.wav,audio/Narrative6Situation1.wav,2,5,5,2,4.1555,,,,,,,,,,,,,,,,,,,,,,,,,,,,,,,,,,,,,,
,,,,,5fc30c35704ddd267cc9123f,2025-07-07_20h58.02.552,group3.4_multiperson,2023.2.2,Win32,60.60606061,686c2ebf0248f13bef9af11f,686c7b18fed9f566a7afbd6d,,,,,,,,,,,,,,,,,,,,,,,,,,,,,232.1771,1,audio/Narrative8Situation2.wav,235.1837,,235.1839,245.3064,"[[999,1],[999,100],[999,182],[999,265],[999,349],[999,432],[999,516],[999,599],[999,683],[999,767],[999,849],[999,932],[999,1017],[49.6,1099],[49.7,1184],[50.2,1266],[50.2,1349],[50.2,1432],[50.2,1515],[50.2,1599],[50.2,1683],[50.2,1766],[50.2,1849],[50.2,1933],[50.2,2016],[50.2,2099],[50.2,2183],[50.2,2266],[50.2,2350],[50.2,2433],[50.2,2516],[50.2,2600],[50.2,2684],[50.2,2767],[50.2,2850],[50.2,2934],[50.2,3017],[50.2,3100],[50.2,3184],[50.2,3267],[50.2,3350],[50.2,3434],[50.2,3517],[50.2,3600],[50.2,3685],[50.2,3767],[50.2,3851],[50.2,3934],[50.2,4018],[50.2,4101],[49.9,4185],[45.8,4269],[42.3,4351],[38.7,4435],[34.8,4518],[31.7,4603],[29.1,4685],[26.7,4769],[24.3,4852],[23.5,4935],[22.4,5018],[21.6,5102],[20.8,5185],[20.4,5269],[19.8,5352],[19.7,5435],[19.5,5518],[19.5,5602],[19.5,5685],[19.4,5769],[19.4,5852],[19.4,5935],[19.4,6019],[19.4,6102],[19.4,6185],[19.4,6269],[19.4,6352],[19.4,6436],[19.4,6520],[19.4,6603],[19.4,6686],[19.4,6770],[19.4,6853],[19.4,6936],[19.4,7020],[19.4,7103],[19.4,7186],[19.4,7270],[19.4,7354],[19.4,7437],[19.4,7520],[19.4,7603],[19.4,7687],[19.4,7771],[19.4,7854],[19.4,7937],[19.4,8021],[19.4,8104],[19.4,8187],[19.4,8270],[19.4,8354],[19.4,8437],[19.4,8521],[19.4,8604],[19.4,8688],[19.4,8771],[19.4,8854],[19.4,8938],[19.4,9021],[19.4,9104],[19.4,9188],[19.4,9271],[19.4,9355],[19.4,9438],[19.4,9522],[19.4,9605],[19.4,9688],[19.4,9772],[19.4,9855],[19.4,9939],[19.4,10022],[19.4,10105]]",245.3069,247.4913,0.877192982,1.8866,"[{""rating"":0.8771929824561431,""responseTime"":1.8865999999642327}]",space,1.6362,,247.4916,Not at all,0,247.502,,,[],,0,2,2,2,1,audio/Narrative7Situation2.wav,audio/Narrative8Situation2.wav,audio/Narrative5Situation2.wav,audio/Narrative6Situation2.wav,3,3,3,3,,,,,,,,,,,,,,,,,,,,,,,,,,,,,,,,,,,,,,,
,,,,,5fc30c35704ddd267cc9123f,2025-07-07_20h58.02.552,group3.4_multiperson,2023.2.2,Win32,60.60606061,686c2ebf0248f13bef9af11f,686c7b18fed9f566a7afbd6d,,,,,,,,,,,,,,,,,,,,,,,,,,,,,247.5026,1,audio/Narrative8Situation3.wav,251.5044,,251.5045,273.884,"[[999,1],[999,99],[999,179],[999,263],[999,349],[999,432],[999,506],[999,589],[999,680],[999,758],[999,839],[999,923],[999,1006],[999,1089],[999,1173],[999,1261],[999,1339],[999,1423],[999,1507],[999,1590],[999,1673],[999,1757],[999,1840],[999,1923],[999,2007],[999,2090],[999,2174],[999,2257],[999,2340],[999,2424],[999,2507],[999,2591],[999,2674],[999,2757],[999,2841],[999,2931],[999,3008],[999,3091],[999,3174],[999,3257],[999,3341],[999,3425],[999,3508],[999,3591],[999,3675],[999,3758],[999,3841],[999,3925],[999,4008],[999,4091],[999,4175],[999,4267],[999,4342],[999,4432],[999,4509],[999,4592],[999,4683],[999,4760],[999,4851],[999,4936],[999,5017],[999,5101],[49.1,5186],[49.8,5268],[50.1,5351],[50.4,5434],[50.4,5509],[50.5,5593],[51.5,5687],[52.6,5769],[53.5,5850],[54.5,5937],[55.1,6019],[55.9,6104],[61.8,6187],[67.2,6269],[69.7,6356],[72.4,6436],[74.6,6520],[75.3,6603],[77.8,6687],[78.5,6768],[81.2,6855],[83.6,6935],[83.3,7018],[83.3,7094],[83.3,7185],[83.3,7260],[83.3,7344],[83.3,7435],[83.3,7511],[83.3,7594],[83.3,7677],[83.3,7761],[83.3,7844],[83.3,7927],[83.3,8016],[83.3,8095],[83.3,8178],[83.3,8261],[83.3,8349],[83.3,8429],[83.3,8511],[83.3,8600],[83.3,8678],[83.3,8762],[83.3,8852],[83.3,8937],[83.3,9011],[83.3,9095],[83.3,9178],[83.3,9262],[83.3,9345],[83.3,9429],[83.3,9512],[83.3,9595],[83.3,9686],[83.3,9762],[83.3,9845],[83.3,9938],[83.3,10012],[83.3,10095],[84.4,10190],[86.7,10272],[87.6,10354],[88,10437],[88,10512],[88,10596],[88,10684],[88,10763],[88,10846],[88,10929],[88,11013],[88,11096],[88,11191],[88,11266],[88,11355],[88,11439],[88,11513],[88,11597],[88,11680],[88,11763],[88,11854],[88,11930],[88,12014],[88,12105],[88,12180],[88,12269],[88,12354],[88,12430],[88,12514],[88,12597],[88,12681],[88,12765],[88,12848],[88,12931],[88,13014],[88,13098],[88,13181],[88,13264],[88,13348],[88,13431],[88,13515],[88,13598],[88,13682],[88,13765],[88,13848],[88,13932],[88,14015],[88,14106],[88,14182],[88,14265],[88,14354],[88,14432],[88,14515],[88,14599],[88,14682],[88,14765],[88,14857],[88,14932],[88,15019],[88,15099],[88,15183],[92.5,15275],[95.2,15360],[95.4,15440],[95.4,15516],[95.4,15599],[95.4,15683],[95.4,15766],[95.4,15858],[95.4,15935],[95.4,16024],[95.4,16108],[95.4,16183],[95.4,16274],[95.4,16359],[95.4,16434],[95.4,16524],[95.4,16608],[95.4,16684],[95.4,16767],[95.4,16851],[95.4,16934],[95.4,17017],[95.4,17101],[95.4,17184],[95.4,17272],[95.4,17357],[95.4,17434],[95.4,17518],[95.4,17601],[95.4,17684],[95.4,17768],[95.4,17851],[95.4,17934],[95.4,18018],[95.4,18101],[95.4,18192],[95.4,18268],[95.4,18351],[95.4,18435],[95.4,18518],[95.4,18601],[95.4,18692],[95.4,18768],[95.4,18856],[95.4,18935],[95.4,19019],[95.4,19109],[95.4,19185],[95.4,19269],[95.4,19353],[95.4,19435],[95.4,19519],[95.4,19602],[95.4,19686],[95.4,19777],[95.4,19852],[95.4,19944],[95.4,20028],[95.4,20102],[95.4,20193],[95.4,20275],[95.4,20352],[95.4,20444],[95.4,20520],[95.4,20602],[95.4,20686],[95.4,20770],[95.4,20853],[95.4,20936],[95.4,21020],[95.4,21111],[95.4,21187],[95.4,21278],[95.4,21353],[95.4,21437],[95.4,21528],[95.4,21604],[95.4,21694],[95.4,21780],[95.4,21853],[95.4,21937],[95.4,22021],[95.4,22104],[95.4,22196],[95.4,22271],[95.4,22355]]",273.8844,280.2969,87.20760234,4.4242,"[{""rating"":87.20760233918128,""responseTime"":4.4241999999881045}]",space,5.8782,,280.2971,Definitely yes,100,285.5505,99.78070175,4.9841,"[{""rating"":99.78070175438596,""responseTime"":4.984100000023886}]",space,0,3,3,3,1,audio/Narrative7Situation3.wav,audio/Narrative8Situation3.wav,audio/Narrative5Situation3.wav,audio/Narrative6Situation3.wav,8,4,3,5,,,4.7243,,,,,,,,,,,,,,,,,,,,,,,,,,,,,,,,,,,,
,,,,,5fc30c35704ddd267cc9123f,2025-07-07_20h58.02.552,group3.4_multiperson,2023.2.2,Win32,60.60606061,686c2ebf0248f13bef9af11f,686c7b18fed9f566a7afbd6d,,,,,,,,,,,,,,,,,,,,,,,,,,,,,285.5515,1,audio/Narrative8Situation4.wav,288.5532,,288.5534,302.7301,"[[90,1425],[85.4,1511],[74.1,1592],[64.5,1676],[55.9,1760],[53,1843],[52.1,1924],[50.8,2011],[49.9,2092],[49.9,2166],[49.9,2259],[49.9,2333],[49.9,2417],[49.9,2500],[49.9,2592],[49.9,2667],[50.3,2759],[53.7,2845],[56,2928],[58.4,3009],[60.3,3097],[61.5,3176],[61.9,3260],[62.3,3345],[63.2,3427],[63.2,3507],[63.2,3584],[64.2,3678],[65.5,3761],[65.7,3837],[65.7,3925],[65.9,4011],[65.9,4085],[66.3,4168],[66.3,4257],[66.3,4335],[66.3,4419],[66.3,4502],[66.3,4585],[66.3,4669],[66.3,4759],[66.3,4835],[66.3,4919],[66.3,5002],[66.3,5091],[66.3,5169],[66.3,5252],[66.3,5335],[66.3,5419],[66.3,5502],[66.3,5593],[66.3,5669],[66.3,5753],[66.3,5836],[66.3,5924],[66.3,6002],[66.3,6086],[68.3,6178],[70.5,6264],[73.4,6346],[75,6429],[75.7,6512],[77.1,6596],[77.6,6678],[77.8,6756],[78.1,6837],[78.1,6928],[78.1,7003],[78.1,7086],[78.1,7178],[78.1,7254],[78.1,7346],[78.1,7420],[78.1,7511],[78.1,7587],[78.1,7671],[78.1,7755],[78.1,7837],[78.1,7928],[78.1,8004],[78.1,8095],[78.1,8179],[78.1,8254],[78.1,8345],[78.1,8430],[78.1,8505],[78.1,8588],[78.1,8671],[78.1,8754],[78.1,8838],[78.1,8921],[78.1,9005],[78.1,9088],[78.1,9172],[78.1,9255],[78.1,9339],[78.1,9422],[78.1,9511],[78.1,9589],[78.1,9680],[78.1,9755],[78.1,9839],[78.1,9922],[78.1,10006],[78.1,10089],[78.1,10180],[78.1,10256],[78.1,10339],[78.1,10423],[78.1,10506],[78.1,10597],[78.1,10673],[78.1,10763],[78.1,10839],[78.1,10930],[78.1,11006],[78.2,11098],[78.4,11173],[78.8,11266],[78.8,11340],[78.8,11430],[78.8,11506],[78.8,11590],[78.8,11681],[78.8,11756],[78.8,11840],[78.8,11924],[78.8,12007],[78.8,12098],[78.8,12174],[78.8,12257],[78.8,12347],[78.8,12424],[78.8,12515],[78.8,12599],[78.8,12674],[78.8,12757],[78.8,12847],[78.8,12924],[78.8,13015],[83.3,13101],[86.9,13185],[89.8,13267],[90.6,13351],[90.8,13432],[90.8,13508],[90.8,13600],[90.8,13674],[90.8,13758],[90.8,13841],[90.8,13925],[90.8,14008],[90.8,14092],[90.8,14175]]",302.7309,306.7711,95.39473684,3.2419,"[{""rating"":95.39473684210526,""responseTime"":3.2419000000357414}]",space,3.4732,,306.7713,Partially,50,306.7794,,,[],,0,4,4,4,1,audio/Narrative7Situation4.wav,audio/Narrative8Situation4.wav,audio/Narrative5Situation4.wav,audio/Narrative6Situation4.wav,3,3,1,2,,,,,,,,,,,,,,,,,,,,,,,,,,,,,,,,,,,,,,,
,,,,,5fc30c35704ddd267cc9123f,2025-07-07_20h58.02.552,group3.4_multiperson,2023.2.2,Win32,60.60606061,686c2ebf0248f13bef9af11f,686c7b18fed9f566a7afbd6d,,,,,,,,,,,,,,,,,,,,,,,,,,,,,306.7801,1,audio/Narrative8Situation5.wav,308.7837,,308.784,317.0393,"[[79.5,2184],[59.4,2269],[51.1,2351],[50.1,2435],[49,2517],[48.8,2600],[49,2685],[49.6,2769],[49.9,2851],[51.8,2936],[56.3,3018],[58.5,3102],[60.7,3185],[62.1,3267],[62.4,3351],[62.7,3434],[63.2,3518],[64,3602],[66.3,3685],[66.5,3768],[66.5,3852],[66.5,3935],[66.5,4018],[66.5,4102],[66.5,4186],[66.5,4268],[66.5,4352],[66.5,4435],[66.5,4519],[66.5,4602],[66.5,4685],[66.5,4769],[66.5,4852],[66.5,4935],[66.5,5019],[66.5,5102],[66.5,5186],[66.5,5269],[66.5,5352],[66.5,5436],[66.5,5520],[66.5,5603],[66.5,5686],[66.5,5769],[66.5,5852],[66.5,5936],[67.6,6020],[69.2,6104],[71,6187],[72.2,6270],[72.5,6353],[72.5,6436],[72.5,6520],[72.5,6604],[72.5,6687],[72.5,6770],[72.5,6853],[72.5,6937],[72.5,7021],[72.5,7104],[72.5,7187],[72.5,7270],[72.5,7354],[72.5,7437],[72.5,7521],[72.5,7604],[72.5,7688],[72.5,7771],[72.5,7854],[72.5,7938],[72.5,8021],[72.5,8105],[72.5,8188]]",317.0397,319.2831,90.71637427,1.7592,"[{""rating"":90.71637426900585,""responseTime"":1.759199999988084}]",space,1.6995,,319.2834,Not at all,0,319.2939,,,[],,0,5,5,5,1,audio/Narrative7Situation5.wav,audio/Narrative8Situation5.wav,audio/Narrative5Situation5.wav,audio/Narrative6Situation5.wav,5,2,5,2,,,,,,,,,,,,,,,,,,,,,,,,,,,,,,,,,,,,,,,
,,,,,5fc30c35704ddd267cc9123f,2025-07-07_20h58.02.552,group3.4_multiperson,2023.2.2,Win32,60.60606061,686c2ebf0248f13bef9af11f,686c7b18fed9f566a7afbd6d,,,,,,,,,,,,,,,,,,,,,,,,,,,,,319.2946,1,audio/Narrative8Situation6.wav,321.3091,,321.3094,327.78,"[[79.4,851],[66.4,934],[64,1016],[61.7,1100],[57.5,1184],[56.2,1266],[55.3,1351],[53.7,1433],[52.7,1517],[52.3,1600],[51,1684],[50.1,1768],[49.6,1850],[49.6,1933],[49.6,2016],[49.6,2100],[49.6,2183],[49.6,2267],[49.6,2350],[49.6,2433],[49.6,2517],[49.6,2600],[49.6,2684],[49.6,2768],[49.6,2851],[51.8,2935],[55.5,3018],[58.9,3101],[62.7,3185],[68.4,3268],[72,3352],[73.8,3435],[76,3520],[77.6,3601],[78.1,3685],[78.8,3768],[79.4,3851],[79.5,3934],[79.5,4018],[79.5,4101],[79.5,4185],[79.7,4268],[80,4352],[80,4435],[80,4519],[80,4602],[80,4685],[80,4768],[80,4852],[80,4935],[80,5019],[80,5102],[80,5186],[80,5269],[80,5353],[80,5435],[80,5519],[80,5603],[80,5685],[80,5769],[80,5853],[80,5936],[80,6020],[80,6103],[80,6186],[80,6269],[80,6353],[80,6436]]",327.7805,330.6153,79.3128655,1.4771,"[{""rating"":79.31286549707602,""responseTime"":1.4771000000238814}]",space,2.2863,,330.6156,Definitely yes,100,330.6247,,,[],,0,6,6,6,1,audio/Narrative7Situation6.wav,audio/Narrative8Situation6.wav,audio/Narrative5Situation6.wav,audio/Narrative6Situation6.wav,3,2,3,2,,,,,,,,,,,,,,,,,,,,,,,,,,,,,,,,,,,,,,,
,,,,,5fc30c35704ddd267cc9123f,2025-07-07_20h58.02.552,group3.4_multiperson,2023.2.2,Win32,60.60606061,686c2ebf0248f13bef9af11f,686c7b18fed9f566a7afbd6d,,,,,,,,,,,,,,,,,,,,,,,,,,,,,330.6254,1,audio/Narrative8Situation7.wav,333.6342,,333.6343,345.7258,"[[999,1],[999,99],[999,182],[999,266],[999,349],[999,432],[77.9,767],[77.2,851],[77.2,933],[77.2,1016],[77.2,1099],[77.2,1184],[77.2,1266],[77.2,1350],[77.2,1433],[77.2,1517],[77.2,1600],[77.2,1683],[77.2,1767],[77.2,1850],[77.2,1934],[77.2,2017],[76.2,2102],[76.2,2185],[76.2,2267],[74.3,2351],[70.2,2434],[69,2517],[68.1,2600],[68.1,2684],[68.1,2768],[68.9,2851],[69.7,2935],[70.2,3017],[70.3,3101],[70.3,3184],[70.3,3268],[70.3,3351],[70.3,3435],[70.3,3518],[70.3,3601],[70.3,3685],[70.3,3768],[70.3,3851],[70.3,3935],[70.3,4018],[70.3,4101],[70.3,4185],[71.8,4269],[72.4,4352],[73.1,4437],[74,4519],[74.9,4603],[74.9,4685],[74.9,4769],[74.9,4852],[74.9,4935],[74.9,5019],[74.9,5102],[74.9,5185],[74.9,5269],[74.9,5352],[74.9,5436],[74.9,5520],[74.9,5603],[74.9,5686],[74.9,5770],[74.9,5853],[74.9,5936],[74.9,6020],[74.9,6103],[74.9,6186],[74.9,6270],[74.9,6353],[75,6437],[75,6520],[75,6603],[75,6687],[75,6770],[75,6853],[75,6937],[75,7020],[75,7104],[75,7187],[75,7270],[75,7354],[75,7437],[75,7521],[75,7604],[75,7688],[75,7771],[75,7854],[75,7938],[75,8021],[75,8105],[75,8188],[75,8271],[75,8354],[75,8438],[75,8521],[75,8605],[76.8,8689],[80,8772],[82,8855],[82.5,8938],[83,9022],[83.6,9105],[83.6,9188],[83.6,9272],[83.6,9355],[83.6,9439],[83.6,9522],[83.6,9605],[83.6,9689],[83.6,9772],[83.6,9855],[83.6,9939],[83.6,10022],[83.6,10106],[83.6,10189],[83.6,10273],[83.6,10356],[83.6,10439],[83.6,10523],[83.6,10607],[83.6,10689],[83.6,10773],[83.6,10856],[83.6,10940],[83.6,11024],[83.6,11107],[83.6,11190],[83.6,11273],[83.6,11357],[83.6,11440],[83.6,11524],[83.6,11607],[83.6,11690],[83.6,11774],[83.6,11857],[83.6,11941],[83.6,12024]]",345.7262,348.4773,87.57309942,1.877,"[{""rating"":87.57309941520468,""responseTime"":1.8769999999999527}]",space,2.2101,,348.4777,Definitely yes,100,348.4843,,,[],,0,7,7,7,1,audio/Narrative7Situation7.wav,audio/Narrative8Situation7.wav,audio/Narrative5Situation7.wav,audio/Narrative6Situation7.wav,5,3,4,5,,,,,,,,,,,,,,,,,,,,,,,,,,,,,,,,,,,,,,,
,,,,,5fc30c35704ddd267cc9123f,2025-07-07_20h58.02.552,group3.4_multiperson,2023.2.2,Win32,60.60606061,686c2ebf0248f13bef9af11f,686c7b18fed9f566a7afbd6d,,,,,,,,,,,,,,,,,,,,,,,,,,,,,348.4851,1,audio/Narrative8Situation8.wav,351.4957,,351.4958,364.3394,"[[87.2,4670],[86.8,4754],[86.8,4837],[86.7,4920],[86.7,5004],[86.7,5087],[86.7,5170],[86.7,5253],[86.5,5337],[86.5,5420],[86.5,5504],[86.5,5587],[86.5,5671],[86.5,5753],[86.5,5837],[86.5,5921],[86.5,6004],[86.5,6087],[86.5,6171],[86.5,6254],[86.5,6338],[86.5,6421],[86.5,6504],[86.5,6588],[86.5,6671],[86.5,6754],[86.5,6838],[86.5,6921],[86.5,7004],[86.5,7088],[86.5,7172],[86.5,7254],[86.5,7339],[86.5,7421],[86.5,7505],[86.5,7589],[86.5,7672],[86.5,7755],[86.5,7838],[86.5,7923],[86.5,8005],[86.5,8089],[86.5,8173],[86.5,8256],[86.5,8339],[86.5,8423],[86.5,8506],[86.5,8590],[86.5,8673],[86.5,8756],[86.5,8839],[86.5,8923],[86.5,9006],[86.5,9090],[86.5,9173],[86.5,9256],[86.5,9340],[86.5,9423],[86.5,9507],[86.5,9590],[86.5,9673],[86.5,9757],[86.5,9840],[86.5,9923],[86.5,10007],[86.5,10090],[86.5,10174],[87.3,10258],[89.8,10341],[91,10425],[92,10508],[92.3,10592],[92.4,10674],[92.8,10758],[94,10841],[94,10924],[94,11007],[94,11091],[94,11174],[94,11257],[94,11341],[94,11424],[94,11508],[94,11591],[94,11674],[94,11758],[94,11842],[94,11924],[94,12008],[94,12091],[94,12174],[94,12258],[94,12342],[94,12425],[94,12508],[94,12592],[94,12675],[94,12759],[94,12843]]",364.3398,365.8987,94.00584795,0.856,"[{""rating"":94.00584795321637,""responseTime"":0.8559999999999945}]",space,1.0197,,365.8988,Partially,50,365.9099,,,[],,0,8,8,8,1,audio/Narrative7Situation8.wav,audio/Narrative8Situation8.wav,audio/Narrative5Situation8.wav,audio/Narrative6Situation8.wav,2,3,3,5,,,,,,,,,,,,,,,,,,,,,,,,,,,,,,,,,,,,,,,
,,,,,5fc30c35704ddd267cc9123f,2025-07-07_20h58.02.552,group3.4_multiperson,2023.2.2,Win32,60.60606061,686c2ebf0248f13bef9af11f,686c7b18fed9f566a7afbd6d,,,,,,,,,,,,,,,,,,,,,,,,,,,,,365.9107,1,audio/Narrative8Situation9.wav,368.925,,368.9252,380.2326,"[[93.3,2018],[93.3,2100],[93.3,2184],[93.3,2267],[93.2,2351],[93.1,2434],[93.1,2517],[93.1,2601],[93.1,2684],[93.1,2767],[93.1,2851],[93.1,2934],[93.1,3018],[93.1,3101],[93.1,3184],[93.1,3268],[93.1,3358],[93.1,3443],[93.1,3518],[93.1,3601],[93.1,3685],[93.1,3768],[93.1,3851],[93.1,3936],[93.1,4018],[93.1,4102],[93.1,4185],[93.1,4276],[93.1,4352],[93.1,4435],[93.1,4526],[93.1,4602],[93.1,4685],[93.1,4776],[93.1,4853],[93.1,4944],[93.1,5025],[93.1,5102],[93.1,5193],[93.1,5278],[93.1,5353],[93.1,5436],[93.1,5519],[93.1,5603],[93.1,5686],[93.1,5770],[93.1,5853],[93.1,5944],[93.1,6019],[93.1,6111],[93.1,6186],[93.1,6270],[93.1,6353],[93.1,6437],[93.1,6519],[93.1,6603],[93.1,6694],[93.1,6770],[92,6862],[89,6948],[87.1,7029],[86.6,7111],[86.6,7187],[86.5,7278],[86,7363],[85.9,7437],[85.9,7528],[85.9,7611],[85.9,7687],[85.9,7771],[85.9,7854],[85.9,7938],[85.9,8021],[85.9,8104],[85.9,8188],[85.9,8271],[85.9,8355],[85.9,8445],[85.9,8521],[85.9,8605],[85.9,8695],[85.9,8772],[85.9,8855],[85.9,8946],[85.9,9022],[85.9,9105],[85.9,9197],[85.9,9279],[85.9,9362],[85.9,9438],[85.9,9522],[85.9,9613],[85.9,9689],[85.9,9772],[85.9,9864],[85.9,9939],[85.9,10030],[85.9,10115],[85.9,10194],[85.9,10280],[85.9,10356],[85.9,10439],[85.9,10523],[85.9,10606],[85.9,10697],[85.9,10773],[85.9,10856],[85.9,10947],[85.9,11023],[85.9,11106],[85.9,11190],[85.9,11273]]",380.2333,382.5083,82.74853801,1.7267,"[{""rating"":82.7485380116959,""responseTime"":1.7266999999880568}]",space,1.7235,,382.5087,Partially,50,382.5134,,,[],,0,9,9,9,1,audio/Narrative7Situation9.wav,audio/Narrative8Situation9.wav,audio/Narrative5Situation9.wav,audio/Narrative6Situation9.wav,2,3,3,4,,,,,,,,,,,,,,,,,,,,,,,,,,,,,,,,,,,,,,,
,,,,,5fc30c35704ddd267cc9123f,2025-07-07_20h58.02.552,group3.4_multiperson,2023.2.2,Win32,60.60606061,686c2ebf0248f13bef9af11f,686c7b18fed9f566a7afbd6d,,,,,,,,,,,,,,,,,,,,,,,,,,,,,382.514,1,audio/Narrative7Situation1.wav,384.5188,,384.5191,440.3983,"[[76.7,510],[72.4,593],[69.4,676],[67.1,761],[66,843],[65,925],[62.8,1008],[62.8,1083],[62.8,1166],[62.8,1251],[62.8,1333],[62.8,1416],[62.8,1500],[62.8,1591],[62.8,1667],[62.8,1750],[62.8,1840],[63,1919],[65.4,2011],[65.5,2084],[65.8,2175],[65.8,2250],[65.8,2334],[65.8,2417],[65.8,2508],[65.8,2584],[65.8,2675],[65.8,2751],[65.8,2842],[65.8,2918],[65.8,3001],[65.8,3084],[65.8,3168],[65.8,3251],[65.8,3334],[65.8,3427],[66.1,3503],[66.7,3596],[66.8,3676],[66.4,3761],[66,3843],[66,3928],[66,4002],[66,4092],[66,4169],[66,4259],[65.6,4345],[65.6,4419],[65.6,4502],[65.6,4585],[65.6,4669],[65.6,4752],[65.6,4844],[65.6,4926],[65.6,5010],[65.6,5094],[65.6,5169],[65.6,5253],[65.6,5336],[65.6,5420],[65.6,5503],[65.6,5587],[65.6,5670],[65.6,5762],[65.6,5836],[65.6,5927],[65.6,6003],[65.6,6086],[65.6,6177],[65.6,6253],[65.6,6337],[65.6,6420],[65.6,6503],[65.6,6595],[65.6,6670],[65.6,6753],[65.6,6837],[65.6,6929],[65.6,7004],[65.6,7087],[65.6,7170],[65.6,7254],[65.6,7337],[65.6,7428],[65.6,7504],[65.6,7595],[65.6,7678],[65.6,7754],[65.6,7837],[65.6,7929],[65.6,8004],[65.6,8088],[65.6,8171],[68.9,8265],[70,8348],[71.2,8432],[71.8,8507],[72.4,8597],[72.6,8672],[73,8763],[73.4,8848],[73.7,8931],[73.8,9005],[74,9098],[74,9172],[74,9263],[74,9339],[74,9422],[74,9513],[74,9589],[74,9672],[74,9756],[74,9839],[74,9930],[74,10006],[74,10089],[74,10173],[74,10256],[74,10340],[73.4,10432],[72,10516],[71.4,10600],[71.4,10673],[71.4,10765],[71.4,10840],[71.4,10930],[71.4,11007],[71.4,11095],[71.4,11181],[71.4,11257],[71.4,11340],[71.4,11424],[73.1,11518],[73.7,11599],[74.1,11681],[74.1,11757],[74.1,11840],[74.1,11932],[74.1,12007],[74.1,12098],[74.1,12174],[74.1,12265],[74.1,12341],[74.1,12432],[74.1,12508],[74.1,12591],[74.1,12674],[74.1,12757],[75.1,12852],[75.9,12933],[76.2,13018],[76.5,13096],[76.6,13183],[76.6,13258],[76.6,13349],[76.6,13425],[76.6,13508],[76.6,13592],[76.6,13681],[76.6,13758],[76.6,13842],[76.6,13926],[76.6,14009],[76.6,14100],[76.6,14176],[76.6,14259],[76.6,14342],[76.6,14426],[76.6,14509],[76.6,14601],[76.6,14682],[76.6,14768],[76.6,14848],[76.6,14931],[76.6,15008],[76.6,15098],[76.6,15175],[76.6,15260],[76.6,15343],[76.6,15434],[76.6,15510],[76.6,15593],[76.6,15676],[76.6,15769],[76.6,15851],[77.5,15936],[78.3,16021],[79.5,16102],[80.4,16185],[80.4,16260],[80.4,16343],[80.4,16427],[80.4,16510],[80.4,16601],[80.4,16677],[80.4,16760],[80.4,16849],[80.4,16927],[80.4,17011],[80.4,17094],[80.4,17177],[80.4,17268],[80.4,17349],[80.4,17427],[80.4,17511],[80.4,17600],[80.4,17678],[80.4,17761],[80.4,17852],[80.4,17928],[80.4,18011],[80.4,18102],[80.4,18178],[80.4,18270],[80.4,18345],[80.4,18428],[80.4,18512],[80.4,18596],[80.4,18679],[80.4,18762],[80.4,18845],[80.4,18929],[80.4,19012],[80.4,19103],[80.4,19179],[80.4,19262],[80.4,19346],[80.4,19429],[80.4,19512],[80.4,19596],[80.4,19679],[80.4,19770],[80.4,19854],[80.4,19930],[80.4,20020],[80.4,20096],[80.4,20180],[80.4,20263],[80.4,20346],[80.4,20430],[80.4,20513],[80.4,20596],[80.4,20680],[80.4,20772],[80.4,20847],[80.4,20930],[80.4,21013],[80.4,21097],[80.4,21180],[80.4,21264],[80.4,21347],[80.4,21430],[80.4,21514],[80.4,21605],[80.4,21681],[80.4,21768],[80.4,21856],[80.4,21930],[80.4,22020],[80.4,22097],[80.4,22181],[80.4,22265],[80.4,22355],[80.4,22438],[80.4,22514],[80.4,22603],[80.4,22681],[80.4,22765],[80.4,22855],[80.4,22939],[80.4,23023],[80.4,23098],[80.4,23182],[80.4,23273],[80.4,23349],[80.4,23431],[80.4,23523],[80.4,23599],[80.4,23682],[80.4,23765],[80.4,23857],[80.4,23932],[80.4,24024],[80.4,24106],[80.4,24190],[80.4,24274],[80.4,24350],[80.4,24432],[80.4,24516],[80.4,24599],[80.4,24683],[80.4,24773],[80.4,24850],[80.4,24940],[80.4,25016],[80.4,25100],[80.4,25191],[80.4,25266],[80.4,25350],[80.4,25433],[80.4,25516],[80.4,25600],[80.4,25691],[80.4,25774],[80.4,25850],[80.4,25934],[80.4,26017],[80.4,26100],[80.4,26184],[80.4,26267],[80.4,26350],[80.4,26434],[80.4,26525],[80.4,26610],[80.4,26684],[80.4,26767],[80.4,26851],[80.4,26934],[80.4,27018],[80.4,27101],[80.4,27192],[80.4,27268],[80.4,27358],[80.4,27442],[80.4,27518],[80.4,27601],[80.4,27692],[80.4,27768],[80.4,27851],[80.4,27935],[80.4,28018],[80.4,28109],[80.4,28194],[80.4,28268],[80.4,28352],[80.4,28442],[80.4,28519],[80.4,28602],[80.4,28686],[80.4,28769],[80.4,28852],[80.4,28936],[80.4,29020],[80.4,29102],[80.4,29194],[80.4,29269],[80.4,29352],[80.4,29436],[80.4,29519],[80.4,29603],[80.4,29686],[80.4,29769],[80.4,29853],[80.4,29944],[80.4,30020],[80.4,30110],[80.4,30187],[80.4,30277],[80.4,30353],[80.4,30436],[80.4,30520],[80.4,30603],[80.4,30687],[80.4,30776],[80.4,30853],[80.4,30937],[80.4,31020],[80.4,31104],[80.4,31187],[80.4,31279],[80.4,31354],[80.4,31437],[80.4,31520],[80.4,31613],[80.4,31688],[80.4,31771],[80.4,31854],[80.4,31938],[80.4,32021],[80.4,32112],[80.4,32188],[80.4,32271],[80.4,32360],[80.4,32447],[80.4,32521],[80.4,32613],[80.4,32688],[80.4,32779],[80.4,32855],[80.4,32945],[80.4,33029],[80.4,33105],[80.4,33188],[80.4,33280],[80.4,33365],[80.4,33446],[80.4,33522],[80.4,33605],[80.4,33694],[80.4,33772],[81,33865],[81.7,33948],[82,34022],[82.2,34113],[82.3,34189],[82.3,34272],[82.3,34363],[82.3,34439],[82.3,34523],[82.3,34615],[82.3,34690],[82.3,34780],[81.9,34866],[81.2,34951],[80.9,35031],[80.9,35106],[80.9,35190],[80.9,35280],[80.9,35356],[80.9,35448],[80.9,35523],[80.9,35607],[80.9,35690],[80.9,35782],[80.9,35857],[80.9,35940],[80.9,36030],[80.9,36107],[80.8,36198],[80.8,36281],[80.6,36366],[80.6,36440],[80.6,36525],[80.6,36608],[80.6,36691],[80.6,36782],[80.6,36866],[80.6,36941],[80.6,37024],[80.6,37108],[80.6,37199],[80.6,37275],[80.6,37358],[80.6,37448],[80.6,37525],[80.6,37610],[80.6,37692],[79.4,37785],[78.7,37866],[77.7,37951],[74.9,38034],[71.6,38117],[70.2,38201],[69.5,38284],[68.8,38367],[68.3,38448],[67.9,38535],[67.5,38616],[67.3,38692],[67.3,38782],[67.3,38859],[67.3,38943],[67.3,39035],[67.3,39116],[67.3,39193],[67.3,39276],[67.3,39360],[67.3,39443],[67.3,39526],[67.3,39610],[67.3,39693],[67.3,39776],[67.3,39867],[67.3,39950],[67.3,40034],[67.3,40110],[67.3,40193],[67.3,40277],[67.3,40360],[67.3,40444],[67.3,40527],[67.3,40610],[67.3,40694],[67.3,40784],[67.3,40860],[67.3,40949],[67.3,41027],[67.3,41111],[67.3,41194],[67.3,41277],[67.3,41361],[67.3,41444],[67.3,41532],[67.3,41619],[67.3,41694],[67.3,41783],[67.3,41861],[67.3,41952],[67.3,42028],[67.3,42111],[67.3,42195],[67.3,42278],[67.3,42362],[67.3,42454],[67.3,42528],[67.3,42611],[67.3,42703],[67.3,42779],[67.3,42862],[67.3,42953],[67.3,43029],[67.3,43112],[67.3,43203],[67.3,43288],[67.3,43362],[67.3,43446],[67.3,43529],[67.3,43613],[67.3,43696],[67.3,43779],[67.3,43863],[67.3,43946],[67.3,44029],[67.3,44120],[67.3,44196],[67.3,44280],[67.3,44363],[67.3,44446],[67.3,44529],[67.3,44613],[67.3,44696],[67.3,44780],[67.3,44863],[67.3,44954],[67.3,45030],[67.3,45113],[67.3,45197],[67.3,45280],[67.3,45364],[67.3,45447],[67.3,45530],[67.3,45614],[67.3,45697],[67.3,45780],[67.3,45864],[67.3,45948],[67.3,46031],[67.3,46115],[67.3,46205],[67.3,46288],[67.3,46364],[67.3,46448],[67.3,46531],[67.3,46623],[67.3,46698],[67.3,46781],[67.3,46865],[67.3,46948],[67.3,47031],[67.3,47122],[67.3,47198],[67.3,47282],[67.3,47372],[67.3,47457],[67.3,47531],[67.3,47615],[67.3,47698],[67.3,47782],[67.3,47873],[67.3,47949],[67.3,48040],[67.3,48116],[67.3,48199],[67.3,48290],[67.3,48374],[67.3,48449],[67.3,48533],[67.3,48624],[67.3,48700],[67.3,48782],[67.3,48866],[67.3,48949],[67.3,49033],[67.3,49123],[67.3,49200],[67.3,49283],[67.3,49366],[67.3,49450],[67.3,49533],[67.3,49616],[67.3,49700],[67.3,49783],[67.3,49866],[67.3,49959],[67.3,50033],[67.3,50117],[67.3,50201],[67.3,50284],[67.3,50367],[67.3,50450],[67.3,50534],[67.3,50617],[67.3,50700],[67.3,50792],[67.3,50867],[67.3,50951],[67.3,51042],[67.3,51117],[67.3,51201],[67.3,51284],[67.3,51368],[67.3,51451],[67.3,51543],[67.3,51617],[67.3,51709],[67.3,51786],[67.3,51868],[67.3,51951],[67.3,52044],[67.3,52118],[67.3,52202],[67.3,52285],[67.3,52369],[67.3,52457],[67.3,52536],[70,52628],[72.1,52713],[73.5,52794],[75.6,52877],[77,52963],[77.9,53044],[78.2,53119],[78.4,53208],[78.9,53294],[79.4,53377],[79.8,53462],[80.3,53544],[80.6,53628],[80.7,53710],[80.7,53794],[81.1,53880],[81.7,53954],[81.7,54044],[81.9,54127],[81.9,54207],[81.9,54286],[81.9,54370],[81.9,54453],[81.9,54537],[81.9,54627],[81.9,54705],[81.9,54787],[81.9,54870],[81.9,54961],[81.9,55037],[81.9,55120],[81.9,55204],[81.9,55287],[81.9,55370],[81.9,55454],[81.9,55537],[81.9,55628],[81.9,55710],[81.9,55795],[81.9,55878]]",440.3994,442.1575,81.94444444,1.129,"[{""rating"":81.94444444444444,""responseTime"":1.1289999999999623}]",space,1.2304,,442.1577,Not at all,0,442.164,,,[],,0,10,10,10,1,audio/Narrative8Situation1.wav,audio/Narrative7Situation1.wav,audio/Narrative6Situation1.wav,audio/Narrative5Situation1.wav,5,2,2,5,,,,,,,,,,,,,,,,,,,,,,,,,,,,,,,,,,,,,,,
,,,,,5fc30c35704ddd267cc9123f,2025-07-07_20h58.02.552,group3.4_multiperson,2023.2.2,Win32,60.60606061,686c2ebf0248f13bef9af11f,686c7b18fed9f566a7afbd6d,,,,,,,,,,,,,,,,,,,,,,,,,,,,,442.1644,1,audio/Narrative7Situation2.wav,445.1789,,445.1791,452.6826,"[[82.3,2442],[82,2524],[80.3,2610],[79.6,2692],[79.6,2774],[79.6,2857],[79.6,2932],[79.5,3016],[79.5,3099],[79.3,3191],[79.3,3273],[79.1,3349],[78.9,3434],[78.3,3525],[77.7,3601],[77.1,3692],[77,3774],[77,3850],[76.7,3933],[76.7,4017],[76.7,4100],[76.7,4184],[76.7,4267],[76.7,4357],[76.7,4434],[76.7,4517],[76.7,4600],[76.7,4684],[76.7,4767],[76.7,4851],[76.7,4935],[76.7,5017],[76.7,5101],[76.7,5192],[76.7,5268],[76.7,5358],[76.7,5434],[76.7,5518],[76.7,5601],[76.7,5685],[76.7,5768],[76.7,5851],[76.7,5935],[76.7,6026],[76.7,6101],[76.7,6192],[76.7,6268],[76.7,6352],[76.7,6435],[76.7,6518],[76.7,6602],[76.7,6694],[76.7,6768],[76.7,6860],[76.7,6936],[76.7,7019],[76.7,7102],[76.7,7185],[76.7,7269],[76.7,7353],[76.7,7436]]",452.6833,456.6252,68.20175439,3.6585,"[{""rating"":68.20175438596492,""responseTime"":3.6585000000000036}]",space,3.3879,,456.6254,Definitely yes,100,456.6347,,,[],,0,11,11,11,1,audio/Narrative8Situation2.wav,audio/Narrative7Situation2.wav,audio/Narrative6Situation2.wav,audio/Narrative5Situation2.wav,3,3,3,3,,,,,,,,,,,,,,,,,,,,,,,,,,,,,,,,,,,,,,,
,,,,,5fc30c35704ddd267cc9123f,2025-07-07_20h58.02.552,group3.4_multiperson,2023.2.2,Win32,60.60606061,686c2ebf0248f13bef9af11f,686c7b18fed9f566a7afbd6d,,,,,,,,,,,,,,,,,,,,,,,,,,,,,456.6356,1,audio/Narrative7Situation3.wav,464.6405,,464.6406,473.8804,"[[68.1,1112],[67.5,1193],[67,1275],[67,1357],[66.9,1433],[66.9,1517],[66.9,1608],[66.9,1685],[66.7,1775],[66.6,1851],[66.6,1942],[66.6,2025],[66.6,2101],[66.6,2184],[66.6,2268],[66.4,2350],[66.4,2434],[66.4,2525],[66.4,2601],[66.4,2692],[66.4,2768],[66.4,2859],[66.4,2942],[66.4,3019],[66.4,3101],[66.4,3185],[66.4,3273],[66.4,3351],[66.4,3435],[66.4,3519],[66.4,3609],[66.4,3685],[66.4,3768],[66.4,3859],[66.4,3935],[66.4,4019],[66.4,4102],[65.4,4194],[63.9,4280],[61.9,4361],[61,4436],[59.4,4527],[58.3,4612],[56.8,4694],[55.5,4777],[54.2,4862],[52.9,4944],[51.4,5030],[50.2,5112],[49.6,5196],[49.3,5269],[49.3,5353],[49.3,5444],[49.3,5527],[49.3,5612],[49.3,5686],[49.3,5770],[49.3,5862],[49.3,5937],[49.3,6020],[49.3,6112],[49.3,6187],[49.3,6278],[49.3,6362],[49.3,6444],[49.3,6520],[49.3,6608],[49.3,6688],[49.3,6770],[49.3,6861],[49.3,6937],[49.3,7021],[49.3,7105],[49.3,7187],[49.3,7271],[49.3,7363],[49.3,7437],[49.3,7521],[49.3,7604],[49.3,7688],[49.3,7771],[49.3,7854],[49.3,7938],[49.3,8030],[49.3,8105],[49.3,8189],[49.3,8272],[49.3,8355],[49.3,8438],[49.3,8522],[49.3,8605],[49.3,8688],[49.3,8772],[49.3,8855],[49.3,8939],[49.3,9022],[49.3,9113],[49.3,9189]]",473.8809,475.9821,44.00584795,1.5738,"[{""rating"":44.005847953216374,""responseTime"":1.573799999952314}]",space,1.5581,,475.9823,Not at all,0,475.9917,,,[],,0,12,12,12,1,audio/Narrative8Situation3.wav,audio/Narrative7Situation3.wav,audio/Narrative6Situation3.wav,audio/Narrative5Situation3.wav,4,8,5,3,,,,,,,,,,,,,,,,,,,,,,,,,,,,,,,,,,,,,,,
,,,,,5fc30c35704ddd267cc9123f,2025-07-07_20h58.02.552,group3.4_multiperson,2023.2.2,Win32,60.60606061,686c2ebf0248f13bef9af11f,686c7b18fed9f566a7afbd6d,,,,,,,,,,,,,,,,,,,,,,,,,,,,,475.9924,1,audio/Narrative7Situation4.wav,479.0002,,479.0003,490.7422,"[[44.9,852],[47.4,935],[48.4,1017],[48.7,1100],[48.7,1184],[48.7,1267],[48.7,1350],[48.7,1434],[48.7,1518],[48.7,1601],[48.7,1685],[48.7,1768],[48.7,1851],[48.7,1934],[48.7,2019],[48.7,2101],[48.7,2185],[48.7,2268],[48.7,2351],[48.7,2435],[48.7,2518],[48.7,2601],[48.7,2685],[48.7,2768],[48.7,2852],[48.7,2935],[48.7,3018],[48.7,3102],[48.7,3185],[48.7,3269],[48.7,3352],[48.7,3435],[48.7,3519],[48.7,3602],[48.7,3685],[48.7,3769],[48.7,3853],[48.7,3935],[48.7,4019],[48.7,4102],[48.7,4186],[48.7,4269],[48.7,4353],[48.7,4436],[48.7,4519],[48.7,4603],[54.7,4687],[63.6,4770],[68.9,4853],[71.6,4937],[77.9,5020],[80.6,5103],[80.7,5186],[80.7,5270],[80.7,5353],[80.7,5437],[80.7,5520],[80.7,5604],[80.7,5687],[80.7,5770],[80.7,5854],[80.7,5937],[80.7,6020],[80.7,6104],[80.7,6187],[80.7,6271],[80.7,6354],[80.7,6437],[80.7,6521],[80.7,6604],[80.7,6688],[80.7,6771],[80.7,6854],[80.7,6938],[80.7,7021],[80.7,7105],[80.7,7188],[80.7,7271],[80.7,7355],[80.7,7438],[80.7,7521],[80.7,7605],[80.7,7688],[80.7,7772],[80.7,7855],[80.7,7938],[80.7,8022],[80.7,8105],[80.7,8189],[80.7,8272],[80.7,8355],[80.7,8439],[80.7,8522],[80.7,8605],[80.7,8689],[80.7,8773],[80.7,8856],[80.7,8939],[80.7,9023],[80.7,9105],[80.7,9189],[80.7,9273],[80.7,9356],[80.7,9439],[80.7,9523],[80.7,9606],[80.7,9689],[80.7,9773],[80.7,9856],[80.7,9939],[80.7,10023],[80.7,10107],[80.7,10190],[80.7,10273],[80.7,10357],[80.7,10440],[80.7,10523],[80.7,10607],[80.7,10690],[80.7,10774],[80.7,10857],[80.7,10940],[80.7,11024],[80.7,11107],[80.7,11191],[80.7,11275],[80.7,11358],[80.7,11441],[80.7,11524],[80.7,11608],[80.7,11691]]",490.7425,492.927,64.83918129,1.7309,"[{""rating"":64.8391812865497,""responseTime"":1.7308999999762023}]",space,1.6439,,492.9272,Definitely yes,100,492.9374,,,[],,0,13,13,13,1,audio/Narrative8Situation4.wav,audio/Narrative7Situation4.wav,audio/Narrative6Situation4.wav,audio/Narrative5Situation4.wav,3,3,2,1,,,,,,,,,,,,,,,,,,,,,,,,,,,,,,,,,,,,,,,
,,,,,5fc30c35704ddd267cc9123f,2025-07-07_20h58.02.552,group3.4_multiperson,2023.2.2,Win32,60.60606061,686c2ebf0248f13bef9af11f,686c7b18fed9f566a7afbd6d,,,,,,,,,,,,,,,,,,,,,,,,,,,,,492.9383,1,audio/Narrative7Situation5.wav,497.9468,,497.947,506.437,"[[62,5614],[59.3,5697],[58.7,5778],[58.4,5853],[58.4,5944],[58.1,6028],[54.5,6118],[48,6197],[44.8,6278],[44.5,6353],[44.5,6445],[45.2,6530],[46.7,6614],[47.7,6696],[48.1,6782],[49.1,6864],[49.7,6947],[50.4,7030],[52,7114],[53.9,7198],[54.8,7279],[56,7364],[58.8,7449],[61.6,7532],[63.2,7616],[65.1,7696],[67.3,7782],[68.4,7867],[68.6,7943],[68.6,8022],[68.7,8113],[68.7,8188],[68.7,8272],[68.7,8355],[68.7,8439]]",506.4376,507.754,68.71345029,0.845,"[{""rating"":68.71345029239765,""responseTime"":0.8450000000000273}]",space,0.7736,,507.7545,Definitely yes,100,507.7617,,,[],,0,14,14,14,1,audio/Narrative8Situation5.wav,audio/Narrative7Situation5.wav,audio/Narrative6Situation5.wav,audio/Narrative5Situation5.wav,2,5,2,5,,,,,,,,,,,,,,,,,,,,,,,,,,,,,,,,,,,,,,,
,,,,,5fc30c35704ddd267cc9123f,2025-07-07_20h58.02.552,group3.4_multiperson,2023.2.2,Win32,60.60606061,686c2ebf0248f13bef9af11f,686c7b18fed9f566a7afbd6d,,,,,,,,,,,,,,,,,,,,,,,,,,,,,507.7625,1,audio/Narrative7Situation6.wav,510.7726,,510.7727,520.763,"[[67.3,1352],[64.6,1433],[62.3,1517],[60.4,1601],[60,1683],[59.9,1766],[59.9,1850],[64.8,1936],[70.5,2017],[72.7,2101],[73.2,2184],[73.2,2267],[73.2,2351],[72.7,2434],[71.4,2518],[70.5,2602],[70.4,2684],[70.2,2767],[70.2,2851],[70.2,2934],[70.2,3018],[70.2,3101],[70.2,3185],[70.2,3268],[70.2,3352],[70.2,3435],[70.2,3518],[70.2,3601],[70.2,3685],[70.2,3768],[70.2,3852],[70.2,3936],[70.2,4018],[70.2,4102],[70.2,4185],[70.2,4269],[70.2,4352],[70.2,4436],[70.2,4519],[70.2,4602],[70.2,4686],[70.2,4769],[70.2,4853],[70.2,4936],[70.2,5019],[70.2,5103],[70.2,5186],[70.2,5270],[70.2,5352],[70.2,5436],[70.2,5519],[70.2,5602],[70.2,5685],[70.2,5769],[70.2,5852],[70.2,5935],[70.2,6019],[70.2,6102],[70.2,6186],[70.2,6269],[70.2,6353],[70.2,6437],[70.2,6520],[70.2,6604],[70.2,6687],[70.2,6770],[70.2,6854],[70.2,6937],[70.2,7020],[70.2,7103],[70.2,7187],[70.2,7270],[70.2,7353],[70.2,7437],[70.2,7521],[70.2,7604],[70.2,7687],[70.2,7771],[70.2,7854],[70.2,7937],[70.2,8020],[70.2,8103],[70.2,8187],[70.2,8270],[70.2,8354],[70.2,8438],[70.2,8521],[70.2,8604],[70.2,8687],[70.2,8771],[70.2,8855],[70.2,8938],[70.2,9022],[70.2,9106],[70.2,9189],[70.2,9273],[70.2,9355],[70.2,9439],[70.2,9523],[70.2,9606],[70.2,9689],[70.2,9773],[70.2,9856],[70.2,9939]]",520.7635,523.2478,64.03508772,2.1958,"[{""rating"":64.03508771929825,""responseTime"":2.1958000000119}]",space,1.9357,,523.2479,Not at all,0,523.2568,,,[],,0,15,15,15,1,audio/Narrative8Situation6.wav,audio/Narrative7Situation6.wav,audio/Narrative6Situation6.wav,audio/Narrative5Situation6.wav,2,3,2,3,,,,,,,,,,,,,,,,,,,,,,,,,,,,,,,,,,,,,,,
,,,,,5fc30c35704ddd267cc9123f,2025-07-07_20h58.02.552,group3.4_multiperson,2023.2.2,Win32,60.60606061,686c2ebf0248f13bef9af11f,686c7b18fed9f566a7afbd6d,,,,,,,,,,,,,,,,,,,,,,,,,,,,,523.2573,1,audio/Narrative7Situation7.wav,528.2685,,528.2685,545.4462,"[[63.5,1025],[63.4,1100],[62.4,1192],[62.1,1266],[62.1,1349],[62.1,1441],[62.3,1516],[62.4,1607],[62.4,1690],[62.4,1767],[62.4,1857],[61.8,1942],[57.2,2028],[55.2,2108],[54.5,2192],[53.9,2276],[52.8,2359],[51.9,2443],[51.1,2528],[50.7,2608],[50.7,2683],[50.5,2775],[50.2,2850],[50.2,2934],[50.2,3017],[50.2,3102],[50.2,3184],[50.2,3267],[50.2,3351],[50.2,3434],[50.2,3517],[50.2,3601],[50.2,3684],[50.2,3768],[50.2,3851],[50.2,3935],[50.2,4018],[50.2,4101],[50.2,4185],[50.2,4268],[50.2,4358],[50.2,4441],[50.2,4518],[50.2,4609],[52,4695],[53.4,4778],[55.3,4861],[57.2,4948],[58.6,5027],[59.5,5110],[59.6,5185],[59.6,5268],[59.6,5352],[59.6,5436],[59.6,5519],[59.6,5604],[59.6,5686],[59.6,5769],[59.6,5852],[59.6,5936],[59.6,6020],[59.6,6103],[59.6,6187],[59.6,6270],[59.6,6353],[59.6,6437],[59.6,6520],[59.6,6603],[59.6,6694],[59.6,6776],[61.1,6864],[62.5,6946],[63.5,7031],[64.2,7112],[64.8,7195],[64.8,7277],[64.8,7354],[64.8,7437],[64.8,7525],[64.8,7604],[64.8,7694],[64.8,7771],[64.8,7862],[64.8,7937],[64.8,8021],[64.8,8104],[64.8,8187],[64.8,8271],[64.8,8354],[64.8,8438],[64.8,8521],[64.8,8604],[64.8,8695],[64.8,8771],[64.8,8861],[64.8,8938],[64.8,9030],[64.8,9105],[64.8,9195],[64.8,9272],[64.8,9355],[64.8,9438],[64.8,9521],[65.9,9611],[71.7,9699],[75.4,9781],[77.7,9865],[79.7,9952],[81.4,10031],[82.9,10115],[83.8,10200],[84.1,10279],[84.3,10362],[84.4,10439],[84.4,10522],[84.4,10614],[84.4,10689],[84.4,10780],[84.4,10856],[84.4,10939],[84.4,11031],[84.4,11107],[84.4,11190],[84.4,11273],[84.4,11364],[84.4,11440],[84.4,11523],[84.4,11607],[84.4,11698],[84.4,11774],[84.4,11857],[84.4,11940],[84.4,12024],[84.4,12107],[84.4,12190],[84.4,12274],[84.4,12357],[84.4,12440],[84.4,12524],[84.4,12607],[84.4,12690],[84.4,12774],[84.4,12857],[84.4,12941],[84.4,13024],[84.4,13107],[84.4,13191],[84.4,13274],[84.4,13358],[84.4,13448],[84.4,13525],[84.4,13608],[84.4,13691],[84.4,13775],[84.4,13858],[84.4,13941],[84.4,14025],[84.4,14108],[84.4,14192],[84.4,14281],[84.4,14358],[84.4,14442],[84.4,14531],[84.4,14609],[84.4,14692],[84.4,14783],[84.4,14859],[84.4,14942],[84.4,15033],[84.4,15109],[84.4,15192],[84.4,15283],[84.4,15359],[84.4,15443],[84.4,15532],[84.4,15609],[84.4,15700],[84.4,15776],[84.4,15860],[84.4,15943],[84.4,16035],[84.4,16110],[84.4,16200],[84.4,16277],[84.4,16360],[84.4,16451],[84.4,16527],[84.4,16610],[84.4,16693],[84.4,16777],[84.4,16867],[84.4,16944],[84.4,17027],[84.4,17117]]",545.4469,547.8152,81.65204678,1.9115,"[{""rating"":81.65204678362574,""responseTime"":1.9114999999999327}]",space,1.8208,,547.8155,Not at all,0,547.8219,,,[],,0,16,16,16,1,audio/Narrative8Situation7.wav,audio/Narrative7Situation7.wav,audio/Narrative6Situation7.wav,audio/Narrative5Situation7.wav,3,5,5,4,,,,,,,,,,,,,,,,,,,,,,,,,,,,,,,,,,,,,,,
,,,,,5fc30c35704ddd267cc9123f,2025-07-07_20h58.02.552,group3.4_multiperson,2023.2.2,Win32,60.60606061,686c2ebf0248f13bef9af11f,686c7b18fed9f566a7afbd6d,,,,,,,,,,,,,,,,,,,,,,,,,,,,,547.8229,1,audio/Narrative7Situation8.wav,549.8329,,549.8331,559.8559,"[[78.1,2361],[77.7,2437],[77.4,2527],[77.3,2610],[77.3,2692],[77.3,2767],[77.3,2855],[77.3,2934],[77.3,3017],[77.3,3101],[77.3,3184],[77.3,3268],[77.3,3356],[77.3,3435],[77.3,3518],[77.3,3610],[77.3,3685],[77.3,3768],[77.3,3852],[77.3,3934],[77.3,4018],[77.3,4102],[77.3,4185],[77.3,4276],[77.3,4352],[77.3,4435],[77.3,4519],[77.3,4602],[77.3,4685],[77.3,4769],[77.3,4853],[77.3,4936],[77.3,5019],[77.3,5102],[77.3,5186],[77.3,5269],[77.3,5352],[77.3,5436],[77.3,5520],[77.3,5603],[77.3,5694],[77.3,5770],[77.3,5853],[77.3,5936],[77.3,6020],[77.3,6110],[77.3,6186],[77.3,6270],[77.3,6353],[77.3,6437],[77.3,6521],[77.3,6603],[77.3,6687],[77.3,6770],[77.3,6853],[77.3,6944],[77.3,7020],[77.3,7111],[77.3,7187],[77.3,7271],[77.3,7354],[77.3,7437],[77.3,7528],[77.3,7604],[77.3,7688],[77.3,7778],[77.3,7854],[77.3,7937],[77.3,8026],[77.3,8106],[77.3,8196],[77.3,8279],[77.3,8354],[77.3,8446],[77.3,8527],[77.3,8605],[77.3,8688],[77.3,8771],[77.3,8862],[77.3,8938],[77.3,9030],[77.3,9105],[77.3,9188],[77.3,9272],[77.3,9355],[77.3,9438],[77.3,9530],[77.3,9605],[77.3,9689],[77.3,9772],[77.3,9856],[77.3,9939],[77.3,10022]]",559.8564,562.1745,70.46783626,2.1077,"[{""rating"":70.46783625730994,""responseTime"":2.1076999999880854}]",space,1.769,,562.1748,Not at all,0,562.1809,,,[],,0,17,17,17,1,audio/Narrative8Situation8.wav,audio/Narrative7Situation8.wav,audio/Narrative6Situation8.wav,audio/Narrative5Situation8.wav,3,2,5,3,,,,,,,,,,,,,,,,,,,,,,,,,,,,,,,,,,,,,,,
,,,,,5fc30c35704ddd267cc9123f,2025-07-07_20h58.02.552,group3.4_multiperson,2023.2.2,Win32,60.60606061,686c2ebf0248f13bef9af11f,686c7b18fed9f566a7afbd6d,,,,,,,,,,,,,,,,,,,,,,,,,,,,,562.1817,1,audio/Narrative7Situation9.wav,564.1927,,564.1929,572.8321,"[[70.3,849],[70,933],[69.7,1016],[69.7,1100],[69.5,1184],[69.5,1266],[69.5,1351],[69.5,1433],[69.9,1517],[70,1602],[70,1684],[70,1767],[70,1850],[70,1933],[70,2017],[70,2100],[70,2184],[70,2268],[70,2350],[70,2434],[70,2517],[70,2600],[70,2684],[70,2768],[70,2851],[70,2934],[70,3018],[70,3101],[70,3185],[70,3268],[70,3351],[70,3434],[70,3518],[70,3601],[70,3685],[70,3768],[70,3852],[70,3936],[70,4018],[70,4102],[70,4186],[70,4269],[70,4351],[70,4435],[70,4519],[70,4602],[70,4685],[70,4769],[70,4852],[70,4935],[70,5019],[70,5102],[70,5186],[70,5269],[70,5353],[70,5436],[70,5519],[70,5603],[70,5686],[70,5769],[70.2,5853],[71.8,5937],[71.8,6020],[72.5,6103],[72.5,6186],[72.5,6270],[73.3,6356],[73.7,6437],[74.1,6520],[74.6,6604],[74.6,6687],[74.6,6770],[74.6,6853],[74.6,6938],[74.6,7021],[74.6,7104],[74.6,7187],[74.6,7271],[74.6,7354],[74.6,7437],[74.6,7521],[74.6,7604],[74.6,7687],[74.6,7771],[74.6,7855],[74.6,7938],[74.6,8021],[74.6,8105],[74.6,8188],[74.6,8272],[74.6,8354],[74.6,8438],[74.6,8521],[74.6,8605]]",572.8324,576.951,74.56140351,0.2432,"[{""rating"":74.56140350877193,""responseTime"":0.24319999998806452}]",space,3.5707,,576.9512,Definitely yes,100,576.9604,,,[],,0,18,18,18,1,audio/Narrative8Situation9.wav,audio/Narrative7Situation9.wav,audio/Narrative6Situation9.wav,audio/Narrative5Situation9.wav,3,2,4,3,,,,,,,,,,,,,,,,,,,,,,,,,,,,,,,,,,,,,,,
,,,,,5fc30c35704ddd267cc9123f,2025-07-07_20h58.02.552,group3.4_multiperson,2023.2.2,Win32,60.60606061,686c2ebf0248f13bef9af11f,686c7b18fed9f566a7afbd6d,,,,,,,,,,,,,,,,,,,,,,,,,,,595.4829,598.0658,598.1123,2,audio/Narrative13Situation2.wav,598.1125,,598.1125,627.8533,"[[70.5,2673],[59,2755],[56.4,2839],[56.3,2921],[50.2,3339],[55.3,3422],[59.9,3588],[60.2,3672],[61,3756],[58.3,3923],[58,4007],[57.7,4089],[57.7,4172],[59.9,4257],[68.7,11928],[65.9,12011],[66.5,12094],[66.5,12177],[66.5,12261],[66.2,12345],[65.6,12428],[64.9,12511],[64.8,12595],[64.7,12678],[64.6,12762],[64.8,12845],[66.4,12930],[67.5,13012],[69.2,13096],[72.6,13846],[72.6,13929],[72.6,14012],[72.6,14096],[72.6,14179],[72.6,14262],[72.6,14346],[72.6,14429],[72.6,14513],[72.6,14596],[72.6,14679],[72.6,14763],[72.6,14846],[72.6,14930],[72.6,15013],[72.6,15096],[72.6,15180],[72.6,15263],[72.6,15346],[72.6,15430],[72.6,15513],[72.6,15597],[72.6,15680],[72.6,15764],[72.6,15847],[72.6,15930],[72.6,16013],[72.6,16097],[72.6,16180],[72.6,16264],[72.6,16347],[72.6,16431],[72.6,16514],[72.6,16597],[72.6,16681],[72.6,16764],[72.6,16847],[72.6,16931],[72.6,17014],[72.6,17097],[72.6,17181],[72.6,17264],[72.6,17348],[72.6,17432],[72.6,17515],[72.6,17598],[72.6,17682],[72.6,17765],[72.6,17849],[72.6,17932],[72.6,18015],[72.6,18098],[72.6,18182],[72.6,18265],[72.6,18349],[72.6,18432],[72.6,18515],[72.6,18599],[72.6,18682],[72.6,18766],[72.6,18850],[72.6,18932],[72.6,19016],[72.6,19099],[72.6,19182],[72.6,19266],[72.6,19350],[72.6,19433],[72.6,19516],[72.6,19599],[72.6,19682],[72.6,19766],[72.6,19849],[72.6,19933],[72.6,20016],[72.6,20099],[72.6,20182],[72.6,20265],[72.6,20349],[72.6,20432],[72.6,20516],[72.6,20599],[72.6,20682],[72.6,20766],[72.6,20849],[72.6,20933],[72.6,21016],[72.6,21100],[72.6,21184],[72.6,21267],[72.6,21351],[72.6,21434],[72.6,21517],[72.6,21600],[72.6,21684],[72.6,21767],[72.6,21851],[72.6,21934],[72.6,22018],[72.6,22101],[72.6,22184],[67.3,22268],[64,22353],[61.9,22434],[60.7,22518],[60.6,22601],[60.6,22685],[60.6,22768],[60.6,22852],[60.6,22935],[60.6,23019],[60.6,23102],[60.6,23185],[60.6,23268],[61.1,23352],[73.5,24437],[72.6,25603],[73.8,25686],[73.8,25770],[72.2,26272],[72,26354],[72,26437],[72,26521],[72,26604],[72,26687],[72,26771],[72,26855],[72,26937],[72,27021],[72,27105],[72,27188],[72,27272],[72,27355],[72,27438],[72,27522],[72,27605],[72,27688],[72,27773],[72,27855],[72,27938],[72,28022],[72,28106],[72,28189],[72,28272],[72,28356],[72,28439],[72,28522],[72,28606],[72,28689],[72,28772],[72,28856],[72,28939],[72,29023],[72,29106],[72,29190],[72,29273],[72,29356],[72,29440],[72,29523],[72,29606],[72,29690]]",627.8537,627.8601,,,[],,,,627.8602,Definitely yes,100,627.866,,,[],,0,0,0,0,1,audio/Narrative13Situation2.wav,audio/Narrative13Situation2.wav,audio/Narrative13Situation2.wav,audio/Narrative13Situation2.wav,2,2,2,2,,,,,576.9616,595.4817,space,18.0004,,,,,,,,,,,,,,,,,,,,,,,,,,,,,,,
,,,,,5fc30c35704ddd267cc9123f,2025-07-07_20h58.02.552,group3.4_multiperson,2023.2.2,Win32,60.60606061,686c2ebf0248f13bef9af11f,686c7b18fed9f566a7afbd6d,,,,,,,,,,,,,,,,,,,,,,,,,,,,,627.8671,2,audio/Narrative6Situation1.wav,629.8706,,629.8707,656.4643,"[[70.8,4178],[71.2,4263],[73.3,4346],[74.3,4426],[74.5,4502],[74.2,4594],[73.5,4678],[73.2,4753],[73.2,4836],[73.2,4919],[73.2,5011],[73.2,5086],[73.2,5170],[73.2,5262],[73.2,5336],[73.2,5427],[73.2,5504],[73.2,5586],[73.2,5678],[73.2,5759],[73.2,5837],[73.2,5928],[73.2,6004],[73.2,6087],[73.2,6171],[73.2,6254],[73.2,6337],[73.2,6428],[73.2,6504],[73.2,6588],[73.2,6671],[73.2,6762],[73.2,6838],[73.2,6921],[73.2,7004],[73.2,7095],[73.2,7171],[73.2,7260],[73.2,7338],[73.2,7421],[73.2,7505],[73.2,7588],[73.2,7672],[73.2,7755],[73.2,7838],[73.2,7922],[73.2,8005],[73.2,8089],[73.2,8172],[73.2,8255],[73.2,8339],[73.2,8423],[73.2,8510],[73.2,8596],[73.2,8672],[71.4,8764],[71.3,8847],[71.3,8933],[71.5,9005],[71.5,9096],[71.5,9173],[71.5,9257],[71.4,9348],[71.4,9430],[71.4,9506],[71.6,9600],[71.8,9682],[71.9,9764],[72,9842],[72.2,9930],[72.2,10006],[72.2,10090],[72.2,10173],[72.2,10257],[72.2,10340],[72.2,10424],[72.2,10507],[72.2,10598],[72.2,10674],[72.2,10757],[72.2,10840],[72.2,10929],[72.2,11007],[72.2,11098],[72.2,11183],[72.2,11257],[72.2,11341],[72.2,11432],[72.2,11508],[72.2,11591],[72.2,11675],[72.2,11758],[72.2,11841],[72.2,11925],[72.2,12008],[72.2,12091],[72.2,12175],[72.2,12263],[72.2,12341],[72.2,12425],[72.2,12508],[72.2,12599],[72.2,12675],[72.2,12758],[72.2,12842],[72.2,12925],[72.2,13016],[72.2,13092],[72.2,13175],[72.2,13267],[72.2,13342],[72.2,13426],[72.2,13509],[72.2,13592],[72.2,13675],[72.2,13759],[72.2,13850],[72.2,13925],[72.2,14009],[72.2,14093],[72.2,14176],[72.2,14267],[72.2,14343],[72.2,14434],[72.2,14510],[72.2,14592],[72.2,14684],[72.2,14759],[72.2,14848],[72.2,14927],[72.2,15010],[72.2,15102],[72.2,15177],[72.2,15267],[72.2,15352],[72.2,15427],[72.2,15518],[72.2,15601],[72.2,15677],[72.2,15760],[72.2,15844],[72.2,15927],[72.2,16010],[72.2,16101],[72.2,16178],[72.2,16261],[72.2,16351],[72.2,16427],[72.2,16511],[72.2,16602],[72.2,16678],[72.2,16761],[72.2,16844],[72.2,16928],[72.2,17011],[72.2,17095],[72.2,17178],[72.2,17262],[72.2,17345],[72.2,17436],[71.3,17519],[67.1,17605],[65.6,17689],[63.5,17772],[60.8,17856],[57.2,17939],[51.6,18022],[45.7,18105],[39.7,18189],[32.3,18273],[26.6,18355],[22.6,18438],[21.6,18523],[21.6,18603],[21.6,18695],[21.5,18771],[21.5,18855],[21.5,18929],[21.4,19020],[20,19108],[15.7,19189],[13.1,19273],[12.5,19356],[12.2,19429],[12,19512],[12,19596],[12,19687],[12,19772],[12,19847],[12,19938],[12,20014],[12,20097],[12,20182],[12,20271],[12,20347],[12,20430],[12,20521],[12,20597],[12,20681],[12,20764],[12,20847],[12,20931],[12,21021],[12,21097],[12,21181],[12,21272],[12,21347],[12,21436],[12,21523],[12,21598],[12,21681],[12,21773],[12,21848],[12,21939],[12,22014],[12,22098],[12,22181],[12,22265],[12,22348],[12,22432],[12,22515],[12,22598],[12.4,22689],[12.4,22765],[12.4,22849],[12.4,22932],[12.4,23023],[12.4,23099],[12.4,23182],[12.4,23266],[12.4,23356],[12.4,23439],[12.4,23523],[12.4,23599],[12.4,23691],[12.4,23766],[12.4,23849],[12.4,23939],[12.4,24021],[12.4,24099],[12.4,24191],[12.4,24266],[23,24359],[40.5,24443],[42.5,24516],[42.5,24600],[42.5,24683],[42.5,24771],[42.5,24850],[42.5,24934],[42.5,25017],[42.5,25100],[42.5,25183],[42.5,25267],[43.9,25351],[68.3,25528],[68.4,25609],[68.4,25691],[68.4,25774],[68.4,25855],[68.4,25934],[68.4,26017],[68.4,26101],[68.4,26193],[68.4,26267],[68.4,26358],[68.4,26435],[68.4,26518]]",656.4649,662.3357,23.68421053,4.9363,"[{""rating"":23.68421052631579,""responseTime"":4.936300000012011}]",space,5.3223,,662.3361,Not at all,0,662.3457,,,[],,0,1,1,1,1,audio/Narrative7Situation1.wav,audio/Narrative8Situation1.wav,audio/Narrative5Situation1.wav,audio/Narrative6Situation1.wav,2,5,5,2,,,,,,,,,,,,,,,,,,,,,,,,,,,,,,,,,,,,,,,
,,,,,5fc30c35704ddd267cc9123f,2025-07-07_20h58.02.552,group3.4_multiperson,2023.2.2,Win32,60.60606061,686c2ebf0248f13bef9af11f,686c7b18fed9f566a7afbd6d,,,,,,,,,,,,,,,,,,,,,,,,,,,,,662.3472,2,audio/Narrative6Situation2.wav,665.3621,,665.3622,693.8491,"[[29.4,768],[49,934],[55,1017],[56.7,1100],[57.2,1183],[57.2,1267],[55.2,1350],[52.7,1434],[52.1,1517],[51.5,1600],[51.4,1683],[51.4,1767],[51.2,1851],[50.5,1935],[49.9,2020],[49.8,2102],[49.8,2184],[49.8,2267],[49.8,2351],[49.8,2434],[49.8,2517],[49.8,2601],[49.8,2685],[49.8,2767],[49.8,2851],[49.8,2934],[49.8,3018],[49.8,3101],[49.8,3185],[43.3,3269],[40.2,3352],[37.7,3435],[35.2,3519],[31.9,3603],[27.8,3936],[29,4018],[29.1,4102],[29.1,4185],[29.2,4269],[28.4,4353],[25.7,4437],[9.4,5353],[8.6,5437],[9.7,5522],[11.1,5605],[11.3,5686],[11.4,5770],[11.4,5853],[12.3,5938],[16.2,6020],[27,6104],[63.6,6689],[60.7,6771],[60.6,6853],[60.5,6937],[59.9,7021],[59.8,7104],[59.6,7187],[59.6,7271],[59.6,7354],[59.6,7438],[59.6,7521],[59.6,7604],[59.6,7688],[59.6,7771],[59.6,7855],[59.6,7938],[59.6,8021],[59.6,8105],[59.6,8188],[59.6,8272],[59.6,8355],[59.6,8438],[59.6,8522],[59.6,8605],[59.6,8688],[59.6,8772],[59.6,8855],[59.6,8939],[59.6,9022],[59.6,9106],[59.6,9189],[59.6,9273],[59.6,9356],[59.6,9439],[59.6,9523],[59.6,9607],[59.6,9689],[59.6,9772],[59.6,9856],[59.6,9939],[59.6,10023],[59.6,10106],[59.6,10190],[59.6,10273],[59.6,10356],[59.6,10440],[59.6,10523],[59.6,10607],[59.6,10690],[59.6,10773],[59.6,10857],[59.6,10940],[59.6,11023],[59.6,11107],[59.6,11190],[59.6,11274],[59.6,11357],[59.6,11440],[59.6,11524],[59.6,11607],[59.6,11690],[59.6,11774],[59.6,11857],[59.6,11941],[59.6,12024],[59.6,12107],[59.6,12191],[59.6,12274],[59.6,12357],[59.6,12441],[59.6,12524],[59.6,12608],[59.6,12691],[59.6,12775],[59.6,12858],[59.6,12942],[59.6,13025],[59.6,13108],[59.6,13192],[59.6,13275],[59.6,13358],[59.6,13442],[59.6,13525],[59.6,13608],[59.6,13693],[59.6,13776],[59.6,13859],[59.6,13942],[59.6,14025],[59.6,14109],[59.6,14192],[63.6,14276],[71.3,14861],[72.1,14944],[72.1,15026],[72,15110],[77.9,17662],[74.3,17748],[72.9,17828],[72.7,17911],[72.7,17995],[72.7,18078],[72.7,18162],[72.7,18245],[72.7,18328],[72.7,18412],[72.7,18496],[72.7,18579],[72.7,18662],[72.7,18745],[72.7,18829],[72.7,18912],[72.7,18996],[72.7,19079],[72.7,19163],[72.7,19246],[72.7,19329],[72.7,19413],[72.7,19497],[72.7,19579],[72.7,19663],[72.7,19746],[72.7,19830],[72.7,19913],[72.7,19996],[72.7,20080],[72.7,20163],[72.7,20247],[72.7,20330],[72.7,20414],[72.7,20497],[72.7,20580],[72.7,20663],[72.7,20747],[72.7,20830],[72.7,20914],[72.7,20997],[72.7,21080],[72.7,21164],[72.7,21247],[72.7,21331],[72.7,21414],[72.7,21497],[72.7,21581],[72.7,21664],[72.7,21747],[72.7,21831],[72.7,21914],[72.7,21998],[72.7,22081],[72.7,22165],[72.7,22248],[72.7,22332],[72.7,22415],[72.7,22498],[72.7,22581],[72.7,22665],[72.7,22748],[72.7,22832],[72.7,22915],[72.7,22998],[72.7,23082],[72.7,23166],[72.7,23249],[72.7,23332],[72.7,23416],[72.7,23499],[72.7,23582],[72.7,23667],[72.7,23749],[72.7,23833],[72.7,23916],[72.7,23999],[72.7,24082],[72.7,24166],[72.7,24249],[72.7,24333],[72.7,24416],[72.7,24499],[72.7,24583],[72.7,24666],[72.7,24750],[72.7,24833],[72.7,24916],[72.7,25000],[72.7,25083],[72.7,25166],[72.7,25250],[72.7,25333],[72.7,25417],[72.7,25500],[72.7,25583],[72.7,25667],[72.7,25751],[72.7,25834],[72.7,25917],[72.7,26000],[72.7,26084],[72.7,26167],[72.7,26251],[72.7,26334],[72.7,26417],[72.7,26501],[72.7,26584],[72.7,26667],[72.7,26751],[72.7,26835],[72.7,26917],[72.7,27001],[72.7,27085],[72.7,27168],[72.7,27251],[72.7,27335],[72.7,27418],[72.7,27501],[72.7,27585],[72.7,27668],[72.7,27752],[72.7,27835],[72.7,27918],[72.7,28002],[72.7,28085],[72.7,28169],[72.7,28252],[72.7,28335],[72.7,28419]]",693.8495,696.4672,72.22222222,1.6597,"[{""rating"":72.22222222222221,""responseTime"":1.6597000000476783}]",space,2.0709,,696.4675,Definitely yes,100,696.478,,,[],,0,2,2,2,1,audio/Narrative7Situation2.wav,audio/Narrative8Situation2.wav,audio/Narrative5Situation2.wav,audio/Narrative6Situation2.wav,3,3,3,3,,,,,,,,,,,,,,,,,,,,,,,,,,,,,,,,,,,,,,,
,,,,,5fc30c35704ddd267cc9123f,2025-07-07_20h58.02.552,group3.4_multiperson,2023.2.2,Win32,60.60606061,686c2ebf0248f13bef9af11f,686c7b18fed9f566a7afbd6d,,,,,,,,,,,,,,,,,,,,,,,,,,,,,696.4794,2,audio/Narrative6Situation3.wav,701.4868,,701.487,714.1129,"[[46.4,1351],[52.3,1934],[52.1,2018],[52.1,2101],[52.1,2184],[52.1,2268],[52.1,2351],[52.1,2434],[52.1,2518],[52.1,2602],[52.1,2684],[52.1,2768],[52.1,2852],[52.1,2935],[52.1,3018],[52.1,3102],[52.1,3185],[52.1,3268],[52.1,3352],[52.1,3434],[52.1,3518],[52.1,3602],[52.1,3685],[52.1,3768],[52.1,3852],[52.1,3936],[52.1,4018],[52.1,4102],[52.1,4186],[52.1,4269],[52.1,4352],[52.1,4436],[52.1,4519],[52.1,4602],[52.1,4686],[52.1,4769],[52.1,4852],[52.1,4936],[52.1,5019],[52.1,5103],[52.1,5186],[52.1,5270],[52.1,5353],[52.1,5436],[52.1,5520],[52.1,5603],[52.1,5687],[52.1,5770],[52.1,5853],[52.1,5937],[52.1,6020],[52.1,6104],[52.1,6187],[52.1,6270],[52.1,6353],[52.1,6437],[52.1,6521],[52.1,6604],[52.1,6688],[52.1,6771],[52.1,6854],[52.1,6938],[52.1,7021],[52.1,7104],[52.1,7188],[52.1,7271],[52.1,7355],[52.1,7438],[52.1,7521],[52.1,7605],[52.1,7688],[52.1,7771],[52.1,7855],[52.1,7938],[52.1,8022],[52.1,8105],[52.1,8188],[52.1,8272],[52.1,8355],[52.1,8438],[52.1,8522],[52.1,8605],[52.1,8689],[52.1,8772],[52.1,8855],[52.1,8939],[52.1,9023],[52.1,9106],[52.1,9189],[52.1,9272],[52.1,9356],[52.1,9439],[52.1,9522],[52.1,9606],[52.1,9689],[52.1,9772],[52.1,9856],[52.1,9939],[52.1,10023],[52.1,10106],[52.1,10190],[52.1,10273],[52.1,10356],[52.1,10440],[52.1,10524],[51.9,10607],[51.8,10691],[51.8,10773],[51.8,10857],[51.8,10940],[51.8,11024],[51.8,11107],[51.8,11191],[51.8,11273],[51.8,11357],[51.8,11441],[51.8,11524],[51.8,11607],[51.8,11691],[51.8,11775],[51.8,11857],[51.8,11941],[51.8,12024],[51.8,12107],[51.8,12192],[51.8,12275],[51.8,12358],[51.8,12442],[51.8,12525],[51.8,12608]]",714.1131,2472.964,51.09649123,1758.6821,"[{""rating"":50.51169590643275,""responseTime"":15.89840000003585},{""rating"":51.09649122807017,""responseTime"":1758.466},{""rating"":51.09649122807017,""responseTime"":1758.6821000000236}]",space,1758.3047,,2472.9642,Not at all,0,2472.9672,,,[],,0,3,3,3,1,audio/Narrative7Situation3.wav,audio/Narrative8Situation3.wav,audio/Narrative5Situation3.wav,audio/Narrative6Situation3.wav,8,4,3,5,,,,,,,,,,,,,,,,,,,,,,,,,,,,,,,,,,,,,,,
,,,,,5fc30c35704ddd267cc9123f,2025-07-07_20h58.02.552,group3.4_multiperson,2023.2.2,Win32,60.60606061,686c2ebf0248f13bef9af11f,686c7b18fed9f566a7afbd6d,,,,,,,,,,,,,,,,,,,,,,,,,,,,,2472.9674,2,audio/Narrative6Situation4.wav,2474.9804,,2474.9805,2487.587,"[[51.7,1253],[55.2,1586],[54.8,1680],[53.3,1762],[51.2,1849],[49.3,1935],[49.2,2013],[49,2098],[49,2184],[49,2266],[49,2347],[49,2430],[49.3,2513],[51.2,2600],[51.3,2681],[51.6,2765],[51.6,2850],[51.6,2934],[51.9,3013],[52.7,3097],[52.8,3180],[53.6,3262],[53.9,3345],[54.1,3429],[54.2,3513],[53.9,3597],[54.3,3681],[60.7,3764],[68,3851],[69.7,3930],[71,4019],[71,4097],[71,4179],[71,4263],[71,4346],[71,4430],[71,4513],[71,4597],[70.8,4680],[69.8,4763],[69.4,4847],[68.1,4930],[65.6,5014],[64.7,5098],[64.5,5181],[64.5,5264],[64.5,5348],[64.5,5431],[64.4,5515],[64.1,5597],[63.9,5681],[63.9,5764],[63.9,5847],[63.9,5931],[64.3,6014],[64.8,6097],[67.8,6181],[69.8,6265],[71.6,6350],[73.3,6432],[75,6515],[75,6599],[75,6682],[75,6765],[75,6849],[75,6933],[75,7016],[75,7099],[75,7182],[75,7266],[75,7350],[75,7433],[75,7516],[75,7599],[75,7683],[75,7766],[75,7850],[75,7933],[75,8017],[75,8100],[75,8184],[75,8266],[75,8351],[75,8433],[75,8516],[75,8600],[75,8684],[75,8767],[75,8850],[75,8934],[75,9017],[75,9101],[75,9184],[75,9267],[75,9351],[75,9434],[75,9517],[75,9601],[75,9685],[75,9768],[75,9851],[75,9935],[75,10018],[75,10101],[75,10184],[75,10268],[75,10351],[75,10435],[75,10518],[75,10602],[75,10685],[75,10769],[75,10852],[75,10935],[75,11018],[75,11102],[75,11185],[75,11268],[75,11352],[75,11436],[75,11519],[75,11603],[75,11686],[75,11769],[75,11853],[75,11936],[75,12019],[75,12103],[75,12187],[76.6,12270],[77.6,12352],[78.7,12437],[78.9,12519],[79.1,12605]]",2487.5876,2494.2812,71.56432749,6.0575,"[{""rating"":71.56432748538012,""responseTime"":5.824100000023918},{""rating"":71.56432748538012,""responseTime"":6.057500000000346}]",space,6.1397,,2494.2813,Definitely yes,100,2494.2906,,,[],,0,4,4,4,1,audio/Narrative7Situation4.wav,audio/Narrative8Situation4.wav,audio/Narrative5Situation4.wav,audio/Narrative6Situation4.wav,3,3,1,2,,,,,,,,,,,,,,,,,,,,,,,,,,,,,,,,,,,,,,,
,,,,,5fc30c35704ddd267cc9123f,2025-07-07_20h58.02.552,group3.4_multiperson,2023.2.2,Win32,60.60606061,686c2ebf0248f13bef9af11f,686c7b18fed9f566a7afbd6d,,,,,,,,,,,,,,,,,,,,,,,,,,,,,2494.2919,2,audio/Narrative6Situation5.wav,2496.3068,,2496.3073,2504.2794,"[[61.4,4270],[58,4353],[57.5,4434],[57.5,4518],[56.9,4602],[53.7,4685],[53,4768],[52.6,4852],[51.9,4936],[51,5019],[50.4,5102],[50.4,5185],[50.4,5269],[50.4,5352],[50.4,5436],[50.4,5519],[50.4,5603],[50.4,5686],[50.4,5769],[50.4,5853],[50.4,5936],[50.4,6019],[50.4,6103],[50.4,6187],[51.3,6271],[58.6,6354],[64.9,6437],[67.4,6520],[67.5,6603],[68.9,6687],[69.4,6769],[69.4,6854],[69.4,6937],[69.4,7020],[69.4,7104],[69.4,7187],[69.4,7270],[69.4,7354],[69.4,7437],[69.4,7520],[69.4,7604],[69.4,7688],[69.4,7771],[69.4,7854],[69.4,7938]]",2504.2798,2506.1969,56.06725146,1.3226,"[{""rating"":56.0672514619883,""responseTime"":1.3226000000236127}]",space,1.373,,2506.1971,Partially,50,2506.2078,,,[],,0,5,5,5,1,audio/Narrative7Situation5.wav,audio/Narrative8Situation5.wav,audio/Narrative5Situation5.wav,audio/Narrative6Situation5.wav,5,2,5,2,,,,,,,,,,,,,,,,,,,,,,,,,,,,,,,,,,,,,,,
,,,,,5fc30c35704ddd267cc9123f,2025-07-07_20h58.02.552,group3.4_multiperson,2023.2.2,Win32,60.60606061,686c2ebf0248f13bef9af11f,686c7b18fed9f566a7afbd6d,,,,,,,,,,,,,,,,,,,,,,,,,,,,,2506.2089,2,audio/Narrative6Situation6.wav,2508.215,,2508.2152,2519.307,"[[57.1,836],[57.5,917],[57.5,1000],[57.8,1085],[57.8,1166],[58,1249],[58.2,1335],[58.3,1417],[58.3,1500],[58.3,1583],[58.3,1667],[58.3,1750],[58.3,1834],[58.3,1918],[58.3,2001],[58.3,2084],[58.3,2167],[58.3,2251],[58.3,2334],[58.3,2417],[58.3,2501],[58.3,2584],[58.3,2667],[58.3,2751],[58.3,2834],[58.3,2918],[58.3,3001],[58.3,3085],[58.3,3168],[58.3,3251],[58.3,3335],[58.3,3419],[58.3,3501],[58.3,3586],[58.3,3669],[58.3,3752],[58.3,3835],[58.3,3919],[58.3,4002],[58.3,4086],[59.5,4171],[62.3,4254],[64.3,4337],[65.7,4420],[66.8,4502],[67.3,4585],[68.3,4669],[69.2,4753],[69.7,4837],[70,4921],[70.9,5005],[71.3,5085],[71.8,5171],[73,5254],[74.7,5338],[75.3,5421],[75.9,5504],[76,5586],[76,5669],[76,5753],[76,5836],[76,5921],[76,6003],[76,6086],[76,6171],[76,6253],[76,6337],[76,6421],[76,6504],[76.8,6589],[79.5,6672],[82.2,6754],[83.6,6838],[85.1,6922],[85.7,7006],[86.3,7087],[86.5,7170],[86.5,7254],[86.5,7338],[86.5,7421],[86.5,7505],[86.5,7588],[86.5,7671],[86.5,7755],[86.5,7838],[86.5,7922],[86.5,8004],[86.5,8088],[86.5,8171],[86.5,8255],[86.5,8339],[86.5,8421],[86.5,8505],[86.5,8589],[86.5,8672],[86.5,8755],[86.5,8839],[86.5,8922],[86.5,9005],[86.5,9089],[86.5,9172],[86.5,9256],[86.5,9341],[86.5,9423],[86.5,9507],[86.5,9589],[86.5,9672],[86.5,9756],[85.7,9839],[85.3,9924],[85.2,10006],[84.7,10090],[84.1,10174],[83,10256],[82.4,10341],[81.9,10424],[81.7,10507],[81.2,10591],[81.1,10673],[80.9,10757],[80.7,10840],[80.7,10923],[80.7,11006],[80.7,11091]]",2519.3074,2520.6993,80.70175439,0.7921,"[{""rating"":80.70175438596492,""responseTime"":0.7920999999641936}]",space,0.8344,,2520.6995,Not at all,0,2520.7091,,,[],,0,6,6,6,1,audio/Narrative7Situation6.wav,audio/Narrative8Situation6.wav,audio/Narrative5Situation6.wav,audio/Narrative6Situation6.wav,3,2,3,2,,,,,,,,,,,,,,,,,,,,,,,,,,,,,,,,,,,,,,,
,,,,,5fc30c35704ddd267cc9123f,2025-07-07_20h58.02.552,group3.4_multiperson,2023.2.2,Win32,60.60606061,686c2ebf0248f13bef9af11f,686c7b18fed9f566a7afbd6d,,,,,,,,,,,,,,,,,,,,,,,,,,,,,2520.71,2,audio/Narrative6Situation7.wav,2525.7171,,2525.7172,2550.5941,"[[999,1],[999,99],[999,176],[999,259],[999,342],[999,426],[999,519],[999,601],[999,682],[48.5,769],[48.5,842],[48.5,935],[48.7,1019],[48.7,1093],[49.7,1186],[49.9,1259],[50,1344],[50,1427],[50,1509],[50,1592],[50,1676],[50,1759],[50,1843],[50,1928],[50,2010],[50,2102],[50,2181],[50,2261],[50,2352],[50,2426],[50,2510],[50,2593],[50,2685],[50,2761],[50,2844],[50,2929],[50,3012],[50,3094],[50,3184],[50,3261],[50,3353],[50,3436],[50,3512],[50,3602],[50,3678],[50,3762],[50,3854],[50,3928],[50,4020],[50,4103],[50,4178],[50,4262],[50,4346],[50,4433],[50,4512],[50,4596],[50,4679],[50,4762],[50,4846],[50,4929],[50,5012],[50,5096],[50,5179],[50,5262],[50,5346],[50,5429],[50,5521],[50,5603],[50,5688],[50,5763],[50,5847],[50,5930],[50,6018],[50,6096],[50,6180],[50,6263],[50,6346],[50,6430],[50,6518],[50,6597],[50,6680],[50,6764],[50,6847],[50,6930],[50,7013],[50,7097],[50,7180],[50,7264],[51.8,7356],[53.8,7439],[53.8,7522],[53.8,7597],[53.8,7681],[53.8,7764],[53.8,7848],[53.8,7940],[53.8,8015],[53.8,8098],[53.8,8181],[53.8,8264],[53.8,8348],[53.8,8433],[53.8,8515],[53.8,8598],[53.8,8681],[53.8,8765],[53.8,8848],[53.8,8939],[53.8,9015],[53.8,9099],[53.8,9182],[53.8,9274],[53.8,9348],[53.8,9440],[53.8,9523],[53.8,9599],[53.8,9682],[53.8,9766],[53.8,9853],[53.8,9932],[53.8,10016],[53.8,10099],[53.8,10183],[53.8,10266],[53.8,10349],[53.8,10433],[53.8,10516],[53.8,10599],[53.8,10683],[53.8,10766],[53.8,10850],[53.8,10933],[53.8,11024],[53.8,11107],[53.8,11183],[53.8,11267],[53.8,11351],[53.8,11433],[53.8,11526],[53.8,11600],[53.8,11690],[53.8,11767],[53.8,11850],[53.8,11934],[53.8,12017],[53.8,12100],[53.8,12192],[53.8,12267],[53.8,12351],[53.8,12442],[53.8,12518],[53.8,12606],[53.8,12684],[53.8,12768],[53.8,12859],[53.8,12935],[53.8,13025],[53.8,13101],[53.8,13184],[53.8,13268],[53.8,13352],[53.8,13442],[53.8,13518],[53.8,13602],[53.8,13690],[53.8,13768],[53.8,13852],[53.8,13943],[53.8,14023],[53.8,14102],[53.8,14185],[53.8,14269],[53.8,14352],[53.8,14436],[53.8,14526],[53.8,14602],[53.8,14686],[53.8,14769],[53.8,14852],[53.8,14936],[53.8,15019],[53.8,15103],[53.8,15186],[53.8,15269],[53.8,15353],[53.8,15443],[53.8,15519],[53.8,15609],[53.8,15686],[53.8,15770],[53.8,15860],[53.8,15936],[53.8,16021],[53.8,16103],[53.8,16187],[53.8,16278],[53.8,16353],[53.8,16437],[53.8,16520],[53.8,16611],[53.8,16687],[53.8,16770],[53.8,16854],[53.8,16944],[53.8,17021],[53.8,17104],[53.8,17188],[53.8,17271],[53.8,17355],[53.8,17438],[53.8,17521],[53.8,17605],[53.8,17688],[53.8,17771],[53.8,17864],[53.8,17938],[53.8,18029],[53.8,18106],[53.8,18188],[53.8,18272],[53.8,18355],[53.8,18439],[53.8,18522],[53.8,18605],[53.8,18689],[53.8,18772],[53.8,18855],[53.8,18938],[53.8,19023],[53.8,19106],[53.8,19189],[53.8,19278],[53.8,19355],[53.8,19447],[53.8,19522],[53.8,19606],[53.8,19689],[53.8,19773],[53.8,19856],[53.8,19939],[53.8,20023],[53.8,20106],[53.8,20189],[53.8,20273],[53.8,20356],[53.8,20440],[53.8,20523],[53.8,20606],[53.8,20690],[53.8,20773],[53.8,20857],[53.8,20940],[53.8,21024],[53.8,21107],[53.8,21190],[53.8,21281],[53.8,21357],[53.8,21441],[53.8,21531],[53.8,21615],[53.8,21690],[53.8,21773],[53.8,21858],[53.8,21948],[53.8,22024],[53.8,22107],[53.8,22191],[53.8,22274],[53.8,22358],[53.8,22441],[53.8,22532],[53.8,22607],[53.8,22692],[53.8,22775],[53.8,22858],[53.8,22941],[53.8,23033],[53.9,23108],[54.1,23200],[54.2,23283],[54.4,23358],[54.4,23449],[54.4,23525],[54.4,23609],[54.4,23699],[54.4,23784],[54.4,23858],[54.4,23949],[54.4,24026],[54.4,24109],[54.4,24199],[54.4,24275],[54.4,24359],[54.4,24442],[54.4,24531],[54.4,24609],[54.4,24692],[54.4,24775],[54.4,24859]]",2550.5949,2552.445,49.41520468,1.6665,"[{""rating"":49.41520467836257,""responseTime"":1.6664999999998145}]",space,1.3079,,2552.4452,Definitely yes,100,2552.4547,,,[],,0,7,7,7,1,audio/Narrative7Situation7.wav,audio/Narrative8Situation7.wav,audio/Narrative5Situation7.wav,audio/Narrative6Situation7.wav,5,3,4,5,,,,,,,,,,,,,,,,,,,,,,,,,,,,,,,,,,,,,,,
,,,,,5fc30c35704ddd267cc9123f,2025-07-07_20h58.02.552,group3.4_multiperson,2023.2.2,Win32,60.60606061,686c2ebf0248f13bef9af11f,686c7b18fed9f566a7afbd6d,,,,,,,,,,,,,,,,,,,,,,,,,,,,,2552.4553,2,audio/Narrative6Situation8.wav,2557.4732,,2557.4733,2564.3372,"[[49.3,845],[49.3,925],[49.3,1017],[49.3,1093],[49.3,1175],[49.3,1259],[49.3,1344],[49.3,1434],[49.3,1509],[49.3,1600],[49.3,1683],[49.6,1770],[50.1,1846],[50.3,1934],[50.3,2014],[50.3,2100],[50.3,2184],[50.3,2260],[50.3,2343],[50.3,2427],[50.3,2510],[50.3,2593],[50.3,2677],[50.3,2760],[50.3,2843],[50.3,2927],[50.3,3016],[50.3,3093],[50.3,3177],[50.3,3260],[50.3,3348],[50.3,3427],[50.3,3511],[50.3,3594],[50.3,3678],[50.3,3761],[50.3,3844],[50.3,3935],[50.3,4011],[50.3,4094],[50.3,4185],[50.3,4261],[50.3,4344],[50.3,4436],[50.3,4511],[50.3,4594],[50.3,4685],[50.3,4761],[50.3,4852],[50.3,4928],[50.3,5019],[50.3,5095],[50.3,5178],[50.3,5262],[50.3,5345],[50.3,5437],[50.3,5512],[50.3,5606],[50.3,5678],[50.3,5762],[50.3,5845],[50.3,5934],[50.3,6012],[50.3,6095],[50.3,6179],[50.3,6263],[50.3,6353],[50.3,6438],[50.3,6512],[50.3,6603],[50.3,6688],[50.3,6770],[50.3,6846]]",2564.3378,2570.333,0.438596491,5.5788,"[{""rating"":0.43859649122807154,""responseTime"":5.57879999995248}]",space,5.4433,,2570.3332,Definitely yes,100,2570.3387,,,[],,0,8,8,8,1,audio/Narrative7Situation8.wav,audio/Narrative8Situation8.wav,audio/Narrative5Situation8.wav,audio/Narrative6Situation8.wav,2,3,3,5,,,,,,,,,,,,,,,,,,,,,,,,,,,,,,,,,,,,,,,
,,,,,5fc30c35704ddd267cc9123f,2025-07-07_20h58.02.552,group3.4_multiperson,2023.2.2,Win32,60.60606061,686c2ebf0248f13bef9af11f,686c7b18fed9f566a7afbd6d,,,,,,,,,,,,,,,,,,,,,,,,,,,,,2570.3402,2,audio/Narrative6Situation9.wav,2574.3436,,2574.3437,2584.2881,"[[1.2,1434],[1.6,1518],[2.2,1600],[2.2,1683],[2.2,1767],[2.2,1851],[2.2,1934],[2.2,2017],[2.2,2101],[2.2,2184],[2.2,2268],[2.2,2351],[2.2,2434],[2.2,2518],[2.2,2601],[2.2,2684],[2.2,2768],[2.2,2851],[2.2,2934],[2.2,3018],[2.2,3102],[2.2,3185],[2.2,3269],[2.2,3351],[2.2,3435],[2.2,3519],[2.2,3601],[2.2,3685],[2.2,3768],[2.2,3852],[2.2,3936],[2.2,4019],[2.2,4102],[2.2,4185],[2.2,4269],[2.2,4353],[2.5,4436],[2.5,4519],[2.5,4603],[2.5,4686],[2.5,4769],[2.5,4852],[2.5,4936],[2.5,5019],[2.5,5103],[2.5,5186],[2.5,5269],[2.5,5352],[2.5,5435],[2.5,5519],[2.5,5603],[2.5,5686],[2.5,5770],[2.5,5853],[2.5,5937],[2.5,6020],[2.5,6103],[2.5,6187],[2.5,6270],[2.5,6354],[2.5,6437],[2.4,6520],[2.1,6603],[2.1,6688],[2.1,6771],[2,6854],[2,6937],[2,7020],[2,7104],[2,7187],[1.8,7270],[1.5,7353],[1.5,7437],[1.5,7521],[1.5,7605],[1.4,7688],[1.2,7771],[1.1,7854],[0.9,7939],[0.8,8023],[0.8,8105],[0.8,8188],[0.8,8272],[0.8,8355],[0.8,8440],[0.8,8522],[0.8,8606],[0.8,8689],[0.8,8773],[0.8,8856],[0.8,8939],[0.8,9023],[0.8,9105],[0.8,9189],[0.8,9273],[0.8,9356],[0.8,9440],[0.8,9523],[0.8,9606],[0.8,9689],[0.8,9773],[0.8,9856],[0.8,9943]]",2584.2886,2585.6775,0.804093567,0.825,"[{""rating"":0.8040935672514626,""responseTime"":0.8250000000002728}]",space,0.8514,,2585.6776,Not at all,0,2585.6944,,,[],,0,9,9,9,1,audio/Narrative7Situation9.wav,audio/Narrative8Situation9.wav,audio/Narrative5Situation9.wav,audio/Narrative6Situation9.wav,2,3,3,4,,,,,,,,,,,,,,,,,,,,,,,,,,,,,,,,,,,,,,,
,,,,,5fc30c35704ddd267cc9123f,2025-07-07_20h58.02.552,group3.4_multiperson,2023.2.2,Win32,60.60606061,686c2ebf0248f13bef9af11f,686c7b18fed9f566a7afbd6d,,,,,,,,,,,,,,,,,,,,,,,,,,,,,2585.6953,2,audio/Narrative5Situation1.wav,2590.6957,,2590.6958,2603.9812,"[[4.2,88],[4.5,167],[4.5,249],[3.7,335],[2,415],[1.4,495],[1,581],[0.6,663],[0.6,747],[0.4,835],[0.4,916],[0.4,993],[0.4,1080],[0.4,1163],[0.4,1247],[0.4,1325],[0.4,1410],[0.4,1492],[0.4,1576],[0.4,1659],[0.7,1745],[2.4,1827],[4.9,1911],[6.4,1994],[8.6,2077],[9.6,2162],[11,2244],[13.3,2328],[14,2413],[14.6,2494],[16.4,2584],[17.5,2660],[18.3,2745],[18.9,2828],[19,2911],[19,2994],[20.2,3079],[27.1,3163],[35.2,3244],[40.9,3329],[43.9,3413],[46.6,3495],[48,3579],[48.4,3661],[48.5,3745],[48.7,3828],[49,3912],[49.3,3995],[50,4079],[50.3,4162],[50.3,4245],[50.3,4328],[50.3,4412],[50.3,4495],[50.3,4579],[50.3,4662],[50.3,4746],[50.3,4829],[50.3,4912],[50.3,4995],[50.3,5079],[50.3,5162],[50.3,5246],[50.3,5329],[50.3,5413],[50.3,5496],[50.3,5579],[50.3,5663],[50.3,5747],[50.3,5830],[50.3,5913],[50.3,5996],[50.3,6080],[50.3,6163],[50.3,6247],[50.3,6330],[50.3,6413],[50.3,6497],[50.3,6580],[50.3,6663],[50.3,6747],[50.3,6831],[50.3,6913],[50.3,6997],[50.3,7081],[50.3,7164],[50.3,7247],[50.3,7331],[50.3,7414],[50.3,7497],[50.3,7580],[50.3,7664],[50.3,7747],[50.3,7831],[50.3,7914],[50.3,7998],[50.3,8081],[50.3,8165],[50.3,8248],[50.3,8331],[50.3,8415],[50.3,8498],[50.3,8581],[50.3,8665],[50.3,8749],[50.3,8831],[50.3,8915],[50.3,8998],[50.3,9081],[50.3,9165],[50.3,9249],[50.3,9331],[50.3,9415],[50.3,9498],[50.3,9582],[50.3,9665],[50.3,9749],[50.3,9831],[50.3,9915],[50.3,9999],[50.3,10082],[50.3,10166],[50.3,10250],[50.3,10332],[50.3,10415],[50.3,10500],[50.3,10582],[50.3,10667],[50.3,10749],[50.3,10833],[50.3,10916],[50.3,11000],[50.3,11083],[50.3,11166],[50.3,11250],[50.3,11333],[50.3,11416],[50.3,11500],[50.3,11583],[50.3,11667],[50.3,11750],[50.3,11833],[50.3,11917],[50.3,12000],[50.3,12084],[50.3,12167],[50.3,12251],[50.3,12334],[50.3,12418],[50.3,12501],[50.3,12584],[50.3,12668],[50.3,12751],[50.3,12834],[50.3,12917],[50.3,13001],[50.3,13085],[50.3,13168],[50.3,13251]]",2603.9816,2605.1234,50.36549708,0.7748,"[{""rating"":50.36549707602339,""responseTime"":0.7748000000119646}]",space,0.6019,,2605.1235,Partially,50,2605.1312,,,[],,0,10,10,10,1,audio/Narrative8Situation1.wav,audio/Narrative7Situation1.wav,audio/Narrative6Situation1.wav,audio/Narrative5Situation1.wav,5,2,2,5,,,,,,,,,,,,,,,,,,,,,,,,,,,,,,,,,,,,,,,
,,,,,5fc30c35704ddd267cc9123f,2025-07-07_20h58.02.552,group3.4_multiperson,2023.2.2,Win32,60.60606061,686c2ebf0248f13bef9af11f,686c7b18fed9f566a7afbd6d,,,,,,,,,,,,,,,,,,,,,,,,,,,,,2605.1354,2,audio/Narrative5Situation2.wav,2608.1507,,2608.1508,2637.6205,"[[7.2,600],[4.5,684],[2.3,768],[1.4,848],[0.5,934],[4.6,2352],[7.5,2434],[10.3,2518],[14.7,2601],[21.5,2684],[23.8,2768],[29,2851],[39.9,2936],[45.6,3019],[48.6,3101],[50.4,3185],[50.7,3267],[50.9,3351],[50.9,3434],[50.9,3517],[50.9,3600],[50.9,3684],[50.9,3767],[50.9,3850],[50.9,3934],[50.9,4017],[50.9,4101],[50.9,4184],[50.9,4267],[50.9,4351],[50.9,4434],[50.9,4518],[50.9,4601],[50.9,4684],[50.9,4768],[50.9,4852],[50.9,4935],[50.9,5019],[50.9,5102],[50.9,5185],[50.9,5269],[50.9,5352],[50.9,5435],[50.9,5519],[50.9,5602],[50.9,5685],[50.9,5769],[50.9,5853],[50.9,5936],[50.9,6019],[50.9,6103],[50.9,6186],[50.9,6270],[50.9,6353],[50.9,6436],[50.9,6520],[50.9,6604],[50.9,6686],[50.9,6770],[50.9,6854],[50.9,6937],[50.9,7020],[50.9,7104],[50.9,7187],[50.9,7271],[50.9,7354],[50.9,7437],[50.9,7521],[50.9,7604],[50.9,7688],[50.9,7771],[50.9,7854],[50.9,7937],[50.9,8021],[50.9,8104],[50.9,8188],[50.9,8271],[50.9,8355],[50.9,8438],[50.9,8521],[50.9,8605],[50.9,8688],[50.9,8772],[50.9,8854],[50.9,8938],[50.9,9022],[50.9,9105],[50.9,9188],[50.9,9272],[50.9,9355],[50.9,9439],[50.9,9522],[50.9,9605],[50.9,9689],[50.9,9772],[50.9,9856],[50.9,9940],[50.9,10023],[50.9,10106],[50.9,10189],[50.9,10272],[50.9,10355],[50.9,10438],[50.9,10522],[51.5,10605],[54.7,10689],[56.4,10772],[57.7,10855],[58,10939],[58.5,11022],[58.5,11105],[58.5,11189],[58.5,11273],[58.5,11357],[58.5,11440],[58.5,11524],[58.5,11606],[58.5,11690],[58.5,11774],[58.5,11857],[58.5,11940],[58.5,12024],[58.5,12107],[58.5,12190],[58.5,12274],[58.5,12357],[58.5,12441],[58.5,12524],[58.5,12608],[58.5,12691],[58.5,12774],[58.5,12858],[58.5,12941],[58.5,13025],[58.5,13108],[58.5,13192],[58.5,13275],[58.5,13358],[58.5,13441],[58.5,13525],[58.5,13608],[58.5,13692],[58.5,13775],[58.5,13858],[58.5,13942],[58.5,14025],[58.5,14109],[58.5,14192],[58.5,14275],[58.5,14359],[62.9,14442],[65.6,14526],[67.3,14609],[67.5,14692],[68,14776],[69.1,14859],[70.5,14943],[71.9,15027],[73,15110],[73.8,15193],[75,15276],[75.1,15359],[75.1,15443],[75.1,15526],[75.1,15610],[75.1,15693],[75.1,15776],[75.1,15860],[75.1,15943],[75.1,16026],[75.1,16110],[75.1,16193],[75.1,16277],[75.1,16360],[75.1,16444],[75.1,16527],[75.1,16610],[75.1,16694],[75.1,16777],[75.1,16861],[75.1,16944],[75.1,17027],[75.1,17111],[75.1,17195],[75.1,17277],[75.1,17361],[75.1,17444],[75.1,17528],[75.1,17611],[75.1,17695],[75.1,17778],[75.1,17861],[86.3,17945],[91.2,18028],[93.6,18112],[99.3,18195],[100,18279],[100,18362],[100,18445],[100,18528],[100,18612],[100,18695],[100,18778],[100,18862],[100,18945],[100,19028],[100,19112],[100,19195],[100,19279],[100,19362],[100,19445],[100,19529],[100,19612],[100,19696],[100,19780],[100,19863],[100,19946],[100,20029],[100,20113],[100,20196],[100,20280],[100,20363],[100,20446],[100,20530],[100,20613],[100,20696],[100,20780],[100,20863],[100,20946],[100,21030],[100,21113],[100,21197],[100,21280],[100,21364],[100,21447],[100,21530],[100,21614],[100,21697],[100,21780],[100,21864],[100,21947],[100,22030],[100,22114],[100,22198],[100,22281],[100,22365],[100,22448],[100,22531],[100,22614],[100,22698],[100,22781],[100,22865],[100,22948],[100,23031],[100,23115],[100,23198],[100,23282],[100,23365],[100,23448],[100,23532],[100,23615],[100,23698],[100,23782],[100,23865],[100,23949],[100,24032],[100,24115],[100,24199],[100,24283],[100,24365],[100,24450],[100,24533],[100,24616],[100,24699],[100,24783],[100,24865],[100,24949],[100,25032],[100,25116],[100,25200],[100,25283],[100,25366],[100,25450],[100,25533],[100,25616],[100,25700],[100,25783],[100,25866],[100,25950],[100,26034],[100,26116],[100,26200],[100,26284],[100,26367],[100,26451],[100,26534],[100,26617],[100,26701],[100,26784],[100,26867],[100,26951],[100,27034],[100,27118],[100,27201],[100,27284],[100,27368],[100,27451],[100,27535],[100,27618],[100,27702],[100,27785],[100,27868],[100,27952],[100,28035],[100,28118],[100,28202],[100,28285],[100,28368],[100,28452],[100,28535],[100,28618],[100,28702],[100,28785],[100,28869],[100,28952],[100,29035],[100,29118],[100,29202],[100,29287],[100,29369],[100,29453]]",2637.6211,2641.0954,99.41520468,2.9431,"[{""rating"":99.41520467836258,""responseTime"":2.94310000002406}]",space,2.9339,,2641.0958,Partially,50,2641.0991,,,[],,0,11,11,11,1,audio/Narrative8Situation2.wav,audio/Narrative7Situation2.wav,audio/Narrative6Situation2.wav,audio/Narrative5Situation2.wav,3,3,3,3,,,,,,,,,,,,,,,,,,,,,,,,,,,,,,,,,,,,,,,
,,,,,5fc30c35704ddd267cc9123f,2025-07-07_20h58.02.552,group3.4_multiperson,2023.2.2,Win32,60.60606061,686c2ebf0248f13bef9af11f,686c7b18fed9f566a7afbd6d,,,,,,,,,,,,,,,,,,,,,,,,,,,,,2641.0996,2,audio/Narrative5Situation3.wav,2644.1083,,2644.1086,2658.018,"[[44.8,3352],[14.4,3518],[9.5,3603],[4.5,3685],[2.7,3768],[3.1,3853],[5.8,3935],[8.6,4019],[13.1,4103],[22.5,4186],[31.9,4271],[39.8,4352],[42.6,4436],[44.4,4519],[46.9,4603],[48.5,4687],[49.1,4769],[49.7,4853],[49.7,4935],[49.7,5019],[49.9,5102],[50,5186],[50.7,5270],[51.1,5352],[51.1,5436],[51.1,5520],[51.1,5605],[51.1,5686],[51.1,5770],[51.1,5853],[51.1,5937],[51.1,6020],[51.1,6104],[51.1,6187],[51.1,6270],[51.1,6354],[51.1,6437],[51.1,6520],[51.1,6604],[51.1,6687],[51.1,6771],[51.1,6854],[51.1,6937],[51.1,7021],[51.1,7105],[51.1,7187],[51.1,7271],[51.1,7354],[51.1,7438],[51.1,7521],[51.1,7605],[51.1,7688],[51.1,7771],[51.1,7854],[51.1,7938],[51.1,8021],[51.1,8105],[51.1,8188],[51.1,8271],[51.1,8355],[51.1,8438],[51.1,8521],[51.1,8605],[51.1,8688],[51.1,8772],[51.1,8855],[51.1,8938],[51.1,9022],[51.1,9106],[51.1,9189],[51.1,9272],[51.1,9355],[51.1,9439],[51.1,9523],[51.1,9607],[51.1,9689],[51.1,9773],[51.1,9856],[51.1,9939],[51.1,10023],[51.1,10106],[51.1,10189],[51.1,10273],[51.1,10356],[51.1,10440],[51.1,10523],[51.1,10607],[51.1,10690],[51.1,10773],[51.1,10857],[51.1,10940],[51.1,11024],[51.1,11107],[51.1,11190],[51.1,11273],[51.1,11357],[51.1,11441],[51.1,11524],[51.1,11607],[51.1,11691],[51.1,11774],[51.1,11857],[51.1,11941],[51.1,12024],[51.1,12107],[51.1,12191],[51.1,12275],[51.1,12357],[51.1,12441],[51.1,12524],[51.1,12608],[51.1,12691],[51.1,12775],[51.1,12858],[51.1,12941],[51.1,13025],[51.1,13108],[51.1,13195],[51.1,13275],[51.1,13358],[51.1,13442],[51.1,13525],[51.1,13610],[51.1,13692],[51.1,13776],[51.1,13858]]",2658.0183,2660.7452,49.48830409,1.6577,"[{""rating"":49.48830409356725,""responseTime"":1.657699999988381}]",space,2.1768,,2660.7455,Definitely yes,100,2660.7541,,,[],,0,12,12,12,1,audio/Narrative8Situation3.wav,audio/Narrative7Situation3.wav,audio/Narrative6Situation3.wav,audio/Narrative5Situation3.wav,4,8,5,3,,,,,,,,,,,,,,,,,,,,,,,,,,,,,,,,,,,,,,,
,,,,,5fc30c35704ddd267cc9123f,2025-07-07_20h58.02.552,group3.4_multiperson,2023.2.2,Win32,60.60606061,686c2ebf0248f13bef9af11f,686c7b18fed9f566a7afbd6d,,,,,,,,,,,,,,,,,,,,,,,,,,,,,2660.755,2,audio/Narrative5Situation4.wav,2661.7555,,2661.7556,2682.1516,"[[49.8,1015],[49.8,1098],[50,1182],[49.9,1267],[48.8,1349],[48.6,1432],[48.6,1515],[48.6,1599],[42.7,1683],[23,1766],[8.2,1849],[3.9,1933],[1.5,2016],[1.2,2099],[3.9,2183],[5,2266],[8.5,2352],[19,2433],[29.3,2517],[34.2,2600],[37.9,2684],[42.3,2768],[44.6,2850],[45.9,2933],[46.6,3016],[47.8,3101],[48.7,3184],[50.3,3267],[51.3,3349],[51.3,3433],[51.3,3517],[51.3,3600],[51.3,3684],[51.3,3767],[51.3,3851],[51.3,3934],[51.3,4017],[51.3,4101],[51.3,4184],[51.3,4267],[51.3,4350],[51.3,4434],[51.3,4517],[51.3,4601],[51.3,4684],[51.3,4767],[51.3,4851],[51.3,4934],[51.3,5017],[51.3,5101],[51.3,5184],[51.3,5268],[51.3,5351],[51.3,5435],[51.3,5518],[51.3,5601],[51.3,5685],[51.3,5768],[51.3,5852],[51.3,5935],[51.3,6019],[51.3,6102],[51.3,6185],[51.3,6269],[51.3,6352],[51.3,6436],[49.6,6521],[40.3,6603],[34.1,6690],[30.4,6770],[26.8,6852],[24.8,6938],[23.3,7019],[22.9,7102],[22.9,7186],[22.9,7269],[22.6,7353],[22.3,7436],[22.3,7520],[22.3,7603],[22.3,7686],[22.3,7769],[22.3,7853],[22.3,7936],[22.1,8020],[15.2,8104],[8.4,8187],[4.6,8270],[3.6,8354],[3.4,8436],[3.1,8522],[2.3,8604],[1.7,8686],[1.7,8770],[1.7,8854],[1.7,8937],[1.7,9020],[2.7,9106],[7.2,9188],[12.9,9271],[17.1,9355],[27.3,9438],[43.1,9521],[54.7,9604],[58.5,9688],[58.5,9772],[57.7,9855],[53.9,9939],[52,10021],[51.4,10105],[51,10188],[50.2,10271],[50.2,10354],[50.2,10438],[50.2,10521],[50.2,10605],[49.9,10688],[49.9,10771],[49.9,10855],[49.9,10939],[49.7,11023],[49.6,11105],[49.6,11188],[49.6,11272],[49.6,11356],[49.6,11439],[49.6,11522],[49.6,11606],[49.6,11689],[49.6,11772],[49.6,11856],[49.6,11939],[49.6,12023],[49.6,12106],[49.6,12189],[49.6,12273],[49.6,12356],[49.6,12439],[49.6,12523],[49.6,12607],[49.6,12690],[49.6,12773],[49.6,12857],[49.6,12940],[49.6,13023],[49.6,13107],[49.6,13190],[49.6,13274],[49.6,13357],[49.6,13441],[49.6,13524],[49.6,13607],[49.6,13691],[49.6,13774],[49.6,13857],[49.6,13940],[49.6,14024],[49.6,14108],[49.6,14191],[49.6,14274],[49.6,14357],[49.6,14441],[49.6,14524],[49.6,14608],[49.6,14691],[49.6,14774],[49.6,14858],[49.6,14941],[49.6,15025],[49.6,15108],[49.6,15191],[49.6,15275],[49.6,15359],[49.6,15441],[49.6,15525],[49.6,15609],[49.6,15691],[49.6,15775],[49.6,15859],[49.6,15942],[49.6,16025],[49.6,16109],[49.6,16192],[49.6,16275],[49.6,16359],[49.6,16442],[49.6,16526],[49.6,16609],[49.6,16692],[49.6,16776],[49.6,16859],[49.6,16943],[49.6,17026],[49.6,17109],[49.6,17193],[49.6,17276],[49.6,17359],[49.6,17443],[49.6,17526],[49.6,17610],[49.6,17693],[49.6,17777],[49.6,17860],[49.6,17943],[49.6,18027],[49.6,18110],[49.6,18193],[49.6,18278],[49.6,18360],[49.6,18444],[49.6,18527],[49.6,18611],[49.6,18694],[49.6,18778],[49.6,18860],[49.6,18944],[49.6,19028],[49.6,19111],[49.6,19194],[49.6,19278],[49.6,19361],[49.6,19444],[49.6,19528],[49.6,19611],[49.6,19695],[49.6,19778],[49.6,19861],[49.6,19945],[49.6,20028],[49.6,20111],[49.6,20195],[49.6,20278],[49.6,20362]]",2682.1523,2684.1194,49.63450292,1.345,"[{""rating"":49.63450292397661,""responseTime"":1.3450000000002547}]",space,1.4198,,2684.1196,Definitely yes,100,2684.1249,,,[],,0,13,13,13,1,audio/Narrative8Situation4.wav,audio/Narrative7Situation4.wav,audio/Narrative6Situation4.wav,audio/Narrative5Situation4.wav,3,3,2,1,,,,,,,,,,,,,,,,,,,,,,,,,,,,,,,,,,,,,,,
,,,,,5fc30c35704ddd267cc9123f,2025-07-07_20h58.02.552,group3.4_multiperson,2023.2.2,Win32,60.60606061,686c2ebf0248f13bef9af11f,686c7b18fed9f566a7afbd6d,,,,,,,,,,,,,,,,,,,,,,,,,,,,,2684.1257,2,audio/Narrative5Situation5.wav,2689.1396,,2689.1397,2704.5577,"[[49.7,1593],[50.1,1675],[50.4,1758],[50.4,1841],[50.4,1925],[50.4,2009],[50.4,2093],[50.4,2175],[50.4,2260],[50.4,2342],[50.4,2425],[50.3,2510],[50.3,2593],[50.3,2676],[50.3,2758],[50.3,2842],[50.3,2926],[50.3,3009],[50.3,3092],[50.3,3175],[50.3,3259],[50.3,3343],[50.3,3425],[50.3,3509],[50.3,3593],[50.3,3675],[50.3,3760],[50.3,3843],[50.3,3926],[50.3,4010],[50.3,4093],[50.3,4176],[50.3,4262],[50.3,4343],[50.3,4427],[50.3,4510],[50.3,4593],[50.3,4678],[50.3,4760],[50.3,4843],[50.3,4927],[50.3,5010],[50.3,5093],[50.3,5178],[50.3,5260],[50.3,5344],[50.3,5428],[50.3,5511],[50.3,5594],[50.3,5677],[50.3,5760],[50.3,5845],[50.3,5927],[50.3,6010],[49.3,6096],[43.6,6180],[31.4,6264],[24.5,6347],[20.9,6430],[16.4,6513],[14.4,6597],[12.6,6679],[6.9,6764],[6.1,6845],[6.1,6928],[5.8,7014],[5.5,7096],[5.5,7180],[5.5,7261],[5.5,7345],[5.5,7429],[5.5,7512],[5.5,7597],[5.5,7678],[5.5,7762],[5.5,7846],[5.5,7928],[5.5,8011],[5.5,8097],[5.5,8179],[5.5,8263],[5.5,8345],[5.5,8429],[5.5,8513],[5.5,8595],[5.5,8680],[5.5,8764],[5.5,8847],[5.5,8930],[5.5,9014],[5.5,9096],[5.5,9180],[5.5,9264],[5.5,9346],[5.5,9431],[5.5,9513],[5.5,9596],[5.5,9680],[5.5,9765],[5.5,9848],[5.5,9930],[5.5,10013],[5.5,10098],[5.5,10181],[5.5,10263],[5.5,10349],[5.5,10430],[5.5,10513],[5.5,10598],[5.5,10680],[5.5,10765],[5.5,10847],[5.5,10931],[5.5,11015],[5.5,11097],[5.5,11183],[5.5,11264],[5.5,11349],[5.5,11431],[5.5,11514],[5.5,11598],[5.5,11682],[5.5,11764],[5.5,11848],[5.5,11931],[5.5,12013],[5.5,12099],[5.5,12182],[5.5,12265],[5.5,12346],[5.5,12430],[5.5,12513],[5.5,12596],[5.5,12679],[7.2,12768],[9.4,12849],[12.4,12934],[14.3,13018],[15.7,13100],[15.8,13182],[15.8,13266],[15.8,13349],[15.8,13432],[15.8,13515],[15.8,13601],[15.8,13684],[15.8,13767],[15.8,13849],[15.8,13934],[15.8,14016],[15.8,14099],[14.7,14187],[14.3,14266],[14.3,14352],[14.3,14436],[14.3,14517],[14.3,14600],[14.3,14684],[14.3,14767],[14.3,14850],[14.3,14935],[14.3,15018],[14.3,15101],[14.3,15184],[14.3,15267],[14.3,15353]]",2704.5581,2706.7428,8.406432749,1.5999,"[{""rating"":8.406432748538013,""responseTime"":1.59989999997606}]",space,1.6548,,2706.7429,Partially,50,2706.7527,,,[],,0,14,14,14,1,audio/Narrative8Situation5.wav,audio/Narrative7Situation5.wav,audio/Narrative6Situation5.wav,audio/Narrative5Situation5.wav,2,5,2,5,,,,,,,,,,,,,,,,,,,,,,,,,,,,,,,,,,,,,,,
,,,,,5fc30c35704ddd267cc9123f,2025-07-07_20h58.02.552,group3.4_multiperson,2023.2.2,Win32,60.60606061,686c2ebf0248f13bef9af11f,686c7b18fed9f566a7afbd6d,,,,,,,,,,,,,,,,,,,,,,,,,,,,,2706.7541,2,audio/Narrative5Situation6.wav,2709.7702,,2709.7703,2715.4411,"[[6,601],[2.6,684],[2,766],[1.5,850],[1.4,933],[1.4,1016],[1.4,1100],[1.4,1183],[1.4,1266],[1.4,1350],[1.4,1433],[1.4,1516],[1.4,1600],[1.4,1684],[2.9,1767],[8.3,1851],[15.8,1934],[20.7,2018],[26,2102],[36.7,2184],[43.9,2268],[46.6,2352],[46.9,2434],[47.2,2518],[49.3,2601],[49.4,2684],[49.4,2768],[49.6,2851],[49.6,2935],[49.7,3018],[49.7,3101],[49.7,3185],[49.7,3269],[49.7,3352],[49.7,3435],[49.7,3518],[49.7,3602],[49.7,3685],[49.7,3769],[49.7,3852],[49.7,3935],[49.7,4019],[49.7,4102],[49.7,4185],[49.7,4269],[49.7,4352],[49.7,4435],[49.7,4519],[49.7,4602],[49.7,4686],[49.7,4769],[49.7,4853],[49.7,4936],[49.7,5020],[49.7,5103],[49.7,5186],[49.7,5270],[49.7,5353],[49.7,5436],[49.7,5520],[49.7,5603]]",2715.4414,2717.2505,49.70760234,1.2413,"[{""rating"":49.70760233918129,""responseTime"":1.241299999952389}]",space,1.2531,,2717.2506,Not at all,0,2717.2592,,,[],,0,15,15,15,1,audio/Narrative8Situation6.wav,audio/Narrative7Situation6.wav,audio/Narrative6Situation6.wav,audio/Narrative5Situation6.wav,2,3,2,3,,,,,,,,,,,,,,,,,,,,,,,,,,,,,,,,,,,,,,,
,,,,,5fc30c35704ddd267cc9123f,2025-07-07_20h58.02.552,group3.4_multiperson,2023.2.2,Win32,60.60606061,686c2ebf0248f13bef9af11f,686c7b18fed9f566a7afbd6d,,,,,,,,,,,,,,,,,,,,,,,,,,,,,2717.2602,2,audio/Narrative5Situation7.wav,2721.2616,,2721.2619,2742.3098,"[[45.5,934],[24.4,1017],[16.3,1100],[13.2,1183],[10.9,1267],[10.5,1349],[14.5,1433],[21.6,1518],[35.6,1601],[42.3,1685],[43.9,1766],[45.5,1851],[48.1,1935],[48.4,2017],[49.3,2101],[49.9,2183],[50,2267],[50,2350],[50,2434],[50,2517],[50,2601],[50,2684],[50,2768],[50,2851],[50,2934],[50,3018],[50,3101],[50,3185],[50,3268],[50,3351],[50,3435],[50,3518],[50,3601],[50,3685],[50,3768],[50,3852],[50.1,3936],[58.1,4020],[66.3,4103],[68.2,4185],[68.4,4270],[69.7,4353],[69.7,4435],[70.2,4518],[70.6,4603],[71.9,4689],[72.5,4768],[72.7,4852],[72.7,4935],[72.7,5019],[72.7,5102],[72.7,5185],[72.7,5269],[72.7,5353],[72.7,5436],[72.7,5520],[72.7,5603],[72.7,5686],[72.7,5770],[72.7,5853],[72.7,5937],[72.7,6019],[72.7,6103],[72.7,6187],[72.7,6270],[72.7,6353],[72.7,6437],[72.7,6520],[72.7,6603],[72.7,6687],[72.7,6770],[72.7,6854],[72.7,6937],[72.7,7020],[72.7,7103],[72.7,7187],[72.7,7271],[72.7,7354],[72.7,7437],[72.7,7521],[72.7,7604],[72.7,7687],[72.7,7771],[72.7,7854],[72.7,7938],[72.7,8021],[72.7,8104],[72.7,8188],[72.7,8271],[72.7,8355],[72.7,8438],[72.7,8522],[72.7,8605],[72.7,8688],[72.7,8772],[72.7,8855],[72.7,8939],[72.7,9022],[72.7,9105],[72.7,9188],[72.7,9272],[72.7,9355],[72.7,9439],[72.7,9522],[72.7,9605],[72.7,9689],[72.7,9772],[72.7,9855],[72.7,9939],[72.7,10023],[72.7,10105],[72.7,10190],[72.7,10273],[72.7,10356],[72.7,10439],[72.7,10523],[72.7,10606],[72.7,10690],[72.7,10773],[72.7,10856],[72.7,10940],[72.7,11023],[72.7,11107],[72.7,11190],[72.7,11273],[72.7,11357],[72.7,11440],[72.7,11523],[72.7,11607],[72.7,11690],[72.7,11773],[72.7,11857],[72.7,11941],[72.7,12024],[72.7,12107],[72.7,12191],[72.7,12274],[72.7,12357],[72.7,12441],[72.7,12524],[72.7,12607],[72.7,12691],[72.7,12774],[72.7,12858],[72.7,12941],[72.7,13024],[72.7,13108],[72.7,13192],[72.7,13275],[72.7,13358],[72.7,13442],[72.7,13525],[72.7,13608],[72.7,13692],[72.7,13775],[72.7,13858],[72.7,13942],[72.7,14025],[72.7,14109],[72.7,14192],[72.7,14275],[72.7,14359],[72.7,14442],[72.7,14525],[72.7,14609],[72.7,14693],[72.7,14776],[72.7,14859],[72.7,14942],[72.7,15026],[72.7,15109],[72.7,15193],[72.7,15276],[72.7,15360],[72.7,15443],[72.7,15526],[72.7,15609],[72.7,15693],[72.7,15777],[72.7,15861],[72.7,15943],[72.7,16027],[72.7,16110],[72.7,16193],[72.7,16277],[72.7,16360],[72.7,16443],[72.7,16527],[72.7,16610],[72.7,16693],[72.7,16777],[72.7,16860],[72.7,16944],[72.7,17027],[72.7,17111],[72.7,17194],[72.7,17278],[72.7,17361],[72.7,17444],[72.7,17527],[72.7,17611],[72.7,17694],[72.7,17778],[72.7,17861],[72.7,17944],[72.7,18028],[72.7,18111],[72.7,18194],[72.7,18278],[72.7,18361],[72.7,18445],[72.7,18528],[72.7,18611],[72.7,18695],[72.7,18779],[72.7,18862],[72.7,18945],[72.7,19029],[72.7,19112],[72.7,19195],[72.7,19279],[72.7,19362],[72.7,19445],[72.7,19529],[72.7,19612],[72.7,19696],[72.7,19779],[72.7,19863],[72.7,19946],[72.7,20029],[72.7,20113],[72.7,20196],[72.7,20280],[72.7,20363],[72.7,20446],[72.7,20530],[72.7,20613],[72.7,20696],[72.7,20780],[72.7,20864],[72.7,20947],[72.7,21030]]",2742.3103,2744.2861,72.66081871,0.8086,"[{""rating"":72.6608187134503,""responseTime"":0.808600000023489}]",space,1.4097,,2744.2865,Partially,50,2744.3,,,[],,0,16,16,16,1,audio/Narrative8Situation7.wav,audio/Narrative7Situation7.wav,audio/Narrative6Situation7.wav,audio/Narrative5Situation7.wav,3,5,5,4,,,,,,,,,,,,,,,,,,,,,,,,,,,,,,,,,,,,,,,
