consent.started,consent.stopped,consentResponse.keys,consentResponse.rt,consentResponse.duration,participantID,date,expName,psychopyVersion,OS,frameRate,STUDY_ID,SESSION_ID,opening1.started,opening1.stopped,keyEndingOpening1.keys,keyEndingOpening1.rt,keyEndingOpening1.duration,volumeAdjust.started,volumeAdjust.stopped,endingAdjust.keys,endingAdjust.rt,endingAdjust.duration,opening2.started,opening2.stopped,keyEndingOpening.keys,keyEndingOpening.rt,keyEndingOpening.duration,mouse.x,mouse.y,mouse.leftButton,mouse.midButton,mouse.rightButton,mouse.time,instructionLoop.thisRepN,instructionLoop.thisTrialN,instructionLoop.thisN,instructionLoop.thisIndex,instructionLoop.ran,readyForAudio.started,readyForAudio.stopped,fixation.started,run,audio_played,fixation.stopped,endPractice.keys,audioPre.started,audioPre.stopped,continuousResponses_audio,intRating.started,intRating.stopped,intQuestionSlider.response,intQuestionSlider.rt,intQuestionSlider.history,confirmResponse.keys,confirmResponse.rt,confirmResponse.duration,catchQuestion.started,catch_label,catch_value,catchQuestion.stopped,catchQuestionSlider.response,catchQuestionSlider.rt,catchQuestionSlider.history,confirmResponse_2.keys,audioRunLoop.thisRepN,audioRunLoop.thisTrialN,audioRunLoop.thisN,audioRunLoop.thisIndex,audioRunLoop.ran,conditions1_1,conditions2_1,conditions1_2,conditions2_2,dur1_1,dur2_1,dur1_2,dur2_2,endPractice.rt,endPractice.duration,confirmResponse_2.rt,confirmResponse_2.duration,runIntervalBreak.started,runIntervalBreak.stopped,endingBreakKey.keys,endingBreakKey.rt,endingBreakKey.duration,connection.started,connection.stopped,connectionEnding.keys,connectionEnding.rt,connectionEnding.duration,readyForText.started,readyForText.stopped,textPre.started,run_dup,textPre.stopped,continuousResponses_text,textRunLoop.thisRepN,textRunLoop.thisTrialN,textRunLoop.thisN,textRunLoop.thisIndex,textRunLoop.ran,text1_1,text1_2,text2_1,text2_2,runBreakText.started,runBreakText.stopped,endingBreakKey_2.keys,endingBreakKey_2.rt,endingBreakKey_2.duration,ending.started,ending.stopped,endingEnding.keys,endingEnding.rt,endingEnding.duration
0.0003,4.9436,y,4.6191,,6098164e4c37ed73ca9c74f5,2025-07-07_13h47.34.841,group3.4_multiperson,2023.2.2,MacIntel,59.52380952,686c2ebf0248f13bef9af11f,686c324dd5bef3e49ec2299a,,,,,,,,,,,,,,,,,,,,,,,,,,,,,,,,,,,,,,,,,,,,,,,,,,,,,,,,,,,,,,,,,,,,,,,,,,,,,,,,,,,,,,,,,,,,,,,,,,,,,,,,
,,,,,6098164e4c37ed73ca9c74f5,2025-07-07_13h47.34.841,group3.4_multiperson,2023.2.2,MacIntel,59.52380952,686c2ebf0248f13bef9af11f,686c324dd5bef3e49ec2299a,4.9439,8.4099,space,3.4194,,,,,,,,,,,,,,,,,,,,,,,,,,,,,,,,,,,,,,,,,,,,,,,,,,,,,,,,,,,,,,,,,,,,,,,,,,,,,,,,,,,,,,,,,,,,,,,,,,,,
,,,,,6098164e4c37ed73ca9c74f5,2025-07-07_13h47.34.841,group3.4_multiperson,2023.2.2,MacIntel,59.52380952,686c2ebf0248f13bef9af11f,686c324dd5bef3e49ec2299a,,,,,,8.4103,15.7055,space,6.9731,,,,,,,,,,,,,,,,,,,,,,,,,,,,,,,,,,,,,,,,,,,,,,,,,,,,,,,,,,,,,,,,,,,,,,,,,,,,,,,,,,,,,,,,,,,,,,,
,,,,,6098164e4c37ed73ca9c74f5,2025-07-07_13h47.34.841,group3.4_multiperson,2023.2.2,MacIntel,59.52380952,686c2ebf0248f13bef9af11f,686c324dd5bef3e49ec2299a,,,,,,,,,,,15.7133,43.3332,space,27.5941,,[],[],[],[],[],[],0,0,0,0,1,,,,,,,,,,,,,,,,,,,,,,,,,,,,,,,,,,,,,,,,,,,,,,,,,,,,,,,,,,,,,,,,,,,,,,,,,,,,,,
,,,,,6098164e4c37ed73ca9c74f5,2025-07-07_13h47.34.841,group3.4_multiperson,2023.2.2,MacIntel,59.52380952,686c2ebf0248f13bef9af11f,686c324dd5bef3e49ec2299a,,,,,,,,,,,43.3338,76.4849,space,33.0224,,[],[],[],[],[],[],1,0,1,0,1,,,,,,,,,,,,,,,,,,,,,,,,,,,,,,,,,,,,,,,,,,,,,,,,,,,,,,,,,,,,,,,,,,,,,,,,,,,,,,
,,,,,6098164e4c37ed73ca9c74f5,2025-07-07_13h47.34.841,group3.4_multiperson,2023.2.2,MacIntel,59.52380952,686c2ebf0248f13bef9af11f,686c324dd5bef3e49ec2299a,,,,,,,,,,,76.4853,91.6578,space,15.1172,,[],[],[],[],[],[],2,0,2,0,1,,,,,,,,,,,,,,,,,,,,,,,,,,,,,,,,,,,,,,,,,,,,,,,,,,,,,,,,,,,,,,,,,,,,,,,,,,,,,,
,,,,,6098164e4c37ed73ca9c74f5,2025-07-07_13h47.34.841,group3.4_multiperson,2023.2.2,MacIntel,59.52380952,686c2ebf0248f13bef9af11f,686c324dd5bef3e49ec2299a,,,,,,,,,,,91.6583,118.7999,space,27.1107,,[],[],[],[],[],[],3,0,3,0,1,,,,,,,,,,,,,,,,,,,,,,,,,,,,,,,,,,,,,,,,,,,,,,,,,,,,,,,,,,,,,,,,,,,,,,,,,,,,,,
,,,,,6098164e4c37ed73ca9c74f5,2025-07-07_13h47.34.841,group3.4_multiperson,2023.2.2,MacIntel,59.52380952,686c2ebf0248f13bef9af11f,686c324dd5bef3e49ec2299a,,,,,,,,,,,118.8004,130.0928,space,11.2657,,[],[],[],[],[],[],4,0,4,0,1,,,,,,,,,,,,,,,,,,,,,,,,,,,,,,,,,,,,,,,,,,,,,,,,,,,,,,,,,,,,,,,,,,,,,,,,,,,,,,
,,,,,6098164e4c37ed73ca9c74f5,2025-07-07_13h47.34.841,group3.4_multiperson,2023.2.2,MacIntel,59.52380952,686c2ebf0248f13bef9af11f,686c324dd5bef3e49ec2299a,,,,,,,,,,,130.0933,161.4544,space,31.3328,,[],[],[],[],[],[],5,0,5,0,1,,,,,,,,,,,,,,,,,,,,,,,,,,,,,,,,,,,,,,,,,,,,,,,,,,,,,,,,,,,,,,,,,,,,,,,,,,,,,,
,,,,,6098164e4c37ed73ca9c74f5,2025-07-07_13h47.34.841,group3.4_multiperson,2023.2.2,MacIntel,59.52380952,686c2ebf0248f13bef9af11f,686c324dd5bef3e49ec2299a,,,,,,,,,,,,,,,,,,,,,,,,,,,161.4578,164.0373,164.0733,1,audio/Narrative13Situation2.wav,166.0866,,166.087,195.8506,"[[999,3],[999,131],[999,215],[999,297],[999,382],[999,464],[999,548],[999,631],[999,714],[999,800],[999,881],[999,969],[999,1049],[999,1131],[999,1214],[999,1297],[999,1380],[999,1463],[999,1547],[999,1630],[999,1713],[999,1797],[999,1881],[999,1964],[999,2047],[999,2131],[999,2214],[999,2296],[999,2379],[999,2462],[999,2546],[999,2630],[999,2713],[999,2796],[999,2880],[999,2963],[999,3046],[999,3129],[999,3215],[999,3296],[999,3379],[999,3463],[999,3545],[999,3628],[999,3711],[999,3795],[999,3879],[61,3962],[62.2,4045],[62.2,4128],[62.8,4212],[66,4295],[69.4,4378],[74,4462],[78.8,4545],[82.7,4628],[83,4711],[83,4795],[83,4878],[83,4961],[83.8,5045],[89.2,5129],[90.6,5212],[90.7,5295],[91.1,5380],[91.1,5461],[91.1,5545],[91.1,5628],[91.1,5711],[91.1,5795],[91.1,5878],[91.1,5961],[91.1,6044],[91.1,6127],[91.1,6211],[91.1,6295],[91.1,6379],[91.1,6460],[91.1,6543],[91.1,6628],[91.1,6711],[91.1,6793],[91.1,6878],[91.1,6961],[91.1,7043],[91.1,7127],[91.1,7209],[91.1,7295],[91.1,7376],[91.1,7459],[91.1,7543],[91.1,7625],[91.1,7710],[91.1,7792],[91.1,7876],[91.1,7959],[91.1,8042],[91.1,8127],[91.1,8209],[91.1,8293],[91.1,8377],[91.1,8459],[91.1,8542],[91.1,8626],[90.6,8711],[90.6,8793],[90.7,8876],[90.7,8959],[90.7,9042],[90.7,9125],[90.7,9209],[90.7,9292],[90.7,9375],[90.7,9459],[90.7,9542],[90.7,9625],[90.7,9709],[90.7,9791],[90.7,9876],[90.7,9958],[90.7,10042],[90.7,10126],[90.7,10208],[90.7,10291],[90.7,10375],[90.7,10458],[90.7,10543],[90.7,10625],[90.7,10707],[90.7,10791],[90.7,10874],[90.7,10959],[90.7,11041],[90.7,11124],[90.7,11206],[90.7,11291],[90.7,11374],[90.7,11457],[90.7,11539],[90.7,11624],[90.7,11707],[90.7,11790],[90.7,11874],[90.7,11956],[90.7,12041],[90.7,12123],[90.7,12207],[90.7,12290],[90.7,12373],[90.7,12457],[90.7,12540],[90.7,12623],[90.7,12708],[90.7,12788],[90.7,12873],[90.7,12956],[90.7,13039],[90.7,13124],[90.7,13206],[90.7,13289],[90.7,13372],[90.7,13455],[90.7,13540],[90.7,13622],[90.7,13705],[90.7,13788],[90.7,13872],[90.7,13955],[90.7,14039],[90.7,14122],[90.7,14206],[90.7,14290],[90.7,14372],[90.7,14455],[90.7,14538],[90.7,14622],[90.7,14705],[90.7,14788],[90.5,14872],[89.2,14954],[88.8,15039],[88.8,15121],[88.8,15204],[88.8,15289],[88.8,15371],[88.7,15454],[87.8,15538],[83.9,15621],[82.2,15704],[82.2,15788],[82.2,15870],[82.2,15953],[82.2,16037],[79.4,16121],[70.7,16203],[68.5,16287],[68.5,16371],[68.5,16453],[68.5,16537],[68.5,16620],[68.5,16703],[68.5,16788],[68.2,16870],[51.5,16953],[45.6,17037],[45.6,17121],[45.6,17203],[45.6,17286],[43.9,17371],[33.7,17454],[32.6,17536],[32.6,17619],[32.6,17703],[32.6,17786],[31.9,17870],[21.5,17953],[20.3,18036],[20.3,18120],[20.3,18203],[20.3,18286],[20.3,18369],[20.3,18452],[20.3,18537],[20.3,18619],[20.3,18702],[20.3,18785],[19.3,18869],[18,18953],[17.2,19036],[16.8,19119],[16.8,19204],[16.8,19285],[16.8,19369],[16.8,19452],[16.8,19535],[16.8,19619],[16.8,19701],[16.8,19784],[16.8,19868],[16.8,19951],[16.8,20035],[16.8,20117],[16.8,20201],[16.8,20284],[16.8,20368],[16.8,20451],[16.8,20534],[16.8,20618],[16.8,20701],[16.8,20785],[16.6,20868],[12.3,20951],[10.3,21034],[9.6,21118],[9.5,21201],[9.5,21284],[9.5,21369],[9.5,21451],[9.5,21536],[9.5,21617],[9.5,21701],[9.5,21785],[9.5,21867],[9.5,21950],[9.5,22034],[9.5,22116],[9.5,22201],[9.5,22283],[10.7,22367],[23.6,22449],[46,22533],[53.8,22617],[53.9,22700],[53.9,22782],[55.2,22866],[73,22949],[77.6,23033],[77.6,23118],[77.6,23199],[79,23285],[83.3,23367],[84.1,23449],[84.4,23532],[84.3,23616],[84.3,23699],[84.3,23783],[84.3,23865],[84.3,23950],[84.3,24031],[84.3,24115],[84.3,24199],[84.3,24281],[84.3,24365],[84.3,24449],[84.3,24531],[84.3,24615],[84.3,24698],[84.3,24782],[84.3,24865],[84.3,24948],[84.3,25031],[84.3,25114],[84.3,25198],[84.3,25281],[84.3,25365],[84.3,25449],[84.3,25532],[84.3,25614],[84.3,25698],[84.3,25780],[84.3,25864],[84.3,25947],[84.3,26031],[84.3,26116],[84.3,26197],[84.3,26281],[84.3,26364],[84.3,26447],[84.3,26531],[84.3,26614],[84.3,26697],[84.3,26781],[84.3,26864],[84.3,26947],[84.3,27030],[84.3,27113],[79.6,27198],[44.4,27696],[46.5,27780],[46.3,27863],[44.8,27946],[37.8,28030],[36.4,28112],[36.4,28196],[36.4,28281],[31.4,28363],[30.9,28446],[30.9,28529],[30.9,28613],[30.9,28696],[30.9,28779],[30.9,28863],[30.9,28945],[30.9,29028],[30.9,29112],[30.9,29195],[30.9,29279],[30.9,29363],[30.9,29445],[30.9,29529],[30.9,29612],[30.9,29695]]",195.851,201.7285,60.71084764,4.2069,"[{""rating"":60.71084764268663,""responseTime"":4.206900000035773}]",space,5.3375,,201.7291,Partially,50,201.7362,,,[],,0,0,0,0,1,audio/Narrative13Situation2.wav,audio/Narrative13Situation2.wav,audio/Narrative13Situation2.wav,audio/Narrative13Situation2.wav,2,2,2,2,,,,,,,,,,,,,,,,,,,,,,,,,,,,,,,,,,,,,,,
,,,,,6098164e4c37ed73ca9c74f5,2025-07-07_13h47.34.841,group3.4_multiperson,2023.2.2,MacIntel,59.52380952,686c2ebf0248f13bef9af11f,686c324dd5bef3e49ec2299a,,,,,,,,,,,,,,,,,,,,,,,,,,,,,201.7366,1,audio/Narrative8Situation1.wav,210.5259,space,210.5259,226.4628,"[[70.9,1847],[73.9,1928],[75.9,2012],[76.4,2095],[76.4,2179],[76.4,2262],[76.4,2344],[76.4,2428],[76.4,2511],[76.4,2595],[76.4,2679],[76.4,2762],[76.4,2844],[77.2,2928],[78.2,3010],[78.6,3095],[79.3,3178],[80.4,3261],[81.7,3343],[82.4,3427],[83.6,3512],[84,3596],[84.1,3678],[84.1,3761],[84.1,3843],[84.1,3927],[84.1,4010],[84.1,4093],[84.1,4178],[84.1,4260],[84.1,4343],[84.1,4428],[84.1,4510],[84.1,4593],[84.1,4677],[84.1,4760],[84.1,4844],[84.1,4926],[84.1,5009],[84.1,5093],[84.1,5176],[84.1,5260],[84.1,5343],[84.1,5426],[84.1,5511],[84.1,5593],[84.1,5676],[84.1,5760],[84.1,5842],[84.1,5927],[84.1,6010],[84.1,6092],[84.1,6174],[84.1,6259],[84.1,6343],[84.1,6426],[84.1,6508],[84.1,6593],[84.1,6675],[84.1,6758],[84.1,6842],[84.1,6924],[84.1,7008],[84.1,7092],[84.1,7174],[84.1,7258],[84.1,7342],[84.1,7425],[84.1,7508],[84.1,7591],[84.1,7676],[84.1,7758],[84.1,7842],[84.1,7925],[84.1,8008],[84.1,8092],[84.1,8175],[84.1,8258],[84.1,8341],[84.1,8424],[84.1,8508],[84.1,8590],[84.1,8673],[84.1,8757],[84.1,8840],[84.1,8924],[84.1,9007],[84.1,9090],[84.1,9173],[84.1,9256],[84.1,9341],[80.6,9424],[45.9,9506],[28.5,9592],[26.5,9675],[26.6,9757],[26.1,9840],[25.3,9923],[23.1,10007],[21.4,10090],[20.7,10173],[19.6,10257],[19.5,10340],[19.6,10423],[19.6,10506],[19.6,10589],[19.6,10672],[19.7,10757],[21.1,10839],[21.7,10924],[22.4,11005],[23.8,11089],[24.9,11172],[25.1,11257],[25.4,11340],[27.3,11422],[27.3,11505],[27.3,11590],[27.3,11671],[30.7,11756],[47.1,11838],[48.1,11921],[48.1,12007],[48.1,12088],[48.1,12172],[48.1,12255],[48.1,12337],[47.7,12422],[47.7,12505],[47.7,12587],[47.7,12671],[47.7,12754],[47.8,12838],[47.8,12920],[47.8,13004],[47.9,13090],[48.6,13170],[49.3,13254],[49.3,13338],[49.3,13420],[49.3,13505],[49.3,13587],[49.3,13670],[49.3,13754],[49.3,13837],[49.3,13921],[49.3,14003],[49.3,14087],[49.3,14170],[49.3,14253],[49.3,14337],[49.3,14420],[49.3,14503],[49.3,14588],[49.3,14669],[49.3,14753],[49.3,14837],[49.3,14919],[49.3,15003],[49.3,15086],[49.3,15169],[49.3,15253],[49.3,15336],[49.3,15420],[49.3,15502],[49.3,15586],[49.3,15668],[49.3,15752],[49.3,15836],[49.3,15919]]",226.4632,231.1759,62.77268304,3.4551,"[{""rating"":62.77268303765191,""responseTime"":3.455099999964233}]",space,4.1669,,231.1761,Definitely yes,100,231.1812,,,[],,0,1,1,1,1,audio/Narrative7Situation1.wav,audio/Narrative8Situation1.wav,audio/Narrative5Situation1.wav,audio/Narrative6Situation1.wav,2,5,5,2,8.7661,,,,,,,,,,,,,,,,,,,,,,,,,,,,,,,,,,,,,,
,,,,,6098164e4c37ed73ca9c74f5,2025-07-07_13h47.34.841,group3.4_multiperson,2023.2.2,MacIntel,59.52380952,686c2ebf0248f13bef9af11f,686c324dd5bef3e49ec2299a,,,,,,,,,,,,,,,,,,,,,,,,,,,,,231.1815,1,audio/Narrative8Situation2.wav,234.1914,,234.1915,244.3345,"[[43.7,2832],[26.2,2913],[26.2,2996],[26.2,3080],[26.2,3163],[26.2,3246],[26.2,3330],[26.1,3413],[26,3496],[26,3580],[25.5,3663],[24,3746],[21.5,3829],[20.2,3913],[19.9,3996],[19.9,4080],[19.9,4162],[17.7,4246],[12.6,4328],[12.4,4412],[12.4,4496],[12.4,4578],[12.4,4662],[12.4,4746],[12.4,4828],[12.4,4912],[12.4,4995],[12.4,5078],[12.4,5162],[12.4,5245],[12.4,5329],[12.4,5411],[12.4,5495],[12.4,5579],[12.4,5662],[12.4,5745],[12.4,5829],[12.4,5910],[12.4,5994],[12.4,6078],[12.4,6161],[12.4,6245],[12.4,6327],[12.4,6411],[12.4,6496],[12.4,6577],[12.4,6662],[12.4,6746],[12.4,6827],[12.4,6912],[12.4,6995],[12.4,7078],[12.4,7161],[12.4,7244],[12.4,7328],[12.4,7410],[12.4,7494],[12.4,7579],[12.4,7660],[12.4,7744],[12.4,7826],[12.4,7911],[12.4,7995],[12.4,8076],[12.4,8159],[12.4,8242],[12.4,8326],[12.4,8410],[12.4,8492],[12.4,8576],[12.4,8661],[12.4,8742],[12.4,8827],[12.4,8909],[12.4,8992],[12.4,9077],[12.4,9159],[12.4,9243],[12.4,9326],[12.4,9409],[12.4,9493],[12.4,9576],[12.4,9659],[12.4,9741],[12.4,9824],[12.4,9909],[12.4,9992],[12.4,10074]]",244.3347,248.7809,16.4620675,3.3939,"[{""rating"":16.462067498101128,""responseTime"":3.393899999976128}]",space,3.9034,,248.781,Not at all,0,248.7871,,,[],,0,2,2,2,1,audio/Narrative7Situation2.wav,audio/Narrative8Situation2.wav,audio/Narrative5Situation2.wav,audio/Narrative6Situation2.wav,3,3,3,3,,,,,,,,,,,,,,,,,,,,,,,,,,,,,,,,,,,,,,,
,,,,,6098164e4c37ed73ca9c74f5,2025-07-07_13h47.34.841,group3.4_multiperson,2023.2.2,MacIntel,59.52380952,686c2ebf0248f13bef9af11f,686c324dd5bef3e49ec2299a,,,,,,,,,,,,,,,,,,,,,,,,,,,,,248.788,1,audio/Narrative8Situation3.wav,252.7953,,252.7954,275.1971,"[[37.8,932],[49.9,1014],[52,1098],[52,1182],[52,1264],[52,1348],[52,1431],[52,1514],[52,1598],[52,1681],[52,1764],[47.4,1848],[27.6,1931],[20,2015],[16.7,2097],[16.7,2181],[16.7,2264],[14.4,2348],[13.2,2430],[13.2,2513],[13.2,2597],[13.2,2681],[13.2,2764],[13.2,2847],[13.2,2932],[13.2,3014],[13.2,3097],[13.2,3180],[13.2,3264],[13.2,3348],[13.2,3430],[13.2,3514],[13.2,3598],[13.2,3679],[13.2,3763],[13.2,3845],[13.2,3929],[13.2,4012],[13.2,4096],[13.2,4179],[13.2,4262],[13.2,4345],[13.2,4430],[13.2,4512],[13.2,4596],[13.2,4681],[14,4764],[17.1,4846],[18.3,4928],[20.6,5012],[25.1,5095],[29,5178],[29.8,5261],[29.8,5345],[29.8,5427],[29.8,5512],[29.8,5595],[29.8,5678],[29.8,5762],[29.8,5844],[29.8,5929],[34.2,6012],[44.7,6095],[45.3,6179],[45.3,6262],[45.3,6345],[45.4,6428],[54.6,6512],[60.2,6596],[60.6,6678],[60.6,6761],[60.6,6844],[60.7,6928],[66.7,7012],[67.6,7093],[67.6,7177],[67.7,7260],[70.1,7345],[71.6,7428],[71.6,7510],[71.6,7593],[71.6,7678],[71.6,7760],[71.6,7844],[71.6,7927],[71.6,8010],[71.6,8094],[71.6,8177],[71.6,8260],[72.2,8344],[76.5,8427],[77.3,8510],[77.3,8593],[77.3,8676],[77.3,8761],[77.3,8843],[77.6,8926],[81.7,9010],[83.1,9093],[83.2,9177],[83.2,9259],[83.2,9343],[83.2,9427],[83.2,9510],[83.2,9593],[83.2,9676],[83.2,9758],[83.2,9843],[83.2,9926],[83.2,10008],[83.2,10094],[83.2,10176],[83.2,10260],[83.2,10341],[83.2,10425],[83.2,10510],[83.2,10592],[83.2,10675],[83.2,10758],[83.2,10841],[83.2,10926],[83.2,11009],[83.2,11091],[83.2,11174],[83.2,11258],[83.2,11342],[83.2,11424],[83.2,11508],[83.2,11591],[83.2,11675],[83.2,11758],[83.2,11840],[83.2,11924],[83.2,12008],[83.2,12091],[83.2,12173],[83.2,12256],[83.2,12341],[83.2,12424],[83.2,12507],[83.2,12589],[83.2,12673],[83.2,12757],[83.2,12840],[83.2,12923],[84.2,13006],[89.6,13090],[92.9,13174],[93.9,13257],[94,13340],[94.1,13422],[95,13508],[95.7,13590],[95.9,13673],[95.9,13755],[95.9,13839],[96.8,13923],[97.5,14006],[97.6,14089],[97.6,14172],[97.6,14255],[97.6,14339],[97.6,14423],[97.6,14505],[98,14590],[99.2,14673],[99.3,14756],[99.3,14838],[99.3,14922],[99.3,15006],[99.3,15089],[99.3,15172],[99.3,15256],[99.3,15338],[99.3,15422],[99.3,15504],[99.3,15588],[99.3,15672],[99.3,15754],[99.3,15838],[99.3,15921],[99.3,16005],[99.3,16089],[99.3,16171],[99.3,16254],[99.3,16338],[99.3,16421],[99.3,16505],[99.3,16587],[99.3,16671],[99.3,16755],[99.3,16838],[99.3,16920],[99.3,17004],[99.3,17088],[99.3,17171],[99.3,17254],[99.3,17338],[99.3,17421],[99.3,17503],[99.3,17588],[99.3,17670],[99.3,17754],[99.3,17836],[99.3,17921],[99.3,18003],[99.3,18088],[99.3,18170],[99.3,18254],[99.3,18337],[99.3,18420],[99.3,18504],[99.3,18587],[99.3,18670],[99.3,18753],[99.3,18837],[99.3,18920],[99.3,19003],[99.3,19086],[99.3,19204],[99.3,19286],[99.3,19369],[99.3,19452],[99.3,19535],[99.3,19619],[99.3,19701],[99.3,19785],[99.3,19868],[99.3,19952],[99.3,20035],[99.3,20119],[99.3,20203],[99.3,20286],[99.3,20369],[99.3,20452],[99.3,20535],[99.3,20619],[99.3,20702],[99.3,20784],[99.3,20869],[99.3,20952],[99.3,21035],[99.3,21118],[99.3,21201],[99.3,21285],[99.3,21368],[99.3,21451],[99.3,21534],[99.3,21619],[99.3,21701],[99.3,21785],[99.3,21868],[99.3,21950],[99.3,22035],[99.3,22118],[99.3,22201],[99.3,22286],[99.3,22368]]",275.1973,278.2258,99.92302789,1.9478,"[{""rating"":99.92302788628471,""responseTime"":1.9478000000119096}]",space,2.488,,278.2259,Not at all,0,278.229,,,[],,0,3,3,3,1,audio/Narrative7Situation3.wav,audio/Narrative8Situation3.wav,audio/Narrative5Situation3.wav,audio/Narrative6Situation3.wav,8,4,3,5,,,,,,,,,,,,,,,,,,,,,,,,,,,,,,,,,,,,,,,
,,,,,6098164e4c37ed73ca9c74f5,2025-07-07_13h47.34.841,group3.4_multiperson,2023.2.2,MacIntel,59.52380952,686c2ebf0248f13bef9af11f,686c324dd5bef3e49ec2299a,,,,,,,,,,,,,,,,,,,,,,,,,,,,,278.2294,1,audio/Narrative8Situation4.wav,281.243,,281.243,295.4174,"[[75.4,2334],[67.1,2415],[66.2,2497],[66.2,2580],[66.2,2665],[66.2,2747],[66.2,2830],[66.2,2913],[66.2,2996],[66.2,3080],[66.6,3238],[74.2,3313],[80.9,3397],[82.8,3487],[86.2,3564],[88.6,3646],[88.7,3729],[88.7,3812],[88.7,3896],[89.5,3980],[90.8,4063],[90.8,4147],[90.8,4228],[90.8,4313],[90.8,4396],[90.8,4479],[90.8,4563],[90.8,4646],[90.8,4728],[90.8,4812],[90.8,4895],[90.8,4979],[90.8,5062],[90.8,5146],[90.8,5228],[90.8,5312],[90.8,5395],[90.8,5478],[90.8,5562],[90.8,5646],[90.8,5728],[90.8,5812],[90.8,5895],[90.8,5978],[90.8,6062],[90.8,6145],[90.8,6228],[90.8,6312],[90.8,6394],[90.8,6478],[90.8,6561],[90.8,6644],[90.8,6728],[90.8,6811],[90.8,6894],[90.8,6977],[90.8,7062],[90.8,7144],[90.8,7227],[90.8,7310],[90.8,7395],[90.8,7477],[91.9,7560],[95.1,7643],[97.8,7731],[98,7811],[98,7894],[98,7976],[98,8059],[98,8144],[98,8227],[98,8310],[98,8393],[98,8478],[98,8560],[98,8643],[98,8726],[98,8810],[98,8892],[98,8976],[98,9059],[98,9142],[98,9226],[98,9310],[98,9392],[98,9476],[98,9559],[98,9641],[98,9726],[98,9809],[98,9892],[98,9976],[98,10058],[98,10141],[98,10225],[98,10309],[98,10392],[98,10475],[98,10558],[98,10641],[98,10725],[98,10809],[98,10891],[98,10975],[98,11059],[98,11141],[98,11224],[98,11308],[98,11391],[98,11476],[98,11558],[98,11641],[98,11724],[98,11808],[98,11891],[98,11974],[98,12058],[98,12142],[98,12224],[98,12307],[98,12391],[98,12473],[98,12558],[98,12641],[98,12724],[98,12808],[98,12890],[98,12974],[98,13057],[98,13141],[98,13224],[98,13307],[98,13390],[98,13474],[98,13558],[98,13641],[98,13724],[98,13806],[98,13891],[98,13973],[98,14056],[98,14139]]",295.4178,297.6145,99.86053467,1.076,"[{""rating"":99.86053466796875,""responseTime"":1.0760000000000218}]",space,1.6501,,297.6146,Definitely yes,100,297.6191,,,[],,0,4,4,4,1,audio/Narrative7Situation4.wav,audio/Narrative8Situation4.wav,audio/Narrative5Situation4.wav,audio/Narrative6Situation4.wav,3,3,1,2,,,,,,,,,,,,,,,,,,,,,,,,,,,,,,,,,,,,,,,
,,,,,6098164e4c37ed73ca9c74f5,2025-07-07_13h47.34.841,group3.4_multiperson,2023.2.2,MacIntel,59.52380952,686c2ebf0248f13bef9af11f,686c324dd5bef3e49ec2299a,,,,,,,,,,,,,,,,,,,,,,,,,,,,,297.6194,1,audio/Narrative8Situation5.wav,299.6309,,299.631,307.8921,"[[100,1931],[100,2264],[100,2348],[98.9,2432],[97.4,2514],[96,2597],[96.3,2682],[96.6,2765],[96.7,2847],[96.7,2930],[96.7,3014],[96.7,3097],[96.7,3180],[96.7,3263],[96.7,3347],[96.7,3430],[96.7,3514],[96.7,3596],[96.7,3680],[96.7,3762],[96.7,3846],[96.7,3930],[96.7,4013],[96.7,4095],[96.7,4179],[96.7,4262],[96.7,4346],[96.7,4429],[96.7,4512],[96.7,4596],[96.7,4679],[96.7,4762],[96.7,4845],[96.7,4929],[96.7,5013],[96.7,5095],[96.7,5179],[96.7,5263],[96.7,5345],[96.7,5429],[96.7,5512],[96.7,5595],[96.7,5679],[96.7,5762],[96.7,5844],[96.7,5928],[96.7,6012],[96.7,6095],[96.7,6178],[96.7,6261],[96.7,6345],[96.7,6428],[96.7,6511],[96.7,6594],[96.7,6678],[96.7,6762],[96.7,6844],[96.7,6928],[96.7,7012],[96.7,7094],[96.7,7178],[96.7,7261],[96.7,7344],[96.7,7429],[96.7,7511],[96.7,7593],[96.7,7677],[96.7,7759],[96.7,7845],[96.7,7927],[96.7,8010],[96.7,8093],[96.7,8176],[96.7,8260]]",307.8922,310.9071,99.81445313,2.242,"[{""rating"":99.814453125,""responseTime"":2.2420000000000186}]",space,2.4735,,310.9073,Partially,50,310.9139,,,[],,0,5,5,5,1,audio/Narrative7Situation5.wav,audio/Narrative8Situation5.wav,audio/Narrative5Situation5.wav,audio/Narrative6Situation5.wav,5,2,5,2,,,,,,,,,,,,,,,,,,,,,,,,,,,,,,,,,,,,,,,
,,,,,6098164e4c37ed73ca9c74f5,2025-07-07_13h47.34.841,group3.4_multiperson,2023.2.2,MacIntel,59.52380952,686c2ebf0248f13bef9af11f,686c324dd5bef3e49ec2299a,,,,,,,,,,,,,,,,,,,,,,,,,,,,,310.9143,1,audio/Narrative8Situation6.wav,312.9219,,312.9219,319.4015,"[[90.7,2015],[84.9,2097],[83.1,2180],[83.1,2264],[83.1,2347],[83.1,2430],[83.1,2514],[83.1,2597],[83.1,2681],[83.1,2764],[83.1,2847],[83.1,2930],[83.1,3013],[83.1,3097],[83.1,3180],[83.1,3263],[83.1,3346],[83.1,3430],[83.1,3513],[83.1,3596],[83.1,3679],[83.1,3763],[83.1,3847],[83.1,3930],[83.1,4012],[83.1,4096],[83.1,4180],[83.1,4262],[83.1,4346],[83.1,4429],[83.1,4512],[83.1,4596],[83.1,4679],[83.1,4762],[83.1,4846],[83.1,4929],[83.1,5012],[83.1,5096],[83.1,5180],[83.1,5262],[83.1,5346],[83.1,5429],[83.1,5512],[83.1,5596],[83.1,5678],[83.1,5762],[83.1,5845],[83.1,5928],[83.1,6012],[83.1,6095],[83.1,6178],[83.1,6262],[83.1,6345],[83.1,6428]]",319.4018,321.5152,89.21925863,1.3929,"[{""rating"":89.21925862630209,""responseTime"":1.39289999997618}]",space,1.5648,,321.5153,Not at all,0,325.9788,0,3.8402,"[{""rating"":0,""responseTime"":3.8401999999881014}]",space,0,6,6,6,1,audio/Narrative7Situation6.wav,audio/Narrative8Situation6.wav,audio/Narrative5Situation6.wav,audio/Narrative6Situation6.wav,3,2,3,2,,,3.8776,,,,,,,,,,,,,,,,,,,,,,,,,,,,,,,,,,,,
,,,,,6098164e4c37ed73ca9c74f5,2025-07-07_13h47.34.841,group3.4_multiperson,2023.2.2,MacIntel,59.52380952,686c2ebf0248f13bef9af11f,686c324dd5bef3e49ec2299a,,,,,,,,,,,,,,,,,,,,,,,,,,,,,325.9794,1,audio/Narrative8Situation7.wav,328.9935,,328.9936,341.0699,"[[999,0],[999,84],[999,168],[999,250],[999,333],[999,416],[999,500],[999,584],[999,666],[999,750],[999,833],[999,915],[999,999],[999,1082],[999,1169],[999,1250],[999,1332],[999,1417],[999,1501],[999,1582],[999,1666],[999,1751],[999,1832],[999,1916],[999,1998],[999,2082],[63,2165],[64.1,2248],[64.1,2332],[64.1,2416],[64.1,2498],[64.1,2581],[64.1,2665],[64.1,2748],[64.1,2830],[64.1,2915],[64.1,2998],[64.1,3080],[64.1,3167],[64.1,3247],[64.1,3332],[64.1,3415],[64.1,3500],[64.1,3581],[64.1,3666],[64.1,3748],[64.1,3830],[64.1,3913],[64.1,3997],[64.1,4082],[64.1,4164],[64.1,4247],[64.1,4330],[64.1,4413],[64.1,4498],[64.1,4580],[64.1,4663],[64.1,4747],[65.8,4831],[77,4913],[82.6,4997],[84.4,5079],[86.1,5164],[87.3,5247],[87.6,5329],[87.5,5464],[87.5,5546],[87.5,5630],[87.5,5713],[87.5,5796],[87.5,5880],[87.5,5964],[87.5,6045],[87.5,6130],[87.5,6213],[87.5,6296],[87.5,6380],[87.5,6463],[87.5,6546],[87.5,6628],[87.5,6712],[87.5,6796],[87.5,6878],[87.5,6962],[87.5,7045],[87.5,7128],[87.5,7212],[87.5,7295],[87.5,7378],[87.5,7462],[87.5,7545],[87.5,7628],[87.5,7711],[87.5,7795],[87.5,7879],[87.5,7961],[87.5,8044],[87.5,8129],[87.5,8211],[87.5,8295],[87.5,8378],[87.5,8461],[87.5,8543],[87.5,8628],[87.5,8711],[87.5,8794],[87.5,8878],[87.5,8962],[87.5,9044],[87.5,9126],[87.5,9210],[87.5,9294],[87.5,9378],[87.5,9461],[87.5,9543],[87.5,9626],[87.5,9710],[87.5,9793],[87.5,9877],[87.5,9959],[87.5,10044],[87.5,10127],[87.5,10209],[87.5,10293],[87.5,10377],[87.5,10460],[87.5,10543],[87.5,10626],[87.5,10709],[87.5,10793],[87.5,10876],[87.5,10961],[87.5,11043],[87.5,11127],[87.5,11208],[87.5,11292],[87.5,11376],[87.5,11459],[87.5,11543],[87.5,11626],[87.5,11709],[88.8,11793],[89.7,11876],[91.1,11959],[91.6,12041]]",341.0701,343.9181,95.65875583,2.0579,"[{""rating"":95.65875583224826,""responseTime"":2.0578999999762004}]",space,2.3003,,343.9182,Definitely yes,100,343.924,,,[],,0,7,7,7,1,audio/Narrative7Situation7.wav,audio/Narrative8Situation7.wav,audio/Narrative5Situation7.wav,audio/Narrative6Situation7.wav,5,3,4,5,,,,,,,,,,,,,,,,,,,,,,,,,,,,,,,,,,,,,,,
,,,,,6098164e4c37ed73ca9c74f5,2025-07-07_13h47.34.841,group3.4_multiperson,2023.2.2,MacIntel,59.52380952,686c2ebf0248f13bef9af11f,686c324dd5bef3e49ec2299a,,,,,,,,,,,,,,,,,,,,,,,,,,,,,343.9244,1,audio/Narrative8Situation8.wav,346.9328,,346.9328,359.7902,"[[44.5,1831],[31.1,1915],[31.1,1999],[31.1,2081],[30.5,2164],[25.8,2249],[25.4,2330],[25.4,2414],[25.4,2498],[25.4,2581],[25.4,2665],[25.4,2747],[25.4,2831],[25.4,2914],[25.4,2997],[25.4,3081],[25.4,3164],[25.4,3247],[25.4,3331],[25.4,3414],[25.4,3497],[25.4,3580],[25.4,3663],[25.4,3746],[25.4,3830],[25.4,3913],[25.4,3996],[25.4,4080],[25.4,4164],[25.4,4247],[25.4,4329],[25.4,4412],[25.4,4496],[25.4,4579],[25.4,4662],[25.4,4745],[25.4,4828],[25.4,4912],[25.4,4995],[25.4,5078],[25.4,5163],[25.4,5246],[25.4,5329],[25.4,5412],[25.4,5495],[25.4,5579],[25.4,5662],[25.4,5745],[25.4,5828],[25.4,5911],[26.1,5995],[38.3,6078],[52.5,6161],[57,6245],[57,6328],[57,6410],[63.1,6494],[76.5,6578],[77.3,6660],[77.3,6745],[77.3,6827],[79.1,6911],[84.2,6994],[84.4,7077],[84.4,7160],[84.4,7244],[84.4,7327],[84.4,7411],[84.4,7494],[84.4,7577],[84.4,7660],[84.4,7744],[84.4,7827],[84.4,7911],[84.4,7994],[84.4,8076],[84.4,8160],[84.4,8243],[84.4,8326],[84.4,8410],[84.4,8494],[84.4,8576],[84.4,8660],[84.4,8743],[84.4,8826],[84.4,8910],[84.4,8993],[84.4,9076],[84.4,9160],[84.4,9242],[84.4,9326],[84.4,9410],[84.4,9493],[84.4,9576],[84.4,9659],[84.4,9742],[84.4,9826],[84.4,9909],[84.4,9993],[84.4,10075],[84.4,10159],[84.4,10241],[84.4,10326],[84.4,10408],[84.4,10492],[84.4,10575],[84.4,10659],[84.4,10742],[88.3,10826],[90.9,10909],[93,10991],[93.8,11076],[95.7,11158],[96,11241],[96,11324],[96,11408],[96,11491],[96,11574],[97.7,11658],[98.7,11742],[98.7,11825],[98.7,11907],[98.7,11991],[98.7,12075],[98.7,12158],[98.7,12240],[98.7,12324],[98.7,12409],[98.7,12491],[98.7,12574],[98.7,12657],[98.7,12741],[98.7,12825]]",359.7906,362.406,91.44001431,1.9257,"[{""rating"":91.4400143093533,""responseTime"":1.925699999988069}]",space,2.0648,,362.406,Partially,50,362.4113,,,[],,0,8,8,8,1,audio/Narrative7Situation8.wav,audio/Narrative8Situation8.wav,audio/Narrative5Situation8.wav,audio/Narrative6Situation8.wav,2,3,3,5,,,,,,,,,,,,,,,,,,,,,,,,,,,,,,,,,,,,,,,
,,,,,6098164e4c37ed73ca9c74f5,2025-07-07_13h47.34.841,group3.4_multiperson,2023.2.2,MacIntel,59.52380952,686c2ebf0248f13bef9af11f,686c324dd5bef3e49ec2299a,,,,,,,,,,,,,,,,,,,,,,,,,,,,,362.412,1,audio/Narrative8Situation9.wav,365.4194,,365.4194,376.7297,"[[999,0],[999,100],[999,184],[999,267],[999,350],[999,434],[999,517],[999,600],[999,682],[999,766],[999,850],[999,933],[999,1015],[999,1099],[999,1183],[999,1266],[70.3,1349],[70.4,1433],[70.4,1517],[70.4,1598],[70.4,1681],[70.4,1765],[70.4,1850],[70.4,1933],[70.4,2016],[70.4,2099],[70.4,2181],[70.4,2265],[70.4,2348],[70.4,2432],[70.4,2514],[70.4,2599],[70.4,2682],[70.4,2764],[70.4,2848],[70.4,2931],[70.4,3016],[70.4,3098],[70.4,3180],[70.4,3265],[70.3,3348],[70.3,3432],[70.3,3514],[70.3,3597],[70.3,3682],[70.3,3768],[70.3,3847],[70.3,3930],[70.3,4014],[70.3,4098],[70.3,4180],[70.3,4264],[70.3,4347],[72.7,4431],[77.7,4514],[83.8,4598],[84.7,4680],[84.7,4762],[84.7,4847],[88.1,4930],[91.4,5013],[91.9,5096],[92,5181],[92,5262],[92,5346],[92,5429],[92,5514],[92,5596],[92,5680],[92,5763],[92,5847],[92,5930],[92,6012],[92,6096],[92,6178],[92,6263],[92,6346],[92,6429],[92,6512],[92,6596],[92,6679],[92,6762],[92,6845],[92,6930],[92,7012],[92,7095],[92,7179],[92,7262],[92,7346],[92,7429],[92,7511],[92,7596],[92,7679],[92,7762],[92,7845],[92,7928],[92,8011],[92,8095],[92,8178],[92,8261],[92,8344],[92,8428],[92,8511],[92,8594],[92,8677],[92,8760],[92,8845],[92,8927],[92,9011],[92,9095],[92,9177],[99.5,9261],[100,9344],[100,9427],[100,9511],[100,9593],[100,9677],[100,9760],[100,9844],[100,9927],[100,10009],[100,10093],[100,10177],[100,10260],[100,10344],[100,10427],[100,10510],[100,10594],[100,10677],[100,10760],[100,10844],[100,10926],[100,11009],[100,11092],[100,11175],[100,11259]]",376.7299,379.1936,94.73320855,1.8411,"[{""rating"":94.73320855034721,""responseTime"":1.8410999999642286}]",space,1.9212,,379.1936,Not at all,0,379.1994,,,[],,0,9,9,9,1,audio/Narrative7Situation9.wav,audio/Narrative8Situation9.wav,audio/Narrative5Situation9.wav,audio/Narrative6Situation9.wav,2,3,3,4,,,,,,,,,,,,,,,,,,,,,,,,,,,,,,,,,,,,,,,
,,,,,6098164e4c37ed73ca9c74f5,2025-07-07_13h47.34.841,group3.4_multiperson,2023.2.2,MacIntel,59.52380952,686c2ebf0248f13bef9af11f,686c324dd5bef3e49ec2299a,,,,,,,,,,,,,,,,,,,,,,,,,,,,,379.2001,1,audio/Narrative7Situation1.wav,381.2092,,381.2092,437.1062,"[[999,0],[999,84],[999,167],[999,250],[999,333],[999,417],[999,500],[999,583],[999,665],[999,750],[999,833],[999,916],[999,999],[999,1082],[999,1167],[999,1248],[999,1332],[999,1415],[999,1498],[999,1583],[999,1665],[999,1748],[999,1831],[999,1915],[999,1999],[999,2082],[999,2166],[69.4,2249],[69.9,2332],[71.3,2415],[71.4,2498],[71.4,2581],[71.4,2666],[71.4,2748],[71.4,2831],[71.4,2915],[71.4,2998],[71.4,3081],[71.4,3163],[71.4,3247],[71.4,3332],[71.4,3415],[71.4,3497],[71.4,3582],[71.4,3665],[71.4,3748],[71.4,3830],[71.4,3915],[71.4,3998],[71.4,4081],[71.4,4163],[71.4,4246],[71.4,4330],[71.4,4415],[71.4,4497],[71.4,4580],[71.4,4663],[71.4,4746],[71.4,4830],[71.4,4914],[71.4,4996],[71.4,5079],[71.4,5163],[71.4,5246],[71.4,5330],[71.4,5412],[71.4,5497],[71.7,5580],[73.1,5663],[73.7,5745],[75.5,5829],[76.9,5913],[77.6,5995],[77.6,6079],[77.6,6162],[77.6,6245],[77.6,6329],[77.6,6464],[77.6,6545],[77.6,6628],[77.6,6712],[77.6,6795],[77.6,6878],[77.6,6962],[77.6,7045],[77.6,7129],[77.6,7211],[77.6,7294],[77.6,7378],[77.6,7461],[77.6,7545],[77.6,7628],[77.6,7711],[77.6,7795],[77.6,7877],[77.6,7961],[77.6,8044],[77.6,8128],[77.6,8211],[77.6,8293],[77.6,8377],[77.6,8461],[77.6,8544],[77.6,8627],[77.6,8710],[77.6,8793],[77.6,8877],[77.6,8960],[77.6,9044],[77.6,9127],[77.6,9210],[77.6,9294],[77.6,9376],[77.6,9460],[77.6,9543],[77.6,9627],[77.6,9710],[77.6,9793],[77.6,9876],[77.6,9959],[77.6,10043],[77.6,10127],[77.6,10210],[77.6,10293],[77.6,10376],[77.6,10459],[77.6,10543],[77.6,10626],[77.6,10709],[77.6,10793],[77.6,10875],[77.6,10958],[77.6,11042],[77.6,11125],[77.6,11209],[77.6,11293],[77.6,11376],[77.6,11460],[77.6,11541],[77.6,11625],[77.6,11709],[77.6,11792],[77.6,11875],[77.6,11959],[77.6,12042],[77.6,12124],[77.6,12208],[77.6,12292],[77.6,12375],[77.6,12458],[77.6,12543],[80.3,12625],[84.9,12708],[87.3,12813],[88.2,12941],[88.2,13024],[88.2,13107],[88.2,13191],[88.2,13274],[88.2,13358],[89.5,13440],[91.1,13524],[91.7,13637],[91.8,13713],[91.8,13790],[91.8,13875],[91.8,13957],[91.8,14041],[91.8,14124],[91.8,14207],[91.8,14292],[91.8,14374],[91.8,14457],[91.8,14541],[91.8,14623],[91.8,14706],[91.8,14790],[91.8,14873],[91.8,14956],[91.8,15041],[91.8,15123],[91.8,15207],[91.8,15289],[91.8,15372],[91.8,15457],[91.8,15541],[91.8,15623],[91.8,15706],[91.8,15789],[91.8,15873],[91.8,15956],[91.8,16040],[91.8,16123],[91.8,16207],[91.8,16289],[91.8,16372],[91.8,16457],[91.8,16539],[91.8,16623],[86.8,16706],[25.7,17121],[25.9,17205],[25.9,17289],[25.7,17372],[24.8,17455],[24.5,17538],[24.5,17622],[24.5,17706],[24.5,17788],[24.5,17870],[24.5,17954],[24.5,18039],[24.5,18121],[24.5,18204],[24.5,18287],[24.5,18372],[24.5,18453],[24.5,18537],[24.5,18620],[24.5,18703],[24.5,18788],[24.5,18871],[24.5,18953],[24.5,19038],[24.5,19120],[24.5,19204],[24.5,19287],[24.5,19370],[24.5,19454],[24.5,19536],[24.5,19620],[24.5,19705],[24.5,19786],[24.5,19870],[24.5,19953],[24.5,20036],[24.5,20121],[24.5,20203],[24.9,20287],[26.4,20370],[27.2,20453],[27.2,20538],[27.2,20620],[27.2,20703],[27.2,20786],[27.2,20869],[27.2,20953],[27.2,21035],[36.1,21120],[54.6,21204],[60.8,21286],[61,21369],[61,21453],[62.1,21536],[72.3,21620],[74.9,21702],[75.3,21785],[76.9,21868],[79,21952],[79.2,22035],[79.2,22118],[79.2,22202],[79.2,22286],[79.2,22368],[79.2,22452],[79.2,22535],[79.2,22619],[79.2,22702],[79.2,22785],[79.2,22868],[79.2,22953],[79.2,23034],[79.2,23118],[79.2,23201],[79.2,23284],[79.2,23369],[79.2,23451],[79.2,23535],[79.2,23617],[79.2,23702],[79.2,23784],[81.7,23867],[85.1,23953],[86.5,24035],[86.5,24118],[86.5,24201],[86.5,24284],[86.5,24366],[86.5,24452],[86.5,24534],[86.5,24617],[86.5,24700],[86.5,24785],[86.5,24868],[86.5,24954],[86.5,25034],[86.5,25117],[86.5,25200],[86.5,25284],[86.5,25366],[86.5,25450],[86.5,25534],[86.5,25617],[86.5,25700],[86.5,25783],[86.5,25867],[86.5,25954],[86.5,26033],[86.5,26116],[86.5,26199],[86.5,26283],[86.5,26367],[86.5,26450],[86.5,26532],[86.5,26617],[86.5,26698],[86.5,26782],[86.5,26865],[86.5,26949],[86.5,27032],[86.5,27115],[86.5,27199],[86.5,27281],[86.5,27365],[86.5,27450],[86.4,27531],[72.4,27615],[32.8,27699],[23.3,27782],[19.3,27865],[19.1,27949],[19.1,28032],[19.4,28118],[19.5,28198],[19.5,28282],[19.5,28365],[19.5,28448],[19.5,28532],[19.5,28615],[19.5,28698],[19.5,28782],[19.5,28867],[19.5,28949],[19.5,29031],[19.5,29114],[19.5,29198],[19.5,29281],[19.5,29364],[19.5,29449],[19.5,29530],[19.5,29615],[19.5,29698],[19.5,29781],[19.5,29865],[19.5,29948],[19.5,30031],[19.5,30113],[19.5,30196],[19.5,30282],[19.5,30363],[19.5,30446],[19.5,30530],[19.5,30612],[19.5,30697],[19.5,30780],[19.5,30863],[19.5,30947],[19.5,31031],[19.5,31113],[19.5,31195],[19.5,31279],[19.5,31362],[19.5,31446],[19.5,31528],[19.5,31612],[19.5,31696],[19.5,31780],[19.5,31862],[19.5,31947],[19.5,32028],[19.5,32112],[19.5,32196],[19.5,32279],[19.5,32362],[19.5,32446],[19.5,32529],[19.5,32611],[19.5,32696],[19.5,32779],[19.6,32864],[19.7,32945],[19.8,33028],[20.7,33111],[30.5,33195],[57,33278],[71.9,33361],[76.5,33444],[80.6,33528],[81.6,33610],[81.6,33694],[81.6,33777],[81.6,33860],[81.6,33945],[81.6,34027],[81.6,34110],[81.6,34195],[81.6,34278],[81.6,34361],[81.6,34444],[81.6,34526],[81.6,34610],[81.6,34694],[81.6,34777],[81.6,34860],[81.6,34944],[81.6,35027],[81.6,35110],[81.6,35193],[81.6,35277],[81.6,35360],[81.6,35444],[81.6,35527],[81.6,35609],[81.6,35692],[81.6,35777],[81.6,35859],[81.6,35943],[81.6,36026],[81.6,36110],[81.6,36193],[81.6,36276],[81.8,36360],[90.3,36443],[96.2,36526],[98,36609],[98.1,36692],[98.1,36776],[98.1,36859],[98.1,36942],[98.1,37025],[98.1,37108],[98.1,37193],[98.1,37275],[98.1,37358],[98.1,37442],[98.1,37525],[98.1,37609],[98.1,37692],[98.1,37775],[98.1,37859],[98.1,37942],[98.1,38025],[98.1,38108],[98.1,38190],[98.1,38275],[98.1,38358],[98.1,38441],[98.1,38525],[98.1,38608],[98.1,38692],[98.1,38776],[98.1,38857],[98.1,38942],[98.1,39025],[98.1,39108],[98.1,39191],[98.1,39273],[98.1,39358],[98.1,39441],[98.1,39524],[98.1,39607],[98.1,39692],[98.1,39775],[98.1,39857],[98.1,39940],[98.1,40024],[98.1,40107],[98.1,40190],[98.1,40274],[98.1,40355],[98.1,40439],[98.1,40524],[98.1,40606],[98.1,40690],[98.1,40773],[98.1,40857],[98.1,40940],[98.1,41023],[98.1,41107],[98.1,41188],[98.1,41273],[98.1,41356],[98.1,41438],[98.1,41523],[98.1,41606],[98.1,41689],[98.1,41773],[98.1,41855],[98.1,41940],[98.1,42021],[98.1,42106],[98.1,42190],[98.1,42271],[98.1,42356],[98.1,42438],[98.1,42521],[98.1,42606],[98.1,42688],[98.1,42772],[98.1,42855],[98.1,42938],[98.1,43022],[98.1,43104],[98.1,43188],[98.1,43271],[98.1,43354],[98.1,43438],[98.1,43521],[98.1,43604],[98.1,43687],[98.1,43771],[98.1,43854],[98.1,43937],[98.1,44021],[98.1,44104],[98.1,44187],[98.1,44271],[98.1,44354],[98.1,44437],[98.1,44521],[98.1,44603],[98.1,44687],[98.1,44769],[98.1,44854],[98.1,44937],[98.1,45020],[98.1,45103],[98.1,45187],[98.1,45270],[98.1,45353],[98.1,45436],[98.1,45519],[98.1,45603],[98.1,45686],[98.1,45770],[98.1,45853],[98.1,45936],[98.1,46020],[98.1,46103],[98.1,46187],[98.1,46270],[98.1,46353],[98.1,46436],[98.1,46521],[98.1,46603],[98.1,46687],[98.1,46769],[98.1,46853],[98.1,46937],[98.1,47019],[98.1,47102],[98.1,47186],[98.1,47268],[98.1,47353],[98.1,47435],[98.1,47518],[98.1,47602],[98.1,47686],[98.1,47769],[98.1,47851],[98.1,47935],[98.1,48018],[98.1,48101],[98.1,48185],[98.1,48270],[98.1,48351],[98.1,48436],[98.1,48519],[98.1,48602],[98.1,48684],[98.1,48768],[98.1,48852],[98.1,48935],[98.1,49018],[98.1,49102],[98.1,49184],[98.1,49268],[98.1,49350],[98.1,49434],[98.1,49518],[98.1,49600],[98.1,49684],[98.1,49766],[98.1,49850],[98.1,49934],[98.1,50016],[98.1,50100],[98.1,50183],[98.1,50267],[98.1,50351],[98.1,50433],[98.1,50517],[98.1,50601],[98.1,50683],[98.1,50767],[98.1,50850],[98.1,50933],[98.1,51018],[98.1,51100],[98.1,51183],[98.1,51268],[98.1,51350],[98.1,51433],[98.1,51517],[98.1,51598],[98.1,51684],[98.1,51766],[98.1,51849],[98.1,51932],[98.1,52016],[98.1,52100],[98.1,52182],[98.1,52266],[98.1,52350],[98.1,52432],[98.1,52516],[98.1,52599],[98.1,52681],[98.1,52767],[98.1,52849],[98.1,52932],[98.1,53016],[98.1,53099],[98.1,53182],[98.1,53265],[98.1,53348],[98.1,53433],[98.1,53517],[98.1,53598],[98.1,53682],[98.1,53767],[98.1,53849],[98.1,53931],[98.1,54014],[98.1,54099],[98.1,54180],[98.1,54264],[98.1,54348],[98.1,54430],[98.1,54515],[98.1,54597],[98.1,54681],[98.1,54764],[98.1,54847],[98.1,54931],[98.1,55014],[98.1,55096],[98.1,55180],[98.1,55263],[98.1,55347],[98.1,55430],[98.1,55513],[98.1,55598],[98.1,55681],[98.1,55763],[98.1,55846]]",437.1068,440.7711,71.55719333,2.94,"[{""rating"":77.14915805392795,""responseTime"":2.2891000000238364},{""rating"":71.55719333224826,""responseTime"":2.9399999999999977}]",space,3.1174,,440.7712,Not at all,0,440.7738,,,[],,0,10,10,10,1,audio/Narrative8Situation1.wav,audio/Narrative7Situation1.wav,audio/Narrative6Situation1.wav,audio/Narrative5Situation1.wav,5,2,2,5,,,,,,,,,,,,,,,,,,,,,,,,,,,,,,,,,,,,,,,
,,,,,6098164e4c37ed73ca9c74f5,2025-07-07_13h47.34.841,group3.4_multiperson,2023.2.2,MacIntel,59.52380952,686c2ebf0248f13bef9af11f,686c324dd5bef3e49ec2299a,,,,,,,,,,,,,,,,,,,,,,,,,,,,,440.7745,1,audio/Narrative7Situation2.wav,443.7849,,443.7849,451.2623,"[[72.1,2349],[74,2430],[75.2,2515],[76.4,2599],[78.5,2682],[79.1,2765],[80.1,2847],[80.5,2931],[80.5,3013],[80.5,3097],[80.5,3180],[80.5,3263],[80.5,3347],[80.5,3431],[80.5,3513],[80.5,3598],[80.5,3680],[80.5,3763],[80.5,3847],[80.5,3931],[80.5,4014],[80.5,4096],[80.5,4180],[80.5,4264],[80.5,4347],[80.5,4430],[80.5,4512],[80.5,4596],[80.5,4679],[80.5,4762],[80.5,4846],[80.5,4929],[80.5,5012],[80.5,5096],[80.5,5179],[80.5,5262],[80.5,5346],[80.5,5429],[80.5,5512],[80.5,5596],[80.5,5679],[80.5,5763],[80.5,5846],[80.5,5929],[80.5,6012],[80.5,6095],[80.5,6180],[80.5,6262],[80.5,6345],[80.5,6428],[80.5,6512],[80.5,6596],[80.5,6678],[80.5,6762],[80.5,6846],[80.5,6927],[80.5,7012],[80.5,7095],[80.5,7178],[80.5,7262],[81,7346],[81.7,7428]]",451.2625,453.7943,93.63649156,1.7429,"[{""rating"":93.63649156358507,""responseTime"":1.7428999999762027}]",space,1.997,,453.7943,Definitely yes,100,453.8006,,,[],,0,11,11,11,1,audio/Narrative8Situation2.wav,audio/Narrative7Situation2.wav,audio/Narrative6Situation2.wav,audio/Narrative5Situation2.wav,3,3,3,3,,,,,,,,,,,,,,,,,,,,,,,,,,,,,,,,,,,,,,,
,,,,,6098164e4c37ed73ca9c74f5,2025-07-07_13h47.34.841,group3.4_multiperson,2023.2.2,MacIntel,59.52380952,686c2ebf0248f13bef9af11f,686c324dd5bef3e49ec2299a,,,,,,,,,,,,,,,,,,,,,,,,,,,,,453.8009,1,audio/Narrative7Situation3.wav,461.8062,,461.8063,471.0668,"[[999,0],[999,99],[999,181],[999,265],[999,350],[999,432],[999,515],[999,598],[999,681],[999,766],[999,849],[999,932],[999,1015],[999,1098],[999,1182],[999,1265],[999,1349],[999,1432],[999,1515],[999,1598],[999,1681],[999,1765],[999,1849],[999,1931],[999,2014],[11.4,2099],[9.9,2180],[9.9,2264],[9.9,2348],[9.9,2431],[9.9,2515],[9.9,2598],[9.9,2681],[9.9,2765],[9.9,2848],[9.9,2931],[9.9,3014],[9.9,3097],[9.9,3180],[9.9,3263],[9.9,3347],[9.9,3430],[9.9,3513],[9.9,3598],[6.7,3680],[4.4,3763],[4.5,3846],[4.7,3930],[5.6,4014],[6.4,4097],[6.6,4180],[6.6,4264],[6.6,4346],[6.6,4430],[6.6,4513],[6.6,4596],[6.6,4680],[6.6,4763],[6.6,4847],[1.8,4929],[0.4,5012],[0.4,5097],[0.4,5179],[0.4,5263],[0.4,5347],[20,5430],[42.3,5512],[44,5596],[44,5678],[44,5763],[40.7,5846],[38.4,5928],[38.1,6013],[38.1,6094],[38.1,6179],[38.1,6261],[38.1,6345],[38.1,6428],[38.1,6512],[38.1,6594],[41.2,6678],[72.7,6762],[80.8,6845],[80.8,6927],[80.8,7012],[80.8,7094],[80.8,7178],[80.8,7261],[80.8,7344],[80.8,7428],[80.6,7510],[79.4,7595],[78.7,7678],[78.7,7760],[78.7,7844],[78.7,7928],[78.7,8010],[78.7,8094],[78.7,8177],[78.7,8259],[78.7,8344],[78.7,8426],[78.7,8510],[78.7,8593],[78.7,8677],[78.7,8760],[78.7,8843],[78.7,8926],[78.7,9011],[78.7,9093],[78.2,9177],[76.2,9260]]",471.067,473.8153,63.66286384,2.1057,"[{""rating"":63.66286383734809,""responseTime"":2.1057000000477046}]",space,2.2018,,473.8154,Not at all,0,473.8209,,,[],,0,12,12,12,1,audio/Narrative8Situation3.wav,audio/Narrative7Situation3.wav,audio/Narrative6Situation3.wav,audio/Narrative5Situation3.wav,4,8,5,3,,,,,,,,,,,,,,,,,,,,,,,,,,,,,,,,,,,,,,,
,,,,,6098164e4c37ed73ca9c74f5,2025-07-07_13h47.34.841,group3.4_multiperson,2023.2.2,MacIntel,59.52380952,686c2ebf0248f13bef9af11f,686c324dd5bef3e49ec2299a,,,,,,,,,,,,,,,,,,,,,,,,,,,,,473.8214,1,audio/Narrative7Situation4.wav,476.8297,,476.8298,488.5554,"[[999,0],[999,100],[999,183],[999,266],[999,350],[999,432],[999,516],[999,598],[999,682],[999,766],[999,848],[999,931],[999,1015],[999,1099],[999,1182],[999,1265],[999,1347],[999,1433],[999,1515],[999,1598],[999,1681],[999,1764],[999,1848],[999,1931],[999,2014],[999,2099],[999,2182],[999,2265],[999,2350],[999,2432],[999,2514],[999,2598],[999,2681],[999,2764],[999,2848],[999,2931],[999,3013],[999,3096],[999,3181],[999,3264],[999,3347],[999,3430],[999,3513],[999,3597],[999,3681],[999,3763],[999,3847],[999,3930],[59.2,4014],[60.7,4097],[60.7,4179],[60.7,4264],[60.7,4346],[60.7,4430],[55.1,4512],[47.9,4596],[47.9,4679],[39.8,4762],[16.6,4846],[15.5,4929],[15.5,5013],[15.5,5096],[15.5,5179],[15.5,5262],[15.5,5344],[15.5,5429],[15.5,5512],[15.5,5596],[15.5,5679],[15.5,5763],[15.5,5845],[15.5,5928],[15.5,6012],[15.5,6094],[15.5,6179],[15.5,6262],[15.5,6344],[15.5,6430],[15.5,6512],[15.5,6595],[15.5,6678],[15.5,6760],[15.5,6844],[15.5,6928],[15.5,7011],[15.5,7095],[15.5,7177],[15.5,7261],[15.5,7344],[15.5,7427],[15.5,7510],[15.5,7594],[15.5,7678],[15.5,7761],[15.5,7844],[15.5,7927],[15.5,8011],[15.5,8094],[15.5,8177],[15.5,8261],[15.5,8343],[15.5,8427],[15.5,8510],[15.5,8594],[15.5,8677],[15.5,8760],[15.5,8844],[15.5,8927],[15.5,9010],[15.5,9093],[15.5,9176],[15.5,9260],[15.5,9342],[15.5,9427],[15.5,9510],[15.5,9592],[15.5,9676],[15.5,9759],[11.9,9843],[8,9926],[6.8,10009],[5.8,10093],[5.1,10175],[4.8,10259],[4.8,10375],[4.8,10459],[4.8,10541],[4.8,10626],[4.8,10708],[4.8,10792],[4.8,10876],[4.8,10958],[4.8,11042],[3.6,11126],[2.6,11208],[2.4,11295],[2.1,11374],[2.1,11458],[2.1,11541],[2.1,11624],[2.1,11708]]",488.5557,490.6198,9.773902893,1.3119,"[{""rating"":9.773902893066404,""responseTime"":1.3119000000357346}]",space,1.516,,490.6198,Partially,50,490.624,,,[],,0,13,13,13,1,audio/Narrative8Situation4.wav,audio/Narrative7Situation4.wav,audio/Narrative6Situation4.wav,audio/Narrative5Situation4.wav,3,3,2,1,,,,,,,,,,,,,,,,,,,,,,,,,,,,,,,,,,,,,,,
,,,,,6098164e4c37ed73ca9c74f5,2025-07-07_13h47.34.841,group3.4_multiperson,2023.2.2,MacIntel,59.52380952,686c2ebf0248f13bef9af11f,686c324dd5bef3e49ec2299a,,,,,,,,,,,,,,,,,,,,,,,,,,,,,490.6251,1,audio/Narrative7Situation5.wav,495.6344,,495.6345,504.1299,"[[999,0],[999,82],[999,165],[999,250],[999,331],[999,415],[999,498],[999,582],[999,665],[999,748],[999,832],[999,915],[999,998],[999,1082],[999,1165],[999,1247],[999,1331],[999,1415],[999,1498],[999,1581],[999,1664],[999,1748],[999,1831],[999,1914],[999,1997],[999,2080],[999,2164],[999,2247],[999,2330],[999,2415],[999,2498],[999,2580],[999,2663],[999,2747],[999,2831],[74,2914],[77.8,2997],[77.8,3081],[77.8,3164],[77.8,3247],[77.8,3331],[77.8,3414],[77.8,3498],[77.8,3580],[77.8,3663],[77.8,3747],[78.2,3829],[80.1,3914],[80.6,3997],[81.6,4081],[81.7,4165],[81.7,4246],[81.7,4329],[81.7,4412],[81.7,4496],[81.7,4580],[81.7,4664],[81.7,4746],[81.7,4830],[81.7,4913],[81.7,4996],[81.7,5078],[81.7,5164],[81.7,5246],[81.7,5329],[81.7,5413],[81.7,5497],[81.7,5578],[81.7,5663],[81.7,5745],[81.7,5828],[81.7,5911],[81.7,5994],[81.7,6079],[81.7,6161],[81.7,6245],[81.7,6329],[81.7,6411],[81.7,6495],[81.7,6578],[81.7,6661],[81.7,6746],[81.7,6828],[81.7,6911],[81.7,6995],[81.7,7078],[81.7,7161],[81.7,7244],[81.7,7327],[81.7,7411],[81.7,7494],[81.7,7578],[81.7,7662],[81.7,7744],[81.7,7829],[81.7,7912],[81.7,7993],[81.7,8079],[81.7,8161],[81.7,8245],[81.7,8327],[81.7,8410],[81.7,8495]]",504.1306,505.9606,84.62501526,1.2417,"[{""rating"":84.62501525878906,""responseTime"":1.2416999999881}]",space,1.2867,,505.9608,Definitely yes,100,505.9653,,,[],,0,14,14,14,1,audio/Narrative8Situation5.wav,audio/Narrative7Situation5.wav,audio/Narrative6Situation5.wav,audio/Narrative5Situation5.wav,2,5,2,5,,,,,,,,,,,,,,,,,,,,,,,,,,,,,,,,,,,,,,,
,,,,,6098164e4c37ed73ca9c74f5,2025-07-07_13h47.34.841,group3.4_multiperson,2023.2.2,MacIntel,59.52380952,686c2ebf0248f13bef9af11f,686c324dd5bef3e49ec2299a,,,,,,,,,,,,,,,,,,,,,,,,,,,,,505.9656,1,audio/Narrative7Situation6.wav,508.9754,,508.9755,518.9353,"[[70.1,1499],[73,1583],[73.8,1665],[73.8,1748],[73.8,1831],[73.8,1914],[76.5,1998],[78.2,2081],[80,2165],[80,2248],[80,2332],[80,2415],[80,2497],[80,2581],[80,2664],[80,2748],[80,2831],[80,2913],[80,2996],[80,3080],[80,3164],[80,3247],[80,3330],[80,3415],[80,3497],[80,3580],[80,3663],[80,3746],[80,3831],[80,3913],[80,3996],[80,4081],[80,4162],[80,4246],[80,4330],[80,4412],[80,4496],[80,4578],[80,4662],[80,4746],[80,4830],[80,4913],[80,4996],[80,5079],[80,5164],[80,5246],[80,5329],[80,5412],[80,5495],[80,5580],[80,5661],[80,5745],[80,5829],[80,5912],[80,5996],[80,6079],[80,6161],[80,6246],[80,6328],[82.9,6412],[85.6,6494],[86.8,6577],[88.2,6661],[89.9,6745],[91.9,6828],[91.9,6911],[91.9,6994],[91.9,7079],[91.9,7160],[91.9,7244],[91.9,7328],[91.9,7410],[91.9,7495],[91.9,7577],[91.9,7660],[91.9,7743],[91.9,7826],[91.9,7910],[91.9,7993],[91.9,8076],[91.9,8161],[91.9,8242],[91.9,8327],[91.9,8410],[91.9,8493],[91.9,8577],[91.9,8660],[91.9,8743],[91.9,8827],[91.9,8909],[91.9,8993],[91.9,9076],[91.9,9159],[91.9,9244],[91.9,9325],[91.9,9410],[91.9,9493],[91.9,9575],[91.9,9660],[91.9,9742],[91.9,9825],[91.9,9908]]",518.9354,520.3498,95.27916802,0.8095,"[{""rating"":95.27916802300346,""responseTime"":0.8095000000000709}]",space,0.8671,,520.3498,Definitely yes,100,520.3516,,,[],,0,15,15,15,1,audio/Narrative8Situation6.wav,audio/Narrative7Situation6.wav,audio/Narrative6Situation6.wav,audio/Narrative5Situation6.wav,2,3,2,3,,,,,,,,,,,,,,,,,,,,,,,,,,,,,,,,,,,,,,,
,,,,,6098164e4c37ed73ca9c74f5,2025-07-07_13h47.34.841,group3.4_multiperson,2023.2.2,MacIntel,59.52380952,686c2ebf0248f13bef9af11f,686c324dd5bef3e49ec2299a,,,,,,,,,,,,,,,,,,,,,,,,,,,,,520.3523,1,audio/Narrative7Situation7.wav,525.3649,,525.3649,542.5533,"[[999,1],[999,99],[999,182],[999,264],[999,348],[999,432],[999,514],[999,598],[999,681],[999,765],[999,847],[999,931],[999,1015],[999,1099],[999,1181],[999,1265],[999,1348],[999,1431],[999,1513],[999,1598],[999,1681],[999,1764],[999,1847],[999,1932],[999,2013],[999,2097],[999,2180],[999,2264],[999,2347],[999,2433],[76.3,2515],[76.4,2598],[76.4,2680],[76.4,2764],[76.4,2847],[76.4,2929],[79,3014],[82.2,3097],[84.2,3180],[85.7,3263],[86.9,3346],[87.7,3430],[87.7,3513],[87.7,3596],[87.7,3679],[87.7,3763],[87.7,3846],[87.7,3929],[87.7,4012],[87.7,4095],[87.7,4178],[87.7,4262],[87.7,4345],[87.7,4428],[87.7,4513],[87.7,4595],[87.7,4679],[87.7,4762],[87.7,4845],[87.7,4929],[87.7,5012],[87.7,5095],[87.7,5179],[87.7,5262],[87.7,5345],[87.7,5429],[87.7,5512],[87.7,5596],[87.7,5678],[87.7,5761],[87.7,5846],[87.7,5928],[87.7,6012],[87.7,6094],[87.7,6178],[87.7,6263],[87.7,6344],[87.7,6428],[87.7,6512],[87.7,6594],[87.7,6679],[87.7,6762],[87.7,6844],[87.7,6929],[87.7,7011],[87.7,7094],[87.7,7178],[87.7,7260],[87.7,7345],[87.7,7427],[87.7,7510],[87.7,7593],[87.7,7677],[87.7,7761],[87.7,7844],[87.7,7926],[87.7,8012],[87.7,8094],[87.7,8177],[87.7,8260],[87.7,8343],[87.7,8426],[87.7,8510],[87.7,8593],[87.7,8676],[87.7,8759],[87.7,8844],[87.7,8926],[87.7,9009],[87.7,9092],[87.7,9175],[87.7,9260],[87.7,9342],[87.7,9426],[87.7,9509],[87.7,9592],[87.7,9676],[87.7,9758],[87.7,9842],[87.7,9925],[87.7,10009],[87.7,10092],[87.7,10175],[87.7,10258],[87.7,10342],[87.7,10425],[87.7,10509],[87.7,10591],[87.7,10675],[87.7,10759],[87.7,10841],[87.7,10925],[87.7,11008],[87.7,11091],[87.7,11174],[87.7,11259],[89.1,11342],[91.5,11427],[93.6,11507],[95.3,11591],[96,11673],[96,11758],[96,11841],[96,11926],[96,12007],[96,12092],[96,12173],[96,12257],[96,12340],[96,12425],[96,12508],[96,12591],[96,12673],[96,12756],[96,12840],[96,12923],[96,13006],[96,13089],[96,13175],[96,13256],[96,13340],[96,13423],[96,13507],[96,13590],[96,13673],[96,13756],[96,13839],[96,13923],[96,14006],[96,14089],[96,14173],[96,14255],[96,14339],[96,14422],[96,14506],[96,14589],[96,14673],[96,14755],[96,14839],[96,14922],[96,15005],[96,15089],[96,15172],[96,15255],[96,15339],[96,15422],[96,15505],[96,15588],[96,15672],[96,15756],[96,15837],[96,15921],[96,16004],[96,16088],[96,16172],[96,16255],[96,16338],[96,16422],[96,16505],[96,16588],[96,16671],[96,16755],[96,16839],[96,16921],[96,17004],[96,17088],[96,17171]]",542.5535,545.4344,96.01352268,2.2067,"[{""rating"":92.79237535264757,""responseTime"":1.6391000000238591},{""rating"":96.01352267795139,""responseTime"":2.2067000000477037}]",space,2.3458,,545.4344,Partially,50,545.4382,,,[],,0,16,16,16,1,audio/Narrative8Situation7.wav,audio/Narrative7Situation7.wav,audio/Narrative6Situation7.wav,audio/Narrative5Situation7.wav,3,5,5,4,,,,,,,,,,,,,,,,,,,,,,,,,,,,,,,,,,,,,,,
,,,,,6098164e4c37ed73ca9c74f5,2025-07-07_13h47.34.841,group3.4_multiperson,2023.2.2,MacIntel,59.52380952,686c2ebf0248f13bef9af11f,686c324dd5bef3e49ec2299a,,,,,,,,,,,,,,,,,,,,,,,,,,,,,545.4385,1,audio/Narrative7Situation8.wav,547.4497,,547.4497,557.4761,"[[999,1],[999,100],[999,182],[999,265],[999,348],[999,433],[999,516],[999,598],[999,681],[999,765],[999,849],[999,932],[999,1015],[999,1100],[999,1182],[999,1265],[999,1348],[999,1432],[999,1516],[999,1598],[999,1681],[999,1764],[999,1848],[999,1932],[76,2014],[78.4,2097],[78.4,2180],[78.4,2264],[78.4,2348],[78.4,2430],[78.4,2514],[78.4,2597],[78.4,2680],[78.4,2764],[78.4,2847],[78.4,2930],[78.4,3014],[78.4,3097],[78.4,3181],[78.4,3264],[78.4,3347],[78.4,3431],[78.4,3514],[78.4,3597],[78.4,3681],[78.4,3764],[71.4,3848],[50.8,3930],[31.3,4013],[27.1,4097],[27.1,4180],[27.1,4263],[27.1,4348],[27.1,4430],[27.1,4513],[25.7,4595],[21.8,4679],[21.8,4764],[21.8,4846],[21.8,4929],[21.8,5012],[21.8,5095],[21.8,5179],[21.8,5262],[21.8,5345],[21.8,5428],[21.8,5511],[21.8,5595],[21.8,5678],[21.8,5762],[21.8,5844],[21.8,5927],[21.8,6011],[21.8,6096],[21.8,6179],[21.8,6262],[21.8,6345],[21.8,6428],[21.8,6512],[21.8,6594],[21.8,6678],[21.8,6761],[21.8,6844],[21.8,6927],[21.8,7011],[21.9,7094],[21.9,7178],[21.9,7261],[21.9,7345],[21.9,7428],[21.9,7510],[21.9,7596],[21.9,7678],[21.9,7761],[21.9,7844],[21.9,7926],[22,8011],[22,8094],[22,8177],[22,8261],[22.7,8343],[41.4,8427],[67.5,8511],[68.5,8593],[68.5,8677],[70.5,8761],[77.2,8844],[77.5,8927],[77.3,9011],[77.3,9093],[77.3,9175],[77.3,9260],[77.3,9342],[77.3,9426],[77.3,9509],[77.3,9592],[77.3,9676],[77.3,9759],[77.3,9842],[77.3,9927],[77.3,10009]]",557.4762,558.9243,81.98202345,0.9087,"[{""rating"":81.98202345106337,""responseTime"":0.9086999999880163}]",space,0.9215,,558.9244,Definitely yes,100,558.928,,,[],,0,17,17,17,1,audio/Narrative8Situation8.wav,audio/Narrative7Situation8.wav,audio/Narrative6Situation8.wav,audio/Narrative5Situation8.wav,3,2,5,3,,,,,,,,,,,,,,,,,,,,,,,,,,,,,,,,,,,,,,,
,,,,,6098164e4c37ed73ca9c74f5,2025-07-07_13h47.34.841,group3.4_multiperson,2023.2.2,MacIntel,59.52380952,686c2ebf0248f13bef9af11f,686c324dd5bef3e49ec2299a,,,,,,,,,,,,,,,,,,,,,,,,,,,,,558.9283,1,audio/Narrative7Situation9.wav,560.9404,,560.9405,569.5847,"[[76.7,1265],[75.4,1348],[75.4,1433],[75.4,1515],[75.4,1599],[80.4,1681],[85.2,1769],[85.2,1849],[85.2,1930],[85.2,2015],[85.2,2097],[85.2,2181],[85.2,2265],[85.2,2349],[85.2,2431],[85.2,2515],[85.2,2598],[85.2,2681],[85.2,2763],[85.2,2847],[85.2,2932],[85.2,3014],[85.2,3098],[85.2,3182],[85.2,3264],[85.2,3347],[85.2,3431],[85.2,3513],[85.2,3598],[85.2,3679],[85.2,3764],[85.2,3847],[85.2,3929],[85.2,4014],[85.2,4096],[85.2,4180],[85.2,4263],[85.2,4347],[85.2,4430],[85.2,4513],[85.2,4596],[85.2,4679],[85.2,4763],[85.2,4846],[85.2,4930],[85.2,5012],[85.2,5097],[85.2,5179],[85.2,5262],[85.2,5346],[85.2,5428],[85.2,5513],[85.2,5596],[85.2,5678],[85.2,5762],[85.2,5845],[85.2,5929],[85.2,6012],[85.2,6095],[85.2,6179],[85.2,6262],[85.2,6345],[85.2,6429],[85.2,6511],[85.3,6595],[89.3,6678],[93.3,6762],[97,6845],[97.2,6928],[97.2,7012],[97.2,7095],[97.2,7178],[97.2,7261],[97.2,7344],[97.2,7428],[97.2,7511],[97.2,7594],[97.2,7678],[97.2,7762],[97.2,7844],[97.2,7928],[97.2,8012],[97.2,8094],[97.2,8177],[97.2,8260],[97.2,8343],[97.2,8428],[97.2,8510],[97.2,8593]]",569.5849,572.6655,89.97575548,3.0726,"[{""rating"":89.97575547960069,""responseTime"":3.07260000002384}]",space,0.7196,,572.6658,Not at all,0,572.6695,,,[],,0,18,18,18,1,audio/Narrative8Situation9.wav,audio/Narrative7Situation9.wav,audio/Narrative6Situation9.wav,audio/Narrative5Situation9.wav,3,2,4,3,,,,,,,,,,,,,,,,,,,,,,,,,,,,,,,,,,,,,,,
,,,,,6098164e4c37ed73ca9c74f5,2025-07-07_13h47.34.841,group3.4_multiperson,2023.2.2,MacIntel,59.52380952,686c2ebf0248f13bef9af11f,686c324dd5bef3e49ec2299a,,,,,,,,,,,,,,,,,,,,,,,,,,,588.461,591.0373,591.0622,2,audio/Narrative13Situation2.wav,591.0623,,591.0624,620.8175,"[[88.3,1839],[79.5,2590],[79.5,2673],[79.6,2756],[79.8,2839],[79.8,2922],[79.8,3007],[79.8,3089],[79.8,3172],[79.8,3255],[79.8,3338],[79.8,3423],[79.8,3504],[79.8,3588],[79.8,3671],[79.8,3754],[79.8,3839],[79.8,3922],[79.8,4005],[79.8,4088],[79.8,4171],[79.8,4255],[79.8,4337],[79.8,4421],[79.8,4505],[79.8,4587],[79.8,4671],[79.8,4754],[79.8,4837],[79.8,4922],[79.8,5004],[79.8,5088],[80.1,5171],[82.3,5254],[83.1,5339],[83.8,5423],[83.8,5504],[83.8,5589],[83.8,5671],[83.8,5754],[83.8,5837],[83.8,5920],[83.8,6004],[83.8,6087],[83.8,6170],[83.8,6254],[83.8,6337],[83.8,6420],[83.8,6505],[83.8,6586],[83.8,6671],[83.8,6754],[83.8,6838],[83.8,6921],[83.8,7004],[83.8,7086],[83.8,7170],[83.8,7252],[83.8,7335],[83.8,7421],[83.8,7502],[70.6,7586],[49.3,7672],[36.3,7753],[33.9,7835],[32.7,7918],[32.7,8004],[32.8,8085],[36.1,8169],[51.2,8252],[61.2,8335],[61.6,8419],[61.7,8501],[62.6,8585],[65.4,8668],[66.3,8752],[66.3,8836],[66.3,8919],[66.3,9001],[66.3,9085],[66.3,9168],[66.3,9252],[66.3,9334],[66.3,9419],[66.3,9502],[66.3,9585],[66.3,9668],[66.3,9750],[66.3,9834],[66.3,9919],[66.3,10001],[66.3,10084],[66.3,10168],[66.3,10250],[66.3,10334],[66.3,10417],[66.3,10501],[66.3,10584],[66.3,10667],[66.3,10750],[66.3,10834],[66.3,10917],[66.3,11000],[66.3,11083],[66.3,11166],[66.3,11249],[66.3,11333],[66.3,11417],[70.6,11500],[73.5,11583],[73.6,11666],[67.7,11749],[60.7,11833],[63.5,11918],[64.4,11999],[64.4,12084],[64.4,12165],[64.4,12250],[64.4,12333],[64.4,12415],[64.4,12500],[64.4,12582],[64.4,12665],[64.4,12749],[64.4,12832],[64.4,12916],[65.2,12998],[65.4,13083],[65.4,13167],[65.4,13249],[66.7,13333],[67.3,13417],[67.3,13499],[67.2,13583],[67.2,13666],[71.1,13749],[77,13833],[77.6,13915],[78.8,13998],[80.7,14082],[80.8,14165],[80.7,14247],[80.7,14331],[80.7,14414],[80.7,14498],[80.7,14582],[80.7,14666],[80.7,14748],[80.7,14831],[80.7,14916],[80.7,14998],[80.7,15081],[80.7,15165],[80.7,15248],[80.7,15332],[80.7,15413],[80.7,15496],[69.5,15580],[54.4,15663],[53.2,15748],[53.2,15829],[51.2,15913],[36.3,15996],[32.4,16080],[32.4,16163],[32.4,16246],[32.4,16330],[32.4,16414],[32.4,16496],[32.4,16579],[32.4,16663],[32.4,16746],[32.4,16830],[32.4,16912],[32.4,16996],[32.4,17080],[32.4,17163],[31.3,17246],[24.6,17330],[21.4,17412],[19.7,17497],[19,17578],[18.7,17662],[18.7,17745],[18.7,17829],[18.7,17913],[18.7,17996],[18.7,18079],[18.7,18162],[18.7,18246],[18.7,18329],[18.7,18411],[18.7,18496],[18.7,18578],[18.7,18661],[18.7,18746],[18.7,18828],[18.7,18911],[18.7,18995],[18.7,19078],[18.7,19161],[18.7,19245],[18.7,19328],[18.7,19411],[18.7,19495],[18.7,19578],[18.7,19660],[18.7,19745],[18.7,19828],[18.7,19911],[18.7,19995],[18.7,20079],[18.7,20161],[18.7,20244],[18.7,20328],[18.7,20411],[18.7,20495],[18.7,20577],[18.7,20660],[18.7,20745],[18.7,20827],[18.7,20911],[18.7,20994],[18.7,21077],[18.7,21161],[18.7,21242],[18.7,21327],[18.7,21411],[18.7,21493],[18.7,21577],[18.7,21660],[18.7,21743],[18.7,21826],[18.7,21909],[18.7,21993],[18.7,22077],[18.7,22159],[18.7,22243],[24.8,22326],[43.6,22409],[51.4,22492],[60.2,22575],[60.2,22659],[60.2,22743],[60.2,22825],[60.2,22909],[60.2,22992],[61.2,23075],[63.4,23159],[63.5,23242],[63.5,23326],[63.5,23409],[63.5,23492],[63.5,23574],[63.5,23658],[63.5,23742],[63.5,23824],[63.5,23908],[63.5,23991],[63.5,24074],[63.5,24159],[66.5,24242],[67.1,24324],[67.2,24408],[67.2,24491],[67.2,24575],[67.2,24658],[67.2,24741],[67.2,24825],[67.2,24908],[67.2,24991],[67.2,25075],[67.2,25157],[67.2,25241],[67.2,25324],[67.2,25407],[67.2,25490],[67.2,25574],[67.2,25656],[64.3,25742],[46.4,25823],[32.9,25909],[32.9,25991],[32.9,26073],[25.9,26156],[21.8,26241],[21.8,26324],[21.8,26406],[21.8,26489],[21.8,26574],[21.8,26657],[21.8,26739],[21.8,26824],[21.8,26907],[20.5,26990],[16.6,27074],[16.2,27156],[16.2,27240],[16.2,27323],[16.2,27406],[16.2,27489],[16.2,27572],[16.2,27656],[16.2,27738],[16.2,27822],[16.2,27905],[16.2,27989],[16.2,28072],[16.2,28155],[16.2,28239],[16.2,28322],[16.2,28405],[16.2,28489],[16.2,28571],[16.2,28654],[16.2,28739],[16.2,28821],[16.2,28905],[16.2,28988],[16.2,29072],[16.2,29155],[16.2,29237],[16.2,29321],[16.2,29405],[16.2,29488],[16.2,29572],[16.2,29654],[16.2,29737]]",620.8179,620.8208,,,[],,,,620.8208,Definitely yes,100,620.8247,,,[],,0,0,0,0,1,audio/Narrative13Situation2.wav,audio/Narrative13Situation2.wav,audio/Narrative13Situation2.wav,audio/Narrative13Situation2.wav,2,2,2,2,,,,,572.67,588.4607,space,15.2685,,,,,,,,,,,,,,,,,,,,,,,,,,,,,,,
,,,,,6098164e4c37ed73ca9c74f5,2025-07-07_13h47.34.841,group3.4_multiperson,2023.2.2,MacIntel,59.52380952,686c2ebf0248f13bef9af11f,686c324dd5bef3e49ec2299a,,,,,,,,,,,,,,,,,,,,,,,,,,,,,620.8254,2,audio/Narrative6Situation1.wav,622.8318,,622.8319,649.3989,"[[999,0],[999,83],[999,166],[999,250],[999,333],[999,416],[999,500],[999,583],[999,667],[999,750],[999,833],[999,917],[999,1000],[999,1083],[999,1167],[999,1250],[999,1333],[999,1416],[999,1499],[999,1583],[999,1666],[999,1749],[999,1832],[999,1916],[999,2000],[999,2083],[999,2166],[999,2248],[999,2333],[999,2416],[999,2498],[999,2585],[999,2666],[999,2748],[999,2831],[999,2914],[999,2997],[999,3082],[999,3164],[999,3248],[999,3331],[999,3414],[999,3497],[999,3580],[999,3664],[999,3749],[999,3831],[999,3914],[999,3998],[999,4081],[999,4165],[999,4247],[999,4330],[999,4414],[999,4497],[999,4580],[999,4664],[999,4747],[999,4831],[999,4913],[70.2,4997],[70.3,5080],[70.3,5164],[70.4,5247],[70.4,5330],[70.4,5413],[70.4,5499],[75.8,5580],[80.1,5663],[80.3,5747],[80.3,5829],[80.3,5914],[80.5,5996],[83.1,6079],[83.2,6163],[83.2,6247],[83.2,6330],[83.2,6412],[83.2,6496],[83.2,6579],[83.2,6662],[83.2,6746],[83.2,6829],[83.2,6912],[83.2,6996],[83.2,7079],[83.2,7162],[83.2,7247],[83.2,7331],[83.2,7412],[83.2,7495],[83.2,7578],[83.2,7661],[83.2,7745],[83.2,7828],[83.2,7912],[83.2,7995],[83.2,8079],[83.2,8162],[83.2,8245],[83.2,8331],[83.2,8411],[83.2,8495],[83.2,8577],[83.2,8661],[83.2,8746],[83.2,8827],[83.2,8911],[83.2,8995],[83.2,9077],[83.2,9160],[83.2,9245],[83.2,9332],[83.2,9410],[83.2,9493],[83.2,9578],[83.2,9660],[83.2,9744],[83.2,9827],[83.2,9910],[83.2,9993],[83.2,10077],[83.2,10160],[83.2,10244],[83.2,10327],[83.2,10410],[83.2,10493],[83.2,10577],[83.2,10660],[82.3,10743],[77.6,10827],[54.3,10910],[51.6,10993],[51.6,11076],[43.2,11160],[29.8,11243],[29.5,11327],[29.5,11410],[29.5,11493],[29.5,11575],[19.5,11660],[17.4,11744],[17.4,11825],[17.4,11909],[17.4,11992],[12.8,12076],[9.2,12160],[9.2,12243],[9.2,12325],[5.4,12408],[3.3,12492],[3.3,12575],[3.3,12658],[3.3,12742],[3.3,12825],[3.3,12908],[6.6,12992],[7.4,13076],[7.6,13158],[8.3,13242],[8.4,13324],[8.4,13407],[8.4,13490],[8.4,13575],[8.4,13658],[8.4,13740],[8.4,13824],[8.4,13909],[8.4,13991],[8.4,14075],[8.4,14159],[8.4,14241],[8.4,14324],[9.1,14407],[10.2,14491],[10.2,14573],[10.2,14656],[11.8,14740],[13.6,14825],[13.6,14907],[13.6,14991],[13.6,15073],[13.6,15157],[13.6,15240],[13.6,15323],[13.6,15407],[13.6,15490],[13.6,15573],[13.6,15657],[13.6,15740],[13.6,15823],[13.6,15906],[13.6,15990],[13.6,16074],[13.6,16156],[13.6,16240],[13.6,16323],[13.6,16406],[13.6,16490],[13.6,16573],[13.6,16656],[13.6,16740],[13.6,16823],[13.6,16906],[13.6,16989],[13.6,17072],[13.6,17157],[13.6,17239],[13.6,17322],[13.6,17407],[13.6,17489],[13.6,17573],[13.6,17656],[13.6,17738],[13.6,17823],[13.6,17906],[13.6,17988],[13.6,18072],[13.6,18154],[13.6,18240],[13.6,18320],[13.6,18404],[13.6,18489],[13.6,18572],[13.6,18655],[13.6,18738],[13.6,18821],[13.6,18904],[13.6,18988],[13.6,19071],[13.6,19154],[13.6,19237],[13.6,19322],[13.6,19403],[13.6,19487],[13.6,19572],[13.6,19653],[13.6,19738],[13.6,19820],[13.6,19903],[13.6,19987],[13.6,20070],[13.6,20153],[13.6,20237],[13.6,20321],[13.6,20404],[13.6,20486],[13.6,20570],[13.6,20652],[13.6,20736],[14.2,20821],[24.3,20903],[39.6,20986],[58.3,21069],[77.3,21236],[77.3,21319],[77.3,21402],[77.1,21486],[76.2,21569],[75.9,21652],[75.9,21735],[75.7,21819],[75.2,21903],[74.1,21985],[73.6,22068],[73,22152],[71.4,22235],[71.2,22319],[71.2,22401],[71.2,22485],[71.2,22569],[71.2,22652],[71.2,22735],[71.2,22819],[71.2,22902],[71.2,22985],[71.2,23068],[71.2,23151],[71.2,23234],[71.2,23318],[71.2,23401],[71.2,23484],[71.2,23568],[71.2,23651],[71.2,23734],[71.2,23818],[71.2,23901],[71.2,23984],[71.2,24068],[71.2,24150],[71.2,24234],[71.2,24318],[71.2,24401],[71.2,24485],[71.2,24567],[71.2,24650],[71.2,24733],[71.2,24817],[71.2,24900],[71.2,24983],[76.2,25067],[85.4,25151],[88.6,25233],[89.2,25317],[89.2,25399],[89.2,25483],[93.4,25567],[96,25650],[96.2,25732],[96.2,25816],[96.2,25899],[96.2,25983],[96.2,26067],[96.2,26150],[96.2,26234],[96.2,26317],[96.2,26399],[96.2,26484],[96.2,26566]]",649.3992,652.1628,50.10409037,2.2598,"[{""rating"":50.10409037272135,""responseTime"":2.2598000000118645}]",space,2.2158,,652.1628,Not at all,0,652.1674,,,[],,0,1,1,1,1,audio/Narrative7Situation1.wav,audio/Narrative8Situation1.wav,audio/Narrative5Situation1.wav,audio/Narrative6Situation1.wav,2,5,5,2,,,,,,,,,,,,,,,,,,,,,,,,,,,,,,,,,,,,,,,
,,,,,6098164e4c37ed73ca9c74f5,2025-07-07_13h47.34.841,group3.4_multiperson,2023.2.2,MacIntel,59.52380952,686c2ebf0248f13bef9af11f,686c324dd5bef3e49ec2299a,,,,,,,,,,,,,,,,,,,,,,,,,,,,,652.1681,2,audio/Narrative6Situation2.wav,655.1776,,655.1777,683.6923,"[[999,0],[999,83],[999,166],[999,249],[999,332],[999,415],[999,500],[999,582],[999,666],[999,749],[999,832],[999,916],[999,999],[999,1082],[999,1166],[999,1249],[999,1332],[999,1416],[999,1498],[999,1582],[999,1665],[999,1749],[999,1831],[999,1915],[999,1998],[999,2081],[999,2165],[999,2248],[999,2331],[999,2416],[51.3,2498],[37.5,2581],[37,2665],[36.8,2749],[25.8,2832],[23.1,2914],[23.1,2997],[23.1,3081],[23.1,3165],[23.1,3247],[23.1,3331],[23.1,3414],[23.1,3497],[23.1,3581],[23.1,3663],[23.1,3748],[23.1,3831],[23.1,3914],[23.1,3996],[23.1,4080],[23.1,4164],[23.1,4247],[23.5,4331],[28.3,4413],[48.3,4497],[61.5,4580],[64.6,4663],[64.6,4746],[64.6,4830],[70.5,4914],[75.9,4997],[75.9,5079],[75.9,5163],[75.9,5247],[75.9,5330],[81.9,5413],[82.4,5495],[82.4,5579],[82.4,5663],[82.4,5746],[82.4,5829],[82.4,5913],[82.4,5996],[82.4,6079],[82.4,6162],[82.4,6246],[82.4,6330],[82.4,6413],[82.4,6495],[82.4,6578],[82.4,6661],[82.4,6746],[82.4,6829],[82.4,6911],[82.4,6994],[82.4,7078],[82.4,7162],[82.4,7245],[82.4,7328],[82.4,7412],[82.4,7495],[82.4,7578],[86.7,7661],[91.5,7744],[91.9,7827],[92,7911],[92,7994],[92,8078],[92,8161],[92,8245],[92,8326],[92,8410],[92,8494],[92,8578],[92,8660],[92,8743],[92,8827],[92,8911],[92,8993],[92,9077],[92,9161],[92,9243],[92,9327],[92,9411],[92,9494],[92,9577],[92,9660],[92,9743],[92,9827],[92,9909],[92,9992],[92,10077],[92,10159],[92,10243],[92,10326],[92,10410],[92,10493],[92,10576],[92,10660],[92,10742],[92,10826],[92,10909],[92,10991],[92,11077],[92,11159],[92,11242],[92,11325],[92,11409],[92,11493],[92,11575],[92,11658],[92,11742],[92,11825],[92,11909],[92,11992],[92,12075],[92.1,12158],[92.1,12241],[92.1,12324],[92.3,12408],[92.5,12491],[93.5,12575],[94.6,12657],[96,12741],[96.5,12824],[96.6,12908],[96.6,12991],[96.6,13073],[96.6,13157],[96.6,13241],[96.6,13323],[96.6,13408],[96.6,13490],[96.6,13574],[96.6,13657],[96.6,13740],[96.6,13824],[97.4,13907],[98.2,13990],[98.1,14074],[98.1,14157],[98.1,14240],[98.1,14324],[98.1,14407],[98.1,14490],[98.1,14573],[98.1,14657],[98.1,14739],[98.1,14822],[98.1,14906],[98.1,14989],[98.1,15073],[98.1,15157],[98.1,15239],[98.1,15322],[98.1,15406],[98.1,15489],[98.1,15572],[98.1,15656],[98.1,15739],[98.1,15822],[98.1,15906],[98.1,15989],[98.1,16072],[98.1,16156],[98.1,16239],[98.1,16322],[98.1,16406],[98.1,16488],[98.1,16572],[98.1,16655],[98.1,16738],[98.1,16822],[98.1,16906],[98.1,16988],[98.1,17072],[98.1,17154],[98.1,17238],[98.1,17322],[98.1,17405],[98.1,17488],[98.1,17571],[98.1,17654],[98.1,17739],[98.1,17821],[98.1,17905],[98.1,17988],[98.1,18070],[98.1,18154],[98.1,18239],[98.1,18321],[98.1,18405],[98.1,18488],[98.1,18571],[98.1,18655],[98.1,18737],[98.1,18821],[98.1,18903],[98.1,18987],[98.1,19072],[98.1,19153],[98.1,19237],[98.1,19320],[98.1,19403],[98.1,19488],[98.1,19570],[98.1,19653],[98.1,19736],[98.1,19819],[98.1,19903],[98.1,19985],[98.1,20070],[98.1,20154],[98.1,20236],[98.1,20320],[98.1,20403],[98.1,20486],[98.1,20570],[98.1,20652],[98.1,20735],[98.1,20819],[98.1,20902],[98.1,20986],[98.1,21069],[98.1,21152],[98.1,21236],[98.1,21318],[98.1,21402],[98.1,21485],[98.1,21569],[98.1,21654],[98.1,21735],[98.1,21819],[98.1,21902],[98.1,21985],[98.1,22069],[98.1,22152],[98.1,22234],[98.1,22318],[98.1,22402],[98.1,22485],[98.1,22568],[98.1,22651],[98.1,22736],[98.1,22817],[98.1,22902],[98.1,22986],[98.1,23068],[98.1,23152],[98.1,23234],[98.1,23317],[98.1,23402],[98.1,23485],[98.1,23567],[98.1,23650],[98.1,23733],[98.1,23819],[98.1,23900],[98.1,23984],[98.1,24066],[98.1,24149],[98.1,24234],[98.1,24317],[98.1,24400],[98.1,24485],[98.1,24567],[98.1,24650],[98.1,24733],[98.1,24817],[98.1,24901],[98.1,24986],[98.1,25066],[98.1,25150],[98.1,25233],[98.1,25317],[98.1,25399],[98.1,25482],[98.1,25567],[98.1,25650],[98.1,25732],[98.1,25815],[98.1,25898],[98.1,25985],[98.1,26066],[98.1,26149],[98.1,26233],[98.1,26316],[98.1,26399],[98.1,26482],[98.1,26565],[98.1,26649],[98.1,26732],[98.1,26815],[98.1,26898],[98.1,26984],[98.1,27065],[98.1,27149],[98.1,27231],[98.1,27315],[98.1,27398],[98.1,27482],[98.1,27565],[98.1,27648],[98.1,27731],[98.1,27815],[98.1,27898],[98.1,27981],[98.1,28065],[98.1,28148],[98.1,28231],[98.1,28314],[98.1,28398],[98.1,28481]]",683.6926,685.2077,98.38802762,0.8928,"[{""rating"":98.38802761501736,""responseTime"":0.8927999999523308}]",space,0.9689,,685.2078,Definitely yes,100,685.2116,,,[],,0,2,2,2,1,audio/Narrative7Situation2.wav,audio/Narrative8Situation2.wav,audio/Narrative5Situation2.wav,audio/Narrative6Situation2.wav,3,3,3,3,,,,,,,,,,,,,,,,,,,,,,,,,,,,,,,,,,,,,,,
,,,,,6098164e4c37ed73ca9c74f5,2025-07-07_13h47.34.841,group3.4_multiperson,2023.2.2,MacIntel,59.52380952,686c2ebf0248f13bef9af11f,686c324dd5bef3e49ec2299a,,,,,,,,,,,,,,,,,,,,,,,,,,,,,685.2118,2,audio/Narrative6Situation3.wav,690.2219,,690.2219,702.8473,"[[999,0],[999,99],[999,182],[999,266],[999,349],[999,432],[999,515],[999,598],[999,682],[999,766],[999,848],[999,931],[999,1014],[999,1099],[999,1182],[999,1265],[999,1347],[999,1431],[999,1515],[999,1598],[999,1681],[999,1765],[999,1848],[999,1931],[999,2014],[999,2097],[999,2182],[999,2265],[999,2347],[999,2431],[999,2514],[999,2598],[999,2680],[999,2764],[999,2848],[999,2931],[999,3014],[999,3097],[999,3180],[999,3264],[999,3347],[999,3430],[999,3513],[999,3597],[999,3682],[999,3764],[999,3847],[999,3930],[999,4013],[999,4096],[999,4180],[999,4262],[64.9,4345],[64.8,4430],[64.9,4512],[65.1,4595],[65.1,4679],[65.1,4763],[65.1,4845],[65.1,4929],[65.1,5014],[65.1,5095],[65.1,5179],[65.1,5262],[65.1,5345],[65.1,5430],[65.1,5512],[65.1,5596],[65.1,5678],[65.1,5762],[65.1,5845],[65.1,5928],[65.1,6012],[65.1,6094],[65.1,6179],[65.1,6269],[65.1,6344],[65.1,6428],[65.1,6510],[65.1,6594],[65.1,6677],[65.1,6761],[65.1,6844],[73.9,6929],[82.2,7011],[82.9,7094],[82.9,7178],[83,7260],[88.6,7344],[91.8,7427],[91.8,7510],[91.8,7596],[96.5,7677],[98.7,7761],[98.7,7843],[98.7,7928],[98.7,8011],[98.7,8093],[98.7,8177],[98.7,8260],[98.7,8344],[98.7,8427],[98.7,8510],[98.7,8593],[98.7,8678],[98.7,8760],[98.7,8844],[98.7,8927],[98.7,9010],[98.7,9094],[98.7,9176],[98.7,9259],[98.7,9343],[98.7,9426],[98.7,9510],[98.7,9593],[98.7,9676],[98.7,9760],[98.7,9842],[98.7,9926],[98.7,10009],[98.7,10092],[98.7,10176],[98.7,10258],[98.7,10342],[98.7,10425],[98.7,10508],[98.7,10592],[98.7,10675],[98.7,10758],[98.7,10841],[98.7,10925],[98.7,11008],[98.7,11091],[98.7,11175],[98.7,11259],[98.7,11341],[98.7,11425],[98.7,11508],[98.7,11591],[98.7,11675],[98.7,11757],[98.7,11841],[98.7,11925],[98.7,12008],[98.7,12092],[98.7,12174],[98.7,12258],[98.7,12342],[98.7,12424],[98.7,12507],[98.7,12590]]",702.8476,704.8109,83.08259752,1.0891,"[{""rating"":83.08259752061632,""responseTime"":1.0891000000239046}]",space,1.417,,704.811,Partially,50,704.8157,,,[],,0,3,3,3,1,audio/Narrative7Situation3.wav,audio/Narrative8Situation3.wav,audio/Narrative5Situation3.wav,audio/Narrative6Situation3.wav,8,4,3,5,,,,,,,,,,,,,,,,,,,,,,,,,,,,,,,,,,,,,,,
,,,,,6098164e4c37ed73ca9c74f5,2025-07-07_13h47.34.841,group3.4_multiperson,2023.2.2,MacIntel,59.52380952,686c2ebf0248f13bef9af11f,686c324dd5bef3e49ec2299a,,,,,,,,,,,,,,,,,,,,,,,,,,,,,704.8163,2,audio/Narrative6Situation4.wav,706.8268,,706.8268,719.4526,"[[33.3,1914],[26.5,1998],[26.5,2081],[26.5,2164],[16.8,2249],[12.9,2335],[12.9,2415],[12.9,2498],[12.9,2580],[12.9,2664],[12.9,2747],[12.9,2831],[12.9,2915],[12.9,2997],[12.9,3081],[12.9,3165],[12.9,3247],[12.9,3334],[12.9,3414],[12.9,3497],[12.9,3580],[12.9,3664],[12.9,3747],[12.9,3830],[12.9,3914],[12.9,3998],[12.9,4080],[13.1,4164],[48.5,4247],[54.1,4330],[54.1,4414],[54.1,4496],[70.2,4579],[76.1,4664],[76.1,4747],[76.1,4830],[77.6,4914],[81.9,4997],[82.3,5080],[82.3,5163],[82.3,5246],[82.3,5329],[82.3,5413],[82.3,5497],[82.3,5579],[82.3,5662],[82.3,5746],[82.3,5828],[82.3,5913],[90,5995],[95.6,6078],[95.8,6163],[95.7,6245],[95.5,6329],[95.5,6412],[95.5,6495],[95.5,6579],[95.5,6662],[95.5,6745],[98,6829],[98.5,6912],[98.5,6995],[98.5,7079],[98.5,7162],[98.5,7246],[98.5,7329],[98.5,7411],[98.5,7496],[98.5,7578],[98.5,7662],[98.5,7745],[98.5,7829],[98.5,7913],[98.5,7996],[98.5,8078],[98.5,8161],[98.5,8245],[98.5,8329],[98.5,8410],[98.5,8494],[98.5,8579],[98.5,8661],[98.5,8745],[98.5,8828],[98.5,8911],[98.5,8993],[98.5,9078],[98.5,9160],[98.5,9244],[98.5,9327],[98.5,9411],[98.5,9494],[98.5,9577],[98.5,9661],[98.5,9744],[98.5,9827],[98.5,9910],[98.5,9993],[98.5,10078],[98.5,10160],[98.5,10244],[98.5,10326],[98.5,10411],[98.5,10493],[98.5,10576],[98.5,10659],[98.5,10742],[98.5,10826],[98.5,10910],[98.5,10992],[98.5,11077],[98.5,11159],[98.5,11242],[98.5,11326],[98.5,11409],[98.5,11492],[98.5,11575],[98.5,11659],[98.5,11743],[98.5,11825],[98.5,11908],[98.5,11993],[98.5,12075],[98.5,12158],[98.5,12243],[98.5,12325],[98.5,12409],[98.5,12492],[98.5,12576]]",719.4528,720.921,96.07784695,0.8263,"[{""rating"":96.07784695095486,""responseTime"":0.8262999999523117}]",space,0.9147,,720.921,Partially,50,720.9239,,,[],,0,4,4,4,1,audio/Narrative7Situation4.wav,audio/Narrative8Situation4.wav,audio/Narrative5Situation4.wav,audio/Narrative6Situation4.wav,3,3,1,2,,,,,,,,,,,,,,,,,,,,,,,,,,,,,,,,,,,,,,,
,,,,,6098164e4c37ed73ca9c74f5,2025-07-07_13h47.34.841,group3.4_multiperson,2023.2.2,MacIntel,59.52380952,686c2ebf0248f13bef9af11f,686c324dd5bef3e49ec2299a,,,,,,,,,,,,,,,,,,,,,,,,,,,,,720.9245,2,audio/Narrative6Situation5.wav,722.9339,,722.9339,730.8939,"[[999,0],[999,83],[999,166],[999,248],[999,331],[999,415],[999,499],[999,581],[999,664],[999,747],[999,831],[999,915],[999,998],[999,1082],[999,1166],[999,1248],[999,1330],[999,1414],[999,1497],[999,1581],[999,1664],[999,1747],[999,1830],[999,1915],[999,1997],[999,2081],[999,2165],[999,2248],[999,2330],[83.6,2414],[83.9,2497],[84,2580],[84,2664],[84,2747],[84,2830],[84,2914],[84,2997],[84,3079],[84,3163],[84,3246],[84,3331],[84,3413],[84,3496],[84,3579],[84,3663],[84,3747],[84,3830],[84,3912],[84,3996],[84.9,4080],[90.6,4164],[91.9,4245],[92.2,4330],[92.3,4413],[92.3,4496],[92.8,4579],[96,4663],[97.7,4746],[97.9,4829],[97.9,4913],[97.9,4995],[97.9,5078],[97.9,5163],[97.9,5245],[97.9,5329],[97.9,5411],[97.9,5494],[97.9,5579],[97.9,5662],[97.9,5745],[97.9,5828],[97.9,5912],[97.9,5994],[97.9,6077],[97.9,6161],[97.9,6245],[97.9,6327],[97.9,6410],[97.9,6494],[97.9,6578],[97.9,6661],[97.9,6744],[97.9,6827],[97.9,6911],[97.9,6995],[97.9,7077],[97.9,7160],[97.9,7243],[97.9,7327],[97.9,7411],[97.9,7494],[97.9,7576],[97.9,7661],[97.9,7744],[97.9,7827],[97.9,7910]]",730.8941,733.5255,91.91451179,1.3946,"[{""rating"":91.91451178656685,""responseTime"":1.3946000000238428}]",space,2.0842,,733.5256,Not at all,0,733.5293,,,[],,0,5,5,5,1,audio/Narrative7Situation5.wav,audio/Narrative8Situation5.wav,audio/Narrative5Situation5.wav,audio/Narrative6Situation5.wav,5,2,5,2,,,,,,,,,,,,,,,,,,,,,,,,,,,,,,,,,,,,,,,
,,,,,6098164e4c37ed73ca9c74f5,2025-07-07_13h47.34.841,group3.4_multiperson,2023.2.2,MacIntel,59.52380952,686c2ebf0248f13bef9af11f,686c324dd5bef3e49ec2299a,,,,,,,,,,,,,,,,,,,,,,,,,,,,,733.5296,2,audio/Narrative6Situation6.wav,735.542,,735.542,746.6342,"[[999,0],[999,82],[999,166],[999,249],[999,331],[999,416],[999,498],[999,582],[999,664],[999,749],[999,832],[999,915],[999,997],[999,1082],[999,1165],[999,1248],[999,1331],[999,1416],[999,1498],[999,1581],[999,1665],[999,1747],[999,1832],[999,1915],[999,1998],[999,2082],[999,2165],[999,2248],[999,2331],[999,2414],[999,2496],[999,2581],[999,2664],[999,2747],[999,2830],[999,2914],[999,2998],[999,3080],[999,3163],[999,3247],[999,3331],[999,3414],[999,3496],[999,3580],[999,3663],[999,3746],[999,3829],[60.4,3913],[56.5,3997],[56.5,4080],[56.5,4163],[50.7,4246],[34.8,4329],[33.8,4413],[33.8,4496],[29.2,4579],[25.2,4663],[25.2,4746],[25.2,4829],[25.2,4913],[25.2,4995],[25.2,5080],[25.2,5163],[25.2,5245],[25.2,5328],[25.2,5412],[25.2,5495],[25.2,5579],[25.2,5661],[25.2,5745],[25.2,5828],[25.2,5912],[25.2,5995],[25.2,6078],[25.2,6161],[25.2,6245],[25.2,6327],[25.2,6412],[25.2,6495],[25.2,6578],[25.2,6661],[25.2,6744],[25.2,6829],[25.2,6912],[25.2,6994],[25.2,7078],[25.2,7160],[25.2,7243],[25.2,7328],[25.2,7411],[25.2,7493],[25.2,7577],[25.2,7661],[25.2,7744],[25.2,7827],[25.2,7910],[25.2,7994],[25.2,8076],[25.2,8160],[25.2,8244],[25.2,8327],[25.2,8409],[25.2,8493],[25.2,8576],[25.2,8659],[25.2,8743],[25.2,8826],[25.2,8909],[25.2,8993],[25.2,9076],[25.2,9159],[25.2,9243],[25.2,9326],[25.2,9408],[25.6,9492],[30,9576],[34.3,9658],[35.6,9742],[35.6,9826],[35.6,9909],[35.6,9992],[35.6,10075],[35.6,10159],[35.6,10242],[35.6,10326],[35.6,10408],[35.6,10492],[35.6,10575],[35.6,10658],[35.6,10742],[35.6,10826],[35.6,10909],[35.6,10992],[35.6,11074]]",746.635,750.0812,63.28344557,2.8543,"[{""rating"":63.283445570204,""responseTime"":2.8543000000119036}]",space,2.9022,,750.0814,Not at all,0,750.0845,,,[],,0,6,6,6,1,audio/Narrative7Situation6.wav,audio/Narrative8Situation6.wav,audio/Narrative5Situation6.wav,audio/Narrative6Situation6.wav,3,2,3,2,,,,,,,,,,,,,,,,,,,,,,,,,,,,,,,,,,,,,,,
,,,,,6098164e4c37ed73ca9c74f5,2025-07-07_13h47.34.841,group3.4_multiperson,2023.2.2,MacIntel,59.52380952,686c2ebf0248f13bef9af11f,686c324dd5bef3e49ec2299a,,,,,,,,,,,,,,,,,,,,,,,,,,,,,750.0849,2,audio/Narrative6Situation7.wav,755.0963,,755.0964,779.9624,"[[999,0],[999,98],[999,181],[999,266],[999,348],[999,432],[999,515],[999,597],[999,680],[999,764],[999,848],[999,933],[999,1013],[999,1097],[999,1181],[999,1264],[999,1347],[999,1432],[999,1515],[999,1597],[999,1680],[999,1765],[999,1847],[999,1931],[999,2015],[999,2097],[62,2181],[62,2263],[62,2346],[62,2430],[62,2513],[62,2596],[58.1,2679],[30.4,2762],[29,2846],[29,2930],[23.8,3013],[17.3,3095],[17.3,3179],[17.3,3262],[17.3,3346],[17.3,3428],[17.3,3512],[17.3,3596],[17.3,3679],[17.3,3762],[17.3,3846],[17.3,3928],[17.3,4012],[17.3,4095],[17.3,4178],[17.3,4263],[17.3,4344],[17.3,4429],[17.3,4511],[17.3,4594],[17.3,4678],[17.3,4762],[17.3,4845],[17.3,4928],[17.3,5011],[17.3,5095],[17.3,5178],[17.3,5261],[17.3,5344],[17.3,5427],[17.3,5511],[17.3,5594],[17.3,5677],[17.3,5761],[17.3,5844],[17.3,5928],[17.3,6011],[17.3,6094],[17.3,6178],[17.3,6261],[17.3,6344],[17.3,6426],[17.3,6510],[17.3,6594],[17.3,6677],[17.3,6760],[17.3,6844],[17.3,6927],[17.3,7009],[21.7,7093],[46.8,7176],[64.5,7260],[65.6,7343],[65.6,7426],[65.6,7509],[71.8,7593],[75.3,7675],[75.4,7759],[75.4,7843],[75.4,7926],[76.9,8010],[82.3,8093],[82.7,8176],[82.7,8259],[82.7,8343],[82.7,8426],[82.7,8509],[82.7,8591],[85.7,8675],[87.3,8759],[87.3,8842],[87.3,8925],[87.3,9009],[87.3,9092],[87.3,9175],[87.3,9258],[87.3,9342],[87.3,9425],[87.3,9509],[87.3,9592],[87.3,9675],[87.3,9758],[87.3,9842],[87.7,9925],[88.7,10008],[88.7,10092],[88.7,10175],[88.7,10258],[88.7,10341],[88.7,10424],[88.7,10509],[88.7,10591],[88.7,10675],[88.7,10757],[88.7,10840],[88.7,10924],[88.7,11007],[88.7,11090],[88.7,11174],[88.7,11258],[88.7,11341],[88.7,11423],[88.7,11507],[88.7,11591],[88.7,11674],[88.7,11757],[88.7,11840],[88.7,11923],[90.7,12006],[94.1,12091],[94.8,12173],[94.8,12257],[94.8,12341],[94.8,12424],[94.8,12506],[94.8,12589],[94.8,12673],[94.8,12756],[94.8,12840],[94.8,12922],[94.9,13006],[95.2,13090],[95.3,13173],[95.4,13256],[96.3,13338],[96.8,13422],[97.4,13506],[97.8,13589],[97.8,13673],[97.8,13755],[97.8,13839],[97.7,13921],[97.7,14005],[97.7,14088],[97.7,14172],[97.7,14255],[97.7,14338],[97.7,14422],[97.7,14505],[97.7,14588],[97.7,14672],[97.7,14755],[97.7,14839],[97.7,14922],[97.7,15004],[97.7,15087],[97.7,15171],[97.7,15255],[97.7,15338],[97.7,15421],[97.7,15504],[97.7,15588],[97.7,15671],[97.6,15755],[97.6,15839],[97.5,15921],[97.5,16005],[97.5,16087],[97.5,16170],[97.5,16254],[97.5,16337],[97.5,16421],[97.5,16503],[97.5,16587],[97.5,16671],[97.5,16754],[97.5,16837],[97.5,16922],[97.5,17004],[97.5,17087],[97.5,17170],[97.5,17253],[97.5,17338],[97.5,17420],[97.5,17503],[97.5,17587],[97.5,17669],[97.5,17754],[97.5,17837],[97.5,17919],[97.5,18003],[97.5,18086],[97.5,18170],[97.5,18253],[97.5,18336],[97.5,18418],[97.5,18503],[97.5,18586],[97.5,18668],[97.5,18752],[97.5,18835],[97.5,18918],[97.5,19002],[97.5,19085],[97.5,19168],[97.5,19253],[97.5,19335],[97.5,19419],[97.5,19501],[97.5,19585],[97.5,19669],[97.5,19752],[97.5,19835],[97.5,19920],[97.5,20002],[97.5,20085],[97.5,20168],[97.5,20251],[97.5,20336],[97.5,20418],[97.5,20501],[97.5,20585],[97.5,20668],[97.5,20752],[97.5,20834],[97.5,20918],[97.5,21002],[97.5,21084],[97.5,21168],[97.5,21251],[97.5,21335],[97.5,21418],[97.5,21501],[97.5,21583],[97.5,21667],[97.5,21751],[97.5,21833],[97.5,21918],[97.5,22000],[97.5,22083],[97.5,22167],[97.5,22250],[97.5,22333],[97.5,22416],[97.5,22499],[97.5,22583],[97.5,22666],[97.5,22750],[97.5,22833],[97.5,22916],[97.5,23000],[97.5,23082],[97.5,23165],[97.5,23250],[97.5,23332],[97.5,23416],[97.5,23498],[97.5,23582],[97.5,23666],[97.5,23748],[97.5,23833],[97.5,23915],[97.5,23999],[97.5,24081],[97.5,24165],[97.5,24248],[97.5,24332],[97.5,24415],[97.5,24499],[97.5,24581],[97.5,24664],[97.5,24748],[97.5,24831]]",779.9626,783.5602,86.22305128,3.058,"[{""rating"":92.61272854275174,""responseTime"":2.5757999999523236},{""rating"":86.22305128309462,""responseTime"":3.0579999999999927}]",space,3.0508,,783.5603,Partially,50,783.5647,,,[],,0,7,7,7,1,audio/Narrative7Situation7.wav,audio/Narrative8Situation7.wav,audio/Narrative5Situation7.wav,audio/Narrative6Situation7.wav,5,3,4,5,,,,,,,,,,,,,,,,,,,,,,,,,,,,,,,,,,,,,,,
,,,,,6098164e4c37ed73ca9c74f5,2025-07-07_13h47.34.841,group3.4_multiperson,2023.2.2,MacIntel,59.52380952,686c2ebf0248f13bef9af11f,686c324dd5bef3e49ec2299a,,,,,,,,,,,,,,,,,,,,,,,,,,,,,783.5653,2,audio/Narrative6Situation8.wav,788.5737,,788.5738,795.4345,"[[86.1,1099],[56.4,2096],[55.8,2180],[55.8,2263],[55.8,2347],[55.8,2431],[55.8,2513],[55.8,2597],[55.8,2680],[55.8,2763],[55.8,2847],[55.8,2930],[55.8,3013],[54.5,3097],[53.8,3180],[53.5,3265],[53.5,3348],[53.5,3430],[53.5,3515],[53.5,3596],[53.5,3681],[53.5,3763],[53.5,3846],[53.5,3930],[53.5,4013],[53.5,4096],[53.5,4181],[53.5,4263],[53.3,4346],[29.4,4431],[14.3,4512],[14,4595],[14,4678],[13.6,4761],[11.5,4847],[9.6,4927],[9.5,5013],[9.5,5096],[9.5,5178],[9.3,5263],[6.7,5345],[6.2,5429],[6,5511],[3.5,5594],[3.4,5678],[3.4,5762],[3.4,5844],[3.4,5928],[3.4,6011],[3.4,6095],[3.4,6178],[3.4,6261],[3.4,6344],[3.4,6427],[3.4,6510],[3.4,6593],[3.4,6677],[3.4,6760],[3.4,6844]]",795.4347,798.1665,4.724214342,1.9738,"[{""rating"":4.72421434190538,""responseTime"":1.97380000001192}]",space,2.1881,,798.1665,Definitely yes,100,798.1705,,,[],,0,8,8,8,1,audio/Narrative7Situation8.wav,audio/Narrative8Situation8.wav,audio/Narrative5Situation8.wav,audio/Narrative6Situation8.wav,2,3,3,5,,,,,,,,,,,,,,,,,,,,,,,,,,,,,,,,,,,,,,,
,,,,,6098164e4c37ed73ca9c74f5,2025-07-07_13h47.34.841,group3.4_multiperson,2023.2.2,MacIntel,59.52380952,686c2ebf0248f13bef9af11f,686c324dd5bef3e49ec2299a,,,,,,,,,,,,,,,,,,,,,,,,,,,,,798.1708,2,audio/Narrative6Situation9.wav,802.1814,,802.1814,812.1414,"[[999,0],[999,99],[999,181],[999,265],[999,349],[999,431],[999,514],[999,599],[999,681],[999,764],[999,847],[999,940],[999,1031],[999,1115],[999,1198],[999,1282],[999,1365],[999,1447],[999,1533],[999,1615],[999,1699],[999,1781],[999,1864],[999,1949],[999,2030],[999,2114],[999,2197],[999,2280],[999,2364],[999,2447],[999,2530],[999,2614],[999,2696],[999,2782],[999,2865],[999,2947],[999,3029],[999,3114],[999,3197],[999,3279],[999,3363],[999,3446],[999,3529],[7,3613],[6.8,3695],[6.8,3779],[6.8,3863],[6.8,3946],[6.8,4029],[6.8,4112],[6.8,4196],[6.8,4280],[6.8,4362],[6.8,4445],[6.8,4530],[6.8,4612],[6.8,4696],[6.8,4779],[6.8,4862],[6.8,4946],[6.8,5028],[6.8,5112],[6.8,5196],[6.8,5278],[6.8,5363],[6.8,5445],[4.8,5527],[3.1,5612],[1.7,5695],[1.7,5779],[1.7,5864],[1.7,5945],[1.7,6029],[1.7,6112],[1.7,6195],[1.7,6277],[1.7,6362],[1.7,6444],[1.7,6527],[1.7,6611],[1.7,6695],[1.7,6777],[1.7,6860],[1.7,6944],[1.7,7027],[1.7,7111],[1.7,7194],[1.7,7277],[1.7,7360],[1.7,7444],[1.6,7527],[1.3,7610],[1,7693],[0.4,7776],[0.3,7860],[0.3,7943],[0.3,8027],[0.3,8110],[0.3,8194],[0.3,8277],[0.3,8360],[0.3,8444],[0.3,8526],[0.3,8610],[0.3,8693],[0.3,8776],[0.3,8860],[0.3,8943],[0.3,9025],[0.3,9109],[0.3,9192],[0.3,9277],[0.3,9359],[0.3,9442],[0.3,9525],[0.3,9609],[0.3,9693],[0.3,9775],[0.3,9859],[0.3,9942]]",812.1416,814.1569,0.542678833,1.4788,"[{""rating"":0.5426788330078147,""responseTime"":1.4788000000119155}]",space,1.4637,,814.157,Not at all,0,816.4554,0.542678833,1.3918,"[{""rating"":0.5426788330078147,""responseTime"":1.3918000000119264}]",space,0,9,9,9,1,audio/Narrative7Situation9.wav,audio/Narrative8Situation9.wav,audio/Narrative5Situation9.wav,audio/Narrative6Situation9.wav,2,3,3,4,,,1.7513,,,,,,,,,,,,,,,,,,,,,,,,,,,,,,,,,,,,
,,,,,6098164e4c37ed73ca9c74f5,2025-07-07_13h47.34.841,group3.4_multiperson,2023.2.2,MacIntel,59.52380952,686c2ebf0248f13bef9af11f,686c324dd5bef3e49ec2299a,,,,,,,,,,,,,,,,,,,,,,,,,,,,,816.4559,2,audio/Narrative5Situation1.wav,821.4678,,821.468,834.7601,"[[42.7,2747],[46.4,2831],[47.1,2914],[47.1,2998],[47.1,3080],[47.1,3165],[50.5,3247],[51.6,3331],[51.6,3414],[51.6,3497],[53.4,3580],[64.1,3665],[64.9,3747],[64.9,3830],[65.3,3913],[79.5,3996],[81.7,4081],[81.7,4163],[81.7,4246],[83.1,4332],[85.8,4414],[85.8,4498],[85.8,4580],[85.8,4662],[85.8,4748],[85.8,4829],[85.8,4912],[85.8,4998],[85.8,5078],[85.8,5163],[85.8,5246],[85.8,5329],[85.8,5413],[85.8,5496],[85.8,5579],[85.8,5663],[85.8,5745],[85.8,5828],[85.8,5911],[85.8,5995],[85.8,6078],[85.8,6161],[85.8,6246],[85.8,6328],[85.8,6411],[85.8,6495],[85.8,6578],[85.8,6662],[85.8,6744],[85.8,6827],[85.8,6911],[85.8,6995],[85.8,7078],[85.8,7161],[85.8,7244],[85.8,7328],[85.8,7411],[85.8,7494],[85.8,7579],[85.8,7661],[85.8,7744],[85.8,7827],[85.8,7910],[85.8,7994],[85.8,8077],[85.8,8161],[85.8,8244],[85.8,8327],[85.8,8411],[85.8,8494],[85.8,8577],[85.8,8660],[85.8,8743],[85.8,8827],[85.8,8910],[85.8,8994],[85.8,9077],[85.8,9160],[85.8,9243],[85.8,9326],[85.8,9410],[85.8,9494],[85.8,9576],[85.8,9660],[85.8,9744],[85.8,9826],[85.8,9910],[85.8,9992],[85.8,10076],[85.8,10160],[85.8,10243],[85.8,10326],[85.8,10409],[85.8,10493],[85.8,10577],[85.8,10659],[85.8,10742],[85.8,10825],[86.2,10908],[87.4,10994],[87.7,11076],[87.7,11158],[87.7,11243],[87.7,11326],[87.7,11408],[87.7,11492],[87.7,11575],[87.7,11657],[87.7,11741],[87.7,11825],[87.7,11908],[87.7,11991],[87.7,12075],[87.7,12158],[87.7,12241],[87.7,12324],[87.7,12408],[87.7,12491],[87.7,12574],[87.7,12658],[87.7,12742],[87.7,12824],[87.7,12908],[87.7,12991],[87.7,13074],[87.7,13158],[87.7,13240]]",834.7603,836.9406,77.58271959,1.6409,"[{""rating"":77.58271959092882,""responseTime"":1.6408999999762273}]",space,1.6343,,836.9408,Partially,50,836.9463,,,[],,0,10,10,10,1,audio/Narrative8Situation1.wav,audio/Narrative7Situation1.wav,audio/Narrative6Situation1.wav,audio/Narrative5Situation1.wav,5,2,2,5,,,,,,,,,,,,,,,,,,,,,,,,,,,,,,,,,,,,,,,
,,,,,6098164e4c37ed73ca9c74f5,2025-07-07_13h47.34.841,group3.4_multiperson,2023.2.2,MacIntel,59.52380952,686c2ebf0248f13bef9af11f,686c324dd5bef3e49ec2299a,,,,,,,,,,,,,,,,,,,,,,,,,,,,,836.9467,2,audio/Narrative5Situation2.wav,839.9561,,839.9562,869.4189,"[[999,0],[999,83],[999,165],[999,248],[999,331],[999,415],[999,499],[999,582],[999,665],[999,748],[999,831],[999,915],[999,997],[999,1081],[999,1165],[999,1247],[999,1331],[999,1414],[999,1497],[999,1582],[999,1664],[999,1747],[999,1831],[999,1913],[999,1998],[999,2080],[999,2164],[999,2248],[999,2331],[999,2414],[999,2498],[999,2580],[999,2664],[999,2747],[999,2830],[999,2914],[999,2997],[999,3080],[999,3163],[999,3247],[999,3331],[999,3413],[999,3496],[999,3581],[999,3662],[999,3747],[999,3829],[999,3913],[999,3996],[999,4079],[999,4163],[999,4246],[999,4328],[999,4413],[999,4495],[999,4579],[999,4662],[999,4746],[52.8,4830],[52.6,4911],[52.6,4995],[52.6,5078],[52.6,5162],[52.6,5245],[52.6,5329],[52.6,5412],[52.6,5495],[52.6,5578],[52.6,5662],[52.6,5745],[52.6,5828],[52.6,5912],[52.6,5994],[52.6,6078],[52.6,6162],[52.6,6246],[52.6,6328],[52.6,6410],[52.6,6494],[52.6,6579],[52.6,6660],[52.6,6744],[52.6,6829],[52.6,6911],[52.6,6995],[57.9,7077],[70.5,7162],[74.5,7271],[74.5,7344],[74.5,7427],[74.5,7510],[77.6,7594],[79.4,7677],[80.2,7760],[81.1,7844],[81.2,7927],[81.2,8011],[81.2,8093],[81.2,8176],[81.4,8260],[84.2,8344],[84.4,8426],[84.4,8510],[84.4,8594],[84.4,8676],[84.4,8759],[84.4,8843],[84.4,8926],[84.4,9010],[84.4,9093],[84.4,9176],[84.4,9259],[84.4,9342],[93.4,9427],[96.6,9509],[96.7,9593],[96.7,9677],[96.7,9758],[96.7,9843],[96.7,9926],[96.7,10009],[96.7,10091],[96.7,10174],[96.7,10259],[96.7,10341],[96.7,10425],[96.7,10509],[96.7,10591],[96.7,10675],[96.7,10758],[96.7,10841],[96.7,10926],[96.7,11008],[96.7,11091],[96.7,11175],[96.7,11258],[96.7,11341],[96.7,11425],[96.7,11508],[96.7,11592],[96.7,11674],[96.7,11758],[96.7,11841],[96.7,11924],[96.7,12008],[96.7,12090],[96.7,12174],[96.7,12258],[96.7,12340],[96.7,12424],[96.7,12507],[96.7,12589],[96.7,12675],[96.7,12757],[74.2,12840],[42,12923],[41.3,13007],[41.3,13091],[39.7,13176],[22.6,13258],[19.9,13340],[19.9,13424],[19.8,13507],[19.1,13593],[18.6,13674],[18.2,13758],[18.2,13839],[18.2,13922],[18.2,14005],[18.2,14089],[18.2,14172],[18.2,14256],[18.2,14340],[43.7,14424],[70.2,14505],[70.8,14589],[70.8,14672],[73.8,14756],[82.8,14838],[84.2,14922],[84.2,15005],[84.2,15089],[84.2,15172],[84.2,15255],[84.2,15339],[84.2,15422],[84.2,15506],[84.2,15587],[84.2,15672],[84.2,15755],[84.2,15838],[84.2,15922],[84.2,16005],[84.2,16088],[84.2,16172],[84.2,16255],[84.2,16338],[84.2,16422],[84.2,16504],[84.2,16588],[84.2,16671],[84.2,16754],[84.2,16838],[84.2,16920],[81.9,17004],[42.3,17088],[36.4,17170],[36.4,17254],[30.9,17338],[18.1,17421],[17,17504],[17,17587],[17,17669],[17,17754],[17,17837],[17,17921],[17,18004],[17,18088],[17,18170],[17,18253],[17,18337],[17,18420],[17,18504],[17,18586],[17,18669],[17,18752],[17,18836],[17,18919],[17,19003],[17,19085],[17,19170],[17,19252],[17,19335],[17,19420],[17,19503],[17,19586],[17,19669],[17,19753],[17,19836],[17,19918],[17.9,20002],[21.1,20086],[21.5,20168],[21.5,20251],[27.4,20335],[62.1,20418],[67.2,20502],[67.2,20585],[67.2,20669],[67.2,20751],[70.1,20834],[76.5,20917],[76.6,21002],[76.6,21085],[76.6,21168],[76.6,21251],[78.6,21335],[81.4,21418],[81.6,21501],[81.6,21585],[81.6,21668],[81.6,21752],[81.6,21835],[81.6,21917],[81.6,22001],[81.6,22084],[81.6,22167],[81.6,22251],[81.6,22333],[81.6,22416],[81.6,22501],[81.6,22583],[81.6,22667],[86.6,22750],[88.9,22835],[89,22917],[89,23000],[89,23084],[89,23167],[89,23250],[89,23333],[89,23416],[89,23499],[89,23583],[89,23666],[89,23750],[89,23833],[89,23917],[89,23999],[89,24082],[89,24165],[89.8,24249],[90,24332],[90,24416],[90,24499],[90,24582],[90,24665],[90,24748],[90,24833],[90,24915],[90,25000],[90,25083],[90,25165],[90,25249],[90,25332],[90,25415],[90,25499],[90,25581],[90,25665],[90,25750],[89.4,25833],[89.3,25915],[89.3,25998],[89.3,26081],[89.3,26164],[79.1,26249],[46.5,26331],[44.5,26415],[44.5,26498],[44.5,26582],[41.9,26664],[35.5,26748],[35.5,26831],[35.5,26914],[32.7,26997],[21.9,27080],[19.5,27163],[19.5,27248],[19.5,27330],[13.7,27413],[7.8,27497],[7.8,27581],[7.8,27663],[7.8,27747],[7.8,27830],[7.8,27913],[7.8,27997],[7.8,28080],[7.8,28163],[7.8,28246],[7.8,28330],[7.8,28413],[7.8,28496],[7.8,28580],[7.8,28663],[7.8,28745],[7.8,28830],[7.8,28912],[7.8,28996],[7.8,29080],[7.8,29163],[7.8,29245],[7.8,29329],[7.8,29413]]",869.4195,873.1164,56.28691779,3.2245,"[{""rating"":56.286917792426216,""responseTime"":3.2245000000000346}]",space,3.1489,,873.1166,Definitely yes,100,873.1223,,,[],,0,11,11,11,1,audio/Narrative8Situation2.wav,audio/Narrative7Situation2.wav,audio/Narrative6Situation2.wav,audio/Narrative5Situation2.wav,3,3,3,3,,,,,,,,,,,,,,,,,,,,,,,,,,,,,,,,,,,,,,,
,,,,,6098164e4c37ed73ca9c74f5,2025-07-07_13h47.34.841,group3.4_multiperson,2023.2.2,MacIntel,59.52380952,686c2ebf0248f13bef9af11f,686c324dd5bef3e49ec2299a,,,,,,,,,,,,,,,,,,,,,,,,,,,,,873.123,2,audio/Narrative5Situation3.wav,876.1318,,876.1318,890.0552,"[[999,0],[999,99],[999,181],[999,265],[999,349],[999,432],[999,515],[999,599],[999,682],[999,765],[999,849],[999,932],[999,1015],[999,1099],[999,1181],[999,1265],[999,1348],[999,1432],[999,1515],[999,1598],[999,1681],[999,1765],[999,1848],[999,1931],[999,2014],[999,2098],[21.6,2182],[14.8,2264],[14.8,2348],[13.6,2431],[13.1,2514],[13.1,2597],[13.2,2680],[13.2,2765],[14.3,2848],[47.3,2931],[50.5,3016],[50.5,3097],[57.1,3181],[78.6,3264],[78.8,3346],[78.8,3430],[80.3,3514],[81.6,3597],[81.6,3680],[81.6,3763],[81.6,3848],[81.6,3929],[81.6,4013],[81.6,4096],[81.6,4179],[81.6,4262],[81.6,4346],[81.6,4430],[81.6,4512],[81.6,4596],[81.6,4680],[81.6,4762],[81.6,4846],[81.6,4929],[81.6,5012],[81.6,5096],[81.6,5179],[81.6,5262],[81.6,5346],[81.6,5429],[81.6,5513],[81.6,5595],[81.6,5679],[81.6,5763],[81.6,5845],[85.5,5929],[87.7,6013],[87.8,6095],[87.8,6178],[87.9,6262],[90.5,6345],[90.7,6429],[90.7,6512],[90.7,6596],[90.7,6678],[90.7,6763],[90.7,6846],[90.7,6927],[90.7,7012],[90.7,7096],[90.7,7177],[90.7,7262],[90.7,7345],[90.7,7427],[90.7,7512],[90.7,7595],[90.7,7677],[90.7,7760],[90.7,7844],[90.7,7928],[90.7,8011],[90.7,8094],[90.7,8177],[90.7,8261],[90.7,8344],[90.7,8427],[90.7,8510],[90.7,8595],[90.7,8677],[90.7,8759],[90.7,8844],[90.7,8927],[90.7,9010],[90.7,9093],[90.7,9176],[90.7,9260],[90.7,9342],[90.7,9426],[90.7,9510],[90.7,9592],[90.7,9677],[90.7,9759],[90.7,9842],[90.7,9926],[90.7,10009],[90.7,10093],[90.7,10176],[90.7,10259],[90.7,10342],[90.7,10426],[90.7,10509],[90.7,10592],[90.7,10676],[90.7,10759],[90.7,10842],[90.7,10925],[90.7,11009],[90.7,11091],[90.7,11176],[90.7,11259],[90.7,11341],[90.7,11425],[90.7,11508],[90.7,11591],[90.7,11675],[90.8,11758],[92.2,11840],[93,11925],[93.2,12008],[93.3,12091],[93.2,12174],[93.2,12258],[93.2,12341],[93.2,12424],[93.2,12508],[93.2,12591],[93.2,12674],[93.2,12758],[93.2,12840],[93.2,12924],[93.2,13007],[77.5,13090],[53,13173],[51.6,13256],[51.6,13341],[51.6,13424],[51.6,13507],[53.6,13590],[72.6,13673],[80.5,13758],[80.8,13839],[80.8,13923]]",890.0554,893.57,69.26610311,3.1113,"[{""rating"":84.02802361382378,""responseTime"":2.0109999999999673},{""rating"":69.26610310872397,""responseTime"":3.111300000011852}]",space,2.9868,,893.57,Not at all,0,893.5737,,,[],,0,12,12,12,1,audio/Narrative8Situation3.wav,audio/Narrative7Situation3.wav,audio/Narrative6Situation3.wav,audio/Narrative5Situation3.wav,4,8,5,3,,,,,,,,,,,,,,,,,,,,,,,,,,,,,,,,,,,,,,,
,,,,,6098164e4c37ed73ca9c74f5,2025-07-07_13h47.34.841,group3.4_multiperson,2023.2.2,MacIntel,59.52380952,686c2ebf0248f13bef9af11f,686c324dd5bef3e49ec2299a,,,,,,,,,,,,,,,,,,,,,,,,,,,,,893.5741,2,audio/Narrative5Situation4.wav,894.5863,,894.5864,914.988,"[[82.5,2348],[85.2,2430],[85.2,2514],[85.2,2598],[85.8,2680],[86.5,2764],[87.2,2847],[89.5,2931],[90.1,3015],[90.1,3097],[90.1,3180],[90.1,3265],[90.1,3347],[90.1,3430],[90.1,3514],[90.1,3596],[90.1,3681],[90.1,3763],[90.1,3846],[90.1,3930],[90.1,4013],[90.1,4097],[90.1,4179],[90.1,4262],[90.1,4347],[90.1,4430],[90.1,4513],[90.1,4596],[90.1,4679],[90.1,4763],[90.1,4845],[90.1,4929],[90.1,5012],[90.1,5095],[90.1,5180],[90.1,5262],[90.1,5345],[90.1,5428],[90.1,5511],[90.1,5595],[90.1,5678],[90.1,5761],[90.1,5844],[90.1,5928],[14.7,6345],[16.9,6428],[16.5,6511],[16,6595],[15.9,6678],[15.8,6761],[15.8,6844],[15.8,6929],[15.8,7011],[15.8,7095],[15.8,7177],[15.8,7261],[15.8,7345],[15.8,7428],[15.8,7511],[15.8,7594],[15.8,7676],[15.8,7762],[15.8,7844],[15.8,7927],[15.8,8012],[15.8,8094],[15.8,8177],[15.8,8261],[15.8,8343],[15.8,8428],[15.8,8511],[15.8,8593],[15.8,8678],[15.8,8760],[15.8,8844],[15.8,8926],[25.3,9009],[60.2,9095],[65.8,9175],[65.8,9259],[65.8,9342],[67.2,9426],[75.5,9509],[78.5,9593],[79.1,9676],[79.6,9760],[79.6,9842],[79.6,9926],[79.6,10009],[79.6,10092],[79.6,10175],[79.6,10259],[79.6,10342],[79.6,10424],[79.6,10508],[79.6,10591],[79.6,10675],[79.6,10758],[79.6,10841],[79.6,10925],[79.6,11009],[79.6,11092],[79.6,11174],[79.6,11259],[79.6,11341],[79.6,11425],[79.6,11508],[79.6,11590],[79.6,11674],[79.6,11758],[79.6,11841],[79.6,11924],[79.6,12007],[79.6,12091],[79.6,12174],[79.6,12257],[79.6,12340],[79.6,12423],[79.6,12509],[79.6,12590],[79.6,12673],[79.6,12758],[79.6,12841],[79.6,12924],[79.6,13008],[79.6,13089],[79.6,13175],[79.6,13258],[79.6,13340],[79.6,13425],[79.6,13507],[79.6,13590],[79.6,13674],[79.6,13756],[79.6,13841],[79.6,13922],[79.6,14006],[79.6,14090],[79.6,14172],[79.6,14257],[79.6,14340],[79.6,14422],[79.6,14505],[79.6,14590],[79.6,14672],[79.6,14756],[79.6,14839],[79.6,14923],[79.6,15005],[79.6,15089],[79.6,15172],[79.6,15256],[79.6,15339],[79.6,15422],[79.6,15505],[79.6,15588],[79.6,15672],[79.6,15756],[79.6,15839],[79.6,15922],[79.6,16006],[79.6,16088],[82,16172],[84,16255],[85.2,16339],[85.5,16422],[85.5,16505],[85.5,16587],[85.6,16671],[89.1,16755],[90.1,16838],[90.3,16920],[90.3,17004],[90.3,17087],[90.3,17170],[90.3,17255],[90.3,17337],[90.3,17420],[90.3,17505],[90.3,17587],[90.3,17670],[90.3,17754],[90.3,17837],[90.3,17921],[90.3,18004],[90.3,18087],[90.3,18170],[90.3,18254],[90.3,18337],[90.3,18420],[90.3,18503],[90.3,18586],[90.3,18670],[90.3,18752],[90.3,18837],[90.3,18920],[90.3,19004],[90.3,19087],[90.3,19170],[90.3,19252],[90.3,19337],[90.7,19420],[92.7,19502],[93.6,19586],[94,19670],[94.5,19752],[95.6,19836],[97.6,19918],[97.7,20002],[97.7,20086],[97.7,20169],[97.7,20252],[97.7,20335]]",914.9882,917.7202,64.90169101,1.9747,"[{""rating"":64.90169101291232,""responseTime"":1.9746999999880472}]",space,2.2024,,917.7202,Not at all,0,917.7233,,,[],,0,13,13,13,1,audio/Narrative8Situation4.wav,audio/Narrative7Situation4.wav,audio/Narrative6Situation4.wav,audio/Narrative5Situation4.wav,3,3,2,1,,,,,,,,,,,,,,,,,,,,,,,,,,,,,,,,,,,,,,,
