consent.started,consent.stopped,consentResponse.keys,consentResponse.rt,consentResponse.duration,participantID,date,expName,psychopyVersion,OS,frameRate,STUDY_ID,SESSION_ID,opening1.started,opening1.stopped,keyEndingOpening1.keys,keyEndingOpening1.rt,keyEndingOpening1.duration,volumeAdjust.started,volumeAdjust.stopped,endingAdjust.keys,endingAdjust.rt,endingAdjust.duration,opening2.started,opening2.stopped,keyEndingOpening.keys,keyEndingOpening.rt,keyEndingOpening.duration,mouse.x,mouse.y,mouse.leftButton,mouse.midButton,mouse.rightButton,mouse.time,instructionLoop.thisRepN,instructionLoop.thisTrialN,instructionLoop.thisN,instructionLoop.thisIndex,instructionLoop.ran,readyForAudio.started,readyForAudio.stopped,fixation.started,run,audio_played,fixation.stopped,endPractice.keys,audioPre.started,audioPre.stopped,continuousResponses_audio,intRating.started,intRating.stopped,intQuestionSlider.response,intQuestionSlider.rt,intQuestionSlider.history,confirmResponse.keys,confirmResponse.rt,confirmResponse.duration,catchQuestion.started,catch_label,catch_value,catchQuestion.stopped,catchQuestionSlider.response,catchQuestionSlider.rt,catchQuestionSlider.history,confirmResponse_2.keys,audioRunLoop.thisRepN,audioRunLoop.thisTrialN,audioRunLoop.thisN,audioRunLoop.thisIndex,audioRunLoop.ran,conditions1_1,conditions2_1,conditions1_2,conditions2_2,dur1_1,dur2_1,dur1_2,dur2_2,endPractice.rt,endPractice.duration,confirmResponse_2.rt,confirmResponse_2.duration,runIntervalBreak.started,runIntervalBreak.stopped,endingBreakKey.keys,endingBreakKey.rt,endingBreakKey.duration,connection.started,connection.stopped,connectionEnding.keys,connectionEnding.rt,connectionEnding.duration,readyForText.started,readyForText.stopped,textPre.started,run_dup,textPre.stopped,continuousResponses_text,textRunLoop.thisRepN,textRunLoop.thisTrialN,textRunLoop.thisN,textRunLoop.thisIndex,textRunLoop.ran,text1_1,text1_2,text2_1,text2_2,runBreakText.started,runBreakText.stopped,endingBreakKey_2.keys,endingBreakKey_2.rt,endingBreakKey_2.duration,ending.started,ending.stopped,endingEnding.keys,endingEnding.rt,endingEnding.duration
9.99999E-05,13.7907,y,13.4672,,6113ffbf45e79bc2769db74c,2025-07-07_21h38.44.432,group3.4_multiperson,2023.2.2,MacIntel,61.72839506,686c2ebf0248f13bef9af11f,686c8449b831e9279f536b1c,,,,,,,,,,,,,,,,,,,,,,,,,,,,,,,,,,,,,,,,,,,,,,,,,,,,,,,,,,,,,,,,,,,,,,,,,,,,,,,,,,,,,,,,,,,,,,,,,,,,,,,,
,,,,,6113ffbf45e79bc2769db74c,2025-07-07_21h38.44.432,group3.4_multiperson,2023.2.2,MacIntel,61.72839506,686c2ebf0248f13bef9af11f,686c8449b831e9279f536b1c,13.7909,23.2752,space,9.4559,,,,,,,,,,,,,,,,,,,,,,,,,,,,,,,,,,,,,,,,,,,,,,,,,,,,,,,,,,,,,,,,,,,,,,,,,,,,,,,,,,,,,,,,,,,,,,,,,,,,
,,,,,6113ffbf45e79bc2769db74c,2025-07-07_21h38.44.432,group3.4_multiperson,2023.2.2,MacIntel,61.72839506,686c2ebf0248f13bef9af11f,686c8449b831e9279f536b1c,,,,,,23.2755,67.959,space,44.3507,,,,,,,,,,,,,,,,,,,,,,,,,,,,,,,,,,,,,,,,,,,,,,,,,,,,,,,,,,,,,,,,,,,,,,,,,,,,,,,,,,,,,,,,,,,,,,,
,,,,,6113ffbf45e79bc2769db74c,2025-07-07_21h38.44.432,group3.4_multiperson,2023.2.2,MacIntel,61.72839506,686c2ebf0248f13bef9af11f,686c8449b831e9279f536b1c,,,,,,,,,,,67.9659,74.926,space,6.9355,,[],[],[],[],[],[],0,0,0,0,1,,,,,,,,,,,,,,,,,,,,,,,,,,,,,,,,,,,,,,,,,,,,,,,,,,,,,,,,,,,,,,,,,,,,,,,,,,,,,,
,,,,,6113ffbf45e79bc2769db74c,2025-07-07_21h38.44.432,group3.4_multiperson,2023.2.2,MacIntel,61.72839506,686c2ebf0248f13bef9af11f,686c8449b831e9279f536b1c,,,,,,,,,,,74.927,101.3928,space,26.4092,,[],[],[],[],[],[],1,0,1,0,1,,,,,,,,,,,,,,,,,,,,,,,,,,,,,,,,,,,,,,,,,,,,,,,,,,,,,,,,,,,,,,,,,,,,,,,,,,,,,,
,,,,,6113ffbf45e79bc2769db74c,2025-07-07_21h38.44.432,group3.4_multiperson,2023.2.2,MacIntel,61.72839506,686c2ebf0248f13bef9af11f,686c8449b831e9279f536b1c,,,,,,,,,,,101.3936,112.7429,space,11.3103,,[],[],[],[],[],[],2,0,2,0,1,,,,,,,,,,,,,,,,,,,,,,,,,,,,,,,,,,,,,,,,,,,,,,,,,,,,,,,,,,,,,,,,,,,,,,,,,,,,,,
,,,,,6113ffbf45e79bc2769db74c,2025-07-07_21h38.44.432,group3.4_multiperson,2023.2.2,MacIntel,61.72839506,686c2ebf0248f13bef9af11f,686c8449b831e9279f536b1c,,,,,,,,,,,112.7437,151.9087,space,39.1377,,[],[],[],[],[],[],3,0,3,0,1,,,,,,,,,,,,,,,,,,,,,,,,,,,,,,,,,,,,,,,,,,,,,,,,,,,,,,,,,,,,,,,,,,,,,,,,,,,,,,
,,,,,6113ffbf45e79bc2769db74c,2025-07-07_21h38.44.432,group3.4_multiperson,2023.2.2,MacIntel,61.72839506,686c2ebf0248f13bef9af11f,686c8449b831e9279f536b1c,,,,,,,,,,,151.9095,168.1765,space,16.2245,,[],[],[],[],[],[],4,0,4,0,1,,,,,,,,,,,,,,,,,,,,,,,,,,,,,,,,,,,,,,,,,,,,,,,,,,,,,,,,,,,,,,,,,,,,,,,,,,,,,,
,,,,,6113ffbf45e79bc2769db74c,2025-07-07_21h38.44.432,group3.4_multiperson,2023.2.2,MacIntel,61.72839506,686c2ebf0248f13bef9af11f,686c8449b831e9279f536b1c,,,,,,,,,,,168.1769,204.3777,space,36.1757,,[],[],[],[],[],[],5,0,5,0,1,,,,,,,,,,,,,,,,,,,,,,,,,,,,,,,,,,,,,,,,,,,,,,,,,,,,,,,,,,,,,,,,,,,,,,,,,,,,,,
,,,,,6113ffbf45e79bc2769db74c,2025-07-07_21h38.44.432,group3.4_multiperson,2023.2.2,MacIntel,61.72839506,686c2ebf0248f13bef9af11f,686c8449b831e9279f536b1c,,,,,,,,,,,,,,,,,,,,,,,,,,,204.3814,206.9611,206.9886,1,audio/Narrative13Situation2.wav,208.9942,,208.9945,238.7452,"[[999,4],[999,99],[999,182],[999,266],[999,349],[999,431],[999,515],[999,599],[999,682],[999,766],[999,849],[999,932],[999,1015],[999,1099],[999,1181],[999,1265],[999,1349],[999,1432],[999,1516],[999,1599],[999,1682],[999,1765],[999,1849],[999,1931],[999,2016],[999,2098],[999,2182],[999,2266],[999,2349],[999,2432],[999,2516],[999,2599],[999,2682],[999,2766],[999,2849],[999,2932],[999,3016],[999,3099],[999,3182],[999,3266],[999,3348],[999,3431],[999,3516],[999,3599],[999,3682],[999,3764],[999,3849],[999,3932],[999,4016],[999,4099],[999,4182],[999,4265],[999,4349],[999,4432],[999,4515],[999,4599],[999,4682],[999,4766],[999,4848],[999,4932],[999,5016],[999,5099],[999,5182],[999,5265],[999,5349],[999,5432],[999,5516],[999,5599],[999,5682],[999,5765],[999,5848],[999,5932],[999,6016],[999,6099],[999,6182],[999,6266],[999,6349],[999,6433],[999,6515],[999,6599],[999,6682],[999,6766],[999,6849],[999,6932],[999,7016],[999,7099],[999,7182],[999,7266],[999,7349],[999,7432],[999,7516],[999,7599],[999,7682],[999,7766],[999,7849],[999,7932],[999,8016],[999,8099],[999,8182],[999,8266],[999,8348],[999,8432],[999,8516],[999,8599],[999,8682],[999,8766],[999,8848],[999,8932],[999,9017],[999,9099],[81.6,9599],[81.6,9682],[81.6,9765],[81.6,9849],[81.6,9932],[84.1,10016],[87.7,10099],[89.8,10182],[91.7,10266],[92.6,10350],[93.1,10432],[95.1,11183],[94.7,11266],[94.3,11350],[94.3,11432],[94.3,11516],[94.3,11599],[94.3,11682],[94.3,11766],[94.3,11849],[94.3,11932],[94.3,12016],[94.3,12099],[94.3,12182],[87.1,12266],[85.4,12349],[87.6,12432],[90.2,12516],[91.4,12599],[93.3,12683],[94.9,12766],[96.7,12850],[97.8,12932],[98,13016],[98.6,13100],[98.7,13182],[98.7,13265],[98.7,13348],[98.7,13432],[98.7,13516],[100,13599],[100,13683],[100,13766],[100,13849],[100,13932],[100,14016],[100,14099],[100,14183],[100,14266],[100,14349],[100,14432],[100,14515],[100,14599],[100,14682],[100,14766],[100,14849],[94.5,14933],[88.2,15016],[87.5,15099],[87.5,15183],[88.6,15266],[95.2,15350],[97.3,15433],[97.4,15516],[97.4,15599],[97.4,15683],[97.4,15766],[97.4,15849],[97.4,15933],[97.4,16016],[97.4,16099],[97.4,16183],[97.4,16266],[97.4,16348],[97.4,16433],[97.4,16516],[97.4,16599],[97.4,16682],[97.4,16764],[97.4,16849],[97.4,16932],[97.4,17016],[97.4,17099],[97.4,17183],[97.4,17265],[97.4,17349],[97.4,17432],[97.4,17515],[97.4,17598],[97.4,17682],[97.4,17766],[97.4,17849],[97.4,17932],[97.4,18016],[97.4,18099],[97.4,18182],[97.4,18266],[97.4,18349],[97.4,18432],[97.4,18515],[97.4,18599],[97.4,18683],[97.4,18766],[97.4,18849],[97.4,18932],[97.4,19016],[97.4,19099],[97.4,19183],[97.4,19266],[97.4,19349],[97.4,19432],[97.4,19516],[97.4,19599],[97.4,19683],[97.4,19766],[97.4,19849],[97.4,19933],[100,20016],[95,20183],[91.8,20266],[91,20350],[90.6,20433],[90.6,20516],[90.6,20599],[90.6,20682],[90.6,20765],[90.6,20849],[90.6,20932],[90.6,21016],[90.6,21098],[90.6,21182],[90.6,21266],[90.6,21349],[90.6,21433],[90.6,21515],[90.6,21599],[90.6,21683],[90.6,21766],[91.3,21849],[93,21933],[93.8,22016],[95.6,22100],[98.6,22183],[99.5,22265],[99.5,22349],[99.5,22433],[99.5,22516],[99.5,22599],[99.5,22682],[99.5,22766],[99.5,22849],[99.5,22932],[99.5,23015],[99.5,23098],[99.5,23183],[99.5,23266],[99.5,23349],[99.5,23433],[99.5,23516],[99.5,23599],[99.5,23683],[99.5,23766],[99.5,23849],[99.5,23933],[99.5,24016],[99.5,24100],[99.5,24183],[99.5,24266],[99.5,24348],[99.5,24433],[99.5,24516],[99.5,24599],[99.5,24683],[99.5,24766],[99.5,24849],[99.5,24932],[99.5,25016],[99.5,25099],[99.5,25183],[99.5,25266],[99.5,25349],[99.5,25433],[99.5,25516],[99.5,25599],[99.5,25682],[99.5,25765],[99.5,25849],[99.5,25933],[99.5,26016],[99.5,26098],[99.5,26183],[99.5,26266],[99.5,26349],[99.5,26432],[99.5,26515],[99.5,26599],[99.5,26683],[99.5,26765],[99.5,26849],[99.5,26932],[99.5,27016],[99.5,27099],[99.5,27183],[99.5,27266],[99.5,27349],[99.5,27433],[99.5,27516],[99.5,27599],[99.5,27683],[99.5,27766],[99.5,27849],[99.5,27933],[99.5,28015],[99.5,28099],[99.5,28182],[99.5,28266],[99.5,28349],[99.5,28433],[99.5,28515],[99.5,28599],[99.5,28683],[99.5,28766],[99.5,28849],[99.5,28933],[99.5,29016],[99.5,29098],[99.5,29183],[99.5,29266],[99.5,29349],[99.5,29432],[99.5,29516],[99.5,29599],[99.5,29683]]",238.7457,247.7606,97.91991967,4.8961,"[{""rating"":97.91991967082146,""responseTime"":4.896099999904607}]",space,8.4678,,247.7609,Not at all,0,247.766,,,[],,0,0,0,0,1,audio/Narrative13Situation2.wav,audio/Narrative13Situation2.wav,audio/Narrative13Situation2.wav,audio/Narrative13Situation2.wav,2,2,2,2,,,,,,,,,,,,,,,,,,,,,,,,,,,,,,,,,,,,,,,
,,,,,6113ffbf45e79bc2769db74c,2025-07-07_21h38.44.432,group3.4_multiperson,2023.2.2,MacIntel,61.72839506,686c2ebf0248f13bef9af11f,686c8449b831e9279f536b1c,,,,,,,,,,,,,,,,,,,,,,,,,,,,,247.7664,1,audio/Narrative7Situation1.wav,252.7784,space,252.7785,308.6789,"[[100,7166],[100,7249],[99.9,7333],[99.8,7416],[99.4,7499],[98.9,7583],[98.6,7666],[98.4,7749],[98.3,7832],[98.3,7915],[98.3,7999],[98.3,8082],[98.3,8166],[98.3,8249],[98.3,8332],[98.3,8416],[98.3,8498],[98.3,8582],[98.3,8666],[98.3,8749],[98.3,8832],[98.3,8916],[98.3,8999],[98.3,9082],[98.3,9165],[99.6,9249],[100,9332],[100,9416],[100,9499],[100,9582],[100,9666],[100,9749],[100,9833],[100,9915],[100,9999],[100,10083],[100,10165],[100,10248],[100,10332],[100,10416],[100,10499],[100,10583],[100,10666],[100,10749],[100,10832],[100,10916],[100,10999],[100,11082],[100,11165],[100,11249],[100,11332],[100,11415],[100,11499],[100,11582],[100,11666],[100,11749],[100,11832],[100,11915],[100,11999],[100,12082],[100,12166],[100,12249],[100,12332],[100,12415],[100,12499],[100,12582],[100,12665],[100,12749],[100,12832],[100,12916],[100,12999],[100,13082],[100,13166],[100,13249],[100,13332],[100,13416],[100,13499],[100,13582],[100,13666],[100,13749],[100,13832],[100,13916],[100,13999],[100,14083],[100,14165],[100,14249],[100,14332],[100,14415],[100,14499],[100,14583],[100,14666],[100,14749],[100,14832],[100,14916],[100,14999],[100,15083],[100,15166],[100,15249],[100,15332],[100,15415],[100,15499],[100,15582],[100,15665],[100,15748],[100,15832],[100,15916],[100,15999],[100,16083],[100,16165],[100,16249],[100,16332],[100,16416],[100,16498],[100,16582],[100,16666],[100,16749],[100,16833],[100,16916],[100,16999],[100,17082],[100,17166],[100,17249],[100,17333],[100,17416],[100,17499],[100,17582],[100,17665],[100,17749],[100,17832],[100,17916],[100,17999],[100,18082],[100,18166],[100,18249],[100,18333],[100,18415],[100,18499],[100,18583],[100,18666],[100,18749],[100,18833],[100,18916],[100,18999],[100,19083],[100,19165],[100,19249],[100,19333],[100,19415],[100,19499],[100,19583],[100,19666],[100,19749],[100,19832],[100,19916],[100,19999],[100,20083],[100,20166],[100,20249],[100,20333],[100,20416],[100,20499],[100,20582],[100,20666],[100,20749],[100,20833],[100,20916],[100,20999],[100,21083],[100,21167],[100,21249],[100,21333],[100,21416],[100,21499],[100,21583],[100,21666],[100,21749],[100,21833],[100,21916],[100,21999],[100,22082],[100,22165],[100,22249],[100,22333],[100,22416],[100,22499],[100,22583],[100,22666],[100,22749],[100,22833],[100,22916],[100,22999],[100,23081],[100,23166],[100,23249],[100,23333],[100,23416],[100,23499],[100,23583],[100,23665],[100,23749],[100,23831],[100,23916],[100,23999],[100,24083],[100,24166],[100,24249],[100,24333],[100,24416],[100,24498],[100,24583],[100,24666],[100,24749],[100,24833],[100,24916],[100,24999],[100,25083],[100,25166],[100,25249],[100,25333],[100,25416],[100,25499],[100,25583],[100,25666],[100,25749],[100,25833],[100,25916],[100,25999],[100,26083],[100,26166],[100,26249],[100,26333],[100,26416],[100,26499],[100,26582],[100,26666],[100,26749],[100,26833],[100,26916],[100,26999],[100,27083],[100,27165],[100,27249],[100,27333],[100,27416],[100,27498],[100,27583],[100,27666],[100,27749],[100,27833],[100,27916],[100,27999],[100,28083],[100,28165],[100,28248],[100,28333],[100,28416],[100,28499],[100,28583],[100,28666],[100,28749],[100,28833],[100,28916],[100,28999],[100,29083],[100,29166],[100,29249],[100,29333],[100,29416],[100,29499],[100,29583],[100,29666],[100,29749],[100,29833],[100,29916],[100,29999],[100,30083],[100,30166],[100,30249],[100,30333],[100,30416],[100,30499],[100,30583],[100,30666],[100,30749],[100,30833],[100,30916],[100,30999],[100,31083],[100,31166],[100,31249],[100,31333],[100,31416],[100,31499],[100,31583],[100,31665],[100,31749],[100,31833],[100,31916],[100,31999],[100,32083],[100,32166],[100,32249],[100,32332],[100,32416],[100,32499],[100,32583],[100,32666],[100,32750],[100,32833],[100,32916],[100,33000],[100,33083],[100,33166],[100,33250],[100,33333],[100,33416],[100,33499],[100,33583],[100,33666],[100,33750],[100,33833],[100,33916],[100,33999],[100,34082],[100,34166],[100,34250],[100,34333],[100,34416],[100,34500],[100,34583],[100,34666],[100,34750],[100,34833],[100,34916],[100,35000],[100,35083],[100,35166],[100,35250],[100,35333],[100,35416],[100,35499],[100,35583],[100,35666],[100,35749],[100,35833],[100,35916],[100,35999],[100,36083],[100,36166],[100,36249],[100,36333],[100,36416],[100,36498],[100,36583],[100,36666],[100,36749],[100,36833],[100,36916],[100,36999],[100,37083],[100,37166],[100,37249],[100,37333],[100,37416],[100,37499],[100,37583],[100,37666],[100,37749],[100,37833],[100,37916],[100,37999],[100,38083],[100,38166],[100,38249],[100,38333],[100,38416],[100,38499],[100,38582],[100,38666],[100,38750],[100,38833],[100,38916],[100,38999],[100,39083],[100,39166],[100,39249],[100,39332],[100,39416],[100,39499],[100,39583],[100,39666],[100,39750],[100,39833],[100,39916],[100,40000],[100,40083],[100,40166],[100,40249],[100,40333],[100,40416],[100,40500],[100,40583],[100,40666],[100,40750],[100,40833],[100,40916],[100,41000],[100,41083],[100,41165],[100,41249],[100,41332],[100,41416],[100,41499],[100,41583],[100,41666],[100,41749],[100,41833],[100,41916],[100,41999],[100,42083],[100,42166],[100,42249],[100,42333],[100,42416],[100,42500],[100,42583],[100,42666],[100,42749],[100,42833],[100,42916],[100,43000],[100,43083],[100,43166],[100,43249],[100,43333],[100,43416],[100,43499],[100,43583],[100,43666],[100,43750],[100,43833],[100,43916],[100,44000],[100,44083],[100,44166],[100,44250],[100,44332],[100,44416],[100,44499],[100,44583],[100,44666],[100,44749],[100,44833],[100,44916],[100,44998],[100,45083],[100,45166],[100,45250],[100,45333],[100,45416],[100,45500],[100,45583],[100,45666],[100,45750],[100,45833],[100,45916],[100,46000],[100,46082],[100,46166],[100,46250],[100,46332],[100,46416],[100,46500],[100,46583],[100,46666],[100,46750],[100,46833],[100,46916],[100,47000],[100,47083],[100,47166],[100,47250],[100,47332],[100,47416],[100,47500],[100,47583],[100,47666],[100,47750],[100,47833],[100,47916],[100,48000],[100,48083],[100,48166],[100,48249],[100,48333],[100,48416],[100,48500],[100,48583],[100,48666],[100,48750],[100,48833],[100,48916],[100,49000],[100,49083],[100,49166],[100,49250],[100,49333],[100,49416],[100,49500],[100,49583],[100,49666],[100,49750],[100,49833],[100,49916],[100,49999],[100,50083],[99.3,50166],[98.9,50249],[98.3,50333],[97.2,50416],[96.8,50500],[96.8,50583],[96.8,50666],[96.8,50750],[96.8,50833],[96.8,50916],[96.8,50999],[96.8,51083],[96.8,51166],[96.8,51249],[96.8,51333],[96.8,51416],[96.8,51499],[96.8,51582],[96.8,51666],[96.8,51750],[96.8,51833],[96.8,51916],[96.8,52000],[96.8,52083],[96.8,52166],[96.8,52250],[96.8,52333],[96.8,52416],[96.8,52500],[96.8,52583],[96.8,52666],[96.8,52750],[96.8,52832],[96.8,52916],[96.8,53000],[96.8,53083],[96.8,53166],[96.8,53249],[96.8,53333],[96.8,53416],[96.8,53500],[96.8,53583],[96.8,53666],[96.8,53750],[96.8,53833],[96.8,53916],[96.8,54000],[96.8,54083],[96.8,54166],[96.8,54250],[96.8,54333],[96.8,54416],[96.8,54500],[96.8,54583],[96.8,54666],[96.8,54750],[96.8,54833],[96.8,54916],[96.8,55000],[96.8,55083],[96.8,55166],[96.8,55250],[96.8,55333],[96.8,55416],[96.8,55499],[96.8,55583],[96.8,55666],[96.8,55750],[96.8,55833]]",308.6794,320.2786,98.03710717,7.2978,"[{""rating"":98.03710716907518,""responseTime"":7.2977999999523036}]",space,11.0509,,320.2787,Definitely yes,100,320.2817,,,[],,0,1,1,1,1,audio/Narrative7Situation1.wav,audio/Narrative8Situation1.wav,audio/Narrative5Situation1.wav,audio/Narrative6Situation1.wav,2,5,5,2,4.9924,,,,,,,,,,,,,,,,,,,,,,,,,,,,,,,,,,,,,,
,,,,,6113ffbf45e79bc2769db74c,2025-07-07_21h38.44.432,group3.4_multiperson,2023.2.2,MacIntel,61.72839506,686c2ebf0248f13bef9af11f,686c8449b831e9279f536b1c,,,,,,,,,,,,,,,,,,,,,,,,,,,,,320.2819,1,audio/Narrative7Situation2.wav,323.2957,,323.2958,330.7796,"[[999,0],[999,83],[999,166],[999,249],[999,333],[999,416],[999,499],[999,583],[999,666],[999,749],[999,833],[999,916],[999,999],[999,1082],[999,1166],[999,1249],[999,1333],[999,1416],[999,1499],[999,1583],[999,1666],[999,1750],[999,1833],[999,1916],[999,1999],[999,2083],[999,2166],[999,2249],[999,2333],[999,2416],[999,2500],[999,2583],[999,2666],[999,2749],[999,2833],[999,2917],[999,2999],[999,3082],[999,3166],[999,3249],[999,3332],[999,3416],[999,3499],[999,3583],[999,3666],[999,3749],[999,3833],[999,3916],[999,3999],[999,4082],[999,4166],[999,4249],[999,4332],[999,4416],[999,4499],[999,4583],[999,4666],[999,4750],[999,4832],[999,4916],[999,4999],[999,5082],[999,5166],[999,5250],[999,5333],[999,5416],[999,5499],[999,5583],[999,5666],[999,5750],[999,5833],[999,5916],[999,5999],[999,6083],[999,6166],[999,6249],[999,6332],[999,6415],[999,6499],[999,6583],[999,6666],[999,6749],[999,6833],[999,6916],[999,7000],[999,7083],[999,7166],[999,7249],[999,7333],[999,7416]]",330.7798,333.646,97.45605249,1.5802,"[{""rating"":97.45605249023362,""responseTime"":1.580199999809281}]",space,2.3187,,333.6462,Not at all,0,333.6503,,,[],,0,2,2,2,1,audio/Narrative7Situation2.wav,audio/Narrative8Situation2.wav,audio/Narrative5Situation2.wav,audio/Narrative6Situation2.wav,3,3,3,3,,,,,,,,,,,,,,,,,,,,,,,,,,,,,,,,,,,,,,,
,,,,,6113ffbf45e79bc2769db74c,2025-07-07_21h38.44.432,group3.4_multiperson,2023.2.2,MacIntel,61.72839506,686c2ebf0248f13bef9af11f,686c8449b831e9279f536b1c,,,,,,,,,,,,,,,,,,,,,,,,,,,,,333.6505,1,audio/Narrative7Situation3.wav,341.6626,,341.6627,350.9299,"[[97.6,8416],[100,8916],[94.1,9000],[94,9083],[95.1,9166],[98.7,9250]]",350.9301,355.7795,99.33105246,3.4962,"[{""rating"":98.85471122183338,""responseTime"":0.2804000000953124},{""rating"":99.3310524622939,""responseTime"":3.496200000047679}]",space,4.2998,,355.7795,Partially,50,355.7832,,,[],,0,3,3,3,1,audio/Narrative7Situation3.wav,audio/Narrative8Situation3.wav,audio/Narrative5Situation3.wav,audio/Narrative6Situation3.wav,8,4,3,5,,,,,,,,,,,,,,,,,,,,,,,,,,,,,,,,,,,,,,,
,,,,,6113ffbf45e79bc2769db74c,2025-07-07_21h38.44.432,group3.4_multiperson,2023.2.2,MacIntel,61.72839506,686c2ebf0248f13bef9af11f,686c8449b831e9279f536b1c,,,,,,,,,,,,,,,,,,,,,,,,,,,,,355.7834,1,audio/Narrative7Situation4.wav,358.7963,,358.7963,370.53,"[[999,0],[999,83],[999,166],[999,249],[999,333],[999,416],[999,499],[999,583],[999,666],[999,750],[999,833],[999,916],[999,999],[999,1083],[999,1166],[999,1249],[999,1332],[999,1415],[999,1499],[999,1582],[999,1666],[999,1749],[999,1833],[999,1916],[999,1999],[999,2082],[999,2166],[999,2249],[999,2333],[999,2416],[999,2499],[999,2583],[999,2666],[999,2749],[999,2833],[999,2916],[999,2999],[999,3083],[999,3166],[999,3249],[999,3332],[999,3416],[999,3500],[999,3583],[999,3666],[999,3749],[999,3832],[999,3916],[999,3999],[999,4083],[999,4166],[999,4249],[999,4333],[999,4416],[999,4499],[999,4583],[999,4666],[999,4750],[999,4833],[999,4916],[999,4999],[999,5083],[999,5166],[999,5249],[999,5333],[999,5416],[999,5499],[999,5583],[999,5666],[999,5749],[999,5833],[999,5916],[999,5999],[999,6083],[999,6166],[999,6249],[999,6333],[999,6416],[999,6499],[999,6583],[999,6666],[999,6748],[999,6833],[999,6916],[999,6999],[999,7082],[999,7166],[999,7249],[999,7333],[999,7415],[999,7499],[999,7582],[999,7666],[999,7749],[999,7833],[999,7916],[999,7999],[999,8083],[999,8166],[999,8250],[999,8333],[999,8416],[999,8500],[999,8583],[999,8666],[999,8749],[999,8833],[999,8916],[999,8999],[999,9083],[999,9166],[999,9250],[999,9333],[999,9416],[999,9499],[999,9583],[999,9666],[999,9749],[999,9833],[999,9916],[999,10000],[999,10083],[999,10166],[999,10250],[999,10333],[999,10416],[999,10500],[999,10583],[999,10666],[999,10749],[999,10833],[999,10916],[999,10999],[999,11083],[999,11165],[999,11250],[999,11333],[999,11416],[999,11500],[999,11583],[999,11666]]",370.5303,376.5632,50.14594247,3.2124,"[{""rating"":50.145942467263204,""responseTime"":3.2124000000953856}]",space,5.4859,,376.5634,Definitely yes,100,376.5671,,,[],,0,4,4,4,1,audio/Narrative7Situation4.wav,audio/Narrative8Situation4.wav,audio/Narrative5Situation4.wav,audio/Narrative6Situation4.wav,3,3,1,2,,,,,,,,,,,,,,,,,,,,,,,,,,,,,,,,,,,,,,,
,,,,,6113ffbf45e79bc2769db74c,2025-07-07_21h38.44.432,group3.4_multiperson,2023.2.2,MacIntel,61.72839506,686c2ebf0248f13bef9af11f,686c8449b831e9279f536b1c,,,,,,,,,,,,,,,,,,,,,,,,,,,,,376.5674,1,audio/Narrative7Situation5.wav,381.5795,,381.5795,390.0801,[],390.0802,392.98,50.80512214,2.0135,"[{""rating"":50.80512214494066,""responseTime"":2.013499999999965}]",space,2.3609,,392.9802,Partially,50,392.9835,,,[],,0,5,5,5,1,audio/Narrative7Situation5.wav,audio/Narrative8Situation5.wav,audio/Narrative5Situation5.wav,audio/Narrative6Situation5.wav,5,2,5,2,,,,,,,,,,,,,,,,,,,,,,,,,,,,,,,,,,,,,,,
,,,,,6113ffbf45e79bc2769db74c,2025-07-07_21h38.44.432,group3.4_multiperson,2023.2.2,MacIntel,61.72839506,686c2ebf0248f13bef9af11f,686c8449b831e9279f536b1c,,,,,,,,,,,,,,,,,,,,,,,,,,,,,392.9839,1,audio/Narrative7Situation6.wav,395.9967,,395.9968,405.9799,"[[49.7,3500],[74.3,3833],[81.2,3917],[84.1,3999],[88.9,4083],[93.1,4167],[96.9,4250],[97.9,4332],[98.3,4416],[98.3,4499],[98.3,4583],[98.9,4667],[100,4748],[100,4833],[100,4916],[100,5000],[100,5083],[100,5166],[100,5249],[100,5333],[100,5416],[100,5500],[100,5583],[100,5666],[100,5750],[100,5833],[100,5916],[100,5999],[100,6082],[100,6166],[100,6249],[100,6333],[100,6415],[100,6500],[100,6583],[100,6666],[100,6750],[100,6833],[100,6916],[100,7000],[100,7083],[100,7166],[100,7249],[100,7333],[100,7416],[100,7499],[100,7583],[100,7665],[100,7750],[100,7832],[100,7916],[100,7999],[100,8082],[100,8166],[100,8249],[100,8333],[100,8416],[100,8499],[100,8583],[100,8666],[100,8750],[100,8833],[100,8916],[100,8999],[100,9082],[100,9166],[100,9249],[100,9332],[100,9416],[100,9500],[100,9583],[100,9666],[100,9750],[100,9832],[100,9916]]",405.98,408.4304,99.61262798,0.6637,"[{""rating"":99.61262797893147,""responseTime"":0.6637000000476974}]",space,1.9027,,408.4306,Definitely yes,100,408.4347,,,[],,0,6,6,6,1,audio/Narrative7Situation6.wav,audio/Narrative8Situation6.wav,audio/Narrative5Situation6.wav,audio/Narrative6Situation6.wav,3,2,3,2,,,,,,,,,,,,,,,,,,,,,,,,,,,,,,,,,,,,,,,
,,,,,6113ffbf45e79bc2769db74c,2025-07-07_21h38.44.432,group3.4_multiperson,2023.2.2,MacIntel,61.72839506,686c2ebf0248f13bef9af11f,686c8449b831e9279f536b1c,,,,,,,,,,,,,,,,,,,,,,,,,,,,,408.435,1,audio/Narrative7Situation7.wav,413.447,,413.4471,430.6299,"[[99.2,5833],[98.9,5916],[98.9,5999],[98.9,6083],[98.9,6166],[98.9,6249],[98.9,6333],[98.9,6416],[98.9,6499],[98.9,6582],[98.9,6666],[98.9,6749],[98.9,6832],[98.9,6916],[98.9,6999],[98.9,7083],[98.9,7166],[98.9,7250],[98.9,7333],[98.9,7416],[98.9,7499],[98.9,7583],[98.9,7666],[98.9,7748],[98.9,7832],[98.9,7916],[98.9,7999],[98.9,8083],[98.9,8166],[98.9,8249],[98.9,8333],[98.9,8416],[98.9,8498],[98.9,8582],[98.9,8666],[98.9,8749],[98.9,8833],[98.9,8916],[98.9,9000],[98.9,9082],[98.9,9166],[98.9,9250],[98.9,9332],[98.9,9416],[98.9,9499],[98.9,9583],[98.9,9666],[98.9,9749],[98.9,9833],[98.9,9916],[98.9,10000],[98.9,10083],[98.9,10165],[98.9,10250],[98.9,10333],[98.9,10416],[98.9,10499],[98.9,10583],[98.9,10666],[98.9,10749],[98.9,10833],[98.9,10916],[98.9,10999],[98.9,11083],[98.9,11166],[98.9,11248],[98.9,11333],[100,11416],[100,11498],[100,11583],[100,11667],[100,11749],[100,11833],[100,11916],[100,11999],[100,12083],[100,12166],[100,12249],[100,12333],[100,12416],[100,12500],[100,12583],[100,12665],[100,12750],[100,12833],[100,12916],[100,12999],[100,13082],[100,13166],[100,13250],[100,13333],[100,13416],[100,13500],[100,13583],[100,13666],[100,13750],[100,13832],[100,13916],[100,13999],[100,14082],[100,14166],[100,14250],[100,14332],[100,14416],[100,14499],[100,14583],[100,14665],[100,14749],[100,14833],[100,14916],[100,14999],[100,15082],[100,15166],[100,15250],[100,15333],[100,15415],[100,15499],[100,15583],[100,15666],[100,15750],[100,15832],[100,15916],[100,16000],[100,16083],[100,16166],[100,16249],[100,16333],[100,16415],[100,16500],[100,16583],[100,16665],[100,16749],[100,16833],[100,16915],[100,17000],[100,17082],[100,17166]]",430.6301,434.7975,98.70008883,2.7478,"[{""rating"":98.7000888283041,""responseTime"":2.747799999952292}]",space,3.6329,,434.7977,Not at all,0,434.8012,,,[],,0,7,7,7,1,audio/Narrative7Situation7.wav,audio/Narrative8Situation7.wav,audio/Narrative5Situation7.wav,audio/Narrative6Situation7.wav,5,3,4,5,,,,,,,,,,,,,,,,,,,,,,,,,,,,,,,,,,,,,,,
,,,,,6113ffbf45e79bc2769db74c,2025-07-07_21h38.44.432,group3.4_multiperson,2023.2.2,MacIntel,61.72839506,686c2ebf0248f13bef9af11f,686c8449b831e9279f536b1c,,,,,,,,,,,,,,,,,,,,,,,,,,,,,434.8014,1,audio/Narrative7Situation8.wav,436.8141,,436.8142,446.8476,[],446.8477,449.6643,95.91580491,1.6309,"[{""rating"":95.91580491390124,""responseTime"":1.6309000000953802}]",space,2.2686,,449.6643,Not at all,0,449.6669,,,[],,0,8,8,8,1,audio/Narrative7Situation8.wav,audio/Narrative8Situation8.wav,audio/Narrative5Situation8.wav,audio/Narrative6Situation8.wav,2,3,3,5,,,,,,,,,,,,,,,,,,,,,,,,,,,,,,,,,,,,,,,
,,,,,6113ffbf45e79bc2769db74c,2025-07-07_21h38.44.432,group3.4_multiperson,2023.2.2,MacIntel,61.72839506,686c2ebf0248f13bef9af11f,686c8449b831e9279f536b1c,,,,,,,,,,,,,,,,,,,,,,,,,,,,,449.6672,1,audio/Narrative7Situation9.wav,451.6799,,451.6799,460.2977,"[[999,0],[999,84],[999,166],[999,249],[999,333],[999,416],[999,500],[999,584],[999,667],[999,749],[999,832],[999,917],[999,1000],[999,1084],[999,1166],[999,1250],[999,1333],[999,1417],[999,1501],[999,1584],[999,1667],[999,1750],[999,1833],[999,1916],[999,2000],[999,2084],[999,2166],[999,2251],[999,2334],[999,2417],[999,2501],[999,2583],[999,2668],[999,2750],[999,2833],[98.5,2918],[98.2,3001],[98,3083],[98,3166],[98,3249],[98,3334],[98,3416],[98,3499],[98.9,3583],[99.3,3667],[99.3,3751],[99.3,3833],[99.3,3917],[100,4000],[100,4084],[100,4166],[100,4251],[100,4334],[100,4417],[100,4501],[100,4584],[100,4667],[100,4750],[100,4833],[100,4916],[100,5000],[100,5083],[100,5167],[100,5250],[100,5334],[100,5416],[100,5499],[100,5584],[100,5666],[100,5751],[100,5833],[100,5917],[100,6000],[100,6084],[100,6166],[100,6250],[100,6334],[100,6417],[100,6501],[100,6583],[100,6666],[100,6750],[100,6833],[100,6917],[100,7000],[100,7083],[100,7166],[100,7250],[100,7333],[100,7417],[100,7501],[100,7583],[100,7667],[100,7751],[100,7834],[100,7917],[100,8001],[100,8084],[100,8167],[100,8250],[100,8334],[100,8417],[100,8501],[100,8583]]",460.2979,464.3302,100,2.8136,"[{""rating"":98.07779727263552,""responseTime"":1.912499999999966},{""rating"":100,""responseTime"":2.813600000143026}]",space,3.4841,,464.3303,Not at all,0,464.3324,,,[],,0,9,9,9,1,audio/Narrative7Situation9.wav,audio/Narrative8Situation9.wav,audio/Narrative5Situation9.wav,audio/Narrative6Situation9.wav,2,3,3,4,,,,,,,,,,,,,,,,,,,,,,,,,,,,,,,,,,,,,,,
,,,,,6113ffbf45e79bc2769db74c,2025-07-07_21h38.44.432,group3.4_multiperson,2023.2.2,MacIntel,61.72839506,686c2ebf0248f13bef9af11f,686c8449b831e9279f536b1c,,,,,,,,,,,,,,,,,,,,,,,,,,,,,464.3328,1,audio/Narrative8Situation1.wav,469.3478,,469.3479,485.2815,"[[100,6250],[100,6332],[99.7,6415],[99.5,6498],[99.6,6583],[99.6,6666],[99.6,6749],[99.6,6833],[99.6,6916],[99.6,6999],[99.6,7083],[99.6,7166],[99.6,7249],[99.6,7332],[99.6,7416],[99.6,7498],[99.6,7583],[99.6,7666],[99.6,7750],[99.6,7832],[99.6,7915],[99.6,7999],[99.6,8083],[99.6,8166],[99.6,8250],[99.6,8333],[99.6,8415],[99.6,8499],[99.6,8582],[99.6,8666],[99.6,8750],[99.6,8832],[99.6,8915],[99.6,9000],[99.6,9083],[99.6,9165],[99.6,9250],[99.6,9333],[99.6,9415],[99.6,9499],[99.6,9583],[99.6,9666],[99.6,9749],[99.6,9832],[99.6,9915],[99.6,9999],[99.6,10083],[99.6,10166],[99.6,10250],[99.6,10333],[99.6,10415],[99.6,10499],[99.6,10583],[99.6,10665],[99.6,10749],[99.6,10833],[99.6,10916],[99.6,11000],[99.6,11083],[99.6,11166],[99.6,11249],[99.6,11333],[99.6,11416],[99.6,11500],[99.6,11583],[99.6,11666],[99.6,11748],[99.6,11832],[99.6,11916],[99.6,11999],[99.6,12082],[99.6,12166],[99.6,12249],[99.6,12333],[99.6,12416],[99.6,12499],[99.6,12583],[99.6,12666],[99.6,12749],[99.6,12833],[99.6,12915],[99.6,12999],[99.6,13083],[99.6,13166],[99.6,13249],[99.6,13333],[99.6,13415],[99.6,13499],[99.6,13582],[99.6,13666],[99.6,13750],[99.6,13833],[99.6,13915],[99.6,14000],[99.6,14083],[99.6,14166],[99.6,14250],[99.6,14332],[99.6,14415],[99.6,14498],[99.6,14583],[99.6,14665],[99.6,14750],[99.6,14833],[99.6,14916],[99.6,15000],[99.6,15083],[99.6,15165],[99.6,15250],[99.6,15333],[99.6,15416],[99.6,15499],[99.6,15582],[99.6,15666],[99.6,15750],[99.6,15833],[99.6,15916]]",485.2816,488.7983,99.46560955,2.6309,"[{""rating"":99.46560954850501,""responseTime"":2.630899999856922}]",space,2.9702,,488.7983,Definitely yes,100,488.8028,,,[],,0,10,10,10,1,audio/Narrative8Situation1.wav,audio/Narrative7Situation1.wav,audio/Narrative6Situation1.wav,audio/Narrative5Situation1.wav,5,2,2,5,,,,,,,,,,,,,,,,,,,,,,,,,,,,,,,,,,,,,,,
,,,,,6113ffbf45e79bc2769db74c,2025-07-07_21h38.44.432,group3.4_multiperson,2023.2.2,MacIntel,61.72839506,686c2ebf0248f13bef9af11f,686c8449b831e9279f536b1c,,,,,,,,,,,,,,,,,,,,,,,,,,,,,488.8031,1,audio/Narrative8Situation2.wav,491.8151,,491.8152,501.9318,"[[99.5,7165],[99.5,7248],[99.5,7332],[99.5,7416],[99.5,7498],[99.5,7583],[99.5,7666],[99.5,7749],[99.5,7832],[99.5,7915],[99.5,7998],[99.5,8081],[99.5,8166],[99.5,8249],[99.5,8332],[99.5,8416],[99.5,8498],[99.5,8582],[99.5,8666],[99.5,8748],[99.5,8832],[99.5,8916],[99.5,8999],[99.5,9081],[99.5,9165],[99.5,9248],[99.5,9333],[99.5,9416],[99.5,9499],[99.5,9583],[99.5,9666],[99.5,9749],[99.5,9833],[99.5,9916],[99.5,9999],[99.5,10083]]",501.9319,507.5474,98.90083091,3.7132,"[{""rating"":98.90083091108752,""responseTime"":3.7132000000476637}]",space,5.068,,507.5475,Definitely yes,100,507.5496,,,[],,0,11,11,11,1,audio/Narrative8Situation2.wav,audio/Narrative7Situation2.wav,audio/Narrative6Situation2.wav,audio/Narrative5Situation2.wav,3,3,3,3,,,,,,,,,,,,,,,,,,,,,,,,,,,,,,,,,,,,,,,
,,,,,6113ffbf45e79bc2769db74c,2025-07-07_21h38.44.432,group3.4_multiperson,2023.2.2,MacIntel,61.72839506,686c2ebf0248f13bef9af11f,686c8449b831e9279f536b1c,,,,,,,,,,,,,,,,,,,,,,,,,,,,,507.55,1,audio/Narrative8Situation3.wav,511.5651,,511.5652,533.9488,"[[98.9,11083],[99,11165],[99,11249],[99,11333],[99,11415],[99,11500],[99,11582],[99,11666],[99,11750],[99,11833],[99,11916],[99,11999],[99,12082],[99,12165],[99,12249],[99,12333],[99,12416],[99,12500],[99,12583],[99,12666],[99,12750],[99,12833],[99,12916],[99,13000],[99,13082],[99,13166],[99,13250],[99,13333],[99,13415],[99,13500],[99,13583],[99,13666],[99,13749],[99,13833],[99,13916],[99,14000],[99,14083],[99,14165],[99,14250],[99,14333],[99,14416],[99,14498],[99,14583],[99,14666],[99,14749],[99,14832],[99,14915],[99,15000],[99,15083],[99,15166],[99,15249],[99,15333],[99,15416],[99,15500],[99,15582],[99,15666],[99,15749],[99,15833],[99,15916],[99,15999],[99,16083],[99,16165],[99,16248],[99,16333],[99,16416],[99,16499],[99,16583],[99,16666],[99,16750],[99,16833],[99,16915],[99,17000],[99,17083],[99,17165],[99,17250],[99,17333],[99,17416],[99,17500],[99,17582],[99,17666],[99,17749],[99,17832],[99,17916],[99,17999],[99,18083],[99,18166],[99,18249],[99,18333],[99,18416],[99,18500],[99,18583],[99,18666],[99,18750],[99,18833],[99,18916],[99,19000],[99,19083],[99,19166],[99,19250],[99,19332],[99,19415],[99,19500],[99,19582],[99,19666],[99,19749],[99,19833],[99,19917],[99,19999],[99,20083],[99,20166],[99,20250],[99,20333],[99,20416],[99,20500],[99,20583],[99,20666],[99,20750],[99,20833],[99,20915],[99,21000],[99,21082],[99,21165],[99,21249],[99,21333],[99,21416],[99,21500],[99,21583],[99,21666],[99,21750],[99,21833],[99,21916],[99,22000],[99,22083],[99,22166],[99,22249],[99,22332]]",533.949,536.6811,99.23014101,0.6948,"[{""rating"":99.2301410054643,""responseTime"":0.694800000190753}]",space,2.1847,,536.6813,Definitely yes,100,536.6838,,,[],,0,12,12,12,1,audio/Narrative8Situation3.wav,audio/Narrative7Situation3.wav,audio/Narrative6Situation3.wav,audio/Narrative5Situation3.wav,4,8,5,3,,,,,,,,,,,,,,,,,,,,,,,,,,,,,,,,,,,,,,,
,,,,,6113ffbf45e79bc2769db74c,2025-07-07_21h38.44.432,group3.4_multiperson,2023.2.2,MacIntel,61.72839506,686c2ebf0248f13bef9af11f,686c8449b831e9279f536b1c,,,,,,,,,,,,,,,,,,,,,,,,,,,,,536.6842,1,audio/Narrative8Situation4.wav,539.6991,,539.6992,553.8827,"[[999,0],[999,82],[999,166],[999,249],[999,331],[999,415],[999,499],[999,583],[999,665],[999,749],[999,832],[999,915],[999,999],[999,1081],[999,1166],[999,1248],[999,1331],[999,1416],[999,1498],[999,1581],[999,1666],[999,1749],[999,1831],[999,1916],[999,1998],[999,2082],[999,2166],[999,2249],[999,2333],[999,2415],[999,2499],[999,2582],[999,2666],[999,2748],[999,2832],[999,2915],[999,2999],[999,3081],[999,3165],[999,3249],[999,3331],[999,3416],[999,3499],[999,3582],[999,3665],[999,3748],[999,3832],[999,3916],[999,3999],[999,4083],[999,4165],[999,4248],[999,4333],[999,4416],[999,4499],[999,4581],[999,4665],[999,4749],[999,4832],[999,4916],[999,4999],[999,5081],[999,5166],[999,5249],[999,5331],[999,5416],[999,5498],[999,5582],[999,5666],[999,5748],[999,5833],[999,5915],[999,5999],[999,6082],[999,6166],[999,6249],[999,6332],[999,6416],[999,6499],[999,6582],[999,6665],[999,6749],[999,6831],[999,6915],[999,6999],[999,7082],[999,7166],[999,7249],[999,7332],[999,7415],[999,7498],[999,7583],[999,7666],[999,7749],[999,7832],[999,7915],[999,7999],[999,8083],[999,8165],[999,8248],[999,8333],[999,8416],[999,8499],[999,8583],[999,8665],[999,8748],[999,8833],[999,8915],[999,8999],[999,9082],[999,9166],[999,9249],[999,9332],[999,9416],[999,9498],[999,9582],[999,9665],[999,9749],[999,9832],[999,9916],[999,9999],[999,10083],[999,10165],[999,10248],[999,10333],[999,10416],[999,10499],[999,10582],[999,10665],[999,10748],[999,10833],[999,10916],[999,10999],[999,11083],[999,11165],[999,11248],[999,11333],[999,11415],[999,11499],[999,11582],[999,11666],[999,11748],[999,11833],[999,11916],[999,11998],[999,12082],[999,12166],[999,12249],[999,12332],[999,12415],[999,12498],[999,12583],[999,12665],[999,12749],[999,12833],[999,12915],[999,12998],[999,13083],[999,13165],[999,13249],[999,13332],[999,13416],[999,13499],[999,13582],[999,13666],[999,13749],[999,13832],[999,13915],[999,13998],[999,14083],[999,14165]]",553.8828,559.6978,100,4.3797,"[{""rating"":74.72981584971423,""responseTime"":3.3144999999999527},{""rating"":100,""responseTime"":4.379700000047592}]",space,5.2661,,559.6979,Partially,50,559.6993,,,[],,0,13,13,13,1,audio/Narrative8Situation4.wav,audio/Narrative7Situation4.wav,audio/Narrative6Situation4.wav,audio/Narrative5Situation4.wav,3,3,2,1,,,,,,,,,,,,,,,,,,,,,,,,,,,,,,,,,,,,,,,
,,,,,6113ffbf45e79bc2769db74c,2025-07-07_21h38.44.432,group3.4_multiperson,2023.2.2,MacIntel,61.72839506,686c2ebf0248f13bef9af11f,686c8449b831e9279f536b1c,,,,,,,,,,,,,,,,,,,,,,,,,,,,,559.6994,1,audio/Narrative8Situation5.wav,561.7148,,561.7149,569.9487,"[[100,8167]]",569.9487,575.215,99.69943777,2.3655,"[{""rating"":98.82378674312751,""responseTime"":1.4300000000000637},{""rating"":99.69943777174595,""responseTime"":2.3654999999999973}]",space,4.7358,,575.2152,Partially,50,575.2175,,,[],,0,14,14,14,1,audio/Narrative8Situation5.wav,audio/Narrative7Situation5.wav,audio/Narrative6Situation5.wav,audio/Narrative5Situation5.wav,2,5,2,5,,,,,,,,,,,,,,,,,,,,,,,,,,,,,,,,,,,,,,,
,,,,,6113ffbf45e79bc2769db74c,2025-07-07_21h38.44.432,group3.4_multiperson,2023.2.2,MacIntel,61.72839506,686c2ebf0248f13bef9af11f,686c8449b831e9279f536b1c,,,,,,,,,,,,,,,,,,,,,,,,,,,,,575.2179,1,audio/Narrative8Situation6.wav,577.2318,,577.2318,583.6996,[],583.6998,585.9983,99.64790121,1.6482,"[{""rating"":99.64790121245531,""responseTime"":1.6482000000477228}]",space,1.7484,,585.9984,Partially,50,585.9992,,,[],,0,15,15,15,1,audio/Narrative8Situation6.wav,audio/Narrative7Situation6.wav,audio/Narrative6Situation6.wav,audio/Narrative5Situation6.wav,2,3,2,3,,,,,,,,,,,,,,,,,,,,,,,,,,,,,,,,,,,,,,,
,,,,,6113ffbf45e79bc2769db74c,2025-07-07_21h38.44.432,group3.4_multiperson,2023.2.2,MacIntel,61.72839506,686c2ebf0248f13bef9af11f,686c8449b831e9279f536b1c,,,,,,,,,,,,,,,,,,,,,,,,,,,,,585.9994,1,audio/Narrative8Situation7.wav,589.0153,,589.0153,601.0997,[],601.0999,603.5997,99.64790121,0.6302,"[{""rating"":99.64790121245531,""responseTime"":0.6302000000476937}]",space,1.9528,,603.5997,Definitely yes,100,603.6034,,,[],,0,16,16,16,1,audio/Narrative8Situation7.wav,audio/Narrative7Situation7.wav,audio/Narrative6Situation7.wav,audio/Narrative5Situation7.wav,3,5,5,4,,,,,,,,,,,,,,,,,,,,,,,,,,,,,,,,,,,,,,,
,,,,,6113ffbf45e79bc2769db74c,2025-07-07_21h38.44.432,group3.4_multiperson,2023.2.2,MacIntel,61.72839506,686c2ebf0248f13bef9af11f,686c8449b831e9279f536b1c,,,,,,,,,,,,,,,,,,,,,,,,,,,,,603.6038,1,audio/Narrative8Situation8.wav,606.6164,,606.6165,619.4833,[],619.4835,622.0667,75.99989385,1.281,"[{""rating"":75.99989385406334,""responseTime"":1.280999999999949}]",space,2.0463,,622.0668,Partially,50,622.0707,,,[],,0,17,17,17,1,audio/Narrative8Situation8.wav,audio/Narrative7Situation8.wav,audio/Narrative6Situation8.wav,audio/Narrative5Situation8.wav,3,2,5,3,,,,,,,,,,,,,,,,,,,,,,,,,,,,,,,,,,,,,,,
,,,,,6113ffbf45e79bc2769db74c,2025-07-07_21h38.44.432,group3.4_multiperson,2023.2.2,MacIntel,61.72839506,686c2ebf0248f13bef9af11f,686c8449b831e9279f536b1c,,,,,,,,,,,,,,,,,,,,,,,,,,,,,622.0711,1,audio/Narrative8Situation9.wav,625.083,,625.083,636.3995,"[[76.1,7916],[77.9,8000],[80.9,8084],[86.4,8167],[89.4,8250],[90.7,8334],[91.1,8416],[93.8,8500],[94.5,8583],[95.6,8666],[97.3,8750],[97.4,8833],[98.1,8917],[98.7,9001],[98.7,9083],[98.7,9167],[98.7,9249],[98.7,9333],[96.9,9417],[93.3,9500],[91.4,9584],[90.9,9667],[90.9,9749],[90.9,9832],[95.8,9916],[97.7,10000],[92.8,10083],[90.5,10167],[90.5,10250],[90.9,10333],[91,10416],[91,10499],[91,10583],[91,10667],[91,10750],[91,10832],[91,10916],[91,10999],[91,11083],[91,11167],[91,11249]]",636.3997,641.7336,89.40972438,4.3131,"[{""rating"":88.9995681395198,""responseTime"":3.3992999999524045},{""rating"":89.40972438340795,""responseTime"":4.3130999999046935}]",space,4.7876,,641.7337,Definitely yes,100,656.4171,100,10.5641,"[{""rating"":99.72059662559731,""responseTime"":9.945500000000038},{""rating"":100,""responseTime"":10.56409999990467}]",space,0,18,18,18,1,audio/Narrative8Situation9.wav,audio/Narrative7Situation9.wav,audio/Narrative6Situation9.wav,audio/Narrative5Situation9.wav,3,2,4,3,,,14.1339,,,,,,,,,,,,,,,,,,,,,,,,,,,,,,,,,,,,
,,,,,6113ffbf45e79bc2769db74c,2025-07-07_21h38.44.432,group3.4_multiperson,2023.2.2,MacIntel,61.72839506,686c2ebf0248f13bef9af11f,686c8449b831e9279f536b1c,,,,,,,,,,,,,,,,,,,,,,,,,,,658.202,660.7839,660.7983,2,audio/Narrative13Situation2.wav,660.7984,,660.7985,690.5344,"[[999,0],[999,68],[999,152],[999,235],[999,318],[999,401],[999,485],[999,568],[999,652],[999,735],[999,817],[999,901],[999,985],[100,1068],[100,1152],[100,1235],[100,1318],[100,1402],[100,1485],[100,1568],[100,1651],[100,1735],[100,1818],[100,1901],[100,1985],[100,2068],[100,2152],[100,2235],[100,2318],[100,2402],[100,2485],[100,2568],[100,2652],[100,2735],[100,2818],[100,2902],[100,2985],[100,3068],[100,3152],[100,3235],[100,3318],[100,3401],[100,3485],[100,3568],[100,3651],[100,3735],[100,3818],[100,3902],[100,3985],[100,4068],[100,4152],[100,4234],[100,4318],[100,4402],[100,4485],[100,4568],[100,4652],[100,4735],[100,4818],[100,4901],[100,4985],[100,5068],[100,5152],[100,5234],[100,5318],[100,5402],[100,5485],[100,5568],[100,5652],[100,5735],[100,5818],[100,5902],[100,5985],[100,6068],[100,6152],[100,6235],[100,6318],[100,6402],[100,6485],[100,6568],[100,6652],[100,6735],[100,6818],[100,6902],[100,6985],[100,7068],[100,7151],[100,7235],[100,7317],[100,7402],[100,7485],[100,7568],[100,7652],[100,7735],[100,7818],[100,7902],[100,7985],[100,8068],[100,8152],[100,8235],[100,8318],[100,8402],[100,8485],[100,8568],[100,8652],[100,8735],[100,8818],[100,8902],[100,8984],[100,9068],[100,9152],[100,9234],[100,9319],[100,9402],[100,9485],[100,9568],[100,9651],[100,9735],[100,9817],[100,9902],[100,9985],[100,10068],[100,10151],[100,10235],[100,10319],[100,10402],[100,10485],[100,10568],[100,10652],[100,10735],[100,10818],[100,10902],[100,10985],[100,11068],[100,11151],[100,11234],[100,11318],[100,11402],[100,11485],[100,11568],[100,11651],[100,11735],[100,11818],[100,11902],[100,11984],[100,12068],[100,12152],[100,12235],[100,12318],[100,12402],[100,12485],[100,12568],[100,12652],[100,12735],[100,12818],[100,12901],[100,12984],[100,13068],[100,13152],[100,13235],[100,13318],[100,13401],[100,13485],[100,13568],[100,13652],[100,13735],[100,13818],[100,13902],[100,13985],[100,14068],[100,14152],[100,14235],[100,14318],[100,14402],[100,14485],[100,14568],[100,14652],[100,14735],[100,14818],[100,14902],[100,14985],[100,15067],[100,15152],[100,15235],[100,15318],[100,15402],[100,15485],[100,15569],[100,15652],[100,15735],[100,15818],[100,15902],[100,15985],[100,16069],[100,16152],[100,16235],[100,16318],[100,16402],[100,16485],[100,16568],[100,16652],[100,16735],[100,16818],[100,16901],[100,16985],[100,17068],[100,17152],[100,17235],[100,17319],[100,17401],[100,17485],[100,17569],[100,17652],[100,17735],[100,17818],[100,17902],[100,17985],[100,18068],[100,18152],[100,18235],[100,18319],[100,18402],[100,18485],[100,18568],[100,18652],[100,18735],[100,18818],[100,18902],[100,18985],[100,19069],[100,19151],[100,19235],[100,19318],[100,19402],[100,19485],[100,19569],[100,19652],[100,19735],[100,19817],[100,19902],[100,19985],[100,20068],[100,20152],[100,20235],[100,20318],[100,20402],[100,20485],[100,20568],[100,20651],[100,20735],[100,20818],[100,20902],[100,20985],[100,21068],[100,21151],[100,21235],[100,21319],[100,21402],[100,21485],[100,21569],[100,21652],[100,21735],[100,21819],[100,21902],[100,21985],[100,22068],[100,22152],[100,22235],[100,22319],[100,22402],[100,22485],[100,22569],[100,22652],[100,22735],[100,22819],[100,22902],[100,22985],[100,23069],[100,23152],[100,23235],[100,23319],[100,23402],[100,23485],[100,23569],[100,23652],[100,23735],[100,23817],[100,23902],[100,23985],[100,24068],[100,24152],[100,24235],[100,24319],[100,24402],[100,24485],[100,24568],[100,24652],[100,24735],[100,24819],[100,24902],[100,24984],[100,25069],[100,25152],[100,25235],[100,25319],[100,25402],[100,25485],[100,25569],[100,25652],[100,25735],[100,25818],[100,25902],[100,25985],[100,26069],[100,26152],[100,26235],[100,26318],[100,26402],[100,26485],[100,26569],[100,26652],[100,26735],[100,26819],[100,26902],[100,26984],[100,27069],[100,27152],[100,27235],[100,27319],[100,27402],[100,27485],[100,27568],[100,27652],[100,27735],[100,27819],[100,27902],[100,27985],[100,28067],[100,28152],[100,28235],[100,28319],[100,28402],[100,28485],[100,28569],[100,28652],[100,28735],[100,28819],[100,28901],[100,28985],[100,29068],[100,29152],[100,29235],[100,29319],[100,29402],[100,29485],[100,29569],[100,29652],[100,29735]]",690.5347,690.5377,,,[],,,,690.5378,Partially,50,690.5404,,,[],,0,0,0,0,1,audio/Narrative13Situation2.wav,audio/Narrative13Situation2.wav,audio/Narrative13Situation2.wav,audio/Narrative13Situation2.wav,2,2,2,2,,,,,656.4176,658.2014,space,1.2552,,,,,,,,,,,,,,,,,,,,,,,,,,,,,,,
,,,,,6113ffbf45e79bc2769db74c,2025-07-07_21h38.44.432,group3.4_multiperson,2023.2.2,MacIntel,61.72839506,686c2ebf0248f13bef9af11f,686c8449b831e9279f536b1c,,,,,,,,,,,,,,,,,,,,,,,,,,,,,690.5407,2,audio/Narrative5Situation1.wav,695.5503,,695.5504,708.8348,"[[999,0],[999,84],[999,167],[999,250],[999,333],[999,417],[999,500],[999,583],[999,666],[999,750],[96,834],[96.4,917],[96.4,1000],[96.4,1084],[96.4,1166],[96.4,1250],[96.4,1334],[96,1417],[88.5,2334],[91.6,2417],[93.4,2500],[94.8,2584],[97.7,2667],[99.5,2750],[100,2834],[100,2917],[100,2999],[100,3084],[100,3167],[100,3251],[100,3333],[100,3417],[100,3499],[100,3584],[100,3667],[100,3750],[100,3833],[100,3917],[100,4000],[100,4083],[100,4167],[100,4250],[100,4334],[100,4416],[100,4500],[100,4583],[100,4667],[100,4750],[100,4833],[100,4917],[100,5000],[100,5083],[100,5167],[100,5250],[100,5334],[100,5417],[100,5499],[100,5584],[100,5667],[100,5750],[100,5833],[100,5917],[100,5999],[100,6084],[100,6167],[100,6250],[100,6333],[100,6417],[100,6500],[100,6583],[100,6667],[100,6750],[100,6833],[100,6917],[100,7000],[100,7083],[100,7167],[100,7250],[100,7334],[100,7417],[100,7500],[100,7584],[100,7667],[100,7750],[100,7834],[100,7917],[100,8000],[100,8084],[100,8167],[100,8250],[100,8333],[100,8417],[100,8500],[100,8584],[100,8667],[100,8750],[100,8834],[100,8917],[100,9000],[100,9084],[100,9167],[100,9250],[100,9334],[100,9417],[100,9500],[100,9584],[100,9667],[100,9750],[100,9834],[100,9917],[100,10000],[100,10084],[100,10167],[100,10250],[100,10334],[100,10417],[100,10500],[100,10583],[100,10667],[100,10750],[100,10834],[100,10917],[100,11000],[100,11084],[100,11167],[100,11250],[100,11334],[100,11417],[100,11500],[100,11584],[100,11667],[100,11750],[100,11834],[100,11917],[100,12000],[100,12084],[100,12167],[100,12250],[100,12334],[100,12417],[100,12500],[100,12584],[100,12667],[100,12750],[100,12834],[100,12917],[100,13000],[100,13084],[100,13167],[100,13250]]",708.835,712.3015,99.73253663,2.6456,"[{""rating"":99.73253662786084,""responseTime"":2.6456000001430766}]",space,2.9178,,712.3016,Not at all,0,712.3051,,,[],,0,1,1,1,1,audio/Narrative7Situation1.wav,audio/Narrative8Situation1.wav,audio/Narrative5Situation1.wav,audio/Narrative6Situation1.wav,2,5,5,2,,,,,,,,,,,,,,,,,,,,,,,,,,,,,,,,,,,,,,,
,,,,,6113ffbf45e79bc2769db74c,2025-07-07_21h38.44.432,group3.4_multiperson,2023.2.2,MacIntel,61.72839506,686c2ebf0248f13bef9af11f,686c8449b831e9279f536b1c,,,,,,,,,,,,,,,,,,,,,,,,,,,,,712.3054,2,audio/Narrative5Situation2.wav,715.3177,,715.3177,744.7681,"[[99.6,27167],[99,27250],[99,27332],[99,27416],[99,27500],[99,27583],[99,27667],[99,27750],[99,27833],[99,27917],[99.4,28000],[100,28082],[100,28166],[100,28250],[100,28333],[100,28417],[100,28500],[100,28583],[100,28666],[100,28750],[100,28833],[100,28917],[100,29000],[100,29083],[100,29167],[100,29250],[100,29332],[100,29416]]",744.7681,749.8352,89.67610469,1.0822,"[{""rating"":89.67610468949721,""responseTime"":1.082200000047692}]",space,4.5365,,749.8352,Partially,50,749.8391,,,[],,0,2,2,2,1,audio/Narrative7Situation2.wav,audio/Narrative8Situation2.wav,audio/Narrative5Situation2.wav,audio/Narrative6Situation2.wav,3,3,3,3,,,,,,,,,,,,,,,,,,,,,,,,,,,,,,,,,,,,,,,
,,,,,6113ffbf45e79bc2769db74c,2025-07-07_21h38.44.432,group3.4_multiperson,2023.2.2,MacIntel,61.72839506,686c2ebf0248f13bef9af11f,686c8449b831e9279f536b1c,,,,,,,,,,,,,,,,,,,,,,,,,,,,,749.8395,2,audio/Narrative5Situation3.wav,752.852,,752.8521,766.7686,"[[89.9,7666],[90.8,7750],[91.9,7833],[92.3,7915],[93.1,7999],[94.7,8083],[96.1,8166],[96.6,8250],[96.7,8332],[96.7,8416],[96.7,8499],[96.7,8583],[96.6,8666],[89.1,8750],[83.1,8833],[83.1,8916],[83.1,8999],[83.1,9082],[83.1,9165],[83.1,9249],[83.1,9333],[83.1,9416],[83.1,9499],[83.1,9583],[83.1,9665],[83.1,9748],[83.1,9833],[83.1,9916],[83.1,9999],[83.1,10082],[83.1,10166],[83.1,10248],[83.1,10333],[83.1,10416],[83.1,10499],[83.1,10583],[83.1,10666],[83.1,10748],[83.1,10833],[83.1,10916],[83.1,10998],[83.1,11082],[83.1,11166],[83.1,11248],[83.1,11333],[83.1,11416],[83.1,11499],[83.1,11583],[83.1,11665],[83.1,11749],[83.1,11833],[83.1,11916],[83.1,11999],[83.1,12083],[83.1,12166],[83.1,12250],[83.1,12333],[83.1,12416],[83.1,12498],[83.1,12583],[83.5,12666],[85.3,12750],[85.7,12833],[89.6,12917],[92.2,13000],[92.5,13082],[92.5,13165],[92.5,13249],[92.5,13332],[92.5,13415],[92.5,13499]]",766.7687,769.5855,92.30197694,1.4981,"[{""rating"":92.3019769444767,""responseTime"":1.4981000001430402}]",space,2.2694,,769.5856,Not at all,0,769.5893,,,[],,0,3,3,3,1,audio/Narrative7Situation3.wav,audio/Narrative8Situation3.wav,audio/Narrative5Situation3.wav,audio/Narrative6Situation3.wav,8,4,3,5,,,,,,,,,,,,,,,,,,,,,,,,,,,,,,,,,,,,,,,
,,,,,6113ffbf45e79bc2769db74c,2025-07-07_21h38.44.432,group3.4_multiperson,2023.2.2,MacIntel,61.72839506,686c2ebf0248f13bef9af11f,686c8449b831e9279f536b1c,,,,,,,,,,,,,,,,,,,,,,,,,,,,,769.5897,2,audio/Narrative5Situation4.wav,770.6011,,770.6011,790.9848,"[[91.5,10250],[95.4,10334],[97.7,10417],[98,10499],[98,10584],[98,10667],[98,10751],[98,10834],[98,10916],[98,11001],[98,11083],[98,11166],[98.1,11251],[100,11334],[100,11416],[100,11500],[100,11584],[100,11667],[100,11751],[100,11833],[100,11917],[100,12001],[100,12083],[100,12167],[100,12251],[100,12333],[100,12416],[100,12501],[100,12583],[100,12668],[100,12751],[100,12834],[100,12917],[100,13001],[100,13083],[100,13166],[100,13251],[100,13334],[100,13417],[100,13500],[100,13584],[100,13667],[100,13751],[100,13834],[100,13917],[100,14000],[100,14083],[100,14167],[100,14250],[100,14334],[100,14416],[100,14500],[100,14584],[100,14667],[100,14750],[100,14834],[100,14917],[100,15000],[100,15084],[100,15167],[100,15250],[100,15334],[100,15416],[100,15501],[100,15584],[100,15667],[100,15751],[100,15834],[100,15917],[100,16001],[100,16084],[100,16166],[100,16251],[100,16334],[100,16417],[100,16500],[100,16584],[100,16668],[100,16750],[100,16834],[100,16916],[100,17001],[100,17084],[100,17167],[100,17250],[100,17334],[100,17418],[100,17501],[100,17583],[100,17667],[100,17750],[100,17834],[100,17918],[100,18001],[100,18083],[100,18167],[100,18251],[100,18333],[100,18418],[100,18500],[100,18583],[100,18668],[100,18751],[100,18834],[100,18917],[100,19001],[100,19084],[100,19167],[100,19251],[100,19334],[100,19418],[100,19501],[100,19584],[100,19667],[100,19751],[100,19833],[100,19917],[100,20001],[100,20083],[100,20167],[99.8,20251],[98.1,20334]]",790.985,796.1525,100,4.5474,"[{""rating"":95.55555762516124,""responseTime"":3.765600000143081},{""rating"":100,""responseTime"":4.547400000095308}]",space,4.6354,,796.1526,Not at all,0,796.1551,,,[],,0,4,4,4,1,audio/Narrative7Situation4.wav,audio/Narrative8Situation4.wav,audio/Narrative5Situation4.wav,audio/Narrative6Situation4.wav,3,3,1,2,,,,,,,,,,,,,,,,,,,,,,,,,,,,,,,,,,,,,,,
,,,,,6113ffbf45e79bc2769db74c,2025-07-07_21h38.44.432,group3.4_multiperson,2023.2.2,MacIntel,61.72839506,686c2ebf0248f13bef9af11f,686c8449b831e9279f536b1c,,,,,,,,,,,,,,,,,,,,,,,,,,,,,796.1554,2,audio/Narrative5Situation5.wav,801.1686,,801.1687,816.5862,"[[100,3917],[100,3999],[99.2,4083],[99.7,4167],[100,4249],[100,4334],[100,4417],[100,4499],[100,4582],[100,4667]]",816.5863,820.852,100,2.1313,"[{""rating"":97.94976331865146,""responseTime"":1.4959000000952756},{""rating"":100,""responseTime"":2.1312999999522617}]",space,3.7431,,820.852,Not at all,0,820.8537,,,[],,0,5,5,5,1,audio/Narrative7Situation5.wav,audio/Narrative8Situation5.wav,audio/Narrative5Situation5.wav,audio/Narrative6Situation5.wav,5,2,5,2,,,,,,,,,,,,,,,,,,,,,,,,,,,,,,,,,,,,,,,
,,,,,6113ffbf45e79bc2769db74c,2025-07-07_21h38.44.432,group3.4_multiperson,2023.2.2,MacIntel,61.72839506,686c2ebf0248f13bef9af11f,686c8449b831e9279f536b1c,,,,,,,,,,,,,,,,,,,,,,,,,,,,,820.854,2,audio/Narrative5Situation6.wav,823.8685,,823.8685,829.5363,[],829.5365,833.7031,98.77170341,1.9297,"[{""rating"":98.77170341057027,""responseTime"":1.92970000004766}]",space,3.6181,,833.7032,Partially,50,833.7075,,,[],,0,6,6,6,1,audio/Narrative7Situation6.wav,audio/Narrative8Situation6.wav,audio/Narrative5Situation6.wav,audio/Narrative6Situation6.wav,3,2,3,2,,,,,,,,,,,,,,,,,,,,,,,,,,,,,,,,,,,,,,,
,,,,,6113ffbf45e79bc2769db74c,2025-07-07_21h38.44.432,group3.4_multiperson,2023.2.2,MacIntel,61.72839506,686c2ebf0248f13bef9af11f,686c8449b831e9279f536b1c,,,,,,,,,,,,,,,,,,,,,,,,,,,,,833.7079,2,audio/Narrative5Situation7.wav,837.7197,,837.7199,858.77,"[[999,0],[999,82],[999,165],[999,249],[999,332],[999,415],[999,498],[999,583],[999,665],[999,749],[999,833],[999,916],[999,998],[999,1083],[999,1166],[999,1248],[999,1333],[999,1416],[999,1499],[999,1582],[999,1666],[999,1748],[999,1833],[999,1915],[999,1999],[999,2083],[999,2166],[999,2249],[999,2332],[999,2416],[999,2498],[999,2583],[999,2666],[999,2749],[999,2832],[999,2916],[999,2999],[999,3082],[999,3166],[999,3249],[999,3333],[999,3416],[999,3499],[999,3581],[999,3666],[999,3749],[999,3833],[999,3916],[999,3999],[999,4083],[999,4166],[999,4249],[999,4333],[999,4416],[999,4499],[999,4583],[999,4666],[999,4749],[999,4832],[999,4916],[999,4999],[999,5083],[999,5166],[999,5250],[999,5333],[999,5416],[999,5500],[92.4,5583],[97.6,5666],[98.6,5750],[98.6,5832],[98.6,5915],[98.6,5998],[98.6,6083],[98.6,6166],[98.6,6249],[98.6,6333],[98.6,6415],[98.6,6500],[98.6,6583],[98.6,6665],[98.6,6749],[98.6,6833],[98.6,6915],[98.6,6999],[98.6,7083],[98.6,7166],[98.6,7249],[98.6,7332],[98.6,7416],[98.6,7499],[98.6,7582],[98.6,7666],[98.6,7749],[98.6,7833],[98.6,7916],[98.6,7999],[98.6,8083],[98.6,8166],[98.6,8249],[98.6,8333],[98.6,8415],[98.6,8498],[98.6,8583],[98.6,8665],[98.6,8749],[98.6,8832],[98.6,8915],[98.6,8999],[98.6,9083],[98.6,9166],[98.6,9249],[98.6,9333],[98.6,9416],[98.6,9499],[98.6,9583],[98.6,9666],[98.6,9749],[98.6,9833],[98.6,9916],[98.6,9998],[98.6,10083],[98.6,10166],[98.6,10249],[98.6,10332],[98.6,10416],[98.6,10499],[98.6,10582],[98.6,10665],[98.6,10749],[98.6,10833],[98.6,10916],[98.6,10999],[98.6,11083],[98.6,11166],[98.6,11249],[98.6,11333],[98.6,11416],[98.6,11499],[98.6,11583],[98.6,11666],[98.6,11748],[98.6,11832],[98.6,11916],[98.6,11999],[98.6,12083],[98.6,12166],[98.6,12249],[98.6,12333],[98.6,12416],[98.6,12500],[98.6,12583],[98.6,12666],[98.6,12749],[98.6,12833],[98.6,12915],[98.6,12999],[98.6,13083],[98.6,13166],[98.6,13249],[98.6,13332],[98.6,13416],[98.6,13499],[98.6,13583],[98.6,13665],[98.6,13749],[98.6,13833],[98.6,13915],[98.6,13999],[98.6,14082],[98.6,14166],[98.6,14249],[98.6,14333],[98.6,14415],[98.6,14499],[98.6,14582],[98.6,14665],[98.6,14748],[98.6,14832],[98.6,14916],[98.6,14999],[98.6,15083],[98.6,15166],[98.6,15249],[98.6,15333],[98.6,15416],[98.6,15499],[98.6,15582],[98.6,15666],[98.6,15749],[98.6,15832],[98.6,15916],[98.6,15999],[98.6,16083],[98.6,16166],[98.6,16249],[98.6,16333],[98.6,16415],[98.6,16499],[98.6,16583],[98.6,16666],[98.6,16749],[98.6,16833],[98.6,16915],[98.6,17000],[98.6,17082],[98.6,17166],[98.6,17249],[98.6,17333],[98.6,17415],[98.6,17499],[98.6,17583],[98.6,17666],[98.6,17749],[98.6,17832],[98.6,17916],[98.6,18000],[98.6,18082],[98.6,18166],[98.6,18249],[98.6,18333],[98.6,18415],[98.6,18498],[98.6,18583],[98.6,18666],[98.6,18749],[98.6,18832],[98.6,18916],[98.6,19000],[98.6,19082],[98.6,19166],[98.6,19249],[98.6,19333],[98.6,19416],[98.6,19499],[98.6,19582],[98.6,19666],[98.6,19749],[98.6,19833],[98.6,19916],[98.6,19999],[98.6,20083],[98.6,20166],[98.6,20248],[98.6,20333],[98.6,20415],[98.6,20498],[98.6,20583],[98.6,20666],[98.6,20749],[98.6,20833],[98.6,20916],[98.6,20999]]",858.7702,860.8366,98.91710695,1.2779,"[{""rating"":98.91710695251166,""responseTime"":1.277899999857027}]",space,1.5195,,860.8367,Partially,50,860.8393,,,[],,0,7,7,7,1,audio/Narrative7Situation7.wav,audio/Narrative8Situation7.wav,audio/Narrative5Situation7.wav,audio/Narrative6Situation7.wav,5,3,4,5,,,,,,,,,,,,,,,,,,,,,,,,,,,,,,,,,,,,,,,
,,,,,6113ffbf45e79bc2769db74c,2025-07-07_21h38.44.432,group3.4_multiperson,2023.2.2,MacIntel,61.72839506,686c2ebf0248f13bef9af11f,686c8449b831e9279f536b1c,,,,,,,,,,,,,,,,,,,,,,,,,,,,,860.8396,2,audio/Narrative5Situation8.wav,863.8534,,863.8535,872.6869,"[[82.5,3666],[64.9,3999],[64.9,4083],[64.9,4166],[65.5,4250],[68.7,4332],[72.7,4416],[75.5,4500],[78.5,4583],[80.3,4666],[80.6,4749],[80.6,4833],[80.6,4916],[80.6,4999],[80.6,5083],[80.6,5166],[80.6,5249],[80.6,5333],[80.6,5416],[80.6,5499],[80.6,5583],[80.6,5666],[80.6,5749],[80.6,5833],[80.6,5916],[80.6,5999],[80.6,6083],[80.6,6166],[80.6,6250],[80.6,6332],[80.6,6416],[80.6,6499],[80.6,6583],[80.6,6666],[80.6,6749],[80.6,6833],[80.6,6916],[80.6,6999],[80.6,7083],[80.6,7165],[80.6,7250],[80.6,7333],[80.6,7416],[80.6,7500],[80.6,7583],[80.6,7666],[80.6,7749],[80.6,7832],[80.6,7916],[80.6,7999],[80.6,8083],[80.6,8166],[80.6,8249],[80.6,8333],[80.6,8416],[80.6,8499],[80.6,8583],[80.6,8666],[80.6,8750],[80.6,8833]]",872.687,876.9036,88.55305783,1.2479,"[{""rating"":88.55305783123191,""responseTime"":1.2478999998569407}]",space,3.6772,,876.9037,Partially,50,876.9062,,,[],,0,8,8,8,1,audio/Narrative7Situation8.wav,audio/Narrative8Situation8.wav,audio/Narrative5Situation8.wav,audio/Narrative6Situation8.wav,2,3,3,5,,,,,,,,,,,,,,,,,,,,,,,,,,,,,,,,,,,,,,,
,,,,,6113ffbf45e79bc2769db74c,2025-07-07_21h38.44.432,group3.4_multiperson,2023.2.2,MacIntel,61.72839506,686c2ebf0248f13bef9af11f,686c8449b831e9279f536b1c,,,,,,,,,,,,,,,,,,,,,,,,,,,,,876.9066,2,audio/Narrative5Situation9.wav,879.9203,,879.9204,919.471,"[[91.2,10917],[92.2,10999],[92.4,11083],[92.3,11167],[92.3,11250],[92.3,11333],[92.3,11416],[92.3,11500],[92.3,11583],[92.3,11666],[92.3,11750],[92.3,11833],[92.3,11916],[92.3,11999],[92.3,12083],[96.5,12166],[99.2,12249],[99.2,12333],[99.2,12415],[99.2,12500],[99.2,12582],[99.2,12666],[99.2,12750],[99.2,12833],[99.2,12916],[99.2,12999],[99.2,13083],[99.2,13166],[99.2,13249],[99.2,13333],[99.2,13416],[99.2,13500],[99.2,13583],[99.2,13666],[99.2,13750],[99.2,13833],[99.2,13916],[99.2,14000],[99.2,14083],[99.2,14166],[99.2,14250],[99.2,14333],[99.2,14416],[99.2,14500],[99.2,14583],[99.2,14665],[99.2,14750],[99.2,14833],[99.2,14916],[99.2,15000],[99.2,15083],[99.2,15166],[99.2,15250],[99.2,15333],[99.2,15415],[99.2,15499],[99.2,15583],[99.2,15666],[99.2,15750],[99.2,15833],[99.2,15916],[99.2,16000],[99.2,16083],[99.2,16166],[99.2,16250],[99.2,16333],[99.2,16416],[99.2,16500],[99.2,16583],[99.2,16666],[99.2,16750],[99.2,16833],[99.2,16916],[99.2,17000],[99.2,17083],[99.2,17166],[99.2,17250],[99.2,17333],[99.2,17416],[99.2,17499],[99.2,17583],[99.2,17666],[99.2,17749],[99.2,17833],[99.2,17916],[99.2,18000],[99.2,18083],[99.2,18166],[99.2,18249],[99.2,18333],[99.2,18416],[99.2,18499],[99.2,18583],[99.2,18666],[99.2,18750],[99.2,18833],[99.2,18916],[99.2,19000],[99.2,19083],[99.2,19166],[99.2,19250],[99.2,19333],[99.2,19416],[99.2,19500],[99.2,19583],[99.2,19666],[99.2,19750],[99.2,19833],[99.2,19916],[99.2,20000],[99.2,20083],[99.2,20166],[99.2,20250],[99.2,20333],[99.2,20416],[99.2,20500],[99.2,20583],[99.2,20667],[99.2,20750],[99.2,20832],[99.2,20916],[99.2,20999],[99.2,21083],[99.2,21166],[99.2,21249],[99.2,21333],[99.2,21416],[99.2,21500],[99.2,21583],[99.2,21666],[99.2,21750],[99.2,21833],[99.2,21916],[99.2,21999],[99.2,22083],[99.2,22166],[99.2,22250],[99.2,22333],[99.2,22416],[99.2,22500],[99.2,22582],[99.2,22666],[99.2,22749],[99.2,22833],[99.2,22916],[99.2,23000],[99.2,23083],[99.2,23166],[99.2,23250],[99.2,23333],[99.2,23416],[99.2,23499],[99.2,23583],[99.2,23666],[99.2,23750],[99.2,23833],[99.2,23916],[99.2,24000],[99.2,24083],[99.2,24166],[99.2,24250],[99.2,24333],[99.2,24416],[99.2,24500],[99.2,24582],[99.2,24666],[99.2,24750],[99.2,24833],[99.2,24916],[99.2,25000],[99.2,25083],[99.2,25166],[99.2,25249],[99.2,25333],[99.2,25416],[99.2,25500],[99.2,25583],[99.2,25666],[99.2,25750],[99.2,25833],[99.2,25916],[99.2,26000],[99.2,26083],[99.2,26166],[99.2,26250],[99.2,26333],[99.2,26416],[99.2,26500],[99.2,26583],[99.2,26666],[99.2,26750],[99.2,26833],[99.2,26916],[99.2,27000],[99.2,27083],[99.2,27166],[99.2,27250],[99.2,27333],[99.2,27416],[99.2,27500],[99.2,27583],[99.2,27667],[99.2,27750],[99.2,27833],[99.2,27916],[99.2,28000],[99.2,28083],[99.2,28166],[99.2,28250],[99.2,28333],[99.2,28416],[99.2,28500],[99.2,28583],[99.2,28666],[99.2,28750],[99.2,28833],[99.2,28916],[99.2,29000],[99.2,29083],[99.2,29166],[99.2,29250],[99.2,29333],[99.2,29417],[99.2,29500],[99.2,29583],[99.2,29666],[99.2,29750],[99.2,29833],[99.2,29916],[99.2,29999],[99.2,30083],[99.2,30166],[99.2,30250],[99.2,30333],[99.2,30416],[99.2,30499],[99.2,30583],[99.2,30666],[99.2,30750],[99.2,30833],[99.2,30916],[99.2,31000],[99.2,31083],[99.2,31166],[99.2,31250],[99.2,31333],[99.2,31416],[99.2,31500],[99.2,31583],[99.2,31667],[99.2,31750],[99.2,31833],[99.2,31916],[99.2,32000],[99.2,32083],[99.2,32166],[99.2,32250],[99.2,32333],[99.2,32416],[99.2,32500],[99.2,32583],[99.2,32666],[99.2,32750],[99.2,32833],[99.2,32917],[99.2,33000],[99.2,33083],[99.2,33167],[99.2,33249],[99.2,33333],[99.2,33416],[99.2,33500],[99.2,33582],[99.2,33666],[99.2,33750],[99.2,33833],[99.7,33917],[100,33999],[100,34083],[100,34166],[100,34250],[100,34333],[100,34416],[100,34500],[100,34583],[100,34666],[100,34750],[100,34833],[100,34917],[100,34999],[100,35083],[100,35167],[100,35250],[100,35333],[100,35416],[100,35500],[100,35583],[100,35666],[100,35750],[100,35833],[100,35917],[100,36000],[100,36083],[100,36167],[100,36250],[100,36333],[100,36416],[100,36500],[100,36583],[100,36666],[100,36750],[100,36833],[100,36916],[100,37000],[100,37083],[100,37167],[100,37249],[100,37333],[100,37416],[100,37500],[100,37583],[100,37666],[100,37749],[100,37833],[100,37917],[100,38000],[100,38083],[100,38166],[100,38250],[100,38333],[100,38417],[100,38500],[100,38583],[100,38667],[100,38750],[100,38833],[100,38917],[100,39000],[100,39083],[100,39167],[100,39250],[100,39333],[100,39417],[100,39500]]",919.4712,922.0709,92.11913851,1.331,"[{""rating"":92.11913850725982,""responseTime"":1.3310000000000173}]",space,2.0533,,922.0712,Partially,50,922.0738,,,[],,0,9,9,9,1,audio/Narrative7Situation9.wav,audio/Narrative8Situation9.wav,audio/Narrative5Situation9.wav,audio/Narrative6Situation9.wav,2,3,3,4,,,,,,,,,,,,,,,,,,,,,,,,,,,,,,,,,,,,,,,
,,,,,6113ffbf45e79bc2769db74c,2025-07-07_21h38.44.432,group3.4_multiperson,2023.2.2,MacIntel,61.72839506,686c2ebf0248f13bef9af11f,686c8449b831e9279f536b1c,,,,,,,,,,,,,,,,,,,,,,,,,,,,,922.0742,2,audio/Narrative6Situation1.wav,924.0876,,924.0876,950.6715,"[[92.2,2666],[95.2,2749],[97.6,2833],[99.1,2916],[99.5,2999],[99.5,3083],[99.5,3166],[100,3249],[100,3332],[100,3416],[100,3499],[100,3582],[100,3666],[100,3749],[100,3833],[100,3916],[100,3999],[100,4083],[100,4166],[100,4250],[100,4333],[100,4416],[100,4500],[100,4583],[100,4666],[100,4750],[100,4833],[100,4916],[100,5000],[100,5083],[100,5166],[100,5249],[100,5332],[100,5416],[100,5499],[100,5582],[100,5666],[100,5750],[100,5833],[100,5916],[100,6000],[100,6083],[100,6166],[100,6250],[100,6333],[100,6416],[100,6499],[100,6583],[100,6666],[100,6750],[100,6833],[100,6916],[100,7000],[100,7083],[100,7166],[100,7249],[100,7332],[100,7416],[100,7500],[100,7583],[100,7666],[100,7750],[100,7833],[100,7916],[100,8000],[100,8083],[100,8166],[100,8250],[100,8333],[100,8416],[100,8499],[100,8583],[100,8666],[100,8749],[100,8833],[100,8916],[100,9000],[100,9083],[100,9166],[100,9249],[100,9332],[100,9416],[100,9499],[100,9583],[100,9666],[100,9750],[100,9833],[100,9916],[100,9999],[100,10083],[100,10166],[100,10250],[100,10332],[100,10416],[100,10500],[100,10583],[100,10666],[100,10750],[100,10833],[100,10916],[100,11000],[100,11083],[100,11166],[100,11250],[100,11332],[100,11416],[100,11499],[100,11582],[100,11666],[100,11750],[100,11833],[100,11916],[100,12000],[100,12083],[100,12166],[100,12250],[100,12333],[100,12416],[100,12500],[100,12583],[100,12666],[100,12749],[100,12833],[100,12916],[100,12999],[100,13083],[100,13166],[100,13250],[100,13333],[100,13416],[100,13500],[100,13583],[100,13666],[100,13750],[100,13833],[100,13916],[100,14000],[100,14083],[100,14166],[100,14250],[100,14333],[100,14416],[100,14500],[100,14582],[100,14665],[100,14750],[100,14833],[100,14916],[100,15000],[100,15083],[100,15166],[100,15250],[100,15332],[100,15416],[100,15500],[100,15583],[100,15666],[100,15749],[100,15833],[100,15915],[100,16000],[100,16083],[100,16166],[100,16250],[100,16333],[100,16416],[100,16500],[100,16583],[100,16666],[100,16750],[100,16833],[100,16916],[100,17000],[100,17083],[100,17166],[100,17250],[100,17333],[100,17416],[100,17500],[100,17582],[100,17666],[100,17749],[100,17833],[100,17916],[100,18000],[100,18083],[100,18166],[100,18250],[100,18333],[100,18416],[100,18500],[100,18583],[100,18666],[100,18749],[100,18833],[100,18916],[100,19000],[100,19083],[100,19166],[100,19250],[100,19332],[100,19415],[100,19500],[100,19583],[100,19666],[100,19750],[100,19833],[100,19916],[100,20000],[100,20083],[100,20166],[100,20250],[100,20333],[100,20416],[100,20500],[100,20583],[100,20667],[100,20750],[100,20833],[100,20916],[100,20999],[100,21083],[100,21166],[100,21250],[100,21333],[100,21417],[100,21500],[100,21583],[100,21665],[100,21750],[100,21833],[100,21917],[100,21999],[100,22083],[100,22166],[100,22250],[100,22333],[100,22417],[100,22500],[100,22583],[100,22666],[100,22750],[100,22833],[100,22916],[100,23000],[100,23083],[100,23167],[100,23249],[100,23333],[100,23416],[100,23499],[100,23583],[100,23666],[100,23750],[100,23833],[100,23916],[100,24000],[100,24083],[100,24167],[100,24250],[100,24333],[100,24416],[100,24500],[100,24583],[100,24666],[100,24750],[100,24833],[100,24916],[100,25000],[100,25083],[100,25166],[100,25250],[100,25333],[100,25416],[100,25500],[100,25583],[100,25666],[100,25750],[100,25833],[100,25916],[100,25999],[100,26083],[100,26166],[100,26250],[100,26333],[100,26417],[100,26500],[100,26583]]",950.6717,955.3712,96.93902115,3.0969,"[{""rating"":96.9390211462127,""responseTime"":3.0969000000953884}]",space,4.1526,,955.3713,Partially,50,955.3735,,,[],,0,10,10,10,1,audio/Narrative8Situation1.wav,audio/Narrative7Situation1.wav,audio/Narrative6Situation1.wav,audio/Narrative5Situation1.wav,5,2,2,5,,,,,,,,,,,,,,,,,,,,,,,,,,,,,,,,,,,,,,,
,,,,,6113ffbf45e79bc2769db74c,2025-07-07_21h38.44.432,group3.4_multiperson,2023.2.2,MacIntel,61.72839506,686c2ebf0248f13bef9af11f,686c8449b831e9279f536b1c,,,,,,,,,,,,,,,,,,,,,,,,,,,,,955.3738,2,audio/Narrative6Situation2.wav,958.388,,958.3881,986.9052,"[[999,0],[999,83],[999,166],[999,249],[999,333],[999,416],[999,499],[999,583],[999,666],[999,749],[999,833],[999,916],[999,998],[999,1083],[999,1166],[999,1250],[999,1333],[999,1416],[999,1500],[999,1582],[999,1666],[999,1749],[999,1833],[999,1915],[999,2000],[999,2083],[999,2166],[999,2249],[999,2333],[999,2415],[999,2499],[999,2583],[999,2666],[999,2750],[999,2833],[999,2915],[999,2999],[999,3083],[999,3166],[999,3249],[999,3333],[999,3416],[999,3499],[999,3582],[999,3666],[999,3750],[999,3833],[999,3916],[999,3998],[999,4081],[999,4166],[999,4248],[999,4333],[999,4416],[999,4499],[999,4583],[999,4666],[999,4748],[999,4833],[999,4916],[999,4999],[999,5083],[999,5166],[999,5249],[999,5332],[999,5415],[999,5499],[999,5582],[999,5666],[999,5749],[999,5833],[999,5916],[999,5999],[999,6082],[999,6166],[999,6249],[999,6333],[999,6416],[999,6498],[999,6583],[999,6666],[999,6749],[5.3,6833],[2.2,6916],[1.7,7000],[2.4,7083],[3,7166],[3,7249],[3,7332],[3,7416],[3,7499],[3,7583],[3,7665],[3,7749],[3,7832],[3,7916],[3,8000],[3,8082],[3,8166],[3,8249],[3,8333],[3,8415],[3,8500],[3,8583],[3,8666],[3,8749],[3,8832],[3,8916],[3,8999],[3,9083],[3,9165],[3,9248],[3,9333],[4.3,9416],[9.8,9500],[19.2,9667],[20,9750],[20.2,9833],[18.1,9916],[16.5,9999],[12.3,10082],[9.6,10167],[9.5,10249],[9.5,10333],[9.5,10416],[9.5,10500],[9.5,10583],[9.5,10666],[9.5,10749],[9.5,10832],[9.5,10916],[9.5,10999],[9.5,11082],[9.5,11166],[9.5,11250],[9.5,11333],[9.5,11416],[9.5,11500],[9.5,11583],[9.5,11665],[9.5,11750],[11.1,11833],[31.4,11916],[39.2,12000],[42.1,12083],[44.2,12167],[57.9,12249],[83.4,13000],[79.7,13083],[79.7,13166],[79.7,13248],[84.2,13333],[88.4,13416],[95.8,13500],[99.6,13583],[100,13666],[100,13750],[100,13833],[100,13916],[100,13998],[100,14081],[100,14165],[100,14249],[100,14333],[100,14416],[100,14499],[100,14582],[100,14666],[100,14749],[100,14833],[100,14916],[100,15000],[100,15083],[100,15166],[100,15250],[100,15333],[100,15416],[100,15499],[100,15583],[100,15666],[100,15750],[100,15833],[100,15916],[100,16000],[100,16082],[100,16166],[100,16249],[100,16333],[100,16416],[100,16500],[100,16583],[100,16666],[100,16750],[100,16832],[100,16917],[100,16999],[100,17083],[100,17166],[100,17250],[100,17332],[100,17416],[100,17499],[100,17583],[100,17666],[100,17750],[100,17832],[100,17916],[100,17999],[100,18083],[100,18166],[100,18250],[100,18333],[100,18416],[100,18500],[100,18583],[100,18666],[100,18749],[100,18833],[100,18915],[100,19000],[100,19083],[100,19165],[100,19250],[100,19332],[100,19416],[100,19500],[100,19583],[100,19666],[100,19750],[100,19833],[100,19916],[100,19999],[100,20083],[100,20166],[100,20250],[100,20333],[100,20416],[100,20500],[100,20583],[100,20666],[100,20749],[100,20833],[100,20916],[100,21000],[100,21083],[100,21166],[100,21250],[100,21332],[100,21415],[100,21500],[100,21582],[100,21666],[100,21750],[100,21833],[100,21915],[100,21999],[100,22082],[100,22166],[100,22250],[100,22333],[100,22416],[100,22499],[100,22583],[100,22666],[100,22749],[100,22833],[100,22915],[100,23000],[100,23083],[100,23165],[100,23249],[100,23333],[100,23415],[100,23500],[100,23583],[100,23665],[100,23750],[100,23832],[100,23916],[100,24000],[100,24083],[100,24166],[100,24250],[100,24333],[100,24416],[100,24499],[100,24582],[100,24665],[100,24750],[100,24833],[100,24915],[100,25000],[100,25083],[100,25165],[100,25250],[100,25333],[100,25416],[100,25499],[100,25582],[100,25666],[100,25750],[100,25833],[100,25915],[100,26000],[100,26082],[100,26165],[100,26249],[100,26332],[100,26415],[100,26499],[100,26582],[100,26666],[100,26749],[100,26833],[100,26917],[100,27000],[100,27083],[100,27166],[100,27249],[100,27333],[100,27416],[100,27500],[100,27582],[100,27666],[100,27750],[100,27832],[100,27915],[100,28000],[100,28083],[100,28167],[100,28250],[100,28333],[100,28415],[100,28499]]",986.9055,992.0885,100,3.0622,"[{""rating"":100,""responseTime"":3.06220000004771}]",space,4.6365,,992.0886,Not at all,0,992.0925,,,[],,0,11,11,11,1,audio/Narrative8Situation2.wav,audio/Narrative7Situation2.wav,audio/Narrative6Situation2.wav,audio/Narrative5Situation2.wav,3,3,3,3,,,,,,,,,,,,,,,,,,,,,,,,,,,,,,,,,,,,,,,
,,,,,6113ffbf45e79bc2769db74c,2025-07-07_21h38.44.432,group3.4_multiperson,2023.2.2,MacIntel,61.72839506,686c2ebf0248f13bef9af11f,686c8449b831e9279f536b1c,,,,,,,,,,,,,,,,,,,,,,,,,,,,,992.0928,2,audio/Narrative6Situation3.wav,997.105,,997.1051,1009.7054,"[[100,8166],[97,8250],[96.1,8333],[97.7,8415],[99,8500],[99,8583],[99,8666],[99,8750],[99,8832],[99,8917],[99,8999],[99,9082],[99,9165],[99,9250],[99,9333],[99,9416],[99,9499],[99,9582],[99,9666],[99,9749],[99,9833],[99,9916],[99,10000],[99,10083],[99,10165],[99,10249],[99,10332],[99,10415],[99,10500],[99,10582],[99,10666],[99,10750],[99,10833],[99,10916],[99,11000],[99,11083],[99,11166],[99,11249],[99,11333],[99,11416],[99,11500],[99,11583],[99,11665],[99,11750],[99,11833],[99,11915],[99,12000],[99,12083],[99,12165],[99,12249],[99,12333],[99,12416],[99,12500],[99,12582]]",1009.7056,1012.522,99.12218507,1.9811,"[{""rating"":99.12218507445579,""responseTime"":1.9810999999044725}]",space,2.269,,1012.522,Not at all,0,1012.5239,,,[],,0,12,12,12,1,audio/Narrative8Situation3.wav,audio/Narrative7Situation3.wav,audio/Narrative6Situation3.wav,audio/Narrative5Situation3.wav,4,8,5,3,,,,,,,,,,,,,,,,,,,,,,,,,,,,,,,,,,,,,,,
,,,,,6113ffbf45e79bc2769db74c,2025-07-07_21h38.44.432,group3.4_multiperson,2023.2.2,MacIntel,61.72839506,686c2ebf0248f13bef9af11f,686c8449b831e9279f536b1c,,,,,,,,,,,,,,,,,,,,,,,,,,,,,1012.5242,2,audio/Narrative6Situation4.wav,1014.5375,,1014.5376,1027.1558,"[[100,1584],[97.3,1834],[96.7,1918],[96.7,2001],[96.7,2083],[96.7,2166],[96.7,2251],[96.7,2334],[96.7,2417],[96.7,2501],[96.7,2584],[96.7,2667],[96.7,2751],[96.7,2834],[96.7,2917],[96.7,2999],[96.7,3084],[96.7,3167],[96.7,3251],[96.7,3334],[96.7,3416],[96.7,3501],[96.7,3584],[96.7,3667],[96.7,3751],[96.7,3833],[96.7,3917],[96.7,4001],[96.7,4084],[96.7,4167],[95.6,4251],[82,10334],[75.6,10417],[74.1,10501],[74,10583],[75.4,10668],[80.7,10750],[81.9,10834],[81.9,10916],[81.8,11001],[78.6,11084],[76.3,11167],[71.9,11250],[65.6,11334],[63.1,11418],[60.4,11501],[59.8,11585],[56.8,11667],[51.2,11751],[48.2,11835],[48,11917],[48,12000],[48,12083],[48.5,12168],[49.2,12251],[49.3,12333],[49.3,12416],[49.3,12501],[49.3,12583]]",1027.1561,1029.5558,53.86610512,1.3815,"[{""rating"":53.8661051213825,""responseTime"":1.38149999999996}]",space,1.8492,,1029.5558,Not at all,0,1029.5581,,,[],,0,13,13,13,1,audio/Narrative8Situation4.wav,audio/Narrative7Situation4.wav,audio/Narrative6Situation4.wav,audio/Narrative5Situation4.wav,3,3,2,1,,,,,,,,,,,,,,,,,,,,,,,,,,,,,,,,,,,,,,,
,,,,,6113ffbf45e79bc2769db74c,2025-07-07_21h38.44.432,group3.4_multiperson,2023.2.2,MacIntel,61.72839506,686c2ebf0248f13bef9af11f,686c8449b831e9279f536b1c,,,,,,,,,,,,,,,,,,,,,,,,,,,,,1029.5584,2,audio/Narrative6Situation5.wav,1031.5714,,1031.5715,1039.5226,[],1039.5228,1045.1393,38.28070827,4.8643,"[{""rating"":38.28070826906897,""responseTime"":4.864300000190724}]",space,5.0678,,1045.1394,Not at all,0,1045.1418,,,[],,0,14,14,14,1,audio/Narrative8Situation5.wav,audio/Narrative7Situation5.wav,audio/Narrative6Situation5.wav,audio/Narrative5Situation5.wav,2,5,2,5,,,,,,,,,,,,,,,,,,,,,,,,,,,,,,,,,,,,,,,
,,,,,6113ffbf45e79bc2769db74c,2025-07-07_21h38.44.432,group3.4_multiperson,2023.2.2,MacIntel,61.72839506,686c2ebf0248f13bef9af11f,686c8449b831e9279f536b1c,,,,,,,,,,,,,,,,,,,,,,,,,,,,,1045.1422,2,audio/Narrative6Situation6.wav,1047.1559,,1047.156,1058.2394,"[[41.5,7583],[100,8083],[100,8167],[98.6,8249],[97.7,8333],[97.7,8416],[97.7,8499],[97.7,8583],[97.7,8665],[97.7,8749],[97.7,8833],[97.7,8916],[97.7,8999],[97.7,9082],[97.7,9166],[97.7,9249],[97.7,9333],[97.7,9416],[97.7,9499],[97.7,9583],[97.7,9665],[97.7,9749],[97.7,9833],[97.7,9916],[97.7,9999],[97.7,10082],[97.7,10165],[97.7,10249],[97.7,10332],[97.7,10416],[97.7,10499],[97.7,10582],[97.7,10666],[97.7,10749],[97.7,10832],[97.7,10915],[97.7,10999],[97.7,11083]]",1058.2395,1060.8394,97.70995874,1.2986,"[{""rating"":97.7099587364501,""responseTime"":1.2986000001430966}]",space,2.0509,,1060.8395,Definitely yes,100,1060.8426,,,[],,0,15,15,15,1,audio/Narrative8Situation6.wav,audio/Narrative7Situation6.wav,audio/Narrative6Situation6.wav,audio/Narrative5Situation6.wav,2,3,2,3,,,,,,,,,,,,,,,,,,,,,,,,,,,,,,,,,,,,,,,
,,,,,6113ffbf45e79bc2769db74c,2025-07-07_21h38.44.432,group3.4_multiperson,2023.2.2,MacIntel,61.72839506,686c2ebf0248f13bef9af11f,686c8449b831e9279f536b1c,,,,,,,,,,,,,,,,,,,,,,,,,,,,,1060.8428,2,audio/Narrative6Situation7.wav,1065.8564,,1065.8565,1090.7232,"[[97.6,10583],[97.6,10666],[97.6,10749],[97.6,10832],[97.6,10916],[97.6,10999],[97.6,11083],[97.6,11166],[97.6,11249],[97.6,11332],[97.6,11416],[97.6,11499],[97.6,11582],[97.6,11666],[97.6,11749],[97.6,11833],[97.6,11916],[97.6,11999],[97.6,12082],[97.6,12166],[97.6,12249],[97.6,12333],[97.6,12416],[97.6,12499],[97.6,12583],[97.6,12666],[97.6,12749],[97.6,12832],[97.6,12916],[97.6,12999],[97.6,13083],[97.6,13166],[97.6,13249],[97.6,13332],[97.6,13415],[97.6,13499],[97.6,13583],[97.6,13666],[97.6,13749],[97.6,13832],[97.6,13916],[100,14000],[100,14083],[100,14166],[100,14249],[100,14333],[91.2,14416],[38.2,14499],[35.9,14583],[35.9,14666],[35.9,14749],[40.7,14832],[53.8,14916],[62.9,14999],[64.4,15083],[64.4,15166],[64.4,15249],[64.4,15333],[69.2,15416],[81.7,15499],[100,15582],[100,15666],[100,15749],[100,15833],[100,15916],[100,15999],[100,16083],[100,16166],[100,16250],[100,16333],[100,16416],[100,16499],[100,16583],[93.1,16666],[43,16749],[36.7,16832],[46.5,16916],[97,17583],[95,17665],[95.1,17750],[97.2,18000],[97.7,18083],[97.8,18166],[97.8,18250],[97.8,18333],[97.8,18416],[97.8,18499],[97.8,18583],[97.8,18666],[97.8,18749],[97.8,18833],[98,18916],[100,18999],[100,19083],[100,19166],[100,19249],[100,19332],[100,19416],[100,19499],[100,19583],[100,19666],[100,19749],[100,19833],[100,19916],[100,19999],[100,20083],[100,20166],[100,20249],[100,20333],[100,20416],[100,20499],[100,20583],[100,20666],[100,20749],[100,20833],[100,20915],[100,20999],[100,21083],[100,21166],[100,21249],[100,21332],[100,21416],[100,21499],[100,21583],[100,21666],[100,21749],[100,21833],[100,21916],[100,21999],[100,22083],[100,22166],[100,22250],[100,22333],[100,22416],[100,22499],[100,22583],[100,22666],[100,22749],[100,22833],[100,22916],[100,23000],[100,23083],[100,23166],[100,23249],[100,23333],[100,23416],[100,23499],[100,23583],[100,23666],[100,23750],[100,23833],[100,23916],[100,24000],[100,24083],[100,24165],[100,24249],[100,24333],[100,24416],[100,24499],[100,24583],[100,24666],[100,24750],[100,24833]]",1090.7234,1093.8233,100,2.1981,"[{""rating"":98.40331810111822,""responseTime"":1.6645000000000891},{""rating"":100,""responseTime"":2.198099999904798}]",space,2.5507,,1093.8234,Definitely yes,100,1093.8261,,,[],,0,16,16,16,1,audio/Narrative8Situation7.wav,audio/Narrative7Situation7.wav,audio/Narrative6Situation7.wav,audio/Narrative5Situation7.wav,3,5,5,4,,,,,,,,,,,,,,,,,,,,,,,,,,,,,,,,,,,,,,,
,,,,,6113ffbf45e79bc2769db74c,2025-07-07_21h38.44.432,group3.4_multiperson,2023.2.2,MacIntel,61.72839506,686c2ebf0248f13bef9af11f,686c8449b831e9279f536b1c,,,,,,,,,,,,,,,,,,,,,,,,,,,,,1093.8266,2,audio/Narrative6Situation8.wav,1098.84,,1098.8401,1105.7068,[],1105.7068,1111.0236,1.164279811,3.3051,"[{""rating"":1.1642798111198394,""responseTime"":3.3051000001430566}]",space,4.7685,,1111.0237,Partially,50,1111.0279,,,[],,0,17,17,17,1,audio/Narrative8Situation8.wav,audio/Narrative7Situation8.wav,audio/Narrative6Situation8.wav,audio/Narrative5Situation8.wav,3,2,5,3,,,,,,,,,,,,,,,,,,,,,,,,,,,,,,,,,,,,,,,
,,,,,6113ffbf45e79bc2769db74c,2025-07-07_21h38.44.432,group3.4_multiperson,2023.2.2,MacIntel,61.72839506,686c2ebf0248f13bef9af11f,686c8449b831e9279f536b1c,,,,,,,,,,,,,,,,,,,,,,,,,,,,,1111.0281,2,audio/Narrative6Situation9.wav,1115.0401,,1115.0402,1124.9907,"[[12.6,9666],[10.7,9750],[10.5,9833],[10.1,9917]]",1124.9908,1128.8072,1.068251167,1.2478,"[{""rating"":1.0682511667174432,""responseTime"":1.247799999952349}]",space,3.2668,,1128.8073,Not at all,0,1147.3737,0,15.0133,"[{""rating"":0.17740810646502125,""responseTime"":9.163700000047584},{""rating"":0,""responseTime"":15.013300000190839}]",space,0,18,18,18,1,audio/Narrative8Situation9.wav,audio/Narrative7Situation9.wav,audio/Narrative6Situation9.wav,audio/Narrative5Situation9.wav,3,2,4,3,,,18.0173,,,,,,,,,,,,,,,,,,,,,,,,,,,,,,,,,,,,
,,,,,6113ffbf45e79bc2769db74c,2025-07-07_21h38.44.432,group3.4_multiperson,2023.2.2,MacIntel,61.72839506,686c2ebf0248f13bef9af11f,686c8449b831e9279f536b1c,,,,,,,,,,,,,,,,,,,,,,,,,,,,,,,,,,,,,,,,,,,,,,,,,,,,,,,,,,,,,,,,,,,,,,1147.374,1167.9079,space,20.0008,,1167.9082,1205.1426,space,36.9007,,,,,,,,,,,,,,,,,,,,,,,,,,
,,,,,6113ffbf45e79bc2769db74c,2025-07-07_21h38.44.432,group3.4_multiperson,2023.2.2,MacIntel,61.72839506,686c2ebf0248f13bef9af11f,686c8449b831e9279f536b1c,,,,,,,,,,,,,,,,,,,,,,,,,,,,,1207.7418,1,audio/Narrative8Situation9.wav,1209.7584,,,,,1241.6098,1246.7586,49.77919112,3.63,"[{""rating"":49.779191119782254,""responseTime"":3.630000000000109}]",space,4.5989,,1246.7587,Partially,50,1246.7611,,,[],,,,,,,,,,,2,2,2,2,,,,,,,,,,,,,,,1205.1455,1207.7253,1209.7589,3,1241.6096,"[[6.9,3999],[5.3,4082],[5.1,4164],[5.1,4249],[5.1,4332],[5.1,4415],[5,4499],[4.9,4582],[4.9,4665],[4.3,4749],[3.7,4832],[3.7,4916],[3.8,4999],[3.9,5082],[4.6,5166],[5.1,5249],[5.1,5332],[5,5416],[4.2,5499],[3.8,5582],[3.2,5666],[3.1,5749],[3.1,5832],[3.1,5915],[3.1,5999],[3.1,6082],[3.1,6165],[3.1,6249],[3.1,6332],[3.1,6415],[3.1,6499],[3.1,6582],[3.1,6665],[3.1,6748],[3.1,6832],[3.1,6915],[3.1,6999],[3.1,7082],[3.1,7165],[3.1,7249],[3.1,7332],[3.1,7415],[3.1,7498],[3.1,7582],[3.1,7666],[3.1,7749],[3.1,7832],[3.1,7915],[3.1,7999],[3.1,8082],[3.1,8166],[3.1,8249],[3.1,8332],[3.1,8416],[3.1,8499],[3.1,8582],[3.1,8666],[3.1,8749],[3.1,8832],[3.1,8916],[3.1,8999],[3.1,9082],[3.1,9164],[3.1,9249],[3.1,9332],[3.1,9416],[3.1,9499],[3.1,9582],[3.1,9666],[3.1,9748],[3.1,9832],[3.1,9915],[3.1,9998],[3.1,10082],[3.1,10166],[3.1,10249],[3.1,10332],[3.1,10416],[3.1,10499],[3.1,10582],[3.1,10665],[3.1,10749],[3.1,10832],[3.1,10916],[3.1,10999],[3.1,11082],[3.1,11166],[3.1,11249],[3.1,11332],[3.1,11415],[3.1,11499],[3.1,11582],[4.9,11666],[18.5,11749],[25.9,11833],[26.7,11916],[27.7,11999],[29,12083],[33.4,12166],[39.2,12249],[39.3,12332],[39.3,12416],[39.3,12499],[39.3,12582],[39.3,12666],[39.3,12749],[39.3,12832],[39.3,12916],[39.3,12999],[39.3,13082],[39.3,13166],[39.3,13249],[39.3,13332],[39.3,13416],[39.3,13499],[39.3,13582],[39.3,13666],[39.3,13749],[39.3,13832],[39.3,13916],[39,13999],[30.7,14082],[23.8,14166],[21.9,14249],[21.4,14332],[21.4,14416],[21.4,14499],[20,14582],[15.8,14665],[8.2,14749],[3.6,14833],[0.1,14916],[0.1,15166],[0.7,15249],[0.7,15332],[0.7,15415],[0.7,15499],[0.7,15582],[0.7,15666],[0.7,15749],[0.7,15832],[0.7,15916],[0.7,15999],[0.7,16082],[0.7,16166],[0.7,16249],[0.7,16332],[0.7,16416],[0.7,16499],[0.7,16582],[0.7,16665],[0.7,16749],[0.7,16832],[0.7,16915],[0.7,16999],[0.7,17082],[0.7,17166],[0.7,17249],[0.7,17332],[0.7,17416],[0.7,17499],[0.7,17582],[0.7,17665],[0.7,17749],[0.7,17832],[0.7,17915],[0.7,17999],[0.7,18082],[0.6,18165],[0.6,18249],[0.6,18333],[0.6,18416],[0.6,18499],[0.6,18581],[0.6,18666],[0.6,18749],[0.6,18833],[0.6,18916],[0.6,18999],[0.6,19082],[0.6,19166],[0.6,19249],[0.6,19332],[0.6,19416],[0.6,19499],[0.6,19583],[0.6,19666],[0.6,19749],[0.6,19832],[0.6,19916],[0.6,19998],[0.6,20083],[0.6,20166],[0.6,20248],[0.6,20332],[0.6,20416],[0.6,20499],[0.6,20582],[0.6,20666],[0.6,20749],[0.6,20832],[0.6,20916],[0.6,20999],[0.6,21082],[0.6,21166],[0.6,21249],[0.6,21331],[0.5,21415],[0.3,21500],[2,21583],[16.7,21666],[26.1,21749],[33.4,21833],[43.5,21916],[44.7,21999],[45.1,22082],[48.1,22166],[48.7,22250],[49.2,22333],[49.2,22416],[49.2,22499],[49.2,22582],[49.2,22666],[49.2,22749],[49.2,22832],[49.2,22915],[49.2,22999],[49.2,23083],[49.2,23166],[49.2,23249],[49.2,23332],[49.2,23416],[49.2,23499],[49.2,23583],[49.2,23666],[49.2,23749],[49.2,23833],[49.2,23916],[49.2,23999],[49.2,24083],[49.2,24166],[49.2,24248],[49.2,24333],[49.2,24416],[49.2,24499],[49.2,24582],[43.3,24666],[30.6,24750],[19.2,24832],[13.8,24916],[8,24999],[5.1,25083],[4.1,25166],[2.4,25250],[1,25332],[0.7,25415],[0.7,25499],[0.7,25582],[0.7,25666],[0.7,25749],[0.7,25833],[0.7,25916],[0.7,25999],[0.7,26082],[0.7,26166],[0.7,26249],[0.7,26333],[0.7,26416],[0.7,26499],[0.7,26583],[0.7,26666],[0.7,26749],[0.7,26833],[0.7,26916],[0.7,26999],[0.7,27083],[0.7,27166],[0.7,27248],[0.7,27332],[0.7,27416],[0.7,27499],[0.7,27583],[1.2,27666],[1.3,27749],[1.3,27833],[1.3,27916],[1.3,27999],[0.8,28082],[0.5,28416],[0.6,28499],[0.6,28583],[12.9,28666],[20,28749],[20.9,28833],[30.9,28916],[32.2,28999],[32.2,29082],[32.2,29166],[32.2,29249],[32.2,29333],[32.2,29416],[32.2,29499],[32.2,29582],[32.2,29666],[32.2,29749],[32.2,29833],[32.2,29916],[32.2,30000],[32.2,30083],[32.2,30166],[32.2,30249],[32.2,30333],[32.2,30416],[32.2,30499],[32.2,30583],[32.2,30666],[32.2,30749],[32.2,30833],[32.2,30916],[32.2,30999],[11,31500],[15.7,31583],[9.8,31666],[7.7,31749],[6.6,31833]]",0,0,0,0,1,"Larry had recently lost his family, job and home, and was now living on his own in the park. He had most of his belongings, including some clothes, a blanket, and his mother’s special necklace. His family had been very important to him and he felt as though he did not have much going for him. One of his first days in the park he came across a family that did not have much food and looked very cold. He decided to give them some of his food and his blanket.","Larry had recently lost his family, job and home, and was now living on his own in the park. He had most of his belongings, including some clothes, a blanket, and his mother’s special necklace. His family had been very important to him and he felt as though he did not have much going for him. One of his first days in the park he came across a family that did not have much food and looked very cold. He decided to give them some of his food and his blanket.","Larry had recently lost his family, job and home, and was now living on his own in the park. He had most of his belongings, including some clothes, a blanket, and his mother’s special necklace. His family had been very important to him and he felt as though he did not have much going for him. One of his first days in the park he came across a family that did not have much food and looked very cold. He decided to give them some of his food and his blanket.","Larry had recently lost his family, job and home, and was now living on his own in the park. He had most of his belongings, including some clothes, a blanket, and his mother’s special necklace. His family had been very important to him and he felt as though he did not have much going for him. One of his first days in the park he came across a family that did not have much food and looked very cold. He decided to give them some of his food and his blanket.",,,,,,,,,,
,,,,,6113ffbf45e79bc2769db74c,2025-07-07_21h38.44.432,group3.4_multiperson,2023.2.2,MacIntel,61.72839506,686c2ebf0248f13bef9af11f,686c8449b831e9279f536b1c,,,,,,,,,,,,,,,,,,,,,,,,,,,,,1246.7614,1,audio/Narrative8Situation9.wav,1250.9257,space,,,,1284.4432,1288.4929,65.44162578,2.764,"[{""rating"":65.44162578222713,""responseTime"":2.7640000000001237}]",space,3.511,,1288.493,Partially,50,1288.4953,,,[],,,,,,,,,,,6,2,3,9,4.1444,,,,,,,,,,,,,,,,1250.9258,3,1284.4431,"[[46.3,2333],[27.6,2416],[0.1,4666],[1,4749],[1,4833],[1,4916],[1,4999],[1,5083],[1,5166],[1,5249],[1,5333],[1,5416],[1,5499],[1,5583],[1,5666],[1,5749],[1,5833],[1,5916],[1,5999],[1,6083],[1,6166],[1,6249],[1,6333],[1,6416],[1,6499],[1,6582],[1,6666],[1,6749],[1,6833],[1,6916],[1,6999],[1,7083],[1,7166],[1,7250],[1,7333],[1,7416],[1,7499],[1,7583],[1,7666],[1,7750],[1,7833],[1,7916],[1,7999],[1,8083],[1,8166],[1,8249],[1,8333],[1,8416],[1,8500],[1,8583],[1,8666],[1,8749],[1,8833],[1,8916],[1,9000],[1,9083],[1,9166],[1,9250],[1,9333],[1,9416],[1,9500],[1,9583],[1,9666],[1,9750],[1,9833],[1,9916],[1,9999],[1,10082],[1,10166],[1,10249],[1,10333],[1,10416],[1,10499],[1,10582],[1,10666],[1,10750],[1,10833],[1,10916],[1,10999],[1,11083],[1,11166],[1,11249],[1,11333],[1.6,11416],[72.1,11916],[73.6,11999],[77.6,12083],[80.6,12166],[80.8,12249],[80.8,12333],[80.8,12416],[80.8,12500],[80.8,12583],[80.8,12666],[80.8,12750],[80.8,12833],[80.8,12916],[80.8,13000],[80.8,13083],[80.8,13166],[80.8,13249],[80.8,13333],[80.8,13416],[80.8,13499],[80.8,13583],[80.8,13666],[80.8,13749],[80.8,13833],[80.8,13916],[80.8,13999],[80.8,14083],[80.8,14166],[80.8,14250],[80.8,14333],[80.8,14416],[80.8,14499],[80.8,14583],[80.8,14666],[80.8,14750],[80.8,14833],[80.8,14916],[47.6,14999],[28.1,15166],[12.6,15250],[1.8,15333],[74.8,18333],[61.3,18416],[58.8,18500],[60.8,18582],[63.4,18666],[63.6,18750],[63.6,18833],[63.6,18916],[63.6,19000],[63.6,19083],[63.6,19166],[63.6,19250],[63.6,19333],[63.6,19416],[63.6,19500],[63.6,19583],[63.6,19666],[63.6,19750],[63.6,19833],[63.6,19916],[63.6,20000],[63.6,20083],[63.6,20166],[63.6,20250],[63.6,20333],[63.6,20416],[3.5,21333],[4,21416],[4.3,21500],[3.1,21583],[2.9,21666],[2.9,21750],[2.9,21833],[2.9,21916],[2.9,22000],[2.9,22083],[2.9,22166],[2.9,22250],[2.9,22333],[2.9,22416],[2.9,22500],[0.9,22583],[60.1,28250],[59.3,28333],[59.2,28417],[59.2,28500],[59.2,28583],[59.2,28666],[59.2,28750],[59.2,28833],[59.2,28916],[59.2,29000],[59.2,29083],[59.2,29166],[59.2,29250],[59.2,29333],[59.2,29416],[59.2,29499],[59.2,29583],[59.2,29666],[59.2,29750],[59.2,29833],[59.2,29916],[59.2,30000],[59.2,30083],[59.2,30166],[59.2,30250],[59.2,30333],[59.2,30416],[59.2,30500],[59.2,30583],[59.2,30666],[59.2,30750],[49.9,30833],[40.1,30916],[40.1,30999],[40.1,31083],[17.4,31166]]",0,1,1,1,1,"It was just another Sunday afternoon for Lucy, she was on her way to the farmer's market to pick up some produce. When she arrived at the old train depot that housed the market, she noticed two men fighting on the steps. Before she could call for help, one of the men crumpled to his knees. The other man dropped an object that appeared to be a knife and ran off. When Lucy approached the crime scene she realized that the man who had been murdered was the Mayor and that he had a gunshot wound.","One day at work, Margaret walked up to her partner, Al, to ask him to talk to the chief of staff at the local hospital where she worked as a nurse.","Luke always thought of himself as an honest man. That's why during his evening jog around the swamp, he pondered his recent affair with the receptionist at work. Luke looked up at the sky and asked God why he was so weak and unfaithful. He thought of the impact this would have on his family and told God of his conflicted feelings toward telling his wife Marta.","Linda and Amy had been best friends since kindergarten, they even found homes on the same street in the forest on the edge of town. Their biggest fight had been over who gets the bigger slice of cake, until Amy married Dan. Linda loathed Dan, she thought he was manipulative and had a violent temper. She only put up with him because Amy loved him. ",,,,,,,,,,
,,,,,6113ffbf45e79bc2769db74c,2025-07-07_21h38.44.432,group3.4_multiperson,2023.2.2,MacIntel,61.72839506,686c2ebf0248f13bef9af11f,686c8449b831e9279f536b1c,,,,,,,,,,,,,,,,,,,,,,,,,,,,,1288.4957,1,audio/Narrative8Situation9.wav,1292.5096,,,,,1311.0266,1314.5435,34.01964062,1.7976,"[{""rating"":34.0196406242305,""responseTime"":1.7975999999046053}]",space,2.9863,,1314.5435,Partially,50,1314.5459,,,[],,,,,,,,,,,4,5,2,2,,,,,,,,,,,,,,,,,1292.5096,3,1311.0265,"[[15.4,916],[14,999],[14,1083],[12,1166],[7.2,1249],[6,1333],[6,1416],[6,1499],[5.8,1583],[4.5,1667],[1.9,1750],[1.8,1833],[1.8,1916],[1.8,1999],[1.8,2083],[1.8,2166],[1.8,2250],[1.8,2333],[1.8,2416],[1.8,2500],[1.8,2583],[1.8,2666],[1.8,2750],[1.8,2833],[1.8,2916],[1.8,3000],[1.8,3083],[1.8,3166],[1.8,3250],[1.8,3333],[1.8,3415],[1.8,3499],[1.8,3583],[1.8,3666],[1.8,3750],[1.8,3833],[1.8,3916],[1.8,3999],[1.8,4083],[1.8,4166],[1.8,4249],[2.3,4333],[4.5,4417],[7.9,4500],[8.9,4583],[7.9,4667],[6.5,4750],[14.4,4833],[63.3,4916],[73,5000],[75.7,5083],[81.1,5167],[77.7,5250],[76.3,5333],[76.3,5416],[76.3,5498],[76.3,5583],[76.3,5666],[76.3,5750],[76.3,5833],[76.3,5916],[76.3,6000],[76.3,6083],[76.3,6166],[76.3,6250],[76.3,6333],[76.3,6416],[76.3,6500],[76.3,6583],[76.3,6666],[76.3,6750],[76.3,6833],[76.3,6916],[76.3,7000],[76.3,7083],[76.3,7166],[76.3,7250],[76.3,7333],[76.3,7416],[76.3,7500],[76.3,7583],[75.5,7666],[74.1,7750],[73.6,7833],[73.9,7917],[73.8,8000],[71.5,8083],[70.9,8167],[70.9,8250],[70.9,8333],[70.9,8416],[70.9,8500],[70.9,8583],[70.9,8666],[70.9,8750],[70.9,8832],[70.9,8916],[70.9,9000],[70.9,9083],[70.9,9166],[70.9,9250],[70.9,9333],[70.9,9416],[70.9,9500],[70.9,9583],[70.9,9666],[70.9,9749],[70.9,9833],[70.9,9916],[70.9,9999],[70.9,10083],[70.9,10166],[70.9,10250],[70.9,10333],[70.9,10416],[70.9,10500],[70.9,10583],[70.9,10666],[70.9,10749],[70.9,10833],[70.9,10916],[70.9,11000],[70.9,11083],[70.9,11166],[70.9,11250],[70.9,11333],[53.1,11416],[11.9,11500],[6.9,14583],[63.7,14833],[69.2,14916],[72.1,15000],[72.3,15083],[72.4,15166],[73,15249],[73,15333],[73,15416],[73,15500],[73,15583],[73,15666],[73,15750],[73,15833],[73,15916],[73,16000],[73,16083],[73,16166],[73,16250],[73,16333],[73,16416],[73,16500],[73,16583],[73,16666],[73,16750],[73,16833],[73,16917],[73,17000],[73,17083],[73,17167],[73,17250],[73,17333],[73,17416],[73,17500],[73,17583],[73,17666],[73,17750],[68.2,17833],[42.6,17916],[20.3,18000],[16.2,18083],[2.7,18166]]",0,2,2,2,1,On the ground beside him was a pen that she had mistaken for a knife. Lucy looked for the gunman and saw a suspicious man in black with distinct pointy features darting into an alley across the street. Cops who were nearby chased the man who had fled and arrested him.,"While waiting outside the chief of staff's office, Al heard nondescript shouting and yelling, there was a loud clatter in the room and then an eerie silence. An unfamiliar employee ran hastily out of the office with a terrified look on their face.","Suddenly, Luke heard a woman call out his name and when he turned around he saw Carly, his receptionist, across the road with a gun in her hand. Carly ran to him and explained how she had followed him here to confess her love. She exclaimed if Luke didn't love her back that she would kill him and his family. Carly explained that the only way they could be together is to kill Marta.","This feeling of hate between Amy and Dan was mutual, Dan didn't like how much time his wife spent with her and thought Amy was creating distance between their marriage. That's why Dan decided to try and tarnish Linda's reputation with his wife, in hopes it would get rid of her. He came home one afternoon and exclaimed that Linda had tried to kiss him. Amy was taken aback and immediately called Linda to confront her about these accusations. When Linda arrived she denied having made a move on Dan, but discovered Dan had enlisted the help of his friend Will who said he witnessed it all happen.",,,,,,,,,,
,,,,,6113ffbf45e79bc2769db74c,2025-07-07_21h38.44.432,group3.4_multiperson,2023.2.2,MacIntel,61.72839506,686c2ebf0248f13bef9af11f,686c8449b831e9279f536b1c,,,,,,,,,,,,,,,,,,,,,,,,,,,,,1314.5463,1,audio/Narrative8Situation9.wav,1316.5599,,,,,1328.4107,1332.077,25.70149627,1.9468,"[{""rating"":25.701496267793146,""responseTime"":1.9467999999521908}]",space,3.1194,,1332.077,Not at all,0,1332.0805,,,[],,,,,,,,,,,2,2,1,4,,,,,,,,,,,,,,,,,1316.56,3,1328.4105,"[[30.4,1666],[4.2,2500],[32.2,2583],[35.4,2666],[35.8,2750],[38,2833],[38,2916],[38,3000],[38,3083],[38,3166],[38,3249],[38,3333],[38,3416],[38,3500],[38,3583],[38,3666],[38,3750],[38,3833],[38,3915],[38,4000],[38,4083],[38,4166],[38,4250],[38,4333],[38,4416],[38,4500],[38,4583],[32.7,4667],[3.5,7833],[21.3,7916],[9.2,8583],[18,8666],[21.5,8749],[26.6,8833],[30.6,8916],[36.6,9000],[37.2,9083],[37.2,9166],[37.2,9250],[37.2,9333],[37.2,9416],[37.2,9500],[37.2,9583],[37.2,9666],[37.2,9750],[37.2,9833],[37.2,9916],[37.2,10000],[37.2,10083],[37.2,10166],[37.2,10250],[37.2,10333],[37.2,10416],[37.2,10500],[37.2,10582],[36.6,10667],[24.5,10749],[15.7,10833],[13.1,10916],[11.1,11000],[8.7,11083],[6.1,11167],[4.2,11250],[3.3,11332],[0.7,11416]]",0,3,3,3,1,"But Lucy knew the charged man was innocent, which meant the killer was free. Lucy vowed to find out who the real murderer was and to stop him at all costs.","Al explained to the chief of staff that Margaret wanted to be excused from her absences last week. The chief of staff, Susan, revealed that she wanted to fire Margaret and never see her again. Susan and Al had been having an affair and she wanted Margaret ""out of the picture"". Al was conflicted, but agreed it would be for the best.","Luke thought of his child and felt like this was his only option. He agreed to the plan and called his wife to meet him at the swamp to watch the sunset with him. When she arrived, Marta called out for her husband, but found Carly waiting for her. She immediately drew her gun and shot her in the chest, knocking her unconscious.","Since it was their word against her own, she decided to go home and admit defeat. She knew how much it would hurt Amy to know the truth.",,,,,,,,,,
