consent.started,consent.stopped,consentResponse.keys,consentResponse.rt,consentResponse.duration,participantID,date,expName,psychopyVersion,OS,frameRate,STUDY_ID,SESSION_ID,opening1.started,opening1.stopped,keyEndingOpening1.keys,keyEndingOpening1.rt,keyEndingOpening1.duration,volumeAdjust.started,volumeAdjust.stopped,endingAdjust.keys,endingAdjust.rt,endingAdjust.duration,opening2.started,opening2.stopped,keyEndingOpening.keys,keyEndingOpening.rt,keyEndingOpening.duration,mouse.x,mouse.y,mouse.leftButton,mouse.midButton,mouse.rightButton,mouse.time,instructionLoop.thisRepN,instructionLoop.thisTrialN,instructionLoop.thisN,instructionLoop.thisIndex,instructionLoop.ran,readyForAudio.started,readyForAudio.stopped,fixation.started,run,audio_played,fixation.stopped,endPractice.keys,audioPre.started,audioPre.stopped,continuousResponses_audio,intRating.started,intRating.stopped,intQuestionSlider.response,intQuestionSlider.rt,intQuestionSlider.history,confirmResponse.keys,confirmResponse.rt,confirmResponse.duration,catchQuestion.started,catch_label,catch_value,catchQuestion.stopped,catchQuestionSlider.response,catchQuestionSlider.rt,catchQuestionSlider.history,confirmResponse_2.keys,audioRunLoop.thisRepN,audioRunLoop.thisTrialN,audioRunLoop.thisN,audioRunLoop.thisIndex,audioRunLoop.ran,conditions1_1,conditions2_1,conditions1_2,conditions2_2,dur1_1,dur2_1,dur1_2,dur2_2,endPractice.rt,endPractice.duration,confirmResponse_2.rt,confirmResponse_2.duration,runIntervalBreak.started,runIntervalBreak.stopped,endingBreakKey.keys,endingBreakKey.rt,endingBreakKey.duration,connection.started,connection.stopped,connectionEnding.keys,connectionEnding.rt,connectionEnding.duration,readyForText.started,readyForText.stopped,textPre.started,run_dup,textPre.stopped,continuousResponses_text,textRunLoop.thisRepN,textRunLoop.thisTrialN,textRunLoop.thisN,textRunLoop.thisIndex,textRunLoop.ran,text1_1,text1_2,text2_1,text2_2,runBreakText.started,runBreakText.stopped,endingBreakKey_2.keys,endingBreakKey_2.rt,endingBreakKey_2.duration,ending.started,ending.stopped,endingEnding.keys,endingEnding.rt,endingEnding.duration
0.0002,6.0963,y,5.7772,,6117efedb574017076d5b499,2025-07-08_00h05.04.195,group3.4_multiperson,2023.2.2,Win32,59.88023952,686c2ebf0248f13bef9af11f,686c989a3248cbbd11664337,,,,,,,,,,,,,,,,,,,,,,,,,,,,,,,,,,,,,,,,,,,,,,,,,,,,,,,,,,,,,,,,,,,,,,,,,,,,,,,,,,,,,,,,,,,,,,,,,,,,,,,,
,,,,,6117efedb574017076d5b499,2025-07-08_00h05.04.195,group3.4_multiperson,2023.2.2,Win32,59.88023952,686c2ebf0248f13bef9af11f,686c989a3248cbbd11664337,6.0969,11.5295,space,5.388,,,,,,,,,,,,,,,,,,,,,,,,,,,,,,,,,,,,,,,,,,,,,,,,,,,,,,,,,,,,,,,,,,,,,,,,,,,,,,,,,,,,,,,,,,,,,,,,,,,,
,,,,,6117efedb574017076d5b499,2025-07-08_00h05.04.195,group3.4_multiperson,2023.2.2,Win32,59.88023952,686c2ebf0248f13bef9af11f,686c989a3248cbbd11664337,,,,,,11.5296,32.1468,space,20.3044,,,,,,,,,,,,,,,,,,,,,,,,,,,,,,,,,,,,,,,,,,,,,,,,,,,,,,,,,,,,,,,,,,,,,,,,,,,,,,,,,,,,,,,,,,,,,,,
,,,,,6117efedb574017076d5b499,2025-07-08_00h05.04.195,group3.4_multiperson,2023.2.2,Win32,59.88023952,686c2ebf0248f13bef9af11f,686c989a3248cbbd11664337,,,,,,,,,,,32.1582,43.7804,space,11.6088,,[],[],[],[],[],[],0,0,0,0,1,,,,,,,,,,,,,,,,,,,,,,,,,,,,,,,,,,,,,,,,,,,,,,,,,,,,,,,,,,,,,,,,,,,,,,,,,,,,,,
,,,,,6117efedb574017076d5b499,2025-07-08_00h05.04.195,group3.4_multiperson,2023.2.2,Win32,59.88023952,686c2ebf0248f13bef9af11f,686c989a3248cbbd11664337,,,,,,,,,,,43.7819,59.9967,space,16.1449,,[],[],[],[],[],[],1,0,1,0,1,,,,,,,,,,,,,,,,,,,,,,,,,,,,,,,,,,,,,,,,,,,,,,,,,,,,,,,,,,,,,,,,,,,,,,,,,,,,,,
,,,,,6117efedb574017076d5b499,2025-07-08_00h05.04.195,group3.4_multiperson,2023.2.2,Win32,59.88023952,686c2ebf0248f13bef9af11f,686c989a3248cbbd11664337,,,,,,,,,,,59.9979,76.9965,space,16.9521,,[],[],[],[],[],[],2,0,2,0,1,,,,,,,,,,,,,,,,,,,,,,,,,,,,,,,,,,,,,,,,,,,,,,,,,,,,,,,,,,,,,,,,,,,,,,,,,,,,,,
,,,,,6117efedb574017076d5b499,2025-07-08_00h05.04.195,group3.4_multiperson,2023.2.2,Win32,59.88023952,686c2ebf0248f13bef9af11f,686c989a3248cbbd11664337,,,,,,,,,,,76.9973,109.9136,space,32.8855,,[],[],[],[],[],[],3,0,3,0,1,,,,,,,,,,,,,,,,,,,,,,,,,,,,,,,,,,,,,,,,,,,,,,,,,,,,,,,,,,,,,,,,,,,,,,,,,,,,,,
,,,,,6117efedb574017076d5b499,2025-07-08_00h05.04.195,group3.4_multiperson,2023.2.2,Win32,59.88023952,686c2ebf0248f13bef9af11f,686c989a3248cbbd11664337,,,,,,,,,,,109.9147,126.6967,space,16.7519,,[],[],[],[],[],[],4,0,4,0,1,,,,,,,,,,,,,,,,,,,,,,,,,,,,,,,,,,,,,,,,,,,,,,,,,,,,,,,,,,,,,,,,,,,,,,,,,,,,,,
,,,,,6117efedb574017076d5b499,2025-07-08_00h05.04.195,group3.4_multiperson,2023.2.2,Win32,59.88023952,686c2ebf0248f13bef9af11f,686c989a3248cbbd11664337,,,,,,,,,,,126.6977,137.1135,space,10.3848,,[],[],[],[],[],[],5,0,5,0,1,,,,,,,,,,,,,,,,,,,,,,,,,,,,,,,,,,,,,,,,,,,,,,,,,,,,,,,,,,,,,,,,,,,,,,,,,,,,,,
,,,,,6117efedb574017076d5b499,2025-07-08_00h05.04.195,group3.4_multiperson,2023.2.2,Win32,59.88023952,686c2ebf0248f13bef9af11f,686c989a3248cbbd11664337,,,,,,,,,,,,,,,,,,,,,,,,,,,137.1187,139.6969,139.7279,1,audio/Narrative13Situation2.wav,141.73,,141.7304,171.4802,"[[999,2],[999,131],[999,215],[999,298],[999,382],[999,465],[999,548],[999,631],[999,715],[999,798],[999,882],[999,965],[999,1049],[999,1131],[999,1216],[999,1299],[999,1382],[999,1466],[999,1549],[999,1632],[999,1716],[999,1798],[999,1882],[999,1965],[999,2048],[999,2132],[999,2215],[999,2299],[999,2382],[999,2466],[999,2549],[999,2633],[33.3,2715],[33.3,2798],[33.3,2882],[36.1,2966],[45.5,3049],[47,3132],[47.8,3215],[48.4,3298],[49.5,3382],[51.3,3466],[53.3,3548],[56.7,3632],[61.1,3715],[65.4,3798],[67.2,3882],[67.8,3966],[69.6,4048],[72.5,4132],[74.7,4215],[75.6,4298],[76.7,4382],[77,4465],[77.3,4548],[77.9,4632],[78.4,4715],[79,4798],[79.2,4882],[79.2,4966],[79.5,5049],[80.3,5132],[81.7,5216],[82.7,5299],[83.2,5382],[83.4,5466],[83.4,5548],[83.4,5632],[83.4,5716],[83.4,5798],[83.4,5882],[83.4,5965],[83.4,6049],[83.4,6132],[83.4,6215],[83.4,6298],[83.4,6382],[83.4,6465],[83.4,6549],[83.4,6632],[83.4,6715],[83.4,6798],[83.4,6882],[83.4,6965],[83.4,7048],[83.4,7132],[83.4,7215],[83.4,7299],[83.6,7381],[83.6,7465],[83.6,7548],[83.6,7632],[83.6,7716],[83.6,7798],[83.6,7882],[83.6,7965],[83.6,8048],[83.6,8132],[83.6,8215],[83.6,8298],[83.6,8382],[81,8467],[82,8882],[82.9,8965],[83.3,9048],[83.3,9132],[83.3,9215],[83.3,9298],[83.3,9382],[83.3,9465],[83.3,9548],[83.3,9631],[83.3,9715],[83.3,9798],[83.3,9882],[83.3,9965],[83.3,10048],[83.3,10132],[83.3,10215],[83.3,10298],[83.3,10382],[83.3,10465],[83.3,10548],[83.3,10632],[83.3,10715],[83.3,10798],[83.3,10882],[83.3,10965],[83.3,11048],[83.3,11132],[83.3,11215],[83.3,11298],[83.3,11382],[83.3,11465],[83.3,11548],[83.3,11631],[83.3,11715],[83.3,11798],[83.3,11882],[83.3,11965],[83.3,12048],[83.3,12132],[83.3,12215],[83.3,12299],[83.3,12382],[83.3,12465],[83.3,12548],[83.3,12632],[83.3,12715],[83.3,12798],[83.3,12882],[83.3,12965],[83.3,13048],[83.3,13132],[83.3,13215],[83.3,13298],[83.3,13382],[83.3,13465],[83.3,13549],[82.4,13632],[82,13715],[82,13798],[82,13882],[82,13965],[82,14049],[82,14132],[82,14215],[82,14299],[82,14382],[82,14465],[82,14549],[82,14632],[82,14715],[82,14799],[82,14882],[82,14965],[82,15048],[82,15132],[82,15215],[82,15298],[82,15382],[82.5,15466],[88.1,23299],[87.8,23382],[86.4,23465],[85.9,23548],[85.9,23632],[85.7,23715],[83.5,23799],[78,23882],[71.3,23965],[67.8,24048],[64.6,24132],[63.6,24216],[62.7,24299],[62.4,24382],[61.8,24465],[60.9,24549],[60.1,24632],[59.9,24715],[59.8,24798],[59.5,24882],[59,24965],[58.9,25048],[58.9,25132],[58.9,25215],[58.9,25298],[58.9,25382],[58.9,25465],[58.9,25548],[58.9,25632],[58.9,25715],[58.9,25799],[58.9,25882],[58.9,25965],[58.9,26048],[58.9,26132],[58.9,26215],[52.3,26298],[39.2,26382],[25.3,26465],[16.5,26548],[13,26631],[12.5,26715],[12.5,26798],[12.5,26882],[12.5,26965],[12.5,27049],[12.5,27132],[12.9,27215]]",171.4809,179.9138,68.54166667,7.4802,"[{""rating"":88.54166666666667,""responseTime"":4.603600000023846},{""rating"":68.54166666666667,""responseTime"":7.480199999928459}]",space,7.8899,,179.9149,Definitely yes,100,179.9247,,,[],,0,0,0,0,1,audio/Narrative13Situation2.wav,audio/Narrative13Situation2.wav,audio/Narrative13Situation2.wav,audio/Narrative13Situation2.wav,2,2,2,2,,,,,,,,,,,,,,,,,,,,,,,,,,,,,,,,,,,,,,,
,,,,,6117efedb574017076d5b499,2025-07-08_00h05.04.195,group3.4_multiperson,2023.2.2,Win32,59.88023952,686c2ebf0248f13bef9af11f,686c989a3248cbbd11664337,,,,,,,,,,,,,,,,,,,,,,,,,,,,,179.9252,1,audio/Narrative8Situation1.wav,182.6625,space,182.6625,198.5793,"[[999,2],[999,83],[999,166],[999,250],[999,334],[999,416],[999,499],[999,583],[999,666],[999,750],[999,833],[999,916],[999,1000],[999,1083],[999,1166],[999,1250],[999,1333],[999,1416],[999,1500],[999,1583],[999,1666],[999,1749],[999,1833],[999,1916],[999,2000],[999,2083],[999,2166],[999,2250],[999,2333],[999,2417],[77.4,2500],[80.4,2583],[83.4,2667],[85,2749],[88.9,2833],[92.3,2916],[93.8,3000],[95.9,3083],[97.8,3166],[100,3250],[100,3333],[100,3416],[100,3500],[100,3583],[100,3666],[100,3749],[100,3833],[100,3916],[100,4000],[100,4084]]",198.5796,202.6959,100,3.3809,"[{""rating"":100,""responseTime"":3.380899999976151}]",space,3.5661,,202.6961,Definitely yes,100,202.6993,,,[],,0,1,1,1,1,audio/Narrative7Situation1.wav,audio/Narrative8Situation1.wav,audio/Narrative5Situation1.wav,audio/Narrative6Situation1.wav,2,5,5,2,2.7127,,,,,,,,,,,,,,,,,,,,,,,,,,,,,,,,,,,,,,
,,,,,6117efedb574017076d5b499,2025-07-08_00h05.04.195,group3.4_multiperson,2023.2.2,Win32,59.88023952,686c2ebf0248f13bef9af11f,686c989a3248cbbd11664337,,,,,,,,,,,,,,,,,,,,,,,,,,,,,202.7,1,audio/Narrative8Situation2.wav,205.7126,,205.7127,215.8465,"[[999,0],[999,83],[999,166],[999,249],[999,333],[999,416],[999,499],[999,583],[999,666],[999,750],[999,833],[999,916],[999,999],[999,1083],[999,1166],[999,1249],[999,1333],[999,1416],[999,1500],[999,1583],[999,1666],[999,1749],[999,1833],[999,1916],[999,1999],[999,2083],[999,2166],[999,2249],[999,2333],[999,2416],[999,2500],[999,2583],[999,2666],[999,2749],[999,2833],[999,2916],[999,2999],[999,3083],[999,3166],[999,3249],[999,3333],[999,3416],[999,3499],[999,3583],[999,3667],[999,3750],[999,3833],[999,3916],[999,4000],[999,4083],[999,4166],[999,4249],[999,4332],[999,4416],[999,4499],[999,4583],[999,4666],[999,4750],[999,4833],[999,4916],[999,4999],[999,5083],[999,5166],[999,5249],[999,5333],[999,5416],[999,5499],[999,5583],[999,5666],[999,5749],[999,5833],[999,5916],[999,5999],[999,6083],[999,6166],[999,6249],[999,6332],[999,6416],[999,6500],[999,6583],[999,6666],[999,6749],[999,6833],[999,6916],[999,6999],[999,7083],[999,7166],[999,7249],[999,7333],[999,7416],[999,7499],[999,7583],[999,7666],[999,7749],[999,7833],[999,7916],[999,8000],[999,8083],[999,8166],[999,8249],[999,8333],[999,8416],[999,8500],[999,8583],[999,8666],[999,8750],[999,8833],[83.3,8916],[83.6,8999],[83.9,9083],[84,9166],[84.3,9249],[85.8,9333],[88.5,9416],[89.2,9499],[89.2,9583],[89.2,9666],[89.2,9750],[89.2,9833],[89.2,9916],[89.2,10000],[89.2,10083]]",215.8468,219.029,83.125,2.242,"[{""rating"":83.125,""responseTime"":2.2420000000000186}]",space,2.6414,,219.0291,Partially,50,219.0334,,,[],,0,2,2,2,1,audio/Narrative7Situation2.wav,audio/Narrative8Situation2.wav,audio/Narrative5Situation2.wav,audio/Narrative6Situation2.wav,3,3,3,3,,,,,,,,,,,,,,,,,,,,,,,,,,,,,,,,,,,,,,,
,,,,,6117efedb574017076d5b499,2025-07-08_00h05.04.195,group3.4_multiperson,2023.2.2,Win32,59.88023952,686c2ebf0248f13bef9af11f,686c989a3248cbbd11664337,,,,,,,,,,,,,,,,,,,,,,,,,,,,,219.0337,1,audio/Narrative8Situation3.wav,223.0458,,223.0458,245.4127,"[[91.3,5833],[88,5916],[87.3,5999],[87.3,6083],[92.8,6166],[100,6250],[100,6333],[100,6416],[100,6500],[100,6583],[100,6666],[100,6750],[100,6833],[100,6916],[100,6999],[100,7083],[100,7166],[100,7250],[100,7333],[100,7416],[100,7500],[100,7583],[100,7666],[100,7750],[100,7833],[100,7916],[100,8000],[100,8083],[100,8166],[100,8250],[100,8333],[100,8416],[100,8500],[100,8583],[100,8666],[100,8750],[100,8833],[100,8916],[100,9000],[100,9083],[100,9166],[100,9250],[100,9333],[100,9417],[100,9500],[100,9583],[100,9666],[100,9749],[100,9833],[100,9916],[100,9999],[100,10084],[100,10166],[100,10249],[100,10333],[100,10416],[100,10500],[100,10583],[100,10666],[100,10750],[100,10833],[100,10916],[100,10999],[100,11083],[100,11166],[100,11250],[100,11333],[100,11416],[100,11500],[100,11583],[100,11666],[100,11750],[100,11833],[100,11916],[100,11999],[100,12083],[100,12166],[100,12250],[100,12333],[100,12416],[100,12500],[100,12583],[100,12666],[100,12750],[100,12833],[100,12916],[100,13000],[100,13083],[100,13166],[100,13250],[100,13333],[100,13416],[100,13500],[100,13583],[100,13666],[100,13750],[100,13833],[100,13917],[100,13999],[100,14083],[100,14166],[100,14250],[100,14333],[100,14416],[100,14499],[100,14583],[100,14666],[100,14749],[100,14833],[100,14916],[100,14999],[100,15083],[100,15166],[100,15250],[100,15333],[100,15416],[100,15499],[100,15583],[100,15667],[100,15750]]",245.413,253.1164,76.77083333,7.702,"[{""rating"":76.77083333333333,""responseTime"":7.701999999999998}]",space,5.676,,253.1164,Definitely yes,100,253.1204,,,[],,0,3,3,3,1,audio/Narrative7Situation3.wav,audio/Narrative8Situation3.wav,audio/Narrative5Situation3.wav,audio/Narrative6Situation3.wav,8,4,3,5,,,,,,,,,,,,,,,,,,,,,,,,,,,,,,,,,,,,,,,
,,,,,6117efedb574017076d5b499,2025-07-08_00h05.04.195,group3.4_multiperson,2023.2.2,Win32,59.88023952,686c2ebf0248f13bef9af11f,686c989a3248cbbd11664337,,,,,,,,,,,,,,,,,,,,,,,,,,,,,253.1211,1,audio/Narrative8Situation4.wav,256.1299,,256.1299,270.3134,"[[79.2,2754],[87.1,2838],[88.5,2915],[88.8,2999],[90.4,3089],[100,3171],[100,3248],[100,3332],[100,3415],[100,3498]]",270.3138,273.2298,93.85416667,1.6072,"[{""rating"":93.85416666666666,""responseTime"":1.6071999999284685}]",space,2.3676,,273.23,Definitely yes,100,273.234,,,[],,0,4,4,4,1,audio/Narrative7Situation4.wav,audio/Narrative8Situation4.wav,audio/Narrative5Situation4.wav,audio/Narrative6Situation4.wav,3,3,1,2,,,,,,,,,,,,,,,,,,,,,,,,,,,,,,,,,,,,,,,
,,,,,6117efedb574017076d5b499,2025-07-08_00h05.04.195,group3.4_multiperson,2023.2.2,Win32,59.88023952,686c2ebf0248f13bef9af11f,686c989a3248cbbd11664337,,,,,,,,,,,,,,,,,,,,,,,,,,,,,273.2344,1,audio/Narrative8Situation5.wav,275.2466,,275.2468,283.4967,"[[95.8,5590],[98,5671],[98,5749],[98,5832],[95.2,5922],[94.5,5999],[94.5,6082],[94.5,6165],[94.5,6248],[94.5,6332],[94.5,6415],[94.5,6499],[94.5,6582],[94.5,6665],[94.5,6748],[94.5,6833],[94.5,6915],[94.5,6998],[94.5,7082],[94.5,7165],[94.5,7249],[94.5,7332],[94.5,7415],[94.5,7499],[94.5,7582],[94.5,7665],[94.5,7749],[94.5,7832],[94.5,7915],[94.5,7998],[94.5,8082],[94.5,8170],[94.5,8249]]",283.4971,285.463,87.60416667,1.1436,"[{""rating"":87.60416666666666,""responseTime"":1.1436000000238664}]",space,1.4392,,285.4632,Definitely yes,100,285.4669,,,[],,0,5,5,5,1,audio/Narrative7Situation5.wav,audio/Narrative8Situation5.wav,audio/Narrative5Situation5.wav,audio/Narrative6Situation5.wav,5,2,5,2,,,,,,,,,,,,,,,,,,,,,,,,,,,,,,,,,,,,,,,
,,,,,6117efedb574017076d5b499,2025-07-08_00h05.04.195,group3.4_multiperson,2023.2.2,Win32,59.88023952,686c2ebf0248f13bef9af11f,686c989a3248cbbd11664337,,,,,,,,,,,,,,,,,,,,,,,,,,,,,285.4673,1,audio/Narrative8Situation6.wav,287.4794,,287.4796,293.963,"[[88,5424],[89.6,5506],[93.2,5591],[94.2,5666],[95.1,5758],[97.9,5840],[98.9,5915],[98.9,5999],[98.9,6082],[100,6167],[100,6256],[100,6333],[100,6416]]",293.9633,302.1295,98.02083333,5.3572,"[{""rating"":98.02083333333333,""responseTime"":1.4936000000238323},{""rating"":98.02083333333333,""responseTime"":5.357200000047669}]",space,7.6223,,302.1298,Definitely yes,100,302.1342,,,[],,0,6,6,6,1,audio/Narrative7Situation6.wav,audio/Narrative8Situation6.wav,audio/Narrative5Situation6.wav,audio/Narrative6Situation6.wav,3,2,3,2,,,,,,,,,,,,,,,,,,,,,,,,,,,,,,,,,,,,,,,
,,,,,6117efedb574017076d5b499,2025-07-08_00h05.04.195,group3.4_multiperson,2023.2.2,Win32,59.88023952,686c2ebf0248f13bef9af11f,686c989a3248cbbd11664337,,,,,,,,,,,,,,,,,,,,,,,,,,,,,302.1347,1,audio/Narrative8Situation7.wav,305.1463,,305.1465,317.2628,"[[90.1,3171],[93.6,3257],[98.8,3333],[99.4,3416],[99.4,3499],[99.4,3583],[99.4,3666],[99.4,3749],[99.4,3833],[99.4,3916],[99.4,4000],[99.4,4083],[99.4,4166],[99.4,4249],[99.4,4333],[99.4,4416],[99.4,4499],[99.4,4582],[99.4,4666],[99.4,4749],[99.4,4832],[99.4,4915],[99.4,4999],[99.4,5083],[99.4,5165],[99.4,5249],[99.4,5338],[99.4,5415],[99.4,5499],[99.4,5582],[99.4,5665],[99.4,5749],[99.4,5832],[99.4,5916],[99.4,5999],[99.4,6082],[99.4,6166],[99.4,6249],[99.4,6332],[99.4,6416],[99.4,6499],[99.4,6582],[99.4,6666],[99.4,6749],[99.4,6832],[99.4,6915],[99.4,6999],[99.4,7082],[99.4,7165],[99.4,7249],[99.4,7332],[99.4,7415],[99.4,7499],[99.4,7582],[99.4,7665],[99.4,7749],[99.4,7832],[99.4,7916],[99.4,7999],[99.4,8083],[99.4,8166],[99.4,8255],[99.4,8332],[99.4,8416],[99.4,8499],[99.4,8582],[99.4,8666],[99.4,8749],[99.4,8832],[99.4,8915],[99.4,8999],[99.4,9082],[99.4,9166],[99.4,9249],[99.4,9333],[99.4,9415],[99.4,9499],[99.4,9582],[99.4,9665],[99.4,9749],[99.4,9833],[99.4,9916],[99.4,9999],[99.4,10082],[99.4,10166],[99.4,10249],[99.4,10332],[99.4,10415],[99.4,10499],[99.4,10582],[99.4,10668],[99.4,10749],[99.4,10832],[99.4,10915],[99.4,10999],[99.4,11083],[99.4,11166],[99.4,11249],[99.4,11332],[99.4,11416],[99.4,11499],[99.4,11583],[99.4,11666],[99.4,11749],[99.4,11832],[99.4,11916],[99.4,12005],[99.4,12082]]",317.2631,318.7294,96.35416667,0.9399,"[{""rating"":96.35416666666667,""responseTime"":0.9398999999761486}]",space,0.9206,,318.7297,Partially,50,318.7365,,,[],,0,7,7,7,1,audio/Narrative7Situation7.wav,audio/Narrative8Situation7.wav,audio/Narrative5Situation7.wav,audio/Narrative6Situation7.wav,5,3,4,5,,,,,,,,,,,,,,,,,,,,,,,,,,,,,,,,,,,,,,,
,,,,,6117efedb574017076d5b499,2025-07-08_00h05.04.195,group3.4_multiperson,2023.2.2,Win32,59.88023952,686c2ebf0248f13bef9af11f,686c989a3248cbbd11664337,,,,,,,,,,,,,,,,,,,,,,,,,,,,,318.7372,1,audio/Narrative8Situation8.wav,321.7464,,321.7464,334.6126,"[[92.2,11173],[89.5,11254],[89.2,11332],[89.1,11415],[89.1,11500],[89.1,11582],[86.9,11666],[85.1,11756],[84.8,11832],[84.8,11915],[84.8,11999],[84.8,12082],[84.8,12165],[84.8,12249],[84.8,12332],[84.8,12416],[84.8,12499],[84.8,12583],[84.8,12666],[84.8,12749],[84.8,12832]]",334.6129,336.7794,82.91666667,1.7958,"[{""rating"":82.91666666666666,""responseTime"":1.795799999952294}]",space,1.6197,,336.7796,Not at all,0,336.7865,,,[],,0,8,8,8,1,audio/Narrative7Situation8.wav,audio/Narrative8Situation8.wav,audio/Narrative5Situation8.wav,audio/Narrative6Situation8.wav,2,3,3,5,,,,,,,,,,,,,,,,,,,,,,,,,,,,,,,,,,,,,,,
,,,,,6117efedb574017076d5b499,2025-07-08_00h05.04.195,group3.4_multiperson,2023.2.2,Win32,59.88023952,686c2ebf0248f13bef9af11f,686c989a3248cbbd11664337,,,,,,,,,,,,,,,,,,,,,,,,,,,,,336.7871,1,audio/Narrative8Situation9.wav,339.796,,339.7962,351.1193,"[[84.7,10922],[86.6,11007],[87.7,11088],[88.1,11172],[88.4,11249]]",351.1194,353.5724,85.41666667,1.7827,"[{""rating"":85.41666666666667,""responseTime"":1.7827000000476687}]",space,1.9183,,353.5725,Partially,50,353.5815,,,[],,0,9,9,9,1,audio/Narrative7Situation9.wav,audio/Narrative8Situation9.wav,audio/Narrative5Situation9.wav,audio/Narrative6Situation9.wav,2,3,3,4,,,,,,,,,,,,,,,,,,,,,,,,,,,,,,,,,,,,,,,
,,,,,6117efedb574017076d5b499,2025-07-08_00h05.04.195,group3.4_multiperson,2023.2.2,Win32,59.88023952,686c2ebf0248f13bef9af11f,686c989a3248cbbd11664337,,,,,,,,,,,,,,,,,,,,,,,,,,,,,353.5824,1,audio/Narrative7Situation1.wav,355.5957,,355.5958,411.4791,"[[85.8,2750],[87.2,2833],[89.6,2916],[90.9,3000],[92.3,3083],[92.7,3166],[93.2,3250],[94,3333],[94.7,3416],[94.8,3499],[94.8,3583],[94.9,3666],[94.9,3750],[94.9,3833],[94.9,3916],[94.9,3999],[94.9,4083],[94.9,4166],[94.9,4250],[94.9,4333],[94.9,4416],[94.9,4499],[94.9,4583],[94.9,4666],[94.9,4749],[94.9,4833],[94.9,4916],[94.9,4999],[94.9,5083],[94.9,5166],[94.9,5250],[94.9,5333],[94.9,5416],[94.9,5500],[94.9,5583],[94.9,5666],[94.9,5750],[94.9,5833],[94.9,5916],[94.9,5999],[94.9,6083],[94.9,6166],[94.9,6250],[94.9,6333],[94.9,6416],[94.9,6499],[94.9,6583],[94.9,6666],[94.9,6749],[94.9,6832],[94.9,6916],[94.9,6999],[94.9,7083],[94.9,7166],[94.9,7250],[94.9,7333],[94.9,7417],[94.9,7499],[94.9,7583],[94.9,7666],[94.9,7749],[94.9,7833],[94.9,7916],[94.9,7999],[94.9,8083],[94.9,8166],[94.9,8249],[94.9,8333],[94.9,8416],[94.9,8499],[94.9,8583],[94.9,8666],[94.9,8749],[94.9,8833],[94.9,8916],[94.9,8999],[94.9,9083],[94.9,9166],[94.9,9249],[94.9,9333],[94.9,9416],[94.9,9499],[94.9,9583],[94.9,9666],[94.9,9750],[94.9,9833],[94.9,9916],[94.9,9999],[94.9,10083],[94.9,10166],[94.9,10249],[94.9,10333],[94.9,10416],[94.9,10500],[94.9,10583],[94.9,10666],[94.9,10750],[94.9,10833],[94.9,10916],[94.9,10999],[94.9,11083],[94.9,11166],[94.9,11250],[94.9,11333],[94.9,11416],[94.9,11499],[94.9,11582],[94.9,11666],[94.9,11750],[94.9,11833],[94.9,11916],[94.9,11999],[94.9,12083],[94.9,12167],[94.9,12250],[94.9,12333],[94.9,12416],[94.9,12500],[94.9,12583],[94.9,12666],[94.9,12750],[94.9,12833],[94.9,12916],[94.9,12999],[99.7,13083],[100,13166],[100,13250],[100,13333],[100,13416],[100,13500],[100,13583],[100,13666],[100,13750],[100,13833],[100,13916],[100,14000],[100,14083],[100,14166],[100,14250],[100,14333],[100,14416],[100,14499],[100,14583],[100,14666],[100,14749],[100,14833],[100,14916],[100,14999],[100,15083],[100,15166],[100,15250],[100,15333],[100,15416],[100,15500],[100,15583],[100,15666],[100,15750],[100,15833],[100,15916],[100,15999],[100,16083],[100,16166],[100,16250],[100,16333],[100,16416],[100,16499],[100,16583],[100,16666],[100,16750],[100,16833],[100,16916],[100,16999],[100,17083],[100,17166],[100,17249],[100,17333],[100,17416],[100,17500],[100,17583],[100,17666],[100,17750],[100,17833],[100,17916],[100,17999],[100,18083],[100,18166],[100,18249],[100,18333],[100,18416],[100,18499],[100,18583],[100,18666],[100,18750],[100,18833],[100,18916],[100,19000],[100,19083],[100,19166],[100,19249],[100,19333],[100,19416],[100,19500],[100,19583],[100,19666],[100,19750],[100,19832],[100,19916],[100,19999],[100,20083],[100,20166],[100,20249],[100,20333],[100,20416],[100,20500],[100,20583],[100,20666],[100,20750],[100,20833],[100,20916],[100,20999],[100,21083],[100,21166],[100,21250],[100,21333],[100,21416],[100,21499],[100,21583],[100,21666],[100,21750],[100,21833],[100,21916],[100,21999],[100,22083],[100,22166],[100,22250],[100,22333],[100,22416],[100,22499],[100,22583],[100,22666],[100,22749],[100,22833],[100,22916],[100,22999],[100,23083],[100,23166],[100,23249],[100,23333],[100,23416],[100,23500],[100,23583],[100,23666],[100,23750],[100,23833],[100,23916],[100,23999],[100,24083],[100,24166],[100,24250],[100,24333],[100,24416],[100,24500],[100,24583],[100,24666],[100,24750],[100,24833],[100,24916],[100,25000],[100,25083],[100,25166],[100,25250],[100,25333],[100,25416],[100,25499],[100,25583],[100,25666],[100,25750],[100,25833],[100,25916],[100,26000],[100,26083],[100,26166],[100,26249],[100,26333],[100,26416],[100,26500],[100,26583],[100,26666],[100,26749],[100,26833],[100,26916],[100,26999],[100,27082],[100,27166],[100,27249],[100,27332],[100,27416],[100,27499],[100,27583],[100,27666],[100,27750],[100,27833],[100,27916],[100,28000],[100,28083],[100,28166],[100,28249],[100,28333],[100,28416],[100,28500],[100,28583],[100,28666],[100,28750],[100,28833],[100,28916],[100,28999],[100,29082],[100,29166],[100,29250],[100,29333],[100,29416],[100,29499],[100,29583],[100,29666],[100,29749],[100,29833],[100,29916],[100,29999],[100,30082],[100,30166],[100,30249],[100,30333],[100,30416],[100,30499],[100,30583],[100,30666],[100,30749],[100,30832],[100,30916],[100,30999],[100,31083],[100,31166],[100,31250],[100,31333],[100,31416],[100,31500],[100,31583],[100,31666],[100,31750],[100,31833],[100,31916],[100,32000],[100,32082],[100,32166],[100,32249],[100,32332],[100,32416],[100,32500],[100,32583],[100,32666],[100,32750],[100,32832],[100,32916],[100,33000],[100,33083],[100,33166],[100,33250],[100,33333],[100,33416],[100,33499],[100,33583],[100,33667],[100,33750],[100,33833],[100,33916],[100,33999],[100,34083],[100,34166],[100,34249],[100,34333],[100,34416],[100,34499],[100,34583],[100,34666],[100,34749],[100,34833],[100,34916],[100,35000],[100,35083],[100,35166],[100,35249],[100,35333],[100,35416],[100,35500],[100,35583],[100,35666],[100,35750],[100,35833],[100,35916],[100,36000],[100,36083],[100,36166],[100,36250],[100,36333],[100,36416],[100,36500],[100,36583],[100,36666],[100,36750],[100,36833],[100,36916],[100,37000],[100,37083],[100,37166],[100,37249],[100,37333],[100,37416],[100,37500],[100,37583],[100,37666],[100,37750],[100,37832],[100,37916],[100,38000],[100,38083],[100,38166],[100,38250],[100,38333],[100,38416],[100,38500],[100,38583],[100,38666],[100,38750],[100,38833],[100,38916],[100,39000],[100,39083],[100,39166],[100,39250],[100,39333],[100,39416],[100,39500],[100,39583],[100,39666],[100,39750],[100,39833],[100,39916],[100,40000],[100,40083],[100,40166],[100,40250],[100,40333],[100,40416],[100,40499],[100,40583],[100,40666],[100,40749],[100,40833],[100,40916],[100,41000],[100,41082],[100,41166],[100,41249],[100,41333],[100,41416],[100,41500],[100,41583],[100,41666],[100,41750],[100,41833],[100,41916],[100,42000],[100,42083],[100,42166],[100,42250],[100,42333],[100,42416],[100,42500],[100,42583],[100,42666],[100,42750],[100,42832],[100,42916],[100,43000],[100,43083],[100,43166],[100,43250],[100,43333],[100,43416],[100,43500],[100,43583],[100,43666],[100,43750],[100,43833],[100,43916],[100,44000],[100,44083],[100,44166],[100,44250],[100,44333],[100,44416],[100,44500],[100,44583],[100,44666],[100,44750],[100,44833],[100,44916],[100,45000],[100,45083],[100,45166],[100,45250],[100,45333],[100,45416],[100,45499],[100,45583],[100,45666],[100,45750],[100,45833],[100,45916],[100,45999],[100,46083],[100,46166],[100,46250],[100,46333],[100,46416],[100,46500],[100,46583],[100,46666],[100,46750],[100,46833],[100,46916],[100,46999],[100,47083],[100,47166],[100,47249],[100,47333],[100,47416],[100,47499],[100,47583],[100,47666],[100,47749],[100,47833],[100,47916],[100,47999],[100,48083],[100,48166],[100,48250],[100,48333],[100,48416],[100,48499],[100,48583],[100,48666],[100,48750],[100,48833],[100,48916],[100,49000],[100,49083],[100,49166],[100,49250],[100,49333],[100,49416],[100,49499],[100,49583],[100,49666],[100,49750],[100,49833],[100,49916],[100,50000],[100,50082],[100,50166],[100,50249],[100,50333],[100,50416],[100,50500],[100,50583],[100,50666],[100,50750],[100,50833],[100,50916],[100,50999],[100,51083],[100,51166],[100,51249],[100,51333],[100,51416],[100,51500],[100,51583],[100,51666],[100,51750],[100,51833],[100,51916],[100,51999],[100,52083],[100,52166],[100,52249],[100,52333],[100,52416],[100,52499],[100,52583],[100,52666],[100,52750],[100,52833],[100,52916],[100,53000],[100,53083],[100,53166],[100,53250],[100,53333],[100,53416],[100,53499],[100,53583],[100,53666],[100,53750],[100,53833],[100,53916],[100,54000],[100,54083],[100,54166],[100,54250],[100,54333],[100,54416],[100,54500],[100,54583],[100,54666],[100,54750],[100,54833],[100,54916],[100,55000],[100,55083],[100,55166],[100,55250],[100,55333],[100,55416],[100,55500],[100,55583],[100,55666],[100,55749],[100,55833]]",411.4797,413.746,98.02083333,1.6413,"[{""rating"":98.02083333333333,""responseTime"":1.6412999999523095}]",space,1.7207,,413.7462,Definitely yes,100,413.7533,,,[],,0,10,10,10,1,audio/Narrative8Situation1.wav,audio/Narrative7Situation1.wav,audio/Narrative6Situation1.wav,audio/Narrative5Situation1.wav,5,2,2,5,,,,,,,,,,,,,,,,,,,,,,,,,,,,,,,,,,,,,,,
,,,,,6117efedb574017076d5b499,2025-07-08_00h05.04.195,group3.4_multiperson,2023.2.2,Win32,59.88023952,686c2ebf0248f13bef9af11f,686c989a3248cbbd11664337,,,,,,,,,,,,,,,,,,,,,,,,,,,,,413.7542,1,audio/Narrative7Situation2.wav,416.7628,,416.763,424.2465,"[[97.7,2249],[96.7,2340],[95.1,2424],[92.6,2506],[90.5,2591],[88.1,2666],[85.7,2753],[84.3,2839],[83,2923],[82.7,3001],[82.7,3082],[82.7,3166],[82.7,3249],[84,3338],[84.9,3423],[85.2,3499],[85.3,3583],[85.3,3665],[85.3,3749],[85.3,3832],[85.3,3915],[85.3,4000],[85.3,4082],[85.3,4165],[85.3,4249],[85.3,4332],[85.5,4421],[86.8,4504],[88.1,4588],[89.4,4673],[90.1,4755],[90.7,4839],[91,4916],[91.4,5000],[91.5,5083],[91.7,5173],[91.8,5255],[91.8,5332],[91.8,5415],[91.8,5499],[91.8,5582],[91.8,5666],[91.8,5749],[91.8,5832],[91.8,5915],[91.8,5999],[91.8,6082],[91.8,6166],[91.8,6249],[91.8,6332],[91.8,6415],[91.8,6499],[91.8,6583],[91.8,6666],[91.8,6749],[91.8,6832],[91.8,6916],[91.8,6999],[91.8,7082],[91.8,7166],[91.8,7249],[91.8,7336],[91.8,7416]]",424.2469,425.913,89.375,1.114,"[{""rating"":89.375,""responseTime"":1.1140000000000327}]",space,1.118,,425.9131,Definitely yes,100,425.9177,,,[],,0,11,11,11,1,audio/Narrative8Situation2.wav,audio/Narrative7Situation2.wav,audio/Narrative6Situation2.wav,audio/Narrative5Situation2.wav,3,3,3,3,,,,,,,,,,,,,,,,,,,,,,,,,,,,,,,,,,,,,,,
,,,,,6117efedb574017076d5b499,2025-07-08_00h05.04.195,group3.4_multiperson,2023.2.2,Win32,59.88023952,686c2ebf0248f13bef9af11f,686c989a3248cbbd11664337,,,,,,,,,,,,,,,,,,,,,,,,,,,,,425.9182,1,audio/Narrative7Situation3.wav,433.9294,,433.9294,443.1967,"[[88.3,584],[84.8,673],[84.4,755],[84.1,833],[84.1,916],[84.1,999],[84.1,1083],[84.1,1166],[84.1,1249],[84.1,1333],[84.1,1416],[84.1,1500],[84.1,1583],[84.1,1667],[84.1,1749],[84.1,1833],[84.1,1916],[84.1,1999],[84.1,2083],[84.1,2166],[84.1,2249],[84.1,2333],[84.1,2416],[84.1,2499],[84.1,2582],[84.1,2666],[84.1,2749],[84.1,2832],[84.1,2917],[84.1,2999],[84.1,3083],[84.1,3166],[84.1,3249],[84.1,3333],[84.1,3416],[84.1,3499],[84.1,3583],[84.1,3666],[84.1,3750],[84.1,3833],[84.1,3916],[84.1,3999],[84.1,4083],[84.1,4166],[84.1,4249],[84.1,4333],[84.1,4416],[84.1,4499],[82.7,4589],[82.2,4674],[81.1,4755],[80.3,4839],[79.4,4923],[78.3,5006],[77,5090],[75.1,5173],[72.7,5256],[70.1,5341],[67.5,5426],[65.5,5507],[64.5,5591],[63.9,5672],[63.9,5749],[63.9,5833],[69.5,5923],[78.2,6006],[81.9,6091],[83.5,6173],[84.2,6257],[84.5,6332],[84.7,6417],[84.8,6499],[85,6582],[85,6666],[85,6749],[85,6832],[85,6916],[85,6999],[85,7082],[85,7166],[85,7249],[85,7333],[85,7416],[85,7499],[85,7582],[85,7666],[85,7749],[85,7833],[85,7916],[85,7999],[85,8083],[85,8166],[85,8249],[85,8333],[85,8416],[85,8499],[85,8583],[85,8666],[85,8750],[85,8832],[85,8916],[85,8999],[85,9082],[85,9166],[85,9250]]",443.1971,444.8297,73.125,1.1642,"[{""rating"":73.125,""responseTime"":1.1642000000476855}]",space,1.0693,,444.8299,Definitely yes,100,454.4691,100,4.654,"[{""rating"":100,""responseTime"":4.653999999999996}]",space,0,12,12,12,1,audio/Narrative8Situation3.wav,audio/Narrative7Situation3.wav,audio/Narrative6Situation3.wav,audio/Narrative5Situation3.wav,4,8,5,3,,,9.0821,,,,,,,,,,,,,,,,,,,,,,,,,,,,,,,,,,,,
,,,,,6117efedb574017076d5b499,2025-07-08_00h05.04.195,group3.4_multiperson,2023.2.2,Win32,59.88023952,686c2ebf0248f13bef9af11f,686c989a3248cbbd11664337,,,,,,,,,,,,,,,,,,,,,,,,,,,,,454.4702,1,audio/Narrative7Situation4.wav,457.479,,457.4791,469.1995,"[[999,1],[999,83],[999,166],[999,250],[999,333],[999,416],[999,500],[999,583],[999,666],[999,750],[999,833],[999,917],[999,1000],[999,1083],[999,1167],[999,1250],[999,1333],[999,1416],[999,1499],[999,1583],[999,1666],[999,1754],[999,1833],[999,1916],[999,2000],[999,2083],[999,2166],[999,2249],[999,2333],[999,2416],[999,2500],[999,2583],[999,2667],[999,2750],[999,2833],[999,2924],[999,3005],[73.1,3090],[80,3173],[81.8,3256],[84,3342],[85.9,3423],[90,3507],[90.2,3583],[91.5,3674],[92.6,3756],[92.6,3833],[92.6,3916],[92.6,4000],[92.6,4083],[92.6,4166],[92.6,4249],[92.6,4333],[92.6,4416],[92.6,4500],[92.6,4583],[92.6,4666],[92.6,4749],[92.6,4833],[92.6,4916],[92.6,4999],[92.6,5083],[92.6,5166],[92.6,5250],[92.6,5333],[92.6,5416],[92.6,5500],[92.6,5583],[92.6,5666],[92.6,5749],[92.6,5833],[92.6,5916],[92.6,5999],[92.6,6083],[92.6,6166],[92.6,6249],[92.6,6333],[92.6,6416],[92.6,6499],[92.6,6583],[92.6,6666],[92.6,6754],[92.6,6833],[92.6,6916],[92.6,6999],[92.6,7083],[92.6,7166],[92.6,7249],[92.6,7333],[92.6,7416],[92.6,7500],[92.6,7583],[92.6,7666],[92.6,7750],[92.6,7833],[92.6,7916],[92.6,8000],[92.6,8083],[92.6,8166],[92.6,8250],[92.6,8333],[92.6,8416],[92.6,8499],[92.6,8583],[92.6,8666],[92.6,8750],[92.6,8833],[92.6,8916],[92.6,8999],[92.6,9083],[92.6,9167],[92.6,9257],[92.6,9333],[92.6,9416],[92.6,9499],[92.6,9583],[92.6,9666],[89.2,9757],[82.9,9839],[79.2,9924],[72.5,10006],[64.7,10089],[59.9,10172],[57.6,10257],[56.8,10340],[56.8,10416],[56.8,10500],[56.8,10589],[56.8,10666],[56.8,10750],[56.8,10833],[56.8,10916],[56.8,10999],[56.8,11083],[56.8,11166],[56.8,11249],[56.8,11333],[56.8,11416],[56.8,11499],[56.8,11583],[56.8,11666]]",469.1998,472.9632,26.875,3.3379,"[{""rating"":26.875,""responseTime"":3.33789999997623}]",space,3.2202,,472.9634,Not at all,0,472.9699,,,[],,0,13,13,13,1,audio/Narrative8Situation4.wav,audio/Narrative7Situation4.wav,audio/Narrative6Situation4.wav,audio/Narrative5Situation4.wav,3,3,2,1,,,,,,,,,,,,,,,,,,,,,,,,,,,,,,,,,,,,,,,
,,,,,6117efedb574017076d5b499,2025-07-08_00h05.04.195,group3.4_multiperson,2023.2.2,Win32,59.88023952,686c2ebf0248f13bef9af11f,686c989a3248cbbd11664337,,,,,,,,,,,,,,,,,,,,,,,,,,,,,472.9705,1,audio/Narrative7Situation5.wav,477.9793,,477.9794,486.463,"[[54.5,3256],[51,3333],[47.2,3423],[45,3505],[42.5,3588],[37.2,3672],[35,3755],[34.4,3838],[34.4,3916],[34.2,4006],[34.1,4083],[34.1,4166],[34.1,4249],[34.1,4333],[34.1,4416],[34.1,4499],[34.1,4583],[34.1,4666],[34.1,4749],[34.1,4832],[34.1,4916],[34.1,4999],[34.1,5082],[34.1,5165],[34.1,5255],[34.1,5332],[34.1,5415],[34.1,5499],[34.1,5582],[34.1,5665],[34.1,5749],[34.1,5837],[34.1,5916],[34.1,6004],[34.1,6083],[34.1,6166],[34.1,6249],[34.1,6332],[33.9,6417],[31.1,6505],[29.4,6588],[28.2,6673],[27.1,6758],[26,6840],[25.5,6923],[25.5,6999],[25.5,7083],[25.5,7166],[25.5,7249],[25.5,7332],[25.5,7416],[25.5,7499],[25.5,7582],[25.5,7671],[25.5,7749],[25.5,7832],[25.5,7916],[25.5,7999],[25.5,8083],[25.5,8166],[25.5,8249],[25.5,8333],[25.5,8416]]",486.4634,488.1962,13.54166667,1.0543,"[{""rating"":13.541666666666668,""responseTime"":1.054300000071521}]",space,1.1869,,488.1964,Not at all,0,488.2012,,,[],,0,14,14,14,1,audio/Narrative8Situation5.wav,audio/Narrative7Situation5.wav,audio/Narrative6Situation5.wav,audio/Narrative5Situation5.wav,2,5,2,5,,,,,,,,,,,,,,,,,,,,,,,,,,,,,,,,,,,,,,,
,,,,,6117efedb574017076d5b499,2025-07-08_00h05.04.195,group3.4_multiperson,2023.2.2,Win32,59.88023952,686c2ebf0248f13bef9af11f,686c989a3248cbbd11664337,,,,,,,,,,,,,,,,,,,,,,,,,,,,,488.2017,1,audio/Narrative7Situation6.wav,491.2125,,491.2126,501.1789,"[[27.1,2090],[51.7,2166],[69.2,2250],[74.8,2339],[80.1,2424],[84.5,2504],[85.2,2589],[86,2666],[86.8,2749],[86.9,2841],[87.5,2924],[87.9,3006],[88.5,3091],[89,3167],[89,3250],[89.2,3336],[89.2,3416],[89.2,3499],[89.2,3583],[89.2,3666],[89.2,3749],[89.2,3833],[89.2,3916],[89.2,4000],[89.2,4083],[89.2,4166],[89.2,4250],[89.2,4333],[89.2,4416],[89.2,4499],[89.2,4583],[89.2,4666],[89.2,4749],[89.2,4833],[89.2,4916],[89.2,4999],[89.2,5083],[89.2,5171],[89.2,5249],[89.2,5333],[89.2,5416],[89.2,5499],[89.2,5582],[89.2,5666],[89.2,5749],[89.2,5833],[89.2,5916],[89.2,5999],[89.2,6083],[89.2,6166],[89.2,6249],[89.2,6333],[89.2,6416],[89.2,6499],[89.2,6583],[89.2,6666],[89.2,6749],[89.2,6832],[89.2,6916],[89.2,6999],[89.2,7083],[89.2,7166],[89.2,7249],[89.2,7333],[89.2,7416],[89.2,7500],[89.2,7583],[89.2,7666],[89.2,7749],[89.2,7832],[89.2,7916],[89.2,8006],[89.2,8082],[89.2,8166],[89.2,8250],[89.2,8333],[89.2,8416],[89.2,8500],[89.2,8583],[89.2,8666],[89.2,8750],[89.2,8833],[89.2,8916],[89.2,9000],[89.2,9083],[89.2,9166],[89.2,9250],[89.2,9333],[89.2,9416],[89.2,9499],[89.2,9583],[89.2,9667],[89.2,9749],[89.2,9833],[89.2,9916]]",501.1794,502.8188,63.33333333,1.2459,"[{""rating"":63.33333333333333,""responseTime"":1.2458999999761318}]",space,1.0889,,502.8189,Not at all,0,502.8222,,,[],,0,15,15,15,1,audio/Narrative8Situation6.wav,audio/Narrative7Situation6.wav,audio/Narrative6Situation6.wav,audio/Narrative5Situation6.wav,2,3,2,3,,,,,,,,,,,,,,,,,,,,,,,,,,,,,,,,,,,,,,,
,,,,,6117efedb574017076d5b499,2025-07-08_00h05.04.195,group3.4_multiperson,2023.2.2,Win32,59.88023952,686c2ebf0248f13bef9af11f,686c989a3248cbbd11664337,,,,,,,,,,,,,,,,,,,,,,,,,,,,,502.8228,1,audio/Narrative7Situation7.wav,507.8297,,507.8297,525.0133,"[[61.6,3254],[56.4,3338],[49.2,3421],[40.1,3504],[33.4,3591],[29.2,3672],[26.1,3756],[25,3833],[24.3,3922],[23.4,4008],[22.4,4083],[21.8,4173],[21.4,4248],[20.8,4332],[20.3,4417],[20.1,4506],[20,4587],[20,4666],[20,4749],[20,4832],[20,4915],[20,4999],[20,5082],[20,5166],[20,5249],[26.1,5339],[44,5423],[57.1,5505],[64.7,5585],[71.5,5672],[77,5759],[78.4,5838],[78.5,5915],[78.9,5999],[78.9,6082],[78.9,6166],[78.9,6249],[78.9,6332],[78.9,6422],[78.9,6498],[78.9,6583],[78.9,6666],[78.9,6749],[78.9,6832],[78.9,6915],[78.9,6999],[78.9,7082],[78.9,7166],[78.9,7248],[78.9,7332],[78.9,7416],[78.9,7499],[78.9,7582],[78.9,7666],[78.9,7749],[78.9,7832],[78.9,7916],[78.9,7999],[78.9,8082],[78.9,8165],[78.9,8249],[78.9,8333],[78.9,8416],[78.9,8499],[78.9,8582],[78.9,8666],[78.9,8749],[78.9,8832],[78.9,8921],[78.9,8999],[78.9,9083],[78.9,9165],[78.9,9249],[78.9,9332],[78.9,9415],[78.9,9499],[78.9,9582],[78.9,9666],[78.9,9749],[78.9,9832],[78.9,9916],[78.9,9999],[78.9,10082],[78.9,10165],[78.9,10249],[78.9,10333],[78.9,10416],[78.9,10499],[78.9,10582],[78.9,10665],[78.9,10749],[78.9,10832],[78.9,10915],[78.9,11003],[78.9,11082],[78.9,11165],[78.9,11249],[78.9,11332],[78.9,11415],[78.9,11499],[78.9,11582],[78.9,11666],[78.9,11749],[79,11832],[79.1,11917],[79.4,11999],[79.9,12083],[81,12173],[82.3,12255],[83.8,12338],[85.1,12421],[86,12505],[86.8,12590],[87.6,12672],[88.4,12756],[89.3,12840],[89.7,12917],[90.1,13005],[90.4,13083],[90.9,13166],[91.4,13253],[92,13337],[92.5,13421],[92.9,13506],[93.1,13582],[93.1,13666],[93.1,13749],[93.1,13832],[93.1,13915],[93.1,13999],[93.1,14082],[93.1,14166],[93.1,14249],[93.1,14332],[93.1,14416],[93.1,14499],[93.1,14582],[93.1,14665],[93.1,14749],[93.1,14832],[93.1,14915],[93.1,14999],[93.1,15082],[93.1,15165],[93.1,15248],[93.1,15332],[93.1,15416],[93.1,15499],[93.1,15582],[93.1,15666],[93.1,15749],[93.1,15832],[93.1,15916],[93.1,15999],[93.1,16082],[93.1,16166],[93.1,16249],[93.1,16332],[93.1,16416],[93.1,16499],[93.1,16582],[93.1,16666],[93.1,16749],[93.1,16832],[93.1,16916],[93.1,16999],[93.1,17082],[93.1,17165]]",525.0137,526.4465,93.125,0.891,"[{""rating"":93.125,""responseTime"":0.8909999999999627}]",space,0.8918,,526.4466,Not at all,0,526.4508,,,[],,0,16,16,16,1,audio/Narrative8Situation7.wav,audio/Narrative7Situation7.wav,audio/Narrative6Situation7.wav,audio/Narrative5Situation7.wav,3,5,5,4,,,,,,,,,,,,,,,,,,,,,,,,,,,,,,,,,,,,,,,
,,,,,6117efedb574017076d5b499,2025-07-08_00h05.04.195,group3.4_multiperson,2023.2.2,Win32,59.88023952,686c2ebf0248f13bef9af11f,686c989a3248cbbd11664337,,,,,,,,,,,,,,,,,,,,,,,,,,,,,526.4516,1,audio/Narrative7Situation8.wav,528.4625,,528.4626,538.4796,"[[90.7,2005],[88.4,2088],[87.8,2172],[87.7,2249],[87.7,2333],[87.7,2416],[87.7,2499],[87.7,2582],[87.7,2666],[87.7,2755],[87.7,2833],[87.7,2916],[87.7,3000],[87.7,3083],[87.7,3166],[87.7,3250],[87.7,3333],[87.7,3416],[87.7,3499],[87.7,3582],[87.7,3666],[87.7,3749],[87.7,3833],[87.7,3916],[87.7,3999],[87.7,4083],[87.7,4167],[87.7,4250],[87.7,4332],[87.7,4416],[87.7,4499],[87.7,4583],[87.7,4671],[87.7,4749],[87.7,4832],[87.7,4916],[87.7,4999],[87.7,5083],[87.7,5166],[87.7,5249],[87.7,5333],[87.7,5416],[87.7,5499],[87.7,5583],[87.7,5666],[87.7,5749],[87.7,5832],[87.7,5916],[87.7,6004],[87.7,6082],[87.7,6166],[87.7,6249],[87.7,6333],[87.7,6416],[87.7,6499],[87.7,6583],[87.7,6666],[87.7,6749],[87.7,6833],[87.7,6916],[87.7,7000],[87.7,7083],[87.7,7166],[87.7,7249],[87.7,7333],[87.7,7416],[87.7,7500],[87.7,7583],[87.7,7666],[87.7,7750],[87.7,7833],[87.7,7916],[87.7,7999],[87.7,8089],[87.7,8170],[87.7,8250],[87.7,8333],[87.7,8416],[87.7,8499],[87.7,8583],[87.7,8666],[87.7,8749],[87.7,8833],[87.7,8916],[87.7,8999],[87.7,9083],[87.7,9166],[87.7,9249],[87.7,9333],[87.7,9416],[87.7,9500],[87.7,9583],[87.7,9666],[87.7,9750],[87.7,9833],[87.7,9916],[87.7,9999]]",538.4799,540.3126,87.70833333,1.3765,"[{""rating"":87.70833333333333,""responseTime"":1.3764999999999645}]",space,1.2837,,540.3129,Partially,50,540.3195,,,[],,0,17,17,17,1,audio/Narrative8Situation8.wav,audio/Narrative7Situation8.wav,audio/Narrative6Situation8.wav,audio/Narrative5Situation8.wav,3,2,5,3,,,,,,,,,,,,,,,,,,,,,,,,,,,,,,,,,,,,,,,
,,,,,6117efedb574017076d5b499,2025-07-08_00h05.04.195,group3.4_multiperson,2023.2.2,Win32,59.88023952,686c2ebf0248f13bef9af11f,686c989a3248cbbd11664337,,,,,,,,,,,,,,,,,,,,,,,,,,,,,540.3202,1,audio/Narrative7Situation9.wav,542.3287,,542.3287,550.9623,"[[87.4,2167],[85.2,2257],[83.6,2340],[83.3,2417],[83.3,2500],[83.3,2583],[85,2666],[88.1,2756],[90.8,2839],[91.8,2923],[92.6,3008],[93.3,3091],[93.9,3167],[94,3257],[94,3333],[94,3417],[94,3500],[94,3583],[94,3667],[94,3750],[94,3833],[94,3917],[94,4000],[94,4083],[94,4167],[94,4250],[94,4334],[94,4417],[94,4500],[94,4583],[94,4667],[94,4750],[94,4833],[94,4917],[94,5000],[94,5083],[94,5167],[94,5250],[94,5333],[94,5416],[94,5500],[94,5583],[94,5667],[94,5750],[94,5833],[94,5917],[94,6000],[94,6083],[94,6167],[94,6250],[94,6334],[94,6416],[94,6500],[94,6583],[94,6666],[94,6750],[94,6833],[94,6917],[94,7004],[94,7083],[94,7167],[94,7250],[94,7333],[94,7416],[94,7500],[94,7583],[94,7666],[94,7750],[94,7833],[94,7922],[94,8000],[94,8083],[94,8167],[94,8250],[94,8337],[94,8417],[94,8500],[94,8583]]",550.9626,553.3961,92.60416667,1.8138,"[{""rating"":92.60416666666667,""responseTime"":1.8138000000715238}]",space,1.8856,,553.3963,Not at all,0,553.404,,,[],,0,18,18,18,1,audio/Narrative8Situation9.wav,audio/Narrative7Situation9.wav,audio/Narrative6Situation9.wav,audio/Narrative5Situation9.wav,3,2,4,3,,,,,,,,,,,,,,,,,,,,,,,,,,,,,,,,,,,,,,,
,,,,,6117efedb574017076d5b499,2025-07-08_00h05.04.195,group3.4_multiperson,2023.2.2,Win32,59.88023952,686c2ebf0248f13bef9af11f,686c989a3248cbbd11664337,,,,,,,,,,,,,,,,,,,,,,,,,,,556.6981,559.2795,559.3074,2,audio/Narrative13Situation2.wav,559.3075,,559.3075,589.0459,"[[92.5,654],[92.3,738],[92.2,821],[91.6,905],[89.3,988],[87.2,1071],[86.8,1154],[86.4,1238],[85.9,1320],[85.9,1404],[85.9,1487],[85.9,1571],[85.9,1654],[85.9,1737],[85.9,1821],[85.9,1904],[85.9,1988],[85.9,2071],[85.9,2154],[85.9,2238],[85.9,2321],[85.9,2404],[85.9,2488],[85.9,2571],[85.9,2654],[85.9,2738],[85.9,2821],[85.9,2904],[85.9,2988],[85.9,3071],[85.9,3154],[85.9,3238],[85.9,3321],[85.9,3404],[85.9,3487],[85.9,3571],[82.8,3654],[77.9,3737],[75.8,3821],[71.4,3904],[64,3988],[57.3,4071],[52.3,4154],[49.3,4237],[47.3,4321],[45.2,4405],[44.8,4488],[44.6,4571],[47.9,4655],[83.1,4738],[93.8,4821],[96.4,4904],[96.8,4987],[96.8,5071],[96.3,5154],[92.4,5237],[92,5321],[92,5404],[92,5487],[92,5571],[92,5654],[92,5738],[92,5821],[92,5904],[92,5988],[92,6071],[92,6154],[92,6238],[92,6321],[92,6404],[92,6488],[92,6571],[92,6654],[92,6737],[92,6821],[92,6904],[92,6988],[92,7071],[92,7154],[92,7238],[92,7321],[92,7404],[92,7487],[92,7571],[92,7654],[92,7737],[92,7821],[92,7904],[92,7988],[92,8071],[92,8154],[92,8238],[92,8321],[92,8404],[92,8488],[92,8571],[92,8655],[92,8737],[92,8821],[92,8904],[92,8988],[92,9071],[92,9154],[92,9238],[92,9321],[92,9404],[92,9488],[92,9571],[92,9654],[92,9737],[92,9821],[92,9904],[92,9988],[92,10071],[92,10154],[92,10237],[92,10321],[92,10404],[92,10488],[92,10571],[92,10654],[92,10738],[92,10821],[92,10904],[92,10987],[92,11071],[92,11154],[92,11237],[88.6,11321],[82.1,11404],[70.5,11487],[60.8,11571],[45,11654],[34.3,11738],[25.2,11821],[20.2,11905],[18.9,11987],[18.6,12071],[18.6,12154],[18.6,12238],[18.6,12321],[18.6,12404],[18.6,12487],[18.6,12571],[18.6,12654],[18.6,12738],[18.6,12821],[18.6,12904],[18.6,12988],[18.6,13071],[18.6,13154],[18.6,13238],[18.6,13321],[18.6,13404],[18.6,13488],[18.6,13571],[18.6,13654],[18.6,13737],[18.6,13821],[19.8,13904],[20.9,13988],[28.3,14072],[41.8,14155],[52.4,14238],[58.9,14321],[62.8,14404],[65.6,14487],[65.7,14571],[65.7,14654],[65.7,14738],[65.7,14821],[65.7,14904],[65.7,14988],[65.7,15071],[65.7,15154],[65.7,15238],[65.7,15321],[65.7,15404],[65.7,15488],[65.7,15571],[65.7,15654],[65.7,15738],[65.7,15821],[65.7,15904],[65.7,15988],[65.7,16071],[65.7,16154],[65.7,16238],[65.7,16321],[65.7,16404],[65.7,16488],[65.7,16571],[65.7,16654],[65.7,16738],[65.7,16821],[65.7,16905],[65.7,16988],[65.7,17071],[65.7,17154],[65.7,17238],[65.7,17321],[68.6,17404],[77.6,17488],[81.4,17571],[82.7,17654],[83.6,17738],[83.6,17821],[83.9,17904],[83.9,17988],[83.9,18071],[83.9,18154],[83.9,18238],[83.9,18321],[83.9,18404],[83.9,18488],[83.9,18571],[83.9,18654],[83.9,18738],[83.9,18821],[83.9,18905],[83.9,18987],[83.9,19071],[83.9,19155],[83.9,19237],[83.9,19321],[83.9,19404],[83.9,19488],[83.9,19571],[83.9,19654],[83.9,19738],[83.9,19821],[83.9,19904],[83.9,19988],[83.9,20071],[83.9,20154],[83.9,20237],[83.9,20321],[83.9,20404],[83.9,20488],[83.9,20571],[83.9,20654],[83.9,20738],[83.9,20821],[83.9,20904],[83.9,20988],[83.9,21071],[83.9,21154],[83.9,21238],[83.9,21321],[83.9,21404],[83.9,21488],[83.9,21572],[83.9,21654],[83.9,21737],[83.9,21821],[83.9,21904],[83.9,21988],[83.9,22071],[83.9,22154],[83.9,22238],[83.9,22321],[83.9,22404],[83.9,22487],[83.9,22571],[83.9,22654],[83.9,22737],[83.9,22821],[83.9,22904],[83.9,22987],[83.9,23071],[83.9,23154],[83.9,23237],[83.9,23320],[83.9,23404],[83.9,23487],[83.9,23571],[83.9,23654],[83.9,23738],[83.9,23821],[83.9,23904],[83.9,23988],[83.9,24071],[83.9,24154],[83.9,24238],[83.9,24321],[83.9,24404],[83.9,24487],[83.9,24571],[83.9,24654],[83.9,24738],[83.9,24821],[83.9,24904],[83.9,24987],[83.9,25071],[83.9,25154],[83.9,25237],[83.9,25321],[83.9,25404],[83.9,25488],[83.9,25571],[83.9,25654],[83.9,25738],[83.9,25821],[83.9,25904],[83.9,25988],[83.9,26071],[83.9,26154],[83.9,26238],[83.9,26321],[83.9,26404],[83.9,26487],[83.9,26571],[83.9,26654],[83.9,26737],[83.9,26821],[83.9,26904],[83.9,26987],[83.9,27071],[83.9,27154],[83.9,27238],[83.9,27321],[83.9,27404],[83.9,27487],[83.9,27571],[83.9,27654],[83.9,27738],[83.9,27821],[83.9,27904],[83.9,27988],[83.9,28071],[83.9,28154],[83.9,28238],[83.9,28321],[83.9,28404],[83.9,28487],[83.9,28571],[83.9,28654],[83.9,28737],[83.9,28821],[83.9,28904],[83.9,28987],[83.9,29071],[83.9,29154],[83.9,29238],[83.9,29320],[83.9,29404],[83.9,29488],[83.9,29571],[83.9,29654],[83.9,29737]]",589.0462,589.0506,,,[],,,,589.0507,Definitely yes,100,589.0544,,,[],,0,0,0,0,1,audio/Narrative13Situation2.wav,audio/Narrative13Situation2.wav,audio/Narrative13Situation2.wav,audio/Narrative13Situation2.wav,2,2,2,2,,,,,553.405,556.697,space,2.768,,,,,,,,,,,,,,,,,,,,,,,,,,,,,,,
,,,,,6117efedb574017076d5b499,2025-07-08_00h05.04.195,group3.4_multiperson,2023.2.2,Win32,59.88023952,686c2ebf0248f13bef9af11f,686c989a3248cbbd11664337,,,,,,,,,,,,,,,,,,,,,,,,,,,,,589.0547,2,audio/Narrative6Situation1.wav,591.062,,591.0621,617.6461,"[[84,3333],[84.1,3416],[84.2,3500],[84.2,3583],[84.3,3666],[84.3,3750],[84.3,3833],[84.3,3916],[84.3,4000],[84.3,4083],[84.3,4167],[84.3,4249],[82.5,4333],[80.2,4416],[80.2,4500],[80.2,4583],[82.6,4666],[86.3,4750],[89.8,4833],[91.4,4916],[93.1,5000],[93.8,5084],[94.7,5166],[94.7,5250],[94.7,5333],[94.7,5416],[94.7,5499],[94.7,5583],[94.7,5666],[94.7,5750],[94.7,5833],[94.7,5916],[94.7,5999],[94.7,6083],[94.7,6166],[94.7,6249],[94.7,6333],[94.7,6416],[94.7,6500],[94.7,6583],[94.7,6666],[94.7,6750],[94.7,6833],[94.7,6916],[94.7,7000],[94.7,7083],[94.7,7166],[94.7,7250],[94.7,7333],[94.7,7416],[94.7,7500],[94.7,7583],[94.7,7666],[94.7,7750],[94.7,7833],[94.7,7916],[94.7,7999],[94.7,8083],[94.7,8166],[94.7,8250],[94.7,8333],[94.7,8416],[94.7,8500],[94.7,8583],[94.7,8666],[94.7,8750],[94.7,8833],[94.7,8916],[94.7,9000],[94.7,9083],[94.7,9166],[94.7,9250],[94.7,9333],[94.7,9416],[94.7,9499],[94.7,9583],[94.7,9666],[94.7,9750],[94.7,9833],[94.7,9916],[94.7,10000],[94.7,10083],[94.7,10166],[94.7,10250],[94.7,10333],[94.7,10417],[94.7,10500],[94.7,10583],[94.7,10666],[94.7,10749],[94.7,10833],[94.7,10916],[94.7,11000],[94.7,11083],[94.7,11166],[94.7,11249],[94.7,11333],[94.7,11416],[94.7,11500],[94.7,11583],[94.7,11666],[94.7,11750],[94.7,11833],[94.7,11916],[94.7,12000],[94.7,12083],[94.7,12166],[94.7,12250],[94.7,12333],[94.7,12416],[94.7,12500],[94.7,12583],[94.7,12666],[94.7,12750],[94.7,12833],[94.7,12916],[94.7,13000],[94.7,13083],[94.7,13166],[94.7,13250],[94.7,13333],[94.7,13416],[94.7,13500],[94.7,13583],[94.7,13666],[94.7,13750],[94.7,13833],[94.7,13916],[94.7,14000],[94.7,14083],[94.7,14166],[94.7,14250],[94.7,14333],[94.7,14416],[94.7,14500],[94.7,14583],[94.7,14666],[94.7,14750],[94.7,14833],[94.7,14916],[94.7,15000],[94.7,15083],[94.7,15166],[94.7,15250],[94.7,15333],[94.7,15416],[94.7,15500],[94.7,15583],[94.7,15666],[94.7,15750],[94.7,15833],[94.7,15916],[94.7,16000],[94.7,16083],[94.7,16166],[94.7,16250],[94.7,16333],[94.7,16416],[94.7,16500],[94.7,16583],[94.7,16666],[94.7,16750],[94.7,16833],[94.7,16916],[94.7,17000],[94.7,17083],[94.7,17166],[94.7,17250],[94.7,17333],[94.7,17416],[94.7,17500],[94.7,17583],[94.7,17666],[94.7,17750],[94.7,17833],[94.7,17916],[94.7,18000],[94.7,18083],[94.7,18166],[94.7,18250],[94.7,18333],[94.7,18416],[94.7,18500],[94.7,18583],[94.7,18666],[94.7,18750],[94.7,18833],[94.7,18917],[94.7,19000],[94.7,19083],[94.7,19166],[94.7,19250],[94.7,19333],[94.7,19416],[94.7,19500],[94.7,19583],[94.7,19666],[94.7,19750],[94.7,19833],[94.7,19917],[94.7,19999],[94.7,20083],[94.8,20167],[94.8,20249],[94.8,20333],[94.8,20417],[94.8,20500],[94.8,20583],[94.8,20666],[94.8,20750],[94.8,20833],[94.8,20916],[94.8,21000],[94.8,21083],[94.8,21166],[94.8,21250],[94.8,21333],[94.8,21416],[94.8,21500],[94.8,21583],[94.8,21666],[94.8,21750],[94.8,21833],[94.8,21916],[94.8,21999],[94.8,22083],[94.8,22166],[94.8,22250],[94.8,22333],[94.8,22416],[94.8,22500],[94.8,22583],[94.8,22666],[94.8,22750],[94.8,22833],[94.8,22916],[94.8,23000],[94.8,23083],[94.8,23166],[94.8,23250],[94.8,23333],[94.8,23417],[94.8,23500],[94.8,23583],[94.8,23666],[94.8,23750],[94.8,23833],[94.8,23916],[94.8,24000],[94.8,24083],[94.8,24167],[94.8,24250],[94.8,24333],[94.8,24416],[94.8,24500],[94.8,24583],[94.8,24666],[94.8,24750],[94.8,24833],[94.8,24916],[94.8,25000],[94.8,25083],[94.8,25166],[94.8,25250],[94.8,25333],[94.8,25416],[94.8,25500],[94.8,25583],[94.8,25666],[94.8,25750],[94.8,25833],[94.8,25916],[94.8,25999],[94.8,26083],[94.8,26166],[94.8,26250],[94.8,26333],[94.8,26416],[94.8,26500],[94.8,26583]]",617.6464,619.4958,91.77083333,1.3297,"[{""rating"":91.77083333333333,""responseTime"":1.3296999999284935}]",space,1.3017,,619.496,Not at all,0,619.5015,,,[],,0,1,1,1,1,audio/Narrative7Situation1.wav,audio/Narrative8Situation1.wav,audio/Narrative5Situation1.wav,audio/Narrative6Situation1.wav,2,5,5,2,,,,,,,,,,,,,,,,,,,,,,,,,,,,,,,,,,,,,,,
,,,,,6117efedb574017076d5b499,2025-07-08_00h05.04.195,group3.4_multiperson,2023.2.2,Win32,59.88023952,686c2ebf0248f13bef9af11f,686c989a3248cbbd11664337,,,,,,,,,,,,,,,,,,,,,,,,,,,,,619.5023,2,audio/Narrative6Situation2.wav,622.5124,,622.5124,651.029,"[[91.7,9416],[91.7,9499],[91.7,9583],[91.7,9666],[91.7,9750],[91.7,9833],[91.7,9916],[91.7,9999],[91.7,10083],[91.7,10166],[90.7,10250],[88.9,10333],[85.8,10417],[85.5,10499],[85.5,10583],[85.5,10666],[85.5,10749],[85.5,10833],[85.5,10916],[85.5,10999],[86.4,11084],[89.3,11166],[89.3,11249],[89.3,11333],[89.3,11416],[87.4,11500],[87.4,11583],[87.4,11666],[87.4,11750],[87.4,11833],[87.4,11916],[87.4,12000],[87.4,12083],[87.4,12166],[87.4,12250],[87.4,12333],[87.4,12416],[87.4,12500],[87.4,12583],[87.4,12666],[87.4,12750],[87.4,12833],[87.4,12916],[87.4,13000],[87.4,13083],[87.4,13166],[87.4,13249],[87.4,13333],[87.4,13416],[87.4,13500],[87.4,13583],[87.4,13666],[87.4,13750],[87.4,13832],[87.4,13916],[87.4,13999],[87.4,14083],[87.4,14166],[87.4,14249],[87.4,14333],[87.4,14416],[87.4,14499],[87.4,14583],[87.4,14666],[87.4,14749],[87.4,14833],[87.4,14916],[87.4,14999],[87.4,15083],[87.4,15166],[87.4,15249],[87.4,15333],[87.4,15416],[87.4,15500],[87.4,15583],[87.4,15666],[87.4,15750],[87.4,15833],[87.4,15916],[87.4,15999],[87.4,16083],[87.4,16166],[87.4,16249],[87.4,16333],[87.4,16416],[87.4,16499],[87.4,16583],[87.4,16666],[87.4,16749],[87.4,16833],[87.4,16916],[87.4,16999],[87.4,17083],[87.4,17166],[87.4,17249],[87.4,17333],[87.4,17416],[87.4,17499],[87.4,17583],[87.4,17666],[87.4,17749],[87.4,17833],[87.4,17916],[87.4,17999],[87.4,18083],[87.4,18166],[87.4,18249],[87.4,18333],[87.4,18416],[87.4,18499],[87.4,18583],[87.4,18666],[87.4,18749],[87.4,18833],[87.4,18916],[87.4,18999],[87.4,19083],[87.4,19166],[87.4,19249],[87.4,19333],[87.4,19416],[87.4,19499],[87.4,19583],[87.4,19666],[87.4,19749],[87.4,19833],[87.4,19916],[87.4,19999],[87.4,20083],[87.4,20166],[87.4,20249],[87.4,20333],[87.4,20416],[87.4,20499],[87.4,20583],[87.4,20666],[87.4,20750],[87.4,20833],[87.4,20916],[87.4,20999],[87.4,21083],[87.4,21166],[87.4,21249],[87.4,21333],[87.4,21416],[87.4,21499],[87.4,21583],[87.4,21666],[87.4,21750],[87.4,21833],[87.4,21916],[87.4,21999],[87.4,22083],[87.4,22166],[87.4,22249],[87.4,22333],[87.4,22416],[87.4,22499],[87.4,22582],[87.4,22666],[87.4,22749],[87.4,22833],[87.4,22916],[87.4,22999],[87.4,23083],[87.4,23166],[87.4,23249],[87.4,23333],[87.4,23416],[87.4,23499],[87.4,23583],[87.4,23666],[87.4,23749],[87.4,23833],[87.4,23916],[87.4,23999],[87.4,24082],[87.4,24166],[87.4,24249],[87.4,24333],[87.4,24416],[87.4,24499],[87.4,24583],[87.4,24666],[87.4,24749],[87.4,24833],[87.4,24916],[87.4,24999],[87.4,25083],[87.4,25166],[87.4,25249],[87.4,25333],[87.4,25416],[87.4,25500],[87.4,25583],[87.4,25666],[87.4,25750],[87.4,25833],[87.4,25916],[87.4,26000],[87.4,26083],[87.4,26166],[87.4,26249],[87.4,26333],[87.4,26416],[87.4,26499],[87.4,26583],[87.4,26666],[87.4,26749],[87.4,26833],[87.4,26916],[87.4,26999],[87.4,27083],[87.4,27166],[87.4,27250],[87.4,27333],[87.4,27416],[87.4,27500],[87.4,27582],[87.4,27666],[87.4,27750],[87.4,27833],[87.4,27916],[87.4,27999],[87.4,28083],[87.4,28166],[87.4,28249],[87.4,28333],[87.4,28416],[87.4,28499]]",651.0293,652.4791,80.20833333,0.9085,"[{""rating"":80.20833333333333,""responseTime"":0.9085000000000036}]",space,0.9014,,652.4792,Partially,50,652.4849,,,[],,0,2,2,2,1,audio/Narrative7Situation2.wav,audio/Narrative8Situation2.wav,audio/Narrative5Situation2.wav,audio/Narrative6Situation2.wav,3,3,3,3,,,,,,,,,,,,,,,,,,,,,,,,,,,,,,,,,,,,,,,
,,,,,6117efedb574017076d5b499,2025-07-08_00h05.04.195,group3.4_multiperson,2023.2.2,Win32,59.88023952,686c2ebf0248f13bef9af11f,686c989a3248cbbd11664337,,,,,,,,,,,,,,,,,,,,,,,,,,,,,652.4855,2,audio/Narrative6Situation3.wav,657.4956,,657.4957,670.1121,"[[80.1,3916],[81.4,4000],[84,4082],[85.7,4166],[88.4,4249],[90.7,4333],[91.3,4416],[91.9,4500],[92.1,4583],[92.1,4666],[92.1,4749],[92.1,4833],[92.1,4916],[92.1,5000],[92.1,5083],[92.1,5166],[92.1,5249],[92.1,5332],[92.1,5416],[92.1,5499],[92.1,5583],[92.1,5666],[92.1,5750],[92.1,5833],[92.1,5916],[91.5,5999],[90.6,6083],[90.6,6166],[90.6,6250],[90.1,6333],[86.7,6416],[86.5,6499],[86.5,6582],[86.5,6666],[86.5,6749],[86.5,6832],[86.5,6916],[86.5,6999],[86.5,7082],[86.5,7166],[86.5,7249],[86.5,7332],[86.5,7416],[86.5,7499],[86.5,7582],[86.5,7666],[86.5,7750],[86.5,7833],[86.5,7916],[86.5,7999],[86.5,8082],[86.5,8166],[86.5,8250],[86.5,8332],[86.5,8416],[86.5,8499],[86.5,8583],[86.5,8666],[86.5,8750],[86.5,8832],[86.5,8916],[86.5,8999],[86.5,9083],[86.5,9166],[86.5,9249],[86.5,9332],[86.5,9416],[86.5,9499],[86.5,9582],[86.5,9666],[86.5,9750],[86.5,9833],[86.5,9916],[86.5,9999],[86.5,10083],[86.5,10166],[86.5,10249],[86.5,10333],[86.5,10416],[86.5,10500],[86.5,10583],[86.5,10666],[86.5,10749],[86.5,10833],[86.5,10916],[86.5,11000],[86.5,11083],[86.5,11166],[86.5,11250],[86.5,11333],[86.5,11416],[86.5,11499],[86.5,11582],[86.5,11666],[86.5,11749],[86.5,11832],[86.5,11916],[86.5,12000],[86.5,12083],[86.5,12166],[86.5,12250],[86.5,12332],[86.5,12416],[86.5,12499],[86.5,12582]]",670.1122,671.646,86.45833333,0.8968,"[{""rating"":86.45833333333333,""responseTime"":0.8967999999523499}]",space,0.9924,,671.6462,Not at all,0,671.6519,,,[],,0,3,3,3,1,audio/Narrative7Situation3.wav,audio/Narrative8Situation3.wav,audio/Narrative5Situation3.wav,audio/Narrative6Situation3.wav,8,4,3,5,,,,,,,,,,,,,,,,,,,,,,,,,,,,,,,,,,,,,,,
,,,,,6117efedb574017076d5b499,2025-07-08_00h05.04.195,group3.4_multiperson,2023.2.2,Win32,59.88023952,686c2ebf0248f13bef9af11f,686c989a3248cbbd11664337,,,,,,,,,,,,,,,,,,,,,,,,,,,,,671.6522,2,audio/Narrative6Situation4.wav,673.6622,,673.6622,686.2791,"[[86.4,5166],[86.4,5249],[86.4,5333],[86.4,5416],[86.4,5499],[86.4,5583],[86.4,5666],[86.4,5750],[86.4,5833],[86.4,5916],[86.4,6000],[86.5,6083],[88.1,6166],[91,6249],[92.5,6333],[93.2,6417],[93.3,6499],[93.3,6583],[93.3,6666],[93.3,6750],[93.3,6833],[93.3,6916],[93.3,7000],[93.3,7083],[93.3,7166],[93.3,7249],[93.3,7333],[93.3,7416],[93.3,7500],[93.3,7583],[93.3,7666],[93.3,7750],[93.3,7833],[93.3,7916],[93.3,8000],[93.3,8083],[93.3,8166],[93.3,8249],[93.3,8333],[93.3,8416],[93.3,8499],[93.3,8583],[93.3,8666],[93.3,8749],[93.3,8833],[93.3,8916],[93.3,9000],[93.3,9083],[93.3,9166],[93.3,9250],[93.3,9333],[92.9,9416],[90.9,9499],[89.2,9583],[88.2,9666],[88.1,9749],[88.1,9833],[88.1,9916],[88.1,10000],[88.5,10083],[88.5,10166],[88.5,10250],[88.5,10333],[88.5,10416],[88.5,10500],[88.5,10583],[88.5,10666],[88.5,10750],[88.5,10833],[88.5,10916],[88.5,11000],[88.5,11083],[88.5,11166],[88.5,11249],[88.5,11333],[88.5,11416],[88.5,11500],[88.5,11583],[88.5,11666],[88.5,11749],[88.5,11833],[88.5,11916],[88.5,12000],[88.5,12083],[88.5,12166],[88.5,12249],[88.5,12333],[88.5,12416],[88.5,12499],[88.5,12583]]",686.2794,687.5452,80.41666667,0.9728,"[{""rating"":80.41666666666667,""responseTime"":0.9727999999523718}]",space,0.7143,,687.5452,Partially,50,687.5489,,,[],,0,4,4,4,1,audio/Narrative7Situation4.wav,audio/Narrative8Situation4.wav,audio/Narrative5Situation4.wav,audio/Narrative6Situation4.wav,3,3,1,2,,,,,,,,,,,,,,,,,,,,,,,,,,,,,,,,,,,,,,,
,,,,,6117efedb574017076d5b499,2025-07-08_00h05.04.195,group3.4_multiperson,2023.2.2,Win32,59.88023952,686c2ebf0248f13bef9af11f,686c989a3248cbbd11664337,,,,,,,,,,,,,,,,,,,,,,,,,,,,,687.5492,2,audio/Narrative6Situation5.wav,689.5621,,689.5622,697.5287,"[[80.3,667],[80.3,749],[81.1,833],[85.3,917],[89.8,1000],[90.5,1083],[90.5,1166],[90.5,1249],[90.5,1333],[90.5,1416],[90.5,1499],[90.5,1583],[90.5,1666],[90.5,1749],[90.5,1833],[90.5,1916],[90.5,1999],[90.5,2083],[90.5,2166],[90.5,2249],[90.5,2333],[90.5,2416],[90.5,2499],[90.5,2583],[90.5,2666],[90.5,2749],[90.5,2833],[90.5,2916],[90.5,2999],[90.5,3083],[90.5,3166],[90.5,3249],[90.5,3333],[90.5,3416],[90.5,3499],[90.5,3583],[90.5,3666],[90.5,3749],[90.5,3833],[90.5,3916],[90.5,4000],[90.5,4083],[90.5,4166],[90.5,4250],[90.5,4333],[90.5,4416],[90.5,4499],[90.5,4583],[90.5,4666],[90.5,4750],[90.5,4833],[90.5,4916],[90.5,4999],[90.5,5083],[90.5,5166],[90.5,5250],[90.5,5333],[90.5,5416],[90.5,5499],[90.5,5583],[90.5,5666],[90.5,5750],[90.5,5833],[90.5,5916],[90.5,5999],[90.5,6083],[90.5,6166],[90.5,6249],[90.5,6333],[90.5,6416],[90.5,6499],[90.5,6583],[90.5,6666],[90.5,6749],[90.5,6833],[90.5,6916],[90.5,6999],[90.5,7083],[90.5,7166],[90.5,7249],[90.5,7333],[90.5,7416],[90.5,7499],[90.5,7583],[90.5,7666],[90.5,7749],[90.5,7832],[90.5,7916]]",697.5288,702.4787,69.58333333,4.8157,"[{""rating"":78.22916666666666,""responseTime"":3.2327000000476573},{""rating"":69.58333333333333,""responseTime"":4.815700000047741}]",space,4.4224,,702.4789,Partially,50,702.4818,,,[],,0,5,5,5,1,audio/Narrative7Situation5.wav,audio/Narrative8Situation5.wav,audio/Narrative5Situation5.wav,audio/Narrative6Situation5.wav,5,2,5,2,,,,,,,,,,,,,,,,,,,,,,,,,,,,,,,,,,,,,,,
,,,,,6117efedb574017076d5b499,2025-07-08_00h05.04.195,group3.4_multiperson,2023.2.2,Win32,59.88023952,686c2ebf0248f13bef9af11f,686c989a3248cbbd11664337,,,,,,,,,,,,,,,,,,,,,,,,,,,,,702.4823,2,audio/Narrative6Situation6.wav,704.4953,,704.4953,715.5625,"[[69.5,250],[69.5,333],[69.4,416],[69.2,500],[69.1,583],[69.1,666],[69.1,750],[69.1,833],[69.1,917],[68.4,1000],[67.7,1083],[67.6,1166],[67.6,1250],[67.6,1333],[67.6,1416],[67.6,1500],[67.6,1583],[67.6,1666],[67.6,1750],[67.6,1833],[67.6,1916],[67.6,2000],[67.6,2083],[67.6,2166],[67.6,2250],[67.6,2333],[67.6,2416],[67.6,2500],[68.8,2583],[71.1,2666],[73.1,2750],[74.7,2833],[75.5,2916],[75.6,3000],[75.6,3083],[75.6,3166],[75.6,3250],[75.6,3333],[75.6,3416],[75.6,3500],[75.6,3583],[75.6,3667],[75.6,3750],[75.6,3833],[75.6,3917],[75.6,4000],[75.6,4083],[75.6,4166],[75.6,4250],[75.6,4333],[75.6,4416],[75.6,4500],[75.6,4583],[75.6,4666],[75.6,4750],[75.6,4833],[75.6,4916],[75.6,5000],[75.6,5083],[75.6,5166],[75.6,5250],[75.6,5333],[75.6,5416],[75.6,5500],[75.6,5583],[75.6,5666],[75.6,5750],[75.6,5833],[75.6,5916],[75.6,6000],[75.6,6083],[80.5,6166],[84.3,6250],[86.1,6333],[86.8,6416],[87.3,6500],[87.9,6583],[88.8,6666],[89.5,6750],[89.8,6833],[90.3,6916],[90.5,7000],[90.6,7083],[90.7,7167],[90.9,7249],[91,7333],[91.4,7417],[91.6,7500],[91.6,7583],[91.7,7666],[91.7,7750],[91.7,7833],[91.7,7917],[91.7,8000],[91.7,8083],[91.7,8166],[91.7,8250],[91.7,8333],[91.7,8416],[91.7,8500],[91.7,8583],[91.7,8666],[91.7,8750],[91.7,8833],[91.7,8916],[91.7,9000],[91.7,9083],[91.7,9167],[91.7,9250],[91.7,9333],[91.7,9416],[91.7,9500],[91.7,9583],[91.7,9666],[91.7,9750],[91.7,9833],[91.7,9917],[91.7,10000],[91.7,10083],[91.7,10166],[91.7,10250],[91.7,10333],[91.7,10416],[91.7,10499],[91.7,10583],[91.7,10666],[91.7,10750],[91.7,10833],[91.7,10916],[91.7,10999]]",715.5626,716.6453,91.66666667,0.656,"[{""rating"":91.66666666666667,""responseTime"":0.6559999999999491}]",space,0.5366,,716.6455,Not at all,0,716.6498,,,[],,0,6,6,6,1,audio/Narrative7Situation6.wav,audio/Narrative8Situation6.wav,audio/Narrative5Situation6.wav,audio/Narrative6Situation6.wav,3,2,3,2,,,,,,,,,,,,,,,,,,,,,,,,,,,,,,,,,,,,,,,
,,,,,6117efedb574017076d5b499,2025-07-08_00h05.04.195,group3.4_multiperson,2023.2.2,Win32,59.88023952,686c2ebf0248f13bef9af11f,686c989a3248cbbd11664337,,,,,,,,,,,,,,,,,,,,,,,,,,,,,716.65,2,audio/Narrative6Situation7.wav,721.6619,,721.662,746.5124,"[[91.4,916],[90.3,1000],[88.4,1083],[88.2,1166],[88.2,1250],[88.2,1333],[88.2,1416],[88.2,1500],[88.2,1583],[88.2,1666],[88.2,1750],[88.2,1833],[88.2,1916],[88.2,1999],[88.2,2083],[88.2,2166],[88.2,2250],[88.2,2333],[88.2,2417],[88.2,2500],[88.2,2583],[88.2,2666],[88.2,2750],[88.2,2833],[88.2,2916],[88.2,2999],[88.2,3083],[88.2,3166],[88.2,3249],[88.2,3333],[88.2,3417],[88.2,3500],[88.2,3583],[88.2,3666],[88.2,3750],[88.2,3833],[88.2,3916],[88.2,4000],[88.2,4083],[88.2,4166],[88.2,4250],[88.2,4333],[88.2,4416],[88.2,4500],[88.2,4583],[88.2,4666],[88.2,4750],[88.2,4833],[88.2,4916],[88.2,4999],[88.2,5083],[88.2,5166],[88.2,5249],[88.2,5333],[88.2,5416],[88.2,5500],[88.2,5583],[88.2,5666],[88.2,5750],[88.2,5833],[88.2,5916],[88.2,6000],[88.2,6083],[88.2,6166],[88.2,6250],[88.2,6333],[88.2,6416],[87.8,6500],[73.5,6583],[56.6,6667],[45.5,6750],[37.8,6833],[31.6,6917],[28.4,7000],[26.6,7083],[26.3,7166],[26.3,7250],[26.3,7333],[26.3,7417],[45.3,7500],[60.4,7583],[65.6,7667],[67.7,7750],[67.8,7833],[67.8,7916],[67.8,8000],[67.8,8083],[67.8,8166],[67.8,8249],[67.8,8333],[67.8,8416],[67.8,8500],[67.8,8583],[67.8,8667],[67.8,8750],[67.8,8833],[67.8,8917],[67.8,9000],[67.8,9083],[67.8,9166],[67.8,9249],[67.8,9333],[67.8,9416],[67.8,9500],[67.8,9583],[67.8,9666],[67.8,9750],[67.8,9833],[67.8,9917],[67.8,10000],[67.8,10084],[67.8,10166],[68.3,10250],[69.6,10333],[71.6,10416],[73.9,10500],[76.5,10583],[79.1,10666],[80.1,10750],[80.9,10833],[81.3,10916],[81.6,10999],[81.7,11083],[81.9,11166],[81.9,11250],[81.9,11333],[81.9,11416],[81.9,11500],[81.9,11583],[81.9,11666],[81.9,11749],[81.9,11833],[81.9,11916],[81.9,12000],[81.9,12083],[81.9,12166],[81.9,12250],[81.9,12333],[81.9,12417],[81.9,12500],[81.9,12583],[81.9,12666],[81.9,12750],[81.9,12833],[81.9,12917],[81.9,13000],[81.9,13083],[81.9,13166],[81.9,13250],[81.9,13333],[81.9,13416],[81.9,13500],[81.9,13583],[81.9,13666],[81.9,13749],[81.9,13833],[81.9,13916],[81.9,13999],[81.9,14083],[81.9,14166],[81.9,14250],[81.9,14333],[81.9,14417],[81.9,14500],[81.9,14583],[81.9,14667],[81.9,14750],[81.9,14833],[81.9,14917],[81.9,15000],[81.9,15083],[81.9,15166],[81.9,15250],[81.9,15333],[81.9,15416],[81.9,15500],[81.9,15583],[81.9,15666],[81.9,15749],[81.9,15833],[81.9,15916],[81.9,16000],[81.9,16083],[81.9,16166],[81.9,16250],[81.9,16333],[81.9,16417],[81.9,16500],[81.9,16583],[81.9,16666],[81.9,16750],[84.3,16833],[86.8,16916],[87.9,17000],[88.1,17083],[88.1,17166],[88.1,17250],[88.1,17333],[88.1,17416],[88.1,17500],[88.1,17583],[88.1,17666],[88.1,17749],[88.1,17833],[88.1,17916],[88.1,18000],[88.1,18083],[88.1,18166],[88.1,18250],[88.1,18333],[88.1,18416],[88.1,18500],[88.1,18583],[88.1,18666],[88.1,18750],[88.1,18833],[88.1,18916],[88.1,19000],[88.1,19083],[88.1,19167],[88.1,19250],[88.1,19333],[88.1,19416],[88.1,19500],[88.1,19583],[88.1,19666],[88.1,19749],[88.1,19833],[88.1,19916],[88.1,20000],[88.1,20083],[88.1,20166],[88.1,20250],[88.1,20333],[88.1,20416],[88.1,20500],[88.1,20583],[88.1,20666],[88.1,20750],[88.1,20833],[88.1,20917],[88.1,21000],[88.1,21083],[88.1,21166],[88.1,21250],[88.1,21333],[88.1,21417],[88.1,21500],[88.1,21583],[88.1,21666],[88.1,21750],[88.1,21833],[88.1,21916],[88.1,22000],[88.1,22083],[88.1,22166],[88.1,22250],[88.1,22333],[88.1,22416],[88.1,22500],[88.1,22583],[88.1,22666],[88.1,22750],[88.1,22833],[88.1,22916],[88.1,23000],[88.1,23083],[88.1,23166],[88.1,23250],[88.1,23333],[87.2,23416],[86.6,23500],[85.7,23583],[85.3,23667],[85.1,23749],[85.1,23833],[85,23916],[84.8,24000],[84.6,24083],[84.5,24166],[84.5,24250],[84.5,24333],[84.5,24416],[84.5,24500],[84.5,24583],[84.5,24667],[84.5,24750],[84.5,24833]]",746.5127,748.6122,82.08333333,1.5755,"[{""rating"":82.08333333333333,""responseTime"":1.57549999999992}]",space,1.5528,,748.6124,Definitely yes,100,748.621,,,[],,0,7,7,7,1,audio/Narrative7Situation7.wav,audio/Narrative8Situation7.wav,audio/Narrative5Situation7.wav,audio/Narrative6Situation7.wav,5,3,4,5,,,,,,,,,,,,,,,,,,,,,,,,,,,,,,,,,,,,,,,
,,,,,6117efedb574017076d5b499,2025-07-08_00h05.04.195,group3.4_multiperson,2023.2.2,Win32,59.88023952,686c2ebf0248f13bef9af11f,686c989a3248cbbd11664337,,,,,,,,,,,,,,,,,,,,,,,,,,,,,748.622,2,audio/Narrative6Situation8.wav,753.6286,,753.6286,760.479,"[[82.4,583],[85.1,666],[86.1,749],[86.1,833],[86.1,916],[86.1,1000],[86.1,1083],[86.1,1166],[86.1,1250],[86.1,1333],[86.1,1416],[86.1,1500],[86.1,1583],[86.1,1667],[86.1,1750],[86.1,1833],[86.1,1917],[86.1,1999],[86.1,2083],[86.1,2166],[86.1,2250],[86.1,2333],[86.1,2417],[86.1,2500],[86.1,2583],[86.1,2667],[86.1,2750],[86.1,2833],[86.1,2916],[86.1,3000],[86.1,3083],[86.1,3166],[86.1,3250],[86.1,3333],[86.1,3416],[86.1,3501],[86.1,3583],[86.1,3667],[86.1,3750],[86.1,3833],[86.1,3917],[86.1,4000],[86.1,4083],[86.1,4166],[86.1,4250],[86.1,4333],[86.1,4416],[86.1,4499],[86.1,4583],[86.1,4666],[86.1,4750],[86.1,4833],[86.1,4916],[86.1,4999],[86.1,5083],[86.1,5166],[86.1,5250],[86.1,5333],[86.1,5416],[86.1,5500],[86.1,5583],[86.1,5666],[86.1,5750],[86.1,5833],[86.1,5917],[86.1,5999],[86.1,6083],[86.1,6167],[86.1,6250],[86.1,6333],[86.1,6417],[86.1,6500],[86.1,6583],[86.1,6666],[86.1,6750],[86.1,6833]]",760.4792,762.712,67.39583333,1.9545,"[{""rating"":67.39583333333333,""responseTime"":1.954499999999939}]",space,1.6842,,762.7121,Partially,50,762.7168,,,[],,0,8,8,8,1,audio/Narrative7Situation8.wav,audio/Narrative8Situation8.wav,audio/Narrative5Situation8.wav,audio/Narrative6Situation8.wav,2,3,3,5,,,,,,,,,,,,,,,,,,,,,,,,,,,,,,,,,,,,,,,
,,,,,6117efedb574017076d5b499,2025-07-08_00h05.04.195,group3.4_multiperson,2023.2.2,Win32,59.88023952,686c2ebf0248f13bef9af11f,686c989a3248cbbd11664337,,,,,,,,,,,,,,,,,,,,,,,,,,,,,762.717,2,audio/Narrative6Situation9.wav,766.7286,,766.7286,776.6622,"[[69,499],[73.1,583],[75.7,666],[78.2,750],[81.3,833],[82,916],[82.1,1000],[82.3,1083],[82.3,1166],[82.3,1250],[82.3,1333],[82.3,1416],[82.3,1500],[82.3,1583],[82.3,1666],[82.3,1750],[82.3,1833],[82.3,1917],[82.3,2000],[82.3,2083],[82.3,2166],[82.3,2249],[82.3,2333],[82.3,2416],[82.3,2500],[82.3,2583],[82.3,2666],[82.3,2749],[82.3,2833],[82.3,2916],[82.3,2999],[82.3,3083],[82.3,3166],[82.3,3249],[82.3,3333],[82.3,3416],[82.3,3500],[82.3,3583],[82.3,3666],[82.3,3750],[82.3,3833],[82.3,3917],[82.3,4000],[82.3,4083],[82.3,4166],[82.3,4250],[82.3,4333],[82.3,4416],[82.3,4500],[82.3,4583],[82.3,4666],[82.3,4750],[82.3,4833],[82.3,4916],[82.3,5000],[82.3,5083],[82.3,5166],[82.3,5250],[82.3,5333],[82.3,5416],[82.3,5500],[82.3,5583],[82.3,5666],[82.3,5750],[82.3,5833],[82.3,5916],[82.3,6000],[82.3,6083],[82.3,6166],[82.3,6250],[82.3,6333],[82.3,6416],[82.3,6499],[82.3,6583],[82.3,6666],[82.3,6749],[82.3,6833],[82.3,6916],[82.3,6999],[82.3,7083],[82.3,7166],[82.3,7250],[82.3,7333],[82.3,7416],[82.3,7499],[82.3,7583],[82.3,7666],[82.3,7749],[82.3,7833],[82.3,7916],[82.3,7999],[76.9,8083],[67,8166],[56.6,8250],[46.8,8333],[38.8,8416],[33.2,8499],[29,8583],[24.1,8667],[21.1,8750],[19.2,8833],[17.8,8916],[17.4,9000],[17.3,9083],[17.3,9166],[17.3,9249],[17.3,9333],[17.3,9416],[17.3,9499],[17.3,9583],[17.3,9666],[17.3,9749],[17.3,9833],[17.3,9916]]",776.6624,777.9622,17.29166667,0.5555,"[{""rating"":17.291666666666668,""responseTime"":0.5554999999999382}]",space,0.7547,,777.9624,Not at all,0,777.9702,,,[],,0,9,9,9,1,audio/Narrative7Situation9.wav,audio/Narrative8Situation9.wav,audio/Narrative5Situation9.wav,audio/Narrative6Situation9.wav,2,3,3,4,,,,,,,,,,,,,,,,,,,,,,,,,,,,,,,,,,,,,,,
,,,,,6117efedb574017076d5b499,2025-07-08_00h05.04.195,group3.4_multiperson,2023.2.2,Win32,59.88023952,686c2ebf0248f13bef9af11f,686c989a3248cbbd11664337,,,,,,,,,,,,,,,,,,,,,,,,,,,,,777.9708,2,audio/Narrative5Situation1.wav,782.9791,,782.9792,796.2789,"[[18.3,1082],[19.7,1166],[20.7,1249],[21.5,1332],[21.7,1415],[22,1499],[22.1,1582],[22.6,1665],[26.4,1749],[41.5,1832],[61.4,1916],[79.9,1999],[84.6,2082],[84.9,2167],[87,2249],[87.1,2332],[87.1,2416],[87.1,2499],[87.1,2582],[87.1,2665],[87.1,2749],[87.1,2832],[87.1,2915],[87.1,2999],[87.1,3082],[87.1,3166],[87.1,3249],[87.1,3332],[87.1,3415],[87.1,3499],[87.1,3582],[87.1,3665],[87.1,3749],[87.1,3832],[87.1,3915],[87.1,3999],[87.1,4082],[87.1,4166],[87.1,4249],[87.1,4332],[87.1,4415],[87.1,4499],[87.1,4582],[87.1,4666],[87.1,4749],[87.1,4832],[87.1,4916],[87.1,4999],[87.1,5082],[87.1,5166],[87.1,5249],[87.1,5332],[87.1,5415],[87.1,5499],[87.1,5582],[87.1,5665],[87.1,5749],[87.1,5832],[87.1,5916],[87.1,5999],[87.1,6082],[87.1,6165],[87.1,6249],[87.1,6332],[87.1,6416],[87.1,6499],[87.1,6582],[87.1,6665],[87.1,6749],[87.1,6832],[87.1,6915],[87.1,6999],[87.1,7082],[87.1,7166],[87.1,7249],[87.1,7332],[87.1,7415],[87.1,7499],[87.1,7583],[87.1,7666],[87.1,7749],[87.1,7832],[87.1,7916],[87.1,7999],[87.1,8082],[87.1,8166],[87.1,8249],[87.1,8332],[87.1,8416],[87.1,8499],[87.1,8582],[87.1,8666],[87.1,8749],[87.1,8832],[87.1,8916],[87.1,8999],[87.1,9082],[87.1,9166],[87.1,9249],[87.1,9332],[87.1,9415],[87.1,9499],[87.1,9582],[87.1,9666],[87.1,9749],[87.1,9832],[87.1,9916],[87.1,9999],[87.1,10082],[87.1,10166],[87.1,10249],[87.1,10332],[87.1,10416],[87.1,10499],[87.1,10582],[87.1,10666],[87.1,10749],[87.1,10832],[87.1,10916],[87.1,10999],[87.1,11082],[87.1,11166],[87.1,11249],[87.1,11332],[87.1,11415],[87.1,11499],[87.1,11583],[87.1,11666],[87.1,11749],[87.1,11833],[87.1,11916],[87.1,11999],[87.1,12082],[87.1,12166],[87.1,12249],[87.1,12332],[87.1,12416],[87.1,12499],[87.1,12582],[87.1,12666],[87.1,12749],[87.1,12832],[87.1,12916],[87.1,12999],[87.1,13082],[87.1,13166],[87.1,13249]]",796.2792,797.6956,87.08333333,1.1724,"[{""rating"":87.08333333333333,""responseTime"":1.172400000095422}]",space,0.8686,,797.6958,Partially,50,797.6999,,,[],,0,10,10,10,1,audio/Narrative8Situation1.wav,audio/Narrative7Situation1.wav,audio/Narrative6Situation1.wav,audio/Narrative5Situation1.wav,5,2,2,5,,,,,,,,,,,,,,,,,,,,,,,,,,,,,,,,,,,,,,,
,,,,,6117efedb574017076d5b499,2025-07-08_00h05.04.195,group3.4_multiperson,2023.2.2,Win32,59.88023952,686c2ebf0248f13bef9af11f,686c989a3248cbbd11664337,,,,,,,,,,,,,,,,,,,,,,,,,,,,,797.7002,2,audio/Narrative5Situation2.wav,800.7119,,800.7119,830.1623,"[[85.9,1833],[84.7,1916],[83.2,2000],[83.1,2083],[83.1,2166],[83.1,2250],[83.1,2333],[83.1,2416],[83.1,2500],[83.1,2584],[83.1,2666],[83.1,2749],[83.1,2833],[83.1,2916],[83.1,3000],[83.1,3083],[83.1,3166],[83.1,3250],[83.1,3333],[83.1,3417],[83.1,3500],[83.1,3583],[83.1,3666],[83.1,3750],[83.1,3833],[83.1,3916],[83.1,3999],[83.1,4084],[83.1,4166],[83.1,4250],[83.1,4333],[83.1,4416],[83.1,4500],[83.1,4582],[83.1,4666],[83.1,4750],[83.1,4833],[83.1,4916],[83.1,5000],[83.1,5083],[83.1,5166],[83.1,5250],[83.1,5333],[83.1,5416],[83.1,5503],[83.1,5583],[83.1,5667],[83.1,5750],[83.1,5833],[83.1,5916],[83.1,6000],[83.1,6083],[83.1,6166],[83.1,6250],[83.1,6333],[83.1,6416],[83.1,6500],[83.1,6583],[83.1,6666],[83.1,6750],[83.1,6833],[83.1,6916],[83.1,6999],[83.1,7083],[83.1,7166],[83.1,7250],[83.1,7333],[83.1,7416],[83.1,7499],[83.1,7583],[83.1,7666],[83.1,7750],[83.1,7833],[83.1,7916],[83.1,8000],[83.1,8083],[84.2,8166],[85.4,8250],[86.4,8333],[87.3,8416],[88.4,8500],[88.9,8583],[89.6,8668],[89.6,8749],[89.6,8833],[89.6,8916],[89.6,9000],[89.6,9083],[89.6,9166],[89.6,9250],[89.6,9333],[89.6,9416],[89.6,9500],[89.6,9583],[89.6,9667],[89.6,9750],[89.6,9833],[89.6,9917],[89.6,9999],[89.6,10083],[89.6,10166],[89.6,10250],[89.6,10333],[89.6,10416],[89.6,10499],[89.6,10583],[89.6,10666],[89.6,10750],[89.6,10833],[89.6,10916],[89.6,10999],[89.6,11083],[89.6,11166],[89.6,11250],[89.6,11333],[89.6,11416],[89.6,11500],[89.6,11583],[89.6,11667],[89.6,11750],[89.6,11833],[89.6,11916],[89.6,12000],[89.6,12083],[89.6,12166],[89.6,12249],[89.6,12333],[89.6,12416],[89.6,12499],[89.6,12583],[89.6,12666],[89.6,12750],[89.6,12833],[89.6,12916],[89.6,13000],[89.6,13083],[89.6,13166],[89.6,13250],[89.6,13333],[89.6,13416],[89.6,13500],[89.6,13583],[89.6,13666],[89.6,13750],[89.6,13833],[89.6,13916],[89.6,14000],[89.6,14083],[89.6,14167],[89.6,14250],[89.6,14333],[89.6,14417],[89.6,14499],[89.6,14583],[89.6,14667],[89.6,14750],[89.6,14833],[89.6,14916],[89.6,14999],[89.6,15083],[89.6,15166],[89.6,15249],[89.6,15333],[89.6,15416],[89.6,15500],[89.6,15583],[89.6,15666],[89.6,15750],[89.6,15833],[89.6,15916],[89.6,16000],[89.6,16083],[89.6,16166],[89.6,16250],[89.6,16333],[89.6,16416],[89.6,16500],[89.6,16583],[89.6,16667],[89.6,16750],[89.6,16833],[89.6,16917],[89.6,17000],[89.6,17083],[89.6,17167],[89.6,17250],[89.6,17333],[89.6,17416],[89.6,17499],[89.6,17583],[89.6,17667],[89.6,17750],[89.6,17833],[89.6,17916],[89.6,18000],[89.6,18083],[89.6,18166],[89.6,18249],[89.6,18333],[89.6,18417],[89.6,18500],[89.6,18583],[89.6,18666],[89.6,18750],[89.6,18833],[89.6,18916],[89.6,19000],[89.6,19083],[89.6,19167],[89.6,19250],[89.6,19334],[89.6,19416],[89.6,19499],[89.6,19583],[89.6,19666],[89.6,19749],[89.6,19833],[89.6,19916],[89.6,19999],[89.6,20083],[89.6,20166],[89.6,20249],[89.6,20333],[89.6,20416],[89.6,20499],[89.6,20583],[89.6,20666],[89.6,20750],[89.6,20833],[89.6,20916],[89.6,21000],[89.6,21083],[89.6,21167],[89.6,21250],[89.6,21333],[89.6,21416],[89.6,21499],[89.6,21583],[89.6,21666],[89.6,21750],[89.6,21833],[89.6,21916],[89.6,22000],[89.6,22083],[89.6,22167],[89.6,22249],[89.6,22333],[89.6,22416],[89.6,22500],[89.6,22583],[89.6,22666],[89.6,22750],[89.6,22833],[89.6,22916],[89.6,22999],[89.6,23083],[89.6,23166],[89.6,23249],[89.6,23333],[89.6,23416],[89.6,23500],[89.6,23583],[89.6,23666],[89.6,23750],[89.6,23833],[89.6,23916],[89.6,24000],[89.6,24083],[89.6,24166],[89.6,24250],[89.6,24333],[89.6,24416],[89.6,24500],[89.6,24583],[89.6,24666],[89.6,24750],[89.6,24833],[89.6,24916],[89.6,25000],[89.6,25083],[89.6,25166],[89.6,25250],[89.6,25333],[89.6,25416],[89.6,25500],[89.6,25583],[89.6,25667],[89.6,25750],[89.6,25833],[89.6,25916],[89.6,26000],[89.6,26084],[89.6,26166],[89.6,26250],[89.6,26333],[89.6,26416],[89.6,26500],[89.6,26583],[89.6,26666],[89.6,26750],[89.6,26833],[89.6,26916],[89.6,27000],[89.6,27083],[89.6,27166],[89.6,27250],[89.6,27333],[89.6,27416],[89.6,27500],[89.6,27583],[89.6,27667],[89.6,27750],[89.6,27833],[89.6,27916],[89.6,28000],[89.6,28083],[89.6,28166],[89.6,28249],[89.6,28333],[89.6,28416],[89.6,28500],[89.6,28583],[89.6,28666],[89.6,28750],[89.6,28833],[89.6,28916],[89.6,29000],[89.6,29083],[89.6,29166],[89.6,29250],[89.6,29333],[89.6,29416]]",830.1628,832.0286,86.45833333,1.5097,"[{""rating"":86.45833333333333,""responseTime"":1.5096999999284435}]",space,1.3244,,832.0287,Partially,50,832.0313,,,[],,0,11,11,11,1,audio/Narrative8Situation2.wav,audio/Narrative7Situation2.wav,audio/Narrative6Situation2.wav,audio/Narrative5Situation2.wav,3,3,3,3,,,,,,,,,,,,,,,,,,,,,,,,,,,,,,,,,,,,,,,
,,,,,6117efedb574017076d5b499,2025-07-08_00h05.04.195,group3.4_multiperson,2023.2.2,Win32,59.88023952,686c2ebf0248f13bef9af11f,686c989a3248cbbd11664337,,,,,,,,,,,,,,,,,,,,,,,,,,,,,832.0319,2,audio/Narrative5Situation3.wav,835.0459,,835.046,848.962,[],848.962,851.6785,86.45833333,0.2242,"[{""rating"":86.45833333333333,""responseTime"":0.22419999992848716}]",space,2.1894,,851.6785,Definitely yes,100,851.6835,,,[],,0,12,12,12,1,audio/Narrative8Situation3.wav,audio/Narrative7Situation3.wav,audio/Narrative6Situation3.wav,audio/Narrative5Situation3.wav,4,8,5,3,,,,,,,,,,,,,,,,,,,,,,,,,,,,,,,,,,,,,,,
,,,,,6117efedb574017076d5b499,2025-07-08_00h05.04.195,group3.4_multiperson,2023.2.2,Win32,59.88023952,686c2ebf0248f13bef9af11f,686c989a3248cbbd11664337,,,,,,,,,,,,,,,,,,,,,,,,,,,,,851.6838,2,audio/Narrative5Situation4.wav,852.6951,,852.6952,873.0959,"[[85.7,500],[81.9,583],[79.3,666],[79.3,750],[79.3,833],[83,917],[83.3,999],[83.3,1083],[83.3,1166],[83.3,1250],[83.3,1333],[83.3,1416],[83.3,1500],[83.3,1583],[83.3,1667],[83.3,1750],[83.3,1833],[83.3,1916],[83.3,2000],[83.3,2083],[83.3,2166],[83.3,2250],[83.3,2333],[83.3,2416],[83.3,2500],[83.3,2583],[83.3,2666],[83.3,2750],[83.3,2833],[83.3,2916],[83.3,3000],[83.3,3083],[83.3,3166],[83.3,3250],[83.3,3333],[83.3,3416],[83.3,3499],[83.3,3583],[83.3,3667],[83.3,3750],[83.3,3833],[83.3,3916],[83.3,4000],[83.3,4083],[83.3,4166],[83.3,4250],[83.3,4333],[83.3,4416],[83.3,4499],[83.3,4583],[83.3,4666],[83.3,4750],[83.3,4833],[83.3,4916],[83.3,4999],[83.3,5083],[83.3,5166],[83.3,5250],[83.3,5333],[83.3,5417],[83.3,5500],[83.3,5583],[83.3,5666],[83.3,5749],[83.3,5833],[83.3,5916],[83.3,6000],[83.3,6083],[83.3,6166],[83.3,6250],[83.3,6333],[83.3,6416],[83.3,6500],[83.3,6583],[83.3,6666],[83.3,6750],[83.3,6833],[83.3,6916],[83.3,6999],[83.3,7083],[83.3,7166],[83.3,7250],[83.3,7333],[83.3,7416],[83.3,7500],[83.3,7583],[83.3,7666],[83.3,7750],[83.3,7833],[83.3,7916],[83.3,8000],[83.3,8083],[83.3,8166],[83.3,8250],[83.3,8333],[83.3,8416],[83.3,8500],[83.3,8583],[83.3,8667],[83.3,8750],[83.3,8833],[83.3,8916],[83.3,9000],[83.3,9083],[83.3,9166],[83.3,9249],[83.3,9333],[83.3,9416],[83.3,9500],[83.3,9583],[83.3,9667],[83.3,9750],[83.3,9833],[83.3,9916],[83.3,10000],[83.3,10083],[83.3,10166],[83.3,10250],[83.3,10333],[83.3,10416],[83.3,10500],[83.3,10583],[83.3,10666],[83.3,10749],[83.3,10833],[83.3,10916],[83.3,11000],[83.3,11083],[83.3,11166],[83.3,11250],[83.3,11333],[83.3,11416],[83.3,11499],[83.3,11583],[83.3,11666],[83.3,11749],[83.3,11833],[83.3,11916],[83.3,12000],[83.3,12083],[83.3,12166],[83.3,12250],[83.3,12333],[83.3,12416],[83.3,12500],[83.3,12583],[83.3,12666],[83.3,12750],[83.3,12833],[83.3,12916],[83.3,13000],[83.3,13083],[83.3,13166],[83.3,13250],[83.3,13333],[83.3,13416],[83.3,13500],[83.3,13583],[83.3,13666],[83.3,13750],[83.3,13833],[83.3,13916],[83.3,14000],[83.3,14083],[83.3,14166],[83.3,14250],[83.3,14333],[83.3,14416],[83.3,14500],[83.3,14583],[83.3,14666],[83.3,14750],[83.3,14833],[83.3,14916],[83.3,15000],[83.3,15083],[83.3,15166],[83.3,15249],[83.3,15333],[83.3,15416],[83.3,15500],[83.3,15583],[83.3,15667],[83.3,15750],[83.3,15833],[83.3,15916],[83.3,16000],[83.3,16083],[83.3,16166],[83.3,16250],[83.3,16333],[83.3,16416],[83.3,16500],[83.3,16583],[83.3,16666],[83.3,16750],[83.3,16833],[83.3,16916],[83.3,17000],[83.3,17083],[83.3,17166],[83.3,17249],[83.3,17333],[83.3,17416],[83.3,17500],[83.3,17583],[83.3,17666],[83.3,17750],[83.3,17833],[83.3,17916],[83.3,18000],[83.3,18083],[83.3,18166],[83.3,18250],[83.3,18333],[83.3,18416],[83.3,18499],[83.3,18583],[83.3,18666],[83.3,18750],[83.3,18833],[83.3,18916],[83.3,19000],[83.3,19083],[83.3,19166],[83.3,19249],[83.3,19333],[83.3,19416],[83.3,19499],[83.3,19583],[83.3,19667],[83.3,19750],[83.3,19833],[83.3,19916],[83.3,20000],[83.3,20083],[83.3,20166],[83.3,20249],[83.3,20334]]",873.0962,874.5123,83.33333333,0.6799,"[{""rating"":83.33333333333333,""responseTime"":0.6798999999762145}]",space,0.8724,,874.5125,Not at all,0,874.52,,,[],,0,13,13,13,1,audio/Narrative8Situation4.wav,audio/Narrative7Situation4.wav,audio/Narrative6Situation4.wav,audio/Narrative5Situation4.wav,3,3,2,1,,,,,,,,,,,,,,,,,,,,,,,,,,,,,,,,,,,,,,,
,,,,,6117efedb574017076d5b499,2025-07-08_00h05.04.195,group3.4_multiperson,2023.2.2,Win32,59.88023952,686c2ebf0248f13bef9af11f,686c989a3248cbbd11664337,,,,,,,,,,,,,,,,,,,,,,,,,,,,,874.5205,2,audio/Narrative5Situation5.wav,879.5288,,879.5289,894.9618,"[[84,667],[85.4,750],[87.9,834],[88.6,916],[88.6,999],[88.6,1083],[88.9,1167],[88.9,1249],[88.9,1333],[88.9,1416],[88.9,1499],[88.9,1582],[88.9,1666],[88.9,1749],[88.9,1832],[88.9,1915],[88.9,1999],[88.9,2082],[88.9,2166],[88.9,2249],[88.9,2332],[88.9,2416],[88.9,2499],[88.9,2582],[88.9,2666],[88.9,2749],[88.9,2832],[88.9,2916],[88.9,2999],[88.9,3083],[88.9,3166],[88.9,3249],[88.9,3332],[88.9,3416],[88.9,3499],[88.9,3582],[88.9,3666],[88.9,3749],[88.9,3832],[88.9,3916],[88.9,3999],[88.9,4082],[88.9,4166],[88.9,4249],[88.9,4332],[88.9,4416],[88.9,4499],[88.9,4583],[88.9,4666],[88.9,4749],[88.9,4833],[88.9,4916],[88.9,4999],[88.9,5082],[88.9,5166],[88.9,5249],[88.9,5332],[88.9,5416],[85.9,5499],[76.3,5583],[62.2,5666],[46.4,5749],[31.9,5832],[24.9,5916],[19.3,6000],[15.5,6083],[14.9,6166],[14.8,6249],[14.8,6333],[14.8,6416],[14.8,6499],[14.8,6582],[14.8,6666],[14.8,6749],[14.8,6832],[14.8,6916],[14.8,6999],[14.8,7083],[14.8,7166],[14.8,7249],[14.8,7332],[14.8,7416],[14.8,7499],[14.8,7583],[14.8,7666],[14.8,7749],[14.8,7833],[14.8,7916],[14.8,7999],[14.8,8083],[14.8,8166],[14.8,8249],[14.8,8332],[14.8,8416],[14.8,8499],[14.8,8582],[21.8,8666],[31,8749],[47.9,8834],[60.9,8916],[67,9000],[73.5,9083],[77.7,9166],[81,9250],[82.6,9332],[83.2,9417],[83.4,9499],[83.4,9582],[83.5,9666],[83.5,9749],[83.5,9833],[83.5,9916],[83.5,9999],[83.5,10083],[83.5,10166],[83.5,10249],[84,10333],[84.9,10416],[85.4,10499],[85.5,10582],[85.5,10666],[85.5,10749],[85.5,10832],[85.5,10916],[85.5,10999],[85.5,11082],[85.5,11166],[85.5,11249],[85.5,11333],[85.5,11416],[85.5,11499],[85.5,11583],[85.5,11666],[85.5,11749],[85.5,11833],[85.5,11916],[85.5,11999],[85.5,12082],[85.5,12166],[85.5,12249],[85.5,12332],[85.5,12416],[85.5,12499],[85.5,12582],[85.5,12666],[85.5,12749],[85.5,12833],[85.5,12916],[85.5,12999],[85.5,13082],[85.5,13166],[85.5,13249],[85.5,13332],[85.5,13416],[85.5,13499],[85.5,13583],[85.5,13666],[85.5,13749],[85.5,13832],[85.5,13916],[85.5,13999],[85.5,14083],[85.5,14166],[85.5,14249],[85.5,14333],[85.5,14416],[85.5,14499],[85.5,14583],[85.5,14666],[85.5,14749],[85.5,14833],[85.5,14916],[85.5,14999],[85.5,15082],[85.5,15166],[85.5,15249],[85.5,15332],[85.5,15416]]",894.9619,896.2788,65.10416667,0.999,"[{""rating"":65.10416666666666,""responseTime"":0.9990000000000236}]",space,0.7844,,896.279,Not at all,0,896.2828,,,[],,0,14,14,14,1,audio/Narrative8Situation5.wav,audio/Narrative7Situation5.wav,audio/Narrative6Situation5.wav,audio/Narrative5Situation5.wav,2,5,2,5,,,,,,,,,,,,,,,,,,,,,,,,,,,,,,,,,,,,,,,
,,,,,6117efedb574017076d5b499,2025-07-08_00h05.04.195,group3.4_multiperson,2023.2.2,Win32,59.88023952,686c2ebf0248f13bef9af11f,686c989a3248cbbd11664337,,,,,,,,,,,,,,,,,,,,,,,,,,,,,896.2833,2,audio/Narrative5Situation6.wav,899.2954,,899.2955,904.9619,"[[64.4,584],[64,667],[63.8,749],[63.6,832],[63.6,916],[63.6,999],[63.6,1082],[63.6,1166],[63.6,1249],[63.6,1333],[63.6,1416],[63.6,1500],[63.6,1583],[65.6,1666],[70,1750],[76.1,1833],[84,1916],[87.5,1999],[89.4,2082],[90.5,2166],[90.5,2249],[90.5,2332],[90.5,2416],[90.5,2499],[90.5,2582],[90.5,2666],[90.5,2749],[90.5,2833],[90.5,2916],[90.5,2999],[90.5,3083],[90.5,3166],[90.5,3249],[90.5,3332],[90.5,3416],[90.5,3499],[90.5,3583],[90.5,3666],[90.5,3749],[90.5,3833],[90.5,3916],[90.5,3999],[90.5,4082],[90.5,4166],[90.5,4249],[90.5,4333],[90.5,4416],[90.5,4499],[90.5,4583],[90.5,4666],[90.5,4749],[90.5,4833],[90.5,4916],[90.5,4999],[90.5,5083],[90.5,5166],[90.5,5249],[90.5,5333],[90.5,5416],[90.5,5499],[90.5,5583],[90.5,5666]]",904.962,906.6284,90.52083333,1.311,"[{""rating"":90.52083333333334,""responseTime"":1.3110000000000355}]",space,1.1252,,906.6285,Not at all,0,906.6316,,,[],,0,15,15,15,1,audio/Narrative8Situation6.wav,audio/Narrative7Situation6.wav,audio/Narrative6Situation6.wav,audio/Narrative5Situation6.wav,2,3,2,3,,,,,,,,,,,,,,,,,,,,,,,,,,,,,,,,,,,,,,,
,,,,,6117efedb574017076d5b499,2025-07-08_00h05.04.195,group3.4_multiperson,2023.2.2,Win32,59.88023952,686c2ebf0248f13bef9af11f,686c989a3248cbbd11664337,,,,,,,,,,,,,,,,,,,,,,,,,,,,,906.6319,2,audio/Narrative5Situation7.wav,910.6452,,910.6452,931.6787,"[[89.8,500],[84.7,583],[83.8,666],[83.6,750],[83.6,833],[84.9,916],[85.3,1000],[85.3,1083],[85.3,1166],[85.3,1250],[85.3,1333],[85.3,1416],[85.3,1500],[85.3,1583],[85.3,1666],[85.3,1749],[85.3,1833],[85.3,1916],[85.3,2000],[85.3,2083],[85.3,2166],[85.3,2250],[85.3,2333],[85.3,2417],[85.3,2500],[85.3,2583],[85.3,2666],[85.3,2749],[85.3,2833],[85.3,2916],[85.3,3000],[85.3,3083],[85.3,3166],[85.3,3250],[85.3,3333],[85.3,3416],[85.3,3499],[85.3,3583],[85.3,3666],[85.3,3749],[85.3,3833],[85.3,3916],[85.3,4000],[85.3,4083],[85.3,4167],[85.3,4250],[85.3,4333],[85.3,4416],[85.3,4500],[85.3,4583],[85.3,4666],[85.3,4750],[85.3,4833],[85.3,4916],[85.3,4999],[85.3,5083],[85.3,5166],[85.3,5249],[85.3,5333],[85.3,5416],[85.3,5500],[85.3,5583],[85.3,5666],[85.3,5749],[85.3,5833],[86.3,5916],[86.8,5999],[87.2,6083],[87.3,6166],[87.4,6249],[87.6,6333],[87.7,6416],[87.7,6500],[87.7,6583],[87.7,6666],[87.7,6750],[87.7,6833],[87.7,6916],[87.7,6999],[87.7,7083],[87.7,7166],[87.7,7249],[87.7,7333],[87.7,7416],[87.7,7500],[87.7,7583],[87.7,7667],[87.7,7749],[87.7,7833],[87.7,7916],[87.7,7999],[87.7,8083],[87.7,8166],[87.7,8249],[87.7,8333],[87.7,8416],[87.7,8500],[87.7,8583],[87.7,8666],[87.7,8749],[87.7,8833],[87.7,8916],[87.7,8999],[87.7,9083],[87.7,9166],[87.7,9249],[87.7,9333],[87.7,9416],[87.7,9500],[87.7,9583],[87.7,9666],[87.7,9749],[87.7,9833],[87.7,9916],[87.7,9999],[87.7,10083],[87.7,10166],[87.7,10250],[87.7,10333],[87.7,10416],[87.7,10500],[87.7,10583],[87.7,10666],[87.7,10750],[87.7,10833],[87.7,10916],[87.7,10999],[87.7,11083],[87.7,11166],[87.7,11249],[87.7,11333],[87.7,11416],[87.7,11500],[87.7,11583],[87.7,11666],[87.7,11749],[87.7,11833],[87.7,11917],[87.7,12000],[87.7,12083],[87.7,12166],[87.7,12249],[87.7,12333],[87.7,12417],[87.7,12499],[87.7,12583],[87.7,12666],[87.7,12750],[87.7,12833],[87.7,12916],[87.7,13000],[87.7,13083],[87.7,13166],[87.7,13249],[87.7,13333],[87.7,13416],[87.7,13499],[87.7,13583],[87.7,13666],[87.7,13749],[87.7,13833],[87.7,13916],[87.7,13999],[87.7,14083],[87.7,14166],[87.7,14249],[87.7,14333],[87.7,14416],[87.7,14499],[87.7,14583],[87.7,14666],[87.7,14750],[87.7,14833],[87.7,14916],[87.8,14999],[88.1,15083],[88.6,15166],[89.2,15250],[89.5,15334],[89.7,15416],[89.8,15499],[89.8,15583],[89.8,15666],[89.8,15749],[89.8,15833],[89.8,15916],[89.8,16000],[89.8,16083],[89.8,16166],[89.8,16250],[89.8,16333],[89.8,16416],[89.8,16500],[89.8,16583],[89.8,16666],[89.8,16750],[89.8,16833],[89.8,16916],[89.8,17000],[89.8,17083],[89.8,17166],[89.8,17250],[89.8,17333],[89.8,17416],[89.8,17500],[89.8,17583],[89.8,17666],[89.8,17749],[89.8,17833],[89.8,17916],[89.8,18000],[89.8,18083],[89.8,18166],[89.8,18249],[89.8,18333],[89.8,18416],[89.8,18500],[89.8,18583],[89.8,18666],[89.8,18749],[89.8,18833],[89.8,18916],[89.8,19000],[89.8,19083],[89.8,19167],[89.8,19250],[89.8,19333],[89.8,19416],[89.8,19500],[89.8,19583],[89.8,19666],[89.8,19749],[89.8,19833],[89.8,19917],[89.8,19999],[89.8,20083],[89.8,20166],[89.8,20249],[89.8,20333],[89.8,20416],[89.8,20499],[89.8,20583],[89.8,20666],[89.8,20750],[89.8,20833],[89.8,20916],[89.8,21000]]",931.679,933.3951,83.33333333,1.4901,"[{""rating"":83.33333333333333,""responseTime"":1.4901000000238582}]",space,1.1697,,933.3952,Not at all,0,933.399,,,[],,0,16,16,16,1,audio/Narrative8Situation7.wav,audio/Narrative7Situation7.wav,audio/Narrative6Situation7.wav,audio/Narrative5Situation7.wav,3,5,5,4,,,,,,,,,,,,,,,,,,,,,,,,,,,,,,,,,,,,,,,
,,,,,6117efedb574017076d5b499,2025-07-08_00h05.04.195,group3.4_multiperson,2023.2.2,Win32,59.88023952,686c2ebf0248f13bef9af11f,686c989a3248cbbd11664337,,,,,,,,,,,,,,,,,,,,,,,,,,,,,933.3994,2,audio/Narrative5Situation8.wav,936.4118,,936.4118,945.2457,"[[81.1,3417],[80.2,3500],[79.9,3583],[79.9,3667],[79.9,3750],[79.9,3833],[79.9,3916],[79.9,3999],[79.9,4083],[79.9,4166],[79.9,4249],[79.9,4333],[79.9,4416],[79.9,4500],[79.9,4583],[79.9,4666],[79.9,4749],[79.9,4833],[79.9,4916],[79.9,5000],[79.9,5083],[79.9,5166],[79.9,5250],[79.9,5333],[79.9,5416],[79.9,5500],[79.9,5583],[79.9,5666],[79.9,5749],[79.9,5833],[79.9,5916],[79.9,5999],[79.9,6083],[79.9,6166],[79.9,6249],[79.9,6333],[79.9,6416],[79.9,6499],[79.9,6583],[79.9,6666],[79.9,6750],[79.9,6833],[79.9,6916],[79.9,7000],[79.9,7083],[79.9,7166],[79.9,7249],[79.9,7333],[79.9,7416],[79.9,7500],[79.9,7582],[79.9,7666],[79.9,7749],[79.9,7833],[79.9,7916],[79.9,7999],[79.9,8083],[79.9,8166],[79.9,8250],[79.9,8333],[79.9,8416],[79.9,8500],[79.9,8583],[79.9,8667],[79.9,8750],[79.9,8833]]",945.2462,946.4457,69.6875,0.9556,"[{""rating"":69.6875,""responseTime"":0.9556000000238782}]",space,0.6503,,946.4459,Not at all,0,946.4505,,,[],,0,17,17,17,1,audio/Narrative8Situation8.wav,audio/Narrative7Situation8.wav,audio/Narrative6Situation8.wav,audio/Narrative5Situation8.wav,3,2,5,3,,,,,,,,,,,,,,,,,,,,,,,,,,,,,,,,,,,,,,,
,,,,,6117efedb574017076d5b499,2025-07-08_00h05.04.195,group3.4_multiperson,2023.2.2,Win32,59.88023952,686c2ebf0248f13bef9af11f,686c989a3248cbbd11664337,,,,,,,,,,,,,,,,,,,,,,,,,,,,,946.4512,2,audio/Narrative5Situation9.wav,949.4618,,949.4618,988.9954,"[[71.9,1750],[76.1,1833],[80.4,1916],[83,2000],[85.3,2083],[86.5,2166],[88.2,2249],[89.6,2333],[90.3,2416],[91.1,2500],[91.5,2583],[91.6,2666],[91.6,2749],[91.6,2833],[91.6,2916],[91.6,3000],[91.6,3083],[91.6,3166],[91.6,3250],[91.6,3333],[91.6,3416],[91.6,3500],[91.6,3583],[91.6,3666],[91.6,3749],[91.6,3833],[91.6,3916],[91.6,3999],[91.6,4083],[91.6,4166],[91.6,4249],[91.6,4333],[91.6,4417],[91.6,4500],[91.6,4583],[91.6,4666],[91.6,4750],[91.6,4833],[91.6,4916],[91.6,5000],[91.6,5083],[91.6,5166],[91.6,5250],[91.6,5333],[91.6,5416],[91.6,5499],[91.6,5583],[91.6,5666],[91.6,5749],[91.6,5833],[91.6,5916],[91.6,6000],[91.6,6083],[91.6,6166],[91.6,6249],[91.6,6334],[91.6,6416],[91.6,6500],[91.6,6583],[91.6,6666],[91.6,6749],[91.6,6833],[91.6,6917],[91.6,7000],[91.6,7083],[91.6,7166],[91.6,7250],[91.6,7333],[91.6,7416],[91.6,7500],[91.6,7583],[91.6,7666],[91.6,7750],[91.6,7833],[91.6,7916],[91.6,8000],[91.6,8083],[91.6,8166],[91.6,8250],[91.6,8333],[91.6,8416],[91.6,8499],[91.6,8583],[91.6,8666],[91.6,8750],[91.6,8833],[91.6,8917],[91.6,9000],[91.6,9083],[91.6,9166],[91.6,9250],[91.6,9333],[91.6,9416],[91.6,9499],[91.6,9583],[91.6,9666],[91.6,9750],[91.6,9833],[91.6,9916],[91.6,10000],[91.6,10083],[91.6,10166],[91.6,10249],[91.6,10333],[91.6,10416],[91.6,10500],[91.6,10583],[90.7,10666],[90.3,10750],[90.3,10833],[90.2,10916],[89.9,11000],[89.8,11083],[89.8,11166],[89.8,11250],[89.8,11333],[89.8,11416],[89.8,11499],[89.8,11583],[89.8,11666],[89.8,11749],[89.8,11833],[89.8,11916],[89.8,12000],[89.8,12083],[89.8,12166],[89.8,12250],[89.8,12333],[89.8,12416],[89.8,12499],[89.8,12583],[89.8,12666],[89.8,12750],[89.8,12833],[89.8,12917],[89.8,12999],[89.8,13083],[89.8,13166],[89.8,13249],[89.8,13333],[89.8,13416],[89.8,13499],[89.8,13583],[89.8,13667],[89.8,13750],[89.8,13833],[89.8,13917],[89.8,14000],[89.8,14083],[89.8,14167],[89.8,14250],[89.8,14333],[89.8,14416],[89.8,14499],[89.8,14583],[89.8,14666],[89.8,14750],[89.8,14833],[89.8,14916],[89.8,15000],[89.8,15083],[89.8,15166],[89.8,15249],[89.8,15333],[89.8,15416],[89.8,15500],[89.8,15583],[89.8,15666],[89.8,15750],[89.8,15833],[89.8,15916],[89.8,16000],[89.8,16083],[89.8,16166],[89.8,16249],[89.8,16333],[89.8,16416],[89.8,16500],[89.8,16583],[89.8,16666],[89.8,16749],[89.8,16833],[89.8,16916],[89.8,16999],[89.8,17083],[89.8,17166],[89.8,17250],[89.8,17333],[89.8,17416],[89.8,17500],[89.8,17583],[89.8,17666],[89.8,17749],[89.8,17833],[89.8,17916],[89.8,17999],[89.8,18083],[89.8,18166],[89.8,18250],[89.8,18333],[89.8,18416],[89.8,18500],[89.8,18583],[89.8,18666],[89.8,18750],[89.8,18833],[89.8,18917],[89.8,19000],[89.8,19083],[89.8,19166],[89.8,19250],[89.8,19333],[89.8,19416],[89.8,19500],[89.8,19583],[89.8,19666],[89.8,19750],[89.8,19833],[89.8,19916],[89.8,20000],[89.8,20083],[89.8,20166],[89.8,20250],[89.8,20333],[89.8,20416],[89.8,20500],[89.8,20583],[89.8,20666],[89.8,20750],[89.8,20833],[89.8,20916],[89.8,21000],[89.8,21083],[89.8,21166],[89.8,21250],[89.8,21333],[89.8,21416],[89.8,21500],[89.8,21583],[89.8,21666],[89.8,21750],[89.8,21833],[89.8,21916],[89.8,21999],[89.8,22083],[89.8,22166],[89.8,22249],[89.8,22333],[89.8,22416],[89.8,22500],[89.8,22583],[89.8,22666],[89.8,22750],[89.8,22833],[89.8,22917],[89.8,23000],[89.8,23083],[89.8,23166],[89.8,23250],[89.8,23333],[89.8,23417],[89.8,23500],[89.8,23583],[89.8,23666],[89.8,23750],[89.8,23833],[89.8,23916],[89.8,23999],[89.8,24083],[89.8,24166],[89.8,24249],[89.8,24333],[89.8,24416],[89.8,24499],[89.8,24583],[89.8,24666],[89.8,24749],[89.8,24833],[89.8,24916],[89.8,25000],[89.8,25083],[89.8,25166],[89.8,25250],[89.8,25333],[89.8,25416],[89.8,25500],[89.8,25583],[89.8,25666],[89.8,25750],[89.8,25833],[89.8,25916],[89.8,26000],[89.8,26083],[89.8,26166],[89.8,26250],[89.8,26333],[89.8,26416],[89.8,26500],[89.8,26583],[89.8,26666],[89.8,26750],[89.8,26833],[89.8,26916],[89.8,26999],[89.8,27083],[89.8,27166],[89.8,27249],[89.8,27333],[89.8,27416],[89.8,27499],[89.8,27583],[89.8,27666],[89.8,27750],[89.8,27833],[89.8,27916],[89.8,27999],[89.8,28083],[89.8,28166],[89.8,28249],[89.8,28333],[89.8,28416],[89.8,28499],[89.8,28583],[89.8,28666],[89.8,28750],[89.8,28833],[89.8,28916],[89.8,29000],[89.8,29083],[89.8,29166],[89.8,29250],[89.8,29333],[89.8,29416],[89.8,29499],[89.8,29583],[89.8,29666],[89.8,29749],[89.8,29833],[89.8,29916],[89.8,29999],[89.8,30083],[89.8,30166],[89.8,30250],[89.8,30333],[89.8,30416],[89.8,30500],[89.8,30583],[89.8,30666],[89.8,30750],[89.8,30833],[89.8,30916],[89.8,31000],[89.8,31083],[89.8,31166],[89.8,31250],[89.8,31333],[89.8,31416],[89.8,31500],[89.8,31583],[89.8,31666],[89.8,31749],[89.8,31833],[89.8,31916],[89.8,32000],[89.8,32083],[89.8,32166],[89.8,32250],[89.8,32333],[89.8,32416],[89.8,32500],[89.8,32583],[89.8,32666],[89.8,32750],[89.8,32833],[89.8,32917],[89.8,33000],[89.8,33083],[89.8,33166],[89.8,33250],[89.8,33333],[89.8,33416],[89.8,33500],[89.8,33583],[89.8,33666],[89.8,33750],[89.8,33833],[89.8,33916],[89.8,34000],[89.8,34083],[89.8,34166],[89.8,34250],[89.8,34333],[89.8,34416],[89.8,34500],[89.8,34583],[89.8,34666],[89.8,34750],[89.8,34833],[89.8,34916],[89.8,35000],[89.8,35083],[89.8,35166],[89.8,35249],[89.8,35333],[89.8,35416],[89.8,35500],[89.8,35583],[89.8,35667],[89.8,35750],[89.8,35833],[89.8,35916],[89.8,36000],[89.8,36083],[89.8,36166],[89.8,36249],[89.8,36333],[89.8,36416],[89.8,36499],[89.8,36583],[89.8,36667],[89.8,36750],[89.8,36833],[89.8,36916],[89.8,37000],[89.8,37083],[89.8,37166],[89.8,37250],[89.8,37333],[89.8,37416],[89.8,37500],[89.8,37583],[89.8,37666],[89.8,37750],[89.8,37833],[89.8,37916],[89.8,37999],[89.8,38083],[89.8,38166],[89.8,38249],[89.8,38333],[89.8,38416],[89.8,38499],[89.8,38583],[89.8,38666],[89.8,38750],[89.8,38833],[89.8,38916],[89.8,38999],[89.8,39083],[89.8,39166],[89.8,39249],[89.8,39333],[89.8,39416],[89.8,39500]]",988.9959,991.0952,81.45833333,1.4378,"[{""rating"":81.45833333333333,""responseTime"":1.4377999999524036}]",space,1.5574,,991.0952,Definitely yes,100,996.012,100,2.0358,"[{""rating"":100,""responseTime"":2.03579999995236}]",space,0,18,18,18,1,audio/Narrative8Situation9.wav,audio/Narrative7Situation9.wav,audio/Narrative6Situation9.wav,audio/Narrative5Situation9.wav,3,2,4,3,,,4.377,,,,,,,,,,,,,,,,,,,,,,,,,,,,,,,,,,,,
,,,,,6117efedb574017076d5b499,2025-07-08_00h05.04.195,group3.4_multiperson,2023.2.2,Win32,59.88023952,686c2ebf0248f13bef9af11f,686c989a3248cbbd11664337,,,,,,,,,,,,,,,,,,,,,,,,,,,,,,,,,,,,,,,,,,,,,,,,,,,,,,,,,,,,,,,,,,,,,,996.0125,997.7785,space,1.2374,,997.7788,1011.0124,space,12.9084,,,,,,,,,,,,,,,,,,,,,,,,,,
