consent.started,consent.stopped,consentResponse.keys,consentResponse.rt,consentResponse.duration,participantID,date,expName,psychopyVersion,OS,frameRate,STUDY_ID,SESSION_ID,opening1.started,opening1.stopped,keyEndingOpening1.keys,keyEndingOpening1.rt,keyEndingOpening1.duration,volumeAdjust.started,volumeAdjust.stopped,endingAdjust.keys,endingAdjust.rt,endingAdjust.duration,opening2.started,opening2.stopped,keyEndingOpening.keys,keyEndingOpening.rt,keyEndingOpening.duration,mouse.x,mouse.y,mouse.leftButton,mouse.midButton,mouse.rightButton,mouse.time,instructionLoop.thisRepN,instructionLoop.thisTrialN,instructionLoop.thisN,instructionLoop.thisIndex,instructionLoop.ran,readyForAudio.started,readyForAudio.stopped,fixation.started,run,audio_played,fixation.stopped,endPractice.keys,audioPre.started,audioPre.stopped,continuousResponses_audio,intRating.started,intRating.stopped,intQuestionSlider.response,intQuestionSlider.rt,intQuestionSlider.history,confirmResponse.keys,confirmResponse.rt,confirmResponse.duration,catchQuestion.started,catch_label,catch_value,catchQuestion.stopped,catchQuestionSlider.response,catchQuestionSlider.rt,catchQuestionSlider.history,confirmResponse_2.keys,audioRunLoop.thisRepN,audioRunLoop.thisTrialN,audioRunLoop.thisN,audioRunLoop.thisIndex,audioRunLoop.ran,conditions1_1,conditions2_1,conditions1_2,conditions2_2,dur1_1,dur2_1,dur1_2,dur2_2,endPractice.rt,endPractice.duration,confirmResponse_2.rt,confirmResponse_2.duration,runIntervalBreak.started,runIntervalBreak.stopped,endingBreakKey.keys,endingBreakKey.rt,endingBreakKey.duration,connection.started,connection.stopped,connectionEnding.keys,connectionEnding.rt,connectionEnding.duration,readyForText.started,readyForText.stopped,textPre.started,run_dup,textPre.stopped,continuousResponses_text,textRunLoop.thisRepN,textRunLoop.thisTrialN,textRunLoop.thisN,textRunLoop.thisIndex,textRunLoop.ran,text1_1,text1_2,text2_1,text2_2,runBreakText.started,runBreakText.stopped,endingBreakKey_2.keys,ending.started,ending.stopped,endingEnding.keys,endingEnding.rt,endingEnding.duration
0.0006,24.9094,y,24.5884,,6128fd492700069e594016c9,2025-07-07_23h22.48.925,group3.4_multiperson,2023.2.2,Win32,59.88023952,686c2ebf0248f13bef9af11f,686c8e91677ea7c34f42c62f,,,,,,,,,,,,,,,,,,,,,,,,,,,,,,,,,,,,,,,,,,,,,,,,,,,,,,,,,,,,,,,,,,,,,,,,,,,,,,,,,,,,,,,,,,,,,,,,,,,,,,
,,,,,6128fd492700069e594016c9,2025-07-07_23h22.48.925,group3.4_multiperson,2023.2.2,Win32,59.88023952,686c2ebf0248f13bef9af11f,686c8e91677ea7c34f42c62f,24.9097,40.3349,space,15.3798,,,,,,,,,,,,,,,,,,,,,,,,,,,,,,,,,,,,,,,,,,,,,,,,,,,,,,,,,,,,,,,,,,,,,,,,,,,,,,,,,,,,,,,,,,,,,,,,,,
,,,,,6128fd492700069e594016c9,2025-07-07_23h22.48.925,group3.4_multiperson,2023.2.2,Win32,59.88023952,686c2ebf0248f13bef9af11f,686c8e91677ea7c34f42c62f,,,,,,40.3352,80.8264,space,40.1636,,,,,,,,,,,,,,,,,,,,,,,,,,,,,,,,,,,,,,,,,,,,,,,,,,,,,,,,,,,,,,,,,,,,,,,,,,,,,,,,,,,,,,,,,,,,,
,,,,,6128fd492700069e594016c9,2025-07-07_23h22.48.925,group3.4_multiperson,2023.2.2,Win32,59.88023952,686c2ebf0248f13bef9af11f,686c8e91677ea7c34f42c62f,,,,,,,,,,,80.837,107.3086,space,26.4395,,[],[],[],[],[],[],0,0,0,0,1,,,,,,,,,,,,,,,,,,,,,,,,,,,,,,,,,,,,,,,,,,,,,,,,,,,,,,,,,,,,,,,,,,,,,,,,,,,,
,,,,,6128fd492700069e594016c9,2025-07-07_23h22.48.925,group3.4_multiperson,2023.2.2,Win32,59.88023952,686c2ebf0248f13bef9af11f,686c8e91677ea7c34f42c62f,,,,,,,,,,,107.3101,241.9178,space,134.4976,,[],[],[],[],[],[],1,0,1,0,1,,,,,,,,,,,,,,,,,,,,,,,,,,,,,,,,,,,,,,,,,,,,,,,,,,,,,,,,,,,,,,,,,,,,,,,,,,,,
,,,,,6128fd492700069e594016c9,2025-07-07_23h22.48.925,group3.4_multiperson,2023.2.2,Win32,59.88023952,686c2ebf0248f13bef9af11f,686c8e91677ea7c34f42c62f,,,,,,,,,,,241.9189,329.9127,space,87.9407,,[],[],[],[],[],[],2,0,2,0,1,,,,,,,,,,,,,,,,,,,,,,,,,,,,,,,,,,,,,,,,,,,,,,,,,,,,,,,,,,,,,,,,,,,,,,,,,,,,
,,,,,6128fd492700069e594016c9,2025-07-07_23h22.48.925,group3.4_multiperson,2023.2.2,Win32,59.88023952,686c2ebf0248f13bef9af11f,686c8e91677ea7c34f42c62f,,,,,,,,,,,329.9134,503.7884,space,173.8462,,[],[],[],[],[],[],3,0,3,0,1,,,,,,,,,,,,,,,,,,,,,,,,,,,,,,,,,,,,,,,,,,,,,,,,,,,,,,,,,,,,,,,,,,,,,,,,,,,,
,,,,,6128fd492700069e594016c9,2025-07-07_23h22.48.925,group3.4_multiperson,2023.2.2,Win32,59.88023952,686c2ebf0248f13bef9af11f,686c8e91677ea7c34f42c62f,,,,,,,,,,,503.7889,533.2558,space,29.4412,,[],[],[],[],[],[],4,0,4,0,1,,,,,,,,,,,,,,,,,,,,,,,,,,,,,,,,,,,,,,,,,,,,,,,,,,,,,,,,,,,,,,,,,,,,,,,,,,,,
,,,,,6128fd492700069e594016c9,2025-07-07_23h22.48.925,group3.4_multiperson,2023.2.2,Win32,59.88023952,686c2ebf0248f13bef9af11f,686c8e91677ea7c34f42c62f,,,,,,,,,,,533.2569,563.1815,space,29.9021,,[],[],[],[],[],[],5,0,5,0,1,,,,,,,,,,,,,,,,,,,,,,,,,,,,,,,,,,,,,,,,,,,,,,,,,,,,,,,,,,,,,,,,,,,,,,,,,,,,
,,,,,6128fd492700069e594016c9,2025-07-07_23h22.48.925,group3.4_multiperson,2023.2.2,Win32,59.88023952,686c2ebf0248f13bef9af11f,686c8e91677ea7c34f42c62f,,,,,,,,,,,,,,,,,,,,,,,,,,,563.1872,565.7671,565.7961,1,audio/Narrative13Situation2.wav,567.8008,,567.8011,597.5544,"[[999,3],[999,142],[999,225],[999,310],[999,392],[999,476],[999,560],[999,634],[999,727],[999,810],[999,893],[14.9,977],[12.7,1061],[13.6,1144],[14.2,1226],[14.5,1301],[15.6,1393],[16,1468],[16.4,1560],[23.5,1644],[36.9,1728],[48.2,1811],[52.7,1894],[54.2,1977],[56.7,2060],[56.8,2142],[57.2,2227],[57.5,2298],[57.5,2392],[57.7,2469],[57.7,2552],[58.1,2644],[58.5,2726],[58.9,2803],[59.7,2893],[59.7,2977],[59.7,3060],[59.7,3143],[59.7,3216],[59.7,3310],[59.7,3388],[59.7,3472],[59.7,3561],[59.7,3635],[59.7,3718],[59.7,3799],[59.7,3885],[59.7,3976],[59.9,4060],[60.5,4138],[61.1,4229],[63.8,4312],[66.7,4396],[67,4478],[67.1,4558],[67.1,4635],[68.4,4728],[70,4812],[70.7,4895],[70.9,4966],[70.9,5052],[71.1,5145],[72.5,5228],[73.5,5311],[73.5,5394],[73.5,5469],[73.5,5561],[73.5,5644],[73.5,5718],[73.5,5811],[73.5,5888],[73.5,5978],[73.5,6056],[73.5,6136],[73.5,6228],[73.5,6308],[73.5,6394],[73.5,6472],[73.5,6555],[73.5,6646],[73.5,6723],[73.5,6802],[73.5,6885],[73.5,6967],[73.5,7053],[73.5,7133],[73.5,7218],[73.5,7311],[73.5,7387],[73.5,7469],[73.5,7555],[73.5,7636],[73.5,7728],[73.5,7805],[73.5,7885],[73.5,7977],[73.5,8053],[73.5,8144],[73.5,8217],[73.5,8303],[73.5,8394],[73.5,8467],[73.5,8561],[73.5,8634],[73.6,8722],[73.6,8811],[74.4,8896],[74.4,8967],[74.5,9062],[74.9,9145],[74.9,9220],[75.2,9312],[75.2,9390],[75.2,9468],[75.2,9562],[75.2,9638],[75.2,9728],[75.2,9801],[75.2,9884],[75.2,9973],[75.2,10056],[75.2,10138],[75.2,10229],[75.2,10303],[75.2,10395],[75.2,10468],[75.2,10554],[75.2,10645],[75.2,10718],[75.2,10801],[75.2,10895],[75.2,10971],[75.2,11062],[75.2,11145],[75.2,11218],[75.2,11312],[75.4,11396],[75.4,11479],[75.4,11552],[75.6,11646],[75.7,11728],[76.4,11813],[76.4,11896],[76.5,11973],[76.6,12054],[76.6,12145],[76.6,12229],[76.6,12304],[76.6,12396],[76.6,12470],[76.6,12557],[76.6,12635],[76.6,12718],[76.6,12812],[76.6,12889],[76.6,12973],[76.6,13063],[76.6,13145],[77,13230],[77.4,13313],[77.7,13389],[77.7,13469],[77.7,13563],[77.7,13638],[77.7,13729],[77.7,13812],[77.7,13888],[77.7,13970],[77.7,14054],[77.7,14147],[77.7,14229],[77.7,14305],[77.7,14397],[77.7,14470],[77.7,14556],[77.7,14646],[77.7,14722],[77.7,14805],[77.7,14897],[77.7,14971],[77.7,15062],[77.8,15147],[78.1,15230],[78.3,15314],[78.6,15391],[78.9,15472],[78.9,15564],[78.9,15638],[78.9,15730],[78.9,15808],[78.9,15897],[78.9,15980],[78.9,16064],[79,16148],[79,16230],[79,16303],[79,16387],[79,16475],[79,16555],[79.1,16648],[79.2,16720],[79.4,16805],[79.4,16897],[79.5,16980],[79.9,17065],[80.6,17149],[81.5,17232],[81.8,17314],[81.8,17388],[81.8,17472],[81.8,17554],[81.8,17637],[81.8,17721],[81.8,17814],[81.8,17891],[81.8,17980],[81.8,18053],[81.8,18139],[81.8,18231],[81.8,18303],[81.8,18397],[81.8,18481],[81.8,18554],[81.8,18648],[81.8,18726],[81.8,18806],[81.8,18898],[81.8,18971],[81.8,19055],[81.8,19148],[81.8,19221],[81.8,19306],[81.8,19387],[81.8,19471],[81.8,19565],[83,19649],[84.3,19733],[84.8,19815],[84.8,19891],[84.8,19973],[84.9,20065],[84.9,20140],[85.2,20231],[100,20316],[100,20399],[100,20482],[100,20565],[100,20639],[100,20733],[100,20816],[100,20891],[100,20982],[100,21059],[100,21148],[100,21233],[100,21316],[100,21399],[100,21483],[100,21566],[100,21649],[100,21732],[100,21815],[100,21899],[100,21982],[100,22066],[100,22149],[100,22233],[100,22316],[100,22399],[100,22483],[81.8,23317],[95.1,23417],[98.2,23501],[99.5,23583],[99.5,23658],[99.5,23749],[99.5,23822],[99.5,23917],[99.5,23989],[99.2,24084],[99.1,24158],[99.1,24249],[99.1,24325],[99.1,24408],[97.6,24502],[97.3,24572],[97.2,24667],[97.2,24743],[97.2,24822],[97.5,24919],[98,25001],[98.8,25084],[99.3,25158],[99.3,25239],[99.3,25322],[99.3,25408],[99.3,25489],[99.3,25575],[99.3,25667],[99.3,25742],[99.3,25833],[98.3,25919],[75.5,28752],[49.7,29170],[21.7,29252],[6.6,29336],[5.6,29407],[5.6,29495],[7.9,29586],[21.3,29669],[41.4,29752]]",597.5548,622.2782,100,9.3715,"[{""rating"":98.02083333333333,""responseTime"":8.586200000003032},{""rating"":100,""responseTime"":9.371500000000083}]",space,24.1616,,622.2785,Definitely yes,100,622.2854,,,[],,0,0,0,0,1,audio/Narrative13Situation2.wav,audio/Narrative13Situation2.wav,audio/Narrative13Situation2.wav,audio/Narrative13Situation2.wav,2,2,2,2,,,,,,,,,,,,,,,,,,,,,,,,,,,,,,,,,,,,,
,,,,,6128fd492700069e594016c9,2025-07-07_23h22.48.925,group3.4_multiperson,2023.2.2,Win32,59.88023952,686c2ebf0248f13bef9af11f,686c8e91677ea7c34f42c62f,,,,,,,,,,,,,,,,,,,,,,,,,,,,,622.2868,1,audio/Narrative8Situation1.wav,629.7521,space,629.7522,645.7017,"[[64.4,1184],[64.8,1267],[64.7,1350],[64.4,1433],[63.5,1518],[62.2,1603],[62.2,1683],[62.2,1767],[61.9,1850],[60.8,1934],[59.3,2017],[51.3,2351],[50.4,2434],[50.4,2516],[50.3,2601],[50.5,2683],[50.5,2767],[50.8,2852],[50.8,2955],[50.8,3036],[50.8,3128],[50.8,3200],[50.8,3284],[51,3378],[51,3451],[51,3534],[51.3,3628],[51.3,3703],[51.3,3795],[51.8,3880],[51.8,3962],[51.8,4035],[51.8,4122],[51.8,4203],[51.8,4289],[51.8,4371],[51.8,4463],[51.8,4536],[51.8,4618],[51.8,4701],[51.8,4785],[52.1,4880],[53,4966],[53.6,5046],[54.5,5129],[55.2,5204],[56,5296],[57.7,5380],[62.1,5464],[64,5547],[64.9,5622],[64.9,5702],[64.9,5795],[64.9,5870],[64.9,5962],[64.9,6046],[64.9,6122],[64.9,6203],[64.9,6285],[64.9,6370],[64.9,6463],[64.4,6547],[61.8,6631],[61.1,6714],[47.3,6797],[28.9,6881],[15.3,6965],[12.9,7047],[12,7129],[12,7202],[12,7288],[12,7368],[12,7452],[12,7546],[12,7629],[12,7706],[12,7796],[12,7869],[10.6,7966],[9.9,8048],[8.5,8131],[7.9,8214],[7.3,8296],[7.3,8369],[4.8,8465],[2.2,8546],[2.2,8621],[2.2,8707],[2.2,8786],[1.5,8881],[0.1,8967],[0.1,9380],[0.1,9453],[0.1,9546],[0.1,9619],[0.1,9705],[0.1,9796],[0.1,9869],[0.1,9953],[0.1,10037],[0.1,10130],[0.1,10213],[0.1,10286],[0.1,10369],[0.1,10464],[0.4,10540],[8.9,10632],[29.5,10715],[46.9,10798],[55.9,10881],[66.8,10967],[85.1,11048],[85.3,11120],[85.3,11205],[85.3,11296],[85.3,11370],[85.3,11463],[85.3,11542],[85.5,11631],[85.5,11705],[85.5,11797],[85.5,11873],[85.5,11965],[85.5,12037],[85.5,12123],[85.5,12203],[85.5,12289],[85.4,12373],[85.4,12453],[85.4,12537],[85.4,12631],[85.4,12706],[85.4,12792],[85.4,12881],[85.4,12956],[85.4,13037],[85.4,13130],[85.4,13204],[85.9,13299],[88.2,13374],[88.2,13456],[88.2,13548],[88.2,13622],[90.2,13715],[89.3,13799],[88.4,13883],[87.2,13966],[84,14049],[80.6,14133],[80.3,14214],[80.3,14291],[80.3,14380],[80.3,14459],[80.3,14537],[81,14633],[83,14716],[84.7,14800],[86.6,14883],[90.2,14968],[91.7,15049],[93.5,15133],[97.4,15217],[98.5,15290],[98.5,15382],[98.5,15456],[98.5,15548],[98.5,15631],[98.5,15709],[98.5,15798],[98.5,15882]]",645.7019,661.6622,91.77083333,4.7186,"[{""rating"":91.77083333333333,""responseTime"":4.718600000008905}]",space,15.4207,,661.6623,Definitely yes,100,661.6678,,,[],,0,1,1,1,1,audio/Narrative7Situation1.wav,audio/Narrative8Situation1.wav,audio/Narrative5Situation1.wav,audio/Narrative6Situation1.wav,2,5,5,2,7.4462,,,,,,,,,,,,,,,,,,,,,,,,,,,,,,,,,,,,
,,,,,6128fd492700069e594016c9,2025-07-07_23h22.48.925,group3.4_multiperson,2023.2.2,Win32,59.88023952,686c2ebf0248f13bef9af11f,686c8e91677ea7c34f42c62f,,,,,,,,,,,,,,,,,,,,,,,,,,,,,661.6681,1,audio/Narrative8Situation2.wav,664.6797,,664.6797,674.8104,"[[999,0],[999,101],[999,194],[999,270],[999,350],[999,444],[999,528],[999,611],[999,695],[999,778],[999,861],[57.2,933],[57.2,1019],[57.2,1110],[57.2,1183],[57.2,1269],[57.2,1350],[57.9,1446],[60.5,1529],[65.3,1612],[75.8,1696],[77,1779],[78.2,1862],[80.3,1946],[89,2029],[89.8,2112],[90.2,2188],[90.6,2278],[90.7,2361],[90.9,2434],[91.1,2521],[91.1,2602],[91.1,2694],[91.1,2767],[91.1,2861],[91.1,2934],[91.1,3019],[91.1,3103],[91.1,3184],[91.1,3270],[91.1,3351],[91.1,3434],[91.1,3527],[91.1,3601],[91.1,3684],[91.1,3767],[91.1,3851],[91.1,3936],[91.1,4018],[91.1,4112],[91.1,4186],[91.1,4267],[91.1,4352],[91.1,4437],[91.1,4528],[91.1,4601],[91.1,4685],[91.1,4772],[91.1,4856],[91.1,4935],[91.1,5022],[91.1,5105],[91.1,5189],[91.1,5279],[91.1,5351],[91.1,5437],[91.1,5529],[91.1,5608],[91.1,5687],[91.1,5779],[91.1,5855],[91.1,5945],[91.1,6029],[91.1,6104],[91.1,6197],[91.1,6273],[91.1,6363],[91.1,6446],[91.1,6529],[91.1,6601],[91.1,6690],[91.1,6770],[91.1,6861],[91.1,6935],[91.1,7019],[91.1,7113],[91.1,7187],[91.1,7279],[91.1,7352],[91.1,7436],[91.1,7519],[91.1,7602],[91.1,7687],[91.1,7769],[91.1,7852],[91.1,7938],[91.1,8024],[91.1,8104],[91.1,8196],[91.1,8269],[91.1,8352],[91.1,8446],[91.1,8523],[91.1,8607],[91.1,8686],[91.1,8770],[91.1,8852],[91.1,8942],[91.1,9021],[91.1,9113],[91.1,9191],[91.1,9270],[91.1,9359],[91.1,9446],[91.1,9519],[91.1,9605],[91.1,9686],[91.1,9780],[91.1,9853],[91.1,9939],[91.1,10030],[91.1,10103]]",674.8107,688.7042,0,6.4698,"[{""rating"":1.4583333333333337,""responseTime"":5.719800000012015},{""rating"":0,""responseTime"":6.469800000012015}]",space,13.355,,688.7042,Definitely yes,100,688.7101,,,[],,0,2,2,2,1,audio/Narrative7Situation2.wav,audio/Narrative8Situation2.wav,audio/Narrative5Situation2.wav,audio/Narrative6Situation2.wav,3,3,3,3,,,,,,,,,,,,,,,,,,,,,,,,,,,,,,,,,,,,,
,,,,,6128fd492700069e594016c9,2025-07-07_23h22.48.925,group3.4_multiperson,2023.2.2,Win32,59.88023952,686c2ebf0248f13bef9af11f,686c8e91677ea7c34f42c62f,,,,,,,,,,,,,,,,,,,,,,,,,,,,,688.7106,1,audio/Narrative8Situation3.wav,692.7218,,692.7219,715.1179,"[[999,0],[999,100],[999,183],[999,278],[999,362],[999,445],[32.1,530],[23.3,612],[11.5,695],[2.7,779],[0.3,1612],[1.4,1695],[1.7,1777],[1.7,1861],[1.7,1944],[1.7,2028],[1.7,2103],[1.7,2194],[1.7,2277],[1.7,2352],[1.6,2434],[1.6,2519],[1.6,2611],[1.6,2684],[1.6,2767],[1.6,2861],[1.6,2934],[1.6,3028],[1.6,3111],[1.6,3184],[1.6,3277],[1.6,3350],[1.6,3436],[1.6,3528],[1.6,3600],[1.6,3687],[1.6,3778],[1.6,3853],[1.6,3936],[1.6,4017],[1.6,4103],[1.6,4194],[1.6,4278],[1.6,4353],[1.6,4436],[1.6,4518],[1.6,4611],[1.6,4684],[1.6,4770],[1.6,4852],[1.6,4937],[1.6,5023],[1.6,5106],[1.6,5190],[1.6,5271],[1.6,5363],[1.6,5438],[1.6,5518],[1.6,5601],[1.6,5687],[1.6,5778],[1.6,5853],[1.6,5941],[1.6,6018],[1.6,6102],[1.6,6195],[1.6,6279],[1.6,6362],[1.6,6435],[1.6,6521],[1.6,6612],[1.6,6691],[1.6,6773],[1.6,6854],[2,6947],[2,7029],[2.1,7106],[2.1,7187],[2.2,7271],[2.3,7356],[20.2,7447],[23.9,7529],[23.9,7604],[23.9,7685],[23.9,7770],[23.9,7863],[24.2,7945],[24.2,8021],[24.4,8113],[24.7,8197],[24.7,8271],[24.7,8363],[24.8,8439],[24.8,8521],[24.8,8607],[25,8694],[26.3,8783],[32.5,8864],[50.7,8947],[65.6,9032],[78.8,9114],[88.4,9198],[90.6,9281],[91.3,9364],[94.2,9447],[95.2,9532],[99,9614],[100,9698],[100,9772],[100,9858],[100,9944],[100,10032],[100,10113],[100,10186],[100,10272],[100,10362],[100,10447],[100,10521],[100,10614],[100,10698],[99.1,10782],[97.9,10865],[95,10948],[94.6,11032],[94.8,11114],[96.4,11199],[97.5,11282],[98.9,11356],[99,11448],[99.2,11531],[99.2,11614],[99.2,11687],[99.2,11781],[99.2,11855],[99.2,11938],[99.3,12025],[99.3,12113],[99.3,12187],[99.3,12281],[99,12366],[98.2,12449],[98.2,12530],[98.2,12603],[98.2,12688],[98.2,12770],[98.2,12853],[98.2,12937],[98.2,13031],[98.2,13106],[98.2,13197],[98.2,13280],[98.2,13356],[98.2,13447],[98.2,13521],[98.2,13604],[98.2,13697],[98.2,13781],[98.1,13865],[97.8,13949],[97.6,14020],[97.6,14112],[97.6,14187],[97.6,14281],[97.6,14354],[97.6,14437],[97.5,14533],[96.4,14616],[91.7,14699],[89.3,14783],[86.7,14866],[86.6,14948],[86.6,15031],[86.6,15107],[86.6,15198],[86.6,15271],[86.6,15357],[86.6,15447],[86.6,15521],[86.6,15615],[86.6,15689],[86.5,15771],[85.6,15867],[85.1,15949],[85.1,16026],[85.1,16116],[85.1,16194],[85.1,16283],[85.1,16365],[85.1,16450],[85.1,16533],[85.1,16610],[85.1,16691],[85.1,16784],[85.1,16855],[85.1,16939],[85.1,17025],[85.1,17105],[83.8,17192],[83.8,17282],[83.8,17359],[83.8,17439],[83.8,17532],[83.1,17617],[82.7,17700],[82.2,17784],[81.7,17858],[81.7,17938],[81,18035],[80.3,18116],[80.3,18189],[80.3,18273],[79.5,18367],[79,18451],[77.4,18535],[76.6,18617],[76.6,18691],[76.6,18782],[76.4,18866],[76.4,18939],[76.4,19029],[76.4,19109],[76.4,19191],[76.8,19284],[76.8,19355],[76.8,19450],[76.8,19533],[76.6,19618],[76,19693],[76,19773],[75.9,19857],[75.9,19950],[75.9,20025],[75.9,20106],[75.9,20200],[75.9,20273],[75.9,20361],[75.9,20440],[68,20536],[46.3,20618],[39.9,20702],[36.9,20784],[34,20868],[14.6,20952],[13.2,21026],[13.2,21117],[13.2,21189],[13.2,21283],[13.2,21367],[13.2,21440],[13.2,21523],[13.2,21609],[13.2,21690],[13.4,21784],[13.4,21859],[13.4,21950],[13.4,22026],[13.4,22117],[13.4,22200],[13.4,22284],[13.4,22362]]",715.1181,721.4095,0.520833333,5.1411,"[{""rating"":0.5208333333333315,""responseTime"":5.141100000008919}]",space,5.7518,,721.4097,Partially,50,721.4194,,,[],,0,3,3,3,1,audio/Narrative7Situation3.wav,audio/Narrative8Situation3.wav,audio/Narrative5Situation3.wav,audio/Narrative6Situation3.wav,8,4,3,5,,,,,,,,,,,,,,,,,,,,,,,,,,,,,,,,,,,,,
,,,,,6128fd492700069e594016c9,2025-07-07_23h22.48.925,group3.4_multiperson,2023.2.2,Win32,59.88023952,686c2ebf0248f13bef9af11f,686c8e91677ea7c34f42c62f,,,,,,,,,,,,,,,,,,,,,,,,,,,,,721.4197,1,audio/Narrative8Situation4.wav,724.4271,,724.4271,738.6031,"[[999,0],[999,104],[999,187],[999,271],[999,355],[43.1,438],[45.4,521],[47.6,605],[49.2,688],[50.1,772],[60.3,855],[65.3,938],[67.7,1022],[68.5,1105],[72,1189],[74,1272],[75.7,1355],[77.4,1438],[77.6,1521],[77.8,1604],[77.8,1688],[77.9,1771],[79.8,1855],[82.2,1939],[82.2,2021],[82.3,2104],[83,2189],[83.8,2272],[83.8,2355],[83.9,2438],[85,2522],[85.4,2605],[85.9,2688],[86.6,2772],[87.3,2856],[87.6,2939],[89,3022],[89.1,3105],[89.1,3188],[89.1,3271],[89.1,3355],[89.1,3438],[89.1,3522],[89.1,3605],[89.8,3688],[90,3773],[92.6,3856],[94.3,3939],[94.9,4022],[99.5,4106],[100,4189],[100,4272],[100,4355],[100,4439],[100,4522],[100,4605],[100,4689],[100,4772],[100,4855],[100,4939],[100,5022],[100,5105],[98.8,5190],[91.6,5273],[85.1,5357],[79.2,5440],[74.5,5523],[72,5606],[70.6,5690],[70.4,5773],[66.7,5856],[66.7,5939],[66.7,6023],[66.7,6106],[66.7,6189],[66.6,6273],[66.5,6357],[66.4,6439],[66.4,6522],[66.4,6606],[66.3,6689],[66,6773],[66,6856],[66,6939],[66,7023],[66,7106],[66,7189],[66,7273],[66,7357],[66,7439],[65.9,7523],[65.9,7606],[65.9,7690],[65.5,7773],[62.7,7857],[56.4,7941],[41,8024],[30,8108],[20,8190],[10.5,8274],[6,8357],[5.6,8441],[5.6,8523],[5.3,8607],[4.9,8691],[4,8774],[4,8857],[4,8940],[4,9023],[3.8,9107],[3.4,9190],[2.9,9274],[2.3,9357],[2.3,9440],[2.3,9523],[2.3,9607],[2.1,9691],[1.9,9775],[1.9,9857],[1.7,9941],[1.5,10024],[1.3,10107],[1.3,10190],[1.3,10274],[1.3,10357],[1.3,10440],[1.3,10524],[1.3,10607],[1.3,10690],[1.3,10774],[1.3,10857],[1.3,10941],[1.3,11024],[1.3,11107],[1.3,11191],[1.3,11274],[1.3,11357],[1.3,11441],[1.3,11524],[1.3,11607],[1.3,11691],[1.3,11774],[1.3,11858],[1.7,11941],[22.8,12025],[64.1,12109],[91.4,12192],[100,12275],[100,12359],[100,12441],[100,12524],[100,12609],[100,12692],[100,12775],[100,12858],[100,12941],[100,13025],[100,13108],[100,13191],[100,13275],[100,13360],[98.6,13442],[89.3,13526],[80.9,13609],[70.7,13693],[60.7,13776],[55.7,13858],[55.7,13942],[55.7,14026],[55.7,14108]]",738.6035,748.8507,100,8.9968,"[{""rating"":96.77083333333334,""responseTime"":8.42909999999415},{""rating"":100,""responseTime"":8.996799999997052}]",space,9.6942,,748.8509,Partially,50,748.853,,,[],,0,4,4,4,1,audio/Narrative7Situation4.wav,audio/Narrative8Situation4.wav,audio/Narrative5Situation4.wav,audio/Narrative6Situation4.wav,3,3,1,2,,,,,,,,,,,,,,,,,,,,,,,,,,,,,,,,,,,,,
,,,,,6128fd492700069e594016c9,2025-07-07_23h22.48.925,group3.4_multiperson,2023.2.2,Win32,59.88023952,686c2ebf0248f13bef9af11f,686c8e91677ea7c34f42c62f,,,,,,,,,,,,,,,,,,,,,,,,,,,,,748.8533,1,audio/Narrative8Situation5.wav,750.868,,750.8681,759.1269,"[[999,0],[999,100],[999,183],[999,265],[999,343],[999,422],[999,517],[999,599],[999,683],[999,766],[999,851],[999,933],[37.8,1017],[30.2,1100],[27.1,1183],[26.3,1267],[24.2,1351],[17,1436],[0.5,2268],[0.8,2342],[0.8,2424],[1.1,2517],[1.5,2600],[1.5,2683],[2.9,2767],[5.4,2852],[5.4,2924],[5.4,3006],[5.4,3092],[5.4,3183],[5.6,3259],[7.1,3350],[7.2,3434],[7.2,3507],[7.2,3589],[7.2,3673],[7.2,3757],[7.2,3839],[7.2,3927],[7.2,4017],[7.2,4100],[7.2,4175],[7.2,4257],[7.4,4345],[17.8,4437],[35.7,4518],[59.3,4602],[100,4685],[100,4767],[100,4852],[100,4928],[100,5018],[100,5101],[100,5185],[100,5268],[100,5351],[98.5,5437],[98.5,5507],[98.5,5590],[98.5,5675],[98.5,5759],[98.5,5840],[99.2,5936],[99.2,6016],[99.2,6101],[99.2,6173],[99.2,6257],[99.2,6352],[99.2,6427],[99.2,6512],[99.2,6590],[99.2,6675],[99.2,6768],[99.2,6843],[99.2,6935],[99.2,7007],[99.2,7101],[99.2,7174],[99.2,7257],[99.2,7343],[99.1,7436],[98.9,7507],[98.9,7601],[98.8,7677],[98.6,7768],[97.4,7853],[94.6,7936],[93.6,8020],[91,8103],[85.8,8187],[85.7,8257]]",759.1275,766.1397,48.02083333,5.5939,"[{""rating"":48.020833333333336,""responseTime"":5.593899999991095}]",space,6.4684,,766.1399,Partially,50,766.1418,,,[],,0,5,5,5,1,audio/Narrative7Situation5.wav,audio/Narrative8Situation5.wav,audio/Narrative5Situation5.wav,audio/Narrative6Situation5.wav,5,2,5,2,,,,,,,,,,,,,,,,,,,,,,,,,,,,,,,,,,,,,
,,,,,6128fd492700069e594016c9,2025-07-07_23h22.48.925,group3.4_multiperson,2023.2.2,Win32,59.88023952,686c2ebf0248f13bef9af11f,686c8e91677ea7c34f42c62f,,,,,,,,,,,,,,,,,,,,,,,,,,,,,766.1422,1,audio/Narrative8Situation6.wav,768.146,,768.1464,774.6173,"[[999,2],[999,99],[999,193],[47.3,278],[47.3,360],[47.3,436],[47.2,518],[47.2,609],[47.2,687],[48.1,778],[49.1,861],[49.5,935],[49.5,1026],[52.1,1111],[61.7,1194],[75,1278],[78.8,1361],[79.4,1444],[79.4,1526],[79.4,1600],[79.4,1682],[79.4,1777],[81.5,1861],[85.5,1943],[85.7,2020],[85.7,2110],[85.7,2192],[85.7,2266],[86.4,2361],[88.4,2444],[89.4,2528],[89.8,2603],[89.9,2696],[90.6,2778],[91.1,2861],[96.4,2944],[96.4,3018],[96.4,3110],[96.4,3193],[96.4,3269],[96.4,3349],[96.4,3434],[96.4,3524],[96.4,3611],[96.4,3695],[96.4,3766],[96.4,3851],[96.4,3944],[96.4,4016],[96.4,4102],[96.4,4194],[96.4,4266],[96.4,4352],[96.4,4443],[96.4,4516],[96.4,4601],[96.4,4695],[96.4,4768],[96.4,4850],[96.6,4945],[96.8,5019],[96.8,5110],[96.8,5184],[96.8,5270],[96.8,5362],[96.8,5437],[96.8,5521],[97,5607],[97.3,5693],[98,5779],[98.4,5853],[98.6,5934],[98.6,6020],[98.6,6102],[99.4,6196],[99.5,6267],[99.6,6360],[99.6,6434]]",774.6178,778.277,99.58333333,0.9735,"[{""rating"":99.58333333333333,""responseTime"":0.9735000000000582}]",space,3.1093,,778.2771,Not at all,0,778.2809,,,[],,0,6,6,6,1,audio/Narrative7Situation6.wav,audio/Narrative8Situation6.wav,audio/Narrative5Situation6.wav,audio/Narrative6Situation6.wav,3,2,3,2,,,,,,,,,,,,,,,,,,,,,,,,,,,,,,,,,,,,,
,,,,,6128fd492700069e594016c9,2025-07-07_23h22.48.925,group3.4_multiperson,2023.2.2,Win32,59.88023952,686c2ebf0248f13bef9af11f,686c8e91677ea7c34f42c62f,,,,,,,,,,,,,,,,,,,,,,,,,,,,,778.2817,1,audio/Narrative8Situation7.wav,781.2834,,781.2836,793.3699,"[[75.6,365],[74.5,449],[73.3,533],[71.8,616],[70.1,700],[60.7,783],[48.1,866],[39.6,949],[34.4,1033],[23.4,1116],[4.1,1199],[3.2,1282],[3.2,1366],[3.9,1450],[5.1,1533],[9.2,1616],[9.7,1700],[10.4,1783],[12.3,1866],[15.4,1950],[17.7,2033],[19,2116],[20.9,2200],[22.2,2283],[22.8,2366],[22.8,2449],[23,2533],[23.2,2617],[23.3,2699],[23.6,2782],[23.6,2866],[23.6,2949],[23.6,3033],[23.6,3116],[23.6,3199],[23.6,3283],[23.6,3366],[56.5,3450],[96.8,3534],[100,3951],[100,4034],[100,4117],[100,4201],[100,4284],[97.8,4367],[97,4451],[97,4533],[97,4616],[97,4700],[97,4783],[97,4867],[97,4950],[97,5033],[97,5117],[97,5200],[97,5283],[96.3,5367],[93.2,5451],[88.5,5534],[83.2,5618],[74.4,5701],[70.6,5784],[66.1,5868],[64.9,5951],[61.8,6034],[58.3,6118],[55.5,6201],[54.7,6284],[54.7,6367],[53.4,6451],[52.4,6534],[52.4,6617],[52.4,6701],[52.1,6785],[51.9,6868],[51.1,6951],[50.3,7035],[50.1,7117],[50.1,7201],[50.1,7284],[48.6,7368],[46,7451],[45.4,7535],[45,7617],[45,7701],[45,7784],[45,7867],[45,7951],[45,8034],[45.4,8118],[46.5,8202],[50.4,8285],[63.4,8368],[92.2,8452],[100,8535],[100,8618],[100,8702],[100,8784],[100,8868],[100,8951],[100,9035],[100,9118],[100,9201],[100,9285],[100,9368],[100,9451],[100,9535],[100,9618],[100,9701],[100,9785],[100,9869],[99.7,9952],[98.6,10036],[97.1,10119],[91.1,10202],[86.6,10286],[83.5,10369],[82.7,10452],[76.7,10536],[66.6,10619],[65.1,10702],[65.3,10785],[65.3,10868],[65.3,10952],[65.3,11035],[66,11119],[66.4,11203],[66.6,11285],[66.8,11369],[67.5,11453],[71.5,11536],[87.8,11620],[98.8,11703],[100,11785],[100,11870],[100,11952],[100,12035]]",793.3702,797.6879,99.375,3.3469,"[{""rating"":99.375,""responseTime"":3.346900000005917}]",space,3.7848,,797.688,Partially,50,797.6945,,,[],,0,7,7,7,1,audio/Narrative7Situation7.wav,audio/Narrative8Situation7.wav,audio/Narrative5Situation7.wav,audio/Narrative6Situation7.wav,5,3,4,5,,,,,,,,,,,,,,,,,,,,,,,,,,,,,,,,,,,,,
,,,,,6128fd492700069e594016c9,2025-07-07_23h22.48.925,group3.4_multiperson,2023.2.2,Win32,59.88023952,686c2ebf0248f13bef9af11f,686c8e91677ea7c34f42c62f,,,,,,,,,,,,,,,,,,,,,,,,,,,,,797.6949,1,audio/Narrative8Situation8.wav,800.7062,,800.7062,813.5699,"[[999,0],[999,111],[999,194],[999,278],[999,360],[999,444],[54.2,528],[52.9,611],[52.6,693],[51.3,778],[50.9,850],[50.4,941],[50.2,1026],[53.5,1111],[74.8,1194],[88.9,1278],[90.9,1361],[91.5,1445],[92.6,1529],[93.1,1611],[93.5,1694],[94.3,1778],[95.6,1861],[96.4,1937],[95.9,2027],[86.7,2111],[67.5,2195],[53.9,2278],[46.1,2361],[30,2446],[14.1,2528],[10.8,2611],[9.6,2695],[9.4,2777],[8.8,2862],[8.6,2935],[8.6,3026],[8.3,3112],[5.9,3195],[4.4,3278],[4.3,3361],[3.1,3446],[1.7,3529],[0.8,3611],[0.7,3694],[0.7,3767],[0.7,3860],[0.7,3934],[0.7,4019],[0.6,4112],[0.3,4195],[0.2,4271],[0.2,4361],[0.2,4439],[0.2,4522],[0.2,4609],[0.2,4684],[0.2,4778],[0.2,4850],[0.2,4934],[0.2,5026],[5.9,5113],[20.6,5196],[22.9,5280],[26.9,5363],[27.3,5434],[29.6,5529],[59.5,5613],[74,5696],[78.6,5780],[80.9,5863],[86.9,5946],[89.5,6030],[89.5,6101],[90.3,6196],[92.1,6278],[94.4,6363],[98.8,6437],[99.1,6530],[99.8,6604],[99.8,6687],[99.8,6773],[99.8,6851],[99.8,6946],[99.8,7018],[99.8,7111],[99.8,7185],[99.8,7278],[99.8,7351],[99.8,7435],[99.8,7529],[99.8,7611],[99.8,7686],[99.8,7778],[99.8,7852],[99.8,7946],[99.8,8028],[99.8,8112],[99.8,8185],[99.8,8268],[99.8,8363],[99.8,8445],[99.8,8521],[99.8,8607],[99.8,8685],[99.8,8770],[99.3,8863],[94.4,8948],[82.7,9030],[68.8,9114],[55.4,9198],[41.8,9280],[40.1,9363],[40.1,9435],[40.8,9531],[44,9614],[47.1,9697],[49.7,9781],[50.3,9864],[51,9946],[51,10029],[51,10112],[51,10185],[51,10269],[50.9,10363],[50.9,10441],[54,10533],[68.3,10616],[74.5,10699],[87.4,10782],[91,10866],[96.7,10948],[100,11031],[100,11114],[100,11187],[100,11280],[100,11352],[100,11446],[100,11519],[100,11603],[100,11686],[100,11779],[100,11853],[100,11947],[100,12031],[100,12107],[100,12196],[100,12270],[100,12354],[100,12447],[100,12520],[100,12606],[100,12686],[100,12774],[100,12863]]",813.5702,817.7107,49.58333333,2.8483,"[{""rating"":49.583333333333336,""responseTime"":2.848300000011932}]",space,3.6019,,817.7108,Not at all,0,817.7181,,,[],,0,8,8,8,1,audio/Narrative7Situation8.wav,audio/Narrative8Situation8.wav,audio/Narrative5Situation8.wav,audio/Narrative6Situation8.wav,2,3,3,5,,,,,,,,,,,,,,,,,,,,,,,,,,,,,,,,,,,,,
,,,,,6128fd492700069e594016c9,2025-07-07_23h22.48.925,group3.4_multiperson,2023.2.2,Win32,59.88023952,686c2ebf0248f13bef9af11f,686c8e91677ea7c34f42c62f,,,,,,,,,,,,,,,,,,,,,,,,,,,,,817.7185,1,audio/Narrative8Situation9.wav,820.729,,820.729,832.0326,"[[999,0],[999,99],[48.5,183],[48.6,266],[50.1,350],[50.1,432],[52.4,517],[52.2,600],[48.8,683],[48.6,767],[48.1,850],[47.1,933],[45.6,1016],[37.1,1100],[34.3,1183],[26.4,1266],[23.4,1350],[22.6,1433],[18.3,1517],[17.8,1599],[17.8,1683],[17.8,1766],[17.8,1849],[17.8,1933],[17.8,2016],[17.8,2099],[17.8,2183],[17.8,2266],[17.8,2349],[17.8,2433],[17.8,2516],[14.3,2600],[11.5,2683],[12,2767],[53.4,2850],[95.4,2934],[100,3016],[100,3100],[100,3184],[100,3267],[100,3351],[94.9,3434],[75.8,3517],[54.6,3601],[43.2,3684],[23.1,3767],[7.6,3851],[4.2,4268],[100,4851],[100,4934],[100,5017],[100,5100],[100,5184],[100,5268],[93.8,5351],[75.1,5435],[43.5,5518],[9.9,5601],[24.5,5851],[100,6268],[100,6351],[100,6435],[100,6517],[100,6601],[100,6684],[100,6767],[100,6851],[100,6934],[100,7018],[100,7101],[100,7184],[100,7268],[92.2,7352],[81.1,7435],[74.3,7519],[64,7601],[64,7685],[64,7768],[64,7851],[65.2,7935],[64.6,8018],[67.9,8102],[84.2,8186],[90,8268],[94.3,8352],[98.5,8435],[99.2,8519],[99.2,8601],[99.2,8685],[99.2,8768],[99.2,8852],[99.3,8935],[99.3,9019],[99.3,9102],[99.3,9185],[98.5,9269],[97.7,9352],[96.7,9436],[96.1,9518],[96.1,9602],[96.1,9685],[96.8,9769],[98.5,9852],[99.2,9935],[99.2,10018],[99.2,10102],[99.2,10185],[99.2,10269],[99.2,10352],[99.2,10435],[99.2,10519],[99.2,10602],[97.8,10687],[89.4,10769],[80.7,10853]]",832.0328,835.5003,99.27083333,2.0304,"[{""rating"":99.27083333333333,""responseTime"":2.0303999999911184}]",space,2.9146,,835.5004,Partially,50,835.5073,,,[],,0,9,9,9,1,audio/Narrative7Situation9.wav,audio/Narrative8Situation9.wav,audio/Narrative5Situation9.wav,audio/Narrative6Situation9.wav,2,3,3,4,,,,,,,,,,,,,,,,,,,,,,,,,,,,,,,,,,,,,
,,,,,6128fd492700069e594016c9,2025-07-07_23h22.48.925,group3.4_multiperson,2023.2.2,Win32,59.88023952,686c2ebf0248f13bef9af11f,686c8e91677ea7c34f42c62f,,,,,,,,,,,,,,,,,,,,,,,,,,,,,835.5077,1,audio/Narrative7Situation1.wav,837.5177,,837.5177,893.4179,"[[999,0],[999,99],[999,183],[999,266],[999,349],[999,433],[999,516],[999,599],[999,682],[999,766],[999,849],[999,933],[999,1016],[999,1100],[999,1183],[49.7,1267],[49.1,1350],[49,1432],[49,1516],[49,1599],[49,1682],[49,1766],[49,1849],[49,1932],[49,2016],[48.6,2100],[44.8,2183],[31.8,2267],[21.3,2350],[20,2434],[17.6,2517],[16.3,2600],[15,2683],[14.7,2766],[11.4,2850],[4.8,2933],[2.5,3017],[0.3,3099],[0.3,3183],[0.2,3266],[0.2,3350],[0.2,3433],[0.2,3516],[0.2,3600],[2.1,3684],[40,3767],[77.2,3850],[89.8,3934],[89.8,4017],[89.8,4100],[89.8,4184],[89.8,4267],[89.8,4350],[89.8,4433],[89.8,4517],[89.8,4600],[89.8,4683],[89.8,4767],[89.8,4850],[89.8,4933],[89.8,5017],[89.8,5100],[89.8,5183],[89.8,5267],[90.1,5351],[92.2,5434],[95.5,5518],[96.1,5600],[96.3,5684],[96.9,5768],[97.3,5850],[97.5,5934],[97.5,6017],[94.4,6101],[79.1,6185],[58.4,6268],[47.7,6351],[47,6434],[51.8,6518],[99.1,6602],[100,6684],[100,6768],[100,6851],[99.3,6934],[99.3,7017],[99.3,7101],[99.3,7184],[99.3,7267],[99.3,7351],[99.3,7434],[99.3,7518],[99.3,7601],[99.3,7684],[99.3,7768],[99.3,7851],[99.3,7934],[99.3,8018],[99.3,8101],[99.3,8184],[99.3,8268],[99.3,8352],[99.3,8435],[99.3,8518],[99.3,8601],[99.3,8685],[99.3,8768],[99.3,8852],[99.3,8935],[99.3,9018],[99.3,9101],[99.3,9185],[99.3,9268],[99.3,9352],[99.3,9435],[99.3,9518],[99.3,9601],[99.3,9685],[99.3,9768],[99.3,9852],[99.3,9935],[99.3,10018],[99.3,10102],[99.3,10185],[99.3,10268],[100,10353],[100,10436],[100,10518],[100,10602],[100,10685],[100,10769],[100,10853],[100,10935],[100,11019],[100,11102],[100,11185],[100,11269],[100,11352],[100,11435],[100,11520],[99.1,11603],[98.3,11686],[98.2,11769],[95.8,11853],[94.6,11937],[94.2,12019],[94.4,12103],[99.2,12186],[99.6,12269],[99.6,12352],[99.6,12436],[99.6,12519],[99.6,12602],[99.6,12686],[99.6,12769],[99.6,12853],[99.4,12936],[98.9,13020],[98.4,13103],[98.3,13186],[98.2,13270],[97.9,13353],[97.9,13436],[97.9,13519],[97.9,13603],[97.9,13686],[97.9,13769],[97.9,13853],[97.9,13936],[97.9,14020],[97.9,14103],[97.9,14187],[98,14270],[98.2,14353],[98.5,14436],[98.8,14520],[98.8,14603],[98.8,14687],[98.8,14770],[98.8,14853],[98.8,14937],[98.8,15020],[98.8,15103],[98.8,15187],[98.8,15270],[98.8,15353],[98.8,15437],[98.8,15520],[98.8,15603],[98.8,15687],[98.8,15770],[98.8,15854],[98.8,15937],[98.8,16020],[98.6,16104],[97.6,16188],[96.3,16271],[94.6,16354],[91.7,16438],[81.7,16522],[69.6,16604],[64.5,16688],[61.7,16771],[60.9,16855],[60.6,16937],[60.6,17021],[60.6,17104],[62.2,17188],[70.2,17271],[77.2,17355],[83.4,17438],[90.5,17522],[95.3,17605],[97.5,17688],[99,17771],[99.4,17854],[99.4,17937],[99.4,18021],[99.4,18104],[99.4,18187],[99.4,18271],[99.4,18354],[99.4,18438],[99.4,18521],[99.4,18604],[99.4,18688],[99.4,18771],[99.4,18854],[99.4,18938],[99.4,19021],[99.4,19105],[99.4,19188],[99.4,19271],[99.4,19355],[99.4,19438],[99.4,19521],[99.4,19605],[99.4,19688],[99.4,19771],[99.4,19855],[99.4,19938],[99.4,20021],[99.4,20105],[99.4,20188],[99.4,20272],[99.4,20355],[99.4,20438],[99.4,20522],[99.4,20605],[99.4,20688],[96.6,20772],[74.8,20856],[54.2,20939],[42.2,21023],[38.3,21105],[51.3,21189],[83.6,21273],[90.1,21356],[95.3,21439],[96.1,21523],[96.9,21605],[96.9,21689],[96.9,21772],[96.9,21855],[94,21940],[88.9,22023],[80.1,22106],[60.8,22190],[48.3,22606],[50.1,22690],[50.2,22772],[50.5,22856],[50.8,22939],[51,23023],[51,23106],[51,23190],[51,23273],[51,23356],[50.9,23439],[50.9,23523],[86.7,23607],[100,23690],[100,23773],[100,23856],[100,23939],[100,24023],[100,24107],[98.6,24190],[98.5,24273],[98.2,24357],[89.7,24440],[75.8,24524],[76,24607],[97.6,24690],[100,24773],[100,24856],[100,24941],[100,25024],[100,25107],[100,25190],[100,25273],[100,25357],[99.5,25440],[99.5,25523],[99.5,25606],[99.5,25690],[99.5,25774],[99.5,25857],[99.5,25940],[99.2,26024],[94.6,26108],[89.9,26191],[83.3,26274],[77.9,26358],[75.3,26441],[70.5,26524],[70.2,26608],[70.1,26690],[70.1,26774],[70.1,26857],[70.1,26940],[70,27025],[70,27107],[70,27191],[70,27274],[70,27357],[70,27441],[70,27524],[70,27607],[70,27691],[70,27774],[70,27858],[69.8,27942],[58.8,28025],[58.1,28108],[58.1,28191],[58.1,28274],[58.1,28358],[59.1,28442],[62.2,28525],[72.1,28608],[84.7,28692],[93.1,28775],[93.5,28858],[94.5,28942],[96.4,29024],[96.9,29108],[97.3,29191],[97.4,29274],[97.6,29358],[97.8,29441],[97.8,29524],[98.1,29609],[98.1,29691],[98.1,29774],[98.1,29859],[98.1,29941],[98.1,30024],[98.1,30108],[98.1,30191],[98.1,30275],[98.1,30358],[98.1,30441],[98.1,30525],[98.1,30608],[98.1,30691],[98.1,30775],[98.1,30858],[98.1,30942],[98.1,31025],[98.1,31108],[98.1,31192],[98.1,31275],[98.1,31358],[98.1,31442],[98.1,31525],[98.1,31609],[97.1,31693],[96.9,31775],[96.9,31859],[96.9,31942],[96.9,32025],[96.9,32109],[96.9,32192],[96.9,32275],[96.9,32359],[96.9,32442],[96.9,32526],[96.9,32609],[96.9,32692],[96.9,32776],[96.9,32859],[96.9,32942],[96.9,33026],[96.5,33110],[95.5,33194],[94.5,33276],[94.3,33359],[94.3,33442],[94.3,33526],[94.3,33609],[94.3,33692],[94.3,33776],[94.3,33859],[94.9,33943],[96.1,34027],[100,34110],[100,34193],[100,34276],[100,34359],[100,34443],[100,34526],[99.7,34610],[99.5,34693],[99.5,34776],[99.5,34859],[99.5,34943],[99.5,35026],[99.5,35110],[99.5,35193],[99.5,35276],[99.5,35360],[99.5,35443],[99.5,35526],[99.5,35610],[99.5,35693],[99.5,35776],[99.5,35860],[99.5,35943],[99.5,36027],[99.5,36110],[99.5,36193],[99.5,36277],[99.5,36360],[99.5,36444],[99.5,36527],[99.5,36610],[99.5,36694],[99.5,36777],[99.5,36861],[99.5,36944],[99.5,37027],[99.5,37110],[99.5,37194],[99.5,37277],[99.5,37360],[99.5,37444],[99.5,37527],[99.5,37610],[99.5,37694],[99.5,37777],[99.5,37860],[99.5,37944],[99.5,38027],[99.5,38110],[99.5,38194],[99.5,38277],[99.5,38361],[99.5,38444],[99.5,38527],[99.5,38610],[99.5,38694],[99.5,38777],[99.1,38861],[98.9,38944],[94.7,39029],[77.2,39111],[54.2,39195],[33.3,39278],[27.5,39362],[26.9,39444],[26.7,39528],[26.5,39612],[18.8,39695],[6.1,39778],[6.1,39861],[6,39944],[6,40028],[6,40111],[6,40194],[13.8,40279],[89.4,40362],[100,40445],[100,40528],[100,40611],[100,40695],[100,40779],[100,40862],[100,40945],[100,41028],[100,41111],[100,41195],[100,41278],[100,41361],[100,41445],[100,41528],[100,41612],[100,41696],[97.8,41779],[93.1,41862],[93.1,41945],[93.1,42028],[96.8,42112],[97.9,42195],[97.9,42278],[97.9,42362],[97.9,42445],[97.9,42529],[97.9,42612],[97.9,42695],[97.9,42779],[97.9,42863],[97.9,42946],[97.9,43029],[97.9,43112],[97.9,43196],[97.9,43279],[97.9,43362],[98.1,43446],[98.3,43530],[98.3,43612],[98.3,43696],[98.3,43779],[98.3,43862],[98.3,43946],[98.3,44029],[98.3,44112],[98.3,44196],[98.3,44279],[98.3,44362],[98.3,44446],[98.3,44529],[98.3,44613],[98.3,44696],[98.3,44779],[98.8,44863],[99.2,44946],[99.2,45029],[99.2,45113],[99.2,45196],[99.2,45279],[99.2,45363],[99.2,45446],[99.2,45529],[99.2,45613],[99.2,45696],[99.2,45779],[99.2,45863],[99.2,45946],[99.2,46030],[99.2,46113],[99.2,46197],[99.2,46280],[99.2,46363],[99.2,46446],[99.2,46530],[99.2,46613],[99.2,46697],[99.2,46780],[99.2,46863],[99.2,46947],[99.2,47030],[99.2,47113],[99.2,47197],[99.2,47280],[99.2,47363],[99.2,47447],[99.2,47530],[99.2,47614],[99.2,47697],[99.2,47780],[99.2,47864],[99.2,47947],[99.2,48030],[99.2,48114],[98.2,48198],[76.3,48282],[65.6,48365],[50.8,48448],[46.4,48530],[46,48614],[45.3,48697],[45.3,48781],[45.3,48864],[45.3,48947],[45.3,49031],[51.6,49115],[75.9,49198],[82.5,49282],[92.4,49365],[97,49447],[97.5,49531],[97.8,49614],[98,49699],[98.1,49781],[98.1,49864],[98.1,49947],[98.1,50031],[98.1,50114],[98.1,50198],[98.1,50281],[98.1,50364],[98.1,50448],[98.1,50531],[98.1,50614],[98.2,50698],[98.2,50781],[98.2,50864],[98.2,50948],[98.2,51031],[98.2,51115],[98.1,51198],[98.1,51281],[98.1,51365],[98.1,51448],[98.1,51531],[98.1,51615],[98.1,51698],[98.1,51781],[98.1,51865],[98.1,51948],[98.1,52032],[98.1,52115],[98.1,52199],[98.1,52282],[98.1,52365],[98.1,52448],[98.1,52532],[98.8,52615],[98.8,52698],[98.8,52782],[98.8,52865],[98.9,52948],[98.9,53032],[98.9,53115],[98.9,53199],[98.9,53282],[98.9,53365],[98.9,53449],[98.9,53532],[98.9,53615],[98.9,53699],[98.9,53782],[98.9,53865],[98.9,53949],[98.9,54032],[98.9,54115],[98.9,54199],[98.9,54282],[98.9,54365],[98.9,54449],[98.9,54532],[98.9,54616],[98.9,54699],[98.9,54782],[98.9,54866],[98.9,54949],[98.9,55032],[98.9,55116],[98.9,55199],[98.9,55283],[98.9,55366],[98.9,55449],[98.9,55533],[98.9,55616],[98.9,55700],[98.9,55783],[98.9,55866]]",893.4183,896.8187,98.85416667,1.1795,"[{""rating"":98.85416666666667,""responseTime"":1.1794999999999618}]",space,2.8528,,896.8188,Partially,50,905.4554,99.27083333,7.2442,"[{""rating"":99.27083333333333,""responseTime"":7.244200000002934}]",space,0,10,10,10,1,audio/Narrative8Situation1.wav,audio/Narrative7Situation1.wav,audio/Narrative6Situation1.wav,audio/Narrative5Situation1.wav,5,2,2,5,,,8.1044,,,,,,,,,,,,,,,,,,,,,,,,,,,,,,,,,,
,,,,,6128fd492700069e594016c9,2025-07-07_23h22.48.925,group3.4_multiperson,2023.2.2,Win32,59.88023952,686c2ebf0248f13bef9af11f,686c8e91677ea7c34f42c62f,,,,,,,,,,,,,,,,,,,,,,,,,,,,,905.4561,1,audio/Narrative7Situation2.wav,908.4727,,908.4728,915.9449,"[[49.5,779],[55,862],[89.8,945],[97,1027],[97.5,1111],[98.3,1195],[99.3,1279],[99.3,1360],[99.3,1433],[99.3,1519],[99,1611],[91.3,1696],[75.5,1778],[62.2,1862],[50.9,1945],[38.5,2028],[25.7,2112],[24.7,2186],[24.7,2277],[24.7,2350],[24.5,2436],[24.4,2528],[24.4,2606],[24.3,2686],[24.3,2767],[24.3,2855],[45.2,2945],[93,3029],[100,3103],[100,3193],[100,3270],[100,3353],[100,3444],[100,3528],[100,3613],[100,3695],[100,3769],[100,3861],[100,3934],[100,4017],[100,4111],[100,4184],[100,4278],[100,4363],[100,4436],[100,4522],[100,4601],[100,4687],[100,4778],[100,4851],[100,4938],[100,5017],[100,5102],[100,5195],[100,5278],[100,5362],[100,5436],[100,5519],[100,5602],[100,5684],[100,5772],[100,5863],[100,5939],[100,6026],[100,6102],[100,6189],[100,6279],[100,6352],[100,6437],[100,6518],[100,6603],[100,6695],[100,6778],[100,6862],[100,6940],[100,7020],[100,7112],[100,7191],[100,7270],[100,7362],[100,7446]]",915.9459,918.9702,99.6875,1.2363,"[{""rating"":99.6875,""responseTime"":1.2362999999970725}]",space,2.4707,,918.9703,Not at all,0,918.9736,,,[],,0,11,11,11,1,audio/Narrative8Situation2.wav,audio/Narrative7Situation2.wav,audio/Narrative6Situation2.wav,audio/Narrative5Situation2.wav,3,3,3,3,,,,,,,,,,,,,,,,,,,,,,,,,,,,,,,,,,,,,
,,,,,6128fd492700069e594016c9,2025-07-07_23h22.48.925,group3.4_multiperson,2023.2.2,Win32,59.88023952,686c2ebf0248f13bef9af11f,686c8e91677ea7c34f42c62f,,,,,,,,,,,,,,,,,,,,,,,,,,,,,918.974,1,audio/Narrative7Situation3.wav,926.9789,,926.9791,936.2265,"[[57,2361],[57,2433],[57,2516],[57,2600],[64.4,2696],[50,3529],[49.3,3611],[42.8,3696],[38.9,3767],[38.9,3860],[38.9,3933],[38.9,4017],[38.9,4111],[38.9,4183],[43.4,4281],[100,4695],[100,4767],[100,4852],[100,4938],[100,5029],[100,5111],[100,5184],[100,5267],[100,5362],[100,5434],[93.8,5530],[74,5613],[51.6,5697],[47.9,5770],[47.9,5850],[47.8,5945],[47.8,6028],[47.8,6103],[47.8,6195],[48.1,6280],[48.6,6363],[49.1,6446],[49.1,6528],[49.1,6601],[49.1,6695],[49.1,6771],[49.1,6862],[49.2,6939],[66.3,7031],[90.8,7113],[92.7,7192],[93.1,7280],[95,7364],[96.7,7439],[98.5,7531],[98.5,7612],[98.5,7685],[98.5,7773],[98.5,7862],[98.5,7936],[98.5,8029],[98.5,8113],[98.5,8185],[97.9,8280],[87.6,8364],[61.6,8447],[52.8,8530],[49.4,8614],[47.6,8695],[47.6,8770],[47.6,8862],[47.6,8936],[52.5,9030],[74.8,9113]]",936.2266,938.9652,99.47916667,1.4007,"[{""rating"":99.47916666666667,""responseTime"":1.400700000002871}]",space,2.1971,,938.9653,Not at all,0,938.9708,,,[],,0,12,12,12,1,audio/Narrative8Situation3.wav,audio/Narrative7Situation3.wav,audio/Narrative6Situation3.wav,audio/Narrative5Situation3.wav,4,8,5,3,,,,,,,,,,,,,,,,,,,,,,,,,,,,,,,,,,,,,
,,,,,6128fd492700069e594016c9,2025-07-07_23h22.48.925,group3.4_multiperson,2023.2.2,Win32,59.88023952,686c2ebf0248f13bef9af11f,686c8e91677ea7c34f42c62f,,,,,,,,,,,,,,,,,,,,,,,,,,,,,938.9712,1,audio/Narrative7Situation4.wav,941.9837,,941.9839,953.6976,"[[51.6,361],[52.3,444],[52.3,529],[51.7,610],[51.3,687],[51,772],[51,860],[50.7,932],[50.7,1018],[50.7,1099],[50.7,1183],[50.7,1277],[50.7,1349],[50.7,1436],[50.7,1526],[50.7,1599],[50.7,1685],[50.7,1777],[50.7,1852],[50.7,1943],[50.7,2028],[50.7,2099],[50.7,2193],[50.7,2267],[50.7,2350],[50.7,2434],[50.7,2520],[50.7,2609],[50.7,2694],[50.7,2777],[50.7,2852],[50.7,2939],[50.7,3027],[50.7,3111],[50.7,3185],[50.7,3277],[50.7,3350],[50.7,3435],[50.7,3527],[50.7,3600],[50.7,3685],[62.2,3778],[89,3862],[91.6,3938],[91.7,4028],[92.6,4112],[100,4195],[100,4267],[100,4362],[100,4445],[100,4529],[100,4612],[100,4694],[100,4772],[100,4861],[100,4934],[100,5017],[100,5110],[100,5184],[94.4,5280],[65.4,5363],[49.5,5446],[47.8,5519],[47.5,5612],[47.5,5691],[47.7,5779],[48.9,5863],[49.1,5946],[49.2,6024],[49.5,6106],[49.7,6184],[49.7,6273],[49.7,6351],[55.1,6446],[59.8,6529],[59.8,6601],[59.8,6695],[59.8,6778],[59.8,6853],[59.8,6937],[59.8,7018],[59.8,7103],[59.8,7195],[59.8,7268],[59.8,7351],[59.8,7435],[59.8,7521],[59.8,7606],[59.8,7684],[59.8,7770],[59.7,7862],[59.7,7938],[59.7,8028],[59.7,8101],[59.7,8185],[59.7,8271],[59.7,8351],[59.7,8445],[59.7,8518],[59.7,8607],[59.7,8686],[59.7,8768],[59.7,8852],[59.7,8946],[59.7,9019],[59.7,9103],[59.7,9189],[59.7,9279],[59.7,9355],[59.7,9446],[59.7,9519],[59.7,9607],[59.7,9696],[59.7,9769],[59.7,9853],[59.7,9948],[59.7,10021],[59.7,10104],[59.7,10185],[59.7,10272],[59.7,10357],[59.1,10449],[58.8,10522],[55.3,10615],[53.1,10698],[52.4,10781],[52.4,10852],[52.4,10942],[52.3,11019],[51.9,11114],[51.5,11188],[51.5,11269],[51.5,11363],[51.5,11436],[51.5,11519],[51.5,11613],[51.5,11686]]",953.6979,957.571,0,3.3857,"[{""rating"":1.1458333333333348,""responseTime"":2.669499999999971},{""rating"":0,""responseTime"":3.3857000000029984}]",space,3.3309,,957.5713,Definitely yes,100,957.5779,,,[],,0,13,13,13,1,audio/Narrative8Situation4.wav,audio/Narrative7Situation4.wav,audio/Narrative6Situation4.wav,audio/Narrative5Situation4.wav,3,3,2,1,,,,,,,,,,,,,,,,,,,,,,,,,,,,,,,,,,,,,
,,,,,6128fd492700069e594016c9,2025-07-07_23h22.48.925,group3.4_multiperson,2023.2.2,Win32,59.88023952,686c2ebf0248f13bef9af11f,686c8e91677ea7c34f42c62f,,,,,,,,,,,,,,,,,,,,,,,,,,,,,957.5781,1,audio/Narrative7Situation5.wav,962.5892,,962.5893,971.0762,"[[999,0],[999,100],[999,183],[999,266],[999,349],[999,433],[999,516],[999,600],[999,684],[48.1,767],[48.3,850],[48.3,933],[48.4,1016],[48.4,1100],[48.8,1184],[48.8,1266],[48.8,1350],[49.1,1433],[49.1,1517],[49.1,1600],[49.3,1683],[49.3,1767],[49.3,1850],[49.4,1933],[49.4,2017],[49.4,2100],[49.4,2183],[49.4,2267],[49.4,2350],[49.4,2434],[49.4,2517],[49.4,2600],[49.4,2684],[49.5,2767],[49.5,2850],[50.1,2935],[51,3018],[70.4,3101],[89.7,3185],[94.7,3267],[95.8,3351],[96.4,3434],[97.1,3517],[97.1,3601],[97.2,3684],[97.9,3768],[99,3850],[99,3934],[99,4017],[99,4101],[99,4184],[99,4267],[99,4351],[99,4434],[92.4,4518],[69,4602],[57.3,4685],[49.7,4768],[49.5,4851],[49.5,4934],[49.5,5018],[49.5,5101],[49.5,5184],[49.5,5268],[49.5,5351],[49.5,5434],[49.5,5518],[49.5,5601],[49.5,5684],[49.5,5768],[49.5,5851],[49.5,5935],[49.5,6018],[49.6,6101],[49.6,6185],[50,6269],[82.2,6352],[100,6518],[100,6601],[100,6686],[100,6769],[100,6852],[100,6936],[100,7018],[100,7102],[100,7185],[100,7269],[100,7353],[100,7436],[100,7519],[100,7602],[100,7685],[100,7769],[100,7852],[100,7935],[100,8019],[91.4,8103],[84.1,8186],[77.2,8269],[64.5,8353]]",971.0763,973.7095,99.79166667,1.3953,"[{""rating"":99.79166666666667,""responseTime"":1.3952999999969506}]",space,2.1009,,973.7095,Definitely yes,100,973.7164,,,[],,0,14,14,14,1,audio/Narrative8Situation5.wav,audio/Narrative7Situation5.wav,audio/Narrative6Situation5.wav,audio/Narrative5Situation5.wav,2,5,2,5,,,,,,,,,,,,,,,,,,,,,,,,,,,,,,,,,,,,,
,,,,,6128fd492700069e594016c9,2025-07-07_23h22.48.925,group3.4_multiperson,2023.2.2,Win32,59.88023952,686c2ebf0248f13bef9af11f,686c8e91677ea7c34f42c62f,,,,,,,,,,,,,,,,,,,,,,,,,,,,,973.7168,1,audio/Narrative7Situation6.wav,976.7217,,976.7218,986.7248,"[[48.9,759],[48.9,842],[49.3,934],[49.3,1011],[49.3,1090],[49.3,1185],[49.3,1266],[49.3,1340],[49.3,1425],[49.5,1517],[53.2,1602],[61.4,1684],[66.1,1759],[66.3,1843],[76.1,1935],[83.9,2018],[100,2102],[100,2173],[100,2258],[100,2343],[100,2433],[100,2518],[100,2600],[100,2683],[100,2756],[100,2840],[100,2934],[100,3008],[100,3101],[100,3178],[100,3266],[100,3351],[100,3423],[99.5,3518],[96.9,3601],[91.6,3685],[85,3768],[84.2,3851],[84.2,3925],[84.2,4009],[84.2,4100],[84.2,4178],[84.2,4267],[84.2,4351],[84.2,4427],[85,4519],[90.8,4603],[100,4686],[100,4768],[100,4840],[100,4934],[100,5018],[100,5102],[100,5185],[100,5268],[100,5343],[100,5435],[100,5507],[100,5596],[100,5684],[100,5767],[100,5850],[100,5923],[100,6008],[100,6090],[100,6176],[100,6267],[100,6340],[100,6425],[100,6517],[100,6593],[100,6684],[100,6757],[100,6842],[100,6925],[100,7018],[100,7100],[100,7185],[99.9,7260],[99.9,7341],[99.9,7434],[99.9,7507],[99.9,7601],[99.9,7674],[99.9,7757],[99.9,7851],[99.9,7925],[99.9,8010],[99.9,8091],[99.9,8177],[99.9,8267],[99.9,8341],[99.9,8426],[99.9,8518],[99.9,8591],[99.9,8677],[99.9,8767],[99.9,8842],[99.9,8927],[99.9,9019],[99.9,9091],[99.9,9184],[99.9,9258],[99.9,9342],[99.9,9429],[99.9,9508],[99.9,9594],[99.9,9675],[99.9,9760],[99.9,9845],[99.9,9930]]",986.725,991.2652,99.89583333,1.3513,"[{""rating"":99.89583333333334,""responseTime"":1.3512999999970816}]",space,4.0046,,991.2653,Partially,50,991.2755,,,[],,0,15,15,15,1,audio/Narrative8Situation6.wav,audio/Narrative7Situation6.wav,audio/Narrative6Situation6.wav,audio/Narrative5Situation6.wav,2,3,2,3,,,,,,,,,,,,,,,,,,,,,,,,,,,,,,,,,,,,,
,,,,,6128fd492700069e594016c9,2025-07-07_23h22.48.925,group3.4_multiperson,2023.2.2,Win32,59.88023952,686c2ebf0248f13bef9af11f,686c8e91677ea7c34f42c62f,,,,,,,,,,,,,,,,,,,,,,,,,,,,,991.276,1,audio/Narrative7Situation7.wav,996.2841,,996.2845,1013.4669,"[[999,3],[999,110],[999,193],[999,268],[999,359],[999,443],[49.7,527],[52.5,611],[52.5,693],[52.5,771],[52.5,850],[52.2,944],[52,1015],[51,1110],[51,1187],[50.9,1268],[50.7,1349],[50.7,1443],[50.7,1519],[50.7,1599],[50.7,1683],[50.7,1766],[50.7,1860],[50.7,1942],[50.7,2026],[50.7,2099],[50.7,2182],[50.7,2271],[50.7,2349],[50.7,2443],[50.7,2516],[50.7,2599],[50.7,2689],[50.7,2766],[50.7,2850],[50.7,2932],[50.7,3016],[50.7,3100],[50.7,3186],[50.7,3268],[50.7,3349],[64.6,3445],[86,3528],[97.1,3611],[97.5,3694],[99.1,3779],[99.2,3850],[99,3944],[98.5,4027],[98.5,4102],[98.8,4194],[98.9,4267],[98.9,4352],[99.2,4444],[99.2,4527],[99.2,4600],[99.2,4694],[99.2,4769],[99.2,4855],[99.2,4945],[99.2,5017],[99.2,5111],[99.2,5193],[99.2,5269],[99.2,5350],[99.2,5438],[99.2,5527],[99.2,5610],[99.2,5693],[99.2,5767],[99.2,5853],[99.2,5936],[99.2,6017],[99.2,6110],[99.2,6194],[99.2,6267],[99.2,6355],[99.2,6434],[99.2,6517],[99.2,6601],[99.2,6684],[99.2,6767],[99.2,6851],[99.2,6944],[99.2,7028],[99.2,7111],[99.2,7194],[99.2,7272],[99.2,7360],[99.2,7445],[99.2,7517],[99.2,7611],[99.2,7687],[99.2,7772],[99.2,7851],[99.2,7934],[99.2,8018],[99.2,8101],[99.2,8184],[99.2,8267],[99.2,8356],[99.2,8445],[99.2,8518],[99.1,8604],[97.3,8696],[96.8,8771],[96.7,8862],[96.7,8934],[95.8,9030],[95.7,9101],[95.7,9187],[95.7,9268],[95.7,9353],[96,9447],[98.3,9530],[100,9612],[100,9696],[100,9776],[100,9852],[100,9935],[100,10029],[100,10104],[100,10187],[100,10279],[100,10352],[100,10445],[100,10524],[100,10604],[100,10695],[100,10768],[100,10862],[100,10946],[100,11019],[100,11107],[100,11196],[100,11280],[100,11353],[100,11435],[100,11529],[100,11605],[100,11685],[100,11771],[100,11852],[100,11946],[100,12019],[100,12102],[100,12189],[100,12273],[100,12363],[100,12435],[100,12530],[100,12603],[100,12686],[100,12773],[100,12852],[100,12936],[100,13020],[100,13103],[100,13186],[100,13269],[100,13353],[100,13436],[100,13522],[100,13613],[100,13697],[100,13770],[100,13853],[100,13936],[100,14029],[100,14103],[100,14187],[100,14270],[100,14358],[100,14436],[100,14520],[100,14606],[100,14691],[100,14778],[100,14864],[100,14947],[100,15022],[100,15114],[100,15189],[100,15274],[100,15353],[100,15441],[100,15520],[100,15606],[100,15687],[100,15770],[100,15864],[100,15942],[100,16025],[100,16108],[100,16198],[100,16271],[100,16353],[100,16443],[97.6,16532],[92.9,16615],[84.3,16699],[71.5,16783]]",1013.467,1017.6068,100,3.1677,"[{""rating"":97.8125,""responseTime"":2.602200000002995},{""rating"":100,""responseTime"":3.167700000002924}]",space,3.6014,,1017.6068,Definitely yes,100,1017.613,,,[],,0,16,16,16,1,audio/Narrative8Situation7.wav,audio/Narrative7Situation7.wav,audio/Narrative6Situation7.wav,audio/Narrative5Situation7.wav,3,5,5,4,,,,,,,,,,,,,,,,,,,,,,,,,,,,,,,,,,,,,
,,,,,6128fd492700069e594016c9,2025-07-07_23h22.48.925,group3.4_multiperson,2023.2.2,Win32,59.88023952,686c2ebf0248f13bef9af11f,686c8e91677ea7c34f42c62f,,,,,,,,,,,,,,,,,,,,,,,,,,,,,1017.6133,1,audio/Narrative7Situation8.wav,1019.6261,,1019.6262,1029.6378,"[[999,1],[999,108],[999,184],[999,266],[999,347],[50,442],[49.9,525],[49.9,601],[49.9,683],[49.9,775],[49.7,848],[49.4,944],[49.3,1025],[49.3,1103],[49.3,1192],[49.3,1264],[49.3,1358],[49.3,1432],[49.3,1516],[49.3,1609],[49.7,1694],[73.2,1778],[83.8,1859],[87.2,1944],[90.2,2026],[100,2109],[100,2193],[100,2267],[100,2355],[100,2444],[99.1,2526],[99,2602],[98.9,2684],[98.9,2775],[98.9,2850],[99.5,2944],[100,3026],[100,3109],[100,3192],[100,3265],[100,3359],[100,3443],[100,3515],[100,3600],[100,3687],[100,3767],[100,3851],[100,3942],[100,4017],[100,4109],[100,4182],[100,4267],[100,4358],[100,4432],[100,4526],[100,4609],[100,4693],[100,4766],[100,4850],[100,4943],[100,5016],[100,5099],[100,5185],[100,5276],[100,5359],[100,5432],[100,5517],[100,5599],[100,5690],[100,5766],[100,5860],[100,5933],[100,6018],[100,6110],[100,6183],[100,6266],[100,6361],[100,6438],[100,6524],[100,6611],[100,6694],[100,6777],[100,6850],[100,6941],[100,7027],[100,7105],[100,7184],[100,7266],[100,7352],[100,7444],[100,7517],[100,7601],[100,7683],[100,7766],[100,7850],[100,7945],[100,8018],[100,8108],[100,8190],[100,8269],[100,8361],[100,8435],[100,8526],[100,8611],[100,8694],[100,8777],[100,8850],[100,8944],[100,9022],[100,9103],[100,9194],[100,9267],[100,9352],[100,9433],[100,9528],[100,9600],[100,9693],[100,9767],[100,9853],[100,9946]]",1029.638,1035.0069,0.104166667,4.1003,"[{""rating"":0.1041666666666663,""responseTime"":4.100299999997105}]",space,4.8114,,1035.0069,Not at all,0,1035.0098,,,[],,0,17,17,17,1,audio/Narrative8Situation8.wav,audio/Narrative7Situation8.wav,audio/Narrative6Situation8.wav,audio/Narrative5Situation8.wav,3,2,5,3,,,,,,,,,,,,,,,,,,,,,,,,,,,,,,,,,,,,,
,,,,,6128fd492700069e594016c9,2025-07-07_23h22.48.925,group3.4_multiperson,2023.2.2,Win32,59.88023952,686c2ebf0248f13bef9af11f,686c8e91677ea7c34f42c62f,,,,,,,,,,,,,,,,,,,,,,,,,,,,,1035.01,1,audio/Narrative7Situation9.wav,1037.0131,,1037.0134,1045.6321,"[[43.8,116],[44.4,199],[44.9,283],[46.7,366],[47.9,450],[55.9,533],[62.8,615],[62.4,700],[56.1,783],[50.1,866],[49.2,949],[49.2,1032],[49.2,1116],[49.2,1199],[49.2,1282],[49.4,1366],[50.2,1450],[50.5,1532],[50.5,1616],[50.5,1699],[50.5,1782],[50.5,1866],[50.5,1949],[50.5,2033],[50.5,2116],[50.5,2199],[50.5,2283],[50.5,2366],[50.5,2449],[50.5,2533],[50.5,2616],[50.5,2699],[50.5,2783],[51.9,2867],[57,2950],[59.1,3034],[68.2,3117],[86.3,3200],[94.5,3284],[97.8,3367],[100,3450],[100,3533],[100,3616],[100,3700],[100,3783],[100,3867],[100,3950],[100,4034],[100,4116],[100,4200],[100,4283],[100,4367],[99.9,4450],[99.9,4533],[99.9,4617],[99.9,4700],[99.9,4783],[99.9,4867],[99.9,4950],[99.9,5033],[99.9,5117],[99.9,5200],[99.9,5284],[99.9,5367],[99.9,5450],[99.9,5534],[99.9,5617],[99.9,5701],[99.9,5784],[99.9,5867],[99.9,5951],[99.9,6034],[99.9,6117],[99.9,6201],[99.9,6284],[99.9,6367],[99.9,6451],[99.9,6534],[99.9,6617],[99.9,6701],[99.9,6784],[99.9,6867],[99.9,6951],[99.9,7034],[99.9,7117],[99.9,7201],[99.9,7284],[99.9,7368],[99.9,7451],[99.9,7534],[99.9,7618],[99.9,7701],[99.9,7784],[99.9,7868],[99.9,7951],[99.9,8034],[99.9,8118],[99.9,8201],[99.9,8284],[99.9,8368],[99.9,8451],[99.9,8535],[99.9,8618]]",1045.6323,1059.9698,0,13.4332,"[{""rating"":0,""responseTime"":4.892900000005966},{""rating"":99.79166666666667,""responseTime"":8.728800000011915},{""rating"":1.6666666666666663,""responseTime"":12.816400000005842},{""rating"":0,""responseTime"":13.433200000002898}]",space,13.7956,,1059.9699,Definitely yes,100,1059.9765,,,[],,0,18,18,18,1,audio/Narrative8Situation9.wav,audio/Narrative7Situation9.wav,audio/Narrative6Situation9.wav,audio/Narrative5Situation9.wav,3,2,4,3,,,,,,,,,,,,,,,,,,,,,,,,,,,,,,,,,,,,,
,,,,,6128fd492700069e594016c9,2025-07-07_23h22.48.925,group3.4_multiperson,2023.2.2,Win32,59.88023952,686c2ebf0248f13bef9af11f,686c8e91677ea7c34f42c62f,,,,,,,,,,,,,,,,,,,,,,,,,,,1091.6478,1094.2314,1094.2565,2,audio/Narrative13Situation2.wav,1094.2567,,1094.2567,1124.0017,"[[999,0],[999,101],[999,176],[999,257],[999,345],[999,435],[999,509],[999,590],[999,674],[999,759],[999,852],[999,935],[999,1019],[48.2,1103],[49.1,1186],[49.1,1267],[49.2,1352],[49.3,1434],[49.3,1507],[49.3,1594],[49.3,1679],[49.3,1757],[49.3,1844],[49.8,1936],[49.8,2018],[49.8,2101],[49.8,2185],[49.8,2259],[49.8,2341],[49.8,2430],[49.8,2510],[49.8,2591],[49.8,2685],[49.8,2759],[49.8,2852],[49.8,2924],[49.8,3017],[49.8,3091],[49.8,3174],[49.8,3266],[49.8,3341],[48.3,3436],[27.7,3520],[14.2,3603],[5.4,3686],[4.9,3770],[3.8,3855],[1.8,3928],[1.7,4019],[1,4103],[1,4180],[0.9,4269],[0.9,4342],[0.6,4436],[0.5,4511],[0.5,4601],[0.5,4676],[0.5,4763],[0.5,4853],[0.5,4926],[0.5,5012],[0.5,5092],[0.5,5182],[0.5,5259],[0.5,5344],[0.5,5436],[1.6,5520],[14,5604],[39.3,5687],[67.7,5770],[85,5855],[86.1,5937],[87.3,6020],[87.5,6095],[88,6187],[96.5,6271],[97.7,6344],[97.7,6436],[97.7,6519],[97.8,6604],[98,6685],[98,6770],[98,6853],[98,6926],[98,7011],[98,7103],[98.5,7187],[99.4,7273],[99.4,7353],[99.4,7429],[99.4,7514],[99.4,7604],[99.4,7678],[99.4,7770],[99.4,7854],[99.4,7926],[99.4,8019],[99.4,8103],[99.4,8176],[99.4,8270],[99.4,8354],[99.4,8437],[99.4,8509],[99.4,8594],[99.4,8686],[99.4,8765],[99.4,8845],[99.4,8937],[99.4,9010],[99.4,9104],[99.4,9187],[99.4,9271],[99.4,9354],[99.4,9428],[99.4,9510],[99.4,9593],[99.4,9677],[99.4,9763],[99.4,9854],[99.4,9927],[99.4,10021],[99.4,10093],[99.4,10180],[99.4,10262],[99.4,10344],[99.4,10428],[99.4,10515],[99.4,10594],[99.4,10679],[99.4,10763],[99.4,10846],[99.4,10937],[99.4,11010],[99.4,11096],[99.4,11177],[99.4,11260],[99.4,11346],[99.4,11438],[99.4,11521],[99.4,11604],[99.4,11687],[99.2,11765],[99.2,11854],[99.2,11929],[99.2,12011],[99.2,12104],[99.2,12180],[99.2,12271],[99.2,12356],[99.2,12430],[99.2,12519],[99.2,12594],[99.2,12682],[99.2,12761],[99.2,12849],[99.2,12938],[99.2,13013],[99.2,13105],[99.2,13178],[99.1,13264],[99,13354],[99,13428],[99,13511],[99,13605],[99,13681],[99,13771],[99,13844],[99,13928],[99,14016],[99,14106],[99,14189],[99,14261],[99,14356],[99,14440],[99,14512],[99,14605],[99,14683],[99,14761],[99,14845],[99,14939],[99,15014],[99,15105],[99,15178],[99,15262],[99,15346],[99,15432],[99,15514],[99,15605],[99,15681],[99,15772],[99,15855],[99,15930],[99,16022],[99,16095],[99,16181],[99,16272],[99,16356],[99,16439],[99,16512],[99,16598],[99,16679],[99,16773],[99,16846],[99,16940],[99,17014],[99,17106],[99,17191],[99,17264],[99,17356],[99,17437],[99,17522],[99,17606],[99,17679],[99,17762],[99,17846],[99,17939],[99,18023],[99,18096],[98.8,18190],[98.8,18273],[98.8,18357],[98.9,18440],[99,18514],[99,18596],[99,18689],[99.2,18764],[99.3,18848],[99.3,18940],[99.3,19013],[99.3,19096],[99.4,19180],[99.4,19265],[99.4,19357],[99.4,19430],[99.4,19516],[99.4,19607],[99.4,19682],[99.4,19773],[99.4,19846],[99.4,19930],[99.4,20023],[92.5,20108],[71.3,20192],[61.9,20275],[60,20359],[51.4,20442],[50.6,20525],[48.4,20608],[47.9,20690],[47.9,20763],[47.9,20852],[47.8,20941],[41.7,21026],[20.2,21108],[5.1,21192],[5.1,21273],[4.7,21358],[3.8,21442],[3.5,21524],[3.3,21608],[2.8,21683],[1.4,25027],[1.8,25102],[2.1,25193],[3.3,25277],[7.6,25360],[10,25443],[20.1,25527],[31.5,25610],[49.2,25693],[49.9,25766],[49.9,25858],[49.9,25932],[49.9,26018],[49.9,26098],[49.9,26182],[49.9,26266],[49.9,26359],[49.9,26443],[53.4,26528],[77.1,26611],[90.9,26694],[90.9,26776],[90.9,26852],[90.9,26933],[92.2,27027],[96.8,27111],[98.3,27184],[98.3,27271],[98.8,27360],[98.8,27443],[98.8,27516],[98.8,27601],[98.9,27693],[98.9,27777],[99,27860],[99.1,27943],[99.1,28026],[99.1,28109],[99.1,28194],[99.1,28266],[99.1,28359],[99.1,28443],[99.1,28516],[99.1,28610],[99.1,28686],[99.1,28771],[99.1,28860],[99.1,28933],[95.7,29028],[67.8,29111],[18.9,29195]]",1124.0019,1124.0039,,,[],,,,1124.0039,Definitely yes,100,1124.0057,,,[],,0,0,0,0,1,audio/Narrative13Situation2.wav,audio/Narrative13Situation2.wav,audio/Narrative13Situation2.wav,audio/Narrative13Situation2.wav,2,2,2,2,,,,,1059.977,1091.6471,space,31.1453,,,,,,,,,,,,,,,,,,,,,,,,,,,,,
,,,,,6128fd492700069e594016c9,2025-07-07_23h22.48.925,group3.4_multiperson,2023.2.2,Win32,59.88023952,686c2ebf0248f13bef9af11f,686c8e91677ea7c34f42c62f,,,,,,,,,,,,,,,,,,,,,,,,,,,,,1124.0067,2,audio/Narrative6Situation1.wav,1126.007,,1126.007,1152.5823,"[[999,0],[999,99],[999,183],[999,266],[999,350],[999,433],[999,516],[999,601],[999,683],[999,767],[999,851],[39.5,934],[52.5,1017],[56.3,1100],[56.3,1183],[55.9,1267],[51.7,1351],[49.7,1433],[49.4,1517],[49.7,1601],[50.2,1684],[50.3,1767],[50.3,1850],[50.5,1934],[50.5,2017],[50.5,2101],[50.4,2183],[50.4,2267],[50.4,2350],[50.4,2433],[50.4,2517],[50.4,2600],[50.4,2683],[50.4,2767],[49.9,2851],[46,2934],[31.5,3018],[16.9,3101],[2.2,3185],[3.6,3768],[53.9,3851],[83.3,3935],[84.2,4018],[84.7,4101],[88.2,4185],[90,4267],[90,4351],[90,4434],[89.8,4518],[67.9,4602],[33,4685],[12.1,4769],[16.8,5852],[64.8,5936],[96.6,6019],[100,6102],[100,6185],[100,6268],[100,6352],[100,6436],[100,6519],[100,6602],[100,6686],[100,6768],[100,6852],[100,6935],[100,7018],[100,7102],[100,7185],[100,7268],[100,7352],[95.4,7436],[75.6,7519],[51.4,7602],[49.4,7686],[45.6,7769],[45.6,7852],[45.9,7936],[48,8019],[48.5,8103],[49.1,8186],[49.4,8269],[49.6,8353],[50,8435],[50.1,8519],[50.1,8602],[50.1,8685],[50.1,8769],[50.1,8852],[50.1,8936],[50.1,9019],[50.1,9102],[50.1,9186],[50.1,9269],[50.1,9353],[50.1,9436],[50.1,9519],[50.1,9602],[50.1,9686],[50.1,9769],[49.2,9853],[39.7,9937],[17.5,10020],[8.9,10103],[8.3,10187],[7.7,10270],[3,10353],[3,10436],[2.9,10519],[2.6,10603],[2.5,10687],[2.3,10769],[2.3,10853],[2.3,10936],[2.3,11019],[2.2,11103],[2.2,11186],[2.2,11270],[2.2,11353],[2.5,11437],[11,11521],[25,11604],[42.5,11687],[57.7,11770],[71.3,11854],[73.3,11936],[73.3,12020],[72.5,12104],[69.2,12187],[69,12270],[68.9,12353],[68.8,12437],[68.1,12521],[65.4,12604],[62.2,12688],[61.1,12770],[61.1,12853],[60.1,12940],[58.8,13021],[58.1,13105],[57.9,13187],[55.3,13271],[35.3,13354],[18.9,13438],[5.8,13521],[3.1,13604],[3.2,14521],[19.5,14605],[40.4,14688],[43.1,14772],[44.3,14855],[46.4,14938],[46.8,15021],[47.3,15105],[48.2,15188],[48.3,15271],[48.3,15354],[48.3,15438],[48.3,15521],[48.3,15604],[48.3,15688],[48.3,15771],[48.3,15854],[48.3,15938],[48.3,16021],[48.3,16104],[48.3,16188],[48.3,16271],[48.3,16355],[48.3,16438],[47.9,16522],[42.8,16605],[33.1,16689],[9.9,16772],[1,16856],[8.8,18189],[32.8,18273],[49.1,18356],[49.6,18439],[49.6,18522],[49.7,18605],[49.7,18689],[49.7,18772],[49.7,18855],[49.7,18940],[49.7,19022],[49.7,19105],[49.7,19189],[49.7,19272],[49.7,19355],[49.7,19439],[49.7,19522],[49.7,19606],[49.7,19689],[49.4,19773],[45.5,19856],[24.5,19940],[13.1,20023],[1.4,20106],[1.3,20190],[1,20272],[1,20356],[1,20439],[20.6,20523],[84.8,20607],[97.4,20690],[99,20773],[99,20856],[99,20939],[99,21023],[99,21106],[99,21189],[99,21273],[99,21356],[99,21439],[99.6,21524],[100,21606],[100,21690],[100,21773],[100,21857],[100,21940],[100,22023],[100,22129],[100,22228],[100,22323],[100,22406],[100,22490],[100,22573],[100,22656],[100,22740],[100,22823],[100,22906],[100,22990],[100,23076],[100,23160],[100,23251],[100,23335],[98.4,23419],[92.7,23504],[82.3,23588],[74.3,23669],[71.4,23752],[71.4,23826],[71.3,23907],[72,24002],[73.6,24086],[81.7,24169],[88.3,24253],[93,24336],[94.9,24420],[95.7,24497],[97.3,24586],[97.9,24665],[98.4,24752],[98.6,24835],[99.7,24921],[100,25002],[100,25085],[100,25159],[100,25251],[100,25334],[100,25411],[99.9,25503],[98.2,25587],[95.1,25671],[90.7,25754],[89.1,25837],[88.8,25908],[88.8,25993],[88.8,26077],[88.8,26168],[88.8,26245],[88.8,26324],[88.8,26408],[88.8,26491],[88.8,26574]]",1152.5826,1155.7451,99.89583333,2.1125,"[{""rating"":99.89583333333334,""responseTime"":2.112500000000182}]",space,2.6184,,1155.7451,Partially,50,1155.7478,,,[],,0,1,1,1,1,audio/Narrative7Situation1.wav,audio/Narrative8Situation1.wav,audio/Narrative5Situation1.wav,audio/Narrative6Situation1.wav,2,5,5,2,,,,,,,,,,,,,,,,,,,,,,,,,,,,,,,,,,,,,
,,,,,6128fd492700069e594016c9,2025-07-07_23h22.48.925,group3.4_multiperson,2023.2.2,Win32,59.88023952,686c2ebf0248f13bef9af11f,686c8e91677ea7c34f42c62f,,,,,,,,,,,,,,,,,,,,,,,,,,,,,1155.7482,2,audio/Narrative6Situation2.wav,1158.7514,,1158.7515,1187.2618,"[[999,2],[999,104],[999,184],[999,266],[999,349],[999,444],[39.4,527],[32.9,610],[33.4,694],[38.2,777],[39.1,861],[40.7,945],[42.9,1028],[45.3,1111],[46.6,1186],[46.6,1277],[46.6,1350],[46.7,1434],[46.7,1516],[48.3,1612],[55.6,1694],[55.9,1766],[55.9,1849],[55.9,1935],[55.9,2026],[56,2111],[54.1,2194],[53.6,2268],[53,2362],[51.4,2444],[51.4,2519],[51.4,2608],[51.4,2689],[51.4,2778],[51.4,2850],[51.4,2934],[51.4,3021],[51.4,3100],[51.4,3186],[51.4,3278],[51.3,3354],[51.3,3444],[51.3,3520],[51.3,3600],[51.3,3687],[51.3,3778],[51.3,3860],[51.3,3933],[51.3,4027],[51.3,4101],[51.3,4183],[51.3,4277],[51.3,4351],[51.3,4438],[51.3,4517],[51.3,4602],[51.3,4684],[51.5,4778],[65.8,4862],[92.3,4946],[94.3,5017],[96.4,5112],[97.2,5195],[97.2,5269],[97.2,5361],[97.9,5446],[99.8,5529],[99.9,5611],[99.9,5695],[99.9,5767],[99.9,5862],[99.9,5936],[99.9,6027],[99.9,6101],[99.9,6184],[99.9,6278],[99.9,6361],[99.9,6436],[99.9,6522],[99.9,6602],[99.9,6684],[99.9,6777],[99.9,6856],[99.9,6934],[99.9,7018],[99.9,7101],[99.9,7186],[99.9,7278],[99.9,7362],[99.9,7434],[99.9,7518],[99.9,7606],[99.9,7690],[99.9,7778],[99.9,7851],[99.9,7934],[99.9,8020],[99.9,8111],[99.9,8196],[99.9,8269],[99.9,8352],[99.9,8435],[99.9,8518],[99.9,8604],[99.9,8685],[99.9,8779],[99.9,8857],[99.9,8941],[99.9,9028],[99.9,9104],[99.9,9185],[99.9,9270],[99.9,9362],[99.9,9445],[99.9,9524],[99.9,9612],[99.9,9696],[99.9,9768],[99.9,9863],[99.9,9940],[99.9,10019],[99.9,10112],[99.9,10195],[99.9,10271],[99.9,10352],[99.9,10439],[99.9,10530],[99.9,10602],[99.9,10685],[99.9,10769],[99.9,10852],[99.9,10938],[99.9,11019],[99.9,11103],[99.9,11185],[99.9,11269],[99.9,11357],[99.7,11447],[99.4,11524],[98.9,11607],[98.8,11696],[98.8,11769],[98.8,11854],[98.8,11947],[98.8,12019],[98.8,12104],[98.8,12196],[98.8,12271],[98.8,12363],[98.8,12436],[98.8,12525],[98.8,12603],[98.8,12686],[98.1,12781],[97.8,12864],[97.8,12936],[97.7,13031],[97.4,13108],[96.9,13198],[93.6,13283],[85.2,13366],[61.8,13449],[36.6,13532],[16.6,13614],[4.9,13698],[3.5,13782]]",1187.2627,1190.5231,0.625,1.8244,"[{""rating"":0.6249999999999978,""responseTime"":1.8244000000058804}]",space,2.7028,,1190.5232,Definitely yes,100,1190.5333,,,[],,0,2,2,2,1,audio/Narrative7Situation2.wav,audio/Narrative8Situation2.wav,audio/Narrative5Situation2.wav,audio/Narrative6Situation2.wav,3,3,3,3,,,,,,,,,,,,,,,,,,,,,,,,,,,,,,,,,,,,,
,,,,,6128fd492700069e594016c9,2025-07-07_23h22.48.925,group3.4_multiperson,2023.2.2,Win32,59.88023952,686c2ebf0248f13bef9af11f,686c8e91677ea7c34f42c62f,,,,,,,,,,,,,,,,,,,,,,,,,,,,,1190.534,2,audio/Narrative6Situation3.wav,1195.5564,,1195.5564,1208.1711,"[[44.6,768],[47.7,851],[49.7,933],[50.7,1017],[50.8,1100],[52.8,1184],[75,1268],[84.7,1351],[92.6,1434],[100,1516],[100,1589],[100,1673],[100,1757],[100,1839],[100,1933],[100,2006],[100,2092],[100,2184],[100,2267],[100,2350],[100,2423],[100,2510],[100,2600],[100,2678],[100,2757],[100,2849],[100,2923],[91.4,3019],[59.5,3103],[36.9,3185],[8.3,3269],[4,3351],[3.5,3435],[3,3518],[3,3590],[2.9,3679],[1.6,3768],[1.6,3844],[1.6,3928],[1.6,4007],[1.6,4092],[1.6,4178],[1.6,4257],[1.6,4343],[1.6,4423],[1.6,4518],[1.6,4590],[1.6,4684],[1.6,4757],[1.6,4850],[1.6,4926],[1.6,5007],[1.6,5101],[1.6,5176],[1.6,5257],[1.6,5341],[1.6,5426],[1.6,5517],[1.6,5599],[1.6,5674],[1.6,5759],[1.6,5844],[1.6,5930],[1.6,6017],[1.6,6090],[1.6,6174],[1.6,6260],[1.6,6344],[1.6,6429],[1.6,6508],[1.6,6595],[1.6,6674],[1.6,6760],[1.6,6851],[1.6,6930],[1.6,7010],[1.6,7102],[1.6,7174],[1.6,7268],[1.6,7353],[1.6,7427],[1.6,7513],[1.6,7594],[1.6,7679],[1.6,7769],[1.6,7852],[1.6,7925],[1.6,8018],[1.6,8093],[1.6,8175],[1.6,8260],[1.6,8344],[1.6,8425],[1.6,8508],[1.6,8594],[27,8687],[53,8770],[91.6,8854],[100,8937],[100,9020],[100,9102],[100,9175],[100,9269],[100,9352],[100,9431],[94.4,9520],[59.4,9604],[28.2,9687],[19.8,9770],[19,9845],[17.3,9937],[8.2,10020],[7.7,10092],[6.5,10188],[3.1,10270],[2.4,10353],[1.4,10437],[0.3,11020],[0.6,11103],[2.1,11187],[2.3,11261],[2.3,11352],[2.6,11437],[2.6,11520],[2.7,11605],[2.7,11677],[2.7,11764],[2.9,11854],[2.9,11926],[2.9,12009],[2.9,12093],[2.9,12177],[3,12270],[3.2,12344],[3.2,12426],[3.4,12512],[3.4,12593]]",1208.1712,1215.197,0,5.7741,"[{""rating"":1.4583333333333337,""responseTime"":5.242700000002969},{""rating"":0,""responseTime"":5.77409999999395}]",space,6.486,,1215.1971,Definitely yes,100,1215.1995,,,[],,0,3,3,3,1,audio/Narrative7Situation3.wav,audio/Narrative8Situation3.wav,audio/Narrative5Situation3.wav,audio/Narrative6Situation3.wav,8,4,3,5,,,,,,,,,,,,,,,,,,,,,,,,,,,,,,,,,,,,,
,,,,,6128fd492700069e594016c9,2025-07-07_23h22.48.925,group3.4_multiperson,2023.2.2,Win32,59.88023952,686c2ebf0248f13bef9af11f,686c8e91677ea7c34f42c62f,,,,,,,,,,,,,,,,,,,,,,,,,,,,,1215.1998,2,audio/Narrative6Situation4.wav,1217.2044,,1217.2045,1229.8346,"[[42.6,358],[35.8,692],[35.8,766],[35.5,860],[35.5,939],[35.3,1026],[33.2,1109],[32,1193],[32.1,1276],[38.3,1359],[41.9,1437],[42.4,1526],[42.5,1605],[42.7,1688],[42.8,1768],[42.6,1859],[42.3,1943],[42.3,2015],[42.3,2109],[42.3,2192],[42.2,2269],[41.7,2359],[41.6,2436],[41.3,2520],[41,2602],[38.8,2694],[28.6,2777],[27.4,2851],[26.6,2944],[14.7,3027],[6.1,3110],[5.8,3184],[5.8,3265],[5.8,3348],[5.8,3437],[5.8,3525],[5.8,3598],[6.3,3693],[32.8,3777],[71.4,3860],[86.8,3944],[100,4028],[100,4109],[100,4189],[100,4277],[100,4360],[100,4444],[100,4518],[100,4609],[100,4692],[100,4768],[100,4849],[100,4934],[100,5027],[100,5110],[100,5194],[100,5276],[100,5353],[100,5444],[100,5527],[100,5610],[100,5685],[100,5768],[100,5860],[100,5943],[100,6016],[100,6100],[100,6192],[100,6266],[96.8,6361],[92.5,6445],[91.5,6528],[29.9,6945],[16.7,7028],[15.4,7111],[12.1,7196],[5.6,7278],[3.9,7361],[0.1,7944],[3.5,8029],[12.6,8112],[35.3,8196],[62.3,8279],[88,8362],[97.2,8446],[99.3,8529],[100,8612],[100,8694],[100,8773],[100,8862],[99,8946],[98.8,9028],[98.8,9103],[98.8,9184],[98.6,9269],[98.6,9361],[98.6,9436],[98.6,9527],[98.8,9611],[98.8,9684],[98.8,9778],[98.8,9851],[98.8,9945],[98.8,10022],[98.8,10111],[98.8,10195],[98.8,10269],[98.8,10353],[98.8,10446],[98.8,10519],[98.8,10605],[98.8,10685],[98.8,10768],[98.8,10854],[98.8,10946],[98.8,11028],[98.8,11104],[98.8,11195],[98.8,11268],[98.8,11353],[98.8,11447],[98.8,11528],[98.8,11612],[98.8,11684],[98.8,11778],[98.6,11858],[97.9,11942],[96.7,12030],[92.8,12113],[85.3,12196],[79.2,12279],[73.5,12366],[71,12450],[70.1,12532],[69.7,12613]]",1229.8346,1234.4697,98.95833333,3.6529,"[{""rating"":98.95833333333333,""responseTime"":3.652900000005957}]",space,4.1026,,1234.4698,Definitely yes,100,1234.4714,,,[],,0,4,4,4,1,audio/Narrative7Situation4.wav,audio/Narrative8Situation4.wav,audio/Narrative5Situation4.wav,audio/Narrative6Situation4.wav,3,3,1,2,,,,,,,,,,,,,,,,,,,,,,,,,,,,,,,,,,,,,
,,,,,6128fd492700069e594016c9,2025-07-07_23h22.48.925,group3.4_multiperson,2023.2.2,Win32,59.88023952,686c2ebf0248f13bef9af11f,686c8e91677ea7c34f42c62f,,,,,,,,,,,,,,,,,,,,,,,,,,,,,1234.4718,2,audio/Narrative6Situation5.wav,1236.4866,,1236.4866,1244.466,"[[39.8,90],[39.8,182],[39.8,265],[39.8,338],[39.8,423],[39.3,517],[38.9,600],[36.7,684],[32.4,767],[32.3,843],[31.9,926],[26.9,1017],[12.5,1101],[8.6,1176],[7.9,1267],[7.5,1342],[7.3,1432],[6.8,1516],[6.7,1590],[6.7,1683],[6.7,1758],[6.7,1848],[6.7,1922],[6.9,2010],[60.8,2101],[100,2518],[100,2602],[100,2684],[100,2767],[100,2851],[100,2933],[100,3024],[100,3099],[100,3183],[100,3267],[100,3350],[100,3424],[100,3516],[99.9,3601],[96.5,3684],[94.4,3767],[94.4,3842],[94.3,3929],[94.1,4018],[93,4102],[91.3,4186],[90.7,4260],[90.7,4349],[90.6,4427],[90.6,4507],[90.6,4590],[90.6,4676],[90.1,4768],[88.8,4852],[87.9,4935],[87.3,5018],[85.7,5100],[85.7,5176],[85.7,5267],[85.7,5340],[85.7,5426],[86.8,5518],[84.5,5603],[81.4,5685],[80.6,5767],[80.6,5841],[80.6,5925],[81.4,6019],[87.5,6102],[94.2,6186],[95.3,6257],[95.3,6343],[95.3,6433],[95.3,6509],[95.3,6601],[95.3,6673],[95.3,6757],[95.3,6847],[95.3,6934],[95.3,7008],[95.7,7101],[96.3,7186],[96.6,7268],[96.6,7341],[96.9,7435],[97.1,7519],[97.3,7590],[97.4,7678],[97.5,7768],[97.5,7840],[97.5,7926]]",1244.4662,1248.6574,100,3.6739,"[{""rating"":98.64583333333333,""responseTime"":3.2066000000090753},{""rating"":100,""responseTime"":3.6739000000061424}]",space,3.6453,,1248.6574,Not at all,0,1248.6602,,,[],,0,5,5,5,1,audio/Narrative7Situation5.wav,audio/Narrative8Situation5.wav,audio/Narrative5Situation5.wav,audio/Narrative6Situation5.wav,5,2,5,2,,,,,,,,,,,,,,,,,,,,,,,,,,,,,,,,,,,,,
,,,,,6128fd492700069e594016c9,2025-07-07_23h22.48.925,group3.4_multiperson,2023.2.2,Win32,59.88023952,686c2ebf0248f13bef9af11f,686c8e91677ea7c34f42c62f,,,,,,,,,,,,,,,,,,,,,,,,,,,,,1248.6605,2,audio/Narrative6Situation6.wav,1250.6631,,1250.6633,1261.7496,"[[999,1],[999,99],[999,182],[999,266],[999,350],[999,433],[999,516],[999,599],[999,684],[999,770],[59.2,851],[60.7,934],[67.3,1017],[79.5,1100],[80.5,1185],[86.6,1267],[93.4,1350],[98.3,1434],[100,1518],[100,1601],[100,1683],[100,1766],[100,1849],[100,1933],[100,2016],[100,2100],[100,2183],[100,2266],[100,2350],[100,2433],[100,2518],[100,2600],[100,2685],[100,2766],[100,2850],[100,2933],[100,3017],[100,3100],[100,3183],[100,3267],[100,3350],[100,3433],[100,3517],[100,3600],[100,3684],[100,3767],[100,3850],[100,3934],[100,4017],[100,4101],[100,4184],[100,4267],[100,4350],[100,4434],[100,4517],[100,4600],[100,4683],[100,4767],[100,4850],[100,4934],[100,5017],[100,5100],[100,5184],[100,5267],[100,5350],[100,5434],[100,5517],[100,5601],[100,5684],[93.2,5769],[67.7,5852],[41.5,5935],[20.3,6018],[7.4,6102],[0.8,6770],[1.4,6851],[1.4,6934],[1.4,7018],[1.4,7101],[1.4,7184],[1.4,7268],[1.4,7351],[1.4,7435],[1.4,7518],[1.1,7602],[0.7,7685],[0.5,7768],[0.5,7851],[0.5,7935],[0.5,8018],[0.9,8103],[44.9,8186],[84.6,8269],[100,8353],[100,8436],[100,8518],[100,8601],[100,8686],[100,8770],[100,8853],[100,8936],[100,9018],[100,9102],[100,9185],[100,9269],[100,9352],[100,9435],[100,9519],[100,9602],[100,9685],[100,9769],[100,9852],[100,9935],[100,10019],[100,10102],[100,10186],[100,10269],[100,10352],[100,10435],[100,10519],[100,10602],[100,10685],[100,10769],[100,10852],[100,10935],[100,11019]]",1261.7497,1265.0445,99.27083333,2.5053,"[{""rating"":99.27083333333333,""responseTime"":2.5053000000120846}]",space,2.739,,1265.0446,Partially,50,1265.0477,,,[],,0,6,6,6,1,audio/Narrative7Situation6.wav,audio/Narrative8Situation6.wav,audio/Narrative5Situation6.wav,audio/Narrative6Situation6.wav,3,2,3,2,,,,,,,,,,,,,,,,,,,,,,,,,,,,,,,,,,,,,
,,,,,6128fd492700069e594016c9,2025-07-07_23h22.48.925,group3.4_multiperson,2023.2.2,Win32,59.88023952,686c2ebf0248f13bef9af11f,686c8e91677ea7c34f42c62f,,,,,,,,,,,,,,,,,,,,,,,,,,,,,1265.0479,2,audio/Narrative6Situation7.wav,1270.0534,,1270.0536,1294.9109,"[[48.3,449],[48,532],[47.7,615],[47.7,699],[48.5,783],[49.2,866],[49.3,949],[49.3,1032],[49.3,1115],[49.3,1198],[49.3,1282],[49.3,1365],[49.3,1448],[49.3,1532],[49.3,1615],[49.3,1699],[49.3,1782],[49.3,1865],[49.3,1949],[49.3,2032],[49.3,2115],[49.3,2199],[49.3,2282],[49.3,2365],[49.3,2449],[49.3,2533],[49.3,2616],[49.3,2699],[49.3,2782],[49.3,2865],[49.3,2949],[49.3,3032],[49.3,3116],[49.3,3199],[49,3283],[39.9,3367],[23.4,3451],[1,3533],[1.6,4034],[4.7,4116],[4.8,4199],[4.8,4283],[2.9,4367],[1.9,4449],[1.7,4533],[1.7,4616],[1.7,4699],[1.3,4783],[1.3,4866],[1.3,4950],[1.3,5033],[1.3,5117],[1.3,5200],[1.3,5283],[1.3,5366],[1.3,5450],[1.1,5534],[1.1,5616],[1.1,5700],[1.1,5783],[1.1,5867],[1.1,5950],[1.1,6033],[1.1,6117],[1.1,6200],[1.1,6283],[1.1,6367],[1.1,6450],[1.1,6533],[1.1,6617],[1.1,6700],[1.1,6783],[1.1,6867],[1.1,6950],[1.1,7034],[1.1,7117],[1.1,7200],[1.1,7284],[1.1,7367],[11.7,7451],[60.4,7534],[74,7619],[88.3,7701],[95.8,7784],[100,7868],[100,7951],[100,8034],[100,8118],[98.6,8201],[97.7,8284],[97.6,8367],[97.6,8450],[97.6,8534],[97.8,8618],[98.3,8701],[98.9,8785],[99.2,8867],[99.3,8951],[99.3,9034],[99.3,9117],[99.3,9201],[99.3,9284],[99.3,9368],[99.3,9451],[99.3,9534],[99.3,9618],[99.3,9701],[99.3,9784],[99.3,9868],[99.3,9951],[99.3,10034],[99.3,10118],[99.3,10201],[99.3,10284],[99.6,10368],[100,10452],[100,10534],[100,10618],[100,10701],[100,10784],[100,10868],[100,10951],[100,11035],[100,11119],[100,11201],[100,11285],[100,11368],[100,11452],[100,11535],[100,11619],[100,11702],[100,11785],[100,11869],[100,11952],[100,12035],[100,12119],[100,12202],[100,12285],[100,12369],[100,12452],[100,12535],[100,12619],[100,12702],[100,12785],[100,12869],[100,12952],[100,13035],[100,13119],[100,13202],[100,13285],[100,13369],[100,13452],[100,13535],[100,13619],[100,13702],[100,13785],[100,13869],[100,13952],[100,14036],[100,14119],[100,14202],[100,14286],[100,14369],[100,14452],[100,14536],[100,14620],[100,14703],[100,14786],[100,14869],[100,14953],[100,15036],[100,15120],[100,15203],[100,15286],[100,15370],[100,15453],[100,15537],[100,15619],[100,15703],[100,15786],[100,15870],[100,15953],[99.4,16037],[94.9,16120],[80.9,16204],[45.8,16287],[18.5,16370],[4.2,16454],[16.8,18288],[93.4,18371],[100,18454],[100,18788],[100,18871],[100,18954],[100,19037],[100,19121],[100,19205],[100,19288],[100,19371],[100,19454],[100,19537],[100,19621],[100,19704],[100,19787],[100,19871],[100,19955],[100,20037],[100,20121],[100,20204],[100,20287],[100,20371],[100,20454],[100,20538],[100,20621],[100,20704],[100,20788],[100,20871],[71.5,20955],[21.7,21039]]",1294.9114,1296.8938,0,0.1568,"[{""rating"":0,""responseTime"":0.15680000001202643}]",space,1.44,,1296.8939,Partially,50,1296.8967,,,[],,0,7,7,7,1,audio/Narrative7Situation7.wav,audio/Narrative8Situation7.wav,audio/Narrative5Situation7.wav,audio/Narrative6Situation7.wav,5,3,4,5,,,,,,,,,,,,,,,,,,,,,,,,,,,,,,,,,,,,,
,,,,,6128fd492700069e594016c9,2025-07-07_23h22.48.925,group3.4_multiperson,2023.2.2,Win32,59.88023952,686c2ebf0248f13bef9af11f,686c8e91677ea7c34f42c62f,,,,,,,,,,,,,,,,,,,,,,,,,,,,,1296.8977,2,audio/Narrative6Situation8.wav,1301.9119,,1301.9121,1308.7643,"[[999,0],[999,100],[999,183],[999,266],[999,351],[999,434],[45.2,517],[48.4,600],[48.6,683],[48.6,767],[48.9,851],[49,934],[49.2,1016],[49.4,1100],[49.4,1183],[49.4,1266],[49.4,1350],[49.7,1433],[49.7,1517],[49.7,1600],[49.7,1683],[49.7,1767],[49.7,1850],[49.7,1933],[49.7,2017],[49.6,2100],[49.6,2183],[49.6,2267],[49.6,2350],[49.6,2434],[49.6,2517],[49.4,2601],[49.3,2684],[49.3,2767],[49.3,2850],[49.3,2934],[49.3,3017],[49.3,3100],[49.3,3184],[49.3,3267],[49.3,3351],[49.3,3434],[49.3,3517],[49.3,3601],[49.3,3684],[49.3,3767],[49.3,3851],[49.3,3934],[49.3,4017],[48.8,4101],[43.5,4186],[34.3,4269],[18.4,4352],[1.5,4435]]",1308.7645,1310.4982,0.833333333,1.0254,"[{""rating"":0.8333333333333359,""responseTime"":1.025399999991123}]",space,1.1881,,1310.4983,Not at all,0,1310.5049,,,[],,0,8,8,8,1,audio/Narrative7Situation8.wav,audio/Narrative8Situation8.wav,audio/Narrative5Situation8.wav,audio/Narrative6Situation8.wav,2,3,3,5,,,,,,,,,,,,,,,,,,,,,,,,,,,,,,,,,,,,,
,,,,,6128fd492700069e594016c9,2025-07-07_23h22.48.925,group3.4_multiperson,2023.2.2,Win32,59.88023952,686c2ebf0248f13bef9af11f,686c8e91677ea7c34f42c62f,,,,,,,,,,,,,,,,,,,,,,,,,,,,,1310.5051,2,audio/Narrative6Situation9.wav,1314.5159,,1314.516,1324.4694,"[[0.5,1016],[0.5,1100],[0.5,1183],[0.5,1266],[0.5,1350],[0.5,1433],[0.5,1516],[0.5,1600],[0.5,1684],[0.5,1767],[0.5,1850],[0.5,1934],[0.5,2017],[0.5,2100],[0.5,2183],[0.5,2267],[0.5,2350],[0.5,2433],[0.5,2517],[0.5,2600],[0.5,2684],[0.5,2767],[0.5,2850],[0.5,2934],[0.5,3017],[0.5,3101],[0.5,3184],[0.5,3267],[0.5,3350],[0.5,3434],[0.5,3517],[0.5,3600],[0.5,3684],[0.5,3767],[0.5,3851],[0.5,3934],[0.5,4017],[0.5,4101],[0.5,4184],[0.5,4268],[0.5,4351],[0.5,4434],[0.5,4518],[0.5,4601],[0.5,4684],[0.5,4768],[0.5,4851],[0.5,4934],[0.5,5018],[0.5,5101],[0.5,5185],[0.5,5268],[0.5,5351],[0.5,5435],[0.5,5518],[0.5,5601],[0.5,5684],[0.5,5768],[0.5,5851],[0.5,5934],[0.5,6018],[0.5,6102],[0.5,6185],[0.5,6268],[0.5,6351],[0.5,6435],[0.5,6518],[0.5,6602],[0.5,6685],[0.5,6768],[0.5,6852],[0.5,6935],[0.5,7018],[0.5,7101],[0.5,7185],[0.5,7268],[0.5,7352],[0.5,7435],[0.5,7519],[0.5,7602],[0.5,7685],[0.5,7769],[0.5,7852],[0.5,7935],[0.5,8019],[0.5,8102],[0.5,8185],[0.5,8269],[0.5,8352],[0.5,8436],[0.5,8519],[0.5,8602],[0.5,8686],[0.5,8769],[0.5,8852],[0.5,8936],[0.5,9019],[0.5,9102],[0.5,9186],[0.5,9269],[0.5,9352],[0.5,9436],[0.5,9519],[0.5,9603],[0.5,9686],[0.5,9770],[0.5,9853],[0.5,9936]]",1324.4696,1326.0814,0.520833333,0.6605,"[{""rating"":0.5208333333333315,""responseTime"":0.6605000000001837}]",space,1.0603,,1326.0815,Partially,50,1326.085,,,[],,0,9,9,9,1,audio/Narrative7Situation9.wav,audio/Narrative8Situation9.wav,audio/Narrative5Situation9.wav,audio/Narrative6Situation9.wav,2,3,3,4,,,,,,,,,,,,,,,,,,,,,,,,,,,,,,,,,,,,,
,,,,,6128fd492700069e594016c9,2025-07-07_23h22.48.925,group3.4_multiperson,2023.2.2,Win32,59.88023952,686c2ebf0248f13bef9af11f,686c8e91677ea7c34f42c62f,,,,,,,,,,,,,,,,,,,,,,,,,,,,,1326.0853,2,audio/Narrative5Situation1.wav,1331.0935,,1331.0935,1344.3754,"[[0.4,694],[0.4,777],[0.4,861],[0.4,944],[0.4,1027],[0.4,1111],[0.4,1194],[0.4,1277],[0.4,1361],[0.4,1444],[0.4,1527],[0.4,1611],[0.4,1694],[0.4,1777],[0.4,1861],[0.4,1944],[0.4,2028],[0.4,2111],[0.4,2194],[0.4,2278],[0.4,2361],[0.4,2445],[0.4,2528],[0.4,2611],[0.4,2695],[0.4,2778],[0.4,2861],[0.4,2945],[0.4,3028],[0.4,3111],[0.4,3195],[0.8,3279],[1.3,3361],[1.3,3445],[1.3,3528],[1.3,3611],[1.3,3695],[1.3,3779],[1.3,3862],[1.3,3945],[1.3,4028],[0.9,4112],[0.7,4196],[0.7,4279],[0.7,4362],[0.7,4445],[0.7,4529],[0.7,4612],[0.7,4695],[0.7,4779],[0.7,4862],[0.7,4945],[0.7,5029],[0.7,5112],[0.7,5195],[0.7,5279],[0.7,5362],[0.7,5445],[0.7,5529],[0.7,5612],[0.7,5695],[0.7,5779],[0.7,5862],[0.7,5945],[0.7,6029],[0.7,6112],[0.7,6196],[0.7,6279],[0.7,6362],[0.7,6446],[0.7,6529],[0.7,6613],[0.7,6696],[0.7,6779],[0.7,6862],[0.7,6946],[0.7,7029],[0.7,7113],[0.7,7196],[0.7,7279],[0.7,7362],[0.7,7446],[0.7,7529],[0.7,7613],[0.7,7696],[0.7,7779],[0.7,7863],[0.7,7946],[0.7,8029],[1.4,8114],[7.9,8197],[50.4,8280],[79.6,8364],[97.7,8947],[96.9,9030],[96.4,9114],[92.7,9196],[92.9,9280],[97.2,9364],[98.5,9447],[98.9,9530],[98.9,9613],[98.9,9697],[99.2,9781],[99.6,9864],[99.7,9947],[99.7,10030],[99.8,10114],[99.8,10197],[99.8,10280],[99.8,10364],[99.8,10447],[99.8,10530],[99.8,10614],[99.8,10697],[99.8,10780],[99.8,10864],[99.7,10948],[99.6,11030],[99.5,11114],[99.3,11198],[99,11280],[98.1,11364],[98,11447],[98,11531],[98,11614],[98,11697],[98,11781],[98,11864],[98,11948],[98,12031],[98,12114],[98,12198],[98,12281],[98,12364],[98,12448],[98,12531],[98,12614],[98,12698],[98,12781],[98,12864],[98,12948],[98,13031],[98,13114],[98,13198],[98,13281]]",1344.3757,1353.1783,52.5,8.3294,"[{""rating"":79.58333333333334,""responseTime"":7.2767000000028474},{""rating"":52.5,""responseTime"":8.329399999990983}]",space,8.2603,,1353.1785,Definitely yes,100,1369.9668,100,9.0742,"[{""rating"":81.14583333333334,""responseTime"":5.104900000005955},{""rating"":100,""responseTime"":9.074200000002975}]",space,0,10,10,10,1,audio/Narrative8Situation1.wav,audio/Narrative7Situation1.wav,audio/Narrative6Situation1.wav,audio/Narrative5Situation1.wav,5,2,2,5,,,16.2442,,,,,,,,,,,,,,,,,,,,,,,,,,,,,,,,,,
,,,,,6128fd492700069e594016c9,2025-07-07_23h22.48.925,group3.4_multiperson,2023.2.2,Win32,59.88023952,686c2ebf0248f13bef9af11f,686c8e91677ea7c34f42c62f,,,,,,,,,,,,,,,,,,,,,,,,,,,,,1369.9677,2,audio/Narrative5Situation2.wav,1372.9678,,1372.968,1402.4546,"[[999,0],[999,100],[999,194],[999,267],[999,353],[999,433],[999,516],[999,601],[999,685],[999,769],[999,861],[999,943],[999,1016],[999,1110],[999,1188],[999,1270],[999,1356],[999,1445],[999,1528],[999,1612],[69.1,1695],[70.1,1778],[63.9,1862],[53.9,1945],[44,2028],[43.4,2100],[43.4,2183],[43.4,2277],[43.4,2352],[43.2,2439],[43.5,2529],[45.3,2612],[48.8,2695],[49.1,2767],[49.1,2855],[49.3,2936],[49.6,3019],[49.6,3100],[49.6,3193],[49.6,3270],[49.6,3350],[49.6,3435],[49.6,3517],[49.6,3611],[49.6,3686],[49.6,3778],[49.6,3851],[49.6,3944],[49.6,4017],[49.6,4101],[49.6,4195],[49.6,4271],[49.6,4352],[49.6,4437],[49.6,4517],[45.8,4613],[26,4697],[4.9,4779],[1.5,4853],[1.4,4934],[28.1,8947],[77,9031],[100,9114],[100,9185],[100,9269],[100,9357],[100,9436],[100,9530],[100,9614],[100,9698],[100,9780],[100,9864],[100,9947],[100,10024],[100,10103],[100,10187],[100,10279],[100,10353],[100,10446],[100,10519],[100,10604],[100,10691],[100,10774],[100,10853],[100,10936],[100,11021],[100,11110],[100,11191],[100,11271],[100,11363],[100,11441],[100,11525],[100,11613],[100,11686],[100,11775],[100,11855],[100,11937],[100,12030],[100,12106],[100,12186],[100,12275],[100,12356],[100,12446],[100,12521],[100,12604],[100,12687],[100,12778],[100,12855],[100,12942],[100,13022],[100,13114],[100,13187],[100,13270],[100,13354],[100,13437],[100,13521],[100,13604],[100,13692],[100,13780],[100,13859],[100,13947],[100,14025],[100,14104],[100,14189],[100,14274],[100,14355],[100,14447],[100,14523],[100,14604],[100,14688],[100,14770],[100,14864],[100,14937],[100,15031],[100,15105],[100,15188],[100,15281],[100,15354],[100,15448],[100,15532],[100,15604],[100,15697],[100,15781],[100,15857],[100,15943],[100,16021],[100,16105],[100,16198],[100,16276],[100,16355],[100,16438],[100,16526],[100,16614],[100,16688],[100,16782],[100,16866],[100,16939],[100,17026],[100,17105],[100,17190],[100,17283],[100,17355],[100,17448],[100,17532],[100,17616],[100,17693],[100,17774],[100,17865],[100,17949],[100,18021],[100,18106],[100,18199],[100,18276],[100,18366],[100,18438],[99.1,18534],[66.5,18617],[28.1,18701],[0.6,19283],[0.6,19356],[0.6,19439],[0.6,19524],[0.6,19617],[0.6,19689],[0.6,19783],[0.6,19855],[0.6,19949],[0.6,20022],[0.6,20106],[0.6,20189],[0.6,20283],[0.6,20356],[0.6,20439],[0.6,20523],[0.6,20617],[0.6,20689],[0.6,20783],[0.6,20867],[0.6,20939],[0.6,21026],[0.6,21106],[0.6,21192],[0.6,21284],[0.6,21356],[0.6,21451],[0.6,21534],[0.6,21621],[0.6,21691],[0.6,21783],[0.6,21857],[0.6,21950],[0.6,22023],[0.6,22107],[0.6,22190],[0.6,22276],[0.6,22356],[0.6,22450],[0.6,22534],[0.6,22607],[0.6,22690],[0.6,22775],[0.6,22867],[0.6,22946],[0.6,23024],[0.6,23107],[0.6,23193],[0.6,23284],[0.6,23359],[0.6,23451],[0.6,23534],[0.6,23607],[0.6,23700],[0.6,23784],[0.6,23857],[0.6,23951],[0.6,24026],[0.6,24108],[0.6,24201],[0.6,24275],[0.6,24367],[0.6,24440],[0.6,24533],[0.6,24617],[0.6,24692],[0.6,24784],[0.6,24867],[0.6,24941],[0.6,25035],[0.6,25107],[0.6,25191],[0.6,25281],[0.6,25357],[0.6,25452],[0.6,25524],[0.6,25619],[0.6,25691],[0.6,25779],[0.6,25867],[0.6,25946],[0.6,26026],[0.6,26118],[0.6,26193],[0.6,26275],[0.6,26357],[0.6,26452],[0.6,26524],[0.6,26618],[0.6,26691],[0.6,26778],[0.6,26869],[0.6,26945],[0.6,27035],[0.6,27119],[0.6,27191],[0.6,27275],[0.6,27368],[0.6,27451],[0.6,27525],[0.6,27609],[0.6,27702],[0.6,27778],[0.6,27860],[0.6,27941],[0.6,28025],[0.6,28109],[0.6,28194],[0.6,28281],[0.6,28368],[0.6,28442],[0.6,28527],[0.6,28619],[10.6,28705],[27.5,28788],[29.5,28870],[33.2,28954],[34.5,29037],[35.4,29118],[35.4,29192],[36.1,29286],[44.5,29371],[54,29453]]",1402.4548,1405.9561,0,2.2194,"[{""rating"":6.458333333333332,""responseTime"":1.6326000000087788},{""rating"":0,""responseTime"":2.2194000000058622}]",space,2.9673,,1405.9561,Not at all,0,1405.9593,,,[],,0,11,11,11,1,audio/Narrative8Situation2.wav,audio/Narrative7Situation2.wav,audio/Narrative6Situation2.wav,audio/Narrative5Situation2.wav,3,3,3,3,,,,,,,,,,,,,,,,,,,,,,,,,,,,,,,,,,,,,
,,,,,6128fd492700069e594016c9,2025-07-07_23h22.48.925,group3.4_multiperson,2023.2.2,Win32,59.88023952,686c2ebf0248f13bef9af11f,686c8e91677ea7c34f42c62f,,,,,,,,,,,,,,,,,,,,,,,,,,,,,1405.9596,2,audio/Narrative5Situation3.wav,1408.9654,,1408.9656,1422.8838,"[[47.7,114],[48.2,197],[48.4,279],[48.6,363],[48.6,446],[48.6,529],[48.6,613],[48.6,696],[48.6,780],[48.6,863],[48.6,947],[48.6,1030],[49,1114],[49.6,1197],[50,1280],[50,1363],[50,1446],[50,1530],[50,1613],[50,1696],[50,1780],[50,1863],[50,1947],[50,2030],[50,2113],[50,2197],[50,2280],[50,2363],[50,2447],[50,2530],[50,2613],[50,2697],[50,2780],[50,2864],[50,2947],[50,3030],[51.7,3115],[71,3198],[80.1,3281],[96.1,3364],[97.7,3448],[99,3531],[99,3614],[99,3697],[99,3780],[99,3864],[99,3947],[99,4030],[99,4114],[99,4197],[99,4281],[99,4364],[99,4448],[99,4531],[99,4614],[99,4698],[99,4781],[99,4864],[99,4947],[99,5031],[99,5114],[99,5198],[99,5281],[99,5364],[99,5448],[99,5531],[99,5614],[99,5698],[99,5781],[99,5865],[99,5948],[99,6031],[99,6115],[99,6198],[99,6282],[99,6365],[99,6448],[99,6531],[99,6615],[99,6698],[99,6781],[99,6865],[99,6948],[99,7031],[99,7115],[99,7198],[99,7281],[99,7365],[99,7448],[98.9,7532],[98.8,7615],[98.8,7699],[98.8,7782],[98.8,7865],[98.8,7948],[98.8,8032],[98.8,8115],[98.8,8199],[98.8,8282],[98.8,8365],[98.8,8449],[98.8,8532],[98.8,8615],[98.8,8699],[98.8,8782],[98.8,8865],[98.8,8949],[98.8,9032],[98.8,9115],[98.8,9199],[98.8,9282],[98.8,9366],[98.8,9449],[98.8,9532],[98.8,9616],[98.8,9699],[98.8,9783],[98.8,9866],[98.8,9949],[98.8,10033],[98.8,10116],[98.8,10199],[98.8,10283],[98.8,10366],[98.8,10449],[98.8,10533],[98.8,10616],[98.8,10700],[98.8,10783],[98.8,10866],[98.8,10950],[98.8,11033],[98.8,11116],[98.8,11200],[98.8,11283],[98.8,11366],[98.8,11450],[98.8,11533],[98.8,11616],[98.8,11700],[98.8,11783],[98.8,11866],[98.8,11950],[98.8,12033],[98.8,12116],[98.8,12200],[98.8,12283],[98.8,12366],[98.8,12450],[98.8,12534],[98.8,12617],[98.8,12700],[98.8,12784],[98.8,12867],[98.8,12950],[98,13035],[97.2,13118],[92,13202],[75.4,13285],[39.5,13367],[13.6,13451],[5.4,13534],[4.9,13618],[4.7,13700],[4.4,13784],[3.3,13868]]",1422.8839,1427.6682,0.208333333,1.0117,"[{""rating"":0.2083333333333326,""responseTime"":1.0117000000029748}]",space,4.2493,,1427.6683,Not at all,0,1427.6745,,,[],,0,12,12,12,1,audio/Narrative8Situation3.wav,audio/Narrative7Situation3.wav,audio/Narrative6Situation3.wav,audio/Narrative5Situation3.wav,4,8,5,3,,,,,,,,,,,,,,,,,,,,,,,,,,,,,,,,,,,,,
,,,,,6128fd492700069e594016c9,2025-07-07_23h22.48.925,group3.4_multiperson,2023.2.2,Win32,59.88023952,686c2ebf0248f13bef9af11f,686c8e91677ea7c34f42c62f,,,,,,,,,,,,,,,,,,,,,,,,,,,,,1427.675,2,audio/Narrative5Situation4.wav,1428.6864,,1428.6865,1449.0754,"[[65.7,103],[67.4,181],[59.5,599],[54.1,682],[54,765],[53.8,849],[53.1,933],[52.6,1015],[52.3,1099],[51.5,1182],[51.5,1265],[51.4,1349],[51.4,1432],[51.4,1515],[50.9,1598],[50.9,1682],[50.9,1765],[50.9,1850],[50.8,1932],[50.8,2015],[50.8,2099],[50.8,2182],[50.8,2265],[58.2,2350],[82.5,2435],[85.2,2517],[86.8,2599],[100,2683],[100,2766],[100,2850],[100,2933],[100,3018],[96,3100],[95.4,3182],[95.4,3266],[95.6,3350],[97.6,3433],[98.4,3517],[98.4,3599],[98.4,3682],[98.6,3767],[98.9,3849],[98.9,3932],[98.9,4016],[98.9,4099],[98.9,4183],[98.9,4266],[98.9,4349],[98.9,4433],[98.9,4516],[98.9,4599],[98.9,4683],[98.6,4767],[93.1,4851],[80.9,4934],[63.5,5018],[35.4,5101],[12.1,5185],[0.1,7684],[0.1,7767],[0.1,7850],[0.1,7934],[0.1,8017],[0.1,8101],[0.1,8184],[0.1,8267],[0.1,8351],[0.1,8434],[0.1,8517],[0.1,8601],[0.1,8684],[0.1,8767],[0.1,8851],[0.1,8934],[0.1,9017],[0.1,9101],[0.1,9184],[0.1,9268],[0.1,9351],[0.1,9434],[0.1,9518],[0.1,9602],[0.1,9685],[2.2,9771],[56.8,9852],[100,9937],[100,10019],[100,10102],[100,10185],[100,10269],[100,10353],[100,10436],[100,10519],[100,10601],[100,10685],[100,10768],[100,10851],[100,10935],[100,11018],[100,11101],[100,11185],[100,11268],[100,11352],[100,11435],[100,11519],[100,11602],[100,11685],[100,11769],[100,11852],[100,11935],[100,12019],[100,12102],[100,12185],[100,12269],[100,12352],[100,12435],[100,12518],[100,12602],[100,12685],[100,12769],[100,12852],[100,12936],[100,13019],[100,13102],[100,13185],[100,13269],[100,13352],[100,13436],[97.8,13520],[97.6,13602],[97.6,13686],[97.4,13769],[97.4,13852],[97.4,13936],[97.4,14019],[97.6,14103],[98.1,14186],[98.4,14270],[98.6,14352],[98.6,14436],[98.6,14519],[98.6,14602],[98.6,14686],[98.6,14769],[98.6,14853],[98.6,14936],[98.6,15019],[98.6,15103],[98.6,15186],[98.6,15269],[98.6,15353],[98.6,15436],[98.6,15519],[98.6,15603],[98.6,15686],[98.6,15770],[98.6,15853],[98.6,15936],[98.6,16019],[98.6,16103],[98.6,16186],[98.6,16270],[98.6,16353],[98.6,16437],[98.6,16520],[98.6,16603],[98.6,16687],[98.6,16770],[98.6,16853],[98.6,16937],[98.6,17020],[98.6,17103],[98.6,17187],[98.6,17270],[98.6,17353],[98.6,17437],[98.6,17520],[98.6,17604],[98.6,17687],[98.6,17770],[98.6,17854],[98.6,17937],[98.6,18020],[98.6,18104],[98.6,18187],[98.6,18270],[98.6,18354],[98.6,18437],[98.6,18521],[98.6,18604],[98.6,18687],[98.6,18770],[98.6,18854],[98.6,18937],[98.6,19021],[98.6,19104],[98.6,19187],[98.6,19271],[98.6,19354],[98.6,19437],[98.6,19521],[98.6,19604],[98.6,19687],[98.6,19771],[98.6,19855],[98.6,19938],[98.6,20021],[98.6,20105],[98.6,20188],[98.6,20271],[98.6,20355]]",1449.0762,1451.1715,98.64583333,0.8927,"[{""rating"":98.64583333333333,""responseTime"":0.8926999999880536}]",space,1.5664,,1451.1716,Definitely yes,100,1451.1795,,,[],,0,13,13,13,1,audio/Narrative8Situation4.wav,audio/Narrative7Situation4.wav,audio/Narrative6Situation4.wav,audio/Narrative5Situation4.wav,3,3,2,1,,,,,,,,,,,,,,,,,,,,,,,,,,,,,,,,,,,,,
,,,,,6128fd492700069e594016c9,2025-07-07_23h22.48.925,group3.4_multiperson,2023.2.2,Win32,59.88023952,686c2ebf0248f13bef9af11f,686c8e91677ea7c34f42c62f,,,,,,,,,,,,,,,,,,,,,,,,,,,,,1451.1802,2,audio/Narrative5Situation5.wav,1456.1944,,1456.1946,1471.6293,"[[24.8,612],[16.4,694],[8.1,778],[3.1,3362],[60.7,3445],[94,3530],[100,3611],[100,3695],[100,3768],[100,3860],[100,3936],[100,4027],[100,4111],[100,4194],[100,4278],[100,4350],[100,4444],[100,4528],[100,4604],[100,4694],[100,4775],[100,4855],[100,4937],[100,5017],[100,5103],[100,5194],[100,5270],[100,5360],[100,5444],[100,5519],[100,5601],[100,5684],[100,5768],[100,5851],[100,5934],[100,6017],[100,6105],[100,6195],[100,6278],[100,6361],[100,6434],[100,6528],[100,6601],[100,6686],[100,6777],[100,6851],[100,6937],[100,7028],[100,7105],[100,7195],[100,7270],[100,7361],[100,7437],[100,7519],[100,7602],[100,7695],[100,7768],[99.7,7863],[76.3,7947],[45.4,8031],[25.8,8114],[19.6,8197],[6.4,8280],[3.5,8354],[4.4,11031],[19.3,11115],[20.5,11198],[22.4,11281],[22.5,11352],[22.5,11438],[22.5,11520],[22.5,11613],[22.5,11696],[22.5,11771],[22.5,11862],[22.5,11946],[22.5,12023],[22.5,12108],[22.5,12187],[22.5,12272],[22.5,12358],[22.5,12437],[22.5,12529],[22.5,12609],[22.5,12691],[22.5,12779],[22.5,12853],[43.9,12948],[70.2,13032],[82.9,13117],[87.1,13198],[97.6,13282],[100,13364],[100,13447],[100,13532],[100,13612],[100,13692],[100,13770],[100,13864],[100,13948],[100,14029],[100,14103],[100,14189],[99.1,14281],[92.2,14365],[85.1,14448],[79.2,14532],[76.9,14617],[74,14698],[70.5,14782],[65.9,14866],[62.5,14949],[61.1,15032],[61.1,15116],[63,15201],[74.2,15284],[87.2,15367]]",1471.6294,1473.7824,99.47916667,0.7148,"[{""rating"":99.47916666666667,""responseTime"":0.7147999999970125}]",space,1.6225,,1473.7824,Definitely yes,100,1473.7884,,,[],,0,14,14,14,1,audio/Narrative8Situation5.wav,audio/Narrative7Situation5.wav,audio/Narrative6Situation5.wav,audio/Narrative5Situation5.wav,2,5,2,5,,,,,,,,,,,,,,,,,,,,,,,,,,,,,,,,,,,,,
,,,,,6128fd492700069e594016c9,2025-07-07_23h22.48.925,group3.4_multiperson,2023.2.2,Win32,59.88023952,686c2ebf0248f13bef9af11f,686c8e91677ea7c34f42c62f,,,,,,,,,,,,,,,,,,,,,,,,,,,,,1473.7886,2,audio/Narrative5Situation6.wav,1476.7999,,1476.8,1482.486,"[[999,0],[999,99],[999,183],[999,266],[999,349],[999,433],[999,517],[999,599],[999,684],[999,767],[999,851],[51.6,934],[51.3,1017],[51.1,1100],[51.1,1183],[51,1266],[50.9,1350],[50.7,1434],[50.5,1516],[50.5,1600],[50.5,1683],[50.5,1767],[50.4,1850],[50.4,1933],[50.3,2017],[50.3,2100],[50.3,2183],[50,2267],[50,2351],[49.9,2434],[49.9,2517],[49.9,2600],[49.9,2684],[49.9,2767],[49.9,2850],[49.9,2934],[49.9,3018],[49.9,3101],[49.9,3184],[49.9,3267],[49.9,3350],[49.9,3434],[49.9,3517],[49.9,3601],[49.9,3684],[49.9,3767],[49.9,3851],[49.9,3934],[49.9,4017],[49.9,4101],[49.9,4184],[49.9,4267],[49.9,4351],[49.9,4434],[49.9,4517],[49.9,4601],[49.9,4684],[49.9,4768],[49.9,4851],[49.9,4934],[49.9,5018],[49.9,5101],[49.9,5184],[49.9,5268],[49.9,5351],[49.9,5434],[49.9,5518],[39.8,5602],[19.4,5685]]",1482.4862,1485.1866,0.3125,1.2452,"[{""rating"":0.3124999999999989,""responseTime"":1.2452000000030239}]",space,2.1543,,1485.1867,Definitely yes,100,1485.1908,,,[],,0,15,15,15,1,audio/Narrative8Situation6.wav,audio/Narrative7Situation6.wav,audio/Narrative6Situation6.wav,audio/Narrative5Situation6.wav,2,3,2,3,,,,,,,,,,,,,,,,,,,,,,,,,,,,,,,,,,,,,
,,,,,6128fd492700069e594016c9,2025-07-07_23h22.48.925,group3.4_multiperson,2023.2.2,Win32,59.88023952,686c2ebf0248f13bef9af11f,686c8e91677ea7c34f42c62f,,,,,,,,,,,,,,,,,,,,,,,,,,,,,1485.1919,2,audio/Narrative5Situation7.wav,1489.2039,,1489.204,1510.2454,"[[39.9,433],[38.9,517],[34,600],[28.5,684],[21,767],[15.6,850],[11.5,933],[9.7,1017],[9,1100],[8.1,1184],[3,1267],[1.3,1351],[47.1,9103],[100,9186],[100,9270],[100,9353],[100,9435],[100,9520],[100,9603],[100,9686],[100,9770],[100,9852],[100,9936],[100,10019],[99.9,10103],[99.2,10186],[86.4,10270],[61.7,10353],[39.2,10437],[19.4,10520],[6.8,10604],[5,10686],[4.3,10770],[4.3,10853],[3.2,10937],[2,11020],[1.9,11103],[1.3,11187],[1,11269],[1,11353],[1,11436],[1,11519],[1,11603],[1,11686],[1.1,11769],[1.1,11853],[1.1,11936],[1.3,12020],[1.3,12103],[1.3,12186],[1.3,12270],[1.3,12353],[1.3,12436],[1.3,12520],[1.3,12603],[1.3,12686],[1.3,12770],[1.3,12853],[1.3,12937],[1.3,13020],[1.3,13104],[1.3,13187],[1.3,13270],[1.3,13353],[1.3,13437],[1.3,13520],[1.3,13603],[1.3,13687],[1.3,13770],[1.3,13853],[1.4,13937],[1.4,14020],[1.4,14104],[1.4,14187],[1.4,14270],[1.4,14354],[1.4,14437],[1.4,14520],[1.4,14604],[1.4,14687],[1.4,14771],[1.4,14854],[1.4,14937],[1.4,15021],[1.4,15104],[1.4,15187],[1.4,15271],[1.4,15354],[1.4,15437],[1.4,15521],[1.4,15604],[1.4,15687],[1.5,15771],[1.8,15855],[1.9,15937],[1.9,16021],[1.9,16104],[1.9,16188],[1.9,16271],[1.9,16354],[1.9,16438],[1.9,16521],[1.9,16605],[1.9,16688],[1.9,16771],[1.9,16855],[1.9,16938],[1.9,17021],[1.9,17105],[1.9,17188],[1.9,17271],[1.9,17355],[1.9,17438],[1.9,17521],[1.9,17605],[1.9,17688],[1.9,17771],[2.1,17855],[9.2,17940],[49.7,18022],[90.7,18106],[100,18189],[100,18272],[100,18355],[100,18439],[100,18523],[100,18606],[100,18689],[100,18772],[100,18855],[100,18938],[100,19023],[91.4,19106],[65,19189],[43,19273],[30.1,19356],[20.3,19439],[13.4,19523],[11.8,19605],[12,19689],[23.3,19773],[41.9,19856],[58,19940],[81.1,20023],[90,20107],[96.5,20190],[99.7,20272],[99.7,20355],[99.7,20439],[99.7,20522],[99.7,20606],[99.7,20689],[99.7,20772],[99.7,20856],[89.2,20941],[22.8,21024]]",1510.2457,1513.2398,1.458333333,1.125,"[{""rating"":1.4583333333333337,""responseTime"":1.125}]",space,2.4507,,1513.2399,Partially,50,1513.243,,,[],,0,16,16,16,1,audio/Narrative8Situation7.wav,audio/Narrative7Situation7.wav,audio/Narrative6Situation7.wav,audio/Narrative5Situation7.wav,3,5,5,4,,,,,,,,,,,,,,,,,,,,,,,,,,,,,,,,,,,,,
,,,,,6128fd492700069e594016c9,2025-07-07_23h22.48.925,group3.4_multiperson,2023.2.2,Win32,59.88023952,686c2ebf0248f13bef9af11f,686c8e91677ea7c34f42c62f,,,,,,,,,,,,,,,,,,,,,,,,,,,,,1513.2436,2,audio/Narrative5Situation8.wav,1516.2512,,1516.2513,1525.0994,"[[14.4,856],[9.7,940],[7.1,1023],[2.4,1108],[2.1,1190],[1.6,1273],[1.5,1355],[1.5,1428],[1.5,1516],[1.5,1605],[1.1,1690],[0.7,1768],[0.2,3191],[0.2,3264],[0.3,3356],[0.3,3431],[0.3,3523],[0.3,3606],[0.3,3681],[0.3,3773],[0.3,3848],[0.3,3934],[0.3,4023],[0.3,4100],[0.3,4190],[0.3,4262],[0.3,4347],[0.3,4439],[0.3,4516],[0.3,4599],[0.3,4689],[0.3,4763],[0.3,4856],[0.3,4939],[0.3,5023],[0.3,5096],[0.3,5183],[0.3,5265],[0.3,5346],[0.3,5432],[0.3,5523],[0.3,5598],[0.3,5682],[0.3,5767],[0.3,5846],[0.3,5932],[0.3,6013],[0.3,6096],[0.3,6182],[0.3,6263],[0.3,6346],[0.3,6440],[0.3,6513],[0.3,6601],[0.3,6690],[0.3,6767],[0.3,6857],[0.3,6930],[0.3,7013],[0.3,7107],[0.3,7180],[0.3,7266],[0.3,7346],[0.3,7432],[0.3,7513],[0.3,7607],[0.3,7681],[0.3,7775],[0.3,7847],[0.3,7932],[0.3,8025],[0.3,8098],[0.3,8185],[0.3,8263],[0.3,8348],[0.3,8432],[0.3,8513],[0.3,8607],[0.3,8685],[0.3,8763],[0.3,8847]]",1525.1,1528.2439,0.208333333,2.3531,"[{""rating"":0.2083333333333326,""responseTime"":2.3530999999939013}]",space,2.5859,,1528.2439,Definitely yes,100,1528.2468,,,[],,0,17,17,17,1,audio/Narrative8Situation8.wav,audio/Narrative7Situation8.wav,audio/Narrative6Situation8.wav,audio/Narrative5Situation8.wav,3,2,5,3,,,,,,,,,,,,,,,,,,,,,,,,,,,,,,,,,,,,,
