consent.started,consent.stopped,consentResponse.keys,consentResponse.rt,consentResponse.duration,participantID,date,expName,psychopyVersion,OS,frameRate,STUDY_ID,SESSION_ID,opening1.started,opening1.stopped,keyEndingOpening1.keys,keyEndingOpening1.rt,keyEndingOpening1.duration,volumeAdjust.started,volumeAdjust.stopped,endingAdjust.keys,endingAdjust.rt,endingAdjust.duration,opening2.started,opening2.stopped,keyEndingOpening.keys,keyEndingOpening.rt,keyEndingOpening.duration,mouse.x,mouse.y,mouse.leftButton,mouse.midButton,mouse.rightButton,mouse.time,instructionLoop.thisRepN,instructionLoop.thisTrialN,instructionLoop.thisN,instructionLoop.thisIndex,instructionLoop.ran,readyForAudio.started,readyForAudio.stopped,fixation.started,run,audio_played,fixation.stopped,endPractice.keys,audioPre.started,audioPre.stopped,continuousResponses_audio,intRating.started,intRating.stopped,intQuestionSlider.response,intQuestionSlider.rt,intQuestionSlider.history,confirmResponse.keys,confirmResponse.rt,confirmResponse.duration,catchQuestion.started,catch_label,catch_value,catchQuestion.stopped,catchQuestionSlider.response,catchQuestionSlider.rt,catchQuestionSlider.history,confirmResponse_2.keys,audioRunLoop.thisRepN,audioRunLoop.thisTrialN,audioRunLoop.thisN,audioRunLoop.thisIndex,audioRunLoop.ran,conditions1_1,conditions2_1,conditions1_2,conditions2_2,dur1_1,dur2_1,dur1_2,dur2_2,endPractice.rt,endPractice.duration,confirmResponse_2.rt,confirmResponse_2.duration,runIntervalBreak.started,runIntervalBreak.stopped,endingBreakKey.keys,endingBreakKey.rt,endingBreakKey.duration,connection.started,connection.stopped,connectionEnding.keys,connectionEnding.rt,connectionEnding.duration,readyForText.started,readyForText.stopped,textPre.started,run_dup,textPre.stopped,continuousResponses_text,textRunLoop.thisRepN,textRunLoop.thisTrialN,textRunLoop.thisN,textRunLoop.thisIndex,textRunLoop.ran,text1_1,text1_2,text2_1,text2_2,runBreakText.started,runBreakText.stopped,endingBreakKey_2.keys,endingBreakKey_2.rt,endingBreakKey_2.duration,ending.started,ending.stopped,endingEnding.keys,endingEnding.rt,endingEnding.duration
0.0003,13.2423,y,12.8479,,6163fbf78813617495ee7a9b,2025-07-07_22h49.27.070,group3.4_multiperson,2023.2.2,MacIntel,30.86419753,686c2ebf0248f13bef9af11f,686c87152a88e47efa572aa5,,,,,,,,,,,,,,,,,,,,,,,,,,,,,,,,,,,,,,,,,,,,,,,,,,,,,,,,,,,,,,,,,,,,,,,,,,,,,,,,,,,,,,,,,,,,,,,,,,,,,,,,
,,,,,6163fbf78813617495ee7a9b,2025-07-07_22h49.27.070,group3.4_multiperson,2023.2.2,MacIntel,30.86419753,686c2ebf0248f13bef9af11f,686c87152a88e47efa572aa5,13.2425,19.0096,space,5.716,,,,,,,,,,,,,,,,,,,,,,,,,,,,,,,,,,,,,,,,,,,,,,,,,,,,,,,,,,,,,,,,,,,,,,,,,,,,,,,,,,,,,,,,,,,,,,,,,,,,
,,,,,6163fbf78813617495ee7a9b,2025-07-07_22h49.27.070,group3.4_multiperson,2023.2.2,MacIntel,30.86419753,686c2ebf0248f13bef9af11f,686c87152a88e47efa572aa5,,,,,,19.0098,43.3424,space,23.9904,,,,,,,,,,,,,,,,,,,,,,,,,,,,,,,,,,,,,,,,,,,,,,,,,,,,,,,,,,,,,,,,,,,,,,,,,,,,,,,,,,,,,,,,,,,,,,,
,,,,,6163fbf78813617495ee7a9b,2025-07-07_22h49.27.070,group3.4_multiperson,2023.2.2,MacIntel,30.86419753,686c2ebf0248f13bef9af11f,686c87152a88e47efa572aa5,,,,,,,,,,,43.3458,54.3759,space,10.9835,,[],[],[],[],[],[],0,0,0,0,1,,,,,,,,,,,,,,,,,,,,,,,,,,,,,,,,,,,,,,,,,,,,,,,,,,,,,,,,,,,,,,,,,,,,,,,,,,,,,,
,,,,,6163fbf78813617495ee7a9b,2025-07-07_22h49.27.070,group3.4_multiperson,2023.2.2,MacIntel,30.86419753,686c2ebf0248f13bef9af11f,686c87152a88e47efa572aa5,,,,,,,,,,,54.3763,76.7414,space,22.2684,,[],[],[],[],[],[],1,0,1,0,1,,,,,,,,,,,,,,,,,,,,,,,,,,,,,,,,,,,,,,,,,,,,,,,,,,,,,,,,,,,,,,,,,,,,,,,,,,,,,,
,,,,,6163fbf78813617495ee7a9b,2025-07-07_22h49.27.070,group3.4_multiperson,2023.2.2,MacIntel,30.86419753,686c2ebf0248f13bef9af11f,686c87152a88e47efa572aa5,,,,,,,,,,,76.7417,86.742,space,9.9366,,[],[],[],[],[],[],2,0,2,0,1,,,,,,,,,,,,,,,,,,,,,,,,,,,,,,,,,,,,,,,,,,,,,,,,,,,,,,,,,,,,,,,,,,,,,,,,,,,,,,
,,,,,6163fbf78813617495ee7a9b,2025-07-07_22h49.27.070,group3.4_multiperson,2023.2.2,MacIntel,30.86419753,686c2ebf0248f13bef9af11f,686c87152a88e47efa572aa5,,,,,,,,,,,86.7423,107.2084,space,20.4289,,[],[],[],[],[],[],3,0,3,0,1,,,,,,,,,,,,,,,,,,,,,,,,,,,,,,,,,,,,,,,,,,,,,,,,,,,,,,,,,,,,,,,,,,,,,,,,,,,,,,
,,,,,6163fbf78813617495ee7a9b,2025-07-07_22h49.27.070,group3.4_multiperson,2023.2.2,MacIntel,30.86419753,686c2ebf0248f13bef9af11f,686c87152a88e47efa572aa5,,,,,,,,,,,107.2088,117.3408,space,10.083,,[],[],[],[],[],[],4,0,4,0,1,,,,,,,,,,,,,,,,,,,,,,,,,,,,,,,,,,,,,,,,,,,,,,,,,,,,,,,,,,,,,,,,,,,,,,,,,,,,,,
,,,,,6163fbf78813617495ee7a9b,2025-07-07_22h49.27.070,group3.4_multiperson,2023.2.2,MacIntel,30.86419753,686c2ebf0248f13bef9af11f,686c87152a88e47efa572aa5,,,,,,,,,,,117.3411,126.0082,space,8.6166,,[],[],[],[],[],[],5,0,5,0,1,,,,,,,,,,,,,,,,,,,,,,,,,,,,,,,,,,,,,,,,,,,,,,,,,,,,,,,,,,,,,,,,,,,,,,,,,,,,,,
,,,,,6163fbf78813617495ee7a9b,2025-07-07_22h49.27.070,group3.4_multiperson,2023.2.2,MacIntel,30.86419753,686c2ebf0248f13bef9af11f,686c87152a88e47efa572aa5,,,,,,,,,,,,,,,,,,,,,,,,,,,126.01,128.5748,128.5915,1,audio/Narrative13Situation2.wav,130.6083,,130.6083,160.4078,"[[999,1],[999,99],[999,198],[999,298],[999,398],[999,499],[999,598],[999,699],[999,798],[999,899],[999,998],[999,1099],[999,1198],[999,1299],[999,1399],[999,1499],[999,1598],[999,1699],[999,1799],[999,1899],[999,1999],[999,2099],[999,2199],[999,2299],[999,2399],[999,2499],[999,2599],[999,2698],[999,2799],[999,2899],[999,2998],[999,3099],[999,3198],[999,3298],[999,3399],[999,3499],[999,3598],[999,3698],[999,3798],[999,3899],[999,3998],[999,4099],[999,4199],[999,4299],[999,4398],[999,4498],[999,4599],[999,4699],[999,4799],[999,4899],[999,4999],[999,5099],[999,5198],[999,5299],[999,5398],[999,5499],[999,5599],[999,5698],[999,5800],[11,5900],[11.9,5998],[12.6,6099],[13.4,6199],[13.4,6299],[13.4,6398],[13.4,6499],[13.4,6599],[13.4,6699],[13.4,6798],[13.4,6899],[13.4,6999],[13.4,7098],[13.4,7198],[13.4,7298],[13.4,7399],[13.4,7499],[13.4,7599],[13.4,7699],[13.4,7799],[13.4,7898],[13.4,7998],[13.4,8098],[13.4,8199],[13.4,8298],[13.4,8398],[13.4,8498],[15.5,8598],[19.3,8699],[17.1,8799],[16.9,8899],[16.9,8998],[16.9,9098],[16.9,9199],[23.7,9299],[47.9,9399],[54.6,9499],[57.9,9599],[58,9699],[58,9799],[57.8,9898],[40.6,9999],[35,10099],[34.5,10199],[31.9,10299],[31.6,10398],[31.6,10499],[31.5,10599],[30.8,10699],[30.9,10798],[32.1,10898],[32.3,10999],[32.6,11099],[33.3,11198],[33.3,11298],[33.3,11398],[33.3,11499],[33.3,11598],[33.3,11698],[34.9,11799],[39.3,11899],[38.6,11999],[46.8,13099],[46.7,13198],[47.9,13298],[52.5,13399],[67.4,13499],[77.2,13598],[79.5,13699],[80,13799],[80,13899],[80,13998],[80,14098],[80.4,14199],[86.2,14299],[93.4,14399],[99,14499],[99.8,14599],[100,14699],[100,14798],[100,14898],[100,14998],[100,15098],[100,15198],[100,15299],[100,15399],[100,15499],[100,15598],[100,15699],[100,15799],[100,15899],[100,15998],[100,16099],[100,16198],[100,16298],[100,16398],[100,16498],[100,16599],[99.2,16698],[98.6,16799],[98.6,16899],[98.5,16998],[98.3,17099],[98.3,17199],[98.3,17299],[98.3,17399],[98.5,17499],[98.8,17599],[99.2,17699],[100,17799],[100,17899],[100,17998],[100,18099],[100,18199],[100,18299],[100,18398],[100,18499],[100,18599],[100,18699],[100,18798],[100,18899],[100,18998],[100,19098],[100,19198],[100,19299],[100,19399],[100,19499],[100,19598],[100,19699],[100,19799],[100,19898],[100,19999],[100,20099],[100,20199],[100,20298],[100,20399],[100,20498],[100,20599],[100,20699],[96.5,20798],[94.3,20898],[100,21499],[100,21598],[100,21698],[97.8,21799],[96.6,21899],[96.6,21998],[91.5,22098],[64,22199],[59.2,22298],[59.2,22399],[59.2,22499],[59.2,22599],[59.2,22699],[58.8,22798],[56.3,22898],[54.9,22999],[52.2,23098],[51.1,23198],[49.8,23299],[48.9,23399],[48.1,23499],[46.2,23598],[46,23699],[48.4,23798],[49.8,23898],[50.7,23998],[50.8,24098],[55.5,24198],[62.1,24298],[62.6,24399],[62.6,24498],[62.6,24599],[62.6,24699],[62.6,24798],[61.9,24898],[61.7,24999],[61.3,25099],[51.3,25198],[40.7,25299],[33.2,25398],[30.8,25498],[30.1,25598],[30.1,25698],[30.1,25798],[28.2,25899],[19.7,25998],[18.6,26099],[17.8,26198],[16.8,26299],[15.6,26398],[14.8,26498],[14.7,26599],[14.7,26698],[14.7,26798],[14.4,26898],[14.4,26999],[14.3,27098],[13.6,27198],[13.5,27298],[13,27399],[11.8,27499],[11,27598],[10.7,27699],[9.4,27798],[7.7,27899],[6.8,27999],[6.4,28099],[6.4,28199],[6.4,28299],[6.4,28398],[6.4,28499],[6.4,28599],[6.4,28699],[6.4,28799],[6.4,28898],[6.4,28999],[6.4,29098],[6.4,29198],[6.4,29299],[6.4,29399],[6.4,29498],[6.4,29599],[6.4,29698],[6.4,29799]]",160.408,181.9743,72.66793145,20.0314,"[{""rating"":53.872121175130204,""responseTime"":3.1490999999940357},{""rating"":66.25721401638455,""responseTime"":3.9320000000000164},{""rating"":50.171407063802086,""responseTime"":8.381699999995533},{""rating"":0,""responseTime"":14.481899999998518},{""rating"":72.66793145073784,""responseTime"":20.031399999998513}]",space,20.9796,,181.9747,Not at all,0,181.9779,,,[],,0,0,0,0,1,audio/Narrative13Situation2.wav,audio/Narrative13Situation2.wav,audio/Narrative13Situation2.wav,audio/Narrative13Situation2.wav,2,2,2,2,,,,,,,,,,,,,,,,,,,,,,,,,,,,,,,,,,,,,,,
,,,,,6163fbf78813617495ee7a9b,2025-07-07_22h49.27.070,group3.4_multiperson,2023.2.2,MacIntel,30.86419753,686c2ebf0248f13bef9af11f,686c87152a88e47efa572aa5,,,,,,,,,,,,,,,,,,,,,,,,,,,,,181.9781,1,audio/Narrative8Situation1.wav,183.6076,space,183.6076,199.5731,"[[999,1],[999,99],[999,198],[999,299],[999,399],[999,498],[999,598],[999,699],[999,799],[999,899],[999,999],[999,1099],[999,1198],[999,1299],[999,1399],[999,1499],[999,1599],[999,1699],[999,1798],[999,1898],[999,1999],[999,2098],[999,2199],[999,2299],[999,2398],[999,2498],[999,2599],[999,2699],[999,2799],[999,2899],[999,2999],[999,3099],[999,3199],[999,3298],[999,3399],[999,3498],[999,3599],[999,3698],[999,3799],[999,3899],[999,3999],[999,4098],[999,4199],[999,4299],[999,4398],[999,4499],[999,4598],[999,4699],[999,4799],[28.1,5198],[28.7,5299],[28.8,5398],[28.8,5499],[28.8,5599],[28.8,5699],[28.8,5798],[28.8,5899],[28.8,5998],[28.8,6098],[28.8,6199],[28.8,6299],[28.8,6399],[28.8,6499],[28.8,6599],[28.8,6699],[28.8,6798],[28.8,6899],[28.8,6999],[28.8,7099],[28.8,7198],[28.8,7299],[28.8,7399],[28.8,7499],[28.8,7599],[28.8,7699],[28.8,7799],[28.8,7899],[28.8,7999],[28.8,8099],[28.8,8199],[28.8,8299],[28.8,8399],[28.8,8499],[28.8,8598],[28.8,8699],[28.7,8798],[18.1,8899],[15.9,8998],[15.8,9099],[14.8,9199],[14.7,9299],[14.6,9399],[14.3,9499],[14.2,9598],[13.8,9699],[13.8,9798],[13.8,9898],[13.9,9999],[15.1,10098],[17.2,10198],[18.9,10299],[19.1,10398],[19.1,10499],[19.1,10599],[19.1,10699],[19.1,10799],[19.1,10899],[19.1,10998],[19.1,11099],[19.1,11198],[19.1,11299],[19.1,11399],[19.1,11499],[19.1,11599],[19.1,11698],[19.1,11800],[19.1,11899],[19.1,11999],[19.1,12099],[19.1,12198],[19.1,12299],[19.1,12399],[19.1,12498],[19.1,12599],[19.1,12699],[19.1,12799],[19.1,12899],[19.1,12998],[19.1,13099],[19.1,13199],[19.1,13298],[19.1,13399],[19.1,13499],[19.1,13599],[19.1,13699],[19.1,13799],[19.1,13898],[19.1,13999],[19.1,14098],[19.1,14198],[19.1,14299],[19.1,14399],[19.1,14498],[19.1,14598],[19.3,14699],[35.1,14799],[51.9,14898],[53.9,14998],[56.6,15099],[59.8,15198],[62.7,15298],[65.6,15398],[67.1,15499],[67.8,15599],[69.2,15698],[71.4,15799],[72.3,15899]]",199.5732,204.0737,64.78501214,2.3326,"[{""rating"":64.78501213921442,""responseTime"":2.3326000000014915}]",space,3.9246,,204.0737,Definitely yes,100,204.0764,,,[],,0,1,1,1,1,audio/Narrative7Situation1.wav,audio/Narrative8Situation1.wav,audio/Narrative5Situation1.wav,audio/Narrative6Situation1.wav,2,5,5,2,1.6064,,,,,,,,,,,,,,,,,,,,,,,,,,,,,,,,,,,,,,
,,,,,6163fbf78813617495ee7a9b,2025-07-07_22h49.27.070,group3.4_multiperson,2023.2.2,MacIntel,30.86419753,686c2ebf0248f13bef9af11f,686c87152a88e47efa572aa5,,,,,,,,,,,,,,,,,,,,,,,,,,,,,204.0766,1,audio/Narrative8Situation2.wav,207.1062,,207.1063,217.2395,"[[999,0],[999,100],[999,200],[999,300],[999,399],[999,500],[999,599],[999,699],[999,799],[999,900],[999,999],[999,1100],[999,1200],[35.2,1300],[32.7,1400],[31.1,1499],[29.9,1600],[29.7,1700],[29.7,1799],[29.7,1900],[29.7,2000],[29.7,2100],[29.7,2199],[29.7,2299],[29.7,2400],[29.7,2500],[29.7,2600],[29.7,2699],[29.7,2800],[29.7,2900],[29.7,3000],[35.4,3099],[40.7,3200],[27,3300],[16.1,3400],[14.2,3499],[13.2,3600],[12.3,3700],[10.2,3800],[8,3899],[5.9,4000],[3.9,4099],[2.5,4199],[1.9,4300],[1.9,4400],[1.9,4500],[1.5,4600],[2,9999],[23.2,10100]]",217.2396,220.2397,0,2.1994,"[{""rating"":0.8000352647569431,""responseTime"":1.3661000000014951},{""rating"":0,""responseTime"":2.1994000000059657}]",space,2.4252,,220.2398,Definitely yes,100,220.2412,,,[],,0,2,2,2,1,audio/Narrative7Situation2.wav,audio/Narrative8Situation2.wav,audio/Narrative5Situation2.wav,audio/Narrative6Situation2.wav,3,3,3,3,,,,,,,,,,,,,,,,,,,,,,,,,,,,,,,,,,,,,,,
,,,,,6163fbf78813617495ee7a9b,2025-07-07_22h49.27.070,group3.4_multiperson,2023.2.2,MacIntel,30.86419753,686c2ebf0248f13bef9af11f,686c87152a88e47efa572aa5,,,,,,,,,,,,,,,,,,,,,,,,,,,,,220.2415,1,audio/Narrative8Situation3.wav,224.2725,,224.2725,246.6722,"[[1.9,2400],[4,2500],[4.2,2599],[4.2,2699],[4.2,2799],[4.2,2900],[4.2,3000],[2.9,3100],[1.4,3200],[1.4,3299],[1.4,3400],[1.4,3499],[1.4,3599],[1.4,3700],[1.4,3799],[1.5,3900],[4,4000],[4.1,4100],[4.1,4200],[4.1,4299],[4.1,4399],[4.1,4500],[4.1,4600],[4.1,4700],[4.1,4800],[4.1,4900],[4.1,5000],[4.1,5100],[4.1,5200],[4.1,5299],[4.1,5400],[4.1,5500],[4.1,5599],[4.1,5699],[4.1,5799],[4.1,5900],[4.1,5999],[4.1,6099],[4.1,6199],[4.1,6300],[4.1,6399],[6,6500],[21.7,6600],[28.8,6700],[33.6,6799],[41.3,6900],[47.2,7000],[48.5,7100],[48.5,7199],[50,7300],[51.3,7400],[51.5,7499],[51.5,7599],[51.5,7699],[51.5,7799],[54.8,7900],[57.6,7999],[58.3,8100],[58.9,8199],[60.2,8300],[61.6,8400],[61.8,8499],[62.1,8599],[63,8699],[63.9,8800],[64,8900],[64,8999],[64.6,9099],[65.9,9199],[67.8,9299],[68.7,9399],[69,9500],[69,9599],[69,9699],[69,9799],[69,9899],[69,9999],[69,10099],[69,10200],[69,10299],[69,10399],[69,10499],[69,10599],[69,10700],[69,10799],[69,10899],[69,10999],[69,11100],[61.7,11199],[52.2,11299],[51.9,11399],[51.9,11499],[51.9,11599],[51.9,11699],[51.5,11799],[49.9,11899],[49.7,11999],[49.7,12099],[49.7,12200],[49.7,12299],[49.7,12399],[49.7,12499],[50.6,12600],[55,12699],[57.2,12799],[58.5,12900],[59.3,12999],[60.5,13099],[61,13199],[61,13299],[61,13400],[61,13499],[61,13599],[61,13699],[61,13799],[61,13899],[61,13999],[61,14099],[61,14199],[61,14299],[61,14399],[61,14499],[61,14599],[61,14699],[61,14799],[61,14899],[61,14999],[61,15099],[61,15200],[61,15299],[61,15399],[61,15499],[61,15599],[61,15699],[61,15799],[60,15899],[59.1,15999],[58.2,16099],[57.6,16199],[57.6,16300],[57.6,16399],[56.6,16499],[56.2,16599],[56.1,16700],[56.1,16799],[56.1,16899],[56.1,16999],[56.1,17099],[56.1,17199],[56.1,17299],[56.1,17400],[56.1,17499],[56.1,17599],[56.1,17699],[56.1,17799],[56.1,17899],[56.1,17999],[56.4,18100],[60.7,18199],[66.9,18300],[67.8,18399],[67.9,18499],[67.9,18600],[67.9,18699],[67.9,18799],[67.9,18899],[67.9,18999],[69.3,19100],[70.1,19199],[70.1,19299],[70.1,19399],[70.1,19499],[67.8,19600],[64.5,19699],[60.6,19799],[58.1,19900],[57.9,19999],[57.9,20099],[57.9,20199],[57.9,20299],[57.9,20399],[57.9,20499],[57.9,20599],[57.9,20700],[57.9,20799],[57.9,20900],[57.9,20999],[58.1,21099],[59.7,21199],[60,21299],[60,21399],[60.1,21500],[60.4,21599],[60.4,21699],[60,21799],[59.9,21899],[60.1,21999],[60.2,22099],[60.2,22199],[60.2,22300],[60.2,22399]]",246.6723,251.2054,60.22950914,1.1997,"[{""rating"":60.22950914171007,""responseTime"":1.199700000002963}]",space,3.9574,,251.2054,Partially,50,251.2075,,,[],,0,3,3,3,1,audio/Narrative7Situation3.wav,audio/Narrative8Situation3.wav,audio/Narrative5Situation3.wav,audio/Narrative6Situation3.wav,8,4,3,5,,,,,,,,,,,,,,,,,,,,,,,,,,,,,,,,,,,,,,,
,,,,,6163fbf78813617495ee7a9b,2025-07-07_22h49.27.070,group3.4_multiperson,2023.2.2,MacIntel,30.86419753,686c2ebf0248f13bef9af11f,686c87152a88e47efa572aa5,,,,,,,,,,,,,,,,,,,,,,,,,,,,,251.2077,1,audio/Narrative8Situation4.wav,254.2389,,254.2389,268.4719,"[[999,0],[999,99],[999,200],[999,299],[999,400],[999,499],[999,600],[999,699],[999,799],[999,899],[999,999],[999,1099],[999,1199],[999,1299],[999,1399],[999,1499],[999,1599],[999,1699],[999,1799],[35.5,1899],[35,2000],[34.4,2100],[33.3,2200],[33,2299],[32.9,2399],[32.9,2499],[32,2600],[13.5,2699],[8.8,2799],[7.9,2900],[36.6,2999],[65.3,3099],[68.2,3199],[68.3,3299],[68.3,3400],[69.6,3499],[89.7,3600],[98.1,3700],[99.1,3799],[98.9,3899],[98.7,3999],[98.8,4099],[99.5,4199],[99.7,4299],[99.7,4399],[99.7,4499],[99.7,4599],[100,4699],[100,4799],[100,4899],[100,5000],[100,5100],[100,5199],[100,5299],[100,5400],[100,5499],[100,5599],[100,5700],[100,5800],[100,5899],[100,5999],[100,6099],[100,6199],[100,6299],[100,6400],[100,6500],[100,6600],[100,6699],[100,6799],[100,6899],[100,7000],[100,7099],[100,7199],[100,7299],[100,7399],[100,7499],[100,7599],[100,7700],[100,7799],[100,7899],[100,7999],[100,8099],[100,8200],[100,8299],[100,8399],[100,8499],[100,8600],[100,8699],[100,8799],[100,8899],[100,8999],[100,9099],[100,9199],[100,9299],[100,9400],[100,9499],[100,9599],[100,9699],[100,9800],[100,9899],[100,9999],[100,10099],[100,10199],[100,10299],[100,10399],[100,10499],[100,10600],[100,10699],[100,10799],[100,10899],[100,10999],[100,11099],[100,11199],[100,11299],[100,11399],[100,11499],[100,11600],[100,11699],[100,11800],[100,11899],[100,11999],[100,12099],[100,12200],[100,12299],[100,12399],[100,12499],[100,12600],[100,12699],[100,12799],[100,12899],[100,12999],[100,13099],[100,13200],[100,13300],[100,13400],[100,13500],[100,13599],[100,13699],[100,13800],[100,13899],[100,14000],[100,14099],[100,14199]]",268.472,274.3384,100,2.6164,"[{""rating"":98.73121473524306,""responseTime"":1.5664999999999623},{""rating"":100,""responseTime"":2.616399999998464}]",space,5.2996,,274.3385,Partially,50,274.3398,,,[],,0,4,4,4,1,audio/Narrative7Situation4.wav,audio/Narrative8Situation4.wav,audio/Narrative5Situation4.wav,audio/Narrative6Situation4.wav,3,3,1,2,,,,,,,,,,,,,,,,,,,,,,,,,,,,,,,,,,,,,,,
,,,,,6163fbf78813617495ee7a9b,2025-07-07_22h49.27.070,group3.4_multiperson,2023.2.2,MacIntel,30.86419753,686c2ebf0248f13bef9af11f,686c87152a88e47efa572aa5,,,,,,,,,,,,,,,,,,,,,,,,,,,,,274.34,1,audio/Narrative8Situation5.wav,276.3717,,276.3718,284.6383,"[[999,0],[999,99],[999,199],[999,299],[999,399],[999,499],[999,600],[999,699],[999,800],[999,899],[999,1000],[999,1100],[999,1199],[999,1299],[999,1399],[999,1500],[999,1599],[999,1699],[999,1800],[999,1899],[999,1999],[999,2099],[999,2199],[999,2300],[999,2399],[999,2499],[999,2599],[999,2699],[999,2799],[999,2899],[999,2999],[999,3099],[999,3199],[999,3299],[999,3400],[999,3499],[999,3599],[999,3699],[999,3800],[999,3899],[999,4000],[999,4099],[999,4200],[999,4299],[999,4399],[999,4499],[999,4600],[999,4699],[999,4800],[86.7,4899],[90.4,5000],[90.7,5050],[90.8,5100],[90.9,5150],[91,5200],[91.6,5250],[93.3,5299],[94.3,5350],[94.9,5400],[95.7,5449],[96.4,5500],[96.9,5549],[96.9,5600],[96.9,5649],[96.9,5699],[97,5749],[97,5800],[97,5849],[97,5899],[97,5949],[97,6000],[97,6049],[97,6100],[97,6149],[97,6200],[97,6249],[97,6300],[97,6349],[97,6400],[97,6449],[97,6499],[97,6549],[97,6600],[97,6649],[97,6699],[97,6749],[97,6799],[97,6849],[97,6900],[97,6949],[97,6999],[97,7049],[97,7099],[97,7149],[97,7199],[97,7250],[97,7299],[97,7349],[97,7399],[97,7449],[97,7499],[97,7549],[97,7599],[97,7649],[97,7699],[97,7750],[97,7799],[97,7849],[97,7899],[97,7949],[97,8000],[97,8049],[97,8099],[97,8149],[97,8199],[97,8249]]",284.6384,288.172,100,2.49,"[{""rating"":99.67573377821181,""responseTime"":1.483000000000004},{""rating"":100,""responseTime"":2.490000000000009}]",space,3.0017,,288.172,Not at all,0,288.1743,,,[],,0,5,5,5,1,audio/Narrative7Situation5.wav,audio/Narrative8Situation5.wav,audio/Narrative5Situation5.wav,audio/Narrative6Situation5.wav,5,2,5,2,,,,,,,,,,,,,,,,,,,,,,,,,,,,,,,,,,,,,,,
,,,,,6163fbf78813617495ee7a9b,2025-07-07_22h49.27.070,group3.4_multiperson,2023.2.2,MacIntel,30.86419753,686c2ebf0248f13bef9af11f,686c87152a88e47efa572aa5,,,,,,,,,,,,,,,,,,,,,,,,,,,,,288.1745,1,audio/Narrative8Situation6.wav,290.1882,,290.1882,296.6548,"[[999,0],[999,49],[999,100],[999,149],[999,199],[999,250],[999,300],[999,349],[999,400],[999,450],[999,500],[999,550],[999,600],[999,649],[999,700],[999,750],[999,800],[999,850],[999,901],[999,949],[999,999],[999,1050],[999,1100],[999,1149],[999,1199],[999,1250],[999,1300],[999,1349],[999,1400],[999,1450],[999,1499],[999,1549],[999,1599],[999,1649],[999,1699],[999,1750],[999,1799],[999,1850],[999,1899],[999,1949],[999,1999],[999,2049],[999,2100],[999,2149],[999,2199],[999,2250],[999,2299],[999,2350],[999,2399],[999,2449],[999,2499],[999,2549],[999,2599],[999,2649],[999,2699],[999,2749],[999,2800],[999,2850],[999,2899],[999,2949],[999,3000],[999,3050],[999,3099],[999,3149],[999,3199],[999,3249],[999,3299],[999,3350],[999,3400],[999,3450],[999,3500],[49.9,3550],[42.3,3800],[41.8,3850],[41.5,3900],[41.4,3949],[41.4,4000],[41.4,4049],[41.4,4099],[41.4,4149],[41.4,4199],[41.9,4250],[49.6,4300],[100,4500],[100,4550],[100,4600],[100,4650],[95.7,4850],[96.3,4900],[97.5,4950],[98.5,5000],[99.6,5050],[100,5100],[100,5150],[100,5199],[100,5249],[100,5300],[100,5350],[100,5400],[100,5450],[100,5500],[100,5549],[100,5600],[100,5650],[100,5700],[100,5750],[100,5799],[100,5850],[100,5899],[100,5949],[100,5999],[100,6049],[100,6099],[100,6149],[100,6200],[100,6250],[100,6300],[100,6349],[100,6399],[100,6450]]",296.6549,303.3216,100,2.2572,"[{""rating"":98.59517415364583,""responseTime"":1.06619999999549},{""rating"":100,""responseTime"":2.257199999995521}]",space,6.117,,303.3217,Partially,50,314.2883,61.63797167,9.7323,"[{""rating"":49.837426079644096,""responseTime"":4.215600000001473},{""rating"":61.63797166612414,""responseTime"":9.732299999996997}]",space,0,6,6,6,1,audio/Narrative7Situation6.wav,audio/Narrative8Situation6.wav,audio/Narrative5Situation6.wav,audio/Narrative6Situation6.wav,3,2,3,2,,,10.4408,,,,,,,,,,,,,,,,,,,,,,,,,,,,,,,,,,,,
,,,,,6163fbf78813617495ee7a9b,2025-07-07_22h49.27.070,group3.4_multiperson,2023.2.2,MacIntel,30.86419753,686c2ebf0248f13bef9af11f,686c87152a88e47efa572aa5,,,,,,,,,,,,,,,,,,,,,,,,,,,,,314.2885,1,audio/Narrative8Situation7.wav,317.2887,,317.2887,329.3715,"[[999,0],[999,49],[999,99],[999,149],[999,200],[999,249],[999,300],[999,349],[999,400],[999,450],[999,500],[999,549],[999,599],[999,649],[999,699],[999,749],[999,799],[999,849],[999,899],[999,950],[999,999],[999,1049],[999,1099],[999,1149],[999,1199],[999,1250],[999,1299],[999,1349],[999,1399],[999,1449],[999,1499],[999,1549],[999,1598],[999,1649],[999,1699],[999,1749],[999,1799],[999,1849],[999,1899],[999,1949],[999,1999],[999,2049],[999,2099],[999,2149],[999,2199],[999,2249],[999,2299],[999,2350],[999,2399],[999,2449],[999,2499],[999,2549],[999,2599],[999,2649],[999,2699],[999,2749],[999,2799],[999,2849],[999,2899],[999,2949],[999,2999],[999,3049],[999,3101],[999,3149],[999,3199],[39.8,3249],[39.8,3299],[39.8,3349],[39.8,3400],[39.8,3449],[39.8,3499],[39.8,3549],[39.8,3599],[39.8,3649],[39.8,3699],[39.8,3749],[40,3800],[40.2,3849],[40.2,3899],[40.2,3949],[40.2,3999],[40.2,4049],[40.2,4099],[40.2,4149],[40.2,4199],[40.2,4249],[40.2,4299],[40.2,4349],[40.2,4399],[40.2,4449],[40.2,4499],[40.2,4549],[40.2,4599],[40.2,4649],[40.2,4699],[40.2,4749],[40.2,4798],[40.2,4849],[40.2,4899],[43.8,4949],[51.1,4999],[60.7,5049],[69.5,5100],[75.1,5149],[78.4,5199],[82.1,5249],[86.4,5299],[89.7,5349],[91.8,5400],[93.4,5449],[95.3,5499],[96.5,5549],[97.6,5599],[98.5,5649],[99.4,5699],[100,5749],[100,5800],[100,5849],[100,5899],[100,5949],[100,5999],[100,6049],[100,6099],[100,6149],[100,6199],[100,6249],[100,6298],[100,6349],[100,6399],[100,6449],[100,6499],[100,6549],[100,6599],[100,6649],[100,6699],[100,6749],[100,6799],[100,6849],[100,6899],[100,6949],[100,7000],[100,7049],[99.7,7099],[99.2,7149],[99.1,7199],[99.1,7249],[99.1,7298],[99.1,7349],[99.1,7399],[99.1,7448],[99.1,7499],[99.5,7549],[100,7599],[100,7649],[100,7699],[100,7749],[100,7799],[100,7849],[100,7899],[100,7949],[100,7999],[100,8049],[100,8099],[100,8149],[100,8199],[100,8248],[100,8299],[100,8349],[100,8399],[100,8448],[100,8499],[100,8549],[100,8599],[100,8649],[100,8699],[100,8749],[100,8799],[100,8849],[100,8898],[100,8949],[100,8999],[100,9049],[100,9099],[100,9149],[100,9199],[100,9248],[100,9299],[100,9349],[100,9399],[100,9449],[100,9498],[100,9549],[100,9598],[100,9649],[100,9698],[100,9748],[100,9799],[100,9849],[100,9899],[100,9949],[100,9998],[100,10049],[100,10099],[100,10148],[100,10199],[100,10249],[100,10299],[100,10349],[100,10399],[100,10449],[100,10498],[100,10548],[100,10599],[100,10649],[100,10699],[100,10748],[100,10799],[100,10849],[100,10898],[100,10949],[100,10999],[100,11049],[100,11099],[100,11149],[100,11199],[100,11249],[100,11299],[100,11349],[100,11399],[100,11449],[100,11499],[100,11549],[100,11599],[100,11649],[100,11699],[100,11749],[100,11799],[100,11848],[100,11899],[100,11949],[100,11999],[100,12049]]",329.3716,331.6379,100,1.5661,"[{""rating"":100,""responseTime"":1.5661000000014837}]",space,1.7419,,331.6379,Partially,50,331.6391,,,[],,0,7,7,7,1,audio/Narrative7Situation7.wav,audio/Narrative8Situation7.wav,audio/Narrative5Situation7.wav,audio/Narrative6Situation7.wav,5,3,4,5,,,,,,,,,,,,,,,,,,,,,,,,,,,,,,,,,,,,,,,
,,,,,6163fbf78813617495ee7a9b,2025-07-07_22h49.27.070,group3.4_multiperson,2023.2.2,MacIntel,30.86419753,686c2ebf0248f13bef9af11f,686c87152a88e47efa572aa5,,,,,,,,,,,,,,,,,,,,,,,,,,,,,331.6392,1,audio/Narrative8Situation8.wav,334.6543,,334.6543,347.5052,"[[95.4,899],[89.7,949],[83.6,1000],[80,1049],[78.8,1100],[76.6,1750],[76.1,1800],[76.1,1849],[76.4,1900],[76.7,1950],[76.8,2000],[76.8,2050],[76.8,2099],[76.8,2150],[76.8,2199],[76.8,2249],[76.8,2300],[76.8,2349],[76.8,2399],[76.8,2450],[76.8,2500],[76.8,2549],[76.8,2599],[76.8,2649],[76.8,2699],[76.8,2749],[76.8,2799],[76.8,2849],[76.8,2900],[76.8,2950],[76.8,2999],[76.8,3050],[76.8,3100],[76.8,3149],[76.8,3199],[76.8,3250],[76.8,3299],[76.8,3349],[76.8,3399],[76.8,3449],[76.8,3500],[76.8,3550],[76.8,3599],[76.8,3650],[76.8,3699],[76.8,3750],[76.8,3799],[76.8,3849],[76.8,3900],[76.8,3949],[76.8,3999],[76.8,4049],[76.8,4099],[76.8,4149],[76.8,4199],[76.8,4250],[76.8,4300],[76.8,4349],[76.8,4399],[76.8,4450],[76.8,4500],[76.8,4550],[76.8,4600],[76.8,4650],[76.8,4700],[76.8,4749],[76.8,4800],[76.8,4849],[76.8,4900],[76.8,4950],[76.8,5000],[76.8,5050],[76.8,5100],[76.8,5149],[76.8,5200],[76.8,5250],[76.8,5300],[76.8,5350],[76.8,5400],[76.8,5450],[76.8,5500],[76.8,5550],[76.8,5600],[76.8,5650],[76.8,5700],[76.8,5750],[76.8,5800],[76.8,5849],[76.8,5900],[76.8,5950],[76.8,5999],[76.8,6050],[76.8,6100],[76.8,6150],[76.8,6200],[76.8,6250],[76.8,6300],[76.8,6350],[76.8,6400],[76.8,6450],[76.8,6500],[76.8,6549],[76.8,6600],[76.8,6650],[76.8,6700],[76.8,6749],[76.8,6800],[76.8,6849],[76.8,6899],[76.8,6950],[76.8,7000],[76.8,7050],[76.8,7100],[76.8,7150],[76.8,7200],[76.8,7249],[76.8,7300],[76.8,7349],[76.8,7400],[76.8,7449],[76.8,7499],[76.8,7550],[76.8,7600],[76.8,7650],[76.8,7699],[76.8,7750],[76.8,7799],[76.8,7850],[76.8,7900],[76.8,7950],[76.8,8000],[76.8,8049],[76.8,8100],[76.8,8150],[76.8,8200],[76.8,8250],[76.8,8300],[76.8,8350],[76.8,8400],[76.8,8450],[76.8,8500],[76.8,8550],[76.8,8600],[76.8,8650],[76.8,8700],[76.8,8750],[76.8,8799],[76.8,8849],[76.8,8900],[76.8,8950],[76.8,9000],[76.8,9050],[76.8,9100],[76.8,9149],[76.8,9199],[76.8,9249],[76.8,9300],[76.8,9350],[76.8,9400],[76.8,9450],[76.8,9500],[76.8,9550],[76.8,9600],[76.8,9649],[76.8,9699],[76.8,9750],[76.8,9800],[76.8,9850],[76.8,9900],[76.8,9950],[76.8,9999],[76.8,10049],[76.8,10099],[76.8,10150],[76.8,10200],[76.8,10250],[76.8,10300],[76.8,10350],[76.8,10400],[76.8,10449],[76.8,10500],[76.8,10550],[76.8,10599],[76.8,10650],[76.8,10700],[76.8,10750],[76.8,10799],[76.8,10849],[76.8,10900],[76.8,10949],[76.8,10999],[76.8,11050],[76.8,11100],[76.8,11150],[76.8,11200],[76.8,11250],[76.8,11300],[76.8,11350],[76.8,11399],[76.8,11449],[76.8,11500],[76.8,11550],[76.8,11599],[76.8,11650],[76.8,11699],[76.8,11750],[76.8,11800],[76.8,11850],[76.8,11900],[76.8,11950],[76.8,11999],[76.8,12049],[76.8,12100],[76.8,12150],[76.8,12200],[76.8,12250],[76.8,12300],[76.8,12350],[76.8,12399],[76.8,12449],[76.8,12500],[76.8,12550],[76.8,12600],[76.8,12650],[76.8,12700],[76.8,12750],[76.8,12799],[76.8,12850]]",347.5054,353.404,74.74898444,4.8318,"[{""rating"":61.20864868164062,""responseTime"":0.9553999999985194},{""rating"":59.903318617078995,""responseTime"":3.6218999999985044},{""rating"":74.74898444281683,""responseTime"":4.831799999997031}]",space,5.3489,,353.4041,Partially,50,353.4054,,,[],,0,8,8,8,1,audio/Narrative7Situation8.wav,audio/Narrative8Situation8.wav,audio/Narrative5Situation8.wav,audio/Narrative6Situation8.wav,2,3,3,5,,,,,,,,,,,,,,,,,,,,,,,,,,,,,,,,,,,,,,,
,,,,,6163fbf78813617495ee7a9b,2025-07-07_22h49.27.070,group3.4_multiperson,2023.2.2,MacIntel,30.86419753,686c2ebf0248f13bef9af11f,686c87152a88e47efa572aa5,,,,,,,,,,,,,,,,,,,,,,,,,,,,,353.4056,1,audio/Narrative8Situation9.wav,356.4207,,356.4208,367.7548,"[[999,0],[999,50],[999,99],[999,149],[999,199],[999,249],[999,299],[999,349],[999,399],[999,449],[999,499],[999,549],[999,599],[999,649],[999,699],[999,749],[999,799],[999,849],[999,900],[999,950],[999,999],[999,1049],[999,1099],[999,1149],[999,1199],[999,1249],[999,1299],[999,1349],[999,1399],[999,1449],[999,1500],[999,1549],[999,1599],[999,1649],[999,1699],[999,1749],[999,1799],[999,1849],[999,1900],[999,1949],[999,1999],[999,2049],[999,2099],[999,2149],[999,2199],[999,2249],[999,2299],[999,2349],[999,2400],[999,2449],[999,2499],[999,2549],[999,2599],[999,2649],[999,2699],[999,2749],[999,2799],[999,2849],[999,2899],[999,2949],[999,2999],[999,3049],[999,3099],[999,3149],[999,3199],[999,3249],[999,3299],[999,3349],[999,3399],[999,3449],[999,3499],[999,3549],[999,3599],[999,3649],[999,3699],[999,3750],[999,3800],[999,3850],[999,3899],[999,3949],[999,3999],[999,4049],[999,4099],[999,4149],[999,4199],[999,4249],[999,4299],[999,4349],[999,4399],[999,4449],[999,4499],[999,4549],[999,4600],[999,4649],[999,4699],[999,4749],[999,4800],[999,4849],[999,4899],[999,4949],[999,4999],[999,5049],[999,5099],[999,5150],[999,5200],[999,5250],[999,5300],[52.9,5350],[52.6,5400],[51.8,5449],[51.4,5500],[51.2,5549],[51.2,5600],[51.2,5649],[51.2,5700],[51.2,5750],[53.2,5800],[59.6,5850],[67.9,5900],[74.2,5950],[77.5,5999],[81.1,6050],[83.9,6099],[85,6149],[86,6199],[87.2,6250],[87.2,6299],[87.2,6350],[87.2,6399],[87.2,6449],[87.2,6499],[87.2,6549],[87.2,6599],[88.1,6650],[92.1,6699],[95,6750],[96,6799],[96.4,6850],[96.6,6900],[96.8,6950],[97.3,6999],[97.7,7050],[97.8,7099],[97.9,7149],[98.8,7200],[99.8,7249],[100,7300],[100,7349],[100,7400],[100,7449],[100,7499],[100,7549],[100,7599],[100,7649],[100,7699],[100,7749],[100,7800],[100,7849],[100,7900],[100,7950],[100,7999],[100,8050],[100,8099],[100,8149],[100,8199],[100,8249],[100,8299],[100,8350],[100,8399],[100,8450],[100,8499],[100,8549],[100,8599],[100,8649],[100,8699],[100,8750],[100,8799],[100,8849],[100,8899],[100,8950],[100,8999],[100,9049],[100,9099],[100,9149],[100,9199],[100,9250],[100,9299],[100,9349],[100,9399],[100,9449],[100,9500],[100,9550],[100,9599],[100,9649],[100,9699],[100,9749],[100,9799],[100,9849],[100,9900],[100,9949],[100,9999],[100,10049],[100,10099],[100,10149],[100,10199],[100,10249],[100,10299],[100,10350],[100,10399],[100,10450],[100,10499],[100,10549],[100,10600],[100,10649],[100,10700],[100,10749],[100,10800],[100,10849],[100,10899],[100,10949],[100,10999],[100,11049],[100,11099],[100,11149],[100,11199],[100,11249],[100,11299]]",367.7549,371.6212,100,2.1728,"[{""rating"":98.64395141601562,""responseTime"":1.1222000000029766},{""rating"":100,""responseTime"":2.1727999999969825}]",space,3.3265,,371.6212,Definitely yes,100,371.6238,,,[],,0,9,9,9,1,audio/Narrative7Situation9.wav,audio/Narrative8Situation9.wav,audio/Narrative5Situation9.wav,audio/Narrative6Situation9.wav,2,3,3,4,,,,,,,,,,,,,,,,,,,,,,,,,,,,,,,,,,,,,,,
,,,,,6163fbf78813617495ee7a9b,2025-07-07_22h49.27.070,group3.4_multiperson,2023.2.2,MacIntel,30.86419753,686c2ebf0248f13bef9af11f,686c87152a88e47efa572aa5,,,,,,,,,,,,,,,,,,,,,,,,,,,,,371.624,1,audio/Narrative7Situation1.wav,373.6373,,373.6373,429.5365,"[[999,0],[999,50],[999,100],[999,149],[999,199],[999,250],[999,299],[999,349],[999,399],[999,449],[999,499],[999,549],[999,599],[999,649],[999,699],[999,750],[999,799],[999,849],[999,900],[999,950],[999,999],[999,1050],[999,1100],[54.1,1149],[57,1200],[57.6,1250],[57.6,1300],[57.6,1350],[57.5,1399],[57.5,1449],[57.5,1499],[57.5,1550],[57.5,1599],[57.5,1649],[57.5,1699],[57.5,1749],[57.5,1799],[57.5,1849],[57.5,1899],[57.5,1949],[57.5,1999],[57.5,2049],[57.5,2099],[57.5,2149],[57.5,2200],[57.5,2250],[57.5,2300],[57.5,2349],[57.5,2399],[57.5,2449],[57.5,2499],[57.5,2549],[57.5,2600],[57.5,2650],[57.5,2699],[57.5,2749],[57.5,2799],[57.5,2849],[57.5,2899],[57.5,2949],[57.5,2999],[57.5,3049],[57.5,3099],[57.5,3149],[57.5,3199],[57.5,3249],[57.5,3299],[57.5,3349],[57.5,3399],[57.5,3450],[57.5,3500],[57.5,3549],[57.5,3600],[57.5,3649],[57.5,3699],[57.5,3749],[57.5,3799],[57.5,3849],[57.5,3899],[57.5,3949],[57.5,3999],[57.5,4049],[57.5,4099],[57.5,4149],[57.5,4199],[57.5,4249],[57.5,4299],[57.5,4349],[57.5,4399],[57.5,4449],[57.5,4499],[57.5,4549],[57.5,4599],[57.5,4650],[57.5,4699],[57.5,4749],[57.5,4799],[57.5,4849],[57.5,4899],[57.5,4949],[57.5,4999],[57.5,5049],[57.5,5099],[57.5,5149],[57.5,5199],[57.5,5249],[57.5,5299],[57.5,5350],[57.5,5399],[57.5,5449],[56.5,5499],[53.8,5549],[51.9,5899],[48.9,5949],[47.3,5999],[46.9,6049],[46.9,6099],[47.3,6149],[48.1,6199],[49,6249],[49.3,6300],[49.4,6349],[49.5,6399],[49.7,6450],[49.7,6499],[49.7,6549],[49.7,6599],[49.7,6650],[49.7,6699],[49.7,6750],[49.7,6800],[49.7,6849],[49.7,6899],[49.7,6950],[49.7,6999],[49.7,7049],[49.7,7099],[49.7,7149],[49.7,7199],[49.7,7249],[49.7,7299],[49.7,7349],[49.7,7399],[49.7,7450],[49.7,7500],[49.7,7550],[49.7,7599],[49.7,7650],[49.1,7699],[44.9,7750],[37.3,7800],[27.4,7850],[20.7,7899],[16.1,7950],[13.1,8000],[11,8049],[9.5,8100],[8.2,8150],[7.3,8199],[6.7,8249],[6.3,8299],[6.6,8349],[9.3,8400],[14,8449],[20.3,8500],[25.1,8550],[28,8600],[31.3,8649],[33.6,8700],[34.7,8750],[36.3,8799],[39.5,8850],[42.8,8900],[46.4,8950],[49.3,8999],[50.9,9050],[51.8,9100],[52.2,9149],[52.2,9199],[52.2,9249],[52.2,9299],[52.2,9349],[52.2,9400],[52.2,9450],[52.3,9499],[54.4,9549],[57.6,9599],[59.4,9649],[59.8,9700],[60.4,9749],[60.8,9800],[60.8,9850],[60.8,9900],[60.8,9949],[60.8,9999],[60.8,10049],[60.8,10100],[61.1,10149],[61.7,10199],[62,10249],[62,10300],[62,10350],[62,10399],[62,10449],[62,10500],[62.5,10550],[62.9,10599],[62.9,10649],[62.9,10699],[62.9,10750],[62.9,10799],[63.1,10850],[63.4,10899],[63.4,10949],[63.4,11000],[63.4,11049],[63.4,11100],[63.5,11150],[64.9,11200],[67.6,11250],[68.6,11300],[68.9,11349],[69,11399],[69,11449],[69,11500],[69,11550],[69,11599],[68.9,11649],[68.6,11699],[68,11749],[67.4,11799],[67.2,11849],[67.1,11899],[66.9,11949],[66.4,11999],[65.9,12050],[65.8,12099],[65.8,12150],[65.8,12199],[65.8,12249],[65.8,12299],[65.8,12349],[65.8,12399],[66,12449],[66.3,12499],[66.3,12549],[66.3,12599],[66.3,12649],[66.3,12699],[66.3,12749],[66.4,12799],[66.7,12850],[67,12899],[67.9,12949],[68.9,12999],[69.7,13049],[70.3,13099],[71.2,13149],[71.6,13199],[71.7,13249],[71.7,13299],[71.7,13349],[71.7,13399],[71.7,13449],[71.7,13499],[71.7,13549],[71.7,13599],[71.7,13649],[71.7,13699],[71.7,13749],[71.7,13799],[71.7,13850],[71.7,13900],[71.7,13950],[71.7,13999],[71.7,14050],[71.7,14100],[71.7,14149],[71.7,14200],[71.7,14249],[71.7,14299],[71.7,14349],[71.7,14399],[71.7,14449],[71.7,14499],[71.3,14549],[71,14599],[70.9,14649],[70.9,14699],[70.9,14749],[70.9,14799],[70.9,14849],[70.9,14899],[70.9,14950],[70.9,14999],[70.9,15049],[70.9,15099],[70.9,15149],[70.9,15199],[70.9,15249],[70.9,15300],[70.9,15349],[70.9,15399],[70.9,15449],[70.9,15499],[70.9,15549],[70.9,15599],[70.9,15649],[70.9,15699],[70.9,15749],[70.9,15799],[70.9,15850],[70.9,15899],[70.9,15949],[70.9,15999],[70.9,16049],[70.9,16099],[70.9,16149],[70.9,16199],[70.9,16250],[70.9,16299],[70.9,16349],[70.9,16399],[70.9,16449],[70.9,16499],[70.9,16549],[70.9,16599],[70.9,16650],[70.9,16699],[70.9,16749],[70.9,16799],[70.9,16849],[70.9,16899],[70.9,16949],[70.9,16999],[70.9,17049],[70.9,17099],[70.9,17150],[70.9,17199],[70.9,17249],[70.9,17299],[70.9,17349],[70.9,17399],[70.9,17449],[70.9,17499],[70.9,17549],[70.9,17599],[70.9,17649],[70.9,17699],[70.9,17749],[70.9,17799],[70.9,17850],[70.9,17899],[70.9,17949],[70.9,17999],[70.9,18050],[70.9,18099],[70.9,18149],[70.9,18199],[70.9,18250],[70.9,18300],[70.9,18349],[70.9,18399],[70.9,18449],[70.9,18499],[70.9,18549],[70.9,18599],[70.9,18650],[70.9,18699],[70.9,18749],[70.9,18799],[70.9,18849],[70.9,18899],[70.9,18949],[70.9,19000],[70.9,19049],[70.9,19099],[70.9,19149],[70.9,19199],[70.9,19249],[70.9,19299],[70.9,19349],[70.9,19399],[70.9,19449],[70.9,19500],[70.9,19549],[70.9,19599],[70.9,19649],[70.9,19699],[70.9,19749],[70.9,19799],[70.9,19849],[70.9,19899],[70.9,19949],[70.9,19999],[70.9,20049],[70.9,20099],[70.9,20149],[70.9,20199],[70.9,20249],[70.9,20299],[70.9,20350],[70.9,20399],[70.9,20449],[70.9,20500],[70.9,20549],[70.9,20599],[70.9,20649],[70.9,20699],[70.9,20749],[70.9,20799],[70.9,20850],[70.9,20900],[70.9,20949],[70.9,20999],[70.9,21050],[70.9,21100],[70.9,21149],[70.9,21199],[70.9,21250],[70.9,21299],[70.9,21349],[70.9,21399],[70.9,21449],[70.9,21499],[70.9,21549],[70.9,21599],[70.9,21649],[70.9,21699],[70.9,21749],[70.9,21799],[70.9,21849],[70.9,21899],[70.9,21949],[70.9,21999],[70.9,22049],[70.9,22099],[70.9,22149],[70.9,22199],[70.9,22249],[70.9,22299],[70.9,22349],[70.9,22399],[70.9,22449],[70.9,22499],[70.9,22549],[70.9,22599],[70.9,22649],[70.9,22699],[70.9,22749],[70.9,22799],[70.9,22849],[70.9,22899],[70.9,22949],[70.9,22999],[70.9,23049],[70.9,23099],[70.9,23149],[70.9,23199],[70.9,23249],[70.9,23299],[70.9,23349],[70.9,23400],[70.9,23449],[70.9,23499],[70.9,23549],[70.9,23599],[70.9,23649],[70.9,23699],[70.9,23749],[70.9,23799],[70.9,23849],[70.9,23899],[70.9,23949],[70.9,23999],[70.9,24049],[70.9,24099],[70.9,24149],[70.9,24199],[70.9,24249],[70.9,24299],[70.9,24349],[70.9,24399],[70.9,24449],[70.9,24499],[70.9,24549],[70.9,24599],[70.9,24650],[70.9,24699],[70.9,24749],[70.9,24799],[70.9,24849],[70.9,24899],[70.9,24949],[70.9,24999],[70.9,25049],[70.9,25099],[70.9,25149],[70.9,25199],[70.9,25249],[70.9,25299],[70.9,25349],[70.9,25399],[70.9,25449],[70.9,25499],[70.9,25549],[70.9,25599],[70.9,25649],[70.9,25709],[70.9,25749],[70.9,25799],[70.9,25849],[70.9,25900],[70.9,25949],[70.9,25999],[70.9,26049],[70.9,26099],[70.9,26149],[70.9,26199],[70.9,26249],[70.9,26299],[70.9,26349],[70.9,26399],[70.9,26450],[70.9,26499],[70.9,26549],[70.9,26599],[70.9,26649],[70.9,26699],[70.9,26749],[70.9,26799],[70.9,26850],[70.9,26900],[70.9,26949],[70.9,26999],[70.9,27050],[70.9,27099],[70.9,27149],[70.9,27199],[70.9,27249],[70.9,27299],[70.9,27349],[70.9,27399],[70.9,27449],[70.9,27499],[70.9,27549],[70.9,27599],[70.9,27649],[70.9,27699],[70.9,27749],[70.9,27799],[70.9,27849],[70.9,27899],[70.9,27949],[70.9,27999],[70.9,28049],[70.9,28099],[70.9,28149],[70.9,28199],[70.9,28249],[70.9,28299],[70.9,28349],[70.9,28399],[70.9,28449],[70.9,28499],[70.9,28549],[70.9,28599],[70.9,28649],[70.9,28699],[70.9,28749],[70.9,28799],[70.9,28849],[70.9,28899],[70.9,28949],[70.9,28999],[70.9,29049],[70.9,29099],[70.9,29149],[70.9,29199],[70.9,29249],[70.9,29299],[70.9,29349],[70.9,29399],[70.9,29449],[70.9,29499],[70.9,29549],[70.9,29599],[70.9,29649],[70.9,29699],[70.9,29749],[70.9,29799],[70.9,29849],[70.9,29899],[70.9,29949],[70.9,29999],[70.9,30049],[70.9,30099],[70.9,30149],[70.9,30199],[70.9,30249],[70.9,30299],[70.9,30349],[70.9,30399],[70.9,30449],[70.9,30499],[70.9,30549],[70.9,30599],[70.9,30649],[70.9,30699],[70.9,30749],[70.9,30799],[70.9,30849],[70.9,30899],[70.9,30949],[70.9,30999],[70.9,31049],[70.9,31099],[70.9,31149],[70.9,31199],[70.9,31249],[70.9,31299],[70.9,31349],[70.9,31399],[70.9,31449],[70.9,31499],[70.9,31549],[70.9,31599],[70.9,31649],[70.9,31699],[70.9,31749],[70.9,31799],[70.9,31849],[70.9,31899],[70.9,31949],[70.9,31999],[70.9,32049],[70.9,32099],[70.9,32149],[70.9,32199],[70.9,32249],[70.9,32299],[70.9,32349],[70.5,32399],[67.2,32449],[61.5,32499],[57.1,32549],[53.5,32599],[50,32649],[47.7,32699],[46,32749],[45,32799],[44.9,32849],[44.9,32899],[44.9,32949],[44.9,32999],[44.9,33049],[44.9,33099],[44.9,33149],[44.9,33199],[44.9,33249],[44.9,33300],[45.9,33349],[49.8,33399],[53.5,33449],[55,33499],[55.4,33549],[55.6,33599],[55.9,33649],[56,33699],[56.2,33749],[57.1,33799],[58.5,33850],[60.4,33899],[63.2,33949],[65.1,33999],[66.4,34049],[67.2,34099],[67.6,34149],[68,34199],[68.3,34249],[68.4,34299],[68.4,34349],[68.4,34399],[68.4,34449],[68.4,34499],[68.4,34549],[68.4,34599],[68.4,34649],[68.4,34699],[68.4,34749],[68.4,34799],[68.7,34849],[69.2,34899],[69.5,34949],[70.2,34999],[71.4,35049],[72.1,35099],[72.5,35149],[72.7,35199],[72.7,35249],[72.7,35299],[72.7,35349],[72.9,35399],[73.4,35449],[73.7,35499],[73.9,35549],[73.9,35599],[74.2,35649],[74.5,35699],[74.9,35749],[75.1,35799],[75.1,35849],[75.1,35899],[75.1,35949],[75.1,35999],[75.1,36049],[75.1,36100],[75.1,36149],[75.1,36199],[75.1,36249],[75.1,36299],[75.1,36349],[75.1,36399],[75.1,36449],[75.1,36499],[75.1,36549],[75.1,36599],[75.1,36649],[75.1,36700],[75.1,36749],[75.1,36799],[75.1,36849],[75.1,36899],[75.1,36949],[75.1,36999],[75.1,37049],[75.1,37099],[75.1,37149],[75.4,37200],[76.3,37249],[77.4,37299],[78.1,37349],[78.2,37399],[78.2,37449],[78.2,37499],[78.5,37549],[79.4,37599],[80.9,37649],[81.4,37699],[81.4,37749],[81.4,37799],[81.4,37849],[81.4,37899],[81.4,37949],[81.4,37999],[81.4,38049],[81.4,38099],[81.4,38149],[81.4,38199],[81.4,38249],[81.4,38299],[81.4,38349],[81.4,38399],[81.4,38449],[81.4,38499],[81.4,38549],[81.4,38599],[81.4,38649],[81.4,38699],[81.4,38749],[81.4,38799],[81.4,38849],[81.4,38899],[81.4,38949],[81.4,38999],[81.4,39049],[81.4,39099],[81.4,39149],[81.4,39199],[81.4,39249],[81.4,39299],[81.4,39349],[81.4,39399],[81.4,39449],[81.4,39499],[81.4,39549],[81.4,39599],[81.4,39649],[81.4,39699],[81.4,39749],[81.4,39799],[81.4,39849],[81.4,39899],[81.4,39949],[81.4,39999],[81.4,40049],[81.4,40099],[81.4,40149],[81.4,40199],[81.4,40249],[81.4,40299],[81.4,40349],[81.4,40399],[81.4,40449],[81.4,40499],[81.4,40549],[81.4,40599],[81.4,40649],[81.4,40699],[81.4,40749],[81.4,40799],[81.4,40849],[81.4,40899],[81.4,40949],[81.4,40999],[81.4,41049],[81.4,41100],[81.4,41149],[81.4,41199],[81.4,41249],[81.4,41299],[81.4,41349],[81.4,41399],[81.4,41449],[81.4,41499],[81.4,41549],[81.4,41599],[81.4,41649],[81.4,41699],[81.4,41749],[81.4,41799],[81.4,41849],[81.4,41899],[81.4,41949],[81.4,41999],[81.4,42049],[81.4,42099],[81.4,42149],[81.4,42199],[81.4,42249],[81.4,42299],[81.4,42349],[81.4,42399],[81.4,42449],[81.4,42499],[81.4,42549],[81.4,42599],[81.4,42649],[81.4,42699],[81.4,42749],[81.4,42799],[81.4,42849],[81.4,42899],[81.4,42949],[81.4,42999],[81.4,43049],[81.4,43099],[81.4,43149],[81.4,43199],[81.4,43249],[81.4,43299],[81.4,43349],[81.4,43399],[81.4,43449],[81.4,43499],[81.4,43549],[81.4,43599],[81.4,43649],[81.4,43699],[81.4,43749],[81.4,43799],[81.4,43849],[81.4,43899],[81.4,43949],[81.4,43999],[81.4,44049],[81.4,44099],[81.4,44149],[81.4,44199],[81.4,44249],[81.4,44299],[81.4,44349],[81.4,44399],[81.4,44449],[81.4,44499],[81.4,44549],[81.4,44599],[81.4,44649],[81.4,44699],[81.4,44749],[81.4,44800],[81.4,44849],[81.4,44899],[81.4,44949],[81.4,45000],[81.4,45049],[81.4,45099],[81.4,45149],[81.4,45199],[81.4,45249],[81.4,45299],[81.4,45349],[81.4,45399],[81.4,45449],[81.4,45499],[81.4,45549],[81.4,45599],[81.4,45649],[81.4,45699],[81.4,45749],[81.4,45799],[81.4,45849],[81.4,45899],[81.4,45949],[81.4,45999],[81.4,46049],[81.4,46099],[81.4,46149],[81.4,46199],[81.4,46249],[81.4,46299],[81.4,46349],[81.4,46399],[81.4,46449],[81.4,46499],[81.4,46549],[81.4,46599],[81.4,46649],[81.4,46699],[81.4,46749],[81.4,46799],[81.4,46849],[81.4,46899],[81.4,46949],[81.4,46999],[81.4,47049],[81.4,47099],[81.4,47149],[81.4,47199],[81.4,47249],[81.4,47300],[81.4,47349],[81.4,47399],[81.4,47449],[81.4,47499],[81.4,47549],[81.4,47599],[81.4,47649],[81.4,47699],[81.4,47749],[81.4,47799],[81.4,47849],[81.4,47899],[81.4,47949],[81.4,47999],[81.4,48049],[81.4,48099],[81.4,48150],[81.4,48199],[81.4,48249],[81.4,48300],[81.4,48349],[81.4,48399],[81.4,48449],[81.4,48499],[81.4,48548],[81.4,48599],[81.4,48649],[81.4,48700],[81.4,48749],[81.4,48799],[81.4,48849],[81.4,48899],[81.4,48949],[81.4,48999],[81.4,49049],[81.4,49100],[81.4,49150],[81.4,49199],[81.4,49250],[81.4,49299],[81.4,49349],[81.4,49400],[81.4,49449],[81.4,49499],[81.4,49549],[81.4,49600],[81.4,49649],[81.4,49700],[81.4,49749],[81.4,49799],[81.4,49849],[81.4,49899],[81.4,49949],[81.4,49999],[81.4,50049],[81.4,50099],[81.4,50150],[81.4,50199],[81.4,50249],[81.4,50299],[81.4,50350],[81.4,50399],[81.4,50449],[81.4,50499],[81.4,50549],[81.4,50600],[81.4,50649],[81.4,50699],[81.4,50749],[81.4,50799],[81.4,50850],[81.4,50899],[81.4,50949],[81.4,50999],[81.4,51049],[81.4,51099],[81.4,51150],[81.4,51200],[81.4,51249],[81.4,51299],[81.4,51349],[81.4,51399],[81.4,51450],[81.4,51499],[81.4,51550],[81.4,51600],[81.4,51649],[81.4,51699],[81.4,51749],[81.4,51799],[81.4,51850],[81.4,51900],[81.4,51949],[81.4,51999],[81.4,52049],[81.4,52099],[81.4,52149],[81.4,52198],[81.4,52248],[81.4,52299],[81.4,52348],[81.4,52398],[81.4,52449],[81.4,52498],[81.4,52549],[81.4,52600],[81.4,52649],[81.4,52699],[81.4,52749],[81.4,52799],[81.4,52849],[81.4,52898],[81.4,52949],[81.4,52999],[81.4,53049],[81.4,53098],[81.4,53149],[81.4,53199],[81.4,53248],[81.4,53299],[81.4,53349],[81.4,53399],[81.4,53449],[81.4,53499],[81.4,53549],[81.4,53599],[81.4,53649],[81.4,53698],[81.4,53749],[81.4,53798],[81.4,53849],[81.4,53899],[81.4,53949],[81.4,53998],[81.4,54049],[81.4,54099],[81.4,54149],[81.4,54199],[81.4,54249],[81.4,54299],[81.4,54349],[81.4,54398],[81.4,54449],[81.4,54499],[81.4,54548],[81.4,54599],[81.4,54649],[81.4,54699],[81.4,54749],[81.4,54799],[81.4,54848],[81.4,54899],[81.4,54948],[81.4,54999],[81.4,55049],[81.4,55099],[81.4,55149],[81.4,55199],[81.4,55249],[81.4,55300],[81.4,55350],[81.4,55400],[81.4,55449],[81.4,55500],[81.4,55550],[81.4,55599],[81.4,55649],[81.4,55699],[81.4,55749],[81.4,55798],[81.4,55849],[81.4,55899]]",429.5368,436.8363,87.63554891,6.1912,"[{""rating"":87.6355489095052,""responseTime"":6.191200000002993}]",space,6.7685,,436.8364,Partially,50,436.8408,,,[],,0,10,10,10,1,audio/Narrative8Situation1.wav,audio/Narrative7Situation1.wav,audio/Narrative6Situation1.wav,audio/Narrative5Situation1.wav,5,2,2,5,,,,,,,,,,,,,,,,,,,,,,,,,,,,,,,,,,,,,,,
,,,,,6163fbf78813617495ee7a9b,2025-07-07_22h49.27.070,group3.4_multiperson,2023.2.2,MacIntel,30.86419753,686c2ebf0248f13bef9af11f,686c87152a88e47efa572aa5,,,,,,,,,,,,,,,,,,,,,,,,,,,,,436.8411,1,audio/Narrative7Situation2.wav,439.8538,,439.8538,447.3372,"[[999,0],[999,49],[999,99],[999,149],[999,199],[999,250],[999,299],[999,348],[999,399],[999,450],[999,500],[999,550],[999,599],[999,648],[999,699],[999,748],[999,800],[999,850],[999,900],[999,950],[999,999],[999,1050],[999,1100],[999,1149],[999,1200],[999,1250],[999,1299],[999,1350],[999,1399],[999,1449],[999,1499],[999,1548],[999,1599],[999,1650],[999,1700],[999,1750],[999,1799],[999,1849],[999,1899],[999,1949],[999,2000],[999,2050],[999,2100],[999,2150],[999,2200],[999,2250],[999,2299],[999,2349],[999,2400],[999,2450],[999,2500],[999,2550],[999,2599],[999,2649],[999,2699],[999,2749],[999,2800],[999,2849],[999,2899],[999,2949],[999,2999],[999,3049],[999,3099],[999,3148],[999,3199],[999,3250],[999,3299],[999,3349],[999,3399],[999,3449],[999,3499],[999,3548],[999,3599],[999,3648],[999,3699],[999,3750],[999,3799],[999,3849],[999,3899],[999,3949],[999,4000],[999,4048],[999,4099],[999,4149],[999,4199],[999,4250],[999,4299],[999,4349],[999,4399],[999,4449],[999,4500],[999,4549],[999,4599],[999,4649],[999,4699],[999,4750],[999,4799],[999,4849],[999,4900],[999,4949],[999,4999],[999,5049],[999,5099],[999,5148],[999,5199],[999,5249],[999,5299],[999,5349],[999,5399],[999,5449],[999,5499],[999,5548],[999,5600],[999,5650],[999,5699],[999,5749],[999,5799],[999,5849],[999,5899],[999,5949],[999,5999],[999,6049],[999,6099],[999,6149],[999,6199],[999,6250],[999,6299],[999,6348],[999,6399],[999,6448],[999,6500],[999,6550],[999,6599],[999,6650],[999,6699],[999,6749],[999,6799],[999,6849],[999,6899],[999,6949],[999,6999],[999,7049],[999,7099],[999,7148],[999,7199],[999,7249],[999,7299],[999,7349],[999,7399],[999,7449]]",447.3373,451.0028,100,2.9065,"[{""rating"":84.2956797281901,""responseTime"":2.1488999999984912},{""rating"":100,""responseTime"":2.906499999999994}]",space,3.1168,,451.0028,Partially,50,451.0045,,,[],,0,11,11,11,1,audio/Narrative8Situation2.wav,audio/Narrative7Situation2.wav,audio/Narrative6Situation2.wav,audio/Narrative5Situation2.wav,3,3,3,3,,,,,,,,,,,,,,,,,,,,,,,,,,,,,,,,,,,,,,,
,,,,,6163fbf78813617495ee7a9b,2025-07-07_22h49.27.070,group3.4_multiperson,2023.2.2,MacIntel,30.86419753,686c2ebf0248f13bef9af11f,686c87152a88e47efa572aa5,,,,,,,,,,,,,,,,,,,,,,,,,,,,,451.0048,1,audio/Narrative7Situation3.wav,459.0194,,459.0194,468.2702,[],468.2703,474.2028,50.32261319,4.799,"[{""rating"":53.54797363281249,""responseTime"":1.4744999999999777},{""rating"":50.32261318630642,""responseTime"":4.798999999999978}]",space,5.3833,,474.2029,Not at all,0,474.2058,,,[],,0,12,12,12,1,audio/Narrative8Situation3.wav,audio/Narrative7Situation3.wav,audio/Narrative6Situation3.wav,audio/Narrative5Situation3.wav,4,8,5,3,,,,,,,,,,,,,,,,,,,,,,,,,,,,,,,,,,,,,,,
,,,,,6163fbf78813617495ee7a9b,2025-07-07_22h49.27.070,group3.4_multiperson,2023.2.2,MacIntel,30.86419753,686c2ebf0248f13bef9af11f,686c87152a88e47efa572aa5,,,,,,,,,,,,,,,,,,,,,,,,,,,,,474.2061,1,audio/Narrative7Situation4.wav,477.2199,,477.22,488.9365,"[[999,0],[999,49],[999,99],[999,150],[999,199],[999,249],[999,300],[999,348],[999,399],[999,449],[999,500],[999,550],[999,599],[999,650],[999,700],[999,750],[999,799],[999,850],[999,899],[999,949],[999,1000],[999,1049],[999,1099],[999,1149],[999,1199],[999,1249],[999,1300],[999,1349],[999,1399],[999,1449],[999,1500],[999,1550],[999,1599],[999,1649],[999,1699],[999,1750],[999,1799],[999,1850],[999,1899],[999,1949],[999,1999],[999,2049],[999,2100],[999,2149],[999,2199],[999,2249],[999,2300],[999,2349],[999,2399],[999,2449],[999,2499],[999,2549],[999,2599],[999,2649],[999,2699],[999,2749],[999,2799],[999,2848],[999,2899],[999,2948],[999,2999],[999,3048],[999,3099],[999,3149],[999,3199],[999,3249],[999,3300],[999,3350],[999,3399],[999,3449],[999,3500],[999,3549],[999,3599],[999,3649],[999,3699],[999,3749],[999,3800],[999,3849],[999,3899],[999,3949],[999,3999],[999,4049],[999,4100],[999,4149],[999,4199],[999,4249],[999,4299],[999,4350],[999,4399],[999,4449],[999,4500],[999,4548],[999,4600],[999,4649],[999,4699],[999,4749],[999,4799],[999,4849],[999,4899],[999,4949],[999,4999],[999,5049],[999,5099],[999,5149],[999,5199],[999,5249],[999,5300],[999,5349],[999,5399],[999,5449],[999,5499],[999,5550],[999,5599],[999,5649],[999,5699],[999,5749],[999,5799],[999,5850],[999,5899],[999,5949],[999,5999],[999,6049],[999,6098],[999,6149],[999,6199],[999,6249],[999,6299],[999,6349],[999,6399],[999,6449],[999,6499],[999,6549],[999,6599],[999,6649],[999,6699],[999,6750],[999,6799],[999,6849],[999,6899],[999,6949],[999,6999],[999,7049],[999,7099],[999,7149],[999,7199],[999,7249],[999,7299],[999,7349],[999,7399],[999,7449],[999,7499],[999,7549],[999,7599],[999,7649],[999,7699],[999,7750],[999,7799],[999,7849],[999,7898],[999,7949],[999,7999],[999,8049],[999,8099],[999,8148],[999,8199],[999,8249],[999,8298],[999,8349],[999,8399],[999,8449],[999,8499],[999,8549],[999,8599],[999,8649],[999,8699],[999,8749],[999,8799],[999,8849],[999,8899],[999,8949],[999,8999],[999,9049],[999,9099],[999,9149],[999,9199],[999,9249],[999,9298],[999,9349],[999,9399],[999,9449],[999,9499],[999,9549],[999,9599],[999,9649],[999,9699],[999,9749],[999,9799],[999,9849],[999,9899],[999,9949],[999,9999],[999,10049],[999,10098],[999,10149],[999,10199],[999,10249],[999,10299],[999,10349],[999,10399],[999,10449],[999,10499],[999,10549],[999,10599],[999,10649],[999,10699],[999,10749],[999,10798],[999,10849],[999,10899],[999,10948],[999,10999],[999,11049],[999,11099],[999,11149],[999,11199],[999,11249],[999,11299],[999,11349],[999,11399],[999,11448],[999,11499],[999,11549],[999,11599],[999,11649],[999,11699]]",488.9367,495.5532,0,5.0745,"[{""rating"":0,""responseTime"":5.0745000000000005}]",space,6.0655,,495.5533,Not at all,0,495.5555,,,[],,0,13,13,13,1,audio/Narrative8Situation4.wav,audio/Narrative7Situation4.wav,audio/Narrative6Situation4.wav,audio/Narrative5Situation4.wav,3,3,2,1,,,,,,,,,,,,,,,,,,,,,,,,,,,,,,,,,,,,,,,
,,,,,6163fbf78813617495ee7a9b,2025-07-07_22h49.27.070,group3.4_multiperson,2023.2.2,MacIntel,30.86419753,686c2ebf0248f13bef9af11f,686c87152a88e47efa572aa5,,,,,,,,,,,,,,,,,,,,,,,,,,,,,495.5559,1,audio/Narrative7Situation5.wav,500.5688,,500.5689,509.0531,"[[999,0],[999,50],[999,100],[999,150],[999,200],[999,250],[999,300],[999,350],[999,400],[999,450],[999,500],[999,550],[999,600],[999,649],[999,700],[999,750],[999,800],[999,850],[999,900],[999,950],[999,1000],[999,1049],[999,1100],[999,1150],[999,1200],[999,1250],[999,1300],[999,1350],[999,1400],[999,1450],[999,1500],[999,1550],[999,1600],[999,1650],[999,1700],[999,1750],[999,1800],[999,1849],[999,1899],[999,1950],[999,2000],[999,2050],[999,2100],[999,2150],[999,2200],[999,2250],[999,2300],[999,2350],[999,2400],[999,2450],[999,2500],[999,2550],[999,2599],[999,2650],[999,2700],[999,2750],[999,2800],[999,2850],[999,2900],[999,2950],[999,2999],[999,3049],[999,3100],[999,3150],[999,3200],[999,3250],[999,3300],[999,3350],[999,3400],[999,3450],[999,3500],[999,3550],[999,3600],[999,3650],[999,3700],[999,3750],[999,3800],[999,3849],[999,3900],[999,3950],[999,3999],[999,4050],[999,4100],[999,4150],[999,4200],[999,4249],[999,4300],[999,4350],[999,4400],[999,4450],[999,4500],[999,4550],[999,4600],[999,4650],[999,4700],[999,4749],[999,4800],[999,4850],[999,4900],[999,4950],[999,5000],[999,5049],[999,5100],[999,5150],[999,5199],[999,5250],[999,5300],[999,5350],[999,5400],[999,5449],[999,5500],[999,5550],[999,5600],[999,5650],[999,5700],[999,5749],[999,5800],[999,5850],[999,5899],[999,5950],[999,5999],[999,6050],[999,6100],[999,6149],[999,6200],[999,6250],[999,6300],[999,6350],[999,6399],[999,6450],[999,6500],[999,6550],[999,6600],[999,6650],[999,6700],[999,6750],[999,6800],[999,6850],[999,6900],[999,6950],[999,7000],[999,7050],[999,7100],[999,7150],[999,7200],[999,7250],[999,7300],[999,7350],[999,7400],[999,7450],[999,7500],[999,7550],[999,7600],[999,7650],[999,7700],[999,7750],[999,7800],[999,7850],[999,7900],[999,7950],[999,7999],[999,8050],[999,8100],[999,8150],[999,8200],[999,8249],[999,8300],[999,8350],[999,8400],[999,8450]]",509.0533,519.0018,68.9726766,9.0061,"[{""rating"":53.69004991319445,""responseTime"":3.1557999999970434},{""rating"":57.15206570095486,""responseTime"":4.889399999998432},{""rating"":63.92186482747396,""responseTime"":7.973600000001511},{""rating"":68.97267659505208,""responseTime"":9.006100000001425}]",space,9.4016,,519.0019,Definitely yes,100,519.0053,,,[],,0,14,14,14,1,audio/Narrative8Situation5.wav,audio/Narrative7Situation5.wav,audio/Narrative6Situation5.wav,audio/Narrative5Situation5.wav,2,5,2,5,,,,,,,,,,,,,,,,,,,,,,,,,,,,,,,,,,,,,,,
,,,,,6163fbf78813617495ee7a9b,2025-07-07_22h49.27.070,group3.4_multiperson,2023.2.2,MacIntel,30.86419753,686c2ebf0248f13bef9af11f,686c87152a88e47efa572aa5,,,,,,,,,,,,,,,,,,,,,,,,,,,,,519.0056,1,audio/Narrative7Situation6.wav,522.0194,,522.0195,532.0028,[],532.0029,537.3859,94.68095567,4.7395,"[{""rating"":84.11176045735678,""responseTime"":1.4318000000045004},{""rating"":94.68095567491319,""responseTime"":4.739500000000021}]",space,4.8336,,537.386,Not at all,0,537.389,,,[],,0,15,15,15,1,audio/Narrative8Situation6.wav,audio/Narrative7Situation6.wav,audio/Narrative6Situation6.wav,audio/Narrative5Situation6.wav,2,3,2,3,,,,,,,,,,,,,,,,,,,,,,,,,,,,,,,,,,,,,,,
,,,,,6163fbf78813617495ee7a9b,2025-07-07_22h49.27.070,group3.4_multiperson,2023.2.2,MacIntel,30.86419753,686c2ebf0248f13bef9af11f,686c87152a88e47efa572aa5,,,,,,,,,,,,,,,,,,,,,,,,,,,,,537.3893,1,audio/Narrative7Situation7.wav,542.4018,,542.4018,559.5687,"[[999,0],[999,50],[999,99],[999,150],[999,200],[999,250],[999,300],[999,350],[999,400],[999,450],[999,499],[999,550],[999,600],[999,650],[999,700],[999,750],[999,800],[999,849],[999,899],[999,950],[999,1000],[999,1050],[999,1100],[999,1150],[999,1199],[999,1250],[999,1300],[999,1350],[999,1400],[999,1450],[999,1500],[999,1550],[999,1600],[999,1650],[999,1700],[999,1750],[999,1800],[999,1850],[999,1899],[999,1950],[999,2000],[999,2050],[999,2100],[999,2150],[999,2200],[999,2250],[999,2300],[999,2350],[999,2399],[999,2450],[999,2500],[999,2550],[999,2600],[999,2650],[999,2700],[999,2750],[999,2800],[999,2850],[999,2900],[999,2950],[999,3000],[999,3049],[999,3100],[999,3150],[999,3200],[999,3249],[999,3300],[999,3350],[999,3400],[999,3450],[999,3500],[999,3550],[999,3600],[999,3650],[999,3700],[999,3750],[999,3800],[999,3850],[999,3900],[999,3950],[999,3999],[999,4050],[999,4099],[999,4150],[999,4199],[999,4250],[999,4300],[999,4350],[999,4399],[999,4450],[999,4500],[999,4550],[999,4599],[999,4650],[999,4700],[999,4750],[999,4800],[999,4850],[999,4900],[999,4950],[999,5000],[999,5049],[999,5100],[999,5150],[999,5199],[999,5250],[999,5300],[999,5350],[999,5400],[999,5450],[999,5500],[999,5550],[999,5599],[999,5650],[999,5700],[999,5749],[999,5800],[999,5850],[999,5899],[60.1,5950],[59.8,6000],[59.3,6049],[58.6,6100],[58,6150],[57.6,6200],[57.6,6250],[57.6,6300],[57.6,6350],[57.6,6400],[57.6,6450],[57.6,6500],[57.6,6550],[57.6,6600],[57.6,6650],[57.6,6700],[57.6,6750],[57.6,6800],[57.6,6849],[57.6,6900],[57.6,6950],[57.6,7000],[57.6,7050],[57.6,7100],[57.6,7149],[57.6,7200],[57.6,7250],[57.6,7300],[57.6,7349],[58.3,7399],[64,7450],[69.2,7499],[72.8,7549],[76,7599],[79.1,7649],[81.4,7699],[85.1,7749],[87.4,7799],[90.3,7850],[92.5,7899],[94.6,7949],[95.6,8000],[96.3,8049],[96.3,8099],[96.3,8150],[96.3,8200],[96.3,8249],[97.3,8300],[98.1,8349],[98.4,8399],[98.7,8449],[98.8,8500],[98.7,8550],[98.4,8600],[98.4,8650],[98.4,8700],[98.4,8750],[98.4,8799],[98.4,8850],[98.4,8899],[98.4,8950],[98.4,9000],[98.4,9050],[98.4,9100],[98.4,9150],[98.4,9199],[98.4,9250],[98.4,9300],[98.4,9350],[98.4,9400],[98.4,9450],[98.4,9500],[98.4,9550],[98.4,9599],[98.4,9649],[98.4,9700],[98.4,9750],[98.4,9799],[98.4,9850],[98.4,9900],[98.4,9950],[98.4,10000],[98.4,10050],[98.4,10100],[98.4,10150],[98.4,10200],[98.4,10250],[98.4,10300],[98.4,10350],[98.4,10400],[98.4,10450],[98.4,10499],[98.4,10550],[98.4,10599],[98.4,10650],[98.4,10700],[98.4,10749],[98.4,10799],[98.4,10850],[98.4,10900],[98.4,10949],[98.4,11000],[98.4,11050],[98.4,11100],[98.4,11150],[98.4,11199],[98.4,11249],[98.4,11300],[98.4,11350],[98.4,11399],[98.4,11450],[98.4,11500],[98.4,11550],[98.4,11599],[98.4,11649],[98.4,11700],[98.4,11750],[98.4,11800],[98.4,11850],[98.4,11899],[98.4,11950],[98.4,12000],[98.4,12050],[98.4,12099],[98.4,12150],[98.4,12199],[98.4,12250],[98.4,12300],[98.4,12350],[98.4,12399],[98.4,12450],[98.4,12499],[98.4,12550],[98.4,12600],[98.4,12650],[98.4,12700],[98.4,12750],[98.4,12800],[98.4,12849],[98.4,12900],[98.4,12950],[98.4,12999],[98.4,13050],[98.4,13100],[98.4,13150],[98.4,13199],[98.4,13249],[98.4,13300],[98.4,13350],[98.4,13400],[98.4,13450],[98.4,13500],[98.4,13550],[98.4,13599],[98.4,13650],[98.4,13699],[98.4,13750],[98.4,13799],[98.4,13850],[98.4,13900],[98.4,13950],[98.4,13999],[98.4,14050],[98.4,14100],[98.4,14150],[98.4,14199],[98.4,14250],[98.4,14300],[98.4,14350],[98.4,14400],[98.4,14449],[98.4,14500],[98.4,14550],[98.4,14600],[98.4,14650],[98.4,14700],[98.4,14750],[98.4,14799],[98.4,14849],[98.4,14900],[98.4,14950],[98.4,15000],[98.4,15050],[98.4,15100],[98.4,15150],[98.4,15199],[98.4,15249],[98.4,15300],[98.4,15350],[98.4,15400],[98.4,15450],[98.4,15500],[98.4,15550],[98.4,15599],[98.4,15649],[98.4,15699],[98.4,15750],[98.4,15799],[98.4,15850],[98.4,15900],[98.4,15950],[98.4,15999],[98.4,16050],[98.4,16100],[98.4,16150],[98.4,16200],[98.4,16250],[98.4,16300],[98.4,16350],[98.4,16399],[98.4,16449],[98.4,16499],[98.4,16550],[98.4,16599],[98.4,16650],[98.4,16700],[98.4,16750],[98.4,16799],[98.4,16850],[98.4,16899],[98.4,16950],[98.4,17000],[98.4,17050],[98.4,17100],[98.4,17149]]",559.5689,563.5523,100,2.073,"[{""rating"":100,""responseTime"":2.072999999999979}]",space,3.4531,,563.5523,Definitely yes,100,563.5565,,,[],,0,16,16,16,1,audio/Narrative8Situation7.wav,audio/Narrative7Situation7.wav,audio/Narrative6Situation7.wav,audio/Narrative5Situation7.wav,3,5,5,4,,,,,,,,,,,,,,,,,,,,,,,,,,,,,,,,,,,,,,,
,,,,,6163fbf78813617495ee7a9b,2025-07-07_22h49.27.070,group3.4_multiperson,2023.2.2,MacIntel,30.86419753,686c2ebf0248f13bef9af11f,686c87152a88e47efa572aa5,,,,,,,,,,,,,,,,,,,,,,,,,,,,,563.5568,1,audio/Narrative7Situation8.wav,565.5687,,565.5687,575.6014,"[[999,0],[999,50],[999,100],[999,149],[999,200],[999,250],[999,299],[999,349],[999,399],[999,450],[999,499],[999,550],[999,600],[999,650],[999,699],[999,749],[999,799],[999,850],[999,899],[999,949],[999,999],[999,1050],[999,1099],[999,1149],[999,1199],[999,1249],[999,1299],[999,1349],[999,1399],[999,1450],[999,1500],[999,1549],[999,1600],[999,1650],[999,1699],[999,1749],[999,1800],[999,1850],[999,1900],[999,1949],[999,1999],[999,2049],[999,2100],[999,2149],[999,2200],[999,2250],[999,2300],[999,2350],[999,2399],[999,2450],[999,2499],[999,2549],[999,2600],[999,2650],[999,2699],[999,2750],[999,2800],[999,2850],[999,2899],[999,2949],[999,2999],[999,3049],[999,3099],[999,3149],[999,3199],[999,3250],[999,3298],[999,3349],[999,3399],[999,3450],[999,3499],[999,3549],[999,3599],[999,3649],[999,3700],[999,3749],[999,3800],[999,3850],[999,3899],[999,3949],[999,3999],[999,4050],[999,4100],[999,4149],[999,4199],[999,4250],[999,4300],[999,4349],[999,4399],[999,4449],[999,4499],[999,4549],[999,4599],[999,4650],[999,4699],[999,4749],[999,4800],[999,4850],[999,4900],[57.7,4950],[57.7,4999],[57.5,5050],[57.3,5099],[57.2,5150],[57.1,5199],[57.1,5249],[57.1,5298],[57.1,5349],[57.1,5399],[57.1,5448],[57.1,5499],[57.1,5549],[57.2,5599],[57.2,5649],[57.2,5699],[57.2,5749],[57.2,5800],[57.2,5850],[57.2,5899],[57.2,5949],[57.2,5999],[57.2,6050],[57.2,6100],[57.2,6149],[57.2,6200],[57.2,6249],[57.2,6299],[57.2,6349],[57.2,6400],[57.2,6450],[57.2,6500],[57.2,6549],[57.2,6600],[57.2,6649],[57.2,6699],[57.2,6749],[57.2,6799],[57.2,6849],[57.2,6899],[57.2,6950],[57.2,6999],[57.2,7050],[57.2,7099],[57.2,7149],[57.2,7200],[57.2,7250],[57.2,7300],[57.2,7349],[57.2,7399],[57.2,7450],[57.2,7499],[57.2,7550],[57.2,7599],[57.2,7649],[57.2,7699],[57.2,7749],[57.2,7800],[57.2,7850],[57.2,7899],[57.2,7949],[57.2,7999],[57.2,8050],[57.2,8099],[57.2,8149],[57.2,8200],[57.2,8250],[57.2,8298],[57.2,8349],[57.2,8399],[57.2,8450],[57.2,8500],[57.2,8549],[57.2,8599],[57.2,8649],[57.2,8699],[57.2,8749],[57.2,8799],[57.2,8849],[55.8,8899],[53.4,8949],[51.9,9000],[51.6,9050],[51.6,9099],[51.5,9149],[51.3,9199],[51.1,9249],[50.8,9300],[50.8,9348],[50.8,9399],[50.8,9450],[50.8,9499],[50.8,9549],[50.8,9599],[50.8,9649],[50.8,9699],[50.8,9749],[50.8,9798],[51.3,9849],[53.2,9898],[57.1,9949],[61.4,10000]]",575.6016,580.3683,92.71596273,3.7248,"[{""rating"":93.71456570095486,""responseTime"":1.9661999999955242},{""rating"":87.81559414333768,""responseTime"":2.77339999999856},{""rating"":92.71596272786458,""responseTime"":3.7247999999970034}]",space,4.2158,,580.3683,Not at all,0,580.372,,,[],,0,17,17,17,1,audio/Narrative8Situation8.wav,audio/Narrative7Situation8.wav,audio/Narrative6Situation8.wav,audio/Narrative5Situation8.wav,3,2,5,3,,,,,,,,,,,,,,,,,,,,,,,,,,,,,,,,,,,,,,,
,,,,,6163fbf78813617495ee7a9b,2025-07-07_22h49.27.070,group3.4_multiperson,2023.2.2,MacIntel,30.86419753,686c2ebf0248f13bef9af11f,686c87152a88e47efa572aa5,,,,,,,,,,,,,,,,,,,,,,,,,,,,,580.3723,1,audio/Narrative7Situation9.wav,582.385,,582.3851,591.0019,"[[999,0],[999,50],[999,100],[999,150],[999,200],[999,249],[999,300],[999,350],[999,399],[999,449],[999,500],[999,550],[999,599],[999,650],[999,700],[999,749],[999,800],[999,850],[999,899],[999,950],[999,999],[999,1049],[999,1100],[999,1150],[999,1199],[999,1250],[999,1299],[999,1349],[999,1400],[999,1449],[999,1500],[999,1550],[999,1599],[999,1650],[999,1700],[999,1750],[999,1800],[999,1849],[999,1900],[999,1949],[999,1999],[999,2050],[999,2100],[999,2150],[999,2200],[999,2249],[999,2300],[999,2350],[999,2399],[999,2450],[999,2499],[999,2550],[999,2598],[999,2649],[999,2700],[999,2750],[999,2799],[999,2850],[999,2900],[999,2949],[999,3000],[999,3049],[999,3099],[999,3150],[999,3199],[999,3250],[999,3300],[999,3349],[999,3400],[999,3449],[999,3500],[999,3549],[999,3599],[999,3650],[999,3700],[999,3750],[999,3799],[999,3849],[999,3899],[999,3949],[999,3999],[999,4050],[999,4099],[999,4149],[999,4199],[999,4249],[999,4299],[999,4349],[999,4399],[999,4449],[999,4500],[999,4550],[999,4599],[999,4649],[999,4700],[999,4750],[999,4799],[999,4849],[999,4899],[999,4950],[999,5000],[999,5050],[999,5100],[999,5149],[999,5199],[999,5250],[999,5299],[999,5350],[999,5400],[999,5449],[999,5500],[999,5549],[999,5599],[999,5649],[999,5699],[999,5750],[999,5799],[999,5849],[999,5900],[999,5949],[999,5999],[999,6050],[999,6099],[999,6149],[999,6200],[999,6249],[999,6300],[999,6350],[999,6399],[999,6449],[999,6500],[999,6549],[999,6599],[999,6649],[999,6699],[999,6749],[999,6799],[999,6850],[999,6899],[69.9,6950],[66.4,7000],[64.2,7049],[62.4,7099],[61.4,7149],[61.1,7199],[61.3,7249],[62.3,7299],[63.2,7350],[64.8,7399],[66.4,7450],[67.7,7500],[70,7549],[74.2,7599],[77.5,7650],[79,7699],[79.7,7749],[80.6,7800],[82,7849],[83.4,7899],[84.4,7949],[84.9,8000],[85,8049],[85,8099],[85,8150],[85.2,8199],[85.4,8249],[85.5,8299],[85.5,8349],[85.5,8399],[85.6,8450],[85.7,8499],[85.8,8549],[85.8,8599]]",591.002,594.6685,69.65389676,2.3399,"[{""rating"":69.65389675564236,""responseTime"":2.339899999998579}]",space,3.1365,,594.6685,Not at all,0,594.6703,,,[],,0,18,18,18,1,audio/Narrative8Situation9.wav,audio/Narrative7Situation9.wav,audio/Narrative6Situation9.wav,audio/Narrative5Situation9.wav,3,2,4,3,,,,,,,,,,,,,,,,,,,,,,,,,,,,,,,,,,,,,,,
,,,,,6163fbf78813617495ee7a9b,2025-07-07_22h49.27.070,group3.4_multiperson,2023.2.2,MacIntel,30.86419753,686c2ebf0248f13bef9af11f,686c87152a88e47efa572aa5,,,,,,,,,,,,,,,,,,,,,,,,,,,654.6678,657.2511,657.2743,2,audio/Narrative13Situation2.wav,657.2743,,657.2743,687.0171,"[[999,0],[999,43],[999,93],[999,143],[999,193],[999,243],[999,292],[999,342],[999,393],[999,443],[999,493],[999,543],[999,592],[999,643],[999,692],[999,742],[999,792],[999,842],[999,892],[999,942],[999,992],[999,1042],[999,1092],[71.6,1142],[68.3,1192],[56.7,3392],[55.3,3442],[54,3492],[52.4,3542],[51.3,3593],[51.2,3643],[51.2,3692],[51.2,3742],[51.2,3792],[51.2,3843],[51.3,3893],[51.4,3943],[51.4,3993],[51.4,4043],[51.4,4093],[51.4,4142],[51.4,4192],[51.4,4243],[51.4,4293],[51.4,4343],[51.4,4392],[51.4,4443],[51.4,4493],[51.4,4542],[51.4,4592],[51.4,4643],[51.4,4693],[51.4,4742],[51.4,4793],[51.4,4843],[51.4,4893],[51.4,4942],[51.4,4993],[51.4,5043],[51.4,5093],[51.4,5143],[51.4,5193],[51.4,5243],[51.4,5293],[51.4,5342],[51.4,5392],[51.4,5443],[51.4,5493],[51.4,5543],[51.4,5593],[51.4,5643],[51.4,5693],[51.4,5743],[51.4,5792],[51.4,5843],[51.4,5892],[51.4,5943],[51.4,5993],[51.4,6043],[51.4,6093],[51.4,6142],[51.4,6192],[51.4,6243],[51.4,6293],[51.4,6343],[51.4,6392],[51.4,6442],[51.4,6493],[51.4,6542],[51.4,6592],[51.4,6643],[51.4,6693],[51.4,6743],[51.4,6793],[51.4,6843],[51.4,6893],[51.4,6942],[51.4,6992],[51.4,7043],[51.4,7093],[51.4,7143],[51.4,7193],[51.4,7243],[51.4,7293],[51.4,7342],[51.4,7392],[51.4,7443],[51.4,7493],[51.4,7543],[51.4,7593],[51.4,7643],[51.4,7693],[51.4,7742],[51.4,7792],[51.4,7843],[51.4,7893],[51.4,7943],[51.4,7993],[51.4,8043],[51.4,8093],[51.4,8142],[51.4,8192],[51.4,8242],[51.4,8292],[51.4,8342],[51.4,8392],[51.4,8443],[51.4,8493],[51.4,8543],[52.8,8592],[56.3,8643],[58.3,8692],[58.6,8743],[58.9,8792],[59.8,8843],[60.4,8892],[60.6,8942],[60.6,8992],[60.6,9042],[60.6,9093],[60.6,9143],[60.6,9192],[60.7,9242],[60.9,9293],[61,9342],[61.7,9393],[62.3,9442],[62.6,9493],[62.6,9543],[62.7,9592],[62.9,9643],[63.5,9692],[64.8,9743],[65.3,9792],[65.5,9842],[65.5,9893],[65.5,9942],[65.5,9992],[65.5,10043],[65.5,10093],[65.5,10142],[65.5,10193],[65.5,10243],[65.5,10292],[65.5,10342],[65.5,10392],[65.5,10443],[65.5,10493],[65.5,10543],[65.5,10592],[65.5,10643],[65.5,10692],[65.5,10743],[65.5,10793],[65.5,10842],[65.5,10892],[65.5,10943],[65.5,10992],[65.5,11043],[65.5,11093],[65.5,11142],[65.5,11193],[65.5,11243],[65.5,11293],[65.5,11342],[65.5,11392],[65.5,11443],[65.5,11492],[65.5,11543],[65.5,11593],[65.5,11642],[65.5,11693],[65.5,11742],[65.5,11792],[65.5,11842],[65.5,11892],[65.5,11942],[65.5,11992],[65.5,12043],[65.5,12092],[65.5,12142],[65.5,12192],[65.5,12243],[65.5,12292],[67,12342],[69.3,12393],[71.4,12442],[73.1,12493],[73.5,12542],[73.8,12592],[73.9,12643],[73.9,12692],[73.9,12742],[73.9,12793],[73.8,12843],[73.5,12892],[73.4,12942],[73.3,12992],[73.3,13043],[73.3,13091],[73.3,13142],[73.3,13193],[73.3,13243],[73.3,13293],[73.3,13342],[73.3,13392],[73.3,13442],[73.3,13492],[73.3,13541],[73.3,13592],[73.3,13642],[73.3,13693],[73.3,13742],[73.3,13793],[73.3,13842],[73.3,13893],[73.3,13943],[73.3,13992],[73.3,14043],[73.3,14093],[73.3,14142],[73.3,14192],[73.3,14242],[73.3,14293],[73.3,14342],[73.3,14392],[73.3,14442],[73.3,14493],[73.3,14541],[73.3,14592],[73.3,14641],[73.3,14692],[73.3,14742],[73.3,14793],[73.3,14842],[73.3,14892],[73.3,14943],[73.3,14992],[73.3,15043],[73.3,15092],[73.3,15142],[73.3,15192],[73.3,15242],[73.3,15293],[73.3,15342],[73.3,15392],[73.3,15442],[73.3,15492],[73.3,15543],[73.3,15592],[73.3,15643],[73.3,15693],[73.3,15742],[73.3,15792],[73.3,15842],[73.3,15892],[73.3,15942],[73.3,15993],[73.3,16041],[73.3,16092],[73.3,16142],[73.3,16192],[73.3,16243],[73.3,16293],[73.3,16342],[73.3,16392],[73.3,16442],[73.3,16492],[73.3,16542],[73.3,16592],[73.3,16642],[73.3,16692],[73.3,16742],[73.3,16792],[73.3,16842],[73.3,16892],[73.3,16942],[73.3,16992],[73.3,17042],[73.3,17092],[73.3,17141],[73.3,17192],[73.3,17242],[73.3,17293],[73.3,17341],[73.3,17392],[73.3,17443],[73.3,17492],[73.3,17542],[73.3,17592],[73.3,17642],[73.3,17692],[73.3,17742],[73.3,17792],[73.3,17842],[73.3,17892],[73.3,17942],[73.3,17992],[73.3,18042],[73.3,18092],[73.3,18142],[73.3,18192],[73.3,18242],[73.3,18293],[73.3,18342],[73.3,18392],[73.3,18442],[73.3,18493],[73.3,18542],[73.3,18592],[73.3,18642],[73.3,18692],[73.3,18741],[73.3,18792],[73.3,18842],[73.3,18892],[73.3,18942],[73.3,18992],[73.3,19042],[73.3,19092],[73.3,19142],[73.3,19192],[73.3,19242],[73.3,19292],[73.3,19342],[73.3,19392],[73.3,19442],[73.3,19492],[73.3,19542],[73.3,19591],[73.3,19642],[73.3,19692],[73.3,19742],[73.3,19792],[73.3,19842],[73.3,19892],[73.3,19942],[73.3,19992],[73.3,20042],[73.3,20092],[73.3,20142],[73.3,20192],[73.3,20242],[73.3,20292],[73.3,20342],[73.3,20392],[73.3,20442],[73.3,20492],[73.3,20542],[73.3,20592],[73.3,20642],[73.3,20692],[73.3,20741],[73.3,20792],[73.3,20842],[73.3,20892],[73.3,20942],[73.3,20992],[73.3,21042],[73.3,21092],[73.3,21142],[73.3,21192],[73.3,21242],[73.3,21292],[73.3,21342],[73.3,21392],[73.3,21442],[73.3,21492],[73.3,21543],[73.3,21592],[73.3,21642],[73.3,21692],[73.3,21742],[73.3,21792],[73.3,21842],[73.3,21892],[73.3,21942],[73.3,21992],[73.3,22042],[73.3,22092],[73.3,22142],[73.3,22192],[73.3,22242],[73.3,22292],[73.3,22342],[73.3,22392],[73.3,22442],[73.3,22492],[73.3,22541],[73.3,22592],[73.3,22642],[73.3,22692],[73.3,22742],[73.3,22792],[73.3,22842],[73.3,22892],[73.3,22942],[73.3,22992],[73.3,23042],[73.3,23092],[73.3,23141],[73.3,23192],[73.3,23242],[73.3,23292],[73.3,23341],[73.3,23392],[73.3,23442],[73.3,23492],[73.3,23541],[73.3,23592],[73.3,23642],[73.3,23692],[73.3,23742],[73.3,23792],[73.3,23842],[73.3,23892],[73.3,23942],[73.3,23992],[73.3,24042],[73.3,24092],[73.3,24142],[73.3,24192],[73.3,24242],[73.3,24292],[73.3,24342],[73.3,24392],[73.3,24442],[73.3,24492],[73.3,24542],[73.3,24592],[73.3,24642],[73.3,24692],[73.3,24741],[73.3,24792],[73.3,24842],[73.3,24892],[73.3,24942],[73.3,24991],[73.3,25042],[73.3,25092],[73.3,25142],[73.3,25192],[73.3,25242],[73.3,25292],[73.3,25342],[73.3,25392],[73.3,25442],[73.3,25492],[73.3,25542],[73.3,25592],[73.3,25642],[73.3,25692],[73.3,25742],[73.3,25792],[73.3,25842],[73.3,25892],[73.3,25942],[73.3,25992],[73.3,26042],[73.3,26092],[73.3,26142],[73.3,26192],[73.3,26242],[73.3,26292],[73.3,26341],[73.3,26392],[73.3,26442],[73.3,26492],[73.3,26542],[73.3,26592],[73.3,26641],[73.3,26692],[73.3,26742],[73.3,26792],[73.3,26842],[73.3,26892],[73.3,26942],[73.3,26992],[73.3,27042],[73.3,27092],[73.3,27142],[73.3,27192],[73.3,27242],[73.3,27292],[73.3,27342],[73.3,27392],[73.3,27442],[73.3,27492],[73.3,27542],[73.3,27592],[73.3,27642],[73.3,27692],[73.3,27742],[73.3,27792],[73.3,27842],[73.3,27892],[73.3,27942],[73.3,27992],[73.3,28042],[73.3,28091],[73.3,28141],[73.3,28192],[73.3,28242],[73.3,28292],[73.3,28341],[73.3,28392],[73.3,28442],[73.3,28492],[73.3,28542],[73.3,28592],[73.3,28642],[73.3,28692],[73.3,28742],[73.3,28792],[73.3,28842],[73.3,28892],[73.3,28942],[73.3,28991],[73.3,29042],[73.3,29092],[73.3,29141],[73.3,29192],[73.3,29242],[73.3,29292],[73.3,29342],[73.3,29392],[73.3,29441],[73.3,29491],[73.3,29542],[73.3,29591],[73.3,29642],[73.4,29692],[74.1,29742]]",687.0173,687.0197,,,[],,,,687.0198,Definitely yes,100,687.0223,,,[],,0,0,0,0,1,audio/Narrative13Situation2.wav,audio/Narrative13Situation2.wav,audio/Narrative13Situation2.wav,audio/Narrative13Situation2.wav,2,2,2,2,,,,,594.6719,654.6674,,,,,,,,,,,,,,,,,,,,,,,,,,,,,,,,,
,,,,,6163fbf78813617495ee7a9b,2025-07-07_22h49.27.070,group3.4_multiperson,2023.2.2,MacIntel,30.86419753,686c2ebf0248f13bef9af11f,686c87152a88e47efa572aa5,,,,,,,,,,,,,,,,,,,,,,,,,,,,,687.0226,2,audio/Narrative6Situation1.wav,689.0338,,689.0339,715.6158,"[[74.3,1299],[68.6,1349],[51.1,2049],[50.6,2099],[50.2,2150],[50,2199],[50,2250],[49.9,2299],[49.9,2349],[49.9,2398],[49.9,2448],[48.8,2499],[52.3,7249],[53.6,7298],[51.9,7348],[49.8,7398],[49.2,7449],[49.2,7499],[49.2,7549],[49.2,7599],[49.8,7649],[50.6,7698],[51.3,7748],[52.6,7798],[55.3,7848],[58.7,7898],[62.4,7948],[67.5,7999],[72.1,8048],[75.8,8099],[81.8,8149],[83.8,8199],[84.6,8250],[85.5,8299],[85.8,8349],[86.4,8399],[86.8,8448],[86.8,8499],[86.8,8548],[86.8,8598],[86.8,8649],[86.8,8698],[86.8,8749],[86.8,8799],[86.8,8849],[86.8,8899],[86.8,8949],[86.8,8999],[86.8,9049],[86.8,9099],[86.8,9149],[86.8,9198],[86.8,9248],[86.8,9299],[86.8,9349],[86.8,9399],[86.8,9449],[86.8,9498],[86.8,9549],[86.8,9599],[86.8,9649],[86.8,9699],[86.8,9749],[86.8,9799],[86.8,9849],[86.8,9898],[86.8,9949],[86.8,9999],[86.8,10048],[86.8,10099],[86.8,10149],[86.8,10199],[86.8,10248],[86.8,10298],[86.8,10349],[86.8,10399],[86.8,10449],[86.8,10499],[86.8,10549],[86.8,10599],[86.8,10649],[86.8,10699],[86.8,10749],[86.8,10799],[86.8,10848],[86.8,10899],[86.8,10949],[86.8,10999],[86.8,11049],[86.8,11099],[86.8,11149],[86.8,11199],[86.8,11249],[86.8,11299],[86.8,11349],[86.8,11399],[86.8,11449],[86.8,11498],[86.8,11549],[86.8,11599],[86.8,11649],[86.8,11699],[86.2,11748],[84.5,11798],[81,11849],[76.6,11899],[74.6,11948],[74.1,11999],[74,12049],[74,12099],[73.9,12148],[72.6,12198],[71,12249],[70.8,12298],[70.8,12349],[70.8,12399],[70,12448],[66.7,12499],[63.4,12548],[60.5,12599],[58.3,12648],[56.2,12698],[55.2,12748],[54.7,12799],[53.5,12849],[52.5,12899],[51.5,12949],[51,12999],[50.9,13049],[50.8,13098],[50.4,13148],[50,13199],[49.9,13249],[49.9,13299],[49.9,13348],[49.9,13398],[49.9,13449],[49.9,13499],[50,13548],[50.1,13599],[50.2,13649],[50.3,13698],[50.3,13748],[50.3,13799],[50.3,13849],[50.3,13899],[50.3,13949],[50.3,13999],[50.3,14049],[50.3,14099],[50.3,14148],[50.3,14199],[50.3,14249],[50.3,14299],[50.3,14349],[50.3,14399],[50.3,14449],[50.3,14499],[50.3,14549],[50.3,14599],[50.3,14648],[50.3,14698],[50.3,14749],[50.3,14799],[50.3,14849],[50.3,14899],[50.3,14949],[50.3,14999],[50.3,15049],[50.3,15099],[50.3,15149],[50.3,15199],[50.3,15249],[50.3,15299],[50.3,15349],[50.3,15399],[50.3,15449],[50.3,15498],[50.3,15549],[50.3,15599],[50.3,15649],[50.3,15699],[50.3,15749],[50.3,15799],[50.3,15848],[50.3,15898],[50.3,15949],[50.3,15999],[50.3,16049],[50.3,16099],[50.3,16149],[50.3,16199],[50.3,16249],[50.3,16298],[50.3,16349],[50.3,16399],[50.3,16449],[50.3,16499],[50.3,16549],[50.3,16599],[50.3,16649],[50.3,16698],[50.3,16749],[50.3,16799],[50.3,16849],[50.3,16899],[50.3,16949],[50.3,16999],[50.3,17049],[50.3,17098],[50.3,17149],[50.3,17199],[50.3,17249],[50.3,17299],[50.3,17349],[50.3,17399],[50.3,17449],[50.3,17499],[50.3,17549],[50.3,17599],[50.3,17648],[50.3,17698],[50.3,17749],[50.3,17798],[50.3,17848],[50.3,17898],[50.3,17949],[50.3,17999],[50.3,18049],[50.3,18099],[50.3,18149],[50.3,18199],[50.3,18249],[50.3,18298],[50.3,18349],[50.3,18399],[50.3,18449],[50.3,18499],[50.3,18549],[50.3,18599],[50.3,18648],[50.3,18699],[50.3,18749],[50.3,18799],[50.3,18848],[50.3,18899],[50.3,18949],[50.3,18999],[50.3,19049],[50.3,19099],[50.3,19149],[50.3,19198],[50.3,19249],[50.3,19299],[50.3,19349],[50.3,19399],[50.3,19448],[50.3,19499],[50.3,19549],[50.3,19599],[50.3,19649],[50.3,19699],[50.3,19749],[50.3,19799],[50.3,19849],[50.3,19898],[50.3,19949],[50.3,19999],[50.3,20049],[50.3,20099],[50.3,20149],[50.3,20199],[50.3,20249],[50.3,20298],[50.3,20349],[50.3,20399],[50.3,20449],[50.3,20499],[50.3,20549],[50.3,20599],[50.3,20649],[50.3,20698],[50.3,20749],[50.3,20799],[50.3,20849],[50.3,20899],[50.3,20949],[50.3,20999],[50.3,21049],[50.3,21098],[50.3,21149],[50.3,21199],[50.3,21249],[50.3,21298],[50.3,21349],[50.3,21398],[50.3,21449],[50.3,21498],[50.3,21549],[50.3,21599],[50.3,21649],[50.3,21699],[50.3,21749],[50.3,21799],[50.3,21849],[50.3,21899],[50.3,21949],[50.3,21999],[50.3,22049],[50.3,22099],[50.3,22149],[50.3,22199],[50.3,22249],[50.3,22298],[50.3,22349],[50.3,22399],[50.3,22449],[50.3,22499],[50.3,22549],[50.3,22599],[50.3,22649],[50.3,22698],[50.3,22749],[50.3,22799],[50.3,22849],[50.3,22899],[50.3,22949],[50.3,22999],[50.3,23049],[50.3,23099],[50.3,23149],[50.3,23199],[50.3,23248],[50.3,23299],[50.3,23349],[50.3,23399],[50.3,23449],[50.3,23499],[50.3,23549],[50.3,23599],[50.3,23649],[50.3,23699],[50.3,23749],[50.3,23799],[50.3,23849],[50.3,23898],[50.3,23948],[50.3,23999],[50.3,24049],[50.3,24099],[50.3,24149],[50.3,24199],[50.3,24249],[50.3,24298],[50.3,24349],[50.3,24399],[50.3,24449],[50.3,24499],[50.3,24548],[50.3,24599],[50.3,24649],[50.3,24699],[50.3,24749],[50.3,24799],[50.3,24849],[50.3,24899],[50.3,24949],[50.3,24998],[50.3,25049],[50.3,25099],[50.3,25149],[50.3,25199],[50.3,25249],[50.3,25299],[50.3,25349],[50.3,25399],[50.3,25449],[50.3,25498],[50.3,25549],[50.3,25599],[50.3,25649],[50.3,25699],[50.3,25749],[50.3,25799],[50.3,25849],[50.3,25899],[50.3,25949],[50.3,25999],[50.3,26049],[50.3,26099],[50.3,26149],[50.3,26199],[50.3,26249],[50.3,26298],[50.3,26349],[50.3,26399],[50.3,26449],[50.3,26499],[50.3,26549]]",715.6161,718.1,50.10306464,1.0739,"[{""rating"":50.103064643012154,""responseTime"":1.0739000000058923}]",space,1.9504,,718.1001,Not at all,0,718.1029,,,[],,0,1,1,1,1,audio/Narrative7Situation1.wav,audio/Narrative8Situation1.wav,audio/Narrative5Situation1.wav,audio/Narrative6Situation1.wav,2,5,5,2,,,,,,,,,,,,,,,,,,,,,,,,,,,,,,,,,,,,,,,
,,,,,6163fbf78813617495ee7a9b,2025-07-07_22h49.27.070,group3.4_multiperson,2023.2.2,MacIntel,30.86419753,686c2ebf0248f13bef9af11f,686c87152a88e47efa572aa5,,,,,,,,,,,,,,,,,,,,,,,,,,,,,718.1032,2,audio/Narrative6Situation2.wav,721.1168,,721.1169,749.6323,"[[999,0],[999,48],[999,99],[999,149],[999,199],[999,248],[999,299],[999,349],[999,399],[999,449],[999,499],[999,549],[999,599],[999,648],[999,699],[999,748],[999,799],[999,849],[999,899],[999,949],[999,999],[999,1049],[999,1099],[999,1148],[999,1199],[999,1248],[999,1299],[999,1349],[999,1399],[999,1449],[999,1499],[999,1548],[999,1599],[999,1649],[999,1699],[999,1749],[999,1799],[999,1849],[999,1899],[999,1949],[999,1999],[999,2049],[999,2099],[999,2149],[999,2199],[999,2249],[999,2299],[999,2349],[999,2399],[999,2449],[999,2499],[999,2549],[999,2599],[999,2649],[999,2699],[999,2748],[999,2799],[999,2848],[999,2899],[999,2949],[999,2999],[999,3049],[999,3099],[999,3149],[999,3199],[999,3249],[999,3299],[999,3349],[999,3399],[999,3448],[999,3499],[999,3549],[999,3599],[999,3649],[999,3699],[999,3749],[999,3799],[999,3849],[999,3899],[999,3949],[999,3999],[999,4049],[999,4098],[999,4149],[999,4199],[999,4249],[999,4299],[999,4349],[999,4399],[999,4449],[999,4499],[999,4549],[999,4599],[999,4649],[999,4699],[999,4749],[999,4799],[999,4848],[999,4899],[999,4949],[999,4999],[999,5049],[999,5099],[999,5148],[999,5199],[999,5249],[999,5299],[999,5349],[999,5399],[999,5449],[999,5499],[999,5548],[999,5599],[999,5649],[999,5699],[999,5749],[999,5799],[999,5849],[999,5899],[999,5948],[999,5999],[999,6049],[999,6099],[999,6149],[999,6199],[999,6248],[999,6299],[999,6349],[999,6399],[999,6449],[999,6499],[999,6549],[999,6599],[999,6648],[999,6699],[999,6748],[999,6799],[999,6849],[999,6899],[999,6949],[999,6999],[999,7048],[999,7099],[999,7149],[999,7198],[999,7249],[999,7299],[999,7349],[999,7399],[999,7448],[999,7499],[999,7548],[999,7599],[999,7649],[999,7699],[999,7749],[999,7799],[999,7848],[999,7899],[999,7949],[999,7999],[999,8049],[999,8099],[999,8149],[999,8199],[999,8248],[999,8299],[999,8349],[999,8399],[999,8449],[999,8499],[999,8549],[999,8599],[999,8648],[999,8699],[999,8749],[999,8799],[999,8849],[999,8899],[999,8949],[999,8999],[999,9048],[999,9098],[999,9148],[999,9199],[999,9249],[999,9299],[999,9349],[999,9399],[999,9448],[999,9499],[999,9549],[999,9599],[999,9649],[999,9699],[999,9749],[999,9799],[999,9848],[999,9899],[999,9948],[999,9999],[999,10049],[999,10099],[999,10149],[999,10199],[999,10249],[999,10299],[999,10349],[999,10399],[999,10449],[999,10499],[999,10549],[999,10599],[999,10648],[999,10699],[999,10749],[999,10799],[999,10849],[999,10899],[999,10949],[999,10999],[999,11049],[999,11098],[999,11149],[999,11199],[999,11249],[999,11298],[999,11348],[999,11399],[999,11448],[999,11499],[999,11549],[999,11599],[999,11649],[999,11699],[999,11749],[999,11798],[999,11848],[999,11899],[999,11948],[999,11999],[999,12049],[999,12099],[999,12149],[999,12199],[999,12249],[999,12299],[999,12348],[999,12399],[999,12449],[999,12499],[999,12549],[999,12599],[999,12648],[999,12699],[999,12749],[999,12799],[999,12849],[999,12899],[999,12949],[999,12999],[999,13048],[999,13099],[999,13149],[999,13199],[999,13249],[999,13299],[999,13349],[999,13399],[999,13448],[999,13499],[999,13549],[999,13599],[999,13649],[999,13699],[999,13749],[999,13798],[999,13848],[999,13899],[999,13948],[999,13999],[999,14049],[999,14099],[999,14149],[999,14199],[999,14248],[999,14299],[999,14349],[999,14399],[999,14449],[999,14499],[999,14549],[999,14598],[999,14648],[999,14699],[999,14749],[999,14799],[999,14849],[999,14899],[999,14949],[999,14999],[999,15048],[999,15099],[999,15149],[999,15199],[999,15249],[999,15299],[999,15349],[999,15398],[999,15448],[999,15499],[999,15548],[999,15599],[999,15649],[999,15699],[999,15749],[999,15798],[999,15848],[999,15899],[999,15949],[999,15999],[999,16049],[999,16099],[999,16149],[999,16199],[999,16248],[999,16299],[999,16348],[999,16399],[999,16449],[999,16498],[999,16549],[999,16598],[999,16649],[999,16699],[999,16749],[999,16799],[999,16849],[999,16899],[999,16949],[999,16999],[999,17048],[999,17099],[999,17149],[999,17199],[999,17249],[999,17299],[999,17349],[999,17399],[999,17449],[999,17499],[999,17548],[999,17599],[999,17649],[999,17699],[999,17749],[999,17799],[999,17848],[999,17899],[999,17949],[999,17999],[999,18049],[999,18099],[999,18149],[999,18198],[999,18249],[999,18299],[999,18349],[999,18399],[999,18449],[999,18499],[999,18549],[999,18599],[999,18649],[999,18699],[999,18749],[999,18799],[999,18849],[999,18899],[999,18949],[999,18999],[999,19048],[999,19099],[999,19149],[999,19199],[999,19249],[999,19299],[999,19349],[999,19399],[999,19448],[999,19499],[999,19549],[999,19599],[999,19648],[999,19699],[999,19749],[999,19799],[999,19848],[999,19899],[999,19949],[999,19999],[999,20049],[999,20099],[999,20149],[999,20199],[999,20248],[999,20299],[999,20349],[999,20399],[999,20449],[999,20499],[999,20548],[999,20599],[999,20648],[999,20699],[999,20749],[999,20799],[999,20849],[999,20899],[999,20949],[999,20999],[999,21048],[999,21099],[999,21149],[999,21199],[999,21249],[999,21299],[999,21349],[999,21398],[999,21448],[999,21499],[999,21548],[999,21599],[999,21648],[999,21698],[999,21749],[999,21798],[999,21848],[999,21899],[999,21949],[999,21999],[999,22049],[999,22099],[999,22149],[999,22199],[999,22248],[999,22299],[999,22348],[999,22399],[999,22449],[999,22499],[999,22548],[999,22599],[999,22648],[999,22699],[999,22749],[999,22799],[999,22849],[999,22899],[999,22949],[999,22999],[999,23048],[999,23099],[999,23148],[999,23199],[999,23249],[999,23299],[999,23349],[999,23399],[999,23448],[999,23498],[999,23549],[999,23599],[999,23649],[999,23699],[999,23749],[999,23799],[999,23848],[999,23899],[999,23948],[999,23999],[999,24049],[999,24099],[999,24149],[999,24198],[999,24248],[999,24299],[999,24348],[999,24399],[999,24449],[999,24499],[999,24548],[999,24598],[999,24649],[999,24698],[999,24749],[999,24799],[999,24849],[999,24899],[999,24949],[999,24998],[999,25048],[999,25099],[999,25149],[999,25198],[999,25249],[999,25299],[999,25349],[999,25398],[999,25448],[999,25499],[999,25548],[999,25599],[999,25649],[999,25699],[999,25749],[999,25799],[999,25848],[999,25899],[999,25949],[999,25999],[999,26049],[999,26099],[999,26149],[999,26198],[999,26248],[999,26299],[999,26349],[999,26399],[999,26449],[999,26499],[999,26549],[999,26598],[999,26648],[999,26699],[999,26749],[999,26799],[999,26849],[999,26899],[999,26949],[999,26999],[999,27048],[999,27099],[999,27149],[999,27199],[999,27249],[999,27299],[999,27348],[999,27398],[999,27448],[999,27499],[999,27549],[999,27599],[999,27649],[999,27699],[999,27749],[999,27799],[999,27848],[999,27899],[92.4,27948],[92.4,27998],[92.5,28049],[93.7,28098],[95.5,28148],[97.1,28199],[97.9,28248],[98.2,28298],[99.3,28349],[99.9,28398],[100,28449],[100,28498]]",749.6324,751.7487,99.90107218,1.0076,"[{""rating"":99.9010721842448,""responseTime"":1.0075999999941132}]",space,1.5678,,751.7489,Definitely yes,100,751.7519,,,[],,0,2,2,2,1,audio/Narrative7Situation2.wav,audio/Narrative8Situation2.wav,audio/Narrative5Situation2.wav,audio/Narrative6Situation2.wav,3,3,3,3,,,,,,,,,,,,,,,,,,,,,,,,,,,,,,,,,,,,,,,
,,,,,6163fbf78813617495ee7a9b,2025-07-07_22h49.27.070,group3.4_multiperson,2023.2.2,MacIntel,30.86419753,686c2ebf0248f13bef9af11f,686c87152a88e47efa572aa5,,,,,,,,,,,,,,,,,,,,,,,,,,,,,751.7521,2,audio/Narrative6Situation3.wav,756.7662,,756.7663,769.3828,"[[999,0],[999,49],[999,99],[999,148],[999,199],[999,249],[999,298],[999,349],[999,398],[999,449],[999,499],[999,549],[999,599],[999,649],[999,699],[999,749],[999,799],[999,849],[999,899],[999,949],[999,999],[999,1049],[999,1099],[999,1149],[999,1199],[999,1249],[999,1299],[999,1349],[999,1399],[999,1449],[999,1499],[999,1549],[999,1599],[999,1649],[999,1699],[999,1749],[999,1799],[999,1849],[999,1899],[999,1948],[999,1999],[999,2049],[999,2099],[999,2149],[999,2199],[999,2248],[999,2299],[999,2349],[999,2399],[999,2449],[999,2499],[999,2549],[999,2599],[999,2649],[999,2699],[999,2749],[999,2799],[999,2849],[999,2899],[999,2949],[999,2999],[999,3049],[999,3099],[999,3149],[999,3199],[999,3249],[999,3299],[999,3349],[999,3399],[999,3449],[999,3499],[999,3549],[999,3599],[999,3649],[999,3699],[999,3749],[999,3799],[999,3849],[999,3899],[999,3949],[999,3999],[999,4049],[999,4099],[999,4149],[999,4199],[999,4249],[999,4299],[999,4348],[999,4399],[999,4449],[999,4499],[999,4548],[999,4599],[999,4649],[999,4699],[999,4749],[999,4799],[999,4849],[999,4899],[999,4949],[999,4999],[999,5049],[999,5099],[999,5148],[999,5199],[999,5249],[999,5299],[999,5349],[999,5399],[999,5449],[999,5499],[999,5548],[999,5599],[999,5649],[999,5699],[999,5749],[999,5799],[999,5849],[999,5899],[999,5948],[999,5999],[999,6049],[999,6099],[999,6149],[999,6199],[999,6249],[999,6299],[999,6348],[999,6399],[999,6449],[999,6499],[999,6549],[999,6599],[999,6649],[999,6699],[999,6749],[999,6799],[999,6849],[999,6899],[999,6949],[999,6999],[999,7049],[999,7098],[999,7148],[999,7199],[999,7249],[999,7299],[999,7349],[999,7399],[999,7449],[999,7499],[999,7548],[999,7598],[999,7649],[999,7699],[999,7749],[999,7799],[999,7849],[999,7899],[999,7948],[999,7999],[999,8049],[999,8099],[999,8149],[999,8199],[999,8249],[999,8299],[999,8348],[999,8399],[999,8449],[999,8499],[999,8549],[999,8599],[999,8649],[999,8699],[999,8748],[999,8799],[999,8849],[999,8899],[999,8949],[999,8999],[999,9049],[999,9099],[999,9149],[999,9199],[999,9249],[999,9298],[999,9348],[999,9399],[999,9449],[999,9499],[999,9549],[999,9599],[999,9648],[999,9699],[999,9749],[999,9799],[999,9849],[999,9899],[999,9949],[999,9999],[999,10049],[999,10099],[999,10149],[999,10199],[999,10249],[999,10298],[999,10349],[999,10399],[999,10449],[999,10499],[999,10548],[999,10599],[999,10648],[999,10700],[999,10749],[999,10799],[999,10849],[999,10899],[999,10948],[999,10999],[999,11049],[999,11099],[999,11149],[999,11199],[999,11249],[999,11299],[999,11348],[999,11399],[999,11449],[999,11499],[999,11549],[999,11599],[999,11649],[999,11699],[999,11748],[999,11798],[999,11849],[999,11899],[999,11949],[999,11999],[999,12049],[999,12099],[999,12149],[999,12199],[999,12249],[999,12299],[999,12348],[999,12399],[999,12449],[999,12499],[999,12548],[999,12599]]",769.3829,774.8657,50.33992343,4.373,"[{""rating"":50.33992343478732,""responseTime"":4.373000000000047}]",space,4.9342,,774.8658,Not at all,0,774.8692,,,[],,0,3,3,3,1,audio/Narrative7Situation3.wav,audio/Narrative8Situation3.wav,audio/Narrative5Situation3.wav,audio/Narrative6Situation3.wav,8,4,3,5,,,,,,,,,,,,,,,,,,,,,,,,,,,,,,,,,,,,,,,
,,,,,6163fbf78813617495ee7a9b,2025-07-07_22h49.27.070,group3.4_multiperson,2023.2.2,MacIntel,30.86419753,686c2ebf0248f13bef9af11f,686c87152a88e47efa572aa5,,,,,,,,,,,,,,,,,,,,,,,,,,,,,774.8694,2,audio/Narrative6Situation4.wav,776.8826,,776.8826,789.4984,"[[999,0],[999,48],[999,98],[999,150],[999,199],[999,249],[999,299],[999,349],[999,399],[999,448],[999,499],[999,549],[999,599],[999,650],[999,699],[999,749],[999,799],[999,849],[44.6,5999],[48,6049],[48.8,6098],[48.8,6149],[47.9,6199],[47.6,6249],[47.7,6299],[49.1,6349],[49.9,6399],[50.1,6449],[50.2,6500],[51.8,6549],[53.5,6600],[54.7,6649],[55.6,6699],[55.8,6749],[56,6799],[57.1,6849],[61.7,6899],[69,6949],[73.7,6999],[74.8,7398],[75.4,7449],[76.3,7499],[76.9,7548],[77.2,7599],[77.2,7649],[77.2,7699],[77.2,7749],[77.2,7798],[77.2,7848],[77.2,7898],[77.2,7949],[77.2,7999],[77.2,8048],[78.5,8099],[85.4,8149],[92.7,8199],[96.1,8249],[96.7,8299],[96.8,8349],[96.8,8399],[97.2,8448],[98,8499],[98.2,8549],[98.2,8599],[98.3,8649],[98.9,8699],[99.1,8749],[99.1,8799],[99.4,8848],[99.7,8899],[99.9,8949],[99.9,8999],[99.9,9049],[99.9,9098],[99.9,9149],[99.9,9199],[99.9,9249],[99.9,9298],[99.9,9349],[99.9,9399],[99.9,9449],[99.9,9499],[99.9,9548],[99.9,9599],[99.9,9649],[99.9,9699],[99.9,9749],[99.9,9798],[99.9,9849],[99.9,9898],[99.9,9949],[99.9,9999],[99.9,10049],[99.9,10099],[99.9,10149],[100,10199],[100,10249],[100,10299],[100,10349],[100,10399],[100,10449],[100,10499],[100,10549],[100,10599],[100,10649],[100,10699],[100,10748],[100,10798],[100,10848],[100,10898],[100,10949],[100,10999],[100,11049],[100,11098],[100,11149],[100,11199],[100,11249],[100,11299],[100,11349],[100,11399],[100,11449],[100,11498],[100,11549],[100,11599],[100,11648],[100,11699],[100,11749],[100,11799],[100,11849],[100,11898],[100,11949],[100,11999],[100,12048],[100,12099],[100,12149],[100,12198],[100,12249],[100,12298],[100,12349],[100,12399],[100,12449],[100,12499],[100,12549],[100,12599]]",789.4985,792.2991,99.53540378,1.1581,"[{""rating"":99.53540378146701,""responseTime"":1.158100000001582}]",space,2.2666,,792.2992,Partially,50,792.3029,,,[],,0,4,4,4,1,audio/Narrative7Situation4.wav,audio/Narrative8Situation4.wav,audio/Narrative5Situation4.wav,audio/Narrative6Situation4.wav,3,3,1,2,,,,,,,,,,,,,,,,,,,,,,,,,,,,,,,,,,,,,,,
,,,,,6163fbf78813617495ee7a9b,2025-07-07_22h49.27.070,group3.4_multiperson,2023.2.2,MacIntel,30.86419753,686c2ebf0248f13bef9af11f,686c87152a88e47efa572aa5,,,,,,,,,,,,,,,,,,,,,,,,,,,,,792.3032,2,audio/Narrative6Situation5.wav,794.315,,794.315,802.2657,"[[999,0],[999,50],[999,100],[999,150],[999,200],[999,250],[999,300],[999,350],[999,400],[999,450],[999,500],[999,550],[999,600],[999,649],[999,700],[999,750],[999,800],[999,850],[999,900],[999,950],[999,1000],[999,1050],[999,1100],[999,1150],[999,1199],[999,1250],[999,1300],[999,1350],[999,1399],[999,1450],[999,1500],[999,1549],[999,1600],[999,1650],[999,1700],[999,1750],[999,1799],[999,1850],[999,1900],[999,1949],[999,2000],[999,2050],[999,2099],[999,2150],[999,2200],[999,2250],[999,2300],[999,2350],[999,2400],[999,2450],[999,2499],[999,2550],[999,2600],[999,2650],[999,2700],[999,2750],[999,2800],[999,2850],[999,2900],[999,2950],[999,2999],[999,3049],[999,3100],[999,3149],[999,3199],[999,3250],[999,3300],[999,3350],[999,3399],[999,3450],[999,3500],[999,3549],[999,3600],[999,3650],[999,3700],[999,3750],[999,3800],[999,3850],[999,3900],[999,3950],[999,4000],[999,4050],[999,4100],[999,4150],[999,4200],[999,4250],[999,4300],[999,4350],[999,4399],[999,4450],[999,4499],[999,4549],[999,4599],[999,4650],[999,4700],[999,4750],[999,4799],[999,4850],[999,4899],[999,4950],[999,5000],[999,5050],[999,5100],[999,5150],[999,5200],[999,5250],[999,5299],[999,5350],[999,5400],[999,5449],[999,5500],[999,5549],[999,5600],[999,5650],[999,5700],[999,5750],[999,5799],[999,5850],[999,5900],[999,5949],[999,6000],[999,6050],[999,6099],[999,6150],[999,6200],[999,6250],[999,6300],[999,6350],[999,6400],[999,6450],[999,6500],[999,6550],[999,6600],[999,6650],[999,6700],[999,6750],[999,6800],[999,6850],[999,6900],[999,6950],[999,7000],[999,7050],[999,7100],[999,7149],[999,7200],[999,7250],[999,7299],[999,7350],[999,7400],[999,7450],[999,7500],[999,7550],[999,7600],[999,7650],[999,7699],[999,7750],[999,7800],[999,7850],[999,7900],[999,7950]]",802.2658,805.3155,99.27827623,1.9735,"[{""rating"":99.27827623155382,""responseTime"":1.9734999999999445}]",space,2.5025,,805.3155,Not at all,0,812.4144,0,5.8407,"[{""rating"":1.392822265624999,""responseTime"":4.455600000001482},{""rating"":0,""responseTime"":5.840700000003039}]",space,0,5,5,5,1,audio/Narrative7Situation5.wav,audio/Narrative8Situation5.wav,audio/Narrative5Situation5.wav,audio/Narrative6Situation5.wav,5,2,5,2,,,6.5654,,,,,,,,,,,,,,,,,,,,,,,,,,,,,,,,,,,,
,,,,,6163fbf78813617495ee7a9b,2025-07-07_22h49.27.070,group3.4_multiperson,2023.2.2,MacIntel,30.86419753,686c2ebf0248f13bef9af11f,686c87152a88e47efa572aa5,,,,,,,,,,,,,,,,,,,,,,,,,,,,,812.4148,2,audio/Narrative6Situation6.wav,814.4321,,814.4322,825.5155,"[[54.2,7049],[76.4,7099],[93,7149],[96.5,7199],[97.6,7250],[97.9,7299],[97.9,7348],[97.9,7399],[97.7,7449],[97.9,7499],[97.9,7549],[97.9,7599],[97.9,7649],[97.9,7699],[97.9,7748],[98,7799],[98.1,7849],[98.1,7898],[98.1,7948],[98.1,7998],[98.9,8050],[99.5,8099],[99.5,8149],[99.5,8199],[99.5,8249],[99.5,8298],[99.5,8349],[99.5,8399],[99.5,8449],[99.5,8499],[99.5,8548],[99.5,8598],[99.5,8648],[99.5,8699],[99.5,8749],[99.6,8799],[99.7,8848],[99.7,8899],[99.7,8949],[99.7,8999],[99.7,9049],[99.7,9099],[99.9,9149],[100,9198],[100,9249],[100,9299],[100,9348],[100,9399],[100,9448],[100,9499],[100,9549],[100,9599],[100,9649],[100,9699],[100,9748],[100,9799],[100,9848],[100,9899],[100,9949],[100,9999],[100,10048],[100,10099],[100,10149],[100,10199],[100,10248],[100,10299],[100,10348],[100,10399],[100,10449],[100,10498],[100,10549],[100,10599],[100,10649],[100,10699],[100,10749],[100,10799],[100,10849],[100,10899],[100,10949],[100,10999],[100,11048]]",825.5157,830.082,99.88116794,1.3397,"[{""rating"":99.88116794162326,""responseTime"":1.339700000003063}]",space,4.0172,,830.0821,Partially,50,830.0853,,,[],,0,6,6,6,1,audio/Narrative7Situation6.wav,audio/Narrative8Situation6.wav,audio/Narrative5Situation6.wav,audio/Narrative6Situation6.wav,3,2,3,2,,,,,,,,,,,,,,,,,,,,,,,,,,,,,,,,,,,,,,,
