consent.started,consent.stopped,consentResponse.keys,consentResponse.rt,consentResponse.duration,participantID,date,expName,psychopyVersion,OS,frameRate,STUDY_ID,SESSION_ID,opening1.started,opening1.stopped,keyEndingOpening1.keys,keyEndingOpening1.rt,keyEndingOpening1.duration,volumeAdjust.started,volumeAdjust.stopped,endingAdjust.keys,endingAdjust.rt,endingAdjust.duration,opening2.started,opening2.stopped,keyEndingOpening.keys,keyEndingOpening.rt,keyEndingOpening.duration,mouse.x,mouse.y,mouse.leftButton,mouse.midButton,mouse.rightButton,mouse.time,instructionLoop.thisRepN,instructionLoop.thisTrialN,instructionLoop.thisN,instructionLoop.thisIndex,instructionLoop.ran,readyForAudio.started,readyForAudio.stopped,fixation.started,run,audio_played,fixation.stopped,endPractice.keys,audioPre.started,audioPre.stopped,continuousResponses_audio,intRating.started,intRating.stopped,intQuestionSlider.response,intQuestionSlider.rt,intQuestionSlider.history,confirmResponse.keys,confirmResponse.rt,confirmResponse.duration,catchQuestion.started,catch_label,catch_value,catchQuestion.stopped,catchQuestionSlider.response,catchQuestionSlider.rt,catchQuestionSlider.history,confirmResponse_2.keys,audioRunLoop.thisRepN,audioRunLoop.thisTrialN,audioRunLoop.thisN,audioRunLoop.thisIndex,audioRunLoop.ran,conditions1_1,conditions2_1,conditions1_2,conditions2_2,dur1_1,dur2_1,dur1_2,dur2_2,endPractice.rt,endPractice.duration,confirmResponse_2.rt,confirmResponse_2.duration,runIntervalBreak.started,runIntervalBreak.stopped,endingBreakKey.keys,endingBreakKey.rt,endingBreakKey.duration,connection.started,connection.stopped,connectionEnding.keys,connectionEnding.rt,connectionEnding.duration,readyForText.started,readyForText.stopped,textPre.started,run_dup,textPre.stopped,continuousResponses_text,textRunLoop.thisRepN,textRunLoop.thisTrialN,textRunLoop.thisN,textRunLoop.thisIndex,textRunLoop.ran,text1_1,text1_2,text2_1,text2_2,runBreakText.started,runBreakText.stopped,endingBreakKey_2.keys,endingBreakKey_2.rt,endingBreakKey_2.duration,ending.started,ending.stopped,endingEnding.keys,endingEnding.rt,endingEnding.duration
0.0003,8.3073,y,7.9818,,628f9cfbee6de7cc7322fecf,2025-07-07_22h16.56.471,group3.4_multiperson,2023.2.2,MacIntel,58.47953216,686c2ebf0248f13bef9af11f,686c7b99dbf42e055ebf00f9,,,,,,,,,,,,,,,,,,,,,,,,,,,,,,,,,,,,,,,,,,,,,,,,,,,,,,,,,,,,,,,,,,,,,,,,,,,,,,,,,,,,,,,,,,,,,,,,,,,,,,,,
,,,,,628f9cfbee6de7cc7322fecf,2025-07-07_22h16.56.471,group3.4_multiperson,2023.2.2,MacIntel,58.47953216,686c2ebf0248f13bef9af11f,686c7b99dbf42e055ebf00f9,8.3076,12.5242,space,4.1893,,,,,,,,,,,,,,,,,,,,,,,,,,,,,,,,,,,,,,,,,,,,,,,,,,,,,,,,,,,,,,,,,,,,,,,,,,,,,,,,,,,,,,,,,,,,,,,,,,,,
,,,,,628f9cfbee6de7cc7322fecf,2025-07-07_22h16.56.471,group3.4_multiperson,2023.2.2,MacIntel,58.47953216,686c2ebf0248f13bef9af11f,686c7b99dbf42e055ebf00f9,,,,,,12.5244,21.5898,space,8.7313,,,,,,,,,,,,,,,,,,,,,,,,,,,,,,,,,,,,,,,,,,,,,,,,,,,,,,,,,,,,,,,,,,,,,,,,,,,,,,,,,,,,,,,,,,,,,,,
,,,,,628f9cfbee6de7cc7322fecf,2025-07-07_22h16.56.471,group3.4_multiperson,2023.2.2,MacIntel,58.47953216,686c2ebf0248f13bef9af11f,686c7b99dbf42e055ebf00f9,,,,,,,,,,,21.5935,30.6226,space,9.0083,,[],[],[],[],[],[],0,0,0,0,1,,,,,,,,,,,,,,,,,,,,,,,,,,,,,,,,,,,,,,,,,,,,,,,,,,,,,,,,,,,,,,,,,,,,,,,,,,,,,,
,,,,,628f9cfbee6de7cc7322fecf,2025-07-07_22h16.56.471,group3.4_multiperson,2023.2.2,MacIntel,58.47953216,686c2ebf0248f13bef9af11f,686c7b99dbf42e055ebf00f9,,,,,,,,,,,30.623,156.3379,space,125.61,,[],[],[],[],[],[],1,0,1,0,1,,,,,,,,,,,,,,,,,,,,,,,,,,,,,,,,,,,,,,,,,,,,,,,,,,,,,,,,,,,,,,,,,,,,,,,,,,,,,,
,,,,,628f9cfbee6de7cc7322fecf,2025-07-07_22h16.56.471,group3.4_multiperson,2023.2.2,MacIntel,58.47953216,686c2ebf0248f13bef9af11f,686c7b99dbf42e055ebf00f9,,,,,,,,,,,156.3383,247.6704,space,91.2844,,[],[],[],[],[],[],2,0,2,0,1,,,,,,,,,,,,,,,,,,,,,,,,,,,,,,,,,,,,,,,,,,,,,,,,,,,,,,,,,,,,,,,,,,,,,,,,,,,,,,
,,,,,628f9cfbee6de7cc7322fecf,2025-07-07_22h16.56.471,group3.4_multiperson,2023.2.2,MacIntel,58.47953216,686c2ebf0248f13bef9af11f,686c7b99dbf42e055ebf00f9,,,,,,,,,,,247.6707,346.6848,space,98.9942,,[],[],[],[],[],[],3,0,3,0,1,,,,,,,,,,,,,,,,,,,,,,,,,,,,,,,,,,,,,,,,,,,,,,,,,,,,,,,,,,,,,,,,,,,,,,,,,,,,,,
,,,,,628f9cfbee6de7cc7322fecf,2025-07-07_22h16.56.471,group3.4_multiperson,2023.2.2,MacIntel,58.47953216,686c2ebf0248f13bef9af11f,686c7b99dbf42e055ebf00f9,,,,,,,,,,,346.6852,358.635,space,11.9228,,[],[],[],[],[],[],4,0,4,0,1,,,,,,,,,,,,,,,,,,,,,,,,,,,,,,,,,,,,,,,,,,,,,,,,,,,,,,,,,,,,,,,,,,,,,,,,,,,,,,
,,,,,628f9cfbee6de7cc7322fecf,2025-07-07_22h16.56.471,group3.4_multiperson,2023.2.2,MacIntel,58.47953216,686c2ebf0248f13bef9af11f,686c7b99dbf42e055ebf00f9,,,,,,,,,,,358.6353,369.9845,space,11.3303,,[],[],[],[],[],[],5,0,5,0,1,,,,,,,,,,,,,,,,,,,,,,,,,,,,,,,,,,,,,,,,,,,,,,,,,,,,,,,,,,,,,,,,,,,,,,,,,,,,,,
,,,,,628f9cfbee6de7cc7322fecf,2025-07-07_22h16.56.471,group3.4_multiperson,2023.2.2,MacIntel,58.47953216,686c2ebf0248f13bef9af11f,686c7b99dbf42e055ebf00f9,,,,,,,,,,,,,,,,,,,,,,,,,,,369.9866,372.5679,372.5858,1,audio/Narrative13Situation2.wav,374.602,,374.6022,404.3683,"[[999,2],[999,82],[999,165],[999,249],[999,332],[999,416],[999,499],[999,582],[999,665],[999,748],[999,832],[999,916],[999,999],[999,1082],[999,1166],[999,1249],[999,1333],[999,1416],[999,1499],[999,1583],[999,1665],[999,1749],[999,1832],[999,1916],[999,1998],[999,2082],[29.5,2165],[31,2248],[31.4,2332],[31.3,2415],[30.7,2499],[30.6,2582],[30.4,2665],[30.4,2748],[30.4,2832],[30.4,2915],[30.7,2999],[31.8,3082],[36,3165],[40.1,3249],[41.6,3332],[43,3415],[44.3,3500],[45.7,3582],[46,3665],[46,3749],[46,3832],[46,3915],[70,4582],[70,4665],[70.1,4749],[70.5,4832],[70.6,4916],[70.7,4999],[71.1,5082],[71.8,5165],[72.1,5249],[72.2,5332],[72.2,5416],[72.2,5498],[72.2,5582],[72.2,5666],[72.2,5748],[72.2,5832],[72.2,5916],[72.2,5999],[72.2,6082],[72.2,6166],[72.2,6249],[72.2,6332],[72.2,6415],[72.2,6499],[72.2,6582],[72.2,6665],[72.2,6749],[72.2,6832],[72,6916],[71.9,6998],[71.9,7082],[71.9,7165],[71.9,7248],[71.9,7332],[71.9,7416],[71.9,7499],[71.9,7582],[71.9,7665],[71.9,7749],[71.9,7832],[71.9,7916],[71.9,7999],[71.9,8082],[71.9,8165],[71.9,8248],[71.9,8333],[71.9,8416],[71.9,8499],[71.9,8582],[71.9,8666],[71.9,8749],[71.9,8832],[71.9,8916],[71.9,8998],[71.9,9082],[71.9,9165],[71.9,9249],[71.9,9332],[71.9,9415],[71.9,9498],[71.9,9582],[71.9,9666],[71.9,9749],[71.9,9832],[71.9,9915],[71.9,9999],[71.9,10081],[71.9,10166],[71.9,10249],[71.9,10332],[71.9,10416],[71.9,10498],[71.9,10581],[71.9,10665],[71.9,10748],[71.9,10832],[72.8,10916],[74.4,10999],[75.3,11082],[75.4,11165],[75.7,11249],[76.1,11332],[76.3,11415],[76.3,11498],[76.3,11581],[76.3,11665],[76.3,11749],[76.3,11831],[76.3,11915],[76.3,11999],[76.3,12082],[76.3,12165],[76.3,12249],[76.3,12332],[76.3,12415],[76.3,12498],[76.3,12582],[76.3,12665],[76.3,12748],[76.3,12831],[76.3,12915],[76.3,12998],[76.3,13082],[76.3,13165],[76.3,13249],[76.3,13332],[76.3,13415],[76.3,13499],[76.3,13582],[76.3,13665],[76.3,13749],[76.3,13831],[76.3,13916],[76.3,13998],[76.3,14082],[76.3,14166],[76.3,14249],[76.3,14332],[76.3,14415],[76.3,14499],[76.3,14582],[76.3,14665],[76.3,14749],[76.3,14832],[76.3,14916],[76.3,14998],[76.3,15082],[76.3,15165],[76.3,15248],[76.3,15332],[76.3,15415],[76.3,15499],[76.3,15582],[76.3,15665],[76.3,15749],[76.3,15832],[76.3,15915],[76.2,15999],[76,16082],[75.5,16165],[74.7,16249],[74.1,16333],[73.6,16415],[72.9,16498],[71.1,16582],[70.2,16665],[69.3,16749],[69,16832],[69,16915],[69,16998],[69,17081],[69,17165],[69,17249],[69,17332],[69,17415],[69,17499],[68.7,17582],[68.1,17665],[67.6,17749],[67.5,17832],[67.5,17915],[67.5,17998],[67.5,18083],[67.5,18165],[67.5,18249],[67.5,18332],[67.5,18415],[67.5,18498],[67.5,18582],[67.5,18665],[67.5,18748],[67.5,18832],[67.5,18915],[67.5,18999],[67.5,19082],[67.5,19165],[67.5,19249],[67.5,19332],[67.5,19416],[67.5,19498],[67.5,19582],[67.5,19665],[67.5,19748],[67.5,19832],[67.5,19916],[67.5,19998],[67.5,20082],[67.5,20165],[67.5,20248],[67.5,20332],[67.5,20415],[67.5,20498],[67.5,20582],[67.5,20665],[67.5,20748],[67.5,20832],[67.5,20915],[67.5,20998],[67.5,21082],[67.5,21165],[67.5,21249],[67.5,21332],[67.5,21415],[67.5,21499],[67.5,21581],[67.5,21666],[67.5,21749],[67.5,21832],[67.5,21915],[67.5,21999],[67.5,22082],[67.5,22165],[67.5,22248],[67.5,22332],[67.1,22416],[65,22498],[62.7,22582],[60.1,22666],[56.9,22749],[56.5,22831],[56.5,22915],[56.5,22998],[56.5,23082],[56.5,23165],[56.5,23248],[56.5,23332],[56.9,23415],[57.7,23498],[58.3,23581],[58.5,23665],[58.5,23749],[58.5,23832],[58.5,23916],[58.5,23998],[58.5,24081],[58.5,24166],[58.5,24248],[58.5,24332],[58.5,24415],[58.5,24498],[58.5,24582],[58.5,24665],[58.5,24748],[58.5,24831],[58.5,24914],[58.5,24998],[58.5,25081],[58.5,25166],[58.5,25249],[58.5,25332],[58.5,25415],[58.5,25498],[58.5,25582],[58.5,25665],[58.5,25749],[58.5,25831],[58.5,25916],[58.5,25998],[58.5,26082],[58.5,26165],[58.5,26248],[58.5,26332],[58.5,26415],[58.5,26498],[58.5,26581],[58.5,26665],[58.5,26748],[58.5,26831],[58.5,26916],[58.5,26999],[58.5,27082],[58.5,27166],[58.5,27248],[58.5,27331],[58.5,27415],[58.5,27498],[58.3,27581],[57.6,27665],[56.9,27748],[56.7,27832],[56.5,27915],[56.3,27999],[56.3,28081],[56.3,28165],[56.3,28248],[56.3,28332],[56.3,28415],[56.3,28498],[56.3,28581],[56.3,28665],[56.3,28749],[56.3,28831],[56.3,28915],[56.3,28998],[56.3,29081],[56.3,29165],[56.3,29248],[56.3,29332],[56.3,29415],[56.3,29499],[56.3,29582],[56.3,29665],[56.3,29748]]",404.3687,410.9013,70.20795186,4.7596,"[{""rating"":66.30093892415366,""responseTime"":3.576600000001463},{""rating"":70.20795186360678,""responseTime"":4.7596000000014556}]",space,5.9833,,410.9016,Definitely yes,100,410.9048,,,[],,0,0,0,0,1,audio/Narrative13Situation2.wav,audio/Narrative13Situation2.wav,audio/Narrative13Situation2.wav,audio/Narrative13Situation2.wav,2,2,2,2,,,,,,,,,,,,,,,,,,,,,,,,,,,,,,,,,,,,,,,
,,,,,628f9cfbee6de7cc7322fecf,2025-07-07_22h16.56.471,group3.4_multiperson,2023.2.2,MacIntel,58.47953216,686c2ebf0248f13bef9af11f,686c7b99dbf42e055ebf00f9,,,,,,,,,,,,,,,,,,,,,,,,,,,,,410.9051,1,audio/Narrative7Situation1.wav,413.3176,space,413.3176,469.2009,"[[69.9,916],[68.2,1000],[67.2,1082],[67,1166],[66.9,1250],[66.9,1332],[66.9,1416],[66.9,1500],[66.9,1583],[66.9,1666],[66.9,1750],[66.9,1832],[66.9,1916],[66.9,1999],[67.6,2083],[68,2166],[68,2250],[68,2333],[68,2416],[68,2500],[68,2583],[68,2666],[68,2750],[68,2832],[68,2916],[68,2999],[68,3083],[68,3166],[68,3250],[68,3332],[68,3416],[68,3499],[68,3582],[68,3666],[68,3749],[68,3832],[68,3916],[68,4000],[68,4083],[68,4165],[68,4250],[68,4332],[68,4416],[68,4500],[68,4582],[68,4666],[68,4749],[68,4833],[68,4916],[68,4999],[68,5083],[68,5166],[68,5249],[68,5333],[68,5416],[68,5499],[68,5583],[68,5666],[68,5749],[68,5833],[68,5916],[68,6000],[68,6083],[68,6166],[68,6250],[68,6344],[68,6416],[68,6499],[68,6582],[68,6666],[68,6750],[68,6833],[68,6916],[68,6999],[68,7083],[68,7166],[68,7249],[68,7334],[68,7416],[68,7499],[68,7583],[68,7666],[68,7750],[68,7833],[68,7916],[68,7999],[68,8083],[68,8166],[68,8249],[68,8333],[68,8416],[68.1,8500],[69.3,8583],[70.2,8666],[71.2,8749],[73.5,8833],[74.8,8916],[74.9,8999],[74.9,9082],[74.9,9166],[74.9,9249],[74.9,9333],[74.9,9416],[74.9,9500],[74.9,9583],[74.9,9666],[74.9,9749],[74.9,9833],[74.9,9916],[74.9,9999],[74.9,10083],[74.9,10166],[74.9,10249],[74.9,10333],[74.9,10416],[74.9,10499],[74.9,10583],[74.9,10666],[74.9,10749],[74.9,10833],[74.9,10916],[74.9,10999],[74.9,11083],[74.9,11166],[74.9,11250],[74.9,11333],[74.9,11416],[74.9,11500],[74.9,11583],[74.9,11666],[74.9,11749],[74.9,11833],[74.9,11916],[74.9,11999],[74.9,12083],[74.9,12166],[74.9,12249],[74.9,12332],[74.9,12416],[74.9,12499],[74.9,12582],[74.9,12666],[74.9,12750],[75.5,12833],[76.7,12916],[78.1,12999],[79,13083],[79.1,13166],[79.1,13249],[79.1,13332],[79.1,13416],[79.1,13499],[79.1,13583],[79.1,13666],[79.1,13750],[79.1,13833],[79.1,13916],[79.1,13999],[79.1,14083],[79.1,14166],[79.1,14249],[79.1,14332],[79.1,14416],[79.1,14499],[79.1,14583],[79.1,14666],[79.1,14750],[79.1,14833],[79.1,14916],[79.1,14999],[79.1,15083],[79.1,15166],[79.1,15250],[79.1,15332],[79.1,15416],[79.1,15499],[79.1,15583],[79.1,15666],[79.1,15749],[79.1,15833],[79.1,15916],[79.1,15999],[79.1,16083],[79.1,16166],[79.1,16249],[79.1,16332],[79.1,16416],[79.1,16499],[79.1,16583],[79.1,16666],[79.1,16749],[79.1,16833],[79.1,16916],[79.1,16999],[79.1,17082],[79.1,17166],[79.1,17250],[79.1,17333],[79.1,17416],[79.1,17500],[79.1,17583],[79.1,17666],[79.1,17750],[79.1,17832],[79.1,17916],[79.1,17999],[79.1,18082],[79.1,18166],[79.1,18250],[79.1,18332],[79.1,18416],[79.1,18499],[79.1,18583],[79.1,18666],[79.1,18750],[79.1,18832],[79.1,18916],[79.1,18999],[79.1,19082],[79.1,19166],[79.1,19249],[79.1,19332],[79.1,19416],[79.1,19499],[79.1,19583],[79.1,19666],[79.1,19749],[79.1,19832],[79.1,19916],[79.1,19999],[79.1,20083],[79.1,20166],[79.1,20249],[79.1,20332],[79.1,20416],[79.1,20499],[79.1,20583],[79.1,20666],[79.1,20750],[79.1,20833],[79.1,20916],[79.1,20999],[79.1,21083],[79.1,21166],[79.1,21249],[79.1,21333],[79.1,21416],[79.1,21499],[77.7,21583],[74.3,21666],[70.2,21749],[64,21832],[58.3,21916],[52.2,21999],[50.6,22083],[49.7,22166],[48.1,22249],[46.7,22332],[46,22416],[45,22499],[44.4,22582],[44.4,22666],[44.7,22749],[45.8,22833],[46.9,22916],[47.1,22999],[47.6,23082],[49.1,23166],[50.4,23249],[53.1,23333],[54.8,23416],[55.1,23499],[55.6,23583],[56.7,23666],[57.1,23749],[57.4,23832],[57.8,23916],[59.2,23999],[59.4,24083],[59.4,24165],[59.4,24249],[59.4,24333],[59.4,24416],[59.4,24499],[59.4,24582],[59.4,24666],[59.4,24749],[59.4,24832],[59.4,24916],[59.4,24999],[59.4,25082],[59.4,25166],[59.4,25248],[59.4,25332],[59.4,25416],[59.4,25499],[59.4,25582],[59.4,25666],[59.4,25749],[59.4,25833],[59.4,25916],[59.4,25999],[59.4,26082],[59.4,26166],[59.4,26249],[59.4,26332],[59.4,26416],[59.4,26499],[59.4,26583],[59.4,26666],[59.4,26750],[59.4,26832],[59.4,26916],[59.4,26999],[59.4,27083],[59.4,27166],[59.4,27249],[59.4,27333],[59.4,27416],[59.4,27499],[59.4,27583],[59.4,27666],[59.4,27750],[59.4,27832],[59.4,27916],[59.4,27999],[59.4,28083],[59.4,28166],[59.4,28249],[59.4,28332],[59.4,28416],[59.4,28499],[61.7,28583],[64.4,28665],[65.5,28749],[65.7,28833],[65.9,28916],[65.9,28999],[65.9,29083],[65.9,29166],[65.9,29249],[65.9,29332],[65.9,29416],[65.9,29499],[65.9,29583],[65.9,29666],[65.9,29749],[65.9,29833],[65.9,29916],[65.9,29999],[65.9,30083],[65.9,30166],[65.9,30249],[65.9,30333],[65.9,30416],[65.9,30499],[65.9,30582],[65.9,30666],[65.9,30749],[65.9,30832],[65.9,30916],[65.9,30999],[65.9,31082],[65.9,31166],[65.9,31249],[65.9,31333],[65.9,31416],[65.9,31499],[65.9,31583],[65.9,31666],[65.9,31750],[65.9,31833],[65.9,31916],[65.9,31999],[65.9,32082],[65.9,32166],[65.9,32250],[65.9,32333],[65.9,32424],[65.9,32505],[65.9,32583],[65.9,32667],[65.9,32750],[65.9,32833],[65.9,32916],[65.9,33000],[65.9,33083],[65.9,33169],[65.9,33249],[65.9,33333],[65.9,33416],[65.9,33499],[65.9,33583],[65.9,33666],[65.9,33750],[66.3,33832],[68.2,33916],[69.1,33999],[69.2,34083],[69.2,34166],[69.2,34249],[69.2,34333],[69.2,34416],[69.2,34499],[69.2,34582],[69.2,34666],[69.2,34749],[69.2,34832],[69.2,34916],[69.2,34999],[69.2,35082],[69.2,35166],[69.2,35248],[69.2,35333],[69.2,35416],[69.2,35499],[69.2,35583],[69.2,35666],[69.2,35750],[69.2,35832],[69.2,35916],[69.2,35999],[69.2,36083],[69.2,36166],[69.2,36249],[69.2,36333],[69.2,36416],[69.2,36499],[69.2,36582],[69.2,36666],[69.2,36750],[69.2,36833],[69.2,36916],[69.2,36999],[69.2,37082],[69.2,37166],[69.2,37249],[69.2,37332],[69.2,37416],[69.2,37499],[69.2,37583],[69.2,37666],[69.2,37749],[69.2,37833],[69.2,37915],[69.2,37999],[69.2,38083],[69.2,38166],[69.2,38248],[69.2,38332],[69.2,38416],[69.2,38499],[69.2,38583],[69.2,38666],[69.2,38749],[69.2,38832],[69.2,38916],[69.2,38999],[69.2,39082],[69.2,39166],[69.2,39250],[69.2,39334],[69.2,39416],[69.2,39499],[69.2,39583],[69.2,39666],[69.2,39749],[69.2,39832],[69.2,39916],[69.2,39999],[69.2,40083],[69.2,40166],[69.2,40249],[69.2,40333],[69.2,40416],[69.2,40499],[69.2,40582],[69.2,40666],[69.2,40749],[69.2,40832],[69.2,40916],[69.2,40999],[69.2,41082],[69.2,41166],[69.2,41249],[69.2,41334],[69.2,41416],[69.2,41499],[71.6,41582],[74.2,41666],[74.7,41750],[74.9,41833],[75.1,41916],[75.6,41999],[75.6,42083],[75.6,42166],[75.6,42249],[75.6,42332],[75.6,42416],[75.6,42499],[75.6,42582],[75.6,42666],[75.6,42749],[75.6,42832],[75.6,42916],[75.6,42999],[75.6,43083],[75.6,43166],[75.6,43249],[75.6,43332],[75.6,43416],[75.6,43499],[75.6,43583],[75.6,43666],[75.6,43749],[75.6,43832],[75.6,43916],[75.6,43999],[75.6,44083],[75.6,44166],[75.6,44249],[75.6,44332],[75.6,44416],[75.6,44499],[75.6,44582],[75.6,44666],[75.6,44749],[75.6,44832],[75.6,44916],[75.6,44999],[75.6,45082],[75.6,45166],[75.6,45249],[75.6,45333],[75.6,45416],[75.6,45499],[75.6,45583],[75.6,45666],[75.6,45749],[75.6,45832],[75.6,45916],[75.6,45999],[75.6,46082],[75.6,46166],[75.6,46249],[75.6,46332],[75.6,46416],[75.6,46499],[75.6,46582],[75.6,46666],[75.6,46750],[75.6,46832],[75.6,46916],[75.6,46999],[75.6,47082],[75.6,47166],[75.6,47249],[75.6,47332],[75.6,47416],[75.6,47498],[75.6,47583],[75.6,47666],[75.6,47749],[75.6,47832],[75.6,47916],[75.6,47999],[75.6,48082],[75.6,48166],[75.6,48249],[75.6,48333],[75.6,48416],[75.6,48499],[75.6,48582],[75.6,48666],[75.6,48750],[75.6,48832],[75.6,48916],[75.6,48999],[75.6,49082],[75.6,49166],[75.6,49248],[75.6,49332],[76,49416],[77.1,49499],[77.4,49583],[77.4,49665],[77.5,49749],[78.1,49832],[78.3,49916],[78.3,49999],[78.3,50082],[78.3,50166],[78.3,50250],[78.3,50332],[78.3,50416],[78.3,50499],[78.3,50582],[78.3,50666],[78.3,50749],[78.3,50833],[78.3,50916],[78.3,50998],[78.3,51082],[78.3,51166],[78.3,51250],[78.3,51332],[78.3,51416],[78.3,51498],[78.3,51583],[78.3,51666],[78.3,51748],[78.3,51832],[78.3,51916],[78.3,51999],[78.3,52082],[78.3,52166],[78.3,52249],[78.3,52332],[78.3,52416],[78.3,52498],[78.3,52582],[78.3,52666],[78.3,52749],[78.3,52832],[78.3,52916],[78.3,52999],[78.3,53082],[78.3,53166],[78.3,53248],[78.3,53332],[78.3,53416],[78.3,53499],[78.3,53582],[78.3,53666],[78.3,53748],[78.3,53831],[78.3,53916],[78.3,53999],[78.3,54081],[78.3,54166],[78.3,54249],[78.3,54332],[78.3,54416],[78.3,54499],[78.3,54582],[78.3,54666],[78.3,54749],[78.3,54832],[78.3,54915],[78.3,54999],[78.3,55082],[78.3,55166],[78.3,55249],[78.3,55332],[78.3,55416],[78.3,55499],[78.3,55582],[78.3,55666],[78.3,55749],[78.3,55832]]",469.2012,474.5185,95.67615085,4.5432,"[{""rating"":88.73625013563368,""responseTime"":3.4431000000014933},{""rating"":95.67615085177951,""responseTime"":4.543199999995522}]",space,4.765,,474.5185,Partially,50,474.5207,,,[],,0,1,1,1,1,audio/Narrative7Situation1.wav,audio/Narrative8Situation1.wav,audio/Narrative5Situation1.wav,audio/Narrative6Situation1.wav,2,5,5,2,2.3949,,,,,,,,,,,,,,,,,,,,,,,,,,,,,,,,,,,,,,
,,,,,628f9cfbee6de7cc7322fecf,2025-07-07_22h16.56.471,group3.4_multiperson,2023.2.2,MacIntel,58.47953216,686c2ebf0248f13bef9af11f,686c7b99dbf42e055ebf00f9,,,,,,,,,,,,,,,,,,,,,,,,,,,,,474.5209,1,audio/Narrative7Situation2.wav,477.533,,477.533,485.0006,"[[89.1,1083],[86.4,1166],[81.6,1250],[79.6,1333],[79.6,1417],[79.6,1500],[79.6,1584],[72.3,1667],[62,1750],[60.7,1833],[60.7,1916],[60.7,2000],[60.7,2083],[60.7,2167],[62.5,2250],[64,2334],[64.3,2417],[64.4,2501],[64.5,2583],[64.5,2667],[64.5,2750],[64.5,2833],[66.6,2916],[68.4,3000],[68.5,3083],[69,3167],[70,3250],[71,3333],[71.2,3416],[71.2,3500],[71.2,3583],[71.2,3667],[71.2,3750],[71.2,3833],[71.2,3917],[71.2,4000],[71.2,4083],[71.2,4167],[71.2,4250],[71.2,4333],[71.2,4417],[71.2,4500],[71.2,4583],[71.2,4666],[71.2,4750],[71.2,4833],[71.2,4916],[71.2,4999],[71.2,5083],[71.2,5167],[71.2,5250],[71.2,5333],[71.2,5416],[71.2,5500],[71.2,5583],[71.2,5666],[72.7,5750],[73.7,5833],[73.9,5917],[74.2,6000],[74.3,6083],[74.3,6166],[74.3,6250],[74.3,6333],[74.3,6416],[74.3,6500],[74.3,6583],[74.3,6666],[74.3,6750],[74.3,6834],[74.3,6916],[74.3,6999],[75.2,7083],[77.8,7167],[81.1,7250],[83.6,7334],[85.6,7416]]",485.0006,489.9333,100,4.4441,"[{""rating"":94.17148166232639,""responseTime"":3.643100000001482},{""rating"":100,""responseTime"":4.44410000000147}]",space,4.3824,,489.9334,Definitely yes,100,489.9362,,,[],,0,2,2,2,1,audio/Narrative7Situation2.wav,audio/Narrative8Situation2.wav,audio/Narrative5Situation2.wav,audio/Narrative6Situation2.wav,3,3,3,3,,,,,,,,,,,,,,,,,,,,,,,,,,,,,,,,,,,,,,,
,,,,,628f9cfbee6de7cc7322fecf,2025-07-07_22h16.56.471,group3.4_multiperson,2023.2.2,MacIntel,58.47953216,686c2ebf0248f13bef9af11f,686c7b99dbf42e055ebf00f9,,,,,,,,,,,,,,,,,,,,,,,,,,,,,489.9364,1,audio/Narrative7Situation3.wav,497.9501,,497.9501,507.1999,"[[90.1,1582],[89.9,1666],[90.4,1749],[90.6,1833],[90.6,1915],[90.6,2000],[90.6,2082],[90.6,2166],[90.6,2249],[90.6,2332],[91.5,2416],[93,2499],[93.4,2582],[93.5,2665],[93.6,2749],[93.6,2832],[93.6,2916],[93.6,3000],[93.6,3083],[93.6,3166],[93.6,3249],[93.6,3332],[93.6,3415],[93.6,3500],[93.6,3582],[93.6,3666],[93.6,3749],[93.6,3832],[93.6,3916],[93.6,3999],[93.6,4083],[93.6,4166],[93.6,4249],[93.6,4333],[93.6,4416],[93.6,4499],[93.6,4582],[93.6,4665],[93.6,4749],[93.6,4833],[93.6,4915],[93.6,4999],[93.6,5082],[93.6,5166],[93.6,5249],[93.6,5332],[93.6,5416],[93.6,5499],[93.6,5582],[93.6,5666],[93.6,5749],[93.6,5832],[93.6,5915],[93.6,6000],[93.6,6082],[93.6,6166],[93.6,6249],[93.6,6332],[93.6,6416],[93.6,6499],[93.6,6582],[93.6,6666],[93.6,6749],[93.6,6833],[93.6,6916],[93.6,6999],[93.6,7082],[93.6,7166],[93.6,7249],[93.6,7332],[93.6,7416],[93.6,7500],[93.6,7582],[93.6,7667],[93.6,7754],[93.6,7834],[93.6,7917],[93.6,7999],[93.6,8082],[93.6,8166],[93.6,8249],[93.6,8333],[93.6,8415],[93.6,8499],[93.6,8582],[93.6,8665],[93.6,8750],[93.6,8833],[93.6,8916],[93.6,8999],[93.6,9082],[93.6,9166],[93.6,9249]]",507.2,515.1498,100,4.7604,"[{""rating"":97.37460666232639,""responseTime"":3.976799999996956},{""rating"":100,""responseTime"":4.760399999998526}]",space,7.4018,,515.1499,Definitely yes,100,515.1517,,,[],,0,3,3,3,1,audio/Narrative7Situation3.wav,audio/Narrative8Situation3.wav,audio/Narrative5Situation3.wav,audio/Narrative6Situation3.wav,8,4,3,5,,,,,,,,,,,,,,,,,,,,,,,,,,,,,,,,,,,,,,,
,,,,,628f9cfbee6de7cc7322fecf,2025-07-07_22h16.56.471,group3.4_multiperson,2023.2.2,MacIntel,58.47953216,686c2ebf0248f13bef9af11f,686c7b99dbf42e055ebf00f9,,,,,,,,,,,,,,,,,,,,,,,,,,,,,515.1519,1,audio/Narrative7Situation4.wav,518.1661,,518.1661,529.8828,"[[999,0],[999,83],[999,167],[999,250],[999,333],[999,416],[999,500],[999,583],[999,666],[999,749],[999,833],[999,917],[86.8,1000],[86.2,1083],[85.4,1166],[85.4,1250],[85.4,1333],[85.4,1417],[85.4,1500],[85.4,1583],[85.4,1666],[84.4,1749],[75,1833],[67.1,1916],[67.1,1999],[67.1,2083],[67.1,2167],[67.1,2250],[67.1,2333],[65.8,2416],[63.8,2500],[63.4,2583],[63.4,2666],[63.4,2749],[63.4,2833],[64.5,2916],[72.2,2999],[76.9,3083],[79.3,3166],[80.5,3249],[80.5,3333],[80.5,3416],[80.5,3500],[80.5,3583],[79.3,3666],[76.9,3750],[70.1,3833],[63.3,3916],[63.3,4000],[63.3,4083],[63.3,4167],[59.3,4249],[51.7,4333],[48.1,4416],[48.1,4499],[48.1,4583],[48.1,4666],[47.1,4750],[43.9,4832],[43.4,4916],[43.4,4999],[43.4,5083],[43.4,5166],[41.5,5250],[37.9,5333],[35.5,5416],[33.6,5499],[32.4,5582],[32.4,5667],[32.4,5749],[32.4,5833],[30.7,5916],[26,6000],[22.3,6083],[21.3,6166],[21.3,6249],[21.3,6333],[21.3,6416],[21.3,6499],[19.8,6583],[17.7,6666],[16.6,6749],[15.8,6833],[14.9,6916],[13.7,6999],[13,7083],[13,7166],[13,7249],[13,7333],[13,7416],[13,7499],[13,7582],[13,7666],[9.5,7750],[6.7,7833],[5.8,7916],[4.4,8000],[4.2,8083],[4.2,8166],[4.2,8250],[4.2,8333],[3.5,8416],[3,8500],[2.9,8583],[2.9,8665],[2.9,8749],[2.9,8833],[2.9,8915],[2.9,8999],[2.9,9083],[2.9,9166],[2.9,9249],[2.9,9332],[2.9,9416],[2.6,9499],[2.1,9583],[1.7,9667],[1.7,9749],[1.7,9833],[1.7,9916],[1.7,10000],[1.7,10083],[1.7,10166],[1.7,10250],[1.7,10333],[1.7,10416],[1.7,10499],[1.7,10583],[1.7,10666],[1.7,10750],[1.7,10833],[1.7,10916],[1.7,10999],[1.7,11083],[1.7,11167],[1.7,11249],[1.7,11333],[1.7,11416],[1.7,11499],[1.7,11583],[1.7,11666]]",529.883,531.9665,0.602912903,1.4939,"[{""rating"":0.6029129028320312,""responseTime"":1.4938999999985754}]",space,1.5368,,531.9667,Partially,50,531.9697,,,[],,0,4,4,4,1,audio/Narrative7Situation4.wav,audio/Narrative8Situation4.wav,audio/Narrative5Situation4.wav,audio/Narrative6Situation4.wav,3,3,1,2,,,,,,,,,,,,,,,,,,,,,,,,,,,,,,,,,,,,,,,
,,,,,628f9cfbee6de7cc7322fecf,2025-07-07_22h16.56.471,group3.4_multiperson,2023.2.2,MacIntel,58.47953216,686c2ebf0248f13bef9af11f,686c7b99dbf42e055ebf00f9,,,,,,,,,,,,,,,,,,,,,,,,,,,,,531.97,1,audio/Narrative7Situation5.wav,536.9828,,536.9828,545.4824,"[[2.9,833],[6.2,916],[7.6,999],[7.7,1083],[7.7,1166],[7.7,1249],[7.7,1333],[7.7,1416],[7.7,1499],[8.1,1582],[9.4,1668],[10.2,1749],[10.4,1832],[10.4,1915],[10.7,2000],[11.2,2082],[12.1,2166],[13.9,2249],[16.4,2332],[20,2416],[20,2499],[20,2583],[20,2666],[20,2749],[25.1,2832],[40.2,2917],[46.4,2999],[46.4,3083],[46.4,3166],[46.4,3249],[46.7,3332],[47.8,3416],[48,3499],[48,3582],[48,3665],[48,3749],[48,3832],[48.3,3916],[50.2,3999],[52.4,4083],[53.9,4166],[54.5,4249],[54.6,4332],[55,4416],[56.5,4499],[57.4,4582],[58.1,4666],[58.3,4749],[58.3,4833],[58.3,4916],[58.3,4999],[58.3,5083],[58.3,5166],[58.3,5249],[58.3,5333],[58.3,5416],[58.3,5499],[58.3,5583],[58.3,5667],[58.3,5750],[58.3,5832],[58.3,5916],[58.3,5999],[58.3,6082],[58.3,6166],[58.3,6249],[58.3,6332],[58.3,6416],[58.3,6500],[58.3,6582],[58.3,6667],[58.3,6749],[58.3,6832],[58.3,6916],[58.3,6999],[58.3,7082],[58.3,7166],[58.3,7249],[58.3,7333],[58.3,7416],[58.3,7499],[58.3,7582],[58.3,7666],[58.3,7749],[58.3,7833],[58.3,7916],[58.3,7999],[58.3,8083],[58.3,8166],[58.3,8249],[58.3,8333],[58.3,8416],[58.3,8499]]",545.4826,548.9494,78.65207248,2.161,"[{""rating"":78.65207248263889,""responseTime"":2.1609999999999445}]",space,2.9306,,548.9496,Partially,50,558.8659,50.51463657,5.3438,"[{""rating"":50.59533013237847,""responseTime"":4.476999999999975},{""rating"":50.51463656955295,""responseTime"":5.343800000004421}]",space,0,5,5,5,1,audio/Narrative7Situation5.wav,audio/Narrative8Situation5.wav,audio/Narrative5Situation5.wav,audio/Narrative6Situation5.wav,5,2,5,2,,,9.3662,,,,,,,,,,,,,,,,,,,,,,,,,,,,,,,,,,,,
,,,,,628f9cfbee6de7cc7322fecf,2025-07-07_22h16.56.471,group3.4_multiperson,2023.2.2,MacIntel,58.47953216,686c2ebf0248f13bef9af11f,686c7b99dbf42e055ebf00f9,,,,,,,,,,,,,,,,,,,,,,,,,,,,,558.8661,1,audio/Narrative7Situation6.wav,561.8822,,561.8823,571.8654,"[[50.6,2499],[54,2583],[60.4,2666],[66.5,2750],[67.9,2832],[67.9,2916],[67.9,2999],[70.7,3083],[75.7,3166],[77.1,3250],[77.1,3333],[77.1,3416],[80.6,3500],[87.5,3583],[88.7,3665],[88.7,3749],[88.7,3833],[88.7,3917],[88.9,3999],[96.3,4083],[98.3,4167],[98.3,4250],[98.3,4333],[98.3,4416],[98.3,4500],[98.3,4582],[100,4666],[100,4750],[100,4834],[100,4916],[100,5000],[100,5083],[100,5166],[100,5250],[100,5333],[100,5416],[100,5499],[100,5582],[100,5666],[100,5750],[100,5832],[100,5916],[100,5999],[100,6082],[100,6166],[100,6250],[100,6332],[100,6416],[100,6499],[100,6583],[100,6666],[100,6749],[100,6833],[100,6916],[100,6999],[100,7083],[100,7166],[100,7250],[100,7333],[100,7416],[100,7500],[100,7582],[100,7666],[100,7750],[100,7833],[100,7916],[100,7999],[100,8082],[100,8166],[100,8249],[100,8333],[100,8416],[100,8500],[100,8583],[100,8666],[100,8749],[100,8833],[100,8916],[100,8999],[100,9083],[100,9166],[100,9250],[100,9333],[100,9416],[100,9499],[100,9583],[100,9666],[100,9749],[100,9832],[100,9916]]",571.8655,575.0656,99.92229886,1.6099,"[{""rating"":99.92229885525174,""responseTime"":1.6098999999984471}]",space,2.6663,,575.0657,Partially,50,575.0677,,,[],,0,6,6,6,1,audio/Narrative7Situation6.wav,audio/Narrative8Situation6.wav,audio/Narrative5Situation6.wav,audio/Narrative6Situation6.wav,3,2,3,2,,,,,,,,,,,,,,,,,,,,,,,,,,,,,,,,,,,,,,,
,,,,,628f9cfbee6de7cc7322fecf,2025-07-07_22h16.56.471,group3.4_multiperson,2023.2.2,MacIntel,58.47953216,686c2ebf0248f13bef9af11f,686c7b99dbf42e055ebf00f9,,,,,,,,,,,,,,,,,,,,,,,,,,,,,575.068,1,audio/Narrative7Situation7.wav,580.0822,,580.0823,597.2489,"[[96.7,916],[94.8,999],[93.2,1083],[93,1166],[93,1249],[93,1332],[93,1416],[93,1499],[93,1583],[93,1666],[93,1749],[92.8,1833],[87.9,1916],[81.7,1999],[80.2,2082],[80.2,2166],[80.2,2249],[80.2,2333],[80.2,2416],[80.1,2500],[79,2582],[78.8,2666],[78.8,2749],[78.8,2833],[78.8,2916],[78.8,2999],[78.5,3082],[78.3,3165],[77.7,3249],[76.9,3332],[76.3,3416],[76.1,3499],[76,3583],[76,3666],[76,3749],[76,3832],[76,3916],[76,3999],[76,4083],[76,4166],[76,4249],[76,4333],[76,4416],[72.1,4499],[65.9,4582],[61.4,4666],[61.4,4750],[61.4,4832],[61.4,4916],[60.5,4999],[54.3,5082],[50.6,5166],[50.6,5249],[50.6,5333],[50.6,5416],[50.6,5499],[50.2,5582],[49.1,5666],[48.5,5749],[48.1,5832],[47.7,5916],[47.4,5999],[47.3,6083],[47.3,6167],[47,6249],[46.9,6333],[46.9,6416],[46.9,6499],[46.9,6582],[46.9,6666],[47.3,6749],[59.5,6832],[70.2,6915],[71.6,6999],[71.6,7082],[71.6,7166],[72.4,7249],[78,7332],[83.7,7416],[86.7,7499],[86.9,7582],[86.9,7666],[87.2,7749],[89.7,7833],[91,7916],[91.1,7999],[91.1,8082],[91.3,8166],[91.5,8249],[91.5,8333],[91.5,8416],[91.5,8499],[91.5,8582],[91.5,8666],[91.5,8749],[91.5,8833],[92,8916],[92.4,8999],[92.5,9083],[92.5,9165],[92.5,9249],[92.6,9332],[92.7,9416],[92.7,9499],[92.7,9582],[92.7,9665],[92.7,9749],[92.7,9833],[92.7,9916],[92.7,9999],[92.7,10082],[92.7,10166],[92.7,10249],[92.7,10333],[92.7,10416],[92.7,10500],[92.7,10582],[92.7,10665],[92.7,10749],[92.7,10832],[92.7,10916],[92.7,11000],[92.7,11082],[92.7,11166],[92.7,11249],[92.7,11332],[92.7,11416],[92.7,11500],[92.7,11582],[92.7,11666],[92.7,11749],[92.7,11833],[92.7,11916],[92.7,11999],[92.7,12082],[92.7,12166],[93.7,12249],[95,12333],[96.3,12416],[98.5,12499],[100,12583],[100,12666],[100,12749],[100,12832],[100,12916],[100,12999],[100,13082],[100,13165],[100,13249],[100,13333],[100,13416],[100,13499],[100,13582],[100,13666],[100,13749],[100,13833],[100,13916],[100,13999],[100,14082],[100,14166],[100,14249],[100,14334],[100,14417],[100,14500],[100,14583],[100,14666],[100,14749],[100,14833],[100,14916],[100,14999],[100,15082],[100,15166],[100,15249],[100,15333],[100,15415],[100,15499],[100,15583],[100,15666],[100,15749],[100,15833],[100,15916],[100,15999],[100,16082],[100,16166],[100,16248],[100,16333],[100,16416],[100,16499],[100,16583],[100,16666],[100,16749],[100,16833],[100,16916],[100,16999],[100,17082],[100,17166]]",597.249,600.1824,100,2.2255,"[{""rating"":99.27802191840279,""responseTime"":1.426800000004505},{""rating"":100,""responseTime"":2.225500000000011}]",space,2.3859,,600.1825,Definitely yes,100,600.1851,,,[],,0,7,7,7,1,audio/Narrative7Situation7.wav,audio/Narrative8Situation7.wav,audio/Narrative5Situation7.wav,audio/Narrative6Situation7.wav,5,3,4,5,,,,,,,,,,,,,,,,,,,,,,,,,,,,,,,,,,,,,,,
,,,,,628f9cfbee6de7cc7322fecf,2025-07-07_22h16.56.471,group3.4_multiperson,2023.2.2,MacIntel,58.47953216,686c2ebf0248f13bef9af11f,686c7b99dbf42e055ebf00f9,,,,,,,,,,,,,,,,,,,,,,,,,,,,,600.1854,1,audio/Narrative7Situation8.wav,602.1983,,602.1984,612.2155,"[[79.3,1166],[77.3,1249],[77.3,1332],[77.3,1417],[77.3,1499],[77.3,1583],[77.3,1666],[77.3,1750],[77.3,1833],[77.3,1917],[77.3,2000],[77.3,2082],[77.3,2166],[77.3,2250],[77.3,2332],[77.3,2416],[77.3,2499],[77.3,2583],[77.3,2666],[77.3,2749],[77.3,2833],[77.3,2916],[77.3,3000],[77.3,3083],[77.3,3166],[77.3,3250],[77.3,3333],[77.3,3417],[77.3,3499],[77.3,3583],[77.3,3666],[77.3,3749],[77.3,3833],[77.3,3916],[77.3,3999],[75.7,4083],[70.6,4166],[66.4,4249],[66.4,4332],[66.4,4416],[66.4,4499],[66.4,4583],[60.7,4667],[56.4,4750],[55.8,4833],[55.8,4916],[55.8,4999],[55.8,5082],[55.8,5166],[52.6,5249],[50.4,5332],[49,5416],[48.8,5500],[48.8,5583],[48.8,5666],[48.8,5751],[48.8,5832],[48.8,5917],[48.8,6000],[48.8,6083],[48.8,6166],[48.8,6250],[48.8,6333],[48.8,6416],[48.8,6499],[48.8,6583],[48.8,6666],[48.8,6749],[48.8,6833],[48.8,6916],[48.8,7000],[48.8,7082],[48.8,7166],[48.8,7250],[48.8,7332],[48.8,7416],[48.8,7500],[48.8,7583],[48.8,7666],[48.8,7750],[48.8,7833],[51.6,7916],[73.4,8000],[88.2,8083],[89.5,8166],[89.5,8249],[89.5,8333],[89.5,8416],[89.5,8499],[89.5,8583],[89.5,8666],[89.5,8750],[89.5,8833],[90.1,8916],[90.5,8999],[90.5,9082],[90.6,9166],[90.8,9249],[90.9,9333],[90.9,9417],[90.9,9499],[90.9,9582],[90.9,9666],[90.9,9750],[91.1,9833],[91.3,9916],[91.3,10000]]",612.2156,620.4151,100,7.8107,"[{""rating"":100,""responseTime"":7.810700000002953}]",space,7.6498,,620.4151,Partially,50,620.4175,,,[],,0,8,8,8,1,audio/Narrative7Situation8.wav,audio/Narrative8Situation8.wav,audio/Narrative5Situation8.wav,audio/Narrative6Situation8.wav,2,3,3,5,,,,,,,,,,,,,,,,,,,,,,,,,,,,,,,,,,,,,,,
,,,,,628f9cfbee6de7cc7322fecf,2025-07-07_22h16.56.471,group3.4_multiperson,2023.2.2,MacIntel,58.47953216,686c2ebf0248f13bef9af11f,686c7b99dbf42e055ebf00f9,,,,,,,,,,,,,,,,,,,,,,,,,,,,,620.4177,1,audio/Narrative7Situation9.wav,622.4315,,622.4316,631.0654,"[[999,0],[999,82],[999,166],[999,249],[999,333],[999,416],[999,500],[999,583],[999,677],[999,753],[999,834],[999,917],[999,1000],[68.6,1085],[70.2,1165],[70.2,1250],[70.2,1333],[70.5,1417],[74.7,1499],[77.6,1582],[78.6,1666],[78.7,1749],[78.7,1832],[78.7,1916],[78.7,1999],[78.7,2083],[78.7,2166],[78.7,2250],[78.7,2333],[78.7,2416],[78.7,2499],[78.7,2583],[78.7,2666],[78.7,2750],[78.7,2833],[78.7,2916],[78.7,2999],[78.7,3083],[78.7,3166],[78.7,3249],[78.7,3332],[78.7,3416],[78.7,3499],[78.7,3583],[78.7,3666],[78.7,3749],[78.7,3832],[78.7,3916],[82.2,4000],[85.2,4082],[86,4166],[86,4250],[86,4333],[86.5,4416],[89.7,4499],[91.4,4583],[92.4,4666],[92.9,4750],[92.9,4833],[92.9,4916],[92.9,4999],[92.9,5082],[93.7,5166],[94.1,5249],[94.1,5333],[94.1,5416],[94.1,5499],[94.1,5582],[94.1,5666],[94.1,5750],[94.1,5833],[94.1,5916],[94.1,5999],[94.1,6083],[94.1,6166],[94.1,6250],[94.1,6332],[94.1,6416],[94.1,6499],[94.1,6582],[94.1,6666],[94.1,6749],[94.1,6832],[94.1,6916],[94.1,7000],[94.1,7082],[94.1,7165],[94.1,7249],[94.1,7333],[94.1,7416],[94.1,7499],[94.1,7582],[94.4,7666],[94.6,7750],[95,7833],[95.4,7915],[95.6,7999],[95.7,8082],[96.1,8166],[97.1,8249],[99.6,8333],[100,8416],[100,8499],[100,8583]]",631.0656,633.8152,100,1.7442,"[{""rating"":100,""responseTime"":1.7442000000030475}]",space,2.1999,,633.8154,Partially,50,633.8173,,,[],,0,9,9,9,1,audio/Narrative7Situation9.wav,audio/Narrative8Situation9.wav,audio/Narrative5Situation9.wav,audio/Narrative6Situation9.wav,2,3,3,4,,,,,,,,,,,,,,,,,,,,,,,,,,,,,,,,,,,,,,,
,,,,,628f9cfbee6de7cc7322fecf,2025-07-07_22h16.56.471,group3.4_multiperson,2023.2.2,MacIntel,58.47953216,686c2ebf0248f13bef9af11f,686c7b99dbf42e055ebf00f9,,,,,,,,,,,,,,,,,,,,,,,,,,,,,633.8176,1,audio/Narrative8Situation1.wav,638.8309,,638.8309,654.7478,"[[97.6,1166],[97.6,1250],[97.6,1333],[97.6,1417],[97.6,1500],[97.6,1583],[97.6,1666],[97.6,1750],[96.5,1833],[93,1917],[89.3,2000],[89.3,2083],[89.3,2167],[89.3,2250],[89.3,2333],[81.4,2417],[76.8,2499],[76.8,2583],[76.8,2667],[76.8,2750],[76.8,2833],[75.1,2916],[72,3000],[71,3083],[71,3166],[71,3250],[71,3333],[71,3416],[71,3500],[71,3583],[71,3667],[71,3750],[71,3833],[71,3916],[71,4000],[71,4083],[71,4166],[71,4250],[71,4333],[71,4416],[71,4500],[71,4583],[71,4667],[71,4750],[71,4834],[71,4916],[71,5000],[71,5083],[71,5166],[71,5250],[70,5334],[65.1,5416],[62.7,5500],[61.5,5583],[61.5,5666],[61.5,5749],[61.5,5832],[61.5,5916],[61.5,6000],[61.5,6083],[61.5,6166],[61.5,6250],[61.5,6333],[61.5,6416],[61.5,6500],[61.5,6583],[61.5,6666],[61.5,6750],[61.5,6834],[61.5,6917],[61.5,6999],[61.5,7083],[61.5,7166],[61.5,7250],[61.5,7333],[61.5,7416],[61.5,7500],[61.5,7583],[61.5,7666],[61.5,7750],[61.5,7833],[61.5,7916],[61.5,8000],[61.5,8083],[61.5,8166],[61.5,8249],[61.5,8332],[61.5,8416],[61.5,8500],[61.5,8583],[61.5,8666],[61.5,8750],[61.5,8833],[61.5,8916],[61.5,9000],[61.5,9083],[61.5,9166],[61.5,9250],[61.5,9333],[61.5,9416],[61.5,9500],[61.5,9583],[61.5,9666],[61.5,9750],[61.5,9833],[61.5,9916],[61.5,10000],[61.5,10083],[61.5,10166],[61.5,10250],[61.5,10333],[61.5,10416],[61.5,10500],[61.5,10583],[61.5,10666],[61.5,10750],[61.5,10833],[61.5,10916],[61.5,11000],[61.5,11083],[61.5,11166],[60.4,11250],[55.1,11333],[53.5,11417],[53.5,11500],[53.5,11583],[53.5,11666],[53.5,11749],[53.5,11832],[53.5,11917],[53.5,12000],[53.4,12083],[53.4,12166],[53.4,12250],[53.4,12333],[53.4,12416],[53.4,12500],[53.4,12583],[53.4,12666],[53.4,12750],[53.4,12833],[53.4,12916],[53.4,12999],[53.4,13083],[53.3,13166],[52.2,13250],[51.6,13333],[51.6,13416],[51.4,13500],[51.1,13583],[51.1,13666],[51.1,13750],[51.1,13834],[51.1,13916],[51.3,14000],[51.3,14083],[51.3,14167],[51.3,14250],[51.3,14332],[51.3,14416],[51.3,14500],[51.3,14583],[51.3,14666],[51.3,14750],[51.3,14833],[51.3,14917],[51.3,15000],[51.3,15083],[51.3,15166],[51.3,15250],[51.3,15333],[51.3,15416],[51.3,15500],[51.3,15583],[51.3,15666],[51.3,15750],[51.3,15833],[51.3,15916]]",654.7479,656.6804,44.33882819,1.3576,"[{""rating"":44.33882819281684,""responseTime"":1.357600000001412}]",space,1.3823,,656.6804,Definitely yes,100,656.6827,,,[],,0,10,10,10,1,audio/Narrative8Situation1.wav,audio/Narrative7Situation1.wav,audio/Narrative6Situation1.wav,audio/Narrative5Situation1.wav,5,2,2,5,,,,,,,,,,,,,,,,,,,,,,,,,,,,,,,,,,,,,,,
,,,,,628f9cfbee6de7cc7322fecf,2025-07-07_22h16.56.471,group3.4_multiperson,2023.2.2,MacIntel,58.47953216,686c2ebf0248f13bef9af11f,686c7b99dbf42e055ebf00f9,,,,,,,,,,,,,,,,,,,,,,,,,,,,,656.683,1,audio/Narrative8Situation2.wav,659.6979,,659.6979,669.8307,"[[44.9,1083],[46.1,1166],[46.4,1250],[46.5,1333],[46.6,1416],[46.6,1500],[46.6,1582],[46.5,1666],[46.5,1749],[46.5,1832],[46.5,1915],[45.5,1999],[43.7,2083],[43.1,2165],[43,2249],[42.7,2332],[41.9,2416],[41.1,2499],[41.1,2582],[41.1,2665],[41.1,2749],[41.1,2832],[41.1,2915],[41.1,3000],[41.1,3082],[41.1,3166],[41.1,3249],[41.1,3332],[41.1,3416],[41.1,3499],[41.1,3582],[41.1,3665],[41.1,3749],[41.1,3832],[41.1,3916],[41.1,3999],[41.1,4082],[41.1,4165],[41.1,4249],[41.1,4332],[41.1,4415],[41.1,4499],[41.1,4582],[41.1,4665],[41.1,4749],[41.1,4832],[41.1,4915],[41.1,5000],[41.1,5082],[41.1,5165],[41.1,5249],[41.1,5332],[41.1,5416],[41.1,5499],[41.1,5582],[41.1,5665],[41,5749],[40.9,5833],[40.9,5916],[40.8,5999],[40.8,6083],[40.7,6165],[40.7,6249],[40.7,6333],[40.7,6415],[40.7,6499],[40.7,6582],[40.6,6665],[40.6,6749],[40.6,6832],[40.6,6916],[40.6,6999],[40.5,7082],[40.5,7165],[40.5,7249],[40.5,7333],[40.5,7416],[40.5,7499],[40.5,7582],[40.5,7665],[40.5,7749],[40.5,7832],[40.5,7915],[40.5,7999],[40.5,8082],[40.5,8165],[40.5,8249],[40.5,8332],[40.5,8416],[40.5,8499],[40.5,8582],[40.5,8666],[40.5,8749],[40.5,8832],[40.5,8915],[40.5,8999],[40.6,9083],[40.6,9166],[40.7,9249],[40.9,9333],[41.5,9415],[46.4,9499],[52,9583],[55,9665],[57,9749],[57.2,9832],[57.4,9916],[59.4,9999],[62.2,10082]]",669.8309,672.1471,55.82261827,0.9611,"[{""rating"":55.82261827256944,""responseTime"":0.9610999999940759}]",space,1.7863,,672.1472,Partially,50,672.1501,,,[],,0,11,11,11,1,audio/Narrative8Situation2.wav,audio/Narrative7Situation2.wav,audio/Narrative6Situation2.wav,audio/Narrative5Situation2.wav,3,3,3,3,,,,,,,,,,,,,,,,,,,,,,,,,,,,,,,,,,,,,,,
,,,,,628f9cfbee6de7cc7322fecf,2025-07-07_22h16.56.471,group3.4_multiperson,2023.2.2,MacIntel,58.47953216,686c2ebf0248f13bef9af11f,686c7b99dbf42e055ebf00f9,,,,,,,,,,,,,,,,,,,,,,,,,,,,,672.1503,1,audio/Narrative8Situation3.wav,676.1639,,676.1639,698.5305,"[[56.8,1000],[57.2,1083],[57.4,1166],[57.4,1250],[57.4,1332],[58.1,1416],[59.9,1500],[61.7,1583],[62.9,1666],[63.1,1750],[63.1,1833],[63.1,1916],[63.1,2000],[63.1,2083],[63.1,2166],[63.1,2249],[63.1,2333],[63.1,2417],[63.1,2499],[63.1,2582],[63.5,2667],[64.7,2750],[65.2,2833],[65.3,2917],[65.3,2999],[65.3,3083],[65.3,3166],[65.3,3250],[65.3,3333],[65.3,3416],[65.3,3500],[65.3,3583],[65.3,3666],[65.3,3749],[65.8,3833],[66.3,3916],[66.6,4000],[66.8,4082],[67.1,4166],[67.6,4249],[68.3,4333],[68.9,4417],[69.7,4500],[70.6,4582],[71.3,4666],[71.7,4750],[72,4833],[72.3,4916],[72.9,5000],[73.5,5083],[74.1,5166],[74.5,5249],[74.6,5332],[74.8,5416],[74.8,5499],[74.8,5583],[74.8,5666],[74.8,5750],[74.8,5833],[74.8,5916],[78,5999],[84.5,6083],[87.3,6166],[87.3,6249],[87.3,6333],[87.3,6416],[87.3,6499],[87.3,6583],[87.3,6666],[87.3,6749],[87.3,6833],[87.3,6916],[87.3,7000],[87.3,7083],[87.3,7166],[87.3,7249],[87.3,7333],[87.3,7416],[87.3,7499],[87.3,7583],[87.3,7666],[87.3,7750],[87.3,7833],[87.3,7918],[87.3,7999],[87.3,8082],[87.3,8167],[87.3,8249],[87.3,8333],[87.3,8415],[87.3,8499],[87.3,8583],[87.3,8666],[87.3,8749],[87.3,8833],[87.3,8915],[87.3,8999],[87.3,9083],[87.3,9166],[87.3,9250],[87.3,9333],[87.3,9415],[87.3,9499],[87.3,9583],[87.3,9666],[87.6,9749],[88.7,9832],[92.1,9916],[97.9,10000],[100,10083],[100,10166],[100,10249],[100,10333],[100,10415],[100,10499],[100,10583],[100,10666],[100,10749],[100,10833],[100,10916],[100,10999],[100,11083],[100,11166],[100,11250],[100,11333],[100,11416],[100,11499],[100,11583],[100,11666],[100,11750],[100,11833],[100,11916],[100,11999],[100,12083],[100,12165],[100,12250],[100,12333],[100,12416],[100,12500],[100,12583],[100,12666],[100,12749],[100,12833],[100,12916],[100,13000],[100,13082],[100,13166],[100,13249],[100,13333],[100,13415],[100,13499],[100,13582],[100,13666],[100,13749],[100,13832],[100,13916],[100,14000],[100,14082],[100,14166],[100,14249],[100,14332],[100,14416],[100,14499],[100,14582],[100,14666],[100,14749],[100,14832],[100,14916],[100,14999],[100,15083],[100,15166],[100,15250],[100,15333],[100,15415],[100,15499],[100,15582],[100,15665],[100,15749],[100,15832],[100,15916],[100,15999],[100,16083],[100,16166],[100,16250],[100,16333],[100,16416],[100,16499],[100,16582],[100,16666],[100,16749],[100,16832],[100,16916],[100,17000],[100,17083],[100,17166],[100,17249],[100,17333],[100,17416],[100,17499],[100,17583],[100,17666],[100,17750],[100,17833],[100,17916],[100,18000],[100,18083],[100,18165],[100,18250],[100,18332],[100,18416],[100,18499],[100,18582],[100,18666],[100,18749],[100,18833],[100,18916],[100,18999],[100,19083],[100,19166],[100,19249],[100,19333],[100,19416],[100,19499],[100,19582],[100,19666],[100,19750],[100,19832],[100,19916],[100,19999],[100,20082],[100,20166],[100,20249],[100,20332],[100,20416],[100,20499],[100,20583],[100,20666],[100,20749],[100,20832],[100,20916],[100,21000],[100,21083],[100,21166],[100,21250],[100,21333],[100,21416],[100,21499],[100,21583],[100,21666],[100,21749],[100,21832],[100,21916],[100,21999],[100,22082],[100,22166],[100,22249],[100,22332]]",698.5307,702.2638,98.66477119,3.2438,"[{""rating"":98.66477118598091,""responseTime"":3.243799999997009}]",space,3.1839,,702.2639,Not at all,0,702.2664,,,[],,0,12,12,12,1,audio/Narrative8Situation3.wav,audio/Narrative7Situation3.wav,audio/Narrative6Situation3.wav,audio/Narrative5Situation3.wav,4,8,5,3,,,,,,,,,,,,,,,,,,,,,,,,,,,,,,,,,,,,,,,
,,,,,628f9cfbee6de7cc7322fecf,2025-07-07_22h16.56.471,group3.4_multiperson,2023.2.2,MacIntel,58.47953216,686c2ebf0248f13bef9af11f,686c7b99dbf42e055ebf00f9,,,,,,,,,,,,,,,,,,,,,,,,,,,,,702.2666,1,audio/Narrative8Situation4.wav,705.2798,,705.28,719.447,"[[98.6,666],[97,750],[96,833],[95.7,916],[95.7,999],[95.7,1083],[95.7,1167],[95.7,1250],[95.7,1334],[95.7,1417],[95.7,1500],[95.7,1583],[95.7,1666],[95.7,1749],[95.7,1833],[95.7,1917],[95.7,2000],[95.7,2082],[95.7,2167],[95.7,2250],[95.7,2333],[95.7,2417],[95.7,2500],[95.7,2583],[95.9,2666],[96.3,2750],[97,2833],[97.7,2917],[98.3,2999],[98.7,3083],[99.3,3167],[99.8,3249],[100,3334],[100,3416],[100,3500],[100,3583],[100,3666],[100,3750],[100,3834],[100,3917],[100,3999],[100,4084],[100,4167],[100,4250],[100,4333],[100,4416],[100,4500],[100,4583],[100,4666],[100,4750],[100,4833],[100,4916],[100,4999],[100,5083],[100,5167],[100,5249],[100,5333],[100,5416],[100,5499],[100,5583],[100,5666],[100,5750],[100,5834],[100,5917],[100,6000],[100,6083],[100,6166],[100,6250],[100,6333],[100,6416],[100,6500],[100,6583],[100,6666],[100,6750],[100,6833],[100,6916],[100,7000],[100,7083],[100,7166],[100,7250],[100,7333],[100,7417],[100,7500],[100,7583],[100,7666],[100,7750],[100,7834],[100,7916],[100,8000],[100,8082],[100,8167],[100,8250],[100,8333],[100,8416],[100,8500],[100,8583],[100,8667],[100,8750],[100,8832],[100,8917],[100,8999],[100,9082],[100,9166],[100,9249],[100,9333],[100,9416],[100,9500],[100,9583],[100,9667],[100,9750],[100,9833],[100,9917],[100,9999],[100,10083],[100,10166],[100,10249],[100,10332],[100,10416],[100,10500],[100,10583],[100,10666],[100,10750],[100,10832],[100,10916],[100,11000],[100,11082],[100,11166],[100,11249],[100,11332],[100,11417],[100,11499],[100,11583],[100,11666],[100,11750],[100,11833],[100,11917],[100,12000],[100,12083],[100,12166],[100,12250],[100,12333],[100,12417],[100,12500],[100,12583],[100,12666],[100,12750],[100,12833],[100,12916],[100,13000],[100,13083],[100,13166],[100,13249],[100,13333],[100,13416],[100,13500],[100,13583],[100,13666],[100,13749],[100,13833],[100,13917],[100,14000],[100,14083],[100,14166]]",719.4471,721.6969,100,1.7429,"[{""rating"":99.13392808702257,""responseTime"":1.0777000000030057},{""rating"":100,""responseTime"":1.742899999998599}]",space,1.702,,721.6969,Not at all,0,721.6983,,,[],,0,13,13,13,1,audio/Narrative8Situation4.wav,audio/Narrative7Situation4.wav,audio/Narrative6Situation4.wav,audio/Narrative5Situation4.wav,3,3,2,1,,,,,,,,,,,,,,,,,,,,,,,,,,,,,,,,,,,,,,,
,,,,,628f9cfbee6de7cc7322fecf,2025-07-07_22h16.56.471,group3.4_multiperson,2023.2.2,MacIntel,58.47953216,686c2ebf0248f13bef9af11f,686c7b99dbf42e055ebf00f9,,,,,,,,,,,,,,,,,,,,,,,,,,,,,721.6985,1,audio/Narrative8Situation5.wav,723.7135,,723.7135,731.963,"[[84.8,1583],[88.3,1666],[88.6,1749],[88.6,1832],[88.6,1916],[88.6,2000],[88.6,2083],[88.6,2166],[88.6,2249],[88.6,2332],[88.6,2416],[88.6,2499],[88.6,2583],[88.6,2666],[88.6,2749],[88.6,2832],[88.6,2916],[88.6,2999],[88.6,3082],[88.6,3165],[88.6,3250],[88.6,3333],[88.6,3416],[88.6,3499],[88.6,3583],[88.6,3666],[88.6,3750],[88.6,3833],[88.6,3916],[88.6,3999],[88.6,4083],[88.6,4166],[88.6,4249],[88.6,4333],[88.6,4416],[88.6,4499],[88.6,4583],[88.6,4666],[88.6,4749],[88.6,4833],[88.6,4916],[88.6,4999],[88.6,5082],[88.6,5166],[88.6,5249],[88.6,5332],[88.6,5416],[88.6,5499],[88.6,5583],[88.6,5666],[88.6,5749],[88.6,5833],[88.6,5916],[88.6,5999],[88.6,6083],[88.6,6166],[88.6,6249],[88.6,6332],[88.6,6416],[88.6,6499],[88.6,6582],[88.6,6666],[88.6,6749],[89.3,6833],[89.9,6916],[90.4,6999],[91.1,7083],[93.3,7166],[98.1,7250],[100,7333],[100,7416],[100,7499],[100,7582],[100,7666],[100,7749],[100,7833],[100,7916],[100,7999],[100,8083],[100,8165],[100,8249]]",731.9631,735.8133,99.38937717,3.0278,"[{""rating"":99.38937717013889,""responseTime"":3.0277999999970007}]",space,3.3009,,735.8134,Not at all,0,735.8153,,,[],,0,14,14,14,1,audio/Narrative8Situation5.wav,audio/Narrative7Situation5.wav,audio/Narrative6Situation5.wav,audio/Narrative5Situation5.wav,2,5,2,5,,,,,,,,,,,,,,,,,,,,,,,,,,,,,,,,,,,,,,,
,,,,,628f9cfbee6de7cc7322fecf,2025-07-07_22h16.56.471,group3.4_multiperson,2023.2.2,MacIntel,58.47953216,686c2ebf0248f13bef9af11f,686c7b99dbf42e055ebf00f9,,,,,,,,,,,,,,,,,,,,,,,,,,,,,735.8156,1,audio/Narrative8Situation6.wav,737.8304,,737.8304,744.3136,"[[98.4,1083],[98.2,1166],[98.2,1249],[98.2,1332],[98.2,1416],[98.2,1498],[98.2,1582],[98.2,1666],[98.2,1749],[98.2,1832],[98.2,1915],[98.2,1999],[98.2,2083],[98.2,2166],[98.6,2249],[98.8,2332],[98.8,2416],[98.8,2499],[98.8,2582],[98.8,2665],[98.8,2749],[98.8,2832],[98.8,2915],[98.8,2999],[98.8,3082],[98.8,3166],[98.8,3249],[98.8,3332],[98.8,3415],[98.8,3498],[98.8,3582],[98.8,3666],[98.8,3749],[98.8,3833],[98.8,3915],[98.8,3998],[98.8,4082],[98.8,4165],[98.8,4249],[98.8,4332],[98.8,4415],[98.8,4498],[98.8,4582],[98.8,4665],[98.8,4749],[98.8,4832],[98.8,4916],[98.8,4999],[98.8,5082],[98.8,5166],[98.8,5249],[98.8,5332],[98.8,5416],[98.8,5498],[98.8,5582],[98.8,5666],[98.8,5749],[98.8,5832],[98.8,5915],[98.8,5999],[98.8,6082],[98.8,6166],[98.8,6248],[98.8,6333],[98.8,6415]]",744.3138,748.2632,100,1.8906,"[{""rating"":98.77614339192708,""responseTime"":1.024199999995517},{""rating"":100,""responseTime"":1.8905999999940377}]",space,3.4016,,748.2632,Partially,50,748.2655,,,[],,0,15,15,15,1,audio/Narrative8Situation6.wav,audio/Narrative7Situation6.wav,audio/Narrative6Situation6.wav,audio/Narrative5Situation6.wav,2,3,2,3,,,,,,,,,,,,,,,,,,,,,,,,,,,,,,,,,,,,,,,
,,,,,628f9cfbee6de7cc7322fecf,2025-07-07_22h16.56.471,group3.4_multiperson,2023.2.2,MacIntel,58.47953216,686c2ebf0248f13bef9af11f,686c7b99dbf42e055ebf00f9,,,,,,,,,,,,,,,,,,,,,,,,,,,,,748.2657,1,audio/Narrative8Situation7.wav,751.2799,,751.28,763.3625,"[[93.7,1333],[93.2,1416],[93.1,1499],[93.1,1582],[93.1,1666],[93.1,1749],[93.3,1832],[94.2,1916],[95,2000],[95.2,2082],[95.3,2166],[95.4,2250],[95.4,2332],[95.4,2416],[95.4,2499],[95.4,2582],[95.4,2666],[95.4,2749],[95.4,2832],[95.4,2916],[95.4,2999],[95.4,3082],[95.4,3166],[95.4,3249],[95.4,3332],[95.4,3415],[95.4,3499],[95.4,3582],[95.4,3666],[95.4,3749],[95.4,3832],[95.4,3916],[95.4,3999],[95.4,4082],[95.4,4166],[95.4,4249],[95.4,4332],[95.4,4415],[95.4,4499],[95.4,4582],[95.4,4666],[95.4,4749],[95.4,4832],[95.4,4916],[95.4,4999],[95.4,5083],[95.4,5165],[95.4,5249],[95.4,5332],[95.4,5415],[95.4,5499],[95.4,5583],[95.4,5666],[95.8,5749],[96.4,5833],[96.6,5916],[97.5,5999],[99,6082],[99.8,6165],[100,6249],[100,6332],[100,6415],[100,6499],[100,6582],[100,6665],[100,6749],[100,6832],[100,6916],[100,6999],[100,7082],[100,7166],[100,7249],[100,7332],[100,7415],[100,7499],[100,7583],[100,7666],[100,7749],[100,7832],[100,7916],[100,7999],[100,8082],[100,8166],[100,8250],[100,8333],[100,8416],[100,8499],[100,8582],[100,8666],[100,8749],[100,8832],[100,8915],[100,8999],[100,9082],[100,9166],[100,9249],[100,9332],[100,9415],[100,9499],[100,9583],[100,9666],[100,9749],[100,9832],[100,9916],[100,9999],[100,10082],[100,10166],[100,10249],[100,10332],[100,10415],[100,10499],[100,10582],[100,10665],[100,10748],[100,10832],[100,10915],[100,10999],[100,11082],[100,11166],[100,11249],[100,11332],[100,11416],[100,11499],[100,11582],[100,11665],[100,11749],[100,11833],[100,11916],[100,11999],[100,12082]]",763.3627,767.9628,100,3.9442,"[{""rating"":98.82327609592014,""responseTime"":3.0288999999985435},{""rating"":100,""responseTime"":3.9442000000029793}]",space,4.0503,,767.9628,Not at all,0,767.9651,,,[],,0,16,16,16,1,audio/Narrative8Situation7.wav,audio/Narrative7Situation7.wav,audio/Narrative6Situation7.wav,audio/Narrative5Situation7.wav,3,5,5,4,,,,,,,,,,,,,,,,,,,,,,,,,,,,,,,,,,,,,,,
,,,,,628f9cfbee6de7cc7322fecf,2025-07-07_22h16.56.471,group3.4_multiperson,2023.2.2,MacIntel,58.47953216,686c2ebf0248f13bef9af11f,686c7b99dbf42e055ebf00f9,,,,,,,,,,,,,,,,,,,,,,,,,,,,,767.9652,1,audio/Narrative8Situation8.wav,770.9796,,770.9796,783.8463,"[[92.4,999],[93.3,1083],[93.3,1165],[93.3,1249],[93.3,1332],[93.3,1416],[93.3,1499],[93.3,1583],[93.3,1666],[93.3,1749],[93.3,1832],[93.3,1915],[93.3,1999],[93.3,2082],[93.4,2166],[94.1,2249],[95.5,2333],[96.5,2416],[97.4,2499],[98.4,2582],[99.8,2666],[99.9,2749],[99.9,2832],[99.9,2915],[99.9,2999],[99.9,3083],[99.9,3165],[99.9,3249],[99.9,3333],[99.9,3416],[99.9,3500],[99.9,3582],[99.9,3666],[99.9,3749],[99.9,3832],[99.9,3915],[99.9,3999],[99.9,4083],[99.9,4166],[99.9,4249],[99.9,4332],[99.9,4416],[99.9,4499],[99.9,4583],[99.9,4665],[99.9,4749],[99.9,4832],[99.9,4915],[99.9,4999],[99.9,5082],[99.9,5166],[99.9,5249],[99.9,5332],[99.9,5416],[99.9,5500],[99.9,5583],[99.9,5666],[99.9,5749],[99.9,5832],[99.9,5916],[99.9,5999],[99.9,6083],[99.9,6166],[99.9,6249],[99.9,6332],[99.9,6415],[99.9,6499],[99.9,6582],[99.9,6666],[99.9,6749],[99.9,6833],[99.9,6916],[99.9,6999],[99.9,7083],[99.9,7165],[99.9,7249],[99.9,7332],[99.9,7415],[99.9,7499],[99.9,7582],[99.9,7665],[99.9,7749],[99.9,7833],[99.9,7915],[99.9,7999],[99.9,8082],[99.9,8166],[99.9,8249],[99.9,8333],[99.9,8415],[99.9,8499],[99.9,8583],[99.9,8666],[99.9,8750],[99.9,8832],[99.9,8916],[99.9,8999],[99.9,9083],[99.9,9166],[99.9,9249],[99.9,9333],[99.9,9415],[99.9,9499],[99.9,9582],[99.9,9665],[99.9,9749],[99.9,9832],[99.9,9916],[99.9,9999],[99.9,10082],[99.9,10166],[99.9,10249],[99.9,10332],[99.9,10416],[99.9,10500],[99.9,10582],[99.9,10665],[99.9,10749],[99.9,10833],[99.9,10916],[99.9,10999],[99.9,11083],[99.9,11166],[99.9,11249],[99.9,11333],[99.9,11416],[99.9,11499],[99.9,11582],[99.9,11666],[99.9,11749],[99.9,11832],[99.9,11916],[99.9,11999],[99.9,12082],[99.9,12166],[99.9,12249],[99.9,12332],[99.9,12415],[99.9,12499],[99.9,12582],[99.9,12666],[99.9,12749],[99.9,12832]]",783.8464,786.3789,100,2.0443,"[{""rating"":99.87445407443576,""responseTime"":0.9776999999955933},{""rating"":100,""responseTime"":2.0442999999970652}]",space,1.9871,,786.379,Not at all,0,786.3807,,,[],,0,17,17,17,1,audio/Narrative8Situation8.wav,audio/Narrative7Situation8.wav,audio/Narrative6Situation8.wav,audio/Narrative5Situation8.wav,3,2,5,3,,,,,,,,,,,,,,,,,,,,,,,,,,,,,,,,,,,,,,,
,,,,,628f9cfbee6de7cc7322fecf,2025-07-07_22h16.56.471,group3.4_multiperson,2023.2.2,MacIntel,58.47953216,686c2ebf0248f13bef9af11f,686c7b99dbf42e055ebf00f9,,,,,,,,,,,,,,,,,,,,,,,,,,,,,786.3811,1,audio/Narrative8Situation9.wav,789.3965,,789.3965,800.7288,"[[98.1,833],[98.1,915],[98.1,998],[98.1,1082],[98.1,1166],[98.1,1248],[98.1,1332],[98.1,1416],[98.1,1498],[98.3,1582],[99,1665],[99.6,1749],[99.6,1832],[99.7,1916],[99.7,1998],[99.7,2082],[99.7,2165],[99.7,2249],[99.7,2332],[99.7,2415],[99.7,2499],[99.7,2583],[99.7,2665],[99.7,2748],[99.7,2832],[99.7,2915],[99.7,2999],[99.7,3082],[99.7,3165],[99.7,3249],[99.7,3332],[99.7,3415],[99.7,3498],[99.7,3582],[99.7,3665],[99.7,3749],[99.7,3832],[99.7,3915],[99.7,3999],[99.7,4083],[99.7,4166],[99.7,4248],[99.7,4331],[99.7,4416],[99.7,4499],[99.7,4582],[99.7,4665],[99.7,4749],[99.7,4832],[99.7,4915],[99.7,4999],[99.7,5082],[99.7,5165],[99.7,5249],[99.7,5332],[99.7,5415],[99.7,5499],[99.7,5583],[99.7,5665],[99.7,5748],[99.7,5832],[99.7,5916],[99.7,5999],[99.7,6081],[99.7,6165],[99.7,6249],[99.7,6332],[99.7,6416],[99.7,6498],[99.7,6582],[99.7,6666],[99.7,6749],[99.7,6832],[99.7,6915],[99.7,6999],[99.7,7082],[99.7,7165],[99.7,7248],[99.7,7332],[99.7,7416],[99.7,7499],[99.7,7581],[99.7,7665],[99.7,7748],[99.7,7832],[99.7,7915],[99.7,7998],[99.7,8082],[99.7,8165],[99.7,8249],[99.7,8332],[99.7,8415],[99.7,8499],[99.7,8582],[99.7,8665],[99.7,8748],[99.7,8832],[99.7,8915],[99.7,8999],[99.7,9082],[99.7,9165],[99.7,9249],[99.7,9332],[99.7,9415],[99.7,9499],[99.7,9582],[99.7,9665],[99.7,9749],[99.7,9832],[99.7,9915],[99.7,9999],[99.7,10082],[99.7,10165],[99.7,10248],[99.7,10332],[99.7,10416],[99.7,10499],[99.7,10582],[99.7,10666],[99.7,10748],[99.7,10832],[99.7,10915],[99.7,10999],[99.7,11083],[99.7,11165],[99.7,11249],[99.7,11332]]",800.7289,811.3957,99.30065579,1.9432,"[{""rating"":99.30065578884549,""responseTime"":1.9431999999954996}]",space,10.1334,,811.3958,Definitely yes,100,811.3992,,,[],,0,18,18,18,1,audio/Narrative8Situation9.wav,audio/Narrative7Situation9.wav,audio/Narrative6Situation9.wav,audio/Narrative5Situation9.wav,3,2,4,3,,,,,,,,,,,,,,,,,,,,,,,,,,,,,,,,,,,,,,,
,,,,,628f9cfbee6de7cc7322fecf,2025-07-07_22h16.56.471,group3.4_multiperson,2023.2.2,MacIntel,58.47953216,686c2ebf0248f13bef9af11f,686c7b99dbf42e055ebf00f9,,,,,,,,,,,,,,,,,,,,,,,,,,,871.395,873.9776,873.9907,2,audio/Narrative13Situation2.wav,873.9909,,873.9909,903.7447,"[[98.5,2653],[100,2736],[100,2820],[100,2903],[95,2986],[88.6,3069],[84.9,3153],[84.9,3236],[84.9,3320],[84.9,3403],[84.9,3487],[82.9,3570],[82.1,3653],[82.1,3736],[82.2,3820],[82.3,3903],[82.4,3986],[82.4,4070],[82.4,4153],[82.4,4236],[82.4,4320],[82.4,4403],[82.4,4486],[82.4,4570],[82.4,4653],[82.2,4736],[81.9,4819],[81.7,4903],[81.5,4987],[81.4,5069],[81.3,5153],[81.3,5236],[81.3,5320],[81.3,5403],[81.3,5486],[81.3,5570],[81.3,5653],[81.3,5737],[80.4,5820],[78.2,5904],[76.7,5987],[76.7,6070],[76.8,6153],[77,6236],[78.3,6320],[78.7,6403],[78.8,6486],[78.8,6570],[78.8,6653],[78.8,6736],[78.8,6820],[78.8,6903],[78.8,6986],[78.8,7069],[78.8,7153],[78.8,7236],[78.8,7319],[78.8,7403],[78.8,7486],[78.8,7570],[78.8,7653],[78.8,7737],[78.8,7820],[78.8,7903],[78.8,7986],[78.8,8070],[78.8,8153],[78.8,8236],[78.8,8320],[78.8,8403],[78.8,8487],[78.8,8570],[78.8,8653],[78.8,8736],[78.8,8819],[78.8,8903],[78.8,8986],[78.8,9069],[78.7,9153],[78.7,9236],[78.7,9320],[78.7,9403],[78.7,9486],[78.7,9569],[78.7,9653],[78.7,9736],[78.7,9820],[78.7,9903],[78.7,9986],[78.7,10070],[78.7,10153],[78.7,10236],[78.7,10319],[78.7,10403],[78.7,10486],[78.7,10570],[78.7,10653],[78.7,10736],[78.7,10819],[78.7,10903],[78.7,10986],[78.7,11069],[78.7,11153],[78.7,11236],[78.7,11320],[78.7,11403],[78.7,11486],[78.7,11569],[78.7,11653],[78.7,11737],[78.7,11820],[78.7,11903],[78.7,11987],[78.7,12069],[78.7,12153],[78.7,12236],[78.7,12319],[78.2,12403],[75.4,12487],[71.1,12569],[69.6,12653],[69.6,12736],[69.6,12819],[69.6,12903],[69.6,12986],[69.6,13070],[69.6,13153],[69.6,13236],[69.6,13319],[69.6,13403],[69.6,13486],[69.6,13570],[69.6,13653],[69.6,13737],[69.6,13820],[69.6,13903],[69.6,13987],[69.6,14070],[69.6,14153],[69.6,14236],[69.6,14319],[69.6,14403],[69.6,14486],[69.6,14570],[69.1,14653],[67.7,14736],[67.4,14820],[66.1,14903],[62.7,14987],[58.9,15070],[57.9,15153],[57.9,15236],[57.9,15320],[57.9,15403],[57.9,15487],[57,15569],[56.7,15653],[56.7,15737],[56.7,15820],[56.7,15902],[56.7,15987],[56.7,16069],[56.7,16153],[56.7,16236],[56.7,16319],[56.7,16403],[56.7,16486],[56.7,16570],[56.7,16653],[56.7,16736],[56.7,16820],[56.7,16903],[56.7,16986],[56.7,17069],[56.7,17153],[56.7,17236],[56.7,17320],[56.7,17403],[56.7,17486],[56.7,17570],[56.7,17653],[56.7,17737],[56.7,17820],[56.7,17903],[56.7,17986],[56.7,18069],[56.7,18153],[56.7,18236],[56.7,18319],[56.7,18403],[56.7,18486],[56.7,18569],[56.7,18653],[56.7,18736],[56.7,18820],[56.7,18902],[56.7,18986],[56.7,19069],[56.7,19153],[56.7,19236],[56.7,19319],[56.7,19403],[56.7,19486],[56.7,19569],[56.7,19652],[56.4,19736],[56.2,19820],[56.2,19903],[56.2,19987],[56.2,20069],[56.2,20153],[56.2,20236],[56.2,20320],[56.2,20403],[56.2,20486],[56.2,20570],[56.2,20653],[56.2,20736],[56.2,20819],[56.2,20903],[56.2,20986],[56.2,21070],[56.2,21153],[56.2,21236],[56.2,21319],[56.2,21403],[56.2,21486],[56.2,21569],[56.2,21653],[56.2,21735],[56.2,21820],[56.2,21903],[56.2,21985],[56.2,22069],[56.2,22152],[56.2,22236],[56.2,22319],[56.2,22402],[56.2,22486],[56.2,22570],[56.2,22652],[56.2,22736],[56.2,22820],[56.2,22902],[56.2,22986],[56.2,23069],[56.2,23152],[56.2,23235],[56.2,23320],[56.2,23403],[56.2,23486],[56.2,23569],[56.2,23652],[56.2,23736],[56.2,23819],[56.4,23903],[56.6,23986],[57,24069],[57.4,24153],[57.7,24236],[57.7,24320],[57.7,24402],[57.7,24486],[57.7,24569],[57.7,24653],[57.7,24736],[57.7,24819],[57.7,24902],[57.7,24986],[57.7,25069],[57.7,25153],[57.7,25236],[57.7,25319],[57.7,25403],[57.7,25486],[57.7,25569],[57.7,25652],[57.7,25736],[57.7,25820],[57.7,25903],[57.7,25986],[57.7,26070],[57.7,26153],[57.7,26236],[57.7,26320],[57.7,26403],[57.7,26486],[57.7,26570],[57.7,26653],[57.7,26736],[57.7,26819],[57.7,26903],[57.7,26986],[57.7,27069],[57.7,27153],[57.7,27236],[57.7,27320],[57.7,27403],[57.7,27486],[57.7,27569],[57.7,27653],[57.7,27735],[57.7,27820],[57.7,27902],[57.7,27987],[57.7,28069],[57.7,28153],[57.7,28236],[57.7,28319],[57.7,28402],[57.7,28486],[57.7,28570],[57.7,28653],[57.7,28736],[57.7,28819],[57.7,28903],[57.7,28986],[57.7,29070],[57.7,29153],[57.7,29236],[57.7,29319],[57.7,29402],[57.7,29486],[57.7,29569],[57.7,29653],[57.7,29736]]",903.7452,903.7471,,,[],,,,903.7472,Not at all,0,903.7493,,,[],,0,0,0,0,1,audio/Narrative13Situation2.wav,audio/Narrative13Situation2.wav,audio/Narrative13Situation2.wav,audio/Narrative13Situation2.wav,2,2,2,2,,,,,811.3996,871.3947,,,,,,,,,,,,,,,,,,,,,,,,,,,,,,,,,
,,,,,628f9cfbee6de7cc7322fecf,2025-07-07_22h16.56.471,group3.4_multiperson,2023.2.2,MacIntel,58.47953216,686c2ebf0248f13bef9af11f,686c7b99dbf42e055ebf00f9,,,,,,,,,,,,,,,,,,,,,,,,,,,,,903.7496,2,audio/Narrative5Situation1.wav,908.7602,,908.7603,922.0441,"[[57.9,917],[58.2,1000],[58.8,1084],[59,1167],[59.1,1251],[59.1,1333],[59.1,1417],[59.1,1499],[59.1,1583],[59.1,1667],[59.1,1750],[59.1,1833],[59.1,1917],[59.1,2000],[59.1,2083],[59.1,2166],[59.1,2250],[59.1,2334],[59.1,2417],[59.1,2500],[59.1,2583],[59.1,2667],[59.1,2750],[59.1,2833],[59.1,2916],[59.1,2999],[59.1,3083],[59.1,3166],[59.1,3250],[59.1,3333],[59.1,3416],[59.1,3500],[59.1,3583],[59.1,3666],[59.1,3750],[59.1,3833],[59.1,3916],[59.1,4000],[59.1,4083],[59.1,4167],[59.1,4249],[59.1,4333],[59.1,4416],[59.1,4500],[59.1,4584],[59.1,4667],[59.1,4750],[59,4833],[59,4916],[59,5000],[59,5083],[59,5167],[59,5250],[59,5334],[59,5416],[59,5500],[59,5583],[59,5667],[59,5750],[59,5833],[59,5917],[59,6000],[59,6083],[59,6166],[59,6250],[59,6333],[59,6416],[59,6500],[59,6583],[59,6667],[59,6750],[59,6833],[59,6917],[59,7000],[59,7083],[59,7166],[59,7250],[59,7333],[59,7417],[59,7500],[59,7583],[59,7666],[59,7750],[59,7833],[59,7917],[59,8000],[59,8083],[59,8167],[59,8250],[59,8333],[59,8417],[59,8500],[59,8583],[59,8667],[59,8749],[59,8834],[59,8917],[59,9000],[59,9083],[59,9167],[59,9250],[59,9333],[59,9416],[59,9500],[59,9583],[59,9667],[59,9750],[59,9833],[59,9917],[59,10000],[59,10083],[59,10167],[59,10250],[59,10334],[59,10416],[59,10500],[59,10584],[59,10666],[59,10750],[59,10833],[59,10916],[59,11000],[59,11083],[59,11166],[59,11249],[59,11334],[59,11417],[59,11500],[59,11583],[59,11667],[59,11750],[59,11833],[59,11916],[59,12000],[59,12083],[59,12167],[59,12249],[59,12333],[59,12416],[59,12500],[59,12583],[59,12666],[59,12750],[59,12834],[59,12917],[59,13000],[59,13083],[59,13166],[59,13250]]",922.0443,929.1944,87.39964803,4.2768,"[{""rating"":70.82889980740018,""responseTime"":1.6096000000014783},{""rating"":87.39964803059897,""responseTime"":4.276799999997024}]",space,6.6033,,929.1945,Partially,50,929.1972,,,[],,0,1,1,1,1,audio/Narrative7Situation1.wav,audio/Narrative8Situation1.wav,audio/Narrative5Situation1.wav,audio/Narrative6Situation1.wav,2,5,5,2,,,,,,,,,,,,,,,,,,,,,,,,,,,,,,,,,,,,,,,
,,,,,628f9cfbee6de7cc7322fecf,2025-07-07_22h16.56.471,group3.4_multiperson,2023.2.2,MacIntel,58.47953216,686c2ebf0248f13bef9af11f,686c7b99dbf42e055ebf00f9,,,,,,,,,,,,,,,,,,,,,,,,,,,,,929.1975,2,audio/Narrative5Situation2.wav,932.211,,932.2111,961.6769,"[[67.6,1916],[67.6,1999],[69,2082],[71.8,2166],[73.1,2249],[73.6,2332],[73.8,2415],[75.6,2498],[77.7,2582],[80.9,2666],[84.5,2749],[87.8,2832],[91.9,2915],[94.3,2999],[94.3,3082],[94.3,3166],[94.3,3248],[94.3,3332],[94.3,3416],[94.3,3499],[97,3582],[98.8,3666],[98.9,3749],[99,3832],[99.1,3915],[99.1,3999],[99.1,4082],[99.1,4166],[99.1,4249],[99.1,4332],[99.1,4416],[99.1,4499],[99.1,4582],[99.1,4665],[99.1,4748],[99.1,4832],[99.1,4915],[99.1,4999],[99.1,5082],[99.1,5166],[99.1,5249],[99.1,5332],[99.1,5415],[99.1,5498],[99.1,5582],[99.1,5666],[99.1,5749],[99.1,5831],[99.1,5916],[99.1,6000],[99.1,6082],[99.1,6165],[99.1,6249],[99.1,6332],[99.1,6415],[99.1,6499],[99.1,6582],[99.1,6666],[99.1,6749],[99.1,6832],[99.1,6915],[99.1,6999],[99.1,7082],[99.1,7165],[99.1,7249],[99.1,7332],[99.1,7415],[99.1,7499],[99.1,7582],[99.1,7665],[99.1,7749],[99.1,7832],[99.1,7915],[99.1,7999],[99.1,8082],[99.1,8165],[99.1,8249],[99.1,8332],[99.1,8415],[99.1,8498],[99.1,8582],[99.1,8665],[99.1,8749],[99.1,8832],[99.1,8915],[99.1,8999],[99.1,9082],[99.1,9165],[99.1,9249],[99.1,9332],[99.1,9415],[99.1,9498],[99.1,9582],[99.1,9665],[99.1,9749],[99.1,9831],[99.1,9915],[99.1,9998],[99.1,10082],[99.1,10165],[99.1,10249],[99.1,10332],[99.1,10416],[99.1,10499],[99.1,10582],[99.1,10665],[99.1,10748],[99.1,10832],[99.1,10915],[99.1,10999],[99.1,11082],[99.1,11166],[99.1,11248],[99.1,11332],[99.1,11416],[99.1,11499],[99.1,11582],[99.1,11666],[99.1,11748],[99.1,11832],[99.1,11916],[99.1,11999],[99.1,12082],[99.1,12165],[99.1,12249],[99.1,12332],[99.1,12416],[99.1,12499],[99.1,12581],[99.1,12666],[99.1,12748],[99.1,12832],[99.1,12915],[99.1,12998],[99.1,13082],[99.1,13166],[99.1,13249],[99.1,13331],[99.1,13416],[99.1,13499],[99.1,13582],[99.1,13665],[99.1,13749],[99.1,13832],[99.1,13916],[99.1,13998],[99.1,14081],[99.1,14165],[99.1,14249],[99.1,14332],[99.1,14416],[99.1,14499],[99.1,14581],[99.1,14665],[99.1,14749],[99.1,14831],[99.1,14915],[99.1,14999],[99.1,15082],[99.1,15166],[99.1,15249],[99.1,15332],[99.1,15415],[99.1,15498],[99.1,15582],[99.1,15665],[99.1,15749],[99.1,15832],[99.1,15915],[99.1,15999],[99.1,16082],[99.1,16165],[99.1,16249],[99.1,16332],[99.1,16415],[99.1,16499],[99.1,16582],[99.1,16666],[99.1,16748],[99.1,16832],[99.1,16915],[99.1,16998],[99.1,17081],[99.1,17165],[99.1,17249],[99.1,17332],[99.1,17416],[99.1,17498],[99.1,17581],[99.1,17665],[99.1,17749],[99.1,17832],[99.1,17915],[99.1,17999],[99.1,18082],[99.1,18165],[99.1,18248],[99.1,18332],[99.1,18416],[99.1,18499],[99.1,18582],[99.1,18666],[99.1,18748],[99.1,18832],[99.1,18915],[99.1,18998],[99.1,19082],[99.1,19166],[99.1,19249],[99.1,19331],[99.1,19415],[99.1,19498],[99.1,19582],[99.1,19666],[99.1,19748],[99.1,19832],[99.1,19916],[99.1,19999],[99.1,20081],[99.1,20165],[99.1,20249],[99.1,20332],[99.1,20415],[99.1,20498],[99.1,20582],[99.1,20666],[99.1,20749],[99.1,20831],[99.1,20915],[99.1,20998],[99.1,21082],[99.1,21166],[99.1,21248],[99.1,21332],[99.1,21416],[99.1,21498],[99.1,21581],[99.1,21665],[99.1,21748],[99.1,21832],[99.1,21915],[99.1,21999],[99.1,22081],[99.1,22165],[99.1,22248],[99.1,22331],[99.1,22415],[99.1,22498],[99.1,22581],[99.1,22665],[99.1,22749],[99.1,22831],[99.1,22915],[99.1,22999],[99.1,23082],[99.1,23165],[99.1,23249],[99.1,23332],[99.1,23415],[99.1,23498],[99.1,23582],[99.1,23665],[99.1,23748],[99.1,23831],[99.1,23915],[99.1,23998],[99.1,24082],[99.1,24165],[99.1,24249],[99.1,24331],[99.1,24415],[99.1,24499],[99.1,24581],[99.1,24665],[99.1,24748],[99.1,24831],[99.1,24915],[99.1,24998],[99.1,25082],[99.1,25166],[99.1,25249],[99.1,25332],[99.1,25415],[99.1,25499],[99.1,25582],[99.1,25665],[99.1,25749],[99.1,25832],[99.1,25916],[99.1,25999],[99.1,26081],[99.1,26165],[99.1,26249],[99.1,26332],[99.1,26415],[99.1,26498],[99.1,26582],[99.1,26665],[99.1,26749],[99.1,26831],[99.1,26916],[99.1,26998],[99.1,27082],[99.1,27165],[99.1,27248],[99.1,27332],[99.1,27415],[99.1,27498],[99.1,27582],[99.1,27664],[99.1,27748],[99.1,27832],[99.1,27915],[99.1,27998],[99.1,28082],[99.1,28165],[99.1,28248],[99.1,28332],[99.1,28415],[99.1,28499],[99.1,28582],[99.1,28665],[99.1,28749],[99.1,28832],[99.1,28916],[99.1,28998],[99.1,29082],[99.1,29165],[99.1,29248],[99.1,29332],[99.1,29415]]",961.677,965.2599,100,2.7277,"[{""rating"":100,""responseTime"":2.727700000002983}]",space,3.0331,,965.2599,Partially,50,968.6268,50.17040677,2.2114,"[{""rating"":50.17040676540798,""responseTime"":2.2114000000059377}]",space,0,2,2,2,1,audio/Narrative7Situation2.wav,audio/Narrative8Situation2.wav,audio/Narrative5Situation2.wav,audio/Narrative6Situation2.wav,3,3,3,3,,,2.8328,,,,,,,,,,,,,,,,,,,,,,,,,,,,,,,,,,,,
,,,,,628f9cfbee6de7cc7322fecf,2025-07-07_22h16.56.471,group3.4_multiperson,2023.2.2,MacIntel,58.47953216,686c2ebf0248f13bef9af11f,686c7b99dbf42e055ebf00f9,,,,,,,,,,,,,,,,,,,,,,,,,,,,,968.6271,2,audio/Narrative5Situation3.wav,971.6431,,971.6433,985.543,"[[65.7,750],[68.3,833],[69.7,916],[72.1,1000],[75.8,1083],[80.7,1166],[82.9,1249],[82.9,1333],[82.9,1416],[82.9,1499],[85.8,1583],[88,1666],[90.3,1749],[91.6,1832],[92.4,1916],[93.5,1999],[94.3,2083],[94.5,2166],[94.7,2249],[94.9,2333],[94.9,2416],[94.9,2500],[94.9,2582],[94.9,2667],[94.9,2749],[94.9,2833],[94.9,2916],[94.9,2999],[94.9,3083],[94.9,3166],[94.9,3249],[94.9,3333],[94.9,3417],[94.9,3500],[94.9,3582],[94.9,3666],[94.9,3749],[94.9,3832],[94.9,3916],[94.9,3999],[94.9,4082],[94.9,4166],[94.9,4250],[94.9,4332],[94.9,4416],[94.9,4500],[94.9,4582],[94.9,4666],[94.9,4749],[94.9,4833],[94.9,4916],[94.9,5000],[94.9,5082],[94.9,5166],[94.9,5249],[94.9,5333],[94.9,5415],[94.9,5499],[94.9,5582],[94.9,5666],[94.9,5750],[94.9,5832],[94.9,5916],[94.9,5999],[94.9,6082],[94.9,6166],[94.9,6249],[94.9,6333],[94.9,6416],[94.9,6499],[94.9,6583],[94.9,6666],[94.9,6749],[94.9,6833],[94.9,6916],[94.9,6999],[94.9,7083],[94.9,7166],[94.9,7249],[94.9,7332],[94.9,7416],[94.9,7499],[94.9,7583],[94.9,7666],[94.9,7749],[94.9,7833],[94.9,7915],[94.9,8000],[94.9,8082],[94.9,8166],[94.9,8249],[94.9,8333],[94.9,8416],[94.9,8500],[94.9,8582],[94.9,8666],[94.9,8749],[94.9,8833],[94.9,8916],[94.9,8999],[94.9,9082],[94.9,9166],[94.9,9249],[94.9,9332],[94.9,9416],[94.9,9499],[94.9,9583],[94.9,9666],[94.9,9749],[94.9,9833],[94.9,9916],[94.9,9999],[94.9,10082],[94.9,10166],[94.9,10250],[94.9,10332],[94.9,10415],[94.9,10499],[94.9,10582],[94.9,10666],[94.9,10749],[94.9,10833],[94.9,10916],[94.9,10999],[94.9,11082],[94.9,11166],[94.9,11249],[94.9,11332],[94.9,11416],[94.9,11500],[94.9,11583],[94.9,11666],[94.9,11750],[94.9,11833],[94.9,11916],[94.9,11999],[94.9,12082],[94.9,12166],[94.9,12249],[94.9,12333],[94.9,12416],[94.9,12500],[94.9,12582],[94.9,12666],[94.9,12749],[94.9,12832],[94.9,12916],[94.9,13000],[94.9,13083],[94.9,13166],[94.9,13249],[94.9,13332],[94.9,13416],[94.9,13499],[94.9,13583],[94.9,13666],[94.9,13750],[97,13833]]",985.5431,988.3934,99.21257867,1.8762,"[{""rating"":99.21257866753473,""responseTime"":1.8761999999954924}]",space,2.3003,,988.3934,Definitely yes,100,988.3952,,,[],,0,3,3,3,1,audio/Narrative7Situation3.wav,audio/Narrative8Situation3.wav,audio/Narrative5Situation3.wav,audio/Narrative6Situation3.wav,8,4,3,5,,,,,,,,,,,,,,,,,,,,,,,,,,,,,,,,,,,,,,,
,,,,,628f9cfbee6de7cc7322fecf,2025-07-07_22h16.56.471,group3.4_multiperson,2023.2.2,MacIntel,58.47953216,686c2ebf0248f13bef9af11f,686c7b99dbf42e055ebf00f9,,,,,,,,,,,,,,,,,,,,,,,,,,,,,988.3954,2,audio/Narrative5Situation4.wav,989.4098,,989.4098,1009.8099,"[[98.8,1666],[97.4,1750],[96.8,1833],[96,1916],[96,2000],[96,2083],[96,2166],[96,2250],[96,2332],[96,2415],[96,2500],[96,2582],[96,2666],[96,2749],[96,2832],[96,2916],[96,3000],[96,3082],[96,3166],[96,3249],[96,3333],[96,3416],[96,3500],[96,3582],[96,3666],[96,3750],[96,3832],[96,3916],[96,3999],[96,4083],[96,4166],[96,4250],[96,4332],[96,4416],[96,4499],[96,4582],[96,4665],[96,4749],[96,4833],[96,4915],[96,4999],[96,5083],[96,5166],[96,5249],[96.1,5332],[96.6,5416],[97.4,5500],[97.6,5583],[97.7,5665],[98,5749],[98.4,5833],[98.6,5915],[98.6,6000],[98.7,6083],[98.7,6165],[98.7,6249],[98.7,6333],[98.7,6416],[98.7,6499],[98.7,6583],[98.7,6665],[98.7,6750],[98.7,6832],[98.7,6916],[98.7,7000],[98.7,7083],[98.7,7165],[98.7,7249],[98.7,7333],[98.7,7416],[98.7,7500],[98.7,7582],[98.7,7666],[98.7,7749],[98.7,7833],[98.7,7916],[98.7,7999],[98.7,8083],[98.7,8166],[98.7,8249],[98.7,8333],[98.7,8416],[98.7,8499],[98.7,8582],[98.7,8665],[98.7,8749],[98.7,8833],[98.7,8916],[98.7,8999],[98.7,9082],[98.7,9166],[98.7,9249],[98.7,9333],[98.7,9416],[98.7,9499],[98.7,9583],[98.7,9666],[98.7,9750],[98.7,9832],[98.7,9916],[98.7,9999],[98.7,10083],[98.7,10166],[98.7,10250],[98.7,10332],[98.7,10416],[98.7,10499],[98.7,10582],[98.7,10666],[98.7,10749],[98.7,10833],[98.7,10916],[98.7,10999],[98.7,11082],[98.7,11166],[98.7,11249],[98.7,11332],[98.7,11416],[98.7,11499],[98.7,11583],[98.7,11665],[98.7,11749],[98.7,11833],[98.7,11916],[98.7,12000],[98.7,12082],[98.7,12166],[98.7,12250],[98.7,12332],[98.7,12415],[98.7,12499],[98.7,12582],[98.7,12666],[98.7,12749],[98.7,12832],[98.7,12916],[98.7,12999],[98.7,13083],[98.7,13166],[98.7,13249],[98.7,13332],[98.7,13416],[98.7,13499],[98.7,13582],[98.7,13666],[98.7,13749],[98.7,13833],[98.7,13916],[98.7,13999],[98.7,14082],[98.7,14165],[98.7,14249],[98.7,14333],[98.7,14416],[98.7,14499],[98.7,14582],[98.7,14665],[98.7,14749],[98.7,14832],[99,14916],[99.6,14999],[99.9,15082],[99.9,15166],[99.9,15249],[99.9,15332],[99.9,15415],[99.9,15500],[99.9,15583],[99.9,15665],[99.9,15749],[99.9,15832],[99.9,15915],[99.9,15999],[99.9,16082],[99.9,16166],[99.9,16249],[99.9,16333],[99.9,16416],[99.9,16499],[99.9,16582],[99.9,16666],[99.9,16749],[99.9,16833],[99.9,16916],[99.9,16999],[99.9,17083],[99.9,17166],[99.9,17249],[99.9,17332],[99.9,17416],[99.9,17499],[99.9,17582],[99.9,17665],[99.9,17748],[99.9,17833],[99.9,17916],[99.9,17999],[99.9,18082],[99.9,18165],[99.9,18249],[99.9,18332],[99.9,18415],[99.9,18499],[99.9,18583],[99.9,18666],[99.9,18749],[99.9,18833],[99.9,18916],[99.9,18999],[99.9,19083],[99.9,19165],[99.9,19249],[99.9,19332],[99.9,19416],[99.9,19499],[99.9,19583],[99.9,19666],[99.9,19749],[99.9,19832],[99.9,19915],[99.9,19999],[99.9,20082],[99.9,20165],[99.9,20249],[99.9,20332]]",1009.8101,1012.6096,100,1.5571,"[{""rating"":99.73809136284721,""responseTime"":0.8422999999970671},{""rating"":100,""responseTime"":1.5571000000014692}]",space,2.2479,,1012.6096,Definitely yes,100,1012.6105,,,[],,0,4,4,4,1,audio/Narrative7Situation4.wav,audio/Narrative8Situation4.wav,audio/Narrative5Situation4.wav,audio/Narrative6Situation4.wav,3,3,1,2,,,,,,,,,,,,,,,,,,,,,,,,,,,,,,,,,,,,,,,
,,,,,628f9cfbee6de7cc7322fecf,2025-07-07_22h16.56.471,group3.4_multiperson,2023.2.2,MacIntel,58.47953216,686c2ebf0248f13bef9af11f,686c7b99dbf42e055ebf00f9,,,,,,,,,,,,,,,,,,,,,,,,,,,,,1012.6107,2,audio/Narrative5Situation5.wav,1017.6263,,1017.6263,1033.0594,"[[100,499],[100,582],[100,665],[99.5,749],[99.5,833],[99.5,916],[99.5,999],[99.5,1082],[99.5,1166],[99.5,1249],[99.5,1332],[99.5,1415],[99.5,1499],[99.5,1583],[99.5,1666],[99.5,1749],[99.5,1833],[99.5,1915],[99.5,1999],[99.5,2083],[99.5,2165],[99.5,2249],[99.5,2333],[99.5,2415],[99.5,2499],[99.5,2583],[99.5,2665],[99.5,2749],[99.5,2832],[99.5,2915],[99.5,2999],[99.5,3082],[99.5,3166],[99.5,3249],[99.5,3332],[99.5,3416],[99.5,3499],[99.5,3583],[99.5,3665],[99.5,3749],[99.5,3832],[99.5,3915],[99.5,3998],[99.5,4082],[99.5,4165],[99.5,4249],[99.5,4333],[99.5,4415],[99.5,4499],[99.5,4582],[99.5,4666],[99.5,4749],[99.5,4833],[99.5,4916],[99.5,4999],[99.5,5083],[99.5,5166],[99.5,5249],[99.5,5332],[99.5,5416],[99.5,5499],[99.5,5582],[99.5,5666],[99.5,5749],[99.5,5832],[99.5,5915],[99.5,5998],[99.5,6082],[99.5,6166],[99.5,6249],[99.5,6332],[99.5,6416],[99.5,6499],[99.5,6583],[99.5,6665],[99.5,6749],[99.5,6833],[99.5,6916],[99.5,6999],[99.5,7082],[99.5,7166],[99.5,7248],[99.5,7333],[99.5,7416],[99.5,7499],[99.5,7582],[99.5,7666],[99.5,7749],[99.5,7832],[99.5,7915],[99.5,7999],[99.5,8082],[99.5,8165],[99.5,8249],[99.5,8332],[99.5,8415],[99.5,8499],[99.5,8582],[99.5,8665],[99.5,8749],[99.5,8833],[99.5,8915],[99.5,8999],[99.5,9082],[99.5,9166],[99.5,9249],[99.5,9332],[99.5,9415],[99.5,9499],[99.5,9582],[99.5,9665],[99.5,9749],[99.5,9832],[99.5,9915],[99.5,9998],[99.5,10082],[99.5,10166],[99.5,10249],[99.5,10332],[99.5,10416],[99.5,10499],[99.5,10582],[99.5,10666],[99.5,10748],[99.5,10833],[99.5,10915],[99.5,10999],[99.5,11083],[99.5,11166],[99.5,11249],[99.5,11332],[99.5,11415],[99.5,11499],[99.5,11582],[99.5,11666],[99.5,11750],[99.5,11832],[99.5,11915],[99.5,11999],[99.5,12082],[99.5,12166],[99.5,12248],[99.5,12332],[99.5,12415],[99.5,12498],[99.5,12583],[99.5,12665],[99.5,12749],[99.5,12832],[99.5,12916],[99.5,12998],[99.5,13082],[99.5,13165],[99.5,13248],[99.5,13332],[99.5,13415],[99.5,13499],[99.5,13582],[99.5,13666],[99.5,13748],[99.5,13832],[99.5,13915],[99.5,13998],[99.5,14082],[99.5,14165],[99.5,14249],[99.5,14332],[99.5,14415],[99.5,14499],[99.5,14582],[99.5,14666],[99.5,14749],[99.5,14832],[99.5,14915],[99.5,14999],[99.5,15082],[99.5,15165],[99.5,15249],[99.5,15332],[99.5,15416]]",1033.0595,1035.0754,100,1.6938,"[{""rating"":99.45219251844618,""responseTime"":0.9434000000057949},{""rating"":100,""responseTime"":1.6938000000043303}]",space,1.4673,,1035.0755,Definitely yes,100,1035.0773,,,[],,0,5,5,5,1,audio/Narrative7Situation5.wav,audio/Narrative8Situation5.wav,audio/Narrative5Situation5.wav,audio/Narrative6Situation5.wav,5,2,5,2,,,,,,,,,,,,,,,,,,,,,,,,,,,,,,,,,,,,,,,
,,,,,628f9cfbee6de7cc7322fecf,2025-07-07_22h16.56.471,group3.4_multiperson,2023.2.2,MacIntel,58.47953216,686c2ebf0248f13bef9af11f,686c7b99dbf42e055ebf00f9,,,,,,,,,,,,,,,,,,,,,,,,,,,,,1035.0776,2,audio/Narrative5Situation6.wav,1038.0924,,1038.0924,1043.7591,"[[97.7,83],[95.6,833],[95.6,916],[95.6,1000],[95.6,1082],[95.6,1166],[96.2,1249],[96.3,1333],[96.5,1416],[97.5,1500],[98.8,1583],[99.3,1666],[99.3,1750],[99.3,1833],[99.3,1916],[99.3,2000],[99.7,2083],[99.7,2166],[99.7,2249],[99.7,2332],[99.7,2416],[99.7,2499],[99.7,2582],[99.7,2666],[99.7,2749],[99.7,2833],[99.7,2916],[99.7,2999],[99.7,3083],[99.7,3167],[99.7,3250],[99.7,3332],[99.7,3416],[99.7,3500],[99.7,3582],[99.7,3666],[99.7,3749],[99.7,3833],[99.7,3916],[99.7,3999],[99.7,4083],[99.7,4166],[99.7,4250],[99.7,4333],[99.7,4416],[99.7,4500],[99.7,4582],[99.7,4665],[99.7,4749],[99.7,4833],[99.7,4916],[99.7,5000],[99.7,5083],[99.7,5166],[99.7,5250],[99.7,5333],[99.7,5416],[99.7,5499],[99.7,5583],[99.7,5666]]",1043.7593,1047.0751,100,1.8749,"[{""rating"":98.82017347547742,""responseTime"":1.042799999996987},{""rating"":100,""responseTime"":1.8748999999986609}]",space,2.7826,,1047.0751,Partially,50,1047.0768,,,[],,0,6,6,6,1,audio/Narrative7Situation6.wav,audio/Narrative8Situation6.wav,audio/Narrative5Situation6.wav,audio/Narrative6Situation6.wav,3,2,3,2,,,,,,,,,,,,,,,,,,,,,,,,,,,,,,,,,,,,,,,
,,,,,628f9cfbee6de7cc7322fecf,2025-07-07_22h16.56.471,group3.4_multiperson,2023.2.2,MacIntel,58.47953216,686c2ebf0248f13bef9af11f,686c7b99dbf42e055ebf00f9,,,,,,,,,,,,,,,,,,,,,,,,,,,,,1047.077,2,audio/Narrative5Situation7.wav,1051.0927,,1051.0927,1072.142,"[[100,915],[100,999],[100,1083],[98.8,1166],[97.6,1249],[97.5,1333],[97.5,1416],[97.5,1499],[97.5,1582],[96.9,1665],[94.7,1749],[94.2,1833],[94.2,1916],[94.2,1999],[94.3,2083],[94.3,2165],[94.3,2249],[94.4,2332],[94.4,2415],[94.4,2499],[94.5,2582],[94.5,2666],[94.5,2748],[94.5,2832],[94.5,2916],[94.5,2999],[94.5,3083],[94.5,3165],[94.5,3249],[94.5,3332],[94.5,3416],[94.5,3498],[94.5,3582],[94.5,3666],[94.5,3749],[94.5,3832],[94.5,3916],[94.5,3999],[94.5,4082],[94.5,4166],[94.5,4249],[94.5,4332],[94.5,4415],[94.5,4499],[94.5,4582],[94.5,4665],[94.5,4749],[94.5,4832],[94.5,4915],[94.5,4999],[94.5,5082],[94.5,5165],[94.5,5249],[94.5,5332],[94.5,5415],[94.5,5499],[94.5,5582],[94.5,5666],[94.5,5749],[94.5,5832],[94.5,5916],[94.5,5999],[94.5,6082],[94.5,6166],[94.5,6249],[94.5,6332],[94.5,6415],[94.5,6498],[94.5,6582],[94.5,6665],[94.5,6748],[94.5,6832],[94.5,6915],[94.5,6999],[94.5,7082],[94.5,7165],[94.7,7250],[95.1,7333],[95.6,7416],[96,7499],[96.3,7582],[96.3,7666],[96.3,7749],[96.3,7833],[96.3,7915],[96.3,7999],[96.3,8082],[96.3,8166],[96.3,8249],[96.3,8332],[96.3,8415],[96.3,8498],[96.3,8582],[96.3,8666],[96.3,8749],[96.3,8832],[96.3,8915],[96.3,8999],[96.3,9082],[96.3,9165],[96.3,9248],[96.3,9332],[96.3,9415],[96.3,9498],[96.3,9582],[96.3,9665],[96.3,9749],[96.3,9832],[96.3,9915],[96.3,9999],[96.3,10082],[96.3,10165],[96.3,10249],[96.3,10332],[96.3,10416],[96.3,10499],[96.3,10582],[96.3,10666],[96.3,10748],[96.3,10833],[96.3,10915],[96.3,10998],[96.3,11083],[96.3,11165],[96.3,11248],[96.3,11332],[96.3,11416],[96.3,11499],[96.3,11583],[96.5,11665],[97.2,11748],[97.2,11832],[97.2,11915],[97.5,11999],[98.4,12082],[99.1,12165],[99.7,12249],[99.8,12332],[99.8,12415],[99.8,12498],[99.8,12582],[99.8,12665],[99.8,12749],[99.8,12832],[99.8,12915],[99.8,12998],[99.8,13082],[99.8,13165],[99.8,13248],[99.8,13332],[99.8,13416],[99.8,13499],[99.8,13582],[99.8,13665],[99.8,13749],[99.8,13832],[99.2,13915],[87.9,13999],[82.6,14082],[82.5,14166],[82.5,14249],[83.6,14332],[85.2,14415],[85.2,14499],[85.2,14583],[85.2,14665],[85.2,14749],[85.2,14832],[85.2,14915],[85.2,14999],[85.2,15082],[85.3,15165],[85.3,15249],[85.3,15332],[85.3,15415],[85.3,15499],[85.3,15582],[85.3,15666],[85.3,15748],[85.3,15832],[85.3,15915],[85.3,15998],[85.3,16081],[85.3,16166],[85.3,16249],[85.3,16332],[85.3,16415],[85.3,16498],[85.3,16582],[85.3,16665],[85.3,16749],[84.7,16832],[76.6,16915],[72.5,16999],[69.9,17082],[64.8,17165],[60.2,17249],[59.8,17332],[57.4,17415],[54.1,17499],[53,17582],[52.9,17665],[52.9,17749],[52.9,17832],[52.9,17916],[52.9,17998],[51.8,18082],[50.8,18165],[50,18249],[50,18332],[50,18415],[50,18499],[50,18582],[50,18665],[50,18749],[50,18833],[50,18915],[50,18999],[49.1,19082],[47.9,19165],[46.4,19248],[44.9,19332],[42.8,19415],[42.2,19499],[42.2,19582],[42.2,19665],[42.2,19748],[42.2,19832],[42.2,19916],[42.2,19998],[42.2,20082],[42.2,20165],[42.2,20249],[42.2,20332],[42.3,20416],[42.4,20499],[42.4,20582],[42.5,20665],[42.5,20749],[42.5,20832],[42.5,20915],[42.5,20998]]",1072.1422,1074.9081,39.9287245,1.9756,"[{""rating"":41.515952216254334,""responseTime"":0.8622000000029857},{""rating"":39.92872450086806,""responseTime"":1.9756000000015774}]",space,2.2311,,1074.9081,Definitely yes,100,1074.9107,,,[],,0,7,7,7,1,audio/Narrative7Situation7.wav,audio/Narrative8Situation7.wav,audio/Narrative5Situation7.wav,audio/Narrative6Situation7.wav,5,3,4,5,,,,,,,,,,,,,,,,,,,,,,,,,,,,,,,,,,,,,,,
,,,,,628f9cfbee6de7cc7322fecf,2025-07-07_22h16.56.471,group3.4_multiperson,2023.2.2,MacIntel,58.47953216,686c2ebf0248f13bef9af11f,686c7b99dbf42e055ebf00f9,,,,,,,,,,,,,,,,,,,,,,,,,,,,,1074.9109,2,audio/Narrative5Situation8.wav,1077.9254,,1077.9255,1086.7586,"[[47.2,832],[49.5,916],[52.4,999],[53.3,1083],[54.7,1165],[57.6,1250],[58.9,1332],[58.9,1416],[58.9,1499],[58.9,1582],[58.9,1666],[58.5,1749],[56.3,1832],[51.5,1916],[45.6,2000],[42.7,2082],[42.7,2165],[42.7,2250],[42.7,2333],[42.7,2415],[42.7,2498],[41.5,2582],[39.2,2666],[39.2,2749],[39.2,2832],[39.2,2916],[39.2,2999],[39.2,3083],[39.2,3165],[38.7,3249],[38.4,3333],[38.4,3416],[38.4,3499],[38.4,3582],[38.4,3666],[38.4,3749],[38.5,3832],[38.5,3915],[38.5,3999],[38.5,4083],[38.5,4166],[38.5,4249],[38.5,4332],[38.5,4415],[38.5,4499],[38.5,4582],[38.5,4666],[38.5,4750],[38.5,4833],[38.5,4916],[38.5,5000],[38.5,5083],[38.5,5165],[38.5,5249],[38.5,5332],[38.5,5416],[38.5,5499],[38.5,5582],[38.5,5665],[38.5,5749],[38.5,5833],[38.5,5915],[38.5,6000],[38.5,6083],[38.5,6166],[38.5,6249],[38.5,6333],[38.5,6416],[38.5,6499],[38.5,6582],[38.5,6665],[38.5,6749],[38.5,6832],[38.5,6916],[38.5,6999],[38.5,7083],[38.5,7165],[38.5,7249],[38.5,7332],[38.5,7415],[38.5,7499],[38.5,7583],[38.5,7666],[38.5,7749],[38.5,7832],[38.5,7915],[38.5,7999],[38.5,8083],[38.5,8166],[38.5,8250],[38.5,8332],[38.5,8416],[38.5,8499],[38.5,8583],[38.5,8666],[38.6,8749],[38.8,8832]]",1086.7586,1089.6745,42.92314317,1.8776,"[{""rating"":42.92314317491319,""responseTime"":1.8776000000013937}]",space,2.3726,,1089.6746,Partially,50,1089.6765,,,[],,0,8,8,8,1,audio/Narrative7Situation8.wav,audio/Narrative8Situation8.wav,audio/Narrative5Situation8.wav,audio/Narrative6Situation8.wav,2,3,3,5,,,,,,,,,,,,,,,,,,,,,,,,,,,,,,,,,,,,,,,
,,,,,628f9cfbee6de7cc7322fecf,2025-07-07_22h16.56.471,group3.4_multiperson,2023.2.2,MacIntel,58.47953216,686c2ebf0248f13bef9af11f,686c7b99dbf42e055ebf00f9,,,,,,,,,,,,,,,,,,,,,,,,,,,,,1089.6766,2,audio/Narrative5Situation9.wav,1092.6912,,1092.6913,1132.2246,"[[43.5,1000],[45,1083],[45.3,1166],[45.4,1250],[45.4,1333],[45.4,1417],[45.7,1499],[46,1583],[46.2,1667],[46.6,1750],[49,1833],[56.2,1917],[59.1,2000],[59.1,2083],[59.1,2166],[59.1,2250],[62.7,2333],[71.9,2416],[77,2500],[78.2,2582],[79.4,2666],[81.5,2750],[83.4,2833],[83.7,2917],[83.7,2999],[83.7,3084],[83.7,3166],[83.7,3250],[83.7,3333],[83.7,3416],[83.7,3499],[83.7,3584],[83.7,3666],[83.7,3749],[84.2,3833],[85.2,3916],[85.2,3999],[85.2,4083],[85.3,4166],[85.8,4250],[86.1,4333],[86.7,4417],[87.9,4499],[88.2,4583],[88.4,4666],[88.4,4749],[88.4,4833],[88.4,4917],[88.4,5000],[88.4,5083],[88.5,5166],[91.2,5249],[94.8,5333],[100,5417],[100,5500],[100,5583],[100,5666],[100,5750],[100,5833],[100,5916],[100,6000],[100,6083],[100,6166],[100,6249],[100,6332],[100,6417],[100,6500],[99.5,6583],[97.8,6666],[97.7,6749],[97.7,6833],[97.7,6917],[97.9,7000],[100,7083],[100,7166],[100,7249],[100,7333],[100,7416],[100,7500],[100,7582],[100,7666],[100,7750],[100,7833],[100,7916],[100,7999],[100,8083],[100,8166],[100,8250],[100,8333],[100,8416],[100,8500],[100,8583],[100,8666],[100,8749],[100,8833],[100,8917],[100,8999],[100,9082],[100,9166],[100,9249],[100,9332],[100,9416],[100,9500],[100,9583],[100,9666],[100,9749],[100,9833],[100,9916],[100,10000],[100,10083],[100,10166],[100,10250],[100,10333],[100,10416],[100,10499],[100,10583],[100,10667],[100,10749],[100,10833],[100,10917],[100,11000],[100,11083],[100,11166],[100,11249],[100,11333],[100,11417],[100,11500],[100,11582],[100,11666],[100,11749],[100,11833],[100,11916],[100,12000],[100,12083],[100,12166],[100,12249],[100,12333],[100,12416],[100,12499],[100,12583],[100,12666],[100,12749],[100,12833],[100,12916],[100,12999],[100,13082],[100,13167],[100,13250],[100,13332],[100,13416],[100,13499],[100,13582],[100,13666],[100,13749],[100,13832],[100,13917],[100,13999],[100,14083],[100,14166],[100,14250],[100,14333],[100,14417],[100,14499],[100,14583],[100,14666],[100,14749],[100,14832],[100,14915],[100,14999],[100,15098],[100,15166],[100,15249],[100,15333],[100,15416],[100,15500],[100,15582],[100,15666],[100,15750],[100,15833],[100,15916],[100,16000],[100,16082],[100,16167],[100,16250],[100,16333],[100,16416],[100,16499],[100,16583],[100,16667],[100,16750],[100,16832],[100,16916],[100,17000],[100,17083],[100,17166],[100,17249],[100,17333],[100,17416],[100,17500],[100,17582],[100,17667],[100,17749],[100,17833],[100,17916],[100,17999],[100,18083],[100,18166],[100,18249],[100,18332],[100,18416],[100,18500],[100,18583],[100,18666],[100,18749],[100,18833],[100,18916],[100,19000],[100,19083],[100,19166],[100,19249],[100,19332],[100,19416],[100,19499],[100,19583],[100,19666],[100,19749],[100,19832],[100,19916],[100,20000],[100,20083],[100,20166],[100,20249],[100,20333],[100,20416],[100,20500],[100,20583],[100,20666],[100,20750],[100,20833],[100,20916],[100,20999],[100,21083],[100,21166],[100,21250],[100,21332],[100,21416],[100,21500],[100,21582],[100,21666],[100,21749],[100,21833],[100,21917],[100,21999],[100,22082],[100,22166],[100,22249],[100,22333],[100,22416],[100,22499],[100,22582],[100,22666],[100,22750],[100,22833],[100,22915],[100,23000],[100,23083],[100,23166],[100,23249],[100,23333],[100,23416],[100,23499],[100,23582],[100,23666],[100,23750],[100,23833],[100,23916],[100,23999],[100,24083],[100,24165],[100,24250],[100,24333],[100,24416],[100,24499],[100,24583],[100,24666],[100,24749],[100,24833],[100,24915],[100,25000],[100,25082],[100,25166],[100,25250],[100,25332],[100,25416],[100,25500],[100,25583],[100,25666],[100,25749],[100,25832],[100,25916],[100,25999],[100,26083],[100,26165],[100,26249],[100,26332],[100,26416],[100,26500],[100,26582],[100,26666],[100,26750],[100,26833],[100,26916],[100,26999],[100,27082],[100,27166],[100,27250],[100,27333],[100,27416],[100,27500],[100,27582],[100,27666],[100,27749],[100,27833],[100,27916],[100,27999],[100,28082],[100,28166],[100,28249],[100,28333],[100,28416],[100,28499],[100,28583],[100,28666],[100,28749],[100,28832],[100,28916],[100,28999],[100,29083],[100,29166],[100,29249],[100,29333],[100,29416],[100,29499],[100,29582],[100,29666],[100,29749],[100,29833],[100,29916],[100,30000],[100,30082],[100,30166],[100,30249],[100,30332],[100,30416],[100,30499],[100,30583],[100,30666],[100,30749],[100,30833],[100,30916],[100,31000],[100,31083],[100,31166],[100,31249],[100,31332],[100,31416],[100,31500],[100,31583],[100,31666],[100,31749],[100,31832],[100,31916],[100,32000],[100,32082],[100,32165],[100,32249],[100,32333],[100,32416],[100,32499],[100,32583],[100,32666],[100,32750],[100,32833],[100,32915],[100,32999],[100,33083],[100,33166],[100,33249],[100,33332],[100,33416],[100,33500],[100,33583],[100,33666],[100,33749],[100,33832],[100,33916],[100,33999],[100,34082],[100,34166],[100,34250],[100,34333],[100,34416],[100,34500],[100,34583],[100,34665],[100,34750],[100,34832],[100,34916],[100,34999],[100,35082],[100,35166],[100,35249],[100,35333],[100,35416],[100,35499],[100,35582],[100,35666],[100,35749],[100,35833],[100,35916],[100,35999],[100,36082],[100,36166],[100,36249],[100,36332],[100,36416],[100,36499],[100,36583],[100,36666],[100,36750],[100,36833],[100,36916],[100,36999],[100,37082],[100,37166],[100,37249],[100,37333],[100,37416],[100,37499],[100,37583],[100,37666],[100,37749],[100,37832],[100,37916],[100,38000],[100,38082],[100,38166],[100,38249],[100,38332],[100,38415],[100,38499],[100,38583],[100,38666],[100,38749],[100,38832],[100,38916],[100,39000],[100,39082],[100,39166],[100,39249],[100,39333],[100,39416],[100,39499]]",1132.2248,1134.3415,99.55086602,1.0588,"[{""rating"":99.55086602105034,""responseTime"":1.0587999999970634}]",space,1.5675,,1134.3415,Not at all,0,1134.3438,,,[],,0,9,9,9,1,audio/Narrative7Situation9.wav,audio/Narrative8Situation9.wav,audio/Narrative5Situation9.wav,audio/Narrative6Situation9.wav,2,3,3,4,,,,,,,,,,,,,,,,,,,,,,,,,,,,,,,,,,,,,,,
,,,,,628f9cfbee6de7cc7322fecf,2025-07-07_22h16.56.471,group3.4_multiperson,2023.2.2,MacIntel,58.47953216,686c2ebf0248f13bef9af11f,686c7b99dbf42e055ebf00f9,,,,,,,,,,,,,,,,,,,,,,,,,,,,,1134.3441,2,audio/Narrative6Situation1.wav,1136.3576,,1136.3576,1162.9246,"[[999,0],[999,83],[999,166],[999,249],[999,333],[999,415],[999,499],[999,582],[999,665],[999,750],[999,833],[999,916],[999,1000],[999,1082],[999,1166],[999,1249],[999,1332],[999,1416],[999,1500],[999,1582],[999,1666],[999,1750],[999,1833],[999,1916],[999,2000],[999,2083],[88.3,2249],[81.7,2333],[81.6,2416],[81.8,2499],[81.8,2583],[81.8,2666],[81.8,2749],[81.8,2832],[81.8,2916],[81.8,3000],[81.8,3083],[81.8,3167],[80.9,3249],[54.2,3833],[50.8,3916],[50.4,4000],[50.5,4083],[51.9,4166],[55.6,4249],[58,4333],[58.1,4416],[58.1,4500],[58.1,4583],[58.1,4666],[58.1,4749],[58,4833],[57,4916],[55.4,4999],[53.9,5082],[51.2,5167],[47.4,5249],[43.1,5333],[40.1,5416],[38.9,5500],[38.8,5583],[38.8,5666],[38.8,5749],[38.8,5832],[38.8,5916],[38.8,5999],[38.8,6083],[38.4,6166],[37.8,6250],[37.3,6333],[36.7,6416],[36.1,6500],[35.6,6583],[34.5,6666],[34,6749],[34,6833],[34,6916],[34,7000],[34,7083],[34,7167],[34,7249],[34,7332],[33.8,7416],[33.6,7499],[33.6,7583],[33.6,7665],[33.6,7749],[33.7,7833],[33.7,7916],[33.7,8000],[33.7,8083],[33.7,8166],[33.7,8250],[33.7,8333],[33.7,8415],[33.7,8499],[33.7,8583],[33.7,8666],[33.7,8749],[33.7,8832],[33.7,8917],[33.7,9000],[33.7,9083],[33.7,9165],[33.7,9250],[33.7,9332],[33.6,9416],[33.4,9499],[32,9582],[30.7,9666],[30.6,9749],[30.6,9832],[30.6,9916],[30.6,9999],[30.6,10082],[30.6,10165],[30.5,10250],[28.9,10333],[27.6,10417],[27.3,10499],[27.2,10582],[26.3,10667],[24.4,10749],[23.5,10833],[23.2,10916],[23.2,11000],[23.2,11082],[23.2,11166],[23.3,11249],[23.3,11333],[23.2,11416],[23.2,11500],[23,11583],[21.6,11666],[20.4,11750],[19.9,11832],[19.9,11916],[19.9,12000],[19.9,12083],[19.9,12166],[19,12249],[17,12332],[16.6,12416],[16.1,12500],[15.6,12583],[15.1,12666],[14.9,12749],[14.9,12832],[14.9,12916],[14.9,13000],[14.9,13082],[14.9,13166],[14.9,13249],[14.9,13332],[14.9,13416],[14.9,13499],[14.9,13583],[14.9,13666],[14.9,13750],[14.9,13832],[14.9,13916],[14.9,13999],[14.9,14082],[14.9,14166],[14.9,14250],[14.1,14333],[13,14416],[12,14500],[11.9,14582],[11.9,14666],[12,14749],[12,14832],[12,14916],[12,14999],[12,15083],[12,15166],[12,15250],[12,15333],[12,15416],[12,15499],[12,15582],[12,15666],[12,15749],[12,15833],[12,15915],[12,15999],[12,16082],[12,16166],[12,16249],[12,16332],[12,16416],[12,16500],[12,16583],[12,16666],[12,16749],[12,16833],[12,16916],[12,17000],[12,17083],[12,17166],[12,17250],[12,17333],[12,17416],[12,17499],[12,17583],[12,17666],[12,17749],[12,17832],[12,17916],[12,17999],[12,18083],[12,18165],[12,18250],[12,18333],[12,18415],[12,18499],[12,18582],[12,18666],[12,18749],[12.3,18833],[15.5,18916],[17.9,18999],[18.3,19082],[18.3,19166],[18.6,19250],[18.7,19332],[18.8,19416],[18.8,19499],[18.8,19583],[18.8,19666],[18.8,19749],[18.8,19833],[18.8,19916],[23.9,20000],[37.5,20083],[41.9,20166],[42.1,20249],[42.1,20333],[42.1,20416],[42.6,20499],[45.2,20583],[47.9,20665],[50.4,20749],[52,20832],[53.8,20916],[54.1,20999],[54.1,21083],[54.1,21165],[54.1,21249],[54.1,21332],[52.4,21416],[51.6,21500],[51.6,21582],[51.6,21666],[51.6,21750],[51.6,21833],[51.6,21915],[51.6,21999],[51.6,22082],[51.6,22166],[51.6,22249],[51.6,22333],[51.6,22416],[51.8,22499],[53.2,22582],[54.2,22666],[54.7,22749],[55.2,22833],[56.4,22916],[56.6,22999],[56.6,23082],[56.6,23165],[56.6,23250],[56.6,23333],[56.6,23416],[56.6,23499],[56.6,23583],[56.6,23666],[56.6,23750],[58.1,23833],[60.3,23916],[62.1,23999],[62.6,24083],[62.8,24165],[62.8,24250],[62.8,24333],[64.4,24415],[73.7,24499],[78.7,24582],[78.8,24666],[78.8,24749],[78.8,24833],[80.2,24916],[85.7,25000],[87.6,25082],[87.6,25166],[87.6,25249],[87.6,25332],[87.6,25415],[87.6,25499],[88,25583],[88.1,25665],[88.1,25749],[88.1,25833],[88.1,25916],[88.1,26000],[88.1,26082],[88.1,26165],[88.1,26250],[88.1,26333],[88.1,26415],[88.1,26499]]",1162.9248,1165.2073,87.88186815,0.9565,"[{""rating"":87.88186815049913,""responseTime"":0.9565000000000055}]",space,1.73,,1165.2074,Partially,50,1165.2093,,,[],,0,10,10,10,1,audio/Narrative8Situation1.wav,audio/Narrative7Situation1.wav,audio/Narrative6Situation1.wav,audio/Narrative5Situation1.wav,5,2,2,5,,,,,,,,,,,,,,,,,,,,,,,,,,,,,,,,,,,,,,,
,,,,,628f9cfbee6de7cc7322fecf,2025-07-07_22h16.56.471,group3.4_multiperson,2023.2.2,MacIntel,58.47953216,686c2ebf0248f13bef9af11f,686c7b99dbf42e055ebf00f9,,,,,,,,,,,,,,,,,,,,,,,,,,,,,1165.2094,2,audio/Narrative6Situation2.wav,1168.2238,,1168.2238,1196.7233,"[[999,0],[999,83],[999,166],[999,250],[999,332],[999,416],[999,499],[999,583],[999,666],[999,750],[999,833],[71.3,916],[71.5,999],[71.8,1083],[71.8,1166],[71.8,1249],[71.8,1333],[71.8,1416],[71.8,1500],[71.8,1583],[71.8,1666],[71.8,1749],[71.8,1833],[71.8,1916],[78.2,1999],[85.6,2083],[88.1,2166],[88.4,2249],[88.4,2332],[88.4,2416],[88.4,2500],[88.4,2583],[88.4,2666],[88.4,2749],[88.4,2833],[88.4,2916],[88.4,2999],[88.4,3083],[88.4,3167],[88.4,3249],[88.4,3333],[88.4,3416],[88.4,3499],[88.4,3582],[88.4,3666],[88.4,3749],[88.4,3832],[88.4,3916],[88.4,3999],[89,4083],[92.5,4166],[96.2,4250],[97.6,4332],[97.6,4416],[97.6,4500],[97.6,4583],[100,4666],[100,4749],[100,4833],[100,4916],[100,4999],[100,5083],[100,5166],[100,5250],[100,5333],[100,5416],[100,5499],[100,5583],[100,5667],[100,5750],[100,5832],[100,5916],[100,5999],[100,6083],[100,6166],[100,6249],[100,6333],[100,6416],[100,6499],[100,6582],[100,6666],[100,6750],[100,6833],[100,6917],[100,6999],[100,7082],[100,7166],[100,7249],[100,7333],[100,7416],[100,7500],[100,7582],[100,7666],[100,7749],[100,7832],[100,7916],[100,8000],[100,8083],[100,8167],[100,8250],[100,8333],[100,8415],[100,8499],[100,8583],[100,8666],[100,8749],[100,8833],[100,8916],[100,9000],[100,9082],[100,9166],[100,9249],[100,9332],[100,9417],[100,9500],[100,9583],[100,9666],[100,9749],[100,9832],[100,9916],[100,9999],[100,10083],[100,10166],[100,10250],[100,10333],[100,10416],[100,10499],[100,10582],[100,10667],[100,10749],[100,10833],[100,10916],[100,10999],[100,11083],[100,11166],[100,11249],[100,11333],[100,11416],[100,11499],[100,11583],[100,11666],[100,11750],[100,11832],[100,11916],[100,11999],[100,12083],[100,12167],[100,12249],[100,12333],[100,12416],[100,12500],[100,12583],[100,12666],[100,12750],[100,12833],[100,12917],[100,12999],[100,13083],[100,13166],[100,13249],[100,13333],[100,13416],[100,13500],[100,13583],[100,13666],[100,13750],[100,13832],[100,13916],[100,13999],[100,14083],[100,14166],[100,14249],[100,14332],[100,14416],[100,14499],[100,14582],[100,14666],[100,14750],[100,14833],[100,14916],[100,15000],[100,15083],[100,15166],[100,15249],[100,15332],[100,15416],[100,15499],[100,15583],[100,15666],[100,15749],[100,15832],[100,15916],[100,15999],[100,16082],[100,16166],[100,16250],[100,16333],[100,16416],[100,16499],[100,16583],[100,16666],[100,16749],[100,16833],[100,16916],[100,16999],[100,17083],[100,17166],[100,17250],[100,17333],[100,17416],[100,17499],[100,17583],[100,17666],[100,17750],[100,17832],[100,17916],[100,18000],[100,18083],[100,18166],[100,18250],[100,18332],[100,18416],[100,18499],[100,18583],[100,18666],[100,18749],[100,18832],[100,18915],[100,18999],[100,19083],[100,19166],[100,19249],[100,19333],[100,19416],[100,19500],[100,19583],[100,19666],[100,19749],[100,19832],[100,19916],[100,20000],[100,20083],[100,20166],[100,20249],[100,20332],[100,20416],[100,20499],[100,20582],[100,20666],[100,20749],[100,20832],[100,20916],[100,20999],[100,21082],[100,21166],[100,21249],[100,21333],[100,21416],[100,21499],[100,21583],[100,21666],[100,21749],[100,21832],[100,21916],[100,21999],[100,22083],[100,22166],[100,22249],[100,22333],[100,22416],[100,22499],[100,22583],[100,22666],[100,22749],[100,22833],[100,22916],[100,22999],[100,23083],[100,23166],[100,23250],[100,23333],[100,23416],[100,23499],[100,23583],[100,23666],[100,23750],[100,23832],[100,23916],[100,23999],[100,24083],[100,24166],[100,24249],[100,24333],[100,24416],[100,24499],[100,24583],[100,24666],[100,24750],[100,24833],[100,24916],[100,24999],[100,25083],[100,25166],[100,25249],[100,25333],[100,25416],[100,25499],[100,25583],[100,25666],[100,25749],[100,25833],[100,25916],[100,25999],[100,26082],[100,26165],[100,26249],[100,26332],[100,26415],[100,26499],[100,26582],[100,26665],[100,26749],[100,26832],[100,26916],[100,26999],[100,27083],[100,27166],[100,27249],[100,27332],[100,27415],[100,27500],[100,27583],[100,27666],[100,27750],[100,27832],[100,27916],[100,27999],[100,28083],[100,28165],[100,28250],[100,28333],[100,28416],[100,28499]]",1196.7234,1199.6571,100,2.1929,"[{""rating"":97.91995578342014,""responseTime"":1.3594000000059623},{""rating"":100,""responseTime"":2.1929000000059204}]",space,2.3852,,1199.6571,Not at all,0,1199.66,,,[],,0,11,11,11,1,audio/Narrative8Situation2.wav,audio/Narrative7Situation2.wav,audio/Narrative6Situation2.wav,audio/Narrative5Situation2.wav,3,3,3,3,,,,,,,,,,,,,,,,,,,,,,,,,,,,,,,,,,,,,,,
,,,,,628f9cfbee6de7cc7322fecf,2025-07-07_22h16.56.471,group3.4_multiperson,2023.2.2,MacIntel,58.47953216,686c2ebf0248f13bef9af11f,686c7b99dbf42e055ebf00f9,,,,,,,,,,,,,,,,,,,,,,,,,,,,,1199.6601,2,audio/Narrative6Situation3.wav,1204.6734,,1204.6734,1217.2901,"[[85.7,583],[82.9,666],[82.3,750],[82.2,833],[82.2,916],[82.2,999],[82.2,1083],[82.2,1166],[82.2,1249],[80.5,1333],[79.2,1416],[79.2,1499],[79.2,1583],[79.2,1666],[79.2,1749],[79.2,1833],[79.2,1916],[79.2,2000],[79.2,2083],[79.2,2166],[79.2,2249],[79.2,2333],[79.2,2416],[79.2,2499],[79.2,2583],[79.2,2666],[79.2,2749],[79.2,2832],[79.2,2916],[79.2,2999],[79.2,3083],[79.2,3166],[80.5,3250],[81.3,3333],[82.3,3416],[84,3500],[86.8,3583],[87.4,3666],[87.4,3749],[87.4,3833],[87.4,3916],[87.4,3999],[88.3,4083],[88.8,4167],[90.7,4249],[91.2,4333],[91.3,4416],[91.3,4500],[91.3,4583],[91.3,4666],[91.3,4749],[91.3,4833],[91.3,4917],[91.3,4999],[91.3,5083],[91.3,5166],[91.3,5250],[83.5,5333],[60.5,5417],[56.8,5499],[56.8,5583],[56.8,5666],[56.8,5749],[56.8,5833],[53.8,5916],[51.8,6000],[48.7,6083],[47.3,6167],[46.6,6249],[46.6,6333],[46.6,6416],[46.6,6500],[44.9,6583],[43.6,6667],[43.4,6749],[43.4,6833],[43.4,6916],[43.4,6999],[50.3,7083],[67.6,7166],[70,7249],[70,7333],[70,7416],[70,7499],[76.8,7583],[84.4,7666],[86.4,7749],[86.4,7833],[86.4,7916],[91.3,7999],[96.8,8083],[98.6,8166],[98.8,8250],[98.9,8333],[99,8416],[99,8499],[99,8583],[99,8666],[99,8749],[99,8833],[99,8916],[99,8999],[99,9083],[99,9167],[99,9249],[99,9333],[99,9416],[99,9499],[99,9583],[99,9666],[99,9749],[99,9833],[99,9916],[99,9999],[99,10083],[99,10166],[99,10250],[99,10333],[99,10416],[99,10499],[99,10583],[99,10666],[99,10749],[99,10833],[99,10916],[99,10999],[99,11083],[99,11166],[99,11249],[99,11333],[99,11416],[99,11499],[99,11583],[99,11666],[99,11749],[99,11832],[99,11916],[99,11999],[99,12083],[99,12166],[99,12249],[99,12332],[99,12415],[99,12499],[99,12583]]",1217.2902,1219.9233,100,1.5765,"[{""rating"":100,""responseTime"":1.5765000000001237}]",space,2.0847,,1219.9234,Definitely yes,100,1219.9259,,,[],,0,12,12,12,1,audio/Narrative8Situation3.wav,audio/Narrative7Situation3.wav,audio/Narrative6Situation3.wav,audio/Narrative5Situation3.wav,4,8,5,3,,,,,,,,,,,,,,,,,,,,,,,,,,,,,,,,,,,,,,,
