consent.started,consent.stopped,consentResponse.keys,consentResponse.rt,consentResponse.duration,participantID,date,expName,psychopyVersion,OS,frameRate,STUDY_ID,SESSION_ID,opening1.started,opening1.stopped,keyEndingOpening1.keys,keyEndingOpening1.rt,keyEndingOpening1.duration,volumeAdjust.started,volumeAdjust.stopped,endingAdjust.keys,endingAdjust.rt,endingAdjust.duration,opening2.started,opening2.stopped,keyEndingOpening.keys,keyEndingOpening.rt,keyEndingOpening.duration,mouse.x,mouse.y,mouse.leftButton,mouse.midButton,mouse.rightButton,mouse.time,instructionLoop.thisRepN,instructionLoop.thisTrialN,instructionLoop.thisN,instructionLoop.thisIndex,instructionLoop.ran,readyForAudio.started,readyForAudio.stopped,fixation.started,run,audio_played,fixation.stopped,endPractice.keys,audioPre.started,audioPre.stopped,continuousResponses_audio,intRating.started,intRating.stopped,intQuestionSlider.response,intQuestionSlider.rt,intQuestionSlider.history,confirmResponse.keys,confirmResponse.rt,confirmResponse.duration,catchQuestion.started,catch_label,catch_value,catchQuestion.stopped,catchQuestionSlider.response,catchQuestionSlider.rt,catchQuestionSlider.history,confirmResponse_2.keys,audioRunLoop.thisRepN,audioRunLoop.thisTrialN,audioRunLoop.thisN,audioRunLoop.thisIndex,audioRunLoop.ran,conditions1_1,conditions2_1,conditions1_2,conditions2_2,dur1_1,dur2_1,dur1_2,dur2_2,endPractice.rt,endPractice.duration,confirmResponse_2.rt,confirmResponse_2.duration,runIntervalBreak.started,runIntervalBreak.stopped,endingBreakKey.keys,endingBreakKey.rt,endingBreakKey.duration,connection.started,connection.stopped,connectionEnding.keys,connectionEnding.rt,connectionEnding.duration,readyForText.started,readyForText.stopped,textPre.started,run_dup,textPre.stopped,continuousResponses_text,textRunLoop.thisRepN,textRunLoop.thisTrialN,textRunLoop.thisN,textRunLoop.thisIndex,textRunLoop.ran,text1_1,text1_2,text2_1,text2_2,runBreakText.started,runBreakText.stopped,endingBreakKey_2.keys,endingBreakKey_2.rt,endingBreakKey_2.duration,ending.started,ending.stopped,endingEnding.keys,endingEnding.rt,endingEnding.duration
0.0001,3.644,y,3.3223,,62e0532289a4e5d9fedadde1,2025-07-07_21h42.30.875,group3.4_multiperson,2023.2.2,Win32,59.88023952,686c2ebf0248f13bef9af11f,686c8453f80e6cffbb1e55f0,,,,,,,,,,,,,,,,,,,,,,,,,,,,,,,,,,,,,,,,,,,,,,,,,,,,,,,,,,,,,,,,,,,,,,,,,,,,,,,,,,,,,,,,,,,,,,,,,,,,,,,,
,,,,,62e0532289a4e5d9fedadde1,2025-07-07_21h42.30.875,group3.4_multiperson,2023.2.2,Win32,59.88023952,686c2ebf0248f13bef9af11f,686c8453f80e6cffbb1e55f0,3.6443,9.5834,space,5.9198,,,,,,,,,,,,,,,,,,,,,,,,,,,,,,,,,,,,,,,,,,,,,,,,,,,,,,,,,,,,,,,,,,,,,,,,,,,,,,,,,,,,,,,,,,,,,,,,,,,,
,,,,,62e0532289a4e5d9fedadde1,2025-07-07_21h42.30.875,group3.4_multiperson,2023.2.2,Win32,59.88023952,686c2ebf0248f13bef9af11f,686c8453f80e6cffbb1e55f0,,,,,,9.5835,20.8114,space,10.9248,,,,,,,,,,,,,,,,,,,,,,,,,,,,,,,,,,,,,,,,,,,,,,,,,,,,,,,,,,,,,,,,,,,,,,,,,,,,,,,,,,,,,,,,,,,,,,,
,,,,,62e0532289a4e5d9fedadde1,2025-07-07_21h42.30.875,group3.4_multiperson,2023.2.2,Win32,59.88023952,686c2ebf0248f13bef9af11f,686c8453f80e6cffbb1e55f0,,,,,,,,,,,20.8136,29.854,space,9.0247,,[],[],[],[],[],[],0,0,0,0,1,,,,,,,,,,,,,,,,,,,,,,,,,,,,,,,,,,,,,,,,,,,,,,,,,,,,,,,,,,,,,,,,,,,,,,,,,,,,,,
,,,,,62e0532289a4e5d9fedadde1,2025-07-07_21h42.30.875,group3.4_multiperson,2023.2.2,Win32,59.88023952,686c2ebf0248f13bef9af11f,686c8453f80e6cffbb1e55f0,,,,,,,,,,,29.8543,45.1527,space,15.2555,,[],[],[],[],[],[],1,0,1,0,1,,,,,,,,,,,,,,,,,,,,,,,,,,,,,,,,,,,,,,,,,,,,,,,,,,,,,,,,,,,,,,,,,,,,,,,,,,,,,,
,,,,,62e0532289a4e5d9fedadde1,2025-07-07_21h42.30.875,group3.4_multiperson,2023.2.2,Win32,59.88023952,686c2ebf0248f13bef9af11f,686c8453f80e6cffbb1e55f0,,,,,,,,,,,45.1529,54.4289,space,9.2569,,[],[],[],[],[],[],2,0,2,0,1,,,,,,,,,,,,,,,,,,,,,,,,,,,,,,,,,,,,,,,,,,,,,,,,,,,,,,,,,,,,,,,,,,,,,,,,,,,,,,
,,,,,62e0532289a4e5d9fedadde1,2025-07-07_21h42.30.875,group3.4_multiperson,2023.2.2,Win32,59.88023952,686c2ebf0248f13bef9af11f,686c8453f80e6cffbb1e55f0,,,,,,,,,,,54.4291,71.8133,space,17.3675,,[],[],[],[],[],[],3,0,3,0,1,,,,,,,,,,,,,,,,,,,,,,,,,,,,,,,,,,,,,,,,,,,,,,,,,,,,,,,,,,,,,,,,,,,,,,,,,,,,,,
,,,,,62e0532289a4e5d9fedadde1,2025-07-07_21h42.30.875,group3.4_multiperson,2023.2.2,Win32,59.88023952,686c2ebf0248f13bef9af11f,686c8453f80e6cffbb1e55f0,,,,,,,,,,,71.8135,80.3386,space,8.5126,,[],[],[],[],[],[],4,0,4,0,1,,,,,,,,,,,,,,,,,,,,,,,,,,,,,,,,,,,,,,,,,,,,,,,,,,,,,,,,,,,,,,,,,,,,,,,,,,,,,,
,,,,,62e0532289a4e5d9fedadde1,2025-07-07_21h42.30.875,group3.4_multiperson,2023.2.2,Win32,59.88023952,686c2ebf0248f13bef9af11f,686c8453f80e6cffbb1e55f0,,,,,,,,,,,80.3387,92.4509,space,12.0946,,[],[],[],[],[],[],5,0,5,0,1,,,,,,,,,,,,,,,,,,,,,,,,,,,,,,,,,,,,,,,,,,,,,,,,,,,,,,,,,,,,,,,,,,,,,,,,,,,,,,
,,,,,62e0532289a4e5d9fedadde1,2025-07-07_21h42.30.875,group3.4_multiperson,2023.2.2,Win32,59.88023952,686c2ebf0248f13bef9af11f,686c8453f80e6cffbb1e55f0,,,,,,,,,,,,,,,,,,,,,,,,,,,92.4518,95.0201,95.029,1,audio/Narrative13Situation2.wav,97.0389,,97.0389,126.7856,"[[999,0],[999,83],[999,166],[999,250],[999,333],[999,416],[999,500],[999,583],[999,667],[999,750],[999,833],[999,917],[999,1000],[999,1084],[999,1167],[999,1250],[999,1334],[999,1417],[999,1501],[999,1584],[999,1668],[999,1751],[999,1834],[999,1918],[999,2001],[999,2085],[999,2168],[999,2251],[999,2335],[999,2418],[999,2502],[999,2585],[999,2669],[999,2752],[999,2835],[999,2919],[999,3002],[999,3086],[999,3169],[999,3253],[999,3336],[999,3419],[999,3503],[999,3586],[999,3670],[999,3753],[999,3837],[49.7,3920],[52.4,4003],[54.9,4087],[57.3,4170],[61.3,4254],[63.2,4337],[72.4,4421],[80.1,4504],[85.7,4587],[89.6,4671],[92.5,4754],[95.8,4838],[99.2,4921],[99.9,5004],[99.9,5088],[99.9,5171],[99.9,5254],[99.9,5338],[100,5421],[100,5505],[100,5589],[100,5672],[100,5755],[100,5838],[100,5922],[100,6005],[100,6089],[100,6172],[100,6256],[100,6339],[100,6422],[100,6506],[100,6589],[100,6673],[100,6756],[100,6840],[100,6923],[100,7006],[100,7090],[100,7174],[100,7257],[100,7340],[100,7423],[100,7507],[100,7590],[100,7674],[100,7757],[100,7841],[100,7924],[100,8007],[100,8091],[100,8174],[100,8258],[100,8341],[100,8424],[100,8508],[100,8591],[100,8675],[100,8758],[100,8842],[100,8925],[100,9009],[100,9092],[100,9175],[100,9259],[100,9342],[100,9426],[100,9509],[100,9593],[100,9676],[100,9759],[100,9843],[100,9926],[100,10009],[100,10093],[100,10176],[100,10260],[100,10343],[100,10427],[100,10510],[100,10593],[100,10677],[100,10760],[100,10843],[100,10927],[100,11010],[100,11094],[100,11177],[100,11261],[100,11344],[100,11427],[100,11511],[100,11594],[100,11678],[100,11761],[100,11845],[100,11928],[100,12012],[100,12095],[100,12178],[100,12262],[100,12345],[100,12429],[100,12512],[100,12595],[100,12679],[100,12762],[100,12846],[100,12929],[100,13012],[100,13096],[100,13179],[100,13263],[100,13346],[100,13430],[100,13513],[100,13596],[100,13680],[100,13763],[100,13847],[100,13930],[100,14014],[100,14097],[100,14180],[100,14264],[100,14347],[100,14431],[100,14514],[100,14597],[100,14681],[100,14764],[100,14848],[100,14931],[100,15014],[100,15098],[100,15181],[100,15265],[100,15348],[100,15432],[100,15515],[100,15598],[100,15682],[100,15765],[100,15849],[100,15932],[100,16015],[100,16099],[100,16182],[100,16266],[100,16349],[100,16432],[100,16516],[99.6,16599],[98,16683],[96.7,16766],[94.7,16850],[91.6,16933],[86.9,17016],[82.4,17100],[77.4,17183],[74,17267],[70,17350],[67.3,17434],[64.9,17517],[60.5,17600],[56.1,17684],[53.5,17767],[50.1,17851],[47,17934],[43.9,18018],[40.5,18101],[36.5,18184],[32.2,18268],[27.9,18351],[24.2,18435],[20.9,18518],[17.1,18602],[15.7,18685],[14.3,18768],[11.6,18852],[9,18935],[7.3,19019],[5.8,19102],[4.4,19185],[2.1,19269],[1.4,19352],[0.6,19436],[8.3,22272],[86.1,22772],[79.5,22856],[70.6,23023],[83.3,23106],[92.4,23189],[95.4,23273],[96.7,23356],[96.7,23440],[97.4,23523],[97.6,23607],[97.6,23690],[97.6,23773],[97.6,23857],[97.6,23940],[97.6,24024],[97.6,24107],[97.6,24190],[97.6,24274],[97.6,24357],[97.9,24441],[98.4,24524],[98.4,24608],[98.4,24691],[98.4,24774],[98.4,24858],[98.4,24941],[98.4,25025],[98.4,25108],[98.4,25192],[98.4,25275],[98.4,25358],[98.4,25442],[98.4,25525],[98.4,25609],[98.4,25692],[98.4,25776],[98.4,25859],[98.4,25942],[98.4,26026],[98.4,26109],[98.4,26193],[98.4,26276],[98.4,26359],[98.4,26443],[98.4,26526],[98.4,26610],[98.3,26693],[97.8,26776],[96.6,26860],[88,26943],[71,27027],[51.7,27110],[39.9,27194],[33,27277],[28.1,27360],[24.2,27444],[20.2,27527],[17.4,27611],[14.4,27694],[12.6,27777],[12,27861],[11.1,27944],[10.1,28028],[9.5,28111],[9.1,28195],[8.3,28278],[7.4,28361],[6.7,28445],[5.9,28528],[4.8,28612],[4.3,28695],[4.1,28778],[4.1,28862],[4.1,28946],[4.1,29029],[4.1,29112],[3.4,29196],[2.7,29279],[2.4,29362],[2.4,29446],[2.4,29529],[2.4,29613],[2.4,29696]]",126.7857,136.5789,100,8.2987,"[{""rating"":99.16666348775227,""responseTime"":7.316799999952366},{""rating"":100,""responseTime"":8.298699999928488}]",space,9.2691,,136.579,Partially,50,136.5807,,,[],,0,0,0,0,1,audio/Narrative13Situation2.wav,audio/Narrative13Situation2.wav,audio/Narrative13Situation2.wav,audio/Narrative13Situation2.wav,2,2,2,2,,,,,,,,,,,,,,,,,,,,,,,,,,,,,,,,,,,,,,,
,,,,,62e0532289a4e5d9fedadde1,2025-07-07_21h42.30.875,group3.4_multiperson,2023.2.2,Win32,59.88023952,686c2ebf0248f13bef9af11f,686c8453f80e6cffbb1e55f0,,,,,,,,,,,,,,,,,,,,,,,,,,,,,136.5808,1,audio/Narrative8Situation1.wav,139.1814,space,139.1814,155.0976,"[[100,667],[100,750],[97.9,834],[82.1,917],[65.1,1000],[55.5,1084],[54.5,1167],[53.3,1251],[52.3,1334],[52.3,1418],[52.3,1501],[52.3,1584],[52.3,1668],[52.3,1751],[52.3,1835],[52.3,1918],[52.3,2001],[52.3,2085],[56.7,2168],[61.3,2252],[74.5,2335],[83.3,2419],[90.6,2502],[97.3,2586],[98.8,2669],[100,2752],[100,2836],[100,2919],[100,3002],[100,3086],[100,3169],[100,3253],[100,3336],[100,3420],[100,3503],[100,3586],[100,3670],[100,3753],[100,3837],[100,3920],[100,4004],[100,4087],[100,4170],[100,4254],[100,4337],[99.2,4421],[98.8,4504],[98.5,4588],[98.5,4671],[98.5,4754],[98.5,4838],[98.5,4921],[98.5,5005],[98.5,5088],[98.5,5171],[98.5,5255],[98.5,5338],[98.5,5422],[98.5,5505],[98.5,5588],[98.5,5672],[98.5,5755],[98.5,5839],[98.5,5922],[98.5,6006],[98.5,6089],[98.5,6172],[98.5,6256],[98.5,6339],[98.5,6423],[98.5,6506],[98.5,6589],[98.5,6673],[98.5,6756],[98.3,6840],[98.3,6923],[98.3,7007],[98.3,7090],[98.3,7173],[98.3,7257],[98.3,7340],[98.3,7424],[98.3,7507],[98.3,7591],[98.3,7674],[98.3,7757],[98.3,7841],[98.3,7924],[98.3,8007],[98.3,8091],[98.3,8174],[98.3,8258],[98.3,8341],[98.3,8425],[98.3,8508],[98.3,8591],[98.3,8675],[98.3,8758],[98.3,8842],[98.3,8925],[98.3,9009],[98.3,9092],[98.3,9175],[98.3,9259],[98.3,9342],[98.3,9426],[98.3,9509],[98.3,9592],[98.3,9676],[98.3,9759],[98.3,9843],[98.3,9926],[96.5,10010],[94.3,10093],[92.2,10177],[91,10260],[89.8,10343],[89,10427],[88.9,10510],[88.9,10593],[87.2,10677],[85.1,10760],[82.9,10844],[80.3,10927],[79.6,11011],[79.1,11094],[78.5,11177],[78.5,11261],[78.5,11344],[78.5,11428],[78.5,11511],[77.8,11595],[77.5,11678],[76.7,11761],[73.5,11845],[70.1,11928],[67.3,12012],[66.2,12095],[65.4,12178],[64.7,12262],[63.8,12345],[62.2,12429],[57.5,12512],[48.9,12596],[44.1,12679],[41.4,12762],[38.8,12846],[36.3,12929],[35,13013],[34,13096],[33.1,13180],[31.4,13263],[29.3,13346],[28.3,13430],[27.3,13513],[25.1,13597],[23.6,13680],[23,13763],[22.2,13847],[21.6,13930],[21.3,14014],[21.1,14097],[20.9,14181],[20.9,14264],[20.9,14347],[20.6,14431],[20.3,14514],[19.9,14598],[19.9,14681],[19.9,14764],[19.9,14848],[19.9,14931],[19.9,15015],[19.9,15098],[19.9,15181],[19.9,15265],[19.9,15348],[19.9,15432],[19.9,15515],[19.9,15599],[19.9,15682],[19.9,15766],[19.9,15849]]",155.0976,163.1057,77.81250477,6.8331,"[{""rating"":77.81250476837158,""responseTime"":6.8330999999046185}]",space,7.4812,,163.1057,Partially,50,163.1066,,,[],,0,1,1,1,1,audio/Narrative7Situation1.wav,audio/Narrative8Situation1.wav,audio/Narrative5Situation1.wav,audio/Narrative6Situation1.wav,2,5,5,2,2.5862,,,,,,,,,,,,,,,,,,,,,,,,,,,,,,,,,,,,,,
,,,,,62e0532289a4e5d9fedadde1,2025-07-07_21h42.30.875,group3.4_multiperson,2023.2.2,Win32,59.88023952,686c2ebf0248f13bef9af11f,686c8453f80e6cffbb1e55f0,,,,,,,,,,,,,,,,,,,,,,,,,,,,,163.1066,1,audio/Narrative8Situation2.wav,166.1088,,166.1088,176.219,"[[74.7,1501],[70,1584],[63.8,1668],[62.6,1751],[62.6,1835],[62.6,1918],[62.6,2001],[62.6,2085],[62.6,2168],[62.6,2252],[62.6,2335],[62.6,2418],[62.6,2502],[62.6,2585],[62.6,2669],[62.6,2752],[62.4,2836],[59.1,2919],[53.2,3002],[47.5,3086],[43.9,3169],[39.2,3253],[37.2,3336],[36.5,3420],[35.3,3503],[35,3586],[35,3670],[34.4,3753],[33.5,3837],[32.6,3920],[31.6,4003],[30.4,4087],[29.1,4170],[28.3,4254],[27.2,4337],[25.8,4421],[24.7,4504],[22.7,4587],[20.6,4671],[19.6,4754],[18.9,4838],[18.1,4921],[17.8,5004],[17.1,5088],[16,5171],[15.1,5255],[14.2,5338],[12.6,5422],[11.6,5505],[10.8,5588],[10.1,5672],[9.5,5755],[8.4,5839],[7.3,5922],[6.5,6006],[5.6,6089],[4.9,6172],[4.1,6256],[3.4,6339],[3.1,6423],[3.1,6506],[3.1,6589],[3.1,6673],[3.1,6756],[3.1,6840],[3.1,6923],[3.1,7007],[3.1,7090],[3.1,7173],[3.1,7257],[3.1,7340],[3.1,7424],[3.1,7507],[3.1,7590],[3.1,7674],[3.1,7757],[3.1,7841],[3.1,7924],[3.1,8007],[3.1,8091],[3.1,8174],[3.1,8258],[3.1,8341],[3.1,8425],[3.1,8508],[3.1,8591],[3.1,8675],[3.1,8759],[3.1,8842],[3.1,8925],[3.1,9009],[3.1,9092],[3.1,9175],[3.1,9259],[3.1,9342],[3.1,9426],[3.1,9509],[3.1,9592],[3.1,9676],[3.1,9759],[3.1,9843],[3.1,9926],[3.1,10010],[3.1,10093]]",176.2191,180.5401,0,2.8286,"[{""rating"":0,""responseTime"":2.828600000023812}]",space,3.8027,,180.5401,Definitely yes,100,180.5415,,,[],,0,2,2,2,1,audio/Narrative7Situation2.wav,audio/Narrative8Situation2.wav,audio/Narrative5Situation2.wav,audio/Narrative6Situation2.wav,3,3,3,3,,,,,,,,,,,,,,,,,,,,,,,,,,,,,,,,,,,,,,,
,,,,,62e0532289a4e5d9fedadde1,2025-07-07_21h42.30.875,group3.4_multiperson,2023.2.2,Win32,59.88023952,686c2ebf0248f13bef9af11f,686c8453f80e6cffbb1e55f0,,,,,,,,,,,,,,,,,,,,,,,,,,,,,180.5416,1,audio/Narrative8Situation3.wav,184.5441,,184.5442,206.9169,"[[999,0],[999,83],[999,166],[999,250],[999,333],[999,416],[999,500],[999,583],[999,667],[999,750],[999,834],[999,917],[999,1000],[999,1084],[999,1167],[25.7,1251],[26.5,1334],[26.6,1418],[26.6,1501],[26.6,1584],[26.6,1668],[26.6,1751],[26.5,1835],[25.6,1918],[24.9,2002],[23.8,2085],[23.3,2168],[22.7,2252],[22.6,2335],[22.6,2418],[22.6,2502],[22.6,2585],[22.6,2669],[22.6,2752],[22.6,2836],[22.6,2919],[22.6,3002],[22.6,3086],[22.6,3169],[22.6,3253],[22.6,3336],[25.7,3420],[29.7,3503],[33.8,3586],[35.8,3670],[37.7,3753],[39.1,3837],[40.4,3920],[43.2,4003],[44.3,4087],[45.3,4170],[46.9,4254],[47.5,4337],[48.1,4421],[48.6,4504],[49.2,4587],[49.6,4671],[49.6,4754],[50.2,4838],[50.2,4921],[50.2,5004],[50.2,5088],[50.2,5171],[50.3,5255],[50.3,5338],[50.3,5422],[50.3,5505],[50.3,5588],[50.3,5672],[50.3,5755],[50.3,5839],[50.3,5922],[50.3,6006],[50.3,6089],[50.3,6172],[50.3,6256],[50.3,6339],[50.3,6423],[50.3,6506],[50.3,6589],[50.3,6673],[50.3,6756],[50.3,6840],[50.3,6923],[50.3,7007],[50.3,7090],[50.3,7173],[50.3,7257],[50.3,7340],[50.3,7424],[50.3,7507],[50.3,7590],[50.3,7674],[52.1,7757],[60.1,7841],[64.8,7924],[71.3,8007],[75.5,8091],[76.3,8174],[77.6,8258],[79.2,8341],[80.4,8425],[81.3,8508],[81.8,8591],[82.5,8675],[83,8758],[83.3,8842],[83.5,8925],[84.1,9009],[84.3,9092],[84.3,9175],[84.8,9259],[85.4,9342],[85.8,9426],[86.4,9509],[86.5,9592],[86.8,9676],[86.8,9759],[87.8,9843],[87.8,9926],[87.9,10010],[88.1,10093],[88.1,10176],[88.9,10260],[89,10343],[89,10427],[89.3,10510],[90.2,10594],[91.3,10677],[91.3,10760],[91.4,10844],[91.7,10927],[91.7,11010],[91.7,11094],[91.7,11177],[91.7,11261],[92,11344],[92.5,11428],[92.7,11511],[92.7,11594],[92.7,11678],[92.7,11761],[93.2,11845],[94.1,11928],[94.8,12012],[95.5,12095],[96,12178],[96,12262],[96,12345],[96,12429],[96.4,12512],[96.4,12595],[96.4,12679],[96.4,12762],[96.4,12846],[96.4,12929],[96.4,13013],[96.4,13096],[96.4,13179],[96.4,13263],[96.6,13346],[96.7,13430],[96.7,13513],[96.7,13596],[96.7,13680],[96.9,13763],[96.9,13847],[96.9,13930],[96.9,14014],[97.1,14097],[97.1,14180],[97.1,14264],[97.1,14347],[97.1,14431],[97.1,14514],[97.1,14597],[97.1,14681],[97.1,14764],[97.1,14848],[97.1,14931],[97.6,15015],[97.9,15098],[97.9,15181],[97.9,15265],[97.8,15348],[97.5,15432],[97.5,15515],[97.5,15599],[97.5,15682],[97.5,15765],[97.5,15849],[97.5,15932],[97.5,16016],[97.5,16099],[97.5,16182],[97.5,16266],[97.5,16349],[97.5,16433],[97.5,16516],[97.5,16600],[97.5,16683],[97.2,16767],[96.5,16850],[96.5,16933],[96.5,17017],[96.5,17100],[96.5,17183],[96.5,17267],[96.5,17350],[96.5,17434],[96.5,17517],[96.5,17601],[96.5,17684],[97.3,17767],[97.3,17851],[97.3,17934],[97.3,18018],[97.3,18101],[97.3,18185],[97.3,18268],[97.3,18351],[97.3,18435],[97.3,18518],[97.3,18602],[97.3,18685],[97.3,18768],[97.3,18852],[97.3,18935],[97.3,19019],[97.3,19102],[97.3,19185],[97.3,19269],[97.3,19352],[97.3,19436],[97.3,19519],[97.3,19603],[97.3,19686],[97.3,19769],[97.3,19853],[97.3,19936],[97.3,20020],[97.3,20103],[97.3,20187],[97.3,20270],[97.3,20353],[97.3,20437],[97.3,20520],[97.3,20604],[97.3,20687],[97.3,20770],[97.3,20854],[97.3,20937],[97.3,21021],[97.3,21104],[97.3,21188],[97.3,21271],[97.3,21354],[97.3,21438],[97.3,21521],[97.3,21605],[97.3,21688],[97.3,21772],[97.3,21855],[97.3,21938],[97.3,22022],[97.3,22105],[97.3,22188],[97.3,22272],[97.3,22355]]",206.9169,214.1408,89.68750636,5.692,"[{""rating"":89.68750635782878,""responseTime"":5.692000000000007}]",space,6.7026,,214.1408,Partially,50,214.1419,,,[],,0,3,3,3,1,audio/Narrative7Situation3.wav,audio/Narrative8Situation3.wav,audio/Narrative5Situation3.wav,audio/Narrative6Situation3.wav,8,4,3,5,,,,,,,,,,,,,,,,,,,,,,,,,,,,,,,,,,,,,,,
,,,,,62e0532289a4e5d9fedadde1,2025-07-07_21h42.30.875,group3.4_multiperson,2023.2.2,Win32,59.88023952,686c2ebf0248f13bef9af11f,686c8453f80e6cffbb1e55f0,,,,,,,,,,,,,,,,,,,,,,,,,,,,,214.142,1,audio/Narrative8Situation4.wav,217.1439,,217.1439,231.3083,"[[999,0],[999,83],[999,166],[999,250],[999,333],[999,417],[999,500],[999,583],[999,667],[999,750],[999,834],[999,917],[999,1000],[999,1084],[999,1167],[999,1251],[999,1334],[999,1418],[999,1501],[999,1584],[999,1668],[999,1751],[999,1835],[999,1918],[999,2001],[999,2085],[999,2168],[999,2252],[999,2335],[999,2418],[999,2502],[999,2585],[999,2669],[999,2752],[999,2836],[999,2919],[999,3002],[999,3086],[999,3169],[999,3253],[999,3336],[999,3419],[999,3503],[999,3586],[999,3670],[77.4,3753],[77.9,3837],[79.4,3920],[82.2,4004],[89.6,4087],[93.1,4170],[93.8,4254],[96.4,4337],[96.7,4421],[97.4,4504],[98.1,4587],[98.1,4671],[98.1,4754],[98.1,4838],[98.1,4921],[98.1,5004],[98.1,5088],[98.1,5171],[98.1,5255],[98.1,5338],[98.1,5422],[98.1,5505],[98.1,5589],[98.1,5672],[98.1,5755],[98.1,5839],[98.1,5922],[98.1,6005],[98.1,6089],[98.1,6172],[98.1,6256],[98.1,6339],[98.1,6423],[98.1,6506],[98.1,6590],[98.1,6673],[98.1,6756],[98.1,6840],[97.8,6923],[97.5,7006],[97.2,7090],[97.2,7173],[97.1,7257],[97,7340],[97,7424],[97,7507],[97,7591],[97,7674],[97,7758],[97,7841],[97,7924],[97,8008],[97,8091],[97,8174],[97,8258],[97,8341],[97,8425],[97,8508],[97,8591],[97,8675],[97,8759],[97,8842],[97,8925],[97,9009],[97,9092],[97,9175],[97,9259],[97,9342],[97,9426],[97,9509],[97,9592],[97,9676],[97,9760],[97,9843],[97,9926],[97,10010],[97,10093],[97,10176],[97,10260],[97,10343],[97,10427],[97,10510],[97,10594],[97,10677],[97,10760],[97,10844],[97,10927],[97,11011],[97,11094],[97,11177],[97,11261],[97,11344],[97.1,11428],[97.3,11511],[97.9,11595],[98.3,11678],[98.4,11761],[98.4,11845],[98.4,11928],[98.4,12012],[98.4,12095],[98.4,12178],[98.4,12262],[98.4,12345],[98.4,12429],[98.4,12512],[98.4,12596],[98.4,12679],[98.4,12762],[98.4,12846],[98.4,12929],[98.4,13013],[98.4,13096],[98.4,13179],[98.4,13263],[98.4,13346],[98.4,13430],[98.4,13513],[98.4,13596],[98.4,13680],[98.4,13763],[98.4,13847],[98.4,13931],[98.4,14014],[98.4,14097]]",231.3084,234.5282,99.79166985,1.2608,"[{""rating"":99.79166984558105,""responseTime"":1.2608000000715265}]",space,2.6982,,234.5282,Not at all,0,234.5296,,,[],,0,4,4,4,1,audio/Narrative7Situation4.wav,audio/Narrative8Situation4.wav,audio/Narrative5Situation4.wav,audio/Narrative6Situation4.wav,3,3,1,2,,,,,,,,,,,,,,,,,,,,,,,,,,,,,,,,,,,,,,,
,,,,,62e0532289a4e5d9fedadde1,2025-07-07_21h42.30.875,group3.4_multiperson,2023.2.2,Win32,59.88023952,686c2ebf0248f13bef9af11f,686c8453f80e6cffbb1e55f0,,,,,,,,,,,,,,,,,,,,,,,,,,,,,234.5298,1,audio/Narrative8Situation5.wav,236.5302,,236.5302,244.7719,"[[99.3,1751],[98.5,1835],[98.5,1918],[98.2,2002],[98.2,2085],[98.2,2168],[98.2,2252],[98.1,2335],[97.7,2419],[97.5,2502],[97,2585],[96.8,2669],[96.8,2752],[96.1,2836],[95.9,2919],[95.9,3003],[95.9,3086],[95.9,3169],[95.9,3253],[96.9,3336],[97.1,3420],[97.4,3503],[97.9,3586],[97.9,3670],[97.9,3753],[97.9,3837],[97.9,3920],[97.9,4004],[97.9,4087],[97.9,4170],[97.9,4254],[97.9,4337],[97.9,4421],[97.9,4504],[97.9,4588],[97.9,4671],[97.9,4754],[97.9,4838],[97.9,4921],[97.9,5005],[97.9,5088],[97.9,5171],[97.9,5255],[97.9,5338],[97.9,5422],[97.9,5505],[97.9,5589],[97.9,5672],[97.9,5755],[97.9,5839],[97.9,5922],[97.9,6005],[97.9,6089],[97.9,6172],[97.9,6256],[97.9,6340],[97.9,6423],[97.9,6506],[97.9,6590],[97.9,6673],[97.9,6756],[97.9,6840],[97.5,6923],[96.7,7007],[96.7,7090],[96.7,7173],[96.7,7257],[96.7,7340],[96.7,7424],[96.7,7507],[96.9,7591],[96.9,7674],[96.9,7757],[97.4,7841],[97.4,7924],[97.4,8008],[97.4,8091],[97.4,8174]]",244.772,248.9594,99.16666349,1.3134,"[{""rating"":99.16666348775227,""responseTime"":1.3133999999761272}]",space,3.6608,,248.9595,Partially,50,248.9607,,,[],,0,5,5,5,1,audio/Narrative7Situation5.wav,audio/Narrative8Situation5.wav,audio/Narrative5Situation5.wav,audio/Narrative6Situation5.wav,5,2,5,2,,,,,,,,,,,,,,,,,,,,,,,,,,,,,,,,,,,,,,,
,,,,,62e0532289a4e5d9fedadde1,2025-07-07_21h42.30.875,group3.4_multiperson,2023.2.2,Win32,59.88023952,686c2ebf0248f13bef9af11f,686c8453f80e6cffbb1e55f0,,,,,,,,,,,,,,,,,,,,,,,,,,,,,248.9608,1,audio/Narrative8Situation6.wav,250.9615,,250.9615,257.4181,"[[97.5,583],[84.5,667],[71.3,750],[68.9,834],[68.9,917],[68.9,1000],[68.9,1084],[69.8,1167],[72.7,1251],[78.5,1334],[81.4,1418],[81.5,1501],[81.5,1584],[81.5,1668],[81.5,1751],[81.5,1835],[81.5,1918],[81.5,2001],[81.5,2085],[81.5,2168],[81.5,2252],[81.5,2335],[83.4,2419],[86.5,2502],[88.9,2586],[89.8,2669],[90.1,2752],[90.1,2836],[90.1,2919],[90.1,3003],[90.1,3086],[90.1,3169],[90.1,3253],[90.1,3336],[90.1,3420],[90.1,3503],[90.1,3586],[90.1,3670],[90.1,3753],[90.1,3837],[90.1,3920],[90.1,4004],[90.1,4087],[90.1,4170],[90.1,4254],[90.1,4337],[90.1,4421],[90.1,4504],[90.1,4587],[90.1,4671],[90.1,4754],[90.1,4838],[90.1,4921],[90.1,5005],[90.1,5088],[90.1,5171],[90.1,5255],[90.1,5338],[90.1,5422],[90.1,5505],[90.1,5589],[90.1,5672],[90.1,5755],[90.1,5839],[90.1,5922],[90.1,6005],[90.1,6089],[90.1,6172],[90.1,6256],[90.1,6339],[90.1,6423]]",257.4181,261.2387,96.25000954,1.9065,"[{""rating"":96.25000953674316,""responseTime"":1.9064999999999372}]",space,3.2887,,261.2387,Definitely yes,100,261.2399,,,[],,0,6,6,6,1,audio/Narrative7Situation6.wav,audio/Narrative8Situation6.wav,audio/Narrative5Situation6.wav,audio/Narrative6Situation6.wav,3,2,3,2,,,,,,,,,,,,,,,,,,,,,,,,,,,,,,,,,,,,,,,
,,,,,62e0532289a4e5d9fedadde1,2025-07-07_21h42.30.875,group3.4_multiperson,2023.2.2,Win32,59.88023952,686c2ebf0248f13bef9af11f,686c8453f80e6cffbb1e55f0,,,,,,,,,,,,,,,,,,,,,,,,,,,,,261.2399,1,audio/Narrative8Situation7.wav,264.2416,,264.2417,276.3206,"[[999,0],[999,83],[999,166],[999,250],[999,333],[999,417],[999,500],[999,583],[999,667],[999,750],[70.6,834],[69.7,917],[68.5,1000],[66.5,1084],[66,1167],[66,1251],[66,1334],[66,1418],[66,1501],[66,1584],[66,1668],[66,1752],[66,1835],[66,1918],[66,2002],[66,2085],[66,2168],[66,2252],[66,2335],[66,2419],[66,2502],[66,2586],[66,2669],[66,2752],[66,2836],[66,2919],[66,3003],[66,3086],[66,3169],[66,3253],[66,3336],[66,3420],[66,3503],[66.8,3587],[69.3,3670],[72,3753],[74.5,3837],[77.3,3920],[79.7,4004],[81.8,4087],[83.2,4170],[84.2,4254],[84.9,4337],[85.4,4421],[85.9,4504],[86.5,4587],[87.4,4671],[88.1,4754],[88.5,4838],[89.2,4921],[89.2,5004],[89.2,5088],[89.2,5171],[89.2,5255],[89.2,5338],[89.2,5422],[89.2,5505],[89.2,5588],[89.2,5672],[89.2,5755],[89.2,5839],[89.2,5922],[89.2,6006],[89.2,6089],[89.2,6172],[89.2,6256],[90.2,6339],[90.3,6423],[90.8,6506],[90.8,6590],[90.8,6673],[90.9,6756],[91,6840],[91.3,6923],[91.7,7007],[92.3,7090],[92.4,7173],[92.4,7257],[92.6,7340],[92.6,7424],[92.7,7507],[93.3,7591],[93.4,7674],[93.8,7757],[93.8,7841],[93.8,7924],[93.8,8008],[94.1,8091],[94.2,8174],[94.2,8258],[94.2,8341],[94.2,8425],[94.2,8508],[95.1,8591],[95.4,8675],[95.4,8758],[95.8,8842],[95.8,8925],[95.8,9009],[95.8,9092],[95.8,9176],[95.8,9259],[96.3,9342],[96.3,9426],[96.3,9509],[96.5,9593],[96.5,9676],[96.6,9760],[96.7,9843],[96.7,9926],[96.7,10010],[96.7,10093],[96.7,10176],[96.7,10260],[96.7,10343],[96.7,10427],[96.9,10510],[96.9,10594],[96.9,10677],[96.9,10760],[96.9,10844],[96.9,10927],[96.9,11011],[96.9,11094],[96.9,11177],[96.9,11261],[96.9,11344],[96.9,11428],[96.9,11511],[96.9,11595],[96.9,11678],[96.9,11761],[96.9,11845],[96.9,11928],[96.9,12012]]",276.3206,278.8565,97.70833651,1.1308,"[{""rating"":97.70833651224773,""responseTime"":1.1307999999523872}]",space,2.0132,,278.8565,Not at all,0,278.8577,,,[],,0,7,7,7,1,audio/Narrative7Situation7.wav,audio/Narrative8Situation7.wav,audio/Narrative5Situation7.wav,audio/Narrative6Situation7.wav,5,3,4,5,,,,,,,,,,,,,,,,,,,,,,,,,,,,,,,,,,,,,,,
,,,,,62e0532289a4e5d9fedadde1,2025-07-07_21h42.30.875,group3.4_multiperson,2023.2.2,Win32,59.88023952,686c2ebf0248f13bef9af11f,686c8453f80e6cffbb1e55f0,,,,,,,,,,,,,,,,,,,,,,,,,,,,,278.8578,1,audio/Narrative8Situation8.wav,281.8596,,281.8596,294.706,"[[94.5,834],[93.1,917],[93.1,1000],[93.1,1084],[93.1,1167],[93.1,1251],[93.1,1334],[93.1,1418],[93.1,1501],[93.1,1585],[93.1,1668],[93.1,1751],[93.1,1835],[93.1,1918],[93.1,2001],[93.1,2085],[93.1,2169],[92.4,2252],[90.4,2335],[88.2,2419],[84.5,2502],[80.9,2586],[75.7,2669],[71.9,2752],[70,2836],[68.3,2919],[67.3,3002],[66.6,3086],[65.2,3169],[62.9,3253],[61.3,3336],[60.2,3420],[59.1,3503],[58.4,3586],[57.7,3670],[57.4,3753],[57.1,3837],[57.1,3920],[57.1,4004],[57.1,4087],[56.6,4170],[56,4254],[55.3,4337],[53.9,4421],[53.2,4504],[52.8,4587],[52.5,4671],[52.5,4754],[52.4,4838],[52.4,4921],[52.4,5004],[52.4,5088],[52.4,5171],[52.4,5255],[52.4,5338],[52.4,5422],[52.4,5505],[52.4,5588],[52.4,5672],[52.4,5755],[53.6,5839],[60.4,5922],[69.6,6006],[74.8,6089],[81,6172],[87,6256],[89.3,6339],[90.5,6423],[90.9,6506],[91,6589],[91.6,6673],[91.6,6756],[92,6840],[92.3,6923],[92.7,7007],[93.1,7090],[93.3,7173],[93.3,7257],[93.3,7340],[93.8,7424],[93.8,7507],[94.1,7591],[94.5,7674],[94.8,7757],[94.8,7841],[94.8,7924],[94.8,8008],[94.8,8091],[94.8,8174],[94.8,8258],[94.8,8341],[94.8,8425],[94.8,8508],[95.1,8591],[95.1,8675],[95.2,8759],[95.2,8842],[95.2,8925],[95.2,9009],[95.2,9092],[95.5,9175],[95.5,9259],[95.6,9342],[95.8,9426],[95.9,9509],[96.1,9592],[96.1,9676],[96.1,9759],[96.1,9843],[96.1,9926],[96.1,10010],[96.1,10093],[96.1,10177],[96.3,10260],[96.5,10343],[96.5,10427],[96.6,10510],[96.6,10593],[96.6,10677],[96.6,10760],[96.6,10844],[96.6,10927],[96.6,11011],[96.6,11094],[96.6,11177],[96.6,11261],[96.6,11344],[96.7,11428],[96.7,11511],[96.7,11595],[96.7,11678],[96.7,11761],[96.7,11845],[96.7,11928],[96.7,12012],[96.7,12095],[96.7,12178],[96.7,12262],[96.7,12345],[96.7,12429],[96.7,12512],[96.7,12596],[96.7,12679],[96.7,12762],[96.7,12846]]",294.706,298.1093,97.2916762,2.6999,"[{""rating"":97.29167620340984,""responseTime"":2.6998999999760827}]",space,2.8787,,298.1094,Partially,50,298.1105,,,[],,0,8,8,8,1,audio/Narrative7Situation8.wav,audio/Narrative8Situation8.wav,audio/Narrative5Situation8.wav,audio/Narrative6Situation8.wav,2,3,3,5,,,,,,,,,,,,,,,,,,,,,,,,,,,,,,,,,,,,,,,
,,,,,62e0532289a4e5d9fedadde1,2025-07-07_21h42.30.875,group3.4_multiperson,2023.2.2,Win32,59.88023952,686c2ebf0248f13bef9af11f,686c8453f80e6cffbb1e55f0,,,,,,,,,,,,,,,,,,,,,,,,,,,,,298.1105,1,audio/Narrative8Situation9.wav,301.1125,,301.1125,312.4242,"[[93.9,917],[91,1001],[88.3,1084],[86.8,1167],[86.6,1251],[86.6,1334],[86.6,1418],[86.6,1501],[86.6,1584],[86.6,1668],[86.6,1751],[86.6,1835],[86.6,1918],[86.6,2001],[86.6,2085],[86.6,2168],[86.6,2252],[86.6,2335],[86.6,2419],[86.6,2502],[86.6,2585],[86.6,2669],[87.2,2752],[87.5,2836],[87.7,2919],[87.9,3003],[88.4,3086],[88.5,3169],[88.9,3253],[89,3336],[89.3,3420],[89.9,3503],[90.8,3586],[91.7,3670],[92.6,3753],[93.3,3837],[94.1,3920],[94.2,4004],[94.5,4087],[94.8,4170],[95.1,4254],[95.2,4337],[95.2,4421],[95.2,4504],[95.2,4587],[95.8,4671],[95.8,4754],[96.1,4838],[96.1,4921],[96.1,5004],[96.1,5088],[96.1,5171],[96.1,5255],[96.1,5338],[96.3,5422],[96.5,5505],[96.5,5588],[96.5,5672],[96.5,5755],[96.5,5839],[96.6,5922],[96.6,6006],[96.6,6089],[96.7,6172],[96.7,6256],[96.7,6339],[96.7,6423],[96.7,6506],[96.7,6589],[96.7,6673],[96.7,6757],[96.7,6840],[96.7,6923],[96.7,7007],[96.7,7090],[96.7,7173],[96.7,7257],[96.7,7340],[96.7,7424],[96.7,7507],[96.7,7590],[96.7,7674],[96.9,7757],[96.9,7841],[96.9,7924],[96.9,8008],[96.9,8091],[96.9,8174],[96.9,8258],[96.9,8341],[96.9,8425],[96.9,8508],[96.9,8591],[96.9,8675],[96.9,8758],[96.9,8842],[96.9,8925],[96.9,9009],[96.9,9092],[96.9,9175],[96.9,9259],[96.9,9342],[96.9,9426],[96.9,9509],[96.9,9593],[96.9,9676],[96.9,9759],[96.9,9843],[96.9,9926],[96.9,10009],[96.9,10093],[96.9,10176],[96.9,10260],[96.9,10343],[96.9,10427],[96.9,10510],[96.9,10594],[96.9,10677],[96.9,10760],[96.9,10844],[96.9,10927],[96.9,11011],[96.9,11094],[96.9,11177],[96.9,11261]]",312.4242,316.5781,97.50000636,2.5963,"[{""rating"":97.50000635782878,""responseTime"":2.596300000071551}]",space,3.6277,,316.5781,Definitely yes,100,316.5792,,,[],,0,9,9,9,1,audio/Narrative7Situation9.wav,audio/Narrative8Situation9.wav,audio/Narrative5Situation9.wav,audio/Narrative6Situation9.wav,2,3,3,4,,,,,,,,,,,,,,,,,,,,,,,,,,,,,,,,,,,,,,,
,,,,,62e0532289a4e5d9fedadde1,2025-07-07_21h42.30.875,group3.4_multiperson,2023.2.2,Win32,59.88023952,686c2ebf0248f13bef9af11f,686c8453f80e6cffbb1e55f0,,,,,,,,,,,,,,,,,,,,,,,,,,,,,316.5793,1,audio/Narrative7Situation1.wav,318.5801,,318.5802,374.4536,"[[999,0],[999,83],[999,166],[999,250],[999,333],[999,416],[999,500],[999,583],[999,667],[999,750],[999,834],[999,917],[999,1000],[999,1084],[999,1167],[999,1251],[999,1334],[999,1418],[999,1501],[999,1584],[999,1668],[999,1751],[999,1835],[999,1918],[999,2001],[999,2085],[999,2168],[999,2252],[999,2335],[51.9,2419],[52.5,2502],[52.9,2585],[52.9,2669],[52.9,2752],[52.9,2836],[52.9,2919],[52.9,3002],[52.9,3086],[52.9,3169],[52.9,3253],[52.9,3336],[52.9,3420],[52.9,3503],[52.9,3586],[52.9,3670],[52.9,3753],[52.7,3837],[52.7,3920],[52.4,4004],[52.4,4087],[52.4,4170],[52.3,4254],[52.3,4337],[52.1,4421],[52,4504],[51.7,4587],[51.6,4671],[51.4,4754],[51,4838],[51,4921],[50.3,5005],[48.8,5088],[46.3,5171],[43.2,5255],[39.7,5338],[37.3,5422],[35.9,5505],[34.5,5588],[33.1,5672],[32.4,5755],[31.9,5839],[31.7,5922],[31.6,6006],[31.4,6089],[30.9,6172],[30.8,6256],[30.5,6339],[30.3,6423],[30.1,6506],[29.6,6589],[29.3,6673],[29.3,6756],[29.3,6840],[29.3,6923],[29.3,7006],[29.3,7090],[28.7,7173],[28.4,7257],[28.2,7340],[28.2,7424],[28.2,7507],[28.2,7590],[28.2,7674],[28.2,7757],[28.2,7841],[28.2,7924],[28.2,8007],[28.2,8091],[28.2,8174],[28.2,8258],[28.2,8341],[28.2,8425],[29.5,8508],[36.4,8591],[39.6,8675],[41.7,8758],[44.1,8842],[46.9,8925],[49,9009],[50,9092],[50.7,9175],[50.7,9259],[50.7,9342],[50.7,9426],[50.7,9509],[51.3,9593],[51.8,9676],[52,9759],[52.6,9843],[52.8,9926],[52.8,10010],[52.9,10094],[53,10176],[53.2,10260],[53.2,10343],[53.2,10427],[53.2,10510],[53.2,10593],[53.2,10677],[53.2,10760],[53.2,10844],[53.2,10927],[53.2,11011],[53,11094],[53,11177],[53,11261],[53,11344],[53,11428],[53,11511],[54.1,11595],[55.7,11678],[58.5,11761],[60.4,11845],[61.5,11928],[62.4,12012],[63,12095],[64.1,12178],[64.6,12262],[64.8,12345],[65.1,12429],[66.1,12512],[66.4,12596],[66.9,12679],[66.9,12762],[66.9,12846],[66.9,12929],[66.9,13013],[67,13096],[67,13179],[67,13263],[67,13346],[67,13430],[64.4,13513],[61.8,13597],[59.3,13680],[56.9,13763],[55.1,13847],[54.2,13930],[53.7,14014],[53.7,14097],[53.7,14180],[53.7,14264],[53.7,14347],[53.7,14431],[53.7,14514],[53.7,14598],[53.7,14681],[53.7,14764],[52.9,14848],[52.7,14931],[52.3,15015],[52,15098],[51.7,15181],[51.7,15265],[51.7,15348],[51.7,15432],[51.7,15515],[51.7,15599],[51.7,15682],[51.7,15765],[51.7,15849],[51.7,15932],[51.9,16016],[52.6,16099],[54.1,16183],[55.3,16266],[56,16349],[56.5,16433],[56.7,16516],[56.7,16600],[56.7,16683],[55.4,16767],[51.7,16850],[49.8,16933],[48.5,17017],[47.5,17100],[46.5,17184],[45.6,17267],[44.6,17350],[44.4,17434],[44.2,17517],[44.2,17601],[44.2,17684],[44.2,17767],[44.2,17851],[44.2,17934],[44.2,18018],[44.2,18101],[44.2,18185],[44.2,18268],[44.2,18351],[44.2,18435],[44.2,18518],[44.2,18602],[44.2,18685],[44.2,18768],[44.2,18852],[44.2,18935],[44.2,19019],[44.2,19102],[44.2,19186],[44.5,19269],[44.8,19352],[45.1,19436],[45.6,19519],[46.6,19603],[48.4,19686],[50,19769],[51.5,19853],[52.8,19936],[53.6,20020],[53.6,20103],[54.1,20187],[54.4,20270],[54.7,20353],[55.1,20437],[55.6,20520],[56.1,20604],[56.7,20687],[56.8,20770],[57.2,20854],[57.5,20937],[57.6,21021],[57.8,21104],[57.8,21188],[57.8,21271],[58.6,21354],[58.9,21438],[58.9,21521],[58.9,21605],[58.9,21688],[58.9,21772],[59.6,21855],[59.6,21938],[59.9,22022],[59.9,22105],[59.9,22189],[59.9,22272],[60.3,22355],[60.4,22439],[60.4,22522],[60.4,22606],[60.4,22689],[60.4,22773],[60.4,22856],[60.6,22939],[60.7,23023],[60.9,23106],[61.5,23190],[62.3,23273],[63,23356],[63.4,23440],[63.9,23523],[64.1,23607],[64.5,23690],[64.9,23774],[65.1,23857],[65.3,23940],[65.6,24024],[65.6,24107],[65.6,24191],[65.8,24274],[66.1,24357],[66.6,24441],[66.7,24524],[67,24608],[67.3,24691],[67.4,24775],[67.4,24858],[67.4,24941],[67.4,25025],[67.4,25108],[67.4,25192],[67.4,25275],[67.4,25358],[67.4,25442],[67.4,25525],[67.4,25609],[67.4,25692],[67.4,25776],[67.4,25859],[67.4,25943],[67.4,26026],[67.4,26109],[67.4,26193],[67.4,26276],[67.4,26359],[67.4,26443],[67.4,26526],[67.4,26610],[67.4,26693],[67.4,26777],[67.4,26860],[67.4,26944],[67.7,27027],[67.7,27110],[67.7,27194],[67.7,27277],[67.7,27361],[67.9,27444],[67.9,27527],[67.9,27611],[67.9,27694],[67.9,27778],[68,27861],[68.1,27944],[68.1,28028],[68.1,28111],[68.1,28195],[68.1,28278],[68.1,28361],[68.1,28445],[68.1,28528],[68.1,28612],[68.1,28695],[68.1,28779],[68.3,28862],[69.2,28946],[69.5,29029],[69.7,29112],[69.8,29196],[70,29279],[70,29363],[70,29446],[70,29530],[70,29613],[70,29696],[70,29780],[70,29863],[70,29946],[70,30030],[70,30113],[70,30197],[70,30280],[70,30364],[70,30447],[70,30530],[70,30614],[70,30697],[70,30781],[70,30864],[70,30947],[70,31031],[70,31114],[70,31198],[70,31281],[70,31365],[70,31448],[70,31531],[70,31615],[70.1,31698],[70.4,31782],[70.4,31865],[70.4,31948],[70.4,32032],[70.4,32115],[70.4,32199],[70.4,32282],[70.5,32366],[70.5,32449],[70.5,32532],[70.5,32616],[70.5,32699],[70.5,32783],[70.8,32866],[70.8,32949],[70.8,33033],[70.8,33116],[71.1,33200],[71.1,33283],[71.1,33367],[71.1,33477],[71.1,33550],[71.1,33634],[71.1,33717],[71.1,33801],[71.1,33884],[71.1,33967],[71.1,34051],[71.1,34134],[71.1,34217],[71.1,34301],[71.1,34384],[71.1,34468],[71.1,34551],[71.3,34635],[71.3,34718],[71.3,34801],[71.3,34885],[71.3,34968],[71.3,35052],[71.3,35135],[71.3,35219],[71.3,35302],[71.5,35385],[72.2,35469],[72.5,35552],[72.8,35636],[72.9,35719],[73.3,35803],[73.5,35886],[73.5,35969],[73.5,36053],[73.5,36136],[73.5,36219],[73.6,36303],[73.8,36386],[73.8,36470],[73.8,36553],[74,36637],[74,36720],[74,36803],[74,36887],[74.3,36970],[74.6,37054],[75,37137],[75.3,37220],[75.4,37304],[75.6,37387],[75.7,37471],[75.7,37554],[75.8,37638],[75.8,37721],[76,37805],[76,37888],[76,37972],[76,38055],[76.4,38138],[76.4,38221],[76.5,38305],[76.7,38388],[76.8,38472],[76.9,38555],[76.9,38639],[77.1,38722],[77.1,38805],[77.4,38889],[77.5,38972],[77.6,39056],[77.6,39139],[77.6,39223],[77.6,39306],[77.6,39390],[77.6,39473],[77.6,39556],[77.6,39640],[77.6,39723],[77.6,39807],[77.6,39890],[77.6,39973],[77.9,40057],[78.1,40140],[78.5,40224],[79.2,40307],[79.9,40390],[80.2,40474],[80.2,40557],[80.2,40641],[80.2,40724],[80.2,40807],[80.6,40891],[80.7,40974],[81,41058],[81.3,41141],[81.3,41225],[81.3,41308],[81.5,41391],[81.8,41475],[82.3,41558],[83.3,41642],[83.8,41725],[84.3,41809],[85.2,41892],[85.9,41976],[86.7,42059],[86.9,42142],[86.9,42226],[87,42309],[87,42392],[87,42476],[87.3,42559],[87.7,42643],[87.9,42726],[87.9,42809],[88,42893],[88,42976],[88.6,43060],[88.6,43143],[89.1,43227],[89.1,43310],[89.1,43393],[89.5,43477],[89.7,43560],[90,43644],[90.1,43727],[90.1,43811],[90.1,43894],[90.4,43977],[90.5,44061],[90.7,44144],[90.7,44228],[90.8,44311],[90.8,44394],[90.8,44478],[90.9,44561],[91.1,44645],[91.5,44728],[91.5,44812],[91.5,44895],[91.8,44978],[92,45062],[92,45145],[92.2,45229],[92.5,45313],[92.5,45395],[92.5,45479],[92.5,45562],[92.8,45646],[92.8,45729],[92.8,45813],[93,45896],[93.2,45979],[93.2,46063],[93.2,46146],[93.2,46230],[93.6,46313],[93.6,46396],[93.6,46480],[93.6,46563],[93.6,46647],[93.6,46730],[93.6,46814],[93.8,46897],[93.8,46980],[94,47064],[94,47147],[94.3,47231],[94.3,47314],[94.3,47398],[94.3,47481],[94.3,47564],[94.3,47648],[97.4,49316],[97.5,49400],[97.3,49483],[97.3,49566],[97.3,49650],[96.8,49733],[96.3,49817],[95.9,49900],[95.8,49983],[95.8,50067],[95.8,50150],[95.8,50234],[95.8,50317],[96,50401],[96.4,50484],[96.4,50567],[96.7,50651],[96.7,50735],[96.8,50818],[96.8,50901],[96.8,50984],[96.9,51068],[97.1,51151],[97.1,51235],[97.1,51318],[97.1,51402],[97.1,51485],[97.1,51568],[97.1,51652],[97.1,51735],[97.1,51819],[97.1,51902],[97.1,51986],[97.1,52069],[97.1,52152],[97.1,52236],[97.1,52319],[97.1,52403],[97.1,52486],[97.1,52569],[97.1,52653],[97.1,52736],[97.1,52820],[97.1,52903],[97.1,52987],[97.1,53070],[97.1,53153],[97.1,53237],[97.1,53320],[97.1,53404],[97.1,53487],[97.1,53571],[97.1,53654],[97.1,53737],[97.1,53821],[97.1,53904],[97.1,53988],[97.1,54071],[97.1,54154],[97.1,54238],[97.1,54321],[97.1,54405],[97.1,54488],[97.1,54571],[97.1,54655],[97.1,54738],[97.1,54822],[97.1,54905],[97.1,54989],[97.1,55072],[97.1,55155],[97.1,55239],[97.1,55322],[97.1,55406],[97.1,55489],[97.1,55573],[97.1,55656],[97.1,55739],[97.1,55823]]",374.4537,380.0092,82.18750159,4.0084,"[{""rating"":82.1875015894572,""responseTime"":4.008399999976177}]",space,5.0323,,380.0093,Not at all,0,380.0105,,,[],,0,10,10,10,1,audio/Narrative8Situation1.wav,audio/Narrative7Situation1.wav,audio/Narrative6Situation1.wav,audio/Narrative5Situation1.wav,5,2,2,5,,,,,,,,,,,,,,,,,,,,,,,,,,,,,,,,,,,,,,,
,,,,,62e0532289a4e5d9fedadde1,2025-07-07_21h42.30.875,group3.4_multiperson,2023.2.2,Win32,59.88023952,686c2ebf0248f13bef9af11f,686c8453f80e6cffbb1e55f0,,,,,,,,,,,,,,,,,,,,,,,,,,,,,380.0106,1,audio/Narrative7Situation2.wav,383.0123,,383.0123,390.4868,"[[999,0],[999,83],[999,166],[999,250],[999,333],[999,417],[999,500],[999,583],[999,667],[999,750],[999,834],[55.5,917],[53.7,1001],[53.7,1084],[53.7,1167],[53.7,1251],[54.3,1334],[57.4,1418],[59.9,1501],[60.7,1584],[61.3,1668],[62,1751],[63.8,1835],[65.6,1918],[67.1,2002],[68.4,2085],[69.5,2168],[69.8,2252],[70,2335],[70.4,2419],[71.3,2502],[73.2,2585],[75,2669],[77.1,2752],[79.2,2836],[80.6,2919],[81.3,3003],[82.5,3086],[84.1,3169],[84.9,3253],[85.6,3336],[86.6,3420],[87.6,3503],[88.6,3586],[89.8,3670],[91.5,3753],[92.9,3837],[94,3920],[94.7,4004],[95.3,4087],[96.1,4170],[96.4,4254],[96.4,4337],[96.4,4421],[96.4,4504],[96.4,4587],[96.4,4671],[96.7,4754],[97.1,4838],[97.1,4921],[97.1,5004],[97.1,5088],[97.1,5171],[97.1,5255],[97.1,5338],[97.1,5422],[97.1,5505],[97,5588],[96.8,5672],[96.5,5755],[96.3,5839],[95.9,5922],[95.9,6006],[95.9,6089],[95.9,6172],[95.9,6256],[95.9,6339],[95.9,6423],[95.9,6506],[95.9,6590],[95.9,6673],[95.9,6756],[95.9,6840],[95.9,6923],[95.9,7007],[95.9,7090],[95.9,7173],[95.9,7257],[95.9,7340],[95.9,7424]]",390.4868,395.4416,97.91666667,2.9976,"[{""rating"":95.83333333333333,""responseTime"":1.9053000000715201},{""rating"":97.91666666666667,""responseTime"":2.9976000000239083}]",space,4.434,,395.4416,Partially,50,395.4427,,,[],,0,11,11,11,1,audio/Narrative8Situation2.wav,audio/Narrative7Situation2.wav,audio/Narrative6Situation2.wav,audio/Narrative5Situation2.wav,3,3,3,3,,,,,,,,,,,,,,,,,,,,,,,,,,,,,,,,,,,,,,,
,,,,,62e0532289a4e5d9fedadde1,2025-07-07_21h42.30.875,group3.4_multiperson,2023.2.2,Win32,59.88023952,686c2ebf0248f13bef9af11f,686c8453f80e6cffbb1e55f0,,,,,,,,,,,,,,,,,,,,,,,,,,,,,395.4428,1,audio/Narrative7Situation3.wav,403.4498,,403.4499,412.7091,"[[999,0],[999,83],[999,166],[999,250],[999,333],[999,416],[999,500],[999,583],[999,667],[999,750],[999,833],[999,917],[50.3,1000],[50.5,1084],[50.5,1167],[50.5,1251],[50.5,1334],[50.5,1417],[50.5,1501],[50.5,1584],[50.5,1668],[50.5,1751],[50.5,1834],[50.5,1918],[50.5,2001],[50.5,2085],[52.4,2168],[54.1,2252],[54.9,2335],[55.1,2418],[55.4,2502],[55.4,2585],[55.4,2669],[55.4,2752],[55.4,2836],[55.4,2919],[55.4,3002],[54.7,3086],[54.3,3169],[53.2,3253],[51.9,3336],[50.9,3419],[50.1,3503],[49.4,3586],[49.1,3670],[48.9,3753],[48.5,3836],[48.5,3920],[48.5,4003],[48.5,4087],[48.5,4170],[48.5,4254],[48.5,4337],[48.5,4421],[48.5,4504],[48.5,4587],[48.5,4671],[48.5,4754],[48.2,4838],[48,4921],[47.8,5004],[47.8,5088],[47.8,5171],[47.8,5255],[47.8,5338],[47.8,5421],[47.8,5505],[47.8,5588],[47.8,5672],[47.8,5755],[47.8,5838],[47.8,5922],[47.9,6005],[51.3,6089],[55.5,6172],[58.6,6256],[60.3,6339],[62.2,6423],[63.2,6506],[63.9,6589],[64.4,6673],[65,6756],[66.4,6840],[67.1,6923],[67.4,7006],[67.4,7090],[67.4,7173],[67.4,7257],[67.4,7340],[67.4,7424],[67.4,7507],[67.5,7591],[67.7,7674],[67.7,7757],[68.1,7841],[68.2,7924],[68.2,8007],[68.5,8091],[68.8,8174],[68.8,8258],[68.8,8341],[68.8,8424],[68.8,8508],[68.8,8591],[68.8,8675],[68.8,8758],[68.8,8842],[68.8,8925],[68.8,9008],[68.8,9092],[68.8,9175],[68.8,9259]]",412.7092,421.1176,58.75000159,7.6807,"[{""rating"":58.75000158945719,""responseTime"":7.680699999928493}]",space,7.8876,,421.1176,Definitely yes,100,421.1189,,,[],,0,12,12,12,1,audio/Narrative8Situation3.wav,audio/Narrative7Situation3.wav,audio/Narrative6Situation3.wav,audio/Narrative5Situation3.wav,4,8,5,3,,,,,,,,,,,,,,,,,,,,,,,,,,,,,,,,,,,,,,,
,,,,,62e0532289a4e5d9fedadde1,2025-07-07_21h42.30.875,group3.4_multiperson,2023.2.2,Win32,59.88023952,686c2ebf0248f13bef9af11f,686c8453f80e6cffbb1e55f0,,,,,,,,,,,,,,,,,,,,,,,,,,,,,421.119,1,audio/Narrative7Situation4.wav,424.1207,,424.1207,435.8327,"[[59.3,1251],[60,1334],[60.3,1418],[60.5,1501],[60.7,1584],[60.7,1668],[60.7,1751],[60.7,1835],[60.7,1918],[60.7,2002],[60.7,2085],[60.7,2168],[60.7,2252],[60.7,2335],[60.7,2418],[60.7,2502],[60.7,2585],[60.7,2669],[60.7,2752],[60.7,2836],[60.7,2919],[60.7,3002],[60.7,3086],[60.7,3169],[60.7,3253],[60.7,3336],[60.6,3420],[60.6,3503],[60.6,3586],[60.6,3670],[60.6,3753],[60.6,3837],[60.6,3920],[60.6,4004],[60.6,4087],[60.6,4170],[60.6,4254],[60.6,4337],[60.6,4421],[60.6,4504],[60.6,4587],[60.6,4671],[60.6,4754],[60.6,4838],[61.5,4921],[63.1,5005],[64,5088],[65,5171],[65.9,5255],[66.7,5338],[67.1,5422],[67.1,5505],[67.1,5588],[67.1,5672],[67.1,5755],[67.1,5839],[67.1,5922],[67.1,6006],[67.1,6089],[67.1,6172],[67.1,6256],[67.5,6339],[67.7,6423],[68.1,6506],[68.1,6589],[68.1,6673],[68.1,6756],[68.1,6840],[68.1,6923],[68.1,7007],[68.1,7090],[68.1,7173],[68.1,7257],[68.1,7341],[68.1,7424],[67.8,7507],[67.1,7591],[65.8,7674],[64,7757],[62,7841],[60.6,7924],[59.1,8008],[58.1,8091],[56.8,8174],[55.5,8258],[54.3,8341],[53.2,8425],[52.2,8508],[51.4,8592],[50.6,8675],[49.7,8758],[49.1,8842],[48.6,8925],[48.5,9009],[48.2,9092],[48.2,9175],[48.2,9259],[48.2,9342],[48.2,9426],[48.2,9509],[48.2,9592],[48,9676],[47.3,9759],[47.3,9843],[47.1,9926],[46.8,10010],[46.3,10093],[45.5,10177],[44.4,10260],[43.3,10343],[42.9,10427],[42.7,10510],[42.3,10594],[41.9,10677],[41.2,10760],[40.5,10844],[39.5,10927],[38.1,11011],[36.7,11094],[35.7,11177],[35,11261],[34,11344],[32.5,11428],[31,11511],[29.9,11595],[29.1,11678]]",435.8327,441.6718,3.229169051,4.8774,"[{""rating"":3.2291690508524598,""responseTime"":4.877399999976205}]",space,5.3194,,441.6719,Definitely yes,100,441.6726,,,[],,0,13,13,13,1,audio/Narrative8Situation4.wav,audio/Narrative7Situation4.wav,audio/Narrative6Situation4.wav,audio/Narrative5Situation4.wav,3,3,2,1,,,,,,,,,,,,,,,,,,,,,,,,,,,,,,,,,,,,,,,
,,,,,62e0532289a4e5d9fedadde1,2025-07-07_21h42.30.875,group3.4_multiperson,2023.2.2,Win32,59.88023952,686c2ebf0248f13bef9af11f,686c8453f80e6cffbb1e55f0,,,,,,,,,,,,,,,,,,,,,,,,,,,,,441.6727,1,audio/Narrative7Situation5.wav,446.6769,,446.6769,455.1523,"[[38.6,250],[38.6,333],[38.6,417],[38.6,500],[38.6,583],[38.6,667],[38.6,750],[38.6,834],[38.6,917],[38.6,1000],[38.6,1084],[38.6,1167],[38.6,1251],[38.6,1334],[38.6,1418],[38.6,1501],[38.6,1585],[38.6,1668],[38.6,1751],[38.6,1835],[38.6,1918],[38.6,2001],[38.6,2085],[38.6,2168],[38.6,2252],[38.6,2335],[38.6,2419],[38.6,2502],[38.6,2586],[38.6,2669],[38.6,2752],[41.7,2836],[44.8,2919],[46.9,3003],[49.8,3086],[53,3169],[55.6,3253],[56.8,3336],[58.1,3420],[59.2,3503],[59.6,3586],[60.3,3670],[61.4,3753],[61.5,3837],[61.5,3920],[61.5,4004],[61.5,4087],[61.5,4170],[61.5,4254],[61.5,4337],[61.5,4421],[61.5,4504],[61.5,4587],[61.5,4671],[61.5,4754],[61.5,4838],[61.5,4921],[61.5,5004],[61.5,5088],[61.5,5172],[61.5,5255],[61.5,5338],[61.5,5422],[61.5,5505],[61.5,5588],[61.5,5672],[61.5,5755],[61.5,5839],[61.5,5922],[61.5,6005],[61.5,6089],[61.5,6172],[61.5,6256],[61.5,6339],[61.5,6423],[61.5,6506],[61.7,6590],[61.8,6673],[61.8,6756],[62.3,6840],[62.4,6923],[62.7,7007],[63,7090],[63,7173],[63.4,7257],[63.9,7340],[63.9,7424],[64.1,7507],[64.5,7591],[64.6,7674],[64.9,7757],[65.3,7841],[65.5,7924],[65.5,8008],[65.5,8091],[65.5,8174],[65.5,8258],[61.4,8341],[54.1,8425]]",455.1523,463.1937,62.7083381,6.9651,"[{""rating"":62.70833810170492,""responseTime"":6.965100000023767}]",space,7.5233,,463.1937,Definitely yes,100,463.1946,,,[],,0,14,14,14,1,audio/Narrative8Situation5.wav,audio/Narrative7Situation5.wav,audio/Narrative6Situation5.wav,audio/Narrative5Situation5.wav,2,5,2,5,,,,,,,,,,,,,,,,,,,,,,,,,,,,,,,,,,,,,,,
,,,,,62e0532289a4e5d9fedadde1,2025-07-07_21h42.30.875,group3.4_multiperson,2023.2.2,Win32,59.88023952,686c2ebf0248f13bef9af11f,686c8453f80e6cffbb1e55f0,,,,,,,,,,,,,,,,,,,,,,,,,,,,,463.1947,1,audio/Narrative7Situation6.wav,466.1967,,466.1967,476.1569,"[[999,0],[999,83],[999,166],[999,250],[999,333],[999,417],[999,500],[999,583],[999,667],[999,750],[999,834],[999,917],[999,1001],[999,1084],[999,1167],[999,1251],[999,1334],[999,1418],[999,1501],[999,1584],[999,1668],[999,1751],[999,1835],[999,1918],[999,2001],[999,2085],[999,2168],[999,2252],[999,2335],[999,2419],[999,2502],[999,2586],[999,2669],[999,2752],[62.9,2836],[62.4,2919],[62.4,3002],[62.4,3086],[63,3169],[69.1,3253],[70.7,3336],[71.3,3420],[72.8,3503],[75,3586],[77.4,3670],[79,3753],[80.2,3837],[80.7,3920],[80.7,4004],[80.7,4087],[80.7,4170],[80.7,4254],[80.7,4337],[80.7,4421],[81.3,4504],[82.3,4587],[84.1,4671],[85.5,4754],[86.7,4838],[87.7,4921],[88.6,5005],[89.1,5088],[89.1,5171],[90.1,5255],[90.9,5338],[92.2,5422],[93.6,5505],[94.7,5589],[95.1,5672],[95.8,5755],[96.1,5839],[96.8,5922],[96.9,6006],[96.9,6089],[96.9,6173],[96.9,6256],[96.9,6339],[96.9,6423],[96.9,6506],[97.1,6590],[97.1,6673],[97.1,6756],[97.1,6840],[97.1,6923],[97.1,7007],[97.1,7090],[97.1,7173],[97.1,7257],[97.1,7340],[97.1,7424],[97.1,7507],[97.1,7591],[97.1,7674],[97.1,7757],[97.1,7841],[97.1,7925],[97.1,8008],[97.1,8091],[97.1,8174],[97.1,8258],[97.1,8341],[97.1,8425],[97.1,8508],[97.1,8592],[97.1,8675],[97.1,8758],[97.1,8842],[97.1,8925],[97.1,9009],[97.1,9092],[97.1,9175],[97.1,9259],[97.1,9342],[97.1,9426],[97.1,9509],[97.1,9593],[97.1,9676],[97.1,9759],[97.1,9843],[97.1,9926]]",476.157,480.261,97.08333015,1.2051,"[{""rating"":97.08333015441895,""responseTime"":1.2051000000237764}]",space,3.5775,,480.261,Definitely yes,100,480.2618,,,[],,0,15,15,15,1,audio/Narrative8Situation6.wav,audio/Narrative7Situation6.wav,audio/Narrative6Situation6.wav,audio/Narrative5Situation6.wav,2,3,2,3,,,,,,,,,,,,,,,,,,,,,,,,,,,,,,,,,,,,,,,
,,,,,62e0532289a4e5d9fedadde1,2025-07-07_21h42.30.875,group3.4_multiperson,2023.2.2,Win32,59.88023952,686c2ebf0248f13bef9af11f,686c8453f80e6cffbb1e55f0,,,,,,,,,,,,,,,,,,,,,,,,,,,,,480.2619,1,audio/Narrative7Situation7.wav,485.2661,,485.2661,502.4339,"[[999,0],[999,83],[999,166],[999,250],[999,333],[999,417],[52.9,500],[51,584],[50.2,667],[50.2,750],[50.2,834],[50.2,917],[50.2,1000],[50.2,1084],[50.2,1168],[50.2,1251],[50.2,1334],[50.2,1418],[50.2,1501],[50.2,1585],[50.2,1668],[50.2,1751],[50.2,1835],[50.2,1918],[50.9,2002],[51,2085],[51.7,2168],[52,2252],[52.1,2335],[52.4,2419],[52.5,2502],[52.8,2585],[53.2,2669],[53.5,2752],[54,2836],[54.2,2919],[54.5,3003],[54.9,3086],[55.2,3169],[55.5,3253],[56.3,3336],[56.9,3420],[57.6,3503],[58.3,3586],[58.9,3670],[59.4,3753],[60.2,3837],[60.8,3920],[61.1,4004],[61.1,4087],[61.1,4170],[61.1,4254],[61.3,4337],[62,4421],[62.5,4504],[63.2,4588],[64,4671],[64.8,4754],[65.4,4838],[65.7,4922],[66.5,5005],[67.2,5088],[67.5,5171],[67.8,5255],[67.9,5338],[68.1,5422],[68.2,5505],[68.6,5589],[68.9,5672],[68.9,5755],[69.2,5839],[69.9,5922],[70.6,6006],[71.7,6089],[73.2,6173],[75.2,6256],[77.3,6339],[78.9,6423],[79.7,6506],[80.4,6590],[80.9,6673],[81.6,6756],[82.5,6840],[83.2,6923],[84.3,7007],[85,7090],[86.5,7173],[88.5,7257],[90,7340],[91.4,7424],[92.2,7507],[93.8,7591],[95.5,7674],[96,7757],[96.6,7841],[96.9,7924],[96.9,8008],[96.9,8091],[96.9,8174],[96.9,8258],[96.9,8341],[96.9,8425],[96.9,8508],[96.9,8592],[96.9,8675],[96.9,8758],[96.9,8842],[96.9,8925],[96.9,9009],[96.9,9092],[96.9,9175],[96.9,9259],[96.9,9342],[96.9,9426],[96.9,9509],[96.9,9593],[96.9,9676],[96.9,9759],[96.9,9843],[96.9,9926],[96.9,10010],[96.9,10093],[96.9,10177],[96.9,10260],[96.9,10344],[96.9,10427],[96.9,10510],[96.9,10594],[97.1,10677],[97.1,10760],[97.1,10844],[97.1,10927],[97.1,11011],[97.1,11094],[97.1,11177],[97.1,11261],[97.1,11344],[97.1,11428],[97.1,11511],[97.1,11595],[97.1,11678],[97.1,11761],[97.1,11845],[97.1,11928],[97.1,12012],[97.1,12095],[97.1,12179],[97.1,12262],[97.1,12345],[97.1,12429],[97.1,12512],[97.1,12596],[97.1,12679],[97.1,12763],[97.1,12846],[97.1,12929],[97.1,13013],[97.1,13096],[97.1,13180],[97.1,13263],[97.1,13346],[97.1,13430],[97.1,13513],[97.1,13597],[97.1,13680],[97.1,13764],[97.1,13847],[97.1,13930],[97.1,14014],[97.1,14097],[97.1,14181],[97.1,14264],[97.1,14347],[97.1,14431],[97.1,14514],[97.1,14598],[97.1,14681],[97.1,14764],[97.1,14848],[97.1,14931],[97.1,15015],[97.1,15115],[97.1,15198],[97.1,15282],[97.1,15365],[97.1,15449],[97.1,15532],[97.1,15615],[97.1,15699],[97.1,15782],[97.1,15866],[97.1,15949],[97.1,16033],[97.1,16116],[97.1,16199],[97.1,16283],[97.1,16366],[97.1,16450],[97.1,16533],[97.1,16617],[97.1,16700],[97.1,16783],[97.1,16867],[97.1,16950],[97.1,17033],[97.1,17117]]",502.4339,510.4917,96.04166349,5.4662,"[{""rating"":96.04166348775227,""responseTime"":5.4662000000477065}]",space,7.5378,,510.4918,Partially,50,510.4928,,,[],,0,16,16,16,1,audio/Narrative8Situation7.wav,audio/Narrative7Situation7.wav,audio/Narrative6Situation7.wav,audio/Narrative5Situation7.wav,3,5,5,4,,,,,,,,,,,,,,,,,,,,,,,,,,,,,,,,,,,,,,,
,,,,,62e0532289a4e5d9fedadde1,2025-07-07_21h42.30.875,group3.4_multiperson,2023.2.2,Win32,59.88023952,686c2ebf0248f13bef9af11f,686c8453f80e6cffbb1e55f0,,,,,,,,,,,,,,,,,,,,,,,,,,,,,510.493,1,audio/Narrative7Situation8.wav,512.4941,,512.4942,522.5207,"[[59.8,2502],[60.9,2585],[61.8,2668],[62.6,2752],[62.6,2835],[62.6,2919],[62.6,3002],[62.6,3086],[62.6,3169],[62.6,3252],[62.6,3336],[62.6,3419],[62.6,3503],[62.6,3586],[62.6,3669],[63,3753],[64.1,3836],[65.1,3920],[66.7,4003],[67.7,4087],[68.6,4170],[69.3,4253],[69.8,4337],[70,4420],[70.2,4504],[71.1,4587],[71.8,4670],[72.1,4754],[72.3,4837],[72.3,4921],[72.3,5004],[72.3,5087],[72.3,5171],[72.3,5254],[72.3,5338],[72.3,5421],[72.3,5505],[73.3,5588],[75.9,5672],[77.8,5755],[78.7,5838],[79.5,5922],[80.2,6005],[81.7,6089],[82.4,6172],[83.1,6255],[83.3,6339],[83.3,6422],[83.3,6506],[83.3,6589],[83.3,6673],[83.6,6756],[83.9,6839],[85.1,6923],[85.6,7006],[85.9,7090],[86.5,7173],[86.9,7256],[87,7340],[87,7423],[87,7507],[87.7,7590],[89.8,7673],[92.2,7757],[93.9,7840],[94.3,7924],[94.7,8007],[95.3,8091],[95.3,8174],[95.3,8257],[95.3,8341],[95.3,8424],[95.7,8508],[96,8591],[96.4,8674],[96.8,8758],[96.8,8841],[96.8,8925],[96.8,9008],[96.8,9092],[96.8,9175],[96.8,9259],[96.8,9342],[96.8,9425],[97,9509],[97,9592],[97,9675],[97,9759],[97,9842],[97,9926],[97,10009]]",522.5207,525.8073,96.97917302,2.2091,"[{""rating"":96.97917302449544,""responseTime"":2.2090999999046517}]",space,2.757,,525.8073,Definitely yes,100,525.8084,,,[],,0,17,17,17,1,audio/Narrative8Situation8.wav,audio/Narrative7Situation8.wav,audio/Narrative6Situation8.wav,audio/Narrative5Situation8.wav,3,2,5,3,,,,,,,,,,,,,,,,,,,,,,,,,,,,,,,,,,,,,,,
,,,,,62e0532289a4e5d9fedadde1,2025-07-07_21h42.30.875,group3.4_multiperson,2023.2.2,Win32,59.88023952,686c2ebf0248f13bef9af11f,686c8453f80e6cffbb1e55f0,,,,,,,,,,,,,,,,,,,,,,,,,,,,,525.8085,1,audio/Narrative7Situation9.wav,527.8093,,527.8093,536.435,"[[999,0],[999,83],[999,166],[999,250],[999,333],[999,417],[999,500],[999,583],[999,667],[999,750],[999,834],[999,917],[999,1000],[999,1084],[999,1167],[999,1251],[999,1334],[999,1418],[999,1501],[999,1585],[999,1668],[999,1751],[999,1835],[999,1918],[61.5,2002],[58.4,2085],[56.9,2168],[56.4,2252],[56.3,2335],[56.3,2419],[56.3,2502],[56.3,2586],[56.3,2669],[56.3,2752],[56.3,2836],[58.5,2919],[60.9,3003],[63.8,3086],[67.6,3169],[69.8,3253],[70.6,3336],[72.9,3420],[78.1,3503],[82.2,3587],[84.5,3670],[86.4,3753],[88,3837],[90.4,3920],[93,4004],[94.3,4087],[94.7,4171],[95.5,4254],[96.3,4337],[96.5,4421],[96.5,4504],[96.5,4587],[96.5,4671],[96.5,4754],[96.5,4838],[96.5,4921],[96.8,5005],[96.8,5088],[96.9,5172],[96.9,5255],[96.9,5338],[96.9,5422],[97.2,5505],[97.3,5589],[97.3,5672],[97.3,5756],[97.3,5839],[97.3,5922],[97.3,6006],[97.3,6089],[97.3,6172],[97.3,6256],[97.3,6339],[97.3,6423],[97.3,6506],[97.5,6590],[97.5,6673],[97.5,6756],[97.5,6840],[97.5,6923],[97.5,7007],[97.5,7090],[97.5,7173],[97.5,7257],[97.5,7340],[97.5,7424],[97.5,7507],[97.5,7591],[97.5,7674],[97.5,7757],[97.5,7841],[97.5,7924],[97.5,8008],[97.5,8091],[97.5,8174],[97.5,8258],[97.5,8341],[97.5,8425],[97.5,8525],[97.5,8609]]",536.4351,539.2543,97.50000636,0.3048,"[{""rating"":97.50000635782878,""responseTime"":0.3047999999523654}]",space,2.3012,,539.2543,Definitely yes,100,544.6267,100,4.5856,"[{""rating"":100,""responseTime"":4.585600000023874}]",space,0,18,18,18,1,audio/Narrative8Situation9.wav,audio/Narrative7Situation9.wav,audio/Narrative6Situation9.wav,audio/Narrative5Situation9.wav,3,2,4,3,,,4.8424,,,,,,,,,,,,,,,,,,,,,,,,,,,,,,,,,,,,
,,,,,62e0532289a4e5d9fedadde1,2025-07-07_21h42.30.875,group3.4_multiperson,2023.2.2,Win32,59.88023952,686c2ebf0248f13bef9af11f,686c8453f80e6cffbb1e55f0,,,,,,,,,,,,,,,,,,,,,,,,,,,553.4189,555.988,555.9937,2,audio/Narrative13Situation2.wav,555.9937,,555.9937,585.7516,"[[100,327],[100,411],[100,494],[77.6,578],[67.2,661],[61.3,745],[54.8,828],[51.1,911],[51.1,995],[51.1,1078],[51.1,1161],[51.1,1245],[51.1,1328],[51.1,1412],[51.1,1495],[51.1,1579],[51.1,1662],[51.1,1745],[51.1,1829],[51.1,1912],[51.1,1996],[51.1,2079],[51.1,2163],[51.1,2246],[51.1,2329],[51.1,2413],[51.1,2496],[51.1,2580],[51.1,2663],[51.1,2746],[51.1,2830],[51.1,2913],[51.1,2997],[51.1,3080],[51.1,3164],[51.1,3247],[51.1,3330],[51.1,3414],[50.3,3497],[49.4,3581],[49.3,3664],[49.2,3747],[48.9,3831],[48.5,3914],[47.9,3998],[47.6,4081],[47.1,4165],[46.5,4248],[46.1,4331],[45.8,4415],[45.7,4498],[45.4,4582],[45.1,4665],[44.7,4749],[44.4,4832],[43.8,4915],[43.8,4999],[43.8,5082],[43.8,5166],[43.8,5249],[43.8,5332],[43.8,5416],[43.8,5499],[43.8,5583],[43.8,5666],[43.8,5750],[43.8,5833],[43.8,5916],[43.8,6000],[43.8,6083],[43.8,6167],[43.8,6250],[43.8,6333],[43.8,6417],[43.8,6501],[43.8,6584],[43.8,6667],[43.8,6751],[43.8,6834],[43.8,6917],[43.8,7001],[43.8,7084],[43.8,7168],[43.8,7251],[43.8,7334],[43.8,7418],[43.8,7502],[44.2,7585],[44.3,7668],[44.6,7752],[45.2,7835],[46.3,7918],[47.3,8002],[47.4,8085],[47.4,8169],[47.4,8252],[47.4,8336],[47.4,8419],[47.4,8502],[47.4,8586],[47.4,8669],[47.4,8753],[47.4,8836],[47.4,8919],[47.4,9003],[47.4,9086],[47.4,9170],[47.4,9253],[47.5,9336],[46.9,9420],[46.5,9503],[45.7,9587],[45,9670],[44.4,9754],[43.5,9837],[42.5,9920],[41.7,10004],[40.9,10087],[40.4,10171],[40.2,10254],[39.5,10338],[38.8,10421],[37.7,10504],[36.4,10588],[35,10671],[33.9,10755],[32.7,10838],[31.5,10921],[30.6,11005],[29.7,11088],[28.2,11172],[26.9,11255],[25.8,11339],[24.8,11422],[24.1,11505],[23.5,11589],[23,11672],[22.6,11756],[22,11839],[21.1,11923],[19.9,12006],[18.9,12089],[18.6,12173],[17.8,12256],[16.9,12340],[15.8,12423],[14.5,12506],[14.2,12590],[13.8,12673],[13.5,12757],[13.4,12840],[13.2,12923],[12.7,13007],[12.7,13090],[12.2,13174],[11.8,13257],[11.1,13341],[10.7,13424],[10.4,13507],[10.2,13591],[10.2,13675],[10.2,13758],[10.2,13841],[10.2,13925],[10.2,14008],[10.2,14091],[10.2,14175],[10.2,14258],[10.2,14342],[10.2,14425],[10.2,14508],[10.2,14592],[10.2,14675],[10.2,14759],[10.2,14842],[10.2,14926],[10.2,15009],[10.2,15092],[10.2,15176],[10.2,15259],[10.2,15343],[10.2,15426],[10.2,15509],[10.2,15593],[10.2,15676],[10.2,15760],[10.2,15843],[10.2,15927],[10.2,16010],[10.2,16094],[10.2,16177],[10.2,16261],[10.2,16344],[10.2,16427],[10.2,16510],[9.3,16594],[9,16677],[9,16761],[8.3,16844],[7.9,16928],[7.5,17011],[7.1,17094],[6.9,17178],[6.6,17261],[6.6,17345],[6.4,17428],[5.8,17511],[5.5,17595],[5.3,17678],[5.3,17762],[5.3,17845],[5.3,17929],[5.3,18012],[5.3,18095],[5.3,18179],[5.3,18262],[4.4,18346],[4,18429],[4,18512],[4,18596],[4,18679],[4,18763],[4,18846],[4,18930],[3.8,19013],[3.8,19096],[3.8,19180],[3.8,19263],[3.8,19347],[3.8,19430],[3.8,19514],[3.6,19597],[3.5,19680],[3.3,19764],[3.3,19847],[3.3,19931],[3.3,20014],[3.3,20098],[3.3,20181],[3.3,20264],[3.3,20348],[3.3,20431],[3.3,20514],[3.3,20598],[3.3,20681],[3.3,20765],[3.3,20848],[3.3,20932],[3.3,21015],[3.3,21098],[3.3,21182],[5,21265],[8.4,21349],[10.5,21432],[12.7,21516],[15.1,21599],[16.1,21682],[16.9,21766],[17.5,21849],[19.3,21933],[23.2,22016],[28,22100],[31.9,22183],[36.3,22266],[39.3,22350],[41.5,22433],[41.6,22517],[41.6,22600],[42.2,22683],[42.5,22767],[42.8,22850],[43.1,22935],[43.1,23017],[43.4,23101],[43.5,23184],[43.5,23268],[44,23351],[44,23434],[44.3,23518],[44.3,23601],[44.3,23684],[44.3,23768],[44.6,23851],[45.2,23935],[45.3,24018],[45.3,24101],[45.3,24185],[45.3,24268],[45.3,24352],[45.3,24435],[45.3,24519],[45.3,24602],[45.3,24685],[45.3,24769],[45.3,24852],[45.3,24936],[45.3,25019],[45.3,25102],[45.3,25186],[45.3,25269],[45.3,25353],[45.3,25436],[45.3,25520],[45.3,25603],[45.3,25686],[45.3,25770],[45.3,25853],[45.3,25937],[45.3,26020],[45.3,26104],[45.3,26187],[45.3,26270],[45.3,26354],[45.6,26437],[45.6,26521],[45.7,26604],[45.7,26687],[45.7,26771],[45.7,26854],[45.7,26938],[45.7,27021],[45.7,27105],[45.7,27188],[45.7,27271],[45.7,27355],[45.9,27439],[45.9,27522],[45.9,27605],[45.9,27689],[45.9,27772],[45.9,27855],[45.9,27939],[44.7,28022],[43.6,28106],[43.5,28189],[43.5,28272],[43.5,28356],[43.5,28439],[43.5,28523],[43.5,28606],[43.5,28690],[43.5,28773],[43.5,28856],[43.5,28940],[43.5,29023],[43.5,29107],[43.5,29190],[43.5,29274],[43.5,29357],[43.5,29440],[43.5,29524],[43.5,29607],[43.5,29690]]",585.7517,585.7525,,,[],,,,585.7525,Partially,50,585.7532,,,[],,0,0,0,0,1,audio/Narrative13Situation2.wav,audio/Narrative13Situation2.wav,audio/Narrative13Situation2.wav,audio/Narrative13Situation2.wav,2,2,2,2,,,,,544.6269,553.4188,space,8.2879,,,,,,,,,,,,,,,,,,,,,,,,,,,,,,,
,,,,,62e0532289a4e5d9fedadde1,2025-07-07_21h42.30.875,group3.4_multiperson,2023.2.2,Win32,59.88023952,686c2ebf0248f13bef9af11f,686c8453f80e6cffbb1e55f0,,,,,,,,,,,,,,,,,,,,,,,,,,,,,585.7534,2,audio/Narrative6Situation1.wav,587.7535,,587.7536,614.3306,"[[43.6,917],[44.3,1000],[44.9,1084],[45,1167],[45,1251],[45,1334],[45,1418],[45,1501],[45,1584],[45,1668],[45,1751],[45,1835],[45,1918],[45,2001],[45,2085],[45,2168],[45,2252],[45,2335],[45,2419],[45,2502],[45,2585],[45,2669],[45,2752],[45,2836],[45,2919],[45,3003],[45,3086],[45,3169],[45,3253],[45,3336],[45,3420],[45,3503],[45,3586],[45,3670],[45,3753],[45,3837],[45,3920],[45,4004],[45,4087],[45,4170],[45,4254],[45,4337],[45,4421],[45,4504],[45,4587],[45,4671],[45,4754],[45,4838],[45,4921],[45,5004],[45,5088],[45,5171],[45,5255],[45,5338],[45,5422],[45,5505],[45,5588],[45,5672],[45,5755],[45,5839],[45,5922],[45,6006],[45,6089],[45,6172],[45,6256],[45,6339],[43,6423],[42,6506],[41.5,6589],[40.4,6673],[39.2,6756],[37.1,6840],[35.8,6923],[35,7007],[34.3,7090],[33.5,7173],[32.7,7257],[31.4,7340],[30.4,7424],[29.7,7507],[28.9,7591],[28.2,7674],[28.2,7757],[27.6,7841],[27.6,7924],[27.6,8008],[27.6,8091],[27.6,8174],[27.6,8258],[27.6,8341],[27.6,8425],[27.6,8508],[27.6,8591],[27.6,8675],[27.6,8758],[27.6,8842],[27.6,8925],[27.6,9009],[27.6,9092],[27.2,9175],[26.9,9259],[26.9,9342],[26.9,9426],[26.9,9509],[26.9,9593],[26.9,9676],[26.9,9759],[26.9,9843],[26.9,9926],[26.9,10010],[26.9,10093],[25.8,10176],[25.1,10260],[24.7,10343],[24.5,10427],[24.4,10510],[24.4,10594],[24.4,10677],[23.5,10760],[23,10844],[22.5,10927],[22,11011],[21.6,11094],[21.3,11177],[21.1,11261],[20.9,11344],[20.9,11428],[20.7,11511],[20.5,11595],[20.5,11678],[20.5,11761],[20.5,11845],[20.5,11928],[20.5,12012],[20.5,12095],[20.5,12179],[20.5,12262],[20.5,12345],[20.5,12429],[20.5,12512],[20.5,12596],[20.5,12679],[20.5,12762],[20.5,12846],[20.5,12929],[20.4,13013],[20.4,13096],[20.4,13180],[20.4,13263],[20.4,13346],[20.4,13430],[20.4,13513],[20.4,13597],[20.4,13680],[20.2,13763],[19.9,13847],[19.7,13930],[19.2,14014],[18.9,14097],[18.9,14180],[18.6,14264],[18.6,14347],[18.6,14431],[18.6,14514],[18.6,14598],[18.6,14681],[18.6,14765],[18.6,14848],[18.6,14931],[17.8,15015],[15.5,15098],[14.2,15182],[13.1,15265],[12.4,15348],[11.1,15432],[10.4,15515],[10,15599],[10,15682],[10,15766],[10,15849],[10,15932],[10,16016],[10,16099],[9.4,16182],[9.4,16266],[9.4,16349],[9.4,16433],[9.4,16516],[9.2,16600],[8.5,16683],[8.2,16766],[7.9,16850],[6.6,16933],[5.8,17017],[5.4,17100],[5.1,17184],[4.8,17267],[4.4,17351],[4,17434],[4,17517],[4,17601],[4,17684],[4,17767],[4,17851],[4,17934],[4,18018],[4,18101],[4,18184],[4,18268],[4,18352],[4,18435],[4,18518],[4,18602],[4,18685],[4,18769],[4,18852],[4,18935],[4,19019],[4,19102],[4,19186],[4,19269],[4,19352],[4,19436],[4,19519],[4,19603],[4,19686],[4,19769],[4,19853],[4,19936],[4,20020],[4,20103],[4,20187],[4,20270],[4,20353],[4,20437],[4,20520],[4,20604],[4,20687],[6.5,20770],[11.4,20854],[16.1,20937],[18.8,21021],[21.1,21105],[22.4,21188],[23.4,21271],[24.7,21355],[25.4,21438],[26,21521],[27.3,21605],[29.8,21688],[31.3,21771],[32.6,21855],[33.6,21938],[34.7,22022],[35.4,22106],[35.7,22189],[35.7,22272],[35.9,22355],[35.9,22439],[36.1,22522],[36.5,22606],[36.6,22689],[36.9,22773],[37,22856],[37.5,22939],[38.5,23023],[39.6,23106],[40.6,23190],[41.6,23273],[42.6,23356],[43.4,23440],[43.9,23523],[44.2,23607],[44.6,23690],[45,23774],[45.2,23857],[45.3,23940],[45.3,24024],[45.9,24107],[46.3,24191],[46.7,24274],[47.4,24357],[48.1,24441],[48.4,24524],[49.1,24608],[49.1,24691],[49.3,24775],[49.3,24858],[49.3,24941],[49.8,25025],[49.9,25108],[50.1,25192],[50.5,25275],[50.5,25358],[50.8,25442],[51.3,25525],[51.3,25609],[52,25692],[52.4,25776],[52.6,25859],[52.9,25942],[53,26026],[53.1,26109],[53.4,26193],[53.4,26276],[53.6,26360],[53.6,26443],[53.6,26526]]",614.3307,620.8041,47.49999841,5.6206,"[{""rating"":47.4999984105428,""responseTime"":5.620599999904584}]",space,5.9547,,620.8041,Not at all,0,620.8052,,,[],,0,1,1,1,1,audio/Narrative7Situation1.wav,audio/Narrative8Situation1.wav,audio/Narrative5Situation1.wav,audio/Narrative6Situation1.wav,2,5,5,2,,,,,,,,,,,,,,,,,,,,,,,,,,,,,,,,,,,,,,,
,,,,,62e0532289a4e5d9fedadde1,2025-07-07_21h42.30.875,group3.4_multiperson,2023.2.2,Win32,59.88023952,686c2ebf0248f13bef9af11f,686c8453f80e6cffbb1e55f0,,,,,,,,,,,,,,,,,,,,,,,,,,,,,620.8053,2,audio/Narrative6Situation2.wav,623.8068,,623.8068,652.3026,"[[56,917],[55.8,1001],[55.6,1084],[54.8,1168],[52.4,1251],[50.9,1334],[50.3,1418],[50.2,1518],[50.2,1601],[50.2,1685],[50.2,1768],[50.2,1852],[50.2,1935],[50.2,2018],[50.2,2102],[50.2,2185],[50.2,2269],[50.2,2352],[50.2,2435],[50.2,2519],[50.2,2602],[50.2,2686],[50.2,2769],[50.2,2852],[50.2,2936],[50.2,3019],[50.2,3103],[50.2,3186],[50.2,3269],[50.2,3353],[50.2,3436],[50.2,3520],[50.2,3603],[50.2,3686],[50.2,3770],[50.2,3853],[50.2,3937],[50.2,4020],[50.2,4104],[50.2,4187],[50.2,4271],[50.2,4354],[50.2,4437],[50.2,4521],[53.3,4604],[58.6,4688],[61.5,4771],[62.5,4854],[64.2,4938],[65.9,5021],[67.3,5105],[68.5,5188],[69.5,5272],[70.6,5355],[72.7,5438],[74.5,5522],[75.7,5605],[78,5689],[81.5,5772],[83.6,5855],[86.5,5939],[89.3,6022],[90.9,6106],[93.3,6189],[95.2,6273],[96.6,6356],[97.2,6439],[97.2,6523],[97.3,6606],[97.3,6690],[97.3,6773],[97.3,6856],[97.3,6940],[97.3,7023],[97.3,7107],[97.3,7190],[97.3,7274],[97.3,7357],[97.3,7440],[97.3,7524],[97.3,7607],[97.3,7691],[97.3,7774],[97.3,7858],[97.3,7941],[97.3,8025],[97.3,8108],[97.3,8191],[97.3,8275],[97.3,8358],[97.3,8441],[97.3,8525],[97.3,8608],[97.3,8692],[97.3,8775],[97.3,8859],[97.3,8942],[97.3,9026],[97.3,9109],[97.3,9192],[97.3,9276],[97.3,9359],[97.3,9442],[97.3,9526],[97.3,9609],[97.3,9693],[97.3,9776],[97.3,9859],[97.3,9943],[97.3,10026],[97.3,10110],[97.3,10193],[97.3,10277],[97.8,10360],[98.3,10443],[98.6,10527],[99,10610],[100,10694],[100,10777],[100,10860],[100,10944],[100,11027],[100,11111],[100,11194],[100,11278],[100,11361],[100,11444],[100,11528],[100,11611],[100,11695],[100,11778],[100,11862],[100,11945],[100,12028],[100,12112],[100,12195],[100,12279],[100,12362],[100,12445],[100,12529],[100,12612],[100,12696],[100,12779],[100,12863],[100,12946],[100,13030],[100,13113],[100,13197],[100,13280],[100,13363],[100,13447],[100,13530],[100,13613],[100,13697],[100,13780],[100,13864],[100,13947],[100,14030],[100,14114],[100,14197],[100,14281],[100,14364],[100,14447],[100,14531],[100,14614],[100,14698],[100,14781],[100,14865],[100,14948],[100,15032],[100,15115],[100,15198],[100,15282],[100,15365],[100,15448],[100,15532],[100,15615],[100,15699],[100,15782],[100,15866],[100,15949],[100,16033],[100,16116],[100,16199],[100,16283],[100,16366],[100,16450],[100,16533],[100,16616],[100,16700],[100,16783],[100,16867],[100,16950],[100,17033],[100,17117],[100,17200],[100,17285],[100,17367],[100,17451],[100,17534],[100,17617],[100,17701],[100,17784],[100,17868],[100,17951],[100,18034],[100,18118],[100,18201],[100,18285],[100,18368],[100,18452],[100,18535],[100,18618],[100,18702],[100,18785],[100,18869],[100,18952],[100,19036],[100,19119],[100,19202],[100,19286],[100,19369],[100,19453],[100,19536],[100,19620],[100,19703],[100,19786],[100,19870],[100,19953],[100,20036],[100,20120],[100,20203],[100,20287],[100,20370],[100,20454],[100,20537],[100,20620],[100,20704],[100,20787],[100,20871],[100,20954],[100,21038],[100,21121],[100,21205],[100,21288],[100,21371],[100,21455],[100,21538],[100,21621],[100,21705],[100,21788],[100,21872],[100,21955],[100,22039],[100,22122],[100,22205],[100,22289],[100,22372],[100,22456],[100,22539],[100,22622],[100,22706],[100,22789],[100,22873],[100,22956],[100,23039],[100,23123],[100,23207],[100,23290],[100,23373],[100,23457],[100,23540],[100,23623],[100,23707],[100,23790],[100,23874],[100,23957],[100,24040],[100,24124],[100,24207],[100,24291],[100,24375],[100,24458],[100,24541],[100,24625],[100,24708],[100,24791],[100,24875],[100,24958],[100,25042],[100,25125],[100,25208],[100,25309],[100,25392],[100,25475],[100,25559],[100,25642],[100,25726],[100,25809],[100,25892],[100,25976],[100,26059],[100,26143],[100,26226],[100,26310],[100,26393],[100,26476],[100,26560],[100,26643],[100,26727],[100,26810],[100,26894],[100,26977],[100,27060],[100,27144],[100,27227],[100,27311],[100,27394],[100,27477],[100,27561],[100,27645],[100,27728],[100,27811],[100,27894],[100,27978],[100,28061],[100,28145],[100,28228],[100,28312],[100,28395],[100,28479]]",652.3026,660.6109,100,4.5186,"[{""rating"":100,""responseTime"":4.518600000023866}]",space,7.7892,,660.6109,Partially,50,660.6121,,,[],,0,2,2,2,1,audio/Narrative7Situation2.wav,audio/Narrative8Situation2.wav,audio/Narrative5Situation2.wav,audio/Narrative6Situation2.wav,3,3,3,3,,,,,,,,,,,,,,,,,,,,,,,,,,,,,,,,,,,,,,,
,,,,,62e0532289a4e5d9fedadde1,2025-07-07_21h42.30.875,group3.4_multiperson,2023.2.2,Win32,59.88023952,686c2ebf0248f13bef9af11f,686c8453f80e6cffbb1e55f0,,,,,,,,,,,,,,,,,,,,,,,,,,,,,660.6122,2,audio/Narrative6Situation3.wav,665.616,,665.616,678.2289,"[[99.6,1835],[93.3,1918],[88.1,2002],[68.2,2168],[48.1,2252],[37.4,2335],[36.7,2419],[38.5,2502],[41.1,2586],[42.1,2669],[42.4,2752],[42.4,2836],[42.4,2919],[40.2,3003],[34.6,3086],[32.7,3169],[32.7,3253],[32.7,3336],[32.7,3420],[32.7,3503],[32.7,3586],[32.7,3670],[32.7,3753],[32.7,3837],[32.7,3920],[32.7,4004],[32.7,4087],[32.7,4170],[32.7,4254],[32.7,4337],[32.7,4421],[32.2,4504],[31,4588],[30.7,4671],[30.7,4754],[30.7,4838],[30.7,4921],[30.7,5005],[30.7,5088],[30.7,5171],[30.7,5256],[30.7,5338],[30.7,5422],[30.7,5505],[30.7,5589],[30.7,5672],[30.7,5755],[30.7,5839],[30.7,5922],[30.7,6006],[30.7,6089],[30.7,6173],[30.7,6256],[30.7,6339],[30.7,6423],[30.7,6506],[30.7,6589],[31.3,6673],[31.6,6757],[31.9,6840],[32.3,6923],[32.7,7007],[33.1,7090],[33.8,7173],[33.8,7257],[33.8,7340],[33.8,7424],[33.8,7507],[33.8,7591],[33.8,7674],[34.2,7757],[34.7,7841],[34.9,7924],[35.4,8008],[35.8,8091],[36.5,8175],[37,8258],[37.5,8341],[38,8425],[38.2,8508],[38.5,8592],[39.5,8675],[40.8,8759],[42.4,8842],[43.2,8925],[45.3,9009],[46.7,9092],[47.4,9176],[48,9259],[48.4,9342],[48.8,9426],[48.9,9509],[48.9,9593],[48.9,9676],[48.9,9759],[48.9,9843],[49.5,9926],[49.8,10010],[49.8,10093],[49.8,10177],[49.8,10260],[49.8,10343],[49.8,10427],[49.8,10510],[49.8,10594],[49.8,10677],[49.8,10761],[49.8,10844],[49.8,10927],[49.8,11011],[49.8,11094],[49.8,11177],[50,11261],[50.8,11344],[51,11428],[51,11511],[51,11595],[51,11678],[51,11761],[51,11845],[51,11928],[51,12012],[51,12095],[51,12178],[51,12262],[51,12345],[51,12429],[51,12512],[51,12596]]",678.2289,684.0684,61.04166508,4.7795,"[{""rating"":61.04166507720947,""responseTime"":4.7794999999999845}]",space,5.3145,,684.0684,Partially,50,688.4726,50.41666826,3.1797,"[{""rating"":50.41666825612386,""responseTime"":3.17970000004766}]",space,0,3,3,3,1,audio/Narrative7Situation3.wav,audio/Narrative8Situation3.wav,audio/Narrative5Situation3.wav,audio/Narrative6Situation3.wav,8,4,3,5,,,3.8838,,,,,,,,,,,,,,,,,,,,,,,,,,,,,,,,,,,,
,,,,,62e0532289a4e5d9fedadde1,2025-07-07_21h42.30.875,group3.4_multiperson,2023.2.2,Win32,59.88023952,686c2ebf0248f13bef9af11f,686c8453f80e6cffbb1e55f0,,,,,,,,,,,,,,,,,,,,,,,,,,,,,688.4728,2,audio/Narrative6Situation4.wav,690.4746,,690.4746,703.0875,"[[50.1,834],[49.7,917],[49.6,1001],[49.4,1084],[49.4,1168],[49.4,1251],[49.4,1334],[49.4,1418],[49.4,1501],[49.4,1584],[49.4,1668],[49.4,1751],[50,1835],[50.3,1918],[50.5,2001],[50.5,2085],[50.5,2168],[50.5,2252],[50.5,2335],[50.5,2419],[50.5,2502],[50.5,2585],[50.5,2669],[50.5,2752],[50.5,2836],[50.5,2919],[50.5,3003],[50.5,3086],[50.5,3169],[50.5,3253],[50.5,3336],[50.5,3420],[50.5,3503],[50.5,3586],[50.5,3670],[50.5,3753],[50.5,3837],[50.5,3920],[50.5,4003],[50.5,4087],[50.5,4170],[50.5,4254],[50.5,4337],[50.5,4421],[50.5,4504],[50.5,4587],[50.5,4671],[50.5,4754],[50.5,4838],[50.5,4921],[50.5,5005],[50.5,5088],[50.5,5171],[50.5,5255],[50.5,5338],[50.5,5422],[50.5,5505],[50.5,5588],[50.5,5672],[50.5,5755],[50.5,5839],[50.5,5922],[50.5,6006],[50.5,6089],[50.5,6172],[50.5,6256],[50.5,6339],[50.5,6423],[50.5,6506],[50.5,6589],[50.5,6673],[50.5,6756],[50.5,6840],[50.5,6923],[50.5,7007],[50.4,7090],[50.4,7173],[50.4,7257],[50.4,7340],[50.3,7424],[49.3,7507],[48.3,7591],[47.3,7674],[46.5,7757],[45.5,7841],[44.4,7924],[42.5,8008],[40.8,8091],[39.6,8174],[38.4,8258],[37.4,8341],[36.6,8425],[35.3,8508],[34.6,8592],[33.8,8675],[33.2,8758],[32.7,8842],[32.1,8925],[31.5,9009],[31.1,9092],[30.9,9175],[30.6,9259],[30.3,9342],[30,9426],[29.6,9509],[29.3,9593],[29,9676],[28.9,9759],[28.6,9843],[28.3,9926],[28.3,10010],[28.3,10093],[28.3,10176],[28.3,10260],[28.3,10343],[28.3,10427],[28.3,10510],[28.3,10594],[28.3,10677],[28.3,10760],[28.3,10844],[28.3,10927],[28.3,11011],[28.3,11094],[28.3,11177],[28.3,11261],[28.3,11344],[28.3,11428],[28.3,11511],[28.3,11595],[28.3,11678],[28.3,11762],[28.3,11845],[28.9,11928],[31.3,12012],[34.8,12095],[38.3,12179],[40.5,12262],[40.7,12345],[40.7,12429],[40.7,12512],[40.7,12596]]",703.0875,710.8289,36.66667144,5.6911,"[{""rating"":36.666671435038246,""responseTime"":5.69110000002388}]",space,7.2201,,710.8289,Not at all,0,710.8301,,,[],,0,4,4,4,1,audio/Narrative7Situation4.wav,audio/Narrative8Situation4.wav,audio/Narrative5Situation4.wav,audio/Narrative6Situation4.wav,3,3,1,2,,,,,,,,,,,,,,,,,,,,,,,,,,,,,,,,,,,,,,,
,,,,,62e0532289a4e5d9fedadde1,2025-07-07_21h42.30.875,group3.4_multiperson,2023.2.2,Win32,59.88023952,686c2ebf0248f13bef9af11f,686c8453f80e6cffbb1e55f0,,,,,,,,,,,,,,,,,,,,,,,,,,,,,710.8301,2,audio/Narrative6Situation5.wav,712.8307,,712.8307,720.7721,"[[41,917],[43.9,1000],[45,1084],[45.3,1167],[45.3,1251],[45.3,1334],[45.3,1418],[45.3,1501],[45.3,1584],[45.3,1668],[46,1751],[46.7,1835],[48.4,1918],[51.4,2002],[55.5,2085],[62.2,2168],[69.5,2252],[76.9,2335],[82.5,2419],[88.7,2502],[92.6,2585],[93.3,2669],[93.3,2753],[93.3,2836],[93.3,2919],[93.3,3003],[93.3,3086],[93.3,3169],[93.3,3253],[93.3,3336],[93.3,3420],[93.3,3503],[93.3,3586],[93.3,3670],[93.3,3753],[93.3,3837],[93.3,3920],[93.3,4004],[93.3,4087],[93.3,4170],[93.3,4254],[92.8,4337],[89,4421],[87.3,4504],[87.3,4587],[87.3,4671],[87.3,4754],[87.3,4838],[87.3,4921],[87.3,5005],[87.3,5088],[87.3,5171],[90.2,5255],[95.5,5338],[96.3,5422],[96.7,5505],[97.2,5589],[97.2,5672],[97.2,5755],[97.2,5839],[97.2,5922],[97.2,6006],[97.5,6089],[97.9,6172],[97.9,6256],[97.9,6339],[97.9,6423],[97.9,6506],[97.9,6590],[97.9,6673],[97.9,6756],[97.9,6840],[97.9,6923],[97.9,7007],[97.9,7090],[97.9,7173],[97.9,7257],[97.9,7340],[97.9,7424],[97.9,7507],[97.9,7591],[97.9,7674],[97.9,7757],[97.9,7841],[97.9,7924]]",720.7722,726.5613,100,3.915,"[{""rating"":100,""responseTime"":3.9149999999999636}]",space,5.2581,,726.5613,Not at all,0,726.5623,,,[],,0,5,5,5,1,audio/Narrative7Situation5.wav,audio/Narrative8Situation5.wav,audio/Narrative5Situation5.wav,audio/Narrative6Situation5.wav,5,2,5,2,,,,,,,,,,,,,,,,,,,,,,,,,,,,,,,,,,,,,,,
,,,,,62e0532289a4e5d9fedadde1,2025-07-07_21h42.30.875,group3.4_multiperson,2023.2.2,Win32,59.88023952,686c2ebf0248f13bef9af11f,686c8453f80e6cffbb1e55f0,,,,,,,,,,,,,,,,,,,,,,,,,,,,,726.5623,2,audio/Narrative6Situation6.wav,728.5636,,728.5636,739.6415,"[[999,0],[999,83],[999,166],[999,249],[999,333],[999,416],[999,500],[999,583],[999,667],[999,750],[999,834],[999,917],[999,1000],[999,1084],[999,1167],[999,1250],[999,1334],[999,1417],[999,1501],[999,1584],[999,1667],[999,1751],[999,1834],[999,1918],[999,2001],[999,2085],[999,2168],[999,2251],[999,2335],[999,2418],[999,2502],[999,2585],[999,2668],[999,2752],[999,2835],[999,2919],[999,3002],[999,3086],[999,3169],[999,3252],[999,3336],[999,3419],[999,3503],[46.8,3586],[53.7,3920],[54,4003],[54,4087],[54,4170],[54,4253],[54,4337],[54,4420],[54,4504],[54,4587],[54,4671],[54,4754],[54,4837],[54,4921],[54,5004],[54,5088],[54,5171],[54,5254],[54.7,5338],[57,5421],[61.4,5505],[64,5588],[64.5,5672],[64.5,5755],[65.6,5839],[67.7,5922],[70.8,6005],[75.4,6089],[78.6,6172],[82.1,6256],[83.2,6339],[84.7,6422],[84.9,6506],[84.9,6589],[84.9,6673],[84.9,6756],[84.9,6839],[84.9,6923],[84.9,7006],[84.9,7090],[84.9,7173],[84.9,7257],[84.9,7340],[84.9,7423],[85.7,7507],[86.7,7590],[88,7674],[88.7,7757],[89.3,7840],[89.8,7924],[90.3,8007],[91.1,8091],[91.9,8174],[92.3,8258],[93.6,8341],[94.5,8424],[94.8,8508],[94.8,8591],[94.8,8675],[94.8,8758],[94.8,8842],[95.1,8925],[95.4,9008],[96.1,9092],[96.9,9175],[96.9,9259],[96.9,9342],[96.9,9425],[96.9,9509],[96.9,9592],[96.3,9676],[96.3,9759],[96.3,9842],[96.5,9926],[96.9,10009],[97.8,10093],[98.2,10176],[98.5,10260],[100,10343],[100,10426],[100,10510],[100,10593],[100,10677],[100,10760],[100,10843],[100,10927],[100,11010]]",739.6415,745.6641,100,4.4757,"[{""rating"":100,""responseTime"":4.475699999928338}]",space,5.4959,,745.6641,Not at all,0,745.6649,,,[],,0,6,6,6,1,audio/Narrative7Situation6.wav,audio/Narrative8Situation6.wav,audio/Narrative5Situation6.wav,audio/Narrative6Situation6.wav,3,2,3,2,,,,,,,,,,,,,,,,,,,,,,,,,,,,,,,,,,,,,,,
,,,,,62e0532289a4e5d9fedadde1,2025-07-07_21h42.30.875,group3.4_multiperson,2023.2.2,Win32,59.88023952,686c2ebf0248f13bef9af11f,686c8453f80e6cffbb1e55f0,,,,,,,,,,,,,,,,,,,,,,,,,,,,,745.6651,2,audio/Narrative6Situation7.wav,750.6691,,750.6691,775.511,"[[999,0],[999,83],[999,166],[999,250],[999,333],[999,417],[999,500],[999,583],[999,667],[999,750],[999,834],[999,917],[999,1000],[999,1084],[999,1167],[999,1251],[52.7,1334],[50.6,1418],[50.5,1501],[50.5,1585],[50.5,1668],[50.5,1751],[50.5,1835],[50.5,1918],[50.5,2002],[50.5,2085],[50.5,2168],[50.5,2252],[50.5,2335],[50.5,2419],[50.5,2502],[50.5,2586],[50.5,2669],[50.5,2752],[50.5,2836],[50.5,2919],[50.5,3003],[50.5,3086],[50.5,3170],[49.6,3253],[48.5,3336],[46.9,3420],[46,3503],[45.1,3587],[44.7,3670],[44.4,3753],[44.4,3837],[44.1,3920],[43.9,4004],[43.5,4087],[43.3,4170],[43.3,4254],[43.3,4337],[42.9,4421],[42.6,4504],[42.5,4588],[42.5,4671],[42.5,4754],[42.5,4838],[42.5,4921],[42.5,5005],[42.5,5088],[42.3,5172],[41.6,5255],[41.6,5338],[41.6,5422],[41.6,5505],[41.6,5588],[41.6,5672],[41.6,5755],[41.6,5839],[41.6,5922],[40.7,6006],[39.4,6089],[38.4,6173],[37.7,6256],[36.9,6339],[35.6,6423],[33.9,6506],[33,6589],[32.4,6673],[31.8,6757],[31.6,6840],[31,6923],[30.7,7007],[30.7,7090],[30.7,7174],[30.7,7257],[30.7,7340],[31.9,7424],[35.8,7507],[40.4,7591],[43.4,7674],[46.4,7757],[49.4,7841],[50.4,7924],[50.5,8008],[50.5,8091],[50.5,8174],[50.5,8258],[51.6,8341],[52.6,8425],[54.3,8508],[55.1,8592],[56.6,8675],[57.3,8759],[57.8,8842],[58.3,8925],[58.9,9009],[59.7,9092],[60.1,9175],[60.9,9259],[61.5,9342],[62.2,9426],[62.5,9509],[63,9593],[63.5,9676],[64,9759],[64.2,9843],[64.2,9926],[64.2,10010],[64.2,10093],[64.2,10193],[64.8,10277],[65.3,10360],[66,10443],[66.4,10527],[66.7,10610],[67.1,10694],[67.4,10777],[67.7,10861],[68.4,10944],[68.8,11027],[69.1,11111],[69.1,11194],[69.1,11278],[69.1,11361],[69.4,11444],[70.2,11528],[70.8,11611],[71.6,11695],[72.6,11778],[73.3,11862],[73.6,11945],[74,12028],[74.3,12112],[74.8,12195],[75.3,12279],[76,12362],[76.5,12445],[76.6,12529],[76.6,12612],[76.6,12696],[76.6,12779],[76.6,12863],[76.6,12946],[76.6,13029],[76.6,13113],[76.6,13196],[76.6,13280],[76.6,13363],[76.6,13447],[76.6,13530],[76.6,13613],[76.6,13697],[76.6,13780],[76.6,13864],[76.6,13947],[76.6,14030],[76.6,14114],[76.6,14197],[76.6,14281],[76.6,14364],[76.6,14448],[77.5,14531],[77.5,14614],[77.5,14698],[77.5,14781],[77.5,14865],[77.5,14948],[77.5,15032],[77.5,15115],[77.6,15198],[77.6,15282],[77.6,15365],[77.6,15449],[77.6,15532],[77.6,15615],[77.6,15699],[77.6,15782],[77.6,15866],[77.6,15949],[77.6,16032],[77.6,16116],[77.6,16199],[77.6,16283],[77.6,16366],[77.6,16450],[77.6,16533],[77.6,16616],[77.6,16700],[77.6,16783],[77.6,16867],[77.4,16950],[76.7,17034],[76.1,17117],[75.8,17200],[75.2,17284],[74.6,17367],[74.6,17451],[74.6,17534],[74.4,17617],[74.4,17701],[74.4,17784],[74.4,17868],[74.4,17951],[74.2,18035],[74.1,18118],[74.1,18202],[73.8,18285],[73.5,18368],[73.3,18452],[72.8,18535],[72.8,18618],[72.4,18702],[72.1,18786],[71.8,18869],[71.4,18952],[71.3,19036],[71.3,19119],[71.3,19202],[71.3,19286],[71.3,19369],[71.3,19453],[71.3,19536],[71.3,19619],[70.7,19703],[70.6,19787],[70.6,19870],[70.6,19953],[70.6,20037],[70.3,20120],[70.2,20203],[69.9,20287],[69.6,20370],[69.6,20454],[69,20537],[68.9,20621],[68.9,20704],[68.5,20787],[68.5,20871],[68.5,20954],[68.5,21038],[68.5,21121],[68.5,21204],[68.5,21288],[67.8,21371],[66.9,21455],[66.8,21538],[66.1,21621],[65.9,21705],[65.7,21788],[65.7,21872],[65.7,21956],[65.4,22039],[65.4,22122],[65.4,22205],[65.3,22289],[65,22372],[65,22456],[65,22539],[64.7,22623],[64.7,22706],[64.7,22789],[64.7,22873],[64.7,22956],[64.7,23039],[64.7,23123],[64,23207],[63.6,23290],[63.1,23373],[62.9,23457],[62.9,23540],[62.9,23624],[62.9,23707],[62.9,23790],[62.9,23874],[62.9,23957],[62.9,24041],[62.9,24124],[62.9,24208],[62.9,24291],[62.9,24375],[62.9,24458],[62.9,24541],[62.9,24625],[62.9,24708],[62.9,24791]]",775.5111,780.1491,66.66666667,3.7929,"[{""rating"":66.66666666666666,""responseTime"":3.7928999999760435}]",space,4.1198,,780.1491,Not at all,0,780.1498,,,[],,0,7,7,7,1,audio/Narrative7Situation7.wav,audio/Narrative8Situation7.wav,audio/Narrative5Situation7.wav,audio/Narrative6Situation7.wav,5,3,4,5,,,,,,,,,,,,,,,,,,,,,,,,,,,,,,,,,,,,,,,
,,,,,62e0532289a4e5d9fedadde1,2025-07-07_21h42.30.875,group3.4_multiperson,2023.2.2,Win32,59.88023952,686c2ebf0248f13bef9af11f,686c8453f80e6cffbb1e55f0,,,,,,,,,,,,,,,,,,,,,,,,,,,,,780.1499,2,audio/Narrative6Situation8.wav,785.1543,,785.1544,792.0111,"[[64.4,667],[55.1,750],[48.6,834],[48.5,917],[48.5,1000],[48.5,1084],[48.5,1167],[48.5,1250],[48.5,1334],[48.5,1417],[48.5,1501],[48.5,1585],[48.5,1668],[48.5,1751],[48.5,1835],[48.5,1918],[48.5,2001],[48.5,2085],[48.5,2168],[48.5,2251],[48.5,2335],[48.5,2418],[48.5,2502],[48.5,2585],[48.5,2669],[48.5,2752],[48.5,2835],[48.5,2919],[48.5,3002],[48.5,3086],[48.5,3169],[48.5,3252],[48.5,3336],[48.5,3419],[48.5,3503],[48.5,3586],[48.5,3670],[48.5,3753],[48.5,3836],[48.5,3920],[48.5,4003],[47.6,4087],[46.6,4170],[45.6,4254],[44.4,4337],[43,4420],[42.7,4504],[42.7,4587],[42.7,4671],[42.7,4754],[42.7,4837],[42.7,4921],[42.7,5004],[42.7,5088],[42.7,5171],[42.7,5255],[42.7,5338],[42.7,5422],[42.7,5505],[42.7,5588],[42.7,5672],[42.7,5755],[42.7,5838],[42.7,5922],[42.7,6005],[42.7,6089],[42.7,6172],[42.7,6256],[42.3,6339],[41.2,6422],[40.8,6506],[40.8,6589],[40.8,6673],[40.8,6756],[40.8,6840]]",792.0112,796.3656,0,3.0904,"[{""rating"":0,""responseTime"":3.0903999999759435}]",space,3.8304,,796.3656,Definitely yes,100,796.3668,,,[],,0,8,8,8,1,audio/Narrative7Situation8.wav,audio/Narrative8Situation8.wav,audio/Narrative5Situation8.wav,audio/Narrative6Situation8.wav,2,3,3,5,,,,,,,,,,,,,,,,,,,,,,,,,,,,,,,,,,,,,,,
,,,,,62e0532289a4e5d9fedadde1,2025-07-07_21h42.30.875,group3.4_multiperson,2023.2.2,Win32,59.88023952,686c2ebf0248f13bef9af11f,686c8453f80e6cffbb1e55f0,,,,,,,,,,,,,,,,,,,,,,,,,,,,,796.3669,2,audio/Narrative6Situation9.wav,800.3696,,800.3696,810.3131,"[[60,584],[56.9,667],[54.8,751],[52.7,834],[51.3,917],[50.9,1001],[50.9,1084],[50.9,1167],[50.9,1251],[50.9,1334],[50.9,1434],[50.9,1518],[50.9,1601],[50.9,1685],[50.9,1768],[50.9,1851],[50.9,1935],[50.9,2018],[50.9,2102],[50.9,2185],[50.9,2268],[50.9,2352],[50.9,2435],[50.9,2519],[50.9,2602],[50.9,2686],[50.9,2769],[48.3,2853],[44.9,2936],[41.1,3019],[38.6,3103],[37.9,3186],[37.2,3269],[36.6,3353],[35.5,3436],[32.6,3520],[29.4,3603],[27.7,3687],[27,3770],[26.7,3853],[26.7,3937],[26.7,4020],[26.7,4104],[26.7,4187],[26.7,4271],[26.7,4354],[26.7,4437],[26.7,4521],[26.7,4604],[25.8,4688],[25.3,4771],[25.3,4855],[25.2,4938],[24.6,5021],[23.5,5105],[22.9,5188],[22.5,5272],[22,5355],[21.7,5438],[21.1,5522],[20.9,5605],[20.4,5689],[20.4,5772],[19.9,5855],[19.6,5939],[19.2,6022],[19,6106],[19,6189],[19,6273],[19,6356],[19,6439],[18.3,6523],[17.8,6606],[16.9,6690],[14.8,6773],[13.4,6857],[12.7,6940],[11.7,7023],[11.1,7107],[10.6,7190],[10.1,7274],[9.8,7357],[9.5,7440],[9.2,7524],[8.6,7607],[8.1,7691],[7.7,7774],[7.1,7858],[6.4,7941],[5.5,8024],[4.8,8108],[4.3,8191],[4,8275],[3.5,8358],[3.4,8441],[2.9,8525],[2.5,8608],[2.5,8692],[2.2,8775],[2.2,8859],[2.2,8942],[2.2,9025],[2.2,9109],[2.2,9192],[2.2,9276],[2.2,9359],[2.2,9442],[2.2,9526],[2.2,9609],[1.5,9693],[1.4,9776],[1.4,9860],[1.4,9943]]",810.3131,813.8,0,2.3453,"[{""rating"":0,""responseTime"":2.3452999999522035}]",space,2.9632,,813.8,Not at all,0,813.801,,,[],,0,9,9,9,1,audio/Narrative7Situation9.wav,audio/Narrative8Situation9.wav,audio/Narrative5Situation9.wav,audio/Narrative6Situation9.wav,2,3,3,4,,,,,,,,,,,,,,,,,,,,,,,,,,,,,,,,,,,,,,,
,,,,,62e0532289a4e5d9fedadde1,2025-07-07_21h42.30.875,group3.4_multiperson,2023.2.2,Win32,59.88023952,686c2ebf0248f13bef9af11f,686c8453f80e6cffbb1e55f0,,,,,,,,,,,,,,,,,,,,,,,,,,,,,813.8011,2,audio/Narrative5Situation1.wav,818.805,,818.8051,832.0851,"[[25.3,834],[30.2,917],[36.4,1000],[41.9,1084],[46.1,1167],[49.9,1251],[50.5,1334],[50.5,1418],[50.5,1501],[50.5,1584],[50.5,1668],[50.5,1751],[50.5,1835],[50.5,1918],[50.5,2001],[50.5,2085],[50.5,2168],[50.5,2252],[50.4,2335],[50.4,2419],[50.1,2502],[50.1,2585],[49.7,2669],[49.6,2752],[49.4,2836],[49.4,2919],[49.4,3002],[49.3,3086],[49.1,3169],[49.1,3253],[49.1,3336],[48.6,3420],[48.6,3503],[48,3586],[48,3670],[48,3753],[48,3837],[48,3920],[48,4003],[48,4087],[48,4170],[48,4254],[47.9,4337],[47.9,4421],[47,4504],[45.1,4587],[44.5,4689],[43.1,4771],[41.4,4854],[40.3,4938],[39.2,5021],[38.5,5105],[38.4,5188],[38.4,5271],[38.1,5355],[37.5,5438],[37.5,5522],[36.7,5605],[36,5689],[35.2,5772],[34.7,5855],[34.7,5939],[34,6022],[33.5,6106],[33.4,6189],[32.1,6272],[31.9,6356],[31.9,6439],[31.9,6523],[31.5,6606],[30.8,6690],[30.8,6773],[30.8,6856],[30.8,6940],[30.8,7023],[29.8,7107],[29.3,7190],[28.7,7273],[28.2,7357],[27.7,7440],[26.9,7524],[26.5,7607],[25.9,7691],[25.8,7774],[25.7,7857],[25.4,7941],[25.1,8024],[24.9,8108],[24.2,8191],[23.6,8275],[23.4,8358],[23.4,8441],[23.3,8525],[23.3,8608],[23.3,8692],[23.3,8775],[23.3,8858],[23,8942],[23,9026],[23,9109],[23,9192],[23,9275],[23,9359],[22.7,9442],[22.7,9526],[22.7,9609],[22.7,9693],[22.4,9776],[22,9859],[21.3,9943],[20.1,10026],[18.9,10110],[18.5,10193],[18,10277],[17.8,10360],[17.3,10443],[16.8,10527],[16.5,10610],[16.4,10694],[16.4,10777],[16.4,10861],[16.4,10944],[16,11027],[15.7,11111],[15.7,11194],[15.7,11278],[15.7,11361],[15.7,11444],[15.3,11528],[15.3,11611],[15.3,11695],[15.3,11778],[15.3,11861],[15.3,11945],[15.3,12028],[15.3,12112],[15.3,12195],[15.3,12278],[15.3,12362],[15.3,12445],[15.3,12529],[15.3,12612],[18.3,12696],[31,12779],[36.8,12863],[39.9,12946],[42.2,13029],[43,13113],[44,13196],[44.1,13279]]",832.0852,836.9902,31.77083333,3.9241,"[{""rating"":31.770833333333336,""responseTime"":3.9240999999046835}]",space,4.3712,,836.9902,Definitely yes,100,836.9913,,,[],,0,10,10,10,1,audio/Narrative8Situation1.wav,audio/Narrative7Situation1.wav,audio/Narrative6Situation1.wav,audio/Narrative5Situation1.wav,5,2,2,5,,,,,,,,,,,,,,,,,,,,,,,,,,,,,,,,,,,,,,,
,,,,,62e0532289a4e5d9fedadde1,2025-07-07_21h42.30.875,group3.4_multiperson,2023.2.2,Win32,59.88023952,686c2ebf0248f13bef9af11f,686c8453f80e6cffbb1e55f0,,,,,,,,,,,,,,,,,,,,,,,,,,,,,836.9914,2,audio/Narrative5Situation2.wav,839.9934,,839.9934,869.4399,"[[35.3,1835],[38.8,1918],[39.9,2001],[40.9,2085],[41.7,2168],[41.7,2252],[41.7,2335],[41.7,2418],[41.7,2502],[41.7,2585],[41.7,2669],[41.7,2752],[41.7,2836],[41.9,2919],[41.9,3002],[41.9,3086],[41.9,3169],[41.9,3253],[41.9,3336],[41.9,3419],[41.9,3503],[41.4,3586],[34.6,3670],[27.9,3753],[24.8,3837],[22.4,3920],[22,4003],[22,4087],[22,4170],[22,4254],[22,4337],[22,4420],[22,4504],[22,4587],[22,4671],[22,4754],[22,4838],[22,4921],[22,5004],[22,5088],[22,5171],[22,5255],[22,5338],[22,5422],[22,5505],[22,5588],[22,5672],[22,5755],[22,5839],[22,5922],[22,6005],[22,6089],[22,6172],[22,6256],[22.2,6339],[23.4,6423],[25,6506],[26.4,6589],[26.5,6673],[26.5,6756],[26.5,6840],[26.5,6923],[26.5,7006],[26.5,7090],[26.5,7173],[26.5,7257],[26.5,7340],[26.5,7423],[26.5,7507],[26.5,7590],[26.5,7674],[26.5,7757],[26.5,7841],[26.5,7924],[26.5,8008],[27.1,8091],[34.2,8174],[42.6,8258],[53.3,8341],[62.8,8425],[66.1,8508],[66.4,8591],[66.4,8675],[66.4,8758],[66.4,8842],[66.4,8925],[66.4,9008],[66.4,9092],[67.4,9175],[68.8,9259],[69.5,9342],[69.5,9426],[69.5,9509],[70.5,9593],[71.6,9676],[73,9759],[73.8,9843],[74.4,9926],[75.1,10009],[75.2,10093],[75.4,10176],[76.6,10260],[77.6,10343],[78.6,10427],[79.1,10510],[79.5,10593],[79.7,10677],[79.7,10760],[79.7,10844],[80.1,10927],[80.5,11011],[80.7,11094],[80.7,11177],[80.7,11261],[80.7,11344],[80.7,11428],[80.7,11511],[80.7,11594],[80.7,11678],[81.8,11761],[81.8,11845],[81.8,11928],[82.3,12012],[82.3,12095],[82.3,12179],[82.3,12262],[82.3,12345],[82.3,12429],[82.3,12512],[82.3,12596],[82.3,12679],[82.3,12763],[82.3,12846],[82.3,12929],[82.3,13013],[82.3,13096],[82.3,13179],[82.3,13263],[82.3,13346],[82.3,13430],[82.3,13513],[82.3,13597],[82.3,13680],[82.3,13763],[82.3,13847],[82.3,13930],[83.9,14014],[84.4,14097],[84.6,14180],[85.4,14264],[86.4,14347],[87,14431],[87.4,14514],[88,14598],[88,14681],[88.2,14764],[88.2,14848],[88.7,14931],[89.9,15015],[91,15098],[91.4,15181],[91.6,15265],[91.9,15348],[92.1,15432],[92.6,15515],[92.7,15599],[92.7,15682],[93,15765],[93,15849],[93.3,15932],[93.4,16016],[93.4,16099],[93.8,16182],[93.8,16266],[94.2,16349],[94.7,16433],[94.7,16516],[94.7,16600],[95.1,16683],[95.5,16766],[95.8,16850],[96.5,16933],[96.7,17017],[97.3,17100],[97.3,17183],[97.6,17267],[97.9,17350],[98.2,17434],[98.2,17517],[98.2,17601],[98.2,17684],[98.2,17767],[98.2,17851],[98.2,17934],[98.2,18018],[98.2,18101],[98.2,18184],[98.2,18268],[98.3,18351],[98.6,18435],[99.3,18518],[99.5,18602],[99.5,18685],[99.5,18768],[99.5,18852],[99.5,18935],[99.5,19019],[99.5,19102],[99.5,19186],[99.5,19269],[99.5,19352],[99.5,19436],[99.5,19519],[99.5,19603],[99.5,19686],[99.5,19769],[99.5,19853],[99.5,19936],[99.5,20020],[99.5,20103],[99.5,20187],[99.5,20270],[99.5,20353],[99.5,20437],[99.5,20520],[99.5,20604],[99.5,20687],[99.5,20770],[99.5,20854],[99.5,20937],[99.5,21021],[99.5,21104],[99.5,21188],[99.5,21271],[99.5,21354],[99.5,21438],[99.5,21521],[99.5,21605],[99.5,21688],[99.5,21772],[99.5,21855],[99.5,21938],[99.5,22022],[99.5,22105],[99.5,22189],[99.5,22272],[99.5,22355],[99.5,22439],[99.5,22539],[99.5,22622],[99.5,22706],[99.5,22789],[99.5,22873],[99.5,22956],[99.5,23039],[99.5,23123],[99.4,23206],[99.4,23290],[99.4,23373],[99.4,23457],[99.4,23540],[99.4,23623],[99.4,23707],[99.4,23790],[99.4,23874],[99.4,23957],[99.4,24041],[99.4,24124],[99.4,24207],[99.4,24291],[99.4,24374],[99.4,24458],[99.4,24541],[99.4,24624],[99.4,24708],[99.4,24791],[99.4,24875],[99.4,24958],[99.4,25041],[99.4,25125],[99.4,25208],[99.4,25292],[99.4,25375],[99.4,25459],[99.4,25542],[99.4,25625],[99.4,25709],[99.4,25792],[99.4,25876],[99.4,25959],[99.4,26043],[99.4,26126],[99.4,26209],[99.4,26293],[99.4,26376],[99.4,26460],[99.4,26543],[99.4,26626],[99.4,26710],[99.4,26793],[99.4,26877],[99.4,26960],[99.4,27044],[99.4,27127],[99.4,27210],[99.4,27294],[99.4,27377],[99.4,27461],[99.4,27544],[99.4,27627],[99.4,27711],[99.4,27794],[99.4,27878],[99.4,27961],[99.4,28044],[99.4,28128],[99.4,28212],[99.4,28295],[99.4,28378],[99.4,28461],[99.4,28545],[99.4,28628],[99.4,28712],[99.4,28795],[99.4,28879],[99.4,28962],[99.4,29046],[99.4,29129],[99.4,29212],[99.4,29296],[99.4,29379]]",869.44,876.1967,86.14583015,6.2639,"[{""rating"":83.75000953674316,""responseTime"":3.9706000000239783},{""rating"":86.14583015441895,""responseTime"":6.263899999976275}]",space,6.2307,,876.1968,Definitely yes,100,876.1974,,,[],,0,11,11,11,1,audio/Narrative8Situation2.wav,audio/Narrative7Situation2.wav,audio/Narrative6Situation2.wav,audio/Narrative5Situation2.wav,3,3,3,3,,,,,,,,,,,,,,,,,,,,,,,,,,,,,,,,,,,,,,,
,,,,,62e0532289a4e5d9fedadde1,2025-07-07_21h42.30.875,group3.4_multiperson,2023.2.2,Win32,59.88023952,686c2ebf0248f13bef9af11f,686c8453f80e6cffbb1e55f0,,,,,,,,,,,,,,,,,,,,,,,,,,,,,876.1976,2,audio/Narrative5Situation3.wav,879.2,,879.2,893.0972,"[[85.8,500],[74.7,583],[62.8,667],[59.6,750],[56.3,834],[53.2,917],[52.7,1000],[52.7,1084],[52.7,1167],[52.7,1250],[52.7,1351],[52.7,1434],[52.7,1518],[52.7,1601],[52.7,1684],[52.7,1768],[52.7,1851],[52.7,1935],[52.7,2018],[52.7,2101],[52.7,2185],[52.7,2268],[52.7,2352],[52.7,2435],[52.7,2519],[52.7,2602],[52.7,2685],[52.7,2769],[54.4,2852],[58.9,2936],[61.9,3019],[63.9,3102],[65.4,3186],[66.1,3269],[66.1,3353],[67,3436],[67.9,3519],[68.8,3603],[69.5,3686],[70.5,3770],[71.6,3853],[72.3,3937],[73.2,4020],[74.3,4103],[75.4,4187],[76.4,4270],[77,4354],[77.5,4437],[77.8,4520],[77.8,4604],[77.8,4687],[77.8,4771],[77.8,4854],[77.8,4938],[77.8,5021],[77.8,5105],[77.8,5188],[77.8,5271],[77.8,5355],[77.8,5438],[77.8,5522],[77.8,5605],[77.8,5688],[77.8,5772],[77.8,5855],[77.8,5939],[77.8,6022],[77.8,6105],[79.2,6189],[80.5,6272],[81.7,6356],[82.3,6439],[83.1,6523],[83.1,6606],[83.1,6689],[83.1,6773],[83.3,6856],[83.3,6940],[83.3,7023],[83.3,7106],[83.3,7190],[83.3,7273],[83.3,7357],[83.3,7440],[83.3,7524],[83.3,7607],[83.3,7707],[83.3,7791],[83.3,7874],[83.3,7957],[83.3,8041],[83.3,8124],[83.3,8208],[83.3,8291],[83.3,8374],[83.3,8458],[83.3,8541],[83.8,8625],[83.9,8708],[84.2,8792],[84.9,8875],[84.9,8958],[84.9,9042],[84.9,9125],[84.9,9209],[85.4,9292],[86.5,9375],[86.7,9459],[87.3,9542],[87.5,9626],[88.5,9709],[89.1,9793],[90.3,9876],[91,9959],[92.1,10043],[92.5,10126],[92.8,10210],[93.2,10293],[93.2,10376],[93.2,10460],[93.9,10543],[94.6,10627],[95.3,10710],[95.7,10794],[95.7,10877],[96,10960],[96.4,11044],[96.4,11127],[96.7,11211],[96.8,11294],[96.8,11377],[96.8,11461],[96.8,11544],[96.8,11628],[96.8,11711],[96.8,11795],[96.8,11878],[96.8,11961],[96.8,12045],[96.8,12128],[96.8,12212],[96.8,12295],[96.8,12378],[96.8,12462],[96.8,12545],[96.8,12629],[96.8,12712],[96.8,12796],[96.8,12879],[96.8,12962],[96.8,13046],[96.8,13129],[97,13213],[97.4,13296],[98.1,13380],[98.1,13463],[98.1,13546],[98.1,13630],[98.1,13713],[98.1,13797],[98.1,13880]]",893.0972,900.0709,97.70833651,6.7643,"[{""rating"":93.33333969116211,""responseTime"":2.787200000047733},{""rating"":97.70833651224773,""responseTime"":6.764300000071671}]",space,6.4409,,900.0711,Partially,50,900.0721,,,[],,0,12,12,12,1,audio/Narrative8Situation3.wav,audio/Narrative7Situation3.wav,audio/Narrative6Situation3.wav,audio/Narrative5Situation3.wav,4,8,5,3,,,,,,,,,,,,,,,,,,,,,,,,,,,,,,,,,,,,,,,
,,,,,62e0532289a4e5d9fedadde1,2025-07-07_21h42.30.875,group3.4_multiperson,2023.2.2,Win32,59.88023952,686c2ebf0248f13bef9af11f,686c8453f80e6cffbb1e55f0,,,,,,,,,,,,,,,,,,,,,,,,,,,,,900.0722,2,audio/Narrative5Situation4.wav,901.0886,,901.0887,921.476,"[[94.7,83],[60.4,667],[58.5,750],[57.2,834],[56.5,917],[56.3,1000],[56.3,1084],[56.3,1167],[56.3,1251],[56.3,1334],[56.3,1418],[56.3,1501],[56.3,1584],[56.3,1668],[56.3,1751],[56.3,1835],[56.3,1918],[56.3,2001],[56.3,2085],[56.3,2168],[56.3,2252],[56.3,2335],[56.3,2419],[56.3,2502],[56.3,2585],[56.3,2669],[56.3,2752],[56.3,2836],[56.3,2919],[56.3,3002],[56.3,3086],[56.3,3169],[56.3,3253],[56.3,3336],[56.3,3420],[56.3,3503],[56.3,3586],[56.3,3670],[56.3,3753],[56.3,3837],[56.3,3920],[56.3,4004],[55.3,4087],[54.4,4170],[50.9,4254],[48,4337],[45,4421],[44,4504],[43.9,4587],[43.9,4671],[43.9,4754],[43.9,4838],[43.4,4921],[42.8,5005],[42.2,5088],[42.1,5171],[41.8,5255],[41.8,5338],[41.8,5422],[41.8,5505],[41.8,5588],[41.8,5672],[41.8,5755],[41.8,5839],[41.8,5922],[41.8,6006],[41.8,6089],[41.8,6172],[41.8,6256],[41.8,6339],[41.5,6423],[40.3,6506],[39.7,6590],[39.1,6673],[39,6756],[38.6,6840],[38.3,6923],[38.2,7007],[38.1,7090],[38.1,7173],[38.1,7257],[37.8,7340],[37.1,7424],[36.6,7507],[36.6,7591],[36.6,7674],[36.6,7757],[36.6,7841],[36.6,7924],[36.6,8008],[36.6,8091],[35.1,8174],[34.5,8258],[34,8341],[33.4,8425],[33.2,8508],[32.9,8592],[32.4,8675],[32.4,8758],[32.4,8842],[32.4,8925],[37,9009],[44.4,9092],[49,9175],[51.6,9259],[55.7,9342],[58,9426],[58.2,9509],[59.5,9593],[62,9676],[64.5,9759],[65.9,9843],[66.7,9926],[66.7,10010],[66.7,10093],[66.7,10177],[66.7,10260],[66.7,10343],[66.7,10427],[67,10510],[67.9,10594],[68.5,10677],[68.8,10760],[69,10844],[69.3,10927],[69.3,11011],[69.3,11094],[69.7,11177],[70.3,11261],[70.8,11344],[71.4,11428],[72.1,11511],[72.6,11595],[73.3,11678],[74.2,11761],[74.9,11845],[75.7,11928],[76.8,12012],[77.8,12095],[78.7,12179],[79.2,12262],[79.8,12345],[79.9,12429],[80,12512],[80.2,12596],[80.8,12679],[81,12762],[81.6,12846],[82.1,12929],[82.3,13013],[82.6,13096],[82.6,13180],[82.8,13263],[83.3,13346],[83.9,13430],[84.4,13513],[85.1,13597],[85.6,13680],[86.1,13763],[86.5,13847],[86.9,13930],[87.3,14014],[87.5,14097],[87.9,14181],[88,14264],[88.3,14347],[88.5,14431],[88.5,14514],[89.1,14598],[89.4,14681],[89.5,14765],[89.7,14848],[89.7,14931],[89.7,15015],[89.7,15098],[89.7,15182],[90,15265],[90.3,15348],[90.4,15432],[90.7,15515],[91,15599],[91.5,15682],[91.9,15766],[92.6,15849],[93.1,15932],[93.5,16016],[93.6,16099],[94,16183],[94.2,16266],[94.6,16349],[94.9,16433],[94.9,16516],[95.3,16600],[95.7,16683],[95.9,16767],[96,16850],[96.1,16933],[96.7,17017],[96.8,17100],[96.8,17184],[96.8,17267],[96.8,17350],[96.8,17434],[96.8,17517],[96.8,17601],[96.8,17684],[96.8,17768],[96.8,17851],[96.8,17934],[96.8,18018],[96.8,18101],[96.8,18185],[97,18268],[97,18352],[97.1,18435],[97.1,18518],[97.1,18602],[97.1,18685],[97.1,18769],[97.1,18852],[97.1,18935],[97.1,19019],[97.1,19102],[97.1,19186],[97.1,19269],[97.1,19353],[97.1,19436],[97.1,19519],[97.1,19603],[97.1,19686],[97.1,19769],[97.1,19853],[97.1,19936],[97.1,20020],[97.1,20103],[97.1,20187],[97.1,20270],[97.1,20353]]",921.4762,929.6844,81.56250318,7.6563,"[{""rating"":85.62499682108562,""responseTime"":3.8845999999045944},{""rating"":81.56250317891438,""responseTime"":7.656299999952353}]",space,7.675,,929.6844,Partially,50,929.6851,,,[],,0,13,13,13,1,audio/Narrative8Situation4.wav,audio/Narrative7Situation4.wav,audio/Narrative6Situation4.wav,audio/Narrative5Situation4.wav,3,3,2,1,,,,,,,,,,,,,,,,,,,,,,,,,,,,,,,,,,,,,,,
