consent.started,consent.stopped,consentResponse.keys,consentResponse.rt,consentResponse.duration,participantID,date,expName,psychopyVersion,OS,frameRate,STUDY_ID,SESSION_ID,opening1.started,opening1.stopped,keyEndingOpening1.keys,keyEndingOpening1.rt,keyEndingOpening1.duration,volumeAdjust.started,volumeAdjust.stopped,endingAdjust.keys,endingAdjust.rt,endingAdjust.duration,opening2.started,opening2.stopped,keyEndingOpening.keys,keyEndingOpening.rt,keyEndingOpening.duration,mouse.x,mouse.y,mouse.leftButton,mouse.midButton,mouse.rightButton,mouse.time,instructionLoop.thisRepN,instructionLoop.thisTrialN,instructionLoop.thisN,instructionLoop.thisIndex,instructionLoop.ran,readyForAudio.started,readyForAudio.stopped,fixation.started,run,audio_played,fixation.stopped,endPractice.keys,audioPre.started,audioPre.stopped,continuousResponses_audio,intRating.started,intRating.stopped,intQuestionSlider.response,intQuestionSlider.rt,intQuestionSlider.history,confirmResponse.keys,confirmResponse.rt,confirmResponse.duration,catchQuestion.started,catch_label,catch_value,catchQuestion.stopped,catchQuestionSlider.response,catchQuestionSlider.rt,catchQuestionSlider.history,confirmResponse_2.keys,audioRunLoop.thisRepN,audioRunLoop.thisTrialN,audioRunLoop.thisN,audioRunLoop.thisIndex,audioRunLoop.ran,conditions1_1,conditions2_1,conditions1_2,conditions2_2,dur1_1,dur2_1,dur1_2,dur2_2,endPractice.rt,endPractice.duration,confirmResponse_2.rt,confirmResponse_2.duration,runIntervalBreak.started,runIntervalBreak.stopped,endingBreakKey.keys,endingBreakKey.rt,endingBreakKey.duration,connection.started,connection.stopped,connectionEnding.keys,connectionEnding.rt,connectionEnding.duration,readyForText.started,readyForText.stopped,textPre.started,run_dup,textPre.stopped,continuousResponses_text,textRunLoop.thisRepN,textRunLoop.thisTrialN,textRunLoop.thisN,textRunLoop.thisIndex,textRunLoop.ran,text1_1,text1_2,text2_1,text2_2,runBreakText.started,runBreakText.stopped,endingBreakKey_2.keys,endingBreakKey_2.rt,endingBreakKey_2.duration,ending.started,ending.stopped,endingEnding.keys,endingEnding.rt,endingEnding.duration
0.0007,188.5042,y,188.182,,63039dbefda87c47a91fec04,2025-07-08_00h33.22.497,group3.4_multiperson,2023.2.2,Win32,59.88023952,686c2ebf0248f13bef9af11f,686c9f70c02719da60036970,,,,,,,,,,,,,,,,,,,,,,,,,,,,,,,,,,,,,,,,,,,,,,,,,,,,,,,,,,,,,,,,,,,,,,,,,,,,,,,,,,,,,,,,,,,,,,,,,,,,,,,,
,,,,,63039dbefda87c47a91fec04,2025-07-08_00h33.22.497,group3.4_multiperson,2023.2.2,Win32,59.88023952,686c2ebf0248f13bef9af11f,686c9f70c02719da60036970,188.5049,199.2939,space,10.7414,,,,,,,,,,,,,,,,,,,,,,,,,,,,,,,,,,,,,,,,,,,,,,,,,,,,,,,,,,,,,,,,,,,,,,,,,,,,,,,,,,,,,,,,,,,,,,,,,,,,
,,,,,63039dbefda87c47a91fec04,2025-07-08_00h33.22.497,group3.4_multiperson,2023.2.2,Win32,59.88023952,686c2ebf0248f13bef9af11f,686c9f70c02719da60036970,,,,,,199.2945,221.9949,space,22.3736,,,,,,,,,,,,,,,,,,,,,,,,,,,,,,,,,,,,,,,,,,,,,,,,,,,,,,,,,,,,,,,,,,,,,,,,,,,,,,,,,,,,,,,,,,,,,,,
,,,,,63039dbefda87c47a91fec04,2025-07-08_00h33.22.497,group3.4_multiperson,2023.2.2,Win32,59.88023952,686c2ebf0248f13bef9af11f,686c9f70c02719da60036970,,,,,,,,,,,222.005,243.011,space,20.9785,,[],[],[],[],[],[],0,0,0,0,1,,,,,,,,,,,,,,,,,,,,,,,,,,,,,,,,,,,,,,,,,,,,,,,,,,,,,,,,,,,,,,,,,,,,,,,,,,,,,,
,,,,,63039dbefda87c47a91fec04,2025-07-08_00h33.22.497,group3.4_multiperson,2023.2.2,Win32,59.88023952,686c2ebf0248f13bef9af11f,686c9f70c02719da60036970,,,,,,,,,,,243.0123,330.7743,space,87.6813,,[],[],[],[],[],[],1,0,1,0,1,,,,,,,,,,,,,,,,,,,,,,,,,,,,,,,,,,,,,,,,,,,,,,,,,,,,,,,,,,,,,,,,,,,,,,,,,,,,,,
,,,,,63039dbefda87c47a91fec04,2025-07-08_00h33.22.497,group3.4_multiperson,2023.2.2,Win32,59.88023952,686c2ebf0248f13bef9af11f,686c9f70c02719da60036970,,,,,,,,,,,330.7754,360.8898,space,30.0725,,[-0.23645830154418945],[-0.7666666949236834],[1],[0],[0],[3.654800000071532],2,0,2,0,1,,,,,,,,,,,,,,,,,,,,,,,,,,,,,,,,,,,,,,,,,,,,,,,,,,,,,,,,,,,,,,,,,,,,,,,,,,,,,,
,,,,,63039dbefda87c47a91fec04,2025-07-08_00h33.22.497,group3.4_multiperson,2023.2.2,Win32,59.88023952,686c2ebf0248f13bef9af11f,686c9f70c02719da60036970,,,,,,,,,,,360.8905,418.3223,space,57.4051,,[],[],[],[],[],[],3,0,3,0,1,,,,,,,,,,,,,,,,,,,,,,,,,,,,,,,,,,,,,,,,,,,,,,,,,,,,,,,,,,,,,,,,,,,,,,,,,,,,,,
,,,,,63039dbefda87c47a91fec04,2025-07-08_00h33.22.497,group3.4_multiperson,2023.2.2,Win32,59.88023952,686c2ebf0248f13bef9af11f,686c9f70c02719da60036970,,,,,,,,,,,418.3232,499.2622,space,80.9082,,[],[],[],[],[],[],4,0,4,0,1,,,,,,,,,,,,,,,,,,,,,,,,,,,,,,,,,,,,,,,,,,,,,,,,,,,,,,,,,,,,,,,,,,,,,,,,,,,,,,
,,,,,63039dbefda87c47a91fec04,2025-07-08_00h33.22.497,group3.4_multiperson,2023.2.2,Win32,59.88023952,686c2ebf0248f13bef9af11f,686c9f70c02719da60036970,,,,,,,,,,,499.263,530.3535,space,31.0619,,[],[],[],[],[],[],5,0,5,0,1,,,,,,,,,,,,,,,,,,,,,,,,,,,,,,,,,,,,,,,,,,,,,,,,,,,,,,,,,,,,,,,,,,,,,,,,,,,,,,
,,,,,63039dbefda87c47a91fec04,2025-07-08_00h33.22.497,group3.4_multiperson,2023.2.2,Win32,59.88023952,686c2ebf0248f13bef9af11f,686c9f70c02719da60036970,,,,,,,,,,,,,,,,,,,,,,,,,,,530.3576,532.9366,532.981,1,audio/Narrative13Situation2.wav,534.9866,,534.9869,564.727,"[[999,3],[999,105],[999,192],[999,271],[999,355],[999,438],[999,521],[999,605],[999,691],[999,771],[999,859],[999,939],[999,1022],[999,1105],[999,1188],[999,1272],[999,1350],[999,1432],[999,1515],[999,1605],[22.6,1690],[22.1,1772],[21.3,1857],[19.7,1938],[19.4,2023],[17.1,2106],[16.6,2187],[13.9,2272],[12.6,2354],[11.8,2438],[10.5,2522],[9.1,2604],[7.7,2690],[6.8,2772],[6.8,2858],[6.8,2938],[6,3024],[6,3105],[6,3187],[5.5,3276],[5.2,3354],[5.2,3438],[5.2,3524],[4.8,3605],[2.8,3689],[2.8,3773],[2.8,3855],[2.7,3938],[1.7,4026],[1.1,4104],[0.3,4189],[0.3,4271],[0.3,4358],[0.3,4438],[0.3,4521],[0.3,4607],[0.3,4688],[0.3,4771],[0.3,4857],[0.3,4938],[0.3,5025],[0.3,5105],[0.4,5189],[0.9,5276],[1.5,5356],[1.8,5439],[1.9,5524],[1.9,5604],[1.9,5688],[1.9,5776],[1.9,5855],[1.9,5938],[1.9,6021],[1.9,6104],[1.9,6190],[1.9,6271],[1.9,6354],[1.9,6439],[1.9,6521],[4,6604],[5.4,6694],[11.5,6772],[12.4,6855],[12.4,6938],[13,7021],[13,7104],[13,7192],[13,7271],[13,7354],[13,7439],[13.1,7522],[13.9,7605],[14,7688],[14.4,7772],[14.4,7858],[14.5,7940],[14.7,8021],[15,8105],[16,8190],[17,8272],[17.8,8355],[18.1,8438],[18.8,8520],[19.5,8610],[20.2,8690],[21.5,8771],[22.3,8855],[23.4,8940],[24.3,9022],[24.4,9105],[24.4,9188],[24.4,9273],[24.4,9354],[24.4,9438],[24.4,9524],[24.5,9605],[24.8,9691],[25.3,9771],[25.5,9855],[26.1,9942],[26.1,10021],[26.1,10104],[26.1,10190],[26.1,10271],[27,10354],[27,10438],[27,10521],[27,10605],[27,10691],[27,10771],[27,10855],[27,10938],[27.3,11023],[27.3,11108],[27.3,11188],[27.3,11271],[27.3,11358],[27.3,11437],[27.3,11525],[27.3,11604],[27.3,11688],[26.8,11777],[25.3,11856],[24.6,11939],[23,12024],[21.7,12104],[20.1,12188],[18.4,12273],[17.8,12354],[17.8,12438],[17.8,12526],[17.8,12605],[17.7,12688],[17.5,12771],[17.5,12854],[17.5,12939],[17.5,13020],[17.6,13106],[18.4,13191],[19.3,13271],[19.6,13354],[19.6,13442],[19.6,13520],[19.6,13605],[19.6,13690],[19.6,13771],[19.6,13856],[19.6,13937],[19.6,14021],[19.6,14105],[19.6,14188],[19.6,14271],[19.6,14354],[19.7,14438],[19.8,14521],[19.8,14609],[20,14687],[20,14772],[20,14855],[20,14938],[20,15021],[20,15104],[19.7,15188],[18.6,15272],[17,15354],[16.6,15438],[15.8,15522],[15.7,15605],[15.2,15688],[14.8,15776],[14.1,15855],[13.9,15938],[13.9,16024],[14.5,16105],[16.4,16188],[17.1,16272],[18.6,16356],[20.3,16438],[21.1,16526],[21.1,16605],[21.1,16688],[21.1,16772],[21.1,16855],[21.1,16940],[21.1,17015],[21.1,17105],[21.1,17190],[21.1,17271],[21.1,17354],[21.4,17441],[21.4,17520],[21.5,17604],[21.8,17692],[21.8,17771],[21.8,17855],[21.9,17937],[21.9,18021],[22.4,18105],[24.1,18188],[24.4,18271],[24.4,18356],[24.4,18438],[24.4,18521],[24.4,18607],[24.4,18687],[24.4,18770],[24.4,18858],[24.4,18938],[24.4,19021],[24.4,19108],[24.6,19188],[24.8,19274],[25.1,19354],[25.1,19438],[25.1,19521],[25.1,19604],[25.4,19687],[26.1,19776],[26.3,19855],[27.4,19938],[27.8,20021],[27.8,20105],[27.8,20188],[27.8,20271],[27.8,20354],[27.8,20438],[27.8,20521],[28.4,20605],[29,20689],[30.1,20772],[34.3,21604],[34.2,21687],[33.9,21771],[33.4,21855],[33.4,21938],[33.4,22021],[33.4,22104],[33.4,22192],[33.4,22271],[33.4,22356],[34.2,22440],[35.2,22521],[35.2,22608],[35.2,22687],[35.2,22770],[35.2,22859],[35.4,22938],[35.4,23021],[35.4,23106],[35.4,23187],[35.4,23271],[35.4,23358],[35.4,23437],[35.7,23522],[35.7,23606],[35.9,23688],[36.1,23771],[36.3,23855],[36.3,23938],[36.3,24021],[36.3,24105],[36.3,24190],[36.3,24271],[36.3,24354],[36.3,24442],[36,24521],[36,24606],[35.5,24688],[35,24770],[35,24858],[35,24938],[35,25021],[35,25108],[35,25188],[34.7,25270],[34.7,25358],[34.8,25438],[36.3,25521],[37.2,25609],[37.8,25690],[37.8,25771],[38.1,25854],[38.1,25938],[38.2,26024],[38.2,26104],[38.2,26188],[38.4,26275],[38.4,26354],[38.4,26438],[38.4,26514],[38.4,26604],[38.4,26688],[38.4,26771],[38.4,26854],[38.4,26938],[38.6,27022],[38.8,27106],[39.2,27188],[39.5,27271],[39.7,27355],[39.8,27440],[39.8,27521],[39.8,27604],[39.8,27683],[39.8,27770],[40.1,27855],[40.1,27938],[40.1,28021],[40.1,28105],[40.3,28192],[40.3,28271],[40.3,28356],[40.3,28437],[40.3,28520],[40.3,28608],[40.4,28687],[40.4,28770],[40.4,28853],[40.4,28937],[40.4,29024],[40.2,29104],[39.4,29188],[39.4,29274],[39.4,29354],[39.4,29437],[39.5,29524],[40.6,29607],[41.4,29687]]",564.7277,577.4859,49.58333174,8.9162,"[{""rating"":49.583331743876144,""responseTime"":8.916200000047638}]",space,12.2179,,577.4866,Partially,50,577.4991,,,[],,0,0,0,0,1,audio/Narrative13Situation2.wav,audio/Narrative13Situation2.wav,audio/Narrative13Situation2.wav,audio/Narrative13Situation2.wav,2,2,2,2,,,,,,,,,,,,,,,,,,,,,,,,,,,,,,,,,,,,,,,
,,,,,63039dbefda87c47a91fec04,2025-07-08_00h33.22.497,group3.4_multiperson,2023.2.2,Win32,59.88023952,686c2ebf0248f13bef9af11f,686c9f70c02719da60036970,,,,,,,,,,,,,,,,,,,,,,,,,,,,,577.4998,1,audio/Narrative7Situation1.wav,581.585,space,581.585,637.4842,"[[999,1],[999,82],[999,166],[999,250],[999,333],[999,416],[999,499],[999,583],[999,666],[999,750],[999,833],[999,916],[999,999],[999,1083],[999,1166],[999,1249],[1.9,1834],[2.5,1917],[2.7,2000],[3.6,2083],[5.1,2166],[7.5,2249],[7.8,2333],[12.6,2416],[13.2,2502],[13.2,2583],[13.2,2666],[13.2,2750],[13.3,2833],[14.8,2917],[15.6,3000],[15.8,3083],[16,3166],[16.8,3249],[17.6,3334],[18.1,3417],[18.1,3500],[18.1,3586],[18.4,3667],[18.5,3750],[18.5,3833],[18.5,3916],[18.5,4000],[18.8,4083],[19.1,4167],[19.6,4250],[19.8,4332],[19.8,4416],[19.8,4500],[20,4583],[20,4666],[20,4750],[20,4833],[20,4916],[20,5000],[20,5083],[20,5168],[19.9,5249],[19.9,5332],[19.6,5416],[19.6,5500],[19.6,5583],[19.6,5667],[19.6,5749],[19.6,5833],[19.6,5916],[19.6,5999],[19.8,6083],[20.1,6166],[20.1,6249],[20.1,6333],[20.3,6416],[20.3,6500],[20.3,6583],[20.8,6666],[20.9,6749],[21.1,6832],[21.3,6916],[21.5,7000],[21.5,7083],[21.5,7166],[21.5,7250],[21.5,7333],[21.5,7416],[21.5,7500],[26.8,8083],[26.8,8166],[26.8,8250],[26.8,8333],[26.8,8417],[26.8,8499],[26.8,8583],[27.7,8666],[28.4,8750],[29.3,8833],[30.6,8916],[32.3,8999],[33,9084],[33.9,9166],[34.2,9250],[34.2,9334],[34.2,9416],[34.2,9499],[34.2,9582],[34.2,9666],[34.2,9749],[34.2,9833],[34.2,9916],[34.2,9999],[35.4,10084],[37.3,10167],[38.6,10249],[40.4,10332],[40.6,10416],[40.6,10500],[40.6,10583],[40.6,10666],[40.6,10749],[40.6,10833],[40.6,10916],[40.6,10999],[40.5,11083],[40.5,11166],[40.5,11249],[40.4,11333],[39.7,11415],[39.7,11499],[39.7,11582],[39.7,11666],[40.6,11749],[41.8,11833],[41.8,11916],[42.3,11999],[43.8,12082],[43.8,12166],[43.8,12250],[43.8,12333],[43.8,12416],[43.8,12499],[43.8,12583],[43.8,12666],[43.8,12750],[43.8,12836],[43.8,12916],[43.8,12999],[43.8,13083],[43.8,13166],[44.1,13254],[45.8,13333],[47.1,13417],[49.1,13500],[51.3,13583],[51.9,13666],[52.1,13749],[52.1,13833],[53.1,13916],[54.3,14000],[54.8,14084],[54.8,14166],[55.6,14250],[55.9,14333],[56.8,14416],[56.8,14500],[57.7,14583],[57.8,14666],[57.8,14750],[57.8,14833],[57.8,14916],[57.8,14999],[57.8,15082],[57.8,15166],[57.8,15249],[57.8,15332],[57.8,15415],[57.8,15499],[57.8,15582],[57.8,15666],[57.8,15749],[57.8,15832],[59.5,15916],[61,16000],[62,16083],[63.5,16166],[64,16250],[64,16333],[64,16417],[64,16499],[64.7,16583],[65,16666],[65,16749],[65,16833],[65,16916],[65,17000],[66,17083],[66.6,17166],[66.6,17249],[66.6,17332],[67.1,17416],[67.2,17499],[67.2,17582],[67.6,17666],[67.9,17749],[67.9,17832],[67.9,17915],[67.9,17999],[67.9,18082],[67.9,18166],[67.9,18249],[67.9,18332],[67.8,18416],[67.8,18500],[67.8,18583],[67.8,18666],[67.5,18751],[67.5,18832],[67.5,18916],[67.5,18999],[67.5,19082],[67.3,19166],[67.2,19249],[67,19332],[67,19416],[67,19499],[67,19583],[67,19666],[67.2,19750],[67.4,19832],[68,19915],[68.2,19999],[68.2,20083],[68.2,20166],[68.2,20249],[68.2,20333],[68.2,20416],[68.4,20499],[68.4,20583],[68.4,20666],[68.4,20749],[68.4,20834],[68.4,20916],[68.4,20999],[68.8,21083],[69,21166],[69.1,21249],[69.3,21333],[69.3,21416],[69.3,21499],[69.3,21583],[69.3,21666],[69.3,21749],[69.3,21832],[69.3,21916],[69.3,21999],[69.1,22083],[67.6,22166],[67.2,22249],[67.2,22332],[67.2,22416],[67.2,22499],[67.5,22583],[70,22666],[71,22749],[71,22833],[71,22916],[71,22999],[71,23086],[71,23166],[71.1,23249],[71.7,23333],[71.9,23416],[71.9,23499],[71.9,23582],[71.9,23666],[71.9,23749],[71.9,23832],[71.9,23916],[71.9,24000],[72.2,24082],[72.2,24166],[72.4,24249],[72.4,24333],[72.4,24416],[72.6,24499],[72.6,24582],[72.6,24666],[72.6,24749],[73,24833],[73.5,24916],[73.9,24999],[74.3,25082],[74.3,25166],[74.3,25249],[75.1,25336],[76.4,25416],[76.4,25499],[76.4,25583],[76.4,25666],[76.4,25749],[76.4,25833],[75.2,25916],[75,25999],[75,26082],[75,26165],[74.3,26250],[74.2,26332],[74.2,26416],[74.2,26499],[74.2,26583],[74.2,26666],[74.2,26749],[74.2,26836],[74.8,26916],[75.2,26999],[75.5,27082],[75.7,27165],[75.7,27249],[75.7,27332],[75.7,27416],[76,27499],[76.6,27582],[76.6,27665],[76.9,27749],[77.1,27832],[77.4,27916],[77.5,27999],[77.5,28082],[77.5,28165],[77.5,28249],[77.5,28332],[77.5,28415],[77.3,28499],[77.3,28584],[77.3,28665],[76.5,28750],[76.1,28832],[76.1,28915],[76.1,28999],[76.1,29082],[76.1,29166],[76.1,29249],[75.8,29333],[75.1,29416],[74.6,29499],[74.6,29583],[74.6,29666],[74.6,29749],[74.6,29832],[74.6,29916],[74.6,29999],[73.5,30082],[73,30166],[73,30249],[73,30332],[73,30416],[73,30501],[73.2,30582],[73.9,30666],[74.2,30750],[74.7,30833],[74.9,30916],[74.9,30999],[75,31083],[75.3,31167],[75.3,31249],[75.7,31332],[75.8,31415],[76,31499],[76,31582],[76.4,31666],[76.4,31749],[76.4,31832],[76.4,31916],[76.4,31999],[76.4,32082],[75.6,32165],[75.1,32250],[75,32332],[75,32415],[75,32499],[75,32582],[75,32666],[74.8,32749],[74.8,32832],[74.8,32915],[74.8,32999],[74.8,33082],[74.8,33166],[74.8,33249],[74.9,33332],[75.5,33415],[75.9,33499],[76.4,33582],[76.8,33665],[77.2,33749],[77.7,33833],[78,33920],[78,33999],[78,34082],[78,34166],[78,34249],[78,34332],[78,34415],[78.5,34499],[78.9,34582],[78.9,34666],[78.9,34749],[78.9,34832],[78.9,34916],[78.3,34999],[77.6,35082],[76.9,35166],[76.3,35249],[76.3,35332],[76.3,35415],[76.3,35500],[76.3,35582],[75.7,35665],[75.7,35749],[75.6,35832],[75.6,35915],[75.6,35999],[75.6,36082],[76.4,36166],[77,36249],[77.2,36333],[77.5,36415],[77.8,36499],[78.1,36582],[78.1,36666],[78.1,36749],[78.4,36832],[78.4,36915],[78.4,36999],[77.8,37083],[77.3,37166],[77,37249],[76.7,37332],[76.7,37415],[76.3,37499],[76.3,37582],[76.3,37666],[76.3,37749],[76.3,37832],[76.4,37915],[76.6,37999],[76.9,38082],[77.4,38165],[77.4,38249],[77.6,38332],[77.6,38416],[77.9,38499],[77.9,38582],[77.9,38665],[77.9,38749],[77,38833],[76.1,38916],[75.7,38999],[75.2,39083],[75.1,39166],[75.1,39249],[75.1,39335],[75.1,39415],[75.1,39499],[74.1,39583],[74.1,39665],[74.1,39749],[74.1,39832],[74.1,39916],[74.5,40000],[75.5,40082],[75.5,40167],[75.5,40249],[75.5,40332],[75.5,40416],[75.5,40499],[74.7,40582],[73.8,40665],[73.8,40748],[73.8,40834],[73.8,40916],[73.8,40999],[73.8,41082],[73.8,41166],[73.8,41249],[73.8,41332],[73.8,41416],[74.5,41499],[75,41582],[75.5,41666],[76.1,41749],[76.6,41832],[77.2,41916],[77.6,41999],[77.9,42082],[77.9,42165],[78.1,42249],[78.5,42332],[79,42416],[79,42499],[79.7,42582],[80.2,42666],[80.2,42748],[80.2,42832],[79.3,42917],[78.3,42999],[78.2,43082],[78,43165],[78,43249],[78,43332],[78,43415],[78,43499],[78.5,43582],[78.9,43665],[79.5,43749],[79.7,43832],[80.5,43915],[80.5,43999],[80.8,44083],[80.8,44166],[80.8,44249],[80.8,44332],[79.8,44415],[79.3,44499],[79,44583],[78.2,44665],[77.9,44749],[77.9,44831],[77.9,44915],[78.1,44999],[79,45083],[79.8,45166],[80.1,45248],[80.7,45333],[81.3,45415],[81.3,45499],[81.3,45582],[81.3,45665],[80.8,45749],[80,45832],[79.9,45915],[79.5,45999],[79,46083],[78.9,46168],[78.9,46249],[78.9,46332],[78.9,46415],[79.1,46499],[79.8,46582],[80.1,46665],[80.2,46749],[80.2,46832],[80.2,46915],[80.2,46998],[80.2,47082],[80.2,47165],[80,47248],[79.4,47332],[79.2,47416],[79.2,47498],[78.9,47582],[78.9,47665],[78.9,47749],[78.9,47833],[78.9,47915],[79.3,47999],[79.4,48082],[79.4,48165],[79.6,48248],[79.7,48332],[79.9,48415],[79.9,48499],[79.9,48582],[80,48665],[80,48749],[80,48832],[79.8,48915],[79.4,49002],[79,49082],[78.9,49165],[78.9,49249],[78.9,49332],[78.9,49416],[79.1,49499],[79.7,49582],[80.2,49666],[80.5,49749],[80.7,49832],[80.7,49915],[81.4,49998],[81.7,50082],[82,50166],[82.3,50249],[83.2,50333],[83.4,50416],[84.1,50499],[84.1,50582],[84.3,50665],[85.1,50749],[86.1,50832],[86.3,50915],[86.3,50999],[86.3,51082],[86.3,51165],[86.3,51249],[86.3,51332],[86.3,51415],[85.3,51499],[85.3,51584],[85.3,51665],[85.3,51749],[85.3,51832],[85.3,51915],[85.3,51999],[85.3,52081],[85.3,52165],[85.3,52249],[85.8,52333],[87.9,52415],[88.4,52499],[90.1,52582],[91.9,52665],[93.5,52748],[94.7,52832],[95.9,52915],[97.9,52999],[98.4,53082],[99.3,53166],[100,53249],[100,53332],[100,53415],[100,53498],[100,53581],[100,53665],[100,53748],[100,53831],[99.5,53915],[98.3,53998],[98.3,54082],[98,54165],[96.8,54248],[96.5,54332],[96.5,54415],[96.5,54499],[96.6,54581],[96.6,54665],[97.1,54749],[97.9,54833],[99.1,54916],[99.4,54999],[99.4,55082],[100,55165],[100,55248],[100,55332],[100,55415],[100,55499],[100,55582],[99.2,55666],[99.1,55749],[99.1,55832]]",637.4847,647.7672,98.64583015,6.146,"[{""rating"":98.64583015441895,""responseTime"":6.146000000000072}]",space,9.733,,647.7673,Partially,50,658.484,49.89583492,7.7394,"[{""rating"":49.89583492279053,""responseTime"":7.739400000095429}]",space,0,1,1,1,1,audio/Narrative7Situation1.wav,audio/Narrative8Situation1.wav,audio/Narrative5Situation1.wav,audio/Narrative6Situation1.wav,2,5,5,2,4.0561,,10.1823,,,,,,,,,,,,,,,,,,,,,,,,,,,,,,,,,,,,
,,,,,63039dbefda87c47a91fec04,2025-07-08_00h33.22.497,group3.4_multiperson,2023.2.2,Win32,59.88023952,686c2ebf0248f13bef9af11f,686c9f70c02719da60036970,,,,,,,,,,,,,,,,,,,,,,,,,,,,,658.4849,1,audio/Narrative7Situation2.wav,661.5004,,661.5004,668.9838,"[[999,1],[999,83],[999,166],[999,250],[999,332],[999,416],[999,499],[999,583],[999,666],[999,749],[999,833],[999,916],[999,999],[999,1083],[999,1167],[999,1249],[999,1332],[999,1417],[999,1500],[999,1582],[999,1667],[999,1749],[999,1832],[999,1917],[999,1999],[999,2082],[999,2167],[6.5,2249],[5.6,2332],[5.1,2417],[4.9,2499],[4.9,2583],[4.9,2666],[4.9,2749],[5.5,2834],[8.1,2917],[8.9,3000],[8.9,3083],[8.9,3166],[8.9,3250],[8.9,3333],[8.9,3416],[8.9,3499],[8.9,3582],[8.9,3665],[8.9,3749],[8.9,3833],[8.9,3916],[8.9,3999],[8.9,4083],[8.9,4166],[8.9,4249],[10.1,4334],[16.5,4417],[17.2,4499],[17.2,4583],[19,4667],[22.1,4750],[23.8,4833],[27.7,4916],[32.4,5000],[37.6,5082],[40.3,5166],[44.5,5250],[49.5,5332],[51.3,5417],[51.9,5499],[51.9,5583],[51.9,5669],[51.9,5749],[51.9,5833],[51.4,5917],[50.3,6000],[49.2,6083],[49.2,6166],[49.2,6249],[49.2,6332],[49.2,6416],[49.9,6499],[51.1,6583],[51.1,6666],[51.1,6750],[51.1,6833],[51.1,6916],[51.1,6999],[51.1,7083],[51.1,7166],[51.1,7249],[51.1,7333],[51.1,7418]]",668.9842,679.5039,73.22916985,8.719,"[{""rating"":73.22916984558105,""responseTime"":8.719000000000051}]",space,9.9813,,679.5039,Partially,50,679.5052,,,[],,0,2,2,2,1,audio/Narrative7Situation2.wav,audio/Narrative8Situation2.wav,audio/Narrative5Situation2.wav,audio/Narrative6Situation2.wav,3,3,3,3,,,,,,,,,,,,,,,,,,,,,,,,,,,,,,,,,,,,,,,
,,,,,63039dbefda87c47a91fec04,2025-07-08_00h33.22.497,group3.4_multiperson,2023.2.2,Win32,59.88023952,686c2ebf0248f13bef9af11f,686c9f70c02719da60036970,,,,,,,,,,,,,,,,,,,,,,,,,,,,,679.5053,1,audio/Narrative7Situation3.wav,687.5091,,687.5092,696.7667,"[[999,0],[999,90],[999,173],[999,257],[999,340],[999,424],[999,508],[999,590],[999,673],[999,757],[999,840],[999,923],[999,1007],[999,1090],[999,1173],[999,1257],[999,1340],[999,1423],[999,1506],[999,1591],[999,1673],[999,1757],[999,1844],[999,1924],[5.8,2007],[4.1,2090],[3.8,2174],[3.5,2256],[3.5,2339],[3.3,2423],[1.9,2506],[1.9,2590],[1.9,2673],[1.9,2757],[1.9,2839],[2.1,2923],[2.6,3006],[2.9,3090],[2.9,3173],[2.9,3257],[2.9,3339],[2.8,3423],[2,3506],[1.8,3590],[0.7,3673],[0.3,3757],[0.3,3840],[0.3,3923],[0.3,4006],[0.3,4090],[0.3,4173],[0.3,4257],[0.3,4339],[0.3,4423],[0.3,4507],[0.7,4590],[2.9,4673],[4.7,4757],[5.6,4839],[6.3,4923],[6.8,5007],[6.8,5090],[6.8,5173],[6.8,5256],[6.8,5340],[8.2,5424],[10.1,5511],[12.5,5590],[14.2,5674],[15.3,5757],[15.6,5840],[16.6,5923],[18.5,6007],[19.1,6090],[19.7,6173],[20.8,6256],[20.8,6339],[20.8,6423],[20.8,6507],[20.8,6590],[20.9,6673],[19.9,6759],[19.4,6840],[19.1,6923],[18.6,7006],[18.6,7089],[18.4,7173],[18.4,7256],[18.4,7339],[18.4,7423],[18.3,7506],[18.3,7590],[18.3,7673],[18.6,7757],[19.5,7840],[20.7,7924],[22.2,8006],[23,8090],[23,8173],[23.2,8256],[23.2,8340],[23.2,8423],[23.2,8506],[22.6,8590],[22.6,8673],[22.3,8756],[22.3,8839],[22.3,8923],[22.4,9006],[30,9090],[39.1,9173],[39.8,9256]]",696.7671,706.6822,47.60417144,8.0954,"[{""rating"":47.60417143503825,""responseTime"":8.095400000095424}]",space,9.3727,,706.6823,Definitely yes,100,706.6861,,,[],,0,3,3,3,1,audio/Narrative7Situation3.wav,audio/Narrative8Situation3.wav,audio/Narrative5Situation3.wav,audio/Narrative6Situation3.wav,8,4,3,5,,,,,,,,,,,,,,,,,,,,,,,,,,,,,,,,,,,,,,,
,,,,,63039dbefda87c47a91fec04,2025-07-08_00h33.22.497,group3.4_multiperson,2023.2.2,Win32,59.88023952,686c2ebf0248f13bef9af11f,686c9f70c02719da60036970,,,,,,,,,,,,,,,,,,,,,,,,,,,,,706.6863,1,audio/Narrative7Situation4.wav,709.6992,,709.6993,721.4329,"[[47.3,583],[36.4,666],[33,749],[29.3,832],[24.1,917],[21.7,1000],[16.7,1083],[8.8,1167],[8.6,1250],[8.6,1333],[8.6,1416],[8.6,1502],[7.2,1583],[6.7,1668],[6.7,1749],[6.7,1833],[4.9,1916],[4.4,1999],[3.3,2083],[1.7,2167],[1.3,2249],[0.6,2334],[0.4,2416],[0.4,2499],[0.4,2583],[1.9,2667],[9.2,2750],[15.5,2833],[17.9,2916],[22.1,2999],[27.6,3082],[31.6,3166],[35.9,3250],[44,3333],[53,3417],[60.4,3500],[64.4,3583],[65.5,3666],[67.1,3749],[68.6,3833],[70.2,3916],[71,4000],[71.9,4082],[72.2,4166],[72.7,4249],[73.2,4332],[73.2,4416],[74.4,4500],[74.4,4583],[74.4,4667],[74.4,4749],[74.7,4832],[74.7,4916],[75.4,4999],[75.7,5083],[77.5,5166],[78.4,5249],[78.9,5332],[79.2,5416],[79.7,5499],[79.7,5583],[79.7,5666],[79.7,5749],[79.7,5833],[78.7,5916],[66.1,6000],[58.3,6083],[42.1,6166],[29.7,6250],[12.1,6333],[4.4,6416],[4.4,6502],[4.2,6583],[3.8,6666],[3.8,6749],[3.8,6833],[2.6,6917],[2.6,6999],[2.6,7082],[2.6,7168],[2.6,7249],[2.7,7332],[3.5,7416],[3.8,7499],[3.8,7582],[3.8,7666],[2.9,7750],[2.1,7833],[2.1,7916],[2.1,7999],[2.1,8082],[2.1,8165],[2.1,8249],[2.1,8333],[2.1,8415],[2.1,8499],[2.1,8583],[2.1,8665],[2.1,8749],[2.4,8832],[2.7,8916],[2.9,8999],[2.9,9082],[2.9,9166],[2.9,9249],[2.9,9332],[2.9,9415],[2.9,9499],[2.9,9582],[2.3,9666],[2.3,9749],[2.3,9832],[2.3,9915],[2.3,9999],[2.3,10085],[2.3,10165],[1.8,10249],[1.6,10332],[1.6,10415],[1.6,10499],[1.6,10582],[1.6,10665],[1.6,10749],[2,10832],[2.2,10916],[2.3,10999],[2.3,11082],[2.3,11165],[2.3,11249],[2.3,11332],[2.3,11416],[2.3,11499],[2.3,11582],[2.3,11666]]",721.4331,727.1986,0.625002384,1.6731,"[{""rating"":0.625002384185791,""responseTime"":1.673100000023851}]",space,5.2172,,727.1987,Partially,50,727.2026,,,[],,0,4,4,4,1,audio/Narrative7Situation4.wav,audio/Narrative8Situation4.wav,audio/Narrative5Situation4.wav,audio/Narrative6Situation4.wav,3,3,1,2,,,,,,,,,,,,,,,,,,,,,,,,,,,,,,,,,,,,,,,
,,,,,63039dbefda87c47a91fec04,2025-07-08_00h33.22.497,group3.4_multiperson,2023.2.2,Win32,59.88023952,686c2ebf0248f13bef9af11f,686c9f70c02719da60036970,,,,,,,,,,,,,,,,,,,,,,,,,,,,,727.2029,1,audio/Narrative7Situation5.wav,732.2156,,732.2157,740.7172,"[[1.6,1333],[2.9,1417],[3.3,1500],[3.3,1583],[3.3,1666],[3.3,1750],[3.3,1832],[3.3,1917],[3.3,1999],[3.6,2082],[4.5,2166],[4.6,2249],[4.6,2332],[4.6,2416],[4.6,2499],[4.6,2582],[4.6,2666],[4.6,2749],[5.1,2833],[6.4,2916],[9.2,2999],[9.3,3082],[10,3166],[10,3249],[11.8,3333],[15.3,3416],[17,3500],[17,3582],[17.6,3666],[24.1,3750],[31,3832],[31.9,3916],[31.9,4000],[31.9,4083],[31.9,4165],[31.9,4249],[33.5,4333],[39.4,4417],[45.7,4500],[46.1,4582],[46.9,4667],[49.1,4750],[49.5,4833],[50,4916],[50,4999],[50,5083],[50,5166],[50,5249],[50,5332],[50,5416],[50,5499],[51.4,5583],[51.4,5666],[51.4,5749],[51.4,5832],[51.4,5916],[51.4,6000],[51.4,6083],[51.4,6166],[52.2,6249],[52.5,6332],[52.8,6416],[53.4,6499],[53.7,6582],[53.7,6666],[53.7,6749],[53.7,6832],[53.7,6917],[53.7,6999],[53.7,7082],[53.7,7166],[53.7,7249],[53.7,7332],[55.7,7415],[56.6,7499],[57.6,7582],[57.6,7666],[57.6,7750],[57.6,7834],[57.1,7916],[56.8,7999],[56.4,8084],[56.4,8166],[56.4,8249],[56.4,8332],[56.4,8416],[56.4,8500]]",740.7175,747.4552,62.29166985,4.2362,"[{""rating"":62.291669845581055,""responseTime"":4.2361999999285445}]",space,6.2013,,747.4554,Definitely yes,100,747.4629,,,[],,0,5,5,5,1,audio/Narrative7Situation5.wav,audio/Narrative8Situation5.wav,audio/Narrative5Situation5.wav,audio/Narrative6Situation5.wav,5,2,5,2,,,,,,,,,,,,,,,,,,,,,,,,,,,,,,,,,,,,,,,
,,,,,63039dbefda87c47a91fec04,2025-07-08_00h33.22.497,group3.4_multiperson,2023.2.2,Win32,59.88023952,686c2ebf0248f13bef9af11f,686c9f70c02719da60036970,,,,,,,,,,,,,,,,,,,,,,,,,,,,,747.4634,1,audio/Narrative7Situation6.wav,750.4657,,750.4659,760.4424,"[[59.7,755],[58.6,835],[57,923],[57,1005],[57,1091],[57,1171],[54.5,1255],[48.2,1345],[47.5,1423],[44.7,1504],[41.5,1592],[41.5,1672],[41.5,1754],[40.1,1838],[39.8,1922],[40.4,2007],[49.5,2088],[54.9,2171],[57.6,2258],[62.9,2338],[71.3,2421],[75.1,2505],[75.9,2588],[75.9,2671],[75.9,2755],[76.1,2839],[76.5,2923],[77.1,3001],[77.3,3088],[77.8,3177],[78.3,3256],[78.4,3338],[80.4,3422],[81,3504],[83.8,3595],[85.5,3671],[87.4,3754],[91.1,3838],[91.5,3920],[91.7,4004],[94,4087],[100,4171],[100,4257],[100,4338],[100,4421],[100,4508],[100,4587],[100,4671],[100,4755],[100,4838],[100,4921],[100,5008],[100,5088],[100,5171],[100,5258],[100,5338],[100,5421],[100,5500],[100,5588],[100,5671],[100,5755],[100,5838],[100,5925],[100,6004],[100,6090],[100,6171],[100,6254],[100,6334],[100,6420],[100,6505],[100,6590],[100,6671],[100,6755],[100,6840],[99.9,6921],[99.8,7006],[99.8,7088],[99.8,7171],[98.6,7258],[98.6,7338],[98.6,7420],[98.6,7504],[98.6,7581],[98.3,7671],[98.1,7754],[98.1,7838],[98.1,7921],[99.1,8004],[99.8,8088],[99.8,8175],[99.8,8253],[99.8,8338],[99.8,8425],[99.8,8504],[99.8,8588],[99.8,8673],[99.8,8754],[99.8,8840],[99.8,8920],[99.8,9005],[99.8,9092],[99.8,9171],[99.6,9255],[99.6,9338],[99.2,9422],[99.2,9507],[99.2,9588],[99.2,9670],[99.2,9754],[99.2,9838],[99.2,9914]]",760.4427,766.0484,99.16666349,3.0341,"[{""rating"":99.16666348775227,""responseTime"":3.034099999904697}]",space,5.069,,766.0486,Partially,50,766.056,,,[],,0,6,6,6,1,audio/Narrative7Situation6.wav,audio/Narrative8Situation6.wav,audio/Narrative5Situation6.wav,audio/Narrative6Situation6.wav,3,2,3,2,,,,,,,,,,,,,,,,,,,,,,,,,,,,,,,,,,,,,,,
,,,,,63039dbefda87c47a91fec04,2025-07-08_00h33.22.497,group3.4_multiperson,2023.2.2,Win32,59.88023952,686c2ebf0248f13bef9af11f,686c9f70c02719da60036970,,,,,,,,,,,,,,,,,,,,,,,,,,,,,766.0565,1,audio/Narrative7Situation7.wav,771.0653,,771.0654,788.2359,"[[25.4,88],[23.5,173],[23.2,260],[23.2,338],[23.2,422],[22.8,510],[12.8,588],[6.4,673],[5.2,755],[5.2,838],[3.3,921],[2.9,1008],[2.9,1088],[2.9,1171],[2.9,1255],[2.9,1338],[2.9,1425],[2.9,1504],[2.9,1588],[2.9,1675],[4.5,1756],[15.3,1840],[44.6,1921],[56.8,2004],[66.5,2094],[71.1,2172],[77.1,2254],[79.1,2339],[82,2423],[87.9,2504],[88.9,2592],[89.1,2671],[89.5,2755],[89.9,2842],[90.9,2922],[92,3005],[93.1,3093],[93.5,3171],[94,3255],[94.5,3340],[95,3422],[95,3504],[95.3,3588],[95.8,3671],[96,3755],[96.4,3837],[96.7,3922],[96.9,3999],[96.9,4088],[97.2,4171],[97.9,4255],[98.1,4338],[98.1,4422],[98.1,4504],[98.2,4588],[98.2,4671],[98.4,4754],[98.4,4838],[98.6,4923],[98.6,5009],[98.9,5088],[99.3,5171],[99.3,5248],[99.8,5338],[100,5421],[100,5505],[100,5587],[100,5671],[100,5758],[100,5838],[100,5921],[100,6005],[100,6088],[99.2,6173],[99.2,6255],[99.2,6337],[99.2,6423],[99.2,6504],[99.2,6588],[99.1,6665],[99.1,6749],[98.9,6837],[98.6,6925],[98.3,7004],[98.3,7088],[98.3,7175],[98.3,7254],[98.3,7341],[98.3,7421],[98.3,7504],[98.3,7590],[98.3,7672],[98.3,7754],[98.4,7841],[99,7923],[99,8005],[99,8088],[99,8171],[99,8257],[99,8338],[99,8421],[99,8504],[99,8588],[99,8673],[99,8757],[99,8839],[99,8922],[99,9010],[99,9089],[99,9176],[99,9255],[99,9342],[99,9421],[99,9504],[99,9589],[99,9670],[99,9754],[99,9839],[99,9924],[99,10005],[99,10088],[99,10172],[99,10256],[99,10338],[99,10421],[99,10510],[99,10588],[99,10675],[99,10755],[99,10838],[99,10922],[99,11005],[99,11088],[99,11172],[100,11254],[100,11338],[100,11421],[100,11505],[100,11593],[100,11671],[100,11755],[100,11843],[100,11921],[100,12004],[100,12086],[100,12169],[100,12256],[100,12336],[100,12419],[100,12505],[100,12586],[100,12670],[100,12753],[100,12836],[100,12920],[100,13003],[100,13087],[100,13170],[100,13253],[100,13336],[100,13424],[100,13503],[100,13591],[100,13670],[100,13757],[100,13837],[100,13920],[100,14004],[100,14087],[100,14170],[100,14254],[100,14336],[100,14419],[98.9,14505],[98.9,14586],[98.9,14669],[98.9,14755],[98.9,14836],[98.9,14921],[98.9,15003],[99.3,15087],[100,15174],[100,15253],[100,15337],[100,15419],[100,15503],[100,15590],[100,15670],[100,15757],[100,15837],[100,15920],[100,16005],[100,16086],[100,16171],[100,16253],[100,16336],[100,16422],[100,16503],[100,16587],[100,16675],[100,16754],[100,16837],[100,16920],[99.8,17004],[98.4,17088],[98,17170]]",788.236,793.0567,99.16666349,2.9003,"[{""rating"":99.16666348775227,""responseTime"":2.9003000000715247}]",space,4.2683,,793.0568,Not at all,0,793.0624,,,[],,0,7,7,7,1,audio/Narrative7Situation7.wav,audio/Narrative8Situation7.wav,audio/Narrative5Situation7.wav,audio/Narrative6Situation7.wav,5,3,4,5,,,,,,,,,,,,,,,,,,,,,,,,,,,,,,,,,,,,,,,
,,,,,63039dbefda87c47a91fec04,2025-07-08_00h33.22.497,group3.4_multiperson,2023.2.2,Win32,59.88023952,686c2ebf0248f13bef9af11f,686c9f70c02719da60036970,,,,,,,,,,,,,,,,,,,,,,,,,,,,,793.0628,1,audio/Narrative7Situation8.wav,795.0649,,795.0651,805.0873,"[[95.6,2504],[90.1,2588],[75.5,2671],[74.1,2758],[70.9,2838],[58.9,2920],[49,3005],[47.4,3087],[47.2,3171],[47.2,3256],[47.2,3337],[46.5,3421],[45.7,3508],[45.7,3588],[45,3671],[52.9,4671],[54.7,4754],[56.9,4842],[59.9,4923],[61.7,5006],[66,5093],[73.8,5171],[75.5,5253],[75.5,5341],[75.5,5421],[75.5,5504],[75.5,5588],[75.5,5671],[75.5,5756],[75.5,5832],[75.5,5921],[77,6004],[77.3,6088],[77.3,6171],[77.3,6256],[79,6338],[80.7,6420],[80.9,6508],[80.9,6587],[80.9,6675],[81.3,6755],[82,6838],[83.9,6921],[85.9,7004],[87,7088],[87,7175],[87,7254],[87.9,7345],[87.9,7421],[88.3,7504],[88.3,7591],[88.3,7671],[88.3,7755],[88.3,7831],[88.3,7921],[90.9,8005],[92,8092],[92,8171],[92,8257],[92.2,8338],[92.8,8421],[97.9,8839],[99.4,8926],[99.4,9004],[99.4,9093],[99.4,9171],[98.8,9255],[98.5,9340],[98.5,9421],[98.5,9504],[98.6,9592],[98.6,9671],[98.6,9754],[98.6,9841],[98.6,9920],[98.6,10004]]",805.0875,809.2402,98.95833333,1.9816,"[{""rating"":98.95833333333333,""responseTime"":1.9816000000238319}]",space,3.6038,,809.2403,Partially,50,809.2455,,,[],,0,8,8,8,1,audio/Narrative7Situation8.wav,audio/Narrative8Situation8.wav,audio/Narrative5Situation8.wav,audio/Narrative6Situation8.wav,2,3,3,5,,,,,,,,,,,,,,,,,,,,,,,,,,,,,,,,,,,,,,,
,,,,,63039dbefda87c47a91fec04,2025-07-08_00h33.22.497,group3.4_multiperson,2023.2.2,Win32,59.88023952,686c2ebf0248f13bef9af11f,686c9f70c02719da60036970,,,,,,,,,,,,,,,,,,,,,,,,,,,,,809.2459,1,audio/Narrative7Situation9.wav,811.2481,,811.2483,819.8698,"[[95.6,2338],[90.4,2421],[80.9,2505],[78,2587],[78,2671],[78,2758],[76.1,2838],[59.2,2928],[53.7,3006],[53.6,3088],[53.6,3175],[53.4,3254],[53.4,3341],[53.4,3421],[53.4,3504],[54.3,3588],[55.5,3672],[60.9,3754],[73.4,3838],[76.9,3920],[81.7,4006],[85.8,4088],[90.7,4171],[95.6,4256],[98.1,4341],[98.1,4421],[98.1,4504],[98.1,4587],[98.1,4671],[98.1,4757],[97.8,4838],[96.1,4922],[95.9,5008],[95.9,5087],[95.9,5171],[95.9,5256],[95.4,5337],[95.1,5425],[95.1,5504],[95.1,5587],[95.1,5674],[95.1,5754],[95.1,5837],[95.5,5921],[96.3,6004],[97.3,6089],[97.8,6171],[97.9,6255],[97.9,6342],[97.9,6421],[97.9,6505],[97.9,6587],[97.9,6671],[97.9,6754],[98.5,6838],[98.8,6920],[98.8,7004],[98.8,7088],[98.8,7173],[98.6,7255],[97.7,7338],[97,7423],[97,7504],[95.5,7589],[95.3,7672],[95.3,7748],[95.3,7837],[95.3,7920],[97.1,8004],[97.7,8088],[97.9,8170],[98.4,8254],[98.8,8338],[99,8414],[99.3,8505],[99.8,8590]]",819.8699,824.087,99.06250636,2.7155,"[{""rating"":99.06250635782878,""responseTime"":2.71550000000002}]",space,3.6679,,824.087,Partially,50,824.0919,,,[],,0,9,9,9,1,audio/Narrative7Situation9.wav,audio/Narrative8Situation9.wav,audio/Narrative5Situation9.wav,audio/Narrative6Situation9.wav,2,3,3,4,,,,,,,,,,,,,,,,,,,,,,,,,,,,,,,,,,,,,,,
,,,,,63039dbefda87c47a91fec04,2025-07-08_00h33.22.497,group3.4_multiperson,2023.2.2,Win32,59.88023952,686c2ebf0248f13bef9af11f,686c9f70c02719da60036970,,,,,,,,,,,,,,,,,,,,,,,,,,,,,824.0927,1,audio/Narrative8Situation1.wav,829.1066,,829.1066,845.0303,"[[87.3,1757],[76.7,1840],[59.8,1923],[48.4,2007],[48.3,2090],[44.2,2174],[43.9,2256],[43,2340],[42.8,2423],[39.7,2511],[16.1,2840],[30.9,2923],[33.2,3006],[35.6,3089],[38,3173],[47.6,3256],[49.7,3340],[49.7,3423],[49.7,3506],[49.7,3589],[49.7,3672],[50.2,3757],[50.2,3839],[48.9,3923],[35.8,4007],[32.5,4089],[30,4173],[30,4256],[29.1,4340],[27,4423],[26.8,4506],[26.7,4589],[26.7,4673],[26.7,4756],[27.3,4840],[28.6,4923],[30.4,5006],[31.5,5089],[31.9,5173],[31.9,5256],[31.9,5340],[32.7,5424],[35.3,5506],[40.6,5590],[43.2,5673],[45.2,5756],[46.1,5839],[47.7,5922],[49,6007],[49.1,6090],[49.1,6173],[49.1,6256],[49.1,6339],[49.5,6423],[49.5,6506],[49.8,6589],[49.8,6672],[49.8,6756],[49.8,6843],[49.8,6923],[49.6,7007],[48.5,7090],[47.5,7173],[47.3,7256],[47.3,7339],[47.3,7423],[47.9,7507],[48.9,7589],[49.3,7673],[49.3,7756],[49.3,7839],[49.3,7923],[49.3,8006],[49.3,8089],[49.3,8173],[48.2,8256],[48,8340],[48,8425],[48,8506],[48,8590],[48,8673],[48,8756],[48,8840],[48,8923],[48,9007],[48,9092],[48,9173],[48,9256],[48.2,9344],[49.5,9423],[50.3,9507],[51.6,9589],[51.6,9672],[51.6,9756],[51.6,9839],[51.6,9922],[51.6,10006],[51.6,10090],[50.7,10173],[49.9,10256],[49.6,10340],[49.6,10423],[49.6,10506],[50.3,10590],[50.5,10672],[50.5,10756],[50.5,10840],[49.4,10923],[46.7,11006],[41.6,11089],[41.6,11173],[41.6,11256],[41.8,11340],[42.4,11423],[43.8,11506],[44.2,11589],[44.3,11674],[44.3,11757],[44.5,11840],[44.5,11923],[44.5,12006],[44.5,12090],[44.5,12173],[44.5,12256],[44.5,12340],[44.5,12423],[44.5,12506],[44.5,12590],[44.5,12673],[44.5,12756],[44.5,12840],[45.6,12923],[46.4,13006],[46.8,13089],[47.1,13173],[47.9,13256],[47.9,13340],[48.2,13423],[48.2,13506],[48.2,13590],[48.2,13673],[48.2,13756],[48.2,13839],[48.2,13922],[48.2,14006],[48.2,14089],[48.2,14172],[48.2,14256],[48.2,14339],[48.2,14426],[48.2,14507],[48.2,14590],[48.2,14673],[48.2,14756],[48.2,14840],[48.2,14923],[48.2,15007],[48.2,15089],[48.2,15172],[48.2,15256],[48.2,15339],[48.2,15423],[48.2,15508],[48.2,15589],[48.2,15673],[48.2,15756],[48.2,15840],[48.2,15923]]",845.0306,850.6463,48.75000318,3.9421,"[{""rating"":48.75000317891438,""responseTime"":3.9421000000238564}]",space,5.0665,,850.6464,Not at all,0,850.6532,,,[],,0,10,10,10,1,audio/Narrative8Situation1.wav,audio/Narrative7Situation1.wav,audio/Narrative6Situation1.wav,audio/Narrative5Situation1.wav,5,2,2,5,,,,,,,,,,,,,,,,,,,,,,,,,,,,,,,,,,,,,,,
,,,,,63039dbefda87c47a91fec04,2025-07-08_00h33.22.497,group3.4_multiperson,2023.2.2,Win32,59.88023952,686c2ebf0248f13bef9af11f,686c9f70c02719da60036970,,,,,,,,,,,,,,,,,,,,,,,,,,,,,850.6539,1,audio/Narrative8Situation2.wav,853.6632,,853.6633,863.7957,"[[50.3,666],[51.4,749],[52.9,832],[54.2,916],[54.7,999],[54.7,1082],[56,1166],[59.6,1249],[59.7,1332],[59.7,1416],[59.7,1499],[60.4,1582],[60.6,1666],[61.9,1749],[61.9,1832],[61.9,1915],[61.9,1999],[61.9,2082],[61.6,2165],[59.7,2249],[56.9,2332],[55,2416],[54.4,2499],[53.4,2582],[52.7,2665],[52.2,2749],[51.1,2832],[50.7,2915],[50.6,2999],[50.3,3082],[49.4,3165],[49.2,3249],[48.3,3332],[48.1,3416],[47.8,3499],[47.6,3582],[47.6,3665],[47.6,3749],[47.6,3833],[47.6,3915],[47.6,3999],[47.6,4082],[47.6,4166],[47.6,4249],[47.6,4332],[47.6,4415],[47.6,4499],[47.6,4582],[47.6,4665],[47.6,4749],[47.6,4832],[47.6,4915],[47.6,4999],[47.5,5083],[46.8,5165],[46.6,5249],[45.9,5332],[45.1,5416],[44.7,5499],[44.4,5582],[44.4,5666],[44.2,5749],[43.4,5833],[43.3,5915],[42.9,5999],[42.5,6082],[42.1,6165],[42.1,6248],[42.1,6332],[42.1,6416],[42.1,6499],[42.1,6582],[42.1,6665],[42.1,6752],[42.1,6832],[42.1,6916],[42.1,6999],[42.1,7082],[42.1,7165],[41.8,7249],[41.2,7332],[40.9,7416],[40.8,7499],[40.8,7582],[40.8,7665],[40.8,7749],[40.8,7832],[40.8,7916],[41.8,7999],[43.4,8083],[43.8,8165],[43.8,8249],[43.4,8333],[43.3,8415],[43.3,8499],[43.3,8582],[43.3,8665],[42.7,8749],[41.8,8832],[41.5,8915],[40.8,8999],[40.8,9082],[40.8,9166],[40.8,9249],[40.8,9332],[40.8,9415],[40.8,9498],[40.8,9582],[40.8,9666],[40.8,9749],[40.7,9833],[40.7,9918],[40.7,9999],[40.7,10082]]",863.7958,867.1631,37.81250318,2.1457,"[{""rating"":37.81250317891438,""responseTime"":2.1457000000476683}]",space,2.8206,,867.1632,Partially,50,867.1719,,,[],,0,11,11,11,1,audio/Narrative8Situation2.wav,audio/Narrative7Situation2.wav,audio/Narrative6Situation2.wav,audio/Narrative5Situation2.wav,3,3,3,3,,,,,,,,,,,,,,,,,,,,,,,,,,,,,,,,,,,,,,,
,,,,,63039dbefda87c47a91fec04,2025-07-08_00h33.22.497,group3.4_multiperson,2023.2.2,Win32,59.88023952,686c2ebf0248f13bef9af11f,686c9f70c02719da60036970,,,,,,,,,,,,,,,,,,,,,,,,,,,,,867.1725,1,audio/Narrative8Situation3.wav,871.1794,,871.1795,893.5621,"[[999,0],[999,83],[999,166],[999,249],[999,333],[999,416],[999,499],[999,583],[999,666],[999,749],[999,832],[999,917],[999,999],[999,1083],[999,1166],[999,1249],[999,1332],[999,1416],[999,1499],[999,1583],[999,1666],[13.3,1749],[15.3,1832],[15.5,1916],[15.5,1999],[15.6,2082],[15.6,2165],[17.2,2249],[17.2,2332],[19.3,2416],[21,2499],[22.3,2582],[23.8,2666],[24,2749],[25.2,2833],[27.6,2916],[27.8,3000],[28,3082],[29.6,3166],[34.3,3249],[34.4,3333],[35.8,3415],[36.5,3499],[36.5,3583],[36.5,3665],[36.5,3749],[36.5,3832],[36.5,3915],[36.7,3999],[37.5,4083],[37.8,4167],[40.1,4249],[42.5,4332],[44.7,4415],[46.7,4499],[47.3,4583],[48.2,4665],[49.2,4749],[49.2,4832],[49.2,4915],[49.2,4999],[49.2,5083],[49.2,5166],[55.2,5250],[57.1,5333],[59.9,5416],[60.9,5499],[60.9,5582],[60.9,5666],[60.9,5749],[60.9,5832],[61.3,5915],[63.5,5999],[65.6,8166],[65.6,8249],[65.6,8332],[65.6,8416],[65.6,8499],[66,8582],[68,8666],[68.1,8749],[69.3,8833],[69.5,8916],[70.2,8999],[70.2,9082],[70.2,9166],[70.2,9249],[70.8,9332],[72.3,9415],[73.1,9499],[74.6,9582],[76.6,9665],[77.8,9749],[80.1,9832],[82.2,9916],[83.5,9999],[84.4,10082],[85.2,10166],[85.7,10249],[86.3,10332],[86.8,10415],[87.4,10500],[88,10583],[88,10665],[88,10749],[88,10832],[88,10916],[88,10999],[88,11082],[88,11166],[96.4,11250],[97.6,11332],[97.6,11415],[95.9,11499],[90.4,11582],[88.1,11665],[88.1,11749],[88.1,11832],[88.1,11915],[88.1,11999],[89.1,12082],[89.5,12165],[89.5,12249],[89.5,12333],[89.6,12415],[89.8,12498],[90.8,12582],[90.8,12666],[90.8,12749],[90.8,12832],[90.9,12916],[91.7,12999],[91.7,13083],[91.7,13165],[92,13249],[92.2,13332],[92.2,13416],[92.2,13499],[92.2,13582],[92.4,13665],[92.4,13749],[92.5,13833],[93.2,13916],[94.3,13999],[95.6,14082],[96.6,14166],[96.6,14249],[96.7,14335],[96.7,14416],[96.7,14499],[96.7,14582],[96.7,14666],[96.7,14749],[96.8,14832],[97,14915],[97,14999],[97,15082],[97.1,15165],[97.1,15249],[97.4,15332],[97.6,15415],[97.9,15499],[97.9,15582],[97.9,15665],[97.9,15748],[97.9,15832],[97.9,15915],[97.9,15998],[100,16082],[100,16166],[100,16249],[100,16332],[100,16415],[100,16499],[100,16582],[100,16666],[100,16749],[100,16832],[100,16915],[100,16999],[99.1,17083],[98.5,17166],[98.5,17248],[98.5,17332],[98.5,17415],[98.6,17499],[99.5,17582],[99.5,17665],[99.5,17749],[99.5,17832],[98.5,17915],[97.8,17999],[97.7,18082],[97.5,18166],[97.5,18248],[98.3,18332],[98.4,18416],[98.4,18499],[98.8,18582],[98.9,18670],[100,18748],[100,18832],[100,18915],[100,18999],[100,19082],[100,19165],[100,19249],[99,19332],[98,19415],[96.7,19498],[95.5,19582],[95.4,19665],[95.4,19750],[95.4,19832],[95.6,19915],[96.7,19999],[96.8,20082],[96.9,20165],[96.9,20249],[96.9,20332],[96.9,20416],[98.9,20500],[100,20582],[100,20665],[100,20748],[100,20832],[100,20916],[100,20998],[100,21082],[99.6,21165],[99,21249],[99,21332],[99,21415],[99,21499],[99,21583],[99,21666],[99,21748],[99,21832],[99,21915],[99,21999],[99,22082],[99,22165],[99,22248],[99,22332]]",893.5622,897.9623,99.58333969,2.8924,"[{""rating"":99.58333969116211,""responseTime"":2.892399999976192}]",space,3.8506,,897.9625,Partially,50,897.9681,,,[],,0,12,12,12,1,audio/Narrative8Situation3.wav,audio/Narrative7Situation3.wav,audio/Narrative6Situation3.wav,audio/Narrative5Situation3.wav,4,8,5,3,,,,,,,,,,,,,,,,,,,,,,,,,,,,,,,,,,,,,,,
,,,,,63039dbefda87c47a91fec04,2025-07-08_00h33.22.497,group3.4_multiperson,2023.2.2,Win32,59.88023952,686c2ebf0248f13bef9af11f,686c9f70c02719da60036970,,,,,,,,,,,,,,,,,,,,,,,,,,,,,897.9688,1,audio/Narrative8Situation4.wav,900.98,,900.98,915.1616,"[[999,0],[999,81],[999,166],[999,248],[999,331],[999,414],[999,498],[999,581],[999,665],[999,748],[999,831],[999,920],[999,999],[999,1082],[5.1,1164],[5.4,1248],[3.3,1331],[2.5,1414],[2.5,1498],[2.5,1581],[2.5,1665],[2.5,1748],[1.8,1831],[1.6,1915],[1.5,1998],[1.5,2081],[1.3,2164],[1.3,2248],[1.3,2331],[1.3,2415],[1.3,2498],[2,2581],[4,2665],[23.1,2999],[40.7,3082],[49.9,3165],[50,3248],[50,3332],[53.4,3415],[59.4,3498],[60.1,3581],[89.1,4498],[90.4,4581],[90.9,4664],[91.8,4749],[93.4,4831],[93.4,4914],[93.4,4998],[93.4,5081],[93.4,5164],[93.4,5248],[93.4,5331],[93.4,5415],[93.4,5498],[93.4,5581],[93.4,5664],[93.4,5748],[93.4,5833],[95.4,5914],[97.1,5999],[97.3,6081],[97.4,6164],[96.7,6252],[96.5,6331],[95.8,6415],[95.7,6498],[96,6581],[100,6664],[100,6748],[100,6831],[100,6914],[100,6998],[100,7081],[100,7165],[100,7248],[100,7332],[100,7415],[100,7499],[100,7582],[100,7665],[100,7751],[98.9,7831],[97.9,7915],[97.9,7998],[97.9,8082],[97.9,8165],[97.9,8248],[97.9,8331],[97.9,8415],[97.9,8498],[97.9,8581],[97.9,8668],[97.9,8748],[97.9,8831],[97.9,8914],[97.9,8998],[97.9,9081],[97.9,9165],[97.9,9248],[97.9,9331],[97.9,9415],[97.9,9498],[97.9,9581],[97.9,9665],[97.9,9748],[97.9,9831],[97.9,9914],[97.9,10003],[97.9,10081],[97.9,10164],[98.2,10248],[98.2,10331],[98.2,10414],[98.2,10498],[98.2,10581],[98.2,10665],[98.2,10748],[98.2,10832],[98.2,10914],[98.2,10998],[98.2,11081],[98.2,11164],[98.2,11248],[98.2,11331],[98.2,11415],[98.2,11497],[98.2,11582],[98.2,11664],[98.2,11749],[98.2,11831],[98.2,11914],[98.2,11997],[98.2,12081],[98.2,12164],[98.2,12247],[98.2,12331],[98.2,12414],[98.2,12498],[98.2,12581],[98.2,12664],[98.2,12749],[98.2,12831],[98.2,12914],[98.2,12998],[98.2,13081],[98.2,13164],[98.2,13248],[98.4,13331],[99.5,13415],[100,13497],[100,13581],[100,13664],[100,13748],[99.8,13831],[99.8,13915],[99.8,13997],[99.8,14081],[99.8,14164]]",915.1618,918.0284,99.89584287,1.2897,"[{""rating"":99.89584287007649,""responseTime"":1.2036000000238118},{""rating"":99.89584287007649,""responseTime"":1.2897000000476737}]",space,2.3409,,918.0285,Not at all,0,918.037,,,[],,0,13,13,13,1,audio/Narrative8Situation4.wav,audio/Narrative7Situation4.wav,audio/Narrative6Situation4.wav,audio/Narrative5Situation4.wav,3,3,2,1,,,,,,,,,,,,,,,,,,,,,,,,,,,,,,,,,,,,,,,
,,,,,63039dbefda87c47a91fec04,2025-07-08_00h33.22.497,group3.4_multiperson,2023.2.2,Win32,59.88023952,686c2ebf0248f13bef9af11f,686c9f70c02719da60036970,,,,,,,,,,,,,,,,,,,,,,,,,,,,,918.0375,1,audio/Narrative8Situation5.wav,920.045,,920.0451,928.3119,"[[57.4,1250],[56.1,1332],[61.4,1416],[64.6,1499],[64.6,1583],[66.1,1666],[70.6,1750],[71.6,1832],[71.9,1916],[72.9,1999],[73.9,2083],[74.6,2166],[75.8,2249],[77.6,2333],[78.9,2416],[79.1,2499],[79.6,2582],[79.6,2666],[80.5,2750],[82.1,2833],[82.8,2915],[82.8,2999],[82.8,3082],[82.8,3166],[82.8,3249],[82.8,3333],[82.8,3415],[82.8,3499],[82.8,3583],[82.8,3666],[82.8,3749],[82.8,3832],[82.8,3915],[82.8,3999],[82.8,4082],[82.8,4166],[83.4,4249],[86.3,4332],[86.9,4415],[88.2,4499],[88.2,4582],[88.2,4666],[88.2,4750],[88.1,4832],[88.1,4916],[88.1,4999],[88.1,5082],[88.1,5166],[88.1,5249],[88.1,5332],[90.4,5416],[94.2,5499],[94.3,5583],[94.3,5666],[94.7,5749],[95.3,5832],[95.5,5916],[96.4,5999],[98.3,6082],[98.4,6165],[98.4,6249],[98.4,6332],[98.4,6416],[98.4,6499],[98.4,6582],[98.4,6666],[98.4,6749],[98.4,6832],[98.4,6916],[98.4,6999],[98.4,7082],[98,7166],[94.2,7250],[89.7,7332],[89.7,7415],[89.7,7499],[91.7,7583],[94.5,7666],[94.7,7749],[96.4,7833],[99.5,7915],[99.5,7999],[99.5,8082],[99.5,8166],[99.5,8249]]",928.312,931.8282,99.47916667,1.4097,"[{""rating"":99.47916666666667,""responseTime"":1.4097000000476783}]",space,2.9704,,931.8282,Partially,50,931.8367,,,[],,0,14,14,14,1,audio/Narrative8Situation5.wav,audio/Narrative7Situation5.wav,audio/Narrative6Situation5.wav,audio/Narrative5Situation5.wav,2,5,2,5,,,,,,,,,,,,,,,,,,,,,,,,,,,,,,,,,,,,,,,
,,,,,63039dbefda87c47a91fec04,2025-07-08_00h33.22.497,group3.4_multiperson,2023.2.2,Win32,59.88023952,686c2ebf0248f13bef9af11f,686c9f70c02719da60036970,,,,,,,,,,,,,,,,,,,,,,,,,,,,,931.8372,1,audio/Narrative8Situation6.wav,933.8451,,933.8453,940.3281,"[[97.9,503],[97.8,582],[97.4,666],[96.4,750],[93.8,833],[91.3,915],[90.7,998],[90.7,1082],[90.7,1167],[90.7,1249],[90.3,1333],[84.3,1417],[82.2,1499],[82.2,1582],[82.2,1665],[82.2,1749],[82.2,1832],[82.2,1915],[82.2,1999],[82.2,2081],[82.2,2165],[82.2,2249],[82.2,2333],[82.2,2416],[82.2,2499],[82.2,2582],[82.2,2666],[82.2,2749],[82.2,2832],[82.2,2915],[82.2,2999],[82.2,3082],[82.2,3165],[82.2,3249],[82.2,3332],[82.2,3415],[82.2,3499],[82.2,3582],[82.2,3665],[82.2,3749],[82.2,3832],[82.2,3916],[82.2,3999],[82.2,4082],[82.2,4165],[82.2,4249],[82.2,4332],[82.2,4416],[82.2,4499],[82.2,4582],[82.2,4665],[82.2,4749],[82.2,4832],[82.2,4915],[82.2,4999],[82.2,5082],[82.2,5165],[82.2,5249],[86.6,5332],[89.3,5416],[92.9,5498],[95.2,5583],[96.9,5665],[98.3,5749],[100,5832],[100,5915],[100,5999],[100,6082],[100,6166],[100,6248],[100,6332],[100,6415]]",940.3282,944.6116,99.37500954,2.3894,"[{""rating"":99.37500953674316,""responseTime"":2.389399999976149}]",space,3.7566,,944.6117,Definitely yes,100,944.6207,,,[],,0,15,15,15,1,audio/Narrative8Situation6.wav,audio/Narrative7Situation6.wav,audio/Narrative6Situation6.wav,audio/Narrative5Situation6.wav,2,3,2,3,,,,,,,,,,,,,,,,,,,,,,,,,,,,,,,,,,,,,,,
,,,,,63039dbefda87c47a91fec04,2025-07-08_00h33.22.497,group3.4_multiperson,2023.2.2,Win32,59.88023952,686c2ebf0248f13bef9af11f,686c9f70c02719da60036970,,,,,,,,,,,,,,,,,,,,,,,,,,,,,944.6215,1,audio/Narrative8Situation7.wav,947.6282,,947.6283,959.7213,"[[92.3,175],[90.6,256],[80.5,345],[80.5,422],[80.3,504],[80.3,588],[80.3,671],[80.3,754],[78.2,841],[73.3,921],[73.3,1011],[73.3,1088],[73.3,1171],[73.3,1259],[73.3,1338],[69.2,1423],[37.3,2088],[49.2,2173],[54.5,2254],[55.6,2337],[55.6,2425],[55.6,2499],[55.5,2582],[54.5,2672],[54.5,2754],[56.5,2839],[64.9,2921],[74.3,3004],[75.8,3093],[75.8,3171],[75.8,3254],[77.2,3338],[78.7,3422],[80.2,3505],[82.5,3588],[84.4,3673],[84.4,3755],[84.6,3839],[85.2,3921],[86.7,4006],[87.4,4088],[88.2,4172],[90.3,4261],[96.5,4340],[99.1,4422],[99.1,4505],[99.1,4588],[99.1,4671],[99.1,4755],[99.1,4838],[99.1,4921],[99.1,5005],[99.1,5090],[99.1,5171],[99.9,5256],[100,5342],[100,5421],[100,5505],[100,5585],[100,5671],[100,5757],[100,5837],[99.9,5921],[99.9,6009],[99.9,6090],[99.9,6172],[99.9,6255],[99.9,6338],[100,6426],[100,6506],[100,6588],[100,6671],[100,6755],[100,6839],[100,6922],[100,7005],[100,7093],[100,7171],[100,7255],[100,7340],[99.5,7421],[98,7504],[97.8,7592],[97.8,7671],[97.8,7755],[97.8,7837],[97.9,7922],[98.6,8005],[99.2,8083],[100,8172],[100,8257],[100,8339],[100,8421],[100,8498],[100,8588],[100,8671],[100,8755],[100,8838],[100,8921],[100,9009],[100,9087],[100,9174],[100,9254],[100,9337],[100,9422],[100,9498],[100,9587],[100,9673],[100,9754],[100,9838],[100,9921],[100,10005],[100,10082],[100,10171],[100,10256],[99.6,10338],[99.3,10421],[99.1,10504],[99.1,10590],[99.1,10671],[99.1,10756],[99.1,10837],[99.1,10921],[99.1,11007],[99.1,11088],[99.1,11171],[99.1,11258],[99.1,11338],[99.1,11421],[99.1,11504],[99.4,11588],[100,11671],[100,11754],[100,11843],[100,11921],[100,12004],[100,12092]]",959.7215,963.2107,99.47916667,1.847,"[{""rating"":99.47916666666667,""responseTime"":1.84699999999998}]",space,2.9534,,963.2108,Partially,50,963.2164,,,[],,0,16,16,16,1,audio/Narrative8Situation7.wav,audio/Narrative7Situation7.wav,audio/Narrative6Situation7.wav,audio/Narrative5Situation7.wav,3,5,5,4,,,,,,,,,,,,,,,,,,,,,,,,,,,,,,,,,,,,,,,
,,,,,63039dbefda87c47a91fec04,2025-07-08_00h33.22.497,group3.4_multiperson,2023.2.2,Win32,59.88023952,686c2ebf0248f13bef9af11f,686c9f70c02719da60036970,,,,,,,,,,,,,,,,,,,,,,,,,,,,,963.2167,1,audio/Narrative8Situation8.wav,966.2278,,966.2279,979.1101,"[[99.4,666],[99.1,751],[98.8,832],[98.8,915],[98.8,998],[98.8,1082],[98.8,1165],[98.3,1248],[98.1,1332],[98.1,1415],[99.4,1500],[100,1582],[100,1665],[100,1748],[99.6,1833],[99.3,1917],[99.3,1999],[99.3,2082],[99.3,2168],[99.3,2249],[99.3,2332],[99.3,2415],[99.3,2499],[99.1,2582],[99.1,2665],[98.2,2749],[98.2,2837],[98.2,2915],[97.9,3000],[96.6,3082],[94.5,3165],[94.5,3248],[94.5,3332],[94.5,3415],[94.5,3499],[94.5,3582],[94.5,3665],[94.5,3749],[94.5,3832],[94.5,3915],[94.5,4001],[94.5,4082],[94.1,4166],[91.3,4249],[89.7,4333],[85.9,4416],[82.8,4499],[82.4,4582],[82.4,4666],[82.4,4749],[82.4,4832],[82.4,4915],[82.4,4998],[82.4,5083],[82.4,5165],[82.3,5249],[82.3,5332],[82.3,5415],[82.3,5498],[82.3,5582],[82.3,5665],[82.3,5748],[82.3,5832],[82.3,5915],[82.3,5998],[82.3,6082],[82.3,6165],[82.3,6249],[84,6332],[88.2,6416],[88.5,6498],[88.5,6582],[88.5,6665],[88.7,6749],[88.9,6836],[89.3,6915],[89.3,6999],[89.3,7082],[89.5,7165],[90.2,7249],[92.3,7333],[93,7416],[94.9,7500],[95.7,7582],[95.7,7665],[95.7,7748],[95.7,7832],[95.7,7915],[95.7,7998],[95.7,8082],[95.7,8165],[96.8,8248],[97.8,8332],[98.9,8415],[99.3,8498],[99.3,8581],[99.3,8665],[99.3,8748],[99.3,8832],[99.1,8915],[98.9,8998],[98.9,9082],[98.9,9165],[98.9,9249],[98.9,9332],[98.9,9415],[98.9,9501],[98.9,9582],[98.9,9665],[98.9,9749],[98.1,9832],[97.1,9916],[96.5,9999],[96.5,10082],[96.5,10165],[96.5,10248],[96.5,10332],[96.1,10415],[95.9,10498],[95.9,10582],[95.9,10668],[95.9,10748],[95.9,10832],[95.9,10915],[95.9,10999],[95.9,11082],[95.9,11165],[95.9,11248],[95.9,11332],[95.9,11415],[95.9,11498],[95.9,11582],[95.6,11666],[95.8,11748],[96.5,11832],[97.3,11916],[98.4,11998],[99.4,12082],[100,12166],[100,12248],[100,12332],[100,12415],[100,12499],[100,12582],[100,12665],[100,12749],[100,12832]]",979.1102,982.4267,99.16666349,1.775,"[{""rating"":99.16666348775227,""responseTime"":1.7749999999999773}]",space,2.7899,,982.4267,Definitely yes,100,982.4299,,,[],,0,17,17,17,1,audio/Narrative8Situation8.wav,audio/Narrative7Situation8.wav,audio/Narrative6Situation8.wav,audio/Narrative5Situation8.wav,3,2,5,3,,,,,,,,,,,,,,,,,,,,,,,,,,,,,,,,,,,,,,,
,,,,,63039dbefda87c47a91fec04,2025-07-08_00h33.22.497,group3.4_multiperson,2023.2.2,Win32,59.88023952,686c2ebf0248f13bef9af11f,686c9f70c02719da60036970,,,,,,,,,,,,,,,,,,,,,,,,,,,,,982.4301,1,audio/Narrative8Situation9.wav,985.4433,,985.4433,996.7597,"[[97.6,916],[87.8,1000],[86.7,1086],[85.5,1167],[84.5,1250],[75.6,1338],[53.1,1416],[51.5,1917],[73.6,2583],[72.9,2667],[72.7,2750],[72.7,2833],[73.3,2916],[78,3003],[88.6,3833],[89.1,3917],[95,4000],[95.3,4083],[96.8,4167],[97.8,4251],[100,4334],[100,4416],[100,4500],[100,4585],[100,4666],[100,4750],[100,4833],[100,4916],[100,5000],[100,5083],[100,5166],[100,5252],[100,5333],[100,5416],[100,5500],[100,5582],[100,5666],[100,5750],[100,5833],[100,5916],[100,6000],[100,6084],[99.6,6166],[99.6,6249],[99.6,6333],[99.6,6416],[99.6,6501],[99.6,6583],[99.6,6666],[98.9,6750],[97.9,6833],[97.7,6916],[97.7,7000],[97.8,7083],[98.6,7167],[99.7,7249],[99.9,7337],[99.9,7416],[99.9,7500],[99.9,7583],[99.9,7666],[99.9,7750],[99.9,7832],[99.9,7916],[99.9,8000],[99.9,8082],[99.9,8166],[99.9,8249],[99.9,8333],[99.9,8416],[99.9,8499],[99.9,8583],[99.9,8666],[99.9,8750],[99.9,8833],[99.9,8916],[99.9,9002],[99.9,9083],[99.9,9166],[99.9,9250],[99.9,9333],[99.9,9416],[99.9,9500],[99.6,9583],[97.2,9666],[97.4,9750],[99.5,9833],[100,9916],[100,10000],[100,10083],[100,10167],[100,10249],[100,10332],[100,10416],[100,10500],[100,10583],[100,10666],[100,10750],[100,10832],[100,10916],[100,11000],[100,11082],[100,11166],[100,11249]]",996.7598,1001.3265,99.68749682,2.7584,"[{""rating"":99.68749682108562,""responseTime"":2.7583999999761772}]",space,4.0167,,1001.3266,Partially,50,1001.3317,,,[],,0,18,18,18,1,audio/Narrative8Situation9.wav,audio/Narrative7Situation9.wav,audio/Narrative6Situation9.wav,audio/Narrative5Situation9.wav,3,2,4,3,,,,,,,,,,,,,,,,,,,,,,,,,,,,,,,,,,,,,,,
,,,,,63039dbefda87c47a91fec04,2025-07-08_00h33.22.497,group3.4_multiperson,2023.2.2,Win32,59.88023952,686c2ebf0248f13bef9af11f,686c9f70c02719da60036970,,,,,,,,,,,,,,,,,,,,,,,,,,,1042.5942,1045.1757,1045.2135,2,audio/Narrative13Situation2.wav,1045.2135,,1045.2135,1074.9491,"[[999,0],[999,67],[999,150],[999,234],[999,317],[999,401],[999,487],[999,567],[999,645],[999,734],[999,818],[999,894],[999,984],[999,1068],[999,1150],[999,1234],[999,1322],[999,1400],[999,1478],[999,1567],[999,1653],[999,1734],[999,1817],[999,1901],[999,1989],[999,2067],[999,2151],[999,2235],[999,2318],[26.6,2405],[5.5,2734],[5,2818],[4.6,2902],[4,2984],[4,3068],[4,3151],[3.3,3234],[3.3,3311],[3.3,3400],[4.7,3486],[7.1,3568],[7.3,3652],[7.3,3734],[7.3,3817],[7.4,3894],[6.3,3984],[5.6,4073],[5.6,4151],[5.6,4234],[4.8,4317],[4.5,4400],[3.9,4489],[2.4,4567],[2,4652],[1.8,4736],[1.8,4817],[1.8,4901],[1.8,4985],[3.3,5067],[5.5,5151],[6,5234],[6,5317],[6,5403],[6,5483],[6,5567],[6,5654],[6,5734],[6.6,5819],[8.3,5901],[9,5984],[9.2,6067],[9.2,6153],[9.2,6234],[9.2,6317],[9.2,6401],[9.2,6484],[9.2,6571],[10,6650],[12.1,6734],[12.6,6821],[13.2,6901],[17.9,6984],[20.8,7068],[22.4,7151],[23.9,7234],[25.7,7319],[27.4,7400],[27.8,7484],[28.5,7571],[30.5,7651],[32.5,7735],[34.9,7818],[40.8,7901],[50.2,7985],[53.9,8070],[53.9,8150],[53.9,8236],[53.9,8311],[53.9,8401],[54.2,8489],[54.2,8567],[54.2,8651],[54.2,8738],[54.2,8817],[54.2,8900],[56.4,8990],[57.6,9069],[59.7,9151],[61.7,9240],[61.9,9318],[61.9,9404],[61.9,9484],[61.9,9572],[61.9,9651],[61.9,9734],[61.9,9821],[63.1,9903],[65.1,9986],[67,10068],[68,10150],[68.2,10238],[68.8,10317],[68.8,10400],[68.8,10484],[64.4,10568],[52.6,10652],[52.4,10734],[52.4,10821],[52.2,10901],[50.9,10983],[49.6,11068],[49.4,11151],[49.4,11233],[48.8,11318],[47.6,11394],[45.8,11484],[39,11568],[37.3,11651],[37.3,11734],[37.3,11820],[37.3,11901],[37.3,11984],[37.3,12072],[37.3,12151],[37.3,12234],[37.3,12317],[37.3,12401],[37.3,12486],[37.3,12568],[37.2,12655],[36.7,12734],[36.7,12817],[34.9,12906],[32.3,12984],[32.1,13068],[32.1,13154],[32.1,13234],[32.1,13318],[32.1,13405],[32.1,13484],[32.1,13568],[32.1,13650],[32.1,13734],[32.1,13821],[32.1,13901],[32.1,13984],[32.1,14069],[32.1,14150],[32.1,14236],[32.1,14319],[32.1,14401],[32.1,14487],[32.1,14567],[32.1,14651],[32.1,14734],[32.1,14818],[32.1,14900],[32.1,14977],[32.1,15067],[32.1,15150],[32.1,15237],[32.1,15317],[32.1,15400],[32.1,15488],[32.1,15567],[32.1,15651],[32.1,15735],[32.7,15819],[34.1,15901],[35.5,15985],[35.5,16068],[35.5,16153],[35.5,16234],[35.5,16317],[35.5,16403],[35.5,16483],[35.5,16568],[35.5,16648],[35.5,16734],[35.5,16819],[35.5,16901],[35.5,16984],[35.5,17069],[35.5,17150],[35.5,17233],[35.5,17321],[35.5,17401],[35.5,17488],[35.5,17567],[35.5,17650],[35.5,17738],[35.5,17816],[35.5,17901],[35.5,17988],[35.5,18067],[35.5,18150],[40.1,18227],[40.1,18317],[40.1,18405],[40.1,18484],[40.1,18568],[39.2,18651],[37.3,18733],[37.3,18817],[37.3,18902],[37.3,18984],[33.1,19069],[31.9,19150],[31.9,19234],[31.9,19319],[31.7,19400],[30.3,19484],[28.9,19568],[28.2,19650],[28.2,19734],[28.2,19819],[28.2,19900],[28.2,19984],[28.2,20068],[28.2,20151],[28.2,20235],[28.2,20317],[28.2,20400],[28.2,20485],[28.2,20567],[29.4,20652],[30.1,20737],[30.3,20818],[32.6,20901],[33.2,20989],[33.2,21061],[36.5,21150],[39.7,21237],[41.1,21317],[41.7,21401],[42.2,21484],[43.2,21567],[44.6,21654],[45.7,21733],[45.8,21817],[45.8,21905],[45.8,21983],[46.7,22067],[46.9,22152],[47.7,22235],[47.9,22317],[47.9,22402],[47.9,22484],[47.9,22567],[47.9,22653],[47.9,22734],[47.9,22822],[47.9,22901],[47.9,22983],[47.9,23072],[47.9,23150],[47.9,23233],[47.9,23319],[47.9,23400],[47.9,23483],[47.9,23567],[47.9,23650],[47.9,23736],[48.1,23818],[51.6,25318],[51,25406],[50.7,25483],[50.7,25571],[50.7,25650],[50.7,25738],[50.5,25817],[49.6,25900],[49.6,25986],[49.6,26068],[49.6,26150],[49.6,26237],[49.6,26317],[49.7,26400],[49.7,26488],[49.9,26567],[49.9,26648],[49.9,26734],[49.9,26817],[49.9,26904],[49.9,26983],[50.9,27067],[52.2,27156],[52.7,27234],[52.7,27317],[52.7,27402],[52.7,27484],[52.7,27567],[51.7,27654],[49.9,27734],[49.9,27821],[49.9,27900],[49.9,27983],[49.4,28074],[49.1,28144],[48.9,28237],[48.9,28317],[48.9,28400],[48.9,28486],[48.9,28567],[48.9,28651],[48.9,28734],[47.9,28820],[47.2,28903],[46.9,28984],[46.6,29067],[46.6,29151],[46.6,29234],[46.6,29317],[46.6,29404],[46.6,29483],[46.6,29567],[46.6,29651],[46.6,29734]]",1074.9494,1074.9547,,,[],,,,1074.9549,Definitely yes,100,1074.9625,,,[],,0,0,0,0,1,audio/Narrative13Situation2.wav,audio/Narrative13Situation2.wav,audio/Narrative13Situation2.wav,audio/Narrative13Situation2.wav,2,2,2,2,,,,,1001.3323,1042.5935,space,40.7329,,,,,,,,,,,,,,,,,,,,,,,,,,,,,,,
,,,,,63039dbefda87c47a91fec04,2025-07-08_00h33.22.497,group3.4_multiperson,2023.2.2,Win32,59.88023952,686c2ebf0248f13bef9af11f,686c9f70c02719da60036970,,,,,,,,,,,,,,,,,,,,,,,,,,,,,1074.963,2,audio/Narrative5Situation1.wav,1079.9745,,1079.9746,1093.2591,"[[45.2,1666],[44.5,1750],[44.3,1834],[44.3,1916],[44.3,2000],[42.8,2084],[42.5,2167],[42.5,2250],[42.5,2333],[42.5,2418],[42.5,2499],[42.5,2583],[42.5,2666],[42.5,2750],[39.9,2834],[39.4,2916],[36,3000],[34.9,3083],[34.3,3166],[34.3,3250],[33.6,3333],[32.1,3417],[30.1,3501],[29.6,3583],[29.6,3666],[28.4,3750],[26.8,3834],[25.1,3917],[23.1,4001],[22,4084],[21.1,4167],[20.6,4250],[20.3,4333],[19.9,4417],[18.9,4501],[18.1,4587],[16.3,4667],[15.8,4750],[14.8,4833],[14.8,4917],[13.8,5001],[12,5084],[10.7,5167],[10.1,5250],[10.1,5333],[10.1,5416],[10.1,5500],[10.1,5583],[10.1,5667],[10.1,5750],[10.1,5833],[10.1,5917],[9.3,6000],[8.8,6083],[8.8,6169],[8.3,6250],[8.3,6333],[10.2,6417],[15,6499],[15,6583],[15,6666],[15,6750],[13,6833],[10.1,6917],[9.9,7000],[8.5,7083],[6.4,7166],[1.4,7250],[0.4,7333],[0.4,7416],[0.4,7500],[1.3,7583],[2.9,7666],[4.7,7749],[5,7833],[5.2,7916],[5.6,8000],[5.9,8084],[6.4,8167],[6.8,8250],[7.8,8333],[9,8416],[10.1,8500],[11.2,8587],[11.4,8666],[11.4,8749],[11.4,8833],[11.4,8916],[11.4,9000],[11.4,9083],[11.4,9166],[12.9,9250],[13.1,9333],[14.2,9416],[17.5,9500],[19,9583],[21.6,9666],[24,9750],[25.2,9833],[26.6,9916],[26.9,10000],[26.9,10083],[26.9,10166],[26.9,10250],[26.9,10333],[28,10417],[29.2,10500],[29.2,10583],[29.2,10666],[29.3,10750],[29.3,10833],[29.3,10916],[29.3,11000],[31.5,11087],[36.9,11167],[38.5,11250],[39.7,11333],[39.7,11416],[39.7,11500],[39.7,11583],[39.7,11667],[39.7,11751],[41.4,11834],[43.8,11916],[44.6,12001],[45.4,12083],[45.4,12166],[45.4,12250],[45.4,12333],[45.4,12416],[45.8,12500],[46.4,12583],[47,12667],[47.8,12750],[48.9,12833],[48.9,12916],[48.9,12999],[48.9,13083],[48.9,13166],[49.9,13250]]",1093.2596,1100.1749,48.12500477,5.0885,"[{""rating"":48.12500476837158,""responseTime"":5.088500000000067}]",space,6.3733,,1100.1751,Partially,50,1100.1849,,,[],,0,1,1,1,1,audio/Narrative7Situation1.wav,audio/Narrative8Situation1.wav,audio/Narrative5Situation1.wav,audio/Narrative6Situation1.wav,2,5,5,2,,,,,,,,,,,,,,,,,,,,,,,,,,,,,,,,,,,,,,,
,,,,,63039dbefda87c47a91fec04,2025-07-08_00h33.22.497,group3.4_multiperson,2023.2.2,Win32,59.88023952,686c2ebf0248f13bef9af11f,686c9f70c02719da60036970,,,,,,,,,,,,,,,,,,,,,,,,,,,,,1100.1855,2,audio/Narrative5Situation2.wav,1103.1912,,1103.1912,1132.6579,"[[24.6,1416],[23.3,1500],[23,1582],[22.8,1666],[22.7,1749],[22.7,1833],[22.7,1916],[22.7,1999],[22.7,2083],[22.7,2166],[22.7,2249],[22.7,2332],[23.1,2417],[25.1,2500],[27.3,2583],[27.4,2666],[27.4,2749],[27.4,2833],[27.4,2917],[27.6,3000],[27.8,3082],[27.8,3166],[27.8,3249],[27.8,3333],[27.8,3416],[27.8,3499],[27.8,3583],[27.8,3666],[27.8,3749],[27.8,3832],[27.8,3916],[27.8,3999],[27.8,4083],[27.8,4166],[27.8,4249],[27.8,4332],[27.9,4416],[28.9,4499],[31.1,4583],[31.3,4666],[31.5,4749],[31.5,4833],[31.5,4918],[31.5,4999],[36,5083],[51,6171],[51.7,6249],[51.7,6333],[49.6,6416],[49.1,6499],[48.8,6583],[48,6666],[48,6750],[48,6836],[48,6916],[48,7000],[48,7083],[48,7166],[48,7249],[48,7333],[48,7416],[48,7499],[48,7583],[48,7666],[48,7749],[48,7832],[48,7915],[48,7999],[48.1,8083],[50.3,8166],[57.6,8249],[61.1,8332],[61.1,8417],[61.1,8499],[61.1,8583],[61.1,8666],[61.1,8749],[61.1,8833],[61.1,8916],[61.1,8999],[80.7,9832],[80.7,9916],[80.7,9999],[81,10083],[82.9,10166],[84.8,10249],[87,10332],[88.2,10416],[88.2,10499],[88.2,10583],[88.2,10666],[88.2,10749],[88.2,10833],[88.2,10916],[88.2,10999],[88.2,11083],[88.2,11165],[88.2,11249],[88.2,11332],[88.2,11417],[88.2,11499],[88.2,11583],[88.2,11666],[88.2,11749],[88.2,11832],[88.2,11916],[88.2,11999],[88.2,12082],[88.2,12165],[88.2,12250],[88.2,12332],[88.2,12415],[88.2,12500],[88.2,12582],[88.2,12666],[88.2,12750],[88.2,12833],[88.2,12916],[88.2,12999],[88.2,13082],[88.2,13166],[88.2,13249],[88.2,13333],[88.2,13415],[88.2,13499],[88.2,13582],[88.2,13666],[89.3,13750],[93.3,13832],[100,13917],[100,14000],[100,14082],[100,14165],[100,14253],[100,14333],[100,14415],[100,14499],[100,14582],[100,14665],[100,14749],[100,14833],[100,14918],[100,14999],[100,15083],[100,15166],[100,15249],[100,15336],[100,15416],[100,15500],[100,15582],[100,15665],[100,15749],[100,15832],[100,15916],[100,16001],[100,16082],[100,16165],[100,16249],[100,16333],[100,16416],[100,16499],[100,16582],[100,16666],[100,16749],[100,16833],[100,16916],[100,16999],[100,17082],[100,17166],[100,17249],[100,17332],[100,17415],[100,17499],[100,17582],[100,17666],[100,17749],[100,17832],[100,17916],[100,18002],[100,18082],[100,18165],[100,18249],[100,18332],[100,18416],[100,18499],[100,18582],[100,18666],[100,18749],[100,18833],[100,18916],[100,18999],[100,19082],[100,19166],[100,19250],[100,19332],[100,19416],[100,19499],[100,19582],[100,19665],[100,19749],[100,19832],[100,19916],[100,19999],[100,20082],[100,20166],[100,20248],[100,20333],[100,20416],[100,20499],[100,20583],[100,20666],[100,20749],[100,20832],[100,20916],[100,21002],[100,21083],[100,21166],[100,21248],[100,21332],[100,21416],[100,21498],[100,21582],[100,21665],[100,21749],[100,21832],[100,21915],[100,21998],[100,22085],[100,22166],[100,22249],[100,22333],[100,22416],[100,22499],[100,22582],[100,22666],[100,22749],[100,22833],[100,22915],[100,22999],[100,23082],[100,23166],[100,23249],[100,23332],[100,23415],[100,23498],[100,23582],[100,23667],[100,23749],[100,23832],[100,23915],[100,23998],[100,24082],[100,24165],[100,24248],[100,24332],[100,24415],[100,24499],[100,24582],[100,24665],[100,24749],[100,24832],[100,24915],[100,24999],[100,25082],[100,25165],[100,25250],[100,25332],[100,25415],[100,25499],[100,25582],[100,25665],[100,25748],[100,25832],[100,25915],[100,25999],[100,26082],[100,26165],[100,26248],[100,26332],[100,26415],[100,26499],[100,26582],[100,26665],[100,26749],[100,26832],[100,26915],[100,26999],[100,27082],[100,27166],[100,27249],[100,27332],[100,27415],[99.6,27499],[99,27582],[99,27666],[99,27749],[99,27832],[99,27916],[99,28000],[99.7,28082],[100,28165],[100,28249],[100,28333],[100,28416],[100,28499],[100,28582],[100,28665],[100,28749],[100,28832],[100,28916],[100,28999],[100,29083],[100,29166],[100,29249],[100,29332],[100,29415]]",1132.6583,1136.9406,99.37500954,2.2468,"[{""rating"":99.37500953674316,""responseTime"":2.2468000000715165}]",space,3.737,,1136.9406,Partially,50,1136.9451,,,[],,0,2,2,2,1,audio/Narrative7Situation2.wav,audio/Narrative8Situation2.wav,audio/Narrative5Situation2.wav,audio/Narrative6Situation2.wav,3,3,3,3,,,,,,,,,,,,,,,,,,,,,,,,,,,,,,,,,,,,,,,
,,,,,63039dbefda87c47a91fec04,2025-07-08_00h33.22.497,group3.4_multiperson,2023.2.2,Win32,59.88023952,686c2ebf0248f13bef9af11f,686c9f70c02719da60036970,,,,,,,,,,,,,,,,,,,,,,,,,,,,,1136.9456,2,audio/Narrative5Situation3.wav,1139.9567,,1139.9567,1153.8566,"[[64.9,1666],[66.6,1750],[72.6,1833],[77.9,1917],[81.5,2000],[83.8,2083],[83.8,2167],[83.8,2250],[83.8,2333],[83.8,2416],[83.8,2500],[84,2583],[85,2666],[86.4,2751],[89,2833],[91.3,2916],[92.2,3000],[92.2,3083],[92.2,3166],[92.2,3250],[92.2,3333],[92.2,3417],[92.2,3501],[92.2,3583],[92.2,3666],[92.2,3749],[92.2,3833],[92.2,3916],[92.2,3999],[92.2,4083],[92.2,4167],[92.2,4250],[92.2,4333],[92.2,4416],[92.2,4500],[92.2,4583],[92.2,4666],[92.2,4750],[92.2,4833],[92.2,4917],[92.2,5000],[92.2,5083],[92.2,5166],[92.2,5250],[92.2,5334],[92.2,5416],[92.2,5500],[92.2,5583],[92.2,5667],[92.2,5750],[92.2,5833],[92.2,5917],[92.2,6002],[92.2,6083],[92.2,6167],[92.2,6250],[92.2,6333],[92.2,6416],[92.2,6500],[92.2,6583],[92.2,6666],[92.2,6750],[92.2,6834],[92.2,6916],[92.2,7000],[92.2,7083],[92.2,7166],[92.2,7253],[92.2,7333],[92.2,7416],[92.7,7499],[94.3,7583],[95.2,7666],[95.3,7749],[95.8,7833],[95.8,7916],[95.8,8000],[95.8,8083],[95.8,8166],[95.8,8250],[95.8,8333],[95.8,8416],[95.8,8500],[95.8,8583],[95.8,8666],[95.8,8750],[95.8,8833],[95.8,8916],[95.8,9000],[95.8,9083],[95.8,9166],[95.8,9250],[95.8,9333],[95.8,9416],[95.8,9500],[95.8,9583],[95.8,9666],[95.8,9750],[95.8,9833],[95.8,9916],[95.8,10000],[95.8,10083],[95.8,10166],[95.8,10250],[95.8,10333],[95.8,10416],[95.8,10500],[95.8,10583],[95.8,10666],[95.8,10750],[95.8,10833],[95.8,10916],[95.8,10999],[95.8,11083],[95.8,11166],[95.8,11250],[95.8,11333],[95.8,11416],[95.8,11500],[95.8,11583],[95.8,11666],[95.8,11750],[95.8,11833],[95.8,11916],[95.8,11999],[95.8,12083],[95.8,12166],[95.8,12249],[95.8,12333],[95.8,12416],[95.8,12500],[95.8,12583],[95.8,12666],[95.8,12749],[95.8,12833],[95.8,12916],[95.8,12999],[95.8,13083],[96.1,13166],[97.4,13249],[98.6,13332],[99.1,13416],[99.3,13499],[99.4,13582],[99.6,13666],[99.6,13749],[99.6,13834]]",1153.8569,1157.5238,99.16666349,1.9748,"[{""rating"":99.16666348775227,""responseTime"":1.974800000071582}]",space,3.1195,,1157.524,Definitely yes,100,1157.5323,,,[],,0,3,3,3,1,audio/Narrative7Situation3.wav,audio/Narrative8Situation3.wav,audio/Narrative5Situation3.wav,audio/Narrative6Situation3.wav,8,4,3,5,,,,,,,,,,,,,,,,,,,,,,,,,,,,,,,,,,,,,,,
,,,,,63039dbefda87c47a91fec04,2025-07-08_00h33.22.497,group3.4_multiperson,2023.2.2,Win32,59.88023952,686c2ebf0248f13bef9af11f,686c9f70c02719da60036970,,,,,,,,,,,,,,,,,,,,,,,,,,,,,1157.5327,2,audio/Narrative5Situation4.wav,1158.5401,,1158.5401,1178.9399,"[[90.1,1166],[78.3,1250],[62.1,1333],[56.9,1416],[56.9,1499],[56.9,1583],[56.9,1666],[56.9,1750],[56.9,1833],[56.9,1916],[56.9,1999],[56.9,2083],[56.9,2166],[60.8,2250],[79.3,2333],[84.5,2416],[86.3,2499],[86.5,2583],[86.5,2666],[86.8,2749],[86.8,2833],[86.8,2916],[86.8,2999],[86.8,3083],[86.8,3166],[86.8,3250],[86.8,3332],[86.8,3416],[86.8,3500],[86.8,3583],[86.8,3666],[86.8,3749],[86.8,3833],[86.8,3916],[86.8,3999],[86.8,4082],[86.8,4166],[86.8,4249],[86.8,4332],[86.8,4416],[86.8,4499],[86.8,4584],[86.8,4666],[86.8,4749],[86.8,4832],[86.8,4916],[86.8,4999],[86.8,5083],[86.8,5166],[86.8,5249],[86.8,5333],[86.8,5416],[86.8,5500],[86.8,5583],[86.8,5666],[86.8,5749],[86.8,5833],[86.8,5916],[86.8,5999],[86.8,6082],[86.8,6166],[86.8,6249],[86.8,6332],[86.8,6416],[86.8,6499],[86.8,6584],[86.8,6666],[86.8,6749],[86.8,6832],[86.8,6915],[86.8,6999],[86.8,7082],[86.8,7166],[86.8,7251],[86.8,7333],[86.8,7415],[86.8,7499],[86.8,7582],[86.8,7666],[86.8,7749],[88.3,7832],[90.2,7916],[90.2,8000],[90.3,8083],[90.3,8166],[90.3,8249],[90.3,8333],[90.3,8416],[90.3,8499],[90.3,8583],[90.3,8666],[90.3,8749],[90.3,8832],[90.3,8915],[90.3,8999],[90.3,9083],[90.3,9166],[90.3,9249],[90.3,9333],[90.3,9417],[90.3,9499],[90.3,9582],[90.3,9666],[90.3,9749],[90.3,9833],[90.3,9915],[90.3,9999],[90.3,10083],[90.3,10166],[90.3,10249],[90.3,10333],[90.3,10416],[90.3,10499],[90.3,10583],[90.3,10666],[90.3,10749],[90.3,10833],[100,10916],[100,10999],[100,11082],[100,11168],[100,11249],[100,11332],[100,11416],[100,11499],[100,11582],[100,11665],[100,11749],[100,11833],[100,11916],[100,11999],[100,12082],[100,12166],[100,12249],[100,12332],[100,12418],[100,12499],[100,12583],[100,12666],[100,12749],[100,12833],[100,12916],[100,12999],[100,13082],[100,13166],[100,13249],[100,13333],[100,13416],[100,13500],[100,13583],[100,13665],[100,13749],[100,13833],[100,13915],[100,13999],[100,14082],[100,14166],[100,14249],[100,14332],[100,14415],[100,14499],[100,14582],[100,14665],[100,14749],[100,14832],[100,14915],[100,14999],[100,15082],[100,15165],[100,15249],[100,15332],[100,15416],[100,15499],[100,15583],[100,15666],[100,15749],[100,15832],[100,15915],[100,15999],[100,16082],[100,16165],[100,16249],[100,16332],[100,16415],[99.4,16499],[99.1,16583],[98.9,16665],[98.9,16749],[98.9,16832],[99.6,16915],[100,16999],[100,17082],[100,17166],[100,17249],[100,17333],[100,17415],[100,17499],[100,17582],[100,17666],[100,17749],[100,17833],[100,17915],[100,17999],[100,18083],[100,18165],[100,18249],[100,18332],[100,18415],[100,18499],[100,18583],[100,18665],[100,18748],[100,18832],[100,18915],[100,18999],[100,19083],[100,19165],[100,19253],[100,19332],[100,19416],[100,19499],[100,19582],[100,19665],[100,19749],[100,19832],[100,19916],[100,19999],[100,20082],[100,20165],[100,20249],[100,20332]]",1178.9403,1184.0235,98.54167302,3.3288,"[{""rating"":98.54167302449544,""responseTime"":3.32879999995248}]",space,4.5423,,1184.0236,Not at all,0,1184.0322,,,[],,0,4,4,4,1,audio/Narrative7Situation4.wav,audio/Narrative8Situation4.wav,audio/Narrative5Situation4.wav,audio/Narrative6Situation4.wav,3,3,1,2,,,,,,,,,,,,,,,,,,,,,,,,,,,,,,,,,,,,,,,
,,,,,63039dbefda87c47a91fec04,2025-07-08_00h33.22.497,group3.4_multiperson,2023.2.2,Win32,59.88023952,686c2ebf0248f13bef9af11f,686c9f70c02719da60036970,,,,,,,,,,,,,,,,,,,,,,,,,,,,,1184.033,2,audio/Narrative5Situation5.wav,1189.0393,,1189.0393,1204.4722,"[[9,83],[9.6,167],[10.1,249],[10.3,333],[10.3,416],[10.3,500],[10.3,583],[10.6,666],[11.1,750],[11.1,833],[11.1,916],[11.1,1000],[11.1,1082],[12.3,1171],[17.6,1250],[30.9,1333],[32,1416],[32,1499],[32,1583],[32,1666],[32,1750],[32,1833],[32,1916],[32,1999],[32,2086],[32,2166],[32,2249],[32,2333],[30.5,2416],[29.2,2500],[28.3,2583],[27.9,2666],[27.9,2750],[27.9,2833],[27.9,2916],[27.9,3000],[27.9,3083],[27.9,3166],[28.3,3250],[29.9,3333],[31.1,3416],[31.8,3502],[31.8,3583],[31.8,3666],[32.3,3749],[32.3,3833],[32.3,3916],[32.3,4000],[32.3,4083],[32.3,4166],[32.3,4250],[32.3,4333],[32.3,4416],[32.8,4499],[33.4,4583],[33.4,4666],[33.4,4750],[33.4,4833],[33.4,4916],[33.4,4999],[33.4,5083],[33.4,5166],[33.4,5249],[33.4,5333],[33.4,5416],[33.4,5500],[33.4,5583],[33.4,5666],[33.4,5749],[33.4,5833],[33.4,5916],[33.4,6000],[32.2,6083],[31.9,6165],[31.9,6249],[31.9,6332],[31.9,6416],[31.4,6500],[31,6582],[31,6666],[31,6749],[31,6833],[31,6916],[31,6999],[31,7083],[31,7166],[31,7249],[31,7332],[31,7416],[31,7500],[31,7583],[31,7666],[31,7749],[31,7833],[31,7916],[31,8000],[31,8083],[31,8166],[31,8249],[31,8332],[31,8416],[31,8500],[31,8583],[31,8666],[31,8749],[31,8833],[31,8916],[31,8999],[31,9082],[31,9166],[31,9249],[31,9332],[31,9416],[31,9499],[31,9583],[31,9666],[31,9749],[31,9833],[31,9916],[31,10000],[31,10083],[31,10166],[31,10249],[31,10333],[33.2,10416],[33.9,10500],[34.4,10583],[34.8,10666],[34.8,10750],[34.8,10833],[34.8,10916],[34.8,10999],[34.8,11083],[34.8,11166],[34.8,11249],[34.8,11333],[34.8,11415],[34.8,11499],[34.8,11583],[34.8,11666],[34.8,11749],[34.8,11833],[34.8,11916],[34.8,11999],[34.8,12082],[34.8,12166],[34.8,12249],[34.8,12332],[34.8,12416],[34.8,12499],[34.8,12582],[34.8,12666],[34.8,12749],[34.8,12833],[34.8,12916],[34.8,12999],[34.8,13083],[34.8,13166],[34.8,13249],[34.8,13333],[34.8,13416],[34.8,13499],[34.8,13582],[34.8,13666],[34.8,13749],[34.8,13833],[34.8,13916],[36.8,13999],[36.5,14082],[35.7,14166],[34.7,14249],[32.8,14332],[32.8,14416],[32.8,14499],[32.8,14582],[32.8,14666],[32.8,14749],[32.8,14833],[32.8,14916],[32.8,14999],[32.8,15082],[32.6,15166],[31.8,15249],[31.7,15333],[29.1,15415]]",1204.4723,1210.0554,23.85416826,3.2584,"[{""rating"":23.85416825612386,""responseTime"":3.2583999999760636}]",space,5.0515,,1210.0555,Not at all,0,1210.0583,,,[],,0,5,5,5,1,audio/Narrative7Situation5.wav,audio/Narrative8Situation5.wav,audio/Narrative5Situation5.wav,audio/Narrative6Situation5.wav,5,2,5,2,,,,,,,,,,,,,,,,,,,,,,,,,,,,,,,,,,,,,,,
,,,,,63039dbefda87c47a91fec04,2025-07-08_00h33.22.497,group3.4_multiperson,2023.2.2,Win32,59.88023952,686c2ebf0248f13bef9af11f,686c9f70c02719da60036970,,,,,,,,,,,,,,,,,,,,,,,,,,,,,1210.0588,2,audio/Narrative5Situation6.wav,1213.0732,,1213.0733,1218.761,"[[999,0],[20.1,87],[21.7,173],[22,256],[22,331],[22,421],[22,506],[22,588],[22,671],[22,754],[22,837],[18.5,923],[16,1004],[16,1088],[16,1171],[16,1255],[15.8,1338],[15.8,1424],[15.8,1505],[15.8,1590],[15.8,1671],[15.8,1755],[15.8,1841],[15.8,1922],[17.1,2004],[21.5,2093],[24.3,2171],[27.9,2256],[28.1,2340],[29.4,2421],[37.6,2505],[40.5,2587],[44.7,2671],[70.8,3421],[74.1,3505],[74.9,3587],[75.2,3672],[76.1,3756],[77.4,3837],[79.2,3924],[79.9,4004],[81.8,4088],[82.3,4171],[82.4,4254],[82.5,4337],[83.2,4422],[89.7,4843],[89.7,4920],[89.7,5005],[89.7,5089],[89.7,5171],[89.9,5254],[90.6,5338],[90.6,5421],[91,5506],[91,5587],[91.8,5671]]",1218.7612,1222.2326,98.95833333,1.9331,"[{""rating"":98.95833333333333,""responseTime"":1.9331000000238419}]",space,2.934,,1222.2327,Definitely yes,100,1222.2409,,,[],,0,6,6,6,1,audio/Narrative7Situation6.wav,audio/Narrative8Situation6.wav,audio/Narrative5Situation6.wav,audio/Narrative6Situation6.wav,3,2,3,2,,,,,,,,,,,,,,,,,,,,,,,,,,,,,,,,,,,,,,,
,,,,,63039dbefda87c47a91fec04,2025-07-08_00h33.22.497,group3.4_multiperson,2023.2.2,Win32,59.88023952,686c2ebf0248f13bef9af11f,686c9f70c02719da60036970,,,,,,,,,,,,,,,,,,,,,,,,,,,,,1222.2414,2,audio/Narrative5Situation7.wav,1226.2551,,1226.2552,1247.2942,"[[81.7,506],[78.7,589],[78.1,672],[77.9,755],[73.3,845],[49.1,1589],[61.8,1674],[72.6,1756],[75,1839],[76.6,1922],[77.3,2006],[78.7,2088],[80.5,2172],[81.3,2256],[81.8,2339],[82.3,2422],[82.3,2499],[82.3,2589],[82.3,2672],[82.3,2750],[82.3,2838],[82.3,2926],[82.3,2999],[82.3,3088],[82.3,3176],[82.3,3255],[82.3,3342],[83.3,3422],[87,3505],[87.2,3592],[87.2,3671],[87.2,3755],[87.2,3843],[87.2,3921],[87.2,4006],[87.2,4092],[87.6,4173],[90,4256],[90.3,4339],[91,4422],[91.8,4505],[91.9,4593],[92.1,4672],[92.1,4755],[92.1,4838],[92.1,4922],[92.1,5009],[92.1,5088],[92.1,5172],[92.1,5258],[92.1,5338],[92.1,5422],[92.1,5506],[92.6,5589],[92.7,5675],[92.7,5755],[92.7,5839],[92.7,5923],[90.6,6005],[90.4,6088],[90.4,6172],[91,6256],[93.6,6345],[94.3,6417],[95.3,6505],[96.4,6588],[96.7,6671],[96.7,6756],[96.7,6838],[96.7,6922],[96.7,7008],[96.7,7089],[96.7,7171],[96.7,7259],[96.7,7338],[96.7,7422],[96.7,7505],[96.7,7589],[96.7,7672],[96.7,7756],[96.7,7839],[96.7,7924],[95.6,8008],[94.1,8089],[94.1,8172],[94.1,8255],[94.1,8338],[93.2,8427],[93,8505],[93,8592],[93.4,8674],[95.1,8755],[96.1,8838],[96.1,8922],[96.1,9008],[96.1,9088],[96.1,9172],[96.1,9255],[96.1,9339],[96.1,9425],[96.1,9505],[96.1,9588],[96.1,9675],[96.1,9755],[96.1,9838],[96.1,9916],[94.7,10005],[93.3,10089],[93.3,10172],[93.3,10256],[93.3,10343],[93.3,10422],[93.3,10505],[93.3,10593],[93.3,10672],[93.3,10755],[93.3,10838],[93.3,10922],[93.3,11005],[93.3,11088],[93.3,11172],[93.5,11255],[94.2,11338],[94.5,11423],[94.5,11506],[94.5,11588],[94.5,11674],[94.5,11755],[94.5,11838],[94.5,11926],[94.5,12005],[94.5,12088],[94.5,12175],[94.5,12255],[94.3,12343],[93.3,12423],[93.3,12506],[93.3,12592],[93.3,12671],[93.3,12756],[93.3,12839],[93.3,12922],[93.4,13004],[93.4,13092],[93.6,13171],[94.3,13256],[95.3,13338],[96.1,13421],[96.4,13505],[96.4,13589],[96.4,13672],[96.4,13757],[96.4,13838],[96.4,13922],[96.4,14005],[96.4,14088],[96.4,14172],[96.4,14258],[96.4,14338],[96.4,14422],[96.4,14507],[96.4,14589],[96.4,14672],[96.4,14755],[96.4,14838],[96.4,14923],[96.4,15006],[96.4,15089],[96.4,15174],[96.4,15255],[96.4,15338],[96.4,15416],[96.4,15505],[96.4,15587],[96.4,15675],[96.4,15755],[96.4,15839],[98,15926],[98,16005],[98,16088],[98,16165],[98,16255],[98,16332],[98,16421],[98,16504],[98,16592],[98,16671],[98,16756],[98,16840],[98,16921],[98,17004],[98,17093],[98,17171],[98,17255],[98,17341],[98,17421],[98,17505],[98,17592],[98,17672],[98,17755],[98,17838],[98,17921],[98,17999],[98,18088],[98,18172],[98,18258],[98,18338],[98,18422],[98,18509],[98,18588],[98,18674],[98,18755],[98,18839],[98,18923],[98,19005],[98,19089],[98,19172],[98,19255],[98,19342],[98,19421],[98,19509],[98,19588],[98,19671],[98,19749],[98,19838],[98,19922],[98,20005],[98,20088],[98,20172],[98,20254],[98,20338],[98,20422],[98,20504],[98,20588],[98,20672],[98,20755],[98,20838],[98,20921],[98,21004]]",1247.2944,1254.0821,97.08333015,4.5324,"[{""rating"":97.08333015441895,""responseTime"":4.532399999976178}]",space,6.2493,,1254.0822,Definitely yes,100,1254.0869,,,[],,0,7,7,7,1,audio/Narrative7Situation7.wav,audio/Narrative8Situation7.wav,audio/Narrative5Situation7.wav,audio/Narrative6Situation7.wav,5,3,4,5,,,,,,,,,,,,,,,,,,,,,,,,,,,,,,,,,,,,,,,
,,,,,63039dbefda87c47a91fec04,2025-07-08_00h33.22.497,group3.4_multiperson,2023.2.2,Win32,59.88023952,686c2ebf0248f13bef9af11f,686c9f70c02719da60036970,,,,,,,,,,,,,,,,,,,,,,,,,,,,,1254.0877,2,audio/Narrative5Situation8.wav,1257.0939,,1257.0941,1265.9279,"[[63.8,753],[64.3,833],[64.2,917],[61.8,1004],[54.5,1083],[54.2,1167],[51.6,1256],[50.3,1334],[47.9,1418],[44.9,1501],[43.9,1584],[43.3,1670],[44.1,1752],[46,1835],[47.5,1920],[48,2002],[51.4,2084],[59.4,2168],[61.4,2252],[61.6,2336],[61.7,2416],[61.7,2500],[62.1,2588],[62.3,2666],[64.4,2749],[65.4,2834],[66.1,2917],[67,2999],[67.7,3082],[69,3167],[69.6,3255],[70.6,3332],[71.5,3416],[72.7,3500],[72.7,3583],[72.7,3666],[72.7,3753],[71.8,3832],[71.3,3916],[71.3,4000],[71.3,4083],[71.3,4166],[71.3,4249],[71.3,4332],[71.3,4416],[71.3,4499],[71.3,4584],[71.3,4666],[71.3,4749],[72.8,4833],[75.5,4916],[75.9,5004],[76.4,5083],[76.6,5160],[76.6,5250],[76.6,5333],[76.6,5417],[76.6,5499],[76.6,5582],[76.6,5670],[76.6,5749],[76.6,5832],[76.1,5916],[75.5,5999],[75.5,6086],[75.2,6166],[74.3,6249],[73.3,6335],[73.1,6415],[73.1,6499],[73.1,6582],[73.1,6666],[73.1,6749],[73.1,6833],[73.1,6916],[73.1,6999],[73.1,7083],[73.1,7166],[73.1,7243],[73.1,7332],[73.1,7420],[73.1,7493],[72.1,7582],[72,7668],[70.4,7751],[70.4,7832],[70.4,7916],[70.4,8000],[70.4,8082],[70.4,8166],[70.4,8249],[70.4,8332],[70.4,8418],[70.4,8499],[70.4,8582],[70.4,8665],[70.4,8749],[70.4,8833]]",1265.928,1271.0984,64.37500318,3.232,"[{""rating"":64.3750031789144,""responseTime"":3.231999999999971}]",space,4.6341,,1271.0986,Partially,50,1271.1063,,,[],,0,8,8,8,1,audio/Narrative7Situation8.wav,audio/Narrative8Situation8.wav,audio/Narrative5Situation8.wav,audio/Narrative6Situation8.wav,2,3,3,5,,,,,,,,,,,,,,,,,,,,,,,,,,,,,,,,,,,,,,,
,,,,,63039dbefda87c47a91fec04,2025-07-08_00h33.22.497,group3.4_multiperson,2023.2.2,Win32,59.88023952,686c2ebf0248f13bef9af11f,686c9f70c02719da60036970,,,,,,,,,,,,,,,,,,,,,,,,,,,,,1271.1069,2,audio/Narrative5Situation9.wav,1274.1274,,1274.1274,1313.6719,"[[69.8,1677],[74.1,1760],[79.1,1843],[80.2,1926],[80.2,2012],[80.2,2093],[80.2,2176],[80.2,2260],[80.2,2343],[80.2,2426],[80.2,2510],[80.2,2593],[80.2,2677],[80.2,2760],[80.2,2843],[80.2,2926],[80.2,3009],[81.3,3094],[87,3178],[87.7,3260],[88,3343],[88.3,3427],[90.3,3510],[92,3593],[92.1,3676],[92.1,3759],[92.1,3843],[92.1,3926],[92.1,4010],[92.1,4093],[92.1,4176],[92.1,4259],[92.1,4343],[92.1,4426],[92.1,4509],[92.1,4593],[92.1,4676],[92.1,4759],[92.1,4843],[92.1,4929],[92.1,5009],[92.1,5093],[92.1,5177],[92.1,5259],[92.1,5343],[92.1,5426],[92.4,5510],[92.9,5593],[93.2,5676],[93.9,5759],[94.8,5843],[95.5,5926],[95.5,6009],[95.5,6093],[95.5,6176],[95.5,6259],[95.5,6343],[95.5,6426],[95.5,6510],[95.5,6593],[95.5,6676],[95.5,6759],[95.5,6843],[95.5,6926],[96.1,7010],[98.4,7093],[98.4,7176],[98.4,7259],[98.4,7343],[98.1,7426],[98.1,7509],[98,7593],[98,7676],[98,7759],[98,7843],[98,7926],[98,8009],[98,8093],[98,8176],[98,8260],[98,8342],[98,8426],[98,8509],[98,8593],[98,8676],[98,8759],[98,8843],[98,8926],[98,9009],[98,9093],[98,9176],[98,9259],[98,9343],[98,9426],[98,9509],[98,9593],[98,9676],[98,9762],[98,9843],[98,9926],[98,10010],[98,10093],[98,10176],[98,10259],[98,10343],[96.5,10426],[96.3,10509],[96.1,10593],[96.1,10676],[97.3,10759],[98.3,10843],[98.5,10926],[98.5,11009],[98.5,11095],[98.5,11176],[98.5,11259],[98.5,11342],[98.5,11426],[98.5,11513],[98.5,11593],[98.5,11676],[98.8,11760],[98.8,11843],[98.8,11926],[98.8,12009],[98.8,12093],[98.8,12176],[98.8,12260],[98.8,12343],[98.8,12426],[98.8,12509],[98.8,12593],[98.8,12676],[98.8,12759],[98.8,12843],[98.5,12926],[98.5,13009],[98.1,13094],[97.8,13176],[97.8,13259],[97.8,13343],[97.8,13426],[97.8,13509],[97.8,13593],[97.8,13676],[97.8,13759],[98.2,13843],[98.4,13926],[98.4,14009],[98.4,14097],[98.8,14177],[98.9,14260],[99.2,14342],[99.2,14426],[99.2,14509],[99.2,14592],[99.2,14676],[99.2,14760],[99.2,14842],[99.2,14926],[99.2,15009],[99.2,15092],[99.2,15176],[99.2,15260],[99.2,15343],[99.2,15426],[99.2,15509],[99.2,15593],[99.2,15676],[99.2,15759],[99.2,15843],[99.2,15926],[99.2,16009],[99.2,16093],[99.2,16176],[99.2,16259],[99.2,16343],[99.2,16426],[99.2,16511],[99.2,16593],[99.2,16676],[99.2,16759],[99.2,16843],[99.2,16926],[99.2,17010],[99.2,17092],[99.2,17176],[99.2,17259],[99.2,17343],[99.2,17426],[99.2,17509],[99.2,17593],[99.2,17676],[99.2,17759],[99.2,17842],[99.2,17926],[99.2,18009],[99.2,18092],[99.2,18176],[99.2,18259],[99.2,18342],[99.2,18426],[99.2,18509],[99.2,18593],[99.2,18676],[99.2,18759],[99.4,18846],[100,18926],[100,19009],[100,19093],[100,19176],[100,19259],[100,19342],[100,19426],[100,19510],[100,19593],[100,19676],[100,19759],[100,19843],[99.9,19926],[99.6,20009],[99.4,20092],[99.4,20175],[99.4,20260],[99.4,20343],[99.4,20426],[99.4,20510],[99.5,20593],[100,20676],[100,20759],[100,20842],[100,20926],[100,21012],[100,21093],[100,21176],[100,21259],[100,21343],[100,21426],[100,21510],[99.6,21593],[99.6,21676],[99.6,21759],[99.6,21843],[99.6,21926],[99.6,22009],[99.6,22093],[99.6,22176],[100,22259],[100,22342],[100,22426],[100,22509],[100,22592],[99.6,22677],[99.6,22759],[99.6,22843],[99.6,22926],[99.6,23009],[99.6,23093],[99.6,23176],[99.6,23259],[98.8,23343],[98,23426],[98,23509],[98,23592],[98.1,23676],[98.1,23759],[98.8,23843],[98.8,23926],[99.2,24009],[99.5,24092],[99.5,24176],[99.7,24260],[98.1,24343],[97.7,24426],[97.7,24509],[97.7,24593],[98.3,24676],[99.1,24759],[99.3,24842],[99.3,24926],[99.3,25009],[99.3,25092],[99.8,25176],[100,25260],[100,25343],[100,25426],[100,25509],[100,25593],[100,25676],[100,25761],[100,25843],[100,25926],[99.5,26009],[99.3,26092],[99.3,26176],[99.3,26259],[99.7,26343],[100,26425],[100,26509],[100,26593],[100,26677],[99.5,26759],[99.5,26842],[99.5,26926],[99.5,27009],[99.5,27092],[99.5,27176],[99.7,27259],[100,27343],[100,27425],[100,27509],[100,27593],[100,27676],[99.6,27759],[99.5,27843],[99.5,27926],[99.5,28009],[99.5,28093],[99.5,28176],[99.5,28261],[99.5,28343],[99.7,28426],[100,28509],[100,28592],[100,28676],[100,28759],[100,28843],[100,28926],[99,29009],[98.5,29093],[98.5,29175],[98.5,29259],[98.5,29343],[100,29425],[100,29509],[100,29592],[100,29675],[100,29759],[99.2,29842],[99.2,29925],[99.2,30009],[99.2,30093],[99.2,30175],[99.2,30259],[99.2,30342],[99.2,30425],[99.9,30509],[100,30593],[100,30675],[100,30759],[100,30842],[100,30925],[99.5,31009],[98.9,31092],[98.6,31176],[98.6,31259],[98.6,31342],[98.8,31426],[99.3,31509],[99.9,31592],[100,31676],[100,31759],[100,31842],[99.3,31926],[99,32009],[99,32093],[99,32175],[99,32259],[99,32342],[99.4,32425],[99.9,32510],[100,32592],[100,32676],[100,32759],[100,32843],[99.1,32926],[99.1,33009],[99.1,33092],[99.1,33176],[99.1,33259],[99.1,33342],[99.5,33426],[100,33509],[100,33592],[100,33676],[100,33759],[100,33842],[99.8,33925],[99.4,34009],[99.4,34096],[99.4,34175],[99.4,34259],[99.4,34342],[99.5,34425],[100,34509],[100,34592],[100,34676],[100,34763],[100,34842],[100,34926],[99.6,35009],[99.1,35092],[99.1,35176],[99.1,35259],[99.1,35342],[99.1,35426],[99.3,35509],[99.5,35593],[99.8,35676],[100,35759],[100,35842],[100,35926],[99.2,36010],[98.9,36093],[98.9,36175],[98.9,36259],[98.9,36342],[98.9,36425],[99,36510],[99.3,36592],[99.8,36676],[99.8,36759],[99.8,36843],[99.8,36926],[99.8,37009],[99.6,37092],[99.3,37176],[99.3,37259],[99.3,37342],[99.3,37426],[99.3,37509],[99.3,37593],[99.5,37676],[100,37759],[100,37844],[100,37926],[100,38009],[99.6,38092],[99.3,38176],[99.1,38259],[99,38342],[99,38425],[98.8,38508],[98.9,38592],[99.4,38675],[99.9,38759],[100,38842],[100,38925],[100,39009],[100,39092],[100,39176],[100,39259],[100,39342],[100,39425],[100,39509]]",1313.6723,1317.2041,99.58333969,1.2753,"[{""rating"":99.58333969116211,""responseTime"":1.2753000000716384}]",space,2.9878,,1317.2043,Not at all,0,1317.2133,,,[],,0,9,9,9,1,audio/Narrative7Situation9.wav,audio/Narrative8Situation9.wav,audio/Narrative5Situation9.wav,audio/Narrative6Situation9.wav,2,3,3,4,,,,,,,,,,,,,,,,,,,,,,,,,,,,,,,,,,,,,,,
,,,,,63039dbefda87c47a91fec04,2025-07-08_00h33.22.497,group3.4_multiperson,2023.2.2,Win32,59.88023952,686c2ebf0248f13bef9af11f,686c9f70c02719da60036970,,,,,,,,,,,,,,,,,,,,,,,,,,,,,1317.214,2,audio/Narrative6Situation1.wav,1319.2296,,1319.2296,1345.8026,"[[82.1,1840],[67.6,1923],[51,2006],[17.3,3173],[17.2,3256],[20.9,3340],[23.2,3423],[22.6,3507],[7.3,3590],[3.1,3673],[3.1,3756],[3.1,3840],[3.1,3923],[3.1,4006],[3.1,4090],[3.1,4173],[3.2,4256],[3.2,4340],[3.2,4423],[3.3,4507],[3.3,4590],[3.3,4673],[3.5,4757],[3.5,4840],[3.5,4923],[3.5,5006],[3.8,5090],[3.8,5173],[3.8,5256],[3.8,5340],[3.8,5423],[3.8,5507],[4.1,5590],[4.2,5673],[4.2,5757],[4.2,5840],[4.2,5923],[4.2,6006],[4.2,6090],[4.2,6175],[4.2,6256],[4.2,6340],[4.2,6423],[4.8,6507],[6.7,6590],[8.3,6673],[10.9,6756],[12,6839],[12,6923],[12,7006],[12,7089],[12,7173],[12,7256],[12,7340],[12,7423],[12,7506],[12,7590],[12,7673],[12,7757],[12,7840],[12,7923],[12,8006],[12,8090],[12,8173],[12,8257],[12,8339],[12,8423],[12,8507],[12.9,8591],[22.9,8673],[30.9,8756],[33.6,8840],[35.9,8924],[38,9006],[39.4,9089],[39.6,9173],[43.6,9256],[49.8,9340],[50.8,9423],[50.8,9506],[50.8,9590],[50.8,9673],[50.8,9756],[50.8,9840],[50.8,9923],[50.8,10006],[50.8,10089],[50.8,10173],[50.8,10256],[50.8,10340],[51,10423],[51.8,10506],[42.7,13506],[42.7,13589],[42.7,13673],[42.7,13756],[42.7,13840],[43.3,13923],[44.6,14007],[46.1,14090],[47.5,14173],[48.4,14256],[48.6,14340],[48.9,14423],[49,14506],[49.2,14590],[49.2,14673],[49.2,14756],[49.2,14845],[49.2,14923],[49.2,15006],[49.2,15090],[49.2,15173],[49.2,15256],[49.2,15340],[49.2,15423],[49.9,15506],[51.6,15590],[51.9,15673],[51.9,15756],[51.9,15840],[51.9,15923],[51.9,16006],[51.9,16090],[51.9,16173],[52.3,16256],[54.1,16339],[54.8,16423],[56,16506],[56.6,16589],[56.6,16673],[56.6,16756],[56.6,16840],[56.6,16923],[56.6,17006],[56.6,17090],[56.6,17173],[56.6,17256],[56.6,17340],[56.6,17423],[56.6,17506],[56.6,17589],[56.6,17673],[56.6,17756],[56.6,17839],[56.6,17923],[56.6,18006],[56.6,18090],[56.4,18173],[54,18256],[53.5,18339],[53.4,18423],[52.9,18506],[52.7,18590],[51.3,18673],[51,18756],[50.2,18841],[48.9,18923],[48.3,19006],[48.3,19089],[48.3,19173],[48.3,19256],[48.3,19339],[48.3,19423],[48.3,19506],[48.3,19590],[48.3,19673],[48.5,19757],[49.5,19839],[49.9,19924],[50.1,20006],[50.1,20089],[49.9,20173],[49,20256],[49,20340],[49,20423],[49,20506],[49,20589],[49,20673],[49,20756],[49,20840],[49,20923],[49,21006],[49,21089],[49,21173],[49,21256],[49,21342],[49,21423],[49.4,21506],[49.9,21590],[50.2,21673],[50.3,21756],[50.3,21840],[50.3,21923],[50.3,22006],[50.3,22090],[50.3,22173],[50.3,22256],[50.3,22340],[50.5,22423],[52.8,22506],[53.5,22590],[53.5,22673],[53.5,22756],[54.3,22839],[54.8,22923],[54.8,23009],[54.8,23089],[54.8,23173],[54.8,23256],[54.8,23340],[55.7,23423],[56,23506],[56.1,23589],[56.1,23673],[56.1,23756],[56.1,23839],[55.5,23924],[54.6,24006],[54.3,24089],[54.3,24173],[54.3,24256],[54.3,24341],[54.3,24423],[54.3,24506],[54.3,24590],[54.3,24673],[54.3,24756],[54.3,24839],[54.3,24923],[54.3,25006],[54.3,25090],[54.3,25173],[54.3,25256],[54.3,25339],[54.3,25423],[54.3,25506],[54.3,25590],[54.3,25673],[54.3,25756],[54.3,25839],[54.3,25923],[54.3,26007],[54.3,26089],[54.3,26173],[54.3,26256],[54.5,26340],[54.5,26422],[54.5,26506]]",1345.8028,1348.7196,56.04166985,1.3291,"[{""rating"":56.041669845581055,""responseTime"":1.3291000000238}]",space,2.384,,1348.7197,Partially,50,1348.7284,,,[],,0,10,10,10,1,audio/Narrative8Situation1.wav,audio/Narrative7Situation1.wav,audio/Narrative6Situation1.wav,audio/Narrative5Situation1.wav,5,2,2,5,,,,,,,,,,,,,,,,,,,,,,,,,,,,,,,,,,,,,,,
,,,,,63039dbefda87c47a91fec04,2025-07-08_00h33.22.497,group3.4_multiperson,2023.2.2,Win32,59.88023952,686c2ebf0248f13bef9af11f,686c9f70c02719da60036970,,,,,,,,,,,,,,,,,,,,,,,,,,,,,1348.7292,2,audio/Narrative6Situation2.wav,1351.7363,,1351.7363,1380.2531,"[[52.4,1916],[52.4,2000],[50.6,2082],[49.2,2166],[47.5,2252],[46.7,2332],[46.7,2416],[46.7,2499],[46.7,2583],[46.7,2666],[46.7,2749],[46.7,2832],[46.5,2917],[46,2999],[44.9,3082],[44.9,3166],[43.3,3249],[41.4,3332],[37.7,3416],[30.3,3499],[27.6,3582],[24.3,3666],[22.1,3749],[20.5,3832],[18.6,3916],[16.9,4000],[14.8,4082],[13.1,4166],[10.9,4249],[10,4332],[8.8,4416],[7.6,4500],[5.9,4582],[1.3,4666],[8.9,4999],[20.9,5082],[25.3,5165],[32.7,5252],[40,5332],[50.7,5416],[54.5,5499],[54.5,5583],[54.5,5665],[57.8,5749],[59.9,5832],[62.6,5916],[64.9,5999],[73,6665],[71.4,6750],[70.8,6833],[71,6916],[73,7000],[75.1,7082],[77.5,7166],[78.6,7249],[79.2,7333],[79.2,7416],[78.6,7499],[78.5,7583],[78.5,7666],[78.5,7749],[79.5,7833],[79.5,7916],[79.5,7999],[79.5,8082],[79.5,8166],[79.5,8249],[79.5,8332],[79.5,8415],[79.5,8499],[79.5,8584],[79.5,8666],[79.5,8749],[83.3,8833],[84.8,8916],[85.3,8999],[85.3,9083],[85.3,9165],[85.3,9250],[85.3,9332],[85.3,9416],[85.3,9499],[85.3,9583],[85.3,9665],[85.3,9749],[85.3,9832],[85.3,9915],[85.3,9999],[85.3,10082],[85.3,10166],[85.3,10249],[85.3,10333],[85.3,10416],[85.3,10499],[85.3,10582],[85.3,10666],[85.3,10749],[85.3,10833],[85.3,10915],[85.3,10999],[85.3,11082],[85.3,11166],[85.3,11249],[85.3,11332],[85.3,11416],[85.3,11499],[85.3,11582],[85.3,11666],[85.3,11749],[85.3,11833],[85.3,11916],[85.3,11999],[85.3,12082],[85.3,12166],[85.3,12249],[85.3,12332],[85.3,12416],[85.3,12499],[85.3,12584],[85.3,12665],[85.3,12749],[85.3,12832],[85.3,12915],[85.3,12999],[85.3,13082],[85.3,13166],[86.9,13249],[88.4,13333],[89.1,13415],[90.7,13500],[90.7,13582],[90.7,13666],[90.7,13749],[91.5,13832],[92.6,13915],[92.6,13999],[92.6,14084],[92.6,14166],[92.6,14249],[92.2,14333],[89.1,14415],[85,14498],[85,14582],[85.3,14665],[87.7,14749],[90.5,14832],[90.5,14916],[90.7,14999],[90.7,15082],[90.7,15165],[91.5,15249],[91.6,15332],[91.6,15415],[91.6,15499],[91.6,15582],[91.6,15665],[91.6,15749],[91.6,15832],[91.6,15916],[92.3,15999],[92.7,16082],[92.7,16166],[92.7,16249],[92.3,16333],[90.8,16415],[88.9,16499],[88.3,16582],[88.3,16665],[88.3,16748],[88.3,16832],[88.3,16916],[88.3,16999],[89.5,17082],[90.6,17166],[90.8,17249],[90.8,17332],[90.8,17416],[90.8,17499],[90.8,17584],[90.8,17665],[90.8,17749],[90.8,17832],[90.8,17916],[90.5,17998],[90.4,18082],[90,18165],[90,18249],[89.9,18332],[88.9,18416],[88.2,18499],[87.2,18582],[86.9,18665],[86.9,18750],[86.9,18833],[87.8,18916],[89,18999],[89.4,19083],[89.5,19166],[89.5,19249],[89.6,19332],[89.6,19416],[89.6,19499],[89.6,19583],[89.6,19666],[89.6,19749],[89.6,19832],[89.6,19916],[89.6,19999],[89.6,20086],[89.6,20165],[89.6,20249],[89.6,20332],[89.6,20415],[89.6,20498],[89.6,20582],[89.6,20665],[89.6,20749],[89.6,20832],[89.6,20915],[89.6,21002],[89.6,21082],[89.6,21165],[89.6,21248],[89.6,21333],[89.6,21415],[89.6,21499],[89.6,21582],[89.6,21665],[89.6,21749],[88.6,21832],[88.1,21915],[88.1,21999],[88.1,22084],[88.1,22165],[88.1,22249],[88,22333],[88,22415],[88,22499],[88,22582],[88,22665],[88,22749],[88,22832],[88,22915],[88,23001],[88,23082],[88,23165],[88,23249],[88,23332],[88,23416],[88,23499],[88,23582],[88,23665],[88,23749],[88,23832],[88,23916],[88,23999],[88,24082],[88,24165],[88,24249],[88.2,24332],[88.4,24415],[88.4,24499],[88.4,24585],[88.4,24665],[88.4,24749],[88.4,24832],[88.4,24915],[88.4,24998],[88.4,25082],[88.4,25166],[88.4,25249],[88.4,25333],[88.4,25415],[88.4,25499],[88.5,25583],[90.1,25665],[92.4,25916],[93.1,25999],[93.6,26083],[93.6,26168],[93.6,26249],[93.6,26332],[93.6,26416],[93.6,26499],[93.6,26582],[93.6,26665],[93.6,26749],[93.6,26832],[93.6,26916],[93.6,27001],[93.6,27082],[93.6,27165],[93.6,27249],[93.6,27332],[93.6,27415],[93.6,27499],[93.6,27582],[93.6,27668],[93.6,27749],[93.6,27832],[93.6,27915],[93.6,27999],[93.6,28082],[93.6,28165],[93.6,28249],[93.6,28332],[93.6,28415],[93.6,28499]]",1380.2535,1384.5855,97.81250954,2.3231,"[{""rating"":97.81250953674316,""responseTime"":2.3231000000237145}]",space,3.7852,,1384.5856,Partially,50,1384.5901,,,[],,0,11,11,11,1,audio/Narrative8Situation2.wav,audio/Narrative7Situation2.wav,audio/Narrative6Situation2.wav,audio/Narrative5Situation2.wav,3,3,3,3,,,,,,,,,,,,,,,,,,,,,,,,,,,,,,,,,,,,,,,
,,,,,63039dbefda87c47a91fec04,2025-07-08_00h33.22.497,group3.4_multiperson,2023.2.2,Win32,59.88023952,686c2ebf0248f13bef9af11f,686c9f70c02719da60036970,,,,,,,,,,,,,,,,,,,,,,,,,,,,,1384.5905,2,audio/Narrative6Situation3.wav,1389.6025,,1389.6026,1402.2193,"[[50,415],[46.8,499],[42.4,582],[40.5,665],[40.3,749],[40.1,832],[40.1,915],[40.1,999],[40.1,1082],[40.1,1166],[40.1,1249],[40.1,1332],[40.1,1417],[40.8,1499],[44.5,1582],[47.4,1666],[47.4,1749],[47.4,1832],[47.4,1916],[47.4,1998],[48.9,2086],[51.1,2166],[52.3,2249],[52.3,2332],[52.3,2415],[52.3,2499],[51.3,2583],[50.5,2665],[50.5,2748],[50.4,2832],[50.4,2915],[50.4,2999],[50.4,3082],[50.4,3167],[50.4,3249],[50,3333],[49,3416],[47.8,3498],[47.8,3582],[47.8,3665],[47.8,3748],[47.8,3832],[47.8,3915],[47.8,3999],[47.8,4082],[47.8,4165],[47.8,4249],[47.8,4332],[47.8,4416],[47.8,4499],[47.8,4582],[47.8,4665],[47.8,4748],[47.8,4832],[47.8,4915],[47.8,4999],[47.8,5082],[46.4,5165],[44.2,5248],[44.2,5332],[44.2,5415],[47,5499],[60.6,5582],[61.3,5665],[61.3,5748],[61.3,5832],[61,5916],[56,5998],[55.9,6082],[55.9,6165],[54,6248],[54,6332],[53.4,6415],[52.3,6498],[51.9,6582],[51.9,6665],[51.9,6749],[51.9,6832],[51.9,6916],[51.9,6999],[51.9,7082],[52.9,7165],[53.4,7249],[54.1,7332],[54.9,7415],[56.4,7499],[57.8,7582],[61.4,7665],[62.7,7749],[63.6,7832],[63.6,7915],[65.5,7998],[67.3,8083],[67.5,8165],[67.9,8248],[68.2,8332],[68.2,8415],[68.4,8498],[69,8583],[69.3,8665],[69.8,8749],[69.8,8832],[69.8,8915],[69.8,8999],[70,9082],[70,9166],[70.3,9249],[70.8,9332],[71.4,9415],[71.4,9499],[71.4,9582],[71.4,9665],[71.6,9748],[71.7,9835],[71.7,9915],[72.2,9999],[73.3,10082],[73.3,10165],[73.3,10248],[73.3,10332],[73.3,10415],[73.3,10498],[73.3,10582],[73.3,10665],[73.3,10748],[73.3,10832],[73.3,10915],[73.3,10998],[73.4,11082],[73.4,11167],[73.4,11249],[73.4,11332],[73.4,11415],[73.4,11499],[73.4,11586],[73.4,11665],[73.4,11749],[73.4,11832],[73.4,11915],[74.3,11998],[75.2,12082],[75.2,12165],[75.2,12251],[75.2,12331],[75.2,12415],[75.2,12498],[75.2,12582]]",1402.2197,1405.7518,84.27084287,1.658,"[{""rating"":84.27084287007649,""responseTime"":1.6579999999999018}]",space,2.9837,,1405.7519,Definitely yes,100,1414.8915,99.37500954,7.3523,"[{""rating"":99.37500953674316,""responseTime"":7.352300000071409}]",space,0,12,12,12,1,audio/Narrative8Situation3.wav,audio/Narrative7Situation3.wav,audio/Narrative6Situation3.wav,audio/Narrative5Situation3.wav,4,8,5,3,,,8.5841,,,,,,,,,,,,,,,,,,,,,,,,,,,,,,,,,,,,
,,,,,63039dbefda87c47a91fec04,2025-07-08_00h33.22.497,group3.4_multiperson,2023.2.2,Win32,59.88023952,686c2ebf0248f13bef9af11f,686c9f70c02719da60036970,,,,,,,,,,,,,,,,,,,,,,,,,,,,,1414.8921,2,audio/Narrative6Situation4.wav,1416.9111,,1416.9111,1429.5408,"[[99.2,2750],[99.2,2829],[99.2,2912],[99.2,2996],[98.9,3079],[98.3,3163],[98,3246],[97.1,3330],[95.4,3415],[93.3,3498],[91.5,3579],[89.8,3663],[89.4,3746],[87.4,3830],[82.8,3912],[78.7,3995],[77.4,4079],[77.4,4163],[77.4,4245],[77.4,4332],[76.8,4414],[75.7,4495],[74,4579],[72.2,4662],[70.4,4747],[69.1,4829],[69.1,4912],[69.1,4998],[67.6,5079],[67.1,5163],[67.1,5240],[67.1,5329],[67.1,5417],[67.1,5496],[67,5579],[66.6,5662],[66.6,5745],[66.6,5833],[66.7,5912],[68.1,5995],[68.5,6083],[68.5,6162],[68.5,6245],[68.5,6329],[68.5,6412],[68.5,6498],[68.5,6579],[68.5,6663],[68.5,6746],[68.5,6829],[68.5,6913],[68.5,6999],[68.5,7079],[68.5,7162],[68.5,7239],[68.5,7328],[68.6,7412],[69,7501],[69.2,7580],[69.5,7666],[69.7,7746],[69.8,7829],[70,7912],[70,7995],[70,8079],[70.2,8162],[70.2,8245],[70.2,8331],[70.2,8412],[70.2,8495],[70.2,8580],[70.2,8663],[70.2,8745],[70.2,8828],[70.2,8911],[69.9,8995],[69.6,9078],[69.2,9166],[68.8,9245],[68,9329],[67.8,9413],[67.3,9497],[67.3,9579],[67.3,9664],[67.3,9745],[67.3,9829],[67.3,9914],[67.3,9996],[67.3,10082],[67.3,10162],[67.3,10245],[67.3,10332],[67.3,10412],[67.3,10496],[67.3,10580],[67.3,10663],[67.3,10750],[67.3,10829],[69.4,10912],[70.5,11001],[72,11079],[75,11163],[79.1,11246],[80.3,11328],[83,11413],[85.1,11495],[85.3,11579],[85.3,11666],[85.3,11745],[85.3,11829],[85.3,11914],[85.3,11995],[85.3,12079],[85.3,12164],[85.3,12245],[85.3,12329],[85.3,12413],[85.3,12495],[85.3,12578]]",1429.5411,1433.2741,86.45833333,1.9988,"[{""rating"":86.45833333333333,""responseTime"":1.9987999999523254}]",space,3.1837,,1433.2742,Partially,50,1433.2797,,,[],,0,13,13,13,1,audio/Narrative8Situation4.wav,audio/Narrative7Situation4.wav,audio/Narrative6Situation4.wav,audio/Narrative5Situation4.wav,3,3,2,1,,,,,,,,,,,,,,,,,,,,,,,,,,,,,,,,,,,,,,,
