consent.started,consent.stopped,consentResponse.keys,consentResponse.rt,consentResponse.duration,participantID,date,expName,psychopyVersion,OS,frameRate,STUDY_ID,SESSION_ID,opening1.started,opening1.stopped,keyEndingOpening1.keys,keyEndingOpening1.rt,keyEndingOpening1.duration,volumeAdjust.started,volumeAdjust.stopped,endingAdjust.keys,endingAdjust.rt,endingAdjust.duration,opening2.started,opening2.stopped,keyEndingOpening.keys,keyEndingOpening.rt,keyEndingOpening.duration,mouse.x,mouse.y,mouse.leftButton,mouse.midButton,mouse.rightButton,mouse.time,instructionLoop.thisRepN,instructionLoop.thisTrialN,instructionLoop.thisN,instructionLoop.thisIndex,instructionLoop.ran,readyForAudio.started,readyForAudio.stopped,fixation.started,run,audio_played,fixation.stopped,endPractice.keys,audioPre.started,audioPre.stopped,continuousResponses_audio,intRating.started,intRating.stopped,intQuestionSlider.response,intQuestionSlider.rt,intQuestionSlider.history,confirmResponse.keys,confirmResponse.rt,confirmResponse.duration,catchQuestion.started,catch_label,catch_value,catchQuestion.stopped,catchQuestionSlider.response,catchQuestionSlider.rt,catchQuestionSlider.history,confirmResponse_2.keys,audioRunLoop.thisRepN,audioRunLoop.thisTrialN,audioRunLoop.thisN,audioRunLoop.thisIndex,audioRunLoop.ran,conditions1_1,conditions2_1,conditions1_2,conditions2_2,dur1_1,dur2_1,dur1_2,dur2_2,endPractice.rt,endPractice.duration,confirmResponse_2.rt,confirmResponse_2.duration,runIntervalBreak.started,runIntervalBreak.stopped,endingBreakKey.keys,endingBreakKey.rt,endingBreakKey.duration,connection.started,connection.stopped,connectionEnding.keys,connectionEnding.rt,connectionEnding.duration,readyForText.started,readyForText.stopped,textPre.started,run_dup,textPre.stopped,continuousResponses_text,textRunLoop.thisRepN,textRunLoop.thisTrialN,textRunLoop.thisN,textRunLoop.thisIndex,textRunLoop.ran,text1_1,text1_2,text2_1,text2_2,runBreakText.started,runBreakText.stopped,endingBreakKey_2.keys,endingBreakKey_2.rt,endingBreakKey_2.duration,ending.started,ending.stopped,endingEnding.keys,endingEnding.rt,endingEnding.duration
0.0002,3.2699,y,2.954,,63ecff07b619306f41db42fa,2025-07-07_21h11.16.586,group3.4_multiperson,2023.2.2,Win32,120.4819277,686c2ebf0248f13bef9af11f,686c9a547792b7ed80aa4f9c,,,,,,,,,,,,,,,,,,,,,,,,,,,,,,,,,,,,,,,,,,,,,,,,,,,,,,,,,,,,,,,,,,,,,,,,,,,,,,,,,,,,,,,,,,,,,,,,,,,,,,,,
,,,,,63ecff07b619306f41db42fa,2025-07-07_21h11.16.586,group3.4_multiperson,2023.2.2,Win32,120.4819277,686c2ebf0248f13bef9af11f,686c9a547792b7ed80aa4f9c,3.2705,10.8052,space,7.5114,,,,,,,,,,,,,,,,,,,,,,,,,,,,,,,,,,,,,,,,,,,,,,,,,,,,,,,,,,,,,,,,,,,,,,,,,,,,,,,,,,,,,,,,,,,,,,,,,,,,
,,,,,63ecff07b619306f41db42fa,2025-07-07_21h11.16.586,group3.4_multiperson,2023.2.2,Win32,120.4819277,686c2ebf0248f13bef9af11f,686c9a547792b7ed80aa4f9c,,,,,,10.8052,17.7215,space,6.6083,,,,,,,,,,,,,,,,,,,,,,,,,,,,,,,,,,,,,,,,,,,,,,,,,,,,,,,,,,,,,,,,,,,,,,,,,,,,,,,,,,,,,,,,,,,,,,,
,,,,,63ecff07b619306f41db42fa,2025-07-07_21h11.16.586,group3.4_multiperson,2023.2.2,Win32,120.4819277,686c2ebf0248f13bef9af11f,686c9a547792b7ed80aa4f9c,,,,,,,,,,,17.7236,30.3189,space,12.5742,,[],[],[],[],[],[],0,0,0,0,1,,,,,,,,,,,,,,,,,,,,,,,,,,,,,,,,,,,,,,,,,,,,,,,,,,,,,,,,,,,,,,,,,,,,,,,,,,,,,,
,,,,,63ecff07b619306f41db42fa,2025-07-07_21h11.16.586,group3.4_multiperson,2023.2.2,Win32,120.4819277,686c2ebf0248f13bef9af11f,686c9a547792b7ed80aa4f9c,,,,,,,,,,,30.3191,50.9353,space,20.5583,,[],[],[],[],[],[],1,0,1,0,1,,,,,,,,,,,,,,,,,,,,,,,,,,,,,,,,,,,,,,,,,,,,,,,,,,,,,,,,,,,,,,,,,,,,,,,,,,,,,,
,,,,,63ecff07b619306f41db42fa,2025-07-07_21h11.16.586,group3.4_multiperson,2023.2.2,Win32,120.4819277,686c2ebf0248f13bef9af11f,686c9a547792b7ed80aa4f9c,,,,,,,,,,,50.9361,69.1047,space,18.1394,,[],[],[],[],[],[],2,0,2,0,1,,,,,,,,,,,,,,,,,,,,,,,,,,,,,,,,,,,,,,,,,,,,,,,,,,,,,,,,,,,,,,,,,,,,,,,,,,,,,,
,,,,,63ecff07b619306f41db42fa,2025-07-07_21h11.16.586,group3.4_multiperson,2023.2.2,Win32,120.4819277,686c2ebf0248f13bef9af11f,686c9a547792b7ed80aa4f9c,,,,,,,,,,,69.105,92.9427,space,23.825,,[],[],[],[],[],[],3,0,3,0,1,,,,,,,,,,,,,,,,,,,,,,,,,,,,,,,,,,,,,,,,,,,,,,,,,,,,,,,,,,,,,,,,,,,,,,,,,,,,,,
,,,,,63ecff07b619306f41db42fa,2025-07-07_21h11.16.586,group3.4_multiperson,2023.2.2,Win32,120.4819277,686c2ebf0248f13bef9af11f,686c9a547792b7ed80aa4f9c,,,,,,,,,,,92.9434,120.9332,space,27.9676,,[],[],[],[],[],[],4,0,4,0,1,,,,,,,,,,,,,,,,,,,,,,,,,,,,,,,,,,,,,,,,,,,,,,,,,,,,,,,,,,,,,,,,,,,,,,,,,,,,,,
,,,,,63ecff07b619306f41db42fa,2025-07-07_21h11.16.586,group3.4_multiperson,2023.2.2,Win32,120.4819277,686c2ebf0248f13bef9af11f,686c9a547792b7ed80aa4f9c,,,,,,,,,,,120.9334,132.6663,space,11.7244,,[],[],[],[],[],[],5,0,5,0,1,,,,,,,,,,,,,,,,,,,,,,,,,,,,,,,,,,,,,,,,,,,,,,,,,,,,,,,,,,,,,,,,,,,,,,,,,,,,,,
,,,,,63ecff07b619306f41db42fa,2025-07-07_21h11.16.586,group3.4_multiperson,2023.2.2,Win32,120.4819277,686c2ebf0248f13bef9af11f,686c9a547792b7ed80aa4f9c,,,,,,,,,,,,,,,,,,,,,,,,,,,132.6675,135.2496,135.2598,1,audio/Narrative13Situation2.wav,137.2663,,137.2664,166.9992,"[[999,0],[999,99],[999,183],[999,266],[999,349],[999,433],[999,516],[999,599],[999,682],[999,766],[999,849],[30.5,933],[30.3,1016],[31.2,1099],[31.6,1183],[31.6,1266],[31.6,1349],[31.6,1432],[31.6,1516],[31.6,1599],[31.6,1682],[31.6,1766],[31.7,1849],[32.1,1932],[32.5,2016],[33.7,2099],[35.1,2182],[36,2266],[37,2349],[40.1,2433],[40.3,2516],[41.8,2599],[43.1,2682],[43.8,2766],[44.6,2849],[44.6,2933],[44.6,3016],[44.6,3099],[44.6,3183],[44.6,3266],[44.1,3349],[43.2,3432],[43.2,3516],[43.2,3599],[43.2,3682],[43.2,3766],[43.2,3849],[48.2,4599],[48.5,4682],[48.6,4766],[48.6,4849],[48.6,4933],[48.6,5016],[48.6,5099],[48.6,5182],[48.6,5266],[48.3,5349],[47.5,5432],[46.1,5516],[45.7,5599],[45.5,5682],[45.5,5766],[45.4,5849],[44.6,5932],[44.6,6016],[44.6,6099],[44.6,6183],[44.6,6266],[44.6,6349],[44.6,6432],[44.6,6516],[44.6,6599],[44.6,6683],[44.6,6766],[44.6,6849],[44.6,6932],[44.6,7016],[44.6,7099],[44.6,7182],[44.6,7266],[44.6,7349],[44.6,7433],[44.7,7516],[44.8,7599],[45.1,7682],[46.2,7766],[47.6,7849],[48,7932],[50.1,8016],[52.4,8099],[54.8,8182],[56.8,8266],[57.6,8349],[59.3,8432],[62.3,8516],[62.7,8599],[64.1,8682],[64.9,8766],[64.9,8849],[64.9,8932],[64.9,9016],[64.9,9099],[64.9,9182],[64.9,9266],[64.9,9349],[64.9,9433],[64.9,9516],[64.4,9599],[60.3,9682],[54.1,9766],[50.3,9849],[47,9932],[44.7,10016],[44,10099],[43.3,10182],[42.8,10266],[42.3,10349],[41.9,10432],[41.3,10516],[41.1,10599],[40.9,10682],[40.3,10766],[39.5,10849],[39.1,10932],[39,11016],[38.7,11099],[38.7,11183],[38.7,11266],[38.7,11349],[38.7,11432],[38.7,11516],[38.7,11599],[38.7,11682],[38.7,11766],[38.7,11849],[38.7,11933],[38.7,12016],[38.7,12099],[38.7,12183],[38.7,12266],[38.4,12349],[37.9,12432],[36.1,12516],[35,12599],[33.7,12683],[33.7,12766],[33.6,12849],[33,12932],[33,13016],[33,13099],[31.7,14016],[32.2,14099],[32.2,14182],[31.6,14266],[30.9,14349],[30.9,14433],[30.9,14516],[30.7,14599],[30.6,14682],[30.6,14766],[30.6,14849],[31.9,14932],[32.3,15016],[32.5,15099],[34.6,15182],[39.1,15266],[39.1,15349],[39.3,15432],[39.4,15516],[39.4,15599],[41.5,15682],[42,15766],[44,15849],[51.6,15932],[52.3,16016],[58.4,16099],[61.9,16182],[61.9,16266],[61.9,16349],[61.9,16432],[61.9,16516],[61.9,16599],[61.9,16682],[61.9,16765],[61.9,16849],[61.9,16932],[61.9,17015],[61.9,17099],[61.9,17182],[61.9,17265],[61.9,17349],[62.1,17432],[62.3,17515],[63.1,17599],[63.4,17682],[63.9,17765],[64.8,17849],[65,17932],[65,18016],[65.5,18099],[65.5,18182],[65.5,18265],[65.5,18349],[65.4,18432],[64.6,18515],[63.9,18599],[63.7,18682],[63.6,18766],[63.4,18849],[63.2,18932],[63.1,19016],[63.1,19099],[63.1,19182],[63.1,19265],[63.1,19349],[63.1,19432],[63.1,19516],[63.1,19599],[63.1,19682],[63.1,19766],[63.1,19849],[63.1,19933],[63.1,20016],[63.1,20099],[62.7,20182],[59.6,20265],[56.7,20349],[56.4,20432],[55.3,20516],[53.9,20599],[53.3,20682],[53.3,20766],[53.3,20849],[53.3,20932],[53.3,21016],[53.3,21099],[53.3,21182],[53.3,21266],[53.4,21349],[53.5,21432],[54.1,21515],[54.1,21599],[54.1,21682],[54.1,21766],[54.1,21849],[54.1,21932],[54.1,22015],[54.4,22099],[55.1,22182],[55.6,22266],[56.4,22349],[57.3,22432],[58.9,22515],[59.4,22599],[59.4,22682],[59.4,22765],[59.4,22849],[59.4,22932],[59.4,23015],[59.4,23099],[59.4,23182],[59.4,23265],[59.4,23349],[59.4,23432],[60,23515],[60.8,23599],[60.8,23682],[60.8,23765],[60.8,23849],[60.8,23932],[60.8,24015],[60.8,24099],[60.8,24182],[60.8,24265],[60.4,24349],[60.3,24432],[60.2,24515],[60.2,24599],[60.2,24682],[60.2,24765],[60.2,24849],[60.2,24932],[60.2,25015],[60.1,25099],[60.1,25182],[60.1,25266],[60.1,25349],[60.1,25432],[59.8,25515],[59.3,25599],[59.3,25682],[59.3,25765],[59.5,25849],[59.8,25932],[59.8,26015],[59.8,26099],[59.8,26182],[59.8,26265],[59.8,26348],[59.8,26432],[60.1,26515],[61,26599],[63,26682],[63.3,26765],[63.3,26849],[63.6,26932],[63.6,27015],[63.6,27099],[63.6,27182],[63.9,27265],[64,27349],[64,27432],[64,27515],[64,27599],[64,27682],[64,27765],[64,27849],[64,27932],[64,28015],[64,28099],[64.1,28182],[65.5,28265],[66,28349],[66,28432],[66,28515],[66,28599],[66,28682],[66,28765],[66,28849],[66,28932],[65.8,29015]]",166.9994,176.1404,70.83577137,7.9608,"[{""rating"":53.33919029938945,""responseTime"":3.6536999998092483},{""rating"":61.5407126768791,""responseTime"":4.865499999999997},{""rating"":70.83577137136736,""responseTime"":7.9607999999523145}]",space,8.6171,,176.1405,Definitely yes,100,176.1425,,,[],,0,0,0,0,1,audio/Narrative13Situation2.wav,audio/Narrative13Situation2.wav,audio/Narrative13Situation2.wav,audio/Narrative13Situation2.wav,2,2,2,2,,,,,,,,,,,,,,,,,,,,,,,,,,,,,,,,,,,,,,,
,,,,,63ecff07b619306f41db42fa,2025-07-07_21h11.16.586,group3.4_multiperson,2023.2.2,Win32,120.4819277,686c2ebf0248f13bef9af11f,686c9a547792b7ed80aa4f9c,,,,,,,,,,,,,,,,,,,,,,,,,,,,,176.1425,1,audio/Narrative7Situation1.wav,179.5238,space,179.5238,235.3977,"[[999,0],[999,83],[999,166],[999,249],[999,333],[999,416],[999,503],[999,583],[999,666],[999,749],[999,833],[999,916],[999,999],[999,1083],[999,1167],[999,1249],[999,1333],[999,1420],[999,1503],[999,1583],[999,1666],[999,1749],[999,1833],[999,1916],[999,1999],[999,2083],[999,2166],[999,2249],[49.9,2336],[49.9,2416],[49.9,2499],[49.9,2583],[49.9,2666],[49.9,2753],[49.9,2833],[49.9,2916],[49.9,2999],[49.9,3082],[49.9,3166],[49.9,3250],[49.9,3333],[50,3418],[50,3503],[50,3583],[50,3666],[50,3749],[50,3833],[50,3916],[50,4000],[49.9,4083],[49.8,4166],[49.8,4249],[49.8,4333],[49.8,4416],[49.8,4499],[49.8,4583],[49.8,4666],[49.8,4749],[49.8,4837],[49.8,4920],[49.8,5003],[49.8,5083],[49.8,5166],[49.8,5249],[49.8,5333],[49.8,5416],[49.7,5499],[49.7,5583],[49.7,5666],[49.7,5749],[49.7,5833],[49.7,5916],[49.7,5999],[49.7,6083],[49.7,6166],[49.7,6250],[49.7,6333],[49.1,6420],[47.6,6499],[46.8,6583],[46.2,6666],[45.9,6749],[45.3,6833],[44,6916],[43.4,6999],[43.4,7083],[43.4,7166],[43.4,7249],[43.4,7332],[43.5,7416],[44.6,7499],[44.6,7583],[44.6,7666],[44.9,7752],[47.6,7836],[49.7,7916],[53,8003],[55.3,8086],[55.8,8166],[57,8249],[58.3,8333],[59.5,8416],[59.5,8499],[59.5,8583],[59.5,8666],[59.6,8749],[59.6,8832],[59.6,8916],[59.6,8999],[59.6,9082],[59.4,9166],[58.3,9249],[56.1,9333],[55.2,9420],[54.9,9499],[51.9,9582],[47.3,9666],[46.3,9749],[36.1,9837],[32.5,9920],[31.5,9999],[31.5,10083],[31.5,10166],[31.5,10249],[31.5,10336],[31.5,10416],[31.5,10499],[31.5,10582],[31.5,10666],[31.5,10749],[31.5,10832],[31.5,10916],[31.5,10999],[31.5,11083],[31.5,11166],[31.6,11249],[32.8,11332],[36.2,11416],[36.8,11499],[36.9,11582],[37.2,11666],[37.2,11749],[38.6,11832],[40.7,11916],[45.4,11999],[51.1,12086],[52.2,12166],[55.1,12249],[55.7,12333],[55.8,12416],[56.4,12499],[57.3,12582],[57.3,12666],[57.3,12749],[57.3,12833],[57.3,12916],[56.9,12999],[56.6,13082],[56.4,13166],[56.3,13249],[56.2,13336],[56.2,13416],[56.2,13499],[56.2,13582],[56.2,13666],[55.9,13749],[55.8,13832],[54.3,13920],[52.6,13999],[51.6,14082],[51.6,14166],[51.6,14249],[51.6,14332],[51.6,14416],[51.6,14500],[50.2,14586],[49.8,14666],[49.8,14749],[49.8,14832],[49.8,14916],[49.8,14999],[49.8,15082],[49.8,15166],[50.1,15249],[50.8,15332],[51.6,15420],[52,15499],[52.9,15582],[52.9,15666],[52.9,15749],[52.9,15832],[52.9,15916],[53,15999],[53,16082],[53.1,16166],[53.1,16249],[53.1,16332],[53.1,16416],[53.1,16499],[53.1,16583],[53.1,16666],[53.1,16749],[53.1,16833],[53.1,16916],[53.1,16999],[53.1,17083],[53.4,17166],[53.6,17249],[54.1,17333],[54.1,17416],[54.1,17499],[54.1,17582],[53.5,17670],[51.9,17749],[49.8,17836],[48.3,17916],[47.3,17999],[46.9,18082],[46.9,18166],[46.9,18249],[45.5,18336],[42.7,18416],[39.4,18499],[39.4,18582],[39.4,18666],[39.4,18749],[39.4,18832],[39.4,18916],[39.4,18999],[39.4,19083],[39.4,19166],[39.4,19249],[39.4,19332],[40.7,19416],[43.6,19503],[43.6,19583],[43.7,19666],[44.8,19753],[46.6,19832],[47.7,19919],[50.4,19999],[51.8,20082],[52.3,20166],[53.3,20249],[53.3,20332],[53.5,20420],[54.4,20499],[54.4,20582],[54.4,20666],[54.4,20749],[54.4,20832],[54.4,20916],[54.4,20999],[54.4,21082],[54,21166],[53.2,21249],[52.6,21336],[52.3,21416],[52.3,21499],[52.3,21582],[52.3,21666],[54.4,21749],[56.6,21832],[57.5,21920],[59.6,22003],[62.3,22082],[63,22166],[64.7,22249],[66.2,22332],[66.9,22415],[66.9,22499],[66.9,22582],[66.9,22666],[69.2,22749],[70.6,22832],[72.7,22916],[78.4,23003],[78.6,23082],[79.6,23166],[80.6,23253],[80.7,23332],[80.7,23415],[81.7,23499],[83.7,23586],[84,23666],[84,23749],[84,23833],[84,23916],[84,23999],[84,24082],[84.3,24166],[84.3,24249],[84.3,24332],[84.3,24416],[84.3,24499],[83.7,24585],[83.4,24666],[83.4,24749],[83.4,24832],[83.4,24916],[83.4,24999],[83.4,25082],[83.4,25166],[83.4,25249],[83.6,25332],[83.7,25416],[84,25504],[84,25582],[84,25666],[84,25749],[84,25832],[84,25916],[84,25999],[84.1,26086],[84.2,26165],[84.2,26249],[84.2,26332],[84.2,26416],[84.5,26499],[84.7,26582],[84.8,26666],[84.8,26749],[84.8,26832],[84.8,26915],[84.8,26999],[84.8,27082],[84.8,27165],[84.8,27249],[84.8,27332],[84.8,27420],[84.8,27499],[84.8,27582],[84.8,27666],[84.8,27749],[84.8,27833],[84.8,27916],[84.8,27999],[84.8,28082],[84.8,28166],[84.8,28249],[84.8,28332],[84.8,28416],[84.8,28499],[84.8,28582],[84.8,28666],[84.8,28749],[84.8,28832],[84.8,28915],[84.8,28999],[84.8,29082],[84.8,29166],[84.8,29249],[84.8,29333],[84.8,29415],[84.8,29499],[84.8,29582],[84.8,29666],[84.8,29749],[84.8,29832],[84.6,29915],[84.1,30003],[85.1,31086],[84.9,31166],[84.6,31249],[84.6,31336],[84.5,31415],[84.5,31499],[84.5,31582],[84.5,31665],[84.5,31749],[84.5,31832],[84.5,31915],[84.5,31999],[84.5,32082],[84.5,32165],[84.5,32249],[84.5,32332],[84.5,32415],[84.5,32499],[84.5,32582],[84.5,32665],[84.5,32749],[84.5,32832],[84.5,32915],[84.5,32999],[84.5,33082],[84.5,33165],[84.5,33253],[84.5,33332],[84.5,33415],[84.5,33499],[84.5,33582],[84.5,33666],[84.5,33749],[84.5,33832],[84.5,33915],[84.5,33999],[84.5,34083],[84.5,34166],[84.5,34249],[84.5,34332],[84.5,34416],[84.5,34499],[84.5,34582],[84.5,34665],[84.5,34749],[84.5,34833],[84.5,34915],[84.5,34999],[84.5,35082],[84.5,35165],[84.5,35249],[84.5,35333],[84.5,35415],[84.5,35499],[84.5,35582],[84.5,35666],[84.5,35749],[84.5,35832],[84.5,35915],[84.5,35999],[84.5,36082],[84.5,36165],[84.5,36249],[84.5,36332],[84.5,36415],[84.5,36499],[84.5,36582],[84.4,36665],[84.2,36749],[84.2,36832],[84.1,36915],[84.1,36999],[84.1,37082],[84.1,37165],[84.1,37249],[84.1,37332],[84.1,37415],[84.1,37499],[84.1,37582],[84.1,37665],[84.1,37749],[84.1,37832],[84.1,37915],[84.1,37999],[84.1,38082],[84.1,38169],[84.1,38249],[84.1,38332],[84.1,38415],[84.1,38499],[84.1,38582],[84.1,38669],[84.1,38749],[84.1,38832],[84.1,38915],[84.1,38999],[84.1,39082],[84.1,39165],[84.1,39248],[84.1,39332],[84.1,39416],[84.1,39499],[84.1,39582],[84.1,39666],[84.1,39749],[84.1,39836],[84.1,39915],[84.1,39999],[84.1,40085],[84.1,40165],[84.1,40253],[84.1,40332],[84.1,40415],[84.1,40499],[84.1,40582],[84.1,40665],[84.1,40749],[84.1,40832],[84.1,40915],[84.1,40999],[84.1,41082],[84.1,41165],[84.1,41249],[84.1,41332],[84.1,41415],[84.1,41499],[84.1,41582],[84.1,41665],[84.1,41749],[84.1,41832],[83.9,41915],[83.3,41999],[83.2,42082],[83.2,42165],[83.2,42249],[83.2,42332],[83.2,42416],[83.2,42499],[82.8,42582],[81.7,42669],[81.5,42749],[81.5,42832],[81.5,42915],[81.5,42998],[81.5,43082],[81.5,43165],[81.5,43248],[81.5,43332],[81.5,43415],[81.9,43498],[82.6,43582],[82.7,43666],[82.9,43748],[83.8,43835],[83.8,43915],[83.8,43999],[83.8,44082],[83.8,44165],[83.7,44249],[83.7,44332],[83.7,44415],[83.7,44498],[83.7,44582],[83.7,44665],[83.7,44749],[83.7,44832],[83.7,44915],[83.7,44998],[83.7,45082],[83.7,45165],[83.7,45249],[83.7,45332],[83.7,45415],[83.7,45499],[83.7,45582],[83.7,45665],[83.7,45749],[83.7,45832],[83.7,45915],[83.7,45999],[83.3,46086],[81.9,46165],[81.6,46252],[81.6,46332],[82.2,46415],[82.8,46498],[82.8,46582],[82.8,46665],[82.8,46749],[82.8,46832],[82.8,46915],[82.8,46999],[82.8,47086],[82.8,47165],[82.8,47248],[82.8,47332],[82.9,47419],[83.3,47498],[83.8,47582],[84,47665],[84,47749],[84,47832],[84,47915],[84,47998],[84,48082],[84,48165],[84,48248],[84,48332],[84,48415],[84,48498],[84,48582],[84,48665],[84,48748],[84,48832],[84,48915],[84,48998],[84,49082],[84,49165],[84,49248],[84,49332],[84,49415],[83.3,49502],[81.4,49582],[81.2,49665],[81.2,49749],[81.2,49832],[81.2,49915],[81.1,49999],[79.5,50086],[79.5,50165],[79.5,50248],[79.5,50332],[79.5,50415],[79.5,50498],[79.5,50582],[79.5,50666],[80.4,50748],[82.8,50836],[87.1,50919],[88,50998],[90.5,51082],[92.2,51165],[94.8,51248],[96.4,51332],[96.9,51415],[97.3,51498],[97.5,51582],[97.5,51665],[97.5,51749],[97.5,51832],[96.9,51915],[96.4,51998],[96.2,52082],[96.1,52165],[96.1,52248],[96.1,52332],[96.1,52418],[96.1,52498],[96.1,52582],[96.1,52665],[96.1,52748],[96.1,52832],[95.8,52915],[95.8,52998],[95.8,53082],[95.2,53169],[95,53248],[95,53332],[95,53415],[95,53498],[94.8,53582],[94.8,53665],[94.8,53748],[94.8,53832],[94.8,53915],[94.8,53999],[94.8,54082],[94.8,54165],[94.8,54248],[94.7,54332],[94.2,54419],[94.2,54498],[94.2,54582],[94.2,54665],[94.2,54748],[94.2,54832],[94.2,54915],[94.2,54998],[94.1,55082],[94,55165],[93.8,55248],[93.8,55332],[93.8,55415],[93.8,55498],[93.8,55582],[93.8,55665],[93.8,55748],[93.8,55832]]",235.3979,241.7975,92.70648937,3.3394,"[{""rating"":92.70648936831974,""responseTime"":3.3394000000953667}]",space,5.881,,241.7975,Partially,50,241.7987,,,[],,0,1,1,1,1,audio/Narrative7Situation1.wav,audio/Narrative8Situation1.wav,audio/Narrative5Situation1.wav,audio/Narrative6Situation1.wav,2,5,5,2,3.3657,,,,,,,,,,,,,,,,,,,,,,,,,,,,,,,,,,,,,,
,,,,,63ecff07b619306f41db42fa,2025-07-07_21h11.16.586,group3.4_multiperson,2023.2.2,Win32,120.4819277,686c2ebf0248f13bef9af11f,686c9a547792b7ed80aa4f9c,,,,,,,,,,,,,,,,,,,,,,,,,,,,,241.7988,1,audio/Narrative7Situation2.wav,244.8059,,244.8059,252.2641,"[[999,0],[999,83],[999,166],[999,250],[999,333],[999,416],[999,499],[999,583],[999,666],[999,750],[999,833],[999,920],[999,1002],[999,1083],[999,1170],[999,1249],[999,1336],[999,1416],[999,1500],[999,1583],[999,1666],[999,1749],[999,1833],[999,1916],[999,1999],[999,2083],[999,2166],[999,2250],[999,2333],[999,2420],[999,2499],[999,2583],[49.9,2670],[50.1,2749],[50.7,2833],[53.6,2916],[55.7,3002],[56.9,3083],[60,3166],[63.2,3253],[63.7,3337],[66.2,3420],[68,3503],[68,3583],[68,3666],[68,3753],[68,3833],[68,3916],[68,3999],[68,4083],[68,4166],[68,4249],[68,4333],[68,4416],[68,4500],[68.3,4583],[68.3,4666],[68.7,4749],[69.4,4833],[70,4920],[70,4999],[70,5083],[70.1,5166],[71.6,5249],[72.4,5333],[72.6,5416],[73.9,5503],[73.9,5583],[73.9,5666],[73.9,5749],[73.9,5833],[73.9,5916],[73.9,5999],[73.9,6083],[73.9,6166],[73.9,6249],[73.9,6333],[73.9,6416],[73.9,6499],[73.9,6583],[73.8,6666],[73.8,6749],[73.6,6832],[73.3,6920],[72.8,6999],[72.8,7082],[72.8,7166],[72.8,7249],[72.8,7333],[72.8,7416]]",252.2641,258.8972,90.98807754,5.503,"[{""rating"":88.95722795505304,""responseTime"":3.7621000001430502},{""rating"":90.98807753961333,""responseTime"":5.502999999999986}]",space,6.1031,,258.8972,Not at all,0,258.8986,,,[],,0,2,2,2,1,audio/Narrative7Situation2.wav,audio/Narrative8Situation2.wav,audio/Narrative5Situation2.wav,audio/Narrative6Situation2.wav,3,3,3,3,,,,,,,,,,,,,,,,,,,,,,,,,,,,,,,,,,,,,,,
,,,,,63ecff07b619306f41db42fa,2025-07-07_21h11.16.586,group3.4_multiperson,2023.2.2,Win32,120.4819277,686c2ebf0248f13bef9af11f,686c9a547792b7ed80aa4f9c,,,,,,,,,,,,,,,,,,,,,,,,,,,,,258.8987,1,audio/Narrative7Situation3.wav,266.9055,,266.9055,276.1386,"[[999,0],[999,83],[999,166],[999,249],[999,333],[999,416],[999,500],[999,587],[999,670],[999,753],[999,833],[999,916],[999,999],[999,1083],[999,1166],[999,1253],[999,1333],[999,1420],[999,1499],[51.9,1583],[51.9,1666],[51.9,1749],[51.9,1833],[51.9,1916],[51.9,1999],[52.8,2083],[55,2170],[57.1,2254],[58,2333],[58,2416],[58,2499],[58,2583],[58,2666],[58,2749],[58,2833],[58,2916],[58,2999],[58,3086],[58,3166],[58,3249],[58,3333],[58,3416],[58,3499],[57.8,3583],[57.5,3666],[56.6,3749],[55.6,3833],[54.4,3920],[53.9,3999],[53.9,4083],[53.9,4166],[53.9,4249],[53.9,4333],[53.9,4416],[53.9,4499],[53.9,4583],[53.9,4666],[53.9,4749],[53.9,4833],[53.9,4916],[53.9,4999],[53.9,5083],[53.9,5166],[53.9,5249],[53.9,5333],[53.9,5416],[53.9,5499],[53.9,5583],[53.9,5666],[53.9,5749],[54,5833],[54,5916],[54.3,5999],[54.5,6083],[55.7,6166],[57.6,6249],[57.7,6336],[58,6421],[59.5,6502],[59.8,6583],[60.1,6666],[60.1,6749],[60.1,6833],[60.1,6916],[60.1,6999],[59.4,7083],[58.3,7166],[57.7,7249],[57.6,7333],[57.6,7416],[57.6,7500],[57.6,7583],[57.6,7666],[57.6,7750],[57.6,7833],[57.6,7916],[57.6,7999],[57.6,8083],[57.6,8166],[57.6,8249],[57.6,8333],[57.6,8417],[57.6,8499],[57.6,8583],[57.6,8666],[57.6,8749],[57.6,8833],[57.6,8916],[57.6,8999],[57.6,9083],[57.6,9166]]",276.1386,281.7218,39.98242409,4.0456,"[{""rating"":46.69985670116927,""responseTime"":3.347600000143075},{""rating"":39.98242409276062,""responseTime"":4.045600000143054}]",space,5.0698,,281.7218,Partially,50,281.723,,,[],,0,3,3,3,1,audio/Narrative7Situation3.wav,audio/Narrative8Situation3.wav,audio/Narrative5Situation3.wav,audio/Narrative6Situation3.wav,8,4,3,5,,,,,,,,,,,,,,,,,,,,,,,,,,,,,,,,,,,,,,,
,,,,,63ecff07b619306f41db42fa,2025-07-07_21h11.16.586,group3.4_multiperson,2023.2.2,Win32,120.4819277,686c2ebf0248f13bef9af11f,686c9a547792b7ed80aa4f9c,,,,,,,,,,,,,,,,,,,,,,,,,,,,,281.7231,1,audio/Narrative7Situation4.wav,284.7301,,284.7302,296.4466,"[[999,0],[999,83],[999,166],[999,249],[999,333],[999,416],[999,499],[999,583],[999,666],[999,753],[999,833],[999,916],[999,1002],[999,1083],[999,1166],[999,1253],[999,1337],[999,1416],[999,1503],[999,1583],[999,1666],[999,1749],[999,1833],[999,1916],[999,2000],[999,2083],[999,2168],[50,2249],[49.7,2333],[49.6,2416],[49.6,2500],[49.6,2583],[49.6,2666],[49.6,2749],[49.6,2833],[49.9,2916],[51.2,2999],[51.3,3083],[51.3,3166],[51.3,3249],[51.3,3337],[51.3,3416],[51,3499],[50.8,3583],[50.7,3666],[50.7,3749],[50.7,3833],[50.7,3916],[50.6,4000],[50.6,4083],[50.6,4166],[50.6,4249],[50.6,4333],[50.6,4416],[50.6,4499],[50.6,4583],[50.6,4666],[50.6,4750],[50.6,4832],[50.5,4916],[50,4999],[48.4,5083],[46.2,5166],[43.3,5253],[41.2,5333],[39.3,5416],[38.3,5503],[37.2,5582],[35.6,5666],[35,5749],[33.7,5833],[30.9,5916],[25.5,6003],[23.3,6083],[23,6166],[22.4,6249],[21.3,6333],[21.2,6416],[21.2,6499],[20.7,6583],[20.5,6666],[18.7,6754],[17.1,6836],[13.4,6916],[7.3,7003],[6.1,7082],[6.1,7166],[6.1,7249],[6.1,7333],[6.1,7421],[6.2,7499],[6.4,7583],[6.4,7666],[6.4,7749],[6.4,7833],[6.1,7916],[6.1,8003],[6.1,8083],[6.1,8166],[6.1,8249],[6.4,8333],[6.6,8416],[6.9,8499],[7.3,8583],[7.3,8666],[7.3,8750],[7.3,8833],[7.3,8916],[7.3,8999],[7.3,9082],[7.3,9166],[7.3,9249],[7.3,9333],[7.3,9416],[7.3,9499],[7.3,9583],[7.3,9666],[7.3,9749],[7.3,9832],[7.1,9916],[7,9999],[6.8,10082],[6.7,10166],[6.7,10249],[6.7,10332],[6.7,10416],[6.7,10499],[6.7,10583],[6.7,10666],[6.7,10749],[6.7,10832],[6.7,10916],[6.7,10999],[6.9,11086],[8,11166],[8,11249],[8,11333],[8,11416],[8,11499],[8,11582],[8,11666]]",296.4467,301.792,6.863892655,4.6868,"[{""rating"":7.644987045072893,""responseTime"":1.4694000000953338},{""rating"":7.176330411292059,""responseTime"":2.7036000001430125},{""rating"":6.863892655438175,""responseTime"":4.6867999999523136}]",space,4.8258,,301.792,Partially,50,301.7927,,,[],,0,4,4,4,1,audio/Narrative7Situation4.wav,audio/Narrative8Situation4.wav,audio/Narrative5Situation4.wav,audio/Narrative6Situation4.wav,3,3,1,2,,,,,,,,,,,,,,,,,,,,,,,,,,,,,,,,,,,,,,,
,,,,,63ecff07b619306f41db42fa,2025-07-07_21h11.16.586,group3.4_multiperson,2023.2.2,Win32,120.4819277,686c2ebf0248f13bef9af11f,686c9a547792b7ed80aa4f9c,,,,,,,,,,,,,,,,,,,,,,,,,,,,,301.7928,1,audio/Narrative7Situation5.wav,306.7968,,306.7969,315.2712,"[[999,0],[999,82],[999,165],[999,249],[999,333],[999,416],[999,499],[999,582],[999,665],[999,749],[999,832],[999,916],[999,999],[999,1086],[999,1166],[999,1253],[999,1336],[999,1416],[999,1499],[999,1582],[999,1665],[999,1749],[19.1,1836],[19.1,1915],[19.1,1999],[19.2,2082],[19.6,2170],[20.1,2253],[21.2,2336],[21.5,2416],[21.6,2499],[23.8,2582],[29.8,2670],[30,2753],[33.7,2836],[38.2,2919],[40.9,2999],[51,3086],[53.7,3169],[54.2,3249],[54.3,3332],[54.3,3416],[54.2,3499],[54,3582],[53.7,3665],[53.6,3749],[53.6,3832],[53.6,3916],[53.6,3999],[53.6,4082],[53.6,4165],[53.7,4249],[55.1,4336],[55.8,4415],[55.8,4499],[55.8,4582],[55.8,4666],[55.8,4749],[55.8,4832],[55.8,4916],[55.5,5003],[55.1,5082],[54.4,5165],[53.8,5249],[53.8,5332],[53.8,5415],[53.7,5499],[53.3,5586],[53.3,5666],[53.3,5749],[53.3,5832],[53.3,5915],[53.3,5999],[53.3,6082],[53.3,6165],[53.3,6252],[53.3,6332],[53.4,6415],[53.4,6499],[53.7,6582],[53.8,6666],[53.8,6749],[53.8,6832],[53.8,6915],[53.8,6999],[53.8,7082],[53.8,7165],[53.8,7249],[53.8,7332],[53.8,7415],[53.8,7499],[53.8,7583],[53.8,7665],[53.8,7749],[53.8,7832],[53.8,7915],[53.8,7999],[53.8,8082],[53.1,8165],[53,8253],[53,8332],[53,8415]]",315.2712,318.8378,73.72582687,1.8703,"[{""rating"":73.72582687028086,""responseTime"":1.8702999999522945}]",space,3.0432,,318.8379,Partially,50,318.8386,,,[],,0,5,5,5,1,audio/Narrative7Situation5.wav,audio/Narrative8Situation5.wav,audio/Narrative5Situation5.wav,audio/Narrative6Situation5.wav,5,2,5,2,,,,,,,,,,,,,,,,,,,,,,,,,,,,,,,,,,,,,,,
,,,,,63ecff07b619306f41db42fa,2025-07-07_21h11.16.586,group3.4_multiperson,2023.2.2,Win32,120.4819277,686c2ebf0248f13bef9af11f,686c9a547792b7ed80aa4f9c,,,,,,,,,,,,,,,,,,,,,,,,,,,,,318.8387,1,audio/Narrative7Situation6.wav,321.846,,321.8461,331.8042,"[[999,0],[999,83],[999,166],[999,253],[999,333],[999,416],[999,499],[999,586],[999,666],[999,754],[999,837],[999,916],[53.3,999],[53.4,1087],[53.6,1166],[53.7,1250],[54.9,1333],[56.3,1416],[59.5,1499],[66.1,1587],[67.3,1666],[72.1,1753],[73.5,1832],[76.2,1920],[77.8,2003],[78.3,2083],[78.4,2166],[78.4,2249],[78.4,2333],[78.4,2416],[78.4,2499],[79.4,2583],[80.8,2666],[81.9,2749],[82,2833],[82.3,2916],[82.4,3000],[83,3083],[83.3,3166],[83.3,3249],[83.3,3333],[83.3,3416],[83.3,3500],[83.3,3583],[83.3,3666],[83.1,3749],[83.1,3833],[83.1,3916],[83.1,3999],[83,4083],[82.7,4166],[82.7,4249],[82.6,4333],[82.6,4416],[82.6,4499],[82.6,4583],[82.6,4666],[82.6,4749],[82.5,4833],[82.4,4916],[82.3,4999],[82.3,5083],[82.1,5166],[82.1,5249],[82.1,5333],[82.1,5416],[82,5499],[82,5583],[82,5666],[82,5749],[82,5832],[82,5916],[82,5999],[82,6083],[82,6166],[82,6249],[82,6333],[82,6416],[82,6499],[82,6583],[82,6666],[82,6749],[82,6832],[82,6916],[82,6999],[82,7083],[82,7166],[82,7250],[82,7333],[82,7416],[82,7499],[82,7582],[82,7666],[82,7749],[82,7833],[82,7916],[82,7999],[82,8083],[82,8166],[82,8249],[82,8332],[82,8416],[82,8500],[82,8582],[82,8666],[82,8750],[82,8833],[81.7,8916],[81.2,8999],[81.2,9083],[81.2,9166],[81.2,9249],[81.2,9332],[81.2,9416],[81.2,9503],[81.2,9582],[81.2,9666],[81.2,9749],[81.2,9832],[81.2,9916]]",331.8043,334.9374,82.47411741,2.9371,"[{""rating"":86.37961021199344,""responseTime"":0.6206000001430425},{""rating"":82.47411740626983,""responseTime"":2.9371000001430616}]",space,2.6116,,334.9375,Not at all,0,342.1041,0,4.4367,"[{""rating"":0,""responseTime"":4.436700000047665}]",space,0,6,6,6,1,audio/Narrative7Situation6.wav,audio/Narrative8Situation6.wav,audio/Narrative5Situation6.wav,audio/Narrative6Situation6.wav,3,2,3,2,,,6.6429,,,,,,,,,,,,,,,,,,,,,,,,,,,,,,,,,,,,
,,,,,63ecff07b619306f41db42fa,2025-07-07_21h11.16.586,group3.4_multiperson,2023.2.2,Win32,120.4819277,686c2ebf0248f13bef9af11f,686c9a547792b7ed80aa4f9c,,,,,,,,,,,,,,,,,,,,,,,,,,,,,342.1042,1,audio/Narrative7Situation7.wav,347.1122,,347.1122,364.262,"[[999,0],[999,83],[999,166],[999,250],[999,333],[999,416],[999,500],[999,583],[999,666],[999,750],[999,837],[999,916],[999,999],[50.9,1083],[51.6,1170],[54.2,1253],[57,1333],[60.9,1420],[65.1,1500],[66.2,1583],[68.6,1670],[70.5,1749],[71.5,1837],[71.5,1916],[71.5,2000],[71.5,2083],[71.5,2166],[71.5,2250],[71.5,2333],[71.5,2416],[71.5,2499],[71.5,2583],[71.5,2666],[71.5,2750],[71.5,2833],[71.4,2916],[71,2999],[70.9,3083],[70.9,3166],[70.9,3249],[70.9,3333],[70.9,3416],[70.9,3500],[70.9,3583],[70.9,3666],[70.9,3749],[70.8,3833],[70.6,3916],[70.6,4000],[70.6,4083],[70.6,4166],[70.6,4249],[70.6,4337],[70.6,4416],[70.6,4503],[70.6,4583],[70.6,4666],[70.6,4749],[70.6,4833],[70.6,4920],[70.5,4999],[70.5,5083],[70.5,5166],[70.5,5250],[70.5,5333],[70.5,5416],[70.5,5499],[70.5,5583],[70.5,5666],[70.5,5749],[70.5,5833],[70.2,5916],[70.2,5999],[70.2,6083],[70.2,6166],[70.2,6249],[70.2,6333],[70.2,6416],[70.2,6499],[70.3,6583],[70.6,6670],[73,6749],[73.5,6833],[73.5,6916],[73.5,6999],[73.5,7083],[73.5,7166],[73.5,7249],[73.5,7333],[73.5,7416],[73.5,7499],[73.5,7583],[73.5,7666],[73.5,7750],[73.5,7833],[73.5,7916],[73.5,7999],[73.5,8083],[73.5,8166],[73.5,8249],[73.5,8333],[73.5,8416],[73.5,8500],[73.6,8583],[73.6,8666],[73.6,8749],[73.6,8833],[73.6,8916],[73.6,8999],[73.6,9083],[73.6,9166],[73.6,9249],[73.6,9333],[73.6,9416],[73.6,9499],[73.6,9583],[73.6,9666],[73.6,9749],[73.6,9833],[73.6,9916],[73.6,10000],[73.6,10083],[73.6,10166],[73.6,10250],[73.6,10333],[73.6,10416],[73.6,10500],[73.6,10583],[73.6,10666],[73.6,10749],[73.6,10832],[73.6,10916],[73.6,10999],[73.6,11083],[75.1,11166],[77.8,11253],[80.8,11333],[81.7,11419],[85.7,11503],[87.9,11583],[88.7,11666],[90.8,11753],[91.6,11837],[92.5,11916],[92.9,11999],[92.9,12082],[93,12166],[93,12249],[93,12333],[93,12416],[93,12499],[93,12583],[93,12666],[93,12749],[93,12833],[93,12916],[93,13000],[92.9,13083],[92.7,13166],[92.7,13250],[92.7,13333],[92.7,13416],[92.7,13499],[92.7,13582],[92.7,13666],[92.7,13749],[92.6,13833],[92.6,13916],[92.6,13999],[92.6,14083],[92.6,14166],[92.6,14249],[92.6,14333],[92.6,14416],[92.6,14499],[92.6,14582],[92.6,14666],[92.6,14749],[92.6,14833],[92.6,14916],[92.6,14999],[92.6,15083],[92.6,15166],[92.6,15249],[92.6,15332],[92.6,15416],[92.6,15499],[92.6,15582],[92.6,15666],[92.6,15750],[92.3,15832],[92.3,15916],[92.3,15999],[92.3,16082],[92.3,16166],[92.3,16249],[92.3,16333],[92.3,16416],[92.3,16500],[92.3,16583],[92.1,16666],[92.1,16749],[91.8,16832],[91.7,16916],[91.6,16999],[91.6,17083]]",364.262,366.9952,94.7373473,1.4277,"[{""rating"":89.73832651619777,""responseTime"":0.9367999999523136},{""rating"":94.73734729590004,""responseTime"":1.4277000000477074}]",space,2.21,,366.9953,Definitely yes,100,366.9965,,,[],,0,7,7,7,1,audio/Narrative7Situation7.wav,audio/Narrative8Situation7.wav,audio/Narrative5Situation7.wav,audio/Narrative6Situation7.wav,5,3,4,5,,,,,,,,,,,,,,,,,,,,,,,,,,,,,,,,,,,,,,,
,,,,,63ecff07b619306f41db42fa,2025-07-07_21h11.16.586,group3.4_multiperson,2023.2.2,Win32,120.4819277,686c2ebf0248f13bef9af11f,686c9a547792b7ed80aa4f9c,,,,,,,,,,,,,,,,,,,,,,,,,,,,,366.9966,1,audio/Narrative7Situation8.wav,369.0035,,369.0035,379.0116,"[[999,0],[999,83],[999,166],[999,253],[999,337],[999,420],[999,499],[999,583],[999,666],[999,750],[999,833],[71.6,916],[71.2,999],[71.2,1083],[71.2,1166],[71.2,1249],[72.4,1333],[75.6,1420],[76.9,1500],[78.7,1583],[79.3,1666],[79.3,1750],[79.3,1833],[79.3,1916],[79.3,2000],[79.3,2083],[79.3,2166],[79.3,2250],[79.3,2333],[80.2,2421],[80.6,2504],[81.2,2583],[81.4,2666],[81.5,2749],[82.1,2833],[82.3,2920],[82.4,2999],[82.4,3083],[82.4,3166],[82.4,3249],[82.4,3333],[82.4,3420],[82.4,3500],[82.4,3583],[82.4,3666],[82.4,3749],[82.4,3833],[82.4,3916],[82.4,4000],[82.4,4083],[82.4,4166],[82.4,4249],[82.4,4333],[82.6,4416],[82.9,4499],[83.2,4587],[83.2,4666],[83.2,4749],[83.2,4833],[83.2,4916],[83.2,4999],[83.2,5083],[83.2,5166],[83.1,5250],[83.1,5333],[83.1,5416],[83.1,5499],[83,5583],[83,5666],[83,5749],[83,5833],[82.9,5916],[82.9,5999],[82.9,6083],[82.9,6166],[82.9,6249],[82.9,6333],[82.9,6416],[82.9,6500],[82.9,6582],[82.9,6666],[82.9,6750],[82.9,6834],[82.9,6916],[82.9,6999],[82.8,7083],[82.6,7166],[82.6,7249],[82.5,7333],[82.4,7416],[82.4,7499],[82.4,7583],[82.3,7666],[82.3,7749],[82.3,7833],[82.3,7916],[82.3,7999],[82.3,8083],[82.3,8166],[82.3,8249],[82.3,8333],[82.3,8416],[82.3,8503],[82.3,8583],[82.3,8666],[82.3,8750],[83.2,8833],[84,8916],[85.6,8999],[86.3,9083],[86.4,9166],[86.4,9250],[86.4,9333],[86.4,9416],[86.4,9500],[86.3,9583],[86.2,9666],[86.2,9749],[86.2,9833],[86.2,9916],[86.2,9999]]",379.0116,381.0448,90.67564813,0.5987,"[{""rating"":90.67564812677944,""responseTime"":0.5987000000476428}]",space,1.5169,,381.0448,Definitely yes,100,381.0456,,,[],,0,8,8,8,1,audio/Narrative7Situation8.wav,audio/Narrative8Situation8.wav,audio/Narrative5Situation8.wav,audio/Narrative6Situation8.wav,2,3,3,5,,,,,,,,,,,,,,,,,,,,,,,,,,,,,,,,,,,,,,,
,,,,,63ecff07b619306f41db42fa,2025-07-07_21h11.16.586,group3.4_multiperson,2023.2.2,Win32,120.4819277,686c2ebf0248f13bef9af11f,686c9a547792b7ed80aa4f9c,,,,,,,,,,,,,,,,,,,,,,,,,,,,,381.0457,1,audio/Narrative7Situation9.wav,383.0532,,383.0532,391.6614,"[[999,0],[999,83],[999,166],[999,250],[999,333],[999,417],[999,499],[999,583],[999,666],[999,749],[999,833],[999,920],[999,1003],[999,1083],[999,1166],[999,1249],[999,1336],[999,1420],[999,1502],[999,1587],[63.1,1666],[64.5,1749],[66.8,1837],[71,1920],[75.5,2003],[75.7,2083],[80,2170],[81.5,2249],[82.3,2333],[82.4,2416],[83.4,2499],[83.4,2583],[83.5,2666],[83.7,2750],[84,2833],[84.6,2921],[84.6,2999],[84.8,3083],[85.7,3166],[86.1,3254],[88.1,3333],[88.1,3416],[88.1,3500],[88.1,3583],[88.1,3666],[88.1,3750],[88.1,3833],[88.1,3916],[88.6,4003],[88.7,4083],[88.7,4166],[88.7,4250],[88.7,4333],[88.8,4416],[89.5,4499],[89.9,4583],[89.9,4666],[89.9,4750],[89.9,4833],[89.3,4916],[88.9,4999],[88.3,5083],[87.7,5168],[86.8,5249],[86.5,5333],[86.5,5417],[86.5,5500],[86.5,5583],[86.5,5666],[86.5,5750],[86.5,5833],[86.6,5916],[87.3,6000],[87.8,6086],[88.2,6166],[88.6,6249],[89.1,6337],[89.4,6416],[89.4,6499],[89.4,6583],[89.4,6666],[89.4,6749],[89.4,6833],[89.4,6916],[89.4,6999],[89.4,7083],[89.4,7166],[89.4,7249],[89.4,7333],[89.4,7416],[89.4,7500],[89.4,7583],[89.4,7670],[89.4,7749],[89.4,7833],[89.4,7916],[89.4,8000],[89.3,8083],[89.2,8166],[89.2,8250],[89.2,8333],[89.2,8416],[89.2,8500],[89.2,8583]]",391.6614,393.1363,90.20698732,0.5365,"[{""rating"":90.20698732148861,""responseTime"":0.5365000000000464}]",space,0.9628,,393.1364,Partially,50,393.1374,,,[],,0,9,9,9,1,audio/Narrative7Situation9.wav,audio/Narrative8Situation9.wav,audio/Narrative5Situation9.wav,audio/Narrative6Situation9.wav,2,3,3,4,,,,,,,,,,,,,,,,,,,,,,,,,,,,,,,,,,,,,,,
,,,,,63ecff07b619306f41db42fa,2025-07-07_21h11.16.586,group3.4_multiperson,2023.2.2,Win32,120.4819277,686c2ebf0248f13bef9af11f,686c9a547792b7ed80aa4f9c,,,,,,,,,,,,,,,,,,,,,,,,,,,,,393.1375,1,audio/Narrative8Situation1.wav,398.1449,,398.1449,414.0609,"[[999,0],[999,83],[999,166],[999,249],[999,332],[999,416],[999,499],[999,582],[999,666],[999,749],[999,836],[999,920],[999,999],[999,1082],[999,1170],[999,1249],[999,1332],[999,1416],[999,1499],[999,1583],[999,1666],[999,1749],[999,1832],[999,1916],[999,1999],[999,2083],[999,2166],[999,2249],[999,2336],[999,2416],[999,2499],[999,2586],[999,2666],[999,2753],[999,2832],[999,2916],[999,3003],[999,3082],[999,3167],[999,3250],[999,3332],[999,3416],[999,3499],[999,3583],[999,3666],[999,3752],[999,3832],[999,3916],[999,3999],[999,4083],[999,4166],[999,4249],[999,4332],[999,4420],[999,4499],[999,4583],[999,4670],[999,4749],[999,4832],[999,4916],[999,4999],[999,5082],[11.6,5166],[11.6,5249],[11.6,5332],[11.6,5416],[11.3,5499],[11.1,5582],[10.9,5666],[10.9,5749],[10.9,5833],[10.9,5916],[10.9,5999],[10.9,6083],[10.9,6166],[10.9,6249],[10.9,6333],[10.9,6416],[10.9,6499],[10.9,6583],[10.9,6666],[10.9,6753],[10.9,6833],[10.8,6916],[10.7,6999],[10.5,7082],[10.5,7166],[10.5,7249],[10.5,7333],[10.5,7416],[10.5,7499],[10.5,7582],[10.5,7666],[10.5,7749],[10.5,7833],[10.5,7916],[10.5,7999],[10.5,8086],[10.5,8166],[10.5,8249],[10.5,8332],[10.5,8416],[10.5,8499],[10.5,8582],[10.5,8666],[10.5,8749],[10.5,8832],[10.5,8916],[10.5,8999],[10.5,9083],[10.5,9166],[10.5,9249],[10.8,9333],[10.8,9416],[11.2,9499],[13.8,9586],[13.8,9666],[13.8,9749],[13.8,9833],[13.8,9916],[13.9,9999],[18.7,10086],[34.8,10166],[44.8,10253],[48.1,10332],[60.3,10416],[60.5,10499],[60.5,10583],[60.5,10665],[59.1,10749],[58.6,10833],[58.6,10915],[58.6,10999],[58.6,11082],[58.6,11166],[58.6,11249],[58.6,11332],[58.6,11416],[58.6,11500],[58.6,11583],[58.6,11666],[58.6,11749],[58.6,11832],[58.6,11916],[58.6,11999],[58.6,12083],[58.6,12165],[58.6,12249],[58.6,12332],[58.6,12416],[58.6,12499],[58.6,12582],[58.6,12666],[58.6,12749],[58.6,12833],[58.6,12915],[58.6,12999],[58.6,13084],[58.6,13166],[58.6,13249],[58.6,13332],[58.6,13416],[58.6,13499],[58.6,13582],[58.6,13666],[58.5,13749],[58.5,13833],[58.5,13916],[58.5,13999],[58.5,14083],[58.5,14165],[58.5,14249],[58.5,14333],[58.5,14416],[58.5,14499],[58.5,14583],[58.5,14666],[58.5,14749],[58.5,14832],[58.5,14916],[58.5,14999],[58.5,15082],[58.5,15165],[58.5,15249],[58.5,15332],[58.5,15415],[58.5,15499],[58.5,15582],[58.5,15665],[58.5,15749],[58.5,15832],[58.5,15915]]",414.061,418.1776,49.74613525,1.8482,"[{""rating"":49.74613524951971,""responseTime"":1.8482000000477115}]",space,3.5948,,418.1776,Definitely yes,100,418.1787,,,[],,0,10,10,10,1,audio/Narrative8Situation1.wav,audio/Narrative7Situation1.wav,audio/Narrative6Situation1.wav,audio/Narrative5Situation1.wav,5,2,2,5,,,,,,,,,,,,,,,,,,,,,,,,,,,,,,,,,,,,,,,
,,,,,63ecff07b619306f41db42fa,2025-07-07_21h11.16.586,group3.4_multiperson,2023.2.2,Win32,120.4819277,686c2ebf0248f13bef9af11f,686c9a547792b7ed80aa4f9c,,,,,,,,,,,,,,,,,,,,,,,,,,,,,418.1788,1,audio/Narrative8Situation2.wav,421.1858,,421.1859,431.3023,"[[999,0],[999,83],[999,166],[999,250],[999,338],[999,420],[999,502],[999,583],[999,666],[999,749],[999,833],[999,916],[999,999],[999,1083],[999,1166],[999,1249],[50.8,1333],[52.1,1418],[53.4,1503],[54.4,1587],[55,1666],[57,1749],[58.5,1836],[58.6,1921],[58.8,1999],[59.1,2083],[59.9,2166],[59.9,2249],[59.9,2333],[59.9,2416],[59.9,2499],[59.9,2583],[59.8,2666],[59.7,2749],[59.6,2833],[59.4,2920],[59.2,2999],[59.2,3083],[59.2,3166],[59.2,3249],[59.2,3333],[59.2,3416],[59.2,3499],[59.2,3582],[59.1,3666],[58.5,3749],[58.3,3833],[58.2,3916],[58.2,3999],[58.2,4083],[58.2,4166],[58.2,4249],[58,4333],[58,4416],[58,4499],[58,4583],[58,4666],[58,4749],[58,4833],[58,4916],[58,4999],[58,5083],[58,5166],[58,5249],[58,5332],[58,5416],[57.7,5499],[57.6,5583],[57.1,5666],[57.1,5749],[57.1,5833],[57.1,5916],[57,5999],[56.2,6083],[55.5,6166],[55.4,6249],[55.4,6333],[54.8,6421],[54.8,6499],[54.8,6583],[53.7,6670],[52.8,6749],[51.9,6832],[51,6916],[49.2,7003],[45.9,7085],[44.2,7170],[43.3,7249],[42.8,7333],[41.6,7416],[41.6,7500],[41.5,7583],[40.3,7670],[39.2,7753],[39,7833],[39,7916],[39,7999],[38.7,8083],[36.7,8166],[35.1,8253],[33.1,8333],[30.9,8420],[30.9,8499],[30.9,8583],[30.9,8666],[30.9,8750],[30.9,8833],[30.9,8916],[30.9,8999],[30.9,9082],[30.9,9166],[29.1,9253],[28.4,9332],[26.9,9420],[22.4,9499],[18.7,9586],[17.3,9666],[17.3,9749],[17.3,9832],[17.3,9916],[16.7,10003],[16.6,10082]]",431.3024,433.6939,6.00468257,1.5361,"[{""rating"":6.707669606001226,""responseTime"":0.9444000000953565},{""rating"":6.004682569574976,""responseTime"":1.5361000001430511}]",space,1.8736,,433.6939,Definitely yes,100,433.6946,,,[],,0,11,11,11,1,audio/Narrative8Situation2.wav,audio/Narrative7Situation2.wav,audio/Narrative6Situation2.wav,audio/Narrative5Situation2.wav,3,3,3,3,,,,,,,,,,,,,,,,,,,,,,,,,,,,,,,,,,,,,,,
,,,,,63ecff07b619306f41db42fa,2025-07-07_21h11.16.586,group3.4_multiperson,2023.2.2,Win32,120.4819277,686c2ebf0248f13bef9af11f,686c9a547792b7ed80aa4f9c,,,,,,,,,,,,,,,,,,,,,,,,,,,,,433.6948,1,audio/Narrative8Situation3.wav,437.7023,,437.7023,460.0684,"[[999,0],[999,83],[999,166],[999,249],[999,333],[999,420],[999,503],[999,586],[999,666],[999,749],[999,833],[999,916],[999,1003],[999,1083],[999,1166],[999,1249],[26.1,1333],[26,1416],[26,1499],[26,1583],[25.9,1666],[25.6,1749],[24.8,1833],[23.4,1920],[23.2,1999],[21.9,2087],[20.7,2171],[19.6,2249],[19.6,2334],[19.6,2416],[19.6,2499],[19.6,2583],[19.6,2666],[19.8,2749],[21.8,2836],[27.6,2920],[32.3,2999],[38,3086],[45.9,3170],[48,3249],[53.3,3333],[57.2,3416],[58.9,3503],[58.9,3583],[58.9,3666],[58.9,3749],[58.9,3833],[58.9,3916],[58.9,4000],[58.9,4083],[59.4,4170],[59.7,4253],[59.7,4333],[59.7,4416],[59.7,4499],[59.7,4583],[59.7,4666],[59.7,4749],[59.7,4833],[59.7,4916],[60.5,5004],[61.8,5085],[63.1,5170],[64.1,5249],[64.1,5333],[64.1,5416],[66,5503],[67.3,5586],[68.1,5666],[68.1,5749],[68.1,5833],[68.1,5916],[68.1,6000],[68.1,6082],[68.7,6166],[69.7,6249],[69.7,6333],[69.7,6416],[69.7,6499],[69.7,6582],[69.7,6666],[69.7,6749],[69.7,6833],[69.7,6916],[69.7,6999],[69.7,7082],[69.7,7166],[69.7,7249],[69.6,7333],[69.5,7418],[69.4,7499],[69.4,7583],[69.4,7666],[69.4,7749],[69.4,7833],[69.4,7916],[69.4,7999],[69.4,8082],[69.4,8166],[69.4,8249],[69.4,8333],[69.4,8416],[69.4,8499],[69.4,8582],[69.4,8666],[69.4,8749],[69.4,8832],[69.4,8916],[69.2,8999],[69.1,9082],[69.1,9166],[69.1,9249],[70.8,9336],[72.6,9416],[73.6,9499],[74.3,9582],[75.2,9666],[75.2,9749],[75.2,9833],[76,9916],[76,9999],[76,10083],[76,10166],[76,10249],[77.2,10336],[78.3,10416],[78.3,10499],[78.3,10582],[78.3,10666],[78,10749],[77.6,10832],[77.4,10916],[77.4,11000],[77.4,11083],[77.4,11166],[77.4,11249],[77.4,11333],[77.5,11416],[77.6,11499],[77.6,11583],[77.6,11666],[77.6,11749],[77.6,11832],[77.6,11920],[77.6,11999],[77.6,12082],[77.6,12166],[78,12253],[78.1,12332],[78.2,12416],[78.5,12499],[78.5,12582],[78.5,12666],[78.5,12749],[78.5,12832],[78.5,12916],[78.5,12999],[78.5,13083],[78.5,13166],[78.5,13249],[78.5,13332],[78.5,13416],[78.5,13500],[78.5,13582],[78.5,13666],[78.5,13749],[78.5,13832],[78.4,13920],[78.4,13999],[78.4,14082],[78.4,14166],[78.4,14253],[78.4,14332],[78.4,14416],[78.4,14499],[78.3,14582],[78.3,14666],[78.3,14749],[77.9,14832],[77.6,14916],[77.6,14999],[77.6,15082],[77.8,15170],[78,15249],[78,15332],[78,15416],[78,15499],[78,15582],[78,15666],[78,15750],[78,15832],[78,15916],[78,15999],[78,16083],[78,16166],[77.9,16253],[77.9,16333],[77.8,16416],[77.2,16499],[76.9,16582],[76.9,16666],[76.9,16749],[76.9,16832],[76.9,16916],[76.9,16999],[76.9,17082],[76.9,17166],[76.9,17249],[76.9,17332],[76.9,17416],[76.9,17499],[76.9,17582],[76.9,17666],[76.9,17749],[76.9,17833],[76.9,17916],[76.9,17999],[76.9,18082],[76.9,18166],[76.9,18249],[76.9,18332],[76.9,18416],[76.9,18499],[76.9,18582],[76.9,18666],[76.9,18749],[76.9,18832],[76.9,18916],[76.9,18999],[76.9,19082],[76.9,19166],[76.9,19249],[76.9,19333],[76.9,19416],[76.9,19503],[76.9,19582],[76.9,19665],[76.9,19749],[76.9,19832],[76.9,19920],[76.9,19999],[76.9,20082],[76.9,20166],[77.2,20249],[78.3,20332],[78.6,20416],[78.7,20499],[79.4,20586],[79.4,20666],[79.4,20749],[79.4,20832],[79.4,20916],[79.4,20999],[79.4,21082],[79.4,21166],[79.4,21249],[79.4,21333],[79.4,21416],[79.4,21499],[79.4,21582],[79.4,21666],[79.4,21749],[79.4,21832],[79.7,21916],[79.7,21999],[80.4,22082],[81.1,22166],[81.5,22253],[81.9,22332]]",460.0686,462.3185,79.81839231,1.6975,"[{""rating"":82.00546494399896,""responseTime"":0.6194999999999595},{""rating"":78.95917805262853,""responseTime"":1.2892000000476855},{""rating"":79.81839231000174,""responseTime"":1.697499999999991}]",space,1.7225,,462.3185,Not at all,0,462.3196,,,[],,0,12,12,12,1,audio/Narrative8Situation3.wav,audio/Narrative7Situation3.wav,audio/Narrative6Situation3.wav,audio/Narrative5Situation3.wav,4,8,5,3,,,,,,,,,,,,,,,,,,,,,,,,,,,,,,,,,,,,,,,
,,,,,63ecff07b619306f41db42fa,2025-07-07_21h11.16.586,group3.4_multiperson,2023.2.2,Win32,120.4819277,686c2ebf0248f13bef9af11f,686c9a547792b7ed80aa4f9c,,,,,,,,,,,,,,,,,,,,,,,,,,,,,462.3197,1,audio/Narrative8Situation4.wav,465.3268,,465.3268,479.5016,"[[999,0],[999,83],[999,170],[999,249],[999,333],[999,420],[999,499],[999,586],[999,666],[999,750],[999,833],[999,916],[999,999],[999,1083],[999,1166],[999,1254],[999,1333],[999,1416],[999,1499],[999,1585],[999,1666],[999,1749],[999,1836],[999,1916],[49.8,1999],[49.5,2086],[49.7,2166],[49.7,2249],[49.7,2333],[49.7,2416],[49.8,2499],[51.6,2586],[52.6,2666],[56,2753],[56.4,2833],[56.5,2916],[56.9,2999],[57.5,3083],[58.8,3166],[62.3,3253],[68.7,3336],[72.8,3416],[77.9,3503],[81.1,3583],[81.7,3666],[81.7,3749],[81.7,3833],[81.8,3916],[81.9,3999],[82,4082],[82.2,4166],[82.2,4249],[82.2,4333],[82.2,4416],[82.2,4499],[82.1,4582],[82,4666],[81.6,4749],[81.5,4833],[81.4,4916],[81.4,4999],[81.4,5083],[81.4,5166],[81.3,5249],[81.3,5333],[81.3,5416],[81.3,5499],[81.3,5583],[81.3,5666],[81.3,5749],[81.3,5832],[81.3,5916],[81.3,5999],[81.3,6083],[81.3,6166],[81.3,6250],[81.3,6333],[81.9,6416],[82.8,6503],[84.3,6586],[86.5,6670],[86.9,6749],[87.5,6833],[88.4,6916],[88.8,6999],[89.4,7082],[89.8,7171],[90.1,7249],[90.1,7333],[90.1,7416],[90.8,7499],[90.8,7582],[90.8,7670],[90.8,7750],[91.4,7832],[92,7916],[92,7999],[92,8083],[92.3,8170],[92.4,8249],[92.5,8332],[92.5,8416],[92.5,8499],[92.5,8582],[92.5,8666],[92.5,8749],[92.5,8832],[92.5,8916],[92.5,8999],[92.5,9083],[92.5,9166],[92.5,9249],[92.5,9332],[92.5,9416],[92.5,9499],[92.5,9582],[92.5,9666],[92.5,9749],[92.5,9832],[92.5,9916],[92.5,9999],[92.5,10082],[92.5,10166],[92.4,10253],[92.4,10333],[92.4,10416],[92.4,10499],[92.4,10582],[92.4,10666],[92.4,10749],[92.3,10832],[92.3,10916],[92.3,10999],[92.3,11083],[92.3,11166],[92.3,11250],[92.3,11332],[92.3,11416],[92.3,11500],[92.3,11582],[92.3,11666],[92.3,11749],[92.3,11832],[92.3,11916],[92.3,11999],[92.3,12082],[92.3,12166],[92.3,12249],[92.2,12332],[92,12416],[92,12499],[92,12583],[92,12669],[92,12749],[92,12833],[91.8,12916],[91.8,12999],[91.8,13083],[91.6,13166],[91.6,13249],[91.6,13332],[91.6,13416],[91.5,13499],[91.5,13582],[91.4,13666],[91.2,13749],[91,13832],[90.9,13916],[90.9,13999],[90.9,14082],[90.9,14166]]",479.5016,481.51,93.09704282,1.0992,"[{""rating"":93.09704282040212,""responseTime"":1.0992000000476878}]",space,1.4918,,481.5101,Not at all,0,481.5111,,,[],,0,13,13,13,1,audio/Narrative8Situation4.wav,audio/Narrative7Situation4.wav,audio/Narrative6Situation4.wav,audio/Narrative5Situation4.wav,3,3,2,1,,,,,,,,,,,,,,,,,,,,,,,,,,,,,,,,,,,,,,,
,,,,,63ecff07b619306f41db42fa,2025-07-07_21h11.16.586,group3.4_multiperson,2023.2.2,Win32,120.4819277,686c2ebf0248f13bef9af11f,686c9a547792b7ed80aa4f9c,,,,,,,,,,,,,,,,,,,,,,,,,,,,,481.5112,1,audio/Narrative8Situation5.wav,483.518,,483.5181,491.743,"[[69.8,670],[70.6,749],[70.8,833],[70.8,916],[70.8,999],[69.4,1087],[67.6,1166],[66.5,1249],[65.5,1333],[64.1,1416],[63.2,1500],[63.2,1583],[63.2,1666],[63.2,1750],[66.4,1833],[74.8,1916],[78,1999],[79.6,2083],[85.1,2166],[86.1,2249],[88.3,2336],[89.9,2416],[90,2499],[90,2583],[90,2666],[90,2750],[90,2834],[90.5,2916],[90.6,2999],[90.6,3083],[90.6,3166],[90.6,3249],[90.6,3333],[90.6,3416],[90.7,3499],[91.9,3587],[92.4,3666],[92.4,3750],[92.4,3833],[92.4,3916],[92.4,3999],[92.4,4083],[92.4,4166],[92.4,4249],[92.4,4333],[92.4,4420],[92.2,4503],[92.2,4583],[92.2,4666],[92.2,4749],[92.1,4833],[91.2,4916],[90.9,4999],[90.9,5083],[90.9,5166],[90.9,5249],[90.9,5333],[90.9,5416],[90.9,5499],[90.9,5583],[90.9,5666],[90.9,5749],[90.9,5833],[90.9,5916],[90.9,5999],[90.9,6083],[90.9,6166],[90.9,6249],[90.9,6333],[90.9,6416],[90.9,6499],[90.9,6583],[90.9,6666],[90.9,6749],[90.9,6833],[90.9,6916],[90.9,6999],[90.9,7083],[90.9,7166],[90.9,7250],[90.8,7333],[90.8,7416],[90.8,7503],[90.8,7583],[90.8,7666],[90.8,7749],[90.8,7833],[90.8,7916],[90.8,7999],[90.8,8083],[90.8,8166]]",491.743,500.3177,90.75375548,6.8057,"[{""rating"":86.77015532105581,""responseTime"":6.286600000143039},{""rating"":90.75375547998792,""responseTime"":6.805700000047693}]",space,8.0398,,500.3177,Definitely yes,100,500.319,,,[],,0,14,14,14,1,audio/Narrative8Situation5.wav,audio/Narrative7Situation5.wav,audio/Narrative6Situation5.wav,audio/Narrative5Situation5.wav,2,5,2,5,,,,,,,,,,,,,,,,,,,,,,,,,,,,,,,,,,,,,,,
,,,,,63ecff07b619306f41db42fa,2025-07-07_21h11.16.586,group3.4_multiperson,2023.2.2,Win32,120.4819277,686c2ebf0248f13bef9af11f,686c9a547792b7ed80aa4f9c,,,,,,,,,,,,,,,,,,,,,,,,,,,,,500.3191,1,audio/Narrative8Situation6.wav,502.3265,,502.3265,508.7842,"[[999,0],[999,91],[999,174],[999,258],[999,341],[999,424],[999,507],[999,591],[999,674],[999,757],[999,841],[999,924],[999,1007],[999,1091],[999,1174],[64.3,1257],[67.3,1341],[67.7,1424],[68,1507],[70.6,1591],[75.6,1674],[80.5,1757],[83,1840],[85.3,1924],[85.5,2007],[86,2091],[87.6,2174],[88,2257],[88,2341],[88,2424],[88,2507],[88,2591],[88,2674],[88,2758],[88,2841],[88,2924],[88.6,3007],[89.1,3091],[89.1,3174],[89.1,3257],[89.1,3340],[89.1,3424],[89.1,3508],[89.1,3591],[89.1,3674],[89.1,3757],[89.1,3840],[89.1,3924],[89.1,4007],[89.1,4090],[89.1,4174],[89.1,4258],[89.1,4341],[89.1,4424],[89.1,4507],[89.1,4591],[89.1,4674],[89.1,4757],[89.2,4841],[89.2,4924],[89.2,5008],[89.2,5091],[89.2,5174],[89.2,5257],[89.2,5340],[89.2,5424],[89.2,5508],[89.2,5591],[89.2,5674],[89.2,5757],[89.2,5840],[89,5924],[89,6007],[89,6091],[89,6174],[89,6257],[89,6340],[89,6424]]",508.7842,510.9008,92.94082811,0.8024,"[{""rating"":92.94082811398516,""responseTime"":0.8023999998570162}]",space,1.5907,,510.9009,Not at all,0,510.9018,,,[],,0,15,15,15,1,audio/Narrative8Situation6.wav,audio/Narrative7Situation6.wav,audio/Narrative6Situation6.wav,audio/Narrative5Situation6.wav,2,3,2,3,,,,,,,,,,,,,,,,,,,,,,,,,,,,,,,,,,,,,,,
,,,,,63ecff07b619306f41db42fa,2025-07-07_21h11.16.586,group3.4_multiperson,2023.2.2,Win32,120.4819277,686c2ebf0248f13bef9af11f,686c9a547792b7ed80aa4f9c,,,,,,,,,,,,,,,,,,,,,,,,,,,,,510.9019,1,audio/Narrative8Situation7.wav,513.909,,513.9091,525.9877,"[[83.8,583],[83.7,667],[82.3,749],[81.1,833],[81,916],[81,999],[81,1083],[79.8,1166],[78,1249],[72.4,1337],[70.9,1420],[64.4,1499],[61.6,1583],[58.7,1666],[56,1749],[51.4,1833],[50.5,1916],[50.5,1999],[50.5,2083],[50.5,2166],[50.7,2250],[50.8,2333],[50.8,2416],[50.8,2499],[52.9,2583],[64.5,2670],[73,2753],[74.3,2833],[74.3,2916],[74.3,2999],[74.3,3086],[74.3,3166],[74.3,3249],[74.9,3333],[75.9,3416],[76.6,3499],[76.6,3583],[76.6,3666],[76.6,3749],[76.6,3833],[76.5,3916],[75.5,3999],[74.8,4083],[74.8,4166],[74.8,4249],[75.2,4333],[75.6,4420],[75.9,4500],[75.9,4583],[75.9,4666],[75.9,4750],[75.9,4833],[75.9,4916],[75.9,4999],[75.9,5083],[75.9,5166],[75.9,5250],[75.9,5333],[75.9,5416],[75.9,5500],[75.9,5583],[75.9,5666],[75.9,5749],[75.9,5833],[75.9,5916],[75.9,5999],[75.9,6087],[75.9,6166],[75.9,6249],[75.9,6333],[75.9,6416],[75.9,6500],[75.9,6583],[75.9,6666],[75.3,6753],[75.2,6833],[75.2,6916],[75.2,7000],[75.2,7083],[75.2,7166],[75.2,7249],[75.2,7333],[75.2,7416],[75.2,7499],[75.2,7583],[75.2,7667],[75.2,7749],[75.2,7833],[75.2,7916],[75.2,7999],[75.2,8083],[75.2,8166],[75.2,8249],[75.2,8333],[75.2,8416],[75.2,8499],[75.2,8583],[75.4,8666],[76,8749],[78.3,8833],[80.8,8916],[83.3,9003],[85.5,9086],[86.5,9166],[87.3,9249],[87.3,9333],[87.3,9416],[87.3,9499],[87.3,9583],[87.3,9666],[86.5,9749],[85.7,9833],[85.4,9916],[85.1,9999],[85.1,10082],[85.1,10166],[85.1,10249],[86,10333],[86.9,10416],[87.6,10499],[87.7,10583],[88.4,10666],[88.5,10749],[89.1,10833],[89.1,10916],[89.1,10999],[89.2,11083],[89.3,11166],[89.3,11249],[89.3,11333],[89.3,11416],[89.2,11500],[89.1,11583],[89.1,11666],[89.1,11749],[89.1,11833],[89.1,11916],[89.1,11999]]",525.9878,527.8423,94.42491788,0.8872,"[{""rating"":94.42491788306614,""responseTime"":0.8871999998092406}]",space,1.3353,,527.8423,Partially,50,527.8433,,,[],,0,16,16,16,1,audio/Narrative8Situation7.wav,audio/Narrative7Situation7.wav,audio/Narrative6Situation7.wav,audio/Narrative5Situation7.wav,3,5,5,4,,,,,,,,,,,,,,,,,,,,,,,,,,,,,,,,,,,,,,,
,,,,,63ecff07b619306f41db42fa,2025-07-07_21h11.16.586,group3.4_multiperson,2023.2.2,Win32,120.4819277,686c2ebf0248f13bef9af11f,686c9a547792b7ed80aa4f9c,,,,,,,,,,,,,,,,,,,,,,,,,,,,,527.8434,1,audio/Narrative8Situation8.wav,530.8505,,530.8505,543.7003,"[[999,0],[999,87],[999,166],[999,250],[999,333],[999,416],[999,499],[999,583],[999,666],[999,750],[999,836],[999,916],[999,999],[999,1083],[999,1166],[999,1250],[999,1333],[999,1416],[999,1503],[999,1583],[52.2,1666],[53.3,1749],[55.3,1836],[59.4,1920],[64.1,2003],[64.4,2083],[68,2170],[69.5,2249],[71.2,2337],[73.9,2416],[74.7,2500],[78.7,2583],[78.7,2666],[78.9,2753],[80.7,2833],[82.6,2916],[82.6,2999],[82.6,3083],[82.6,3166],[82.6,3249],[82.6,3333],[82.6,3416],[82.6,3499],[82.6,3583],[82.6,3666],[82.6,3749],[83.7,3833],[84.3,3920],[84.3,3999],[84.3,4083],[84.3,4166],[84.3,4249],[83.3,4332],[82.4,4416],[82.4,4499],[82.4,4583],[82.4,4666],[82.4,4750],[82.4,4833],[82.4,4916],[82.4,5000],[82.4,5083],[82.4,5166],[82.4,5250],[82.4,5333],[82.4,5416],[82.4,5499],[82.4,5583],[82.4,5666],[82.4,5749],[82.4,5833],[82.4,5916],[82.4,5999],[82.4,6083],[82.4,6166],[82.4,6249],[82.6,6333],[83.2,6416],[83.3,6500],[84.2,6583],[84.6,6666],[84.6,6749],[84.6,6833],[84.6,6916],[84.6,7000],[84.6,7083],[84.6,7166],[84.6,7249],[84.6,7333],[84.6,7416],[84.6,7499],[84.6,7583],[84.6,7666],[84.6,7749],[84.6,7833],[84.6,7916],[84.6,7999],[84.6,8083],[84.6,8166],[84.6,8249],[84.6,8333],[84.6,8416],[84.6,8499],[84.5,8583],[84.4,8670],[84.4,8749],[84.4,8833],[84.2,8916],[84.2,8999],[84.2,9083],[84.2,9166],[84.2,9249],[84.2,9333],[84.2,9416],[84.2,9499],[84.2,9583],[84.2,9666],[84.2,9749],[84.2,9833],[84.2,9916],[84.2,9999],[84.2,10083],[84.2,10166],[84.2,10249],[84.2,10332],[84.2,10416],[84.3,10499],[88.1,10583],[89.8,10666],[91.4,10753],[93.6,10832],[94.6,10916],[95.1,10999],[96,11087],[96.2,11166],[96.6,11249],[97.4,11333],[97.5,11416],[97.5,11499],[97.5,11583],[97.5,11666],[97.5,11749],[97.5,11833],[97.5,11916],[97.4,11999],[97.4,12083],[97.3,12166],[97.3,12250],[97.3,12332],[97.2,12416],[97.2,12499],[97.6,12582],[98.6,12670],[99,12749],[99.1,12833]]",543.7003,545.7335,100,0.8625,"[{""rating"":100,""responseTime"":0.8624999999999545}]",space,1.5143,,545.7336,Definitely yes,100,545.7347,,,[],,0,17,17,17,1,audio/Narrative8Situation8.wav,audio/Narrative7Situation8.wav,audio/Narrative6Situation8.wav,audio/Narrative5Situation8.wav,3,2,5,3,,,,,,,,,,,,,,,,,,,,,,,,,,,,,,,,,,,,,,,
,,,,,63ecff07b619306f41db42fa,2025-07-07_21h11.16.586,group3.4_multiperson,2023.2.2,Win32,120.4819277,686c2ebf0248f13bef9af11f,686c9a547792b7ed80aa4f9c,,,,,,,,,,,,,,,,,,,,,,,,,,,,,545.7348,1,audio/Narrative8Situation9.wav,548.7422,,548.7423,560.0499,"[[999,0],[999,82],[999,166],[999,249],[999,332],[999,416],[999,499],[999,586],[999,666],[999,753],[999,832],[999,916],[999,999],[999,1082],[999,1166],[999,1249],[999,1332],[999,1416],[999,1503],[999,1582],[999,1666],[999,1749],[999,1836],[999,1916],[999,1999],[999,2082],[999,2166],[999,2249],[999,2336],[999,2416],[61.9,2499],[63,2582],[63.9,2670],[69.5,2753],[72.5,2832],[74.6,2920],[78.3,3003],[80.5,3086],[81.2,3166],[85.7,3253],[86.9,3332],[87.7,3419],[90,3499],[92,3582],[92.4,3666],[93,3749],[94.3,3832],[95.1,3916],[95.1,3999],[95.1,4082],[95.1,4166],[95.4,4249],[95.4,4332],[95.4,4416],[95.6,4499],[96.6,4582],[97.6,4666],[97.8,4749],[98.1,4832],[99,4916],[99,4999],[98.8,5086],[97.9,5166],[97.9,5249],[97.9,5332],[97.9,5416],[97.9,5499],[97.9,5582],[97.9,5666],[97.9,5749],[97.9,5832],[97.9,5916],[97.9,5999],[97.9,6083],[97.8,6166],[97.7,6249],[97.7,6333],[97.7,6416],[97.6,6499],[97.6,6582],[97.6,6666],[97.5,6749],[97.5,6832],[97.3,6916],[97.3,6999],[97.3,7082],[97.2,7165],[97.2,7249],[97.2,7332],[97,7416],[97,7499],[97,7582],[97,7666],[97,7749],[97,7832],[96.8,7916],[96.3,7999],[95.9,8082],[95.9,8165],[94.6,8249],[93.3,8336],[93.2,8416],[93.2,8499],[93,8582],[92.5,8670],[91.9,8749],[91.2,8836],[91.2,8916],[91.2,8999],[91.2,9082],[91.2,9165],[91.1,9249],[90.7,9332],[89.6,9415],[89.5,9499],[89.5,9582],[89.5,9666],[89.5,9749],[89.8,9832],[89.8,9916],[89.8,9999],[89.8,10082],[89.8,10166],[89.8,10249],[90.1,10336],[90.3,10415],[90.3,10499],[90.3,10582],[90.3,10666],[90.3,10749],[90.3,10832],[90.3,10916],[90.3,10999],[90.3,11082],[90.3,11166],[90.3,11249]]",560.0499,562.7248,90.28509467,0.4971,"[{""rating"":90.28509467469705,""responseTime"":0.4970999999046626}]",space,2.1503,,562.7248,Not at all,0,562.7259,,,[],,0,18,18,18,1,audio/Narrative8Situation9.wav,audio/Narrative7Situation9.wav,audio/Narrative6Situation9.wav,audio/Narrative5Situation9.wav,3,2,4,3,,,,,,,,,,,,,,,,,,,,,,,,,,,,,,,,,,,,,,,
,,,,,63ecff07b619306f41db42fa,2025-07-07_21h11.16.586,group3.4_multiperson,2023.2.2,Win32,120.4819277,686c2ebf0248f13bef9af11f,686c9a547792b7ed80aa4f9c,,,,,,,,,,,,,,,,,,,,,,,,,,,576.5914,579.1667,579.1767,2,audio/Narrative13Situation2.wav,579.1767,,579.1768,608.9157,"[[999,0],[999,72],[999,156],[999,239],[999,322],[999,406],[999,489],[999,572],[999,656],[999,739],[999,823],[999,906],[999,989],[999,1072],[999,1156],[999,1239],[999,1322],[999,1405],[999,1489],[999,1573],[999,1659],[999,1739],[999,1822],[999,1906],[999,1989],[999,2076],[999,2155],[999,2239],[999,2326],[999,2409],[999,2493],[999,2572],[999,2656],[999,2739],[999,2822],[999,2906],[999,2989],[999,3072],[999,3156],[999,3239],[999,3326],[999,3408],[999,3489],[999,3572],[999,3655],[999,3743],[999,3826],[999,3905],[999,3989],[999,4072],[999,4159],[999,4243],[999,4322],[999,4409],[999,4489],[999,4572],[45.6,4656],[47,4743],[48,4826],[48.2,4905],[48.7,4989],[48.7,5072],[48.7,5156],[48.7,5239],[48.7,5322],[48.7,5406],[48.7,5489],[48.7,5572],[48.7,5655],[49.4,5743],[49.4,5822],[49.4,5906],[49.4,5989],[49.4,6072],[49.4,6155],[49.4,6239],[49.4,6322],[49.4,6405],[49.4,6489],[49.4,6572],[49.4,6655],[49.4,6739],[49.4,6822],[49.4,6906],[49.4,6989],[49.4,7076],[49.4,7155],[49.4,7239],[49.4,7322],[49.4,7406],[49.4,7489],[49.4,7572],[49.4,7656],[49.4,7739],[49.4,7822],[50.3,7909],[51,7989],[54.1,8076],[56.9,8159],[57.5,8239],[58.7,8322],[59.8,8405],[60.6,8489],[61.2,8576],[61.3,8659],[61.3,8739],[62.4,8826],[62.7,8905],[64.4,8989],[64.4,9072],[64.4,9156],[64.4,9239],[64.4,9322],[64.4,9406],[64.4,9489],[64.4,9572],[64.4,9656],[64.4,9739],[64.4,9822],[64.1,9909],[63.3,9989],[62.8,10076],[62.6,10155],[62.6,10239],[62.6,10322],[62.3,10405],[61.9,10489],[61.9,10572],[61.9,10656],[61.9,10739],[62.3,10822],[62.3,10905],[63.4,10989],[63.8,11076],[63.9,11156],[63.9,11239],[63.9,11322],[63.9,11405],[63.9,11489],[63.9,11572],[63.9,11656],[63.9,11739],[63.9,11822],[63.9,11906],[63.9,11989],[63.9,12072],[63.9,12156],[63.9,12239],[63.9,12322],[63.9,12405],[63.9,12489],[63.9,12572],[63.9,12655],[63.9,12739],[63.9,12822],[63.9,12905],[63.9,12989],[63.9,13072],[63.7,13155],[63.7,13239],[63.7,13322],[63.7,13405],[63.7,13489],[63.7,13572],[63.7,13656],[63.7,13739],[63.7,13822],[63.7,13905],[63.7,13989],[63.7,14072],[63.7,14155],[63.7,14239],[63.7,14322],[63.7,14405],[63.7,14488],[63.7,14572],[63.7,14659],[63.7,14739],[63.7,14822],[63.7,14906],[63.7,14989],[63.7,15072],[63.7,15156],[63.7,15239],[63.6,15322],[63.4,15406],[63.4,15489],[63.4,15572],[63.4,15656],[63.4,15739],[63.3,15822],[63,15905],[63,15989],[61.9,16072],[61.9,16156],[61.9,16239],[61.9,16322],[61.9,16406],[61.9,16488],[61.9,16572],[61.9,16656],[61.9,16739],[61.9,16822],[61.9,16906],[61.9,16989],[61.9,17072],[61.9,17156],[61.9,17238],[61.9,17322],[61.6,17405],[60.8,17488],[60.7,17572],[59.8,17659],[59.7,17738],[59.7,17822],[59.7,17905],[58.9,17988],[58.9,18072],[58.3,18155],[57.9,18238],[57.2,18322],[56.6,18409],[55.9,18492],[55.6,18572],[55.6,18655],[55.6,18738],[55.6,18822],[55.6,18905],[55.6,18989],[55.6,19072],[55.6,19155],[55.6,19238],[55.6,19322],[55.6,19405],[55.3,19489],[55,19572],[55,19655],[55,19738],[55,19822],[55,19905],[55,19989],[55,20072],[55,20155],[55,20238],[55,20322],[55,20405],[55,20488],[55,20572],[55,20655],[55,20738],[55.1,20822],[55.2,20906],[55.8,20988],[56.2,21072],[56.2,21156],[56.2,21238],[56.2,21322],[56.2,21405],[56.2,21488],[56.2,21572],[56.2,21655],[56.2,21739],[57.2,21822],[58,21909],[58.7,21988],[59.3,22072],[59.4,22155],[59.8,22239],[60.4,22322],[60.7,22405],[61.2,22488],[61.2,22572],[61.2,22655],[61.2,22738],[61.2,22825],[61.2,22905],[61.2,22988],[61.6,23072],[62,23159],[62.3,23239],[62.7,23326],[62.9,23405],[62.9,23488],[62.8,23572],[62.8,23655],[62.8,23738],[62.8,23822],[62.6,23905],[61.9,23988],[61.8,24072],[61.8,24155],[61.8,24238],[61.8,24322],[61.9,24409],[62.8,24488],[63.2,24572],[63.5,24655],[63.9,24738],[63.9,24822],[63.9,24905],[63.9,24988],[63.9,25072],[63.9,25155],[64.9,25242],[65.5,25322],[65.9,25405],[65.9,25489],[66.2,25576],[66.9,25655],[66.9,25738],[66.9,25822],[66.9,25905],[66.9,25988],[66.9,26072],[66.9,26155],[66.9,26238],[66.9,26322],[66.9,26405],[66.9,26488],[67,26572],[67.1,26659],[67.6,26738],[67.9,26822],[67.9,26905],[67.9,26988],[67.9,27072],[67.9,27155],[67.9,27238],[67.9,27322],[67.9,27405],[68.1,27492],[68.1,27572],[68.1,27655],[68.1,27738],[68.1,27823],[68.6,27905],[68.7,27988],[68.7,28072],[68.7,28155],[68.7,28238],[68.5,28326],[67.7,28405],[67.7,28488],[67.7,28572],[68.1,28655],[69.1,28738],[69.4,28822],[69.9,28905],[69.9,28988],[69.9,29072],[69.9,29155],[69.9,29238],[69.9,29322],[69.9,29405],[69.9,29488],[69.9,29572],[69.9,29655],[69.9,29738]]",608.9157,608.9166,,,[],,,,608.9166,Definitely yes,100,608.9175,,,[],,0,0,0,0,1,audio/Narrative13Situation2.wav,audio/Narrative13Situation2.wav,audio/Narrative13Situation2.wav,audio/Narrative13Situation2.wav,2,2,2,2,,,,,562.7261,576.5914,space,13.3496,,,,,,,,,,,,,,,,,,,,,,,,,,,,,,,
,,,,,63ecff07b619306f41db42fa,2025-07-07_21h11.16.586,group3.4_multiperson,2023.2.2,Win32,120.4819277,686c2ebf0248f13bef9af11f,686c9a547792b7ed80aa4f9c,,,,,,,,,,,,,,,,,,,,,,,,,,,,,608.9175,2,audio/Narrative5Situation1.wav,613.924,,613.924,627.1987,"[[999,0],[999,83],[999,166],[999,249],[999,333],[999,417],[999,499],[999,583],[999,666],[999,753],[999,833],[999,916],[999,1003],[999,1083],[999,1170],[999,1249],[999,1333],[999,1416],[999,1499],[999,1583],[999,1666],[999,1749],[999,1833],[999,1916],[999,2000],[999,2083],[999,2166],[999,2250],[999,2333],[999,2420],[999,2500],[999,2583],[999,2666],[999,2749],[999,2833],[999,2916],[999,3003],[999,3083],[999,3170],[999,3249],[999,3333],[999,3416],[999,3499],[999,3583],[999,3667],[999,3749],[999,3833],[999,3916],[999,3999],[999,4083],[999,4166],[999,4250],[999,4333],[999,4416],[999,4499],[999,4583],[999,4666],[999,4749],[999,4832],[999,4916],[999,4999],[999,5083],[999,5166],[999,5253],[999,5333],[999,5417],[999,5499],[999,5583],[49.8,5670],[49.8,5750],[49.8,5833],[50.8,5916],[52.6,5999],[53,6083],[53,6166],[53,6250],[53,6333],[53,6416],[53,6499],[52.7,6583],[52.7,6666],[52.6,6750],[52.5,6833],[52.5,6916],[52.5,6999],[52.5,7083],[52.5,7166],[53,7249],[53.9,7333],[54.2,7416],[54.2,7500],[54.2,7583],[54.2,7666],[53.7,7753],[53.1,7832],[52.1,7920],[51.7,7999],[51.6,8083],[51.3,8166],[51.1,8249],[50.5,8333],[50.5,8416],[50.5,8500],[50.5,8583],[50.5,8666],[50.5,8749],[50.5,8833],[50.4,8916],[50.4,8999],[50.4,9082],[50.4,9166],[50.5,9249],[51.6,9336],[53.3,9420],[53.8,9499],[53.8,9582],[53.8,9666],[53.8,9749],[53.8,9833],[53.8,9916],[53.8,9999],[53.8,10083],[53.8,10167],[53.8,10249],[53.9,10332],[54.4,10420],[55.1,10499],[55.6,10582],[56.2,10666],[57.1,10753],[57.4,10833],[58.7,10916],[59.4,10999],[59.6,11082],[60.1,11166],[61,11249],[62.3,11332],[62.3,11416],[62.3,11499],[62.3,11582],[62.3,11666],[62.3,11749],[62.3,11832],[62.3,11916],[62.3,11999],[62.3,12082],[62.2,12166],[62.1,12249],[62.1,12333],[62.1,12416],[62.1,12499],[62.1,12582],[62.4,12669],[62.4,12749],[62.5,12832],[62.9,12916],[63.7,12999],[64.4,13082],[64.5,13166],[64.7,13249]]",627.1987,630.0902,72.5541832,1.4862,"[{""rating"":72.55418320007378,""responseTime"":1.4862000000476883}]",space,2.3687,,630.0903,Definitely yes,100,630.0909,,,[],,0,1,1,1,1,audio/Narrative7Situation1.wav,audio/Narrative8Situation1.wav,audio/Narrative5Situation1.wav,audio/Narrative6Situation1.wav,2,5,5,2,,,,,,,,,,,,,,,,,,,,,,,,,,,,,,,,,,,,,,,
,,,,,63ecff07b619306f41db42fa,2025-07-07_21h11.16.586,group3.4_multiperson,2023.2.2,Win32,120.4819277,686c2ebf0248f13bef9af11f,686c9a547792b7ed80aa4f9c,,,,,,,,,,,,,,,,,,,,,,,,,,,,,630.0909,2,audio/Narrative5Situation2.wav,633.0984,,633.0984,662.548,"[[999,0],[999,83],[999,166],[999,250],[50.4,416],[50.5,500],[50.5,583],[50.5,666],[52.7,750],[53,833],[53,916],[53,1000],[53,1083],[53,1166],[52.9,1254],[52.5,1333],[52.3,1416],[52,1504],[51.7,1583],[51.4,1666],[51.4,1750],[51.4,1833],[51.4,1916],[51.5,2000],[52.6,2088],[55.5,2166],[55.6,2250],[55.8,2333],[57.6,2420],[59.3,2503],[59.4,2583],[59.4,2666],[59.4,2754],[59.3,2833],[59.2,2917],[59.1,3004],[59.1,3083],[59.1,3166],[58.6,3250],[57.4,3337],[56.9,3416],[56.9,3500],[57.3,3583],[57.6,3666],[57.6,3750],[57.6,3833],[57.9,3916],[58.3,4000],[58.3,4083],[58.3,4166],[58.3,4250],[58.3,4333],[58.7,4416],[58.9,4499],[59,4583],[59,4666],[59,4750],[59.1,4833],[59.1,4916],[59.1,5000],[59.1,5083],[59.3,5166],[59.3,5249],[59.4,5333],[59.5,5416],[59.5,5500],[59.5,5586],[59.5,5666],[59.5,5750],[59.5,5833],[59.5,5916],[59.5,6000],[59.5,6083],[59.5,6166],[59.5,6250],[59.5,6333],[59.5,6416],[59.5,6500],[59.5,6583],[59.5,6666],[59.5,6750],[59.5,6833],[59.5,6916],[59.5,7000],[59.5,7083],[59.5,7166],[59.5,7250],[59.5,7333],[59.9,7416],[61,7500],[61.4,7587],[62.5,7666],[63.3,7753],[63.3,7833],[63.3,7916],[63.3,8000],[63.5,8086],[63.6,8166],[64.1,8250],[64.1,8333],[64.7,8416],[64.9,8500],[66.4,8583],[66.7,8666],[66.9,8750],[67.3,8833],[67.3,8916],[67.3,8999],[67.3,9083],[67.3,9166],[67.3,9250],[67.3,9333],[67.3,9416],[67.3,9500],[67.3,9583],[67.2,9666],[66.9,9749],[66.6,9833],[66.6,9916],[66.6,10000],[66.6,10083],[66.6,10166],[66.6,10250],[66.6,10333],[66.6,10416],[66.6,10500],[66.6,10583],[66.6,10666],[66.7,10749],[66.7,10833],[66.7,10916],[66.7,11000],[66.7,11083],[67.4,11171],[67.6,11249],[67.6,11333],[67.6,11416],[67.6,11499],[67.6,11583],[67.6,11667],[67.6,11749],[67.6,11833],[67.6,11916],[67.6,11999],[67.6,12083],[67.6,12166],[67.6,12250],[67.6,12333],[67.6,12416],[67.6,12500],[67.6,12583],[67.6,12666],[67.6,12749],[67.6,12833],[67.6,12916],[67.6,12999],[67.6,13083],[67.6,13166],[67.6,13249],[67.6,13333],[67.6,13416],[67.9,13502],[70.4,13587],[73.8,13666],[76.7,13753],[77.6,13833],[80.5,13916],[80.8,13999],[80.8,14083],[80.8,14166],[81.3,14249],[81.6,14333],[81.6,14416],[81.6,14499],[83.3,14588],[84.3,14666],[85.7,14752],[86.5,14833],[87,14916],[87.6,15003],[88.3,15083],[89,15166],[89,15249],[89.3,15336],[89.7,15416],[89.9,15499],[90.4,15583],[91.2,15671],[91.2,15749],[91.2,15833],[91.4,15916],[91.5,15999],[91.6,16083],[92.1,16166],[92.8,16249],[93.5,16333],[94,16416],[94.5,16499],[95.1,16583],[96.4,16670],[96.7,16749],[96.7,16833],[96.8,16916],[97,16999],[97.1,17086],[97.1,17166],[97.3,17253],[97.6,17333],[97.6,17416],[97.5,17499],[97.2,17583],[97.2,17666],[97.1,17753],[97.1,17833],[97.1,17916],[97.1,17999],[97.1,18083],[97.1,18166],[97.1,18249],[97.1,18333],[97.1,18416],[97,18499],[96.9,18583],[96.9,18667],[96.5,18749],[96.5,18833],[96.4,18916],[96.4,18999],[96.4,19083],[96.3,19166],[96.2,19249],[96.2,19333],[96.2,19416],[96.2,19499],[96.1,19583],[96.1,19666],[96.1,19749],[96.1,19832],[95.9,19916],[95.7,19999],[95.7,20083],[95.7,20166],[95.7,20249],[95.7,20332],[95.4,20418],[95.3,20499],[95.3,20582],[95.1,20666],[95.1,20750],[95.1,20833],[95.1,20916],[95.1,20999],[95.1,21082],[95.1,21166],[95.1,21249],[95.1,21333],[95.1,21416],[95.1,21499],[95.1,21583],[95.1,21666],[95.1,21749],[95.1,21833],[95.1,21916],[94.9,21999],[94.9,22082],[94.9,22170],[94.9,22249],[94.8,22333],[94.8,22416],[94.8,22499],[94.8,22583],[94.8,22666],[94.8,22749],[94.8,22833],[94.4,22916],[94.3,22999],[94.1,23082],[93.4,23170],[92.6,23249],[92.5,23332],[92.5,23416],[92.5,23499],[93.4,23586],[94.5,23666],[94.5,23749],[93.7,23836],[92,23916],[91.3,23999],[90.5,24082],[90.3,24170],[90.2,24249],[89.4,24333],[88.4,24420],[88,24499],[87.7,24583],[87.3,24670],[86.9,24749],[85.8,24835],[85.1,24916],[84.9,25003],[84.9,25083],[84.9,25166],[84.9,25249],[84.9,25333],[84.9,25416],[84.9,25499],[84.9,25583],[84.9,25670],[84.9,25749],[84.9,25833],[84.9,25916],[85,25999],[85.1,26082],[85.1,26166],[85.1,26249],[85.1,26332],[85.1,26416],[85.5,26499],[86,26583],[86,26666],[86,26749],[86,26832],[86,26916],[86,26999],[86,27083],[86,27166],[86,27249],[86,27332],[86,27416],[86,27499],[86,27582],[86,27666],[86,27749],[86,27832],[86,27916],[86,27999],[85.5,28086],[85.1,28166],[85.1,28250],[85.1,28333],[85.1,28416],[85.1,28499],[85.1,28582],[85.1,28666],[83.3,28751],[83.3,28832],[83.3,28916],[83.3,28999],[83.3,29083],[83.3,29166],[83.3,29249],[83.4,29332],[83.4,29416]]",662.5482,664.692,82.63034046,1.0787,"[{""rating"":83.41143901685149,""responseTime"":0.5278999998569134},{""rating"":82.63034045570676,""responseTime"":1.078700000047661}]",space,1.6211,,664.692,Definitely yes,100,664.6928,,,[],,0,2,2,2,1,audio/Narrative7Situation2.wav,audio/Narrative8Situation2.wav,audio/Narrative5Situation2.wav,audio/Narrative6Situation2.wav,3,3,3,3,,,,,,,,,,,,,,,,,,,,,,,,,,,,,,,,,,,,,,,
,,,,,63ecff07b619306f41db42fa,2025-07-07_21h11.16.586,group3.4_multiperson,2023.2.2,Win32,120.4819277,686c2ebf0248f13bef9af11f,686c9a547792b7ed80aa4f9c,,,,,,,,,,,,,,,,,,,,,,,,,,,,,664.6929,2,audio/Narrative5Situation3.wav,667.6979,,667.6979,681.5893,"[[999,0],[999,83],[999,170],[999,249],[999,337],[999,416],[999,499],[999,583],[999,666],[999,749],[999,837],[999,916],[999,999],[999,1083],[999,1166],[999,1250],[999,1333],[999,1416],[999,1499],[999,1587],[999,1666],[999,1750],[999,1833],[999,1916],[999,1999],[999,2083],[999,2166],[999,2249],[999,2333],[999,2416],[56.3,2499],[56.3,2583],[54.8,2670],[54.2,2749],[54.2,2833],[56.2,2920],[60.8,3003],[64.1,3087],[65.9,3170],[67.4,3249],[68.9,3337],[69.8,3416],[72,3502],[72.7,3583],[73,3666],[73,3750],[73,3833],[73,3916],[73,4000],[73,4083],[73,4166],[72.8,4249],[72.6,4333],[72.6,4416],[72.6,4499],[72.6,4583],[72.6,4666],[73.5,4749],[73.6,4833],[73.6,4916],[73.6,4999],[73.4,5088],[73,5170],[72.7,5250],[72.6,5333],[72.6,5416],[72.6,5499],[72.6,5583],[72.6,5666],[72.6,5749],[72.6,5833],[72.6,5916],[72.6,6003],[72.6,6083],[72.6,6166],[72.6,6250],[72.6,6333],[72.6,6416],[72.6,6499],[72.6,6583],[72.6,6666],[72.6,6749],[72.6,6833],[72.6,6916],[72.6,6999],[72.6,7083],[72.6,7166],[72.6,7250],[72.6,7333],[72.6,7416],[72.6,7499],[72.6,7583],[72.6,7666],[73,7750],[73.8,7837],[74.3,7916],[74.4,7999],[74.9,8086],[75.4,8166],[75.4,8249],[75.4,8333],[75.4,8416],[75.4,8499],[75.4,8583],[75.4,8666],[75.3,8753],[75.3,8833],[75.3,8916],[75.2,8999],[75.1,9083],[75.1,9166],[75.1,9249],[74.9,9333],[74.9,9416],[74.9,9500],[74.9,9583],[74.9,9666],[74.9,9749],[74.9,9836],[74.9,9916],[74.9,9999],[74.9,10083],[74.9,10166],[74.9,10249],[74.9,10333],[74.9,10416],[74.9,10499],[74.9,10583],[74.9,10666],[74.9,10749],[75.1,10833],[75.3,10920],[75.4,10999],[75.4,11083],[75.4,11166],[75.4,11249],[75.4,11333],[75.4,11416],[75.4,11499],[75.4,11583],[75.4,11666],[75.4,11749],[75.4,11832],[75.4,11916],[75.4,11999],[75.4,12083],[75.4,12166],[75.4,12250],[75.4,12333],[75.4,12416],[75.4,12499],[75.4,12583],[75.4,12666],[75.4,12749],[75.4,12833],[75.4,12916],[75.4,12999],[75.4,13083],[75.4,13166],[75.4,13249],[75.4,13333],[75.4,13416],[75.4,13499],[75.4,13583],[75.4,13666],[75.4,13749],[75.4,13833]]",681.5893,685.7559,78.17808783,0.7373,"[{""rating"":78.1780878345038,""responseTime"":0.7372999999522563}]",space,3.6504,,685.7559,Partially,50,685.757,,,[],,0,3,3,3,1,audio/Narrative7Situation3.wav,audio/Narrative8Situation3.wav,audio/Narrative5Situation3.wav,audio/Narrative6Situation3.wav,8,4,3,5,,,,,,,,,,,,,,,,,,,,,,,,,,,,,,,,,,,,,,,
,,,,,63ecff07b619306f41db42fa,2025-07-07_21h11.16.586,group3.4_multiperson,2023.2.2,Win32,120.4819277,686c2ebf0248f13bef9af11f,686c9a547792b7ed80aa4f9c,,,,,,,,,,,,,,,,,,,,,,,,,,,,,685.757,2,audio/Narrative5Situation4.wav,686.7645,,686.7646,707.1389,"[[999,0],[999,82],[999,166],[999,249],[999,333],[999,416],[999,499],[999,582],[999,666],[999,749],[999,832],[999,916],[999,999],[999,1082],[999,1166],[999,1249],[999,1332],[999,1419],[65.4,1499],[67.6,1582],[69.3,1671],[71.7,1749],[71.7,1832],[72.2,1919],[73.7,1999],[73.7,2082],[73.7,2166],[73.7,2249],[73.7,2332],[73.7,2416],[73.7,2499],[73.7,2582],[73.3,2670],[73,2749],[73,2832],[73,2916],[73,2999],[73.5,3082],[73.7,3166],[73.7,3249],[73.7,3332],[73.7,3416],[73.7,3499],[73.7,3582],[73.7,3666],[73.7,3749],[73.7,3832],[73.7,3916],[73.7,3999],[73.7,4082],[73.7,4166],[73.7,4249],[73.7,4336],[73.7,4416],[73.7,4499],[73.7,4582],[73.7,4666],[73.7,4749],[73.7,4832],[73.7,4916],[73.7,4999],[73.7,5082],[73.7,5166],[73.7,5249],[73.7,5332],[73.7,5416],[73.7,5499],[73.7,5582],[73.7,5666],[73.7,5749],[73.7,5832],[73.7,5916],[73.7,5999],[73.7,6082],[73.6,6166],[73.3,6249],[73.1,6332],[73,6416],[73,6499],[73,6583],[73,6666],[74.5,6749],[75.7,6832],[75.7,6916],[75.7,6999],[75.7,7082],[75.6,7169],[75.5,7249],[75.5,7332],[75.5,7416],[75.5,7499],[75.5,7582],[75.5,7666],[75.5,7753],[75.5,7833],[75.5,7919],[75.5,7999],[75.5,8082],[75.5,8166],[75.5,8249],[75.5,8333],[75.5,8416],[75.5,8499],[75.5,8583],[75.5,8666],[75.5,8749],[75.5,8832],[75.5,8919],[75.5,8999],[75.5,9082],[76.5,9166],[77.6,9253],[78.6,9336],[80.1,9419],[81.5,9499],[83.2,9582],[83.3,9666],[83.7,9749],[83.7,9832],[83.7,9916],[83.3,9999],[81.9,10082],[81.7,10166],[81.7,10249],[81,10332],[80.1,10416],[80.1,10499],[80.1,10582],[80.1,10665],[80.1,10749],[79.8,10836],[79.5,10916],[79.4,10999],[79.4,11082],[79.4,11166],[79.4,11249],[79.4,11332],[79.4,11416],[79.4,11499],[79.4,11582],[79.4,11666],[79.4,11749],[79.4,11832],[79.4,11916],[79.4,11999],[79.4,12086],[79.4,12166],[79.4,12249],[79.4,12332],[79.4,12416],[79.4,12499],[79.4,12582],[79.4,12666],[79.4,12749],[79.4,12832],[79.4,12916],[79.4,12999],[79.4,13083],[79.4,13166],[79.4,13249],[79.4,13332],[79.4,13416],[79.4,13499],[79.4,13582],[79.4,13666],[79.4,13749],[79.4,13832],[79.4,13916],[79.4,13999],[79.4,14082],[79.4,14166],[79.4,14249],[79.4,14332],[79.4,14416],[79.4,14499],[79.4,14582],[79.4,14666],[79.4,14749],[79.4,14832],[79.4,14916],[79.4,14999],[79.4,15082],[79.4,15166],[79.4,15249],[79.4,15332],[79.4,15416],[79.4,15499],[79.4,15582],[79.4,15665],[79.1,15749],[78.8,15832],[78.4,15918],[78.3,15999],[78.3,16082],[78.3,16166],[78.7,16249],[78.9,16332],[79.1,16416],[79.8,16499],[79.8,16582],[79.8,16665],[79.9,16749],[80.6,16832],[81.2,16919],[81.6,16999],[81.6,17082],[81.6,17165],[81.6,17249],[81.7,17332],[81.8,17416],[81.8,17499],[81.9,17582],[81.9,17666],[81.9,17749],[81.9,17832],[81.9,17915],[81.9,17999],[81.9,18082],[81.9,18165],[81.9,18249],[81.9,18332],[81.9,18416],[81.9,18499],[81.7,18582],[81.8,18666],[82.6,18749],[82.8,18836],[83.2,18915],[84.4,18999],[84.8,19082],[84.8,19166],[84.8,19249],[84.8,19332],[84.8,19415],[84.8,19499],[84.8,19582],[84.8,19665],[84.8,19749],[84.8,19832],[84.8,19916],[84.8,19999],[84.8,20082],[84.8,20166],[84.8,20249],[84.8,20332]]",707.139,708.8471,86.53582492,0.7147,"[{""rating"":86.53582491841038,""responseTime"":0.7147000000476282}]",space,1.1857,,708.8471,Not at all,0,708.8481,,,[],,0,4,4,4,1,audio/Narrative7Situation4.wav,audio/Narrative8Situation4.wav,audio/Narrative5Situation4.wav,audio/Narrative6Situation4.wav,3,3,1,2,,,,,,,,,,,,,,,,,,,,,,,,,,,,,,,,,,,,,,,
,,,,,63ecff07b619306f41db42fa,2025-07-07_21h11.16.586,group3.4_multiperson,2023.2.2,Win32,120.4819277,686c2ebf0248f13bef9af11f,686c9a547792b7ed80aa4f9c,,,,,,,,,,,,,,,,,,,,,,,,,,,,,708.8482,2,audio/Narrative5Situation5.wav,713.8509,,713.8509,729.2635,"[[999,0],[999,79],[999,162],[999,246],[999,333],[999,412],[999,499],[999,579],[999,662],[999,746],[999,829],[999,912],[999,1000],[999,1079],[999,1165],[999,1246],[999,1329],[999,1412],[999,1495],[999,1579],[999,1662],[999,1746],[999,1829],[999,1912],[999,1996],[999,2079],[999,2162],[999,2246],[999,2329],[64.4,2412],[65,2495],[65.1,2579],[65.1,2663],[65.1,2746],[65.1,2829],[65.1,2912],[65.1,2996],[65.9,3083],[70.1,3166],[70.2,3246],[70.2,3329],[70.5,3416],[71.4,3499],[71.4,3579],[71.4,3662],[71.4,3745],[71.4,3829],[71.8,3912],[73.7,3996],[73.7,4079],[73.7,4162],[73.7,4249],[73.3,4333],[71.9,4412],[71.2,4500],[68.2,4579],[66.8,4662],[65.8,4750],[64.7,4829],[64.1,4912],[63.1,4999],[62.1,5083],[61.1,5162],[60.6,5245],[58.7,5333],[57.9,5412],[56.6,5499],[55.3,5583],[53,5666],[50.6,5746],[49.8,5829],[49.7,5912],[49.3,5996],[46.6,6079],[44.5,6162],[44.5,6245],[44.2,6329],[41,6412],[37,6495],[31.8,6583],[29.9,6662],[25.5,6749],[22.2,6833],[19.7,6912],[17.6,6995],[14.6,7083],[12.7,7162],[12.7,7245],[10.9,7329],[10.1,7412],[10.1,7496],[9.9,7579],[9.8,7662],[9.5,7745],[9.4,7832],[9.1,7912],[9.1,7996],[9,8079],[9,8162],[9,8245],[9,8329],[9,8412],[9,8495],[9,8579],[9,8663],[9.1,8745],[10.2,8833],[10.2,8912],[10.2,8995],[10.2,9079],[10.1,9162],[9.3,9245],[9.1,9329],[8.7,9412],[8.2,9495],[7.9,9579],[7.9,9662],[7.9,9745],[7.9,9829],[7.9,9912],[7.9,9995],[7.9,10079],[6.2,10162],[6.2,10246],[6.2,10329],[6.2,10412],[6.2,10495],[7,10584],[7.1,10662],[7.1,10746],[7.1,10829],[7.1,10912],[7.1,10995],[7.1,11079],[7.1,11162],[7.1,11245],[7.1,11329],[7.1,11412],[7.1,11495],[7.1,11579],[7.1,11663],[7.1,11745],[7.1,11829],[7.1,11912],[7.1,11995],[7.1,12079],[7.1,12163],[7.1,12246],[7.1,12329],[7.1,12412],[7.1,12495],[7.1,12579],[7.1,12663],[7.1,12745],[7.1,12829],[7.1,12912],[7.1,12995],[7.1,13079],[7.1,13166],[7.1,13245],[7.1,13329],[7.1,13412],[7.1,13495],[7.1,13579],[7.1,13662],[7.1,13745],[7.1,13829],[7.1,13912],[7.1,13995],[7.1,14079],[7.1,14162],[7.1,14245],[7.1,14329],[7.1,14412],[7.3,14495],[7.3,14579],[7.3,14662],[6.9,14745],[6.1,14829],[5.2,14912],[5.2,14995],[5.2,15079],[5.2,15162],[5.2,15245],[5.3,15329],[5.3,15412]]",729.2636,734.4388,7.566879692,0.6362,"[{""rating"":7.566879691864425,""responseTime"":0.6362000000476655}]",space,4.6555,,734.4388,Partially,50,734.4399,,,[],,0,5,5,5,1,audio/Narrative7Situation5.wav,audio/Narrative8Situation5.wav,audio/Narrative5Situation5.wav,audio/Narrative6Situation5.wav,5,2,5,2,,,,,,,,,,,,,,,,,,,,,,,,,,,,,,,,,,,,,,,
,,,,,63ecff07b619306f41db42fa,2025-07-07_21h11.16.586,group3.4_multiperson,2023.2.2,Win32,120.4819277,686c2ebf0248f13bef9af11f,686c9a547792b7ed80aa4f9c,,,,,,,,,,,,,,,,,,,,,,,,,,,,,734.44,2,audio/Narrative5Situation6.wav,737.4467,,737.4467,743.1049,"[[999,0],[999,83],[999,166],[999,249],[999,333],[999,416],[999,499],[999,583],[999,668],[999,751],[999,834],[999,916],[999,1000],[999,1083],[999,1166],[999,1249],[999,1333],[999,1416],[999,1499],[999,1583],[999,1666],[999,1749],[999,1833],[999,1916],[999,1999],[999,2085],[999,2166],[35.1,2249],[51.2,2333],[52.5,2416],[55.3,2501],[57.3,2583],[58,2666],[59.3,2752],[62.3,2835],[62.3,2916],[62.3,2999],[62.3,3083],[62.7,3166],[63.2,3249],[65.1,3335],[66.9,3416],[67.6,3499],[68.8,3583],[68.8,3666],[69.9,3752],[70.5,3833],[70.5,3916],[70.5,3999],[70.5,4083],[70.5,4166],[70.5,4250],[70.6,4337],[71.5,4416],[71.5,4499],[71.5,4583],[71.5,4666],[71.5,4749],[71.5,4833],[71.5,4916],[71.5,4999],[71.5,5083],[72,5166],[72.6,5254],[72.6,5333],[72.6,5416],[72.6,5499],[72.6,5583]]",743.105,745.1405,78.49052559,0.6999,"[{""rating"":78.4905255903577,""responseTime"":0.6999000000954538}]",space,1.5136,,745.1405,Not at all,0,745.1416,,,[],,0,6,6,6,1,audio/Narrative7Situation6.wav,audio/Narrative8Situation6.wav,audio/Narrative5Situation6.wav,audio/Narrative6Situation6.wav,3,2,3,2,,,,,,,,,,,,,,,,,,,,,,,,,,,,,,,,,,,,,,,
,,,,,63ecff07b619306f41db42fa,2025-07-07_21h11.16.586,group3.4_multiperson,2023.2.2,Win32,120.4819277,686c2ebf0248f13bef9af11f,686c9a547792b7ed80aa4f9c,,,,,,,,,,,,,,,,,,,,,,,,,,,,,745.1418,2,audio/Narrative5Situation7.wav,749.1465,,749.1465,770.1632,"[[999,0],[999,83],[999,166],[999,250],[999,333],[999,420],[999,499],[999,586],[999,670],[999,752],[999,836],[999,916],[999,999],[999,1086],[59.9,1170],[61.5,1249],[63.1,1332],[64.8,1417],[65.2,1499],[67.3,1587],[67.8,1666],[67.8,1749],[67.8,1833],[67.8,1916],[67.8,2003],[67.8,2082],[68.1,2170],[68.6,2249],[68.6,2333],[68.6,2416],[68.6,2499],[68.6,2583],[68.6,2666],[68.6,2749],[68.6,2833],[68.6,2916],[68.6,2999],[68.6,3083],[68.6,3166],[68.6,3249],[68.3,3333],[68.3,3416],[68.3,3499],[68.3,3583],[68.3,3666],[68.3,3749],[68.3,3833],[68.3,3916],[68.3,3999],[68.3,4083],[68.3,4166],[68.3,4249],[68.3,4333],[68.3,4416],[68.3,4499],[68.3,4583],[68.3,4666],[68.3,4749],[68.3,4832],[68.3,4916],[68.3,4999],[68.3,5083],[68.3,5166],[68.3,5249],[68.2,5333],[68.2,5416],[68.2,5499],[68.2,5583],[68.2,5666],[68.2,5750],[68.2,5833],[68.2,5916],[68.2,5999],[68.2,6083],[68.2,6166],[68.2,6250],[68.2,6333],[68.2,6416],[68.2,6499],[68.2,6583],[68.2,6666],[68.2,6749],[68.9,6833],[69.2,6916],[69.3,6999],[69.3,7083],[69.3,7166],[69.3,7249],[69.3,7336],[69.3,7416],[69.3,7499],[69.3,7583],[69.3,7666],[69.3,7750],[69.3,7833],[69.2,7916],[69.2,7999],[69.2,8083],[69.1,8166],[69.1,8253],[69.1,8332],[69.1,8416],[69,8499],[69,8583],[69,8666],[69,8749],[69,8832],[69.5,8916],[70.1,8999],[70.1,9082],[70.8,9166],[71.8,9249],[72.2,9333],[72.4,9416],[74.5,9499],[74.5,9583],[74.5,9666],[74.5,9749],[74.4,9836],[74.4,9916],[74.4,9999],[74.4,10083],[74.4,10166],[72.8,10253],[72.5,10332],[72.5,10416],[72.5,10499],[72.5,10583],[72.5,10666],[72.5,10753],[72.5,10833],[72.5,10916],[72.5,10999],[72.5,11082],[72.5,11166],[72.5,11249],[72.5,11332],[72.5,11416],[72.5,11499],[72.5,11583],[72.5,11666],[72.5,11749],[72.5,11832],[72.5,11916],[72.5,11999],[72.5,12082],[72.5,12166],[72.5,12253],[72.5,12333],[72.5,12416],[72.5,12499],[72.5,12582],[72.5,12666],[72.5,12749],[72.5,12832],[72.5,12916],[72.5,12999],[72.5,13082],[72.5,13166],[72.5,13249],[72.5,13332],[72.5,13416],[72.5,13499],[72.5,13582],[72.5,13666],[72.5,13749],[72.5,13832],[72.5,13916],[72.5,13999],[72.5,14082],[72.5,14166],[72.5,14249],[72.5,14332],[72.5,14416],[72.5,14499],[72.5,14583],[72.5,14666],[72.5,14749],[72.5,14832],[72.5,14916],[72.5,14999],[72.5,15082],[72.5,15166],[72.5,15249],[72.5,15336],[72.5,15416],[72.5,15499],[72.5,15582],[72.5,15666],[72.5,15750],[72.5,15832],[72.5,15916],[72.5,15999],[72.5,16082],[72.5,16166],[72.7,16249],[73.2,16332],[73.4,16416],[73.5,16499],[73.5,16582],[73.5,16666],[73.5,16749],[73.5,16832],[73.5,16916],[73.5,16999],[73.5,17082],[73.5,17166],[73.5,17249],[73.5,17332],[73.5,17416],[73.5,17499],[73.5,17583],[73.5,17666],[73.5,17749],[73.5,17832],[73.5,17916],[73.5,17999],[73.5,18082],[73.5,18166],[73.5,18249],[73.5,18332],[73.5,18416],[73.5,18499],[73.5,18582],[73.5,18666],[73.5,18749],[73.5,18832],[73.6,18916],[73.8,19003],[73.8,19082],[73.8,19166],[73.8,19249],[73.8,19332],[73.8,19416],[73.8,19499],[73.8,19582],[73.8,19666],[73.8,19749],[73.8,19832],[73.8,19916],[73.8,19999],[73.8,20082],[73.8,20166],[73.8,20249],[73.8,20332],[73.8,20420],[73.8,20499],[73.8,20582],[73.8,20666],[73.8,20749],[73.8,20832],[73.7,20916],[73.7,20999]]",770.1635,771.5627,76.14722991,0.6519,"[{""rating"":76.14722990692351,""responseTime"":0.6518999998570507}]",space,0.8763,,771.5627,Not at all,0,771.5633,,,[],,0,7,7,7,1,audio/Narrative7Situation7.wav,audio/Narrative8Situation7.wav,audio/Narrative5Situation7.wav,audio/Narrative6Situation7.wav,5,3,4,5,,,,,,,,,,,,,,,,,,,,,,,,,,,,,,,,,,,,,,,
,,,,,63ecff07b619306f41db42fa,2025-07-07_21h11.16.586,group3.4_multiperson,2023.2.2,Win32,120.4819277,686c2ebf0248f13bef9af11f,686c9a547792b7ed80aa4f9c,,,,,,,,,,,,,,,,,,,,,,,,,,,,,771.5633,2,audio/Narrative5Situation8.wav,774.5749,,774.5749,783.3874,"[[999,0],[999,79],[999,162],[999,249],[999,329],[999,416],[999,496],[999,579],[999,662],[999,745],[999,829],[999,912],[999,999],[999,1083],[999,1166],[999,1245],[999,1332],[53.7,1416],[54.9,1495],[56.1,1579],[59,1662],[60.1,1746],[60.1,1829],[60.1,1912],[60.1,1996],[60.1,2079],[60.1,2162],[60.1,2245],[63.4,2331],[64.1,2412],[65.7,2495],[68.7,2579],[68.9,2662],[70.5,2749],[71.8,2833],[73.2,2916],[73.2,2995],[73.2,3079],[73.2,3163],[73.2,3245],[73.2,3329],[73.2,3412],[73.2,3495],[73.2,3579],[73.2,3662],[73.2,3745],[73.2,3829],[73.2,3912],[73.2,3995],[73.2,4079],[73.1,4162],[73.1,4246],[73.1,4329],[73.1,4412],[73.1,4495],[73.1,4579],[73.1,4662],[73.1,4745],[73.1,4829],[73.1,4912],[73.1,4995],[73.1,5079],[73.1,5162],[73.1,5245],[73.1,5329],[73.1,5412],[73.2,5495],[73.3,5579],[73.9,5666],[73.9,5745],[73.9,5829],[73.9,5912],[74.2,5999],[74.4,6079],[74.4,6162],[74.4,6245],[74.4,6329],[74.4,6412],[74.4,6495],[74.4,6579],[74.4,6662],[74.4,6745],[74.4,6829],[74.4,6912],[74.4,6995],[74.4,7079],[74.4,7162],[74.4,7245],[74.4,7329],[74.4,7412],[74.4,7495],[74.4,7583],[74.4,7662],[74.4,7746],[74.4,7829],[74.4,7912],[74.4,7995],[74.4,8079],[74.4,8162],[74.4,8245],[74.4,8329],[74.4,8412],[74.7,8495],[74.7,8579],[74.7,8662],[74.7,8745]]",783.3874,784.8957,76.45966766,0.5029,"[{""rating"":76.4596676627774,""responseTime"":0.5029000000953374}]",space,0.9925,,784.8957,Partially,50,784.8966,,,[],,0,8,8,8,1,audio/Narrative7Situation8.wav,audio/Narrative8Situation8.wav,audio/Narrative5Situation8.wav,audio/Narrative6Situation8.wav,2,3,3,5,,,,,,,,,,,,,,,,,,,,,,,,,,,,,,,,,,,,,,,
,,,,,63ecff07b619306f41db42fa,2025-07-07_21h11.16.586,group3.4_multiperson,2023.2.2,Win32,120.4819277,686c2ebf0248f13bef9af11f,686c9a547792b7ed80aa4f9c,,,,,,,,,,,,,,,,,,,,,,,,,,,,,784.8968,2,audio/Narrative5Situation9.wav,787.904,,787.904,827.4399,"[[999,0],[999,83],[999,166],[999,250],[999,333],[999,416],[999,500],[999,587],[999,670],[999,749],[999,837],[999,916],[999,999],[999,1086],[999,1166],[999,1250],[999,1333],[68.4,1416],[69.8,1503],[70.1,1583],[71.2,1670],[72.3,1749],[72.8,1833],[73.3,1916],[74.1,2000],[76.1,2083],[77.4,2170],[78,2249],[78.1,2333],[78.1,2416],[78.1,2499],[77.7,2583],[77.1,2670],[77,2749],[77,2833],[77,2916],[77.5,3000],[77.6,3083],[77.6,3166],[77.6,3252],[77.6,3333],[77.6,3416],[77.6,3499],[77.6,3583],[77.6,3666],[77.6,3750],[77.6,3833],[80.8,3916],[85.5,3999],[87.2,4086],[89.6,4166],[90.1,4249],[91.2,4333],[92.1,4421],[92.5,4499],[93,4583],[93.4,4670],[94,4749],[94.9,4833],[95.7,4920],[96.2,4999],[96.6,5086],[96.8,5170],[96.8,5249],[96.9,5333],[96.9,5416],[96.9,5499],[96.9,5583],[96.9,5666],[96.9,5750],[96.9,5833],[96.7,5916],[96.6,5999],[96.5,6083],[96.3,6166],[96.3,6249],[96.3,6333],[96.3,6416],[96.3,6499],[96.3,6583],[96.3,6666],[96.3,6749],[96.8,6833],[96.9,6916],[97.1,6999],[97.1,7083],[97.1,7166],[97.1,7250],[97.1,7333],[96.9,7416],[96.5,7499],[96.3,7583],[96,7666],[96,7749],[96,7833],[96,7916],[96.1,7999],[96.3,8083],[96.5,8166],[96.5,8253],[96.5,8333],[96.5,8416],[97,8499],[97.3,8583],[98,8666],[98.6,8749],[98.6,8833],[98.6,8916],[99,8999],[100,9083],[100,9166],[100,9253],[100,9333],[100,9416],[100,9499],[100,9583],[100,9666],[100,9749],[100,9833],[100,9916],[99.9,9999],[99.2,10083],[98.9,10170],[98.7,10249],[98.6,10338],[98.5,10420],[98.5,10500],[98.5,10583],[98.5,10666],[98.5,10750],[98.5,10833],[98.5,10916],[98.5,10999],[98.3,11087],[98.3,11166],[98.3,11249],[98.3,11335],[98.3,11416],[98.3,11503],[98.3,11583],[98.3,11666],[98.3,11749],[98.3,11833],[98.3,11916],[98.3,11999],[98.3,12083],[98.3,12166],[98.3,12249],[98.3,12333],[98.3,12416],[98.3,12499],[98.3,12583],[98.3,12666],[98.3,12749],[98.3,12833],[98.3,12916],[98.3,12999],[98.3,13083],[98.3,13166],[98.3,13249],[98.3,13333],[98.3,13416],[98.3,13500],[98.3,13583],[98.3,13666],[98.3,13749],[98.3,13832],[98.3,13916],[98.3,13999],[98.3,14083],[98.3,14166],[98.3,14249],[98.3,14333],[98.3,14416],[98.3,14500],[98.3,14583],[98.3,14666],[98.3,14750],[98,14832],[97.8,14916],[97.6,14999],[97.3,15082],[97.3,15166],[97.3,15249],[97.3,15332],[97.3,15416],[97.3,15499],[97.3,15582],[97.3,15666],[97.3,15749],[97.3,15833],[97.3,15916],[97.3,15999],[97.3,16083],[97.3,16166],[97.3,16250],[97.3,16333],[97.3,16416],[97.3,16499],[97.3,16583],[97.3,16666],[97.5,16753],[97.6,16833],[97.6,16916],[97.9,16999],[97.9,17083],[97.9,17166],[97.9,17250],[97.9,17333],[97.9,17416],[97.9,17500],[97.9,17582],[97.9,17666],[97.9,17749],[97.9,17832],[97.9,17916],[97.9,17999],[97.9,18082],[97.9,18166],[97.9,18249],[97.9,18332],[97.9,18416],[97.9,18499],[97.9,18583],[97.9,18666],[97.9,18749],[97.9,18832],[97.9,18916],[97.9,19003],[97.9,19083],[97.9,19166],[97.9,19249],[97.9,19332],[97.9,19416],[97.9,19499],[97.9,19582],[97.9,19666],[97.9,19749],[97.9,19832],[97.9,19916],[97.9,19999],[97.9,20083],[97.9,20166],[97.9,20249],[97.9,20332],[97.9,20416],[97.9,20499],[97.9,20582],[97.9,20666],[97.9,20749],[97.8,20832],[97.6,20916],[97.6,20999],[97.6,21082],[97.6,21166],[97.6,21249],[97.8,21332],[98.2,21416],[98.4,21499],[98.4,21582],[98.4,21666],[98.4,21749],[98.4,21832],[98.4,21916],[98.4,21999],[98.4,22082],[98.4,22166],[98.4,22249],[98.4,22332],[98.3,22416],[98.2,22499],[98,22582],[97.8,22666],[97.6,22749],[97.6,22832],[97.6,22916],[97.6,22999],[97.6,23082],[97.6,23166],[97.6,23249],[97.6,23332],[97.6,23416],[97.6,23499],[97.6,23582],[97.6,23666],[97.6,23749],[97.6,23832],[97.6,23916],[97.6,23999],[97.6,24082],[97.6,24166],[97.6,24249],[97.6,24332],[97.6,24416],[97.6,24499],[97.6,24582],[97.6,24666],[97.6,24749],[97.6,24832],[97.6,24916],[97.6,24999],[97.6,25082],[97.6,25166],[97.6,25249],[97.6,25332],[97.6,25416],[97.6,25499],[97.6,25586],[97.6,25666],[97.5,25749],[97.5,25832],[97.5,25916],[97.5,25999],[97.5,26082],[97.5,26166],[97.5,26249],[97.5,26332],[97.5,26416],[97.5,26499],[97.5,26582],[97.5,26666],[97.4,26749],[97.4,26832],[97.4,26916],[97.4,26999],[97.4,27082],[97.4,27166],[97.4,27249],[97.4,27332],[97.4,27416],[97.4,27499],[97.4,27582],[97.4,27666],[97,27749],[96.9,27832],[96.9,27916],[96.9,27999],[96.9,28082],[96.7,28166],[96.6,28253],[96.5,28332],[96.4,28416],[96.4,28499],[96.3,28582],[96.2,28666],[96.2,28749],[96.2,28832],[96.2,28916],[96.2,28999],[96.2,29082],[97.3,29166],[98.1,29249],[98.3,29332],[98.8,29415],[98.8,29499],[98.8,29582],[98.7,29669],[98.2,29749],[98.1,29832],[98.1,29915],[98.1,29999],[98.1,30082],[98.1,30166],[98.1,30249],[98.1,30332],[98,30416],[98,30499],[98,30582],[98,30666],[98,30749],[98,30832],[97.7,30919],[97.7,30999],[97.7,31082],[97.7,31166],[97.7,31249],[97.7,31332],[97.7,31415],[97.7,31499],[97.7,31582],[97.7,31665],[97.7,31749],[97.7,31832],[97.7,31916],[97.7,31999],[97.7,32082],[97.4,32166],[97.4,32249],[97.3,32333],[97.3,32416],[97.3,32499],[97.3,32582],[97.3,32666],[97.3,32749],[97.3,32832],[97.3,32915],[97.3,32999],[97.6,33087],[97.8,33166],[97.9,33249],[97.9,33332],[97.9,33416],[97.9,33499],[97.9,33582],[97.9,33665],[97.9,33749],[97.9,33836],[97.9,33916],[97.9,33999],[97.9,34082],[97.9,34165],[98,34249],[98,34332],[98,34415],[98,34499],[98,34582],[98,34666],[98,34753],[98,34832],[98,34915],[98.1,34999],[98.1,35082],[98.1,35166],[98.3,35249],[98.3,35332],[98.3,35415],[98.3,35499],[98.3,35582],[98.3,35665],[98.3,35749],[98.3,35832],[98.3,35916],[98.3,35999],[98.3,36082],[98.3,36166],[98.3,36249],[98.3,36332],[98.3,36415],[98.3,36499],[98.3,36582],[98.3,36665],[98.3,36749],[98.3,36832],[98.3,36915],[98.3,36999],[98.3,37082],[98.3,37165],[98.3,37249],[98.3,37332],[98.3,37415],[98.3,37499],[98.3,37582],[98.3,37665],[98.3,37749],[98.3,37832],[98.3,37916],[98.3,37999],[98.3,38082],[98.3,38165],[98.3,38249],[98.3,38332],[98.3,38415],[98.3,38499],[98.3,38582],[98.3,38665],[98.3,38749],[98.3,38832],[98.3,38915],[98.3,39003],[98.3,39082],[98.3,39165],[98.3,39249],[98.3,39332],[98.3,39415],[98.3,39499]]",827.44,829.1032,100,0.808,"[{""rating"":100,""responseTime"":0.8079999999999927}]",space,1.1441,,829.1032,Not at all,0,829.1042,,,[],,0,9,9,9,1,audio/Narrative7Situation9.wav,audio/Narrative8Situation9.wav,audio/Narrative5Situation9.wav,audio/Narrative6Situation9.wav,2,3,3,4,,,,,,,,,,,,,,,,,,,,,,,,,,,,,,,,,,,,,,,
,,,,,63ecff07b619306f41db42fa,2025-07-07_21h11.16.586,group3.4_multiperson,2023.2.2,Win32,120.4819277,686c2ebf0248f13bef9af11f,686c9a547792b7ed80aa4f9c,,,,,,,,,,,,,,,,,,,,,,,,,,,,,829.1043,2,audio/Narrative6Situation1.wav,831.1116,,831.1116,857.6777,"[[999,0],[999,83],[999,166],[999,250],[999,333],[999,416],[999,499],[999,583],[999,666],[999,749],[999,833],[999,916],[999,1000],[999,1083],[999,1171],[999,1249],[999,1333],[999,1416],[999,1499],[999,1583],[999,1666],[999,1753],[999,1833],[999,1916],[999,2003],[999,2083],[999,2166],[999,2249],[999,2333],[999,2420],[999,2499],[999,2583],[999,2666],[999,2749],[999,2833],[999,2916],[999,2999],[999,3083],[999,3166],[999,3249],[999,3333],[999,3420],[999,3499],[999,3583],[999,3666],[999,3750],[999,3833],[999,3916],[999,4004],[999,4083],[999,4166],[999,4249],[999,4333],[49,4416],[49.3,4499],[49.4,4583],[49.4,4666],[49.4,4749],[49.4,4833],[48.9,4916],[46.9,4999],[46.2,5083],[46.2,5166],[46.2,5249],[46.2,5333],[46.2,5416],[46.2,5499],[47.7,5582],[47.7,5666],[47.7,5749],[47.7,5833],[48,5920],[48.3,6003],[48.3,6083],[48.4,6166],[48.5,6249],[48.6,6333],[48.7,6420],[48.8,6503],[49.4,6583],[50.7,6670],[51.5,6749],[51.5,6833],[51.5,6916],[51.9,6999],[52.6,7083],[52.8,7166],[52.8,7249],[52.8,7333],[52.8,7416],[52.8,7499],[52.8,7583],[52.8,7666],[52.8,7749],[52.8,7833],[52.7,7916],[52.7,7999],[52.7,8082],[52.6,8166],[51.9,8253],[51.6,8332],[51.6,8416],[51.6,8499],[51,8586],[50.1,8666],[50.1,8749],[50.1,8833],[49.8,8916],[49.8,8999],[49.8,9082],[49.8,9166],[49.8,9249],[49.8,9332],[49.8,9416],[49.8,9499],[49.8,9582],[49.8,9666],[49.8,9749],[49.8,9832],[49.8,9916],[49.8,9999],[49.8,10083],[49.8,10166],[49.8,10249],[49.8,10332],[49.8,10416],[49.2,10499],[48.8,10582],[48.4,10666],[48.4,10749],[48.4,10832],[48.4,10916],[48.4,10999],[48.4,11082],[48.4,11166],[48.4,11249],[48.4,11333],[47.4,11418],[45.5,11499],[41.3,11586],[36.2,11666],[34.1,11749],[33.4,11836],[31.7,11920],[29.1,12003],[27.5,12086],[25.5,12170],[24.1,12254],[22.4,12332],[19.8,12416],[18.4,12499],[16.8,12582],[15.9,12670],[13.8,12749],[12.8,12832],[11.9,12916],[10.7,12999],[9.8,13086],[8.9,13166],[8.7,13249],[8.5,13336],[8,13416],[7.3,13499],[6.7,13583],[6.4,13670],[6,13753],[5.2,13832],[5.2,13916],[5.1,13999],[3.8,14082],[3.7,14166],[4,14249],[4.8,14336],[5.2,14416],[5.3,14500],[5.4,14582],[5.4,14666],[5.4,14749],[5,14833],[4.7,14916],[4.7,14999],[4.7,15083],[4.7,15166],[4.7,15250],[4.7,15332],[4.7,15416],[4.7,15500],[4.5,15582],[4.2,15666],[3.9,15749],[3.9,15832],[4.1,15920],[4.6,15999],[4.8,16082],[4.8,16166],[4.8,16249],[4.8,16332],[4.8,16416],[4.8,16499],[4.8,16582],[4.8,16666],[4.8,16749],[4.8,16832],[4.4,16916],[4.4,16999],[4.4,17082],[4.4,17166],[4.7,17250],[4.7,17332],[4.7,17416],[4.7,17499],[4.7,17582],[4.7,17666],[4.7,17749],[4.7,17832],[4.7,17916],[4.7,17999],[4.7,18082],[4.7,18166],[5,18253],[5.2,18332],[5.2,18416],[5.2,18499],[5.2,18582],[5.3,18666],[5.7,18753],[5.7,18832],[5.9,18916],[6,18999],[6.3,19086],[6.3,19166],[6.3,19249],[6,19332],[5.7,19416],[5.3,19499],[5.3,19582],[5.3,19666],[6.4,19749],[6.9,19836],[7.2,19916],[8.4,19999],[9.8,20086],[11,20166],[12.4,20249],[13.4,20336],[14.1,20416],[15.1,20503],[16.6,20582],[19.5,20666],[26.4,20753],[28.4,20832],[32.5,20920],[38.4,20999],[38.4,21083],[44.8,21166],[48.1,21249],[48.1,21332],[48.5,21416],[50.8,21499],[51,21582],[51,21666],[51.9,21753],[52.5,21836],[52.7,21916],[52.7,21999],[52.7,22083],[52.7,22166],[53,22249],[53,22332],[53,22416],[53.1,22499],[54.1,22586],[55.4,22670],[55.4,22749],[55.4,22832],[55.4,22916],[55.4,22999],[55.5,23082],[55.5,23167],[55.5,23249],[55.5,23332],[55.5,23416],[55.6,23503],[55.7,23582],[56.2,23666],[57.1,23749],[58.2,23832],[58.9,23920],[61.8,23999],[64.1,24082],[65.9,24170],[66.9,24249],[67.9,24336],[69.1,24420],[70.5,24501],[70.9,24582],[71.2,24669],[71.2,24749],[71.2,24832],[71,24916],[71,24999],[71.2,25082],[72.6,25166],[72.6,25249],[72.6,25333],[72.6,25416],[72.4,25499],[72.3,25582],[72.3,25666],[72.2,25749],[72.2,25832],[72.2,25916],[72.2,25999],[71.8,26082],[71.8,26169],[71.7,26249],[71.7,26332],[71.7,26416],[71.7,26499]]",857.6778,859.2026,72.7885136,0.5039,"[{""rating"":72.78851360271918,""responseTime"":0.5038999998570262}]",space,1.0016,,859.2027,Not at all,0,859.2033,,,[],,0,10,10,10,1,audio/Narrative8Situation1.wav,audio/Narrative7Situation1.wav,audio/Narrative6Situation1.wav,audio/Narrative5Situation1.wav,5,2,2,5,,,,,,,,,,,,,,,,,,,,,,,,,,,,,,,,,,,,,,,
