consent.started,consent.stopped,consentResponse.keys,consentResponse.rt,consentResponse.duration,participantID,date,expName,psychopyVersion,OS,frameRate,STUDY_ID,SESSION_ID,opening1.started,opening1.stopped,keyEndingOpening1.keys,keyEndingOpening1.rt,keyEndingOpening1.duration,volumeAdjust.started,volumeAdjust.stopped,endingAdjust.keys,endingAdjust.rt,endingAdjust.duration,opening2.started,opening2.stopped,keyEndingOpening.keys,keyEndingOpening.rt,keyEndingOpening.duration,mouse.x,mouse.y,mouse.leftButton,mouse.midButton,mouse.rightButton,mouse.time,instructionLoop.thisRepN,instructionLoop.thisTrialN,instructionLoop.thisN,instructionLoop.thisIndex,instructionLoop.ran,readyForAudio.started,readyForAudio.stopped,fixation.started,run,audio_played,fixation.stopped,endPractice.keys,audioPre.started,audioPre.stopped,continuousResponses_audio,intRating.started,intRating.stopped,intQuestionSlider.response,intQuestionSlider.rt,intQuestionSlider.history,confirmResponse.keys,confirmResponse.rt,confirmResponse.duration,catchQuestion.started,catch_label,catch_value,catchQuestion.stopped,catchQuestionSlider.response,catchQuestionSlider.rt,catchQuestionSlider.history,confirmResponse_2.keys,audioRunLoop.thisRepN,audioRunLoop.thisTrialN,audioRunLoop.thisN,audioRunLoop.thisIndex,audioRunLoop.ran,conditions1_1,conditions2_1,conditions1_2,conditions2_2,dur1_1,dur2_1,dur1_2,dur2_2,endPractice.rt,endPractice.duration,confirmResponse_2.rt,confirmResponse_2.duration,runIntervalBreak.started,runIntervalBreak.stopped,endingBreakKey.keys,endingBreakKey.rt,endingBreakKey.duration,connection.started,connection.stopped,connectionEnding.keys,connectionEnding.rt,connectionEnding.duration,readyForText.started,readyForText.stopped,textPre.started,run_dup,textPre.stopped,continuousResponses_text,textRunLoop.thisRepN,textRunLoop.thisTrialN,textRunLoop.thisN,textRunLoop.thisIndex,textRunLoop.ran,text1_1,text1_2,text2_1,text2_2,runBreakText.started,runBreakText.stopped,endingBreakKey_2.keys,endingBreakKey_2.rt,endingBreakKey_2.duration,ending.started,ending.stopped,endingEnding.keys,endingEnding.rt,endingEnding.duration
0.0004,33.4029,y,32.9302,,63eda5a4a87d8bd73853fa8e,2025-07-07_19h59.42.294,group3.4_multiperson,2023.2.2,Linux x86_64,59.88023952,686c2ebf0248f13bef9af11f,686c8937dec29fd140e24920,,,,,,,,,,,,,,,,,,,,,,,,,,,,,,,,,,,,,,,,,,,,,,,,,,,,,,,,,,,,,,,,,,,,,,,,,,,,,,,,,,,,,,,,,,,,,,,,,,,,,,,,
,,,,,63eda5a4a87d8bd73853fa8e,2025-07-07_19h59.42.294,group3.4_multiperson,2023.2.2,Linux x86_64,59.88023952,686c2ebf0248f13bef9af11f,686c8937dec29fd140e24920,33.4034,35.8706,space,2.3747,,,,,,,,,,,,,,,,,,,,,,,,,,,,,,,,,,,,,,,,,,,,,,,,,,,,,,,,,,,,,,,,,,,,,,,,,,,,,,,,,,,,,,,,,,,,,,,,,,,,
,,,,,63eda5a4a87d8bd73853fa8e,2025-07-07_19h59.42.294,group3.4_multiperson,2023.2.2,Linux x86_64,59.88023952,686c2ebf0248f13bef9af11f,686c8937dec29fd140e24920,,,,,,35.8709,65.8525,space,29.6655,,,,,,,,,,,,,,,,,,,,,,,,,,,,,,,,,,,,,,,,,,,,,,,,,,,,,,,,,,,,,,,,,,,,,,,,,,,,,,,,,,,,,,,,,,,,,,,
,,,,,63eda5a4a87d8bd73853fa8e,2025-07-07_19h59.42.294,group3.4_multiperson,2023.2.2,Linux x86_64,59.88023952,686c2ebf0248f13bef9af11f,686c8937dec29fd140e24920,,,,,,,,,,,65.859,72.3857,space,6.4956,,"[0.052345593770345054,0.049350547790527347,0.07912979125976563]","[0.13459676106770832,0.13593620017722802,0.05911068386501736]","[1,1,1]","[0,0,0]","[0,0,0]","[0.8173000000119259,1.8499000000059596,5.517000000000024]",0,0,0,0,1,,,,,,,,,,,,,,,,,,,,,,,,,,,,,,,,,,,,,,,,,,,,,,,,,,,,,,,,,,,,,,,,,,,,,,,,,,,,,,
,,,,,63eda5a4a87d8bd73853fa8e,2025-07-07_19h59.42.294,group3.4_multiperson,2023.2.2,Linux x86_64,59.88023952,686c2ebf0248f13bef9af11f,686c8937dec29fd140e24920,,,,,,,,,,,72.3865,82.5347,space,10.0252,,"[0.10962638854980469,0.1836285909016927,0.18244539896647136,0.18317972819010417]","[0.09261220296223958,-0.005530576352719908,-0.11142227737991899,-0.11142227737991899]","[1,1,1,1]","[0,0,0,0]","[0,0,0,0]","[0.8784000000059393,6.576599999994016,8.059999999999974,9.093499999999977]",1,0,1,0,1,,,,,,,,,,,,,,,,,,,,,,,,,,,,,,,,,,,,,,,,,,,,,,,,,,,,,,,,,,,,,,,,,,,,,,,,,,,,,,
,,,,,63eda5a4a87d8bd73853fa8e,2025-07-07_19h59.42.294,group3.4_multiperson,2023.2.2,Linux x86_64,59.88023952,686c2ebf0248f13bef9af11f,686c8937dec29fd140e24920,,,,,,,,,,,82.5351,132.6494,space,50.0346,,"[0.18317972819010417,0.21359240214029948]","[-0.11142227737991899,-0.10260597511574074]","[1,1]","[0,0]","[0,0]","[0.9791999999880829,45.92950000000002]",2,0,2,0,1,,,,,,,,,,,,,,,,,,,,,,,,,,,,,,,,,,,,,,,,,,,,,,,,,,,,,,,,,,,,,,,,,,,,,,,,,,,,,,
,,,,,63eda5a4a87d8bd73853fa8e,2025-07-07_19h59.42.294,group3.4_multiperson,2023.2.2,Linux x86_64,59.88023952,686c2ebf0248f13bef9af11f,686c8937dec29fd140e24920,,,,,,,,,,,132.655,159.6242,space,26.7886,,"[0.16338882446289063,0.08733088175455729,0.18984311421712238]","[-0.09443924515335649,-0.13141852484809027,-0.1107669406467014]","[1,1,1]","[0,0,0]","[0,0,0]","[5.741400000005967,13.419200000017867,25.9193000000119]",3,0,3,0,1,,,,,,,,,,,,,,,,,,,,,,,,,,,,,,,,,,,,,,,,,,,,,,,,,,,,,,,,,,,,,,,,,,,,,,,,,,,,,,
,,,,,63eda5a4a87d8bd73853fa8e,2025-07-07_19h59.42.294,group3.4_multiperson,2023.2.2,Linux x86_64,59.88023952,686c2ebf0248f13bef9af11f,686c8937dec29fd140e24920,,,,,,,,,,,159.6304,175.2996,space,15.5586,,"[0.21962254842122395,0.2695234934488932,0.2695234934488932]","[-0.060499968352141206,-0.0075957121672453705,-0.0075957121672453705]","[1,1,1]","[0,0,0]","[0,0,0]","[2.2381000000238487,12.554999999999978,13.741900000005984]",4,0,4,0,1,,,,,,,,,,,,,,,,,,,,,,,,,,,,,,,,,,,,,,,,,,,,,,,,,,,,,,,,,,,,,,,,,,,,,,,,,,,,,,
,,,,,63eda5a4a87d8bd73853fa8e,2025-07-07_19h59.42.294,group3.4_multiperson,2023.2.2,Linux x86_64,59.88023952,686c2ebf0248f13bef9af11f,686c8937dec29fd140e24920,,,,,,,,,,,175.3022,185.8015,space,10.46,,"[0.2695234934488932,0.3109053293863932]","[-0.009122043185763888,0.061197803638599536]","[1,1]","[0,0]","[0,0]","[4.422100000023875,8.222200000017892]",5,0,5,0,1,,,,,,,,,,,,,,,,,,,,,,,,,,,,,,,,,,,,,,,,,,,,,,,,,,,,,,,,,,,,,,,,,,,,,,,,,,,,,,
,,,,,63eda5a4a87d8bd73853fa8e,2025-07-07_19h59.42.294,group3.4_multiperson,2023.2.2,Linux x86_64,59.88023952,686c2ebf0248f13bef9af11f,686c8937dec29fd140e24920,,,,,,,,,,,,,,,,,,,,,,,,,,,185.823,188.3995,188.445,1,audio/Narrative13Situation2.wav,190.4511,,190.4516,220.2156,"[[999,8],[999,169],[999,247],[999,330],[999,413],[999,497],[999,580],[999,663],[999,747],[999,833],[999,913],[999,999],[999,1080],[999,1163],[999,1247],[999,1330],[999,1414],[999,1497],[999,1580],[999,1664],[999,1747],[999,1830],[999,1913],[999,1997],[999,2080],[999,2164],[999,2247],[999,2330],[999,2413],[999,2497],[999,2580],[999,2669],[999,2747],[999,2830],[999,2914],[999,2997],[999,3080],[999,3164],[999,3247],[999,3330],[999,3414],[999,3497],[999,3580],[999,3663],[999,3746],[999,3831],[999,3914],[999,3997],[999,4080],[999,4163],[999,4246],[999,4330],[999,4414],[999,4497],[999,4580],[999,4663],[999,4747],[999,4830],[999,4913],[999,4997],[999,5080],[999,5166],[999,5247],[999,5332],[999,5414],[999,5497],[999,5581],[90.9,5671],[93.2,5747],[98.6,5831],[98.9,5913],[98.9,5997],[98.9,6080],[98.9,6163],[98.9,6246],[98.8,6330],[98.7,6414],[98.6,6497],[98.6,6581],[98.6,6664],[98.6,6747],[98.6,6830],[98.6,6914],[98.6,6996],[98.6,7080],[98.6,7163],[98.6,7247],[98.6,7330],[97.9,7434],[94.2,7535],[86.2,7749],[86.3,7832],[89.5,7920],[92.4,8000],[92.6,8081],[92.7,8163],[92.7,8246],[92.7,8330],[92.9,8413],[92.9,8497],[92.9,8583],[92.9,8663],[92.8,8747],[92.6,8831],[92.6,8914],[93,8997],[93,9081],[93,9163],[93,9248],[93.6,9330],[95.9,9415],[97.5,9497],[98.1,9580],[98.1,9663],[98.1,9746],[98.1,9830],[98.1,9913],[98.1,9997],[98.1,10081],[98.1,10164],[98.3,10247],[99,10331],[99.3,10414],[99.5,10497],[100,10580],[100,10663],[100,10747],[100,10830],[100,10913],[100,10996],[100,11080],[100,11163],[100,11247],[100,11330],[100,11414],[100,11497],[100,11580],[100,11664],[100,11747],[100,11830],[100,11913],[100,11997],[100,12079],[100,12164],[100,12246],[100,12330],[100,12413],[100,12497],[100,12580],[96.6,12664],[95.8,12746],[95.7,12831],[96.5,12913],[99,12998],[99,13080],[98.5,13163],[97.8,13247],[97.8,13329],[97.8,13413],[97.8,13496],[97.8,13580],[97.8,13664],[97.8,13747],[98.1,13830],[98.1,13914],[98.5,13997],[98.6,14079],[98.8,14163],[99,14247],[99,14330],[99,14414],[99,14497],[99,14580],[99,14664],[99,14746],[99,14830],[99,14913],[99,14996],[99.2,15080],[99.2,15165],[99.2,15246],[99.2,15329],[99.2,15413],[99.2,15497],[99.2,15579],[99.2,15664],[99.2,15747],[99.2,15830],[99.2,15913],[99.2,15996],[99.2,16079],[99.2,16163],[99.2,16247],[99.2,16331],[99.2,16413],[99.2,16497],[99.2,16580],[99.2,16663],[99.2,16746],[99.2,16829],[99.2,16913],[99.2,16997],[99.2,17081],[99.2,17164],[99.2,17247],[99.2,17330],[99.2,17413],[99.2,17497],[99.2,17579],[99.2,17663],[99.2,17746],[99.2,17830],[98.9,17915],[98.2,17998],[97.4,18080],[97,18163],[96.9,18246],[96.9,18329],[96.9,18413],[97.3,18497],[97.3,18580],[97.8,18663],[98,18746],[98,18830],[98,18914],[98,18996],[98,19080],[98,19163],[98,19246],[98,19330],[98,19413],[98,19496],[98,19580],[98,19664],[98,19747],[98,19830],[98,19914],[98.3,19997],[99,20082],[99.2,20162],[99.2,20247],[99.2,20329],[99.2,20413],[99.7,20497],[99.9,20579],[99.9,20663],[98.1,20747],[96.5,20830],[96.4,20913],[95.9,20997],[95.9,21082],[95.9,21164],[96.7,21247],[98.3,21331],[98.9,21413],[99.8,21497],[100,21580],[100,21663],[100,21746],[100,22580],[100,22663],[100,22800],[100,22879],[100,22963],[100,23046],[100,23132],[100,23213],[100,23296],[100,23379],[100,23463],[100,23546],[100,23630],[100,23712],[100,23796],[100,23880],[100,23963],[100,24046],[100,24130],[100,24213],[100,24296],[100,24379],[100,24463],[100,24546],[100,24630],[100,24713],[100,24796],[100,24879],[100,24963],[100,25047],[100,25130],[100,25212],[100,25296],[100,25380],[100,25463],[100,25547],[100,25630],[100,25713],[100,25796],[100,25879],[100,25963],[100,26046],[100,26130],[100,26213],[100,26297]]",220.2162,224.548,100,3.9922,"[{""rating"":99.04407501220703,""responseTime"":1.927500000000009},{""rating"":100,""responseTime"":3.177000000000021},{""rating"":100,""responseTime"":3.992200000017874}]",space,3.7851,,224.5483,Partially,50,224.5523,,,[],,0,0,0,0,1,audio/Narrative13Situation2.wav,audio/Narrative13Situation2.wav,audio/Narrative13Situation2.wav,audio/Narrative13Situation2.wav,2,2,2,2,,,,,,,,,,,,,,,,,,,,,,,,,,,,,,,,,,,,,,,
,,,,,63eda5a4a87d8bd73853fa8e,2025-07-07_19h59.42.294,group3.4_multiperson,2023.2.2,Linux x86_64,59.88023952,686c2ebf0248f13bef9af11f,686c8937dec29fd140e24920,,,,,,,,,,,,,,,,,,,,,,,,,,,,,224.5527,1,audio/Narrative7Situation1.wav,226.3658,space,226.366,282.2634,"[[999,3],[999,98],[999,181],[999,266],[999,351],[999,431],[999,515],[999,598],[96,682],[96.5,766],[98.3,848],[98.8,932],[98.8,1014],[98.8,1098],[98.8,1182],[98.8,1265],[98.8,1348],[98.8,1431],[98.8,1515],[98.8,1598],[98.8,1681],[98.8,1764],[98.8,1848],[98.8,1931],[98.8,2014],[98.8,2098],[98.8,2182],[98.8,2264],[98.8,2348],[98.8,2431],[98.8,2515],[98.8,2598],[98.8,2814],[98.8,2924],[98.8,3017],[98.8,3100],[98.8,3185],[98.8,3267],[98.8,3350],[98.8,3436],[98.8,3516],[98.8,3598],[98.8,3682],[98.8,3765],[98.8,3848],[98.8,3932],[98.8,4015],[98.8,4098],[98.8,4182],[98.8,4264],[98.8,4348],[98.8,4432],[98.8,4516],[98.8,4599],[98.8,4681],[98.8,4765],[98.8,4848],[98.8,4931],[98.8,5014],[98.8,5098],[98.8,5181],[98.8,5264],[98.8,5348],[98.8,5432],[98.8,5514],[98.8,5598],[98.8,5681],[98.8,5764],[98.8,5848],[98.8,5931],[98.8,6015],[98.8,6098],[98.8,6181],[98.8,6265],[98.8,6349],[98.8,6431],[98.8,6515],[98.8,6598],[98.8,6681],[98.8,6764],[98.8,6848],[98.8,6931],[98.8,7015],[98.8,7098],[99.1,7181],[100,7264],[100,7350],[100,7432],[100,7514],[100,7598],[100,7681],[100,7765],[100,7849],[100,7931],[100,8015],[100,8098],[100,8182],[100,8265],[100,8348],[100,8431],[100,8514],[100,8598],[100,8683],[100,8764],[100,8848],[100,8931],[100,9015],[100,9098],[71.8,9849],[72.7,9931],[85.1,10014],[85.8,10098],[87.2,10181],[93,10265],[93,10348],[94.7,10431],[99.3,10514],[99.3,10598],[100,10682],[100,10765],[100,10848],[100,10932],[100,11014],[100,11098],[100,11182],[100,11265],[100,11348],[100,11432],[100,11515],[100,11598],[100,11697],[100,11766],[100,11849],[100,11932],[100,12015],[100,12098],[100,12182],[100,12264],[100,12348],[100,12432],[100,12514],[100,12598],[100,12682],[100,12766],[100,12857],[100,12932],[100,13015],[100,13098],[100,13182],[100,13265],[100,13348],[100,13431],[100,13515],[100,13597],[100,13681],[100,13764],[100,13847],[100,13932],[100,14014],[100,14098],[100,14181],[100,14264],[100,14348],[100,14432],[100,14514],[100,14598],[100,14686],[100,14765],[100,14848],[100,14932],[100,15015],[100,15097],[100,15181],[100,15265],[100,15348],[100,15431],[100,15515],[100,15598],[100,15681],[100,15765],[100,15848],[100,15931],[100,16017],[100,16098],[100,16181],[100,16267],[100,16347],[100,16431],[100,16515],[100,16598],[100,16681],[100,16765],[100,16847],[100,16933],[100,17014],[100,17098],[100,17182],[100,17265],[100,17348],[100,17431],[100,17515],[100,17597],[100,17681],[100,17765],[100,17848],[100,17931],[100,18015],[100,18098],[100,18181],[100,18265],[100,18348],[100,18431],[100,18515],[100,18598],[100,18686],[100,18765],[100,18848],[100,18931],[100,19014],[100,19097],[100,19181],[100,19264],[100,19348],[100,19431],[100,19514],[100,19599],[100,19681],[100,19764],[100,19849],[100,19932],[100,20015],[100,20098],[100,20197],[100,20281],[100,20365],[100,20448],[100,20531],[100,20614],[100,20698],[100,20781],[100,20864],[100,20947],[100,21031],[100,21114],[100,21198],[100,21281],[100,21364],[100,21448],[100,21531],[100,21615],[100,21699],[100,21781],[100,21865],[100,21947],[100,22031],[100,22114],[100,22197],[100,22281],[100,22364],[100,22448],[100,22531],[100,22615],[100,22697],[100,22782],[100,22864],[99.9,22948],[99.6,23031],[99.6,23114],[99.6,23198],[99.6,23280],[99.6,23364],[99.6,23448],[99.6,23533],[99.6,23614],[99.6,23698],[99.6,23780],[99.6,23865],[99.6,23947],[99.6,24032],[99.6,24115],[99.6,24197],[99.6,24281],[99.6,24365],[99.6,24447],[99.6,24530],[99.6,24614],[99.6,24697],[99.6,24780],[99.6,24864],[99.6,24947],[99.6,25031],[99.6,25117],[99.6,25198],[99.6,25281],[99.6,25364],[99.6,25448],[99.6,25532],[99.6,25614],[99.6,25698],[99.6,25782],[99.6,25865],[99.6,25947],[99.6,26031],[99.6,26114],[99.6,26198],[99.6,26280],[99.6,26365],[99.6,26447],[99.6,26530],[99.6,26615],[99.6,26697],[99.6,26781],[99.6,26864],[99.6,26947],[99.6,27031],[99.6,27114],[99.6,27197],[99.6,27281],[99.6,27364],[99.6,27448],[99.6,27533],[99.6,27614],[99.6,27698],[99.6,27781],[99.6,27864],[99.6,27948],[99.6,28031],[99.6,28114],[99.6,28197],[99.6,28280],[99.6,28365],[99.6,28447],[99.6,28531],[99.6,28615],[99.6,28698],[99.6,28781],[99.6,28864],[99.6,28948],[99.6,29031],[99.6,29114],[99.6,29198],[99.6,29280],[99.6,29364],[99.6,29448],[99.6,29530],[99.6,29614],[99.5,29698],[99.5,29781],[99.5,29864],[99.5,29949],[99.5,30032],[99.5,30115],[99.5,30197],[99.5,30281],[99.5,30364],[99.5,30448],[99.5,30531],[99.5,30614],[99.5,30698],[99.5,30780],[99.5,30864],[99.5,30950],[99.5,31031],[99.5,31115],[99.5,31197],[99.5,31281],[99.5,31364],[99.5,31447],[99.5,31530],[99.5,31614],[99.5,31697],[99.5,31782],[99.5,31864],[99.5,31948],[99.5,32030],[99.5,32114],[99.5,32197],[99.5,32281],[99.5,32365],[99.5,32447],[99.5,32531],[99.5,32614],[99.5,32698],[99.5,32781],[99.5,32865],[99.5,32950],[99.5,33031],[99.5,33114],[99.5,33197],[99.5,33280],[99.5,33364],[99.5,33448],[99.5,33531],[99.5,33615],[99.5,33697],[99.5,33780],[99.5,33864],[99.5,33948],[99.5,34031],[99.5,34114],[99.5,34197],[99.5,34280],[99.5,34364],[99.5,34447],[99.5,34531],[99.5,34614],[99.5,34698],[99.5,34781],[99.5,34864],[99.5,34948],[99.5,35031],[99.5,35115],[99.5,35197],[99.5,35281],[99.5,35366],[99.5,35448],[99.5,35533],[99.5,35614],[99.5,35697],[99.5,35781],[99.5,35864],[99.5,35948],[99.5,36033],[99.5,36114],[99.5,36197],[99.5,36281],[99.5,36365],[99.5,36448],[99.5,36530],[99.5,36614],[99.5,36698],[99.5,36781],[99.5,36865],[99.5,36948],[99.5,37031],[99.5,37114],[99.5,37197],[99.5,37281],[99.5,37364],[99.5,37447],[99.5,37531],[99.5,37614],[99.5,37697],[99.5,37780],[99.5,37864],[99.5,37947],[99.5,38031],[99.5,38114],[99.5,38197],[99.5,38281],[99.5,38364],[99.5,38448],[99.5,38531],[99.5,38614],[99.5,38697],[99.5,38780],[99.5,38864],[99.5,38948],[99.5,39030],[99.5,39113],[99.5,39197],[99.5,39281],[99.5,39364],[99.5,39448],[99.5,39530],[99.5,39615],[99.5,39697],[99.5,39781],[99.5,39864],[99.5,39948],[99.5,40030],[99.5,40114],[99.5,40198],[99.5,40280],[99.5,40364],[99.5,40447],[99.5,40531],[99.5,40614],[99.5,40698],[99.5,40780],[99.5,40864],[99.5,40947],[99.5,41031],[99.5,41114],[99.5,41197],[99.5,41280],[99.5,41364],[99.5,41447],[99.5,41531],[99.5,41614],[99.5,41697],[99.5,41781],[99.5,41864],[99.5,41947],[99.5,42030],[99.5,42114],[99.5,42197],[99.5,42280],[99.5,42364],[99.5,42447],[99.5,42530],[99.5,42614],[99.5,42698],[99.5,42780],[99.5,42863],[99.5,42947],[99.5,43030],[99.5,43114],[99.5,43197],[99.5,43281],[99.5,43365],[99.5,43447],[99.5,43531],[99.5,43614],[99.5,43697],[99.5,43791],[99.5,43865],[99.5,43947],[99.5,44030],[99.5,44114],[99.5,44197],[99.5,44280],[99.5,44364],[99.5,44447],[99.5,44530],[99.5,44613],[99.5,44697],[99.5,44780],[99.5,44864],[99.5,44947],[99.5,45031],[99.5,45114],[99.5,45197],[99.5,45281],[99.5,45364],[99.5,45447],[99.5,45530],[99.5,45613],[99.5,45697],[99.5,45781],[99.5,45864],[99.5,45947],[99.5,46030],[99.5,46113],[99.5,46197],[99.5,46280],[99.5,46364],[99.5,46447],[99.5,46530],[99.5,46613],[99.5,46697],[99.5,46780],[99.5,46864],[99.5,46947],[99.5,47030],[99.5,47113],[99.5,47197],[99.5,47281],[99.5,47364],[99.5,47447],[99.5,47531],[99.5,47613],[99.5,47697],[99.5,47781],[99.5,47864],[99.5,47947],[99.5,48030],[99.5,48114],[99.5,48197],[99.5,48280],[99.5,48363],[99.5,48447],[99.5,48530],[99.5,48613],[99.5,48697],[99.5,48780],[99.5,48864],[99.5,48947],[99.5,49030],[99.5,49115],[99.5,49197],[99.5,49280],[99.5,49364],[99.5,49447],[99.5,49530],[99.5,49613],[99.5,49698],[99.5,49781],[99.5,49863],[99.5,49947],[99.5,50030],[99.5,50114],[99.5,50197],[99.5,50281],[99.5,50364],[99.5,50447],[99.5,50530],[99.5,50615],[99.5,50696],[99.5,50780],[99.5,50863],[99.5,50948],[99.5,51030],[99.5,51114],[99.5,51197],[99.5,51280],[99.5,51363],[99.5,51447],[99.5,51530],[99.5,51613],[99.5,51697],[99.5,51780],[99.5,51863],[99.5,51947],[99.5,52030],[99.5,52113],[99.5,52197],[99.5,52281],[99.5,52364],[99.5,52446],[99.5,52531],[99.5,52613],[99.5,52698],[99.5,52781],[99.5,52864],[99.5,52947],[99.5,53031],[99.5,53114],[99.5,53197],[99.5,53280],[99.5,53364],[99.5,53447],[99.5,53530],[99.5,53615],[99.5,53696],[99.5,53781],[99.5,53864],[99.5,53946],[99.5,54030],[99.5,54114],[99.5,54197],[99.5,54280],[99.5,54364],[99.5,54447],[99.5,54531],[99.5,54613],[99.5,54697],[99.5,54782],[99.5,54863],[99.5,54947],[99.5,55030],[99.5,55114],[99.5,55197],[99.5,55280],[99.5,55364],[99.5,55447],[99.5,55530],[99.5,55613],[99.5,55697],[99.5,55780],[99.5,55864]]",282.2641,286.547,99.59187826,3.6803,"[{""rating"":98.97392272949219,""responseTime"":3.127200000017865},{""rating"":99.59187825520833,""responseTime"":3.6803000000119255}]",space,3.7389,,286.5472,Definitely yes,100,286.5523,,,[],,0,1,1,1,1,audio/Narrative7Situation1.wav,audio/Narrative8Situation1.wav,audio/Narrative5Situation1.wav,audio/Narrative6Situation1.wav,2,5,5,2,1.7874,,,,,,,,,,,,,,,,,,,,,,,,,,,,,,,,,,,,,,
,,,,,63eda5a4a87d8bd73853fa8e,2025-07-07_19h59.42.294,group3.4_multiperson,2023.2.2,Linux x86_64,59.88023952,686c2ebf0248f13bef9af11f,686c8937dec29fd140e24920,,,,,,,,,,,,,,,,,,,,,,,,,,,,,286.5528,1,audio/Narrative7Situation2.wav,289.5633,,289.5634,297.0467,"[[999,1],[999,83],[999,166],[999,249],[999,333],[999,415],[999,499],[999,583],[999,666],[999,749],[999,833],[999,916],[999,1000],[999,1083],[999,1166],[999,1250],[999,1332],[999,1415],[999,1499],[999,1583],[999,1665],[999,1749],[999,1833],[100,1916],[100,1999],[100,2083],[100,2166],[100,2249],[100,2335],[100,2416],[100,2499],[100,2583],[100,2666],[100,2749],[100,2833],[100,2916],[100,2999],[100,3083],[100,3166],[100,3249],[100,3332],[100,3416],[100,3499],[100,3582],[100,3667],[100,3749],[100,3833],[100,3916],[100,3999],[100,4082],[100,4166],[100,4249],[100,4333],[100,4417],[100,4499],[100,4583],[100,4667],[100,4749],[100,4835],[100,4916],[100,5000],[100,5082],[100,5166],[100,5249],[100,5333],[100,5416],[100,5499],[100,5582],[100,5666],[100,5749],[100,5832],[100,5917],[100,5999],[100,6082],[100,6167],[100,6249],[100,6333],[100,6415],[100,6500],[100,6583],[100,6666],[100,6749],[100,6832],[100,6915],[100,7000],[100,7083],[100,7166],[100,7249],[100,7333],[100,7416]]",297.0469,301.5642,96.91878001,3.4112,"[{""rating"":97.43849436442058,""responseTime"":2.2815999999940573},{""rating"":96.91878000895183,""responseTime"":3.411199999988071}]",space,3.9699,,301.5644,Definitely yes,100,301.5724,,,[],,0,2,2,2,1,audio/Narrative7Situation2.wav,audio/Narrative8Situation2.wav,audio/Narrative5Situation2.wav,audio/Narrative6Situation2.wav,3,3,3,3,,,,,,,,,,,,,,,,,,,,,,,,,,,,,,,,,,,,,,,
,,,,,63eda5a4a87d8bd73853fa8e,2025-07-07_19h59.42.294,group3.4_multiperson,2023.2.2,Linux x86_64,59.88023952,686c2ebf0248f13bef9af11f,686c8937dec29fd140e24920,,,,,,,,,,,,,,,,,,,,,,,,,,,,,301.573,1,audio/Narrative7Situation3.wav,309.5791,,309.5791,318.8516,"[[999,0],[999,83],[999,166],[999,250],[999,333],[999,416],[999,500],[999,583],[999,666],[999,751],[999,833],[999,917],[999,1000],[999,1083],[999,1167],[999,1250],[999,1334],[999,1416],[999,1500],[999,1582],[999,1666],[999,1749],[999,1833],[999,1917],[999,2000],[72.4,2083],[76.2,2166],[80,2249],[98.2,2750],[99.9,2834],[100,2916],[96.7,3024],[95.4,3100],[96.5,3183],[98.5,3266],[100,3350],[100,3433],[100,3517],[100,3600],[100,3684],[100,3767],[100,3849],[100,3933],[100,4016],[100,4100],[100,4183],[100,4266],[100,4350],[100,4433],[100,4517],[100,4600],[100,4684],[100,4766],[100,4850],[100,4933],[100,5016],[100,5100],[100,5184],[100,5266],[100,5349],[100,5433],[100,5517],[100,5600],[100,5683],[100,5766],[100,5850],[100,5933],[100,6016],[100,6099],[100,6184],[100,6266],[100,6351],[100,6433],[100,6516],[100,6599],[100,6683],[100,6765],[100,6849],[100,6934],[100,7016],[100,7101],[100,7182],[100,7266],[100,7349],[100,7433],[100,7516],[100,7600],[100,7683],[100,7766],[100,7849],[100,7933],[100,8017],[100,8099],[100,8184],[100,8266],[100,8349],[100,8432],[100,8516],[100,8599],[100,8683],[100,8766],[100,8849],[100,8933],[100,9016],[100,9099],[100,9184],[100,9271]]",318.8522,322.2293,98.68312836,2.8748,"[{""rating"":98.6831283569336,""responseTime"":2.8748000000118736}]",space,2.8319,,322.2295,Not at all,0,322.2391,,,[],,0,3,3,3,1,audio/Narrative7Situation3.wav,audio/Narrative8Situation3.wav,audio/Narrative5Situation3.wav,audio/Narrative6Situation3.wav,8,4,3,5,,,,,,,,,,,,,,,,,,,,,,,,,,,,,,,,,,,,,,,
,,,,,63eda5a4a87d8bd73853fa8e,2025-07-07_19h59.42.294,group3.4_multiperson,2023.2.2,Linux x86_64,59.88023952,686c2ebf0248f13bef9af11f,686c8937dec29fd140e24920,,,,,,,,,,,,,,,,,,,,,,,,,,,,,322.2398,1,audio/Narrative7Situation4.wav,325.2458,,325.2459,336.9827,"[[99.1,1099],[99.2,1182],[99.2,1265],[99.2,1349],[99.2,1432],[99.2,1518],[99.2,1600],[99.2,1683],[99.2,1766],[99.2,1850],[99.2,1932],[99.2,2016],[99.2,2099],[99.2,2183],[99.2,2267],[99.2,2349],[99.2,2432],[99.2,2516],[99.2,2599],[99.2,2682],[99.2,2766],[99.2,2849],[99.2,2932],[99.2,3016],[99.2,3099],[99.2,3183],[99.2,3266],[99.2,3349],[99.2,3433],[99.2,3515],[99.2,3600],[99.2,3683],[99.2,3766],[99.2,3849],[99.2,3932],[99.2,4016],[99.2,4099],[99.2,4183],[99.2,4265],[99.2,4350],[99.2,4432],[99.2,4516],[99.2,4599],[99.2,4682],[99.2,4766],[99.2,4850],[99.2,4932],[99.2,5016],[99.2,5099],[99.2,5183],[99.2,5267],[99.2,5349],[99.2,5433],[99.2,5516],[99.2,5599],[99.2,5682],[99.2,5766],[99.2,5849],[99.2,5933],[99.2,6016],[99.2,6099],[99.2,6182],[99.2,6267],[99.2,6349],[99.2,6432],[99.2,6516],[99.2,6600],[99.2,6682],[99.2,6768],[99.2,6849],[99.2,6933],[99.2,7016],[99.2,7099],[99.2,7182],[99.2,7265],[99.2,7348],[99.2,7433],[99.2,7516],[99.2,7599],[99.2,7682],[99.2,7765],[99.2,7849],[99.2,7932],[99.2,8016],[99.2,8099],[99.2,8182],[99.2,8266],[99.2,8349],[99.2,8432],[99.2,8516],[99.2,8599],[99.2,8683],[99.2,8766],[99.2,8849],[99.2,8932],[99.2,9016],[99.2,9099],[99.2,9182],[99.2,9265],[99.2,9349],[99.2,9432],[99.2,9515],[99.2,9600],[99.2,9683],[99.2,9766],[99.2,9848],[99.2,9932],[99.2,10016],[99.2,10099],[99.2,10182],[99.2,10267],[99.2,10349],[99.2,10432],[99.2,10516],[99.2,10599],[99.2,10682],[99.2,10766],[99.2,10848],[99.2,10932],[99.2,11016],[99.2,11099],[99.2,11183],[99.2,11265],[99.2,11349],[99.2,11432],[99.2,11515],[99.2,11599],[99.2,11683]]",336.9833,338.0459,99.19801076,0.7548,"[{""rating"":99.19801076253255,""responseTime"":0.589200000017911},{""rating"":99.19801076253255,""responseTime"":0.6073000000119464},{""rating"":99.19801076253255,""responseTime"":0.7548000000119259}]",space,0.5225,,338.0459,Not at all,0,338.0483,,,[],,0,4,4,4,1,audio/Narrative7Situation4.wav,audio/Narrative8Situation4.wav,audio/Narrative5Situation4.wav,audio/Narrative6Situation4.wav,3,3,1,2,,,,,,,,,,,,,,,,,,,,,,,,,,,,,,,,,,,,,,,
,,,,,63eda5a4a87d8bd73853fa8e,2025-07-07_19h59.42.294,group3.4_multiperson,2023.2.2,Linux x86_64,59.88023952,686c2ebf0248f13bef9af11f,686c8937dec29fd140e24920,,,,,,,,,,,,,,,,,,,,,,,,,,,,,338.0489,1,audio/Narrative7Situation5.wav,343.0621,,343.0623,351.5616,"[[98.3,2666],[98.3,2749],[98.2,2832],[97.6,2916],[94.3,3000],[92.7,3082],[92.7,3166],[92.7,3249],[92.7,3332],[92.7,3416],[92.7,3499],[92.7,3582],[92.7,3665],[92.7,3749],[92.7,3832],[92.7,3916],[92.7,3999],[92.7,4082],[92.7,4165],[92.7,4249],[92.7,4333],[92.7,4416],[92.7,4499],[92.7,4583],[92.7,4665],[92.7,4750],[92.7,4833],[92.7,4916],[92.7,4999],[92.7,5083],[92.7,5166],[92.7,5249],[92.7,5332],[92.7,5416],[92.7,5499],[92.7,5583],[92.7,5665],[92.7,5748],[92.7,5833],[92.7,5916],[92.7,5998],[92.7,6082],[92.7,6165],[92.7,6248],[92.7,6332],[92.7,6416],[92.7,6499],[92.7,6583],[92.7,6666],[92.7,6748],[92.7,6832],[92.7,6915],[92.7,6999],[92.7,7085],[92.7,7165],[92.8,7249],[92.8,7332],[92.8,7416],[92.8,7499],[92.8,7582],[92.8,7665],[92.8,7748],[92.8,7833],[92.8,7916],[92.8,7998],[92.8,8082],[92.8,8165],[92.8,8249],[92.8,8332],[92.8,8416],[92.8,8499]]",351.5618,355.9952,99.77264404,3.196,"[{""rating"":99.77264404296875,""responseTime"":3.1960000000000264}]",space,3.8851,,355.9954,Not at all,0,355.9982,,,[],,0,5,5,5,1,audio/Narrative7Situation5.wav,audio/Narrative8Situation5.wav,audio/Narrative5Situation5.wav,audio/Narrative6Situation5.wav,5,2,5,2,,,,,,,,,,,,,,,,,,,,,,,,,,,,,,,,,,,,,,,
,,,,,63eda5a4a87d8bd73853fa8e,2025-07-07_19h59.42.294,group3.4_multiperson,2023.2.2,Linux x86_64,59.88023952,686c2ebf0248f13bef9af11f,686c8937dec29fd140e24920,,,,,,,,,,,,,,,,,,,,,,,,,,,,,355.9986,1,audio/Narrative7Situation6.wav,359.0113,,359.0114,368.995,"[[99.5,1167],[99.5,1249],[99.5,1333],[99.5,1416],[99.5,1499],[99.5,1583],[99.5,1666],[99.5,1750],[99.5,1836],[99.5,1916],[99.5,1999],[99.5,2087],[99.5,2166],[99.5,2250],[99.5,2333],[99.5,2416],[99.5,2499],[99.5,2583],[99.5,2666],[99.5,2749],[99.5,2833],[99.5,2916],[99.5,3000],[99.5,3083],[99.5,3167],[99.5,3251],[99.5,3332],[99.5,3416],[99.5,3500],[99.5,3583],[99.5,3666],[99.5,3750],[99.5,3833],[99.5,3915],[99.5,4000],[99.5,4082],[99.5,4166],[99.5,4249],[99.5,4333],[99.5,4416],[99.5,4499],[99.5,4583],[99.5,4666],[99.5,4749],[99.5,4833],[99.5,4916],[99.5,4999],[99.5,5082],[99.5,5166],[99.5,5249],[99.5,5333],[99.5,5416],[99.5,5499],[99.5,5582],[99.5,5666],[99.5,5749],[99.5,5832],[99.5,5917],[99.5,6000],[99.5,6083],[99.5,6166],[99.5,6249],[99.5,6332],[99.5,6416],[99.5,6499],[99.5,6583],[99.5,6666],[99.5,6750],[99.5,6833],[99.5,6916],[99.5,6999],[99.5,7082],[99.5,7166],[99.5,7249],[99.5,7333],[99.5,7416],[99.5,7499],[99.5,7583],[99.5,7666],[99.5,7749],[99.5,7832],[99.5,7916],[99.5,8000],[99.5,8082],[99.5,8166],[99.5,8249],[99.5,8332],[99.5,8416],[99.5,8500],[99.5,8582],[99.5,8666],[99.5,8749],[99.5,8833],[99.5,8916],[99.5,9000],[99.5,9082],[99.5,9166],[99.5,9249],[99.5,9333],[99.5,9415],[99.5,9500],[99.5,9583],[99.5,9666],[99.5,9750],[99.5,9832],[99.5,9915]]",368.995,372.1947,99.47695414,2.611,"[{""rating"":99.47695414225261,""responseTime"":2.61099999999999}]",space,2.653,,372.1954,Partially,50,372.2035,,,[],,0,6,6,6,1,audio/Narrative7Situation6.wav,audio/Narrative8Situation6.wav,audio/Narrative5Situation6.wav,audio/Narrative6Situation6.wav,3,2,3,2,,,,,,,,,,,,,,,,,,,,,,,,,,,,,,,,,,,,,,,
,,,,,63eda5a4a87d8bd73853fa8e,2025-07-07_19h59.42.294,group3.4_multiperson,2023.2.2,Linux x86_64,59.88023952,686c2ebf0248f13bef9af11f,686c8937dec29fd140e24920,,,,,,,,,,,,,,,,,,,,,,,,,,,,,372.2041,1,audio/Narrative7Situation7.wav,377.2111,,377.2111,394.3936,"[[99.5,11917],[99.5,11999],[99.5,12082],[99.5,12165],[99.5,12249],[100,12333],[100,12666],[100,12749],[99.4,12832],[99.1,12915],[99.1,12999],[99.2,13082],[99.2,13167],[99.2,13249],[99.2,13333],[99.2,13416],[99.2,13499],[99.2,13583],[99.2,13666],[99.4,13752],[99.5,13832],[99.5,13916],[99.5,13999],[99.5,14082],[99.5,14166],[99.5,14250],[99.5,14332],[99.5,14415],[99.5,14499],[99.5,14582],[99.5,14666],[99.5,14748],[99.5,14833],[99.5,14915],[99.5,14999],[99.5,15082],[99.5,15166],[99.5,15249],[99.5,15332],[99.5,15415],[99.5,15499],[99.5,15583],[99.5,15666],[99.5,15749],[99.5,15832],[99.5,15915],[99.5,15999],[99.5,16082],[99.5,16166],[99.5,16249],[99.5,16332],[99.5,16415],[99.5,16499],[99.5,16582],[99.5,16665],[99.5,16749],[99.5,16832],[99.5,16915],[99.5,16999],[99.5,17082],[99.5,17166]]",394.3937,398.2269,100,3.3112,"[{""rating"":98.07885487874348,""responseTime"":1.7111999999880823},{""rating"":100,""responseTime"":3.311199999988105}]",space,3.301,,398.227,Definitely yes,100,398.232,,,[],,0,7,7,7,1,audio/Narrative7Situation7.wav,audio/Narrative8Situation7.wav,audio/Narrative5Situation7.wav,audio/Narrative6Situation7.wav,5,3,4,5,,,,,,,,,,,,,,,,,,,,,,,,,,,,,,,,,,,,,,,
,,,,,63eda5a4a87d8bd73853fa8e,2025-07-07_19h59.42.294,group3.4_multiperson,2023.2.2,Linux x86_64,59.88023952,686c2ebf0248f13bef9af11f,686c8937dec29fd140e24920,,,,,,,,,,,,,,,,,,,,,,,,,,,,,398.2325,1,audio/Narrative7Situation8.wav,400.2442,,400.2442,410.2602,"[[100,2599],[100,2682],[100,2766],[100,2849],[100,2932],[100,3015],[100,3099],[100,3182],[100,3265],[100,3349],[100,3432],[100,3515],[100,3599],[99.5,3683],[99.2,3766],[98.3,3849],[96.2,3933],[75.5,4849],[68,4945],[64.9,5016],[64.5,5099],[64.2,5182],[64.2,5266]]",410.2604,413.4933,99.64302063,2.4655,"[{""rating"":99.64302062988281,""responseTime"":2.46550000000002}]",space,2.6664,,413.4933,Not at all,0,426.4009,0.327030818,12.2596,"[{""rating"":1.6225528717041027,""responseTime"":11.66250000000008},{""rating"":0.3270308176676451,""responseTime"":12.259600000023909}]",space,0,8,8,8,1,audio/Narrative7Situation8.wav,audio/Narrative8Situation8.wav,audio/Narrative5Situation8.wav,audio/Narrative6Situation8.wav,2,3,3,5,,,12.372,,,,,,,,,,,,,,,,,,,,,,,,,,,,,,,,,,,,
,,,,,63eda5a4a87d8bd73853fa8e,2025-07-07_19h59.42.294,group3.4_multiperson,2023.2.2,Linux x86_64,59.88023952,686c2ebf0248f13bef9af11f,686c8937dec29fd140e24920,,,,,,,,,,,,,,,,,,,,,,,,,,,,,426.4017,1,audio/Narrative7Situation9.wav,428.4112,,428.4113,437.0432,"[[1.7,331],[4.9,415],[10.9,498],[16.1,582],[25.6,667],[29.2,750],[37.9,834],[96.9,1415],[97,1499],[98.7,1581],[99.2,1665],[99.7,1747],[99.8,1831],[99.8,1915],[99.8,1998],[99.7,2081],[99.7,2165],[99.7,2247],[99.7,2331],[99.7,2415],[99.7,2498],[99.7,2582],[99.7,2666],[99.7,2749],[99.7,2831],[99.7,2915],[99.7,2997],[99.7,3081],[99.7,3165],[99.7,3247],[99.7,3332],[99.7,3414],[99.7,3498],[99.7,3582],[99.7,3664],[99.7,3749],[99.7,3831],[99.7,3915],[99.7,3998],[99.7,4082],[99.7,4164],[99.7,4248],[99.7,4331],[99.7,4415],[99.7,4498],[99.7,4581],[99.7,4666],[99.7,4747],[99.7,4831],[99.7,4915],[99.7,4998],[99.7,5081],[99.7,5165],[99.7,5248],[99.7,5332],[99.7,5414],[99.7,5498],[99.7,5581],[99.7,5665],[99.7,5748],[99.7,5832],[99.7,5914],[99.7,5998],[99.7,6081],[99.7,6164],[99.7,6248],[99.7,6331],[99.7,6414],[99.7,6497],[99.7,6581],[99.7,6664],[99.7,6748],[99.7,6831],[99.7,6914],[99.7,6998],[99.7,7081],[99.7,7171],[99.7,7248],[99.7,7331],[99.7,7415],[99.7,7497],[99.7,7582],[99.7,7665],[99.7,7750],[99.7,7831],[99.7,7915],[99.7,8000],[99.7,8081],[99.7,8164],[99.7,8248],[99.7,8331],[99.7,8414],[99.7,8498],[99.7,8582]]",437.0434,444.9257,100,7.1122,"[{""rating"":98.73589833577473,""responseTime"":5.745400000005986},{""rating"":100,""responseTime"":7.112199999988036}]",space,7.3336,,444.9259,Partially,50,444.9317,,,[],,0,9,9,9,1,audio/Narrative7Situation9.wav,audio/Narrative8Situation9.wav,audio/Narrative5Situation9.wav,audio/Narrative6Situation9.wav,2,3,3,4,,,,,,,,,,,,,,,,,,,,,,,,,,,,,,,,,,,,,,,
,,,,,63eda5a4a87d8bd73853fa8e,2025-07-07_19h59.42.294,group3.4_multiperson,2023.2.2,Linux x86_64,59.88023952,686c2ebf0248f13bef9af11f,686c8937dec29fd140e24920,,,,,,,,,,,,,,,,,,,,,,,,,,,,,444.9323,1,audio/Narrative8Situation1.wav,449.9425,,449.9425,465.8757,"[[98.7,2166],[100,2249],[100,2333],[97.3,3084],[94.6,3166],[98.8,3500],[99.2,3583],[99.4,3674],[99.5,3749],[99.5,3833],[99.5,3916],[99.5,4000],[99.4,4083],[99.4,4166],[99.4,4249],[99.4,4332],[99.5,4416],[99.7,4500],[99.8,4582],[99.8,4666],[99.8,4751],[99.8,4833],[99.8,4916],[99.8,5000],[99.8,5082],[99.8,5167],[99.8,5249],[99.8,5332],[99.8,5416],[99.8,5499],[99.8,5582],[99.8,5666],[99.8,5749],[99.7,5832],[99.7,5916],[99.7,5999],[99.7,6083],[99.7,6166],[99.7,6250],[99.7,6332],[99.7,6416],[99.7,6499],[99.7,6583],[99.7,6666],[99.7,6749],[99.7,6833],[99.7,6916],[99.7,6999],[99.7,7082],[99.7,7167],[99.7,7249],[99.7,7333],[99.7,7416],[99.7,7499],[99.7,7582],[99.7,7666],[99.7,7749],[99.7,7832],[99.7,7916],[99.7,7999],[99.7,8082],[99.7,8166],[99.7,8249],[99.7,8335],[99.7,8416],[99.7,8500],[99.7,8582],[99.7,8666],[99.7,8749],[99.7,8832],[99.7,8916],[99.7,9000],[99.7,9083],[99.7,9166],[99.7,9249],[99.7,9333],[99.7,9416],[99.7,9499],[99.7,9583],[99.7,9666],[99.7,9749],[99.7,9832],[99.7,9916],[99.7,9998],[99.7,10082],[99.7,10166],[99.7,10249],[99.7,10332],[99.7,10416],[99.7,10499],[99.7,10583],[99.7,10666],[99.7,10749],[99.7,10832],[99.7,10916],[99.7,10999],[99.7,11082],[99.7,11165],[99.7,11250],[99.7,11333],[99.7,11416],[99.7,11499],[99.7,11582],[99.7,11667],[99.7,11749],[99.7,11833],[99.7,11916],[99.7,12000],[99.7,12082],[99.7,12165],[99.7,12249],[99.7,12333],[99.7,12416],[99.7,12499],[99.7,12584],[99.7,12666],[99.7,12750],[99.7,12832],[99.7,12916],[99.7,12999],[99.7,13084],[99.7,13166],[99.7,13250],[99.7,13333],[99.7,13417],[99.7,13499],[99.7,13582],[99.7,13665],[99.7,13749],[99.7,13832],[99.7,13916],[99.7,13999],[99.7,14083],[99.7,14165],[99.7,14249],[99.7,14332],[99.7,14416],[99.7,14499],[99.7,14582],[99.7,14666],[99.7,14749],[99.7,14832],[99.7,14916],[99.7,15002],[99.7,15082],[99.7,15165],[99.7,15249],[99.7,15332],[99.7,15416],[99.7,15499],[99.7,15583],[99.7,15665],[99.7,15749],[99.7,15832],[99.7,15916]]",465.8759,478.1582,100,7.7102,"[{""rating"":98.57285817464192,""responseTime"":6.797099999994089},{""rating"":100,""responseTime"":7.710199999988163}]",space,11.7502,,478.1584,Not at all,0,478.1631,,,[],,0,10,10,10,1,audio/Narrative8Situation1.wav,audio/Narrative7Situation1.wav,audio/Narrative6Situation1.wav,audio/Narrative5Situation1.wav,5,2,2,5,,,,,,,,,,,,,,,,,,,,,,,,,,,,,,,,,,,,,,,
,,,,,63eda5a4a87d8bd73853fa8e,2025-07-07_19h59.42.294,group3.4_multiperson,2023.2.2,Linux x86_64,59.88023952,686c2ebf0248f13bef9af11f,686c8937dec29fd140e24920,,,,,,,,,,,,,,,,,,,,,,,,,,,,,478.1635,1,audio/Narrative8Situation2.wav,481.1748,,481.1748,491.3089,"[[999,0],[999,83],[999,167],[999,250],[999,336],[999,416],[999,500],[999,583],[999,667],[999,750],[999,834],[999,916],[999,1000],[999,1083],[999,1166],[999,1250],[999,1333],[999,1417],[999,1500],[999,1582],[999,1666],[999,1749],[999,1833],[999,1917],[999,2000],[999,2084],[999,2166],[999,2250],[98.8,2333],[99,2417],[99.3,2500],[99.3,2582],[99.3,2666],[100,2750],[100,2833],[100,2916],[100,3000],[100,3083],[100,3166],[100,3250],[100,3333],[100,3416],[100,3500],[100,3583],[100,3666],[100,3750],[100,3833],[100,3916],[100,4000],[100,4083],[100,4166],[100,4249],[100,4333],[100,4416],[100,4500],[100,4583],[100,4666],[100,4749],[100,4833],[100,4916],[100,5000],[100,5083],[100,5166],[100,5250],[100,5338],[100,5416],[100,5500],[100,5583],[100,5666],[100,5750],[100,5833],[100,5917],[100,5999],[100,6083],[100,6166],[100,6250],[100,6332],[100,6416],[100,6501],[100,6583],[100,6666],[100,6750],[100,6833],[100,6916],[100,7000],[100,7083],[100,7166],[100,7250],[100,7333],[100,7417],[100,7499],[100,7583],[100,7666],[100,7749],[100,7832],[100,7916],[100,7999],[100,8082],[100,8167],[100,8250],[100,8333],[100,8416],[100,8500],[99.6,8584],[89,8666],[85.7,8751],[75.6,8834],[28.1,9249],[24,9333],[16.3,9417],[9.7,9500],[7.7,9582],[5.9,9666],[4.1,9749],[4,9833],[2.4,9916],[0.9,10000],[0.7,10082]]",491.309,494.2246,0.610745748,1.1768,"[{""rating"":0.6107457478841172,""responseTime"":1.1767999999821086}]",space,2.3729,,494.2247,Partially,50,494.2279,,,[],,0,11,11,11,1,audio/Narrative8Situation2.wav,audio/Narrative7Situation2.wav,audio/Narrative6Situation2.wav,audio/Narrative5Situation2.wav,3,3,3,3,,,,,,,,,,,,,,,,,,,,,,,,,,,,,,,,,,,,,,,
,,,,,63eda5a4a87d8bd73853fa8e,2025-07-07_19h59.42.294,group3.4_multiperson,2023.2.2,Linux x86_64,59.88023952,686c2ebf0248f13bef9af11f,686c8937dec29fd140e24920,,,,,,,,,,,,,,,,,,,,,,,,,,,,,494.2283,1,audio/Narrative8Situation3.wav,498.2411,,498.2412,520.6265,"[[999,0],[999,83],[999,166],[999,249],[999,332],[999,416],[999,500],[999,583],[999,668],[999,750],[999,832],[999,917],[999,999],[999,1083],[97.5,1166],[99.1,1250],[99.1,1333],[99.1,1416],[99.1,1500],[99.3,1583],[99.6,1666],[99.4,1749],[77.2,1833],[55.4,1916],[47.2,2000],[36.2,2083],[28.1,2166],[28,2249],[28,2333],[25.1,2416],[24.3,2500],[24.3,2582],[24,2666],[24,2749],[24,2832],[24,2916],[24,2999],[24,3085],[24,3166],[24,3250],[24,3332],[24,3416],[24,3499],[24,3582],[24,3666],[24,3752],[24,3833],[24,3917],[24,3999],[24,4082],[24,4166],[24,4249],[24,4332],[24,4417],[24,4500],[24,4583],[24,4666],[24,4750],[24,4833],[24,4916],[24,4999],[24,5083],[24,5166],[24,5249],[24,5332],[24,5416],[24,5499],[24,5582],[24,5665],[24,5749],[24,5833],[24,5916],[24,5999],[24,6083],[24,6167],[24,6250],[24,6333],[24,6416],[24,6499],[24,6583],[24,6666],[24,6750],[24,6832],[24,6915],[24,6999],[24,7082],[24,7165],[24,7249],[24,7333],[24,7416],[24,7499],[24,7582],[24,7666],[24,7749],[24,7833],[24,7916],[24,7999],[24,8082],[24,8166],[24,8249],[24,8333],[24,8416],[24,8500],[24,8582],[24,8667],[24,8750],[24,8833],[24,8916],[24,8999],[24,9082],[24,9166],[24,9249],[24,9333],[24,9416],[24,9499],[24,9583],[24,9666],[24,9749],[24,9832],[24,9916],[24,10000],[24,10082],[24,10166],[24,10250],[24,10332],[24,10417],[24,10499],[24,10582],[24,10666],[24,10749],[24,10833],[24,10916],[24,10999],[24,11082],[24,11165],[24,11249],[24,11333],[24.1,11416],[24.4,11499],[24.6,11582],[25.2,11666],[25.5,11749],[25.5,11832],[25.5,11915],[25.5,11999],[25.5,12083],[25.5,12166],[25.5,12249],[25.5,12333],[25.5,12417],[25.5,12500],[25.5,12582],[25.5,12665],[25.5,12749],[25.8,12833],[26.5,12916],[29.4,13000],[64.9,13250],[70,13333],[75.2,13416],[82,13500],[89.4,13582],[92.5,13666],[96.4,13749],[98,13833],[100,13916],[100,13999],[100,14082],[100,14166],[100,14249],[100,14333],[100,14416],[100,14499],[100,14582],[100,14666],[100,14749],[100,14835],[100,14915],[100,14999],[100,15082],[100,15166],[100,15249],[100,15332],[100,15416],[100,15499],[100,15582],[100,15665],[100,15750],[100,15833],[100,15916],[100,15999],[100,16082],[100,16166],[100,16249],[100,16332],[100,16416],[100,16499],[100,16582],[100,16666],[100,16750],[100,16833],[100,16916],[100,17000],[100,17083],[100,17165],[100,17249],[100,17332],[100,17415],[100,17499],[100,17583],[100,17666],[100,17749],[100,17832],[100,17915],[100,18000],[100,18082],[100,18166],[100,18250],[100,18332],[100,18416],[100,18499],[100,18582],[100,18665],[100,18749],[100,18833],[100,18916],[100,18999],[100,19082],[100,19166],[100,19249],[100,19332],[100,19416],[100,19499],[100,19582],[100,19665],[100,19749],[100,19835],[100,19915],[100,19998],[100,20082],[100,20166],[100,20249],[100,20333],[100,20415],[100,20499],[100,20582],[100,20665],[100,20749],[100,20833],[100,20916],[100,20999],[100,21082],[100,21165],[100,21249],[100,21332],[100,21416],[100,21499],[100,21583],[100,21665],[100,21749],[100,21832],[100,21915],[100,21999],[100,22081],[100,22166],[100,22249],[100,22332]]",520.627,522.674,99.57586924,1.5238,"[{""rating"":99.57586924235027,""responseTime"":1.5237999999820886}]",space,1.5032,,522.674,Partially,50,522.6771,,,[],,0,12,12,12,1,audio/Narrative8Situation3.wav,audio/Narrative7Situation3.wav,audio/Narrative6Situation3.wav,audio/Narrative5Situation3.wav,4,8,5,3,,,,,,,,,,,,,,,,,,,,,,,,,,,,,,,,,,,,,,,
,,,,,63eda5a4a87d8bd73853fa8e,2025-07-07_19h59.42.294,group3.4_multiperson,2023.2.2,Linux x86_64,59.88023952,686c2ebf0248f13bef9af11f,686c8937dec29fd140e24920,,,,,,,,,,,,,,,,,,,,,,,,,,,,,522.6776,1,audio/Narrative8Situation4.wav,525.6909,,525.691,539.8736,"[[999,0],[999,82],[999,166],[999,249],[999,332],[999,417],[999,499],[999,582],[999,667],[999,749],[999,833],[999,916],[999,999],[999,1082],[999,1165],[999,1249],[999,1332],[999,1415],[999,1499],[999,1582],[999,1665],[999,1749],[999,1832],[999,1915],[999,1999],[999,2082],[999,2166],[999,2249],[999,2332],[999,2415],[999,2499],[999,2582],[999,2665],[999,2751],[999,2832],[999,2916],[999,2999],[999,3083],[999,3165],[999,3249],[999,3333],[999,3415],[999,3499],[999,3583],[999,3665],[999,3749],[999,3832],[999,3915],[999,3999],[999,4082],[999,4165],[999,4249],[999,4332],[999,4416],[999,4498],[999,4582],[999,4667],[999,4749],[999,4832],[999,4915],[999,4999],[999,5082],[999,5165],[999,5249],[999,5332],[999,5416],[999,5499],[999,5582],[999,5666],[999,5748],[999,5832],[999,5915],[999,6000],[999,6082],[999,6165],[999,6249],[999,6332],[999,6415],[999,6498],[999,6582],[999,6666],[999,6749],[999,6832],[999,6916],[999,6999],[999,7082],[999,7166],[999,7249],[999,7332],[999,7415],[999,7501],[999,7583],[999,7665],[999,7749],[999,7832],[999,7916],[999,7999],[999,8082],[999,8166],[999,8250],[999,8333],[999,8415],[999,8500],[999,8582],[999,8665],[999,8748],[999,8832],[999,8915],[999,9000],[999,9082],[999,9165],[999,9248],[999,9332],[999,9416],[999,9499],[999,9582],[999,9665],[999,9748],[999,9832],[999,9915],[999,9999],[999,10082],[999,10166],[999,10248],[999,10332],[999,10415],[999,10499],[999,10582],[100,10666],[100,10749],[100,10832],[100,10916],[100,10999],[100,11083],[100,11166],[100,11251],[100,11331],[100,11415],[100,11499],[100,11582],[100,11666],[100,11749],[100,11832],[100,11916],[100,12000],[100,12082],[100,12165],[100,12249],[100,12332],[100,12415],[100,12500],[100,12582],[100,12665],[100,12751],[100,12832],[100,12916],[100,12998],[100,13081],[100,13165],[100,13248],[100,13332],[100,13415],[100,13501],[100,13582],[100,13665],[100,13749],[100,13831],[100,13915],[100,13999],[100,14082],[100,14165]]",539.8737,542.0239,99.65156555,1.4273,"[{""rating"":99.65156555175781,""responseTime"":1.4273000000118827}]",space,1.5997,,542.0239,Not at all,0,542.0294,,,[],,0,13,13,13,1,audio/Narrative8Situation4.wav,audio/Narrative7Situation4.wav,audio/Narrative6Situation4.wav,audio/Narrative5Situation4.wav,3,3,2,1,,,,,,,,,,,,,,,,,,,,,,,,,,,,,,,,,,,,,,,
,,,,,63eda5a4a87d8bd73853fa8e,2025-07-07_19h59.42.294,group3.4_multiperson,2023.2.2,Linux x86_64,59.88023952,686c2ebf0248f13bef9af11f,686c8937dec29fd140e24920,,,,,,,,,,,,,,,,,,,,,,,,,,,,,542.0298,1,audio/Narrative8Situation5.wav,544.0414,,544.0416,552.2922,"[[100,583],[100,668],[100,750],[100,833],[100,915],[100,998],[100,1082],[100,1165],[100,1249],[100,1331],[100,1415],[100,1498],[100,1582],[100,1665],[100,1748],[100,1831],[100,1915],[100,1998],[100,2082],[100,2165],[100,2248],[100,2331],[100,2414],[100,2498],[100,2581],[100,2665],[100,2748],[100,2831],[100,2916],[98.3,2998],[98,3081],[97.9,3164],[97.9,3248],[99.1,3332],[99.6,3415],[99.6,3498],[99.6,3581],[99.6,3665],[99.6,3747],[99.6,3831],[99.6,3915],[99.6,3998],[99.7,4082],[99.7,4164],[99.7,4248],[99.7,4331],[99.7,4414],[99.7,4497],[99.7,4581],[99.7,4665],[99.7,4748],[99.7,4831],[99.7,4915],[99.7,4998],[99.7,5081],[99.7,5164],[99.7,5248],[99.7,5332],[99.7,5414],[99.7,5498],[99.7,5581],[99.7,5665],[99.7,5748],[99.7,5832],[99.7,5914],[99.7,5999],[99.7,6081],[99.7,6165],[99.7,6248],[99.7,6332],[99.7,6415],[99.7,6498],[99.7,6581],[99.7,6665],[99.7,6747],[99.7,6832],[99.7,6914],[99.7,6997],[99.7,7081],[99.7,7164],[99.7,7247],[99.7,7332],[99.7,7416],[99.7,7498],[99.7,7581],[99.7,7666],[99.7,7749],[99.7,7831],[99.7,7915],[99.7,7998],[99.7,8087],[99.7,8165],[99.7,8250]]",552.2924,556.3073,100,3.2774,"[{""rating"":99.06424204508464,""responseTime"":1.3000999999940177},{""rating"":100,""responseTime"":3.2774000000059686}]",space,3.468,,556.3075,Definitely yes,100,556.3164,,,[],,0,14,14,14,1,audio/Narrative8Situation5.wav,audio/Narrative7Situation5.wav,audio/Narrative6Situation5.wav,audio/Narrative5Situation5.wav,2,5,2,5,,,,,,,,,,,,,,,,,,,,,,,,,,,,,,,,,,,,,,,
,,,,,63eda5a4a87d8bd73853fa8e,2025-07-07_19h59.42.294,group3.4_multiperson,2023.2.2,Linux x86_64,59.88023952,686c2ebf0248f13bef9af11f,686c8937dec29fd140e24920,,,,,,,,,,,,,,,,,,,,,,,,,,,,,556.3169,1,audio/Narrative8Situation6.wav,558.3227,,558.3229,564.8066,[],564.8067,570.0557,99.95245616,4.5287,"[{""rating"":99.95245615641277,""responseTime"":4.5286999999881346}]",space,4.7009,,570.0558,Partially,50,570.0614,,,[],,0,15,15,15,1,audio/Narrative8Situation6.wav,audio/Narrative7Situation6.wav,audio/Narrative6Situation6.wav,audio/Narrative5Situation6.wav,2,3,2,3,,,,,,,,,,,,,,,,,,,,,,,,,,,,,,,,,,,,,,,
,,,,,63eda5a4a87d8bd73853fa8e,2025-07-07_19h59.42.294,group3.4_multiperson,2023.2.2,Linux x86_64,59.88023952,686c2ebf0248f13bef9af11f,686c8937dec29fd140e24920,,,,,,,,,,,,,,,,,,,,,,,,,,,,,570.0619,1,audio/Narrative8Situation7.wav,573.0733,,573.0733,585.1731,"[[100,12082]]",585.1732,588.8388,99.36634064,2.1935,"[{""rating"":99.36634063720703,""responseTime"":2.1935000000000855}]",space,3.1187,,588.8388,Definitely yes,100,588.8455,,,[],,0,16,16,16,1,audio/Narrative8Situation7.wav,audio/Narrative7Situation7.wav,audio/Narrative6Situation7.wav,audio/Narrative5Situation7.wav,3,5,5,4,,,,,,,,,,,,,,,,,,,,,,,,,,,,,,,,,,,,,,,
,,,,,63eda5a4a87d8bd73853fa8e,2025-07-07_19h59.42.294,group3.4_multiperson,2023.2.2,Linux x86_64,59.88023952,686c2ebf0248f13bef9af11f,686c8937dec29fd140e24920,,,,,,,,,,,,,,,,,,,,,,,,,,,,,588.846,1,audio/Narrative8Situation8.wav,591.8573,,591.8574,604.7252,"[[100,8930],[99.6,9014],[99.4,9097],[99.4,9181],[99.4,9264],[99.4,9349],[99.4,9430],[99.4,9517],[99.4,9599],[99.4,9680],[99.4,9765],[99.4,9847],[99.4,9931],[99.4,10014],[99.4,10098],[99.4,10181],[99.4,10263],[99.4,10348],[99.4,10431],[99.4,10514],[99.4,10597],[99.4,10681],[99.4,10764],[99.4,10847],[99.4,10931],[99.4,11015],[99.4,11097],[99.4,11180],[99.4,11264],[99.4,11348],[99.4,11430],[99.4,11515],[99.4,11597],[99.4,11680],[99.4,11766],[99.4,11849],[99.4,11930],[99.4,12014],[99.4,12097],[99.4,12182],[99.4,12268],[99.4,12349],[99.4,12433],[99.4,12515],[99.4,12599],[99.4,12683],[99.5,12764]]",604.7253,606.4219,99.65771993,0.9454,"[{""rating"":99.65771993001302,""responseTime"":0.945400000005975}]",space,1.1508,,606.4219,Definitely yes,100,606.4248,,,[],,0,17,17,17,1,audio/Narrative8Situation8.wav,audio/Narrative7Situation8.wav,audio/Narrative6Situation8.wav,audio/Narrative5Situation8.wav,3,2,5,3,,,,,,,,,,,,,,,,,,,,,,,,,,,,,,,,,,,,,,,
,,,,,63eda5a4a87d8bd73853fa8e,2025-07-07_19h59.42.294,group3.4_multiperson,2023.2.2,Linux x86_64,59.88023952,686c2ebf0248f13bef9af11f,686c8937dec29fd140e24920,,,,,,,,,,,,,,,,,,,,,,,,,,,,,606.4252,1,audio/Narrative8Situation9.wav,609.4385,,609.4386,620.7548,"[[100,6085],[100,6166],[100,6249],[100,6332],[100,6416],[100,6499],[100,6582],[100,6669],[100,6748],[100,6832],[100,6916],[100,7000],[100,7082],[100,7166],[100,7250],[100,7332],[100,7418],[100,7499],[100,7583],[100,7666],[100,7749],[100,7832],[100,7916],[100,7999],[100,8082],[100,8166],[100,8249],[100,8332],[100,8416],[100,8499],[100,8582],[100,8666],[100,8749],[100,8832],[100,8916],[100,8999],[100,9082],[100,9166],[100,9249],[100,9332],[100,9415],[100,9499],[100,9582],[100,9665],[100,9749],[100,9832],[100,9916],[100,9999],[100,10082],[100,10166],[100,10249],[100,10332],[100,10415],[100,10499],[100,10582],[100,10666],[100,10749],[100,10832],[100,10916],[100,10999],[100,11081],[100,11165],[100,11249]]",620.755,630.638,100,9.4265,"[{""rating"":98.4185282389323,""responseTime"":5.611299999982066},{""rating"":100,""responseTime"":9.426499999999919}]",space,9.3327,,630.6382,Partially,50,630.6431,,,[],,0,18,18,18,1,audio/Narrative8Situation9.wav,audio/Narrative7Situation9.wav,audio/Narrative6Situation9.wav,audio/Narrative5Situation9.wav,3,2,4,3,,,,,,,,,,,,,,,,,,,,,,,,,,,,,,,,,,,,,,,
,,,,,63eda5a4a87d8bd73853fa8e,2025-07-07_19h59.42.294,group3.4_multiperson,2023.2.2,Linux x86_64,59.88023952,686c2ebf0248f13bef9af11f,686c8937dec29fd140e24920,,,,,,,,,,,,,,,,,,,,,,,,,,,658.2215,660.8037,660.8662,2,audio/Narrative13Situation2.wav,660.8663,,660.8663,690.6203,[],690.6203,690.6241,,,[],,,,690.6242,Not at all,0,690.6268,,,[],,0,0,0,0,1,audio/Narrative13Situation2.wav,audio/Narrative13Situation2.wav,audio/Narrative13Situation2.wav,audio/Narrative13Situation2.wav,2,2,2,2,,,,,630.6436,658.2207,space,27.0483,,,,,,,,,,,,,,,,,,,,,,,,,,,,,,,
,,,,,63eda5a4a87d8bd73853fa8e,2025-07-07_19h59.42.294,group3.4_multiperson,2023.2.2,Linux x86_64,59.88023952,686c2ebf0248f13bef9af11f,686c8937dec29fd140e24920,,,,,,,,,,,,,,,,,,,,,,,,,,,,,690.6271,2,audio/Narrative5Situation1.wav,695.6372,,695.6373,708.9374,"[[86.5,81],[86.5,165],[86.5,249],[86.5,332],[86.5,416],[86.6,499],[86.8,582],[87.5,668],[89.7,749],[92.2,832],[95.1,915],[97.4,999],[98,1082],[99.1,1165],[99.8,1248],[99.8,1331],[99.8,1415],[99.8,1498],[99.8,1581],[99.8,1665],[99.8,1748],[99.8,1832],[99.8,1915],[99.8,1999],[99.8,2082],[99.8,2165],[99.8,2248],[99.8,2332],[99.8,2415],[99.8,2498],[99.8,2581],[99.8,2665],[99.8,2748],[99.8,2832],[99.8,2915],[99.8,2998],[99.8,3081],[99.8,3165],[99.8,3248],[99.8,3331],[99.8,3415],[99.8,3498],[99.8,3581],[99.8,3665],[99.8,3748],[99.8,3832],[99.8,3915],[99.8,3998],[99.8,4082],[99.8,4165],[99.8,4248],[99.8,4331],[99.8,4415],[99.8,4499],[99.8,4581],[99.8,4665],[99.8,4748],[99.8,4831],[99.8,4915],[99.8,5005],[99.8,5082],[99.8,5165],[99.8,5249],[99.8,5331],[99.8,5415],[99.8,5498],[99.8,5581],[99.8,5664],[99.8,5749],[99.8,5832],[99.8,5915],[99.8,5998],[99.8,6081],[99.8,6165],[99.8,6248],[99.8,6333],[99.8,6415],[99.8,6498],[99.8,6581],[99.8,6665],[99.8,6748],[99.8,6831],[99.8,6915],[99.8,6998],[99.8,7082],[99.8,7165],[99.8,7249],[99.8,7332],[99.8,7415],[99.8,7498],[99.8,7581],[99.8,7665],[99.8,7748],[99.8,7832],[99.8,7914],[99.8,7998],[99.8,8082],[99.8,8165],[99.8,8248],[99.8,8331],[99.8,8415],[99.8,8499],[99.8,8581],[99.8,8665],[99.8,8748],[99.8,8831],[99.8,8915],[99.8,8998],[99.8,9082],[99.8,9165],[99.8,9248],[99.8,9331],[99.8,9415],[99.8,9498],[99.8,9581],[99.8,9665],[99.8,9753],[99.8,9832],[99.8,9915],[99.8,9998],[99.8,10081],[99.8,10165],[99.8,10248],[99.8,10331],[99.8,10415],[99.8,10498],[99.8,10581],[99.8,10665],[99.8,10748],[99.8,10832],[99.8,10915],[99.8,10999],[99.8,11081],[99.8,11165],[99.8,11248],[99.8,11331],[99.8,11414],[99.8,11498],[99.8,11581],[99.8,11665],[99.8,11748],[99.8,11831],[99.8,11915],[99.8,11998],[99.8,12081],[99.8,12165],[99.8,12247],[99.8,12331],[99.8,12414],[99.8,12498],[99.8,12581],[99.8,12665],[99.8,12748],[99.8,12836],[99.8,12916],[99.8,12998],[99.8,13082],[99.8,13165],[99.8,13248]]",708.9376,714.1686,0.472024282,4.5934,"[{""rating"":0.4720242818196607,""responseTime"":4.593400000006}]",space,4.6873,,714.1688,Not at all,0,714.172,,,[],,0,1,1,1,1,audio/Narrative7Situation1.wav,audio/Narrative8Situation1.wav,audio/Narrative5Situation1.wav,audio/Narrative6Situation1.wav,2,5,5,2,,,,,,,,,,,,,,,,,,,,,,,,,,,,,,,,,,,,,,,
,,,,,63eda5a4a87d8bd73853fa8e,2025-07-07_19h59.42.294,group3.4_multiperson,2023.2.2,Linux x86_64,59.88023952,686c2ebf0248f13bef9af11f,686c8937dec29fd140e24920,,,,,,,,,,,,,,,,,,,,,,,,,,,,,714.1723,2,audio/Narrative5Situation2.wav,717.1854,,717.1856,746.6353,"[[999,0],[999,82],[999,166],[999,249],[999,333],[999,416],[999,500],[999,582],[999,668],[999,749],[999,833],[999,916],[999,1000],[999,1083],[999,1167],[999,1253],[999,1333],[999,1416],[999,1501],[999,1582],[999,1666],[999,1749],[999,1832],[999,1916],[999,1999],[999,2083],[999,2166],[999,2249],[999,2333],[999,2416],[999,2500],[999,2583],[999,2666],[999,2749],[999,2832],[999,2916],[999,3000],[999,3083],[999,3166],[999,3249],[999,3333],[999,3417],[999,3499],[999,3583],[999,3666],[999,3749],[999,3832],[999,3917],[999,4000],[999,4082],[999,4166],[999,4250],[999,4333],[999,4415],[999,4500],[999,4582],[999,4666],[999,4750],[999,4832],[999,4916],[999,4999],[999,5082],[999,5167],[999,5249],[999,5332],[999,5416],[999,5500],[999,5586],[999,5666],[999,5750],[999,5832],[999,5916],[999,6001],[999,6083],[999,6166],[999,6249],[999,6333],[999,6416],[999,6500],[999,6588],[999,6666],[999,6749],[999,6833],[999,6916],[999,6999],[999,7083],[999,7166],[999,7250],[999,7333],[999,7416],[999,7499],[999,7583],[99.5,7666],[100,7750],[100,7832],[100,7917],[99.9,8000],[99.9,8082],[99.9,8165],[99.9,8249],[99.9,8333],[99.9,8416],[99.9,8499],[99.9,8583],[99.9,8665],[99.9,8749],[99.9,8832],[99.9,8916],[99.9,8999],[99.9,9082],[99.9,9166],[99.9,9249],[99.9,9333],[99.9,9416],[99.9,9499],[99.9,9583],[99.9,9666],[99.9,9750],[99.9,9833],[99.9,9916],[99.9,10000],[99.9,10082],[99.9,10165],[99.9,10249],[99.9,10333],[99.9,10416],[99.9,10499],[99.9,10583],[99.9,10665],[99.9,10749],[99.9,10835],[99.9,10915],[99.9,11000],[99.9,11082],[99.9,11166],[99.9,11249],[99.9,11332],[99.9,11416],[99.9,11499],[99.9,11583],[99.9,11665],[99.9,11748],[99.9,11833],[99.9,11916],[99.9,11999],[99.9,12082],[99.9,12165],[99.9,12250],[99.9,12332],[99.9,12415],[99.9,12499],[99.9,12582],[99.9,12666],[99.9,12749],[99.9,12832],[99.9,12916],[99.9,12999],[99.9,13083],[99.9,13166],[99.9,13249],[99.9,13332],[99.9,13415],[99.9,13499],[99.9,13582],[99.9,13666],[99.9,13749],[99.9,13832],[99.9,13915],[99.9,13999],[99.9,14082],[99.9,14165],[99.9,14249],[99.9,14333],[99.9,14416],[99.9,14499],[99.9,14583],[99.9,14665],[99.9,14749],[99.9,14832],[99.9,14917],[99.9,14999],[99.9,15082],[99.9,15166],[99.9,15249],[99.9,15334],[99.9,15416],[99.9,15499],[99.9,15582],[99.9,15666],[99.9,15749],[99.9,15832],[99.9,15918],[99.9,15999],[99.9,16084],[99.9,16166],[99.9,16249],[99.9,16332],[99.9,16417],[99.9,16499],[99.9,16582],[99.9,16666],[99.9,16749],[99.9,16833],[99.9,16915],[99.9,16999],[99.9,17082],[99.9,17165],[99.9,17248],[99.9,17333],[99.9,17415],[99.9,17499],[99.9,17582],[99.9,17665],[99.9,17748],[99.9,17833],[99.9,17917],[99.9,17999],[99.9,18082],[99.9,18166],[99.9,18248],[99.9,18332],[99.9,18416],[99.9,18499],[99.9,18582],[99.9,18665],[99.9,18749],[99.9,18832],[99.9,18916],[99.9,18998],[99.9,19083],[99.9,19166],[99.9,19249],[99.9,19332],[99.9,19415],[99.9,19500],[99.9,19582],[99.9,19665],[99.9,19749],[99.9,19832],[99.9,19917],[99.9,19999],[99.9,20082],[99.9,20165],[99.9,20248],[99.9,20334],[99.9,20415],[99.9,20499],[99.9,20582],[99.9,20666],[99.9,20749],[99.9,20832],[99.9,20915],[99.9,20999],[99.9,21083],[99.9,21165],[99.9,21248],[99.9,21333],[99.9,21416],[99.9,21499],[99.9,21582],[99.9,21665],[99.9,21749],[99.9,21832],[99.9,21916],[99.9,21999],[99.9,22082],[99.9,22165],[99.9,22248],[99.9,22333],[99.9,22415],[99.9,22498],[99.9,22582],[99.9,22666],[99.9,22749],[99.9,22832],[99.9,22916],[99.9,22999],[99.9,23082],[99.9,23166],[99.9,23248],[99.9,23333],[99.9,23415],[99.9,23498],[99.9,23582],[99.9,23667],[99.9,23749],[99.9,23832],[99.9,23915],[99.9,24000],[99.9,24082],[99.9,24165],[99.9,24249],[99.9,24333],[99.9,24417],[99.9,24498],[99.9,24582],[99.9,24666],[99.9,24749],[99.9,24832],[99.9,24915],[99.9,24999],[99.9,25082],[99.9,25169],[99.9,25251],[99.9,25337],[99.9,25415],[99.9,25499],[99.9,25582],[99.9,25665],[99.9,25749],[99.9,25832],[99.9,25915],[99.9,25998],[99.9,26082],[99.9,26166],[99.9,26248],[99.9,26331],[99.9,26415],[99.9,26499],[99.9,26582],[99.9,26667],[99.9,26749],[99.9,26832],[99.9,26915],[99.9,26998],[99.9,27082],[99.9,27165],[99.9,27249],[99.9,27331],[99.9,27415],[99.9,27499],[99.9,27582],[99.9,27667],[99.9,27749],[99.9,27832],[99.9,27916],[99.9,27999],[99.9,28082],[99.9,28167],[99.9,28250],[99.9,28332],[99.9,28415],[99.9,28499],[99.9,28582],[99.9,28666],[99.9,28749],[99.9,28832],[99.9,28915],[99.9,28999],[99.9,29083],[99.9,29165],[99.9,29250],[99.9,29332],[99.9,29416]]",746.6356,750.0555,100,3.0137,"[{""rating"":98.69951883951823,""responseTime"":2.0479000000060523},{""rating"":100,""responseTime"":2.5150999999940495},{""rating"":100,""responseTime"":3.013699999988148}]",space,2.8699,,750.0556,Partially,50,750.0617,,,[],,0,2,2,2,1,audio/Narrative7Situation2.wav,audio/Narrative8Situation2.wav,audio/Narrative5Situation2.wav,audio/Narrative6Situation2.wav,3,3,3,3,,,,,,,,,,,,,,,,,,,,,,,,,,,,,,,,,,,,,,,
,,,,,63eda5a4a87d8bd73853fa8e,2025-07-07_19h59.42.294,group3.4_multiperson,2023.2.2,Linux x86_64,59.88023952,686c2ebf0248f13bef9af11f,686c8937dec29fd140e24920,,,,,,,,,,,,,,,,,,,,,,,,,,,,,750.0628,2,audio/Narrative5Situation3.wav,753.0697,,753.0697,766.9848,"[[100,2115],[100,2197],[100,2281],[100,2365],[100,2448],[100,2531],[100,2614],[100,2697],[100,2781],[100,2864],[100,2947],[100,3031],[100,3116],[100,3198],[100,3280],[100,3365],[100,3449],[100,3531],[100,3615],[100,3697],[100,3781],[100,3864],[100,3947],[100,4031],[100,4114],[100,4197],[100,4281],[100,4364],[100,4448],[100,4532],[100,4614],[100,4697],[100,4783],[100,4869],[100,4948],[100,5031],[100,5114],[100,5198],[100,5281],[100,5364],[100,5447],[100,5537],[100,5614],[100,5698],[100,5781],[100,5864],[100,5947],[100,6031],[100,6115],[100,6197],[100,6281],[100,6365],[100,6447],[100,6530],[100,6614],[100,6697],[100,6781],[100,6864],[100,6947],[100,7031],[100,7115],[100,7197],[100,7281],[100,7364],[100,7448],[100,7531],[100,7614],[100,7697],[100,7780],[100,7864],[100,7947],[100,8031],[100,8115],[100,8198],[100,8282],[100,8364],[100,8447],[100,8531],[100,8615],[100,8700],[100,8781],[100,8866],[100,8947],[100,9031],[100,9114],[100,9198],[100,9281],[100,9365],[100,9448],[100,9531],[100,9615],[100,9698],[100,9781],[100,9864],[100,9947],[100,10031],[100,10114],[100,10197],[100,10281],[100,10364],[100,10449],[100,10531],[100,10616],[100,10697],[100,10781],[100,10863],[100,10947],[100,11031],[100,11114],[100,11197],[100,11281],[100,11364],[100,11447],[100,11531],[100,11614],[100,11697],[100,11781],[100,11864],[100,11949],[100,12032],[99.8,12114],[98.9,12198],[98.8,12281],[98.8,12364],[98.8,12448],[98.8,12531],[98.8,12614],[98.9,12699],[99.2,12783],[99.8,12864],[99.8,12947],[99.8,13030],[99.8,13114],[99.8,13197],[99.8,13280],[100,13364],[100,13448],[100,13531],[100,13614],[100,13699],[100,13781],[100,13864]]",766.985,772.8846,99.52827454,5.0583,"[{""rating"":99.52827453613281,""responseTime"":5.058300000011968}]",space,5.3473,,772.8846,Not at all,0,772.889,,,[],,0,3,3,3,1,audio/Narrative7Situation3.wav,audio/Narrative8Situation3.wav,audio/Narrative5Situation3.wav,audio/Narrative6Situation3.wav,8,4,3,5,,,,,,,,,,,,,,,,,,,,,,,,,,,,,,,,,,,,,,,
,,,,,63eda5a4a87d8bd73853fa8e,2025-07-07_19h59.42.294,group3.4_multiperson,2023.2.2,Linux x86_64,59.88023952,686c2ebf0248f13bef9af11f,686c8937dec29fd140e24920,,,,,,,,,,,,,,,,,,,,,,,,,,,,,772.8894,2,audio/Narrative5Situation4.wav,773.9011,,773.9012,794.3007,"[[100,3998],[100,4082],[100,4166],[99.9,4249],[99.9,4332],[99.9,4416],[99.9,4499],[99.9,4582],[99.9,4667],[99.9,4749],[99.9,4832],[99.9,4916],[99.9,4999],[99.9,5082],[99.9,5166],[99.9,5249],[99.9,5332],[99.9,5416],[99.9,5499],[99.9,5587],[99.9,5665],[99.9,5748],[99.9,5832],[99.9,5915],[99.9,6000],[99.9,6082],[99.9,6166],[99.9,6249],[99.9,6332],[99.9,6415],[99.9,6499],[99.9,6582],[99.9,6666],[99.9,6749],[99.9,6832],[99.9,6915],[99.9,6999],[99.9,7083],[99.9,7165],[99.9,7249],[99.9,7332],[99.9,7416],[99.9,7499],[99.9,7582],[99.9,7669],[99.9,7750],[99.9,7832],[99.9,7916],[99.9,7999],[99.9,8083],[99.9,8165],[99.9,8252],[99.9,8332],[99.9,8415],[99.9,8499],[99.9,8582],[99.9,8665],[99.9,8749],[99.9,8832],[99.9,8916],[99.9,8999],[99.9,9082],[99.9,9166],[99.9,9249],[99.9,9332],[99.9,9416],[99.9,9498],[99.9,9582],[99.9,9665],[99.9,9749],[99.9,9832],[99.9,9915],[99.9,9999],[99.9,10083],[99.9,10165],[99.9,10249],[99.9,10332],[99.9,10416],[99.9,10498],[99.9,10582],[99.9,10665],[99.9,10749],[99.9,10832],[99.9,10915],[99.9,10999],[99.9,11082],[99.9,11165],[99.9,11250],[99.9,11332],[99.9,11415],[99.9,11499],[99.9,11584],[99.9,11667],[99.9,11748],[99.9,11832],[99.9,11916],[99.9,11998],[99.9,12084],[99.9,12165],[99.9,12249],[99.9,12331],[99.9,12416],[99.9,12499],[99.9,12582],[99.9,12665],[99.9,12749],[99.9,12832],[99.9,12916],[99.9,12998],[99.9,13082],[99.9,13166],[99.9,13249],[99.9,13332],[99.9,13415],[99.9,13498],[99.9,13581],[99.9,13665],[99.9,13749],[99.9,13832],[99.9,13915],[99.9,13999],[99.9,14082],[99.9,14165],[99.9,14248],[99.9,14332],[99.9,14415],[99.9,14498],[99.9,14582],[99.9,14668],[99.9,14752],[99.9,14835],[99.9,14915],[99.9,14998],[99.9,15084],[99.9,15165],[99.9,15249],[99.9,15332],[99.9,15416],[99.9,15498],[99.9,15582],[99.9,15665],[99.9,15748],[99.9,15831],[99.9,15915],[99.9,15999],[99.9,16082],[99.9,16165],[99.9,16248],[99.9,16332],[99.9,16415],[99.9,16499],[99.9,16582],[99.9,16667],[99.9,16748],[99.9,16832],[99.9,16916],[99.9,16999],[99.9,17082],[99.9,17165],[99.9,17249],[99.9,17332],[99.9,17415],[99.9,17499],[99.9,17582],[99.9,17665],[99.9,17748],[99.9,17834],[99.9,17915],[99.9,17998],[99.9,18081],[99.9,18165],[99.9,18249],[99.9,18334],[99.9,18415],[99.9,18499],[99.9,18581],[99.9,18665],[99.9,18748],[99.9,18831],[99.9,18916],[99.9,18999],[99.9,19082],[99.9,19165],[99.9,19249],[99.9,19332],[99.9,19416],[99.9,19498],[99.9,19582],[99.9,19665],[99.9,19748],[99.9,19832],[99.9,19916],[99.9,19998],[99.9,20082],[99.9,20166],[99.9,20249],[99.9,20331]]",794.3011,796.6168,99.80813344,2.008,"[{""rating"":99.73475138346355,""responseTime"":1.648199999988151},{""rating"":99.80813344319661,""responseTime"":2.008000000000038}]",space,1.7666,,796.6168,Not at all,0,796.6194,,,[],,0,4,4,4,1,audio/Narrative7Situation4.wav,audio/Narrative8Situation4.wav,audio/Narrative5Situation4.wav,audio/Narrative6Situation4.wav,3,3,1,2,,,,,,,,,,,,,,,,,,,,,,,,,,,,,,,,,,,,,,,
,,,,,63eda5a4a87d8bd73853fa8e,2025-07-07_19h59.42.294,group3.4_multiperson,2023.2.2,Linux x86_64,59.88023952,686c2ebf0248f13bef9af11f,686c8937dec29fd140e24920,,,,,,,,,,,,,,,,,,,,,,,,,,,,,796.6197,2,audio/Narrative5Situation5.wav,801.6331,,801.6332,817.0496,"[[99.9,751],[100,833],[100,916],[100,1000],[100,1083],[100,1167],[100,1250],[100,1333],[100,1419],[100,1499],[100,1583],[100,1666],[100,1750],[100,1833],[100,1917],[100,2000],[100,2083],[100,2166],[100,2249],[100,2333],[100,2416],[100,2499],[100,2583],[100,2667],[100,2749],[100,2833],[100,2917],[100,3000],[100,3086],[100,3166],[100,3249],[100,3333],[100,3416],[100,3500],[100,3583],[100,3666],[100,3750],[100,3834],[100,3916],[100,4000],[100,4083],[100,4167],[100,4250],[100,4333],[100,4416],[100,4499],[100,4583],[100,4667],[100,4750],[100,4833],[100,4917],[100,4999],[100,5083],[100,5166],[100,5250],[100,5332],[100,5416],[100,5499],[100,5583],[100,5666],[100,5750],[100,5833],[100,5916],[100,6000],[100,6084],[100,6166],[100,6249],[100,6332],[100,6416],[100,6499],[100,6582],[100,6667],[100,6749],[100,6833],[100,6916],[100,6999],[100,7083],[100,7166],[100,7250],[100,7333],[100,7417],[100,7500],[100,7582],[100,7666],[100,7749],[100,7833],[100,7916],[100,7999],[100,8083],[100,8167],[100,8250],[100,8333],[100,8416],[100,8499],[100,8583],[100,8666],[100,8749],[100,8833],[100,8920],[100,8999],[100,9083],[100,9166],[100,9249],[100,9333],[100,9416],[100,9499],[100,9583],[100,9666],[100,9749],[100,9832],[100,9916],[100,10000],[100,10083],[100,10166],[100,10249],[100,10333],[100,10416],[100,10499],[100,10582],[100,10667],[100,10750],[100,10833],[100,10916],[100,10999],[100,11083],[100,11166],[100,11249],[100,11334],[100,11416],[100,11499],[100,11583],[100,11666],[100,11749],[100,11832],[100,11916],[100,12000],[100,12083],[100,12166],[100,12250],[100,12333],[100,12416],[100,12499],[100,12583],[100,12666],[100,12749],[100,12833],[100,12916],[100,12999],[100,13084],[100,13166],[100,13249],[100,13333],[100,13416],[100,13500],[100,13583],[100,13666],[100,13749],[100,13833],[100,13916],[100,14000],[100,14082],[100,14165],[100,14249],[100,14332],[100,14415],[100,14500],[100,14583],[100,14666],[100,14749],[100,14832],[100,14917],[100,15000],[100,15084],[100,15166],[100,15250],[100,15333],[100,15416]]",817.0498,821.5661,99.98068492,4.1263,"[{""rating"":99.98068491617839,""responseTime"":4.126300000011952}]",space,3.9696,,821.5663,Not at all,0,821.5699,,,[],,0,5,5,5,1,audio/Narrative7Situation5.wav,audio/Narrative8Situation5.wav,audio/Narrative5Situation5.wav,audio/Narrative6Situation5.wav,5,2,5,2,,,,,,,,,,,,,,,,,,,,,,,,,,,,,,,,,,,,,,,
,,,,,63eda5a4a87d8bd73853fa8e,2025-07-07_19h59.42.294,group3.4_multiperson,2023.2.2,Linux x86_64,59.88023952,686c2ebf0248f13bef9af11f,686c8937dec29fd140e24920,,,,,,,,,,,,,,,,,,,,,,,,,,,,,821.5704,2,audio/Narrative5Situation6.wav,824.5825,,824.5825,830.2491,[],830.2493,837.8499,99.48019663,7.0792,"[{""rating"":99.48019663492839,""responseTime"":7.079200000017863}]",space,7.0508,,837.85,Not at all,0,837.853,,,[],,0,6,6,6,1,audio/Narrative7Situation6.wav,audio/Narrative8Situation6.wav,audio/Narrative5Situation6.wav,audio/Narrative6Situation6.wav,3,2,3,2,,,,,,,,,,,,,,,,,,,,,,,,,,,,,,,,,,,,,,,
,,,,,63eda5a4a87d8bd73853fa8e,2025-07-07_19h59.42.294,group3.4_multiperson,2023.2.2,Linux x86_64,59.88023952,686c2ebf0248f13bef9af11f,686c8937dec29fd140e24920,,,,,,,,,,,,,,,,,,,,,,,,,,,,,837.8534,2,audio/Narrative5Situation7.wav,841.8653,,841.8654,862.8983,"[[99,750],[99,833],[99,916],[99,999],[99,1083],[99,1166],[99,1253],[99,1333],[99,1416],[99,1500],[99,1583],[99,1666],[99,1752],[99,1833],[99,1917],[99,1999],[99,2083],[99,2166],[99,2250],[99,2333],[99,2417],[99,2499],[99,2582],[99,2666],[99,2749],[99,2833],[99,2916],[99,3000],[99,3083],[99,3166],[99,3250],[99,3334],[99,3417],[99,3500],[99,3583],[99,3667],[99,3749],[99,3833],[99,3917],[99,4000],[99,4083],[99,4167],[99,4250],[99,4333],[99,4417],[99,4499],[99,4583],[99,4666],[99,4750],[99,4833],[99,4916],[99,4999],[99,5083],[99,5167],[99,5250],[99,5333],[99,5416],[99,5499],[99,5583],[99,5666],[99,5750],[99,5833],[99,5917],[99,6000],[99,6083],[99,6166],[99,6250],[99,6333],[99,6417],[99,6499],[99,6584],[99,6667],[99,6749],[99,6833],[99,6917],[99,7000],[99,7083],[99,7167],[99,7249],[99,7333],[99,7416],[99,7500],[99,7584],[99.5,7667],[95.1,7749],[99.6,10750],[100,10833],[100,10916],[100,10999],[100,11084],[100,11167],[100,11249],[100,11333],[100,11416],[100,11499],[100,11583],[100,11667],[100,11749],[100,11833],[100,11917],[100,12000],[100,12083],[100,12166],[100,12249],[100,12333],[100,12416],[100,12500],[100,12583],[100,12666],[100,12749],[100,12833],[100,12917],[100,13000],[100,13082],[100,13166],[100,13249],[100,13333],[100,13416],[100,13500],[100,13582],[100,13666],[100,13751],[100,13833],[100,13917],[100,14000],[100,14083],[100,14167],[100,14249],[100,14333],[100,14416],[100,14500],[100,14583],[100,14666],[100,14749],[100,14833],[100,14916],[100,15000],[100,15082],[100,15166],[100,15252],[100,15332],[100,15417],[100,15499],[100,15583],[100,15666],[100,15749],[100,15833],[100,15917],[100,15999],[100,16083],[100,16166],[100,16249],[100,16333],[100,16416],[100,16500],[100,16583],[100,16666],[100,16749],[100,16832],[100,16916],[100,16999],[100,17083],[100,17167],[100,17249],[100,17333],[100,17416],[100,17499],[100,17583],[100,17665],[100,17749],[100,17833],[100,17917],[100,17999],[100,18082],[100,18167],[100,18249],[100,18333],[100,18416],[100,18500],[100,18583],[100,18667],[100,18750],[100,18833],[100,18917],[100,18999],[100,19083],[100,19166],[100,19249],[100,19332],[100,19416],[100,19499],[100,19582],[100,19666],[100,19749],[100,19832],[100,19916],[100,19999],[100,20083],[100,20166],[100,20249],[100,20333],[100,20416],[100,20500],[100,20583],[100,20667],[100,20749],[100,20833],[100,20915],[100,20999]]",862.8985,867.1826,99.41558838,1.0611,"[{""rating"":99.41558837890625,""responseTime"":1.061100000023771}]",space,3.7375,,867.1826,Definitely yes,100,877.4652,99.63996887,8.6863,"[{""rating"":99.63996887207031,""responseTime"":8.686300000011897}]",space,0,7,7,7,1,audio/Narrative7Situation7.wav,audio/Narrative8Situation7.wav,audio/Narrative5Situation7.wav,audio/Narrative6Situation7.wav,5,3,4,5,,,9.7406,,,,,,,,,,,,,,,,,,,,,,,,,,,,,,,,,,,,
,,,,,63eda5a4a87d8bd73853fa8e,2025-07-07_19h59.42.294,group3.4_multiperson,2023.2.2,Linux x86_64,59.88023952,686c2ebf0248f13bef9af11f,686c8937dec29fd140e24920,,,,,,,,,,,,,,,,,,,,,,,,,,,,,877.466,2,audio/Narrative5Situation8.wav,880.4814,,880.4816,889.2978,[],889.2981,894.1309,0.103019079,4.3649,"[{""rating"":1.1676184336344375,""responseTime"":3.159900000005905},{""rating"":0.4007466634114609,""responseTime"":3.78269999998804},{""rating"":0.10301907857259152,""responseTime"":4.060799999982123},{""rating"":0.10301907857259152,""responseTime"":4.364900000005946}]",space,4.2844,,894.131,Partially,50,894.1358,,,[],,0,8,8,8,1,audio/Narrative7Situation8.wav,audio/Narrative8Situation8.wav,audio/Narrative5Situation8.wav,audio/Narrative6Situation8.wav,2,3,3,5,,,,,,,,,,,,,,,,,,,,,,,,,,,,,,,,,,,,,,,
,,,,,63eda5a4a87d8bd73853fa8e,2025-07-07_19h59.42.294,group3.4_multiperson,2023.2.2,Linux x86_64,59.88023952,686c2ebf0248f13bef9af11f,686c8937dec29fd140e24920,,,,,,,,,,,,,,,,,,,,,,,,,,,,,894.1362,2,audio/Narrative5Situation9.wav,897.1491,,897.1492,936.6962,"[[0.4,8416],[100,9832],[99.3,10164],[99.7,10248],[99.7,10330],[99.7,10414],[99.7,10498],[99.7,10581],[99.7,10665],[99.7,10747],[99.7,10830],[99.7,10914],[99.7,10997],[99.7,11081],[99.7,11164],[99.7,11248],[99.7,11331],[99.7,11414],[99.7,11497],[99.7,11581],[99.7,11664],[99.7,11747],[99.7,11831],[99.7,11915],[99.7,11998],[99.7,12081],[99.7,12164],[99.7,12249],[99.7,12331],[99.7,12415],[99.7,12497],[99.7,12581],[99.7,12665],[99.7,12748],[99.7,12831],[99.7,12914],[99.7,12998],[99.7,13083],[99.7,13164],[99.7,13248],[99.7,13331],[99.7,13414],[99.7,13498],[99.7,13581],[99.7,13664],[99.7,13747],[99.7,13830],[99.7,13914],[99.7,13997],[99.7,14080],[99.7,14164],[99.7,14247],[99.7,14331],[99.7,14414],[99.7,14497],[99.7,14580],[99.7,14664],[99.7,14748],[99.7,14831],[99.7,14914],[99.7,14997],[99.7,15081],[99.7,15164],[99.7,15247],[99.7,15331],[99.7,15414],[99.7,15498],[99.7,15580],[99.7,15664],[99.7,15747],[99.7,15831],[99.7,15914],[99.7,15997],[99.7,16081],[99.7,16164],[99.7,16248],[99.7,16331],[99.7,16414],[99.7,16497],[99.7,16581],[99.7,16664],[99.7,16747],[99.7,16831],[99.7,16914],[99.7,16998],[99.7,17081],[99.7,17164],[99.7,17251],[99.7,17331],[99.7,17414],[99.7,17499],[99.7,17581],[99.7,17664],[99.7,17747],[99.7,17831],[99.7,17914],[99.7,17998],[99.7,18080],[99.7,18164],[99.7,18248],[99.7,18330],[99.7,18414],[99.7,18502],[99.7,18580],[99.7,18664],[99.7,18750],[99.7,18831],[99.7,18920],[99.7,18997],[99.7,19080],[99.7,19163],[99.7,19247],[99.7,19330],[99.7,19414],[99.7,19497],[99.7,19581],[99.7,19664],[99.7,19747],[99.7,19831],[99.7,19914],[99.7,19997],[99.7,20080],[99.7,20163],[99.7,20248],[99.7,20331],[99.7,20414],[99.7,20497],[99.7,20581],[99.7,20664],[99.7,20748],[99.7,20830],[99.7,20914],[99.7,20997],[99.7,21081],[99.7,21164],[99.7,21247],[99.7,21331],[99.7,21415],[99.7,21498],[99.7,21580],[99.7,21664],[99.7,21747],[99.7,21831],[99.7,21914],[99.7,21998],[99.7,22080],[99.7,22164],[99.7,22247],[99.7,22331],[99.7,22414],[99.7,22497],[99.7,22581],[99.7,22664],[99.7,22747],[99.7,22831],[99.7,22914],[99.7,22997],[99.7,23081],[99.7,23164],[99.7,23247],[99.7,23331],[99.7,23414],[99.7,23497],[99.7,23581],[99.7,23667],[99.7,23747],[99.7,23831],[99.7,23913],[99.7,23997],[99.7,24081],[99.7,24164],[99.7,24248],[99.7,24331],[99.7,24413],[99.7,24497],[99.7,24581],[99.7,24663],[99.7,24747],[99.7,24830],[99.7,24914],[99.7,24997],[99.7,25081],[99.7,25163],[99.7,25247],[99.7,25331],[99.7,25414],[99.7,25497],[99.7,25580],[99.7,25664],[99.7,25747],[99.7,25831],[99.7,25913],[99.7,25998],[99.7,26080],[99.7,26164],[99.7,26248],[99.7,26330],[99.7,26413],[99.7,26497],[99.7,26581],[99.7,26664],[99.7,26747],[99.7,26831],[99.7,26914],[99.7,26997],[99.7,27081],[99.7,27164],[99.7,27247],[99.7,27330],[99.7,27413],[99.7,27497],[99.7,27580],[99.7,27663],[99.7,27747],[99.7,27831],[99.7,27913],[99.7,28000],[99.7,28080],[99.7,28163],[99.7,28247],[99.7,28331],[99.7,28414],[99.7,28497],[99.7,28581],[99.7,28664],[99.7,28747],[99.7,28830],[99.7,28914],[99.7,28997],[99.7,29080],[99.7,29163],[99.7,29247],[99.7,29330],[99.7,29414],[99.7,29497],[99.7,29581],[99.7,29663],[99.7,29746],[99.7,29830],[99.7,29913],[99.7,29997],[99.7,30080],[99.7,30164],[99.7,30247],[99.7,30330],[99.7,30413],[99.7,30497],[99.7,30580],[99.7,30663],[99.7,30747],[99.7,30830],[99.7,30914],[99.7,30997],[99.7,31080],[99.7,31164],[99.7,31247],[99.7,31330],[99.7,31413],[99.7,31497],[99.7,31580],[99.7,31664],[99.7,31746],[99.7,31831],[99.7,31914],[99.7,31997],[99.7,32080],[99.7,32163],[99.7,32247],[99.7,32330],[99.7,32413],[99.7,32497],[99.7,32581],[99.7,32663],[99.7,32747],[99.7,32831],[99.7,32913],[99.7,32997],[99.7,33081],[99.7,33164],[99.7,33248],[99.7,33331],[99.7,33414],[99.7,33497],[99.7,33580],[99.7,33663],[99.7,33747],[99.7,33830],[99.7,33913],[99.7,33997],[99.7,34081],[99.7,34163],[99.7,34247],[99.7,34331],[99.7,34413],[99.7,34497],[99.7,34582],[99.7,34663],[99.7,34747],[99.7,34830],[99.7,34913],[99.7,34997],[99.7,35081],[99.7,35163],[99.7,35247],[99.7,35330],[99.7,35413],[99.7,35497],[99.7,35580],[99.7,35663],[99.7,35747],[99.7,35830],[99.7,35913],[99.7,35996],[99.7,36080],[99.7,36163],[99.7,36247],[99.7,36330],[99.7,36413],[99.7,36496],[99.7,36581],[99.7,36664],[99.7,36747],[99.7,36830],[99.7,36913],[99.7,36996],[99.7,37080],[99.7,37163],[99.7,37247],[99.7,37330],[99.7,37413],[99.7,37497],[99.7,37580],[99.7,37664],[99.7,37747],[99.7,37831],[99.7,37913],[99.7,37996],[99.7,38081],[99.7,38164],[99.7,38247],[99.7,38331],[99.7,38415],[99.7,38497],[99.7,38580],[99.7,38663],[99.7,38747],[99.7,38830],[99.7,38913],[99.7,38997],[99.7,39080],[99.7,39163],[99.7,39247],[99.7,39331],[99.7,39413],[99.7,39496]]",936.6966,940.1969,0.141757329,3.0963,"[{""rating"":0.9899965922037735,""responseTime"":2.5614000000059605},{""rating"":0.1417573293050145,""responseTime"":3.096300000011979}]",space,2.947,,940.197,Not at all,0,940.2034,,,[],,0,9,9,9,1,audio/Narrative7Situation9.wav,audio/Narrative8Situation9.wav,audio/Narrative5Situation9.wav,audio/Narrative6Situation9.wav,2,3,3,4,,,,,,,,,,,,,,,,,,,,,,,,,,,,,,,,,,,,,,,
,,,,,63eda5a4a87d8bd73853fa8e,2025-07-07_19h59.42.294,group3.4_multiperson,2023.2.2,Linux x86_64,59.88023952,686c2ebf0248f13bef9af11f,686c8937dec29fd140e24920,,,,,,,,,,,,,,,,,,,,,,,,,,,,,940.2039,2,audio/Narrative6Situation1.wav,942.213,,942.2131,968.7789,"[[999,0],[999,82],[999,166],[999,249],[999,333],[999,417],[999,500],[999,584],[999,667],[999,749],[999,833],[999,917],[999,1000],[999,1083],[999,1166],[92.1,1250],[97.8,1333],[100,1417],[100,1499],[100,1582],[100,1666],[100,1750],[100,1833],[100,1916],[100,2000],[100,2082],[100,2167],[100,2250],[100,2333],[100,2416],[100,2500],[100,2583],[100,2666],[100,2749],[100,2833],[100,2916],[100,2999],[100,3082],[100,3166],[100,3250],[100,3333],[100,3416],[100,3499],[100,3582],[100,3665],[100,3749],[100,3832],[100,3916],[100,4002],[100,4083],[100,4166],[100,4250],[100,4332],[100,4416],[100,4499],[100,4583],[100,4666],[100,4750],[100,4832],[100,4915],[100,5000],[100,5083],[100,5166],[100,5250],[100,5333],[100,5415],[100,5499],[100,5582],[100,5665],[100,5749],[100,5833],[100,5916],[100,6000],[100,6083],[100,6166],[100,6249],[100,6333],[100,6416],[100,6499],[100,6583],[100,6666],[100,6749],[100,6832],[100,6915],[100,6999],[100,7083],[100,7166],[100,7250],[100,7333],[100,7416],[100,7499],[100,7582],[100,7665],[100,7749],[100,7833],[100,7916],[100,7999],[100,8082],[100,8166],[100,8249],[100,8332],[100,8416],[100,8499],[100,8582],[100,8666],[100,8749],[100,8832],[100,8916],[100,9000],[100,9082],[100,9166],[100,9249],[100,9333],[100,9416],[100,9500],[100,9582],[100,9666],[100,9749],[100,9834],[100,9916],[100,9999],[100,10083],[100,10168],[100,10250],[100,10332],[100,10416],[100,10499],[100,10587],[100,10666],[100,10749],[100,10833],[100,10916],[100,10999],[100,11083],[100,11165],[100,11249],[100,11332],[100,11416],[100,11499],[100,11582],[100,11665],[100,11749],[100,11832],[100,11915],[100,12001],[100,12082],[100,12166],[100,12249],[100,12332],[100,12416],[100,12499],[100,12583],[100,12666],[100,12749],[100,12832],[100,12916],[100,12999],[100,13082],[100,13166],[100,13249],[100,13332],[100,13416],[100,13499],[100,13582],[100,13666],[100,13749],[100,13833],[100,13916],[100,13999],[100,14082],[100,14166],[100,14249],[100,14333],[100,14416],[100,14499],[100,14582],[100,14666],[100,14749],[100,14834],[100,14916],[100,14999],[100,15082],[100,15165],[100,15249],[100,15332],[100,15416],[100,15499],[100,15582],[100,15666],[100,15749],[100,15833],[100,15915],[100,15999],[100,16084],[100,16165],[100,16249],[100,16333],[100,16416],[100,16499],[100,16582],[100,16666],[100,16749],[100,16832],[100,16915],[100,16999],[100,17083],[100,17165],[100,17249],[100,17332],[100,17415],[100,17499],[100,17583],[100,17665],[100,17749],[100,17833],[100,17916],[100,17999],[100,18082],[100,18166],[100,18249],[100,18332],[100,18416],[100,18499],[100,18582],[100,18666],[100,18750],[100,18833],[100,18915],[100,18999],[100,19082],[100,19166],[100,19249],[100,19333],[100,19415],[100,19499],[100,19582],[100,19665],[100,19749],[100,19832],[100,19916],[100,19998],[100,20083],[100,20166],[100,20249],[100,20332],[100,20415],[100,20499],[100,20582],[100,20666],[100,20749],[100,20832],[100,20915],[100,20999],[100,21082],[100,21165],[100,21249],[100,21332],[100,21416],[100,21499],[100,21582],[100,21665],[100,21749],[100,21832],[100,21915],[100,22000],[100,22082],[100,22165],[100,22249],[100,22333],[100,22415],[100,22499],[100,22582],[100,22666],[100,22749],[100,22833],[100,22916],[100,22999],[100,23082],[100,23167],[100,23248],[100,23332],[100,23415],[100,23499],[100,23583],[100,23666],[100,23750],[100,23832],[100,23915],[100,23999],[100,24083],[100,24166],[100,24249],[100,24332],[100,24415],[100,24500],[100,24583],[100,24666],[100,24749],[100,24832],[100,24916],[100,24999],[100,25082],[100,25166],[100,25248],[100,25332],[100,25415],[100,25499],[100,25581],[100,25665],[100,25749],[100,25832],[100,25915],[100,25999],[100,26082],[100,26165],[100,26249],[100,26332],[100,26416],[100,26499]]",968.779,970.2297,99.90478516,0.6618,"[{""rating"":99.90478515625,""responseTime"":0.6617999999821222}]",space,0.9081,,970.2298,Not at all,0,970.2319,,,[],,0,10,10,10,1,audio/Narrative8Situation1.wav,audio/Narrative7Situation1.wav,audio/Narrative6Situation1.wav,audio/Narrative5Situation1.wav,5,2,2,5,,,,,,,,,,,,,,,,,,,,,,,,,,,,,,,,,,,,,,,
,,,,,63eda5a4a87d8bd73853fa8e,2025-07-07_19h59.42.294,group3.4_multiperson,2023.2.2,Linux x86_64,59.88023952,686c2ebf0248f13bef9af11f,686c8937dec29fd140e24920,,,,,,,,,,,,,,,,,,,,,,,,,,,,,970.2325,2,audio/Narrative6Situation2.wav,973.2454,,973.2456,1001.7612,"[[100,1000],[100,1083],[100,1166],[100,1249],[100,1333],[100,1417],[100,1500],[100,1583],[100,1666],[100,1749],[100,1833],[100,1916],[100,2000],[100,2083],[100,2167],[100,2249],[100,2332],[100,2416],[100,2500],[100,2583],[100,2667],[100,2750],[100,2832],[100,2916],[100,3000],[100,3082],[100,3167],[100,3249],[100,3332],[100,3416],[100,3499],[100,3583],[100,3666],[100,3749],[100,3832],[100,3916],[100,3999],[100,4082],[100,4167],[100,4249],[100,4333],[100,4417],[100,4499],[100,4582],[100,4666],[100,4749],[100,4833],[100,4916],[100,4999],[100,5083],[100,5166],[100,5251],[100,5332],[100,5416],[100,5500],[100,5582],[100,5666],[100,5749],[100,5832],[100,5916],[100,5999],[100,6082],[100,6166],[100,6249],[100,6333],[100,6417],[100,6499],[100,6583],[100,6667],[100,6749],[100,6832],[100,6916],[100,7000],[100,7083],[100,7166],[100,7249],[100,7332],[100,7416],[100,7499],[100,7583],[100,7665],[100,7749],[100,7832],[100,7917],[100,7999],[100,8083],[100,8166],[100,8249],[100,8333],[100,8415],[100,8499],[100,8583],[100,8668],[100,8750],[100,8833],[100,8916],[100,8999],[100,9083],[100,9166],[100,9249],[100,9333],[100,9415],[100,9500],[100,9582],[100,9665],[100,9749],[100,9833],[99.9,9916],[99.9,9999],[99.8,10085],[99.7,10165],[99.6,10250],[99.5,10332],[99.4,10416],[99.3,10500],[99.2,10582],[99.2,10666],[99.2,10749],[99.1,10833],[99.1,10916],[99.1,11000],[99,11082],[99,11167],[99,11250],[99,11332],[99,11415],[99,11500],[99,11583],[99,11666],[99,11749],[99,11833],[99,11916],[99,11999],[99,12083],[99,12165],[99,12250],[99,12332],[99,12416],[99,12500],[99,12582],[99,12666],[99,12750],[99,12834],[98.9,12916],[98.7,12999],[98.6,13082],[98.5,13167],[98.2,13250],[98,13332],[98,13416],[100,13499],[100,13582],[100,13666],[100,13749],[100,13833],[100,13917],[100,13999],[100,14082],[100,14165],[100,14249],[100,14332],[100,14416],[100,14499],[100,14582],[100,14666],[100,14750],[100,14832],[100,14915],[100,14999],[100,15082],[100,15166],[100,15249],[100,15333],[100,15415],[100,15500],[100,15583],[100,15666],[99.9,15749],[99.9,15832],[99.9,15916],[99.9,16000],[99.9,16082],[99.9,16166],[99.9,16249],[99.9,16333],[99.9,16415],[99.9,16499],[99.9,16583],[99.9,16665],[99.9,16749],[99.9,16832],[100,16915],[100,16999],[100,17082],[100,17166],[100,17250],[100,17332],[100,17415],[100,17499],[100,17583],[100,17666],[100,17750],[100,17832],[100,17915],[100,17999],[100,18082],[100,18166],[100,18249],[100,18332],[100,18416],[100,18499],[100,18582],[100,18666],[100,18749],[100,18832],[100,18916],[100,18999],[100,19082],[100,19166],[100,19250],[100,19332],[100,19416],[100,19499],[100,19582],[100,19665],[100,19749],[100,19832],[100,19916],[100,19999],[100,20082],[100,20167],[100,20249],[100,20333],[100,20415],[100,20498],[100,20583],[100,20665],[100,20749],[100,20832],[100,20915],[100,20998],[100,21083],[100,21167],[100,21250],[100,21332],[100,21415],[100,21500],[100,21582],[100,21665],[100,21749],[100,21832],[100,21915],[100,21999],[100,22086],[100,22167],[100,22248],[100,22332],[100,22416],[100,22499],[100,22582],[100,22666],[100,22749],[100,22832],[100,22916],[100,22999],[100,23082],[100,23166],[100,23248],[100,23332],[100,23416],[100,23499],[100,23582],[100,23665],[100,23749],[100,23832],[100,23915],[100,23999],[100,24082],[100,24165],[100,24249],[100,24332],[100,24415],[100,24499],[100,24582],[100,24665],[100,24752],[100,24832],[100,24915],[100,24999],[100,25082],[100,25165],[100,25249],[100,25333],[100,25416],[100,25499],[100,25582],[100,25665],[100,25749],[100,25832],[100,25916],[100,25999],[100,26083],[100,26165],[100,26249],[100,26332],[100,26415],[100,26499],[100,26582],[100,26666],[100,26749],[100,26832],[100,26916],[100,26999],[100,27082],[100,27166],[100,27248],[100,27332],[100,27415],[100,27499],[100,27585],[100,27665],[100,27749],[100,27832],[100,27916],[100,27999],[100,28082],[100,28165],[100,28249],[100,28332],[100,28415]]",1001.7614,1004.3957,99.69703674,2.1762,"[{""rating"":99.69703674316406,""responseTime"":2.1761999999880572}]",space,2.1043,,1004.3958,Partially,50,1004.4,,,[],,0,11,11,11,1,audio/Narrative8Situation2.wav,audio/Narrative7Situation2.wav,audio/Narrative6Situation2.wav,audio/Narrative5Situation2.wav,3,3,3,3,,,,,,,,,,,,,,,,,,,,,,,,,,,,,,,,,,,,,,,
,,,,,63eda5a4a87d8bd73853fa8e,2025-07-07_19h59.42.294,group3.4_multiperson,2023.2.2,Linux x86_64,59.88023952,686c2ebf0248f13bef9af11f,686c8937dec29fd140e24920,,,,,,,,,,,,,,,,,,,,,,,,,,,,,1004.4003,2,audio/Narrative6Situation3.wav,1009.4123,,1009.4123,1022.0278,[],1022.028,1026.1442,99.99170939,3.4169,"[{""rating"":99.45561726888022,""responseTime"":2.8279000000061387},{""rating"":99.99170939127605,""responseTime"":3.4169000000060805}]",space,3.5685,,1026.1442,Partially,50,1026.1469,,,[],,0,12,12,12,1,audio/Narrative8Situation3.wav,audio/Narrative7Situation3.wav,audio/Narrative6Situation3.wav,audio/Narrative5Situation3.wav,4,8,5,3,,,,,,,,,,,,,,,,,,,,,,,,,,,,,,,,,,,,,,,
,,,,,63eda5a4a87d8bd73853fa8e,2025-07-07_19h59.42.294,group3.4_multiperson,2023.2.2,Linux x86_64,59.88023952,686c2ebf0248f13bef9af11f,686c8937dec29fd140e24920,,,,,,,,,,,,,,,,,,,,,,,,,,,,,1026.1476,2,audio/Narrative6Situation4.wav,1028.1608,,1028.1609,1040.7771,"[[99.6,2082],[99.9,2167],[100,2250],[100,2333],[100,2416],[100,2500],[100,2583],[100,2667],[100,2749],[100,2833],[100,2916],[100,3000],[100,3083],[100,3166],[100,3250],[100,3333],[100,3417],[100,3499],[100,3584],[100,3666],[100,3749],[100,3833],[100,3916],[100,4000],[100,4083],[100,4166],[100,4249],[100,4333],[100,4416],[100,4500],[100,4583],[100,4668],[100,4750],[100,4833],[100,4916],[100,5000],[100,5083],[100,5166],[100,5250],[100,5333],[100,5417],[100,5500],[100,5583],[100,5666],[100,5750],[100,5833],[100,5916],[100,6000],[100,6083],[100,6168],[100,6250],[100,6333],[100,6416],[100,6499],[100,6583],[100,6667],[100,6750],[100,6833],[100,6917],[100,6999],[100,7084],[100,7166],[100,7250],[100,7333],[100,7416],[100,7501],[100,7583],[100,7666],[100,7750],[100,7833],[100,7916],[100,8000],[100,8083],[100,8169],[100,8250],[100,8333],[100,8419],[100,8500],[100,8583],[100,8666],[100,8749],[100,8833],[100,8917],[100,8999],[100,9082],[100,9166],[100,9249],[100,9333],[100,9416],[100,9499],[100,9583],[100,9666],[100,9750],[100,9832],[100,9916],[100,9999],[100,10083],[100,10166],[100,10250],[100,10334],[100,10417],[100,10500],[100,10582],[100,10666],[100,10749],[100,10833],[100,10918],[100,11000],[100,11082],[100,11166],[100,11249],[100,11332],[100,11416],[100,11500],[100,11583],[100,11667],[100,11753],[100,11833],[100,11916],[100,12000],[100,12082],[100,12166],[100,12249],[100,12332],[100,12416],[100,12499],[100,12583]]",1040.7773,1057.9767,99.60208893,16.55,"[{""rating"":99.60208892822266,""responseTime"":16.549999999999955}]",space,16.667,,1057.9769,Partially,50,1057.9797,,,[],,0,13,13,13,1,audio/Narrative8Situation4.wav,audio/Narrative7Situation4.wav,audio/Narrative6Situation4.wav,audio/Narrative5Situation4.wav,3,3,2,1,,,,,,,,,,,,,,,,,,,,,,,,,,,,,,,,,,,,,,,
,,,,,63eda5a4a87d8bd73853fa8e,2025-07-07_19h59.42.294,group3.4_multiperson,2023.2.2,Linux x86_64,59.88023952,686c2ebf0248f13bef9af11f,686c8937dec29fd140e24920,,,,,,,,,,,,,,,,,,,,,,,,,,,,,1057.98,2,audio/Narrative6Situation5.wav,1059.993,,1059.9931,1067.9766,[],1067.9769,1077.3098,99.69069163,8.6117,"[{""rating"":99.69069163004558,""responseTime"":8.380900000005795},{""rating"":99.69069163004558,""responseTime"":8.61170000001789}]",space,8.8026,,1077.3098,Definitely yes,100,1077.3315,,,[],,0,14,14,14,1,audio/Narrative8Situation5.wav,audio/Narrative7Situation5.wav,audio/Narrative6Situation5.wav,audio/Narrative5Situation5.wav,2,5,2,5,,,,,,,,,,,,,,,,,,,,,,,,,,,,,,,,,,,,,,,
,,,,,63eda5a4a87d8bd73853fa8e,2025-07-07_19h59.42.294,group3.4_multiperson,2023.2.2,Linux x86_64,59.88023952,686c2ebf0248f13bef9af11f,686c8937dec29fd140e24920,,,,,,,,,,,,,,,,,,,,,,,,,,,,,1077.3321,2,audio/Narrative6Situation6.wav,1079.343,,1079.3431,1090.4105,[],1090.4107,1097.3761,99.90890503,6.6257,"[{""rating"":99.90890502929688,""responseTime"":6.409900000006019},{""rating"":99.90890502929688,""responseTime"":6.625699999988001}]",space,6.423,,1097.3761,Not at all,0,1097.3813,,,[],,0,15,15,15,1,audio/Narrative8Situation6.wav,audio/Narrative7Situation6.wav,audio/Narrative6Situation6.wav,audio/Narrative5Situation6.wav,2,3,2,3,,,,,,,,,,,,,,,,,,,,,,,,,,,,,,,,,,,,,,,
,,,,,63eda5a4a87d8bd73853fa8e,2025-07-07_19h59.42.294,group3.4_multiperson,2023.2.2,Linux x86_64,59.88023952,686c2ebf0248f13bef9af11f,686c8937dec29fd140e24920,,,,,,,,,,,,,,,,,,,,,,,,,,,,,1097.3817,2,audio/Narrative6Situation7.wav,1102.3922,,1102.3923,1127.2417,"[[100,18165],[100,18582],[100,18666],[100,18749],[100,18832],[100,18916],[100,19000],[100,19082],[100,19165],[100,19249],[100,19332],[100,19416],[100,19499],[98.8,19583],[99.1,19665],[99.1,19750],[99.1,19833],[99.1,19917],[99.1,20000],[99.1,20082],[99.1,20166],[99.1,20249],[99.1,20332],[99.1,20416],[99.1,20499],[99.1,20582],[99.1,20666],[99.1,20749],[99.3,20832],[99.6,20916],[99.6,20999],[99.6,21083],[99.6,21167],[99.6,21249],[99.6,21332],[99.6,21416],[99.6,21499],[99.6,21583],[99.6,21665],[99.6,21749],[99.6,21833],[99.6,21916],[99.6,21999],[99.6,22082],[99.6,22166],[99.6,22249],[99.6,22333],[99.6,22416],[99.6,22499],[99.6,22583],[99.6,22665],[99.6,22749],[99.6,22833],[99.6,22915],[99.6,22999],[99.6,23082],[99.6,23165],[99.6,23249],[99.6,23333],[99.6,23415],[99.6,23499],[99.6,23582],[99.6,23665],[99.6,23749],[99.6,23832],[99.6,23916],[99.6,23998],[99.7,24082],[99.7,24166],[99.7,24249],[99.4,24332],[99.4,24415],[99.4,24499],[99.4,24582],[99.4,24666],[99.4,24748],[99.4,24832]]",1127.2419,1129.375,99.92613475,1.3764,"[{""rating"":99.92613474527995,""responseTime"":1.376400000006015}]",space,1.588,,1129.3751,Partially,50,1129.3786,,,[],,0,16,16,16,1,audio/Narrative8Situation7.wav,audio/Narrative7Situation7.wav,audio/Narrative6Situation7.wav,audio/Narrative5Situation7.wav,3,5,5,4,,,,,,,,,,,,,,,,,,,,,,,,,,,,,,,,,,,,,,,
,,,,,63eda5a4a87d8bd73853fa8e,2025-07-07_19h59.42.294,group3.4_multiperson,2023.2.2,Linux x86_64,59.88023952,686c2ebf0248f13bef9af11f,686c8937dec29fd140e24920,,,,,,,,,,,,,,,,,,,,,,,,,,,,,1129.379,2,audio/Narrative6Situation8.wav,1134.3918,,1134.3919,1141.2577,"[[100,849],[100,934],[100,1017],[100,1100],[100,1183],[100,1265],[100,1350],[100,1432],[100,1516],[100,1599],[100,1682],[100,1765],[100,1849],[100,1933],[100,2016],[100,2099],[100,2182],[100,2267],[100,2348],[100,2433],[100,2516],[100,2599],[100,2683],[100,2771],[100,2849],[100,2932],[100,3015],[100,3100],[100,3182],[100,3269],[100,3349],[100,3433],[100,3516],[100,3599],[100,3683],[100,3765],[100,3850],[100,3933],[100,4015],[100,4099],[100,4182],[100,4265],[100,4349],[100,4432],[100,4518],[100,4599],[100,4682],[100,4767],[100,4849],[100,4932],[100,5016],[100,5099],[100,5183],[100,5268],[100,5349],[100,5433],[100,5516],[100,5600],[100,5682],[100,5766],[100,5849],[100,5932],[100,6016],[100,6099],[100,6182],[100,6265],[100,6349],[100,6432],[100,6516],[100,6601],[100,6682],[100,6766],[100,6849]]",1141.2578,1144.3766,99.38205719,3.1169,"[{""rating"":99.3820571899414,""responseTime"":3.1169000000058986}]",space,1.6866,,1144.3766,Definitely yes,100,1144.3812,,,[],,0,17,17,17,1,audio/Narrative8Situation8.wav,audio/Narrative7Situation8.wav,audio/Narrative6Situation8.wav,audio/Narrative5Situation8.wav,3,2,5,3,,,,,,,,,,,,,,,,,,,,,,,,,,,,,,,,,,,,,,,
,,,,,63eda5a4a87d8bd73853fa8e,2025-07-07_19h59.42.294,group3.4_multiperson,2023.2.2,Linux x86_64,59.88023952,686c2ebf0248f13bef9af11f,686c8937dec29fd140e24920,,,,,,,,,,,,,,,,,,,,,,,,,,,,,1144.3816,2,audio/Narrative6Situation9.wav,1148.3909,,1148.391,1158.3411,"[[999,1],[999,83],[999,166],[999,250],[999,333],[999,417],[999,500],[999,583],[999,667],[999,749],[999,835],[999,916],[999,1000],[999,1083],[999,1166],[999,1250],[999,1333],[999,1416],[999,1499],[999,1583],[999,1667],[999,1749],[999,1833],[999,1916],[999,2000],[999,2083],[999,2166],[999,2249],[999,2333],[999,2416],[999,2499],[999,2583],[999,2666],[999,2750],[999,2833],[999,2917],[999,3000],[999,3083],[999,3166],[999,3249],[999,3332],[999,3416],[999,3500],[999,3583],[999,3666],[999,3750],[999,3834],[999,3916],[999,4000],[999,4083],[999,4166],[999,4249],[999,4333],[999,4416],[999,4499],[999,4583],[999,4666],[999,4750],[999,4833],[999,4916],[999,4999],[999,5083],[999,5166],[999,5249],[999,5332],[999,5416],[999,5500],[999,5584],[999,5666],[999,5750],[999,5833],[999,5916],[999,5999],[999,6083],[999,6166],[999,6249],[999,6333],[999,6416],[999,6502],[999,6583],[999,6666],[999,6749],[999,6832],[999,6916],[999,7000],[999,7083],[999,7166],[999,7249],[999,7333],[999,7416],[999,7500],[999,7583],[999,7666],[999,7751],[999,7833],[999,7916],[999,8000],[999,8083],[999,8166],[999,8249],[999,8333],[999,8416],[999,8499],[999,8582],[999,8666],[999,8751],[999,8833],[999,8916],[999,8999],[999,9083],[999,9166],[999,9250],[999,9334],[999,9416],[999,9499],[999,9583],[999,9666],[999,9749],[999,9833],[999,9916]]",1158.3412,1164.8076,99.93222555,5.8115,"[{""rating"":99.93222554524739,""responseTime"":5.6440000000000055},{""rating"":99.93222554524739,""responseTime"":5.811499999999796}]",space,5.9178,,1164.8076,Not at all,0,1164.8109,,,[],,0,18,18,18,1,audio/Narrative8Situation9.wav,audio/Narrative7Situation9.wav,audio/Narrative6Situation9.wav,audio/Narrative5Situation9.wav,3,2,4,3,,,,,,,,,,,,,,,,,,,,,,,,,,,,,,,,,,,,,,,
,,,,,63eda5a4a87d8bd73853fa8e,2025-07-07_19h59.42.294,group3.4_multiperson,2023.2.2,Linux x86_64,59.88023952,686c2ebf0248f13bef9af11f,686c8937dec29fd140e24920,,,,,,,,,,,,,,,,,,,,,,,,,,,,,,,,,,,,,,,,,,,,,,,,,,,,,,,,,,,,,,,,,,,,,,1164.8111,1166.3909,space,1.0532,,1166.3912,1180.624,space,13.8983,,,,,,,,,,,,,,,,,,,,,,,,,,
,,,,,63eda5a4a87d8bd73853fa8e,2025-07-07_19h59.42.294,group3.4_multiperson,2023.2.2,Linux x86_64,59.88023952,686c2ebf0248f13bef9af11f,686c8937dec29fd140e24920,,,,,,,,,,,,,,,,,,,,,,,,,,,,,1183.236,1,audio/Narrative8Situation9.wav,1185.2406,,,,,1217.1102,1220.0793,49.86816406,2.3971,"[{""rating"":49.8681640625,""responseTime"":2.3970999999939977}]",space,2.4187,,1220.0795,Partially,50,1220.0865,,,[],,,,,,,,,,,2,2,2,2,,,,,,,,,,,,,,,1180.6265,1183.2079,1185.2409,3,1217.1098,"[[99.9,2183],[99.9,2265],[99.9,2349],[99.9,2432],[99.9,2517],[100,2599],[100,2682],[0.1,4848],[0.4,5598],[0.6,5682],[0.6,5765],[0.6,5849],[0.6,5932],[0.6,6015],[0.8,6102],[0.9,6183],[0.9,6265],[0.9,6349],[0.9,6432],[0.9,6515],[0.9,6599],[0.9,6682],[0.9,6765],[0.9,6849],[0.9,6932],[0.9,7015],[0.9,7099],[0.9,7182],[0.9,7265],[0.9,7348],[0.9,7433],[0.9,7515],[0.9,7599],[0.9,7682],[0.9,7768],[0.9,7849],[0.9,7931],[0.9,8018],[0.9,8100],[0.9,8182],[0.9,8265],[0.9,8350],[0.9,8432],[0.9,8515],[0.9,8599],[0.9,8682],[0.9,8766],[0.9,8851],[0.9,8932],[0.9,9015],[0.9,9099],[0.9,9182],[0.9,9265],[0.9,9348],[0.9,9432],[0.9,9516],[0.9,9598],[0.9,9682],[0.9,9765],[0.9,9848],[0.9,9932],[0.9,10015],[0.9,10115],[0.9,10198],[0.9,10282],[0.9,10365],[0.9,10448],[0.9,10532],[0.9,10616],[0.9,10699],[0.9,10781],[0.9,10865],[0.9,10948],[0.9,11031],[0.9,11115],[0.9,11198],[0.9,11281],[0.9,11365],[0.9,11449],[0.9,11531],[0.9,11615],[0.9,11698],[0.9,11782],[0.9,11865],[0.9,11962],[0.9,12032],[0.9,12115],[0.9,12198],[0.9,12281],[0.9,12369],[0.9,12448],[0.9,12534],[0.9,12615],[0.9,12701],[0.9,12781],[0.9,12866],[0.9,12948],[0.9,13032],[0.9,13115],[0.9,13198],[0.9,13283],[0.9,13373],[0.9,13465],[0.9,13548],[0.9,13632],[0.9,13715],[0.9,13798],[0.9,13881],[0.9,13966],[0.9,14049],[0.9,14132],[0.9,14215],[0.9,14298],[0.9,14382],[0.9,14465],[0.9,14555],[0.9,14632],[0.9,14715],[0.9,14799],[0.9,14881],[0.9,14965],[0.9,15048],[0.9,15134],[0.9,15216],[0.9,15302],[0.9,15384],[0.9,15465],[0.9,15551],[0.9,15633],[0.9,15715],[0.9,15798],[0.9,15882],[0.9,15965],[0.9,16048],[0.9,16132],[0.9,16220],[0.9,16299],[0.9,16381],[0.9,16465],[0.9,16552],[0.9,16632],[0.9,16719],[0.9,16798],[0.9,16882],[0.9,16965],[0.9,17049],[0.9,17132],[0.9,17215],[0.9,17300],[0.9,17383],[0.9,17465],[0.9,17548],[0.9,17631],[0.9,17715],[0.9,17798],[0.9,17882],[0.9,17965],[0.9,18048],[0.9,18134],[0.9,18219],[0.9,18302],[0.9,18381],[0.9,18465],[0.9,18548],[0.9,18632],[0.9,18715],[0.9,18799],[0.9,18884],[0.9,18965],[0.9,19049],[0.9,19131],[0.9,19217],[0.9,19299],[0.9,19382],[0.9,19464],[0.9,19548],[0.9,19634],[0.9,19715],[0.9,19799],[0.9,19882],[0.9,19970],[0.9,20052],[0.9,20144],[0.9,20215],[0.9,20298],[0.9,20381],[0.9,20466],[0.9,20549],[0.9,20631],[0.9,20715],[0.9,20798],[0.9,20881],[0.9,20966],[0.9,21049],[0.9,21131],[0.9,21215],[0.9,21299],[0.9,21381],[0.9,21466],[0.9,21548],[0.9,21633],[0.9,21720],[0.9,21798],[0.9,21882],[0.9,21966],[0.9,22048],[0.9,22131],[0.9,22216],[0.9,22301],[0.9,22382],[0.9,22465],[0.9,22549],[0.9,22633],[0.9,22716],[0.9,22799],[0.9,22881],[0.9,22965],[0.9,23049],[0.9,23132],[0.9,23215],[0.9,23298],[0.9,23386],[0.9,23465],[0.9,23551],[0.9,23635],[0.9,23715],[0.9,23798],[0.9,23881],[0.9,23965],[0.9,24051],[0.9,24131],[0.9,24215],[0.9,24298],[0.9,24382],[0.9,24465],[0.9,24549],[0.9,24643],[0.9,24716],[0.9,24799],[0.9,24881],[0.9,24965],[0.9,25048],[0.9,25132],[0.9,25216],[0.9,25298],[0.9,25383],[0.9,25465],[0.9,25549],[0.9,25631],[0.9,25715],[0.9,25798],[0.9,25884],[0.9,25965],[0.9,26049],[0.9,26132],[0.9,26215],[0.9,26298],[0.9,26382],[0.9,26465],[0.9,26552],[0.9,26633],[0.9,26719],[0.9,26799],[0.9,26882],[0.9,26965],[0.9,27048],[0.9,27131],[0.9,27219],[0.9,27298],[0.9,27382],[0.9,27467],[0.9,27548],[0.9,27632],[0.9,27715],[0.9,27799],[0.9,27882],[0.9,27965],[0.9,28048],[0.9,28131],[0.9,28215],[0.9,28298],[0.9,28381],[0.9,28467],[0.9,28550],[0.9,28632],[0.9,28715],[0.9,28800],[0.9,28883],[0.9,28966],[0.9,29048],[0.9,29135],[0.9,29215],[0.9,29298],[1.1,29382],[2.6,29465],[3.8,29549],[5.6,29631],[6.4,29716],[10.1,29799],[18.3,29881],[26.4,29965],[30.9,30048],[37.5,30131],[45.7,30215],[53.5,30298],[59.5,30381],[67.3,30464],[73,30549],[77.4,30632],[85.6,30715],[91,30798],[96,30881],[100,30965],[100,31048],[100,31132],[100,31215],[100,31298],[100,31381],[100,31465],[100,31551],[100,31631],[100,31716],[100,31799]]",0,0,0,0,1,"Larry had recently lost his family, job and home, and was now living on his own in the park. He had most of his belongings, including some clothes, a blanket, and his mother’s special necklace. His family had been very important to him and he felt as though he did not have much going for him. One of his first days in the park he came across a family that did not have much food and looked very cold. He decided to give them some of his food and his blanket.","Larry had recently lost his family, job and home, and was now living on his own in the park. He had most of his belongings, including some clothes, a blanket, and his mother’s special necklace. His family had been very important to him and he felt as though he did not have much going for him. One of his first days in the park he came across a family that did not have much food and looked very cold. He decided to give them some of his food and his blanket.","Larry had recently lost his family, job and home, and was now living on his own in the park. He had most of his belongings, including some clothes, a blanket, and his mother’s special necklace. His family had been very important to him and he felt as though he did not have much going for him. One of his first days in the park he came across a family that did not have much food and looked very cold. He decided to give them some of his food and his blanket.","Larry had recently lost his family, job and home, and was now living on his own in the park. He had most of his belongings, including some clothes, a blanket, and his mother’s special necklace. His family had been very important to him and he felt as though he did not have much going for him. One of his first days in the park he came across a family that did not have much food and looked very cold. He decided to give them some of his food and his blanket.",,,,,,,,,,
