consent.started,consent.stopped,consentResponse.keys,consentResponse.rt,consentResponse.duration,participantID,date,expName,psychopyVersion,OS,frameRate,STUDY_ID,SESSION_ID,opening1.started,opening1.stopped,keyEndingOpening1.keys,keyEndingOpening1.rt,keyEndingOpening1.duration,volumeAdjust.started,volumeAdjust.stopped,endingAdjust.keys,endingAdjust.rt,endingAdjust.duration,opening2.started,opening2.stopped,keyEndingOpening.keys,keyEndingOpening.rt,keyEndingOpening.duration,mouse.x,mouse.y,mouse.leftButton,mouse.midButton,mouse.rightButton,mouse.time,instructionLoop.thisRepN,instructionLoop.thisTrialN,instructionLoop.thisN,instructionLoop.thisIndex,instructionLoop.ran,readyForAudio.started,readyForAudio.stopped,fixation.started,run,audio_played,fixation.stopped,endPractice.keys,audioPre.started,audioPre.stopped,continuousResponses_audio,intRating.started,intRating.stopped,intQuestionSlider.response,intQuestionSlider.rt,intQuestionSlider.history,confirmResponse.keys,confirmResponse.rt,confirmResponse.duration,catchQuestion.started,catch_label,catch_value,catchQuestion.stopped,catchQuestionSlider.response,catchQuestionSlider.rt,catchQuestionSlider.history,confirmResponse_2.keys,audioRunLoop.thisRepN,audioRunLoop.thisTrialN,audioRunLoop.thisN,audioRunLoop.thisIndex,audioRunLoop.ran,conditions1_1,conditions2_1,conditions1_2,conditions2_2,dur1_1,dur2_1,dur1_2,dur2_2,endPractice.rt,endPractice.duration,confirmResponse_2.rt,confirmResponse_2.duration,runIntervalBreak.started,runIntervalBreak.stopped,endingBreakKey.keys,endingBreakKey.rt,endingBreakKey.duration,connection.started,connection.stopped,connectionEnding.keys,connectionEnding.rt,connectionEnding.duration,readyForText.started,readyForText.stopped,textPre.started,run_dup,textPre.stopped,continuousResponses_text,textRunLoop.thisRepN,textRunLoop.thisTrialN,textRunLoop.thisN,textRunLoop.thisIndex,textRunLoop.ran,text1_1,text1_2,text2_1,text2_2,runBreakText.started,runBreakText.stopped,endingBreakKey_2.keys,ending.started,ending.stopped,endingEnding.keys,endingEnding.rt,endingEnding.duration
0.0002,5.2968,y,4.9709,,6441c37f5666c66e67eba833,2025-07-07_22h40.02.604,group3.4_multiperson,2023.2.2,Win32,59.88023952,686c2ebf0248f13bef9af11f,686c842f79e5f9be58d4e588,,,,,,,,,,,,,,,,,,,,,,,,,,,,,,,,,,,,,,,,,,,,,,,,,,,,,,,,,,,,,,,,,,,,,,,,,,,,,,,,,,,,,,,,,,,,,,,,,,,,,,
,,,,,6441c37f5666c66e67eba833,2025-07-07_22h40.02.604,group3.4_multiperson,2023.2.2,Win32,59.88023952,686c2ebf0248f13bef9af11f,686c842f79e5f9be58d4e588,5.2969,9.8134,space,4.4976,,,,,,,,,,,,,,,,,,,,,,,,,,,,,,,,,,,,,,,,,,,,,,,,,,,,,,,,,,,,,,,,,,,,,,,,,,,,,,,,,,,,,,,,,,,,,,,,,,
,,,,,6441c37f5666c66e67eba833,2025-07-07_22h40.02.604,group3.4_multiperson,2023.2.2,Win32,59.88023952,686c2ebf0248f13bef9af11f,686c842f79e5f9be58d4e588,,,,,,9.8135,67.0628,space,56.9278,,,,,,,,,,,,,,,,,,,,,,,,,,,,,,,,,,,,,,,,,,,,,,,,,,,,,,,,,,,,,,,,,,,,,,,,,,,,,,,,,,,,,,,,,,,,,
,,,,,6441c37f5666c66e67eba833,2025-07-07_22h40.02.604,group3.4_multiperson,2023.2.2,Win32,59.88023952,686c2ebf0248f13bef9af11f,686c842f79e5f9be58d4e588,,,,,,,,,,,67.0652,73.2126,space,6.1272,,[],[],[],[],[],[],0,0,0,0,1,,,,,,,,,,,,,,,,,,,,,,,,,,,,,,,,,,,,,,,,,,,,,,,,,,,,,,,,,,,,,,,,,,,,,,,,,,,,
,,,,,6441c37f5666c66e67eba833,2025-07-07_22h40.02.604,group3.4_multiperson,2023.2.2,Win32,59.88023952,686c2ebf0248f13bef9af11f,686c842f79e5f9be58d4e588,,,,,,,,,,,73.2129,85.0956,space,11.816,,[],[],[],[],[],[],1,0,1,0,1,,,,,,,,,,,,,,,,,,,,,,,,,,,,,,,,,,,,,,,,,,,,,,,,,,,,,,,,,,,,,,,,,,,,,,,,,,,,
,,,,,6441c37f5666c66e67eba833,2025-07-07_22h40.02.604,group3.4_multiperson,2023.2.2,Win32,59.88023952,686c2ebf0248f13bef9af11f,686c842f79e5f9be58d4e588,,,,,,,,,,,85.0958,98.1955,space,13.0722,,[],[],[],[],[],[],2,0,2,0,1,,,,,,,,,,,,,,,,,,,,,,,,,,,,,,,,,,,,,,,,,,,,,,,,,,,,,,,,,,,,,,,,,,,,,,,,,,,,
,,,,,6441c37f5666c66e67eba833,2025-07-07_22h40.02.604,group3.4_multiperson,2023.2.2,Win32,59.88023952,686c2ebf0248f13bef9af11f,686c842f79e5f9be58d4e588,,,,,,,,,,,98.1956,104.712,space,6.5027,,[],[],[],[],[],[],3,0,3,0,1,,,,,,,,,,,,,,,,,,,,,,,,,,,,,,,,,,,,,,,,,,,,,,,,,,,,,,,,,,,,,,,,,,,,,,,,,,,,
,,,,,6441c37f5666c66e67eba833,2025-07-07_22h40.02.604,group3.4_multiperson,2023.2.2,Win32,59.88023952,686c2ebf0248f13bef9af11f,686c842f79e5f9be58d4e588,,,,,,,,,,,104.7122,126.6283,space,21.9007,,[],[],[],[],[],[],4,0,4,0,1,,,,,,,,,,,,,,,,,,,,,,,,,,,,,,,,,,,,,,,,,,,,,,,,,,,,,,,,,,,,,,,,,,,,,,,,,,,,
,,,,,6441c37f5666c66e67eba833,2025-07-07_22h40.02.604,group3.4_multiperson,2023.2.2,Win32,59.88023952,686c2ebf0248f13bef9af11f,686c842f79e5f9be58d4e588,,,,,,,,,,,126.6285,133.4116,space,6.7693,,[],[],[],[],[],[],5,0,5,0,1,,,,,,,,,,,,,,,,,,,,,,,,,,,,,,,,,,,,,,,,,,,,,,,,,,,,,,,,,,,,,,,,,,,,,,,,,,,,
,,,,,6441c37f5666c66e67eba833,2025-07-07_22h40.02.604,group3.4_multiperson,2023.2.2,Win32,59.88023952,686c2ebf0248f13bef9af11f,686c842f79e5f9be58d4e588,,,,,,,,,,,,,,,,,,,,,,,,,,,133.4126,135.9949,136.006,1,audio/Narrative13Situation2.wav,138.0116,,138.0117,167.7614,"[[999,0],[999,83],[999,166],[999,249],[999,333],[999,416],[999,499],[999,583],[999,666],[999,749],[999,833],[999,916],[999,999],[999,1083],[999,1166],[999,1249],[999,1333],[999,1416],[999,1499],[999,1582],[999,1666],[43.5,1749],[42.9,1833],[42.9,1916],[42.8,1999],[42,2083],[41.1,2166],[40.7,2249],[40.3,2333],[40.1,2416],[40.2,2499],[45.1,2583],[55.3,2666],[60.7,2749],[63.6,2833],[65.2,2916],[65.8,2999],[66.8,3083],[67.6,3166],[68.3,3249],[69,3333],[69.5,3416],[69.8,3499],[70.3,3582],[70.9,3666],[71.5,3749],[71.7,3833],[71.7,3916],[71.7,3999],[71.7,4083],[71.7,4166],[71.7,4249],[71.7,4332],[71.7,4416],[71.7,4499],[71.7,4582],[71.5,4666],[69.6,4749],[65.4,4833],[61.3,4916],[57.5,4999],[53.3,5083],[49,5166],[45.6,5249],[43.5,5332],[42.9,5416],[42.8,5499],[42.6,5582],[42.2,5666],[42.1,5749],[42.1,5832],[41.9,5916],[41.6,5999],[41.6,6082],[41.4,6166],[40.7,6249],[39.8,6332],[38.9,6416],[37.6,6499],[35.7,6583],[34.6,6666],[34.2,6749],[33.4,6833],[32.6,6916],[32.2,6999],[32,7083],[32,7166],[32,7249],[32,7333],[32,7416],[32,7499],[32,7582],[32,7666],[32,7749],[32.6,7833],[33,7916],[33.2,7999],[33.6,8082],[34.1,8166],[34.5,8249],[34.7,8332],[34.7,8416],[34.7,8499],[34.5,8582],[34.1,8666],[33.3,8749],[32.8,8832],[32.2,8916],[31.4,8999],[30.9,9082],[30.9,9166],[30.8,9249],[30.5,9332],[29.9,9416],[29.4,9499],[29,9582],[28.9,9666],[28.5,9749],[28.3,9832],[28.3,9916],[28.2,9999],[28.2,10082],[28.2,10166],[28.2,10249],[28.2,10332],[28.2,10416],[28.8,10499],[29.5,10582],[30.2,10666],[30.4,10749],[30.7,10832],[31.5,10916],[32.1,10999],[33.6,11082],[38.5,11166],[42.4,11249],[44.7,11332],[48.4,11416],[56,11499],[66.3,11832],[66.4,11916],[66.6,11999],[66.7,12082],[67.6,12166],[71.5,12249],[76.1,12332],[79.4,12416],[81.3,12499],[82.7,12583],[83.8,12666],[84.7,12749],[86.8,12832],[88,12916],[88.8,12999],[88.9,13082],[88.9,13166],[88.9,13249],[88.9,13332],[89,13416],[89,13499],[89,13582],[89,13666],[90,13749],[92.7,13832],[93.8,13916],[94.7,13999],[95.3,14082],[95.6,14166],[95.6,14249],[95.6,14332],[95.6,14416],[95.6,14499],[95.6,14582],[95.6,14666],[95.6,14749],[95.6,14832],[95.5,14916],[95.4,14999],[95.3,15082],[95.3,15166],[95.3,15249],[95.1,15332],[94.8,15416],[94.3,15499],[93.5,15582],[93.2,15666],[93.1,15749],[93,15832],[93,15916],[93,15999],[92.9,16082],[92.9,16166],[92.9,16249],[92.9,16332],[92.8,16416],[92.7,16499],[92.3,16582],[92,16666],[91.8,16749],[91.6,16832],[91.4,16916],[91.3,16999],[91.1,17082],[91.1,17166],[91.1,17249],[91.1,17332],[91,17416],[91,17499],[91,17582],[91,17666],[91,17749],[91,17832],[91,17916],[91,17999],[91,18082],[90.8,18166],[90.4,18249],[90.1,18332],[89.8,18416],[89.6,18499],[89.5,18583],[89.5,18666],[89.5,18749],[89.4,18832],[89.4,18916],[89.4,18999],[89.4,19082],[89.4,19166],[89.4,19249],[89.6,19332],[89.7,19415],[90,19499],[90.1,19582],[90.2,19666],[90.1,19749],[88.5,19832],[86.6,19916],[86,19999],[85.8,20082],[85.6,20166],[85.5,20249],[85.3,20332],[85,20416],[85,20499],[84.9,20582],[84.9,20666],[84.9,20749],[84.9,20832],[86,20916],[86.8,20999],[87.3,21082],[87.4,21166],[87.5,21249],[87.5,21332],[87.5,21416],[87.5,21499],[87.5,21582],[87.5,21666],[87.5,21749],[87.6,21832],[87.6,21916],[87.5,21999],[85.9,22082],[85.9,22166],[85.9,22249],[85.9,22332],[85.8,22416],[85.9,22499],[100,22916],[100,22999],[100,23082],[100,23166],[99.7,23249],[98.1,23332],[96,23416],[94.9,23499],[94.3,23582],[93.2,23666],[92.2,23749],[91.7,23832],[91.6,23915],[91.5,23999],[91.4,24082],[90.9,24166],[90.1,24249],[89.1,24332],[87.9,24416],[87.5,24499],[87.4,24582],[87.1,24666],[87,24749],[87,24832],[90.1,24916],[93.8,24999],[94.8,25082],[94.8,25166],[94.8,25249],[94.8,25332],[94.8,25415],[94.8,25499],[94.8,25582],[94.8,25666],[94.8,25749],[94.8,25832],[94.8,25915],[94.8,25999],[94.8,26082],[94.8,26165],[94.7,26249],[94.5,26332],[94.4,26415],[94.3,26499],[94.1,26582],[94,26666],[94,26749],[94,26832],[93.9,26916],[93.9,26999],[93.9,27082],[93.8,27165],[93.8,27249],[93.8,27332],[93.8,27415],[93.8,27499],[93.6,27582],[93.6,27665],[93.5,27749],[93.5,27832],[93.5,27915],[93.5,27999],[93.5,28082],[93.5,28165],[93.5,28249],[93.5,28332],[93.5,28415],[93.5,28499],[93.5,28582],[93.5,28665],[93.5,28749],[93.4,28832],[93.4,28915],[93.3,28999],[93.1,29082],[93,29165],[92.8,29249],[92.7,29332],[92.6,29415],[92.5,29499],[92.4,29582],[92.4,29665],[92.4,29749]]",167.7615,174.0611,93.22916667,3.7425,"[{""rating"":93.22916666666667,""responseTime"":3.7424999999999784}]",space,5.7581,,174.0612,Partially,50,174.0631,,,[],,0,0,0,0,1,audio/Narrative13Situation2.wav,audio/Narrative13Situation2.wav,audio/Narrative13Situation2.wav,audio/Narrative13Situation2.wav,2,2,2,2,,,,,,,,,,,,,,,,,,,,,,,,,,,,,,,,,,,,,
,,,,,6441c37f5666c66e67eba833,2025-07-07_22h40.02.604,group3.4_multiperson,2023.2.2,Win32,59.88023952,686c2ebf0248f13bef9af11f,686c842f79e5f9be58d4e588,,,,,,,,,,,,,,,,,,,,,,,,,,,,,174.0632,1,audio/Narrative8Situation1.wav,174.1944,space,174.1944,190.1275,"[[999,0],[999,83],[999,166],[999,249],[999,333],[999,416],[999,499],[999,583],[999,666],[999,749],[999,833],[999,916],[999,1000],[999,1083],[51.9,1166],[45.3,1250],[39.5,1333],[35.7,1416],[34.2,1499],[33.3,1583],[32.2,1666],[32.2,1750],[36.3,1833],[41.1,1916],[45.4,1999],[46,2083],[46.1,2166],[46.8,2249],[50.4,2333],[61.6,2416],[66.7,2500],[67.4,2583],[67.4,2666],[67.4,2749],[67.3,2833],[67.1,2916],[66.1,2999],[65.5,3083],[65,3166],[64.8,3249],[64.7,3333],[64.6,3416],[64.6,3499],[64.6,3583],[64.6,3666],[64.6,3749],[64.6,3833],[64.6,3916],[64.6,3999],[64.6,4083],[64.6,4166],[64.6,4249],[62.4,4333],[54.6,4416],[51.4,4499],[48.5,4583],[46.5,4666],[44.5,4749],[43.5,4833],[42.8,4916],[42.2,4999],[40.5,5083],[37.8,5166],[34.4,5249],[32.1,5333],[30,5416],[28.5,5499],[27.9,5583],[27.7,5666],[27.6,5749],[27.6,5833],[27.6,5916],[27.5,5999],[27.5,6083],[27.5,6166],[27.5,6249],[27.5,6333],[27.5,6416],[27.5,6499],[27.5,6583],[27.5,6666],[27.5,6749],[27.5,6833],[27.4,6916],[27.1,6999],[26.9,7083],[26.6,7166],[26.3,7249],[26.1,7333],[26.1,7416],[26.1,7499],[26.7,7583],[33.3,7666],[37.6,7749],[38.1,7833],[38.3,7916],[38.3,7999],[38.3,8083],[38.4,8166],[38.4,8249],[38.4,8333],[38.4,8416],[38.4,8499],[38.4,8583],[38.4,8666],[38.4,8749],[38.9,8833],[39.4,8916],[39.8,8999],[40.6,9083],[42.2,9166],[43.1,9249],[43.9,9333],[44.9,9416],[46,9499],[46.9,9583],[47.5,9666],[47.9,9749],[48,9833],[48.3,9916],[48.5,9999],[49.1,10083],[50.1,10166],[51.9,10249],[53.2,10333],[54.1,10416],[54.9,10499],[55.3,10583],[55.7,10666],[56.5,10749],[57.2,10833],[57.3,10916],[57.3,10999],[57.3,11083],[57,11166],[46,11749],[45.3,11833],[44.9,11916],[44.7,11999],[44.5,12083],[44.3,12166],[44.1,12249],[43.6,12333],[43.4,12416],[43.3,12499],[43.5,12583],[49.7,12666],[57.8,12749],[63.6,12833],[64.9,12916],[65.2,12999],[65.5,13083],[65.6,13166],[65.8,13249],[65.9,13333],[65.9,13416],[65.9,13499],[65.9,13582],[65.9,13666],[65.6,13749],[65.1,13832],[64.7,13916],[64.4,13999],[64.3,14082],[64.1,14166],[63.8,14249],[63.6,14332],[63.5,14416],[63.5,14499],[63.5,14582],[63.4,14666],[63.4,14749],[63.4,14833],[63.4,14916],[63.4,14999],[63.4,15082],[63.4,15166],[63.4,15249],[63.4,15332],[63.4,15416],[63.4,15499],[63.3,15583],[63.3,15666],[63.3,15750],[63.3,15833],[63.1,15916]]",190.1276,193.844,54.47916667,1.6211,"[{""rating"":54.479166666666664,""responseTime"":1.6210999999940157}]",space,3.1697,,193.844,Not at all,0,193.8455,,,[],,0,1,1,1,1,audio/Narrative7Situation1.wav,audio/Narrative8Situation1.wav,audio/Narrative5Situation1.wav,audio/Narrative6Situation1.wav,2,5,5,2,0.1207,,,,,,,,,,,,,,,,,,,,,,,,,,,,,,,,,,,,
,,,,,6441c37f5666c66e67eba833,2025-07-07_22h40.02.604,group3.4_multiperson,2023.2.2,Win32,59.88023952,686c2ebf0248f13bef9af11f,686c842f79e5f9be58d4e588,,,,,,,,,,,,,,,,,,,,,,,,,,,,,193.8456,1,audio/Narrative8Situation2.wav,196.8607,,196.8607,206.994,"[[999,0],[999,83],[999,166],[999,249],[999,333],[999,416],[999,499],[999,583],[999,666],[999,750],[999,833],[999,916],[999,1000],[999,1083],[999,1166],[42.9,1250],[42.8,1333],[43.9,1416],[45.4,1500],[45.7,1583],[46,1666],[46.7,1750],[47.2,1833],[47.5,1916],[47.6,2000],[47.6,2083],[47.6,2166],[47.3,2250],[46.4,2333],[44.9,2416],[43.8,2500],[43.1,2583],[42.7,2666],[42.6,2749],[42.6,2833],[42.6,2916],[42.6,2999],[42.6,3083],[42.6,3166],[42.6,3249],[42.6,3333],[42.6,3416],[42.6,3499],[42.6,3583],[42.6,3666],[42.6,3749],[42.6,3833],[42.6,3916],[42.6,3999],[42.6,4083],[42.6,4166],[42.6,4249],[42.6,4333],[42.6,4416],[42.6,4499],[42.6,4583],[42.6,4666],[42.6,4749],[42.6,4833],[42.6,4916],[42.6,4999],[42.6,5083],[42.6,5166],[42.6,5249],[42.6,5333],[42.6,5416],[42.6,5499],[42.6,5583],[42.6,5666],[42.6,5749],[42.6,5833],[42.6,5916],[42.6,5999],[42.6,6083],[42.6,6166],[42.6,6249],[42.6,6333],[42.6,6416],[42.6,6499],[42.6,6583],[42.6,6666],[42.5,6750],[41.8,6833],[40.7,6916],[40.2,6999],[40.2,7083],[42.5,7166],[48.9,7250],[52.7,7333],[55.4,7416],[57,7500],[57.7,7583],[58,7666],[58.2,7749],[58.3,7833],[58.3,7916],[58.3,7999],[58.3,8083],[58.3,8166],[58.3,8249],[58.3,8333],[58.3,8416],[58.4,8499],[58.6,8583],[58.8,8666],[58.9,8749],[58.9,8833],[58.9,8916],[58.9,8999],[58.9,9083],[58.9,9166],[58.9,9249],[58.9,9333],[58.8,9416],[58.5,9499],[58,9583],[57.3,9666],[56.7,9749],[55.9,9833],[55,9916],[53.2,9999],[51.7,10083]]",206.9941,212.1437,40,3.0439,"[{""rating"":40,""responseTime"":3.0438999999985015}]",space,4.601,,212.1437,Definitely yes,100,212.1454,,,[],,0,2,2,2,1,audio/Narrative7Situation2.wav,audio/Narrative8Situation2.wav,audio/Narrative5Situation2.wav,audio/Narrative6Situation2.wav,3,3,3,3,,,,,,,,,,,,,,,,,,,,,,,,,,,,,,,,,,,,,
,,,,,6441c37f5666c66e67eba833,2025-07-07_22h40.02.604,group3.4_multiperson,2023.2.2,Win32,59.88023952,686c2ebf0248f13bef9af11f,686c842f79e5f9be58d4e588,,,,,,,,,,,,,,,,,,,,,,,,,,,,,212.1455,1,audio/Narrative8Situation3.wav,216.1605,,216.1605,238.5435,"[[48.1,166],[48,250],[48,333],[48,416],[48,499],[48,582],[48.2,666],[48.9,749],[50.3,833],[51.8,916],[53,2166],[52.4,2250],[51.8,2333],[51.1,2416],[50.3,2499],[49.5,2583],[48.5,2666],[47.6,2749],[46.7,2833],[45.6,2916],[44.5,2999],[43.1,3083],[42.1,3166],[41.4,3250],[40.6,3333],[39.8,3416],[39.1,3499],[38.2,3583],[37.6,3666],[37.4,3749],[37.4,3833],[37.4,3916],[38.1,3999],[46.9,4083],[53.5,4166],[55.7,4250],[57.4,4333],[58.4,4416],[59,4499],[59.5,4583],[60,4666],[60.5,4749],[61.3,4833],[62.1,4916],[62.9,4999],[63.6,5083],[64.2,5166],[64.8,5249],[65.4,5333],[65.8,5416],[66.3,5499],[66.8,5583],[67.2,5666],[67.5,5749],[67.9,5833],[68.1,5916],[68.3,5999],[68.3,6083],[68.4,6166],[68.4,6249],[68.4,6333],[68.4,6416],[68.4,6499],[68.4,6583],[68.4,6666],[68.4,6749],[68.4,6833],[68.4,6916],[68.5,6999],[68.8,7083],[69.1,7166],[69.6,7249],[70.2,7333],[70.7,7416],[71.1,7499],[71.5,7583],[71.7,7666],[71.8,7749],[71.8,7833],[71.8,7916],[71.8,7999],[71.8,8083],[71.8,8166],[71.8,8249],[71.8,8333],[71.8,8416],[71.8,8499],[71.7,8583],[71.5,8666],[71.5,8749],[71.5,8833],[71.5,8916],[71.5,8999],[71.5,9083],[71.9,9166],[72.5,9249],[73.4,9333],[74.4,9416],[75.5,9499],[76.5,9583],[77,9666],[77.2,9749],[77.2,9833],[77.2,9916],[77.2,9999],[77.2,10083],[77.2,10166],[77.2,10249],[77.2,10333],[77.2,10416],[77.2,10499],[77.2,10583],[77.2,10666],[77.2,10749],[77.2,10833],[77.2,10916],[77.2,10999],[77.2,11083],[77.2,11166],[77.2,11249],[77.2,11333],[77.2,11416],[77.2,11499],[77.2,11583],[77.2,11666],[77.2,11749],[77.3,11833],[77.4,11916],[77.8,11999],[78.3,12083],[78.8,12166],[79.4,12249],[79.6,12333],[80,12416],[80.2,12499],[80.3,12583],[80.4,12666],[80.4,12749],[80.4,12833],[80.4,12916],[80.4,12999],[80.1,13083],[79.8,13166],[79.5,13249],[79.2,13333],[78.9,13416],[78.6,13499],[78.5,13583],[78.4,13666],[78.3,13749],[78.2,13833],[78.2,13916],[78.1,13999],[78,14083],[77.9,14166],[77.9,14249],[77.9,14333],[77.9,14416],[77.8,14499],[77.8,14583],[77.7,14666],[77.6,14749],[77.5,14833],[77.4,14916],[77.3,14999],[77.2,15083],[77.1,15166],[77.1,15249],[77.1,15333],[77.1,15416],[77.1,15499],[77.1,15583],[77.2,15666],[77.7,15749],[79.1,15833],[80.7,15916],[81.7,15999],[82.5,16083],[83.2,16166],[83.9,16249],[84.3,16333],[84.5,16416],[84.6,16499],[84.6,16583],[84.7,16666],[84.7,16749],[84.7,16833],[84.7,16916],[84.2,16999],[83.1,17083],[82.2,17166],[81.7,17249],[81.4,17333],[81.1,17416],[80.8,17499],[80.7,17583],[80.5,17666],[80.4,17749],[80.3,17833],[80.2,17916],[80.1,17999],[80,18082],[80,18166],[79.9,18249],[79.9,18333],[79.8,18416],[79.8,18499],[79.8,18583],[79.8,18666],[79.8,18749],[79.8,18833],[79.8,18916],[79.8,18999],[79.8,19083],[79.8,19166],[79.8,19249],[79.9,19333],[79.9,19416],[80,19499],[80,19582],[80.1,19666],[80.2,19749],[80.3,19833],[80.3,19916],[80.3,19999],[80.4,20083],[80.4,20166],[80.4,20249],[80.4,20332],[80.4,20416],[80.3,20499],[80.2,20583],[80,20666],[79.9,20749],[79.7,20833],[79.5,20916],[79.3,20999],[79,21082],[78.6,21166],[78.2,21249],[77.7,21333],[77.3,21416],[76.9,21499],[76.7,21583],[76.6,21666],[76.6,21749],[76.6,21832],[76.6,21916],[76.6,21999],[76.6,22082],[76.6,22166],[76.5,22249],[76.5,22332]]",238.5436,242.5267,81.77083333,2.7144,"[{""rating"":81.77083333333333,""responseTime"":2.714399999998477}]",space,3.4335,,242.5268,Definitely yes,100,242.5277,,,[],,0,3,3,3,1,audio/Narrative7Situation3.wav,audio/Narrative8Situation3.wav,audio/Narrative5Situation3.wav,audio/Narrative6Situation3.wav,8,4,3,5,,,,,,,,,,,,,,,,,,,,,,,,,,,,,,,,,,,,,
,,,,,6441c37f5666c66e67eba833,2025-07-07_22h40.02.604,group3.4_multiperson,2023.2.2,Win32,59.88023952,686c2ebf0248f13bef9af11f,686c842f79e5f9be58d4e588,,,,,,,,,,,,,,,,,,,,,,,,,,,,,242.5278,1,audio/Narrative8Situation4.wav,245.5434,,245.5434,259.7266,"[[80.9,1083],[79.8,1166],[79.7,1249],[79.5,1333],[76.9,1416],[71.7,1500],[66,1583],[59.6,1666],[55.4,1750],[51.3,1833],[46.6,1916],[43.2,2000],[41.7,2083],[40.9,2166],[40.6,2250],[40.5,2333],[40.5,2416],[40.5,2499],[40.5,2583],[40.5,2666],[40.5,2749],[40.7,2833],[42.9,2916],[49.1,3000],[51.7,3083],[52.7,3166],[53.4,3250],[54.3,3333],[55.2,3416],[55.3,3499],[55.3,3583],[55.3,3666],[55.3,3749],[55.3,3833],[55.3,3916],[55.3,3999],[55.3,4083],[55.3,4166],[55.3,4249],[55.3,4333],[55.3,4416],[55.3,4500],[55.3,4583],[55.3,4666],[55.3,4749],[55.3,4833],[55.3,4916],[55.3,4999],[55.3,5083],[55.3,5166],[55.3,5249],[55.3,5333],[55.3,5416],[55.3,5499],[55.3,5583],[55.3,5666],[55.3,5749],[55.3,5833],[55.3,5916],[55.3,5999],[55.3,6083],[55.2,6166],[55.2,6249],[55.1,6333],[55.1,6416],[55.1,6499],[55.1,6583],[55.9,6666],[59.2,6750],[62.6,6833],[64.6,6916],[65.9,7000],[67,7083],[67,7166],[67,7249],[67,7333],[67,7416],[67,7499],[67,7583],[67,7666],[67.2,7750],[67.8,7833],[68.5,7916],[69.9,7999],[73.4,8083],[75.6,8166],[76.3,8249],[76.5,8333],[76.7,8416],[77.3,8499],[78.6,8583],[80.1,8666],[82.1,8749],[83.4,8833],[84.1,8916],[84.4,8999],[84.4,9083],[84.3,9166],[84.3,9249],[84,9333],[83.5,9416],[83.1,9499],[83.1,9583],[83,9666],[82.9,9749],[82.7,9833],[82.4,9916],[82.2,9999],[82.1,10083],[82.1,10166],[82.1,10249],[82.1,10333],[82.4,10416],[82.8,10499],[83.1,10583],[83.4,10666],[83.6,10749],[83.8,10833],[83.8,10916],[83.8,10999],[83.8,11083],[83.8,11166],[83.8,11249],[83.8,11333],[83.8,11416],[83.8,11499],[83.8,11583],[83.8,11666],[83.6,11749],[83.6,11833],[83.5,11916],[83.5,11999],[83.5,12083],[83.4,12166],[83.4,12249],[83.4,12333],[83.3,12416],[83.3,12499],[83.3,12583],[83.2,12666],[83.2,12749],[83.1,12833],[83.1,12916],[83.1,12999],[83,13083],[82.9,13166],[82.8,13249],[82.7,13333],[82.6,13416],[82.5,13499],[82.4,13583],[82.3,13666],[82.2,13749],[82.2,13833],[82.2,13916],[82.2,13999],[82.2,14083],[82.2,14166]]",259.7266,269.0931,58.54166667,5.9712,"[{""rating"":58.54166666666667,""responseTime"":5.9711999999955765}]",space,8.8168,,269.0931,Not at all,0,269.0944,,,[],,0,4,4,4,1,audio/Narrative7Situation4.wav,audio/Narrative8Situation4.wav,audio/Narrative5Situation4.wav,audio/Narrative6Situation4.wav,3,3,1,2,,,,,,,,,,,,,,,,,,,,,,,,,,,,,,,,,,,,,
,,,,,6441c37f5666c66e67eba833,2025-07-07_22h40.02.604,group3.4_multiperson,2023.2.2,Win32,59.88023952,686c2ebf0248f13bef9af11f,686c842f79e5f9be58d4e588,,,,,,,,,,,,,,,,,,,,,,,,,,,,,269.0944,1,audio/Narrative8Situation5.wav,271.1097,,271.1098,279.3597,"[[58.8,1333],[65.8,1416],[70.8,1499],[71.5,1583],[71.8,1666],[73.6,1749],[75.6,1833],[76.9,1916],[76.9,1999],[73.3,2083],[47.2,2583],[46.9,2666],[47,2749],[49.2,2833],[49.4,2916],[49.2,2999],[45.7,3083],[40,3166],[35.3,3249],[32.5,3333],[29.6,3416],[25.1,3499],[23,3583],[23,3666],[23,3749],[23,3833],[24.3,3916],[33.4,3999],[45.8,4083],[55.6,4166],[57.7,4249],[58.9,4333],[61,4416],[63.4,4499],[65.2,4583],[67.2,4666],[68.5,4749],[68.9,4833],[69,4916],[69,4999],[69,5083],[69,5166],[69,5249],[69,5333],[69,5416],[69,5499],[69,5583],[68.8,5666],[68.2,5749],[67.1,5833],[66,5916],[64.8,5999],[63.5,6083],[61.9,6166],[60.1,6249],[57.5,6333],[55.6,6416],[54.2,6499],[53.3,6583],[52.5,6666],[51.7,6749],[51.3,6833],[50.9,6916],[50.4,7000],[49.9,7083],[49.1,7166],[48.5,7249],[48.4,7333],[48.4,7416],[48.5,7499],[49.7,7583],[51.1,7666],[52.9,7749],[54.8,7833],[56.5,7916],[57.6,7999],[58.8,8083],[59.5,8166],[59.9,8249]]",279.3598,285.1428,51.97916667,4.8044,"[{""rating"":51.979166666666664,""responseTime"":4.8044000000059555}]",space,5.2423,,285.1429,Not at all,0,285.1438,,,[],,0,5,5,5,1,audio/Narrative7Situation5.wav,audio/Narrative8Situation5.wav,audio/Narrative5Situation5.wav,audio/Narrative6Situation5.wav,5,2,5,2,,,,,,,,,,,,,,,,,,,,,,,,,,,,,,,,,,,,,
,,,,,6441c37f5666c66e67eba833,2025-07-07_22h40.02.604,group3.4_multiperson,2023.2.2,Win32,59.88023952,686c2ebf0248f13bef9af11f,686c842f79e5f9be58d4e588,,,,,,,,,,,,,,,,,,,,,,,,,,,,,285.1438,1,audio/Narrative8Situation6.wav,287.1595,,287.1595,293.6429,"[[51.9,6416]]",293.6429,296.826,68.125,1.923,"[{""rating"":68.125,""responseTime"":1.9230000000000018}]",space,2.6392,,296.8261,Not at all,0,296.8269,,,[],,0,6,6,6,1,audio/Narrative7Situation6.wav,audio/Narrative8Situation6.wav,audio/Narrative5Situation6.wav,audio/Narrative6Situation6.wav,3,2,3,2,,,,,,,,,,,,,,,,,,,,,,,,,,,,,,,,,,,,,
,,,,,6441c37f5666c66e67eba833,2025-07-07_22h40.02.604,group3.4_multiperson,2023.2.2,Win32,59.88023952,686c2ebf0248f13bef9af11f,686c842f79e5f9be58d4e588,,,,,,,,,,,,,,,,,,,,,,,,,,,,,296.827,1,audio/Narrative8Situation7.wav,299.8426,,299.8427,311.9258,"[[57.8,333],[57.8,416],[57.9,500],[58.6,583],[61.7,666],[63,750],[63.3,833],[63.6,916],[64,999],[64,1083],[64,1166],[64,1249],[64,1333],[64,1416],[64,1499],[64,1583],[64,1666],[64,1749],[64,1833],[64,1916],[64,1999],[64,2083],[64,2166],[64,2249],[64,2333],[64,2416],[64,2499],[64,2583],[64,2666],[64,2749],[64,2833],[64,2916],[64,2999],[64,3083],[64,3166],[64,3249],[64,3333],[64,3416],[64,3499],[64,3583],[64.4,3666],[67.3,3749],[72.7,3833],[74.6,3916],[77.1,4000],[79.9,4083],[80.5,4166],[80.6,4249],[80.6,4333],[80.5,4416],[76.1,4500],[64.4,4583],[58.8,4666],[55.5,4750],[52.7,4833],[49.5,4916],[47.4,5000],[47.2,5083],[54.3,5166],[77.2,5250],[83.4,5333],[85.4,5416],[88.1,5500],[93.1,5583],[96.8,5666],[97.2,5749],[97.2,5833],[97.2,5916],[97.2,5999],[97.2,6083],[96.4,6166],[95.3,6249],[94.2,6333],[92.6,6416],[92,6499],[91.8,6583],[91.7,6666],[91.7,6749],[91.7,6833],[91.7,6916],[91.7,6999],[91.7,7083],[91.7,7166],[92,7250],[92.5,7333],[93.8,7416],[96,7499],[97.1,7583],[97.3,7666],[97.3,7749],[97.3,7833],[97.3,7916],[97.3,7999],[97.3,8083],[97.3,8166],[97.3,8249],[97.3,8333],[97.3,8416],[97.3,8499],[97.3,8583],[97.3,8666],[97.3,8749],[97.3,8833],[97.3,8916],[97.3,8999],[97.3,9083],[97.3,9166],[97.3,9249],[97.3,9333],[97.3,9416],[97.3,9499],[97.3,9583],[97.3,9666],[97.3,9749],[97.3,9833],[97.3,9916],[97.3,9999],[97.3,10083],[97.3,10166],[97.3,10249],[97.3,10333],[97.3,10416],[97.3,10499],[97.3,10583],[97.3,10666],[97.3,10749],[97.3,10833],[97.3,10916],[97.3,10999],[97.3,11083],[97.3,11166],[97.3,11249],[97.3,11333],[97.3,11416],[97.3,11499],[97.3,11583],[97.3,11666],[97.3,11749],[97.3,11833],[97.3,11916],[97.3,11999],[97.3,12083]]",311.9259,315.6924,97.08333333,1.3729,"[{""rating"":97.08333333333333,""responseTime"":1.3728999999985376}]",space,3.2169,,315.6925,Not at all,0,315.6933,,,[],,0,7,7,7,1,audio/Narrative7Situation7.wav,audio/Narrative8Situation7.wav,audio/Narrative5Situation7.wav,audio/Narrative6Situation7.wav,5,3,4,5,,,,,,,,,,,,,,,,,,,,,,,,,,,,,,,,,,,,,
,,,,,6441c37f5666c66e67eba833,2025-07-07_22h40.02.604,group3.4_multiperson,2023.2.2,Win32,59.88023952,686c2ebf0248f13bef9af11f,686c842f79e5f9be58d4e588,,,,,,,,,,,,,,,,,,,,,,,,,,,,,315.6934,1,audio/Narrative8Situation8.wav,318.7091,,318.7092,331.5756,"[[999,0],[999,83],[999,166],[999,249],[999,333],[999,416],[999,499],[58.9,583],[56,666],[55.2,749],[54.6,833],[53.9,916],[53.4,999],[53.3,1083],[53.3,1166],[53.5,1249],[54.4,1333],[54.6,1416],[54.6,1499],[54.6,1583],[55,1666],[56.9,1749],[58.4,1833],[59.5,1916],[59.7,2000],[59.7,2083],[59.7,2166],[59.6,2249],[59.3,2333],[58.8,2416],[58.1,2499],[57.1,2583],[55.6,2666],[54.8,2749],[54.8,2833],[54.8,2916],[54.8,2999],[54.8,3083],[54.8,3166],[54.8,3249],[54.8,3333],[54.8,3416],[54.8,3499],[54.8,3583],[54.8,3666],[54.8,3749],[55,3833],[55,3916],[55.1,3999],[55.1,4083],[54.7,4166],[50.2,4249],[45,4333],[43.2,4416],[42.3,4499],[39.9,4583],[37.1,4666],[35.4,4749],[35.2,4833],[35.2,4916],[35.2,4999],[35.2,5083],[35.2,5166],[35.2,5249],[35.2,5333],[35.2,5416],[35.2,5499],[35.2,5583],[35.2,5666],[35.2,5749],[35.2,5833],[35.1,5916],[35.1,5999],[35.1,6083],[35.1,6166],[35.1,6249],[35.1,6333],[35.1,6416],[35.1,6499],[35.1,6582],[35.1,6666],[35.1,6749],[35.1,6833],[35.1,6916],[35.1,6999],[35.1,7083],[35.1,7166],[35.1,7249],[35.1,7333],[54.3,7999],[55.1,8083],[56.1,8166],[56.3,8249],[56.4,8333],[56.5,8416],[56.8,8499],[57,8583],[57.4,8666],[58.5,8749],[60,8833],[61.3,8916],[62.1,8999],[62.6,9083],[63.3,9166],[64.4,9249],[65.4,9333],[66.6,9416],[66.8,9499],[66.8,9582],[66.8,9666],[66.8,9749],[66.8,9832],[66.8,9916],[66.8,9999],[66.8,10082],[66.8,10166],[66.8,10249],[66.8,10332],[66.8,10416],[66.8,10499],[66.8,10582],[66.8,10666],[66.8,10749],[66.8,10832],[66.8,10916],[66.8,10999],[66.8,11082],[66.8,11166],[67.6,11249],[69.7,11332],[71,11416],[72.5,11499],[73.2,11583],[74,11666],[74.9,11749],[75.8,11832],[76.4,11916],[76.7,11999],[76.8,12083],[76.8,12166],[76.8,12249],[76.8,12332],[76.8,12416],[76.8,12499],[76.8,12582],[76.8,12666],[76.8,12749],[76.8,12832]]",331.5756,337.0422,83.85416667,3.7942,"[{""rating"":68.64583333333334,""responseTime"":2.648099999994031},{""rating"":83.85416666666667,""responseTime"":3.7941999999954987}]",space,4.9193,,337.0422,Definitely yes,100,337.0435,,,[],,0,8,8,8,1,audio/Narrative7Situation8.wav,audio/Narrative8Situation8.wav,audio/Narrative5Situation8.wav,audio/Narrative6Situation8.wav,2,3,3,5,,,,,,,,,,,,,,,,,,,,,,,,,,,,,,,,,,,,,
,,,,,6441c37f5666c66e67eba833,2025-07-07_22h40.02.604,group3.4_multiperson,2023.2.2,Win32,59.88023952,686c2ebf0248f13bef9af11f,686c842f79e5f9be58d4e588,,,,,,,,,,,,,,,,,,,,,,,,,,,,,337.0435,1,audio/Narrative8Situation9.wav,340.0588,,340.0589,351.392,"[[72.5,83],[72.2,166],[72.2,249],[72.2,333],[72.2,416],[72.2,499],[72.2,583],[72.1,666],[71.1,750],[69.5,833],[66.4,916],[63.4,999],[61.5,1083],[59.3,1166],[57,1249],[55.1,1333],[53.6,1416],[52.5,1499],[50.9,1583],[49.6,1666],[48.2,1749],[47.1,1833],[46.1,1916],[45.2,1999],[44.5,2083],[44,2166],[43.4,2249],[42.9,2333],[42.6,2416],[42.6,2499],[42.6,2583],[42.6,2666],[43.4,2749],[44.8,2833],[47.4,2916],[49.3,2999],[51.5,3083],[53.4,3166],[55.1,3250],[56.5,3333],[57.7,3416],[59,3499],[59.9,3583],[60.6,3666],[61,3749],[61.1,3833],[61.3,3916],[61.3,3999],[61.3,4083],[61.3,4166],[61.6,4249],[63.1,4333],[68.9,4416],[73.1,4499],[76,4583],[78,4666],[79.8,4749],[81.6,4833],[83,4916],[84.3,4999],[85,5083],[85.5,5166],[85.9,5249],[86.1,5333],[86.4,5416],[86.5,5499],[86.7,5583],[86.7,5666],[86.7,5749],[86.7,5833],[86.7,5916],[86.7,5999],[86.7,6083],[86.7,6166],[86.8,6249],[86.8,6333],[86.8,6416],[87,6499],[87.1,6583],[87.4,6666],[88.4,6749],[89.4,6833],[90.1,6916],[90.7,6999],[91.3,7083],[91.7,7166],[92,7249],[92.1,7333],[92.4,7416],[92.4,7499],[92.5,7583],[92.5,7666],[92.5,7749],[92.5,7833],[92.5,7916],[92.5,7999],[92.5,8083],[92.5,8166],[92.5,8249],[92.5,8333],[92.5,8416],[92.5,8499],[92.5,8583],[92.5,8666],[92.5,8749],[92.5,8832],[92.5,8916],[92.5,8999],[92.5,9083],[92.5,9166],[92.5,9249],[92.5,9333],[92.5,9416],[92.5,9499],[92.2,9583],[89.6,9666],[88.3,9749],[87.8,9833],[87.5,9916],[87.3,9999],[87.1,10083],[87.1,10166],[87.1,10249],[87.1,10333],[87.1,10416],[87.1,10499],[87.1,10583],[87.1,10666],[87.1,10749],[87.1,10833],[87.1,10916],[87.1,10999],[87.1,11083],[87.1,11166],[87.1,11249],[87.1,11333]]",351.3921,355.6919,89.47916667,1.0599,"[{""rating"":89.47916666666667,""responseTime"":1.0598999999984926}]",space,3.7516,,355.6919,Definitely yes,100,355.6928,,,[],,0,9,9,9,1,audio/Narrative7Situation9.wav,audio/Narrative8Situation9.wav,audio/Narrative5Situation9.wav,audio/Narrative6Situation9.wav,2,3,3,4,,,,,,,,,,,,,,,,,,,,,,,,,,,,,,,,,,,,,
,,,,,6441c37f5666c66e67eba833,2025-07-07_22h40.02.604,group3.4_multiperson,2023.2.2,Win32,59.88023952,686c2ebf0248f13bef9af11f,686c842f79e5f9be58d4e588,,,,,,,,,,,,,,,,,,,,,,,,,,,,,355.6929,1,audio/Narrative7Situation1.wav,357.7085,,357.7085,413.5912,"[[999,0],[999,83],[999,166],[999,250],[999,333],[999,416],[999,500],[999,583],[999,666],[999,750],[999,833],[999,916],[48.1,1000],[49.5,1083],[49.6,1166],[50.2,1250],[50.6,1333],[51,1416],[53.5,1500],[59.5,1583],[62.1,1666],[64.8,1750],[65.4,1833],[65.4,1916],[65.4,2000],[65.4,2083],[65.4,2166],[63.9,2250],[54.5,2333],[52.1,2416],[52,2500],[52,2583],[55.2,2666],[63.8,2750],[71.3,2833],[75.1,2916],[76.5,3000],[76.8,3083],[76.8,3166],[76.8,3250],[76.8,3333],[76.8,3416],[76.8,3499],[76.8,3583],[76.8,3666],[76.8,3749],[76.8,3833],[76.8,3916],[76.8,4000],[76.8,4083],[76.8,4166],[77.3,4250],[79.6,4333],[80.6,4416],[81.1,4500],[81.5,4583],[83.1,4666],[84,4750],[84.4,4833],[84.5,4916],[84.5,4999],[84.6,5083],[86.1,5166],[89.1,5250],[91.4,5333],[93.4,5416],[95,5500],[95.2,5583],[95.2,5666],[95.2,5749],[95.2,5833],[95.2,5916],[95,5999],[93.8,6083],[92.4,6166],[91.7,6250],[91.1,6333],[90.8,6416],[90.7,6499],[90.7,6583],[90.7,6666],[90.7,6749],[90.7,6833],[90.7,6916],[90.7,7000],[90.7,7083],[90.7,7166],[90.7,7249],[90.7,7333],[90.7,7416],[90.7,7500],[90.7,7583],[90.7,7666],[90.7,7750],[90.7,7833],[90.7,7916],[90.7,7999],[90.7,8083],[91.5,8166],[94.1,8250],[94.9,8333],[94.9,8416],[95,8499],[95,8583],[95,8666],[95,8749],[95,8833],[95,8916],[95,8999],[95,9083],[95,9166],[95,9249],[95,9333],[95,9416],[95,9499],[95,9583],[95,9666],[95,9749],[95,9833],[95,9916],[95,9999],[95,10083],[95,10166],[95,10249],[95.1,10333],[95.1,10416],[95.1,10500],[95.1,10583],[95.1,10666],[95.1,10749],[95.1,10833],[95.1,10916],[95.1,10999],[95.2,11083],[95.2,11166],[95.2,11249],[95.2,11333],[95.1,11416],[95.1,11499],[95,11583],[94.7,11666],[94.4,11749],[94.2,11833],[94.2,11916],[94.2,11999],[94.2,12083],[94.2,12166],[94.2,12249],[94.2,12333],[94.1,12416],[94.1,12499],[94.1,12583],[94.1,12666],[94.1,12749],[94.1,12833],[94.1,12916],[94.1,12999],[94.1,13083],[94.1,13166],[94.1,13249],[94.1,13333],[94.1,13416],[94.1,13499],[94.1,13583],[94.1,13666],[94.1,13749],[94.1,13833],[94.1,13916],[94.1,13999],[94.1,14083],[94.1,14166],[94.1,14249],[94.1,14333],[94.1,14416],[94.1,14499],[94.1,14583],[94.1,14666],[94.1,14749],[94.1,14833],[94.1,14916],[94.1,14999],[94.1,15083],[94.1,15166],[94.1,15249],[94.1,15333],[94.1,15416],[94.1,15499],[94.1,15583],[94.1,15666],[94.1,15749],[94.1,15833],[94.1,15916],[94.1,15999],[94.1,16083],[94.1,16166],[94.1,16249],[94.1,16333],[94.1,16416],[94.1,16499],[94.1,16583],[94.1,16666],[94.1,16749],[94.1,16833],[94.1,16916],[94.1,16999],[94.1,17083],[94.1,17166],[94.1,17249],[94.1,17333],[94.1,17416],[94.1,17499],[94.1,17583],[94.1,17666],[94,17749],[93.3,17833],[92.8,17916],[92.4,17999],[92,18083],[91.1,18166],[90.2,18249],[90.2,18333],[90.2,18416],[90.2,18499],[90.2,18583],[90.3,18666],[91.5,18749],[92.8,18833],[94,18916],[94.3,18999],[94.4,19083],[94.4,19166],[94.4,19249],[94.4,19333],[94.2,19416],[93.8,19499],[93.4,19583],[93.2,19666],[93,19749],[93,19833],[93,19916],[93,19999],[93,20083],[93,20166],[93,20249],[93,20333],[93,20416],[93,20499],[93,20583],[93,20666],[93,20749],[93,20833],[93,20916],[93,20999],[93,21083],[93,21166],[93,21249],[93,21333],[93,21416],[93,21499],[93,21583],[93,21666],[93,21749],[93,21833],[93.1,21916],[93.8,21999],[94.4,22083],[94.6,22166],[94.6,22249],[94.6,22333],[94.6,22416],[94.6,22499],[94.6,22583],[94.6,22666],[94.6,22749],[94.6,22833],[94.6,22916],[94.6,22999],[94.6,23083],[94.6,23166],[94.6,23249],[94.6,23333],[94.6,23416],[94.6,23499],[94.6,23583],[94.6,23666],[94.6,23749],[94.6,23833],[94.6,23916],[94.6,23999],[94.6,24083],[94.6,24166],[94.6,24249],[94.6,24333],[94.6,24416],[94.6,24499],[94.6,24583],[94.6,24666],[94.6,24749],[94.6,24833],[94.6,24916],[94.6,24999],[94.6,25083],[94.5,25166],[94.5,25249],[94.5,25333],[94.5,25416],[94.5,25499],[94.4,25583],[94.4,25666],[94.2,25749],[94.1,25833],[94.1,25916],[94,25999],[93.9,26083],[93.8,26166],[93.8,26249],[93.6,26333],[93.6,26416],[93.6,26499],[93.5,26583],[93.5,26666],[93.5,26749],[93.5,26833],[93.4,26916],[93.4,26999],[93.4,27083],[93.4,27166],[93.4,27249],[93.4,27333],[93.4,27416],[93.4,27499],[93.3,27582],[93.3,27666],[93.3,27749],[93.2,27833],[93.1,27916],[92.9,27999],[92.8,28083],[92.7,28166],[92.5,28249],[92.5,28333],[92.4,28416],[92.4,28499],[92.4,28582],[92.3,28666],[92.3,28749],[92.3,28833],[92.2,28916],[92.1,28999],[92,29082],[92,29166],[92,29249],[92,29333],[92,29416],[92,29499],[92,29582],[92,29666],[92,29749],[92,29833],[91.9,29916],[91,29999],[90.1,30083],[89.3,30166],[88.2,30249],[88.2,30333],[88.4,30416],[91.4,30499],[94.1,30583],[94.6,30666],[94.6,30749],[94.6,30833],[94.6,30916],[94.6,30999],[94.6,31083],[94.6,31166],[94.6,31249],[94.6,31332],[94.6,31416],[94.6,31499],[94.6,31583],[94,31666],[92,31749],[90.3,31833],[88.9,31916],[88.4,31999],[88.1,32083],[88,32166],[87.7,32249],[87.6,32332],[87.6,32416],[87.6,32499],[88.9,32583],[90.6,32666],[91.5,32749],[91.7,32833],[91.7,32916],[91.7,32999],[91.7,33083],[91.7,33166],[91.7,33249],[91.7,33332],[91.7,33416],[91.7,33499],[92,33582],[93,33666],[94.1,33749],[94.7,33833],[95,33916],[95.2,33999],[95.3,34083],[95.3,34166],[95.3,34249],[95.3,34332],[95.3,34416],[95.3,34499],[95.3,34582],[95.3,34666],[95.3,34749],[95.3,34832],[95.3,34916],[95.3,34999],[95,35082],[94.5,35166],[94.1,35249],[94,35332],[94,35416],[94,35499],[94,35582],[94,35666],[94,35749],[94,35832],[94,35916],[94,35999],[94,36082],[94,36166],[94,36249],[94,36332],[94,36416],[94,36499],[94,36582],[94,36666],[94,36749],[94,36832],[94,36916],[94,36999],[94,37082],[94,37166],[94,37249],[94,37332],[94,37416],[94,37499],[94,37582],[94,37666],[93.9,37749],[93.9,37832],[93.9,37916],[93.9,37999],[93.9,38082],[93.9,38166],[93.9,38249],[93.9,38332],[93.9,38416],[93.9,38499],[93.9,38582],[93.9,38666],[93.9,38749],[93.9,38832],[93.8,38916],[93.6,38999],[93.2,39083],[92.5,39166],[92.3,39249],[92.2,39332],[92.1,39416],[92,39499],[92,39582],[91.9,39666],[91.8,39749],[91.8,39832],[91.7,39916],[91.6,39999],[91.5,40082],[91.1,40166],[90.6,40249],[90.3,40332],[90.2,40416],[90.2,40499],[90.2,40582],[90.2,40666],[90.2,40749],[90.2,40832],[90.2,40916],[90.2,40999],[90.3,41082],[90.4,41166],[90.4,41249],[90.5,41332],[90.5,41416],[90.6,41499],[90.8,41582],[90.9,41666],[91.1,41749],[91.4,41832],[91.4,41916],[91.4,41999],[91.4,42082],[91.4,42166],[91.4,42249],[91.5,42332],[91.5,42416],[91.6,42499],[91.8,42582],[91.9,42666],[92.1,42749],[92.2,42832],[92.3,42916],[92.3,42999],[92.3,43082],[92.3,43166],[92.3,43249],[92.3,43332],[92.3,43416],[92.3,43499],[92.3,43582],[92.3,43666],[92.3,43749],[92.3,43832],[92.3,43916],[92.3,43999],[92.3,44082],[92.3,44166],[92.3,44249],[92.3,44332],[92.3,44416],[92.3,44499],[92.3,44582],[92.3,44666],[92.3,44749],[92.3,44832],[92.3,44916],[92.3,44999],[92.3,45082],[92.3,45166],[92.3,45249],[92.2,45332],[91.9,45416],[91.1,45499],[90.4,45582],[89.7,45666],[89.3,45749],[89,45832],[89,45916],[89,45999],[88.9,46082],[88.9,46166],[88.5,46249],[88.2,46332],[87.9,46416],[87.7,46499],[87.6,46582],[87.6,46666],[87.6,46749],[87.6,46832],[87.8,46916],[88.5,46999],[89.4,47082],[90.1,47166],[90.5,47249],[91,47332],[91.8,47416],[92.2,47499],[92.4,47582],[92.4,47666],[92.5,47749],[92.5,47832],[92.5,47916],[92.5,47999],[92.5,48082],[92.5,48166],[92.5,48249],[92.5,48332],[92.5,48416],[92.5,48499],[92.5,48582],[92.5,48666],[92.5,48749],[92.5,48832],[92.5,48916],[92.5,48999],[92.5,49082],[92.5,49166],[92.5,49249],[92.5,49332],[92.6,49416],[92.6,49499],[92.8,49582],[92.9,49666],[93,49749],[93.1,49832],[93.2,49916],[93.2,49999],[93.3,50082],[93.3,50166],[93.4,50249],[93.4,50332],[93.4,50416],[93.4,50499],[93.4,50582],[93.4,50666],[93.4,50749],[93.4,50832],[93.4,50916],[93.4,50999],[93.4,51082],[93.4,51166],[93.4,51249],[93.4,51332],[93.4,51416],[93.4,51499],[93.4,51582],[93.4,51665],[93.4,51749],[93.4,51832],[93.4,51916],[93.4,51999],[93.4,52082],[93.4,52166],[93.4,52249],[93.4,52332],[93.4,52416],[93.4,52499],[93.4,52582],[93.4,52666],[93.4,52749],[93.4,52832],[93.4,52916],[93.4,52999],[93.4,53082],[93.4,53166],[93.4,53249],[93.4,53332],[93.4,53416],[93.4,53499],[93.4,53582],[93.3,53666],[93.3,53749],[93.3,53832],[93.3,53916],[93.3,53999],[93.3,54082],[93.3,54166],[93.3,54249],[93.3,54332],[93.3,54416],[93.3,54499],[93.3,54582],[93.3,54665],[93.3,54749],[93.3,54832],[93.3,54916],[93.3,54999],[93.3,55082],[93.3,55166],[93.3,55249],[93.3,55332],[93.2,55415],[93.2,55499],[93.2,55582],[92.9,55666],[92.1,55749],[90.8,55832]]",413.5914,420.0578,86.97916667,5.6386,"[{""rating"":61.354166666666664,""responseTime"":3.738399999998535},{""rating"":86.97916666666667,""responseTime"":5.6386000000015315}]",space,5.9275,,420.0578,Partially,50,420.0592,,,[],,0,10,10,10,1,audio/Narrative8Situation1.wav,audio/Narrative7Situation1.wav,audio/Narrative6Situation1.wav,audio/Narrative5Situation1.wav,5,2,2,5,,,,,,,,,,,,,,,,,,,,,,,,,,,,,,,,,,,,,
,,,,,6441c37f5666c66e67eba833,2025-07-07_22h40.02.604,group3.4_multiperson,2023.2.2,Win32,59.88023952,686c2ebf0248f13bef9af11f,686c842f79e5f9be58d4e588,,,,,,,,,,,,,,,,,,,,,,,,,,,,,420.0593,1,audio/Narrative7Situation2.wav,423.0743,,423.0744,430.5577,"[[61.3,416],[60,500],[58.2,583],[56.5,666],[56.3,749],[56.1,833],[54.2,916],[50.8,1000],[44.5,1083],[38.9,1166],[35.7,1250],[34.4,1333],[33.6,1416],[32,1500],[30.7,1583],[30.3,1666],[30.3,1749],[30.3,1833],[30.3,1916],[31.9,2000],[39.3,2083],[43.5,2166],[47.8,2250],[50.6,2333],[52.8,2416],[54.4,2500],[55.5,2583],[56.4,2666],[57.2,2750],[57.7,2833],[58.1,2916],[58.8,3000],[59,3083],[59.3,3166],[59.3,3249],[59.4,3333],[60.1,3416],[62.5,3500],[65,3583],[66.9,3666],[68.8,3749],[70.2,3833],[71,3916],[71.3,3999],[71.4,4083],[71.4,4166],[71.4,4249],[71.5,4333],[71.6,4416],[72,4499],[72.4,4583],[72.6,4666],[72.6,4749],[72.6,4833],[72.6,4916],[72.7,4999],[72.7,5083],[72.7,5166],[72.7,5249],[72.7,5333],[72.7,5416],[72.7,5500],[72.7,5583],[72.7,5666],[72.7,5749],[72.7,5833],[72.7,5916],[72.7,5999],[72.7,6083],[72.7,6166],[72.7,6249],[72.7,6333],[72.7,6416],[72.7,6499],[72.7,6583],[73.2,6666],[76.6,6749],[78.6,6833],[79.8,6916],[80.5,6999],[80.7,7083],[80.7,7166],[80.7,7249],[80.7,7333],[80.8,7416]]",430.5577,434.5076,58.95833333,3.0562,"[{""rating"":58.958333333333336,""responseTime"":3.056199999995556}]",space,3.4015,,434.5076,Definitely yes,100,434.5089,,,[],,0,11,11,11,1,audio/Narrative8Situation2.wav,audio/Narrative7Situation2.wav,audio/Narrative6Situation2.wav,audio/Narrative5Situation2.wav,3,3,3,3,,,,,,,,,,,,,,,,,,,,,,,,,,,,,,,,,,,,,
,,,,,6441c37f5666c66e67eba833,2025-07-07_22h40.02.604,group3.4_multiperson,2023.2.2,Win32,59.88023952,686c2ebf0248f13bef9af11f,686c842f79e5f9be58d4e588,,,,,,,,,,,,,,,,,,,,,,,,,,,,,434.509,1,audio/Narrative7Situation3.wav,442.5241,,442.5241,451.774,"[[43.9,583],[47.3,666],[50.1,750],[53.5,833],[56.9,916],[60.4,1000],[62.9,1083],[63.5,1166],[63.3,1250],[60.6,1333],[56.7,1416],[52.2,1500],[48.1,1583],[43.6,1666],[39.4,1750],[35,1833],[30.7,1916],[26.4,2000],[23.2,2083],[22,2166],[21.8,2249],[24.5,2333],[40.3,2416],[52.3,2500],[60.1,2583],[64.7,2666],[65.9,2749],[66.1,2833],[66.1,2916],[66.1,2999],[66.3,3083],[66.8,3166],[67.3,3250],[67.3,3333],[67.3,3416],[65.4,3500],[56.8,3583],[47.5,3666],[42.7,3750],[39.5,3833],[36.5,3916],[33.5,4000],[30.9,4083],[28.5,4166],[25.7,4250],[22.9,4333],[20.9,4416],[19.3,4500],[17.7,4583],[16.7,4666],[16.1,4750],[15.9,4833],[15.6,4916],[15.4,4999],[15.3,5083],[15.1,5166],[15,5249],[15,5333],[15.1,5416],[17.9,5500],[23.9,5583],[29.7,5666],[32.3,5749],[34.4,5833],[35.7,5916],[37.2,5999],[38.6,6083],[39.7,6166],[40,6249],[40,6333],[40,6416],[40,6499],[39.7,6583],[39.5,6666],[39.2,6750],[39.1,6833],[38.9,6916],[38.6,7000],[38.6,7083],[38.5,7166],[38.5,7249],[38.4,7333],[38.4,7416],[38.4,7499],[38.4,7583],[38.4,7666],[38.4,7749],[38.4,7833],[38.6,7916],[38.8,7999],[39,8083],[39,8166],[39,8249],[39,8333],[39,8416],[39,8499],[39,8583],[39,8666],[39,8749],[39,8832],[39,8916],[39,8999],[39,9083],[39,9166],[39,9249]]",451.774,454.2239,32.39583333,0.7577,"[{""rating"":32.395833333333336,""responseTime"":0.7576999999955092}]",space,1.9153,,454.2239,Not at all,0,454.2252,,,[],,0,12,12,12,1,audio/Narrative8Situation3.wav,audio/Narrative7Situation3.wav,audio/Narrative6Situation3.wav,audio/Narrative5Situation3.wav,4,8,5,3,,,,,,,,,,,,,,,,,,,,,,,,,,,,,,,,,,,,,
,,,,,6441c37f5666c66e67eba833,2025-07-07_22h40.02.604,group3.4_multiperson,2023.2.2,Win32,59.88023952,686c2ebf0248f13bef9af11f,686c842f79e5f9be58d4e588,,,,,,,,,,,,,,,,,,,,,,,,,,,,,454.2253,1,audio/Narrative7Situation4.wav,457.2406,,457.2406,468.9738,"[[38.3,166],[38.3,250],[38.6,333],[39.1,416],[40.1,500],[42.9,583],[45.7,666],[50.2,750],[54.3,833],[57.4,916],[59.8,1000],[61.4,1083],[62.2,1166],[62.6,1250],[63,1333],[63.2,1416],[63.6,1499],[64.3,1583],[64.7,1666],[64.7,1749],[64.7,1833],[64.7,1916],[64.4,2000],[63.8,2083],[62.7,2166],[60.4,2250],[58.5,2333],[56.8,2416],[55.1,2500],[53.9,2583],[52.4,2666],[50.9,2750],[49.7,2833],[48.8,2916],[48,2999],[47.6,3083],[47.5,3166],[47.5,3249],[47.6,3333],[48.1,3416],[48.9,3499],[49.9,3583],[50.8,3666],[51.8,3749],[52.6,3833],[53.8,3916],[55.2,4000],[56.6,4083],[57.9,4166],[59,4250],[60.2,4333],[61,4416],[61.6,4499],[62.2,4583],[63.4,4666],[64.5,4750],[65.4,4833],[66,4916],[66.6,4999],[67.2,5083],[68.1,5166],[68.5,5249],[68.8,5333],[68.9,5416],[68.9,5499],[68.3,5583],[65.8,5666],[62.2,5750],[59.8,5833],[58.4,5916],[58.3,5999],[59.4,6083],[65,6166],[67.7,6250],[69.6,6333],[71.8,6416],[73.2,6500],[74.6,6583],[76,6666],[77.4,6749],[78.5,6833],[79.5,6916],[80.7,7000],[81.8,7083],[82.3,7166],[82.3,7249],[81.8,7333],[71.4,7416],[56.8,7499],[48.4,7583],[42.8,7666],[38.4,7750],[35.5,7833],[33.4,7916],[31.1,7999],[28.1,8083],[25.7,8166],[23.6,8249],[21.7,8333],[20,8416],[19.3,8499],[19,8583],[19,8666],[19,8749],[19,8833],[19,8916],[19.2,8999],[19.8,9083],[20.7,9166],[21.3,9249],[21.3,9333],[20.9,9416],[19.3,9499],[17,9583],[15,9666],[13.6,9749],[12.7,9833],[12.1,9916],[12.1,9999],[12.1,10083],[12.1,10166],[12.1,10249],[12.1,10333],[12.1,10416],[12.1,10499],[12.1,10583],[12.1,10666],[12.1,10749],[12.1,10833],[12.1,10916],[12.1,10999],[12.1,11083],[12.1,11166],[12.1,11249],[12.1,11333],[12.1,11416],[12.1,11500],[12.1,11583],[12.1,11666]]",468.9739,471.0569,7.291666667,0.9799,"[{""rating"":7.291666666666669,""responseTime"":0.9798999999985085}]",space,1.5419,,471.057,Partially,50,471.0583,,,[],,0,13,13,13,1,audio/Narrative8Situation4.wav,audio/Narrative7Situation4.wav,audio/Narrative6Situation4.wav,audio/Narrative5Situation4.wav,3,3,2,1,,,,,,,,,,,,,,,,,,,,,,,,,,,,,,,,,,,,,
,,,,,6441c37f5666c66e67eba833,2025-07-07_22h40.02.604,group3.4_multiperson,2023.2.2,Win32,59.88023952,686c2ebf0248f13bef9af11f,686c842f79e5f9be58d4e588,,,,,,,,,,,,,,,,,,,,,,,,,,,,,471.0585,1,audio/Narrative7Situation5.wav,476.0736,,476.0736,484.557,"[[999,0],[999,83],[999,166],[999,250],[999,333],[999,416],[999,500],[999,583],[999,666],[999,750],[999,833],[999,916],[999,1000],[999,1083],[999,1166],[999,1250],[999,1333],[999,1416],[999,1500],[999,1583],[999,1666],[999,1750],[999,1833],[999,1916],[999,2000],[999,2083],[999,2166],[999,2250],[999,2333],[999,2416],[999,2499],[999,2583],[999,2666],[999,2750],[999,2833],[999,2916],[63.9,3000],[67.1,3083],[68,3166],[68.4,3250],[68.9,3333],[69.4,3416],[70.2,3500],[70.8,3583],[71,3666],[71,3750],[70.6,3833],[70.4,3916],[70.3,4000],[71.1,4083],[73.2,4166],[74.5,4250],[74.6,4333],[74.6,4416],[74.5,4500],[73.6,4583],[72.8,4666],[43.9,5500],[49.6,5583],[52.1,5666],[52.8,5750],[52.9,5833],[53,5916],[53.2,6000],[54,6083],[55.5,6166],[58.4,6250],[59.6,6333],[59.8,6416],[59.6,6500],[57,6583],[53.8,6666],[50.4,6750],[47.6,6833],[45.3,6916],[43.8,7000],[42.9,7083],[42.6,7166],[42.6,7250],[42.6,7333],[42.7,7416],[43.5,7500],[44.6,7583],[45.7,7666],[47.4,7750],[49.7,7833],[52.1,7916],[54.4,8000],[55.3,8083],[55.4,8166],[55.4,8249],[55.4,8333],[54.9,8416]]",484.557,487.2068,50.52083333,1.1777,"[{""rating"":50.520833333333336,""responseTime"":1.177699999995525}]",space,2.1209,,487.2069,Not at all,0,487.2081,,,[],,0,14,14,14,1,audio/Narrative8Situation5.wav,audio/Narrative7Situation5.wav,audio/Narrative6Situation5.wav,audio/Narrative5Situation5.wav,2,5,2,5,,,,,,,,,,,,,,,,,,,,,,,,,,,,,,,,,,,,,
,,,,,6441c37f5666c66e67eba833,2025-07-07_22h40.02.604,group3.4_multiperson,2023.2.2,Win32,59.88023952,686c2ebf0248f13bef9af11f,686c842f79e5f9be58d4e588,,,,,,,,,,,,,,,,,,,,,,,,,,,,,487.2082,1,audio/Narrative7Situation6.wav,490.2235,space,490.2235,500.2067,"[[999,0],[999,83],[999,166],[999,250],[999,333],[999,416],[999,500],[999,583],[999,666],[999,749],[999,833],[999,916],[999,999],[999,1083],[999,1166],[999,1249],[999,1333],[999,1416],[999,1499],[999,1583],[999,1666],[999,1749],[999,1833],[999,1916],[999,1999],[999,2083],[999,2166],[999,2250],[52.5,2333],[54.1,2416],[54.1,2499],[54.5,2583],[56.1,2666],[59.4,2750],[60.9,2833],[61.3,2916],[61.3,2999],[61.3,3083],[61.3,3166],[61.3,3249],[61.4,3333],[61.5,3416],[61.9,3500],[62.6,3583],[63.1,3666],[63.1,3749],[63.1,3833],[62.8,3916],[62.5,4000],[62.4,4083],[62.2,4166],[62.1,4249],[61.9,4333],[61.7,4416],[61.6,4499],[61.5,4583],[61.3,4666],[61.3,4749],[61.3,4833],[61.3,4916],[61.6,4999],[62,5083],[62.3,5166],[62.5,5249],[62.8,5333],[63.1,5416],[63.5,5499],[63.9,5583],[64.1,5666],[64.2,5749],[64.2,5833],[64.2,5916],[64.2,5999],[64.2,6083],[64.2,6166],[64.2,6249],[64.2,6332],[64.2,6416],[64.2,6499],[64.2,6583],[64.2,6666],[64.2,6749],[64.2,6833],[64.2,6916],[64.2,6999],[64.2,7083],[64.2,7166],[64.8,7250],[66.5,7333],[68.2,7416],[69.6,7500],[70.7,7583],[72.7,7666],[74.7,7750],[75.5,7833],[76.1,7916],[76.8,7999],[77.1,8083],[77.5,8166],[78,8249],[78.4,8333],[78.6,8416],[78.6,8499],[78.6,8583],[78.6,8666],[78.6,8749],[78.6,8833],[78.6,8916],[78.6,8999],[78.4,9083],[78.3,9166],[78.1,9249],[77.9,9333],[77.5,9416],[77,9499],[76.5,9583],[75.9,9666],[75.3,9749],[74.8,9833],[74.4,9916]]",500.2068,503.7567,74.47916667,1.7046,"[{""rating"":74.47916666666666,""responseTime"":1.7046000000015056}]",space,3.008,,503.7567,Not at all,0,503.7575,,,[],,0,15,15,15,1,audio/Narrative8Situation6.wav,audio/Narrative7Situation6.wav,audio/Narrative6Situation6.wav,audio/Narrative5Situation6.wav,2,3,2,3,0.234,,,,,,,,,,,,,,,,,,,,,,,,,,,,,,,,,,,,
,,,,,6441c37f5666c66e67eba833,2025-07-07_22h40.02.604,group3.4_multiperson,2023.2.2,Win32,59.88023952,686c2ebf0248f13bef9af11f,686c842f79e5f9be58d4e588,,,,,,,,,,,,,,,,,,,,,,,,,,,,,503.7576,1,audio/Narrative7Situation7.wav,508.7733,,508.7733,525.9564,"[[65,83],[64,166],[63.1,249],[62.4,333],[61.5,416],[60.6,500],[59.9,583],[59.3,666],[58.5,750],[57.8,833],[57.8,916],[57.8,999],[57.8,1083],[57.8,1166],[57.8,1249],[57.8,1333],[57.8,1416],[57.8,1499],[57.8,1583],[57.8,1666],[57.8,1749],[57.8,1833],[57.8,1916],[57.8,1999],[57.8,2083],[57.8,2166],[57.8,2249],[57.8,2333],[57.8,2416],[57.8,2499],[57.8,2583],[57.8,2666],[57.8,2749],[57.8,2833],[57.8,2916],[57.8,2999],[57.8,3082],[57.8,3166],[57.8,3249],[57.8,3333],[57.8,3416],[57.8,3499],[57.9,3583],[58.8,3666],[62.7,3750],[64.6,3833],[64.7,3916],[64.7,3999],[64.7,4083],[64.7,4166],[64.6,4249],[64.3,4333],[63.6,4416],[60.7,4499],[56.5,4583],[51.1,4666],[46.8,4749],[43.3,4833],[40.8,4916],[40,4999],[39.9,5082],[39.9,5166],[39.9,5249],[39.9,5333],[40.5,5416],[42.5,5500],[46.9,5583],[50.2,5666],[50.6,5749],[50.6,5833],[50.8,5916],[52,5999],[53.5,6083],[54.3,6166],[54.9,6249],[55.7,6333],[56,6416],[56.1,6499],[56.1,6583],[56.1,6666],[56.1,6749],[55.9,6833],[55.7,6916],[55.6,6999],[55.4,7083],[55.3,7166],[55,7249],[54.8,7333],[54.2,7416],[53.3,7500],[52.7,7583],[51.9,7666],[51.4,7749],[50.9,7832],[50.6,7916],[50.3,7999],[50.1,8083],[50,8166],[49.9,8249],[49.9,8333],[49.9,8416],[49.9,8499],[49.9,8583],[49.8,8666],[49.8,8749],[49.7,8833],[49.7,8916],[49.7,8999],[49.7,9083],[50.8,9166],[53.2,9249],[55.3,9333],[56.8,9416],[57.7,9499],[57.9,9583],[58.1,9666],[58.3,9749],[58.8,9833],[59.1,9916],[59.4,9999],[59.5,10083],[59.6,10166],[59.6,10249],[59.6,10333],[59.6,10416],[59.7,10499],[59.7,10583],[59.7,10666],[59.7,10749],[59.7,10833],[59.7,10916],[59.7,10999],[59.7,11083],[59.7,11166],[59.7,11249],[59.7,11333],[60.3,11416],[61.4,11499],[62.8,11583],[64.1,11666],[65.8,11749],[67.3,11833],[68,11916],[68.8,11999],[69.8,12083],[70.5,12166],[70.9,12249],[71.1,12333],[71.3,12416],[71.3,12499],[71.3,12582],[71.3,12666],[71.3,12749],[71.3,12833],[71.3,12916],[71.3,12999],[71,13083],[70.8,13166],[70.5,13249],[70.3,13333],[70.3,13416],[70.2,13499],[70.1,13582],[70.1,13666],[70,13749],[69.9,13833],[69.9,13916],[69.6,13999],[69,14083],[68.1,14166],[66,14249],[63,14333],[59.7,14416],[56.4,14499],[53.2,14583],[50.3,14666],[47.8,14749],[45.4,14833],[43.1,14916],[41.1,14999],[39.1,15083],[37.1,15166],[35.9,15249],[36,15333],[46.7,15416],[58.6,15499],[63.9,15583],[65.1,15666],[66.1,15749],[68.4,15832],[70.8,15916],[72.8,15999],[73.8,16083],[74.4,16166],[74.8,16249],[74.8,16332],[74.8,16416],[74.8,16499],[74.8,16582],[74.8,16666],[74.8,16749],[74.8,16832],[74.8,16916],[74.8,16999],[74.8,17083],[74.8,17166]]",525.9565,527.9897,74.89583333,0.9879,"[{""rating"":74.89583333333334,""responseTime"":0.9878999999986036}]",space,1.4846,,527.9897,Not at all,0,527.9905,,,[],,0,16,16,16,1,audio/Narrative8Situation7.wav,audio/Narrative7Situation7.wav,audio/Narrative6Situation7.wav,audio/Narrative5Situation7.wav,3,5,5,4,,,,,,,,,,,,,,,,,,,,,,,,,,,,,,,,,,,,,
,,,,,6441c37f5666c66e67eba833,2025-07-07_22h40.02.604,group3.4_multiperson,2023.2.2,Win32,59.88023952,686c2ebf0248f13bef9af11f,686c842f79e5f9be58d4e588,,,,,,,,,,,,,,,,,,,,,,,,,,,,,527.9906,1,audio/Narrative7Situation8.wav,530.0063,,530.0063,540.0396,"[[57.6,583],[55.7,666],[53.5,750],[51.9,833],[51,916],[49.1,1000],[45.9,1083],[43.5,1166],[41.4,1250],[40.8,1333],[40.8,1416],[40.8,1500],[40.8,1583],[41.1,1666],[44.2,1750],[47.7,1833],[50.4,1916],[52,2000],[54,2083],[56.4,2166],[58.3,2250],[59.9,2333],[61,2416],[61.7,2500],[61.7,2583],[61.7,2666],[61.7,2749],[61.6,2833],[61,2916],[60.4,3000],[59.6,3083],[58.3,3166],[56.8,3250],[54.6,3333],[51.5,3416],[47.4,3500],[43.4,3583],[40.8,3666],[39.2,3750],[38.3,3833],[37.9,3916],[37.8,3999],[37.8,4083],[37.8,4166],[37.8,4249],[39.2,4333],[44.6,4416],[49.6,4499],[54.1,4583],[57.7,4666],[59.2,4750],[59.9,4833],[60.7,4916],[61.3,5000],[61.7,5083],[62.2,5166],[62.5,5249],[62.8,5333],[62.9,5416],[63,5499],[63,5583],[63.1,5666],[63.1,5749],[63.1,5833],[63.1,5916],[63.1,5999],[63.1,6083],[63.1,6166],[63.1,6249],[63.1,6333],[63.1,6416],[63.2,6499],[63.3,6583],[63.4,6666],[63.5,6749],[63.8,6833],[63.9,6916],[64,6999],[64.2,7083],[64.2,7166],[64.2,7249],[64.2,7333],[64.2,7416],[64.2,7499],[64.2,7583],[64.2,7666],[64.2,7749],[64.2,7833],[64.2,7916],[64.2,7999],[64.2,8083],[64.2,8166],[64.2,8249],[64.2,8333],[64.2,8416],[64.2,8499],[64.4,8583],[65.1,8666],[65.9,8749],[66.7,8833],[67.2,8916],[67.6,8999],[68,9083],[68.2,9166],[68.2,9249],[68.2,9333],[68.2,9416],[68.2,9499],[68.2,9583],[68.2,9666],[68.2,9749],[68.2,9833],[68.2,9916],[68.2,9999]]",540.0396,542.1396,68.95833333,1.0721,"[{""rating"":68.95833333333333,""responseTime"":1.0721000000014556}]",space,1.5503,,542.1396,Not at all,0,542.1402,,,[],,0,17,17,17,1,audio/Narrative8Situation8.wav,audio/Narrative7Situation8.wav,audio/Narrative6Situation8.wav,audio/Narrative5Situation8.wav,3,2,5,3,,,,,,,,,,,,,,,,,,,,,,,,,,,,,,,,,,,,,
,,,,,6441c37f5666c66e67eba833,2025-07-07_22h40.02.604,group3.4_multiperson,2023.2.2,Win32,59.88023952,686c2ebf0248f13bef9af11f,686c842f79e5f9be58d4e588,,,,,,,,,,,,,,,,,,,,,,,,,,,,,542.1403,1,audio/Narrative7Situation9.wav,544.1561,,544.1562,552.7893,"[[52,83],[51.8,166],[51.6,249],[51,333],[50.1,416],[48,499],[45.3,583],[42.4,666],[40.8,749],[40.9,833],[46.3,916],[50.6,1000],[57.2,1083],[65,1166],[70.5,1249],[73.6,1333],[75.6,1416],[76.1,1499],[76.1,1583],[76.1,1666],[76,1749],[76,1833],[76,1916],[76.1,2000],[77.8,2083],[80.4,2166],[82.9,2249],[83.5,2333],[83.8,2416],[83.6,2499],[82.8,2583],[81.4,2666],[79.4,2749],[77.6,2833],[75.7,2916],[73.8,2999],[72,3083],[70.5,3166],[69.1,3249],[68.4,3333],[68.5,3416],[79.2,3499],[83.2,3583],[84.8,3666],[86.1,3749],[87.7,3833],[88.8,3916],[89.5,3999],[90.3,4083],[90.8,4166],[91,4249],[91,4333],[91,4416],[91,4499],[91,4583],[91,4666],[90.9,4749],[90,4833],[88.2,4916],[86.1,4999],[84,5083],[81.5,5166],[78.9,5249],[76.7,5333],[75.2,5416],[75.1,5499],[80.4,5583],[86.6,5666],[87.9,5749],[88.2,5833],[89.3,5916],[91,5999],[92.1,6083],[92.9,6166],[93.6,6249],[93.8,6333],[93.8,6416],[93.8,6499],[93.8,6583],[93.8,6666],[93.8,6749],[93.8,6833],[93.8,6916],[93.8,6999],[93.8,7083],[93.8,7166],[93.8,7249],[93.8,7333],[93.8,7416],[93.8,7499],[93.8,7582],[93.8,7666],[93.8,7749],[93.8,7833],[93.8,7916],[93.8,7999],[93.8,8083],[93.8,8166],[93.8,8249],[93.8,8333],[93.8,8416],[93.8,8499],[93.8,8583]]",552.7894,555.7727,93.75,1.0794,"[{""rating"":93.75,""responseTime"":1.0793999999986}]",space,2.4336,,555.7727,Definitely yes,100,566.9225,100,10.8967,"[{""rating"":84.6875,""responseTime"":2.0547999999970443},{""rating"":100,""responseTime"":5.428799999997068},{""rating"":100,""responseTime"":10.896700000002966}]",space,0,18,18,18,1,audio/Narrative8Situation9.wav,audio/Narrative7Situation9.wav,audio/Narrative6Situation9.wav,audio/Narrative5Situation9.wav,3,2,4,3,,,10.6002,,,,,,,,,,,,,,,,,,,,,,,,,,,,,,,,,,
,,,,,6441c37f5666c66e67eba833,2025-07-07_22h40.02.604,group3.4_multiperson,2023.2.2,Win32,59.88023952,686c2ebf0248f13bef9af11f,686c842f79e5f9be58d4e588,,,,,,,,,,,,,,,,,,,,,,,,,,,612.5057,615.0885,615.0957,2,audio/Narrative13Situation2.wav,615.0958,,615.0958,644.8383,"[[100,3992],[92.2,4076],[57,4742],[53,4826],[49.4,4909],[47,4992],[44.6,5076],[37.3,5159],[35.2,5242],[35.1,5325],[36.9,5409],[45.2,5492],[50.4,5576],[51.3,5659],[51.4,5742],[51.4,5825],[51.4,5909],[51.9,5992],[52.1,6076],[52.2,6159],[52.4,6242],[52.9,6326],[53.6,6409],[54.6,6492],[56.1,6576],[57.4,6659],[58.2,6742],[58.8,6826],[59.1,6909],[59.5,6992],[61.1,7076],[62.6,7159],[63,7242],[63.1,7325],[63.1,7409],[63.1,7492],[63.1,7575],[63.1,7659],[63.1,7742],[63.1,7825],[63.2,7909],[63.6,7992],[64.2,8075],[64.7,8159],[65.2,8242],[65.3,8325],[65.3,8409],[65.3,8492],[65.5,8576],[65.9,8659],[68.6,8742],[71.5,8826],[75.3,8909],[80.1,8992],[84,9076],[85.9,9159],[87.3,9242],[88,9325],[88,9409],[88,9492],[87.8,9576],[87.3,9659],[86.7,9742],[85.4,9826],[84,9909],[82.5,9992],[81.5,10076],[80.7,10159],[80.1,10242],[79.1,10325],[77.9,10409],[76.1,10492],[74,10575],[70.6,10659],[61,10742],[48.5,10825],[41.4,10909],[37.1,10992],[32.6,11076],[29.7,11159],[27.6,11242],[21.5,11659],[24.3,11742],[26.3,11825],[27.8,11909],[29.9,11992],[35.4,12075],[47.6,12159],[57.7,12242],[63.2,12325],[65,12409],[65.4,12492],[65.8,12575],[66.5,12659],[67.9,12742],[69.9,12825],[71.1,12909],[71.9,12992],[72.2,13075],[72.3,13159],[72.3,13242],[72.4,13325],[72.5,13409],[72.6,13492],[72.6,13575],[72.6,13659],[72.6,13742],[72.6,13825],[72.6,13909],[72.6,13992],[72.6,14075],[72.6,14159],[72.6,14242],[72.6,14325],[72.6,14409],[72.6,14492],[72.6,14575],[72.7,14659],[73,14742],[73.3,14825],[73.5,14909],[73.6,14992],[73.6,15075],[73.8,15159],[73.8,15242],[73.8,15325],[73.8,15409],[73.8,15492],[73.8,15575],[73.8,15659],[73.8,15742],[73.8,15825],[73.8,15909],[73.8,15992],[73.8,16075],[73.8,16159],[73.8,16242],[73.8,16325],[73.8,16409],[73.8,16492],[73.8,16575],[73.8,16659],[73.8,16742],[73.8,16825],[73.8,16909],[73.8,16992],[73.8,17075],[73.8,17159],[73.8,17242],[73.8,17325],[73.8,17408],[73.8,17492],[73.8,17575],[73.8,17659],[73.8,17742],[73.8,17825],[73.8,17909],[73.8,17992],[73.8,18075],[73.8,18159],[73.8,18242],[73.8,18325],[73.8,18409],[73.8,18492],[73.8,18575],[73.8,18659],[73.8,18742],[73.8,18825],[73.8,18909],[73.8,18992],[73.8,19075],[73.8,19159],[73.8,19242],[73.8,19325],[73.8,19409],[73.8,19492],[73.8,19575],[73.8,19659],[73.8,19742],[73.8,19825],[73.8,19909],[73.8,19992],[73.8,20075],[73.8,20159],[73.8,20242],[74,20325],[74.6,20409],[76.1,20492],[78.4,20575],[79.5,20658],[79.8,20742],[79.9,20825],[79.9,20909],[79.9,20992],[79.9,21075],[79.9,21159],[79.9,21242],[79.9,21325],[79.9,21409],[79.9,21492],[79.9,21575],[79.9,21659],[79.9,21742],[79.9,21825],[79.9,21909],[79.9,21992],[79.9,22075],[79.9,22159],[79.9,22242],[79.9,22325],[79.9,22409],[79.9,22492],[79.9,22575],[79.9,22659],[79.9,22742],[79.9,22825],[79.9,22908],[79.9,22992],[79.9,23075],[79.9,23159],[79.9,23242],[79.9,23325],[79.9,23409],[79.9,23492],[79.9,23575],[80,23659],[80.2,23742],[80.2,23825],[80.2,23908],[80.2,23992],[80.2,24075],[80.2,24159],[80.2,24242],[80.3,24325],[80.3,24408],[80.3,24492],[80.3,24575],[80.3,24659],[80.3,24742],[80.5,24825],[80.7,24909],[81.3,24992],[82.1,25075],[82.7,25159],[84.5,25242],[87.9,25325],[91.7,25408],[94.1,25492],[94.4,25575],[94.4,25658],[94.1,25742],[90.7,25825],[87.6,25909],[85,25992],[82.5,26075],[80.4,26159],[79.9,26242],[79.5,26325],[79.5,26408],[79.5,26492],[79.5,26575],[79.5,26658],[79.5,26742],[79.5,26825],[79.4,26908],[79.2,26992],[78.9,27075],[78.6,27158],[78.2,27242],[77.6,27325],[76.9,27409],[76.3,27492],[75.7,27575],[75.2,27658],[74.8,27742],[74.3,27825],[73.9,27908],[73.6,27992],[73.5,28075],[73.5,28158],[73.5,28242],[73.5,28325],[73.5,28408],[73.6,28492],[74.1,28575],[74.6,28658],[74.8,28742],[74.9,28825],[75.1,28909],[76.5,28992],[81.1,29075],[84.4,29158],[86.3,29242],[87.7,29325],[88.3,29408],[88.5,29492],[88.5,29575],[88.5,29658],[87.9,29742]]",644.8383,644.8392,,,[],,,,644.8392,Not at all,0,644.8402,,,[],,0,0,0,0,1,audio/Narrative13Situation2.wav,audio/Narrative13Situation2.wav,audio/Narrative13Situation2.wav,audio/Narrative13Situation2.wav,2,2,2,2,,,,,566.9227,612.5055,space,45.0496,,,,,,,,,,,,,,,,,,,,,,,,,,,,,
,,,,,6441c37f5666c66e67eba833,2025-07-07_22h40.02.604,group3.4_multiperson,2023.2.2,Win32,59.88023952,686c2ebf0248f13bef9af11f,686c842f79e5f9be58d4e588,,,,,,,,,,,,,,,,,,,,,,,,,,,,,644.8403,2,audio/Narrative6Situation1.wav,646.8548,,646.8549,673.4376,"[[53.4,83],[55.9,166],[58.2,249],[58.4,333],[58.4,416],[55.7,499],[45.9,583],[40.6,666],[36.4,750],[32.5,833],[28,916],[24.6,999],[24.4,1083],[24.8,1166],[34.5,1250],[53.1,1333],[62.8,1416],[68,1499],[70.1,1583],[70.9,1666],[71.4,1749],[71.5,1833],[71.6,1916],[71.6,1999],[72.1,2083],[73,2166],[74.6,2250],[75.4,2333],[75.6,2416],[75.6,2499],[75.5,2583],[74,2666],[72.4,2749],[71.5,2833],[71,2916],[70.5,2999],[69.2,3083],[69.1,3166],[80.6,3250],[100,3333],[100,3416],[100,3499],[100,3583],[98.9,3666],[96.3,3749],[94.8,3833],[92.8,3916],[91.3,4000],[90.8,4083],[90.8,4166],[90.8,4249],[90.8,4333],[90.8,4416],[90.8,4499],[90.8,4583],[90.8,4666],[90.8,4749],[90.8,4832],[90.8,4916],[90.8,4999],[90.8,5083],[90.8,5166],[90.8,5249],[90.8,5333],[90.8,5416],[90.8,5499],[90.8,5583],[90.8,5666],[90.8,5749],[90.8,5833],[90.8,5916],[90.8,5999],[90.8,6083],[90.8,6166],[90.8,6249],[90.8,6333],[90.8,6416],[90.8,6499],[90.7,6583],[90.7,6666],[89.9,6749],[88.2,6833],[87.3,6916],[87,6999],[87,7082],[87,7166],[87,7249],[87,7333],[87,7416],[87,7499],[87.1,7583],[87.5,7666],[88.1,7749],[88.8,7833],[89.3,7916],[89.7,7999],[89.9,8083],[90.1,8166],[90.2,8249],[90.2,8332],[90.2,8416],[90.3,8499],[90.3,8582],[90.3,8666],[90.3,8749],[90.3,8833],[90.3,8916],[90.4,8999],[90.5,9082],[90.5,9166],[90.5,9249],[90.5,9333],[90.5,9416],[90.5,9499],[90.5,9582],[90.5,9666],[90.6,9749],[90.6,9833],[90.6,9916],[90.6,9999],[90.6,10083],[90.6,10166],[90.6,10249],[90.6,10332],[90.6,10416],[90.6,10499],[90.6,10582],[90.6,10666],[90.6,10749],[90.6,10832],[90.8,10916],[91.1,10999],[91.6,11082],[91.7,11166],[89.9,11249],[76.4,11333],[66,11416],[62.7,11499],[60.1,11583],[53.4,11666],[46.7,11749],[42.6,11833],[42,11916],[42.1,11999],[45.2,12083],[54.2,12166],[64.2,12249],[72.3,12333],[76.4,12416],[77.5,12499],[77.9,12583],[77.9,12666],[78,12749],[78,12832],[78,12916],[78,12999],[78,13082],[78,13166],[78,13249],[78,13332],[78,13416],[78,13499],[78,13582],[78,13666],[78,13749],[78,13832],[78,13916],[78,13999],[80.2,14083],[84.2,14166],[84.5,14249],[84.6,14333],[85,14416],[85.9,14499],[86.3,14582],[86.4,14666],[86.5,14749],[86.5,14832],[86.5,14916],[86.5,14999],[86.5,15082],[86.5,15166],[86.5,15249],[86.5,15332],[86.5,15416],[86.5,15499],[86.5,15582],[86.5,15666],[86.5,15749],[86.5,15832],[86.5,15916],[86.5,15999],[86.5,16082],[86.5,16166],[86.5,16249],[86.5,16332],[86.5,16416],[86.5,16499],[86.5,16582],[86.5,16666],[86.5,16749],[86.5,16832],[86.5,16916],[86.5,16999],[86.5,17082],[86.5,17166],[86.5,17249],[86.5,17332],[86.5,17416],[86.5,17499],[86.5,17582],[86.5,17666],[86.5,17749],[86.5,17832],[86.5,17916],[86.5,17999],[86.5,18082],[86.5,18166],[86.5,18249],[86.5,18332],[86.5,18416],[86.5,18499],[86.5,18582],[86.5,18666],[86.5,18749],[86.5,18832],[86.5,18916],[86.5,18999],[86.5,19082],[86.5,19166],[86.5,19249],[86.5,19332],[86.5,19416],[86.5,19499],[86.5,19582],[86.5,19666],[86.5,19749],[86.5,19832],[86.5,19916],[86.5,19999],[86.5,20082],[86.5,20166],[86.5,20249],[86.5,20332],[86.5,20416],[86.5,20499],[86.5,20582],[86.4,20666],[86.4,20749],[86.4,20832],[86.4,20916],[86.4,20999],[86.4,21082],[86.4,21166],[86.4,21249],[86.3,21332],[86.3,21416],[86.3,21499],[86.3,21582],[86.3,21666],[86.3,21749],[86.3,21832],[86.3,21916],[86.3,21999],[86.3,22082],[86.3,22166],[84,22249],[76.6,22332],[73.8,22416],[73,22499],[73,22582],[73,22666],[73,22749],[73.6,22832],[77.7,22916],[80.5,22999],[81.9,23082],[82.5,23166],[82.8,23249],[83.1,23332],[83.2,23416],[83.2,23499],[83.3,23582],[83.4,23666],[83.4,23749],[83.4,23832],[83.5,23916],[83.5,23999],[83.5,24082],[83.6,24166],[83.6,24249],[83.6,24332],[83.6,24416],[83.6,24499],[83.6,24582],[83.6,24666],[83.6,24749],[83.6,24832],[83.6,24916],[83.6,24999],[83.6,25082],[83.6,25166],[83.6,25249],[83.6,25332],[83.6,25416],[83.6,25499],[83.6,25582],[83.6,25666],[83.6,25749],[83.3,25832],[79.8,25916],[79.2,25999],[79.2,26082],[79.2,26166],[80.1,26249],[82.7,26332],[84,26416],[84.2,26499],[84.2,26582]]",673.4378,681.3543,81.45833333,3.31,"[{""rating"":81.45833333333333,""responseTime"":3.3099999999999454}]",space,7.378,,681.3544,Not at all,0,681.3552,,,[],,0,1,1,1,1,audio/Narrative7Situation1.wav,audio/Narrative8Situation1.wav,audio/Narrative5Situation1.wav,audio/Narrative6Situation1.wav,2,5,5,2,,,,,,,,,,,,,,,,,,,,,,,,,,,,,,,,,,,,,
,,,,,6441c37f5666c66e67eba833,2025-07-07_22h40.02.604,group3.4_multiperson,2023.2.2,Win32,59.88023952,686c2ebf0248f13bef9af11f,686c842f79e5f9be58d4e588,,,,,,,,,,,,,,,,,,,,,,,,,,,,,681.3553,2,audio/Narrative6Situation2.wav,684.3711,,684.3711,712.8873,"[[77.5,83],[77.4,166],[77.2,249],[77.2,333],[76.8,416],[75.8,500],[74.5,583],[71.9,666],[45.7,1166],[45.7,1249],[44.9,1333],[42.3,1416],[41.1,1499],[39.5,1583],[36.5,1666],[31.5,1749],[27.3,1833],[22.6,1916],[18.6,1999],[18.5,2083],[18.5,2166],[18.5,2249],[19.6,2333],[25.9,2416],[38.8,2499],[56,2583],[66.9,2666],[68.2,2749],[68.8,2833],[71.3,2916],[75.1,2999],[79.7,3083],[84.8,3166],[89.8,3249],[92.2,3333],[92.3,3416],[92.3,3499],[92.3,3583],[92.3,3666],[90.6,3749],[88.2,3833],[86.4,3916],[85.2,3999],[84.1,4083],[82.5,4166],[81.6,4249],[80.7,4333],[79.8,4416],[78.5,4499],[77.1,4583],[74.9,4666],[72.2,4749],[69.9,4833],[66.9,4916],[63,4999],[59.2,5083],[55.4,5166],[51.7,5249],[49,5333],[48,5416],[47.8,5499],[47.7,5583],[47.7,5666],[47.7,5749],[47.9,5833],[48.1,5916],[48.5,5999],[49.1,6083],[49.6,6166],[50.3,6249],[51.9,6333],[55,6416],[63.4,6499],[74.8,6583],[81.8,6666],[86.6,6749],[88.8,6833],[90.1,6916],[90.7,6999],[90.8,7083],[90.8,7166],[90.8,7249],[90.6,7333],[89.2,7416],[87.5,7499],[86.5,7583],[85.9,7666],[85.4,7749],[85,7833],[84.7,7916],[84.5,7999],[84.2,8083],[83.9,8166],[83.6,8249],[83.5,8332],[83.2,8416],[83.2,8499],[83,8583],[82.9,8666],[82.8,8749],[82.6,8833],[82,8916],[80.7,8999],[79.1,9083],[77.7,9166],[76.5,9249],[75.7,9333],[75.2,9416],[75,9499],[74.7,9583],[74.6,9666],[74.5,9749],[74.3,9833],[74.2,9916],[74.2,9999],[74.2,10082],[74.2,10166],[74.2,10249],[74.1,10332],[74.1,10416],[74.1,10499],[74.1,10583],[74.1,10666],[74.1,10749],[74.1,10833],[74.1,10916],[74,10999],[74,11082],[74,11166],[74,11249],[74,11332],[74,11416],[74,11499],[74,11582],[73.9,11666],[73.9,11749],[73.6,11832],[73.3,11916],[72.8,11999],[72,12082],[70.9,12166],[70.2,12249],[69.9,12332],[69.6,12416],[69.6,12499],[69.5,12582],[69.5,12666],[69.5,12749],[69.5,12832],[69.5,12916],[69.5,12999],[69.5,13082],[69.5,13166],[69.5,13249],[69.5,13332],[69.5,13416],[69.5,13499],[69.5,13582],[69.5,13666],[69.5,13749],[69.5,13832],[69.5,13916],[69.5,13999],[69.5,14082],[69.5,14166],[69.8,14249],[70.5,14332],[72.1,14416],[84.5,15083],[86.3,15166],[86.6,15249],[86.7,15332],[87.3,15416],[89.3,15499],[90.8,15582],[91.7,15666],[92.2,15749],[92.4,15832],[92.5,15916],[92.3,15999],[89.8,16083],[86.7,16166],[83.6,16249],[80.1,16332],[77,16416],[74.4,16499],[72,16583],[69.6,16666],[67.1,16749],[64,16832],[60.7,16916],[59.1,16999],[57.7,17082],[57.4,17166],[57.4,17249],[57.4,17332],[59.3,17416],[64.9,17499],[71.4,17582],[77.1,17666],[80.5,17749],[82.5,17832],[84.3,17916],[85.4,17999],[85.9,18082],[86.6,18166],[87.6,18249],[88.6,18332],[89.6,18416],[90.2,18499],[90.7,18582],[91.1,18666],[91.5,18749],[91.6,18832],[91.7,18916],[91.8,18999],[92.1,19082],[92.3,19166],[92.6,19249],[92.6,19332],[92.7,19416],[92.8,19499],[92.8,19582],[92.8,19666],[92.8,19749],[92.6,19832],[91,19916],[89.8,19999],[88.6,20082],[86.7,20166],[84.1,20249],[82.3,20332],[81.3,20416],[80.6,20499],[80.3,20582],[80.2,20666],[80.1,20749],[80.1,20832],[80.1,20916],[80.1,20999],[80.1,21082],[80.1,21166],[80.1,21249],[80.1,21332],[80.1,21416],[80.2,21499],[80.4,21582],[80.6,21666],[80.7,21749],[81,21832],[81.1,21916],[81.4,21999],[81.5,22082],[81.7,22166],[82,22249],[82.4,22332],[82.9,22416],[83.5,22499],[84.2,22582],[84.5,22666],[84.9,22749],[85.2,22832],[85.4,22916],[85.6,22999],[85.7,23082],[85.7,23166],[85.8,23249],[85.9,23332],[86,23416],[86.1,23499],[86.1,23582],[86.1,23666],[86.3,23749],[86.3,23832],[86.3,23916],[86.3,23999],[86.5,24083],[86.6,24166],[86.9,24249],[87.2,24332],[87.5,24416],[87.9,24499],[88.2,24582],[88.3,24666],[88.6,24749],[88.9,24832],[89.2,24916],[89.3,24999],[89.5,25082],[89.8,25166],[90,25249],[90.1,25332],[90.4,25416],[90.6,25499],[90.6,25582],[90.6,25666],[90.6,25749],[90.6,25832],[90.6,25916],[90.6,25999],[90.6,26082],[90.6,26166],[90.6,26249],[90.6,26332],[90.5,26416],[90.1,26499],[89.9,26582],[89.8,26666],[89.5,26749],[89.5,26832],[89.5,26916],[89.5,26999],[89.5,27082],[89.5,27166],[89.7,27249],[89.8,27332],[90.1,27416],[90.2,27499],[90.4,27582],[90.5,27666],[90.6,27749],[90.6,27832],[90.6,27916],[90.6,27999],[90.6,28082],[90.6,28166],[90.6,28249],[90.6,28332],[90.2,28416],[89.8,28499]]",712.8875,718.6706,82.70833333,1.5152,"[{""rating"":82.70833333333334,""responseTime"":1.5152000000030057}]",space,5.2424,,718.6706,Not at all,0,718.6713,,,[],,0,2,2,2,1,audio/Narrative7Situation2.wav,audio/Narrative8Situation2.wav,audio/Narrative5Situation2.wav,audio/Narrative6Situation2.wav,3,3,3,3,,,,,,,,,,,,,,,,,,,,,,,,,,,,,,,,,,,,,
,,,,,6441c37f5666c66e67eba833,2025-07-07_22h40.02.604,group3.4_multiperson,2023.2.2,Win32,59.88023952,686c2ebf0248f13bef9af11f,686c842f79e5f9be58d4e588,,,,,,,,,,,,,,,,,,,,,,,,,,,,,718.6714,2,audio/Narrative6Situation3.wav,723.6871,,723.6872,736.3037,"[[42.3,166],[42.2,250],[42.2,333],[42.2,416],[42.2,499],[42.2,583],[42.2,666],[42.2,749],[46.6,833],[53.4,916],[54.9,999],[56.5,1083],[58.8,1166],[60.9,1250],[61.6,1333],[61.6,1416],[61.6,1499],[61.6,1583],[61.6,1666],[61.6,1749],[61.6,1833],[61.6,1916],[63.2,2000],[66.8,2083],[69.4,2166],[70.8,2249],[71.6,2333],[71.7,2416],[71.8,2499],[72.2,2583],[75.5,2666],[79.1,2750],[79.9,2833],[80,2916],[80,2999],[80,3083],[80,3166],[80,3249],[80,3333],[80,3416],[80,3499],[80,3583],[80,3666],[80,3749],[80,3833],[80,3916],[80,3999],[80,4083],[80,4166],[80,4249],[80,4333],[80,4416],[80,4499],[80,4583],[80,4666],[80,4749],[80,4833],[80,4916],[79.9,4999],[77.7,5083],[74.2,5166],[71.8,5250],[70.6,5333],[70,5416],[69.5,5499],[69.3,5583],[69.3,5666],[69.5,5750],[74.7,5833],[82.2,5916],[84.1,5999],[84.1,6083],[83.8,6166],[80.2,6249],[74.4,6333],[69.5,6416],[66.8,6499],[66.7,6583],[71.1,6666],[76.9,6749],[80.1,6833],[80.7,6916],[80.7,6999],[81.1,7083],[84.4,7166],[87.4,7249],[89,7333],[89.7,7416],[89.8,7499],[90,7583],[90.1,7666],[90.3,7749],[90.4,7833],[90.4,7916],[90.4,7999],[90.4,8083],[90.4,8166],[90.4,8249],[90.4,8333],[90.4,8416],[90.4,8499],[90.4,8583],[90.4,8666],[90.4,8749],[90.4,8833],[90.4,8916],[90.4,8999],[90.3,9083],[87.9,9166],[85.5,9249],[85.5,9333],[85.3,9416],[83.9,9499],[83.5,9583],[83.5,9666],[83.5,9749],[83.5,9833],[83.5,9916],[83.9,9999],[85.5,10083],[87.4,10166],[87.9,10249],[88.1,10333],[88.1,10416],[88.2,10499],[88.2,10583],[88.2,10666],[88.2,10749],[88.2,10833],[88.2,10916],[88.2,10999],[88.2,11083],[88.2,11166],[88.3,11249],[89.5,11333],[90.1,11416],[90.2,11499],[90.2,11583],[89.9,11666],[88.4,11749],[85.8,11833],[83.2,11916],[82.9,11999],[83.1,12083],[86.9,12166],[89.8,12249],[90.2,12333],[90.2,12416],[90.2,12499],[90.2,12582]]",736.3037,781.1031,77.91666667,42.9375,"[{""rating"":77.91666666666667,""responseTime"":42.9375}]",space,44.2496,,781.1031,Not at all,0,781.104,,,[],,0,3,3,3,1,audio/Narrative7Situation3.wav,audio/Narrative8Situation3.wav,audio/Narrative5Situation3.wav,audio/Narrative6Situation3.wav,8,4,3,5,,,,,,,,,,,,,,,,,,,,,,,,,,,,,,,,,,,,,
,,,,,6441c37f5666c66e67eba833,2025-07-07_22h40.02.604,group3.4_multiperson,2023.2.2,Win32,59.88023952,686c2ebf0248f13bef9af11f,686c842f79e5f9be58d4e588,,,,,,,,,,,,,,,,,,,,,,,,,,,,,781.104,2,audio/Narrative6Situation4.wav,783.1197,,783.1197,795.7364,"[[75.8,249],[75.7,333],[75.7,416],[75.7,499],[75.7,583],[75.7,666],[75.7,749],[75.5,833],[75.4,916],[75.2,1000],[74.6,1083],[74.1,1166],[73.6,1250],[73.1,1333],[72.7,1416],[72.3,1500],[72,1583],[71.8,1666],[71.6,1750],[71.5,1833],[71.1,1916],[71,2000],[70.8,2083],[70.6,2166],[70.5,2250],[70.3,2333],[70.2,2416],[70.1,2499],[69.8,2583],[69.3,2666],[67.4,4416],[71.3,4500],[72.4,4583],[70.9,4666],[67.9,4750],[64.4,4833],[60.3,4916],[56.4,5000],[52.8,5083],[49.5,5166],[46.9,5250],[44,5333],[41.8,5416],[40.6,5500],[40.6,5583],[40.6,5666],[40.9,5750],[45.7,5833],[50.8,5916],[53.5,6000],[56.1,6083],[59.6,6166],[61,6250],[61.6,6333],[62,6416],[63.8,6500],[65.8,6583],[67,6666],[68.2,6749],[71.7,6833],[74.4,6916],[75.5,6999],[76.4,7083],[76.9,7166],[77.2,7249],[77.2,7333],[77.2,7416],[77.2,7499],[77.2,7583],[77.1,7666],[76.7,7750],[75.8,7833],[74.8,7916],[73.5,8000],[72.4,8083],[71.3,8166],[69.8,8249],[68.2,8333],[66.8,8416],[65.6,8499],[64.5,8583],[63.5,8666],[62.7,8750],[62.1,8833],[61.8,8916],[61.8,8999],[62.7,9083],[99.5,11749],[100,11833],[100,11916],[100,11999],[100,12083],[100,12166]]",795.7365,807.9027,51.875,11.271,"[{""rating"":65.10416666666666,""responseTime"":10.093100000001414},{""rating"":51.87500000000001,""responseTime"":11.270999999999958}]",space,11.6261,,807.9028,Partially,50,807.9042,,,[],,0,4,4,4,1,audio/Narrative7Situation4.wav,audio/Narrative8Situation4.wav,audio/Narrative5Situation4.wav,audio/Narrative6Situation4.wav,3,3,1,2,,,,,,,,,,,,,,,,,,,,,,,,,,,,,,,,,,,,,
,,,,,6441c37f5666c66e67eba833,2025-07-07_22h40.02.604,group3.4_multiperson,2023.2.2,Win32,59.88023952,686c2ebf0248f13bef9af11f,686c842f79e5f9be58d4e588,,,,,,,,,,,,,,,,,,,,,,,,,,,,,807.9043,2,audio/Narrative6Situation5.wav,809.9194,,809.9194,817.8859,"[[52.1,6583],[62.4,6666],[70.3,6749],[72.7,6833],[74.7,6916],[76.5,6999],[77.2,7083],[77.5,7166],[77.5,7249],[77.5,7333],[77.5,7416],[77.1,7499],[76,7583],[75.2,7666],[74.7,7749],[74.3,7833],[74.2,7916]]",817.8859,820.4857,71.97916667,1.0895,"[{""rating"":71.97916666666666,""responseTime"":1.08949999999993}]",space,2.067,,820.4857,Partially,50,820.4865,,,[],,0,5,5,5,1,audio/Narrative7Situation5.wav,audio/Narrative8Situation5.wav,audio/Narrative5Situation5.wav,audio/Narrative6Situation5.wav,5,2,5,2,,,,,,,,,,,,,,,,,,,,,,,,,,,,,,,,,,,,,
,,,,,6441c37f5666c66e67eba833,2025-07-07_22h40.02.604,group3.4_multiperson,2023.2.2,Win32,59.88023952,686c2ebf0248f13bef9af11f,686c842f79e5f9be58d4e588,,,,,,,,,,,,,,,,,,,,,,,,,,,,,820.4867,2,audio/Narrative6Situation6.wav,822.5025,,822.5025,833.5859,"[[71.3,6916],[69.8,7000],[67.8,7083],[65.7,7166],[63.1,7250],[60.7,7333],[57.9,7416],[55.2,7500],[52.3,7583],[49.2,7666],[45,7750],[42,7833],[39.7,7916],[38.1,8000],[37.9,8083],[37.9,8166],[38.8,8250],[41.8,8333],[45.1,8416],[49.4,8500],[55.1,8583],[59.7,8666],[62.9,8750],[65.8,8833],[67.1,8916],[68.1,9000],[69.6,9083],[72.4,9166],[73.9,9249],[74.4,9333],[74.5,9416],[74.7,9500],[74.7,9583],[75.1,9666]]",833.5859,849.6022,66.25,13.7927,"[{""rating"":61.979166666666664,""responseTime"":6.087600000001544},{""rating"":66.25,""responseTime"":13.792700000003038}]",space,15.4701,,849.6022,Not at all,0,849.6034,,,[],,0,6,6,6,1,audio/Narrative7Situation6.wav,audio/Narrative8Situation6.wav,audio/Narrative5Situation6.wav,audio/Narrative6Situation6.wav,3,2,3,2,,,,,,,,,,,,,,,,,,,,,,,,,,,,,,,,,,,,,
,,,,,6441c37f5666c66e67eba833,2025-07-07_22h40.02.604,group3.4_multiperson,2023.2.2,Win32,59.88023952,686c2ebf0248f13bef9af11f,686c842f79e5f9be58d4e588,,,,,,,,,,,,,,,,,,,,,,,,,,,,,849.6036,2,audio/Narrative6Situation7.wav,854.6188,,854.6188,879.4852,"[[66.4,750],[66.4,833],[66.4,916],[66.4,999],[66.4,1083],[66.4,1166],[66.4,1249],[66.6,1333],[67.3,1416],[68.9,1500],[70.2,1583],[72.4,1666],[76.3,1750],[77,1833],[77.1,1916],[77.2,1999],[77.3,2083],[77.8,2166],[78.2,2250],[78.4,2333],[78.4,2416],[78.4,2499],[78.4,2583],[78.4,2666],[78.4,2749],[78.4,2833],[78.4,2916],[78.4,2999],[78.4,3083],[78.4,3166],[78.4,3249],[78.4,3333],[78.4,3416],[78.4,3499],[78.4,3583],[78.4,3666],[78.4,3749],[78.4,3833],[78.4,3916],[78.4,4000],[78.4,4083],[78.4,4166],[78.4,4249],[78.4,4333],[78.4,4416],[78.4,4499],[78.4,4583],[78.4,4666],[78.4,4749],[78.4,4833],[78.4,4916],[78.4,4999],[78.4,5083],[78.4,5166],[78.4,5249],[78.4,5333],[78.4,5416],[78.4,5499],[78.4,5583],[78.4,5666],[78.4,5749],[78.4,5833],[78.4,5916],[78.4,5999],[78.4,6083],[78.4,6166],[78.4,6249],[78.4,6333],[78.4,6416],[78.4,6499],[78.4,6583],[78.4,6666],[78.4,6749],[78.4,6833],[78.4,6916],[78.4,6999],[78.4,7083],[78.4,7166],[78.4,7249],[78.4,7333],[78.4,7416],[78.4,7499],[78.4,7583],[78.4,7666],[78.4,7749],[78.4,7833],[78.4,7916],[78.4,7999],[78.4,8083],[78.4,8166],[78.4,8249],[78.4,8333],[78.4,8416],[78.4,8499],[78.4,8583],[78.4,8666],[78.4,8749],[78.4,8832],[78.4,8916],[78.4,8999],[78.4,9082],[78.4,9166],[78.4,9249],[78.4,9333],[78.4,9416],[78.4,9499],[78.4,9583],[78.4,9666],[78.4,9749],[78.4,9833],[78.4,9916],[78.4,9999],[78.4,10083],[78.4,10166],[78.4,10249],[78.4,10333],[78.4,10416],[78.4,10499],[78.4,10583],[78.4,10666],[78.4,10749],[78.4,10833],[78.4,10916],[78.4,10999],[78.4,11083],[78.4,11166],[78.4,11249],[78.4,11333],[74.9,11416],[69.5,11499],[55.3,11749],[52.5,11833],[49.6,11916],[47.9,11999],[47.4,12083],[46.3,12166],[44.8,12249],[43.3,12333],[41.5,12416],[39.9,12499],[39,12583],[38.1,12666],[37,12749],[36.1,12833],[35.8,12916],[35.7,12999],[35.7,13083],[35.7,13166],[35.7,13249],[35.7,13333],[35.7,13416],[35.7,13499],[35.7,13583],[35.7,13666],[35.5,13749],[35.2,13833],[34.7,13916],[34.1,13999],[32.8,14083],[30.9,14166],[28.9,14249],[26.5,14333],[23.8,14416],[21.1,14499],[19.8,14583],[18.6,14666],[17.7,14749],[17.1,14833],[16.9,14916],[16.9,14999],[16.9,15083],[16.9,15166],[16.9,15249],[17.1,15333],[17.2,15416],[17.4,15499],[17.5,15583],[17.6,15666],[17.8,15749],[18.2,15833],[18.6,15916],[18.9,15999],[19.1,16083],[19.4,16166],[19.7,16249],[19.8,16332],[19.8,16416],[19.9,16499],[20,16583],[20.4,16666],[20.7,16749],[21.1,16833],[21.6,16916],[21.6,16999],[19.8,17083],[18.9,17166],[18.6,17249],[18.6,17332],[18.4,17416],[18.2,17499],[18.1,17582],[18.1,17666],[18.1,17749],[18.4,17833],[20.3,17916],[21.9,17999],[22.8,18083],[23,18166],[23,18249],[23,18333],[23,18416],[22.6,18499],[22.1,18583],[21.5,18666],[20.7,18749],[19.8,18833],[19.1,18916],[19,18999],[19,19083],[19,19166],[19.2,19249],[19.7,19333],[20.1,19416],[20.6,19499],[21,19582],[21.5,19666],[21.9,19749],[21.9,19832],[21.9,19916],[21.9,19999],[21.9,20082],[21.7,20166],[21.1,20249],[20.3,20333],[19.7,20416],[19.6,20499],[19.6,20582],[19.6,20666],[19.6,20749],[19.6,20832],[19.8,20916],[20.1,20999],[20.4,21083],[20.9,21166],[21.3,21249],[21.5,21332],[21.6,21416],[21.6,21499],[21.3,21583],[20.1,21666],[18.9,21749],[18.3,21832],[18.3,21916],[18.6,21999],[20.3,22082],[21.9,22166],[23,22249],[23.9,22333],[24.6,22416],[25.1,22499],[25.7,22583],[26.3,22666],[26.9,22749],[27.2,22832],[27.3,22916],[27.3,22999],[27.2,23083],[26.3,23166],[25.3,23249],[24.4,23332],[23.9,23416],[23.6,23499],[23.6,23582],[23.6,23666],[23.6,23749],[23.6,23832],[23.6,23916],[23.6,23999],[23.6,24082],[23.6,24166],[23.6,24249],[23.6,24332],[23.8,24416],[24,24499],[24.4,24582],[24.9,24666],[25.2,24749],[25.4,24832]]",879.4853,895.0684,26.77083333,0.9492,"[{""rating"":26.770833333333332,""responseTime"":0.9492000000029748}]",space,15.0336,,895.0684,Not at all,0,895.0693,,,[],,0,7,7,7,1,audio/Narrative7Situation7.wav,audio/Narrative8Situation7.wav,audio/Narrative5Situation7.wav,audio/Narrative6Situation7.wav,5,3,4,5,,,,,,,,,,,,,,,,,,,,,,,,,,,,,,,,,,,,,
,,,,,6441c37f5666c66e67eba833,2025-07-07_22h40.02.604,group3.4_multiperson,2023.2.2,Win32,59.88023952,686c2ebf0248f13bef9af11f,686c842f79e5f9be58d4e588,,,,,,,,,,,,,,,,,,,,,,,,,,,,,895.0694,2,audio/Narrative6Situation8.wav,900.0848,,900.0848,906.9348,"[[999,0],[999,83],[999,166],[999,250],[999,333],[999,416],[999,500],[999,583],[999,666],[999,750],[999,833],[999,916],[999,1000],[999,1083],[999,1166],[999,1250],[999,1333],[999,1416],[999,1500],[999,1583],[999,1666],[999,1750],[999,1833],[999,1916],[999,2000],[999,2083],[999,2166],[999,2250],[999,2333],[999,2416],[999,2500],[999,2583],[999,2666],[999,2750],[999,2833],[999,2916],[999,3000],[999,3083],[999,3166],[999,3250],[999,3333],[999,3416],[999,3500],[999,3583],[999,3666],[999,3749],[999,3833],[999,3916],[999,4000],[999,4083],[999,4166],[999,4250],[999,4333],[999,4416],[999,4500],[999,4583],[999,4666],[999,4750],[999,4833],[999,4916],[999,5000],[999,5083],[999,5166],[999,5250],[999,5333],[999,5416],[999,5500],[999,5583],[999,5666],[999,5750],[999,5833],[999,5916],[999,6000],[999,6083],[999,6166],[999,6250],[999,6333],[999,6416],[999,6500],[999,6583],[999,6666],[999,6749],[999,6833]]",906.9349,913.6347,53.4375,4.9568,"[{""rating"":53.43750000000001,""responseTime"":4.956800000004478}]",space,6.1592,,913.6348,Definitely yes,100,913.636,,,[],,0,8,8,8,1,audio/Narrative7Situation8.wav,audio/Narrative8Situation8.wav,audio/Narrative5Situation8.wav,audio/Narrative6Situation8.wav,2,3,3,5,,,,,,,,,,,,,,,,,,,,,,,,,,,,,,,,,,,,,
,,,,,6441c37f5666c66e67eba833,2025-07-07_22h40.02.604,group3.4_multiperson,2023.2.2,Win32,59.88023952,686c2ebf0248f13bef9af11f,686c842f79e5f9be58d4e588,,,,,,,,,,,,,,,,,,,,,,,,,,,,,913.636,2,audio/Narrative6Situation9.wav,917.6514,,917.6515,927.6013,"[[39,83],[37.7,166],[36.9,249],[35.5,333],[35,416],[35,499],[36.4,583],[40.5,666],[42.8,749],[45.8,833],[54.5,916],[64.3,999],[69.2,1083],[74.1,1166],[79.1,1250],[80.9,1333],[80.9,1416],[79.8,1499],[70.5,1583],[54.4,1666],[44.4,1749],[40.5,1833],[39.8,1916],[39.8,1999],[39.8,2083],[39.8,2166],[39.8,2249],[39.8,2333],[39.8,2416],[39.5,2499],[38,2583],[34.9,2666],[32.4,2749],[29.9,2833],[27.2,2916],[25.1,2999],[22.1,3083],[21.1,3166],[21.1,3249],[21.1,3333],[26,3416],[34.1,3499],[38.9,3583],[42.8,3666],[44.4,3749],[45.1,3833],[45.1,3916],[41.1,3999],[20.7,4083],[10.1,4166],[6.9,4249],[3.6,4333],[2.9,4416],[2.8,4499],[2.8,4583],[2.8,4666],[2.8,4749],[3,4832],[3.5,4916],[4,4999],[4.5,5083],[4.8,5166],[4.9,5249],[4.9,5332],[4.9,5416],[4.9,5499],[4.9,5582],[4.9,5666],[4.9,5749],[4.9,5833],[4.9,5916],[4.9,5999],[4.9,6082],[4.9,6166],[4.9,6249],[4.9,6332],[4.9,6416],[4.9,6499],[4.9,6582],[4.9,6666],[4.9,6749],[4.9,6833],[4.9,6916],[4.9,6999],[4.9,7083],[4.9,7166],[4.9,7249],[4.9,7332],[4.9,7416],[4.9,7499],[4.9,7582],[4.6,7666],[4.4,7749],[4.3,7833],[4.1,7916],[3.5,7999],[2.4,8083],[0.9,8166],[0.1,9916]]",927.6014,931.6178,0.3125,1.5061,"[{""rating"":0.3124999999999989,""responseTime"":1.5061000000014246}]",space,3.4679,,931.6178,Definitely yes,100,931.6187,,,[],,0,9,9,9,1,audio/Narrative7Situation9.wav,audio/Narrative8Situation9.wav,audio/Narrative5Situation9.wav,audio/Narrative6Situation9.wav,2,3,3,4,,,,,,,,,,,,,,,,,,,,,,,,,,,,,,,,,,,,,
,,,,,6441c37f5666c66e67eba833,2025-07-07_22h40.02.604,group3.4_multiperson,2023.2.2,Win32,59.88023952,686c2ebf0248f13bef9af11f,686c842f79e5f9be58d4e588,,,,,,,,,,,,,,,,,,,,,,,,,,,,,931.6188,2,audio/Narrative5Situation1.wav,936.6344,,936.6345,949.9343,"[[999,0],[999,83],[999,166],[999,249],[999,333],[999,416],[999,499],[999,583],[999,666],[999,749],[999,833],[999,916],[999,1000],[999,1083],[999,1166],[999,1249],[999,1333],[999,1416],[999,1499],[999,1583],[999,1666],[999,1750],[46.3,1833],[47,1916],[47.5,1999],[47.7,2083],[47.8,2166],[47.8,2249],[48.5,2333],[50.1,2416],[50.9,2499],[51.7,2583],[53.4,2666],[55.4,2749],[56.4,2833],[56.8,2916],[56.8,2999],[56.8,3083],[56.9,3166],[56.9,3249],[56.9,3333],[56.9,3416],[56.9,3499],[56.9,3583],[56.9,3666],[56.9,3749],[56.9,3833],[56.9,3916],[56.9,3999],[56.9,4083],[56.9,4166],[56.9,4249],[56.9,4333],[56.9,4416],[56.9,4499],[56.9,4583],[56.9,4666],[56.5,4750],[55.2,4833],[53,4916],[50.3,4999],[48.3,5083],[47.2,5166],[46.8,5249],[46.8,5333],[46.8,5416],[46.8,5499],[46.8,5583],[46.8,5666],[46.7,5749],[46.7,5833],[46.7,5916],[46.7,5999],[46.7,6083],[46.7,6166],[46.7,6249],[46.7,6333],[46.7,6416],[46.6,6499],[45.4,6583],[43.6,6666],[42.3,6749],[41.5,6833],[41.4,6916],[43.2,6999],[58.2,7083],[70.5,7166],[75.6,7249],[75.9,7333],[75.9,7416],[76.1,7499],[77.3,7583],[78.6,7666],[79.1,7749],[79.1,7833],[79.1,7916],[79.1,7999],[79.3,8083],[80.6,8166],[81.6,8249],[81.9,8333],[82,8416],[82,8499],[82,8583],[82,8666],[82,8749],[82,8833],[82,8916],[82,8999],[82,9083],[82,9166],[82,9249],[82,9333],[82,9416],[82.3,9499],[83,9583],[83.4,9666],[83.6,9749],[83.9,9833],[84,9916],[84.1,9999],[84.1,10083],[84.1,10166],[84.1,10249],[84.1,10333],[84.1,10416],[84.1,10499],[84.2,10583],[84.2,10666],[84.3,10749],[84.4,10833],[84.4,10916],[84.4,10999],[84.4,11082],[84.5,11166],[84.5,11249],[84.6,11333],[84.9,11416],[85.4,11499],[85.9,11583],[86.8,11666],[87.4,11749],[87.9,11833],[88.3,11916],[88.5,11999],[89,12083],[89.5,12166],[89.8,12249],[90.1,12333],[90.2,12416],[90.5,12499],[90.7,12583],[91.1,12666],[91.8,12749],[92.3,12833],[92.8,12916],[93.4,12999],[94.1,13083],[94.5,13166],[94.6,13249]]",949.9344,952.5343,84.0625,1.5252,"[{""rating"":84.0625,""responseTime"":1.5252000000029966}]",space,2.0594,,952.5343,Not at all,0,952.5354,,,[],,0,10,10,10,1,audio/Narrative8Situation1.wav,audio/Narrative7Situation1.wav,audio/Narrative6Situation1.wav,audio/Narrative5Situation1.wav,5,2,2,5,,,,,,,,,,,,,,,,,,,,,,,,,,,,,,,,,,,,,
,,,,,6441c37f5666c66e67eba833,2025-07-07_22h40.02.604,group3.4_multiperson,2023.2.2,Win32,59.88023952,686c2ebf0248f13bef9af11f,686c842f79e5f9be58d4e588,,,,,,,,,,,,,,,,,,,,,,,,,,,,,952.5355,2,audio/Narrative5Situation2.wav,955.5509,,955.5509,985.0171,"[[85,2583],[89.1,2666],[92,2749],[92.2,2833],[89.3,2916],[83,2999],[73.8,3083],[60.6,3166],[49.4,3250],[42.2,3333],[41.6,3416],[41.6,3499],[44.6,3583],[50,3666],[53.8,3750],[57.7,3833],[64.5,3916],[70.4,4000],[72.8,4083],[73.6,4166],[74,4249],[74.1,4333],[74.1,4416],[74.1,4499],[74.1,4583],[74.1,4666],[74.1,4749],[74.1,4833],[74.1,4916],[74.1,4999],[74.1,5083],[74.1,5166],[74.1,5249],[74.1,5333],[74.1,5416],[74.1,5499],[74.1,5583],[74.1,5666],[74.1,5749],[74.1,5833],[74.1,5916],[74.1,5999],[74.1,6083],[74.1,6166],[76.1,6249],[79.3,6333],[81.7,6416],[83.8,6499],[85.5,6583],[86.3,6666],[86.5,6749],[86.5,6833],[85.3,6916],[82.9,6999],[81.8,7083],[80.9,7166],[80.3,7249],[80.1,7333],[80,7416],[80,7499],[80,7583],[79.9,7666],[79.9,7749],[79.9,7833],[79.9,7916],[79.9,7999],[80,8083],[81.9,8166],[84.2,8249],[84.8,8333],[84.9,8416],[84.9,8499],[84.9,8583],[85,8666],[85,8749],[85,8833],[85,8916],[84.2,8999],[82.9,9083],[81.8,9166],[80.7,9249],[79.7,9333],[79.1,9416],[79.1,9499],[79.2,9583],[80.4,9666],[82.6,9749],[84.3,9833],[84.9,9916],[84.9,9999],[85.4,10083],[86.6,10166],[87.6,10249],[88.3,10333],[88.6,10416],[88.6,10499],[88.6,10583],[88.6,10666],[88.3,10749],[87.5,10833],[85.8,10916],[84.3,10999],[83.2,11083],[82.1,11166],[81.9,11249],[81.9,11333],[81.9,11416],[81.9,11499],[81.9,11583],[81.9,11666],[81.9,11749],[82.1,11833],[82.2,11916],[82.5,11999],[82.8,12083],[83.5,12166],[84.4,12249],[84.9,12333],[85.2,12416],[85.4,12499],[85.4,12583],[85.5,12666],[85.5,12749],[85.5,12833],[85.5,12916],[85.5,12999],[85.5,13083],[85.5,13166],[85.5,13249],[85.5,13333],[85.5,13416],[85.5,13499],[85.5,13583],[85.5,13666],[85.6,13749],[85.7,13833],[86.1,13916],[86.9,13999],[87.4,14083],[87.5,14166],[87.6,14249],[87.7,14333],[87.7,14416],[87.7,14499],[87.7,14583],[87.8,14666],[88.5,14749],[89.2,14833],[89.3,14916],[89.3,14999],[88.3,15083],[85.3,15166],[79.1,15249],[66.6,15333],[53.5,15416],[47.5,15499],[44.3,15583],[41,15666],[38.3,15749],[35.9,15833],[33.4,15916],[31.1,15999],[29.8,16083],[28.9,16166],[26.4,16249],[24,16333],[23.6,16416],[24.3,16499],[35.9,16583],[53.1,16666],[62.8,16749],[66.1,16833],[67.7,16916],[68.9,16999],[69.7,17083],[70.6,17166],[71.8,17249],[74.2,17332],[77.5,17416],[79.9,17499],[80.8,17583],[81.4,17666],[81.7,17749],[82,17833],[82.6,17916],[84.9,17999],[86.9,18083],[88.6,18166],[90.4,18249],[91.6,18333],[92.2,18416],[92.3,18499],[92.4,18583],[92.4,18666],[92.4,18749],[92.4,18833],[92.4,18916],[92.4,18999],[92.4,19083],[92.4,19166],[92.4,19249],[92.4,19333],[92.1,19416],[91.4,19499],[90.6,19583],[90.1,19666],[89.7,19749],[89.6,19833],[89.4,19916],[89.3,19999],[89.3,20082],[89.2,20166],[89.1,20249],[89,20333],[89,20416],[89,20499],[89,20583],[89,20666],[89,20749],[89,20833],[89,20916],[89,20999],[89,21082],[89,21166],[89,21249],[89,21333],[89,21416],[89,21499],[88.8,21583],[87.6,21666],[86.1,21749],[84.7,21833],[83.3,21916],[82.7,21999],[82.4,22082],[82,22166],[81.4,22249],[80.9,22332],[80.6,22416],[80.5,22499],[80.5,22582],[80.5,22666],[80.5,22749],[80.5,22832],[80.8,22916],[81.4,22999],[82.6,23083],[84.1,23166],[90.8,23999],[88.3,24083],[86.4,24166],[85.1,24249],[84.2,24333],[83.6,24416],[83.5,24499],[83.9,24583],[86.8,24666],[89.5,24749],[89.9,24832],[89.9,24916],[89,24999],[86.4,25082],[84.2,25166],[82.3,25249],[79.8,25333],[75.7,25416],[71.6,25499],[71.1,25583],[78.6,25666],[90.7,25749],[94,25833],[95.1,25916],[95.1,25999],[95.1,26082],[95.1,26166],[95.1,26249],[95.1,26332],[95.1,26416],[95.1,26499],[95.1,26582],[95.1,26666],[95.1,26749],[95.1,26832],[95.1,26916],[95.1,26999],[95.1,27082],[94.8,27166],[94.4,27249],[94.1,27333],[93.6,27416],[93.3,27499],[93.1,27582],[93,27666],[92.7,27749],[92.6,27832],[92.4,27916],[92.3,27999],[92.2,28082],[92.2,28166],[92.1,28249],[92,28332],[92,28416],[92,28499],[92,28582],[91.9,28666],[91.6,28749],[90.8,28833],[90.4,28916],[90.1,28999],[89.4,29082],[88.5,29166],[88.3,29249],[88.3,29332],[88.3,29416]]",985.0173,987.1672,68.75,1.1545,"[{""rating"":68.75,""responseTime"":1.1545000000000982}]",space,1.6002,,987.1672,Not at all,0,987.1679,,,[],,0,11,11,11,1,audio/Narrative8Situation2.wav,audio/Narrative7Situation2.wav,audio/Narrative6Situation2.wav,audio/Narrative5Situation2.wav,3,3,3,3,,,,,,,,,,,,,,,,,,,,,,,,,,,,,,,,,,,,,
,,,,,6441c37f5666c66e67eba833,2025-07-07_22h40.02.604,group3.4_multiperson,2023.2.2,Win32,59.88023952,686c2ebf0248f13bef9af11f,686c842f79e5f9be58d4e588,,,,,,,,,,,,,,,,,,,,,,,,,,,,,987.1681,2,audio/Narrative5Situation3.wav,990.1837,,990.1837,1004.1003,"[[60.4,83],[59.7,166],[59.7,250],[59.7,333],[59.5,416],[58.1,500],[56.4,583],[54.6,666],[52.6,749],[50.7,833],[48.9,916],[45,1000],[37.4,1083],[32.4,1166],[27.6,1250],[22.2,1333],[18.4,1416],[15.2,1500],[14.1,1583],[14,1666],[14,1750],[14,1833],[14.4,1916],[15.2,2000],[17.2,2083],[19.1,2166],[19.5,2250],[19.1,2333],[16.9,2416],[15.2,2500],[12.9,2583],[11.7,2666],[11.4,2750],[10.5,2833],[10.1,2916],[10.1,3000],[10.1,3083],[10.1,3166],[10.1,3249],[10,3333],[10,3416],[10,3499],[10,3583],[10,3666],[10,3749],[10.6,3833],[13.4,3916],[17.8,3999],[20.7,4083],[22.6,4166],[24.6,4249],[26.5,4333],[27.1,4416],[27.1,4499],[27.1,4583],[27.1,4666],[27.1,4749],[27.2,4833],[27.3,4916],[27.9,4999],[29.5,5083],[31.1,5166],[33,5249],[36,5333],[38.4,5416],[40.6,5499],[42.5,5583],[44,5666],[45.1,5749],[46.1,5833],[47.7,5916],[49,5999],[50,6083],[51.6,6166],[52.8,6249],[53.9,6333],[54.6,6416],[55.2,6499],[55.8,6583],[56.5,6666],[57.1,6749],[57.4,6833],[57.7,6916],[57.7,6999],[57.9,7083],[58,7166],[58,7249],[58,7333],[58,7416],[58,7499],[58,7583],[58,7666],[58.1,7749],[58.2,7833],[58.3,7916],[58.5,7999],[65,8833],[67.5,8916],[69.2,8999],[70.4,9083],[71,9166],[71,9249],[71.1,9333],[71.1,9416],[71.3,9499],[71.9,9583],[72.6,9666],[73,9749],[73.6,9833],[74.1,9916],[74.4,9999],[74.6,10083],[74.8,10166],[75.1,10249],[75.9,10333],[77.6,10416],[80,10499],[81.8,10583],[83.1,10666],[83.8,10749],[84,10833],[84.1,10916],[84.2,10999],[84.5,11083],[84.7,11166],[85.2,11249],[85.9,11333],[86.5,11416],[87.3,11499],[87.9,11583],[88.8,11666],[89.4,11749],[89.5,11833],[89.5,11916],[89.2,11999],[88.9,12083],[88.4,12166],[87.7,12249],[86.8,12333],[85.6,12416],[84.7,12499],[83.9,12583],[83,12666],[82.4,12749],[81.9,12833],[81.4,12916],[80.9,12999],[80.6,13083],[80.4,13166],[80.4,13249],[80.4,13333],[80.4,13416],[80.4,13499],[80.4,13583],[80.2,13666],[79.9,13749],[79.4,13833],[78.8,13916]]",1004.1004,1007.8169,77.1875,1.992,"[{""rating"":77.1875,""responseTime"":1.9919999999999618}]",space,3.1788,,1007.8169,Partially,50,1007.8181,,,[],,0,12,12,12,1,audio/Narrative8Situation3.wav,audio/Narrative7Situation3.wav,audio/Narrative6Situation3.wav,audio/Narrative5Situation3.wav,4,8,5,3,,,,,,,,,,,,,,,,,,,,,,,,,,,,,,,,,,,,,
,,,,,6441c37f5666c66e67eba833,2025-07-07_22h40.02.604,group3.4_multiperson,2023.2.2,Win32,59.88023952,686c2ebf0248f13bef9af11f,686c842f79e5f9be58d4e588,,,,,,,,,,,,,,,,,,,,,,,,,,,,,1007.8182,2,audio/Narrative5Situation4.wav,1008.8335,,1008.8335,1029.2334,"[[75,1583],[70.5,1666],[65.4,1750],[60.7,1833],[58.9,1916],[58.4,1999],[58.4,2083],[58.4,2166],[58.4,2249],[58.4,2333],[58.4,2416],[58.4,2499],[58.4,2583],[58.4,2666],[58.2,2750],[35.4,3833],[30.2,3916],[24.8,3999],[20.3,4083],[19.1,4166],[19.1,4249],[19.6,4333],[22.4,4416],[23.8,4500],[24.7,4583],[35,4666],[51.5,4750],[91.4,5000],[100,5083],[100,5166],[100,5250],[100,5333],[100,5416],[100,5499],[100,5583],[90.5,15416],[82.6,15499],[77.4,15583],[74.8,15666],[74.6,15749],[74.6,15833],[74.7,15916],[76.5,15999],[78.5,16083],[80,16166],[80.6,16249],[80.7,16333],[80.7,16416],[79,16499],[74.4,16583],[72.2,16666],[70.9,16749],[70.9,16833],[70.9,16916],[71.3,16999],[74,17083],[79.3,17166],[81.5,17249],[81.6,17333],[81.3,17416],[77.6,17499],[74.2,17583],[72,17666],[70.6,17749],[69.8,17833],[69.2,17916],[68.4,17999],[67.6,18083],[66.6,18166],[65.9,18249],[65.6,18333],[65.6,18416],[65.6,18499],[65.6,18583],[65.6,18666],[65.6,18749],[65.6,18833],[65.5,18916],[65.5,18999],[65.5,19083],[67.4,19166],[78,19249],[88.2,19333],[93.1,19416],[94.8,19499],[94.9,19583],[94.8,19666],[91,19749],[85.6,19833],[82.6,19916],[80.7,19999],[79.6,20083],[78.9,20166],[78.5,20249],[78.5,20333]]",1029.2335,1036.2664,88.64583333,5.7789,"[{""rating"":88.64583333333333,""responseTime"":5.77889999999843}]",space,6.4883,,1036.2665,Partially,50,1036.2673,,,[],,0,13,13,13,1,audio/Narrative8Situation4.wav,audio/Narrative7Situation4.wav,audio/Narrative6Situation4.wav,audio/Narrative5Situation4.wav,3,3,2,1,,,,,,,,,,,,,,,,,,,,,,,,,,,,,,,,,,,,,
,,,,,6441c37f5666c66e67eba833,2025-07-07_22h40.02.604,group3.4_multiperson,2023.2.2,Win32,59.88023952,686c2ebf0248f13bef9af11f,686c842f79e5f9be58d4e588,,,,,,,,,,,,,,,,,,,,,,,,,,,,,1036.2674,2,audio/Narrative5Situation5.wav,1041.2832,,1041.2832,1056.7162,"[[41,1999],[40.6,2083],[40.6,2166],[40.9,2250],[40.9,2333],[39.7,2416],[34.1,2500],[27.2,2583],[20.7,2666],[15.8,2749],[13.4,2833],[12.7,2916],[12.4,2999],[12.4,3083],[12.4,3166],[12.4,3249],[12.4,3333],[13.3,3416],[15.9,3499],[18.2,3583],[19.8,3666],[21,3749],[22.3,3833],[23.6,3916],[24.9,3999],[26.1,4083],[27.3,4166],[28.1,4249],[28.8,4333],[29.3,4416],[29.9,4499],[30.1,4583],[30.4,4666],[30.7,4749],[30.9,4833],[31.5,4916],[33,4999],[38,5083],[45.6,5166],[51.5,5249],[54.3,5333],[55.2,5416],[55.4,5499],[55.4,5583],[55.4,5666],[55.4,5749],[55.2,5833],[54.7,5916],[53.5,5999],[50.7,6083],[48.1,6166],[45.7,6249],[43.1,6333],[40.1,6416],[37,6499],[35.3,6583],[34.5,6666],[34.1,6749],[33.9,6833],[33.8,6916],[33.6,6999],[33.6,7083],[33.6,7166],[33.5,7249],[33.5,7333],[33.5,7416],[33.5,7499],[33.5,7582],[33.5,7666],[33.5,7749],[33.5,7833],[33.8,7916],[34.5,7999],[39.4,8083],[46.1,8166],[48.8,8249],[49.6,8333],[50.1,8416],[51.4,8499],[53.3,8583],[55.1,8666],[56.7,8749],[58.1,8833],[59,8916],[59.4,8999],[59.4,9083],[59.5,9166],[59.6,9249],[59.6,9333],[59.8,9416],[59.9,9499],[60.1,9583],[60.2,9666],[60.2,9749],[60.3,9833],[60.5,9916],[60.6,9999],[60.7,10082],[61,10166],[61.5,10249],[62,10333],[62.7,10416],[63.2,10499],[63.6,10582],[64,10666],[64.2,10749],[64.3,10832],[64.5,10916],[64.6,10999],[64.6,11082],[64.6,11166],[64.6,11249],[64.6,11332],[64.6,11416],[64.4,11499],[64.3,11582],[64.3,11666],[64.7,11749],[65.9,11833],[69,11916],[71.1,11999],[72.4,12083],[72.8,12166],[72.9,12249],[72.9,12332],[73,12416],[73,12499],[72.7,12583],[72.1,12666],[72,12749],[72,12832],[72.4,12916],[78,12999],[82.2,13666],[78.8,13749],[75.8,13833],[73.2,13916],[70.8,13999],[69.8,14082],[69.4,14166],[69.1,14249],[67.9,14332],[67,14416],[66.7,14499],[66.7,14582],[66.7,14666],[66.7,14749],[66.7,14832],[66.7,14916],[66.5,14999],[66,15082],[65.9,15166],[65.8,15249],[65.7,15332],[65.7,15416]]",1056.7163,1060.3329,55.41666667,1.1232,"[{""rating"":55.41666666666667,""responseTime"":1.1232000000031803}]",space,3.0701,,1060.3329,Partially,50,1060.3337,,,[],,0,14,14,14,1,audio/Narrative8Situation5.wav,audio/Narrative7Situation5.wav,audio/Narrative6Situation5.wav,audio/Narrative5Situation5.wav,2,5,2,5,,,,,,,,,,,,,,,,,,,,,,,,,,,,,,,,,,,,,
,,,,,6441c37f5666c66e67eba833,2025-07-07_22h40.02.604,group3.4_multiperson,2023.2.2,Win32,59.88023952,686c2ebf0248f13bef9af11f,686c842f79e5f9be58d4e588,,,,,,,,,,,,,,,,,,,,,,,,,,,,,1060.3338,2,audio/Narrative5Situation6.wav,1063.3495,,1063.3495,1069.0328,"[[55.6,83],[55.6,166],[55.6,249],[55.6,333],[55.6,416],[55.6,499],[55.6,583],[55.6,666],[55.6,749],[55.6,833],[55.6,916],[55.6,999],[55.6,1083],[55.6,1166],[55.6,1249],[55.4,1333],[54.3,1416],[52.3,1500],[49.2,1583],[44.8,1666],[40.7,1750],[36.3,1833],[31.5,1916],[27.3,2000],[23.6,2083],[21.6,2166],[20.4,2250],[19.4,2333],[17.9,2416],[16.1,2500],[13.1,2583],[11.7,2666],[10.8,2749],[10.6,2833],[12.5,2916],[17.9,3000],[22.8,3083],[26.3,3166],[31,3249],[35.1,3333],[37.8,3416],[40.9,3500],[45.3,3583],[48.3,3666],[50.4,3750],[51.8,3833],[54.2,3916],[59.1,4000],[61.7,4083],[62.4,4166],[62.5,4249],[62.5,4333],[62.5,4416],[62.5,4499],[62.5,4583],[62.5,4666],[62.6,4749],[63,4833],[64.1,4916],[65.4,4999],[66.9,5083],[68.3,5166],[69.8,5249],[70.9,5333],[71.5,5416],[72.1,5500],[72.7,5583],[73.1,5666]]",1069.0328,1076.3994,85.72916667,6.2547,"[{""rating"":85.72916666666667,""responseTime"":6.254700000002913}]",space,6.832,,1076.3994,Partially,50,1076.4003,,,[],,0,15,15,15,1,audio/Narrative8Situation6.wav,audio/Narrative7Situation6.wav,audio/Narrative6Situation6.wav,audio/Narrative5Situation6.wav,2,3,2,3,,,,,,,,,,,,,,,,,,,,,,,,,,,,,,,,,,,,,
,,,,,6441c37f5666c66e67eba833,2025-07-07_22h40.02.604,group3.4_multiperson,2023.2.2,Win32,59.88023952,686c2ebf0248f13bef9af11f,686c842f79e5f9be58d4e588,,,,,,,,,,,,,,,,,,,,,,,,,,,,,1076.4004,2,audio/Narrative5Situation7.wav,1080.4159,,1080.416,1101.4656,"[[85.5,83],[85.5,166],[85.5,249],[85.4,333],[85.4,416],[85.4,499],[85.4,583],[85.4,666],[85.4,749],[85.4,833],[85.4,916],[85.4,999],[85.4,1083],[85.4,1166],[85.4,1249],[85.4,1333],[85.4,1416],[85.4,1499],[85.4,1583],[85.4,1666],[85.4,1749],[85.4,1833],[85.4,1916],[85.4,1999],[85.4,2083],[85.4,2166],[85.4,2249],[85.4,2333],[85.4,2416],[85.4,2499],[85.4,2583],[85.4,2666],[85.4,2749],[85.4,2833],[85.4,2916],[85.4,2999],[85.4,3083],[85.4,3166],[85.4,3249],[85.4,3333],[85.4,3416],[85.4,3499],[85.4,3583],[85.4,3666],[85.4,3749],[85.4,3833],[85.4,3916],[85.4,3999],[85.4,4083],[85.4,4166],[85.4,4249],[85.4,4333],[85.2,4416],[82.6,4499],[80.4,4583],[77.1,4666],[72.4,4749],[69.2,4833],[68,4916],[68,4999],[68,5083],[67,5166],[62.1,5249],[57.6,5333],[27.4,6749],[34.3,6833],[40.1,6916],[42.4,6999],[46.7,7083],[57.4,7166],[62.6,7249],[63.5,7333],[63.5,7416],[63.5,7499],[63.5,7583],[63.5,7666],[63.5,7749],[63.5,7833],[63.8,7916],[63.8,7999],[63.8,8083],[63.8,8166],[63.8,8249],[63.9,8333],[63.9,8416],[63.9,8499],[63.9,8583],[63.9,8666],[63.9,8749],[63.9,8833],[63.9,8916],[64,8999],[64,9083],[64,9166],[64,9249],[64,9333],[64,9416],[64,9499],[64,9582],[64,9666],[64,9749],[64,9833],[64,9916],[64,9999],[64,10083],[64,10166],[64,10249],[64,10333],[64,10416],[64,10499],[64,10583],[64,10666],[64,10749],[64,10833],[64,10916],[64,10999],[64,11083],[64,11166],[64,11249],[64,11333],[64,11416],[64,11499],[64,11583],[64,11666],[64,11749],[64,11832],[64,11916],[64,11999],[64,12083],[64,12166],[64,12249],[56.8,12333],[49.8,12416],[48.2,12499],[45.8,12583],[38.1,12666],[33.8,12749],[32.3,12833],[29.1,12916],[28.2,12999],[28.2,13083],[33.9,13166],[47.2,13249],[59.6,20583],[48.8,20666],[48.5,20749],[55,20833],[60.1,20916],[61.4,20999]]",1101.4656,1122.6821,62.5,1.4747,"[{""rating"":62.5,""responseTime"":1.4746999999954369}]",space,20.6891,,1122.6821,Not at all,0,1122.6834,,,[],,0,16,16,16,1,audio/Narrative8Situation7.wav,audio/Narrative7Situation7.wav,audio/Narrative6Situation7.wav,audio/Narrative5Situation7.wav,3,5,5,4,,,,,,,,,,,,,,,,,,,,,,,,,,,,,,,,,,,,,
