consent.started,consent.stopped,consentResponse.keys,consentResponse.rt,consentResponse.duration,participantID,date,expName,psychopyVersion,OS,frameRate,STUDY_ID,SESSION_ID,opening1.started,opening1.stopped,keyEndingOpening1.keys,keyEndingOpening1.rt,keyEndingOpening1.duration,volumeAdjust.started,volumeAdjust.stopped,endingAdjust.keys,endingAdjust.rt,endingAdjust.duration,opening2.started,opening2.stopped,keyEndingOpening.keys,keyEndingOpening.rt,keyEndingOpening.duration,mouse.x,mouse.y,mouse.leftButton,mouse.midButton,mouse.rightButton,mouse.time,instructionLoop.thisRepN,instructionLoop.thisTrialN,instructionLoop.thisN,instructionLoop.thisIndex,instructionLoop.ran,readyForAudio.started,readyForAudio.stopped,fixation.started,run,audio_played,fixation.stopped,endPractice.keys,audioPre.started,audioPre.stopped,continuousResponses_audio,intRating.started,intRating.stopped,intQuestionSlider.response,intQuestionSlider.rt,intQuestionSlider.history,confirmResponse.keys,confirmResponse.rt,confirmResponse.duration,catchQuestion.started,catch_label,catch_value,catchQuestion.stopped,catchQuestionSlider.response,catchQuestionSlider.rt,catchQuestionSlider.history,confirmResponse_2.keys,audioRunLoop.thisRepN,audioRunLoop.thisTrialN,audioRunLoop.thisN,audioRunLoop.thisIndex,audioRunLoop.ran,conditions1_1,conditions2_1,conditions1_2,conditions2_2,dur1_1,dur2_1,dur1_2,dur2_2,endPractice.rt,endPractice.duration,confirmResponse_2.rt,confirmResponse_2.duration,runIntervalBreak.started,runIntervalBreak.stopped,endingBreakKey.keys,endingBreakKey.rt,endingBreakKey.duration,connection.started,connection.stopped,connectionEnding.keys,connectionEnding.rt,connectionEnding.duration,readyForText.started,readyForText.stopped,textPre.started,run_dup,textPre.stopped,continuousResponses_text,textRunLoop.thisRepN,textRunLoop.thisTrialN,textRunLoop.thisN,textRunLoop.thisIndex,textRunLoop.ran,text1_1,text1_2,text2_1,text2_2,runBreakText.started,runBreakText.stopped,endingBreakKey_2.keys,endingBreakKey_2.rt,endingBreakKey_2.duration,ending.started,ending.stopped,endingEnding.keys,endingEnding.rt,endingEnding.duration
0.0003,3.9389,y,3.6193,,651c4484ba17050f6b716614,2025-07-07_22h28.26.231,group3.4_multiperson,2023.2.2,Linux x86_64,59.88023952,686c2ebf0248f13bef9af11f,686c8e16d4b4414d5a6431f2,,,,,,,,,,,,,,,,,,,,,,,,,,,,,,,,,,,,,,,,,,,,,,,,,,,,,,,,,,,,,,,,,,,,,,,,,,,,,,,,,,,,,,,,,,,,,,,,,,,,,,,,
,,,,,651c4484ba17050f6b716614,2025-07-07_22h28.26.231,group3.4_multiperson,2023.2.2,Linux x86_64,59.88023952,686c2ebf0248f13bef9af11f,686c8e16d4b4414d5a6431f2,3.9395,7.8832,space,3.9017,,,,,,,,,,,,,,,,,,,,,,,,,,,,,,,,,,,,,,,,,,,,,,,,,,,,,,,,,,,,,,,,,,,,,,,,,,,,,,,,,,,,,,,,,,,,,,,,,,,,
,,,,,651c4484ba17050f6b716614,2025-07-07_22h28.26.231,group3.4_multiperson,2023.2.2,Linux x86_64,59.88023952,686c2ebf0248f13bef9af11f,686c8e16d4b4414d5a6431f2,,,,,,7.8835,29.3716,space,21.1779,,,,,,,,,,,,,,,,,,,,,,,,,,,,,,,,,,,,,,,,,,,,,,,,,,,,,,,,,,,,,,,,,,,,,,,,,,,,,,,,,,,,,,,,,,,,,,,
,,,,,651c4484ba17050f6b716614,2025-07-07_22h28.26.231,group3.4_multiperson,2023.2.2,Linux x86_64,59.88023952,686c2ebf0248f13bef9af11f,686c8e16d4b4414d5a6431f2,,,,,,,,,,,29.3798,35.4376,space,6.0408,,[],[],[],[],[],[],0,0,0,0,1,,,,,,,,,,,,,,,,,,,,,,,,,,,,,,,,,,,,,,,,,,,,,,,,,,,,,,,,,,,,,,,,,,,,,,,,,,,,,,
,,,,,651c4484ba17050f6b716614,2025-07-07_22h28.26.231,group3.4_multiperson,2023.2.2,Linux x86_64,59.88023952,686c2ebf0248f13bef9af11f,686c8e16d4b4414d5a6431f2,,,,,,,,,,,35.4387,49.9376,space,14.4236,,[],[],[],[],[],[],1,0,1,0,1,,,,,,,,,,,,,,,,,,,,,,,,,,,,,,,,,,,,,,,,,,,,,,,,,,,,,,,,,,,,,,,,,,,,,,,,,,,,,,
,,,,,651c4484ba17050f6b716614,2025-07-07_22h28.26.231,group3.4_multiperson,2023.2.2,Linux x86_64,59.88023952,686c2ebf0248f13bef9af11f,686c8e16d4b4414d5a6431f2,,,,,,,,,,,49.9384,59.4034,space,9.4209,,[],[],[],[],[],[],2,0,2,0,1,,,,,,,,,,,,,,,,,,,,,,,,,,,,,,,,,,,,,,,,,,,,,,,,,,,,,,,,,,,,,,,,,,,,,,,,,,,,,,
,,,,,651c4484ba17050f6b716614,2025-07-07_22h28.26.231,group3.4_multiperson,2023.2.2,Linux x86_64,59.88023952,686c2ebf0248f13bef9af11f,686c8e16d4b4414d5a6431f2,,,,,,,,,,,59.404,72.2205,space,12.7861,,[],[],[],[],[],[],3,0,3,0,1,,,,,,,,,,,,,,,,,,,,,,,,,,,,,,,,,,,,,,,,,,,,,,,,,,,,,,,,,,,,,,,,,,,,,,,,,,,,,,
,,,,,651c4484ba17050f6b716614,2025-07-07_22h28.26.231,group3.4_multiperson,2023.2.2,Linux x86_64,59.88023952,686c2ebf0248f13bef9af11f,686c8e16d4b4414d5a6431f2,,,,,,,,,,,72.2211,114.5535,space,42.3112,,[],[],[],[],[],[],4,0,4,0,1,,,,,,,,,,,,,,,,,,,,,,,,,,,,,,,,,,,,,,,,,,,,,,,,,,,,,,,,,,,,,,,,,,,,,,,,,,,,,,
,,,,,651c4484ba17050f6b716614,2025-07-07_22h28.26.231,group3.4_multiperson,2023.2.2,Linux x86_64,59.88023952,686c2ebf0248f13bef9af11f,686c8e16d4b4414d5a6431f2,,,,,,,,,,,114.5541,120.3035,space,5.7294,,[],[],[],[],[],[],5,0,5,0,1,,,,,,,,,,,,,,,,,,,,,,,,,,,,,,,,,,,,,,,,,,,,,,,,,,,,,,,,,,,,,,,,,,,,,,,,,,,,,,
,,,,,651c4484ba17050f6b716614,2025-07-07_22h28.26.231,group3.4_multiperson,2023.2.2,Linux x86_64,59.88023952,686c2ebf0248f13bef9af11f,686c8e16d4b4414d5a6431f2,,,,,,,,,,,,,,,,,,,,,,,,,,,120.307,122.8873,122.925,1,audio/Narrative13Situation2.wav,124.9375,,124.9379,154.6872,"[[999,2],[999,99],[999,182],[999,265],[999,348],[999,432],[999,515],[999,598],[999,682],[999,765],[999,849],[999,932],[999,1015],[999,1099],[999,1182],[999,1265],[999,1349],[999,1432],[999,1515],[999,1598],[999,1682],[999,1765],[999,1849],[999,1932],[999,2015],[999,2098],[999,2182],[999,2265],[999,2348],[999,2432],[999,2515],[999,2598],[999,2682],[999,2765],[999,2848],[999,2932],[999,3015],[999,3099],[49.4,3182],[51.3,3265],[69.1,3349],[79.3,3432],[79.8,3515],[79.8,3598],[79.8,3682],[79.8,3765],[79.8,3848],[79.8,3932],[79.8,4015],[79.8,4099],[79.8,4182],[79.8,4265],[79.8,4348],[79.8,4432],[79.8,4515],[79.8,4599],[79.8,4682],[79.8,4765],[79.8,4848],[79.8,4932],[79.8,5015],[79.8,5098],[79.8,5182],[79.8,5265],[79.8,5348],[79.8,5432],[79.8,5515],[79.8,5598],[79.8,5682],[79.8,5765],[79.8,5848],[79.8,5932],[79.8,6015],[79.9,6099],[80.4,6182],[81.9,6266],[88.6,6349],[90.7,6432],[90.9,6515],[90.9,6598],[90.9,6682],[90.9,6765],[90.9,6848],[90.9,6932],[90.9,7015],[90.9,7098],[90.9,7182],[90.9,7265],[90.9,7348],[90.9,7432],[90.9,7516],[90.9,7598],[90.9,7682],[90.9,7765],[90.9,7848],[90.9,7932],[90.9,8015],[90.9,8098],[90.8,8182],[89.8,8265],[89.5,8349],[89.4,8432],[89.2,8515],[89.1,8599],[88.7,8682],[88.1,8766],[87.9,8849],[87.7,8933],[87.5,9015],[87.4,9098],[87.4,9182],[87.4,9265],[87.4,9348],[87.6,9432],[87.9,9515],[88.1,9599],[88.1,9682],[88.6,9765],[92.4,9849],[93.6,9932],[93.9,10015],[94,10099],[94.1,10182],[94.1,10265],[94.1,10348],[94.1,10432],[94.1,10515],[94.1,10598],[94.1,10682],[94.3,10765],[94.4,10848],[94.9,10932],[95.7,11015],[95.8,11098],[95.8,11182],[95.8,11265],[95.8,11348],[95.8,11432],[95.8,11515],[95.8,11598],[95.8,11682],[95.8,11765],[95.8,11849],[95.8,11932],[95.8,12015],[95.8,12098],[95.8,12182],[95.8,12265],[95.8,12348],[95.8,12432],[95.8,12515],[95.8,12598],[95.8,12682],[95.8,12765],[95.8,12848],[95.8,12932],[95.8,13015],[95.8,13098],[95.8,13182],[95.8,13265],[95.8,13348],[95.8,13432],[95.8,13515],[95.8,13598],[95.8,13682],[95.8,13765],[95.8,13848],[95.8,13932],[95.8,14015],[95.8,14098],[95.8,14182],[95.8,14265],[95.8,14348],[95.8,14432],[95.8,14515],[95.8,14598],[95.8,14682],[95.8,14765],[95.8,14848],[95.8,14932],[95.8,15015],[95.8,15098],[95.8,15182],[95.8,15265],[95.8,15348],[95.8,15432],[95.8,15515],[95.8,15598],[95.8,15682],[95.8,15765],[95.8,15849],[95.8,15932],[95.8,16015],[95.8,16098],[95.8,16182],[95.8,16265],[95.8,16349],[95.8,16432],[95.8,16515],[95.8,16598],[95.8,16682],[95.8,16765],[95.8,16848],[95.8,16932],[95.8,17015],[95.8,17098],[95.8,17182],[95.8,17265],[95.8,17348],[95.8,17432],[95.8,17515],[95.8,17599],[95.8,17682],[95.8,17765],[95.8,17848],[95.8,17932],[95.8,18015],[95.8,18098],[95.8,18182],[95.8,18265],[95.8,18348],[95.8,18432],[95.8,18515],[95.8,18598],[95.8,18682],[95.8,18765],[95.8,18849],[95.8,18932],[95.8,19015],[95.8,19098],[95.8,19182],[95.8,19265],[95.8,19348],[95.8,19432],[95.8,19515],[95.8,19599],[95.8,19682],[95.8,19765],[95.8,19848],[95.8,19931],[95.8,20015],[95.8,20098],[95.8,20182],[95.8,20265],[95.8,20348],[95.8,20432],[95.8,20515],[95.8,20598],[95.8,20682],[95.6,20765],[95.5,20849],[95.4,20932],[95.3,21015],[95.1,21098],[94.9,21183],[94.7,21265],[94.5,21349],[94.4,21432],[91.8,21515],[91.3,21599],[91.2,21682],[91.1,21766],[91,21849],[78.9,21932],[65.6,22015],[64.7,22098],[64.1,22183],[63.9,22265],[63.7,22349],[63.2,22432],[61.8,22515],[61.6,22599],[61.6,22682],[61.6,22765],[66.5,22849],[74.2,22932],[74.6,23015],[74.6,23098],[74.6,23182],[74.6,23265],[74.6,23348],[74.6,23432],[74.6,23515],[74.6,23598],[74.6,23682],[74.6,23765],[74.6,23849],[74.6,23932],[74.6,24015],[74.6,24098],[74.6,24182],[74.6,24265],[74.6,24348],[74.6,24432],[74.6,24515],[74.6,24598],[74.6,24682],[74.6,24765],[74.6,24849],[74.6,24932],[74.6,25015],[74.6,25098],[74.6,25182],[74.6,25265],[74.6,25348],[74.6,25432],[74.6,25515],[74.6,25598],[74.6,25682],[74.6,25765],[74.6,25848],[74.6,25932],[74.6,26015],[74.6,26098],[74.6,26182],[74.6,26265],[74.6,26349],[74.6,26432],[74.6,26515],[74.6,26598],[74.6,26682],[74.6,26765],[74.6,26848],[74.6,26932],[74.6,27015],[74.6,27098],[74.6,27182],[74.6,27265],[74.6,27349],[74.6,27432],[74.6,27515],[74.6,27598],[74.6,27682],[74.6,27765],[74.6,27849],[74.6,27932],[74.6,28016],[74.6,28098],[74.6,28182],[74.6,28265],[74.6,28348],[74.6,28432],[74.8,28515],[74.9,28599],[75.1,28682],[75.2,28765],[75.2,28849],[75.5,28932],[75.7,29015],[75.7,29098],[75.7,29182],[75.7,29265],[75.7,29348],[75.7,29432],[75.7,29515],[75.7,29598],[75.7,29682]]",154.6876,161.4874,86.43582662,4.9953,"[{""rating"":86.43582661946614,""responseTime"":4.7065000000000055},{""rating"":86.43582661946614,""responseTime"":4.995299999997002}]",space,6.2508,,161.488,Not at all,0,161.4935,,,[],,0,0,0,0,1,audio/Narrative13Situation2.wav,audio/Narrative13Situation2.wav,audio/Narrative13Situation2.wav,audio/Narrative13Situation2.wav,2,2,2,2,,,,,,,,,,,,,,,,,,,,,,,,,,,,,,,,,,,,,,,
,,,,,651c4484ba17050f6b716614,2025-07-07_22h28.26.231,group3.4_multiperson,2023.2.2,Linux x86_64,59.88023952,686c2ebf0248f13bef9af11f,686c8e16d4b4414d5a6431f2,,,,,,,,,,,,,,,,,,,,,,,,,,,,,161.4939,1,audio/Narrative7Situation1.wav,163.7205,space,163.7205,219.6205,"[[85.5,2679],[84.1,2760],[83.4,2838],[81.6,2928],[75.9,3009],[64.7,3093],[59.9,3177],[56.9,3260],[55.3,3344],[54.4,3428],[54.4,3505],[54.4,3592],[54.4,3672],[54.4,3759],[54.4,3838],[54.4,3922],[54.4,4010],[54.4,4095],[54.4,4171],[54.4,4259],[54.4,4345],[54.4,4425],[54.4,4512],[54.4,4591],[54.4,4677],[54.4,4758],[54.4,4838],[54.4,4927],[54.4,5009],[54.4,5096],[54.4,5176],[54.4,5258],[54.4,5341],[54.4,5426],[54.4,5505],[54.4,5590],[54.4,5675],[54.4,5763],[54.4,5844],[54.4,5925],[54.4,6005],[54.4,6091],[54.4,6176],[54.4,6259],[54.4,6344],[54.4,6426],[54.4,6505],[54.4,6588],[54.4,6675],[54.5,6762],[54.5,6833],[54.5,6930],[54.5,7009],[54.5,7092],[54.5,7174],[54.5,7258],[54.5,7332],[58.5,7430],[66.8,7513],[67,7596],[67,7666],[67,7757],[67,7842],[67,7928],[67,8008],[67,8093],[67,8171],[67,8264],[67,8346],[67,8430],[67,8513],[67,8597],[67,8680],[67,8773],[67,8849],[67,8932],[67,9019],[67,9099],[67,9182],[67,9266],[67,9349],[67,9432],[67,9528],[67,9599],[67,9690],[67,9780],[67,9863],[67,9933],[67,10016],[67,10100],[67,10182],[67,10266],[67,10349],[67,10433],[67,10516],[67,10599],[67,10690],[67,10766],[67,10852],[67,10944],[67,11023],[67,11099],[67,11191],[67,11274],[67,11349],[67,11433],[67,11529],[67,11614],[67,11687],[67,11771],[67,11856],[67,11933],[67,12023],[67,12105],[67,12183],[67,12266],[67,12349],[67,12432],[67,12516],[67,12599],[67,12682],[67,12766],[67,12858],[67,12933],[67,13016],[67,13099],[67,13182],[67,13266],[67,13349],[64.3,13447],[63.3,13520],[59.7,13609],[56.1,13697],[55.4,13779],[55.2,13862],[55,13944],[54.9,14016],[54.9,14099],[54.9,14182],[54.9,14266],[54.9,14349],[54.9,14433],[54.9,14516],[54.9,14599],[54.9,14684],[54.9,14766],[54.9,14849],[54.9,14933],[54.9,15016],[54.9,15099],[54.9,15182],[54.9,15266],[54.9,15349],[54.9,15441],[54.9,15516],[54.9,15599],[54.9,15682],[54.9,15766],[54.9,15849],[54.9,15932],[54.9,16029],[54.9,16104],[54.9,16189],[54.9,16266],[54.9,16349],[54.9,16445],[54.9,16516],[54.9,16599],[54.9,16682],[54.9,16780],[54.9,16849],[54.9,16933],[54.9,17016],[54.9,17103],[54.9,17182],[54.9,17266],[54.9,17349],[54.9,17437],[54.9,17516],[54.9,17613],[54.9,17683],[54.9,17766],[54.9,17849],[54.9,17932],[54.9,18016],[54.9,18099],[54.9,18197],[54.9,18266],[54.9,18349],[54.9,18443],[54.9,18516],[54.9,18599],[54.9,18682],[54.9,18772],[54.9,18849],[54.9,18933],[54.9,19016],[54.9,19099],[54.9,19183],[54.9,19266],[54.9,19357],[54.9,19447],[54.9,19523],[54.9,19602],[54.9,19682],[54.9,19766],[54.9,19849],[54.9,19932],[54.9,20016],[54.9,20099],[54.9,20182],[54.9,20266],[54.9,20349],[54.9,20436],[54.9,20516],[54.9,20599],[54.9,20682],[54.9,20775],[54.9,20849],[54.9,20933],[54.9,21025],[54.9,21099],[54.9,21183],[54.9,21266],[54.9,21349],[54.9,21432],[54.9,21516],[54.9,21599],[54.9,21682],[54.9,21766],[54.9,21849],[54.9,21932],[54.9,22016],[54.9,22099],[54.9,22182],[54.9,22266],[54.9,22363],[54.9,22444],[54.9,22516],[54.9,22599],[54.9,22682],[54.9,22766],[54.9,22849],[54.9,22933],[54.9,23016],[54.9,23099],[54.9,23182],[54.9,23277],[54.9,23349],[54.9,23433],[54.9,23516],[54.9,23599],[54.9,23682],[54.9,23766],[54.9,23849],[54.9,23933],[55.1,24029],[55.1,24099],[55.1,24182],[55.2,24266],[55.2,24349],[55.2,24432],[55.2,24516],[55.2,24599],[55.2,24682],[55.2,24773],[55.2,24863],[55.2,24939],[55.2,25016],[55.2,25099],[55.2,25182],[55.2,25266],[55.2,25362],[55.2,25432],[55.2,25515],[55.2,25599],[55.2,25682],[55.2,25766],[55.2,25853],[55.2,25932],[55.2,26016],[55.2,26099],[55.2,26182],[55.2,26273],[55.2,26349],[55.2,26433],[55.2,26516],[55.2,26614],[55.2,26682],[55.2,26766],[55.2,26849],[55.2,26933],[55.2,27029],[55.2,27106],[55.2,27183],[55.2,27266],[55.2,27354],[55.2,27432],[55.2,27516],[55.2,27606],[55.2,27697],[55.2,27774],[21.7,27859],[19.9,27938],[19.9,28016],[19.9,28099],[19.9,28182],[19.9,28275],[19.9,28349],[19.9,28446],[19.9,28521],[19.9,28599],[19.9,28682],[19.9,28775],[19.9,28849],[19.9,28936],[19.9,29016],[19.9,29105],[19.9,29189],[19.9,29274],[19.9,29360],[19.9,29432],[19.9,29525],[20,29608],[25.4,29683],[31.1,29766],[31.2,29849],[31.2,29933],[31.2,30016],[31.2,30099],[31.2,30182],[31.2,30266],[31.2,30349],[31.2,30432],[31.2,30516],[31.2,30599],[31.2,30683],[31.2,30766],[31.2,30849],[31.2,30933],[31.2,31016],[31.2,31099],[31.2,31182],[31.2,31266],[31.2,31349],[31.2,31433],[31.1,31516],[31.1,31599],[31.1,31682],[31.1,31766],[31.1,31849],[31.1,31933],[31.1,32016],[31.1,32099],[31.1,32182],[32.5,32266],[36.3,32350],[53.3,32433],[58.6,32516],[59.1,32599],[59.7,32683],[61.7,32767],[61.9,32849],[61.9,32932],[61.9,33016],[61.9,33099],[61.9,33183],[61.9,33266],[61.9,33349],[61.9,33432],[61.9,33516],[61.9,33599],[61.9,33682],[61.9,33766],[61.9,33849],[61.9,33932],[61.9,34016],[61.8,34100],[61.3,34183],[59.3,34266],[58.8,34349],[58.7,34433],[58.6,34516],[58.6,34599],[58.6,34683],[58.6,34766],[58.6,34849],[58.6,34933],[58.6,35016],[58.6,35099],[58.6,35183],[58.6,35266],[58.6,35349],[58.6,35433],[58.6,35516],[58.6,35599],[58.6,35683],[58.6,35766],[58.6,35849],[58.6,35933],[58.6,36016],[58.6,36099],[58.6,36183],[58.6,36266],[58.6,36349],[58.6,36433],[58.6,36516],[58.6,36599],[58.6,36683],[58.6,36766],[58.6,36849],[58.6,36933],[58.6,37016],[58.6,37099],[58.6,37183],[58.6,37266],[58.6,37349],[58.6,37433],[58.6,37516],[58.6,37600],[58.6,37683],[58.6,37766],[58.6,37849],[58.6,37933],[58.6,38016],[58.6,38099],[58.6,38183],[58.6,38266],[58.6,38349],[58.6,38433],[58.6,38516],[58.6,38599],[58.6,38683],[58.6,38766],[58.6,38849],[58.6,38933],[58.6,39016],[58.6,39099],[58.6,39182],[58.6,39266],[58.6,39349],[58.6,39433],[58.6,39516],[58.6,39599],[58.6,39683],[58.6,39766],[58.6,39849],[58.6,39933],[58.6,40016],[58.6,40099],[58.6,40183],[58.6,40266],[58.6,40349],[58.6,40433],[58.6,40516],[58.6,40599],[58.6,40682],[58.6,40766],[58.6,40849],[58.6,40933],[58.6,41016],[58.6,41099],[58.6,41183],[58.6,41266],[58.6,41349],[58.6,41432],[58.6,41516],[58.6,41599],[58.6,41682],[58.6,41766],[58.6,41849],[58.6,41933],[58.6,42016],[58.6,42099],[58.6,42182],[58.6,42266],[58.6,42349],[58.6,42433],[58.6,42518],[58.6,42599],[58.6,42682],[58.6,42766],[58.5,42850],[57.6,42933],[57.1,43016],[56.9,43100],[56.7,43183],[56.7,43266],[56.7,43349],[56.7,43433],[56.7,43516],[56.7,43599],[56.7,43682],[56.7,43766],[56.7,43849],[56.7,43933],[56.7,44016],[56.7,44099],[56.7,44183],[56.7,44266],[56.7,44349],[56.7,44433],[56.7,44516],[56.7,44599],[56.7,44683],[56.7,44766],[56.7,44849],[56.7,44933],[56.7,45016],[56.7,45099],[56.7,45183],[56.7,45266],[56.7,45349],[56.7,45433],[56.7,45516],[56.7,45599],[56.7,45683],[56.7,45766],[56.7,45849],[56.7,45933],[56.7,46016],[56.7,46099],[56.7,46183],[56.7,46267],[56.7,46349],[56.7,46433],[56.7,46516],[56.7,46599],[56.7,46683],[56.7,46766],[56.7,46849],[56.7,46933],[56.7,47016],[56.7,47099],[56.7,47183],[56.7,47266],[56.7,47349],[56.7,47433],[56.7,47516],[56.7,47599],[56.7,47683],[56.7,47766],[56.7,47849],[56.7,47933],[56.7,48016],[56.7,48099],[56.7,48182],[56.7,48266],[56.7,48349],[56.7,48433],[56.7,48516],[56.7,48599],[56.7,48683],[56.7,48766],[56.7,48849],[56.7,48932],[56.7,49016],[56.7,49099],[56.7,49183],[56.7,49266],[56.7,49349],[56.7,49433],[56.7,49516],[56.7,49600],[56.7,49683],[56.7,49766],[56.7,49849],[56.7,49932],[56.7,50016],[56.7,50099],[56.7,50183],[56.7,50266],[56.7,50349],[56.7,50433],[56.7,50516],[56.7,50599],[56.7,50683],[56.7,50766],[56.7,50849],[56.7,50933],[56.7,51016],[56.7,51099],[56.7,51183],[56.7,51266],[56.7,51349],[56.7,51433],[56.7,51516],[56.7,51599],[56.7,51682],[56.7,51766],[56.7,51849],[56.7,51933],[56.7,52016],[56.7,52099],[56.7,52183],[56.7,52266],[56.7,52349],[56.7,52433],[56.7,52516],[56.7,52599],[56.7,52683],[56.7,52766],[56.7,52849],[56.7,52933],[56.7,53016],[56.7,53099],[56.7,53183],[56.7,53266],[56.7,53349],[56.7,53432],[56.7,53516],[56.7,53599],[56.7,53682],[56.7,53766],[56.7,53849],[56.7,53933],[56.7,54016],[56.7,54099],[56.7,54183],[56.7,54266],[56.7,54349],[56.7,54433],[56.7,54516],[56.7,54599],[56.7,54683],[56.7,54766],[56.7,54849],[56.7,54933],[56.7,55016],[56.7,55099],[56.7,55183],[56.7,55266],[56.7,55349],[56.7,55433],[56.7,55516],[56.7,55599],[56.7,55683],[56.7,55766],[56.7,55849]]",219.621,239.5043,61.26873493,19.2766,"[{""rating"":51.20128790537516,""responseTime"":12.605099999994053},{""rating"":51.20128790537516,""responseTime"":13.113},{""rating"":61.2687349319458,""responseTime"":19.276599999994062}]",space,19.334,,239.5045,Definitely yes,100,239.5091,,,[],,0,1,1,1,1,audio/Narrative7Situation1.wav,audio/Narrative8Situation1.wav,audio/Narrative5Situation1.wav,audio/Narrative6Situation1.wav,2,5,5,2,2.1962,,,,,,,,,,,,,,,,,,,,,,,,,,,,,,,,,,,,,,
,,,,,651c4484ba17050f6b716614,2025-07-07_22h28.26.231,group3.4_multiperson,2023.2.2,Linux x86_64,59.88023952,686c2ebf0248f13bef9af11f,686c8e16d4b4414d5a6431f2,,,,,,,,,,,,,,,,,,,,,,,,,,,,,239.5095,1,audio/Narrative7Situation2.wav,242.5103,,242.5105,249.9836,"[[61.2,2007],[60.8,2089],[59.6,2169],[58.9,2252],[58,2336],[54.7,2419],[54.5,2502],[53.8,2587],[50.7,2672],[50.5,2749],[50.5,2837],[50.5,2915],[50.5,3001],[50.5,3083],[50.5,3171],[50.5,3250],[50.5,3336],[50.5,3422],[50.5,3501],[50.5,3582],[50.5,3670],[50.5,3752],[50.5,3837],[50.5,3923],[50.5,4002],[50.5,4086],[50.5,4168],[50.5,4251],[50.5,4337],[50.5,4415],[50.5,4501],[50.5,4585],[50.5,4668],[50.5,4751],[50.5,4832],[50.5,4920],[50.5,5001],[50.5,5085],[50.5,5169],[50.5,5251],[50.5,5338],[50.5,5418],[50.5,5501],[50.5,5587],[50.5,5670],[50.5,5752],[50.5,5836],[50.5,5923],[50.5,6001],[50.5,6085],[50.5,6164],[50.5,6253],[50.5,6333],[50.5,6413],[50.5,6504],[50.5,6588],[50.5,6669],[50.5,6752],[50.5,6833],[50.5,6918],[50.5,7001],[50.5,7076],[50.5,7168],[50.5,7251],[50.5,7334],[50.5,7419]]",249.9838,255.096,50.46824614,4.1309,"[{""rating"":50.468246142069496,""responseTime"":4.130899999998519}]",space,4.5776,,255.0961,Definitely yes,100,255.0986,,,[],,0,2,2,2,1,audio/Narrative7Situation2.wav,audio/Narrative8Situation2.wav,audio/Narrative5Situation2.wav,audio/Narrative6Situation2.wav,3,3,3,3,,,,,,,,,,,,,,,,,,,,,,,,,,,,,,,,,,,,,,,
,,,,,651c4484ba17050f6b716614,2025-07-07_22h28.26.231,group3.4_multiperson,2023.2.2,Linux x86_64,59.88023952,686c2ebf0248f13bef9af11f,686c8e16d4b4414d5a6431f2,,,,,,,,,,,,,,,,,,,,,,,,,,,,,255.099,1,audio/Narrative7Situation3.wav,263.1001,,263.1001,272.3652,"[[50.3,2186],[46.3,2262],[13,2594],[10,2676],[9.8,2761],[9.8,2847],[9.8,2928],[9.8,3008],[9.8,3096],[9.1,3180],[6.7,3262],[4.8,3347],[4.2,3426],[4.1,3515],[3.9,3598],[3.8,3675],[3.8,3765],[3.8,3846],[3.6,3930],[3.1,4009],[3,4099],[3,4179],[3,4267],[3,4346],[3,4429],[6,4512],[7.3,4600],[38.4,4676],[43.4,4762],[43.9,4846],[46.8,4931],[47.4,5015],[47.6,5096],[47.7,5178],[49.2,5264],[49.9,5344],[50.2,5430],[50.9,5508],[51.4,5599],[51.4,5671],[51.4,5763],[51.4,5848],[51.4,5928],[51.4,6012],[51.4,6098],[51.4,6181],[51.4,6264],[51.4,6336],[51.4,6430],[51.4,6509],[51.4,6597],[51.4,6679],[51.4,6762],[51.4,6847],[51.4,6928],[51.4,7014],[51.5,7092],[51.5,7182],[51.5,7264],[53.6,7346],[57.2,7434],[58.1,7509],[60,7598],[60.3,7681],[60.3,7763],[60.3,7850],[60.4,7932],[61.3,8013],[64.2,8096],[64.6,8180],[64.8,8263],[64.8,8345],[64.8,8431],[64.8,8503],[64.8,8592],[64.8,8678],[64.8,8765],[64.8,8846],[64.8,8931],[64.8,9012],[64.8,9095],[64.8,9180],[64.8,9264]]",272.3654,276.267,80.10385036,3.4821,"[{""rating"":80.10385036468506,""responseTime"":3.4821000000014806}]",space,3.335,,276.267,Definitely yes,100,276.2695,,,[],,0,3,3,3,1,audio/Narrative7Situation3.wav,audio/Narrative8Situation3.wav,audio/Narrative5Situation3.wav,audio/Narrative6Situation3.wav,8,4,3,5,,,,,,,,,,,,,,,,,,,,,,,,,,,,,,,,,,,,,,,
,,,,,651c4484ba17050f6b716614,2025-07-07_22h28.26.231,group3.4_multiperson,2023.2.2,Linux x86_64,59.88023952,686c2ebf0248f13bef9af11f,686c8e16d4b4414d5a6431f2,,,,,,,,,,,,,,,,,,,,,,,,,,,,,276.2698,1,audio/Narrative7Situation4.wav,279.2846,,279.2847,291.0205,"[[78,2779],[76.4,2862],[74.4,2945],[68.2,3029],[51.1,3111],[51,3215],[51,3286],[51.1,3370],[53.1,3458],[59.6,3535],[60.5,3632],[60.5,3701],[60.5,3785],[65.1,3869],[72.7,3965],[72.7,4035],[72.7,4118],[72.6,4202],[72.6,4285],[72.6,4368],[72.6,4452],[72.6,4535],[72.6,4618],[72.6,4702],[72.6,4785],[72.6,4869],[72.6,4952],[72.6,5035],[72.6,5132],[72.6,5202],[72.6,5285],[72.6,5368],[72.6,5452],[72.6,5535],[72.6,5618],[72.6,5715],[72.6,5785],[72.6,5869],[72.6,5952],[72.6,6035],[72.6,6119],[72.6,6202],[72.6,6285],[72.6,6368],[72.6,6452],[72.6,6535],[72.6,6619],[72.6,6702],[72.6,6785],[72.6,6869],[72.6,6952],[72.6,7035],[72.6,7118],[72.6,7211],[72.6,7285],[72.6,7369],[72.6,7452],[72.6,7535],[72.6,7618],[72.6,7715],[72.6,7797],[72.6,7868],[72.6,7952],[72.6,8035],[72.6,8118],[72.6,8202],[72.6,8285],[72.6,8369],[72.6,8461],[72.6,8545],[72.6,8618],[72.6,8702],[72.6,8785],[72.6,8868],[72.6,8952],[72.6,9035],[72.6,9118],[72.6,9202],[72.6,9285],[72.6,9368],[72.6,9451],[72.6,9549],[72.6,9625],[72.6,9716],[72.6,9792],[72.6,9868],[72.6,9952],[72.6,10035],[72.6,10118],[72.6,10202],[72.6,10285],[72.6,10368],[72.6,10452],[72.6,10535],[72.6,10618],[72.6,10702],[72.6,10785],[72.6,10868],[72.6,10958],[72.6,11035],[72.6,11119],[72.6,11202],[72.6,11285],[72.6,11376],[72.6,11458],[72.6,11535],[72.6,11622],[72.6,11702]]",291.0207,300.6708,52.95574665,9.2309,"[{""rating"":79.67455387115479,""responseTime"":2.393299999997055},{""rating"":25.827781359354653,""responseTime"":8.160199999995541},{""rating"":52.9557466506958,""responseTime"":9.230899999998542}]",space,9.1006,,300.6709,Definitely yes,100,300.6732,,,[],,0,4,4,4,1,audio/Narrative7Situation4.wav,audio/Narrative8Situation4.wav,audio/Narrative5Situation4.wav,audio/Narrative6Situation4.wav,3,3,1,2,,,,,,,,,,,,,,,,,,,,,,,,,,,,,,,,,,,,,,,
,,,,,651c4484ba17050f6b716614,2025-07-07_22h28.26.231,group3.4_multiperson,2023.2.2,Linux x86_64,59.88023952,686c2ebf0248f13bef9af11f,686c8e16d4b4414d5a6431f2,,,,,,,,,,,,,,,,,,,,,,,,,,,,,300.6735,1,audio/Narrative7Situation5.wav,305.6844,,305.6845,314.1706,"[[52.9,4599],[52,4673],[49.6,4753],[47.7,4836],[47.4,4919],[47,5002],[40.9,5086],[40.5,5179],[40.5,5252],[40.5,5335],[40.5,5424],[40.5,5516],[40.5,5600],[40.5,5677],[40.5,5752],[40.5,5835],[40.5,5919],[40.5,6002],[40.5,6085],[40.5,6169],[40.5,6252],[40.5,6335],[40.5,6426],[40.5,6502],[40.5,6586],[40.5,6669],[40.5,6752],[40.5,6836],[40.5,6919],[40.5,7002],[40.5,7095],[40.6,7172],[40.6,7252],[40.6,7346],[40.7,7431],[40.7,7512],[40.9,7596],[41,7684],[41.2,7765],[41.3,7847],[41.5,7928],[41.6,8002],[41.6,8085],[41.6,8168],[41.6,8266],[41.6,8335],[41.6,8419]]",314.1708,316.637,35.44241587,1.8765,"[{""rating"":35.44241587320963,""responseTime"":1.8765000000000214}]",space,1.9188,,316.6372,Not at all,0,316.641,,,[],,0,5,5,5,1,audio/Narrative7Situation5.wav,audio/Narrative8Situation5.wav,audio/Narrative5Situation5.wav,audio/Narrative6Situation5.wav,5,2,5,2,,,,,,,,,,,,,,,,,,,,,,,,,,,,,,,,,,,,,,,
,,,,,651c4484ba17050f6b716614,2025-07-07_22h28.26.231,group3.4_multiperson,2023.2.2,Linux x86_64,59.88023952,686c2ebf0248f13bef9af11f,686c8e16d4b4414d5a6431f2,,,,,,,,,,,,,,,,,,,,,,,,,,,,,316.6414,1,audio/Narrative7Situation6.wav,319.6475,,319.6476,329.637,"[[35,1850],[33.6,1931],[32.9,2011],[32.6,2098],[32.8,2182],[38,2265],[42.5,2346],[44.6,2431],[44.7,2516],[45.1,2600],[65.5,2682],[65.7,2764],[65.6,2850],[64.5,2922],[59.6,3012],[57.9,3102],[57.8,3182],[57.8,3265],[57.8,3345],[57.8,3434],[57.1,3515],[55.8,3595],[55.1,3684],[54.3,3761],[53.9,3851],[53.4,3931],[52.4,4015],[51.9,4095],[51.8,4183],[51.8,4264],[51.8,4351],[51.8,4431],[51.8,4515],[51.8,4598],[51.8,4681],[51.8,4764],[51.8,4844],[51.8,4936],[51.8,5020],[51.8,5103],[51.8,5186],[51.8,5265],[51.8,5347],[51.8,5428],[51.8,5517],[51.8,5600],[51.8,5682],[51.8,5762],[51.8,5844],[51.8,5931],[51.8,6017],[51.8,6100],[51.8,6172],[51.8,6270],[51.8,6353],[51.8,6436],[51.8,6520],[51.8,6603],[51.8,6686],[51.8,6770],[51.8,6853],[51.8,6936],[51.8,7020],[51.8,7103],[51.8,7186],[51.8,7272],[51.8,7355],[51.8,7439],[51.8,7522],[51.8,7619],[51.8,7695],[51.8,7773],[51.8,7855],[51.8,7939],[51.8,8022],[51.8,8106],[51.8,8189],[51.8,8281],[51.8,8355],[51.8,8439],[51.8,8522],[51.8,8606],[51.8,8689],[51.8,8772],[51.8,8856],[51.8,8939],[51.8,9022],[51.8,9105],[51.8,9189],[51.8,9272],[51.8,9370],[51.8,9439],[51.8,9522],[51.8,9605],[51.8,9689],[51.8,9785],[51.8,9855],[51.8,9939]]",329.6372,331.9541,51.84970697,1.5942,"[{""rating"":51.849706967671715,""responseTime"":1.5942000000030134}]",space,1.7635,,331.9542,Partially,50,331.9579,,,[],,0,6,6,6,1,audio/Narrative7Situation6.wav,audio/Narrative8Situation6.wav,audio/Narrative5Situation6.wav,audio/Narrative6Situation6.wav,3,2,3,2,,,,,,,,,,,,,,,,,,,,,,,,,,,,,,,,,,,,,,,
,,,,,651c4484ba17050f6b716614,2025-07-07_22h28.26.231,group3.4_multiperson,2023.2.2,Linux x86_64,59.88023952,686c2ebf0248f13bef9af11f,686c8e16d4b4414d5a6431f2,,,,,,,,,,,,,,,,,,,,,,,,,,,,,331.9581,1,audio/Narrative7Situation7.wav,336.9588,,336.9589,354.1301,"[[51.6,3262],[43.6,3354],[37.9,3440],[32.3,3607],[23.2,3688],[22.2,3771],[22.2,3850],[22.2,3936],[22.2,4019],[22.2,4101],[22.2,4189],[22.2,4269],[17.7,4355],[11.7,4439],[11.2,4517],[11.2,4594],[11.3,4687],[11.4,4775],[11.5,4855],[11.5,4940],[11.5,5023],[11.5,5105],[11.5,5188],[11.5,5271],[11.5,5351],[11.5,5436],[11.5,5521],[11.5,5603],[11.7,5689],[17.8,5767],[20.3,5844],[26.7,5943],[30.3,6022],[30.9,6104],[32.8,6190],[36.9,6270],[38.7,6350],[38.7,6427],[40.6,6516],[46.3,6606],[46.6,6685],[46.6,6775],[46.6,6858],[46.6,6942],[47.2,7025],[48.4,7109],[50.5,7193],[50.9,7276],[50.9,7360],[50.9,7442],[50.9,7525],[50.9,7609],[50.9,7691],[50.9,7775],[50.9,7859],[50.9,7942],[50.9,8025],[50.9,8109],[50.9,8192],[50.9,8275],[50.9,8359],[50.9,8427],[50.9,8517],[50.9,8606],[50.9,8686],[50.9,8771],[50.9,8850],[50.9,8941],[50.9,9025],[50.9,9104],[50.9,9183],[50.9,9270],[50.9,9354],[50.9,9436],[50.9,9520],[50.9,9606],[50.9,9687],[50.9,9770],[50.9,9853],[50.9,9941],[50.9,10026],[74.8,10109],[75.1,10192],[75.1,10276],[75.1,10358],[75.1,10442],[75,10526],[75,10608],[75,10691],[75,10776],[75,10858],[75,10942],[74.9,11020],[74.9,11103],[74.9,11189],[74.9,11270],[74.9,11356],[74.9,11433],[74.9,11515],[74.9,11606],[74.9,11688],[74.9,11771],[74.9,11851],[74.9,11936],[74.9,12020],[74.9,12094],[74.9,12192],[74.9,12276],[74.9,12358],[74.9,12442],[74.9,12519],[74.9,12604],[74.9,12686],[74.9,12769],[74.9,12856],[74.9,12936],[74.9,13021],[74.9,13102],[74.9,13189],[74.9,13271],[74.9,13350],[74.9,13439],[74.9,13519],[74.9,13602],[74.9,13690],[74.9,13770],[74.9,13856],[74.9,13935],[74.9,14022],[74.9,14103],[74.9,14186],[74.9,14271],[74.9,14354],[74.9,14438],[74.9,14521],[84.1,14604],[88.1,14690],[88.3,14773],[88.3,14853],[88.3,14928],[88.3,15017],[88.3,15105],[88.3,15188],[88.3,15271],[88.3,15354],[88.3,15437],[88.3,15521],[88.3,15604],[88.3,15686],[88.3,15770],[88.3,15853],[88.3,15937],[88.3,16022],[88.3,16102],[88.3,16185],[88.3,16269],[88.3,16348],[88.3,16439],[88.3,16520],[88.3,16603],[88.3,16690],[88.3,16773],[88.3,16848],[88.3,16940],[88.3,17023],[88.3,17103]]",354.1304,357.1536,89.25960859,2.1483,"[{""rating"":89.25960858662923,""responseTime"":2.1483000000044967}]",space,2.4773,,357.1538,Definitely yes,100,365.4675,100,6.2422,"[{""rating"":99.80918566385905,""responseTime"":5.057599999994068},{""rating"":100,""responseTime"":6.242199999995535}]",space,0,7,7,7,1,audio/Narrative7Situation7.wav,audio/Narrative8Situation7.wav,audio/Narrative5Situation7.wav,audio/Narrative6Situation7.wav,5,3,4,5,,,7.7511,,,,,,,,,,,,,,,,,,,,,,,,,,,,,,,,,,,,
,,,,,651c4484ba17050f6b716614,2025-07-07_22h28.26.231,group3.4_multiperson,2023.2.2,Linux x86_64,59.88023952,686c2ebf0248f13bef9af11f,686c8e16d4b4414d5a6431f2,,,,,,,,,,,,,,,,,,,,,,,,,,,,,365.4681,1,audio/Narrative7Situation8.wav,367.4748,,367.4748,377.4872,"[[999,0],[999,88],[999,174],[999,253],[999,334],[999,420],[999,508],[999,590],[999,668],[999,754],[999,837],[999,922],[999,1003],[999,1090],[999,1171],[999,1255],[999,1337],[999,1422],[999,1504],[999,1587],[999,1662],[999,1759],[999,1842],[999,1926],[999,2017],[999,2102],[999,2178],[999,2262],[999,2345],[999,2428],[999,2512],[999,2595],[999,2678],[999,2762],[999,2845],[999,2928],[999,3018],[999,3095],[999,3178],[999,3262],[999,3345],[999,3428],[999,3512],[999,3605],[999,3687],[49.8,3768],[53.8,3851],[60.6,3941],[65.4,4023],[68.5,4105],[70.3,4194],[71,4292],[71.1,4362],[71.1,4445],[71.1,4528],[71.1,4612],[71.1,4695],[77,4794],[78.7,4862],[78.8,4945],[78.8,5043],[78.8,5117],[78.8,5195],[78.8,5291],[78.8,5367],[78.8,5445],[78.8,5528],[78.8,5612],[78.8,5695],[78.8,5778],[78.8,5862],[78.8,5952],[78.8,6028],[78.8,6112],[78.8,6195],[78.8,6278],[78.8,6375],[78.8,6445],[78.8,6528],[78.8,6612],[78.8,6695],[78.8,6779],[78.8,6862],[78.8,6945],[78.8,7028],[78.8,7112],[78.8,7195],[78.8,7278],[78.8,7370],[78.8,7449],[78.8,7528],[78.8,7612],[78.8,7695],[78.8,7778],[78.8,7871],[78.8,7945],[78.8,8029],[78.8,8112],[78.8,8195],[78.8,8278],[78.8,8362],[78.8,8446],[78.8,8535],[78.8,8612],[78.8,8695],[78.8,8779],[78.8,8862],[78.8,8945],[78.8,9028],[78.8,9112],[78.8,9208],[78.8,9278],[78.8,9362],[78.8,9445],[78.8,9528],[78.8,9611],[78.8,9695],[78.8,9783],[78.8,9865],[78.8,9945]]",377.4875,391.1871,79.91824945,13.1468,"[{""rating"":79.91824944814046,""responseTime"":13.146799999997029}]",space,13.1569,,391.1872,Partially,50,391.1911,,,[],,0,8,8,8,1,audio/Narrative7Situation8.wav,audio/Narrative8Situation8.wav,audio/Narrative5Situation8.wav,audio/Narrative6Situation8.wav,2,3,3,5,,,,,,,,,,,,,,,,,,,,,,,,,,,,,,,,,,,,,,,
,,,,,651c4484ba17050f6b716614,2025-07-07_22h28.26.231,group3.4_multiperson,2023.2.2,Linux x86_64,59.88023952,686c2ebf0248f13bef9af11f,686c8e16d4b4414d5a6431f2,,,,,,,,,,,,,,,,,,,,,,,,,,,,,391.1915,1,audio/Narrative7Situation9.wav,393.1987,,393.1988,401.8176,"[[79.9,1338],[79.6,1436],[63,1766],[61.4,1847],[61.5,1930],[62.4,2016],[62.7,2099],[62.8,2180],[62.8,2264],[62.8,2348],[62.8,2431],[62.8,2516],[62.8,2596],[62.8,2682],[62.8,2766],[62.8,2847],[62.8,2931],[62.8,3013],[62.8,3098],[62.9,3180],[62.9,3266],[62.9,3350],[63.2,3432],[67.5,3516],[68.4,3600],[68.7,3681],[68.9,3761],[68.9,3844],[68.9,3930],[68.9,4014],[68.9,4097],[68.9,4180],[68.9,4263],[68.9,4349],[68.9,4430],[68.9,4514],[68.9,4588],[68.9,4681],[68.9,4766],[68.9,4848],[68.9,4932],[68.9,5005],[68.9,5098],[68.9,5177],[79.3,5259],[83.3,5347],[83.3,5427],[83.3,5510],[83.3,5598],[83.3,5682],[83.3,5763],[83.3,5850],[83.3,5930],[83.3,6009],[83.3,6098],[83.3,6180],[83.3,6263],[83.3,6346],[83.3,6430],[84.2,6515],[85.9,6597],[86.4,6681],[86.4,6763],[86.4,6850],[86.4,6932],[86.4,7014],[86.4,7093],[86.4,7181],[86.4,7268],[86.4,7352],[86.4,7435],[86.4,7518],[86.4,7595],[86.4,7685],[86.4,7768],[86.4,7852],[86.4,7935],[86.4,8018],[86.4,8102],[86.4,8185],[86.4,8268],[86.4,8352],[86.4,8435],[86.4,8519],[86.4,8602]]",401.8178,404.4541,89.81844584,1.9454,"[{""rating"":89.81844584147136,""responseTime"":1.9454000000059182}]",space,2.0977,,404.4542,Not at all,0,404.4578,,,[],,0,9,9,9,1,audio/Narrative7Situation9.wav,audio/Narrative8Situation9.wav,audio/Narrative5Situation9.wav,audio/Narrative6Situation9.wav,2,3,3,4,,,,,,,,,,,,,,,,,,,,,,,,,,,,,,,,,,,,,,,
,,,,,651c4484ba17050f6b716614,2025-07-07_22h28.26.231,group3.4_multiperson,2023.2.2,Linux x86_64,59.88023952,686c2ebf0248f13bef9af11f,686c8e16d4b4414d5a6431f2,,,,,,,,,,,,,,,,,,,,,,,,,,,,,404.4581,1,audio/Narrative8Situation1.wav,409.463,,409.4631,425.4045,"[[88.6,2266],[87,2350],[82.9,2432],[63.9,2513],[57,3440],[58.2,3536],[58.4,3622],[59,3690],[59.9,3774],[59.9,3857],[59.9,3940],[59.9,4023],[59.9,4107],[59.9,4190],[59.9,4273],[59.9,4357],[59.9,4440],[59.9,4523],[59.9,4607],[59.9,4690],[59.9,4773],[59.9,4857],[59.9,4940],[59.9,5023],[59.9,5107],[59.9,5190],[59.9,5273],[59.9,5357],[59.5,5451],[59.2,5536],[58.7,5622],[58,5696],[56.9,5789],[56.8,5857],[56.8,5940],[56.8,6024],[56.8,6107],[56.8,6190],[56.8,6273],[56.8,6357],[56.8,6440],[56.8,6524],[56.8,6607],[56.8,6690],[56.8,6773],[56.8,6857],[56.8,6949],[56.5,7040],[56.3,7107],[55.9,7190],[55.4,7274],[54.4,7357],[53.7,7440],[53.6,7523],[53.5,7607],[53.5,7690],[53.5,7774],[53.5,7857],[53.5,7940],[53.5,8023],[53.5,8107],[53.5,8190],[53.5,8273],[53.5,8357],[53.5,8440],[53.5,8524],[53.5,8608],[53.5,8690],[53.5,8774],[53.5,8858],[53.5,8940],[53.5,9024],[53.5,9107],[53.5,9190],[53.5,9274],[53.5,9357],[53.5,9440],[53.5,9523],[53.5,9607],[53.5,9690],[53.5,9774],[53.5,9857],[53.5,9940],[53.5,10023],[53.5,10107],[53.5,10190],[53.5,10273],[53.5,10357],[53.5,10440],[53.5,10524],[53.5,10607],[53.5,10690],[53.5,10774],[53.5,10857],[53.5,10940],[53.5,11024],[53.5,11107],[53.5,11190],[53.5,11274],[53.5,11357],[53.5,11440],[53.5,11523],[53.5,11607],[53.5,11690],[53.5,11773],[53.5,11857],[53.5,11940],[58.4,12024],[60.6,12107],[60.8,12190],[60.9,12273],[60.9,12357],[60.9,12440],[60.9,12524],[60.9,12607],[60.9,12690],[60.9,12773],[60.9,12857],[60.9,12940],[60.9,13024],[60.9,13107],[60.9,13190],[60.9,13273],[60.9,13357],[60.9,13440],[60.9,13523],[60.9,13607],[60.9,13690],[60.9,13774],[60.9,13857],[60.9,13940],[60.9,14023],[60.9,14107],[60.9,14190],[60.9,14273],[60.9,14357],[60.9,14440],[60.9,14524],[60.9,14607],[60.9,14690],[60.9,14773],[60.9,14857],[60.9,14940],[60.9,15023],[60.9,15107],[60.9,15190],[60.9,15273],[60.9,15357],[60.9,15440],[60.9,15524],[60.9,15607],[60.9,15690],[60.9,15774],[60.9,15857],[60.9,15941]]",425.4047,428.6205,65.02304077,2.6389,"[{""rating"":65.02304077148438,""responseTime"":2.6388999999985003}]",space,2.6732,,428.6206,Not at all,0,428.6229,,,[],,0,10,10,10,1,audio/Narrative8Situation1.wav,audio/Narrative7Situation1.wav,audio/Narrative6Situation1.wav,audio/Narrative5Situation1.wav,5,2,2,5,,,,,,,,,,,,,,,,,,,,,,,,,,,,,,,,,,,,,,,
,,,,,651c4484ba17050f6b716614,2025-07-07_22h28.26.231,group3.4_multiperson,2023.2.2,Linux x86_64,59.88023952,686c2ebf0248f13bef9af11f,686c8e16d4b4414d5a6431f2,,,,,,,,,,,,,,,,,,,,,,,,,,,,,428.6234,1,audio/Narrative8Situation2.wav,431.6496,,431.6497,441.7678,"[[64.8,2754],[62.2,2849],[53,2930],[35,3010],[26.8,3096],[26.6,3179],[26.6,3262],[26.6,3347],[26.6,3431],[26.6,3512],[26.6,3598],[25.5,3679],[5.8,3762],[5.8,3851],[5.8,3929],[5.8,4012],[5.8,4098],[5.8,4179],[5.8,4262],[5.8,4350],[5.8,4431],[5.8,4516],[5.8,4598],[5.8,4675],[5.8,4764],[5.8,4848],[5.8,4929],[5.8,5012],[5.8,5093],[5.8,5179],[5.8,5265],[5.8,5346],[5.8,5429],[5.8,5515],[5.8,5598],[5.8,5680],[5.8,5764],[5.8,5848],[5.8,5929],[5.8,6012],[5.8,6095],[5.8,6175],[5.8,6267],[5.8,6351],[5.8,6434],[5.8,6517],[5.8,6601],[5.8,6679],[5.8,6762],[5.8,6846],[5.8,6929],[5.8,7013],[5.8,7096],[5.8,7179],[5.8,7262],[5.8,7342],[5.8,7433],[5.8,7512],[5.8,7596],[5.8,7679],[5.8,7764],[5.8,7848],[5.8,7929],[5.8,8012],[5.8,8096],[5.8,8179],[5.8,8263],[5.8,8349],[5.8,8425],[5.8,8515],[5.8,8597],[5.8,8680],[5.8,8765],[5.8,8848]]",441.768,446.3878,49.0830342,4.1474,"[{""rating"":49.083034197489425,""responseTime"":4.147399999998527}]",space,4.0821,,446.3879,Definitely yes,100,446.3929,,,[],,0,11,11,11,1,audio/Narrative8Situation2.wav,audio/Narrative7Situation2.wav,audio/Narrative6Situation2.wav,audio/Narrative5Situation2.wav,3,3,3,3,,,,,,,,,,,,,,,,,,,,,,,,,,,,,,,,,,,,,,,
,,,,,651c4484ba17050f6b716614,2025-07-07_22h28.26.231,group3.4_multiperson,2023.2.2,Linux x86_64,59.88023952,686c2ebf0248f13bef9af11f,686c8e16d4b4414d5a6431f2,,,,,,,,,,,,,,,,,,,,,,,,,,,,,446.3933,1,audio/Narrative8Situation3.wav,450.404,,450.4041,472.7846,"[[4.5,2776],[9.1,3109],[46.3,3189],[50.9,3272],[55.1,3358],[57,3605],[55.5,3694],[54.8,3775],[54.4,3858],[53.5,3945],[52.4,4026],[52.2,4108],[52.2,4187],[52.2,4274],[52.2,4358],[52.2,4443],[52.2,4527],[52,4608],[52,4692],[52,4776],[52,4857],[52,4942],[52,5030],[52,5114],[52,5197],[52,5280],[52,5363],[52,5447],[52.7,5531],[54.2,5614],[54.3,5697],[54.3,5780],[54.3,5863],[54.3,5947],[54.3,6030],[54.3,6113],[54.3,6197],[54.3,6280],[54.3,6363],[54.3,6447],[54.3,6530],[54.3,6610],[54.3,6692],[54.3,6771],[54.3,6857],[54.3,6943],[54.3,7026],[54.3,7107],[54.3,7196],[54.3,7280],[54.3,7364],[54.3,7441],[54.3,7527],[54.3,7608],[54.3,7689],[57.2,7776],[72.6,7860],[72.9,7942],[72.9,8025],[72.9,8108],[72.8,8192],[72.8,8274],[72.8,8359],[72.8,8441],[72.8,8528],[72.8,8608],[72.8,8692],[72.8,8773],[72.8,8859],[72.8,8938],[72.8,9020],[73.8,9108],[83.2,9193],[83.7,9276],[83.7,9356],[83.7,9438],[83.7,9524],[83.7,9608],[83.7,9694],[83.7,9775],[83.7,9858],[83.7,9938],[83.7,10025],[83.7,10111],[83.7,10191],[83.7,10274],[83.7,10360],[83.7,10441],[83.7,10530],[83.7,10612],[83.7,10691],[83.7,10776],[83.7,10861],[83.7,10941],[83.7,11024],[83.7,11105],[83.7,11192],[83.7,11274],[83.7,11355],[83.7,11444],[83.7,11526],[83.7,11608],[83.7,11692],[83.7,11774],[83.7,11858],[83.7,11941],[83.7,12024],[83.7,12108],[83.7,12193],[83.7,12275],[83.7,12357],[83.7,12443],[83.8,12527],[83.9,12611],[83.9,12694],[83.9,12776],[83.9,12858],[83.9,12946],[84.5,13026],[85.3,13111],[85.5,13194],[85.5,13278],[86.4,13359],[88.4,13439],[88.4,13525],[88.4,13608],[88.4,13691],[88.4,13778],[88.4,13858],[88.4,13941],[88.4,14025],[88.4,14099],[88.4,14188],[88.4,14277],[88.4,14363],[88.4,14446],[88.4,14526],[88.4,14605],[88.4,14693],[88.4,14772],[88.4,14861],[88.4,14942],[88.4,15028],[88.4,15109],[88.4,15188],[88.4,15275],[88.4,15359],[88.4,15439],[88.4,15525],[88.4,15608],[88.4,15693],[88.4,15778],[88.4,15855],[88.4,15937],[88.4,16026],[88.4,16110],[88.4,16197],[88.4,16280],[88.4,16363],[88.4,16442],[88.4,16528],[88.4,16608],[88.4,16692],[88.4,16774],[88.4,16859],[88.4,16942],[88.4,17024],[88.4,17108],[88.4,17191],[88.4,17276],[88.4,17358],[88.4,17442],[88.4,17528],[88.4,17609],[88.4,17692],[88.4,17766],[88.4,17861],[88.4,17945],[88.4,18024],[88.4,18104],[88.4,18193],[88.4,18277],[88.4,18354],[88.4,18444],[88.4,18528],[88.4,18608],[88.4,18693],[88.4,18774],[88.4,18855],[88.4,18942],[88.4,19025],[88.4,19108],[88.4,19194],[88.4,19274],[88.4,19358],[88.4,19445],[88.4,19525],[88.4,19608],[88.4,19692],[88.4,19775],[88.4,19857],[88.4,19941],[88.4,20016],[88.4,20099],[88.4,20197],[88.4,20279],[88.4,20358],[88.4,20433],[88.4,20525],[88.4,20609],[88.4,20692],[88.4,20776],[88.4,20849],[88.4,20943],[88.4,21029],[88.4,21113],[88.4,21197],[88.4,21280],[88.4,21363],[88.4,21447],[88.4,21530],[88.4,21613],[88.4,21691],[88.4,21780],[88.4,21863],[88.4,21947],[88.4,22030],[88.4,22113],[88.4,22197],[88.4,22280],[88.4,22363]]",472.7848,476.7539,90.71559906,3.2395,"[{""rating"":90.7155990600586,""responseTime"":3.239499999999964}]",space,3.4372,,476.754,Not at all,0,476.7576,,,[],,0,12,12,12,1,audio/Narrative8Situation3.wav,audio/Narrative7Situation3.wav,audio/Narrative6Situation3.wav,audio/Narrative5Situation3.wav,4,8,5,3,,,,,,,,,,,,,,,,,,,,,,,,,,,,,,,,,,,,,,,
,,,,,651c4484ba17050f6b716614,2025-07-07_22h28.26.231,group3.4_multiperson,2023.2.2,Linux x86_64,59.88023952,686c2ebf0248f13bef9af11f,686c8e16d4b4414d5a6431f2,,,,,,,,,,,,,,,,,,,,,,,,,,,,,476.7578,1,audio/Narrative8Situation4.wav,479.762,,479.7622,493.9315,"[[90.6,5918],[90.4,6001],[90,6085],[89.8,6164],[89,6252],[88.9,6336],[88.7,6417],[88.6,6502],[88.6,6584],[88.6,6667],[88.6,6750],[88.6,6838],[88.6,6922],[88.6,7000],[88.6,7085],[88.6,7167],[88.6,7250],[88.6,7330],[88.6,7416],[88.6,7500],[88.6,7585],[88.6,7663],[88.6,7752],[88.6,7834],[88.6,7916],[88.6,8000],[88.6,8080],[88.6,8166],[88.6,8250],[88.6,8333],[88.6,8416],[88.6,8503],[88.7,8586],[88.8,8668],[88.9,8754],[88.9,8830],[88.9,8918],[89,9000],[89,9087],[89,9166],[89,9250],[89,9333],[89.1,9417],[89.4,9500],[91.7,9586],[92.6,9667],[92.7,9752],[92.7,9834],[92.7,9913],[92.7,10001],[92.7,10083],[92.7,10171],[92.7,10255],[92.7,10339],[92.7,10422],[92.7,10505],[92.7,10590],[92.7,10672],[92.7,10755],[92.7,10839],[92.7,10921],[92.7,11005],[93.2,11090],[93.6,11172],[93.7,11247],[93.9,11331],[94,11418],[94.2,11496],[94.2,11586],[94.2,11671],[94.2,11755],[94.2,11838],[94.2,11922],[94.2,12005],[94.2,12089],[94.2,12166],[94.2,12255],[94.2,12339],[94.2,12416],[94.2,12504],[94.2,12583],[94.2,12667],[94.2,12752],[94.2,12835],[94.2,12917],[94.2,13001],[94.2,13084],[94.2,13167],[94.2,13253],[94.2,13334],[94.2,13419],[94.2,13502],[94.2,13586],[94.2,13666],[94.2,13750],[94.2,13835],[94.2,13921],[94.2,13998],[94.2,14083],[94.2,14169]]",493.9317,497.1705,95.72439194,2.0807,"[{""rating"":95.72439193725586,""responseTime"":2.0807000000029348}]",space,2.6853,,497.1705,Partially,50,497.1743,,,[],,0,13,13,13,1,audio/Narrative8Situation4.wav,audio/Narrative7Situation4.wav,audio/Narrative6Situation4.wav,audio/Narrative5Situation4.wav,3,3,2,1,,,,,,,,,,,,,,,,,,,,,,,,,,,,,,,,,,,,,,,
,,,,,651c4484ba17050f6b716614,2025-07-07_22h28.26.231,group3.4_multiperson,2023.2.2,Linux x86_64,59.88023952,686c2ebf0248f13bef9af11f,686c8e16d4b4414d5a6431f2,,,,,,,,,,,,,,,,,,,,,,,,,,,,,497.1747,1,audio/Narrative8Situation5.wav,499.1875,,499.1876,507.4648,"[[82,5362],[81.6,5442],[81.4,5525],[80.9,5609],[80.7,5695],[80.5,5778],[80.4,5858],[80.4,5941],[80.4,6026],[80.4,6110],[80.4,6191],[80.4,6272],[80.4,6363],[80.4,6436],[80.4,6521],[80.4,6608],[80.4,6691],[80.4,6775],[80.4,6859],[80.4,6941],[80.4,7024],[80.4,7108],[80.4,7191],[80.4,7274],[80.4,7361],[80.4,7442],[80.4,7524],[80.4,7611],[80.4,7692],[80.4,7777],[80.4,7858],[80.4,7942],[80.4,8024],[80.4,8110],[80.4,8191],[80.4,8276]]",507.4649,511.2843,80.07676601,2.5158,"[{""rating"":80.07676601409912,""responseTime"":2.515799999997057}]",space,3.2611,,511.2845,Definitely yes,100,511.288,,,[],,0,14,14,14,1,audio/Narrative8Situation5.wav,audio/Narrative7Situation5.wav,audio/Narrative6Situation5.wav,audio/Narrative5Situation5.wav,2,5,2,5,,,,,,,,,,,,,,,,,,,,,,,,,,,,,,,,,,,,,,,
,,,,,651c4484ba17050f6b716614,2025-07-07_22h28.26.231,group3.4_multiperson,2023.2.2,Linux x86_64,59.88023952,686c2ebf0248f13bef9af11f,686c8e16d4b4414d5a6431f2,,,,,,,,,,,,,,,,,,,,,,,,,,,,,511.2885,1,audio/Narrative8Situation6.wav,513.2887,,513.2887,519.7635,"[[80,2178],[79.8,2257],[79.7,2340],[76.5,2424],[47.9,2508],[46.5,2593],[46.5,2664],[46.5,2758],[47.1,2842],[47.1,2924],[19.6,3009],[15.5,3092],[14.9,3170],[14.9,3260],[14.9,3336],[14.9,3424],[14.9,3507],[14.9,3591],[14.9,3671],[14.9,3754],[14.9,3842],[14.9,3926],[13.4,4009],[11.2,4087],[10.9,4174],[10.8,4260],[10.8,4340],[10.8,4419],[10.8,4510],[10.8,4590],[10.8,4675],[10.8,4758],[10.8,4838],[10.8,4924],[11.2,5011],[11.6,5092],[11.8,5176],[11.9,5262],[12.1,5346],[15.7,5429],[17.7,5513],[28.5,5597],[43.1,5679],[47,5762],[48.3,5847],[48.4,5923],[48.4,6007],[48.6,6091],[51.2,6175],[54.2,6257],[54.5,6343],[54.5,6423]]",519.7637,521.5874,64.37392235,1.2849,"[{""rating"":64.37392234802246,""responseTime"":1.2848999999985153}]",space,1.2696,,521.5874,Partially,50,521.5909,,,[],,0,15,15,15,1,audio/Narrative8Situation6.wav,audio/Narrative7Situation6.wav,audio/Narrative6Situation6.wav,audio/Narrative5Situation6.wav,2,3,2,3,,,,,,,,,,,,,,,,,,,,,,,,,,,,,,,,,,,,,,,
,,,,,651c4484ba17050f6b716614,2025-07-07_22h28.26.231,group3.4_multiperson,2023.2.2,Linux x86_64,59.88023952,686c2ebf0248f13bef9af11f,686c8e16d4b4414d5a6431f2,,,,,,,,,,,,,,,,,,,,,,,,,,,,,521.5912,1,audio/Narrative8Situation7.wav,524.6012,,524.6013,536.7039,"[[63.5,4212],[61.9,4295],[60.8,4378],[56.7,4457],[53.7,4545],[53.7,4627],[53.7,4712],[53.7,4793],[53.7,4877],[53.7,4964],[53.7,5044],[53.7,5133],[53.7,5216],[53.7,5293],[53.7,5383],[53.7,5466],[53.7,5549],[53.7,5627],[53.7,5710],[53.7,5794],[53.7,5878],[53.7,5960],[53.7,6048],[53.7,6128],[53.7,6211],[53.7,6291],[53.7,6375],[53.7,6452],[53.7,6541],[53.7,6631],[53.7,6708],[53.7,6795],[53.7,6878],[53.7,6961],[53.7,7045],[53.7,7128],[53.7,7210],[53.7,7296],[53.7,7379],[53.7,7461],[53.7,7547],[53.7,7627],[53.7,7712],[53.7,7794],[53.7,7878],[53.7,7963],[53.7,8047],[53.7,8127],[53.7,8211],[53.7,8295],[53.7,8378],[53.7,8461],[53.7,8544],[53.7,8628],[53.7,8712],[53.7,8796],[53.7,8877],[53.7,8963],[53.7,9047],[53.7,9129],[53.7,9207],[53.7,9294],[53.7,9381],[53.7,9460],[53.7,9545],[53.7,9628],[53.7,9711],[53.7,9794],[53.7,9877],[53.7,9960],[53.7,10045],[53.7,10127],[53.7,10213],[53.7,10299],[53.7,10385],[53.7,10469],[53.7,10566],[53.7,10635],[53.7,10719],[53.7,10802],[53.7,10885],[53.7,10969],[53.7,11052],[53.7,11135],[53.7,11219],[53.7,11302],[54.7,11400],[55.3,11477],[55.5,11552],[55.5,11635],[55.5,11732],[55.5,11802],[55.5,11885],[55.5,11982],[55.5,12062]]",536.7041,544.0374,51.43133005,6.0297,"[{""rating"":51.43133004506429,""responseTime"":6.029700000003004}]",space,6.7813,,544.0375,Partially,50,544.0397,,,[],,0,16,16,16,1,audio/Narrative8Situation7.wav,audio/Narrative7Situation7.wav,audio/Narrative6Situation7.wav,audio/Narrative5Situation7.wav,3,5,5,4,,,,,,,,,,,,,,,,,,,,,,,,,,,,,,,,,,,,,,,
,,,,,651c4484ba17050f6b716614,2025-07-07_22h28.26.231,group3.4_multiperson,2023.2.2,Linux x86_64,59.88023952,686c2ebf0248f13bef9af11f,686c8e16d4b4414d5a6431f2,,,,,,,,,,,,,,,,,,,,,,,,,,,,,544.04,1,audio/Narrative8Situation8.wav,547.046,,547.046,559.9041,"[[51.3,7258],[49.8,7352],[48.5,7433],[47.1,7516],[47,7600],[47,7686],[46.8,7769],[46.5,7854],[42.7,7958],[40.7,8024],[39.2,8108],[38.2,8191],[37.3,8274],[36.2,8357],[36,8441],[36,8524],[36,8607],[36,8691],[36,8774],[36,8857],[36,8941],[36,9024],[36,9107],[36,9191],[36,9274],[43.1,9357],[69,9442],[69.2,9524],[69.2,9608],[69.2,9691],[69.2,9774],[69.2,9857],[69.2,9941],[69.2,10024],[69.2,10107],[69.2,10191],[69.2,10274],[69.2,10357],[69.2,10440],[69.2,10524],[69.2,10607],[69.2,10691],[69.2,10774],[69.2,10857],[69.2,10941],[70.5,11024],[88.2,11107],[88.6,11191],[88.6,11274],[88.6,11357],[88.6,11441],[88.6,11524],[88.6,11607],[88.6,11691],[88.6,11774],[88.6,11857],[88.6,11941],[88.6,12024],[88.6,12107],[88.6,12191],[88.6,12274],[88.6,12357],[88.6,12441],[88.6,12524],[88.6,12607],[88.6,12691],[88.6,12774],[88.6,12857]]",559.9042,563.521,88.16145261,1.5647,"[{""rating"":88.16145261128743,""responseTime"":1.564700000002972}]",space,3.0617,,563.5211,Not at all,0,563.5253,,,[],,0,17,17,17,1,audio/Narrative8Situation8.wav,audio/Narrative7Situation8.wav,audio/Narrative6Situation8.wav,audio/Narrative5Situation8.wav,3,2,5,3,,,,,,,,,,,,,,,,,,,,,,,,,,,,,,,,,,,,,,,
,,,,,651c4484ba17050f6b716614,2025-07-07_22h28.26.231,group3.4_multiperson,2023.2.2,Linux x86_64,59.88023952,686c2ebf0248f13bef9af11f,686c8e16d4b4414d5a6431f2,,,,,,,,,,,,,,,,,,,,,,,,,,,,,563.5258,1,audio/Narrative8Situation9.wav,566.5371,,566.5371,577.8485,"[[87.9,10250],[85.1,10343],[84.4,10425],[84.1,10509],[68.4,10597],[61.7,10676],[61,10760],[60.8,10839],[60.8,10928],[60.8,11008],[60.8,11093],[60.8,11171],[60.8,11255]]",577.8487,582.435,72.46290048,4.0161,"[{""rating"":72.46290047963461,""responseTime"":4.016099999994026}]",space,4.0332,,582.435,Definitely yes,100,582.4383,,,[],,0,18,18,18,1,audio/Narrative8Situation9.wav,audio/Narrative7Situation9.wav,audio/Narrative6Situation9.wav,audio/Narrative5Situation9.wav,3,2,4,3,,,,,,,,,,,,,,,,,,,,,,,,,,,,,,,,,,,,,,,
,,,,,651c4484ba17050f6b716614,2025-07-07_22h28.26.231,group3.4_multiperson,2023.2.2,Linux x86_64,59.88023952,686c2ebf0248f13bef9af11f,686c8e16d4b4414d5a6431f2,,,,,,,,,,,,,,,,,,,,,,,,,,,584.9655,587.5466,587.5574,2,audio/Narrative13Situation2.wav,587.5574,,587.5574,617.3171,"[[72.2,1596],[64.4,1690],[62.6,1772],[61.3,1856],[57.9,1939],[54.5,2022],[53.5,2107],[53,2190],[53.1,2273],[58.7,2356],[63.9,2440],[65,2522],[65.4,2606],[65.6,2692],[65.6,2772],[65.6,2856],[65.6,2937],[65.6,3021],[65.6,3108],[65.6,3190],[65.6,3271],[65.6,3355],[65.6,3438],[65.6,3519],[65.6,3605],[63.7,3689],[62.8,3774],[62.6,3854],[62.4,3938],[62,4021],[61.8,4107],[61.6,4190],[61.6,4273],[61.6,4351],[61.6,4439],[61.6,4524],[61.6,4601],[61.6,4688],[61.6,4772],[62.8,4857],[73.3,4939],[73.6,5019],[73.6,5105],[73.8,5190],[79.2,5272],[81.4,5358],[81.4,5440],[83.5,5518],[88.5,5609],[88.5,5691],[88.5,5771],[88.5,5855],[88.5,5939],[88.5,6025],[88.5,6106],[88.5,6190],[88.5,6268],[88.5,6350],[88.5,6435],[88.5,6521],[88.5,6601],[88.5,6688],[88.5,6771],[88.5,6856],[88.5,6929],[88.5,7022],[88.5,7105],[88.5,7189],[88.5,7272],[88.5,7355],[88.5,7438],[88.5,7521],[88.5,7602],[88.5,7689],[88.5,7776],[88.5,7854],[88.5,7939],[88.5,8018],[88.5,8105],[88.5,8188],[88.5,8273],[88.5,8350],[88.5,8439],[88.5,8522],[88.5,8607],[88.5,8688],[88.5,8773],[88.5,8856],[88.5,8934],[88.5,9021],[88.7,9104],[89.7,9188],[89.9,9274],[90.1,9352],[90.1,9438],[90.1,9522],[90.1,9609],[90.1,9689],[90.1,9773],[90.1,9852],[90.1,9939],[90.1,10022],[90.1,10105],[90.1,10187],[90.1,10273],[90.1,10358],[90.1,10440],[90.1,10521],[90.1,10604],[90.1,10691],[90.1,10774],[90.1,10854],[90.1,10939],[90.1,11022],[90.1,11105],[90.1,11188],[90.1,11272],[90.1,11355],[90.1,11436],[90.1,11522],[90.1,11603],[90.1,11689],[90.1,11772],[90.1,11856],[90.1,11938],[90.1,12021],[90.1,12107],[90.1,12188],[90.1,12271],[90.1,12355],[90.1,12439],[90.1,12522],[90.1,12606],[90.1,12688],[90.1,12777],[90.1,12860],[90.1,12939],[90.1,13023],[90.1,13105],[90.1,13189],[90.1,13271],[90.1,13355],[90.1,13438],[90.1,13521],[90.1,13605],[90.1,13691],[90.1,13772],[90.1,13851],[90.1,13940],[90.1,14018],[90.1,14106],[90.1,14188],[90.1,14268],[90.1,14361],[90.1,14440],[90.1,14517],[90.1,14606],[90.1,14688],[90.1,14771],[90.1,14857],[90.1,14939],[90.1,15021],[90.1,15105],[90.1,15189],[90.1,15271],[90.1,15355],[90.1,15440],[90.1,15521],[90.1,15605],[90.1,15688],[90.1,15773],[90.1,15857],[90.1,15938],[90.1,16018],[90.1,16104],[90.1,16187],[90.1,16271],[90.1,16355],[90.1,16439],[90.1,16521],[90.1,16604],[90.1,16689],[90.1,16771],[90.1,16855],[90.1,16939],[90.1,17021],[90.1,17104],[90.1,17190],[90.1,17274],[90.1,17354],[90.1,17438],[90.1,17522],[90.1,17606],[89.9,17690],[89.7,17772],[89.6,17854],[89.6,17938],[89.6,18018],[89.6,18107],[89.6,18189],[89.6,18274],[89.6,18355],[89.6,18439],[89.6,18521],[89.6,18608],[89.6,18690],[89.6,18768],[89.6,18857],[89.6,18929],[89.6,19022],[89.6,19105],[89.6,19191],[89.6,19271],[89.6,19357],[89.6,19439],[89.6,19521],[89.6,19608],[89.6,19702],[89.6,19779],[89.6,19862],[89.6,19946],[89.6,20043],[89.6,20126],[89.6,20196],[89.6,20279],[89.6,20362],[89.6,20460],[89.6,20529],[89.6,20613],[89.6,20701],[89.6,20779],[89.6,20863],[89.6,20946],[89.6,21029],[89.6,21127],[89.6,21197],[89.6,21279],[89.6,21362],[89.5,21452],[89.3,21530],[89.1,21617],[89,21703],[88.9,21779],[88.9,21863],[88.9,21946],[88.9,22029],[88.9,22125],[88.9,22196],[88.9,22290],[88.8,22372],[88.8,22446],[88.8,22529],[88.8,22626],[88.8,22696],[88.8,22779],[88.8,22863],[88.8,22947],[88.8,23029],[88.8,23112],[88.8,23196],[88.8,23279],[88.8,23363],[88.8,23446],[88.8,23529],[88.8,23612],[88.8,23696],[88.8,23779],[88.8,23863],[88.8,23953],[88.8,24043],[88.8,24112],[88.8,24196],[88.8,24293],[88.8,24377],[88.8,24458],[88.8,24529],[88.8,24612],[88.8,24696],[88.8,24779],[88.8,24862],[88.8,24946],[88.8,25029],[88.8,25112],[88.8,25209],[88.8,25279],[88.8,25362],[88.8,25446],[88.8,25532],[88.8,25613],[88.8,25708],[88.8,25779],[88.8,25870],[88.8,25960],[88.8,26034],[88.8,26113],[88.8,26196],[88.8,26279],[88.8,26372],[88.8,26447],[88.8,26529],[88.8,26613],[88.8,26696],[88.8,26779],[88.8,26872],[88.8,26956],[88.8,27030],[88.8,27124],[88.8,27204],[88.8,27279],[88.8,27363],[88.8,27446],[88.8,27529],[88.8,27627],[88.8,27703],[88.8,27793],[88.8,27870],[88.8,27956],[88.8,28029],[88.8,28112],[88.8,28196],[88.8,28279],[88.8,28366],[88.8,28460],[88.8,28533],[88.8,28613],[88.8,28696],[88.8,28779],[88.8,28867],[88.8,28951],[88.8,29029],[88.8,29127],[88.8,29210],[88.8,29279],[88.8,29371],[88.8,29452],[88.8,29529],[88.8,29618],[88.8,29696]]",617.3174,617.3204,,,[],,,,617.3206,Not at all,0,617.3236,,,[],,0,0,0,0,1,audio/Narrative13Situation2.wav,audio/Narrative13Situation2.wav,audio/Narrative13Situation2.wav,audio/Narrative13Situation2.wav,2,2,2,2,,,,,582.4387,584.9653,space,2.0035,,,,,,,,,,,,,,,,,,,,,,,,,,,,,,,
,,,,,651c4484ba17050f6b716614,2025-07-07_22h28.26.231,group3.4_multiperson,2023.2.2,Linux x86_64,59.88023952,686c2ebf0248f13bef9af11f,686c8e16d4b4414d5a6431f2,,,,,,,,,,,,,,,,,,,,,,,,,,,,,617.324,2,audio/Narrative5Situation1.wav,622.3372,,622.3372,635.637,"[[88.5,1166],[86.9,1250],[86,1333],[58.2,1666],[57.9,1750],[57.9,1833],[58.9,1916],[59.9,2000],[60.1,2083],[60.1,2166],[60.1,2249],[60.1,2333],[60.2,2416],[60.2,2500],[60.2,2583],[60.2,2666],[60.2,2749],[60.2,2833],[60.2,2916],[60.2,2999],[60.2,3083],[60.2,3171],[60.3,3250],[60.4,3333],[60.4,3416],[60.4,3499],[60.4,3583],[60.4,3666],[60.4,3749],[60.4,3833],[60.4,3916],[60.4,3999],[60.4,4083],[60.4,4166],[60.5,4250],[60.5,4333],[60.5,4416],[60.5,4500],[60.5,4583],[60.5,4666],[60.5,4749],[60.5,4833],[60.5,4916],[60.5,5000],[60.5,5083],[60.5,5166],[60.5,5250],[60.5,5333],[60.5,5416],[60.5,5500],[60.5,5583],[60.5,5666],[60.5,5750],[60.5,5833],[60.5,5916],[60.5,5999],[60.5,6083],[60.6,6166],[60.6,6250],[60.6,6333],[60.6,6416],[60.6,6500],[60.6,6583],[60.6,6666],[60.6,6749],[60.6,6833],[60.6,6916],[60.6,6999],[60.6,7083],[60.6,7166],[60.7,7250],[60.8,7334],[63.3,7416],[64.7,7500],[64.9,7583],[64.9,7666],[64.9,7749],[64.9,7833],[64.9,7916],[64.9,8000],[64.9,8083],[64.9,8166],[64.9,8249],[64.9,8333],[64.9,8416],[64.9,8500],[64.9,8583],[64.9,8666],[64.9,8750],[64.9,8833],[64.9,8916],[64.9,9000],[64.9,9083],[64.9,9166],[64.9,9249],[64.9,9333],[64.9,9416],[64.9,9500],[64.9,9583],[64.9,9666],[64.9,9749],[64.9,9833],[64.9,9916],[64.9,9999],[64.9,10083],[64.9,10166],[64.9,10249],[64.9,10333],[64.9,10416],[64.9,10500],[64.9,10583],[64.9,10666],[64.9,10749],[64.9,10833],[64.9,10916],[64.9,11000],[64.9,11083],[64.9,11166],[64.9,11249],[64.9,11333],[64.6,11416],[61.1,11500],[55.2,11583],[54.2,11666],[54.1,11750],[53.9,11833],[53.8,11916],[53.8,11999],[53.8,12083],[53.8,12166],[53.8,12250],[53.8,12333],[53.8,12416],[53.8,12500],[53.8,12583],[53.8,12666],[53.8,12749],[53.8,12833],[53.8,12916],[53.8,13000],[53.8,13083],[53.8,13166],[53.8,13249]]",635.6372,645.0544,60.48693657,8.3557,"[{""rating"":50.00311533610026,""responseTime"":2.9382000000030075},{""rating"":60.48693656921387,""responseTime"":8.355700000003026}]",space,8.8728,,645.0545,Not at all,0,650.0372,0,3.8422,"[{""rating"":0.24832487106323242,""responseTime"":2.562999999999988},{""rating"":0,""responseTime"":3.842200000003004}]",space,0,1,1,1,1,audio/Narrative7Situation1.wav,audio/Narrative8Situation1.wav,audio/Narrative5Situation1.wav,audio/Narrative6Situation1.wav,2,5,5,2,,,4.4175,,,,,,,,,,,,,,,,,,,,,,,,,,,,,,,,,,,,
,,,,,651c4484ba17050f6b716614,2025-07-07_22h28.26.231,group3.4_multiperson,2023.2.2,Linux x86_64,59.88023952,686c2ebf0248f13bef9af11f,686c8e16d4b4414d5a6431f2,,,,,,,,,,,,,,,,,,,,,,,,,,,,,650.0379,2,audio/Narrative5Situation2.wav,653.0544,,653.0544,682.5166,"[[3.5,2264],[37.6,2348],[43.8,2431],[44.4,2514],[44.4,2596],[44.4,2680],[44.4,2760],[44.4,2839],[44.4,2925],[44.4,3011],[44.8,3096],[46.6,3173],[50,3254],[52.4,3343],[52.4,3424],[52.4,3511],[52.4,3597],[52.4,3679],[52.4,3763],[52.4,3846],[52.4,3924],[52.4,4011],[52.4,4092],[52.4,4174],[52.4,4260],[52.4,4344],[52.4,4421],[52.4,4509],[52.4,4592],[52.4,4674],[52.4,4758],[52.4,4844],[52.4,4924],[52.4,5011],[52.4,5092],[52.4,5174],[52.4,5261],[52.4,5341],[52.4,5424],[52.4,5508],[52.4,5593],[52.4,5672],[52.4,5755],[52.4,5843],[52.4,5927],[52.4,6008],[52.4,6091],[52.4,6174],[52.4,6258],[52.5,6343],[52.6,6424],[52.6,6507],[52.6,6591],[52.6,6670],[52.6,6758],[52.6,6838],[52.6,6926],[52.6,7011],[52.6,7093],[52.6,7172],[52.7,7259],[52.8,7341],[53,7420],[54.2,7508],[55.7,7592],[59.4,7676],[60.8,7761],[61,7843],[61.1,7927],[61.1,8011],[61.1,8096],[61.1,8175],[61.1,8257],[61.1,8343],[61.1,8426],[61.1,8504],[61.1,8593],[61.1,8675],[61.1,8757],[61.1,8842],[61.3,8929],[63.7,9009],[70.4,9088],[71.4,9177],[71.4,9253],[71.4,9341],[71.4,9425],[71.4,9504],[71.4,9596],[71.4,9675],[71.4,9759],[92.6,9845],[93.3,9927],[93.3,10017],[93.3,10109],[93.3,10196],[93.3,10266],[93.3,10356],[93.3,10442],[93.3,10525],[93.1,10608],[91.8,10692],[91,10775],[90.8,10855],[90.7,10943],[90.5,11028],[90.3,11109],[90.2,11191],[90.2,11274],[90.2,11361],[90.2,11440],[90.1,11526],[86.1,11610],[85.7,11692],[85.7,11774],[85.7,11858],[85.7,11941],[85.7,12028],[85.7,12107],[85.7,12192],[85.7,12271],[85.7,12349],[85.7,12442],[85.7,12526],[85.7,12607],[85.7,12690],[85.7,12776],[85.7,12859],[85.7,12944],[85.7,13027],[85.7,13108],[85.7,13191],[85.7,13280],[85.7,13363],[85.7,13446],[85.7,13530],[85.7,13610],[85.7,13691],[85.7,13766],[85.7,13856],[85.7,13943],[85.7,14027],[85.7,14108],[85.7,14193],[85.7,14276],[85.7,14357],[85.7,14441],[85.7,14524],[85.7,14607],[85.7,14682],[85.7,14779],[85.7,14863],[85.7,14946],[85.7,15030],[85.7,15113],[85.7,15197],[85.7,15280],[85.7,15363],[85.7,15446],[85.7,15529],[85.7,15613],[86,15692],[88.6,15776],[89.4,15860],[89.5,15939],[89.7,16025],[89.8,16106],[90,16196],[90.1,16278],[90.3,16358],[91.1,16442],[91.3,16525],[91.4,16611],[91.5,16691],[91.5,16775],[91.7,16857],[91.8,16933],[92,17025],[92,17105],[92,17188],[92.1,17277],[92.1,17359],[92.1,17441],[92.1,17526],[92.1,17609],[92.1,17691],[92.1,17775],[92.1,17858],[92.1,17941],[92.1,18024],[92.1,18111],[92.1,18192],[92.1,18275],[92.1,18354],[92.1,18440],[92.1,18525],[92.1,18609],[92.1,18692],[92.1,18777],[92.1,18859],[92.1,18941],[92.1,19021],[92.1,19109],[92.1,19191],[92.1,19275],[92.1,19362],[92.1,19440],[92.1,19525],[92.1,19611],[92.1,19691],[92.1,19777],[92.1,19862],[92.1,19942],[92.1,20025],[92.1,20109],[92.1,20191],[92.1,20276],[92.1,20360],[92.1,20444],[92.1,20525],[92.1,20609],[92.1,20688],[92.1,20774],[92.1,20857],[92.1,20941],[92.1,21022],[92.1,21110],[92.1,21191],[92.1,21278],[92.1,21355],[92.1,21442],[92.1,21524],[92.1,21611],[92.1,21691],[92.1,21776],[92.1,21858],[92.1,21943],[92.1,22025],[92.1,22109],[92.1,22191],[92.1,22277],[92.1,22359],[92.1,22440],[92.1,22525],[92.1,22608],[92.1,22693],[92.1,22774],[92.1,22857],[92.1,22941],[92.1,23028],[92.1,23110],[92.1,23191],[92.1,23274],[92.1,23359],[92.1,23442],[92.1,23527],[92.1,23609],[92.1,23689],[92.1,23774],[92.1,23861],[92.1,23942],[92.1,24024],[92.1,24111],[92.1,24193],[92.1,24274],[92.1,24358],[92.1,24443],[92.1,24524],[92.1,24611],[92.1,24692],[92.1,24775],[92.1,24858],[92.1,24940],[92.1,25025],[92.1,25112],[92.1,25191],[92.1,25278],[92.1,25358],[92.1,25443],[92.1,25526],[92.1,25607],[92.1,25694],[92.1,25774],[92.1,25858],[92.1,25939],[92.1,26024],[92.1,26109],[92.1,26191],[92.1,26274],[92.1,26357],[92.1,26442],[92.1,26526],[92.1,26607],[92.1,26690],[92.1,26775],[92.1,26849],[92.1,26942],[92.1,27025],[92.1,27104],[92.1,27191],[92.1,27275],[92.1,27359],[92.1,27432],[92.1,27528],[92.1,27608],[92.1,27692],[92.1,27775],[92.1,27858],[92.1,27944],[92.1,28026],[92.1,28112],[92.1,28191],[92.1,28274],[92.1,28357],[92.1,28446],[92.1,28527],[92.1,28608],[92.1,28692],[92.1,28777],[92.1,28856],[92.1,28943],[92.1,29028],[92.1,29111],[92.1,29191],[92.1,29275],[92.1,29356],[92.1,29441]]",682.5169,696.1843,95.84717751,13.0014,"[{""rating"":90.83320299784343,""responseTime"":12.181700000003048},{""rating"":95.84717750549316,""responseTime"":13.001399999998512}]",space,13.0998,,696.1844,Partially,50,696.1882,,,[],,0,2,2,2,1,audio/Narrative7Situation2.wav,audio/Narrative8Situation2.wav,audio/Narrative5Situation2.wav,audio/Narrative6Situation2.wav,3,3,3,3,,,,,,,,,,,,,,,,,,,,,,,,,,,,,,,,,,,,,,,
,,,,,651c4484ba17050f6b716614,2025-07-07_22h28.26.231,group3.4_multiperson,2023.2.2,Linux x86_64,59.88023952,686c2ebf0248f13bef9af11f,686c8e16d4b4414d5a6431f2,,,,,,,,,,,,,,,,,,,,,,,,,,,,,696.1885,2,audio/Narrative5Situation3.wav,699.2041,,699.2041,713.1307,"[[57.6,5362],[57,5447],[56.5,5531],[56.2,5614],[56.1,5698],[56.1,5781],[56.1,5863],[56.1,5947],[56.1,6030],[56.1,6113],[56.1,6197],[56.1,6280],[56.1,6365],[56.1,6447],[56.1,6530],[56.1,6613],[56.1,6691],[56.1,6775],[56.1,6858],[56.1,6941],[56.1,7021],[56.1,7110],[56.1,7195],[56.1,7275],[56.1,7360],[56.1,7441],[56.1,7528],[56.1,7610],[56.1,7691],[56.1,7775],[56.1,7860],[56.1,7941],[56.1,8026],[56.1,8109],[56.1,8193],[56.1,8275],[56.1,8354],[56.1,8442],[56.1,8524],[56.1,8610],[56.1,8691],[56.1,8775],[56.1,8859],[56.1,8941],[56.1,9025],[56.1,9111],[56.1,9191],[56.1,9274],[56.1,9359],[56.1,9447],[56.1,9530],[56.1,9614],[56.1,9697],[56.1,9780],[56.1,9864],[56.1,9941],[56.1,10021],[56.1,10105],[56.1,10192],[56.1,10274],[56.1,10357],[56.1,10444],[56.1,10524],[56.1,10610],[56.1,10691],[56.1,10777],[56.1,10860],[56.1,10941],[56.1,11024],[56.1,11099],[56.1,11197],[56.1,11280],[56.1,11352],[56.1,11441],[56.1,11525],[56.1,11609],[56.1,11694],[56.1,11778],[56.1,11858],[56.1,11938],[56.1,12024],[56.1,12109],[56.1,12191],[56.1,12275],[56.1,12359],[56.1,12444],[56.1,12525],[56.1,12614],[56.1,12692],[56.1,12775],[56.1,12861],[56.1,12942],[56.1,13027],[56.1,13110],[56.1,13191],[56.1,13277],[56.1,13359],[56.1,13441],[56.1,13522],[56.1,13611],[56.1,13691],[56.1,13775],[56.1,13856]]",713.131,717.3347,60.4309241,3.7502,"[{""rating"":60.43092409769694,""responseTime"":3.7502000000030193}]",space,3.6373,,717.3348,Not at all,0,717.3368,,,[],,0,3,3,3,1,audio/Narrative7Situation3.wav,audio/Narrative8Situation3.wav,audio/Narrative5Situation3.wav,audio/Narrative6Situation3.wav,8,4,3,5,,,,,,,,,,,,,,,,,,,,,,,,,,,,,,,,,,,,,,,
,,,,,651c4484ba17050f6b716614,2025-07-07_22h28.26.231,group3.4_multiperson,2023.2.2,Linux x86_64,59.88023952,686c2ebf0248f13bef9af11f,686c8e16d4b4414d5a6431f2,,,,,,,,,,,,,,,,,,,,,,,,,,,,,717.3371,2,audio/Narrative5Situation4.wav,718.3435,,718.3435,738.7474,"[[59.3,7523],[61.7,7598],[63.2,7685],[63.6,7771],[98.1,7853],[100,7937],[99.9,8021],[98.6,8104],[95.1,8186],[90.7,8268],[89.6,8354],[89.4,8435],[89.3,8520],[89.3,8604],[88,8686],[83.4,8770],[83.2,8853],[83.2,8938],[83.2,9019],[83.2,9102],[80.2,9186],[78.8,9266],[78.7,9356],[78.7,9436],[78.7,9522],[78.7,9598],[78.7,9688],[78.7,9765],[78.7,9851],[78.7,9938],[78.7,10016],[78.7,10105],[78.7,10184],[78.7,10272],[78.7,10353],[86.4,10438],[99.4,10516],[99.4,10599],[99.3,10681],[96.1,10770],[91.8,10853],[91.3,10939],[91.2,11025],[91.2,11105],[91.2,11187],[91.2,11272],[91.2,11348],[91.2,11436],[91.2,11520],[91.2,11602],[91.2,11691],[91.2,11768],[91.2,11852],[91.2,11937],[91.2,12017],[91.2,12102],[91.2,12182],[91.2,12274],[91.2,12352],[91.2,12431],[91.2,12520],[91.2,12599],[91.2,12683],[91.2,12771],[91.2,12849],[91.2,12935],[91.2,13019],[91.2,13107],[91.2,13191],[91.2,13274],[91.2,13357],[91.2,13441],[91.2,13524],[91.2,13607],[91.2,13691],[91.2,13774],[91.2,13857],[91.2,13941],[91.2,14017],[91.2,14106],[91.2,14185],[91.2,14272],[91.2,14354],[91.2,14433],[91.2,14518],[91.2,14602],[91.2,14686],[91.2,14772],[91.2,14849],[91.2,14933],[91.2,15022],[91.2,15103],[91.2,15183],[91.2,15270],[91.2,15352],[91.2,15435],[91.2,15518],[91.2,15602],[91.2,15677],[91.2,15774],[91.2,15858],[91.2,15940],[91.2,16023],[91.2,16108],[91.2,16190],[91.2,16274],[91.2,16358],[91.2,16440],[91.2,16524],[91.2,16608],[91.2,16691],[91.2,16774],[91.2,16855],[91.2,16935],[91.2,17021],[91.2,17104],[91.2,17185],[91.2,17266],[91.2,17343],[91.2,17437],[91.2,17517],[91.2,17602],[91.2,17686],[91.2,17766],[91.2,17854],[91.2,17935],[91.2,18015],[91.2,18102],[91.2,18186],[91.2,18270],[91.2,18352],[91.2,18431],[91.2,18518],[91.2,18602],[91.2,18688],[91.2,18771],[91.2,18854],[91.2,18938],[91.2,19021],[91.2,19103],[91.2,19185],[91.2,19270],[91.2,19352],[91.2,19433],[91.2,19517],[91.2,19603],[91.2,19685],[91.2,19771],[91.2,19855],[91.2,19935],[91.2,20020],[91.2,20102],[91.2,20188],[91.2,20271],[91.2,20351]]",738.7477,749.0016,92.36505826,9.3149,"[{""rating"":92.3650582631429,""responseTime"":9.314899999998488}]",space,9.6861,,749.0017,Partially,50,749.0058,,,[],,0,4,4,4,1,audio/Narrative7Situation4.wav,audio/Narrative8Situation4.wav,audio/Narrative5Situation4.wav,audio/Narrative6Situation4.wav,3,3,1,2,,,,,,,,,,,,,,,,,,,,,,,,,,,,,,,,,,,,,,,
,,,,,651c4484ba17050f6b716614,2025-07-07_22h28.26.231,group3.4_multiperson,2023.2.2,Linux x86_64,59.88023952,686c2ebf0248f13bef9af11f,686c8e16d4b4414d5a6431f2,,,,,,,,,,,,,,,,,,,,,,,,,,,,,749.0062,2,audio/Narrative5Situation5.wav,754.016,,754.0161,769.4541,"[[92.3,1414],[91.9,1499],[90.2,1582],[84.5,1663],[79.8,1747],[75.8,1829],[70.8,1914],[69.3,1997],[68.8,2081],[68.7,2163],[68.7,2247],[68.7,2329],[68.7,2413],[68.7,2492],[68.7,2581],[52.5,2665],[49.1,2748],[47,2831],[41.3,2913],[31.8,2999],[31.4,3083],[31.4,3162],[31.3,3243],[31.3,3330],[31.2,3415],[34.6,3499],[70.7,3577],[71.3,3664],[71.3,3746],[71.3,3829],[71.3,3913],[71.3,3998],[71.3,4079],[71.3,4163],[71.3,4249],[71.3,4330],[76.1,4414],[89.9,4497],[90,4580],[90,4663],[90,4745],[90,4826],[90,4912],[90,4999],[90,5079],[90,5162],[90,5249],[90,5331],[90,5413],[90,5496],[90,5571],[90,5662],[90,5749],[90,5829],[90,5913],[90,5999],[90,6080],[90,6164],[90,6248],[90,6333],[90,6409],[90,6497],[90,6579],[90,6663],[90,6747],[90,6830],[90,6916],[90,6996],[90,7079],[90,7164],[90,7242],[90,7332],[90,7414],[90,7496],[90,7582],[90,7663],[90,7737],[90.6,7835],[90.8,7919],[90.9,8001],[90.9,8085],[90.9,8169],[90.9,8251],[90.9,8335],[90.9,8419],[90.9,8501],[90.9,8585],[90.9,8668],[90.9,8752],[90.9,8835],[90.9,8918],[90.9,9001],[90.9,9085],[90.9,9169],[90.9,9251],[90.9,9328],[90.9,9418],[90.9,9501],[90.9,9585],[90.9,9668],[90.9,9751],[90.9,9835],[90.9,9919],[90.9,10001],[90.9,10085],[90.9,10164],[90.9,10249],[90.9,10335],[90.9,10409],[90.9,10516],[90.9,10587],[90.9,10671],[90.9,10762],[90.9,10850],[90.9,10935],[90.9,11012],[90.9,11088],[90.9,11171],[90.9,11254],[90.9,11337],[90.9,11421],[90.9,11504],[90.9,11587],[90.9,11671],[90.9,11754],[90.9,11850],[90.9,11921],[90.9,12004],[90.9,12087],[90.9,12171],[90.9,12268],[90.9,12337],[90.9,12421],[90.9,12511],[90.9,12587],[90.9,12675],[90.9,12754],[90.9,12837],[90.9,12921],[90.9,13006],[90.9,13101],[90.9,13185],[90.9,13254],[90.9,13337],[90.9,13421],[90.9,13504],[90.9,13591],[90.9,13671],[90.9,13754],[90.9,13837],[90.9,13921],[90.9,14004],[90.9,14087],[90.9,14171],[90.9,14254],[90.9,14337],[90.9,14421],[90.9,14510],[90.9,14587],[90.9,14671],[90.9,14754],[90.9,14837],[90.9,14921],[90.9,15004],[90.9,15087],[90.9,15171],[90.9,15254],[90.9,15341],[90.9,15421]]",769.4544,772.0206,93.53775978,2.0123,"[{""rating"":93.53775978088379,""responseTime"":2.012300000004416}]",space,2.0115,,772.0208,Definitely yes,100,772.0246,,,[],,0,5,5,5,1,audio/Narrative7Situation5.wav,audio/Narrative8Situation5.wav,audio/Narrative5Situation5.wav,audio/Narrative6Situation5.wav,5,2,5,2,,,,,,,,,,,,,,,,,,,,,,,,,,,,,,,,,,,,,,,
,,,,,651c4484ba17050f6b716614,2025-07-07_22h28.26.231,group3.4_multiperson,2023.2.2,Linux x86_64,59.88023952,686c2ebf0248f13bef9af11f,686c8e16d4b4414d5a6431f2,,,,,,,,,,,,,,,,,,,,,,,,,,,,,772.0251,2,audio/Narrative5Situation6.wav,775.0374,,775.0375,780.7376,"[[93.3,2083],[77.1,2173],[69.3,2259],[68.7,2339],[68.1,2424],[68.1,2505],[70.5,2589],[84.9,2673],[85.3,2759],[85.3,2845],[85.3,2921],[85.3,3009],[85.3,3089],[85.3,3176],[85.3,3259],[85.3,3338],[85.3,3421],[85.3,3509],[85.3,3594],[85.3,3672],[85.3,3758],[85.3,3843],[85.3,3926],[85.3,3999],[85.3,4089],[85.3,4172],[85.3,4259],[85.3,4344],[85.3,4422],[85.3,4501],[85.3,4597],[85.3,4680],[85.3,4763],[85.3,4847],[85.3,4930],[85.3,5016],[85.3,5100],[85.3,5182],[85.3,5266],[85.3,5363],[85.3,5432],[85.3,5516],[85.3,5599],[85.3,5682]]",780.7377,783.1797,63.5692517,1.2945,"[{""rating"":63.569251696268715,""responseTime"":1.294499999999971}]",space,1.9026,,783.1798,Not at all,0,783.1833,,,[],,0,6,6,6,1,audio/Narrative7Situation6.wav,audio/Narrative8Situation6.wav,audio/Narrative5Situation6.wav,audio/Narrative6Situation6.wav,3,2,3,2,,,,,,,,,,,,,,,,,,,,,,,,,,,,,,,,,,,,,,,
,,,,,651c4484ba17050f6b716614,2025-07-07_22h28.26.231,group3.4_multiperson,2023.2.2,Linux x86_64,59.88023952,686c2ebf0248f13bef9af11f,686c8e16d4b4414d5a6431f2,,,,,,,,,,,,,,,,,,,,,,,,,,,,,783.1836,2,audio/Narrative5Situation7.wav,787.199,,787.1991,808.2544,"[[64,2588],[69,3097],[69,3181],[69.7,3264],[71.9,3351],[73.3,3436],[74.2,3520],[74.3,3602],[74.5,3685],[74.5,3768],[74.5,3852],[74.5,3935],[74.5,4014],[74.5,4098],[74.5,4180],[74.5,4254],[74.5,4349],[74.7,4430],[74.8,4516],[74.8,4598],[74.8,4675],[74.8,4766],[74.8,4846],[74.8,4933],[74.8,5016],[74.8,5096],[74.8,5177],[74.8,5263],[74.8,5346],[74.8,5434],[74.8,5518],[74.8,5601],[74.8,5685],[74.8,5768],[74.8,5846],[74.8,5929],[74.8,6013],[74.8,6096],[74.8,6181],[74.8,6259],[74.8,6346],[74.8,6431],[74.8,6504],[74.8,6602],[74.8,6685],[74.8,6768],[74.8,6851],[74.8,6937],[74.8,7021],[74.8,7104],[74.8,7188],[74.8,7272],[74.8,7368],[74.8,7438],[74.8,7521],[74.8,7604],[74.8,7694],[74.8,7771],[74.8,7862],[74.8,7938],[74.8,8021],[74.8,8104],[74.8,8188],[74.8,8271],[74.8,8355],[74.8,8438],[74.8,8535],[74.8,8611],[74.8,8688],[74.8,8771],[74.8,8854],[74.8,8938],[74.8,9026],[74.8,9104],[74.8,9188],[74.8,9271],[74.8,9354],[74.8,9438],[74.8,9521],[74.8,9604],[74.8,9688],[74.8,9771],[74.8,9854],[74.8,9951],[74.8,10034],[74.8,10104],[74.8,10188],[74.8,10274],[74.8,10354],[74.8,10441],[74.8,10535],[74.9,10614],[75.4,10702],[76.4,10782],[77.5,10854],[77.9,10938],[78.1,11031],[78.2,11109],[78.2,11197],[78.2,11271],[78.2,11354],[78.2,11438],[78.2,11521],[78.2,11604],[78.2,11688],[78.2,11771],[78.2,11854],[78.2,11938],[78.2,12021],[78.2,12104],[78.2,12188],[78.2,12284],[78.2,12367],[78.2,12438],[78.2,12521],[78.2,12618],[78.2,12694],[78.2,12771],[78.2,12854],[78.2,12938],[78.2,13021],[78.2,13104],[78.2,13188],[78.2,13271],[78.2,13368],[78.2,13438],[78.2,13521],[78.2,13618],[78.2,13688],[78.2,13785],[78.2,13868],[78.2,13951],[78.2,14021],[78.2,14104],[78.2,14188],[78.2,14271],[78.2,14357],[78.2,14438],[78.2,14535],[78.2,14618],[78.2,14702],[78.2,14779],[78.2,14858],[78.2,14938],[78.2,15021],[78.2,15114],[78.2,15195],[78.2,15279],[78.2,15354],[78.2,15451],[78.2,15521],[78.2,15604],[78.2,15688],[78.2,15771],[78.2,15854],[78.2,15949],[78.2,16021],[78.2,16104],[78.2,16188],[78.2,16271],[78.2,16366],[78.2,16438],[78.2,16529],[78.2,16604],[78.2,16688],[78.2,16771],[78.2,16854],[78.2,16938],[78.2,17021],[78.2,17104],[78.2,17188],[78.2,17271],[78.2,17354],[78.2,17438],[78.2,17521],[78.2,17604],[78.2,17688],[78.2,17786],[78.2,17854],[78.2,17938],[78.2,18021],[78.2,18119],[78.2,18194],[78.2,18271],[78.2,18354],[78.2,18448],[78.2,18526],[78.2,18604],[78.2,18700],[78.2,18784],[78.2,18854],[78.2,18938],[78.2,19021],[78.2,19104],[78.2,19188],[78.2,19278],[78.2,19368],[78.2,19438],[78.2,19521],[78.2,19604],[78.2,19698],[78.2,19771],[78.2,19854],[78.2,19949],[78.2,20021],[78.2,20104],[78.2,20188],[78.2,20271],[78.2,20354],[78.2,20438],[78.2,20521],[78.2,20604],[78.2,20688],[78.2,20771],[78.2,20854],[78.2,20952],[78.2,21021]]",808.2545,817.2057,81.72015349,7.7087,"[{""rating"":81.72015349070232,""responseTime"":7.7087000000029775}]",space,8.4154,,817.2058,Definitely yes,100,817.209,,,[],,0,7,7,7,1,audio/Narrative7Situation7.wav,audio/Narrative8Situation7.wav,audio/Narrative5Situation7.wav,audio/Narrative6Situation7.wav,5,3,4,5,,,,,,,,,,,,,,,,,,,,,,,,,,,,,,,,,,,,,,,
,,,,,651c4484ba17050f6b716614,2025-07-07_22h28.26.231,group3.4_multiperson,2023.2.2,Linux x86_64,59.88023952,686c2ebf0248f13bef9af11f,686c8e16d4b4414d5a6431f2,,,,,,,,,,,,,,,,,,,,,,,,,,,,,817.2093,2,audio/Narrative5Situation8.wav,820.2126,,820.2126,829.0376,"[[53,3854],[54,3934],[54.5,4014],[54.7,4105],[54.8,4179],[54.9,4267],[54.9,4353],[54.9,4435],[55.3,4518],[67.9,4601],[70,4684],[70.7,4763],[71.6,4852],[72.5,4956],[72.6,5047],[72.7,5127],[72.7,5207],[72.7,5291],[72.7,5374],[72.7,5457],[72.7,5541],[72.7,5624],[72.7,5707],[72.7,5791],[72.7,5874],[72.7,5958],[72.7,6041],[72.7,6124],[72.7,6208],[72.7,6291],[72.7,6374],[72.7,6458],[72.7,6541],[72.8,6625],[80.7,6708],[88.2,6791],[88.6,6874],[88.7,6958],[88.9,7041],[89.9,7125],[91.5,7208],[91.8,7291],[91.9,7374],[91.9,7458],[92.1,7541],[92.9,7625],[94.2,7708],[94.6,7791],[94.7,7875],[94.9,7958],[94.9,8041],[95,8124],[95.3,8208],[95.7,8291],[95.8,8375],[95.9,8458],[95.9,8541],[95.9,8624],[95.9,8708],[95.9,8791]]",829.0378,831.3041,98.25380643,1.4398,"[{""rating"":98.25380643208821,""responseTime"":1.4398000000045386}]",space,1.7181,,831.3043,Partially,50,831.3081,,,[],,0,8,8,8,1,audio/Narrative7Situation8.wav,audio/Narrative8Situation8.wav,audio/Narrative5Situation8.wav,audio/Narrative6Situation8.wav,2,3,3,5,,,,,,,,,,,,,,,,,,,,,,,,,,,,,,,,,,,,,,,
,,,,,651c4484ba17050f6b716614,2025-07-07_22h28.26.231,group3.4_multiperson,2023.2.2,Linux x86_64,59.88023952,686c2ebf0248f13bef9af11f,686c8e16d4b4414d5a6431f2,,,,,,,,,,,,,,,,,,,,,,,,,,,,,831.3085,2,audio/Narrative5Situation9.wav,834.3172,,834.3172,873.8376,"[[51,1746],[47.2,1832],[46.9,1913],[46.9,1992],[46.9,2080],[47,2161],[66.1,2247],[66.5,2329],[66.5,2411],[66.5,2498],[66.5,2580],[66.5,2663],[66.5,2745],[66.5,2825],[66.5,2913],[66.3,2996],[57.8,3076],[57.4,3165],[57.4,3242],[57.3,3331],[54.1,3412],[50.6,3499],[50.4,3578],[50.4,3662],[50.4,3746],[50.7,3828],[66.5,3912],[74.6,3995],[74.6,4079],[74.6,4161],[74.6,4247],[74.6,4331],[74.6,4413],[74.6,4498],[74.6,4579],[74.6,4662],[74.6,4748],[74.6,4831],[74.6,4915],[74.6,4998],[74.6,5079],[74.6,5165],[74.6,5245],[74.6,5329],[74.6,5412],[74.6,5498],[74.6,5580],[74.6,5662],[74.6,5747],[74.6,5828],[74.6,5909],[74.6,5995],[74.6,6080],[74.6,6157],[74.6,6246],[74.6,6330],[74.6,6411],[74.6,6496],[74.6,6579],[74.6,6657],[74.6,6748],[74.6,6824],[74.6,6912],[74.6,6995],[74.6,7076],[74.6,7161],[74.6,7246],[74.6,7334],[74.7,7418],[83,7501],[89.3,7584],[90.7,7669],[90.9,7753],[90.9,7836],[90.9,7920],[90.9,8003],[90.9,8095],[90.9,8179],[90.9,8264],[90.9,8351],[90.9,8434],[90.9,8510],[90.9,8586],[90.9,8670],[90.9,8753],[90.9,8836],[90.9,8920],[90.9,9003],[90.9,9086],[90.9,9170],[90.9,9253],[90.9,9336],[90.9,9420],[90.9,9503],[90.9,9586],[90.9,9671],[90.9,9767],[90.9,9845],[90.9,9924],[90.9,10006],[90.9,10086],[90.9,10170],[90.9,10263],[90.9,10345],[90.9,10420],[90.9,10504],[90.9,10586],[90.9,10670],[90.9,10753],[90.9,10836],[90.9,10920],[90.9,11003],[90.9,11098],[90.9,11170],[90.9,11253],[90.9,11336],[90.9,11424],[90.9,11503],[90.9,11586],[90.9,11684],[90.9,11753],[90.9,11840],[90.9,11920],[90.9,12003],[90.9,12086],[90.9,12173],[90.9,12267],[90.9,12344],[90.9,12433],[90.9,12503],[90.9,12586],[90.9,12670],[90.9,12753],[90.9,12836],[90.9,12920],[90.9,13003],[90.9,13086],[90.9,13170],[90.9,13253],[90.9,13336],[90.9,13420],[90.9,13503],[90.9,13586],[90.9,13682],[90.9,13753],[90.9,13845],[90.9,13920],[90.9,14003],[90.9,14086],[90.9,14170],[90.9,14253],[90.9,14336],[90.9,14425],[90.9,14504],[90.9,14586],[90.9,14670],[90.9,14753],[90.9,14836],[90.9,14920],[90.9,15003],[90.9,15086],[90.9,15170],[90.9,15266],[90.9,15349],[90.9,15419],[90.9,15503],[90.9,15600],[90.9,15670],[90.9,15753],[90.9,15836],[90.9,15920],[90.9,16003],[90.9,16095],[90.9,16183],[90.9,16253],[90.9,16345],[90.9,16420],[90.9,16503],[90.9,16586],[90.9,16670],[90.9,16753],[90.9,16836],[90.9,16920],[90.9,17003],[90.9,17086],[90.9,17170],[90.9,17253],[90.9,17350],[90.9,17420],[90.9,17503],[90.9,17595],[90.9,17670],[90.9,17753],[90.9,17836],[90.9,17920],[90.9,18003],[90.9,18087],[90.9,18171],[90.9,18253],[90.9,18350],[90.9,18427],[90.9,18503],[90.9,18594],[90.9,18669],[90.9,18767],[90.9,18842],[90.9,18926],[90.9,19003],[90.9,19086],[90.9,19170],[90.9,19265],[90.9,19336],[90.9,19420],[90.9,19503],[90.9,19586],[90.9,19677],[90.9,19753],[90.9,19836],[90.9,19920],[90.9,20003],[90.9,20086],[90.9,20170],[90.9,20253],[90.9,20336],[90.9,20420],[90.9,20503],[90.9,20586],[90.9,20684],[90.9,20753],[90.9,20836],[90.9,20920],[90.9,21003],[90.9,21086],[90.9,21170],[90.9,21253],[90.9,21336],[90.9,21427],[90.9,21503],[90.9,21592],[90.9,21670],[90.9,21753],[90.9,21836],[90.9,21920],[90.9,22003],[90.9,22086],[90.9,22183],[90.9,22259],[90.9,22336],[90.9,22420],[90.9,22503],[90.9,22586],[90.9,22670],[90.9,22755],[90.9,22836],[90.9,22920],[90.9,23003],[90.9,23086],[90.9,23179],[90.9,23253],[90.9,23336],[90.9,23435],[90.9,23503],[90.9,23594],[90.9,23679],[90.9,23766],[90.9,23849],[90.9,23932],[90.9,24003],[90.9,24086],[90.9,24170],[90.9,24253],[90.9,24345],[90.9,24430],[90.9,24516],[90.9,24586],[90.9,24680],[90.9,24760],[90.9,24836],[90.9,24920],[90.9,25003],[90.9,25086],[90.9,25177],[90.9,25265],[90.9,25336],[90.9,25420],[90.9,25503],[90.9,25586],[90.9,25670],[90.9,25753],[90.9,25836],[90.9,25920],[90.9,26003],[90.9,26086],[90.9,26170],[90.9,26253],[90.9,26336],[90.9,26420],[90.9,26516],[90.9,26586],[90.9,26670],[90.9,26767],[90.9,26836],[90.9,26920],[90.9,27003],[90.9,27086],[90.9,27184],[90.9,27253],[90.9,27336],[90.9,27420],[90.9,27503],[90.9,27586],[90.9,27674],[90.9,27753],[90.9,27849],[90.9,27920],[90.9,28003],[90.9,28086],[90.9,28170],[90.9,28253],[90.9,28336],[90.9,28420],[90.9,28503],[90.9,28586],[90.9,28685],[90.9,28753],[90.9,28836],[90.9,28920],[90.9,29003],[90.9,29086],[90.9,29174],[90.9,29253],[90.9,29346],[90.9,29433],[90.9,29503],[90.9,29599],[90.9,29670],[90.9,29753],[90.9,29836],[90.9,29920],[90.9,30003],[90.9,30086],[90.9,30170],[90.9,30258],[90.9,30336],[90.9,30420],[90.9,30503],[90.9,30586],[90.9,30670],[90.9,30753],[90.9,30840],[90.9,30920],[90.9,31003],[90.9,31086],[90.9,31170],[90.9,31253],[90.9,31336],[90.9,31425],[90.9,31516],[90.9,31586],[90.9,31670],[90.9,31753],[90.9,31850],[90.9,31927],[90.9,32003],[90.9,32096],[90.9,32170],[90.9,32253],[90.9,32336],[90.9,32420],[90.9,32503],[90.9,32586],[90.9,32670],[90.9,32762],[90.9,32836],[90.9,32920],[90.9,33003],[90.9,33086],[90.9,33170],[90.9,33253],[90.9,33350],[90.9,33420],[90.9,33503],[90.9,33586],[90.9,33670],[90.9,33766],[90.9,33836],[90.9,33920],[90.9,34012],[90.9,34086],[90.9,34177],[90.9,34253],[90.9,34336],[90.9,34420],[90.9,34503],[90.9,34586],[90.9,34670],[90.9,34753],[90.9,34836],[90.9,34920],[90.9,35003],[90.9,35097],[90.9,35170],[90.9,35253],[90.9,35350],[90.9,35420],[90.9,35503],[90.9,35586],[90.9,35678],[90.9,35761],[90.9,35843],[90.9,35920],[90.9,36003],[90.9,36086],[90.9,36170],[90.9,36253],[90.9,36345],[90.9,36420],[90.9,36503],[90.9,36586],[90.9,36670],[90.9,36761],[90.9,36836],[90.9,36920],[90.9,37003],[90.9,37086],[90.9,37170],[90.9,37253],[90.9,37336],[90.9,37420],[90.9,37503],[90.9,37586],[90.9,37670],[90.9,37753],[90.9,37836],[90.9,37920],[90.9,38003],[90.9,38086],[90.9,38170],[90.9,38266],[90.9,38336],[90.9,38419],[90.9,38517],[90.9,38589],[90.9,38670],[90.9,38753],[90.9,38836],[90.9,38920],[90.9,39003],[90.9,39086],[90.9,39183],[90.9,39253],[90.9,39336],[90.9,39420],[90.9,39503]]",873.838,891.9708,95.65529823,17.2907,"[{""rating"":91.34387969970703,""responseTime"":12.142700000002947},{""rating"":95.65529823303223,""responseTime"":17.29070000000297}]",space,17.5882,,891.971,Partially,50,891.9733,,,[],,0,9,9,9,1,audio/Narrative7Situation9.wav,audio/Narrative8Situation9.wav,audio/Narrative5Situation9.wav,audio/Narrative6Situation9.wav,2,3,3,4,,,,,,,,,,,,,,,,,,,,,,,,,,,,,,,,,,,,,,,
,,,,,651c4484ba17050f6b716614,2025-07-07_22h28.26.231,group3.4_multiperson,2023.2.2,Linux x86_64,59.88023952,686c2ebf0248f13bef9af11f,686c8e16d4b4414d5a6431f2,,,,,,,,,,,,,,,,,,,,,,,,,,,,,891.9737,2,audio/Narrative6Situation1.wav,894.0009,,894.001,920.5876,"[[95.6,1742],[95.4,1829],[94.5,1908],[86.7,1996],[78.4,2081],[72.6,2163],[71.4,2248],[71.2,2325],[64.5,2412],[58.8,2495],[59,2580],[81.3,2665],[83.1,2748],[84.7,2826],[86.8,2910],[87.8,2998],[87.8,3077],[87.8,3162],[87.8,3245],[87.8,3328],[87.8,3414],[87.8,3495],[88,3575],[88.2,3663],[88.4,3746],[88.6,3826],[88.6,3913],[88.6,3997],[88.6,4077],[88.6,4160],[88.6,4250],[88.6,4333],[88.6,4416],[91.5,4498],[92.7,4579],[92.8,4663],[92.8,4745],[92.8,4828],[92.8,4913],[92.8,4996],[92.8,5078],[92.8,5161],[92.8,5241],[92.8,5329],[92.8,5413],[92.8,5494],[92.8,5578],[92.8,5664],[92.8,5745],[92.8,5825],[92.8,5912],[92.8,5996],[92.8,6081],[92.8,6167],[92.8,6250],[92.8,6328],[92.8,6412],[92.8,6499],[92.8,6575],[92.8,6658],[92.8,6744],[92.8,6828],[92.8,6909],[92.8,6995],[92.8,7079],[92.8,7161],[92.8,7247],[92.8,7329],[92.8,7413],[92.8,7492],[92.8,7577],[92.8,7663],[92.8,7745],[92.8,7830],[92.8,7913],[92.8,7996],[92.8,8078],[92.8,8162],[92.8,8242],[93,8329],[93.1,8412],[93.2,8500],[93.3,8584],[93.4,8666],[93.4,8750],[93.4,8833],[93.4,8916],[93.6,9002],[93.9,9084],[94.1,9167],[94.2,9251],[94.3,9334],[94.4,9409],[94.4,9496],[94.4,9578],[94.4,9661],[94.4,9744],[94.4,9827],[94.4,9912],[94.4,9994],[94.4,10079],[94.4,10165],[94.4,10244],[94.4,10328],[94.4,10414],[94.4,10493],[94.4,10578],[94.4,10661],[94.4,10745],[94.4,10829],[94.4,10916],[94.4,10996],[94.4,11073],[94.4,11161],[94.4,11244],[94.4,11327],[94.3,11416],[94.2,11495],[92.1,11579],[71.9,11665],[61.7,11748],[58.2,11831],[53.5,12159],[43.2,12245],[41.9,12324],[41.9,12411],[41.9,12496],[41.9,12583],[41.9,12667],[41.9,12750],[41.9,12833],[30.1,12918],[24.8,13018],[24.2,13101],[24.1,13179],[24.1,13253],[24.1,13336],[42.4,13429],[47.8,13503],[56.4,13599],[58.4,13670],[58.7,13753],[60.2,13849],[60.8,13933],[61,14005],[61.1,14086],[61.2,14179],[61.2,14252],[61.2,14336],[61.2,14419],[61.2,14503],[61.2,14594],[61.2,14669],[61.2,14753],[61.3,14850],[61.4,14935],[61.6,15017],[61.7,15101],[61.8,15169],[61.8,15254],[61.8,15350],[61.8,15434],[61.9,15512],[62,15600],[62,15676],[62,15753],[62,15847],[62,15919],[62,16003],[62,16091],[62,16169],[62,16252],[62,16336],[62,16419],[62,16504],[62,16587],[62,16669],[62,16762],[62,16836],[62,16919],[62,17003],[62,17100],[62,17169],[62,17253],[62,17350],[62,17419],[62,17503],[62,17586],[62,17669],[62,17753],[62,17836],[62,17919],[62,18003],[62,18086],[62,18169],[62,18257],[62,18336],[62,18419],[62,18503],[62,18599],[62,18669],[62,18753],[62,18836],[62,18932],[62,19002],[62,19086],[62.1,19175],[62.3,19268],[62.4,19347],[62.5,19419],[62.5,19502],[62.5,19586],[62.5,19669],[62.5,19760],[62.5,19836],[62.5,19919],[60.2,20003],[58.1,20097],[57.1,20183],[55.7,20257],[55.3,20336],[55.1,20421],[55,20503],[54.4,20600],[53.2,20677],[52.8,20762],[52.7,20836],[52.7,20919],[52.7,21003],[52.7,21086],[52.7,21169],[60.4,21253],[62.9,21336],[64.1,21432],[70.6,21518],[72.6,21586],[73.9,21684],[76,21762],[76.8,21851],[76.8,21919],[76.8,22003],[76.8,22086],[76.8,22169],[76.9,22253],[76.9,22336],[76.9,22419],[76.9,22502],[76.9,22586],[76.9,22669],[76.9,22753],[76.9,22836],[76.9,22919],[76.9,23002],[79,23100],[82.1,23185],[82.6,23253],[82.6,23344],[82.6,23419],[82.6,23502],[82.6,23590],[82.6,23669],[82.6,23762],[82.6,23836],[82.6,23919],[82.6,24003],[82.6,24086],[82.6,24169],[82.6,24252],[82.6,24336],[82.6,24419],[82.6,24502],[82.6,24600],[82.6,24669],[82.6,24752],[82.6,24836],[82.6,24919],[82.6,25002],[82.6,25086],[82.6,25176],[82.6,25252],[82.6,25336],[82.6,25419],[82.6,25503],[82.6,25586],[82.6,25679],[82.6,25753],[82.6,25836],[82.6,25919],[82.6,26012],[82.6,26086],[82.6,26169],[82.6,26253],[82.6,26341],[82.6,26419],[82.6,26502],[82.6,26586]]",920.588,925.9709,95.76851527,4.4418,"[{""rating"":95.7685152689616,""responseTime"":4.441799999996988}]",space,4.8227,,925.9712,Partially,50,925.9736,,,[],,0,10,10,10,1,audio/Narrative8Situation1.wav,audio/Narrative7Situation1.wav,audio/Narrative6Situation1.wav,audio/Narrative5Situation1.wav,5,2,2,5,,,,,,,,,,,,,,,,,,,,,,,,,,,,,,,,,,,,,,,
,,,,,651c4484ba17050f6b716614,2025-07-07_22h28.26.231,group3.4_multiperson,2023.2.2,Linux x86_64,59.88023952,686c2ebf0248f13bef9af11f,686c8e16d4b4414d5a6431f2,,,,,,,,,,,,,,,,,,,,,,,,,,,,,925.974,2,audio/Narrative6Situation2.wav,928.9877,,928.9877,957.496,"[[95.7,916],[91.1,1010],[81.7,1092],[55.9,1254],[47.7,1345],[47.4,1426],[47.3,1508],[47.3,1592],[47.3,1671],[47.3,1758],[47.3,1842],[47.3,1924],[47.3,2005],[47.3,2092],[47.3,2174],[47.3,2261],[47.3,2342],[47.3,2421],[47.3,2508],[39.5,2595],[30,2675],[25.3,2760],[23.5,2842],[22.7,2926],[21.7,3009],[13.9,3093],[12,3176],[11.4,3256],[9.8,3342],[8.7,3425],[17.2,3678],[34.7,3756],[69.2,3843],[70.2,3928],[70.2,4009],[70.2,4091],[70.2,4170],[70.2,4255],[70.2,4342],[70.2,4424],[70.2,4509],[70.2,4592],[70.2,4674],[70.2,4754],[70.2,4843],[70.3,4922],[73.8,5005],[83.1,5093],[84.8,5175],[88.4,5259],[89.2,5341],[89.3,5430],[89.3,5513],[89.3,5596],[89.3,5679],[89.3,5763],[89.3,5846],[89.3,5930],[89.3,6009],[89.3,6088],[89.3,6170],[89.3,6258],[89.3,6344],[89.3,6428],[89.3,6508],[89.3,6592],[89.3,6675],[89.3,6759],[89.3,6841],[89.3,6925],[89.3,7013],[89.3,7097],[89.3,7176],[89.3,7258],[89.3,7341],[89.3,7424],[89.3,7508],[89.3,7588],[89.3,7676],[89.3,7763],[89.3,7846],[89.3,7930],[89.3,8013],[89.3,8096],[89.3,8180],[89.3,8263],[89.3,8346],[89.3,8430],[89.3,8513],[89.3,8596],[89.3,8680],[89.3,8763],[89.3,8846],[89.3,8930],[89.3,9009],[89.3,9093],[89.3,9172],[89.3,9258],[89.3,9346],[89.3,9430],[89.3,9513],[89.3,9596],[89.3,9680],[89.3,9763],[89.3,9846],[89.3,9930],[89.3,10013],[89.3,10091],[89.3,10180],[89.3,10263],[89.3,10346],[89.3,10424],[89.3,10508],[89.3,10591],[89.3,10676],[89.3,10761],[89.3,10843],[89.3,10927],[89.3,11008],[89.3,11087],[89.3,11178],[89.3,11253],[89.3,11341],[89.3,11424],[89.3,11509],[89.3,11591],[89.3,11676],[89.3,11759],[89.3,11841],[89.3,11923],[89.3,12008],[89.3,12092],[89.3,12176],[89.3,12259],[89.3,12339],[89.3,12424],[89.3,12509],[89.3,12588],[89.3,12674],[89.3,12758],[89.3,12842],[89.3,12926],[89.3,13003],[89.3,13093],[89.3,13178],[89.3,13258],[89.3,13341],[89.3,13424],[89.3,13509],[89.3,13592],[89.3,13680],[89.3,13763],[89.3,13847],[89.3,13930],[89.3,14008],[89.3,14091],[89.3,14176],[89.3,14258],[89.3,14342],[89.3,14426],[89.3,14513],[89.3,14597],[89.3,14680],[89.3,14763],[89.3,14847],[89.3,14930],[89.3,15013],[89.3,15097],[89.3,15180],[89.3,15255],[89.3,15341],[89.3,15428],[89.3,15505],[89.3,15591],[89.3,15674],[89.3,15758],[89.3,15838],[89.3,15926],[89.3,16014],[89.3,16096],[89.3,16180],[89.3,16259],[89.3,16341],[89.3,16424],[89.3,16511],[89.3,16591],[89.3,16676],[89.3,16755],[89.3,16844],[89.3,16927],[89.3,17004],[89.3,17091],[89.3,17176],[89.3,17261],[89.3,17341],[89.3,17420],[89.3,17509],[89.3,17588],[89.3,17674],[89.3,17758],[89.3,17841],[89.3,17926],[89.3,18008],[89.3,18088],[89.3,18176],[89.3,18258],[89.3,18344],[89.3,18425],[89.3,18508],[89.3,18594],[89.3,18675],[89.3,18762],[89.3,18844],[89.3,18926],[89.3,19008],[89.3,19091],[89.3,19175],[89.3,19261],[89.3,19342],[89.3,19424],[89.3,19508],[89.3,19591],[89.3,19680],[89.3,19764],[89.3,19846],[89.3,19930],[89.3,20009],[89.3,20093],[89.3,20174],[89.3,20260],[89.3,20339],[89.3,20425],[89.3,20508],[89.3,20587],[89.3,20680],[89.3,20763],[89.3,20846],[89.3,20929],[89.3,21014],[89.3,21096],[89.3,21179],[89.3,21263],[89.3,21346],[89.3,21431],[89.3,21513],[89.3,21596],[89.3,21680],[89.3,21764],[89.3,21846],[89.3,21930],[89.3,22014],[89.3,22097],[89.3,22180],[89.3,22264],[89.3,22346],[89.3,22430],[89.7,22515],[90,22597],[90.2,22680],[90.2,22763],[90.2,22847],[90.2,22925],[90.2,23009],[90.2,23096],[90.2,23176],[90.2,23258],[90.2,23342],[90.2,23428],[90.2,23509],[90.2,23591],[90.2,23678],[90.2,23758],[90.2,23842],[90.2,23926],[90.2,24008],[90.2,24094],[90.2,24166],[90.2,24259],[90.2,24341],[90.2,24427],[90.2,24508],[90.2,24594],[90.2,24672],[90.2,24761],[90.2,24837],[90.2,24930],[90.2,25014],[90.2,25097],[90.2,25174],[90.2,25258],[90.2,25342],[90.2,25422],[90.2,25507],[90.2,25592],[90.2,25677],[90.2,25758],[90.2,25845],[90.2,25916],[90.2,26011],[90.2,26091],[90.2,26175],[90.2,26258],[90.2,26339],[90.2,26427],[90.2,26509],[90.2,26595],[90.2,26675],[90.2,26759],[90.2,26841],[90.2,26925],[90.2,27007],[90.2,27092],[90.1,27176],[88.8,27258],[86.7,27346],[86.6,27428],[86.6,27508],[86.6,27594],[86.6,27677],[86.6,27759],[86.6,27840],[86.6,27916],[86.6,28008],[86.6,28092],[86.6,28177],[86.6,28259],[86.6,28341],[86.6,28428],[86.6,28508]]",957.4963,959.6027,89.05609449,1.5831,"[{""rating"":89.05609448750813,""responseTime"":1.5831000000015365}]",space,1.5341,,959.6027,Partially,50,959.6051,,,[],,0,11,11,11,1,audio/Narrative8Situation2.wav,audio/Narrative7Situation2.wav,audio/Narrative6Situation2.wav,audio/Narrative5Situation2.wav,3,3,3,3,,,,,,,,,,,,,,,,,,,,,,,,,,,,,,,,,,,,,,,
,,,,,651c4484ba17050f6b716614,2025-07-07_22h28.26.231,group3.4_multiperson,2023.2.2,Linux x86_64,59.88023952,686c2ebf0248f13bef9af11f,686c8e16d4b4414d5a6431f2,,,,,,,,,,,,,,,,,,,,,,,,,,,,,959.6055,2,audio/Narrative6Situation3.wav,964.6207,,964.6207,977.2376,"[[88.9,7095],[81,7175],[77.7,7259],[77.1,7339],[76.9,7425],[76.8,7506],[77,7595],[83.4,7676],[84.8,7756],[84.9,7844],[85.7,7925],[87.4,8005],[87.6,8092],[87.8,8175],[90.1,8262],[91,8343],[91.1,8425],[91.2,8506],[91.2,8591],[91.2,8675],[91.2,8761],[91.2,8842],[91.2,8928],[91.2,9011],[91.2,9094],[91.2,9175],[91.2,9259],[91.2,9347],[91.2,9430],[91.2,9508],[91.2,9593],[91.2,9671],[91.2,9755],[91.2,9844],[91.2,9924],[91.2,10009],[91.2,10095],[91.2,10175],[91.2,10259],[91.2,10342],[91.2,10425],[91.2,10506],[91.2,10591],[91.2,10674],[91.2,10755],[91.2,10841],[91.2,10925],[91.2,11004],[91.2,11092],[91.2,11175],[91.2,11260],[91.2,11343],[91.2,11426],[91.2,11510],[91.2,11592],[91.2,11679],[91.2,11763],[91.2,11844],[91.2,11925],[91.2,12008],[91.2,12092],[91.2,12177],[91.2,12255],[91.2,12341],[91.2,12429],[91.2,12508],[91.2,12593]]",977.2378,980.5711,90.70784251,2.3251,"[{""rating"":90.70784250895183,""responseTime"":2.3251000000014983}]",space,2.8007,,980.5712,Definitely yes,100,980.5752,,,[],,0,12,12,12,1,audio/Narrative8Situation3.wav,audio/Narrative7Situation3.wav,audio/Narrative6Situation3.wav,audio/Narrative5Situation3.wav,4,8,5,3,,,,,,,,,,,,,,,,,,,,,,,,,,,,,,,,,,,,,,,
,,,,,651c4484ba17050f6b716614,2025-07-07_22h28.26.231,group3.4_multiperson,2023.2.2,Linux x86_64,59.88023952,686c2ebf0248f13bef9af11f,686c8e16d4b4414d5a6431f2,,,,,,,,,,,,,,,,,,,,,,,,,,,,,980.5756,2,audio/Narrative6Situation4.wav,982.5876,,982.5877,995.2021,"[[90.1,5697],[90.3,5779],[86.5,6439],[85.5,6525],[85.4,6606],[85.4,6693],[85.4,6777],[85.4,6858],[85.4,6939],[85.4,7016],[85.4,7113],[85.4,7187],[85.4,7274],[85.4,7364],[85.4,7443],[85.4,7526],[85.4,7608],[85.4,7694],[85.4,7776],[85.4,7860],[85.4,7939],[85.4,8025],[85.4,8108],[85.4,8195],[85.4,8276],[85.4,8358],[85.4,8444],[85.4,8525],[85.4,8608],[85.4,8692],[85.4,8775],[85.4,8853],[85.4,8932],[85.4,9026],[85.4,9108],[85.4,9191],[85.4,9276],[85.4,9358],[85.4,9440],[85.4,9526],[85.4,9608],[85.4,9692],[85.4,9774],[85.4,9859],[85.4,9944],[85.4,10024],[85.4,10110],[85.4,10191],[85.4,10277],[88.5,10355],[90.7,10445],[91,10527],[91.1,10611],[91.1,10692],[91.1,10774],[91.1,10859],[91.1,10943],[91.1,11024],[91.1,11108],[91.1,11192],[91.1,11278],[91.1,11358],[91.1,11442],[91.1,11524],[91.1,11608],[91.1,11694],[91.1,11775],[91.1,11856],[91.1,11943],[91.1,12019],[91.1,12109],[91.1,12191],[91.1,12274],[91.1,12358],[91.1,12441],[91.1,12525],[91.1,12614]]",995.2023,996.8517,92.95042356,1.1672,"[{""rating"":92.95042355855306,""responseTime"":1.1672000000030494}]",space,1.0891,,996.8518,Not at all,0,996.8557,,,[],,0,13,13,13,1,audio/Narrative8Situation4.wav,audio/Narrative7Situation4.wav,audio/Narrative6Situation4.wav,audio/Narrative5Situation4.wav,3,3,2,1,,,,,,,,,,,,,,,,,,,,,,,,,,,,,,,,,,,,,,,
,,,,,651c4484ba17050f6b716614,2025-07-07_22h28.26.231,group3.4_multiperson,2023.2.2,Linux x86_64,59.88023952,686c2ebf0248f13bef9af11f,686c8e16d4b4414d5a6431f2,,,,,,,,,,,,,,,,,,,,,,,,,,,,,996.856,2,audio/Narrative6Situation5.wav,998.8709,,998.8709,1006.8312,"[[73.8,2281],[69.1,2358],[67.8,2446],[65.7,2527],[63.6,2610],[62.3,2692],[62,2775],[86.3,2860],[87.3,2943],[87.3,3026],[87.3,3108],[87.3,3191],[87.3,3276],[87.3,3360],[87.3,3443],[87.3,3524],[87.3,3610],[87.4,3689],[87.7,3778],[88.2,3856],[88.4,3938],[88.6,4028],[88.7,4105],[88.9,4192],[89.3,4276],[92,4359],[92.3,4439],[92.4,4527],[92.6,4609],[92.7,4695],[92.9,4771],[93,4860],[93.2,4943],[93.8,5024],[94.2,5108],[94.5,5196],[94.7,5277],[94.8,5360],[95,5440],[95.1,5523],[95.3,5610],[95.4,5692],[95.5,5766],[95.5,5861],[95.5,5937],[95.5,6024],[95.5,6109],[95.5,6192],[95.5,6278],[95.5,6360],[95.5,6442],[95.5,6525],[95.5,6610],[95.5,6683],[95.5,6775],[95.5,6858],[95.5,6945],[95.5,7023],[95.5,7111],[95.6,7191],[95.6,7273],[95.6,7360],[95.6,7443],[95.7,7525],[95.7,7609],[95.7,7693],[95.7,7775],[95.7,7859],[95.7,7941]]",1006.8313,1008.3216,95.55400213,1.0479,"[{""rating"":95.55400212605794,""responseTime"":1.0478999999984353}]",space,0.9435,,1008.3217,Partially,50,1008.3254,,,[],,0,14,14,14,1,audio/Narrative8Situation5.wav,audio/Narrative7Situation5.wav,audio/Narrative6Situation5.wav,audio/Narrative5Situation5.wav,2,5,2,5,,,,,,,,,,,,,,,,,,,,,,,,,,,,,,,,,,,,,,,
,,,,,651c4484ba17050f6b716614,2025-07-07_22h28.26.231,group3.4_multiperson,2023.2.2,Linux x86_64,59.88023952,686c2ebf0248f13bef9af11f,686c8e16d4b4414d5a6431f2,,,,,,,,,,,,,,,,,,,,,,,,,,,,,1008.3257,2,audio/Narrative6Situation6.wav,1010.3295,,1010.3296,1021.3994,"[[89.5,1270],[62.8,1350],[55.4,1432],[52.7,1517],[51.5,1602],[51.4,1683],[51.3,1766],[51.3,1851],[51.3,1936],[51.3,2016],[51.3,2102],[51.3,2183],[51.3,2267],[51.3,2346],[51.3,2429],[51.3,2513],[51.3,2602],[51.3,2682],[51.3,2763],[51.3,2847],[51.3,2933],[51.3,3016],[51.3,3099],[51.3,3186],[51.3,3258],[51.3,3346],[51.3,3432],[51.3,3517],[51.3,3600],[51.3,3684],[51.3,3766],[51.3,3846],[51.3,3936],[51.3,4019],[51.3,4102],[51.3,4183],[51.9,4268],[54.4,4352],[55.9,4432],[57.4,4517],[60.2,4598],[62.3,4684],[62.5,4767],[62.5,4849],[62.5,4932],[86.8,5019],[87.4,5097],[87.9,5186],[88.1,5267],[88.3,5350],[88.4,5433],[88.4,5517],[88.9,5600],[90.1,5687],[90.3,5769],[90.4,5852],[90.5,5935],[90.5,6013],[90.5,6097],[90.6,6187],[91.4,6268],[92.4,6352],[92.8,6433],[92.9,6517],[93,6603],[93,6683],[93,6770],[93,6853],[93,6934],[93,7016],[93,7101],[93,7180],[93,7269],[93,7352],[93,7434],[93,7517],[93,7599],[93,7683],[93,7766],[93,7851],[93,7924],[93,8019],[93,8099],[93,8183],[93,8266],[93,8349],[93,8430],[93,8517],[93,8599],[93,8683],[93,8766],[93,8849],[93,8934],[93,9014],[93,9101],[93,9185],[93,9258],[93,9350],[93,9433],[93,9516],[93,9597],[93.2,9683],[93.3,9769],[93.5,9853],[93.5,9936],[93.6,10017],[93.7,10096],[93.7,10185],[93.7,10269],[93.8,10350],[93.8,10436],[93.8,10516],[93.8,10602],[93.8,10683],[93.8,10766],[93.8,10852],[93.8,10933],[93.8,11016]]",1021.3996,1022.9346,93.77814929,0.8153,"[{""rating"":93.77814928690593,""responseTime"":0.8152999999970234}]",space,0.9729,,1022.9346,Partially,50,1022.9369,,,[],,0,15,15,15,1,audio/Narrative8Situation6.wav,audio/Narrative7Situation6.wav,audio/Narrative6Situation6.wav,audio/Narrative5Situation6.wav,2,3,2,3,,,,,,,,,,,,,,,,,,,,,,,,,,,,,,,,,,,,,,,
,,,,,651c4484ba17050f6b716614,2025-07-07_22h28.26.231,group3.4_multiperson,2023.2.2,Linux x86_64,59.88023952,686c2ebf0248f13bef9af11f,686c8e16d4b4414d5a6431f2,,,,,,,,,,,,,,,,,,,,,,,,,,,,,1022.9372,2,audio/Narrative6Situation7.wav,1027.9376,,1027.9377,1052.8045,"[[89.6,1095],[87.4,1177],[86.6,1255],[84.4,1345],[73.1,1511],[59.9,1595],[54.6,1677],[47.7,1760],[44,1845],[43.8,1925],[43.7,2008],[43.7,2093],[43.7,2179],[43.7,2261],[44.1,2346],[51,2426],[53.8,2509],[58.1,2594],[61.8,2678],[62.2,2760],[62.3,2844],[62.4,2926],[63.4,3002],[71.2,3092],[72.3,3175],[72.6,3256],[72.7,3341],[72.7,3426],[72.7,3509],[72.7,3589],[72.7,3676],[72.7,3760],[72.7,3843],[59.6,3925],[52.8,4012],[52.7,4092],[52.6,4178],[51.7,4259],[43.6,4345],[43.4,4427],[43.3,4509],[43.4,4594],[51.6,4676],[51.8,4758],[51.8,4845],[51.3,4927],[50.5,5011],[50.3,5094],[50,5176],[17.6,5760],[17.3,5845],[17.2,5923],[17,6010],[16.4,6088],[16.2,6182],[16.1,6257],[16.1,6343],[16.1,6423],[16.1,6509],[16.1,6587],[16.1,6677],[19.5,6760],[20.4,6847],[20.4,6926],[20.4,7004],[30.3,7093],[48.1,7928],[48.6,8010],[49.6,8093],[50.4,8179],[50.4,8259],[50.4,8341],[50.4,8418],[50.4,8508],[50.4,8587],[50.4,8678],[50.4,8758],[50.4,8845],[50.4,8925],[51.5,9014],[55.5,9097],[55.8,9182],[55.9,9264],[56.1,9347],[56.2,9431],[56.4,9514],[56.6,9597],[63.8,9682],[64.7,9764],[64.7,9863],[64.7,9943],[64.7,10016],[64.7,10099],[64.7,10183],[64.7,10266],[64.7,10349],[64.7,10446],[64.7,10516],[64.7,10599],[64.7,10683],[64.7,10766],[64.7,10849],[64.7,10933],[64.7,11016],[64.7,11099],[64.7,11183],[64.7,11266],[64.7,11349],[64.7,11433],[64.7,11516],[64.7,11599],[64.7,11696],[64.7,11773],[64.7,11849],[64.7,11933],[64.7,12030],[64.7,12113],[64.7,12183],[64.7,12266],[64.7,12349],[64.7,12433],[64.7,12516],[64.7,12613],[64.7,12688],[64.7,12779],[64.7,12862],[64.8,12947],[66.1,13020],[70.3,13100],[74,13186],[75.5,13275],[76.7,13360],[77.5,13447],[77.8,13530],[77.8,13599],[77.8,13689],[77.8,13766],[77.8,13863],[77.8,13933],[77.8,14016],[77.8,14099],[77.8,14183],[77.8,14274],[77.8,14350],[77.8,14441],[77.8,14516],[77.8,14599],[77.8,14683],[77.8,14766],[77.8,14862],[77.8,14933],[77.8,15016],[78,15114],[78.2,15183],[78.5,15272],[78.6,15365],[78.8,15433],[78.8,15516],[78.8,15613],[78.9,15697],[78.9,15776],[78.9,15857],[79,15948],[79.2,16025],[79.5,16114],[79.7,16183],[79.9,16282],[80,16350],[80.1,16433],[80.1,16516],[80.1,16599],[80.1,16683],[80.1,16766],[80.1,16849],[80.1,16933],[80.1,17016],[80.2,17099],[80.2,17183],[80.2,17266],[80.2,17350],[80.2,17433],[80.2,17516],[80.2,17599],[80.2,17683],[80.2,17766],[80.2,17850],[80.2,17933],[80.2,18016],[80.2,18099],[80.2,18183],[80.2,18266],[80.2,18350],[80.2,18433],[80.2,18516],[80.2,18599],[80.2,18683],[80.2,18766],[80.2,18850],[80.2,18933],[80.2,19016],[80.2,19099],[80.2,19183],[80.2,19266],[80.2,19349],[80.2,19433],[80.2,19516],[80.2,19600],[80.2,19683],[80.2,19766],[80.2,19849],[80.2,19933],[80.2,20016],[80.2,20100],[80.2,20183],[80.3,20266],[80.3,20349],[80.3,20433],[80.3,20516],[80.3,20600],[80.3,20683],[80.3,20766],[80.3,20849],[80.3,20933],[80.3,21016],[80.3,21100],[80.3,21183],[80.3,21266],[80.3,21350],[80.3,21433],[80.3,21516],[80.3,21599],[80.3,21682],[80.3,21766],[80.3,21850],[80.3,21933],[80.3,22016],[80.3,22099],[80.3,22183],[80.3,22266],[80.3,22349],[80.3,22433],[80.3,22516],[80.3,22600],[80.3,22683],[80.3,22766],[80.3,22850],[80.3,22933],[80.3,23016],[80.3,23100],[80.3,23183],[80.3,23266],[80.3,23349],[80.3,23433],[80.3,23516],[80.3,23599],[80.3,23683],[80.3,23766],[80.3,23850],[80.3,23933],[80.3,24016],[80.3,24099],[80.3,24183],[80.3,24266],[80.3,24350],[80.3,24433],[80.3,24516],[80.3,24600],[80.3,24683],[80.3,24766],[80.3,24850]]",1052.8047,1059.188,92.63504346,5.8951,"[{""rating"":92.63504346211751,""responseTime"":5.895100000001548}]",space,5.8375,,1059.1881,Not at all,0,1059.1916,,,[],,0,16,16,16,1,audio/Narrative8Situation7.wav,audio/Narrative7Situation7.wav,audio/Narrative6Situation7.wav,audio/Narrative5Situation7.wav,3,5,5,4,,,,,,,,,,,,,,,,,,,,,,,,,,,,,,,,,,,,,,,
