consent.started,consent.stopped,consentResponse.keys,consentResponse.rt,consentResponse.duration,participantID,date,expName,psychopyVersion,OS,frameRate,STUDY_ID,SESSION_ID,opening1.started,opening1.stopped,keyEndingOpening1.keys,keyEndingOpening1.rt,keyEndingOpening1.duration,volumeAdjust.started,volumeAdjust.stopped,endingAdjust.keys,endingAdjust.rt,endingAdjust.duration,opening2.started,opening2.stopped,keyEndingOpening.keys,keyEndingOpening.rt,keyEndingOpening.duration,mouse.x,mouse.y,mouse.leftButton,mouse.midButton,mouse.rightButton,mouse.time,instructionLoop.thisRepN,instructionLoop.thisTrialN,instructionLoop.thisN,instructionLoop.thisIndex,instructionLoop.ran,readyForAudio.started,readyForAudio.stopped,fixation.started,run,audio_played,fixation.stopped,endPractice.keys,audioPre.started,audioPre.stopped,continuousResponses_audio,intRating.started,intRating.stopped,intQuestionSlider.response,intQuestionSlider.rt,intQuestionSlider.history,confirmResponse.keys,confirmResponse.rt,confirmResponse.duration,catchQuestion.started,catch_label,catch_value,catchQuestion.stopped,catchQuestionSlider.response,catchQuestionSlider.rt,catchQuestionSlider.history,confirmResponse_2.keys,audioRunLoop.thisRepN,audioRunLoop.thisTrialN,audioRunLoop.thisN,audioRunLoop.thisIndex,audioRunLoop.ran,conditions1_1,conditions2_1,conditions1_2,conditions2_2,dur1_1,dur2_1,dur1_2,dur2_2,endPractice.rt,endPractice.duration,confirmResponse_2.rt,confirmResponse_2.duration,runIntervalBreak.started,runIntervalBreak.stopped,endingBreakKey.keys,endingBreakKey.rt,endingBreakKey.duration,connection.started,connection.stopped,connectionEnding.keys,connectionEnding.rt,connectionEnding.duration,readyForText.started,readyForText.stopped,textPre.started,run_dup,textPre.stopped,continuousResponses_text,textRunLoop.thisRepN,textRunLoop.thisTrialN,textRunLoop.thisN,textRunLoop.thisIndex,textRunLoop.ran,text1_1,text1_2,text2_1,text2_2,runBreakText.started,runBreakText.stopped,endingBreakKey_2.keys,endingBreakKey_2.rt,endingBreakKey_2.duration,ending.started,ending.stopped,endingEnding.keys,endingEnding.rt,endingEnding.duration
0.0002,43.8028,y,43.4933,,65d563ecf8df20ade2f17888,2025-07-07_19h47.12.857,group3.4_multiperson,2023.2.2,MacIntel,136.9863014,686c2ebf0248f13bef9af11f,686c855a210d7ca4fd51d7ab,,,,,,,,,,,,,,,,,,,,,,,,,,,,,,,,,,,,,,,,,,,,,,,,,,,,,,,,,,,,,,,,,,,,,,,,,,,,,,,,,,,,,,,,,,,,,,,,,,,,,,,,
,,,,,65d563ecf8df20ade2f17888,2025-07-07_19h47.12.857,group3.4_multiperson,2023.2.2,MacIntel,136.9863014,686c2ebf0248f13bef9af11f,686c855a210d7ca4fd51d7ab,43.8029,52.2864,space,8.4707,,,,,,,,,,,,,,,,,,,,,,,,,,,,,,,,,,,,,,,,,,,,,,,,,,,,,,,,,,,,,,,,,,,,,,,,,,,,,,,,,,,,,,,,,,,,,,,,,,,,
,,,,,65d563ecf8df20ade2f17888,2025-07-07_19h47.12.857,group3.4_multiperson,2023.2.2,MacIntel,136.9863014,686c2ebf0248f13bef9af11f,686c855a210d7ca4fd51d7ab,,,,,,52.2865,90.8443,space,38.2463,,,,,,,,,,,,,,,,,,,,,,,,,,,,,,,,,,,,,,,,,,,,,,,,,,,,,,,,,,,,,,,,,,,,,,,,,,,,,,,,,,,,,,,,,,,,,,,
,,,,,65d563ecf8df20ade2f17888,2025-07-07_19h47.12.857,group3.4_multiperson,2023.2.2,MacIntel,136.9863014,686c2ebf0248f13bef9af11f,686c855a210d7ca4fd51d7ab,,,,,,,,,,,90.847,126.2358,space,35.3805,,[],[],[],[],[],[],0,0,0,0,1,,,,,,,,,,,,,,,,,,,,,,,,,,,,,,,,,,,,,,,,,,,,,,,,,,,,,,,,,,,,,,,,,,,,,,,,,,,,,,
,,,,,65d563ecf8df20ade2f17888,2025-07-07_19h47.12.857,group3.4_multiperson,2023.2.2,MacIntel,136.9863014,686c2ebf0248f13bef9af11f,686c855a210d7ca4fd51d7ab,,,,,,,,,,,126.2363,178.8558,space,52.5819,,[],[],[],[],[],[],1,0,1,0,1,,,,,,,,,,,,,,,,,,,,,,,,,,,,,,,,,,,,,,,,,,,,,,,,,,,,,,,,,,,,,,,,,,,,,,,,,,,,,,
,,,,,65d563ecf8df20ade2f17888,2025-07-07_19h47.12.857,group3.4_multiperson,2023.2.2,MacIntel,136.9863014,686c2ebf0248f13bef9af11f,686c855a210d7ca4fd51d7ab,,,,,,,,,,,178.856,199.6474,space,20.7763,,[],[],[],[],[],[],2,0,2,0,1,,,,,,,,,,,,,,,,,,,,,,,,,,,,,,,,,,,,,,,,,,,,,,,,,,,,,,,,,,,,,,,,,,,,,,,,,,,,,,
,,,,,65d563ecf8df20ade2f17888,2025-07-07_19h47.12.857,group3.4_multiperson,2023.2.2,MacIntel,136.9863014,686c2ebf0248f13bef9af11f,686c855a210d7ca4fd51d7ab,,,,,,,,,,,199.6478,253.9383,p,54.2759,,[],[],[],[],[],[],3,0,3,0,1,,,,,,,,,,,,,,,,,,,,,,,,,,,,,,,,,,,,,,,,,,,,,,,,,,,,,,,,,,,,,,,,,,,,,,,,,,,,,,
,,,,,65d563ecf8df20ade2f17888,2025-07-07_19h47.12.857,group3.4_multiperson,2023.2.2,MacIntel,136.9863014,686c2ebf0248f13bef9af11f,686c855a210d7ca4fd51d7ab,,,,,,,,,,,253.9385,254.3134,p,0.3586,,[],[],[],[],[],[],4,0,4,0,1,,,,,,,,,,,,,,,,,,,,,,,,,,,,,,,,,,,,,,,,,,,,,,,,,,,,,,,,,,,,,,,,,,,,,,,,,,,,,,
,,,,,65d563ecf8df20ade2f17888,2025-07-07_19h47.12.857,group3.4_multiperson,2023.2.2,MacIntel,136.9863014,686c2ebf0248f13bef9af11f,686c855a210d7ca4fd51d7ab,,,,,,,,,,,254.3135,269.8969,space,15.5679,,[],[],[],[],[],[],5,0,5,0,1,,,,,,,,,,,,,,,,,,,,,,,,,,,,,,,,,,,,,,,,,,,,,,,,,,,,,,,,,,,,,,,,,,,,,,,,,,,,,,
,,,,,65d563ecf8df20ade2f17888,2025-07-07_19h47.12.857,group3.4_multiperson,2023.2.2,MacIntel,136.9863014,686c2ebf0248f13bef9af11f,686c855a210d7ca4fd51d7ab,,,,,,,,,,,269.8973,289.2382,space,19.3184,,[],[],[],[],[],[],6,0,6,0,1,,,,,,,,,,,,,,,,,,,,,,,,,,,,,,,,,,,,,,,,,,,,,,,,,,,,,,,,,,,,,,,,,,,,,,,,,,,,,,
,,,,,65d563ecf8df20ade2f17888,2025-07-07_19h47.12.857,group3.4_multiperson,2023.2.2,MacIntel,136.9863014,686c2ebf0248f13bef9af11f,686c855a210d7ca4fd51d7ab,,,,,,,,,,,289.2383,360.946,space,71.6976,,[],[],[],[],[],[],7,0,7,0,1,,,,,,,,,,,,,,,,,,,,,,,,,,,,,,,,,,,,,,,,,,,,,,,,,,,,,,,,,,,,,,,,,,,,,,,,,,,,,,
,,,,,65d563ecf8df20ade2f17888,2025-07-07_19h47.12.857,group3.4_multiperson,2023.2.2,MacIntel,136.9863014,686c2ebf0248f13bef9af11f,686c855a210d7ca4fd51d7ab,,,,,,,,,,,360.9464,429.1869,space,68.2276,,[],[],[],[],[],[],8,0,8,0,1,,,,,,,,,,,,,,,,,,,,,,,,,,,,,,,,,,,,,,,,,,,,,,,,,,,,,,,,,,,,,,,,,,,,,,,,,,,,,,
,,,,,65d563ecf8df20ade2f17888,2025-07-07_19h47.12.857,group3.4_multiperson,2023.2.2,MacIntel,136.9863014,686c2ebf0248f13bef9af11f,686c855a210d7ca4fd51d7ab,,,,,,,,,,,429.187,457.1628,space,27.9649,,[],[],[],[],[],[],9,0,9,0,1,,,,,,,,,,,,,,,,,,,,,,,,,,,,,,,,,,,,,,,,,,,,,,,,,,,,,,,,,,,,,,,,,,,,,,,,,,,,,,
,,,,,65d563ecf8df20ade2f17888,2025-07-07_19h47.12.857,group3.4_multiperson,2023.2.2,MacIntel,136.9863014,686c2ebf0248f13bef9af11f,686c855a210d7ca4fd51d7ab,,,,,,,,,,,,,,,,,,,,,,,,,,,457.1673,459.7453,459.7658,1,audio/Narrative13Situation2.wav,461.7699,,461.77,491.5118,"[[999,1],[999,109],[999,199],[999,291],[999,383],[999,475],[999,567],[999,658],[999,749],[999,841],[999,933],[999,1024],[999,1116],[999,1208],[999,1299],[999,1391],[999,1483],[999,1574],[999,1665],[999,1757],[999,1848],[999,1940],[999,2033],[999,2124],[999,2216],[999,2308],[999,2399],[999,2491],[999,2582],[999,2675],[999,2766],[999,2858],[999,2948],[999,3041],[999,3133],[999,3224],[999,3316],[999,3408],[999,3500],[999,3592],[999,3683],[999,3774],[999,3866],[999,3958],[999,4050],[999,4141],[999,4233],[999,4323],[999,4416],[999,4508],[999,4599],[999,4690],[999,4783],[999,4874],[999,4966],[999,5058],[999,5149],[999,5241],[999,5335],[999,5425],[999,5516],[999,5608],[999,5699],[999,5790],[999,5883],[999,5974],[999,6066],[999,6158],[999,6249],[999,6341],[999,6432],[999,6524],[999,6616],[999,6707],[999,6799],[999,6891],[999,6983],[999,7074],[999,7166],[999,7257],[999,7349],[999,7441],[999,7533],[999,7624],[999,7716],[999,7807],[999,7900],[999,7991],[999,8083],[999,8174],[999,8266],[999,8358],[999,8449],[999,8541],[999,8633],[999,8725],[999,8817],[999,8908],[999,8999],[999,9090],[999,9183],[999,9274],[999,9366],[999,9458],[999,9549],[999,9641],[999,9733],[999,9824],[999,9916],[999,10007],[999,10098],[999,10191],[999,10283],[999,10375],[999,10466],[999,10558],[999,10649],[999,10741],[999,10833],[999,10924],[999,11016],[999,11107],[999,11199],[999,11291],[999,11382],[999,11474],[999,11566],[999,11658],[999,11748],[999,11841],[999,11932],[999,12024],[999,12116],[999,12208],[999,12299],[999,12391],[999,12483],[999,12574],[999,12666],[999,12758],[999,12850],[999,12941],[999,13033],[999,13125],[999,13216],[999,13308],[999,13399],[999,13492],[999,13583],[999,13675],[999,13766],[999,13858],[999,13950],[999,14041],[999,14133],[999,14224],[999,14316],[999,14408],[999,14499],[999,14591],[999,14684],[999,14774],[999,14866],[999,14958],[999,15049],[999,15141],[999,15233],[999,15324],[999,15417],[999,15508],[999,15599],[999,15690],[999,15783],[999,15874],[999,15966],[999,16057],[999,16149],[999,16241],[999,16333],[999,16424],[999,16515],[999,16608],[999,16699],[999,16791],[999,16882],[999,16974],[999,17066],[999,17157],[999,17249],[999,17341],[999,17432],[999,17524],[999,17616],[999,17708],[999,17799],[999,17890],[999,17983],[999,18074],[999,18166],[999,18257],[999,18350],[999,18441],[999,18533],[999,18624],[999,18716],[999,18807],[999,18899],[999,18991],[999,19083],[999,19174],[999,19266],[999,19358],[999,19449],[999,19541],[999,19633],[999,19723],[999,19816],[999,19908],[999,20000],[999,20091],[999,20182],[999,20274],[999,20365],[999,20458],[999,20550],[999,20641],[999,20732],[999,20824],[999,20915],[999,21007],[999,21099],[999,21190],[999,21281],[999,21373],[999,21466],[999,21557],[999,21649],[999,21741],[999,21831],[999,21924],[999,22016],[999,22108],[999,22199],[999,22291],[999,22382],[999,22474],[999,22566],[999,22657],[999,22749],[999,22840],[999,22932],[999,23024],[999,23116],[999,23207],[999,23299],[999,23390],[999,23482],[999,23574],[999,23666],[999,23758],[999,23848],[999,23941],[999,24033],[999,24124],[999,24216],[999,24307],[999,24398],[999,24490],[999,24582],[999,24674],[999,24766],[999,24857],[999,24949],[999,25041],[999,25133],[999,25225],[999,25316],[999,25408],[999,25500],[999,25592],[999,25682],[999,25774],[999,25866],[999,25958],[999,26049],[999,26141],[999,26232],[999,26324],[999,26416],[999,26507],[999,26599],[999,26690],[999,26782],[999,26874],[999,26966],[999,27057],[999,27149],[999,27241],[999,27332],[999,27424],[999,27516],[999,27607],[999,27699],[999,27791],[999,27882],[999,27974],[999,28067],[999,28159],[999,28249],[999,28341],[999,28433],[999,28524],[999,28616],[999,28707],[999,28799],[999,28891],[999,28984],[999,29074],[999,29166],[999,29257],[999,29349],[999,29441],[999,29532],[999,29623],[999,29716]]",491.512,501.4203,0.209705356,7.143,"[{""rating"":0.2097053561965101,""responseTime"":7.143000000000029}]",space,9.3834,,501.4209,Not at all,0,501.4253,,,[],,0,0,0,0,1,audio/Narrative13Situation2.wav,audio/Narrative13Situation2.wav,audio/Narrative13Situation2.wav,audio/Narrative13Situation2.wav,2,2,2,2,,,,,,,,,,,,,,,,,,,,,,,,,,,,,,,,,,,,,,,
,,,,,65d563ecf8df20ade2f17888,2025-07-07_19h47.12.857,group3.4_multiperson,2023.2.2,MacIntel,136.9863014,686c2ebf0248f13bef9af11f,686c855a210d7ca4fd51d7ab,,,,,,,,,,,,,,,,,,,,,,,,,,,,,501.4256,1,audio/Narrative7Situation1.wav,513.4279,space,513.4279,569.3023,[],569.3024,583.9188,99.91889456,9.8655,"[{""rating"":99.91889455585417,""responseTime"":9.865499999999997}]",space,14.0966,,583.9188,Definitely yes,100,583.92,,,[],,0,1,1,1,1,audio/Narrative7Situation1.wav,audio/Narrative8Situation1.wav,audio/Narrative5Situation1.wav,audio/Narrative6Situation1.wav,2,5,5,2,11.9894,,,,,,,,,,,,,,,,,,,,,,,,,,,,,,,,,,,,,,
,,,,,65d563ecf8df20ade2f17888,2025-07-07_19h47.12.857,group3.4_multiperson,2023.2.2,MacIntel,136.9863014,686c2ebf0248f13bef9af11f,686c855a210d7ca4fd51d7ab,,,,,,,,,,,,,,,,,,,,,,,,,,,,,583.9201,1,audio/Narrative7Situation2.wav,586.9273,,586.9273,594.3938,[],594.3939,606.637,50.02529759,9.665,"[{""rating"":50.02529758928641,""responseTime"":9.665000000000077}]",space,11.7191,,606.637,Not at all,0,606.6399,,,[],,0,2,2,2,1,audio/Narrative7Situation2.wav,audio/Narrative8Situation2.wav,audio/Narrative5Situation2.wav,audio/Narrative6Situation2.wav,3,3,3,3,,,,,,,,,,,,,,,,,,,,,,,,,,,,,,,,,,,,,,,
,,,,,65d563ecf8df20ade2f17888,2025-07-07_19h47.12.857,group3.4_multiperson,2023.2.2,MacIntel,136.9863014,686c2ebf0248f13bef9af11f,686c855a210d7ca4fd51d7ab,,,,,,,,,,,,,,,,,,,,,,,,,,,,,606.6402,1,audio/Narrative7Situation3.wav,614.6446,,614.6447,623.8851,[],623.8852,636.7349,0.002061971,8.2787,"[{""rating"":0.002061971005623553,""responseTime"":8.278700000047593}]",space,12.3288,,636.735,Partially,50,636.7375,,,[],,0,3,3,3,1,audio/Narrative7Situation3.wav,audio/Narrative8Situation3.wav,audio/Narrative5Situation3.wav,audio/Narrative6Situation3.wav,8,4,3,5,,,,,,,,,,,,,,,,,,,,,,,,,,,,,,,,,,,,,,,
,,,,,65d563ecf8df20ade2f17888,2025-07-07_19h47.12.857,group3.4_multiperson,2023.2.2,MacIntel,136.9863014,686c2ebf0248f13bef9af11f,686c855a210d7ca4fd51d7ab,,,,,,,,,,,,,,,,,,,,,,,,,,,,,636.7377,1,audio/Narrative7Situation4.wav,639.7428,,639.743,651.4524,"[[999,1],[999,92],[999,182],[999,274],[999,366],[999,458],[999,550],[999,641],[999,734],[999,825],[999,917],[999,1009],[999,1100],[999,1192],[999,1283],[999,1375],[999,1467],[999,1558],[999,1651],[999,1741],[999,1833],[999,1925],[999,2017],[999,2108],[999,2200],[999,2292],[999,2383],[999,2475],[999,2567],[999,2659],[999,2749],[999,2841],[999,2933],[999,3025],[999,3116],[999,3208],[999,3300],[999,3391],[999,3483],[999,3575],[999,3666],[999,3758],[999,3850],[999,3941],[999,4033],[999,4125],[999,4216],[999,4308],[999,4400],[999,4491],[999,4583],[999,4675],[999,4766],[999,4859],[999,4950],[999,5042],[999,5133],[999,5225],[999,5316],[999,5408],[999,5500],[999,5591],[999,5684],[999,5774],[999,5866],[999,5958],[999,6050],[999,6142],[999,6233],[999,6326],[999,6417],[999,6508],[999,6600],[999,6692],[999,6783],[999,6875],[999,6967],[999,7059],[999,7150],[999,7242],[999,7333],[999,7425],[999,7517],[999,7608],[999,7700],[999,7791],[999,7883],[999,7975],[999,8066],[999,8157],[999,8250],[999,8341],[999,8433],[999,8525],[999,8616],[999,8708],[999,8800],[999,8891],[999,8983],[999,9075],[999,9166],[999,9258],[999,9350],[999,9441],[999,9533],[999,9625],[999,9716],[999,9808],[999,9900],[999,9991],[999,10083],[999,10175],[999,10266],[999,10358],[999,10450],[999,10542],[999,10633],[999,10726],[999,10817],[999,10908],[999,11000],[999,11092],[999,11184],[999,11275],[999,11367],[999,11458],[999,11550],[999,11642]]",651.4528,656.1531,0.258259471,3.3773,"[{""rating"":0.25825947119165193,""responseTime"":3.3772999999523563}]",space,4.1738,,656.1532,Not at all,0,656.1577,,,[],,0,4,4,4,1,audio/Narrative7Situation4.wav,audio/Narrative8Situation4.wav,audio/Narrative5Situation4.wav,audio/Narrative6Situation4.wav,3,3,1,2,,,,,,,,,,,,,,,,,,,,,,,,,,,,,,,,,,,,,,,
,,,,,65d563ecf8df20ade2f17888,2025-07-07_19h47.12.857,group3.4_multiperson,2023.2.2,MacIntel,136.9863014,686c2ebf0248f13bef9af11f,686c855a210d7ca4fd51d7ab,,,,,,,,,,,,,,,,,,,,,,,,,,,,,656.1578,1,audio/Narrative7Situation5.wav,661.159,,661.1591,669.6265,[],669.6266,680.2765,50.55938922,9.3231,"[{""rating"":99.5490566743234,""responseTime"":5.407300000071473},{""rating"":50.559389222389484,""responseTime"":9.323100000023828}]",space,10.1264,,680.2766,Definitely yes,100,680.2791,,,[],,0,5,5,5,1,audio/Narrative7Situation5.wav,audio/Narrative8Situation5.wav,audio/Narrative5Situation5.wav,audio/Narrative6Situation5.wav,5,2,5,2,,,,,,,,,,,,,,,,,,,,,,,,,,,,,,,,,,,,,,,
,,,,,65d563ecf8df20ade2f17888,2025-07-07_19h47.12.857,group3.4_multiperson,2023.2.2,MacIntel,136.9863014,686c2ebf0248f13bef9af11f,686c855a210d7ca4fd51d7ab,,,,,,,,,,,,,,,,,,,,,,,,,,,,,680.2793,1,audio/Narrative7Situation6.wav,683.2846,,683.2846,693.2429,[],693.243,696.1181,99.78303456,1.7122,"[{""rating"":99.78303455632253,""responseTime"":1.7122000000476874}]",space,2.3544,,696.1181,Definitely yes,100,696.12,,,[],,0,6,6,6,1,audio/Narrative7Situation6.wav,audio/Narrative8Situation6.wav,audio/Narrative5Situation6.wav,audio/Narrative6Situation6.wav,3,2,3,2,,,,,,,,,,,,,,,,,,,,,,,,,,,,,,,,,,,,,,,
,,,,,65d563ecf8df20ade2f17888,2025-07-07_19h47.12.857,group3.4_multiperson,2023.2.2,MacIntel,136.9863014,686c2ebf0248f13bef9af11f,686c855a210d7ca4fd51d7ab,,,,,,,,,,,,,,,,,,,,,,,,,,,,,696.1204,1,audio/Narrative7Situation7.wav,701.1266,,701.1267,718.2843,[],718.2844,721.56,99.61052199,2.6454,"[{""rating"":99.6105219927599,""responseTime"":2.645399999976121}]",space,2.7542,,721.5601,Definitely yes,100,721.564,,,[],,0,7,7,7,1,audio/Narrative7Situation7.wav,audio/Narrative8Situation7.wav,audio/Narrative5Situation7.wav,audio/Narrative6Situation7.wav,5,3,4,5,,,,,,,,,,,,,,,,,,,,,,,,,,,,,,,,,,,,,,,
,,,,,65d563ecf8df20ade2f17888,2025-07-07_19h47.12.857,group3.4_multiperson,2023.2.2,MacIntel,136.9863014,686c2ebf0248f13bef9af11f,686c855a210d7ca4fd51d7ab,,,,,,,,,,,,,,,,,,,,,,,,,,,,,721.5642,1,audio/Narrative7Situation8.wav,723.5676,,723.5677,733.5754,[],733.5754,737.251,99.61052199,2.8559,"[{""rating"":99.6105219927599,""responseTime"":2.8558999999761454}]",space,3.1613,,737.2511,Not at all,0,737.2536,,,[],,0,8,8,8,1,audio/Narrative7Situation8.wav,audio/Narrative8Situation8.wav,audio/Narrative5Situation8.wav,audio/Narrative6Situation8.wav,2,3,3,5,,,,,,,,,,,,,,,,,,,,,,,,,,,,,,,,,,,,,,,
,,,,,65d563ecf8df20ade2f17888,2025-07-07_19h47.12.857,group3.4_multiperson,2023.2.2,MacIntel,136.9863014,686c2ebf0248f13bef9af11f,686c855a210d7ca4fd51d7ab,,,,,,,,,,,,,,,,,,,,,,,,,,,,,737.254,1,audio/Narrative7Situation9.wav,739.2591,,739.2591,747.8674,[],747.8675,751.3097,99.61052199,2.5276,"[{""rating"":99.6105219927599,""responseTime"":2.5276000000237673}]",space,2.9229,,751.3098,Definitely yes,100,766.8512,99.9271461,4.9365,"[{""rating"":99.92714610415763,""responseTime"":4.936500000000024}]",space,0,9,9,9,1,audio/Narrative7Situation9.wav,audio/Narrative8Situation9.wav,audio/Narrative5Situation9.wav,audio/Narrative6Situation9.wav,2,3,3,4,,,15.0187,,,,,,,,,,,,,,,,,,,,,,,,,,,,,,,,,,,,
,,,,,65d563ecf8df20ade2f17888,2025-07-07_19h47.12.857,group3.4_multiperson,2023.2.2,MacIntel,136.9863014,686c2ebf0248f13bef9af11f,686c855a210d7ca4fd51d7ab,,,,,,,,,,,,,,,,,,,,,,,,,,,,,766.852,1,audio/Narrative8Situation1.wav,771.8595,,771.8596,787.7754,"[[999,1],[999,90],[999,182],[999,273],[999,365],[999,457],[999,549],[999,641],[999,732],[999,824],[999,914],[999,1007],[999,1098],[999,1189],[999,1282],[999,1373],[999,1465],[999,1557],[999,1649],[999,1740],[999,1832],[999,1923],[999,2015],[999,2106],[999,2198],[999,2290],[999,2382],[999,2473],[999,2564],[999,2657],[999,2749],[999,2840],[999,2932],[999,3023],[999,3115],[999,3206],[999,3299],[999,3390],[999,3482],[999,3573],[999,3666],[999,3757],[999,3849],[999,3941],[999,4032],[999,4124],[999,4215],[999,4307],[999,4399],[999,4490],[999,4581],[999,4674],[999,4764],[999,4857],[999,4950],[999,5040],[999,5132],[999,5224],[999,5316],[999,5406],[999,5499],[999,5590],[999,5682],[999,5773],[999,5865],[999,5957],[999,6049],[999,6140],[999,6232],[999,6323],[999,6415],[999,6507],[999,6599],[999,6690],[999,6782],[999,6874],[999,6965],[999,7057],[999,7149],[999,7240],[999,7332],[999,7424],[999,7515],[999,7607],[999,7700],[999,7790],[999,7881],[999,7973],[999,8065],[999,8157],[999,8249],[999,8340],[999,8432],[999,8524],[999,8615],[999,8708],[999,8798],[999,8892],[999,8982],[999,9074],[999,9166],[999,9258],[999,9349],[999,9441],[999,9532],[999,9624],[999,9715],[999,9807],[999,9899],[999,9992],[999,10082],[999,10174],[999,10265],[999,10358],[999,10449],[999,10541],[999,10633],[999,10724],[999,10815],[999,10907],[999,10999],[999,11090],[999,11182],[999,11274],[999,11365],[999,11457],[999,11548],[999,11640],[999,11732],[999,11824],[999,11915],[999,12007],[999,12099],[999,12190],[999,12281],[999,12374],[999,12465],[999,12557],[999,12649],[999,12742],[999,12832],[999,12924],[999,13015],[999,13107],[999,13199],[999,13290],[999,13382],[999,13475],[999,13566],[999,13657],[999,13750],[999,13841],[999,13932],[999,14024],[999,14116],[999,14207],[999,14299],[999,14389],[999,14481],[999,14574],[999,14667],[999,14758],[999,14849],[999,14942],[999,15033],[999,15124],[999,15215],[999,15307],[999,15399],[999,15490],[999,15582],[999,15674],[999,15765],[999,15857]]",787.7754,798.3827,99.72106078,8.2137,"[{""rating"":99.72106077980398,""responseTime"":8.213700000047652}]",space,10.0828,,798.3827,Definitely yes,100,798.3834,,,[],,0,10,10,10,1,audio/Narrative8Situation1.wav,audio/Narrative7Situation1.wav,audio/Narrative6Situation1.wav,audio/Narrative5Situation1.wav,5,2,2,5,,,,,,,,,,,,,,,,,,,,,,,,,,,,,,,,,,,,,,,
,,,,,65d563ecf8df20ade2f17888,2025-07-07_19h47.12.857,group3.4_multiperson,2023.2.2,MacIntel,136.9863014,686c2ebf0248f13bef9af11f,686c855a210d7ca4fd51d7ab,,,,,,,,,,,,,,,,,,,,,,,,,,,,,798.3835,1,audio/Narrative8Situation2.wav,801.3845,,801.3846,811.4924,[],811.4927,821.8418,0.360016461,9.8984,"[{""rating"":0.360016460789514,""responseTime"":9.898399999976164}]",space,9.8309,,821.8419,Partially,50,821.8428,,,[],,0,11,11,11,1,audio/Narrative8Situation2.wav,audio/Narrative7Situation2.wav,audio/Narrative6Situation2.wav,audio/Narrative5Situation2.wav,3,3,3,3,,,,,,,,,,,,,,,,,,,,,,,,,,,,,,,,,,,,,,,
,,,,,65d563ecf8df20ade2f17888,2025-07-07_19h47.12.857,group3.4_multiperson,2023.2.2,MacIntel,136.9863014,686c2ebf0248f13bef9af11f,686c855a210d7ca4fd51d7ab,,,,,,,,,,,,,,,,,,,,,,,,,,,,,821.8429,1,audio/Narrative8Situation3.wav,825.8501,,825.8503,848.2083,[],848.2083,852.7332,99.09450968,3.3912,"[{""rating"":99.09450967631818,""responseTime"":3.391200000047661}]",space,4.0019,,852.7332,Definitely yes,100,852.7343,,,[],,0,12,12,12,1,audio/Narrative8Situation3.wav,audio/Narrative7Situation3.wav,audio/Narrative6Situation3.wav,audio/Narrative5Situation3.wav,4,8,5,3,,,,,,,,,,,,,,,,,,,,,,,,,,,,,,,,,,,,,,,
,,,,,65d563ecf8df20ade2f17888,2025-07-07_19h47.12.857,group3.4_multiperson,2023.2.2,MacIntel,136.9863014,686c2ebf0248f13bef9af11f,686c855a210d7ca4fd51d7ab,,,,,,,,,,,,,,,,,,,,,,,,,,,,,852.7344,1,audio/Narrative8Situation4.wav,855.7416,,855.7417,869.8923,[],869.8926,871.549,99.69058235,0.7287,"[{""rating"":99.69058234962674,""responseTime"":0.7286999999284944}]",space,1.1326,,871.5491,Not at all,0,871.5519,,,[],,0,13,13,13,1,audio/Narrative8Situation4.wav,audio/Narrative7Situation4.wav,audio/Narrative6Situation4.wav,audio/Narrative5Situation4.wav,3,3,2,1,,,,,,,,,,,,,,,,,,,,,,,,,,,,,,,,,,,,,,,
,,,,,65d563ecf8df20ade2f17888,2025-07-07_19h47.12.857,group3.4_multiperson,2023.2.2,MacIntel,136.9863014,686c2ebf0248f13bef9af11f,686c855a210d7ca4fd51d7ab,,,,,,,,,,,,,,,,,,,,,,,,,,,,,871.5523,1,audio/Narrative8Situation5.wav,873.5579,,873.5579,881.783,[],881.7831,883.2156,99.69058235,0.653,"[{""rating"":99.69058234962674,""responseTime"":0.65300000000002}]",space,0.9151,,883.2157,Partially,50,883.2166,,,[],,0,14,14,14,1,audio/Narrative8Situation5.wav,audio/Narrative7Situation5.wav,audio/Narrative6Situation5.wav,audio/Narrative5Situation5.wav,2,5,2,5,,,,,,,,,,,,,,,,,,,,,,,,,,,,,,,,,,,,,,,
,,,,,65d563ecf8df20ade2f17888,2025-07-07_19h47.12.857,group3.4_multiperson,2023.2.2,MacIntel,136.9863014,686c2ebf0248f13bef9af11f,686c855a210d7ca4fd51d7ab,,,,,,,,,,,,,,,,,,,,,,,,,,,,,883.2167,1,audio/Narrative8Situation6.wav,885.217,,885.2171,891.6743,[],891.6746,893.7403,99.69058235,1.3182,"[{""rating"":99.69058234962674,""responseTime"":1.318200000047682}]",space,1.5477,,893.7403,Partially,50,893.7409,,,[],,0,15,15,15,1,audio/Narrative8Situation6.wav,audio/Narrative7Situation6.wav,audio/Narrative6Situation6.wav,audio/Narrative5Situation6.wav,2,3,2,3,,,,,,,,,,,,,,,,,,,,,,,,,,,,,,,,,,,,,,,
,,,,,65d563ecf8df20ade2f17888,2025-07-07_19h47.12.857,group3.4_multiperson,2023.2.2,MacIntel,136.9863014,686c2ebf0248f13bef9af11f,686c855a210d7ca4fd51d7ab,,,,,,,,,,,,,,,,,,,,,,,,,,,,,893.741,1,audio/Narrative8Situation7.wav,896.7413,,896.7413,908.816,[],908.816,910.1078,99.69058235,0.3349,"[{""rating"":99.69058234962674,""responseTime"":0.33489999997618725}]",space,0.7698,,910.108,Definitely yes,100,910.1102,,,[],,0,16,16,16,1,audio/Narrative8Situation7.wav,audio/Narrative7Situation7.wav,audio/Narrative6Situation7.wav,audio/Narrative5Situation7.wav,3,5,5,4,,,,,,,,,,,,,,,,,,,,,,,,,,,,,,,,,,,,,,,
,,,,,65d563ecf8df20ade2f17888,2025-07-07_19h47.12.857,group3.4_multiperson,2023.2.2,MacIntel,136.9863014,686c2ebf0248f13bef9af11f,686c855a210d7ca4fd51d7ab,,,,,,,,,,,,,,,,,,,,,,,,,,,,,910.1103,1,audio/Narrative8Situation8.wav,913.116,,913.116,925.9542,[],925.9545,928.32,99.69058235,1.7226,"[{""rating"":99.69058234962674,""responseTime"":1.7226000000238173}]",space,1.8408,,928.32,Not at all,0,928.3209,,,[],,0,17,17,17,1,audio/Narrative8Situation8.wav,audio/Narrative7Situation8.wav,audio/Narrative6Situation8.wav,audio/Narrative5Situation8.wav,3,2,5,3,,,,,,,,,,,,,,,,,,,,,,,,,,,,,,,,,,,,,,,
,,,,,65d563ecf8df20ade2f17888,2025-07-07_19h47.12.857,group3.4_multiperson,2023.2.2,MacIntel,136.9863014,686c2ebf0248f13bef9af11f,686c855a210d7ca4fd51d7ab,,,,,,,,,,,,,,,,,,,,,,,,,,,,,928.3209,1,audio/Narrative8Situation9.wav,931.3284,,931.3285,942.6367,[],942.6367,946.1616,99.69058235,2.2636,"[{""rating"":99.69058234962674,""responseTime"":2.263600000023871}]",space,3.0007,,946.1617,Definitely yes,100,946.1628,,,[],,0,18,18,18,1,audio/Narrative8Situation9.wav,audio/Narrative7Situation9.wav,audio/Narrative6Situation9.wav,audio/Narrative5Situation9.wav,3,2,4,3,,,,,,,,,,,,,,,,,,,,,,,,,,,,,,,,,,,,,,,
,,,,,65d563ecf8df20ade2f17888,2025-07-07_19h47.12.857,group3.4_multiperson,2023.2.2,MacIntel,136.9863014,686c2ebf0248f13bef9af11f,686c855a210d7ca4fd51d7ab,,,,,,,,,,,,,,,,,,,,,,,,,,,952.7535,955.3277,955.3396,2,audio/Narrative13Situation2.wav,955.3397,,955.3397,985.0703,[],985.0705,985.0739,,,[],,,,985.0739,Not at all,0,985.0753,,,[],,0,0,0,0,1,audio/Narrative13Situation2.wav,audio/Narrative13Situation2.wav,audio/Narrative13Situation2.wav,audio/Narrative13Situation2.wav,2,2,2,2,,,,,946.163,952.7533,space,6.075,,,,,,,,,,,,,,,,,,,,,,,,,,,,,,,
,,,,,65d563ecf8df20ade2f17888,2025-07-07_19h47.12.857,group3.4_multiperson,2023.2.2,MacIntel,136.9863014,686c2ebf0248f13bef9af11f,686c855a210d7ca4fd51d7ab,,,,,,,,,,,,,,,,,,,,,,,,,,,,,985.0754,2,audio/Narrative5Situation1.wav,990.078,,990.078,1003.3436,"[[99.7,7057],[72.4,7149],[61.8,7241],[60.9,7333],[60.9,7425],[60.9,7515],[60.9,7608],[60.9,7699],[60.9,7791],[60.9,7883],[60.9,7974],[60.9,8065],[59.9,8158],[55.2,8249],[54.4,8341],[54.3,8432],[54.3,8524],[51.3,8616],[49.8,8708],[49.8,8799],[49.8,8891],[49.9,8982],[50.2,9074],[50.9,9166],[51.3,9258],[52.3,9350],[52.9,9441],[52.9,9533],[52.9,9625],[52.9,9716],[53.5,9808],[66.2,9899],[88.4,9991],[93,10083],[93.5,10174],[93.6,10266],[94.9,10357],[95.1,10449],[95.4,10542],[96.8,10633],[97.5,10726],[97.5,10816],[97.5,10908],[97.5,11000],[97.2,11091],[97.2,11183],[97.2,11274],[97.2,11366],[97.2,11458],[97.2,11550],[97.2,11641],[97.2,11732],[97.2,11824],[97.2,11916],[97.2,12009],[97.2,12099],[97.2,12192],[97.2,12283],[97.2,12376],[97.2,12466],[97.2,12558],[97.2,12649],[97.2,12741],[97.2,12832],[97.2,12924],[97.2,13016],[97.2,13108],[97.2,13199]]",1003.3437,1024.936,49.99378772,21.0443,"[{""rating"":98.9173338257742,""responseTime"":12.496400000095377},{""rating"":100,""responseTime"":13.939700000047651},{""rating"":49.993787715571266,""responseTime"":21.044300000071416}]",space,21.0804,,1024.9362,Partially,50,1024.9388,,,[],,0,1,1,1,1,audio/Narrative7Situation1.wav,audio/Narrative8Situation1.wav,audio/Narrative5Situation1.wav,audio/Narrative6Situation1.wav,2,5,5,2,,,,,,,,,,,,,,,,,,,,,,,,,,,,,,,,,,,,,,,
,,,,,65d563ecf8df20ade2f17888,2025-07-07_19h47.12.857,group3.4_multiperson,2023.2.2,MacIntel,136.9863014,686c2ebf0248f13bef9af11f,686c855a210d7ca4fd51d7ab,,,,,,,,,,,,,,,,,,,,,,,,,,,,,1024.939,2,audio/Narrative5Situation2.wav,1027.9441,,1027.9441,1057.3862,"[[51.7,641],[52,733],[52.8,825],[54,916],[54,1008],[54,1099],[54,1190],[54,1283],[54,1375],[54,1466],[54.4,1558],[58,1650],[61.9,1742],[62.9,1833],[63,1924],[63,2016],[63,2109],[63,2200],[63,2291],[63,2383],[63,2475],[63,2567],[63,2658],[63,2750],[64.2,2843],[78.1,2933],[84.9,3025],[88.7,3117],[92.4,3208],[95.5,3300],[96.4,3391],[97.4,3483],[98.2,3575],[98.4,3666],[98.5,3758],[99.9,3850],[100,3941],[100,4033],[100,4125],[100,4216],[100,4308],[100,4400],[100,4493],[100,4583],[99.3,4675],[97.9,4766],[94.2,4858],[93.6,4950],[91.7,5041],[91.7,5133],[91.7,5224],[91.7,5316],[91.7,5408],[91.7,5500],[91.7,5591],[91.7,5683],[91.7,5774],[91.7,5866],[91.7,5958],[91.7,6049],[88.9,28508],[88.9,28599],[88.9,28691],[87,28783],[80.8,28875],[80.2,28966],[82.3,29058],[94.9,29150],[96.1,29241],[95.7,29333],[90.9,29425]]",1057.3864,1198.8093,50.23397605,57.4564,"[{""rating"":50.23397604985866,""responseTime"":57.4564000000953}]",space,140.9009,,1198.8094,Partially,50,1198.8102,,,[],,0,2,2,2,1,audio/Narrative7Situation2.wav,audio/Narrative8Situation2.wav,audio/Narrative5Situation2.wav,audio/Narrative6Situation2.wav,3,3,3,3,,,,,,,,,,,,,,,,,,,,,,,,,,,,,,,,,,,,,,,
,,,,,65d563ecf8df20ade2f17888,2025-07-07_19h47.12.857,group3.4_multiperson,2023.2.2,MacIntel,136.9863014,686c2ebf0248f13bef9af11f,686c855a210d7ca4fd51d7ab,,,,,,,,,,,,,,,,,,,,,,,,,,,,,1198.8103,2,audio/Narrative5Situation3.wav,1201.8174,,1201.8175,1215.7176,"[[999,0],[999,91],[999,182],[999,275],[999,366],[999,458],[999,550],[999,641],[999,733],[999,825],[999,916],[999,1008],[999,1100],[999,1191],[999,1282],[999,1375],[999,1466],[999,1557],[999,1649],[999,1741],[999,1832],[999,1925],[999,2016],[999,2108],[999,2200],[999,2291],[999,2382],[999,2475],[999,2566],[999,2658],[999,2750],[999,2841],[999,2933],[999,3025],[999,3116],[999,3208],[999,3301],[999,3392],[999,3482],[999,3574],[999,3666],[61,3758],[61.2,3850],[61.8,3942],[64.2,4033],[68.8,4125],[71,4217],[71.2,4307],[71.2,4400],[71.2,4491],[71.2,4583],[71.2,4676],[71.2,4767],[71.2,4859],[71.2,4950],[71.4,5041],[71.4,5133],[71.4,5224],[71.4,5316],[71.4,5408],[71.4,5500],[71.4,5592],[71.4,5682],[71.4,5775],[71.4,5866],[71.4,5958],[71.4,6050],[71.4,6141],[71.4,6233],[71.4,6325],[71.4,6416],[71.4,6508],[71.4,6600],[71.8,6691],[75.1,6783],[76.5,6875],[77.6,6966],[77.6,7058],[77.6,7150],[77.6,7241],[77.6,7333],[77.8,7424],[79.5,7516],[79.6,7608],[79.6,7700],[79.6,7791],[79.9,7883],[80.2,7975],[80.2,8066],[80.2,8158],[80.2,8250],[80.2,8340],[80.2,8433],[80.3,8526],[80.3,8616],[80.3,8708],[80.4,8799],[80.8,8891],[81.1,8983],[83.8,9075],[89.6,9167],[91.2,9258],[91.2,9350],[91.2,9442],[94.8,9533],[97.5,9625],[98.4,9717],[99.7,9808],[100,9900],[100,9992],[100,10083],[100,10175],[100,10267],[100,10358],[100,10450],[100,10541],[100,10633],[100,10724],[100,10816],[100,10908],[100,11000],[100,11091],[100,11183],[100,11275],[100,11366],[100,11458],[100,11549],[90,11641],[82.6,11733],[82.1,11825],[82.1,11916],[82.1,12008],[82.1,12099],[82.1,12191],[82.1,12283],[82.1,12375],[82.1,12466],[82.1,12558],[82.1,12650],[82.1,12741],[82.1,12834],[82.1,12924],[82.1,13017],[82.1,13108],[82.1,13200],[82.1,13291],[82.1,13383],[82.1,13476],[82.1,13566],[82.1,13658],[82.1,13749],[82.1,13841]]",1215.7178,1230.639,50.37137595,11.6643,"[{""rating"":50.371375951010286,""responseTime"":11.66429999995239}]",space,14.4013,,1230.639,Definitely yes,100,1230.6423,,,[],,0,3,3,3,1,audio/Narrative7Situation3.wav,audio/Narrative8Situation3.wav,audio/Narrative5Situation3.wav,audio/Narrative6Situation3.wav,8,4,3,5,,,,,,,,,,,,,,,,,,,,,,,,,,,,,,,,,,,,,,,
,,,,,65d563ecf8df20ade2f17888,2025-07-07_19h47.12.857,group3.4_multiperson,2023.2.2,MacIntel,136.9863014,686c2ebf0248f13bef9af11f,686c855a210d7ca4fd51d7ab,,,,,,,,,,,,,,,,,,,,,,,,,,,,,1230.6425,2,audio/Narrative5Situation4.wav,1231.6478,,1231.6478,1252.0213,"[[49.3,824],[49,915],[50.3,1007],[51.3,1098],[51.4,1190],[51.4,1281],[51.4,1373],[51.4,1465],[51.4,1557],[51.4,1648],[51.4,1740],[51.4,1832],[51.4,1923],[51.4,2015],[51.4,2106],[51.4,2198],[51.4,2290],[51.4,2382],[51.4,2473],[51.4,2565],[51.4,2657],[51.4,2748],[51.4,2840],[51.4,2932],[51.4,3024],[51.4,3115],[51.4,3207],[51.4,3299],[51.4,3390],[51.4,3481],[51.4,3573],[51.4,3665],[51.4,3757],[51.4,3850],[51.4,3940],[51.4,4032],[51.4,4123],[51.4,4216],[51.4,4306],[51.4,4399],[51.4,4490],[51.4,4582],[51.4,4673],[51.4,4766],[51.4,4856],[51.4,4949],[51.4,5039],[51.4,5132],[51.4,5223],[51.4,5315],[51.4,5407],[51.4,5499],[51.4,5591],[51.4,5683],[51.4,5774],[51.4,5865],[51.4,5957],[51.4,6048],[51.4,6140],[51.4,6231],[51.4,6323],[51.4,6415],[51.4,6507],[51.4,6598],[51.4,6690],[51.4,6781],[51.4,6872],[51.4,6965],[51.4,7057],[51.4,7148],[51.4,7240],[51.4,7331],[51.4,7423],[51.4,7515],[51.4,7606],[51.4,7698],[51.4,7789],[51.4,7882],[51.4,7973],[51.4,8065],[51.4,8156],[51.4,8249],[51.4,8340],[51.4,8431],[51.4,8523],[51.4,8615],[51.4,8706],[51.4,8798],[51.4,8889],[51.4,8982],[51.4,9073],[51.4,9165],[51.4,9256],[51.4,9348],[61.1,9440],[80.5,9806],[92.3,9899],[97.3,9990],[100,10265],[100,10356],[100,10448],[100,10539],[100,10632],[100,10723],[100,10815],[100,10906],[100,10999],[100,11090],[100,11181],[100,11273],[100,11365],[100,11456],[100,11548],[100,11640],[100,11731],[100,11823],[100,11915],[100,12007],[100,12098],[100,12189],[100,12281],[100,12373],[100,12465],[100,12557],[100,12648],[100,12740],[100,12831],[100,12923],[100,13015],[100,13107],[100,13198],[100,13290],[100,13382],[100,13473],[100,13566],[100,13656],[100,13749],[100,13840],[100,13932],[100,14022],[100,14115],[100,14206],[100,14298],[100,14390],[100,14481],[100,14574],[100,14664],[100,14757],[100,14848],[100,14940],[100,15031],[100,15123],[100,15215],[100,15307],[100,15399],[100,15490],[100,15582],[100,15673],[100,15765],[100,15856],[100,15948],[100,16040],[100,16131],[100,16223],[100,16315],[100,16406],[100,16498],[100,16590],[100,16681],[100,16773],[100,16865],[100,16956],[100,17048],[100,17140],[100,17231],[100,17323],[100,17415],[100,17506],[100,17598],[100,17690],[100,17781],[100,17873],[100,17966],[100,18057],[100,18148],[100,18240],[100,18331],[100,18423],[100,18515],[100,18605],[100,18699],[100,18790],[100,18882],[100,18974],[100,19065],[100,19156],[100,19248],[100,19340],[100,19432],[100,19523],[100,19615],[100,19707],[100,19798],[100,19890],[100,19981],[100,20073],[100,20165],[100,20257],[100,20348]]",1252.0217,1254.8632,99.71641202,1.1978,"[{""rating"":99.71641202019639,""responseTime"":1.1978000000715383}]",space,2.3181,,1254.8633,Definitely yes,100,1254.8646,,,[],,0,4,4,4,1,audio/Narrative7Situation4.wav,audio/Narrative8Situation4.wav,audio/Narrative5Situation4.wav,audio/Narrative6Situation4.wav,3,3,1,2,,,,,,,,,,,,,,,,,,,,,,,,,,,,,,,,,,,,,,,
,,,,,65d563ecf8df20ade2f17888,2025-07-07_19h47.12.857,group3.4_multiperson,2023.2.2,MacIntel,136.9863014,686c2ebf0248f13bef9af11f,686c855a210d7ca4fd51d7ab,,,,,,,,,,,,,,,,,,,,,,,,,,,,,1254.8648,2,audio/Narrative5Situation5.wav,1259.8721,,1259.8722,1275.2792,"[[98,1190],[80.1,1282],[71.6,1374],[71.3,1465],[71.3,1557],[71.5,1649],[73.3,1740],[74,1834],[74.3,1924],[74.3,2016],[74.3,2108],[74.3,2199],[74.3,2291],[73.8,2382],[47.7,2473],[42.6,2566],[43.3,2657],[47.4,2749],[48.6,2840],[50.1,2932],[50.2,3024],[50.2,3115],[50.2,3207],[50.2,3298],[50.3,3390],[50.3,3482],[50.3,3574],[50.3,3665],[50.3,3756],[50.3,3849],[50.3,3940],[50.3,4032],[50.3,4124],[50.3,4215],[50.3,4307],[50.3,4399],[50.3,4490],[50.3,4582],[50.3,4673],[50.3,4765],[50.3,4857],[50.3,4949],[50.3,5041],[50.3,5132],[50.3,5223],[50.3,5316],[53.5,5407],[58.3,5499],[58.8,5590],[58.8,5682],[58.8,5774],[58.8,5865],[58.8,5957],[58.5,6049],[44.6,6140],[17.3,6599],[0.8,7882],[5,7974],[7.1,8065],[8,8157],[8.1,8249],[8.1,8340],[8.1,8432],[8.1,8524],[8.1,8615],[8.1,8706],[8.1,8798],[5.2,8890],[1.2,8982],[0.9,9074],[0.3,9165]]",1275.2794,1280.0212,0.823341624,2.6659,"[{""rating"":0.8233416243974612,""responseTime"":2.665899999976318}]",space,4.2286,,1280.0213,Partially,50,1280.0223,,,[],,0,5,5,5,1,audio/Narrative7Situation5.wav,audio/Narrative8Situation5.wav,audio/Narrative5Situation5.wav,audio/Narrative6Situation5.wav,5,2,5,2,,,,,,,,,,,,,,,,,,,,,,,,,,,,,,,,,,,,,,,
,,,,,65d563ecf8df20ade2f17888,2025-07-07_19h47.12.857,group3.4_multiperson,2023.2.2,MacIntel,136.9863014,686c2ebf0248f13bef9af11f,686c855a210d7ca4fd51d7ab,,,,,,,,,,,,,,,,,,,,,,,,,,,,,1280.0225,2,audio/Narrative5Situation6.wav,1283.0286,,1283.0287,1288.6877,"[[51.5,734],[52.5,825],[52.5,917],[52.5,1009],[52.5,1100],[51.2,1192],[50.4,1284],[50.4,1375],[50.4,1467],[50.4,1558],[50.4,1650],[50.4,1741],[50.4,1834],[50.4,1925],[50.4,2017],[50.4,2109],[50.4,2200],[50.4,2293],[50.4,2384],[50.4,2476],[50.4,2567],[50.4,2659],[50.4,2750],[50.4,2842],[50.4,2934],[50.4,3025],[50.4,3117],[50.4,3209],[50.4,3300],[50.4,3392],[50.4,3484],[50.4,3576],[50.4,3667],[50.4,3759],[50.4,3851],[50.4,3942],[50.4,4034],[50.4,4126],[50.4,4218],[50.4,4309],[50.4,4400],[50.4,4492],[50.4,4584],[50.4,4675],[50.4,4767],[50.4,4858],[52.9,4950],[79.3,5042],[84.1,5133],[87.1,5225],[88.6,5317],[88.6,5409],[88.6,5500],[88.6,5592]]",1288.6877,1290.954,99.50566341,1.59,"[{""rating"":99.50566340886135,""responseTime"":1.5900000000001455}]",space,1.7488,,1290.9541,Not at all,0,1290.9559,,,[],,0,6,6,6,1,audio/Narrative7Situation6.wav,audio/Narrative8Situation6.wav,audio/Narrative5Situation6.wav,audio/Narrative6Situation6.wav,3,2,3,2,,,,,,,,,,,,,,,,,,,,,,,,,,,,,,,,,,,,,,,
,,,,,65d563ecf8df20ade2f17888,2025-07-07_19h47.12.857,group3.4_multiperson,2023.2.2,MacIntel,136.9863014,686c2ebf0248f13bef9af11f,686c855a210d7ca4fd51d7ab,,,,,,,,,,,,,,,,,,,,,,,,,,,,,1290.9561,2,audio/Narrative5Situation7.wav,1294.9629,,1294.9629,1315.9876,"[[98.3,1099],[98.2,1191],[99.8,1283],[99.8,1374],[99.8,1466],[99.8,1557],[99.8,1649],[99.8,1740],[99.8,1833],[99.8,1924],[99.8,2016],[99.8,2108],[99.8,2199],[99.8,2291],[99.8,2383],[99.8,2474],[99.8,2566],[99.8,2658],[99.8,2749],[99.8,2841],[99.8,2933],[99.8,3024],[99.8,3116],[99.8,3208],[99.8,3299],[99.8,3391],[99.8,3482],[99.8,3574],[100,3666],[100,3758],[100,3849],[100,3941],[100,4032],[100,4124],[100,4216],[100,4308],[100,4399],[100,4490],[100,4583],[100,4674],[100,4766],[100,4858],[100,4949],[100,5041],[100,5133],[100,5224],[100,5316],[100,5407],[100,5499],[100,5591],[100,5683],[98.8,5775],[83.1,5866],[80,5958],[83.1,6049],[98.4,6141],[100,6233],[100,6326],[100,6417],[100,6508],[100,6600],[100,6691],[100,6783],[100,6875],[100,6966],[100,7058],[100,7150],[100,7242],[100,7332],[100,7424],[100,7516],[100,7608],[100,7699],[100,7791],[100,7882],[100,7974],[100,8066],[100,8157],[100,8249],[100,8340],[100,8432],[100,8524],[100,8616],[100,8707],[100,8799],[100,8891],[100,8982],[100,9073],[100,9166],[100,9257],[100,9349],[100,9441],[100,9532],[100,9624],[100,9715],[100,9807],[100,9898],[100,9991],[100,10083],[100,10174],[100,10266],[100,10357],[100,10450],[100,10541],[100,10633],[100,10724],[100,10816],[100,10907],[100,10998],[100,11091],[100,11182],[100,11274],[100,11367],[100,11457],[100,11549],[100,11642],[100,11732],[100,11824],[100,11917],[100,12009],[100,12100],[100,12191],[100,12282],[100,12375],[100,12466],[100,12559],[100,12649],[100,12741],[100,12832],[100,12924],[100,13015],[100,13107],[100,13199],[100,13291],[100,13382],[100,13474],[100,13566],[100,13656],[100,13749],[100,13841],[100,13932],[100,14024],[100,14116],[100,14207],[100,14299],[100,14391],[100,14482],[100,14574],[100,14666],[100,14757],[100,14849],[100,14941],[100,15032],[100,15124],[100,15216],[100,15307],[100,15399],[100,15491],[100,15582],[100,15674],[100,15767],[100,15857],[100,15949],[100,16041],[100,16133],[100,16224],[100,16316],[100,16407],[100,16499],[100,16591],[100,16683],[100,16775],[100,16866],[100,16958],[100,17049],[100,17141],[93.8,17233],[95.6,17966],[100,18057],[100,18149],[100,18241],[100,18332],[99.4,18424],[96.5,18516],[96.3,18607],[97.7,18699],[100,19341],[100,19432],[100,19524],[100,19615],[100,19707],[100,19799],[100,19891],[100,19982],[100,20074],[100,20166],[100,20258],[100,20349],[100,20441],[100,20532],[100,20624],[100,20717],[100,20807],[100,20899],[100,20992]]",1315.9878,1328.6125,50.69885201,5.0897,"[{""rating"":50.69885201061697,""responseTime"":5.089699999928598}]",space,12.0987,,1328.6125,Not at all,0,1328.6132,,,[],,0,7,7,7,1,audio/Narrative7Situation7.wav,audio/Narrative8Situation7.wav,audio/Narrative5Situation7.wav,audio/Narrative6Situation7.wav,5,3,4,5,,,,,,,,,,,,,,,,,,,,,,,,,,,,,,,,,,,,,,,
,,,,,65d563ecf8df20ade2f17888,2025-07-07_19h47.12.857,group3.4_multiperson,2023.2.2,MacIntel,136.9863014,686c2ebf0248f13bef9af11f,686c855a210d7ca4fd51d7ab,,,,,,,,,,,,,,,,,,,,,,,,,,,,,1328.6132,2,audio/Narrative5Situation8.wav,1331.6207,,1331.6207,1340.4296,"[[50.8,1099],[50.8,1191],[50.9,1283],[50.9,1375],[50.9,1465],[50.9,1558],[50.9,1649],[50.9,1741],[50.9,1832],[50.9,1924],[50.9,2016],[50.9,2108],[50.9,2199],[50.9,2291],[50.9,2383],[50.9,2474],[50.9,2566],[50.9,2658],[50.9,2749],[50.9,2840],[50.9,2932],[50.9,3025],[50.9,3117],[50.9,3208],[50.9,3300],[50.9,3391],[50.9,3483],[50.9,3575],[50.9,3667],[50.9,3757],[50.9,3850],[50.9,3941],[50.9,4034],[67.1,4125],[82.1,4216],[82.1,4307],[82.1,4399],[82.6,4491],[91.7,4584],[93,4675],[93,4766],[93.1,4858],[93.1,4949],[93.1,5041],[93.1,5132],[93.1,5225],[93.1,5316],[93.1,5407],[93.1,5500],[93.1,5591],[93.1,5683],[93.1,5773],[93.1,5867],[93.1,5958],[97.1,6050],[98.7,6141],[99,6232],[99,6324],[99,6415],[99,6508],[99,6599],[100,6691],[100,6783],[100,6874],[100,6966],[100,7058],[100,7149],[100,7241],[100,7332],[100,7424],[100,7516],[100,7608],[100,7699],[100,7791],[100,7883],[100,7976],[100,8066],[100,8159],[100,8250],[100,8341],[100,8433],[100,8525],[100,8617],[100,8707],[100,8800]]",1340.43,1344.6299,49.45970335,1.764,"[{""rating"":49.459703346155074,""responseTime"":1.7639999999998963}]",space,3.6784,,1344.63,Partially,50,1344.6338,,,[],,0,8,8,8,1,audio/Narrative7Situation8.wav,audio/Narrative8Situation8.wav,audio/Narrative5Situation8.wav,audio/Narrative6Situation8.wav,2,3,3,5,,,,,,,,,,,,,,,,,,,,,,,,,,,,,,,,,,,,,,,
,,,,,65d563ecf8df20ade2f17888,2025-07-07_19h47.12.857,group3.4_multiperson,2023.2.2,MacIntel,136.9863014,686c2ebf0248f13bef9af11f,686c855a210d7ca4fd51d7ab,,,,,,,,,,,,,,,,,,,,,,,,,,,,,1344.6339,2,audio/Narrative5Situation9.wav,1347.6373,,1347.6373,1387.162,"[[49.9,733],[49.9,824],[49.9,916],[49.9,1008],[49.9,1099],[49.9,1191],[49.9,1283],[49.9,1374],[49.9,1466],[49.9,1558],[49.9,1649],[49.9,1741],[49.9,1833],[49.9,1925],[49.9,2017],[49.9,2107],[49.9,2199],[49.9,2291],[49.9,2383],[49.9,2475],[49.9,2567],[49.9,2658],[49.9,2749],[49.9,2841],[49.9,2933],[49.9,3024],[49.9,3116],[49.9,3208],[49.9,3300],[49.9,3391],[49.9,3483],[49.9,3574],[49.9,3666],[49.9,3758],[49.9,3850],[49.9,3941],[49.9,4033],[49.9,4125],[49.9,4216],[49.9,4308],[49.9,4400],[49.9,4491],[49.9,4583],[49.9,4675],[49.9,4767],[49.9,4858],[49.9,4949],[49.9,5041],[49.9,5133],[49.9,5224],[49.9,5316],[49.9,5408],[49.9,5499],[49.9,5591],[49.9,5683],[49.9,5774],[49.9,5866],[49.9,5958],[49.9,6049],[49.9,6141],[49.9,6233],[49.9,6324],[49.9,6416],[49.9,6508],[49.9,6599],[49.9,6691],[49.9,6783],[49.9,6874],[49.9,6966],[49.9,7058],[49.9,7149],[49.9,7241],[49.9,7333],[49.9,7424],[49.9,7516],[54,7608],[78.3,7700],[81.2,7791],[81.2,7883],[81.4,7975],[93.4,8067],[95.4,8158],[97,8250],[99.1,8341],[99.8,8433],[100,8525],[100,8616],[100,8708],[100,8801],[100,8891],[100,8983],[100,9075],[100,9166],[100,9258],[100,9350],[100,9441],[100,9532],[100,9625],[100,9716],[100,9808],[100,9899],[100,9990],[100,10083],[100,10174],[100,10266],[100,10358],[100,10448],[100,10540],[100,10633],[100,10724],[100,10816],[100,10907],[100,10998],[100,11091],[100,11183],[100,11274],[100,11366],[100,11457],[100,11549],[100,11641],[100,11732],[100,11823],[100,11915],[100,12008],[100,12099],[100,12191],[100,12283],[100,12373],[100,12466],[100,12558],[100,12649],[100,12741],[100,12833],[100,12924],[100,13016],[100,13108],[100,13199],[100,13291],[100,13383],[100,13474],[100,13566],[100,13657],[100,13750],[100,13842],[100,13933],[100,14025],[100,14115],[100,14208],[100,14298],[100,14391],[100,14484],[100,14575],[100,14666],[100,14758],[100,14849],[100,14941],[100,15033],[100,15124],[100,15215],[100,15308],[100,15399],[100,15491],[100,15583],[100,15674],[100,15766],[100,15857],[100,15949],[100,16041],[100,16132],[100,16224],[100,16316],[100,16407],[100,16499],[100,16591],[100,16683],[100,16774],[100,16866],[100,16958],[100,17049],[100,17141],[100,17233],[100,17324],[100,17415],[100,17509],[100,17599],[100,17691],[100,17783],[100,17875],[100,17965],[100,18058],[100,18149],[100,18240],[100,18332],[100,18424],[100,18516],[100,18608],[100,18699],[100,18791],[100,18884],[100,18975],[100,19066],[100,19158],[100,19250],[100,19341],[100,19432],[100,19525],[100,19616],[100,19708],[100,19799],[100,19891],[100,19983],[100,20074],[100,20166],[100,20257],[100,20349],[100,20441],[100,20532],[100,20624],[100,20716],[100,20807],[100,20899],[100,20991],[100,21083],[100,21174],[100,21266],[100,21357],[100,21449],[100,21541],[100,21632],[100,21724],[100,21816],[100,21908],[100,21998],[100,22091],[100,22182],[100,22274],[100,22366],[100,22457],[100,22550],[100,22641],[100,22732],[100,22824],[100,22919],[100,23008],[100,23099],[100,23191],[100,23284],[100,23375],[100,23466],[100,23558],[100,23649],[100,23741],[100,23832],[100,23924],[100,24016],[100,24108],[100,24199],[100,24291],[100,24382],[100,24475],[100,24566],[100,24658],[100,24750],[100,24841],[100,24932],[100,25024],[100,25116],[100,25207],[100,25299],[100,25391],[100,25482],[100,25574],[100,25666],[100,25757],[100,25849],[100,25941],[100,26032],[100,26124],[100,26216],[100,26307],[100,26399],[100,26491],[100,26582],[100,26674],[100,26765],[100,26857],[100,26950],[100,27041],[100,27133],[100,27223],[100,27316],[100,27407],[100,27499],[100,27591],[100,27682],[100,27774],[100,27866],[100,27958],[100,28049],[100,28141],[100,28233],[100,28324],[100,28416],[100,28507],[100,28599],[100,28692],[100,28782],[100,28874],[100,28966],[100,29058],[100,29149],[100,29241],[100,29333],[100,29425],[100,29516],[100,29608],[100,29699],[100,29791],[100,29882],[100,29974],[100,30066],[100,30157],[100,30249],[100,30340],[100,30432],[100,30524],[100,30615],[100,30707],[100,30799],[100,30891],[100,30982],[100,31074],[100,31166],[100,31257],[100,31349],[100,31441],[100,31532],[100,31623],[100,31716],[100,31807],[100,31898],[100,31991],[100,32082],[100,32174],[100,32266],[100,32357],[100,32449],[100,32541],[100,32632],[100,32725],[100,32816],[100,32907],[100,32999],[100,33091],[100,33183],[100,33275],[100,33367],[100,33458],[100,33549],[100,33641],[100,33733],[100,33824],[100,33917],[100,34008],[100,34099],[100,34191],[100,34282],[100,34374],[100,34466],[100,34557],[100,34649],[100,34741],[100,34833],[100,34924],[100,35016],[92.4,35108],[88.8,35199],[88.8,35291],[88.8,35382],[88.8,35474],[88.8,35566],[90.5,35658],[92.7,35749],[93.3,35840],[93.3,35932],[96.3,36024],[99,36116],[99.7,36207],[100,36298],[100,36391],[100,36482],[100,36574],[100,36666],[100,36757],[100,36849],[100,36941],[100,37033],[100,37124],[100,37216],[100,37307],[100,37399],[100,37491],[100,37582],[100,37674],[100,37766],[100,37857],[100,37949],[100,38042],[100,38133],[100,38224],[100,38316],[100,38408],[100,38500],[100,38591],[100,38683],[100,38775],[100,38866],[100,38957],[100,39050],[100,39141],[100,39233],[100,39325],[100,39416],[100,39507]]",1387.1622,1389.9453,99.61517075,1.8485,"[{""rating"":99.61517075236749,""responseTime"":1.8485000000000582}]",space,2.2617,,1389.9454,Definitely yes,100,1389.9475,,,[],,0,9,9,9,1,audio/Narrative7Situation9.wav,audio/Narrative8Situation9.wav,audio/Narrative5Situation9.wav,audio/Narrative6Situation9.wav,2,3,3,4,,,,,,,,,,,,,,,,,,,,,,,,,,,,,,,,,,,,,,,
,,,,,65d563ecf8df20ade2f17888,2025-07-07_19h47.12.857,group3.4_multiperson,2023.2.2,MacIntel,136.9863014,686c2ebf0248f13bef9af11f,686c855a210d7ca4fd51d7ab,,,,,,,,,,,,,,,,,,,,,,,,,,,,,1389.9477,2,audio/Narrative6Situation1.wav,1391.9535,,1391.9536,1418.5199,"[[63,916],[56.5,1008],[56.1,1099],[56.2,1191],[56,1283],[54.8,1374],[54.8,1466],[54.8,1557],[54.8,1648],[54.3,1741],[52.3,1832],[52.1,1924],[52.1,2016],[52.1,2108],[51.6,2199],[51.4,2291],[51.4,2383],[51.4,2473],[51.4,2566],[51.4,2658],[51.4,2750],[50.9,2842],[50.9,2932],[50.9,3024],[50.9,3116],[50.9,3208],[50.9,3299],[50.9,3390],[50.9,3482],[50.9,3574],[50.9,3666],[50.9,3758],[50.9,3849],[50.9,3942],[50.9,4033],[50.9,4124],[50.9,4216],[50.9,4308],[50.9,4399],[50.9,4491],[50.9,4583],[50.9,4675],[50.9,4766],[50.9,4858],[50.9,4950],[50.9,5042],[50.9,5133],[50.9,5225],[50.9,5317],[50.9,5407],[50.9,5499],[50.9,5591],[50.9,5682],[50.9,5774],[50.9,5866],[50.9,5958],[50.9,6049],[50.9,6141],[50.9,6233],[50.9,6324],[50.9,6416],[50.9,6507],[50.9,6599],[50.9,6691],[50.9,6783],[50.9,6874],[50.9,6966],[50.9,7058],[50.9,7149],[50.9,7241],[50.9,7333],[50.9,7424],[50.9,7516],[50.9,7608],[50.9,7700],[50.9,7792],[50.9,7882],[50.9,7975],[50.9,8066],[50.9,8158],[50.9,8250],[50.9,8341],[50.9,8432],[50.9,8524],[50.9,8616],[50.9,8707],[50.9,8800],[50.9,8891],[50.9,8983],[50.9,9075],[50.9,9166],[50.9,9258],[50.9,9349],[50.9,9441],[50.9,9532],[50.9,9624],[50.9,9716],[50.9,9808],[50.9,9899],[50.9,9991],[50.9,10083],[50.9,10176],[50.9,10266],[50.9,10358],[50.9,10450],[50.9,10541],[50.9,10633],[50.9,10724],[50.9,10816],[50.9,10907],[50.9,10999],[50.9,11091],[50.9,11182],[50.9,11274],[50.9,11366],[50.9,11458],[50.9,11549],[50.9,11641],[50.9,11733],[50.9,11824],[50.9,11916],[50.9,12008],[50.9,12099],[50.9,12191],[50.9,12283],[50.9,12374],[50.9,12466],[50.9,12558],[50.9,12650],[50.9,12741],[50.9,12833],[50.9,12924],[50.9,13016],[50.9,13108],[50.9,13199],[50.9,13291],[50.9,13383],[50.9,13475],[50.9,13566],[50.9,13657],[50.9,13750],[50.9,13842],[50.9,13933],[50.9,14024],[50.9,14116],[50.9,14208],[50.9,14300],[50.9,14391],[50.9,14483],[50.9,14574],[50.9,14666],[50.9,14758],[50.9,14850],[50.9,14941],[50.9,15033],[50.9,15124],[50.9,15217],[50.9,15307],[50.9,15400],[50.9,15492],[50.9,15583],[50.9,15674],[50.9,15766],[50.9,15858],[50.9,15949],[50.9,16041],[50.9,16133],[50.9,16224],[50.9,16316],[50.9,16408],[50.9,16499],[50.9,16591],[50.9,16682],[50.9,16774],[50.9,16866],[50.9,16958],[50.9,17049],[50.9,17141],[50.9,17233],[50.9,17324],[50.9,17416],[50.9,17508],[50.9,17599],[50.9,17691],[50.9,17782],[50.9,17874],[50.9,17965],[50.9,18058],[50.9,18149],[50.9,18241],[50.9,18333],[50.9,18424],[50.9,18516],[50.9,18608],[50.9,18700],[50.9,18791],[50.9,18883],[50.9,18975],[50.9,19066],[50.9,19160],[50.9,19250],[50.9,19341],[50.9,19433],[50.9,19524],[50.9,19616],[50.9,19707],[50.9,19799],[50.9,19891],[50.9,19983],[50.9,20075],[50.9,20165],[50.9,20258],[50.9,20349],[50.9,20441],[50.9,20533],[50.9,20624],[50.9,20716],[50.9,20807],[50.9,20899],[50.9,20991],[63.2,21083],[86,21174],[92.8,21266],[97.8,21358],[100,21449],[100,21541],[100,21633],[100,21724],[100,21816],[100,21907],[100,21999],[100,22091],[100,22182],[100,22274],[100,22366],[100,22457],[100,22549],[100,22641],[100,22733],[100,22825],[100,22917],[100,23008],[100,23099],[100,23191],[100,23283],[100,23374],[100,23465],[100,23558],[100,23650],[100,23741],[100,23833],[100,23924],[100,24016],[100,24108],[100,24199],[100,24291],[100,24382],[100,24474],[100,24566],[100,24658],[100,24749],[100,24841],[100,24932],[100,25025],[100,25116],[100,25208],[100,25299],[100,25391],[100,25483],[100,25574],[100,25666],[100,25757],[100,25848],[100,25941],[100,26032],[100,26124],[100,26216],[100,26307],[100,26399],[100,26490]]",1418.52,1421.5952,99.28872614,2.2906,"[{""rating"":99.28872613629875,""responseTime"":2.2906000000236872}]",space,2.5525,,1421.5953,Not at all,0,1435.5284,0.240695876,4.3539,"[{""rating"":0.24069587629924616,""responseTime"":4.353899999976193}]",space,0,10,10,10,1,audio/Narrative8Situation1.wav,audio/Narrative7Situation1.wav,audio/Narrative6Situation1.wav,audio/Narrative5Situation1.wav,5,2,2,5,,,13.4146,,,,,,,,,,,,,,,,,,,,,,,,,,,,,,,,,,,,
,,,,,65d563ecf8df20ade2f17888,2025-07-07_19h47.12.857,group3.4_multiperson,2023.2.2,MacIntel,136.9863014,686c2ebf0248f13bef9af11f,686c855a210d7ca4fd51d7ab,,,,,,,,,,,,,,,,,,,,,,,,,,,,,1435.5288,2,audio/Narrative6Situation2.wav,1438.5364,,1438.5364,1467.0254,"[[999,0],[999,91],[999,183],[999,275],[999,366],[999,458],[999,549],[999,641],[999,733],[999,822],[999,929],[999,1020],[999,1113],[999,1204],[999,1296],[47,1388],[47,1479],[47.2,1571],[49.1,1662],[49.9,1756],[50.3,1846],[50.3,1937],[50.3,2029],[50.3,2121],[50.3,2212],[50.3,2304],[50.3,2395],[50.3,2487],[50.3,2578],[50.3,2670],[50.3,2763],[50.3,2853],[50.3,2946],[50.3,3037],[50.3,3129],[50.3,3220],[50.3,3312],[50.3,3404],[50.3,3495],[50.3,3587],[50.3,3679],[50.3,3770],[50.3,3862],[50.3,3954],[50.3,4045],[50.3,4137],[50.3,4229],[50.3,4320],[50.3,4412],[50.3,4504],[50.3,4595],[50.3,4687],[50.3,4778],[50.3,4870],[50.3,4962],[50.3,5054],[50.3,5145],[50.3,5237],[50.3,5329],[50.3,5420],[50.3,5512],[50.3,5604],[50.3,5695],[50.3,5787],[50.3,5879],[50.3,5970],[50.3,6062],[50.3,6153],[50.3,6245],[50.3,6337],[50.3,6429],[57.9,6521],[73,6613],[81.8,6704],[93,6796],[100,6887],[100,6979],[100,7070],[100,7162],[100,7254],[100,7346],[100,7437],[100,7529],[100,7620],[100,7713],[100,7804],[100,7895],[100,7987],[100,8079],[100,8170],[100,8262],[100,8354],[100,8445],[100,8537],[100,8628],[100,8720],[100,8812],[100,8904],[100,8995],[100,9087],[100,9179],[100,9270],[100,9362],[100,9454],[100,9545],[100,9636],[100,9729],[100,9820],[100,9912],[100,10003],[100,10095],[100,10187],[100,10279],[100,10370],[100,10462],[100,10554],[100,10645],[100,10737],[100,10829],[100,10920],[100,11012],[100,11103],[100,11195],[100,11287],[100,11378],[100,11470],[100,11562],[100,11654],[100,11745],[100,11838],[100,11929],[100,12021],[100,12112],[100,12204],[100,12295],[100,12388],[100,12479],[100,12571],[100,12662],[100,12754],[100,12846],[100,12937],[100,13029],[100,13121],[100,13212],[100,13304],[100,13395],[100,13488],[100,13579],[100,13671],[100,13762],[100,13855],[100,13946],[100,14037],[100,14128],[100,14220],[100,14312],[100,14403],[100,14495],[100,14587],[100,14679],[100,14770],[100,14862],[100,14953],[100,15045],[100,15137],[100,15229],[100,15320],[100,15412],[100,15503],[100,15595],[100,15687],[100,15778],[100,15870],[100,15962],[100,16054],[100,16144],[100,16237],[100,16328],[100,16420],[100,16512],[100,16604],[100,16695],[100,16787],[100,16879],[100,16971],[100,17062],[100,17154],[100,17245],[100,17337],[100,17429],[100,17520],[100,17612],[100,17704],[100,17796],[100,17887],[100,17979],[100,18070],[100,18162],[100,18253],[100,18345],[100,18437],[100,18530],[100,18620],[100,18712],[100,18804],[100,18895],[100,18987],[100,19078],[100,19170],[100,19262],[100,19354],[100,19445],[100,19537],[100,19628],[100,19720],[100,19812],[100,19903],[100,19995],[100,20087],[100,20179],[100,20270],[100,20362],[100,20453],[100,20545],[100,20637],[100,20728],[100,20820],[100,20912],[100,21003],[100,21095],[100,21188],[100,21279],[100,21370],[100,21462],[100,21554],[100,21645],[100,21738],[100,21829],[100,21921],[100,22012],[100,22104],[100,22196],[100,22287],[100,22380],[100,22470],[100,22562],[100,22654],[100,22745],[100,22837],[100,22929],[100,23020],[100,23112],[100,23204],[100,23296],[100,23387],[100,23478],[100,23570],[100,23661],[100,23754],[100,23845],[100,23938],[100,24028],[100,24120],[100,24212],[100,24304],[100,24395],[100,24487],[100,24578],[100,24670],[100,24762],[100,24853],[100,24945],[100,25037],[100,25128],[100,25220],[100,25312],[100,25403],[100,25495],[100,25587],[100,25678],[100,25770],[100,25862],[100,25953],[100,26045],[100,26137],[100,26229],[100,26321],[100,26412],[100,26503],[100,26595],[100,26687],[100,26779],[100,26870],[100,26962],[100,27054],[100,27145],[100,27236],[100,27328],[100,27419],[100,27512],[100,27604],[100,27695],[100,27787],[100,27878],[100,27971],[100,28062],[100,28153],[100,28245],[100,28337],[100,28429]]",1467.0258,1470.0585,99.02736415,2.2886,"[{""rating"":99.02736415473618,""responseTime"":2.2885999999045907}]",space,2.5078,,1470.0587,Definitely yes,100,1470.0625,,,[],,0,11,11,11,1,audio/Narrative8Situation2.wav,audio/Narrative7Situation2.wav,audio/Narrative6Situation2.wav,audio/Narrative5Situation2.wav,3,3,3,3,,,,,,,,,,,,,,,,,,,,,,,,,,,,,,,,,,,,,,,
,,,,,65d563ecf8df20ade2f17888,2025-07-07_19h47.12.857,group3.4_multiperson,2023.2.2,MacIntel,136.9863014,686c2ebf0248f13bef9af11f,686c855a210d7ca4fd51d7ab,,,,,,,,,,,,,,,,,,,,,,,,,,,,,1470.0629,2,audio/Narrative6Situation3.wav,1475.0653,,1475.0654,1487.6568,"[[999,0],[999,91],[999,183],[999,275],[999,367],[999,457],[999,551],[50.1,825],[49.7,916],[49.6,1008],[49.6,1100],[49.6,1191],[49.6,1283],[49.6,1374],[49.6,1466],[49.6,1558],[49.6,1649],[49.6,1742],[49.6,1833],[49.6,1924],[49.6,2016],[49.6,2108],[49.6,2200],[49.6,2291],[49.6,2383],[49.6,2474],[49.6,2566],[49.6,2658],[49.6,2749],[49.6,2841],[49.6,2933],[49.6,3024],[49.6,3116],[49.6,3208],[49.6,3299],[49.6,3391],[49.6,3483],[49.6,3574],[49.6,3666],[49.6,3758],[49.6,3849],[49.6,3941],[49.6,4033],[49.6,4124],[49.6,4216],[49.6,4307],[49.6,4399],[49.6,4492],[49.6,4583],[49.6,4674],[49.6,4766],[49.6,4858],[49.6,4949],[49.6,5042],[49.6,5133],[49.6,5225],[49.6,5316],[49.6,5408],[49.6,5499],[49.6,5591],[49.6,5683],[49.6,5774],[49.6,5865],[49.6,5958],[49.6,6050],[49.6,6141],[49.6,6233],[49.6,6325],[49.6,6417],[49.6,6508],[49.6,6600],[49.6,6692],[49.6,6783],[49.6,6874],[49.6,6966],[49.6,7058],[49.6,7149],[49.6,7241],[49.6,7333],[49.6,7424],[49.6,7516],[49.6,7608],[100,7974],[100,8066],[100,8158],[100,8249],[100,8341],[100,8433],[98.9,8524],[99.1,8616],[99.6,8708],[99.6,8799],[99.6,8891],[99.6,8983],[99.6,9074],[99.6,9166],[99.6,9258],[99.6,9349],[99.6,9441],[99.6,9533],[99.6,9624],[99.6,9716],[99.6,9808],[99.6,9899],[99.6,9991],[99.6,10083],[99.6,10174],[99.6,10266],[99.6,10357],[99.6,10449],[99.6,10541],[99.6,10633],[99.6,10724],[99.6,10816],[99.6,10908],[99.6,10999],[99.6,11091],[99.6,11182],[99.6,11274],[99.6,11366],[99.6,11458],[99.6,11549],[99.6,11641],[99.6,11733],[99.6,11825],[99.6,11916],[99.6,12008],[99.6,12100],[99.6,12192],[99.6,12283],[99.6,12374],[99.6,12466],[99.6,12558]]",1487.6569,1501.3318,50.02375042,4.4283,"[{""rating"":0.831607700074688,""responseTime"":2.7037000000477747},{""rating"":50.02375042397951,""responseTime"":4.428299999952287}]",space,13.1618,,1501.3318,Not at all,0,1501.3371,,,[],,0,12,12,12,1,audio/Narrative8Situation3.wav,audio/Narrative7Situation3.wav,audio/Narrative6Situation3.wav,audio/Narrative5Situation3.wav,4,8,5,3,,,,,,,,,,,,,,,,,,,,,,,,,,,,,,,,,,,,,,,
,,,,,65d563ecf8df20ade2f17888,2025-07-07_19h47.12.857,group3.4_multiperson,2023.2.2,MacIntel,136.9863014,686c2ebf0248f13bef9af11f,686c855a210d7ca4fd51d7ab,,,,,,,,,,,,,,,,,,,,,,,,,,,,,1501.3375,2,audio/Narrative6Situation4.wav,1503.34,,1503.34,1515.9405,"[[49.9,1375],[50.3,1467],[50.8,1560],[51.6,1650],[51.6,1741],[51.6,1833],[51.6,1924],[51.1,2016],[50.2,2108],[50.2,2200],[49.8,2291],[49.6,2383],[49.6,2475],[49.6,2566],[49.6,2658],[49.6,2749],[49.6,2842],[49.6,2932],[49.6,3025],[49.6,3117],[49.6,3209],[49.6,3299],[49.6,3392],[49.6,3483],[49.6,3575],[49.6,3666],[49.6,3759],[49.6,3850],[49.6,3941],[49.6,4033],[49.6,4125],[49.6,4216],[49.6,4308],[49.6,4400],[49.6,4491],[49.6,4583],[49.6,4674],[49.6,4766],[49.6,4858],[49.6,4949],[49.6,5040],[49.6,5133],[49.6,5224],[49.6,5316],[49.6,5408],[49.6,5500],[49.6,5591],[49.6,5683],[49.6,5774],[49.6,5866],[49.6,5958],[49.6,6049],[49.6,6141],[49.6,6233],[49.6,6325],[49.6,6415],[49.6,6509],[49.6,6600],[49.6,6691],[49.6,6783],[49.6,6875],[49.6,6967],[49.6,7058],[49.6,7149],[49.6,7242],[49.6,7333],[49.6,7424],[49.6,7516],[49.6,7608],[49.6,7699],[49.6,7791],[49.6,7883],[49.6,7975],[49.6,8066],[49.6,8158],[49.6,8250],[49.6,8342],[49.6,8433],[49.6,8524],[49.6,8617],[49.6,8708],[49.6,8800],[49.6,8891],[49.6,8983],[49.6,9075],[49.6,9167],[49.6,9257],[49.6,9349],[49.6,9441],[49.6,9533],[49.6,9624],[49.6,9716],[49.6,9808],[49.6,9899],[49.6,9991],[49.6,10083],[49.6,10174],[49.6,10266],[49.6,10358],[49.6,10449],[49.6,10541],[49.6,10633],[49.6,10724],[49.6,10815],[49.6,10908],[49.6,10999],[49.6,11091],[49.6,11183],[49.6,11275],[49.6,11366],[49.6,11458],[49.6,11550],[49.6,11641],[49.6,11733],[49.6,11824],[49.6,11917],[49.6,12009],[49.6,12100],[49.6,12191],[65.4,12283],[84.8,12375],[95.4,12467],[100,12558]]",1515.9405,1518.7808,99.90133096,1.1193,"[{""rating"":99.90133096096176,""responseTime"":1.119300000071462}]",space,2.3175,,1518.7808,Partially,50,1518.7816,,,[],,0,13,13,13,1,audio/Narrative8Situation4.wav,audio/Narrative7Situation4.wav,audio/Narrative6Situation4.wav,audio/Narrative5Situation4.wav,3,3,2,1,,,,,,,,,,,,,,,,,,,,,,,,,,,,,,,,,,,,,,,
,,,,,65d563ecf8df20ade2f17888,2025-07-07_19h47.12.857,group3.4_multiperson,2023.2.2,MacIntel,136.9863014,686c2ebf0248f13bef9af11f,686c855a210d7ca4fd51d7ab,,,,,,,,,,,,,,,,,,,,,,,,,,,,,1518.7817,2,audio/Narrative6Situation5.wav,1520.7902,,1520.7902,1528.7314,"[[97.9,1649],[60.2,1741],[51.5,1833],[51.2,1924],[48.5,2016],[48.4,2107],[48.4,2199],[48.4,2291],[49.5,2383],[50.6,2474],[50.7,2566],[50.7,2657],[50.8,2749],[50.9,2841],[50.9,2932],[50.9,3024],[50.9,3116],[50.9,3207],[50.9,3299],[50.9,3391],[50.9,3482],[50.9,3574],[50.9,3666],[50.9,3758],[50.9,3850],[50.9,3941],[50.9,4032],[50.9,4125],[50.9,4216],[50.9,4307],[50.9,4399],[50.9,4491],[50.9,4583],[51.8,4674],[85.4,4766],[100,4858],[100,4949],[100,5041],[100,5133],[100,5223],[100,5316],[100,5408],[100,5499],[100,5591],[100,5682],[100,5775],[100,5865],[100,5958],[100,6050],[100,6140],[100,6233],[100,6325],[100,6417],[100,6508],[100,6599],[100,6691],[100,6782],[100,6874],[100,6966],[100,7057],[100,7149],[100,7241],[100,7332],[100,7424],[100,7515],[100,7607],[100,7699],[100,7791],[100,7882]]",1528.7315,1532.8814,100,3.6658,"[{""rating"":98.94884369948933,""responseTime"":2.19889999997622},{""rating"":100,""responseTime"":3.665799999952469}]",space,3.6256,,1532.8814,Partially,50,1532.8821,,,[],,0,14,14,14,1,audio/Narrative8Situation5.wav,audio/Narrative7Situation5.wav,audio/Narrative6Situation5.wav,audio/Narrative5Situation5.wav,2,5,2,5,,,,,,,,,,,,,,,,,,,,,,,,,,,,,,,,,,,,,,,
,,,,,65d563ecf8df20ade2f17888,2025-07-07_19h47.12.857,group3.4_multiperson,2023.2.2,MacIntel,136.9863014,686c2ebf0248f13bef9af11f,686c855a210d7ca4fd51d7ab,,,,,,,,,,,,,,,,,,,,,,,,,,,,,1532.8821,2,audio/Narrative6Situation6.wav,1534.8905,,1534.8905,1545.9488,"[[97.4,2749],[88.8,2840],[86.7,2932],[86.3,3024],[86,3116],[85.8,3207],[85.8,3299],[85.8,3390],[85.8,3482],[85.8,3574],[85.8,3665],[85.8,3757],[85.8,3849],[85.8,3940],[85.8,4032],[85.8,4124],[85.8,4215],[85.8,4307],[85.8,4399],[85.8,4490],[85.8,4582],[85.8,4674],[85.8,4766],[85.8,4858],[85.8,4949],[85.8,5040],[85.8,5132],[85.8,5224],[85.8,5315],[85.8,5407],[85.8,5499],[85.8,5591],[85.8,5682],[85.8,5774],[85.8,5866],[85.8,5957],[85.8,6049],[85.8,6141],[85.8,6232],[85.8,6324],[85.8,6415],[85.8,6507],[85.8,6599],[85.8,6691],[85.8,6782],[85.8,6874],[85.8,6966],[85.8,7057],[85.8,7149],[85.8,7241],[85.8,7332],[85.8,7423],[85.8,7515],[85.8,7607],[85.8,7699],[85.8,7790],[85.8,7882],[85.8,7974],[85.8,8065],[85.8,8157],[85.8,8249],[85.8,8340],[85.8,8432],[89.4,8524],[99.3,8615],[100,8706],[100,8799],[100,8890],[100,8982],[100,9074],[100,9165],[100,9257],[100,9349],[100,9440],[100,9532],[100,9624],[100,9716],[100,9808],[100,9899],[100,9990],[100,10082],[100,10174],[100,10266],[100,10357],[100,10448],[100,10541],[100,10632],[100,10724],[100,10815],[100,10907],[100,10998]]",1545.9491,1549.023,100,2.5305,"[{""rating"":98.68180151478124,""responseTime"":1.6839000000952637},{""rating"":100,""responseTime"":2.530499999999847}]",space,2.5493,,1549.023,Partially,50,1549.0236,,,[],,0,15,15,15,1,audio/Narrative8Situation6.wav,audio/Narrative7Situation6.wav,audio/Narrative6Situation6.wav,audio/Narrative5Situation6.wav,2,3,2,3,,,,,,,,,,,,,,,,,,,,,,,,,,,,,,,,,,,,,,,
,,,,,65d563ecf8df20ade2f17888,2025-07-07_19h47.12.857,group3.4_multiperson,2023.2.2,MacIntel,136.9863014,686c2ebf0248f13bef9af11f,686c855a210d7ca4fd51d7ab,,,,,,,,,,,,,,,,,,,,,,,,,,,,,1549.0237,2,audio/Narrative6Situation7.wav,1554.0312,,1554.0312,1578.8728,"[[999,0],[999,91],[999,182],[999,274],[999,366],[999,458],[999,549],[999,641],[999,733],[999,825],[999,916],[999,1008],[999,1101],[999,1194],[74.1,1283],[74.3,1375],[74.3,1466],[74.1,1557],[72.6,1649],[72.4,1741],[72.4,1832],[72.4,1925],[72.4,2017],[72.4,2108],[72.4,2200],[72.4,2291],[72.4,2384],[72.4,2475],[72.4,2567],[72.4,2658],[72.4,2749],[72.4,2841],[72.4,2933],[73.5,3025],[75.3,3116],[76.4,3208],[76.5,3300],[76.5,3391],[76.5,3483],[76.5,3575],[76.5,3666],[76.5,3757],[76.5,3849],[76.5,3941],[76.5,4033],[76.8,4125],[76.8,4216],[76.8,4308],[78,4399],[78.8,4491],[80.7,4583],[86,4675],[89.7,4766],[90.8,4858],[91.8,4950],[92.1,5041],[92.1,5133],[92.1,5224],[92.1,5316],[92.1,5408],[94.3,5500],[96.3,5592],[97.3,5683],[97.3,5775],[95.7,5866],[87.3,5958],[83.8,6050],[83.6,6141],[83.6,6233],[83.6,6324],[8.5,6783],[2.6,6875],[2.8,6968],[6.3,7058],[6.5,7150],[6.2,7241],[3.3,7333],[0.5,7424],[0.3,8250],[1.2,8341],[2.2,8433],[2.5,8524],[2.5,8616],[2.5,8708],[2.5,8799],[2.5,8891],[2.5,8983],[2.5,9075],[2.5,9166],[2.5,9258],[2.5,9349],[2.5,9441],[2.5,9533],[2.5,9624],[2.5,9716],[1.8,9808],[1,9899],[0.8,9991],[0.8,10083],[0.8,10174],[0.8,10266],[0.8,10358],[0.8,10450],[0.8,10541],[0.8,10633],[0.8,10725],[18.9,11184],[92.1,11642],[98,11734],[98.1,11825],[97.9,11916],[99.8,12008],[100,12099],[100,12191],[100,12283],[100,12376],[100,12466],[100,12558],[100,12649],[100,12742],[100,12833],[100,12925],[100,13016],[100,13108],[100,13200],[100,13291],[100,13383],[100,13474],[100,13566],[100,13658],[100,13749],[100,13841],[100,13933],[100,14024],[100,14116],[100,14208],[100,14299],[100,14391],[100,14483],[100,14574],[100,14666],[100,14758],[100,14849],[100,14941],[100,15033],[100,15124],[100,15216],[100,15308],[100,15400],[100,15491],[100,15583],[100,15675],[100,15767],[100,15858],[100,15949],[100,16042],[100,16133],[100,16225],[100,16317],[100,16408],[100,16500],[100,16592],[100,16683],[100,16774],[100,16866],[100,16958],[100,17050],[100,17142],[100,17233],[100,17325],[100,17416],[100,17508],[100,17600],[100,17691],[100,17783],[100,17874],[100,17967],[100,18058],[100,18150],[100,18242],[100,18333],[100,18425],[100,18516],[100,18608],[100,18699],[100,18791],[100,18883],[100,18974],[100,19066],[100,19158],[100,19249],[100,19341],[100,19433],[100,19524],[100,19616],[100,19708],[100,19799],[100,19891],[100,19983],[100,20074],[100,20166],[100,20258],[100,20349],[100,20441],[100,20533],[100,20624],[100,20716],[100,20808],[100,20899],[100,20991],[100,21083],[100,21175],[85.7,21266],[65.7,21360],[61.8,21450],[61.5,21541],[61.5,21633],[61.5,21725],[57.6,21816],[51.8,21908],[50,21999],[49.5,22092],[49.5,22183],[49.5,22275],[49.5,22366],[49.5,22458],[49.9,22550],[50.9,22642],[51,22733],[51,22825],[51,22917],[51,23008],[51,23099],[51,23192],[51,23283],[51,23374],[51,23467],[51,23558],[51,23649],[51,23741],[51,23833],[51,23924],[51,24016],[51,24108],[51,24199],[51,24291],[51,24383],[51,24474],[51,24566],[51,24658],[62.6,24749],[85,24841]]",1578.8729,1582.8301,74.56662254,3.7442,"[{""rating"":78.57488476844708,""responseTime"":1.744100000023991},{""rating"":74.56662254317263,""responseTime"":3.74420000004784}]",space,3.4341,,1582.8301,Definitely yes,100,1582.8311,,,[],,0,16,16,16,1,audio/Narrative8Situation7.wav,audio/Narrative7Situation7.wav,audio/Narrative6Situation7.wav,audio/Narrative5Situation7.wav,3,5,5,4,,,,,,,,,,,,,,,,,,,,,,,,,,,,,,,,,,,,,,,
,,,,,65d563ecf8df20ade2f17888,2025-07-07_19h47.12.857,group3.4_multiperson,2023.2.2,MacIntel,136.9863014,686c2ebf0248f13bef9af11f,686c855a210d7ca4fd51d7ab,,,,,,,,,,,,,,,,,,,,,,,,,,,,,1582.8312,2,audio/Narrative6Situation8.wav,1587.8393,,1587.8393,1594.6809,"[[999,0],[999,90],[999,182],[999,274],[999,366],[999,458],[999,549],[999,641],[999,732],[47.1,825],[47,916],[47.4,1008],[48.1,1100],[49.6,1191],[49.5,1283],[49.4,1374],[49.6,1465],[49.6,1558],[49.6,1649],[49.6,1742],[49.6,1833],[49.6,1924],[49.6,2016],[49.6,2108],[49.6,2200],[49.6,2292],[49.6,2384],[49.6,2475],[49.6,2567],[49.6,2658],[49.6,2749],[49.6,2842],[49.6,2933],[49.6,3025],[49.6,3117],[49.6,3208],[49.6,3299],[49.6,3391],[49.6,3483],[49.6,3575],[49.6,3666],[49.6,3758],[49.6,3850],[49.6,3942],[49.6,4033],[49.6,4125],[49.6,4217],[49.6,4308],[49.6,4399],[49.6,4491],[49.6,4583],[49.6,4675],[49.6,4766],[49.6,4858],[49.6,4949],[49.7,5041],[49.7,5133],[49.7,5224],[49.7,5316],[49.7,5408],[49.7,5499],[49.7,5591],[49.7,5683],[49.7,5774],[49.7,5866],[49.7,5958],[49.7,6049],[49.7,6141],[49.7,6233],[49.7,6324],[49.7,6416],[49.7,6508],[49.7,6599],[49.7,6691],[49.7,6782]]",1594.681,1600.2476,0.261357434,2.267,"[{""rating"":0.26135743364888997,""responseTime"":2.2670000000000528}]",space,5.0466,,1600.2476,Partially,50,1600.2496,,,[],,0,17,17,17,1,audio/Narrative8Situation8.wav,audio/Narrative7Situation8.wav,audio/Narrative6Situation8.wav,audio/Narrative5Situation8.wav,3,2,5,3,,,,,,,,,,,,,,,,,,,,,,,,,,,,,,,,,,,,,,,
,,,,,65d563ecf8df20ade2f17888,2025-07-07_19h47.12.857,group3.4_multiperson,2023.2.2,MacIntel,136.9863014,686c2ebf0248f13bef9af11f,686c855a210d7ca4fd51d7ab,,,,,,,,,,,,,,,,,,,,,,,,,,,,,1600.2498,2,audio/Narrative6Situation9.wav,1604.2558,,1604.2558,1614.1807,"[[45.8,1283],[47.2,1375],[52.7,1466],[53.8,1558],[53.1,1650],[51.7,1741],[50.9,1833],[50.5,1925],[50.5,2017],[50.5,2108],[50.5,2200],[50.5,2291],[50.5,2383],[50.5,2475],[50.5,2566],[50.5,2658],[50.5,2750],[50.5,2841],[50.5,2933],[50.5,3025],[50.5,3116],[50.5,3208],[50.5,3299],[50.5,3391],[50.5,3483],[50.5,3575],[50.5,3666],[50.5,3757],[50.5,3849],[50.5,3941],[50.5,4033],[50.5,4124],[50.5,4216],[50.5,4308],[50.5,4399],[50.5,4491],[50.5,4583],[50.5,4674],[50.5,4766],[50.5,4858],[50.5,4949],[50.5,5041],[50.5,5133],[50.5,5225],[50.5,5316],[50.5,5408],[50.5,5500],[50.5,5591],[50.5,5683],[50.5,5774],[50.5,5866],[50.5,5957],[50.5,6050],[50.5,6141],[50.5,6233],[50.5,6324],[50.5,6416],[50.5,6508],[50.5,6599],[50.5,6691],[50.5,6783],[50.5,6875],[50.5,6967],[50.5,7059],[50.5,7149],[50.5,7240],[50.5,7334],[50.5,7425],[50.5,7516],[50.5,7609],[50.5,7700],[50.5,7792],[50.5,7883],[50.5,7977],[50.5,8066],[50.5,8158],[50.5,8249],[50.5,8340],[50.5,8433],[50.5,8524],[50.5,8616],[50.5,8707],[50.5,8799],[50.5,8890],[50.5,8983],[50.5,9074],[50.5,9166],[50.5,9257],[50.5,9350],[50.5,9440],[50.5,9533],[50.5,9624],[50.5,9716],[50.5,9808],[50.5,9899]]",1614.1808,1616.3475,0.656502,1.5412,"[{""rating"":0.6565020002934407,""responseTime"":1.5412000000476382}]",space,1.6461,,1616.3476,Not at all,0,1616.3503,,,[],,0,18,18,18,1,audio/Narrative8Situation9.wav,audio/Narrative7Situation9.wav,audio/Narrative6Situation9.wav,audio/Narrative5Situation9.wav,3,2,4,3,,,,,,,,,,,,,,,,,,,,,,,,,,,,,,,,,,,,,,,
,,,,,65d563ecf8df20ade2f17888,2025-07-07_19h47.12.857,group3.4_multiperson,2023.2.2,MacIntel,136.9863014,686c2ebf0248f13bef9af11f,686c855a210d7ca4fd51d7ab,,,,,,,,,,,,,,,,,,,,,,,,,,,,,,,,,,,,,,,,,,,,,,,,,,,,,,,,,,,,,,,,,,,,,,1616.3505,1619.3307,space,2.4628,,1619.3308,1642.4645,space,22.8161,,,,,,,,,,,,,,,,,,,,,,,,,,
,,,,,65d563ecf8df20ade2f17888,2025-07-07_19h47.12.857,group3.4_multiperson,2023.2.2,MacIntel,136.9863014,686c2ebf0248f13bef9af11f,686c855a210d7ca4fd51d7ab,,,,,,,,,,,,,,,,,,,,,,,,,,,,,1645.0524,1,audio/Narrative8Situation9.wav,1647.0552,,,,,1678.8969,1682.9794,99.2758113,2.5499,"[{""rating"":99.27581130101393,""responseTime"":2.5498999999761054}]",space,3.5579,,1682.9794,Not at all,0,1682.9801,,,[],,,,,,,,,,,2,2,2,2,,,,,,,,,,,,,,,1642.4661,1645.0472,1647.0557,3,1678.8968,"[[999,1],[999,91],[999,183],[999,274],[999,365],[999,457],[999,549],[999,641],[999,732],[46.6,824],[50.1,916],[50.1,1008],[50.1,1099],[50.1,1191],[50.4,1282],[50.8,1374],[50.9,1465],[50.9,1557],[50.9,1649],[50.9,1740],[48.6,1832],[45.8,1924],[45.2,2016],[45.2,2107],[45.2,2199],[45.2,2291],[45.2,2383],[45.2,2474],[45.2,2567],[45.2,2658],[45.2,2749],[45.2,2841],[45.3,2933],[47.2,3024],[47.8,3116],[47.8,3208],[47.8,3300],[47.8,3391],[47.8,3483],[48.9,3575],[49.5,3666],[49.7,3757],[49.7,3849],[49.7,3941],[49.7,4033],[49.7,4124],[49.7,4216],[49.7,4308],[49.7,4399],[49.7,4491],[49.7,4583],[49.7,4675],[49.7,4766],[49.7,4858],[49.7,4949],[49.7,5041],[49.7,5132],[49.7,5225],[49.7,5316],[49.7,5408],[49.7,5499],[49.7,5591],[49.7,5682],[49.7,5774],[49.7,5866],[49.7,5958],[49.7,6049],[47.7,6141],[45.2,6233],[45.3,6324],[46.9,6416],[47.9,6508],[47.9,6599],[47.9,6691],[47.9,6782],[47.9,6874],[47.9,6966],[47.9,7057],[39.2,7149],[4,25482],[41.6,25574],[45.8,25665],[45.8,25757],[45.9,25849],[75.3,25940],[89.2,26032],[92.2,26123],[92.2,26216],[92.2,26307],[100,26399],[100,26491],[100,26582],[100,26674],[100,26765],[100,26856],[100,26949],[100,27041],[100,27132],[100,27223],[100,27316],[100,27407],[100,27499],[100,27591],[100,27683],[100,27773],[100,27866],[100,27957],[100,28049],[100,28140],[100,28233],[100,28324],[100,28416],[100,28508],[100,28599],[100,28691],[100,28782],[100,28874],[100,28966],[100,29058],[100,29149],[100,29240],[100,29333],[100,29424],[100,29516],[100,29607],[100,29699],[100,29791],[100,29883],[100,29974],[100,30065],[100,30158],[100,30249],[100,30341],[100,30432],[100,30524],[100,30616],[100,30707],[100,30799],[100,30891],[100,30981],[100,31074],[100,31165],[100,31257],[100,31349],[100,31441],[100,31532],[100,31624],[100,31716],[100,31807]]",0,0,0,0,1,"Larry had recently lost his family, job and home, and was now living on his own in the park. He had most of his belongings, including some clothes, a blanket, and his mother’s special necklace. His family had been very important to him and he felt as though he did not have much going for him. One of his first days in the park he came across a family that did not have much food and looked very cold. He decided to give them some of his food and his blanket.","Larry had recently lost his family, job and home, and was now living on his own in the park. He had most of his belongings, including some clothes, a blanket, and his mother’s special necklace. His family had been very important to him and he felt as though he did not have much going for him. One of his first days in the park he came across a family that did not have much food and looked very cold. He decided to give them some of his food and his blanket.","Larry had recently lost his family, job and home, and was now living on his own in the park. He had most of his belongings, including some clothes, a blanket, and his mother’s special necklace. His family had been very important to him and he felt as though he did not have much going for him. One of his first days in the park he came across a family that did not have much food and looked very cold. He decided to give them some of his food and his blanket.","Larry had recently lost his family, job and home, and was now living on his own in the park. He had most of his belongings, including some clothes, a blanket, and his mother’s special necklace. His family had been very important to him and he felt as though he did not have much going for him. One of his first days in the park he came across a family that did not have much food and looked very cold. He decided to give them some of his food and his blanket.",,,,,,,,,,
,,,,,65d563ecf8df20ade2f17888,2025-07-07_19h47.12.857,group3.4_multiperson,2023.2.2,MacIntel,136.9863014,686c2ebf0248f13bef9af11f,686c855a210d7ca4fd51d7ab,,,,,,,,,,,,,,,,,,,,,,,,,,,,,1682.9803,1,audio/Narrative8Situation9.wav,1686.8147,space,,,,1720.322,1724.1297,99.65236083,2.2823,"[{""rating"":99.65236082922813,""responseTime"":2.282300000071473}]",space,3.2881,,1724.1297,Partially,50,1724.1307,,,[],,,,,,,,,,,6,2,3,9,3.824,,,,,,,,,,,,,,,,1686.8149,3,1720.3218,"[[72.4,1190],[60.3,1281],[56.4,1373],[55,1465],[53.3,1557],[51.1,1648],[50.3,1739],[50,1831],[50,1923],[50,2015],[50,2106],[50,2198],[50,2290],[50,2381],[50,2473],[50,2565],[50,2656],[50,2748],[50,2840],[50,2932],[50,3023],[50,3115],[50,3207],[50,3298],[50,3390],[50,3482],[50,3573],[50,3665],[50,3757],[50,3849],[50,3940],[50,4032],[50,4124],[50,4216],[50,4307],[50,4398],[50,4490],[50,4582],[50,4672],[50,4765],[50,4856],[50,4948],[50,5040],[50,5132],[50,5224],[50,5315],[50,5407],[50,5498],[50,5590],[50,5682],[50,5773],[50,5865],[50,5956],[50,6048],[50,6140],[50,6231],[50,6323],[50,6415],[50,6506],[50,6598],[50,6690],[50,6781],[50,6873],[50,6965],[50,7056],[50,7148],[50,7240],[50,7331],[50,7423],[50,7515],[50,7606],[50,7698],[50,7790],[50,7882],[50,7973],[50,8065],[50,8156],[50,8249],[50,8341],[50,8432],[50,8523],[50,8615],[50,8707],[50,8798],[50,8890],[50,8982],[50,9073],[50,9165],[50,9257],[50,9348],[50,9440],[50,9531],[50,9623],[50,9715],[50,9807],[50,9898],[50,9990],[50,10082],[50,10174],[50,10265],[50,10356],[50,10448],[50,10540],[50,10632],[50,10723],[50,10815],[50,10906],[50,10998],[50,11089],[50,11181],[58.5,11273],[70.7,11365],[85.4,11455],[85.4,11548],[85.4,11640],[88.6,11731],[94.3,11822],[98.8,11914],[100,12006],[100,12098],[100,12189],[100,12280],[100,12373],[100,12465],[100,12556],[100,12648],[100,12740],[100,12832],[100,12923],[100,13015],[100,13107],[100,13198],[100,13290],[100,13381],[100,13473],[100,13565],[100,13657],[100,13748],[100,13840],[100,13931],[100,14023],[100,14115],[100,14207],[100,14298],[100,14390],[100,14481],[100,14574],[100,14664],[100,14757],[100,14848],[100,14940],[100,15031],[100,15123],[100,15215],[100,15306],[100,15398],[100,15490],[100,15582],[100,15673],[100,15764],[100,15856],[100,15948],[100,16039],[100,16131],[100,16222],[100,16315],[100,16406],[100,16498],[100,16589],[100,16681],[100,16773],[100,16865],[100,16956],[100,17048],[100,17140],[100,17231],[100,17323],[100,17415],[100,17506],[100,17598],[100,17690],[100,17780],[100,17873],[100,17965],[100,18056],[100,18148],[100,18240],[100,18331],[100,18423],[100,18515],[100,18606],[100,18698],[100,18790],[100,18882],[100,18973],[100,19065],[100,19157],[100,19249],[100,19340],[100,19433],[100,19523],[100,19615],[100,19706],[100,19798],[100,19890],[100,19982],[100,20073],[100,20165],[100,20257],[100,20348],[100,20440],[100,20531],[100,20623],[100,20715],[100,20806],[100,20898],[100,20989],[100,21081],[100,21173],[100,21265],[100,21356],[100,21448],[100,21540],[100,21631],[100,21723],[100,21815],[100,21906],[100,21998],[100,22090],[100,22181],[100,22273],[100,22365],[100,22456],[100,22548],[100,22640],[100,22731],[100,22823],[100,22915],[100,23005],[100,23098],[100,23190],[100,23282],[100,23373],[100,23465],[100,23557],[100,23648],[100,23740],[100,23832],[100,23924],[100,24014],[100,24107],[100,24198],[100,24290],[100,24382],[100,24473],[100,24565],[100,24656],[100,24748],[100,24840],[100,24931],[100,25022],[100,25115],[100,25206],[100,25298],[100,25390],[100,25482],[100,25573],[100,25665],[100,25756],[100,25848],[100,25940],[100,26031],[100,26123],[100,26215],[100,26306],[100,26398],[100,26490],[100,26581],[100,26673],[100,26765],[100,26856],[100,26948],[100,27039],[100,27131],[100,27223],[100,27315],[100,27406],[100,27498],[100,27590],[100,27681],[100,27773],[100,27865],[100,27956],[100,28048],[100,28140],[100,28231],[100,28323],[100,28415],[100,28507],[100,28598],[100,28689],[100,28782],[100,28873],[100,28965],[100,29057],[100,29148],[100,29240],[100,29332],[100,29423],[100,29515],[100,29606],[100,29698],[100,29790],[100,29882],[100,29973],[100,30064],[100,30157],[100,30249],[100,30340],[100,30431],[100,30523],[100,30615],[100,30706],[100,30798],[100,30889],[100,30981],[100,31073],[100,31164],[100,31256],[100,31348],[100,31439],[100,31531],[100,31623],[100,31714],[100,31805],[100,31898],[100,31989],[100,32081],[100,32173],[100,32264],[100,32356],[100,32448],[100,32540],[100,32631],[100,32723],[100,32815],[100,32907],[100,32998],[100,33090],[100,33181],[100,33273],[100,33365],[100,33456]]",0,1,1,1,1,"It was just another Sunday afternoon for Lucy, she was on her way to the farmer's market to pick up some produce. When she arrived at the old train depot that housed the market, she noticed two men fighting on the steps. Before she could call for help, one of the men crumpled to his knees. The other man dropped an object that appeared to be a knife and ran off. When Lucy approached the crime scene she realized that the man who had been murdered was the Mayor and that he had a gunshot wound.","One day at work, Margaret walked up to her partner, Al, to ask him to talk to the chief of staff at the local hospital where she worked as a nurse.","Luke always thought of himself as an honest man. That's why during his evening jog around the swamp, he pondered his recent affair with the receptionist at work. Luke looked up at the sky and asked God why he was so weak and unfaithful. He thought of the impact this would have on his family and told God of his conflicted feelings toward telling his wife Marta.","Linda and Amy had been best friends since kindergarten, they even found homes on the same street in the forest on the edge of town. Their biggest fight had been over who gets the bigger slice of cake, until Amy married Dan. Linda loathed Dan, she thought he was manipulative and had a violent temper. She only put up with him because Amy loved him. ",,,,,,,,,,
,,,,,65d563ecf8df20ade2f17888,2025-07-07_19h47.12.857,group3.4_multiperson,2023.2.2,MacIntel,136.9863014,686c2ebf0248f13bef9af11f,686c855a210d7ca4fd51d7ab,,,,,,,,,,,,,,,,,,,,,,,,,,,,,1724.1307,1,audio/Narrative8Situation9.wav,1728.138,,,,,1746.6465,1749.8134,99.56506584,1.552,"[{""rating"":99.565065840222,""responseTime"":1.5520000000001346}]",space,2.6509,,1749.8135,Not at all,0,1749.8185,,,[],,,,,,,,,,,4,5,2,2,,,,,,,,,,,,,,,,,1728.138,3,1746.6463,"[[999,0],[999,91],[999,183],[999,275],[999,365],[999,457],[999,549],[999,641],[999,733],[56.1,825],[52.9,916],[50.2,1007],[49.8,1099],[50.1,1191],[50.1,1282],[50.1,1374],[50.1,1467],[50.1,1558],[50.1,1650],[50.1,1742],[50.1,1832],[50.1,1925],[50.1,2017],[50.1,2108],[50.1,2200],[50.1,2291],[50.1,2383],[50.1,2475],[50.1,2566],[50.1,2659],[50.1,2750],[50.1,2841],[50.1,2933],[50.1,3024],[50.1,3116],[50.1,3208],[50.1,3300],[50.1,3391],[50.1,3482],[50.1,3575],[50.1,3666],[50.1,3758],[50.1,3850],[50.1,3941],[50.1,4033],[50.1,4124],[50.1,4217],[50.1,4307],[50.1,4400],[50.1,4490],[50.1,4583],[50.1,4673],[50.1,4766],[50.1,4858],[50.1,4950],[50.1,5041],[50.1,5133],[50.1,5224],[50.1,5316],[50.1,5407],[50.1,5500],[50.1,5591],[50.1,5682],[50.1,5774],[50.1,5866],[50.1,5957],[50.1,6049],[50.1,6141],[50.1,6232],[50.1,6324],[50.1,6416],[50.1,6508],[50.1,6600],[50.1,6692],[50.1,6783],[50.1,6875],[50.1,6966],[50.1,7058],[50.1,7150],[50.1,7241],[50.1,7333],[50.1,7424],[50.1,7516],[50.1,7608],[50.1,7699],[50.1,7791],[50.1,7883],[50.1,7975],[50.1,8066],[50.1,8157],[50.1,8250],[50.1,8341],[50.1,8433],[50.1,8525],[50.1,8616],[50.1,8709],[50.1,8800],[50.1,8891],[50.1,8983],[50.1,9075],[50.1,9166],[50.1,9258],[50.1,9349],[50.1,9441],[50.1,9533],[50.1,9624],[52.8,9716],[100,10174],[100,10266],[100,10358],[100,10450],[98.5,10541],[98.5,10633],[98.5,10724],[98.5,10816],[98.5,10908],[98.5,10999],[98.5,11090],[98.5,11183],[96.7,11274],[87.6,11367],[77.7,11458],[77.7,11551],[77.7,11641],[78.8,11734],[80.2,11825],[57.2,11916],[50.6,12008],[50.6,12099],[51.9,12192],[81.8,12283],[93.2,12375],[93.2,12466],[93.2,12558],[93.2,12649],[100,12741],[100,12834],[100,12925],[100,13017],[100,13108],[100,13200],[100,13292],[100,13383],[100,13475],[100,13567],[100,13658],[100,13750],[100,13842],[100,13933],[100,14025],[100,14116],[100,14208],[100,14300],[100,14391],[100,14483],[100,14574],[100,14666],[100,14758],[100,14849],[100,14941],[100,15033],[100,15124],[100,15216],[100,15308],[100,15399],[100,15491],[100,15583],[100,15674],[100,15766],[100,15858],[100,15949],[100,16041],[100,16133],[100,16224],[100,16316],[100,16407],[100,16500],[100,16592],[100,16683],[100,16775],[100,16866],[100,16958],[100,17049],[100,17141],[100,17232],[100,17325],[100,17417],[100,17508],[100,17599],[100,17691],[100,17783],[100,17874],[100,17967],[100,18058],[100,18150],[100,18241],[100,18333],[100,18425]]",0,2,2,2,1,On the ground beside him was a pen that she had mistaken for a knife. Lucy looked for the gunman and saw a suspicious man in black with distinct pointy features darting into an alley across the street. Cops who were nearby chased the man who had fled and arrested him.,"While waiting outside the chief of staff's office, Al heard nondescript shouting and yelling, there was a loud clatter in the room and then an eerie silence. An unfamiliar employee ran hastily out of the office with a terrified look on their face.","Suddenly, Luke heard a woman call out his name and when he turned around he saw Carly, his receptionist, across the road with a gun in her hand. Carly ran to him and explained how she had followed him here to confess her love. She exclaimed if Luke didn't love her back that she would kill him and his family. Carly explained that the only way they could be together is to kill Marta.","This feeling of hate between Amy and Dan was mutual, Dan didn't like how much time his wife spent with her and thought Amy was creating distance between their marriage. That's why Dan decided to try and tarnish Linda's reputation with his wife, in hopes it would get rid of her. He came home one afternoon and exclaimed that Linda had tried to kiss him. Amy was taken aback and immediately called Linda to confront her about these accusations. When Linda arrived she denied having made a move on Dan, but discovered Dan had enlisted the help of his friend Will who said he witnessed it all happen.",,,,,,,,,,
,,,,,65d563ecf8df20ade2f17888,2025-07-07_19h47.12.857,group3.4_multiperson,2023.2.2,MacIntel,136.9863014,686c2ebf0248f13bef9af11f,686c855a210d7ca4fd51d7ab,,,,,,,,,,,,,,,,,,,,,,,,,,,,,1749.819,1,audio/Narrative8Situation9.wav,1751.822,,,,,1763.6627,1772.4629,0,8.3869,"[{""rating"":1.138941555944134,""responseTime"":2.9602000000475073},{""rating"":0,""responseTime"":8.386899999976094}]",space,8.2833,,1772.463,Not at all,0,1772.4649,,,[],,,,,,,,,,,2,2,1,4,,,,,,,,,,,,,,,,,1751.8222,3,1763.6627,"[[100,2841],[100,2932],[100,3024],[100,3116],[99.9,3207],[99.9,3298],[99.9,3390],[99.9,3482],[99.9,3574],[99.9,3665],[99.9,3757],[99.9,3849],[99.9,3940],[99.9,4032],[99.9,4124],[99.9,4215],[99.9,4307],[59.8,4583],[56.4,4674],[56.4,4765],[56.4,4857],[56.4,4949],[49.6,5042],[78.9,6232],[79.3,6324],[36.1,7515],[45.1,7790],[47.6,7881],[50.4,7974],[50.5,8065],[50.4,8157],[50.4,8249],[50.4,8340],[50.4,8432],[50.4,8524],[50.4,8615],[50.4,8707],[50.4,8799],[50.4,8891],[50.4,8982],[50.4,9074],[50.4,9166],[50.4,9256],[50.4,9349],[50.4,9439],[50.4,9532],[50.4,9624],[50.4,9715],[50.4,9807],[50.4,9898],[50.4,9990],[50.4,10082],[50.4,10173],[50.4,10265],[50.4,10357],[50.4,10448],[50.4,10540],[50.4,10632],[50.4,10723],[50.4,10815],[50.4,10907],[50.4,10998],[50.4,11090],[50.4,11181],[50.4,11273],[50.4,11365],[50.4,11456],[50.4,11548],[50.4,11640],[50.4,11732],[50.4,11823]]",0,3,3,3,1,"But Lucy knew the charged man was innocent, which meant the killer was free. Lucy vowed to find out who the real murderer was and to stop him at all costs.","Al explained to the chief of staff that Margaret wanted to be excused from her absences last week. The chief of staff, Susan, revealed that she wanted to fire Margaret and never see her again. Susan and Al had been having an affair and she wanted Margaret ""out of the picture"". Al was conflicted, but agreed it would be for the best.","Luke thought of his child and felt like this was his only option. He agreed to the plan and called his wife to meet him at the swamp to watch the sunset with him. When she arrived, Marta called out for her husband, but found Carly waiting for her. She immediately drew her gun and shot her in the chest, knocking her unconscious.","Since it was their word against her own, she decided to go home and admit defeat. She knew how much it would hurt Amy to know the truth.",,,,,,,,,,
,,,,,65d563ecf8df20ade2f17888,2025-07-07_19h47.12.857,group3.4_multiperson,2023.2.2,MacIntel,136.9863014,686c2ebf0248f13bef9af11f,686c855a210d7ca4fd51d7ab,,,,,,,,,,,,,,,,,,,,,,,,,,,,,1772.4652,1,audio/Narrative8Situation9.wav,1773.4709,,,,,1802.9791,1809.9537,100,4.2573,"[{""rating"":99.0356302304134,""responseTime"":3.2787999999525255},{""rating"":100,""responseTime"":4.257299999952465}]",space,6.4555,,1809.9539,Definitely yes,100,1809.9557,,,[],,,,,,,,,,,1,1,3,3,,,,,,,,,,,,,,,,,1773.471,3,1802.979,"[[46.1,12924],[46.1,13016],[45.2,13108],[46.6,13200],[47.3,13291],[48.1,13383],[48.2,13475],[48.4,13566],[48.5,13657],[48.7,13750],[48.9,13841],[48.9,13933],[48.9,14024],[48.9,14116],[48.9,14208],[48.9,14299],[48.9,14391],[48.9,14483],[48.9,14574],[48.9,14666],[48.9,14758],[48.9,14849],[48.9,14941],[48.9,15033],[48.9,15124],[48.9,15216],[48.9,15308],[48.9,15399],[48.9,15491],[48.9,15582],[48.9,15674],[48.9,15765],[48.9,15858],[48.9,15949],[48.9,16040],[48.9,16132],[48.9,16225],[48.9,16316],[48.9,16410],[48.9,16499],[48.9,16591],[48.9,16685],[48.9,16774],[48.9,16866],[48.9,16959],[48.9,17050],[48.9,17141],[48.9,17233],[48.9,17325],[48.9,17416],[48.9,17508],[48.9,17599],[48.9,17691],[48.9,17783],[48.9,17874],[48.9,17967],[48.9,18057],[48.9,18149],[48.9,18241],[48.9,18333],[48.9,18424],[48.9,18516],[48.9,18608],[48.9,18700],[48.9,18792],[48.9,18882],[48.9,18973],[48.9,19066],[48.9,19158],[48.9,19249],[48.9,19341],[48.9,19433],[48.9,19524],[48.9,19616],[48.9,19708],[48.9,19799],[48.9,19891],[48.9,19983],[48.9,20074],[48.9,20166],[48.9,20258],[48.9,20349],[48.9,20440],[48.9,20532],[48.9,20624],[48.9,20716],[48.9,20808],[50.6,20899],[59.9,20991],[65,21083],[65,21174],[65,21266],[67.5,21358],[69.6,21449],[69.6,21541],[69.6,21633],[69.6,21724],[69.6,21816],[69.6,21909],[69.6,22000],[69.6,22091],[69.6,22183],[69.6,22275],[69.6,22368],[69.6,22458],[69.6,22549],[69.6,22641],[70.4,22733],[90.5,22824],[100,22917],[100,23008],[100,23100],[100,23191],[100,23284],[100,23374],[100,23466],[100,23557],[100,23649],[100,23741],[100,23833],[100,23924],[100,24016],[100,24108],[100,24199],[100,24291],[100,24382],[100,24474],[100,24566],[100,24657],[100,24749],[100,24841],[100,24932],[100,25024],[100,25116],[100,25207],[100,25299],[100,25390],[100,25483],[100,25574],[100,25666],[100,25758],[100,25849],[100,25941],[100,26032],[100,26123],[100,26215],[100,26308],[100,26399],[100,26491],[100,26582],[100,26675],[100,26766],[100,26858],[100,26949],[100,27041],[100,27133],[100,27224],[100,27316],[100,27408],[100,27499],[100,27591],[100,27683],[100,27774],[100,27866],[100,27958],[100,28049],[100,28141],[100,28233],[100,28325],[100,28416],[100,28508],[100,28600],[100,28691],[100,28783],[100,28874],[100,28966],[100,29058],[100,29149],[100,29241],[100,29332],[100,29424]]",0,4,4,4,1,"The next day the mayors successor, Mr. Smith, a man who was very unpopular due to his strong ties to the oil companies, took office. After a long day of brainstorming about the mysterious killer, Lucy decided to attend his welcome ceremony in the city. During the mayor's speech, she noticed one of the security guards looked strangely familiar. It dawned on her that this new mayor had motive to kill and that the man in black could've been the guard working for him.","Weeks passed and nobody had seen Margaret. Coworkers and friends searched the nearby city looking for her. One day on patrol in a nearby town, a police officer heard someone crying for help in the basement of a house and went in to investigate. Margaret yelled that she was being held captive and needed help.","Luke ran to Marta, and filled with regret over his decision to go along with Carly's plan, picked her up and rushed her to the hospital. The doctors tried to help Marta by taking her into emergency surgery but failed to save her life. Once the doctor called the time of death, Luke fell to his knees and sobbed over his rash decision.","Months later Dan had taken up a mistress, he was growing bored with his marriage ever since he got rid of Linda and was only still with Amy for her family's money. In a hotel room in a nearby town, Dan and his mistress, Nicole, conspired to secretly kill Amy while still obtaining her fortune.",,,,,,,,,,
,,,,,65d563ecf8df20ade2f17888,2025-07-07_19h47.12.857,group3.4_multiperson,2023.2.2,MacIntel,136.9863014,686c2ebf0248f13bef9af11f,686c855a210d7ca4fd51d7ab,,,,,,,,,,,,,,,,,,,,,,,,,,,,,1809.9558,1,audio/Narrative8Situation9.wav,1812.9623,,,,,1829.4706,1832.9121,99.42508007,2.4404,"[{""rating"":99.42508006653865,""responseTime"":2.4404000000952237}]",space,2.9172,,1832.9122,Partially,50,1832.913,,,[],,,,,,,,,,,3,1,3,3,,,,,,,,,,,,,,,,,1812.9623,3,1829.4704,"[[76,2292],[64.2,2657],[49.3,2750],[47.1,2841],[47.8,2933],[47.9,3025],[48.2,3117],[48.3,3208],[48.9,3300],[49.2,3393],[49.7,3482],[49.9,3575],[50,3666],[50.1,3758],[50.1,3850],[50.1,3941],[50.1,4033],[50.1,4125],[50.1,4217],[50.1,4308],[50.1,4399],[50.1,4491],[50.1,4582],[50.1,4675],[50.1,4766],[50.1,4858],[50.1,4949],[50.1,5041],[50.1,5133],[50.1,5224],[50.1,5315],[50.1,5408],[50.1,5499],[50.1,5590],[50.1,5682],[50.1,5774],[50.1,5865],[50.1,5957],[50.1,6049],[50.1,6141],[50.1,6233],[50.1,6324],[50.1,6416],[50.1,6508],[50.1,6600],[50.1,6691],[50.1,6783],[50.1,6875],[50.1,6966],[50.1,7058],[50.1,7150],[50.1,7242],[50.1,7333],[50.1,7425],[50.1,7517],[50.1,7608],[50.1,7700],[50.1,7791],[50.1,7884],[50.1,7974],[50.1,8066],[50.1,8158],[50.1,8250],[50.1,8341],[50.1,8432],[50.1,8525],[50.1,8617],[50.1,8708],[58,8800],[97.4,8892],[100,8983],[100,9075],[100,9166],[100,9258],[100,9351],[100,9441],[100,9533],[100,9624],[100,9716],[100,9808],[100,9899],[100,9991],[100,10082],[100,10174],[100,10266],[100,10357],[100,10449],[100,10541],[100,10633],[100,10724],[100,10816],[100,10908],[100,10999],[100,11091],[100,11183],[100,11274],[100,11366],[100,11458],[100,11549],[100,11642],[100,11733],[100,11825],[100,11916],[100,12008],[100,12100],[100,12190],[100,12283],[100,12374],[100,12466],[100,12558],[100,12650],[100,12740],[100,12832],[100,12925],[100,13017],[100,13108],[100,13200],[100,13292],[100,13382],[100,13475],[100,13565],[100,13658],[100,13750],[100,13842],[100,13933],[100,14025],[100,14117],[100,14208],[100,14299],[100,14390],[100,14483],[100,14575],[100,14666],[100,14758],[100,14849],[100,14941],[100,15033],[100,15124],[100,15216],[100,15308],[100,15399],[100,15491],[100,15583],[100,15674],[100,15766],[100,15858],[100,15949],[100,16041],[100,16133],[100,16224],[100,16316],[100,16408],[100,16499]]",0,5,5,5,1,"Lucy decided to confront the mayor after his ceremony. But when she tried to accuse him, the security guards threatened to hurt her if she went to the police with her theory. Before she could say another word a man pulled her from the crowd.","In a rush, the police officer broke down the door and was attacked by a man in the house. Without hesitation, the officer shot the man and the man fell to the floor.","He then saw Marta's brother Zach enter the hospital. Zach ran over to Luke and punched him. Zach screamed at Luke that it's his fault his sister is dead and that he knew about the affair. Luke quickly tried to explain that he felt horrible about Marta's death and that Carly had manipulated him into going along with her plan. Zach, still angry at his brother-in-law, realized his mistake in judgement and shifted his anger toward Carly.","They decided to have Dan invite her to the hotel room under the guise of a romantic date. Once she arrived, Nicole was there to tie her up. Once she was secured to a chair, Nicole demanded Amy's bank passwords. Amy obliged and gave her access to her bank accounts.",,,,,,,,,,
,,,,,65d563ecf8df20ade2f17888,2025-07-07_19h47.12.857,group3.4_multiperson,2023.2.2,MacIntel,136.9863014,686c2ebf0248f13bef9af11f,686c855a210d7ca4fd51d7ab,,,,,,,,,,,,,,,,,,,,,,,,,,,,,1832.913,1,audio/Narrative8Situation9.wav,1835.9209,,,,,1852.4374,1855.129,99.96847648,2.298,"[{""rating"":99.96847648254378,""responseTime"":2.298000000000002}]",space,2.1695,,1855.1292,Not at all,0,1855.1329,,,[],,,,,,,,,,,3,1,1,2,,,,,,,,,,,,,,,,,1835.9212,3,1852.437,"[[99.4,2657],[99.2,2749],[100,2840],[100,2932],[100,3024],[100,3115],[100,3207],[100,3299],[100,3390],[100,3482],[100,3574],[100,3666],[100,3758],[100,3849],[100,3941],[100,4032],[100,4124],[100,4216],[100,4307],[100,4399],[100,4490],[100,4583],[100,4674],[100,4765],[100,4857],[100,4949],[100,5041],[100,5132],[100,5224],[100,5316],[100,5408],[100,5499],[100,5591],[100,5682],[100,5774],[100,5865],[100,5957],[100,6049],[100,6141],[80,6232],[71.3,6324],[71.3,6416],[71.3,6507],[60,6599],[48.5,7057],[48.3,7149],[48.3,7241],[48.5,7332],[48.7,7424],[49.2,7515],[57,7607],[57.6,7699],[57.6,7790],[61.1,7882],[84.7,7974],[86.3,8065],[86.3,8157],[95.7,8249],[100,8341],[100,8432],[100,8524],[100,8615],[100,8706],[100,8799],[100,8891],[100,8983],[100,9074],[100,9166],[100,9257],[100,9349],[100,9440],[100,9532],[100,9624],[100,9716],[100,9806],[100,9899],[100,9991],[100,10082],[100,10174],[100,10265],[100,10358],[100,10449],[100,10540],[100,10632],[100,10724],[100,10815],[100,10907],[100,10999],[100,11091],[100,11182],[100,11273],[100,11366],[100,11457],[100,11549],[100,11640],[100,11732],[100,11824],[100,11914],[100,12007],[100,12099],[100,12190],[100,12282],[100,12374],[100,12465],[100,12556],[100,12649],[100,12740],[100,12832],[100,12924],[100,13014],[100,13107],[100,13198],[100,13290],[100,13382],[100,13474],[100,13565],[100,13657],[100,13749],[100,13841],[100,13932],[100,14024],[100,14115],[100,14208],[100,14299],[100,14391],[100,14483],[100,14574],[100,14666],[100,14757],[100,14849],[100,14940],[100,15032],[100,15124],[100,15216],[100,15307],[100,15399],[100,15490],[100,15583],[100,15673],[100,15765],[100,15857],[100,15949],[100,16042],[100,16132],[100,16224],[100,16315],[100,16407],[100,16499]]",0,6,6,6,1,"The man in question was another security guard of Mayor Smith's, who took Lucy into a hidden alleyway. His name was Max and he quickly explained that he was a part of the initial plot to kill the former Mayor but he regretted his involvement.","The officer rushed to the basement, untied Margaret, and took her to safety.After being notified of the situation, Al rushed to meet Margaret as to not raise any suspicion. When he arrived, he saw Margaret pointing and yelling at Susan who had been handcuffed and was talking to the police. Shortly after, the police took Susan away in a police car. Al was devastated to see her being taken away, as Margaret sneered with disdain.","After the tension with Zach cooled down, Luke thought of when he should call his son and inform him of his mother's passing. He would be out of school any minute and should hear the news from him. Luke reflected on his decision and realized it was necessary to sacrifice his wife to ensure their child's safety, and that Marta had told him to above all else to protect him.",Nicole transferred all of Amy's money into Dan's bank account despite Amy's pleading for her to stop.,,,,,,,,,,
