consent.started,consent.stopped,consentResponse.keys,consentResponse.rt,consentResponse.duration,participantID,date,expName,psychopyVersion,OS,frameRate,STUDY_ID,SESSION_ID,opening1.started,opening1.stopped,keyEndingOpening1.keys,keyEndingOpening1.rt,keyEndingOpening1.duration,volumeAdjust.started,volumeAdjust.stopped,endingAdjust.keys,endingAdjust.rt,endingAdjust.duration,opening2.started,opening2.stopped,keyEndingOpening.keys,keyEndingOpening.rt,keyEndingOpening.duration,mouse.x,mouse.y,mouse.leftButton,mouse.midButton,mouse.rightButton,mouse.time,instructionLoop.thisRepN,instructionLoop.thisTrialN,instructionLoop.thisN,instructionLoop.thisIndex,instructionLoop.ran,readyForAudio.started,readyForAudio.stopped,fixation.started,run,audio_played,fixation.stopped,endPractice.keys,audioPre.started,audioPre.stopped,continuousResponses_audio,intRating.started,intRating.stopped,intQuestionSlider.response,intQuestionSlider.rt,intQuestionSlider.history,confirmResponse.keys,confirmResponse.rt,confirmResponse.duration,catchQuestion.started,catch_label,catch_value,catchQuestion.stopped,catchQuestionSlider.response,catchQuestionSlider.rt,catchQuestionSlider.history,confirmResponse_2.keys,audioRunLoop.thisRepN,audioRunLoop.thisTrialN,audioRunLoop.thisN,audioRunLoop.thisIndex,audioRunLoop.ran,conditions1_1,conditions2_1,conditions1_2,conditions2_2,dur1_1,dur2_1,dur1_2,dur2_2,endPractice.rt,endPractice.duration,confirmResponse_2.rt,confirmResponse_2.duration,runIntervalBreak.started,runIntervalBreak.stopped,endingBreakKey.keys,endingBreakKey.rt,endingBreakKey.duration,connection.started,connection.stopped,connectionEnding.keys,connectionEnding.rt,connectionEnding.duration,readyForText.started,readyForText.stopped,textPre.started,run_dup,textPre.stopped,continuousResponses_text,textRunLoop.thisRepN,textRunLoop.thisTrialN,textRunLoop.thisN,textRunLoop.thisIndex,textRunLoop.ran,text1_1,text1_2,text2_1,text2_2,runBreakText.started,runBreakText.stopped,endingBreakKey_2.keys,endingBreakKey_2.rt,endingBreakKey_2.duration,ending.started,ending.stopped,endingEnding.keys,endingEnding.rt,endingEnding.duration
0.0002,16.1542,y,15.8395,,65f366dfcb46b71238e9418d,2025-07-07_22h32.17.977,group3.4_multiperson,2023.2.2,Win32,120.4819277,686c2ebf0248f13bef9af11f,686c831d1182951d6f975b63,,,,,,,,,,,,,,,,,,,,,,,,,,,,,,,,,,,,,,,,,,,,,,,,,,,,,,,,,,,,,,,,,,,,,,,,,,,,,,,,,,,,,,,,,,,,,,,,,,,,,,,,
,,,,,65f366dfcb46b71238e9418d,2025-07-07_22h32.17.977,group3.4_multiperson,2023.2.2,Win32,120.4819277,686c2ebf0248f13bef9af11f,686c831d1182951d6f975b63,16.1543,26.7942,space,10.6179,,,,,,,,,,,,,,,,,,,,,,,,,,,,,,,,,,,,,,,,,,,,,,,,,,,,,,,,,,,,,,,,,,,,,,,,,,,,,,,,,,,,,,,,,,,,,,,,,,,,
,,,,,65f366dfcb46b71238e9418d,2025-07-07_22h32.17.977,group3.4_multiperson,2023.2.2,Win32,120.4819277,686c2ebf0248f13bef9af11f,686c831d1182951d6f975b63,,,,,,26.7944,43.2167,space,16.1064,,,,,,,,,,,,,,,,,,,,,,,,,,,,,,,,,,,,,,,,,,,,,,,,,,,,,,,,,,,,,,,,,,,,,,,,,,,,,,,,,,,,,,,,,,,,,,,
,,,,,65f366dfcb46b71238e9418d,2025-07-07_22h32.17.977,group3.4_multiperson,2023.2.2,Win32,120.4819277,686c2ebf0248f13bef9af11f,686c831d1182951d6f975b63,,,,,,,,,,,43.2187,57.9643,space,14.7307,,[],[],[],[],[],[],0,0,0,0,1,,,,,,,,,,,,,,,,,,,,,,,,,,,,,,,,,,,,,,,,,,,,,,,,,,,,,,,,,,,,,,,,,,,,,,,,,,,,,,
,,,,,65f366dfcb46b71238e9418d,2025-07-07_22h32.17.977,group3.4_multiperson,2023.2.2,Win32,120.4819277,686c2ebf0248f13bef9af11f,686c831d1182951d6f975b63,,,,,,,,,,,57.9647,101.7657,space,43.7442,,[-0.6208333333333333],[0.8119122257053292],[1],[0],[0],[5.864199999988088],1,0,1,0,1,,,,,,,,,,,,,,,,,,,,,,,,,,,,,,,,,,,,,,,,,,,,,,,,,,,,,,,,,,,,,,,,,,,,,,,,,,,,,,
,,,,,65f366dfcb46b71238e9418d,2025-07-07_22h32.17.977,group3.4_multiperson,2023.2.2,Win32,120.4819277,686c2ebf0248f13bef9af11f,686c831d1182951d6f975b63,,,,,,,,,,,101.766,113.8055,space,12.0142,,[],[],[],[],[],[],2,0,2,0,1,,,,,,,,,,,,,,,,,,,,,,,,,,,,,,,,,,,,,,,,,,,,,,,,,,,,,,,,,,,,,,,,,,,,,,,,,,,,,,
,,,,,65f366dfcb46b71238e9418d,2025-07-07_22h32.17.977,group3.4_multiperson,2023.2.2,Win32,120.4819277,686c2ebf0248f13bef9af11f,686c831d1182951d6f975b63,,,,,,,,,,,113.8056,164.5975,space,50.7741,,[],[],[],[],[],[],3,0,3,0,1,,,,,,,,,,,,,,,,,,,,,,,,,,,,,,,,,,,,,,,,,,,,,,,,,,,,,,,,,,,,,,,,,,,,,,,,,,,,,,
,,,,,65f366dfcb46b71238e9418d,2025-07-07_22h32.17.977,group3.4_multiperson,2023.2.2,Win32,120.4819277,686c2ebf0248f13bef9af11f,686c831d1182951d6f975b63,,,,,,,,,,,164.6014,181.0921,space,16.4794,,[],[],[],[],[],[],4,0,4,0,1,,,,,,,,,,,,,,,,,,,,,,,,,,,,,,,,,,,,,,,,,,,,,,,,,,,,,,,,,,,,,,,,,,,,,,,,,,,,,,
,,,,,65f366dfcb46b71238e9418d,2025-07-07_22h32.17.977,group3.4_multiperson,2023.2.2,Win32,120.4819277,686c2ebf0248f13bef9af11f,686c831d1182951d6f975b63,,,,,,,,,,,181.0922,200.0586,space,18.956,,[],[],[],[],[],[],5,0,5,0,1,,,,,,,,,,,,,,,,,,,,,,,,,,,,,,,,,,,,,,,,,,,,,,,,,,,,,,,,,,,,,,,,,,,,,,,,,,,,,,
,,,,,65f366dfcb46b71238e9418d,2025-07-07_22h32.17.977,group3.4_multiperson,2023.2.2,Win32,120.4819277,686c2ebf0248f13bef9af11f,686c831d1182951d6f975b63,,,,,,,,,,,,,,,,,,,,,,,,,,,200.0601,202.6417,202.6508,1,audio/Narrative13Situation2.wav,204.658,,204.6582,234.3951,"[[999,0],[999,88],[999,168],[999,254],[999,332],[999,421],[999,499],[999,582],[999,671],[999,754],[999,841],[999,924],[999,1008],[999,1091],[999,1174],[999,1260],[999,1341],[999,1424],[999,1509],[999,1591],[999,1674],[999,1762],[999,1841],[999,1924],[999,2007],[999,2091],[999,2174],[999,2257],[999,2341],[999,2424],[999,2507],[999,2590],[999,2674],[999,2757],[999,2840],[999,2924],[999,3007],[999,3090],[999,3174],[999,3257],[999,3344],[999,3426],[999,3507],[999,3595],[999,3674],[999,3757],[999,3841],[999,3924],[999,4007],[999,4090],[999,4174],[999,4259],[999,4341],[999,4423],[999,4507],[999,4592],[999,4674],[999,4757],[999,4841],[999,4924],[999,5007],[999,5090],[999,5173],[999,5257],[999,5340],[999,5423],[999,5507],[999,5591],[999,5673],[999,5757],[999,5840],[999,5923],[999,6007],[999,6090],[999,6173],[999,6257],[999,6340],[999,6429],[999,6507],[999,6590],[999,6673],[999,6756],[999,6844],[999,6923],[999,7006],[999,7090],[999,7173],[999,7256],[999,7340],[999,7423],[999,7506],[999,7590],[999,7677],[999,7762],[999,7844],[999,7927],[999,8006],[999,8090],[999,8173],[999,8256],[999,8340],[999,8425],[999,8506],[999,8590],[999,8673],[999,8756],[999,8839],[999,8923],[999,9006],[999,9089],[999,9173],[999,9256],[999,9339],[999,9423],[999,9506],[999,9590],[999,9673],[999,9756],[999,9839],[999,9923],[999,10006],[999,10089],[999,10173],[999,10256],[999,10339],[999,10427],[999,10506],[999,10589],[999,10673],[999,10756],[999,10843],[999,10928],[999,11006],[999,11089],[999,11172],[999,11256],[999,11339],[999,11422],[999,11506],[999,11589],[999,11673],[999,11756],[999,11844],[999,11923],[999,12012],[999,12095],[999,12172],[999,12256],[999,12345],[999,12422],[999,12511],[999,12595],[999,12678],[999,12761],[999,12845],[999,12928],[999,13012],[999,13095],[999,13178],[98.1,13262],[100,13345],[100,13428],[100,13511],[100,13595],[100,13678],[100,13762],[100,13845],[99.2,13929],[97.1,14012],[95.1,14095],[93.3,14178],[91.9,14262],[92.4,14345],[96.8,14428],[97.6,14511],[97.8,14594],[97.8,14679],[97.8,14761],[97.8,14844],[98.2,14928],[100,18761],[100,18844],[100,18927],[100,19011],[100,19094],[100,19177],[100,19261],[100,19344],[100,19427],[100,19511],[100,19594],[100,19677],[100,19761],[100,19844],[100,19927],[100,20011],[100,20094],[100,20177],[100,20260],[100,20344],[100,20427],[100,20510],[100,20594],[100,20677],[100,20760],[100,20844],[100,20927],[100,21010],[100,21094],[100,21177],[100,21261],[100,21343],[100,21427],[100,21510],[100,21594],[100,21677],[100,21760],[100,21847],[100,21929],[100,22015],[100,22096],[100,22185],[100,22262],[100,22346],[100,22429],[100,22512],[100,22596],[100,22681],[100,22763],[100,22846],[100,22929],[100,23012],[100,23100],[100,23179],[100,23262],[100,23346],[100,23429],[100,23512],[100,23600],[100,23679],[100,23762],[100,23845],[100,23929],[100,24012],[100,24097],[100,24179],[100,24262],[100,24345],[100,24431],[100,24516],[100,24601],[100,24679],[100,24762],[100,24851],[100,24932],[100,25017],[100,25095],[100,25179],[100,25262],[100,25345],[100,25431],[100,25517],[100,25595],[100,25679],[100,25762],[100,25845],[100,25929],[100,26017],[100,26095],[100,26178],[100,26262],[100,26345],[100,26434],[100,26512],[100,26595],[100,26678],[100,26762],[100,26845],[100,26928],[100,27012],[100,27095],[100,27184],[100,27262],[100,27345],[100,27428],[100,27512],[100,27595],[100,27678],[100,27762],[100,27845],[100,27932],[100,28011],[100,28095],[100,28178],[100,28261],[100,28345],[100,28428],[100,28511],[100,28595],[100,28678],[100,28761],[100,28845],[100,28928],[100,29012],[100,29095],[100,29178],[100,29261],[100,29345],[100,29432],[100,29511],[100,29595],[100,29679]]",234.3954,251.8902,50.41666667,16.5364,"[{""rating"":55.833333333333336,""responseTime"":14.261900000005937},{""rating"":50.416666666666664,""responseTime"":16.536400000005898}]",space,16.9785,,251.8904,Definitely yes,100,251.8927,,,[],,0,0,0,0,1,audio/Narrative13Situation2.wav,audio/Narrative13Situation2.wav,audio/Narrative13Situation2.wav,audio/Narrative13Situation2.wav,2,2,2,2,,,,,,,,,,,,,,,,,,,,,,,,,,,,,,,,,,,,,,,
,,,,,65f366dfcb46b71238e9418d,2025-07-07_22h32.17.977,group3.4_multiperson,2023.2.2,Win32,120.4819277,686c2ebf0248f13bef9af11f,686c831d1182951d6f975b63,,,,,,,,,,,,,,,,,,,,,,,,,,,,,251.8929,1,audio/Narrative7Situation1.wav,254.8835,space,254.8835,310.7665,"[[76.7,8751],[79.3,8832],[81.3,8920],[85.8,9000],[88.5,9083],[89.6,9168],[90.1,9249],[90.5,9337],[90.9,9416],[92,9503],[94.1,9586],[96.9,9670],[99.7,9753],[100,9837],[100,9920],[100,9998],[100,10081],[100,10165],[100,10250],[100,10331],[100,10414],[100,10500],[100,10581],[100,10664],[100,10748],[100,10831],[100,10914],[100,10998],[100,11081],[100,11164],[100,11249],[100,11331],[100,11414],[100,11498],[100,11582],[100,11664],[100,11747],[100,11831],[100,11914],[100,12002],[100,12085],[100,12164],[100,12249],[100,12331],[100,12420],[100,12497],[100,12581],[100,12664],[100,12749],[100,12831],[100,12914],[100,12999],[100,13081],[100,13164],[100,13247],[100,13331],[100,13414],[100,13498],[100,13585],[100,13664],[100,13747],[100,13831],[100,13916],[100,13997],[100,14081],[100,14164],[100,14247],[100,14330],[100,14416],[100,14497],[100,14581],[100,14664],[100,14747],[100,14830],[100,14916],[100,14997],[100,15080],[100,15164],[100,15247],[100,15332],[100,15414],[100,15499],[100,15582],[100,15664],[100,15752],[100,15830],[100,15914],[100,15999],[100,16080],[100,16163],[100,16249],[100,16330],[100,16413],[100,16497],[100,16580],[100,16663],[100,16747],[100,16830],[100,16913],[100,16997],[100,17080],[100,17163],[100,17247],[100,17330],[100,17413],[100,17497],[100,17580],[100,17663],[100,17752],[100,17830],[100,17913],[100,18003],[100,18080],[100,18163],[100,18252],[100,18330],[100,18413],[100,18497],[100,18580],[100,18663],[100,18749],[100,18834],[100,18913],[100,19002],[100,19080],[100,19163],[100,19252],[100,19330],[100,19413],[100,19497],[100,19580],[100,19663],[100,19746],[100,19829],[100,19913],[100,19996],[100,20080],[100,20167],[100,20246],[100,20330],[100,20413],[100,20496],[100,20579],[100,20663],[100,20746],[100,20835],[100,20913],[100,20996],[100,21079],[100,21163],[100,21246],[100,21333],[100,21413],[100,21496],[100,21581],[100,21663],[100,21746],[100,21829],[100,21913],[100,21996],[100,22079],[100,22163],[100,22248],[100,22329],[100,22413],[100,22501],[100,22580],[100,22663],[100,22748],[100,22829],[100,22918],[100,22996],[100,23085],[100,23162],[100,23246],[100,23329],[100,23413],[100,23496],[100,23579],[100,23662],[100,23746],[100,23831],[100,23914],[100,23996],[100,24079],[100,24162],[100,24247],[100,24329],[100,24412],[100,24496],[100,24579],[100,24662],[100,24745],[100,24829],[100,24917],[100,24995],[100,25081],[100,25162],[100,25246],[100,25329],[100,25414],[100,25495],[100,25579],[100,25662],[100,25745],[100,25829],[100,25912],[100,25995],[100,26079],[100,26162],[100,26245],[100,26329],[100,26413],[100,26495],[100,26579],[100,26662],[100,26745],[100,26829],[100,26912],[100,26995],[100,27079],[100,27168],[100,27245],[100,27329],[100,27412],[100,27495],[100,27583],[100,27662],[100,27745],[100,27829],[100,27914],[100,27997],[100,28079],[100,28162],[100,28245],[100,28328],[100,28412],[100,28496],[100,28580],[100,28661],[100,28745],[100,28831],[100,28912],[100,28995],[100,29078],[100,29161],[100,29246],[100,29328],[100,29416],[100,29500],[100,29578],[100,29661],[100,29745],[100,29828],[100,29913],[100,29999],[100,30078],[100,30162],[100,30250],[100,30329],[100,30411],[100,30500],[100,30582],[100,30667],[100,30747],[100,30828],[100,30913],[100,30997],[100,31079],[100,31161],[100,31245],[100,31328],[100,31411],[100,31494],[100,31578],[100,31661],[100,31744],[100,31830],[100,31911],[100,31994],[100,32083],[100,32161],[100,32244],[100,32328],[100,32411],[100,32496],[100,32578],[100,32661],[100,32744],[100,32827],[100,32911],[100,32994],[100,33082],[100,33161],[100,33244],[100,33328],[100,33411],[100,33494],[100,33577],[100,33661],[100,33749],[100,33827],[100,33911],[100,33994],[100,34083],[100,34161],[100,34244],[100,34327],[100,34411],[100,34494],[100,34577],[100,34661],[100,34746],[100,34827],[100,34913],[100,34994],[100,35077],[100,35161],[100,35244],[100,35327],[100,35411],[100,35498],[100,35577],[100,35661],[100,35745],[100,35827],[100,35910],[100,35998],[100,36079],[100,36161],[100,36244],[100,36327],[100,36410],[100,36494],[100,36580],[100,36660],[100,36744],[100,36827],[100,36916],[100,36994],[100,37082],[100,37160],[100,37243],[100,37328],[100,37410],[100,37493],[100,37577],[100,37660],[100,37743],[100,37827],[100,37910],[100,37993],[100,38081],[100,38160],[100,38245],[100,38329],[100,38410],[100,38493],[100,38577],[100,38660],[100,38745],[100,38827],[100,38910],[100,38993],[100,39077],[100,39160],[100,39243],[100,39332],[100,39410],[100,39493],[100,39577],[100,39660],[100,39743],[100,39827],[100,39914],[100,39999],[100,40076],[100,40160],[100,40243],[100,40326],[100,40410],[100,40493],[100,40576],[100,40664],[100,40743],[100,40826],[100,40910],[100,40993],[100,41076],[100,41160],[100,41248],[100,41326],[100,41410],[100,41493],[100,41580],[100,41660],[100,41743],[100,41826],[100,41909],[100,41993],[100,42076],[100,42159],[100,42243],[100,42326],[100,42411],[100,42493],[100,42576],[100,42659],[100,42743],[100,42826],[100,42911],[100,42993],[100,43076],[100,43159],[100,43243],[100,43330],[100,43409],[100,43494],[100,43576],[100,43659],[100,43743],[100,43828],[100,43909],[100,43995],[100,44080],[100,44159],[100,44242],[100,44326],[100,44409],[100,44492],[100,44576],[100,44659],[100,44742],[100,44826],[100,44909],[100,44992],[100,45076],[100,45159],[100,45242],[100,45326],[100,45409],[100,45492],[100,45576],[100,45659],[100,45742],[100,45830],[100,45909],[100,45992],[100,46075],[100,46159],[100,46247],[100,46325],[100,46409],[100,46492],[100,46575],[100,46659],[100,46742],[100,46825],[100,46909],[100,46992],[100,47080],[100,47159],[100,47242],[100,47325],[100,47409],[100,47492],[100,47575],[100,47659],[100,47742],[100,47825],[100,47909],[100,47992],[100,48075],[100,48159],[100,48242],[100,48325],[100,48409],[100,48492],[100,48576],[100,48659],[100,48742],[100,48827],[100,48913],[100,48992],[100,49075],[100,49158],[100,49242],[100,49327],[100,49409],[100,49496],[100,49575],[100,49663],[100,49742],[100,49827],[100,49908],[100,49992],[100,50081],[100,50158],[100,50242],[100,50330],[100,50408],[100,50492],[100,50575],[100,50662],[100,50741],[100,50825],[100,50909],[100,50992],[100,51075],[100,51158],[100,51241],[100,51325],[100,51412],[100,51491],[100,51575],[100,51658],[100,51741],[100,51829],[100,51913],[100,51992],[100,52079],[100,52158],[100,52241],[100,52326],[100,52408],[100,52497],[100,52575],[100,52658],[100,52741],[100,52826],[100,52908],[100,52991],[100,53080],[100,53158],[100,53241],[100,53326],[100,53408],[100,53491],[100,53576],[100,53658],[100,53742],[100,53826],[100,53908],[100,53991],[100,54074],[100,54158],[100,54241],[100,54329],[100,54408],[100,54496],[100,54579],[100,54658],[100,54741],[100,54824],[100,54909],[100,54991],[100,55074],[100,55158],[100,55241],[100,55324],[100,55407],[100,55491],[100,55578],[100,55657],[100,55741],[100,55824]]",310.7667,315.5632,99.47916667,3.8795,"[{""rating"":99.47916666666667,""responseTime"":3.8795000000000073}]",space,4.2706,,315.5633,Definitely yes,100,315.5642,,,[],,0,1,1,1,1,audio/Narrative7Situation1.wav,audio/Narrative8Situation1.wav,audio/Narrative5Situation1.wav,audio/Narrative6Situation1.wav,2,5,5,2,2.9742,,,,,,,,,,,,,,,,,,,,,,,,,,,,,,,,,,,,,,
,,,,,65f366dfcb46b71238e9418d,2025-07-07_22h32.17.977,group3.4_multiperson,2023.2.2,Win32,120.4819277,686c2ebf0248f13bef9af11f,686c831d1182951d6f975b63,,,,,,,,,,,,,,,,,,,,,,,,,,,,,315.5642,1,audio/Narrative7Situation2.wav,318.5652,,318.5652,326.039,"[[999,0],[999,83],[999,166],[999,249],[999,333],[999,416],[999,499],[999,583],[999,666],[999,749],[999,833],[999,916],[999,999],[999,1083],[999,1168],[999,1251],[999,1334],[999,1416],[999,1501],[999,1583],[999,1666],[999,1750],[999,1832],[999,1916],[999,1999],[999,2082],[999,2166],[999,2249],[999,2332],[999,2416],[999,2499],[999,2582],[999,2666],[999,2749],[999,2834],[999,2916],[999,2999],[999,3082],[999,3166],[999,3249],[999,3332],[999,3415],[999,3499],[999,3588],[999,3666],[999,3749],[999,3832],[999,3915],[999,3999],[999,4082],[999,4165],[999,4254],[999,4337],[999,4421],[92.1,4499],[93.3,4582],[93.3,4665],[93.3,4753],[93.3,4832],[93.3,4916],[93.3,5001],[93.3,5082],[93.3,5165],[93.3,5249],[93.3,5337],[93.5,5415],[96.1,5504],[97.3,5587],[98.3,5671],[99.2,5752],[99.9,5838],[100,5921],[100,6004],[100,6082],[100,6170],[100,6250],[100,6332],[100,6420],[100,6500],[100,6586],[100,6665],[100,6748],[100,6834],[100,6915],[100,6998],[100,7082],[100,7165],[100,7248],[100,7332],[100,7415]]",326.0392,332.0382,99.375,5.1655,"[{""rating"":99.375,""responseTime"":5.165499999999952}]",space,5.4748,,332.0382,Partially,50,332.0397,,,[],,0,2,2,2,1,audio/Narrative7Situation2.wav,audio/Narrative8Situation2.wav,audio/Narrative5Situation2.wav,audio/Narrative6Situation2.wav,3,3,3,3,,,,,,,,,,,,,,,,,,,,,,,,,,,,,,,,,,,,,,,
,,,,,65f366dfcb46b71238e9418d,2025-07-07_22h32.17.977,group3.4_multiperson,2023.2.2,Win32,120.4819277,686c2ebf0248f13bef9af11f,686c831d1182951d6f975b63,,,,,,,,,,,,,,,,,,,,,,,,,,,,,332.0398,1,audio/Narrative7Situation3.wav,340.0451,,340.0451,349.2938,"[[999,0],[999,83],[999,166],[999,250],[999,333],[999,416],[999,500],[999,583],[999,666],[999,749],[999,833],[999,918],[999,999],[999,1083],[999,1170],[999,1249],[999,1333],[999,1418],[999,1503],[999,1583],[999,1666],[999,1749],[999,1832],[999,1916],[999,2001],[999,2082],[999,2166],[999,2249],[999,2332],[999,2416],[999,2505],[999,2582],[999,2666],[999,2755],[999,2832],[999,2916],[999,2999],[999,3082],[999,3166],[999,3249],[999,3332],[999,3416],[999,3503],[999,3582],[999,3666],[999,3751],[999,3832],[999,3916],[999,3999],[999,4082],[999,4165],[999,4249],[999,4332],[999,4415],[999,4501],[999,4587],[999,4671],[999,4753],[999,4832],[999,4915],[999,5001],[999,5082],[999,5165],[999,5249],[999,5334],[999,5415],[999,5499],[999,5582],[999,5665],[999,5748],[999,5832],[999,5916],[999,5999],[999,6082],[999,6165],[999,6248],[999,6332],[999,6415],[999,6498],[999,6582],[999,6665],[999,6748],[999,6832],[999,6915],[999,6998],[999,7086],[999,7165],[999,7248],[999,7332],[999,7420],[999,7498],[999,7586],[999,7670],[999,7752],[999,7832],[999,7920],[999,7998],[999,8082],[999,8165],[999,8248],[999,8336],[999,8415],[999,8498],[999,8587],[999,8666],[999,8748],[999,8831],[999,8920],[999,8998],[999,9081],[999,9165],[999,9248]]",349.2939,356.3738,0.208333333,5.305,"[{""rating"":0.2083333333333326,""responseTime"":5.305000000000007}]",space,6.5579,,356.3738,Not at all,0,356.3752,,,[],,0,3,3,3,1,audio/Narrative7Situation3.wav,audio/Narrative8Situation3.wav,audio/Narrative5Situation3.wav,audio/Narrative6Situation3.wav,8,4,3,5,,,,,,,,,,,,,,,,,,,,,,,,,,,,,,,,,,,,,,,
,,,,,65f366dfcb46b71238e9418d,2025-07-07_22h32.17.977,group3.4_multiperson,2023.2.2,Win32,120.4819277,686c2ebf0248f13bef9af11f,686c831d1182951d6f975b63,,,,,,,,,,,,,,,,,,,,,,,,,,,,,356.3753,1,audio/Narrative7Situation4.wav,359.3815,,359.3815,371.0988,"[[999,0],[999,83],[999,166],[999,249],[999,333],[999,416],[999,500],[999,583],[999,668],[999,752],[999,835],[999,921],[999,1002],[999,1085],[999,1169],[999,1252],[999,1335],[999,1418],[999,1502],[999,1585],[999,1668],[999,1752],[999,1835],[999,1918],[999,2001],[999,2085],[999,2168],[999,2251],[999,2335],[999,2418],[999,2501],[999,2585],[999,2668],[999,2756],[999,2835],[999,2918],[999,3001],[999,3088],[999,3168],[999,3251],[999,3335],[999,3418],[999,3506],[999,3584],[999,3670],[999,3751],[999,3834],[999,3918],[999,4006],[999,4085],[999,4168],[999,4251],[999,4339],[999,4418],[999,4501],[999,4584],[999,4668],[999,4751],[999,4834],[999,4920],[999,5001],[999,5084],[999,5168],[999,5251],[999,5334],[999,5423],[999,5501],[999,5584],[999,5668],[999,5751],[999,5837],[999,5918],[999,6001],[999,6084],[999,6168],[999,6251],[999,6334],[999,6418],[999,6501],[999,6584],[999,6667],[999,6751],[999,6834],[999,6920],[999,7001],[999,7084],[999,7167],[999,7251],[999,7338],[999,7417],[999,7501],[999,7584],[999,7667],[999,7751],[999,7834],[999,7917],[999,8001],[999,8084],[999,8167],[999,8251],[999,8334],[999,8417],[999,8500],[999,8584],[999,8667],[999,8750],[999,8834],[999,8919],[999,9001],[999,9084],[999,9167],[999,9252],[999,9334],[999,9418],[999,9500],[999,9584],[999,9667],[999,9750],[999,9834],[999,9917],[999,10000],[999,10084],[999,10168],[999,10250],[999,10334],[999,10417],[999,10500],[999,10583],[999,10669],[999,10751],[999,10834],[999,10917],[999,11000],[999,11085],[999,11168],[999,11250],[999,11333],[999,11417],[999,11500],[999,11585],[999,11667]]",371.0989,375.2371,0.729166667,3.2783,"[{""rating"":0.7291666666666641,""responseTime"":3.278300000011882}]",space,3.6113,,375.2372,Partially,50,375.2384,,,[],,0,4,4,4,1,audio/Narrative7Situation4.wav,audio/Narrative8Situation4.wav,audio/Narrative5Situation4.wav,audio/Narrative6Situation4.wav,3,3,1,2,,,,,,,,,,,,,,,,,,,,,,,,,,,,,,,,,,,,,,,
,,,,,65f366dfcb46b71238e9418d,2025-07-07_22h32.17.977,group3.4_multiperson,2023.2.2,Win32,120.4819277,686c2ebf0248f13bef9af11f,686c831d1182951d6f975b63,,,,,,,,,,,,,,,,,,,,,,,,,,,,,375.2385,1,audio/Narrative7Situation5.wav,380.2388,,380.2389,388.7127,"[[999,0],[999,83],[999,166],[999,252],[999,333],[999,416],[999,501],[999,583],[999,666],[999,749],[999,833],[999,916],[999,1000],[999,1083],[999,1166],[999,1249],[999,1333],[999,1418],[999,1499],[999,1583],[999,1666],[999,1749],[999,1833],[999,1916],[999,1999],[999,2082],[999,2166],[999,2249],[999,2335],[999,2416],[999,2499],[999,2583],[999,2670],[999,2749],[999,2833],[999,2916],[999,2999],[999,3082],[999,3172],[999,3252],[73.4,3339],[75.6,3416],[75.6,3499],[75.6,3587],[72.9,3668],[69.7,3755],[69.4,3834],[68.8,3917],[68.5,3999],[72.6,4086],[80.1,4171],[84.3,4254],[87.4,4337],[89.6,4420],[90.8,4501],[91.3,4588],[91.3,4665],[91.5,4749],[91.7,4834],[92,4921],[92.4,4999],[92.6,5082],[92.6,5165],[92.6,5249],[92.6,5334],[92.6,5415],[92.6,5500],[92.6,5582],[92.6,5665],[92.6,5754],[92.6,5838],[92.6,5915],[92.6,6000],[94.8,6088],[99.2,6170],[100,6250],[100,6332],[100,6420],[100,6499],[100,6582],[100,6665],[100,6748],[100,6837],[100,6915],[100,7004]]",388.7127,393.1831,100,4.1677,"[{""rating"":100,""responseTime"":4.167699999988088}]",space,3.9431,,393.1831,Definitely yes,100,393.1843,,,[],,0,5,5,5,1,audio/Narrative7Situation5.wav,audio/Narrative8Situation5.wav,audio/Narrative5Situation5.wav,audio/Narrative6Situation5.wav,5,2,5,2,,,,,,,,,,,,,,,,,,,,,,,,,,,,,,,,,,,,,,,
,,,,,65f366dfcb46b71238e9418d,2025-07-07_22h32.17.977,group3.4_multiperson,2023.2.2,Win32,120.4819277,686c2ebf0248f13bef9af11f,686c831d1182951d6f975b63,,,,,,,,,,,,,,,,,,,,,,,,,,,,,393.1844,1,audio/Narrative7Situation6.wav,396.1864,,396.1864,406.1516,"[[77.1,588],[72.2,668],[71.7,749],[74.4,833],[77.5,918],[79,1004],[79.4,1083],[79.4,1171],[79.4,1249],[79.4,1333],[79.4,1416],[79.4,1503],[79.4,1583],[79.3,1666],[78.2,1754],[54.1,1838],[51.3,1921],[50.9,2001],[50.7,2083],[50.6,2166],[50.6,2249],[50.5,2333],[50.3,2422],[50.1,2499],[50,2584],[49.9,2666],[49.9,2749],[49.9,2832],[49.9,2918],[49.9,3005],[58.6,3088],[74.1,3172],[83.5,3255],[85.3,3338],[85.9,3416],[88.4,3499],[92.3,3587],[96.1,3667],[100,6338],[100,6421],[100,6505],[100,6585],[100,6665],[100,6748],[100,6832],[100,6915],[100,6998],[100,7082],[100,7165],[100,7248],[100,7334],[100,7415],[100,7498],[100,7582],[100,7665],[100,7754],[100,7837],[100,7915],[100,7998],[100,8082],[100,8165],[100,8254],[99.9,8337],[99.9,8415],[99.8,8498],[99.8,8581],[99.8,8665],[99.8,8750],[99.8,8831],[99.8,8915],[99.8,8998],[99.8,9086],[99.8,9165],[99.8,9248],[99.8,9331],[99.8,9415],[99.8,9498],[99.8,9587],[99.8,9669],[99.8,9748],[99.8,9831],[99.8,9917]]",406.1516,409.3072,80.9375,2.1475,"[{""rating"":80.9375,""responseTime"":2.1475000000000364}]",space,2.633,,409.3072,Definitely yes,100,415.4146,99.89583333,5.5656,"[{""rating"":99.89583333333334,""responseTime"":5.565599999993992}]",space,0,6,6,6,1,audio/Narrative7Situation6.wav,audio/Narrative8Situation6.wav,audio/Narrative5Situation6.wav,audio/Narrative6Situation6.wav,3,2,3,2,,,5.5825,,,,,,,,,,,,,,,,,,,,,,,,,,,,,,,,,,,,
,,,,,65f366dfcb46b71238e9418d,2025-07-07_22h32.17.977,group3.4_multiperson,2023.2.2,Win32,120.4819277,686c2ebf0248f13bef9af11f,686c831d1182951d6f975b63,,,,,,,,,,,,,,,,,,,,,,,,,,,,,415.4147,1,audio/Narrative7Situation7.wav,420.4219,,420.4219,437.58,"[[999,0],[999,83],[999,166],[999,249],[999,333],[999,416],[999,500],[999,583],[999,668],[999,757],[999,841],[999,920],[999,1002],[999,1085],[999,1168],[999,1257],[66.1,1341],[66.6,1420],[67,1507],[67.4,1590],[67.4,1668],[67.5,1753],[67.5,1835],[67.5,1920],[67.5,2007],[67.5,2087],[67.5,2170],[67.5,2251],[67.5,2335],[67.5,2418],[67.5,2502],[67.5,2585],[67.5,2674],[67.5,2752],[67.5,2835],[67.5,2918],[67.5,3001],[67.5,3085],[67.5,3168],[67.5,3251],[67.5,3335],[51.7,4170],[53.1,4257],[54.3,4340],[54.6,4418],[54.3,4504],[52.7,4590],[52,4673],[51.5,4751],[50.9,4836],[50.5,4919],[50.3,5001],[50.3,5088],[50.3,5168],[50.3,5251],[50.3,5334],[50.3,5418],[50.3,5506],[50.3,5584],[50.3,5672],[50.3,5751],[53.2,5840],[55.7,5920],[57.3,6007],[60.1,6089],[63.3,6173],[64.9,6257],[66.7,6340],[69.8,6423],[72.1,6506],[73.2,6590],[74.4,6673],[75.4,6753],[76.6,6836],[88.5,6918],[97.9,7006],[100,7085],[100,7173],[100,7251],[100,7334],[100,7417],[100,7501],[100,7588],[100,7669],[100,7751],[100,7839],[100,7917],[100,8001],[100,8084],[100,8167],[100,8250],[100,8334],[100,8421],[100,8501],[100,8584],[100,8667],[100,8751],[100,8834],[100,8922],[100,9000],[100,9084],[100,9167],[100,9250],[100,9335],[100,9417],[100,9500],[100,9584],[100,9667],[100,9750],[100,9836],[100,9921],[100,10001],[100,10084],[100,10167],[100,10250],[100,10334],[100,10417],[100,10500],[100,10585],[100,10669],[100,10750],[100,10838],[100,10917],[100,11004],[100,11084],[100,11167],[100,11250],[100,11336],[100,11419],[100,11500],[100,11583],[100,11667],[100,11750],[100,11833],[100,11917],[100,12000],[100,12083],[100,12167],[100,12250],[100,12333],[100,12418],[100,12502],[100,12583],[100,12667],[100,12750],[100,12833],[100,12917],[100,13000],[100,13083],[100,13167],[100,13250],[100,13335],[100,13421],[100,13506],[100,13584],[100,13666],[100,13750],[100,13833],[100,13916],[100,14001],[100,14083],[100,14166],[100,14250],[100,14333],[100,14418],[100,14500],[100,14583],[100,14670],[100,14750],[100,14838],[100,14916],[100,15000],[100,15083],[100,15166],[100,15249],[100,15333],[100,15416],[100,15504],[100,15583],[100,15666],[100,15755],[100,15833],[100,15916],[100,15999],[100,16083],[100,16166],[100,16250],[100,16333],[100,16416],[100,16499],[100,16583],[100,16666],[100,16749],[100,16833],[100,16916],[100,17004],[100,17083]]",437.5801,439.9315,100,1.9227,"[{""rating"":100,""responseTime"":1.9226999999880832}]",space,1.8188,,439.9316,Definitely yes,100,439.9324,,,[],,0,7,7,7,1,audio/Narrative7Situation7.wav,audio/Narrative8Situation7.wav,audio/Narrative5Situation7.wav,audio/Narrative6Situation7.wav,5,3,4,5,,,,,,,,,,,,,,,,,,,,,,,,,,,,,,,,,,,,,,,
,,,,,65f366dfcb46b71238e9418d,2025-07-07_22h32.17.977,group3.4_multiperson,2023.2.2,Win32,120.4819277,686c2ebf0248f13bef9af11f,686c831d1182951d6f975b63,,,,,,,,,,,,,,,,,,,,,,,,,,,,,439.9325,1,audio/Narrative7Situation8.wav,441.9376,,441.9376,451.9501,"[[98.4,1501],[97.2,1582],[96.9,1666],[96.9,1749],[96.6,1834],[85.4,1916],[43.9,2584],[45.8,2669],[47.2,2755],[47.8,2836],[47.8,2916],[48.1,3005],[49.3,3084],[49.7,3171],[49.7,3249],[49.9,3334],[50,3416],[50,3499],[50,3582],[50,3665],[50,3749],[50,3834],[50,3917],[50,4003],[50,4082],[50,4165],[50,4249],[50,4336],[50,4420],[50,4499],[50,4588],[50,4665],[50,4749],[50,4832],[50,4916],[50,5000],[50,5082],[50,5165],[50,5249],[50,5332],[50,5415],[50,5499],[50,5582],[50,5665],[50,5748],[50,5832],[50,5920],[50,5998],[50,6087],[50,6165],[50,6248],[50,6332],[50,6415],[50,6498],[50,6582],[50,6665],[50,6748],[50,6837],[50,6915],[50,7003],[50,7082],[50,7165],[50,7248],[50,7338],[50,7415],[50,7502],[50,7581],[50,7666],[50,7748],[50,7831],[50,7917],[50,7998],[50,8083],[50,8165],[50,8248],[50,8331],[50,8416],[50,8498],[50,8581],[50,8665],[50,8754],[50,8831],[50,8915],[50,8998],[50,9081],[50,9167],[50,9248],[50,9331],[50,9415],[50,9498],[50,9583],[50,9665],[50,9752],[50,9831],[51.3,9920],[59.2,10000]]",451.9501,462.5761,25.625,10.1397,"[{""rating"":27.916666666666668,""responseTime"":7.873600000023828},{""rating"":25.624999999999996,""responseTime"":10.139700000017854}]",space,10.1073,,462.5762,Partially,50,462.5777,,,[],,0,8,8,8,1,audio/Narrative7Situation8.wav,audio/Narrative8Situation8.wav,audio/Narrative5Situation8.wav,audio/Narrative6Situation8.wav,2,3,3,5,,,,,,,,,,,,,,,,,,,,,,,,,,,,,,,,,,,,,,,
,,,,,65f366dfcb46b71238e9418d,2025-07-07_22h32.17.977,group3.4_multiperson,2023.2.2,Win32,120.4819277,686c2ebf0248f13bef9af11f,686c831d1182951d6f975b63,,,,,,,,,,,,,,,,,,,,,,,,,,,,,462.5779,1,audio/Narrative7Situation9.wav,464.584,,464.584,473.1931,"[[29.3,1255],[37.7,1336],[43.4,1422],[46.5,1505],[47.8,1585],[48.4,1666],[48.6,1749],[48.6,1833],[49.2,1921],[49.7,1999],[49.8,2083],[49.8,2166],[49.8,2251],[49.8,2332],[49.8,2416],[49.8,2500],[49.8,2583],[49.8,2666],[49.8,2749],[49.8,2832],[49.8,2916],[49.8,3000],[49.8,3082],[49.8,3166],[49.8,3249],[49.8,3332],[49.8,3417],[49.8,3499],[75.2,3672],[83.6,3755],[84.9,3832],[85.2,3916],[85.2,3999],[85.2,4086],[85.2,4165],[85.2,4250],[85.2,4337],[85.2,4415],[85.2,4499],[87.7,4588],[93.8,4671],[95.8,4755],[96.9,4832],[97.5,4917],[97.7,4999],[97.8,5082],[97.8,5171],[97.9,5254],[97.9,5332],[97.9,5415],[97.9,5499],[97.9,5582],[97.9,5665],[97.9,5749],[97.9,5832],[97.9,5915],[97.9,5999],[97.9,6082],[97.9,6167],[97.9,6249],[97.9,6334],[98.2,6420],[99,6503],[99.5,6584],[100,6671],[100,6754],[100,7337],[100,7420],[100,7498],[100,7587],[100,7667],[100,7748],[100,7832],[100,7915],[100,7998],[100,8082],[100,8165],[100,8253],[100,8337],[100,8416],[100,8503],[100,8581]]",473.1931,478.6069,99.58333333,5.2112,"[{""rating"":96.5625,""responseTime"":3.702699999988056},{""rating"":99.58333333333333,""responseTime"":5.211199999988082}]",space,4.8849,,478.607,Definitely yes,100,478.6083,,,[],,0,9,9,9,1,audio/Narrative7Situation9.wav,audio/Narrative8Situation9.wav,audio/Narrative5Situation9.wav,audio/Narrative6Situation9.wav,2,3,3,4,,,,,,,,,,,,,,,,,,,,,,,,,,,,,,,,,,,,,,,
,,,,,65f366dfcb46b71238e9418d,2025-07-07_22h32.17.977,group3.4_multiperson,2023.2.2,Win32,120.4819277,686c2ebf0248f13bef9af11f,686c831d1182951d6f975b63,,,,,,,,,,,,,,,,,,,,,,,,,,,,,478.6085,1,audio/Narrative8Situation1.wav,483.6149,,483.6149,499.5344,"[[75.7,2671],[95.6,2755],[100,2838],[100,2921],[99.3,3005],[80.9,3088],[65.7,3171],[58.8,3255],[55.4,3338],[53.5,3421],[52.1,3505],[50.3,3588],[49.9,3671],[49.9,3754],[49.8,3838],[49.8,3921],[49.8,4004],[49.8,4088],[49.8,4171],[49.8,4254],[49.8,4338],[49.8,4421],[49.8,4504],[49.8,4588],[49.8,4671],[49.8,4754],[49.8,4838],[49.8,4921],[49.8,5004],[49.8,5088],[49.8,5171],[49.8,5254],[49.8,5337],[49.8,5421],[49.8,5504],[49.8,5587],[49.8,5671],[49.8,5754],[49.8,5837],[49.8,5921],[49.8,6004],[49.8,6087],[49.8,6171],[49.8,6254],[49.8,6337],[49.8,6421],[49.8,6504],[49.8,6587],[49.8,6671],[49.8,6754],[49.8,6837],[49.8,6921],[49.8,7004],[49.8,7087],[49.8,7171],[49.8,7254],[49.8,7339],[49.8,7423],[49.8,7506],[49.8,7589],[49.8,7673],[49.8,7756],[49.8,7839],[49.8,7923],[49.8,8006],[49.8,8089],[49.8,8173],[49.8,8256],[49.8,8340],[49.8,8425],[49.8,8506],[49.8,8589],[49.8,8676],[49.8,8762],[49.8,8839],[49.8,8923],[49.8,9006],[49.8,9091],[49.8,9178],[49.8,9256],[49.8,9339],[49.8,9423],[49.8,9511],[49.8,9589],[49.8,9677],[49.8,9756],[49.8,9839],[49.8,9923],[49.8,10010],[49.8,10089],[49.8,10172],[49.8,10256],[49.8,10340],[49.8,10422],[49.8,10506],[49.8,10594],[49.8,10673],[49.8,10756],[49.8,10839],[49.8,10922],[49.8,11008],[49.8,11089],[49.8,11172],[49.8,11255],[49.8,11342],[49.8,11427],[49.8,11506],[49.8,11589],[49.8,11678],[49.8,11755],[49.8,11839],[49.8,11927],[49.8,12005],[49.8,12089],[49.8,12172],[49.8,12255],[49.8,12339],[49.8,12422],[49.8,12509],[49.8,12591],[49.8,12672],[49.8,12755],[49.8,12839],[49.8,12922],[49.8,13008],[49.8,13089],[49.8,13172],[49.8,13255],[49.8,13339],[49.8,13423],[49.8,13505],[49.8,13589],[49.8,13672],[49.8,13755],[49.8,13841],[49.8,13923],[49.8,14005],[49.8,14088],[49.8,14172],[49.8,14255],[49.8,14340],[49.8,14422],[49.8,14505],[49.8,14590],[49.8,14674],[49.8,14761],[49.8,14840],[49.8,14922],[49.8,15005],[49.8,15088],[49.8,15172],[49.8,15255],[49.8,15338],[49.8,15422],[49.8,15505],[49.8,15588],[49.8,15671],[49.8,15755],[49.8,15838]]",499.5346,507.1588,77.91666667,7.2574,"[{""rating"":82.70833333333334,""responseTime"":6.282599999994034},{""rating"":77.91666666666667,""responseTime"":7.25740000000593}]",space,7.1073,,507.1588,Partially,50,507.1602,,,[],,0,10,10,10,1,audio/Narrative8Situation1.wav,audio/Narrative7Situation1.wav,audio/Narrative6Situation1.wav,audio/Narrative5Situation1.wav,5,2,2,5,,,,,,,,,,,,,,,,,,,,,,,,,,,,,,,,,,,,,,,
,,,,,65f366dfcb46b71238e9418d,2025-07-07_22h32.17.977,group3.4_multiperson,2023.2.2,Win32,120.4819277,686c2ebf0248f13bef9af11f,686c831d1182951d6f975b63,,,,,,,,,,,,,,,,,,,,,,,,,,,,,507.1604,1,audio/Narrative8Situation2.wav,510.1687,,510.1687,520.2808,"[[78,1005],[50.5,1672],[49.9,1751],[49.8,1833],[49.4,1917],[49.4,1999],[49.4,2088],[49.4,2166],[49.4,2254],[49.4,2332],[49.4,2416],[49.4,2501],[49.4,2582],[49.4,2671],[49.4,2749],[49.4,2836],[49.4,2918],[49.4,2999],[49.4,3082],[49.4,3168],[49.4,3249],[49.4,3332],[49.4,3416],[49.4,3499],[49.4,3582],[49.4,3667],[49.5,3754],[49.5,3832],[49.5,3916],[49.5,3999],[49.5,4082],[49.5,4166],[49.5,4251],[49.6,4334],[49.7,4415],[49.7,4500],[49.7,4582],[49.7,4665],[49.7,4749],[49.7,4838],[49.7,4920],[49.7,4999],[49.7,5082],[49.7,5165],[49.7,5249],[49.7,5332],[49.7,5419],[49.7,5499],[49.7,5582],[49.7,5667],[49.7,5749],[49.7,5832],[49.7,5915],[49.7,5999],[49.7,6082],[49.7,6169],[49.6,6249],[49.6,6333],[49.6,6415],[49.5,6499],[48.6,6587],[47.2,6671],[46.8,6748],[46.8,6832],[46.8,6915],[46.8,6998],[46.8,7082],[46.7,7171],[46.7,7248],[46.7,7331],[46.7,7415],[46.7,7500],[46.7,7586],[46.7,7665],[46.7,7748],[46.5,7832],[46.5,7915],[46.5,7999],[46.5,8083],[46.5,8169],[46.5,8248],[46.5,8331],[46.5,8415],[46.5,8500],[33.9,8587],[29.8,8667],[25.9,8752],[23,8837],[20,8920],[17.7,9001],[17.1,9083],[17,9165],[17,9248],[17,9331],[15.6,9417],[13.8,9499],[10.3,9583]]",520.2808,525.8828,0.729166667,4.2075,"[{""rating"":0.7291666666666641,""responseTime"":4.207499999999982}]",space,5.0756,,525.8828,Definitely yes,100,525.8843,,,[],,0,11,11,11,1,audio/Narrative8Situation2.wav,audio/Narrative7Situation2.wav,audio/Narrative6Situation2.wav,audio/Narrative5Situation2.wav,3,3,3,3,,,,,,,,,,,,,,,,,,,,,,,,,,,,,,,,,,,,,,,
,,,,,65f366dfcb46b71238e9418d,2025-07-07_22h32.17.977,group3.4_multiperson,2023.2.2,Win32,120.4819277,686c2ebf0248f13bef9af11f,686c831d1182951d6f975b63,,,,,,,,,,,,,,,,,,,,,,,,,,,,,525.8844,1,audio/Narrative8Situation3.wav,529.8905,,529.8905,552.2539,"[[55.8,500],[55.8,583],[54.2,671],[51.8,755],[51.3,838],[50.9,916],[50.7,1000],[50.5,1083],[50.3,1166],[50.2,1249],[50.2,1333],[50.2,1416],[50.2,1499],[50.2,1583],[50.2,1666],[50.2,1749],[50.2,1833],[50.2,1916],[50.2,2001],[50.2,2083],[50.2,2166],[50.2,2249],[50.2,2332],[50.2,2416],[50.2,2501],[50.2,2582],[50.2,2666],[50.2,2749],[50.2,2836],[50.2,2916],[50.2,2999],[50.2,3082],[50.2,3168],[50.2,3249],[50.2,3332],[50.2,3416],[50.2,3499],[50.2,3582],[58.5,3672],[93.6,4254],[95.7,4338],[95.8,4415],[95.8,4499],[95.8,4582],[95.8,4665],[95.8,4749],[95.8,4834],[95.8,4916],[95.8,4999],[95.8,5082],[95.8,5166],[95.8,5249],[95.8,5332],[95.8,5415],[95.8,5499],[96.6,5583],[97.9,5667],[99.4,5755],[100,5837],[100,5917],[100,5999],[100,6082],[100,6165],[100,6249],[100,6332],[100,6415],[100,6499],[100,6582],[100,6665],[100,6748],[100,6837],[100,6915],[100,6999],[100,7082],[100,7165],[100,7248],[100,7337],[100,7415],[100,7498],[100,7582],[100,7667],[100,7753],[100,7834],[100,7915],[100,7998],[100,8082],[100,8165],[100,8248],[100,8336],[100,8415],[100,8498],[100,8586],[100,8665],[100,8748],[100,8836],[100,8915],[100,9002],[100,9083],[100,9165],[100,9248],[100,9331],[100,9420],[100,9498],[100,9581],[100,9665],[100,9749],[100,9831],[100,9915],[100,9999],[100,10081],[100,10166],[100,10248],[100,10331],[100,10414],[100,10498],[100,10581],[100,10664],[100,10748],[100,10831],[100,10915],[100,10998],[100,11081],[100,11164],[100,11248],[100,11331],[100,11416],[100,11498],[100,11581],[100,11664],[100,11748],[100,11831],[100,11914],[100,12000],[100,12081],[100,12164],[100,12248],[100,12331],[100,12419],[100,12498],[100,12586],[100,12668],[100,12747],[100,12831],[100,12919],[100,12997],[100,13081],[100,13164],[100,13252],[100,13331],[100,13414],[100,13499],[100,13581],[100,13664],[100,13747],[100,13831],[100,13914],[100,14003],[100,14081],[100,14164],[100,14247],[100,14331],[100,14414],[100,14497],[100,14585],[100,14664],[100,14747],[100,14831],[100,14917],[100,14997],[100,15081],[100,15164],[100,15247],[100,15331],[100,15416],[100,15497],[100,15580],[100,15664],[100,15748],[100,15830],[100,15914],[100,15997],[100,16080],[100,16164],[100,16247],[100,16330],[100,16414],[100,16497],[100,16580],[100,16664],[100,16747],[100,16830],[100,16913],[100,16997],[100,17081],[100,17168],[100,17247],[100,17330],[100,17416],[100,17497],[100,17580],[100,17663],[100,17747],[100,17832],[100,17917],[100,17997],[100,18080],[100,18163],[100,18247],[100,18330],[100,18413],[100,18499],[100,18580],[100,18663],[100,18747],[100,18830],[100,18919],[100,18997],[100,19086],[100,19163],[100,19246],[100,19330],[100,19415],[100,19497],[100,19580],[100,19663],[100,19746],[100,19830],[100,19913],[100,19996],[100,20082],[100,20163],[100,20246],[100,20330],[100,20413],[100,20496],[100,20580],[100,20663],[100,20746],[100,20830],[100,20913],[100,20996],[100,21080],[100,21163],[100,21246],[100,21335],[100,21413],[100,21496],[100,21580],[100,21663],[100,21746],[100,21835],[100,21913],[100,21998],[100,22084],[100,22164],[100,22246],[100,22334]]",552.254,554.1868,100,1.5535,"[{""rating"":100,""responseTime"":1.5534999999999854}]",space,1.4084,,554.1869,Not at all,0,554.1883,,,[],,0,12,12,12,1,audio/Narrative8Situation3.wav,audio/Narrative7Situation3.wav,audio/Narrative6Situation3.wav,audio/Narrative5Situation3.wav,4,8,5,3,,,,,,,,,,,,,,,,,,,,,,,,,,,,,,,,,,,,,,,
,,,,,65f366dfcb46b71238e9418d,2025-07-07_22h32.17.977,group3.4_multiperson,2023.2.2,Win32,120.4819277,686c2ebf0248f13bef9af11f,686c831d1182951d6f975b63,,,,,,,,,,,,,,,,,,,,,,,,,,,,,554.1884,1,audio/Narrative8Situation4.wav,557.1886,,557.1886,571.3564,"[[89.5,1667],[82.8,1747],[77,1830],[66.4,1915],[59.2,1997],[54.8,2080],[50.8,2169],[49.4,2252],[49.1,2330],[49.1,2414],[49.4,2498],[49.6,2580],[50,2665],[67.9,2751],[86.7,2836],[89.5,2919],[90,3001],[90.2,3082],[90.2,3163],[90.2,3247],[90.2,3330],[88.6,3418],[86.8,3499],[84.7,3586],[82.6,3669],[81.7,3749],[81.6,3830],[81.6,3913],[81.6,3997],[81.6,4080],[81.6,4163],[81.6,4246],[81.6,4330],[81.6,4413],[81.6,4498],[81.6,4580],[81.6,4663],[81.6,4746],[81.6,4830],[81.6,4913],[81.6,4996],[81.6,5080],[81.6,5163],[81.6,5246],[81.6,5330],[81.6,5416],[81.6,5496],[81.6,5580],[81.6,5663],[81.6,5746],[81.6,5830],[81.6,5915],[81.6,5996],[81.6,6080],[81.6,6163],[81.6,6246],[81.6,6330],[81.6,6413],[81.6,6496],[81.6,6580],[81.6,6664],[81.6,6746],[81.6,6831],[81.6,6913],[82.1,7002],[83.9,7082],[84.3,7164],[85.1,7251],[86.8,7331],[87.5,7413],[87.9,7501],[88,7579],[88.9,7668],[91.7,7752],[93,7834],[93.2,7913],[93.2,7996],[93.2,8079],[93.2,8163],[93.2,8246],[93.2,8329],[93.2,8413],[93.2,8496],[93.2,8579],[93.2,8663],[93.2,8746],[93.2,8829],[93.2,8912],[93.5,8996],[99.8,9085],[100,9168],[100,9251],[100,9334],[100,9412],[100,9496],[100,9579],[100,9662],[100,9746],[100,9829],[100,9912],[100,9996],[100,10079],[100,10168],[100,10246],[100,10331],[100,10412],[100,10496],[100,10579],[100,10662],[100,10746],[100,10833],[100,10913],[100,10995],[100,11079],[100,11162],[100,11245],[100,11329],[100,11412],[100,11495],[100,11579],[100,11662],[100,11745],[100,11829],[100,11912],[100,11995],[100,12079],[100,12165],[100,12245],[100,12329],[100,12412],[100,12495],[100,12581],[100,12664],[100,12750],[100,12828],[100,12912],[100,12995],[100,13078],[100,13162],[100,13245],[100,13333],[100,13412],[100,13497],[100,13578],[100,13662],[100,13745],[100,13828],[100,13912],[100,13995],[100,14078],[100,14167]]",571.3565,572.99,100,1.4414,"[{""rating"":100,""responseTime"":1.441400000005956}]",space,1.108,,572.99,Not at all,0,572.9908,,,[],,0,13,13,13,1,audio/Narrative8Situation4.wav,audio/Narrative7Situation4.wav,audio/Narrative6Situation4.wav,audio/Narrative5Situation4.wav,3,3,2,1,,,,,,,,,,,,,,,,,,,,,,,,,,,,,,,,,,,,,,,
,,,,,65f366dfcb46b71238e9418d,2025-07-07_22h32.17.977,group3.4_multiperson,2023.2.2,Win32,120.4819277,686c2ebf0248f13bef9af11f,686c831d1182951d6f975b63,,,,,,,,,,,,,,,,,,,,,,,,,,,,,572.9908,1,audio/Narrative8Situation5.wav,574.9919,,574.9919,583.2323,"[[100,6004],[100,6087],[100,6171],[97.7,6251],[96.4,6332],[92.9,6420],[88.1,6504],[87.5,6587],[89,6670],[93.3,6754],[96.8,6835],[100,6915],[100,7004],[100,7082],[100,7169],[100,7248],[100,7333],[100,7415],[100,7498],[100,7584],[100,7665],[100,7752],[100,7831],[100,7915],[100,7998],[100,8081],[100,8165]]",583.2324,586.9547,100,3.3293,"[{""rating"":100,""responseTime"":3.3293000000119264}]",space,3.2071,,586.9547,Definitely yes,100,586.9559,,,[],,0,14,14,14,1,audio/Narrative8Situation5.wav,audio/Narrative7Situation5.wav,audio/Narrative6Situation5.wav,audio/Narrative5Situation5.wav,2,5,2,5,,,,,,,,,,,,,,,,,,,,,,,,,,,,,,,,,,,,,,,
,,,,,65f366dfcb46b71238e9418d,2025-07-07_22h32.17.977,group3.4_multiperson,2023.2.2,Win32,120.4819277,686c2ebf0248f13bef9af11f,686c831d1182951d6f975b63,,,,,,,,,,,,,,,,,,,,,,,,,,,,,586.956,1,audio/Narrative8Situation6.wav,588.9564,,588.9564,595.4138,"[[100,1501],[72.4,2170],[67.2,2252],[64.1,2336],[60.7,2421],[57.2,2499],[55,2582],[52.4,2671],[50.9,2750],[49.5,2835],[49,2917],[48.9,2999],[49,3087],[49.3,3171],[49.5,3249],[49.7,3335],[49.7,3420],[49.7,3499],[49.7,3585],[49.7,3668],[49.7,3749],[49.7,3834],[49.7,3916],[49.7,3999],[49.7,4082],[49.7,4170],[49.7,4250],[49.7,4332],[49.7,4416],[49.7,4499],[49.7,4582],[49.7,4665],[49.7,4749],[49.7,4832],[49.7,4917],[49.7,5000],[49.7,5082],[49.7,5165],[49.7,5249],[49.7,5333],[49.7,5415],[49.7,5499],[49.7,5582],[49.7,5667],[49.7,5749],[49.7,5832],[49.7,5915],[49.7,5999],[41.7,6087],[40.2,6165],[40.2,6254],[40.2,6333],[40.2,6415]]",595.4138,600.2379,0.3125,4.5298,"[{""rating"":0.3124999999999989,""responseTime"":4.529800000011846}]",space,4.2998,,600.2379,Definitely yes,100,600.2388,,,[],,0,15,15,15,1,audio/Narrative8Situation6.wav,audio/Narrative7Situation6.wav,audio/Narrative6Situation6.wav,audio/Narrative5Situation6.wav,2,3,2,3,,,,,,,,,,,,,,,,,,,,,,,,,,,,,,,,,,,,,,,
,,,,,65f366dfcb46b71238e9418d,2025-07-07_22h32.17.977,group3.4_multiperson,2023.2.2,Win32,120.4819277,686c2ebf0248f13bef9af11f,686c831d1182951d6f975b63,,,,,,,,,,,,,,,,,,,,,,,,,,,,,600.239,1,audio/Narrative8Situation7.wav,603.2458,,603.2458,615.3273,"[[1.9,1166],[13.5,1255],[14.1,1338],[12.5,1422],[13.8,1499],[31,1586],[37.1,1672],[43.6,1755],[47.8,1838],[48.4,1922],[49,2005],[50.8,2088],[51.4,2167],[51.4,2249],[51.4,2334],[51.1,2421],[50.6,2504],[50.1,2583],[49.8,2667],[50.6,2754],[58.6,2834],[69,2921],[72.8,2999],[72.8,3082],[72.8,3171],[72.8,3249],[72.8,3332],[72.8,3418],[72.8,3499],[72.8,3582],[72.8,3666],[73.9,3751],[78.5,3838],[81,3917],[83.5,4004],[87.2,4084],[90.1,4171],[91.6,4251],[98.4,4338],[100,4421],[100,4501],[100,4582],[100,4665],[100,4749],[100,4832],[100,4915],[100,4999],[100,5082],[100,5165],[100,5249],[100,5332],[100,5415],[100,5499],[100,5584],[100,5671],[100,5749],[100,5832],[100,5915],[100,5999],[100,6082],[100,6167],[100,6249],[100,6332],[100,6415],[100,6499],[100,6582],[100,6665],[100,6749],[100,6832],[100,6917],[100,6998],[100,7082],[100,7165],[100,7248],[100,7334],[100,7415],[100,7504],[100,7582],[100,7666],[100,7750],[100,7832],[100,7919],[100,8000],[100,8081],[100,8165],[100,8248],[100,8332],[100,8415],[100,8498],[100,8581],[100,8665],[100,8754],[100,8831],[100,8915],[100,9000],[100,9082],[100,9165],[100,9250],[100,9331],[100,9415],[100,9498],[100,9583],[100,9665],[100,9748],[100,9836],[100,9915],[100,9998],[100,10081],[100,10165],[100,10253],[100,10331],[100,10415],[100,10498],[100,10581],[100,10665],[100,10751],[100,10831],[100,10916],[100,10998],[100,11081],[100,11166],[100,11249],[100,11331],[100,11414],[100,11498],[100,11581],[100,11664],[100,11748],[100,11832],[100,11915],[100,11998],[100,12081]]",615.3274,618.3351,100,2.7678,"[{""rating"":100,""responseTime"":2.7678000000119027}]",space,2.4798,,618.3352,Definitely yes,100,618.3361,,,[],,0,16,16,16,1,audio/Narrative8Situation7.wav,audio/Narrative7Situation7.wav,audio/Narrative6Situation7.wav,audio/Narrative5Situation7.wav,3,5,5,4,,,,,,,,,,,,,,,,,,,,,,,,,,,,,,,,,,,,,,,
,,,,,65f366dfcb46b71238e9418d,2025-07-07_22h32.17.977,group3.4_multiperson,2023.2.2,Win32,120.4819277,686c2ebf0248f13bef9af11f,686c831d1182951d6f975b63,,,,,,,,,,,,,,,,,,,,,,,,,,,,,618.3362,1,audio/Narrative8Situation8.wav,621.343,,621.343,634.1808,"[[94.1,1089],[92.7,1172],[91.3,1255],[85.7,1335],[74.6,1422],[70.7,1505],[69.6,1588],[69.4,1667],[69.4,1753],[68.4,1836],[65.5,1922],[64,2001],[63.6,2082],[62.8,2171],[59.1,2254],[55.9,2333],[53.1,2421],[50.2,2505],[47.6,2585],[46.8,2666],[46.6,2749],[47,2832],[47.8,2916],[48.2,2999],[48.9,3083],[49.3,3166],[49.7,3249],[49.8,3332],[49.8,3416],[49.8,3499],[49.8,3582],[49.8,3666],[49.8,3749],[49.8,3832],[49.8,3916],[49.8,3999],[49.8,4082],[49.8,4166],[49.8,4249],[49.8,4332],[49.8,4415],[49.8,4499],[49.8,4582],[49.8,4665],[49.8,4749],[49.8,4832],[49.8,4915],[49.8,4999],[49.8,5082],[49.8,5165],[49.8,5249],[49.8,5332],[49.8,5415],[49.8,5499],[49.8,5582],[49.8,5665],[49.8,5749],[49.8,5832],[49.8,5916],[49.8,5999],[51.3,6082],[64.3,6165],[75.8,6249],[88.9,6332],[100,6415],[100,12671],[100,12754],[99.3,12837]]",634.1808,637.3467,99.0625,1.8078,"[{""rating"":99.0625,""responseTime"":1.8077999999820804}]",space,2.6414,,637.3468,Definitely yes,100,637.3476,,,[],,0,17,17,17,1,audio/Narrative8Situation8.wav,audio/Narrative7Situation8.wav,audio/Narrative6Situation8.wav,audio/Narrative5Situation8.wav,3,2,5,3,,,,,,,,,,,,,,,,,,,,,,,,,,,,,,,,,,,,,,,
,,,,,65f366dfcb46b71238e9418d,2025-07-07_22h32.17.977,group3.4_multiperson,2023.2.2,Win32,120.4819277,686c2ebf0248f13bef9af11f,686c831d1182951d6f975b63,,,,,,,,,,,,,,,,,,,,,,,,,,,,,637.3477,1,audio/Narrative8Situation9.wav,640.3542,,640.3543,651.655,"[[90,1000],[86.1,1083],[80.6,1166],[71.9,1252],[60.2,1335],[54.8,1424],[54.2,1503],[54.2,1585],[55.4,1668],[58.9,1757],[61.5,1841],[61.8,1924],[61.8,2002],[62,2086],[62.1,2174],[62.3,2255],[64.1,2337],[67.3,2419],[69,2507],[71.4,2586],[73.6,2670],[74.3,2754],[74.9,2840],[74.9,2923],[74.9,3001],[74.9,3085],[74.9,3168],[74.9,3251],[74.9,3335],[74.9,3418],[74.9,3501],[75.2,3585],[77.9,3674],[84.8,3757],[89.1,3840],[92.8,3924],[98.9,4006]]",651.6551,669.0773,100,1.8973,"[{""rating"":100,""responseTime"":1.897299999982124}]",space,16.9046,,669.0773,Definitely yes,100,669.0785,,,[],,0,18,18,18,1,audio/Narrative8Situation9.wav,audio/Narrative7Situation9.wav,audio/Narrative6Situation9.wav,audio/Narrative5Situation9.wav,3,2,4,3,,,,,,,,,,,,,,,,,,,,,,,,,,,,,,,,,,,,,,,
,,,,,65f366dfcb46b71238e9418d,2025-07-07_22h32.17.977,group3.4_multiperson,2023.2.2,Win32,120.4819277,686c2ebf0248f13bef9af11f,686c831d1182951d6f975b63,,,,,,,,,,,,,,,,,,,,,,,,,,,672.3083,674.8847,674.8903,2,audio/Narrative13Situation2.wav,674.8904,,674.8904,704.6217,"[[999,0],[999,78],[999,160],[999,244],[999,327],[999,410],[999,496],[999,577],[999,660],[999,744],[999,827],[999,910],[67.9,997],[54.7,1249],[53,1332],[52.6,1410],[51.6,1497],[50.7,1582],[50.6,1660],[50.6,1745],[50.6,1827],[50.6,1910],[50.6,1993],[50.6,2077],[50.6,2160],[50.6,2243],[50.6,2327],[50.6,2410],[50.6,2493],[50.6,2577],[50.6,2663],[50.6,2743],[50.6,2827],[50.6,2912],[50.6,2996],[50.6,3082],[50.6,3160],[50.6,3243],[50.6,3326],[50.6,3410],[50.6,3493],[50.6,3576],[50.6,3660],[50.6,3743],[50.6,3826],[50.6,3910],[50.6,3993],[50.6,4076],[50.6,4160],[50.6,4243],[50.6,4326],[50.6,4415],[50.6,4493],[50.5,4582],[50.4,4662],[50.3,4749],[50.3,4830],[50.6,4911],[50.7,4993],[50.7,5076],[50.9,5160],[51,5243],[51.3,5326],[51.4,5410],[51.6,5498],[52.4,5577],[52.6,5659],[52.5,5744],[51,5830],[49.8,5915],[49.7,5993],[49.7,6076],[49.7,6160],[49.7,6243],[49.7,6326],[49.7,6410],[49.7,6493],[49.7,6576],[49.7,6659],[49.7,6743],[49.8,6828],[49.9,6909],[49.9,6993],[49.9,7081],[49.9,7159],[49.9,7243],[49.9,7326],[49.9,7409],[49.9,7497],[49.9,7576],[49.9,7659],[49.9,7743],[49.9,7828],[49.9,7909],[49.9,7992],[49.9,8076],[49.9,8159],[49.9,8246],[50.1,8326],[50.6,8414],[52.1,8497],[56.9,8581],[66.8,8665],[87,9248],[90,9498],[93.2,9578],[93.5,9659],[93.5,9742],[93.5,9826],[93.5,9909],[93.4,9996],[93.4,10076],[93.3,10159],[93.2,10242],[93.2,10331],[93.1,10409],[93.1,10492],[93.1,10575],[93.1,10659],[98,10748],[99.5,10826],[99.6,10914],[99.6,10997],[99.6,11075],[99.6,11159],[99.6,11242],[99.6,11326],[99.6,11411],[99.6,11492],[99.6,11575],[99.6,11658],[99.6,11742],[99.6,11825],[99.6,11908],[99.6,11996],[99.6,12075],[99.6,12159],[99.6,12242],[99.6,12325],[99.6,12415],[99.6,12492],[99.6,12575],[99.6,12658],[99.6,12742],[99.6,12830],[99.6,12908],[99.6,12992],[99.6,13075],[99.6,13158],[99.6,13242],[99.6,13325],[99.6,13408],[99.6,13495],[99.6,13575],[99.6,13658],[99.6,13742],[99.6,13825],[99.6,13908],[99.6,13997],[99.6,14075],[99.6,14158],[99.6,14241],[99.6,14325],[99.6,14412],[99.6,14491],[99.6,14575],[99.6,14662],[99.6,14741],[99.6,14827],[99.6,14908],[99.6,14997],[99.6,15080],[99.6,15158],[99.6,15242],[99.6,15326],[99.6,15408],[99.6,15496],[99.6,15581],[99.6,15658],[99.6,15741],[99.6,15825],[99.6,15908],[99.6,15993],[99.6,16075],[99.6,16158],[99.6,16243],[99.6,16325],[99.6,16412],[99.6,16491],[99.6,16574],[99.6,16658],[99.6,16741],[99.6,16825],[99.6,16908],[99.6,16991],[99.6,17078],[99.6,17159],[99.6,17241],[99.6,17324],[99.6,17409],[99.6,17491],[99.6,17574],[99.6,17660],[99.6,17741],[99.6,17830],[99.6,17908],[99.6,17991],[99.6,18076],[99.6,18158],[99.6,18241],[99.6,18324],[99.6,18408],[99.6,18491],[99.6,18574],[99.6,18658],[99.6,18741],[99.6,18824],[99.6,18908],[99.6,18991],[99.6,19074],[99.6,19158],[99.6,19241],[99.6,19329],[99.6,19407],[99.6,19493],[99.6,19574],[99.6,19657],[99.6,19741],[99.6,19824],[99.6,19907],[99.6,19995],[99.6,20074],[99.6,20157],[99.6,20240],[99.6,20324],[99.6,20407],[99.6,20495],[99.6,20574],[99.6,20657],[99.6,20741],[99.6,20824],[99.6,20907],[99.6,20992],[99.6,21074],[99.6,21157],[99.6,21240],[99.6,21324],[99.6,21409],[99.6,21490],[99.6,21576],[99.6,21657],[99.6,21740],[99.6,21824],[99.6,21909],[99.6,21990],[99.6,22076],[99.6,22157],[99.6,22246],[99.6,22324],[99.6,22408],[99.6,22490],[99.6,22573],[99.6,22658],[99.6,22742],[99.6,22823],[99.6,22907],[99.6,22990],[99.6,23074],[99.6,23157],[99.6,23244],[99.6,23323],[99.6,23407],[99.6,23490],[99.6,23573],[99.6,23657],[99.6,23740],[99.6,23823],[99.6,23907],[99.6,23990],[99.6,24073],[99.6,24157],[99.6,24240],[99.6,24323],[99.6,24407],[99.6,24490],[99.6,24573],[99.6,24657],[99.6,24742],[99.6,24823],[99.6,24906],[99.6,24995],[99.6,25073],[99.6,25156],[99.6,25240],[99.6,25327],[99.6,25407],[99.6,25490],[99.6,25573],[99.6,25656],[99.6,25740],[99.6,25823],[99.6,25906],[99.6,25990],[99.6,26073],[99.6,26158],[99.6,26244],[99.6,26323],[99.6,26406],[99.6,26490],[99.6,26573],[99.6,26656],[99.6,26740],[99.6,26823],[99.6,26906],[99.6,26990],[99.6,27077],[99.6,27156],[99.6,27241],[99.6,27323],[99.6,27406],[99.6,27495],[99.6,27574],[99.6,27656],[99.6,27739],[99.6,27829],[99.6,27906],[99.6,27991],[99.6,28073],[99.6,28157],[99.6,28245],[99.6,28323],[99.6,28407],[99.6,28489],[99.6,28573],[99.6,28656],[99.6,28740],[99.6,28828],[99.6,28908],[99.6,28994],[99.6,29073],[99.6,29161],[99.6,29239],[99.6,29322],[99.6,29406],[99.6,29489],[99.6,29573],[99.6,29660]]",704.6218,704.6229,,,[],,,,704.6229,Not at all,0,704.6239,,,[],,0,0,0,0,1,audio/Narrative13Situation2.wav,audio/Narrative13Situation2.wav,audio/Narrative13Situation2.wav,audio/Narrative13Situation2.wav,2,2,2,2,,,,,669.0792,672.3081,space,2.7222,,,,,,,,,,,,,,,,,,,,,,,,,,,,,,,
,,,,,65f366dfcb46b71238e9418d,2025-07-07_22h32.17.977,group3.4_multiperson,2023.2.2,Win32,120.4819277,686c2ebf0248f13bef9af11f,686c831d1182951d6f975b63,,,,,,,,,,,,,,,,,,,,,,,,,,,,,704.624,2,audio/Narrative5Situation1.wav,709.6269,,709.6269,722.8999,"[[98,1166],[93.3,1250],[63.1,1666],[63,1749],[63,1833],[63,1916],[63,1999],[63,2083],[63,2166],[63,2249],[63,2333],[63,2416],[63,2499],[63,2582],[63,2666],[63,2749],[63,2832],[63,2916],[63,2999],[63,3082],[63,3166],[63,3249],[63,3332],[63,3416],[63,3499],[63,3582],[61.5,3666],[49.9,4249],[50.3,4332],[50.8,4416],[51.5,4499],[51.5,4582],[51.5,4666],[50.8,4749],[49.9,4832],[49.8,4916],[49.8,4999],[49.8,5082],[49.8,5166],[49.8,5249],[49.8,5332],[49.8,5415],[49.8,5498],[49.8,5582],[49.8,5665],[49.8,5749],[49.8,5832],[49.8,5915],[49.8,5999],[49.8,6082],[49.8,6165],[49.8,6249],[49.8,6332],[49.8,6415],[49.8,6499],[49.8,6582],[49.8,6665],[49.8,6748],[49.8,6832],[49.8,6915],[49.8,6998],[49.8,7082],[49.8,7165],[49.8,7249],[49.8,7332],[49.8,7415],[49.8,7498],[49.8,7581],[49.8,7665],[49.8,7748],[49.8,7832],[49.8,7915],[49.8,7998],[49.8,8081],[49.8,8165],[49.8,8248],[49.8,8331],[49.8,8415],[49.8,8498],[49.8,8581],[49.8,8665],[49.8,8748],[49.8,8831],[49.8,8915],[49.8,8998],[49.8,9081],[49.8,9165],[49.8,9248],[49.8,9331],[49.8,9415],[49.8,9498],[49.8,9581],[49.8,9665],[49.8,9748],[49.8,9831],[32.9,9915],[27.9,9998],[24.1,10081],[22.3,10165],[20.5,10248],[20.1,10331],[20.1,10415],[20.2,10498],[20.7,10581],[21.3,10665],[22.1,10748],[22.8,10831],[23.3,10914],[23.6,10998],[23.6,11082],[23.6,11164],[23.6,11248],[23.6,11331],[23.6,11414],[23.6,11498],[23.6,11581],[23.6,11664],[23.6,11748],[23.6,11831],[23.6,11914],[23.6,11998],[23.6,12081],[23.6,12164],[23.6,12248],[23.6,12331],[23.6,12414],[23.6,12498],[23.6,12581],[23.6,12664],[23.6,12747],[23.6,12831],[23.6,12914],[23.6,12997],[23.6,13081],[10.1,13164],[6.9,13248]]",722.9,729.997,50.52083333,6.6979,"[{""rating"":50.520833333333336,""responseTime"":6.697900000005916}]",space,6.5735,,729.997,Definitely yes,100,737.2555,100,2.9,"[{""rating"":100,""responseTime"":2.8999999999999773}]",space,0,1,1,1,1,audio/Narrative7Situation1.wav,audio/Narrative8Situation1.wav,audio/Narrative5Situation1.wav,audio/Narrative6Situation1.wav,2,5,5,2,,,6.7349,,,,,,,,,,,,,,,,,,,,,,,,,,,,,,,,,,,,
,,,,,65f366dfcb46b71238e9418d,2025-07-07_22h32.17.977,group3.4_multiperson,2023.2.2,Win32,120.4819277,686c2ebf0248f13bef9af11f,686c831d1182951d6f975b63,,,,,,,,,,,,,,,,,,,,,,,,,,,,,737.2557,2,audio/Narrative5Situation2.wav,740.2578,,740.2578,769.7033,"[[95.5,1672],[82,1755],[75.1,1838],[66.6,1922],[56.9,2000],[53.1,2088],[52.4,2166],[52.2,2254],[51.5,2338],[51.3,2421],[51.1,2505],[50.8,2582],[50.8,2666],[50.8,2749],[50.7,2832],[50.4,2916],[50.3,3002],[50.3,3082],[50.3,3166],[51.6,3255],[52.1,3338],[52.4,3416],[52.4,3499],[52.4,3582],[52.4,3665],[52.4,3754],[52.4,3832],[53.9,3921],[56.1,4005],[57.9,4088],[59.9,4168],[62.1,4254],[64.3,4334],[66.9,4421],[68.5,4505],[69.9,4588],[70.8,4666],[71.9,4753],[72.7,4837],[72.9,4915],[72.9,5003],[72.9,5086],[72.9,5165],[72.9,5249],[72.9,5337],[72.9,5419],[72.9,5499],[72.9,5586],[72.9,5665],[72.9,5749],[72.9,5837],[72.9,5915],[72.9,5999],[72.9,6082],[72.9,6165],[72.9,6248],[72.9,6334],[72.9,6419],[72.9,6498],[72.9,6582],[72.9,6665],[72.9,6750],[72.9,6834],[72.9,6915],[72.9,6998],[72.9,7087],[72.9,7165],[72.9,7252],[72.9,7332],[72.9,7417],[72.9,7502],[72.9,7582],[72.9,7665],[72.9,7748],[72.9,7837],[72.9,7920],[72.9,7998],[72.9,8086],[72.9,8166],[72.9,8248],[72.9,8331],[72.9,8416],[72.9,8500],[74.2,8585],[74.7,8670],[74.7,8748],[74.8,8831],[74.8,8915],[74.8,8998],[74.8,9081],[75.1,9170],[77,9254],[80.3,9337],[90.3,9418],[100,9501],[100,9587],[100,9669],[100,9749],[100,9831],[100,9915],[100,10002],[100,10081],[100,10165],[100,10248],[100,10331],[100,10414],[100,10498],[100,10581],[100,10664],[100,10748],[100,10836],[100,10920],[100,10998],[100,11081],[100,11169],[100,11248],[100,11331],[100,11414],[100,11498],[100,11581],[100,11664],[100,11748],[100,11835],[100,11914],[100,12000],[100,12081],[100,12164],[100,12247],[100,12331],[100,12415],[100,12503],[100,12583],[100,12664],[100,12747],[100,12831],[100,12914],[100,12997],[100,13081],[100,13164],[100,13247],[100,13331],[100,13414],[100,13497],[100,13581],[100,13665],[100,13747],[100,13835],[100,13914],[100,13997],[100,14081],[100,14166],[100,14247],[100,14331],[100,14414],[100,14497],[100,14585],[100,14668],[100,14749],[100,14831],[100,14914],[100,15002],[100,15081],[100,15164],[100,15247],[100,15330],[100,15414],[100,15497],[100,15581],[100,15668],[100,15747],[100,15831],[100,15914],[100,15997],[100,16080],[100,16164],[100,16248],[100,16330],[100,16415],[100,16499],[100,16582],[100,16663],[100,16747],[100,16834],[100,16913],[100,16997],[100,17082],[100,17163],[100,17248],[100,17330],[100,17413],[100,17502],[100,17580],[100,17668],[100,17747],[100,17832],[100,17915],[100,17997],[100,18080],[100,18163],[100,18247],[100,18335],[100,18413],[100,18497],[100,18585],[100,18665],[100,18746],[100,18830],[100,18913],[100,18996],[100,19080],[100,19165],[100,19246],[100,19334],[100,19413],[100,19502],[100,19580],[100,19663],[100,19747],[100,19830],[100,19913],[100,19996],[100,20080],[100,20163],[100,20250],[100,20330],[100,20418],[100,20501],[100,20580],[100,20663],[100,20750],[100,20829],[100,20913],[100,20996],[100,21079],[100,21167],[100,21248],[100,21329],[100,21413],[100,21496],[100,21579],[100,21663],[100,21746],[100,21829],[100,21913],[100,21996],[100,22080],[100,22163],[100,22246],[100,22331],[100,22413],[100,22496],[100,22579],[100,22663],[100,22746],[100,22829],[100,22913],[100,22996],[100,23079],[100,23163],[100,23246],[100,23329],[100,23413],[100,23496],[100,23579],[100,23667],[100,23751],[100,23829],[100,23912],[100,23996],[100,24079],[100,24162],[100,24251],[100,24329],[100,24412],[100,24496],[100,24581],[100,24662],[100,24746],[100,24829],[100,24914],[100,24996],[100,25079],[100,25165],[100,25250],[100,25330],[100,25412],[100,25495],[100,25579],[100,25662],[100,25745],[100,25829],[100,25918],[100,26000],[100,26079],[100,26164],[100,26245],[100,26329],[100,26412],[100,26495],[100,26579],[100,26666],[100,26745],[100,26829],[100,26917],[100,26995],[100,27079],[100,27162],[100,27245],[100,27328],[100,27412],[100,27500],[100,27583],[100,27662],[100,27745],[100,27828],[100,27916],[100,27995],[100,28079],[100,28162],[100,28245],[100,28330],[100,28412],[100,28495],[100,28578],[100,28663],[100,28746],[100,28834],[100,28912],[100,28995],[100,29078],[100,29162],[100,29245],[100,29328],[100,29411]]",769.7034,771.9259,99.47916667,2.0473,"[{""rating"":99.47916666666667,""responseTime"":2.0473000000118873}]",space,1.7011,,771.9259,Definitely yes,100,771.9266,,,[],,0,2,2,2,1,audio/Narrative7Situation2.wav,audio/Narrative8Situation2.wav,audio/Narrative5Situation2.wav,audio/Narrative6Situation2.wav,3,3,3,3,,,,,,,,,,,,,,,,,,,,,,,,,,,,,,,,,,,,,,,
,,,,,65f366dfcb46b71238e9418d,2025-07-07_22h32.17.977,group3.4_multiperson,2023.2.2,Win32,120.4819277,686c2ebf0248f13bef9af11f,686c831d1182951d6f975b63,,,,,,,,,,,,,,,,,,,,,,,,,,,,,771.9267,2,audio/Narrative5Situation3.wav,774.9333,,774.9333,788.8336,"[[62.2,3333],[59.2,3416],[59.3,3499],[60,3583],[60.3,3666],[67.4,3749],[75.8,3833],[76.5,3916],[81.4,3999],[100,4083],[100,4166],[100,4249],[100,4332],[100,4416],[100,4499],[100,4582],[100,4665],[100,4749],[100,4832],[100,4916],[100,4999],[100,5082],[100,5165],[100,5249],[100,5332],[100,5416],[100,5499],[100,5582],[100,5665],[100,5749],[100,5832],[100,5915],[100,5999],[100,6082],[100,6165],[100,6249],[100,6332],[100,6415],[100,6499],[100,6582],[100,6665],[100,6749],[100,6832],[100,6915],[100,6999],[100,7082],[100,7165],[100,7249],[100,7332],[100,7415],[100,7498],[100,7582],[100,7665],[100,7748],[100,7832],[100,7915],[100,7998],[100,8082],[100,8165],[100,8248],[100,8332],[100,8415],[100,8498],[100,8582],[100,8665],[100,8748],[100,8832],[100,8915],[100,8998],[100,9081],[100,9165],[100,9248],[100,9331],[100,9415],[100,9498],[100,9581],[100,9665],[100,9748],[100,9831],[100,9915],[100,9998],[100,10081],[100,10165],[100,10248],[100,10331],[100,10415],[100,10498],[100,10581],[100,10664],[100,10748],[100,10831],[100,10914],[100,10998],[100,11081],[100,11165],[100,11248],[100,11331],[100,11415],[100,11498],[100,11583],[100,11667],[100,11750],[100,11839],[100,11921],[100,12000],[100,12085],[100,12167],[100,12250],[100,12333],[100,12421],[100,12500],[100,12583],[100,12672],[100,12750],[100,12833],[100,12917],[100,13000],[100,13085],[100,13167],[100,13250],[100,13333],[100,13417],[100,13500],[100,13583],[100,13666],[100,13752],[100,13833]]",788.8337,790.5799,99.58333333,1.3724,"[{""rating"":99.58333333333333,""responseTime"":1.3723999999760963}]",space,1.2245,,790.5799,Partially,50,790.5811,,,[],,0,3,3,3,1,audio/Narrative7Situation3.wav,audio/Narrative8Situation3.wav,audio/Narrative5Situation3.wav,audio/Narrative6Situation3.wav,8,4,3,5,,,,,,,,,,,,,,,,,,,,,,,,,,,,,,,,,,,,,,,
,,,,,65f366dfcb46b71238e9418d,2025-07-07_22h32.17.977,group3.4_multiperson,2023.2.2,Win32,120.4819277,686c2ebf0248f13bef9af11f,686c831d1182951d6f975b63,,,,,,,,,,,,,,,,,,,,,,,,,,,,,790.5813,2,audio/Narrative5Situation4.wav,791.5832,,791.5832,811.9717,"[[93.1,1755],[91.3,1835],[90.9,1916],[91.4,1999],[95.8,2084],[99.8,2168],[100,2254],[100,2332],[100,2416],[100,2499],[100,2588],[100,2666],[100,2749],[100,2832],[100,2916],[100,3004],[100,3082],[100,3166],[100,3249],[100,3334],[100,3415],[100,3499],[100,3582],[100,3665],[100,3749],[100,3832],[100,3915],[100,3999],[100,4082],[100,4165],[100,4249],[100,4336],[100,4415],[100,4499],[100,4582],[100,4671],[100,4749],[100,4832],[100,4915],[100,4999],[100,5082],[100,5165],[100,5249],[100,5332],[100,5415],[100,5499],[100,5582],[100,5665],[100,5749],[100,5832],[100,5915],[100,5999],[100,6082],[100,6165],[100,6248],[100,6332],[100,6415],[100,6498],[100,6582],[100,6667],[100,6748],[100,6834],[100,6919],[100,6998],[100,7082],[100,7165],[100,7248],[100,7336],[100,7415],[100,7498],[100,7586],[100,7665],[100,7752],[100,7832],[100,7916],[100,8002],[100,8082],[100,8168],[100,8253],[100,8331],[100,8419],[100,8498],[100,8581],[100,8665],[100,8749],[100,8831],[100,8915],[100,8999],[100,9081],[100,9165],[100,9248],[100,9331],[100,9414],[100,9499],[100,9581],[100,9665],[100,9748],[100,9831],[100,9914],[100,9998],[100,10081],[100,10165],[100,10248],[100,10331],[100,10414],[100,10498],[100,10581],[100,10664],[100,10748],[100,10831],[100,10916],[100,10998],[100,11081],[100,11164],[100,11248],[100,11335],[100,11414],[100,11498],[100,11581],[100,11664],[100,11748],[100,11835],[100,11914],[100,11997],[100,12081],[100,12164],[100,12247],[100,12331],[100,12415],[100,12498],[100,12586],[100,12664],[100,12747],[100,12831],[100,12914],[100,12997],[100,13085],[100,13164],[100,13247],[100,13331],[100,13414],[100,13497],[100,13581],[100,13664],[100,13747],[100,13831],[100,13914],[100,13997],[100,14081],[100,14164],[100,14252],[100,14336],[100,14414],[100,14497],[100,14584],[100,14666],[100,14747],[100,14832],[100,14914],[100,14997],[100,15080],[100,15164],[100,15247],[100,15330],[100,15415],[100,15497],[100,15580],[100,15664],[100,15747],[100,15830],[100,15914],[100,15999],[100,16082],[100,16166],[100,16247],[100,16332],[100,16414],[100,16497],[100,16581],[100,16663],[100,16752],[100,16830],[100,16913],[100,16997],[100,17080],[100,17163],[100,17247],[100,17330],[100,17413],[100,17498],[100,17580],[100,17663],[100,17747],[100,17834],[100,17913],[100,17999],[100,18080],[100,18163],[100,18246],[100,18335],[100,18417],[100,18497],[100,18580],[100,18663],[100,18752],[100,18831],[100,18913],[100,18996],[100,19080],[100,19163],[100,19246],[100,19330],[100,19413],[100,19498],[98.9,19585],[98.1,19665],[97.8,19746],[97.8,19830],[97.8,19913],[97.8,19996],[99.5,20082],[100,20163],[100,20246],[100,20330]]",811.9718,814.1941,99.0625,1.1815,"[{""rating"":99.0625,""responseTime"":1.1815000000000282}]",space,1.692,,814.1941,Definitely yes,100,814.1954,,,[],,0,4,4,4,1,audio/Narrative7Situation4.wav,audio/Narrative8Situation4.wav,audio/Narrative5Situation4.wav,audio/Narrative6Situation4.wav,3,3,1,2,,,,,,,,,,,,,,,,,,,,,,,,,,,,,,,,,,,,,,,
,,,,,65f366dfcb46b71238e9418d,2025-07-07_22h32.17.977,group3.4_multiperson,2023.2.2,Win32,120.4819277,686c2ebf0248f13bef9af11f,686c831d1182951d6f975b63,,,,,,,,,,,,,,,,,,,,,,,,,,,,,814.1955,2,audio/Narrative5Situation5.wav,819.204,,819.204,834.6182,"[[69.4,85],[67.5,172],[64.4,255],[64.3,335],[64.3,422],[64.3,505],[63.6,588],[62.8,666],[62.7,749],[62.7,832],[62.7,916],[62.7,999],[62.6,1088],[60.7,1172],[56.3,1749],[62.5,1833],[66.1,1919],[68.1,2004],[69.7,2082],[72.6,2170],[78.4,2250],[80,2334],[80.1,2416],[80.1,2499],[80.1,2583],[80.1,2666],[80.1,2753],[80.1,2837],[80.1,2916],[80.1,2999],[79.7,3088],[79.6,3167],[79.4,3249],[79.2,3332],[79.1,3416],[79.1,3499],[79.1,3582],[79.1,3665],[79.1,3749],[79.1,3834],[79.1,3915],[79.1,4002],[79.1,4082],[79.1,4165],[79.1,4249],[79.1,4332],[79.1,4415],[79.1,4499],[79.1,4587],[79.1,4665],[79.1,4750],[79.1,4832],[79.1,4915],[79.1,5001],[79.1,5082],[79.1,5165],[79.1,5249],[79.1,5332],[79.1,5415],[79.1,5498],[79.1,5582],[79.1,5667],[79.1,5753],[79.1,5832],[79.1,5915],[79.1,5998],[79.1,6082],[79.1,6165],[79.1,6249],[79.1,6334],[79.1,6415],[79.1,6498],[79.1,6582],[79.1,6669],[79.1,6748],[79.1,6831],[79.1,6915],[79.1,6998],[79.1,7082],[79.1,7165],[79.1,7249],[83,7334],[100,7421],[100,7504],[100,7581],[100,7665],[100,7754],[100,7837],[100,7915],[100,8003],[100,8086],[100,8165],[100,8248],[100,8331],[100,8415],[100,8498],[100,8586],[100,8665],[100,8749],[100,8831],[100,8914],[100,9002],[100,9081],[100,9164],[100,9248],[100,9331],[100,9415],[100,9498],[100,9581],[100,9664],[100,9750],[100,9831],[100,9914],[100,9998],[100,10081],[100,10164],[100,10248],[100,10331],[100,10414],[100,10498],[100,10581],[100,10664],[100,10748],[100,10831],[100,10914],[100,10998],[100,11081],[100,11164],[100,11248],[100,11331],[100,11420],[100,11498],[100,11581],[100,11664],[100,11747],[100,11831],[100,11914],[100,12002],[100,12081],[100,12166],[100,12248],[100,12331],[100,12416],[100,12497],[100,12581],[100,12665],[100,12747],[100,12831],[100,12914],[100,12999],[100,13082],[100,13164],[100,13247],[100,13331],[100,13414],[100,13497],[100,13581],[100,13664],[100,13753],[100,13836],[100,13919],[99.8,14003],[99.1,14086],[98.9,14168],[98.9,14252],[98.9,14335],[98.9,14414],[98.9,14497],[93.2,14586],[86.4,14668],[78.9,14753],[77.3,14832],[77,14915],[76.6,15002],[76.1,15080],[76,15163],[76,15247],[76,15330],[76,15414]]",834.6183,838.6155,50.10416667,3.7053,"[{""rating"":50.10416666666667,""responseTime"":3.705299999982117}]",space,3.4754,,838.6156,Definitely yes,100,838.6164,,,[],,0,5,5,5,1,audio/Narrative7Situation5.wav,audio/Narrative8Situation5.wav,audio/Narrative5Situation5.wav,audio/Narrative6Situation5.wav,5,2,5,2,,,,,,,,,,,,,,,,,,,,,,,,,,,,,,,,,,,,,,,
,,,,,65f366dfcb46b71238e9418d,2025-07-07_22h32.17.977,group3.4_multiperson,2023.2.2,Win32,120.4819277,686c2ebf0248f13bef9af11f,686c831d1182951d6f975b63,,,,,,,,,,,,,,,,,,,,,,,,,,,,,838.6165,2,audio/Narrative5Situation6.wav,841.6229,,841.6229,847.281,"[[51.4,5249],[51.4,5332],[51.4,5415],[51,5499],[50.9,5582]]",847.281,852.2218,49.27083333,4.4738,"[{""rating"":59.27083333333334,""responseTime"":3.374099999993973},{""rating"":49.270833333333336,""responseTime"":4.47380000001192}]",space,4.4163,,852.2219,Definitely yes,100,852.2225,,,[],,0,6,6,6,1,audio/Narrative7Situation6.wav,audio/Narrative8Situation6.wav,audio/Narrative5Situation6.wav,audio/Narrative6Situation6.wav,3,2,3,2,,,,,,,,,,,,,,,,,,,,,,,,,,,,,,,,,,,,,,,
,,,,,65f366dfcb46b71238e9418d,2025-07-07_22h32.17.977,group3.4_multiperson,2023.2.2,Win32,120.4819277,686c2ebf0248f13bef9af11f,686c831d1182951d6f975b63,,,,,,,,,,,,,,,,,,,,,,,,,,,,,852.2226,2,audio/Narrative5Situation7.wav,856.229,,856.229,877.2532,"[[48.8,752],[48.8,835],[49,925],[49.3,1002],[49.9,1091],[50.2,1170],[51,1257],[53.4,1341],[54.5,1423],[54.5,1502],[53.4,1590],[52.5,1671],[52,1757],[51.8,1836],[51.5,1919],[51.5,2002],[51.5,2085],[51.5,2169],[51,2257],[50.9,2339],[50.7,2418],[50.7,2502],[50.7,2585],[50.7,2668],[50.7,2752],[50.7,2835],[50.7,2918],[50.7,3001],[50.7,3085],[50.7,3168],[50.7,3251],[50.7,3335],[50.7,3420],[50.7,3503],[50.7,3585],[50.7,3668],[50.7,3751],[50.7,3835],[50.7,3919],[50.7,4002],[50.7,4085],[50.7,4168],[50.7,4253],[50.7,4335],[50.7,4420],[50.7,4506],[50.7,4585],[50.7,4668],[50.7,4752],[50.7,4835],[50.7,4918],[50.7,5006],[50.7,5084],[50.7,5168],[50.7,5251],[50.7,5335],[50.7,5418],[50.7,5501],[50.7,5584],[50.7,5669],[50.7,5752],[50.7,5834],[50.7,5918],[50.7,6001],[50.7,6084],[50.7,6173],[50.7,6251],[50.7,6334],[50.7,6417],[50.7,6501],[50.7,6584],[50.7,6668],[50.7,6751],[50.7,6834],[50.7,6917],[50.7,7001],[50.7,7084],[50.7,7167],[50.7,7251],[50.7,7334],[50.7,7417],[50.7,7503],[50.7,7584],[50.7,7667],[50.7,7751],[50.7,7834],[50.7,7919],[50.7,8006],[50.7,8084],[50.7,8167],[50.7,8253],[50.7,8334],[50.7,8417],[50.7,8500],[50.7,8584],[50.7,8667],[50.7,8755],[50.7,8834],[50.7,8917],[50.7,9000],[50.7,9084],[50.7,9167],[50.7,9251],[50.7,9334],[50.7,9417],[50.7,9500],[50.7,9584],[50.7,9667],[50.8,9750],[50.8,9834],[50.8,9917],[50.8,10000],[50.8,10084],[50.8,10167],[50.8,10250],[50.8,10334],[50.8,10417],[50.8,10502],[50.8,10584],[50.8,10667],[50.8,10750],[50.8,10834],[50.8,10917],[50.8,11000],[50.8,11083],[50.8,11167],[50.8,11250],[50.8,11334],[50.8,11417],[50.8,11500],[50.8,11586],[50.8,11672],[50.8,11750],[50.8,11836],[50.8,11917],[50.8,12000],[50.8,12083],[50.8,12167],[50.8,12255],[50.8,12339],[50.8,12423],[50.8,12506],[50.8,12589],[50.8,12673],[50.8,12756],[50.8,12839],[50.8,12923],[50.8,13006],[50.8,13089],[50.8,13173],[50.8,13256],[50.8,13339],[50.8,13422],[50.8,13506],[50.8,13589],[50.8,13672],[50.8,13756],[50.8,13839],[50.8,13922],[50.8,14006],[50.8,14089],[50.8,14172],[50.8,14256],[50.8,14339],[50.8,14422],[50.8,14506],[50.8,14589],[50.8,14672],[50.8,14756],[50.8,14839],[50.8,14922],[50.8,15006],[50.8,15089],[50.8,15172],[50.8,15256],[50.8,15339],[50.8,15422],[50.8,15505],[50.8,15589],[50.8,15672],[50.8,15755],[50.8,15839],[50.8,15922],[50.8,16006],[50.8,16089],[50.6,16172],[37.3,16256],[30.7,16339],[28.5,16422],[25.9,16506],[24.6,16589],[24.4,16672],[24.4,16755],[24.4,16839],[24.5,16922],[24.5,17005],[24.5,17089],[24.6,17172],[24.6,17255],[24.6,17339],[24.6,17422],[24.6,17505],[24.6,17589],[24.6,17672],[24.6,17755],[24.6,17839],[24.6,17922],[24.6,18005],[24.6,18089],[24.6,18172],[24.6,18255],[24.6,18338],[24.6,18422],[24.6,18505],[24.6,18588],[24.6,18672],[24.6,18755],[24.6,18838],[24.6,18922],[24.6,19005],[20.7,19089],[14.3,19177],[14.3,19257],[14.3,19343],[14.3,19424]]",877.2533,887.2202,0.625,2.0806,"[{""rating"":0.6249999999999978,""responseTime"":2.0805999999939786}]",space,9.4427,,887.2202,Definitely yes,100,887.2209,,,[],,0,7,7,7,1,audio/Narrative7Situation7.wav,audio/Narrative8Situation7.wav,audio/Narrative5Situation7.wav,audio/Narrative6Situation7.wav,5,3,4,5,,,,,,,,,,,,,,,,,,,,,,,,,,,,,,,,,,,,,,,
,,,,,65f366dfcb46b71238e9418d,2025-07-07_22h32.17.977,group3.4_multiperson,2023.2.2,Win32,120.4819277,686c2ebf0248f13bef9af11f,686c831d1182951d6f975b63,,,,,,,,,,,,,,,,,,,,,,,,,,,,,887.2211,2,audio/Narrative5Situation8.wav,890.2306,,890.2306,899.0374,"[[999,0],[999,78],[999,162],[999,245],[999,328],[999,412],[999,495],[999,578],[999,662],[999,745],[999,828],[999,911],[999,1001],[999,1084],[999,1167],[999,1245],[55.4,1334],[54.8,1417],[54.7,1495],[54.1,1583],[52.7,1667],[52,1746],[51.7,1828],[51.7,1916],[51.7,1995],[51.7,2078],[51.7,2161],[51.7,2249],[51.7,2328],[51.7,2411],[51.7,2495],[51.7,2578],[51.7,2661],[51.7,2745],[51.7,2828],[51.7,2913],[51.7,3000],[51.7,3078],[51.7,3161],[51.7,3244],[51.7,3328],[51.7,3413],[51.7,3496],[51.7,3578],[51.7,3663],[51.7,3744],[51.7,3832],[51.7,3911],[51.7,3998],[51.7,4078],[51.7,4161],[51.7,4244],[51.7,4328],[51.7,4415],[51.7,4494],[51.7,4578],[51.7,4661],[51.7,4744],[51.3,4830],[51.1,4911],[51.1,4994],[51.1,5078],[51.1,5161],[51.1,5244],[51.1,5327],[51.1,5416],[50.5,5500],[40.1,5583],[25.1,6163],[28.9,6250],[29.2,6329],[29.1,6411],[28.1,6500],[27.6,6583],[27.6,6661],[27.6,6746],[27.6,6827],[27.6,6911],[27.6,6994],[27.6,7077],[27.6,7165],[27.6,7244],[27.6,7327],[27.6,7411],[27.6,7500],[27.6,7577],[27.6,7660],[27.3,7749],[27.3,7827],[27.3,7910],[27.3,7994],[27.4,8083],[27.7,8160],[27.7,8244],[27.7,8331],[27.7,8410],[27.7,8494],[27.7,8577],[27.7,8660],[27.7,8744]]",899.0375,901.766,0.9375,2.06,"[{""rating"":0.9375000000000022,""responseTime"":2.060000000000059}]",space,2.2089,,901.766,Not at all,0,901.7676,,,[],,0,8,8,8,1,audio/Narrative7Situation8.wav,audio/Narrative8Situation8.wav,audio/Narrative5Situation8.wav,audio/Narrative6Situation8.wav,2,3,3,5,,,,,,,,,,,,,,,,,,,,,,,,,,,,,,,,,,,,,,,
,,,,,65f366dfcb46b71238e9418d,2025-07-07_22h32.17.977,group3.4_multiperson,2023.2.2,Win32,120.4819277,686c2ebf0248f13bef9af11f,686c831d1182951d6f975b63,,,,,,,,,,,,,,,,,,,,,,,,,,,,,901.7677,2,audio/Narrative5Situation9.wav,904.7738,,904.7738,944.3012,"[[999,0],[999,83],[999,166],[999,250],[999,333],[999,422],[999,499],[999,583],[999,672],[999,755],[999,839],[999,922],[999,1005],[999,1089],[999,1172],[999,1255],[999,1339],[999,1422],[999,1505],[999,1589],[999,1672],[999,1755],[43,1839],[46.6,1922],[49.6,2005],[50.6,2089],[50.8,2172],[50.8,2255],[50.8,2338],[50.8,2422],[50.8,2505],[50.8,2588],[50.8,2672],[50.8,2755],[50.8,2838],[50.8,2922],[50.8,3005],[50.8,3088],[50.8,3172],[50.8,3255],[50.8,3338],[50.8,3422],[50.8,3505],[50.8,3588],[50.8,3672],[50.8,3755],[50.8,3838],[50.8,3922],[50.8,4005],[50.8,4088],[50.8,4172],[50.8,4255],[50.8,4338],[50.8,4421],[50.8,4505],[50.8,4588],[50.8,4671],[50.8,4755],[50.8,4838],[50.8,4921],[50.8,5005],[50.8,5088],[52.8,5172],[61.5,5255],[64.9,5339],[67,5422],[69.8,5505],[72.4,5588],[74.5,5672],[75,5755],[75.2,5838],[75.3,5921],[75.3,6004],[75.3,6088],[75.3,6171],[75.3,6255],[75.3,6338],[75.3,6421],[75.3,6505],[75.3,6588],[75.3,6671],[75.3,6754],[75.3,6838],[75.3,6921],[75.3,7005],[75.3,7088],[75.3,7171],[75.3,7254],[75.3,7338],[75.3,7421],[75.3,7504],[75.3,7588],[75.3,7671],[75.3,7754],[75.3,7838],[75.3,7921],[75.3,8004],[75.3,8087],[75.3,8171],[75.3,8254],[75.3,8337],[75.3,8421],[75.3,8504],[75.3,8588],[75.3,8671],[75.3,8754],[75.3,8837],[75.3,8921],[75.3,9004],[75.3,9087],[75.3,9171],[75.3,9254],[75.3,9337],[75.3,9421],[75.3,9504],[75.3,9587],[75.3,9671],[75.3,9754],[79,9838],[85.6,9921],[91,10004],[92.9,10087],[94.6,10171],[96.9,10254],[97.7,10337],[97.7,10420],[97.7,10504],[97.7,10587],[97.7,10671],[97.7,10754],[97.7,10837],[97.7,10921],[97.7,11004],[97.7,11087],[97.7,11170],[97.7,11254],[97.7,11337],[97.7,11420],[97.7,11504],[97.7,11587],[100,11670],[100,11754],[100,11837],[100,11920],[100,12004],[100,12087],[100,12170],[100,12256],[100,12339],[100,12423],[100,12511],[100,12589],[100,12675],[100,12756],[100,12839],[100,12923],[100,13011],[100,13090],[100,13173],[100,13260],[100,13339],[100,13422],[100,13506],[100,13589],[100,13674],[100,13757],[100,13839],[100,13928],[100,14011],[100,14092],[100,14174],[100,14260],[100,14339],[100,14422],[100,14505],[100,14591],[100,14672],[100,14761],[100,14839],[100,14922],[100,15005],[100,15094],[100,15178],[100,15257],[100,15339],[100,15427],[100,15507],[100,15595],[100,15672],[100,15755],[100,15839],[100,15922],[100,16006],[100,16089],[100,16172],[100,16260],[100,16339],[100,16426],[100,16505]]",944.3012,945.7639,99.58333333,1.2724,"[{""rating"":99.58333333333333,""responseTime"":1.2724000000059732}]",space,0.9342,,945.764,Not at all,0,945.7647,,,[],,0,9,9,9,1,audio/Narrative7Situation9.wav,audio/Narrative8Situation9.wav,audio/Narrative5Situation9.wav,audio/Narrative6Situation9.wav,2,3,3,4,,,,,,,,,,,,,,,,,,,,,,,,,,,,,,,,,,,,,,,
,,,,,65f366dfcb46b71238e9418d,2025-07-07_22h32.17.977,group3.4_multiperson,2023.2.2,Win32,120.4819277,686c2ebf0248f13bef9af11f,686c831d1182951d6f975b63,,,,,,,,,,,,,,,,,,,,,,,,,,,,,945.7648,2,audio/Narrative6Situation1.wav,947.7731,,947.7731,974.3381,"[[98.2,1499],[58.2,1833],[57.1,1916],[56.1,2000],[55.4,2083],[53.5,2166],[52,2249],[51.4,2333],[51.3,2416],[51.1,2499],[51.1,2582],[51.1,2666],[51.1,2749],[51.1,2832],[51.1,2916],[51.1,2999],[51.1,3082],[50.9,3166],[50.9,3249],[50.9,3332],[50.9,3416],[50.9,3499],[50.9,3582],[50.9,3666],[50.9,3749],[50.9,3832],[50.9,3916],[50.9,3999],[50.9,4082],[50.9,4166],[51,4249],[51,4332],[51,4416],[51,4499],[51,4582],[51,4665],[51,4749],[51,4832],[51,4915],[51,4999],[51,5082],[51,5165],[51,5249],[51,5332],[51,5415],[51,5499],[51,5582],[51,5665],[51,5749],[51,5832],[51,5915],[51.4,5999],[51.7,6082],[51.7,6165],[51.9,6249],[52.1,6332],[52.1,6415],[52.1,6498],[52.1,6582],[52.5,6666],[53.4,6749],[55.5,6832],[61.8,6916],[66.9,6999],[69.3,7082],[74.7,7165],[76.8,7249],[77.4,7332],[77.5,7415],[77.5,7498],[77.5,7582],[77.5,7665],[71.5,7749],[55.8,7832],[53.8,7915],[51.9,7999],[50.2,8082],[48.9,8165],[48.3,8249],[48.3,8332],[48.3,8415],[48.4,8498],[48.8,8582],[49.1,8665],[49.2,8748],[49.7,8832],[49.9,8915],[49.9,8998],[49.9,9081],[49.9,9165],[49.9,9248],[49.9,9331],[49.9,9415],[49.9,9498],[49.9,9581],[49.9,9665],[49.9,9748],[49.9,9831],[49.9,9915],[49.9,9998],[49.9,10081],[62.1,10165],[68.9,10248],[71.3,10331],[73.4,10415],[74.8,10498],[75.7,10581],[76.6,10665],[76.7,10748],[76.7,10831],[76.7,10914],[76.7,10998],[76.7,11081],[76.7,11165],[76.7,11248],[76.7,11331],[76.7,11414],[76.7,11498],[76.7,11581],[76.7,11665],[76.7,11748],[76.7,11831],[76.7,11914],[76.7,11998],[76.7,12081],[76.7,12164],[76.7,12248],[76.7,12331],[76.7,12414],[76.7,12497],[76.4,12581],[66.8,12665],[62.5,12748],[59.3,12831],[56.4,12915],[54.1,12998],[51.8,13081],[50.1,13164],[49.6,13247],[49.6,13331],[49.6,13414],[49.6,13497],[49.6,13581],[49.6,13664],[49.6,13747],[49.6,13831],[49.6,13914],[49.6,13997],[49.6,14081],[49.6,14164],[49.6,14247],[49.6,14331],[49.6,14414],[49.6,14497],[49.6,14581],[49.6,14664],[49.6,14747],[49.6,14831],[49.6,14914],[49.6,14997],[49.6,15081],[49.6,15164],[49.6,15247],[49.6,15330],[49.6,15414],[49.6,15497],[49.6,15580],[49.6,15664],[49.6,15747],[49.6,15830],[49.6,15914],[49.6,15997],[49.6,16080],[49.6,16164],[49.6,16247],[49.6,16330],[49.6,16414],[49.6,16497],[49.6,16580],[49.6,16664],[49.6,16747],[49.6,16830],[49.6,16913],[49.6,16997],[49.6,17080],[49.6,17163],[49.6,17247],[49.6,17331],[49.6,17413],[49.6,17497],[49.6,17580],[49.6,17663],[49.6,17747],[49.6,17830],[49.6,17913],[49.6,17997],[49.6,18080],[49.6,18163],[49.6,18247],[49.6,18330],[49.6,18413],[49.6,18497],[49.6,18580],[49.6,18663],[49.6,18747],[49.6,18830],[49.6,18913],[49.6,18997],[49.6,19080],[49.6,19163],[49.6,19247],[49.6,19330],[49.6,19413],[49.6,19496],[49.6,19580],[49.6,19663],[49.6,19746],[49.6,19830],[49.6,19913],[49.6,19996],[49.6,20080],[49.6,20167],[49.6,20249],[49.6,20336],[49.6,20416],[49.6,20500],[49.6,20583],[49.6,20665],[49.6,20749],[49.6,20832],[49.6,20917],[49.6,21004],[49.6,21082],[49.6,21165],[49.6,21249],[49.6,21332],[49.6,21415],[49.6,21500],[49.6,21582],[49.6,21665],[49.6,21749],[49.6,21832],[49.6,21915],[49.6,21998],[49.6,22082],[49.6,22165],[49.6,22253],[49.6,22334],[49.6,22415],[49.6,22498],[49.6,22582],[49.6,22665],[49.6,22749],[49.6,22832],[49.6,22916],[49.6,22998],[49.8,23084],[51.3,23171],[53.3,23248],[54.8,23337],[56,23420],[58.1,23499],[60.7,23587],[64.2,23670],[66.1,23748],[68.1,23831],[70.4,23920],[72.5,24000],[74.4,24087],[75.9,24166],[76.7,24256],[76.7,24340],[76.7,24423],[76.7,24506],[76.7,24590],[76.7,24673],[76.7,24756],[76.7,24840],[76.7,24923],[76.7,25006],[76.7,25090],[76.7,25173],[76.7,25256],[76.7,25340],[76.7,25423],[76.7,25506],[76.7,25590],[76.7,25673],[76.7,25756],[76.7,25840],[76.7,25923],[76.7,26006],[76.7,26089],[76.7,26173],[76.7,26258],[76.7,26339],[76.7,26423],[76.7,26508]]",974.3383,1019.6275,100,2.9598,"[{""rating"":98.64583333333333,""responseTime"":2.1299999999999955},{""rating"":100,""responseTime"":2.959799999982124}]",space,44.7607,,1019.6276,Not at all,0,1019.6284,,,[],,0,10,10,10,1,audio/Narrative8Situation1.wav,audio/Narrative7Situation1.wav,audio/Narrative6Situation1.wav,audio/Narrative5Situation1.wav,5,2,2,5,,,,,,,,,,,,,,,,,,,,,,,,,,,,,,,,,,,,,,,
,,,,,65f366dfcb46b71238e9418d,2025-07-07_22h32.17.977,group3.4_multiperson,2023.2.2,Win32,120.4819277,686c2ebf0248f13bef9af11f,686c831d1182951d6f975b63,,,,,,,,,,,,,,,,,,,,,,,,,,,,,1019.6285,2,audio/Narrative6Situation2.wav,1022.6305,,1022.6305,1051.1265,"[[999,0],[999,83],[999,166],[999,249],[999,337],[999,416],[999,499],[999,583],[999,672],[999,756],[999,839],[999,922],[999,1005],[999,1089],[999,1177],[999,1264],[999,1347],[52.2,1429],[51.5,1514],[51.3,1594],[51.3,1674],[51.3,1760],[50.8,1843],[50.4,1927],[50,2012],[49.9,2091],[49.9,2174],[49.9,2263],[49.9,2346],[49.9,2424],[49.9,2508],[49.9,2591],[49.9,2674],[49.9,2758],[51.8,2841],[57.1,2927],[60.8,3011],[64.1,3093],[66,3179],[67.1,3259],[71.7,3343],[74.9,3428],[75.5,3512],[75.6,3591],[75.6,3674],[75.5,3757],[75.3,3841],[75.9,3930],[76.8,4013],[77.1,4096],[77.1,4174],[77,4257],[77,4340],[77,4424],[77,4507],[77,4591],[77,4674],[77,4757],[77,4840],[77,4924],[76.4,5007],[76.4,5091],[76.4,5173],[76.4,5262],[76.4,5340],[76.4,5424],[76.4,5507],[76.4,5590],[76.4,5674],[76.4,5757],[76.4,5840],[76.4,5926],[76.4,6011],[76.4,6090],[76.4,6180],[76.4,6257],[76.4,6340],[87.4,6425],[93.1,6508],[98.4,6595],[100,6679],[100,6762],[100,6840],[100,6923],[100,7009],[100,7090],[100,7173],[100,7257],[100,7346],[100,7424],[100,7507],[100,7590],[100,7675],[100,7757],[100,7840],[100,7923],[100,8012],[100,8090],[100,8173],[100,8256],[100,8340],[100,8423],[100,8506],[100,8595],[100,8673],[100,8756],[100,8840],[100,8923],[100,9006],[100,9090],[100,9173],[100,9258],[100,9346],[100,9423],[100,9506],[100,9590],[100,9673],[100,9758],[100,9840],[100,9923],[100,10006],[100,10090],[100,10173],[100,10256],[100,10340],[100,10423],[100,10506],[100,10595],[100,10673],[100,10756],[100,10841],[100,10923],[100,11010],[100,11089],[100,11173],[100,11256],[100,11342],[100,11423],[100,11507],[100,11589],[100,11673],[100,11756],[100,11845],[100,11923],[100,12010],[100,12089],[100,12173],[100,12260],[100,12345],[100,12422],[100,12510],[100,12595],[100,12674],[100,12756],[100,12844],[100,12928],[100,13006],[100,13095],[100,13172],[100,13260],[100,13339],[100,13422],[100,13506],[100,13589],[100,13672],[100,13756],[100,13839],[100,13922],[100,14006],[100,14091],[100,14172],[100,14256],[100,14339],[100,14422],[100,14507],[100,14589],[100,14672],[100,14756],[100,14839],[100,14922],[100,15006],[100,15089],[100,15172],[100,15256],[100,15339],[100,15424],[100,15505],[100,15589],[100,15672],[100,15758],[100,15839],[100,15926],[100,16005],[100,16089],[100,16177],[100,16255],[100,16339],[100,16422],[100,16509],[100,16589],[100,16672],[100,16755],[100,16839],[100,16922],[100,17009],[100,17088],[100,17172],[100,17257],[100,17338],[100,17426],[100,17505],[100,17590],[100,17672],[100,17755],[100,17838],[100,17923],[100,18006],[100,18092],[100,18172],[100,18255],[100,18338],[100,18422],[100,18509],[100,18588],[100,18676],[100,18755],[100,18838],[89.2,20172],[94.2,20257],[96.3,20344],[98.5,20421],[100,20510],[100,20591],[100,20671],[100,20755],[100,20838],[100,20921],[100,21010],[100,21088],[100,21171],[100,21255],[100,21338],[100,21421],[100,21504],[100,21588],[100,21671],[100,21754],[100,21840],[100,21921],[100,22004]]",1051.1266,1056.8065,99.16666667,2.4801,"[{""rating"":99.16666666666667,""responseTime"":2.4801000000238673}]",space,5.1584,,1056.8065,Partially,50,1056.8077,,,[],,0,11,11,11,1,audio/Narrative8Situation2.wav,audio/Narrative7Situation2.wav,audio/Narrative6Situation2.wav,audio/Narrative5Situation2.wav,3,3,3,3,,,,,,,,,,,,,,,,,,,,,,,,,,,,,,,,,,,,,,,
,,,,,65f366dfcb46b71238e9418d,2025-07-07_22h32.17.977,group3.4_multiperson,2023.2.2,Win32,120.4819277,686c2ebf0248f13bef9af11f,686c831d1182951d6f975b63,,,,,,,,,,,,,,,,,,,,,,,,,,,,,1056.8078,2,audio/Narrative6Situation3.wav,1061.8138,,1061.8138,1074.4141,"[[51.9,333],[50.6,416],[50.2,499],[50.1,583],[50.1,668],[50.1,752],[50.1,838],[50.1,921],[50.1,1001],[50.1,1085],[50.1,1168],[50.1,1256],[50.1,1335],[50.1,1419],[50.1,1501],[50.1,1585],[50.1,1668],[50.1,1751],[50.1,1835],[50.1,1918],[50.1,2001],[50.1,2086],[50.1,2168],[50.1,2251],[50.1,2335],[50.1,2418],[50.1,2501],[50.1,2585],[50.1,2668],[50.1,2751],[50.1,2835],[50.1,2918],[50.1,3001],[50.1,3085],[50.1,3169],[50.1,3254],[50.1,3334],[50.1,3420],[50.1,3504],[50.1,3585],[50.2,3668],[51.8,3751],[52.3,3835],[52.3,3918],[52.4,4005],[51.9,4086],[50.4,4173],[50.5,4257],[51.1,4334],[51.3,4418],[51.5,4507],[51.6,4584],[52.2,4673],[52.7,4751],[52.8,4834],[52.8,4920],[53,5002],[56,5090],[57.2,5173],[57.7,5256],[57.8,5335],[57.8,5423],[57.8,5501],[57.9,5585],[58,5668],[58,5751],[58,5839],[58,5917],[58,6002],[58,6089],[58,6167],[58,6251],[58,6336],[58,6418],[58,6501],[58,6589],[58,6667],[58,6751],[58,6839],[58,6917],[58,7001],[58,7084],[58,7167],[58,7251],[58,7334],[58.2,7419],[58.4,7503],[67.8,8084],[70.5,8172],[72.8,8256],[82,8336],[100,8423],[100,8506],[100,8589],[100,8672],[100,8750],[100,8834],[100,8923],[100,9000],[100,9084],[100,9172],[100,9250],[100,9334],[100,9417],[100,9500],[100,9584],[100,9669],[100,9752],[100,9834],[100,9917],[100,10000],[100,10084],[100,10167],[100,10250],[100,10334],[100,10417],[100,10500],[100,10585],[100,10667],[100,10750],[100,10833],[100,10919],[100,11000],[100,11083],[100,11167],[100,11250],[100,11338],[100,11417],[100,11500],[100,11583],[100,11667],[100,11750],[100,11833],[100,11921],[100,12004],[100,12083],[100,12171],[100,12250],[100,12339],[100,12417],[100,12500],[100,12583]]",1074.4143,1078.4968,77.08333333,3.668,"[{""rating"":77.08333333333333,""responseTime"":3.66800000000012}]",space,3.5578,,1078.4968,Not at all,0,1078.498,,,[],,0,12,12,12,1,audio/Narrative8Situation3.wav,audio/Narrative7Situation3.wav,audio/Narrative6Situation3.wav,audio/Narrative5Situation3.wav,4,8,5,3,,,,,,,,,,,,,,,,,,,,,,,,,,,,,,,,,,,,,,,
,,,,,65f366dfcb46b71238e9418d,2025-07-07_22h32.17.977,group3.4_multiperson,2023.2.2,Win32,120.4819277,686c2ebf0248f13bef9af11f,686c831d1182951d6f975b63,,,,,,,,,,,,,,,,,,,,,,,,,,,,,1078.4981,2,audio/Narrative6Situation4.wav,1080.5049,,1080.505,1093.113,"[[91.8,6501],[97.3,6586],[98.5,6667],[100,6752],[100,6831],[100,6915],[100,6998],[100,7086],[100,7165],[100,7248],[100,7331],[100,7417],[100,7498],[100,7581],[100,7665],[100,7748],[100,7837],[100,7915],[100,7998],[100,8081],[100,8165],[100,8248],[100,8331],[100,8415],[100,8502],[100,8581],[100,8669],[100,8748],[100,8831],[100,8914],[100,9002],[100,9081],[100,9164],[100,9248],[100,9331],[100,9421],[100,9502],[100,9581],[100,9670],[100,9748],[100,9834],[100,9919],[100,9998],[100,10081],[100,10164],[100,10248],[100,10331],[100,10414],[100,10498],[100,10583],[100,10667],[100,10748],[100,10831],[100,10920],[100,10998],[100,11081],[100,11164],[100,11249],[100,11331],[100,11414],[100,11497],[100,11581],[100,11665],[100,11747],[100,11831],[100,11920],[100,12002],[100,12081],[100,12164],[100,12247],[100,12331],[100,12419],[100,12503],[100,12581]]",1093.1131,1110.0139,99.16666667,15.3594,"[{""rating"":99.16666666666667,""responseTime"":15.359400000005962}]",space,16.3817,,1110.0139,Definitely yes,100,1110.0152,,,[],,0,13,13,13,1,audio/Narrative8Situation4.wav,audio/Narrative7Situation4.wav,audio/Narrative6Situation4.wav,audio/Narrative5Situation4.wav,3,3,2,1,,,,,,,,,,,,,,,,,,,,,,,,,,,,,,,,,,,,,,,
,,,,,65f366dfcb46b71238e9418d,2025-07-07_22h32.17.977,group3.4_multiperson,2023.2.2,Win32,120.4819277,686c2ebf0248f13bef9af11f,686c831d1182951d6f975b63,,,,,,,,,,,,,,,,,,,,,,,,,,,,,1110.0153,2,audio/Narrative6Situation5.wav,1112.0165,,1112.0165,1119.9793,"[[999,0],[999,83],[999,166],[999,249],[999,333],[999,416],[999,500],[999,585],[999,666],[999,749],[999,833],[999,916],[999,999],[999,1088],[999,1166],[999,1251],[999,1334],[999,1416],[999,1501],[999,1583],[999,1671],[999,1749],[999,1834],[999,1916],[999,1999],[999,2082],[999,2167],[999,2249],[999,2332],[999,2416],[999,2499],[999,2582],[999,2666],[999,2751],[999,2832],[999,2916],[999,2999],[999,3082],[999,3166],[999,3249],[999,3338],[999,3421],[999,3499],[999,3584],[999,3666],[999,3750],[999,3837],[999,3915],[999,3999],[999,4082],[999,4171],[999,4254],[999,4337],[999,4421],[98.3,4503],[100,4588],[100,4666],[100,4750],[100,4837],[100,4921],[100,4999],[100,5082],[100,5165],[100,5249],[100,5332],[100,5417],[100,5499],[100,5588]]",1119.9793,1124.3351,99.16666667,3.649,"[{""rating"":99.16666666666667,""responseTime"":3.6489999999998872}]",space,3.8333,,1124.3351,Partially,50,1124.3362,,,[],,0,14,14,14,1,audio/Narrative8Situation5.wav,audio/Narrative7Situation5.wav,audio/Narrative6Situation5.wav,audio/Narrative5Situation5.wav,2,5,2,5,,,,,,,,,,,,,,,,,,,,,,,,,,,,,,,,,,,,,,,
,,,,,65f366dfcb46b71238e9418d,2025-07-07_22h32.17.977,group3.4_multiperson,2023.2.2,Win32,120.4819277,686c2ebf0248f13bef9af11f,686c831d1182951d6f975b63,,,,,,,,,,,,,,,,,,,,,,,,,,,,,1124.3364,2,audio/Narrative6Situation6.wav,1126.3393,,1126.3393,1137.4062,"[[97.7,1505],[97.5,1584],[97.5,1666],[97.1,1754],[96.4,1838],[94.6,1922],[93.2,2005],[90.5,2088],[89.7,2171],[89.7,2249],[92.7,2333],[96.8,2421],[97.4,2500],[97.4,2583],[99.2,2671],[100,2754],[100,2832],[100,2916],[100,2999],[100,3087],[100,3168],[100,3250],[100,3333],[100,3420],[100,3504],[100,3583],[100,3666],[100,3749],[100,3832],[100,3916],[100,3999],[100,4082],[100,4166],[100,4251],[100,4334],[100,4415],[100,4499],[100,4582],[100,4665],[100,4755],[100,4832],[100,4919],[100,5000],[100,5082],[100,5165],[100,5249],[100,5332],[100,5421],[100,5499],[100,5582],[100,5665],[100,5749],[100,5834],[100,5915],[100,5999],[100,6082],[100,6169],[100,6248],[100,6332],[100,6419],[100,6500],[100,6584],[100,6665],[100,6748],[100,6832],[100,6915],[100,7000],[100,7082],[100,7165],[100,7248],[100,7332],[100,7417],[100,7498],[100,7582],[100,7667],[100,7748],[100,7832],[100,7915],[100,7998],[100,8082],[100,8165],[100,8252],[100,8332],[100,8415],[100,8498],[100,8581],[100,8665],[100,8748],[100,8831],[100,8915],[100,8998],[100,9081],[100,9165],[100,9248],[100,9332],[100,9415],[100,9498],[100,9582],[100,9665],[100,9748],[100,9831],[100,9917],[100,9998],[100,10083],[100,10165],[100,10248],[100,10333],[100,10415],[100,10498],[100,10583],[100,10670],[100,10753],[100,10831],[100,10919],[100,10998]]",1137.4063,1138.9187,99.0625,1.1621,"[{""rating"":99.0625,""responseTime"":1.1620999999940977}]",space,0.9925,,1138.9187,Partially,50,1138.9195,,,[],,0,15,15,15,1,audio/Narrative8Situation6.wav,audio/Narrative7Situation6.wav,audio/Narrative6Situation6.wav,audio/Narrative5Situation6.wav,2,3,2,3,,,,,,,,,,,,,,,,,,,,,,,,,,,,,,,,,,,,,,,
,,,,,65f366dfcb46b71238e9418d,2025-07-07_22h32.17.977,group3.4_multiperson,2023.2.2,Win32,120.4819277,686c2ebf0248f13bef9af11f,686c831d1182951d6f975b63,,,,,,,,,,,,,,,,,,,,,,,,,,,,,1138.9197,2,audio/Narrative6Situation7.wav,1143.9259,,1143.9259,1168.7597,"[[999,0],[999,83],[999,166],[999,249],[999,333],[65.7,416],[64.1,500],[63.2,583],[59.7,674],[54.9,757],[48.5,835],[47.4,918],[47.3,1002],[45.9,1091],[45.1,1174],[45,1257],[45,1335],[45,1418],[46.4,1507],[47.4,1585],[48.2,1674],[48.4,1751],[48.8,1840],[50,1923],[51,2007],[52.7,2090],[54.6,2169],[57.7,2257],[72.7,2341],[77.5,2424],[78.1,2508],[78.1,2590],[78.1,2673],[78.1,2755],[78.1,2839],[78,2918],[77.8,3007],[76.3,3088],[72.2,3173],[63.8,3257],[61.5,3340],[59.3,3418],[54.5,3507],[52.6,3590],[52.1,3672],[50.7,3757],[50.1,3836],[50,3919],[50,4004],[50,4084],[50,4173],[50,4255],[50,4335],[50,4419],[50,4501],[50,4586],[50,4670],[50,4751],[50,4836],[50,4919],[50,5002],[50,5084],[50,5173],[50,5256],[50,5340],[50,5418],[50,5501],[50,5586],[50,5668],[50,5751],[50,5836],[50,5923],[50,6004],[50,6084],[50,6168],[50,6256],[50,6334],[50,6417],[50,6501],[50,6584],[50,6667],[50,6751],[50,6834],[50,6918],[50,7003],[50,7084],[55,7173],[67.9,7256],[69.8,7340],[70.1,7418],[74.6,7506],[77.8,7586],[80.4,7673],[83.4,7756],[88.5,7839],[89.9,7923],[90.1,8003],[89.9,8084],[89.1,8172],[88.5,8252],[88.5,8334],[88.5,8421],[88.5,8500],[88.5,8584],[88.5,8667],[89.6,8751],[90.5,8838],[91.6,8917],[92,9000],[92,9084],[92,9167],[92,9250],[92,9338],[92,9417],[92,9500],[92,9584],[92,9667],[93,9756],[94.8,9834],[97.2,9922],[98.5,10006],[100,10089],[100,10169],[100,10250],[100,10334],[100,10417],[100,10500],[100,10583],[100,10667],[100,10750],[100,10835],[100,10917],[100,11000],[100,11083],[100,11173],[100,11250],[100,11333],[100,11421],[100,11500],[100,11583],[100,11667],[100,11756],[100,11835],[100,11917],[100,12000],[100,12085],[100,12168],[100,12250],[100,12333],[100,12416],[100,12505],[100,12583],[100,12672],[100,12750],[100,12833],[100,12916],[100,13000],[100,13089],[100,13166],[100,13252],[100,13333],[100,13416],[100,13500],[100,13585],[100,13672],[100,13753],[100,13838],[100,13916],[100,14001],[100,14083],[100,14170],[100,14250],[100,14333],[100,14416],[100,14501],[100,14583],[100,14666],[100,14750],[100,14833],[100,14916],[100,15000],[100,15087],[100,15166],[100,15249],[100,15335],[100,15416],[100,15499],[100,15588],[100,15666],[100,15749],[100,15833],[100,15916],[100,16004],[100,16085],[100,16166],[100,16249],[100,16333],[100,16418],[100,16499],[100,16583],[100,16666],[100,16749],[100,16832],[100,16916],[100,17002],[100,17082],[100,17166],[100,17249],[100,17332],[100,17418],[100,17499],[100,17582],[100,17666],[100,17749],[100,17835],[100,17916],[100,18001],[100,18082],[100,18166],[100,18249],[100,18332],[100,18416],[100,18499],[100,18582],[100,18671],[100,18754],[100,18832],[100,18916],[100,18999],[100,19082],[100,19165],[100,19249],[100,19332],[100,19415],[100,19499],[100,19583],[100,19667],[100,19749],[100,19832],[100,19916],[100,19999],[100,20082],[100,20165],[100,20251],[100,20332],[100,20415],[100,20499],[100,20582],[100,20665],[100,20749],[100,20833],[100,20917],[100,20999],[100,21082],[100,21167],[100,21248],[100,21333],[100,21415],[100,21504],[100,21582],[100,21665],[100,21748],[100,21832],[100,21915],[100,22000],[100,22082],[100,22167],[100,22248],[100,22332],[100,22415],[100,22498],[100,22582],[100,22665],[100,22748],[100,22832],[100,22915],[100,22998],[100,23081],[100,23165],[100,23250],[100,23331],[100,23415],[100,23498],[100,23582],[100,23665],[100,23748],[100,23831],[100,23915],[100,23998],[100,24082],[100,24165],[100,24248],[100,24331],[100,24415],[100,24498],[100,24581],[100,24665],[100,24748],[100,24833]]",1168.7598,1174.6543,76.25,4.9345,"[{""rating"":79.89583333333333,""responseTime"":4.001699999988205},{""rating"":76.25,""responseTime"":4.934500000000071}]",space,5.3739,,1174.6544,Definitely yes,100,1174.6556,,,[],,0,16,16,16,1,audio/Narrative8Situation7.wav,audio/Narrative7Situation7.wav,audio/Narrative6Situation7.wav,audio/Narrative5Situation7.wav,3,5,5,4,,,,,,,,,,,,,,,,,,,,,,,,,,,,,,,,,,,,,,,
,,,,,65f366dfcb46b71238e9418d,2025-07-07_22h32.17.977,group3.4_multiperson,2023.2.2,Win32,120.4819277,686c2ebf0248f13bef9af11f,686c831d1182951d6f975b63,,,,,,,,,,,,,,,,,,,,,,,,,,,,,1174.6557,2,audio/Narrative6Situation8.wav,1179.656,,1179.6561,1186.4967,"[[75.5,1505],[75.4,1588],[76,1670],[76.3,1749],[76.3,1832],[76.4,1920],[76.4,1999],[76.4,2082],[75.3,2172],[72,2255],[67.5,2338],[61.9,2422],[54.7,2504],[51,2585],[49.2,2668],[48.4,2749],[48.2,2832],[48.2,2916],[48.2,2999],[48.2,3082],[48.2,3166],[48.6,3249],[49,3334],[49,3421],[49.1,3503],[49.6,3584],[49.9,3666],[49.8,3754],[49.5,3838],[49.3,3917],[49.3,3999],[48.4,4084],[35.8,4170],[29.7,4254],[28.4,4334],[28.1,4416],[27.4,4504],[27.1,4582],[27.1,4665],[27.1,4749],[27.1,4832],[27.1,4915],[27.1,4999],[27.1,5084],[27.1,5171],[27.1,5249],[27.1,5332],[27.1,5417],[27.1,5504],[27.1,5582],[27.1,5665],[27.1,5749],[27.1,5832],[27.1,5915],[27.1,6004],[27.1,6087],[27.1,6165],[27.1,6249],[27.1,6336],[27.1,6415],[27.1,6498],[27.1,6582],[27.1,6669],[27.1,6748],[27.1,6832]]",1186.4968,1250.9336,0.625,2.5802,"[{""rating"":0.6249999999999978,""responseTime"":2.5801999999880536}]",space,63.9071,,1250.9336,Not at all,0,1250.9349,,,[],,0,17,17,17,1,audio/Narrative8Situation8.wav,audio/Narrative7Situation8.wav,audio/Narrative6Situation8.wav,audio/Narrative5Situation8.wav,3,2,5,3,,,,,,,,,,,,,,,,,,,,,,,,,,,,,,,,,,,,,,,
,,,,,65f366dfcb46b71238e9418d,2025-07-07_22h32.17.977,group3.4_multiperson,2023.2.2,Win32,120.4819277,686c2ebf0248f13bef9af11f,686c831d1182951d6f975b63,,,,,,,,,,,,,,,,,,,,,,,,,,,,,1250.9351,2,audio/Narrative6Situation9.wav,1254.9426,,1254.9427,1264.8821,"[[999,0],[999,83],[999,165],[999,249],[999,332],[999,415],[999,499],[999,582],[999,668],[999,751],[999,840],[999,924],[74.6,1007],[74.6,1090],[74.6,1174],[74.6,1257],[74.6,1341],[74.5,1424],[73.3,1507],[73.8,1590],[77.9,1674],[79,1757],[80.2,1840],[80.8,1923],[80,2007],[77.6,2090],[76.5,2174],[70.4,2257],[55.9,2340],[52,2424],[49.8,2507],[49.1,2590],[49,2674],[49.1,2757],[49.5,2840],[49.7,2923],[49.9,3007],[49.9,3090],[49.9,3173],[49.9,3257],[49.9,3340],[49.9,3423],[49.9,3506],[49.9,3590],[49.9,3673],[49.9,3756],[49.9,3840],[49.9,3923],[49.9,4006],[49.9,4090],[49.9,4173],[49.9,4256],[49.9,4340],[49.9,4423],[49.9,4506],[50.1,4590],[50.1,4673],[48.6,4757],[39.6,4840],[36.1,4923],[33.5,5007],[31,5090],[27,5173],[24.5,5256],[23.8,5340],[22.7,5423],[22.2,5506],[22.2,5589],[22.2,5673],[22.2,5756],[22.2,5839],[22.2,5923],[23,6006],[23.2,6089],[23.2,6173],[23.2,6256],[23.2,6339],[23.2,6423],[23.2,6506],[23.2,6589],[23.2,6673],[23.2,6756],[23.2,6839],[23.2,6923],[23.2,7006],[23.2,7089],[23.2,7173],[23.2,7256],[20.9,7340],[14.4,7423],[11.8,7506],[11.3,7589],[10.8,7672],[6.6,7756],[2.2,7839],[1.6,7923],[1.5,8006],[0.4,8090]]",1264.8822,1266.5987,0.520833333,1.2079,"[{""rating"":0.5208333333333315,""responseTime"":1.2078999999760072}]",space,1.2001,,1266.5987,Partially,50,1266.5999,,,[],,0,18,18,18,1,audio/Narrative8Situation9.wav,audio/Narrative7Situation9.wav,audio/Narrative6Situation9.wav,audio/Narrative5Situation9.wav,3,2,4,3,,,,,,,,,,,,,,,,,,,,,,,,,,,,,,,,,,,,,,,
,,,,,65f366dfcb46b71238e9418d,2025-07-07_22h32.17.977,group3.4_multiperson,2023.2.2,Win32,120.4819277,686c2ebf0248f13bef9af11f,686c831d1182951d6f975b63,,,,,,,,,,,,,,,,,,,,,,,,,,,,,,,,,,,,,,,,,,,,,,,,,,,,,,,,,,,,,,,,,,,,,,1266.6,1326.5977,,,,1326.5979,1743.5685,space,416.6534,,,,,,,,,,,,,,,,,,,,,,,,,,
