consent.started,consent.stopped,consentResponse.keys,consentResponse.rt,consentResponse.duration,participantID,date,expName,psychopyVersion,OS,frameRate,STUDY_ID,SESSION_ID,opening1.started,opening1.stopped,keyEndingOpening1.keys,keyEndingOpening1.rt,keyEndingOpening1.duration,volumeAdjust.started,volumeAdjust.stopped,endingAdjust.keys,endingAdjust.rt,endingAdjust.duration,opening2.started,opening2.stopped,keyEndingOpening.keys,keyEndingOpening.rt,keyEndingOpening.duration,mouse.x,mouse.y,mouse.leftButton,mouse.midButton,mouse.rightButton,mouse.time,instructionLoop.thisRepN,instructionLoop.thisTrialN,instructionLoop.thisN,instructionLoop.thisIndex,instructionLoop.ran,readyForAudio.started,readyForAudio.stopped,fixation.started,run,audio_played,fixation.stopped,endPractice.keys,audioPre.started,audioPre.stopped,continuousResponses_audio,intRating.started,intRating.stopped,intQuestionSlider.response,intQuestionSlider.rt,intQuestionSlider.history,confirmResponse.keys,confirmResponse.rt,confirmResponse.duration,catchQuestion.started,catch_label,catch_value,catchQuestion.stopped,catchQuestionSlider.response,catchQuestionSlider.rt,catchQuestionSlider.history,confirmResponse_2.keys,audioRunLoop.thisRepN,audioRunLoop.thisTrialN,audioRunLoop.thisN,audioRunLoop.thisIndex,audioRunLoop.ran,conditions1_1,conditions2_1,conditions1_2,conditions2_2,dur1_1,dur2_1,dur1_2,dur2_2,endPractice.rt,endPractice.duration,confirmResponse_2.rt,confirmResponse_2.duration,runIntervalBreak.started,runIntervalBreak.stopped,endingBreakKey.keys,endingBreakKey.rt,endingBreakKey.duration,connection.started,connection.stopped,connectionEnding.keys,connectionEnding.rt,connectionEnding.duration,readyForText.started,readyForText.stopped,textPre.started,run_dup,textPre.stopped,continuousResponses_text,textRunLoop.thisRepN,textRunLoop.thisTrialN,textRunLoop.thisN,textRunLoop.thisIndex,textRunLoop.ran,text1_1,text1_2,text2_1,text2_2,runBreakText.started,runBreakText.stopped,endingBreakKey_2.keys,endingBreakKey_2.rt,endingBreakKey_2.duration,ending.started,ending.stopped,endingEnding.keys,endingEnding.rt,endingEnding.duration
0.0003,13.2032,y,12.8889,,660604f1a9c44af2909516f6,2025-07-07_19h00.51.928,group3.4_multiperson,2023.2.2,Win32,144.9275362,686c2ebf0248f13bef9af11f,686c7b8f4b30405d575a19f1,,,,,,,,,,,,,,,,,,,,,,,,,,,,,,,,,,,,,,,,,,,,,,,,,,,,,,,,,,,,,,,,,,,,,,,,,,,,,,,,,,,,,,,,,,,,,,,,,,,,,,,,
,,,,,660604f1a9c44af2909516f6,2025-07-07_19h00.51.928,group3.4_multiperson,2023.2.2,Win32,144.9275362,686c2ebf0248f13bef9af11f,686c7b8f4b30405d575a19f1,13.2033,16.8146,space,3.5803,,,,,,,,,,,,,,,,,,,,,,,,,,,,,,,,,,,,,,,,,,,,,,,,,,,,,,,,,,,,,,,,,,,,,,,,,,,,,,,,,,,,,,,,,,,,,,,,,,,,
,,,,,660604f1a9c44af2909516f6,2025-07-07_19h00.51.928,group3.4_multiperson,2023.2.2,Win32,144.9275362,686c2ebf0248f13bef9af11f,686c7b8f4b30405d575a19f1,,,,,,16.8146,43.3181,space,26.1928,,,,,,,,,,,,,,,,,,,,,,,,,,,,,,,,,,,,,,,,,,,,,,,,,,,,,,,,,,,,,,,,,,,,,,,,,,,,,,,,,,,,,,,,,,,,,,,
,,,,,660604f1a9c44af2909516f6,2025-07-07_19h00.51.928,group3.4_multiperson,2023.2.2,Win32,144.9275362,686c2ebf0248f13bef9af11f,686c7b8f4b30405d575a19f1,,,,,,,,,,,43.3205,49.7147,space,6.3863,,[],[],[],[],[],[],0,0,0,0,1,,,,,,,,,,,,,,,,,,,,,,,,,,,,,,,,,,,,,,,,,,,,,,,,,,,,,,,,,,,,,,,,,,,,,,,,,,,,,,
,,,,,660604f1a9c44af2909516f6,2025-07-07_19h00.51.928,group3.4_multiperson,2023.2.2,Win32,144.9275362,686c2ebf0248f13bef9af11f,686c7b8f4b30405d575a19f1,,,,,,,,,,,49.715,70.4071,space,20.6368,,[],[],[],[],[],[],1,0,1,0,1,,,,,,,,,,,,,,,,,,,,,,,,,,,,,,,,,,,,,,,,,,,,,,,,,,,,,,,,,,,,,,,,,,,,,,,,,,,,,,
,,,,,660604f1a9c44af2909516f6,2025-07-07_19h00.51.928,group3.4_multiperson,2023.2.2,Win32,144.9275362,686c2ebf0248f13bef9af11f,686c7b8f4b30405d575a19f1,,,,,,,,,,,70.4074,96.2906,space,25.8573,,[],[],[],[],[],[],2,0,2,0,1,,,,,,,,,,,,,,,,,,,,,,,,,,,,,,,,,,,,,,,,,,,,,,,,,,,,,,,,,,,,,,,,,,,,,,,,,,,,,,
,,,,,660604f1a9c44af2909516f6,2025-07-07_19h00.51.928,group3.4_multiperson,2023.2.2,Win32,144.9275362,686c2ebf0248f13bef9af11f,686c7b8f4b30405d575a19f1,,,,,,,,,,,96.2908,111.7365,space,15.4325,,[],[],[],[],[],[],3,0,3,0,1,,,,,,,,,,,,,,,,,,,,,,,,,,,,,,,,,,,,,,,,,,,,,,,,,,,,,,,,,,,,,,,,,,,,,,,,,,,,,,
,,,,,660604f1a9c44af2909516f6,2025-07-07_19h00.51.928,group3.4_multiperson,2023.2.2,Win32,144.9275362,686c2ebf0248f13bef9af11f,686c7b8f4b30405d575a19f1,,,,,,,,,,,111.7368,129.7529,space,18.0023,,[],[],[],[],[],[],4,0,4,0,1,,,,,,,,,,,,,,,,,,,,,,,,,,,,,,,,,,,,,,,,,,,,,,,,,,,,,,,,,,,,,,,,,,,,,,,,,,,,,,
,,,,,660604f1a9c44af2909516f6,2025-07-07_19h00.51.928,group3.4_multiperson,2023.2.2,Win32,144.9275362,686c2ebf0248f13bef9af11f,686c7b8f4b30405d575a19f1,,,,,,,,,,,129.7532,151.8948,space,22.1287,,[],[],[],[],[],[],5,0,5,0,1,,,,,,,,,,,,,,,,,,,,,,,,,,,,,,,,,,,,,,,,,,,,,,,,,,,,,,,,,,,,,,,,,,,,,,,,,,,,,,
,,,,,660604f1a9c44af2909516f6,2025-07-07_19h00.51.928,group3.4_multiperson,2023.2.2,Win32,144.9275362,686c2ebf0248f13bef9af11f,686c7b8f4b30405d575a19f1,,,,,,,,,,,,,,,,,,,,,,,,,,,151.8963,154.4732,154.4879,1,audio/Narrative13Situation2.wav,156.4925,,156.4927,186.2255,"[[999,0],[999,117],[999,201],[999,284],[999,367],[999,451],[999,534],[999,617],[999,701],[999,784],[999,867],[999,951],[999,1034],[999,1117],[999,1201],[999,1284],[999,1367],[999,1451],[999,1534],[999,1617],[999,1701],[999,1785],[999,1869],[999,1951],[999,2034],[999,2117],[999,2201],[999,2284],[999,2367],[999,2451],[999,2534],[999,2618],[999,2701],[999,2784],[999,2874],[999,2965],[999,3048],[999,3132],[999,3215],[999,3299],[999,3381],[999,3465],[999,3548],[999,3632],[999,3715],[999,3798],[999,3882],[999,3965],[999,4048],[999,4132],[999,4215],[999,4298],[999,4382],[999,4465],[999,4548],[999,4632],[999,4715],[999,4798],[999,4883],[999,4965],[999,5048],[999,5133],[999,5215],[999,5298],[999,5382],[999,5465],[999,5549],[999,5632],[999,5715],[999,5799],[999,5883],[999,5965],[999,6049],[999,6132],[999,6215],[999,6299],[999,6382],[999,6465],[999,6549],[999,6632],[999,6716],[999,6799],[999,6882],[999,6965],[999,7056],[999,7139],[999,7222],[999,7306],[999,7389],[999,7472],[999,7556],[999,7639],[999,7723],[999,7806],[999,7889],[999,7972],[999,8056],[999,8140],[999,8223],[999,8306],[999,8389],[999,8473],[999,8557],[999,8639],[999,8723],[999,8806],[999,8889],[999,8972],[999,9059],[999,9146],[999,9230],[999,9313],[999,9397],[999,9480],[999,9563],[999,9646],[999,9730],[999,9813],[999,9896],[999,9980],[999,10063],[999,10146],[999,10230],[999,10315],[999,10396],[999,10480],[999,10563],[999,10646],[999,10732],[999,10814],[40.2,10899],[44.6,10982],[49.9,11065],[51.1,11146],[52,11241],[54.4,11331],[55.9,11410],[57,11494],[57.1,11577],[57.2,11660],[57.2,11745],[57.2,11828],[57.6,11912],[59.1,11994],[60.1,12077],[60.5,12160],[61.6,12244],[61.7,12327],[61.7,12411],[61.8,12494],[61.8,12577],[61.8,12661],[61.8,12744],[61.8,12827],[61.9,12911],[61.9,12994],[61.9,13077],[61.9,13161],[61.9,13244],[61.9,13331],[61.9,13411],[61.9,13494],[61.9,13577],[61.9,13661],[61.9,13744],[61.9,13827],[61.9,13911],[61.9,13994],[61.9,14078],[61.9,14161],[61.9,14244],[61.9,14328],[61.9,14411],[61.9,14495],[61.9,14578],[61.9,14661],[61.9,14745],[61.9,14828],[61.9,14911],[61.9,14996],[61.9,15077],[61.9,15161],[61.9,15251],[61.9,15334],[61.9,15425],[61.9,15508],[61.9,15594],[61.9,15677],[61.9,15760],[61.9,15843],[61.9,15927],[61.9,16010],[61.9,16093],[61.9,16177],[61.9,16260],[61.9,16343],[61.9,16427],[61.9,16510],[61.9,16593],[61.9,16677],[61.9,16760],[61.9,16848],[61.9,16927],[61.9,17010],[61.9,17093],[61.9,17177],[61.9,17260],[61.9,17343],[61.9,17428],[61.9,17515],[61.9,17606],[61.9,17689],[61.9,17772],[61.9,17856],[61.9,17939],[61.9,18022],[61.9,18106],[61.9,18189],[61.9,18273],[61.9,18356],[61.9,18439],[61.9,18522],[61.9,18606],[61.9,18689],[61.9,18772],[61.9,18856],[61.9,18939],[61.9,19026],[61.9,19106],[61.9,19189],[61.9,19273],[61.9,19356],[61.9,19439],[61.9,19524],[61.9,19606],[61.9,19691],[61.9,19780],[61.9,19863],[61.9,19946],[61.9,20030],[61.9,20113],[61.9,20196],[61.9,20280],[61.9,20363],[61.9,20446],[61.9,20530],[61.9,20613],[61.9,20696],[61.9,20780],[61.9,20863],[61.9,20947],[61.9,21030],[61.9,21115],[61.9,21197],[61.9,21280],[61.9,21363],[61.9,21446],[61.9,21530],[61.9,21617],[61.9,21703],[61.9,21787],[61.9,21870],[61.9,21953],[61.9,22037],[61.9,22120],[61.9,22204],[60,22287],[36.5,22956],[45.4,23040],[45.4,23120],[43.3,23206],[36.7,23290],[34.7,23370],[31.9,23455],[27.5,23547],[23.4,23627],[19.1,23718],[17.1,23805],[15.7,23887],[14.6,23970],[14.4,24051],[14.4,24134],[14.4,24218],[14.4,24301],[14.4,24384],[14.4,24468],[14.4,24551],[14.4,24634],[14.4,24718],[14.4,24801],[14.4,24884],[14.4,24968],[14.4,25051],[14.4,25136],[14.4,25218],[14.4,25301],[14.4,25384],[14.4,25468],[14.4,25551],[14.4,25638],[16.4,25732],[18,25815],[20.8,25905],[26.4,25991],[34,26074],[39.8,26157],[44.8,26239],[48.5,26322],[51,26405],[52.1,26489],[55.3,26574],[57.1,26657],[57.1,26739],[56.5,26822],[55.6,26907],[55,26989],[55,27073],[55,27156],[55,27239],[55,27322],[55,27406],[55,27489],[55,27572],[55,27657],[55,27739],[55,27822],[55,27912],[55,27996],[55,28079],[55.4,28163],[56.4,28248],[57.6,28329],[57.7,28413],[57.7,28496],[57.7,28579],[57.7,28663],[57.7,28746],[57.7,28829],[57.7,28913],[57.7,28996],[57.7,29079],[57.7,29163],[57.7,29246],[57.7,29329],[57.7,29413],[57.7,29496],[57.7,29579],[57.7,29663]]",186.2257,194.4509,49.89583333,4.9921,"[{""rating"":49.895833333333336,""responseTime"":4.992100000023839}]",space,7.7079,,194.4511,Partially,50,194.4547,,,[],,0,0,0,0,1,audio/Narrative13Situation2.wav,audio/Narrative13Situation2.wav,audio/Narrative13Situation2.wav,audio/Narrative13Situation2.wav,2,2,2,2,,,,,,,,,,,,,,,,,,,,,,,,,,,,,,,,,,,,,,,
,,,,,660604f1a9c44af2909516f6,2025-07-07_19h00.51.928,group3.4_multiperson,2023.2.2,Win32,144.9275362,686c2ebf0248f13bef9af11f,686c7b8f4b30405d575a19f1,,,,,,,,,,,,,,,,,,,,,,,,,,,,,194.4549,1,audio/Narrative7Situation1.wav,196.3033,space,196.3034,252.179,"[[51.3,2009],[56.8,2092],[57.7,2173],[59.1,2256],[61.8,2342],[64.4,2425],[70.7,2510],[72,2597],[75.7,2682],[79.1,2766],[83.2,2847],[88.3,2930],[93.9,3015],[98.8,3099],[100,3182],[100,3264],[100,3347],[100,3430],[100,3516],[100,3599],[100,3680],[100,3764],[100,3847],[100,3930],[100,4014],[100,4097],[100,4180],[100,4264],[100,4347],[100,4430],[100,4514],[100,4597],[100,4687],[100,4771],[100,4854],[100,4938],[100,5021],[100,5104],[100,5187],[100,5271],[100,5354],[100,5437],[100,5521],[100,5604],[100,5687],[100,5772],[100,5854],[100,5937],[100,6023],[100,6104],[100,6187],[100,6273],[100,6354],[100,6437],[100,6521],[100,6604],[100,6694],[100,6778],[100,6862],[100,6945],[100,7028],[100,7112],[100,7195],[100,7278],[100,7361],[100,7444],[100,7528],[100,7612],[100,7695],[100,7778],[100,7861],[100,7945],[100,8028],[100,8111],[100,8195],[100,8279],[100,8361],[100,8445],[100,8528],[100,8612],[100,8695],[100,8782],[100,8868],[100,8952],[100,9035],[100,9118],[100,9202],[100,9285],[100,9368],[100,9452],[100,9535],[100,9618],[100,9702],[100,9785],[100,9868],[100,9952],[100,10035],[100,10119],[100,10202],[100,10285],[100,10369],[100,10452],[100,10535],[100,10619],[100,10702],[100,10785],[100,10868],[100,10952],[100,11046],[100,11126],[100,11209],[100,11292],[100,11376],[100,11459],[100,11542],[100,11626],[100,11709],[100,11792],[100,11876],[100,11959],[100,12042],[100,12126],[100,12209],[100,12293],[100,12376],[100,12459],[100,12543],[100,12626],[100,12709],[100,12793],[100,12876],[100,12959],[100,13043],[100,13126],[100,13209],[100,13293],[100,13376],[100,13459],[100,13543],[100,13626],[100,13709],[100,13793],[100,13876],[100,13959],[100,14044],[100,14126],[100,14209],[100,14293],[100,14376],[100,14459],[100,14543],[100,14626],[100,14709],[100,14793],[100,14876],[100,14959],[100,15043],[100,15137],[100,15216],[100,15300],[100,15383],[100,15466],[100,15550],[100,15633],[100,15716],[100,15800],[100,15883],[100,15966],[100,16050],[100,16133],[100,16217],[100,16300],[100,16383],[100,16467],[100,16550],[100,16633],[100,16717],[100,16800],[100,16883],[100,16967],[100,17060],[100,17140],[100,17238],[100,17321],[100,17404],[99,17490],[91.6,17571],[88.6,17654],[88.1,17738],[87.8,17821],[87.7,17904],[82.3,17988],[67,18071],[48.1,18157],[35.7,18240],[25.2,18323],[16.4,18406],[10.2,18488],[7.4,18573],[3.1,18654],[0.9,18738],[0.6,18821],[1.6,18904],[8.3,18990],[21.6,19071],[24.5,19154],[26.3,19249],[26.5,19328],[26.6,19414],[26.6,19502],[26.6,19585],[26.6,19668],[26.6,19752],[26.6,19835],[26.6,19918],[26.9,20004],[31.3,20087],[36.8,20168],[44,20252],[47,20337],[48.6,20420],[50.1,20502],[50.8,20585],[51.5,20668],[52.9,20752],[54.8,20835],[58.3,20921],[66.3,21004],[77.2,21088],[90.3,21171],[97.6,21252],[100,21335],[100,21419],[100,21502],[100,21585],[100,21669],[99.3,21752],[86.7,21835],[70.8,21919],[66.9,22002],[66.1,22086],[56.5,22169],[49.6,22252],[47.2,22336],[46.7,22419],[48.3,22502],[49.6,22586],[49.7,22669],[49.7,22752],[49.7,22837],[49.7,22919],[49.7,23002],[49.7,23086],[49.7,23169],[49.7,23252],[49.7,23339],[49.7,23426],[49.7,23512],[49.7,23600],[49.7,23683],[49.7,23766],[49.7,23850],[49.7,23933],[49.7,24016],[49.7,24100],[49.7,24183],[49.7,24266],[49.7,24350],[49.7,24433],[49.7,24516],[49.7,24600],[49.7,24683],[49.7,24766],[49.7,24850],[49.7,24933],[49.7,25016],[49.7,25100],[49.7,25183],[49.7,25266],[49.7,25350],[49.7,25433],[49.7,25518],[49.7,25600],[49.7,25690],[49.7,25773],[49.7,25857],[49.7,25940],[49.7,26023],[49.7,26107],[49.7,26190],[49.7,26274],[49.7,26357],[49.7,26440],[49.7,26524],[49.7,26607],[49.7,26690],[49.7,26774],[49.7,26857],[49.7,26940],[49.7,27024],[49.7,27107],[49.7,27190],[49.7,27274],[49.7,27357],[49.7,27440],[49.7,27524],[49.7,27607],[49.7,27699],[49.7,27781],[49.7,27864],[49.7,27947],[49.7,28031],[49.7,28114],[49.7,28197],[49.7,28282],[49.7,28365],[49.7,28447],[49.7,28531],[49.7,28614],[49.7,28697],[49.7,28781],[49.7,28864],[49.7,28947],[49.7,29031],[49.7,29114],[49.7,29197],[49.7,29281],[49.7,29364],[49.7,29450],[49.7,29531],[49.7,29621],[49.7,29708],[49.7,29795],[49.7,29878],[49.7,29961],[49.7,30045],[49.7,30128],[49.7,30211],[49.7,30295],[49.7,30378],[49.7,30462],[49.7,30545],[49.7,30628],[49.7,30711],[49.7,30795],[49.7,30879],[49.7,30962],[49.7,31045],[49.7,31129],[49.7,31212],[49.7,31295],[49.7,31379],[49.7,31462],[49.7,31545],[49.7,31628],[49.7,31712],[49.7,31798],[49.7,31881],[49.7,31963],[49.7,32047],[49.7,32130],[49.7,32213],[49.7,32297],[50.1,32380],[52.6,32464],[55.9,32547],[58.9,32631],[63,32714],[66.6,32797],[70.3,32883],[74.9,32964],[79.5,33047],[84.8,33130],[89.9,33214],[96.5,33297],[99.3,33380],[100,33466],[100,33547],[100,33630],[100,33714],[100,33798],[100,33892],[100,33976],[100,34059],[100,34149],[100,34233],[100,34316],[100,34400],[100,34483],[100,34566],[100,34650],[100,34733],[100,34816],[100,34900],[100,34983],[100,35066],[100,35150],[100,35233],[100,35316],[100,35400],[100,35483],[100,35566],[100,35650],[100,35733],[100,35816],[100,35900],[100,35983],[100,36066],[100,36153],[100,36236],[100,36323],[100,36409],[100,36492],[100,36580],[100,36664],[100,36747],[100,36831],[100,36914],[100,36997],[100,37081],[100,37164],[100,37247],[100,37331],[100,37414],[100,37497],[100,37581],[100,37664],[100,37747],[100,37831],[100,37914],[100,37997],[100,38081],[100,38164],[100,38251],[100,38340],[100,38421],[100,38504],[100,38588],[100,38671],[100,38754],[100,38838],[100,38921],[100,39004],[100,39088],[100,39171],[100,39254],[100,39338],[100,39421],[100,39504],[100,39588],[100,39671],[100,39754],[100,39838],[100,39921],[100,40005],[100,40088],[100,40171],[100,40254],[100,40345],[100,40431],[100,40519],[100,40604],[100,40685],[100,40769],[100,40852],[100,40935],[100,41019],[100,41102],[100,41185],[100,41268],[100,41352],[100,41435],[100,41518],[100,41602],[100,41686],[100,41769],[100,41852],[100,41935],[100,42019],[100,42102],[100,42185],[100,42269],[100,42352],[100,42436],[100,42519],[100,42602],[100,42685],[100,42769],[100,42852],[100,42935],[100,43019],[100,43102],[100,43185],[100,43269],[100,43352],[100,43435],[100,43519],[100,43602],[100,43685],[100,43769],[100,43852],[100,43935],[100,44019],[100,44102],[100,44186],[100,44269],[100,44352],[100,44436],[100,44519],[100,44602],[100,44685],[100,44769],[100,44852],[100,44936],[100,45019],[100,45102],[100,45186],[100,45269],[100,45353],[100,45436],[100,45519],[100,45602],[100,45686],[100,45769],[100,45852],[100,45936],[100,46019],[100,46103],[100,46186],[100,46269],[100,46353],[100,46436],[100,46519],[100,46610],[100,46693],[100,46781],[100,46863],[100,46952],[100,47033],[100,47116],[100,47200],[100,47283],[100,47366],[100,47450],[100,47534],[100,47617],[100,47701],[100,47784],[100,47867],[100,47950]]",252.1793,256.8754,75.20833333,3.2454,"[{""rating"":75.20833333333333,""responseTime"":3.2453999999761436}]",space,4.1817,,256.8754,Not at all,0,256.8773,,,[],,0,1,1,1,1,audio/Narrative7Situation1.wav,audio/Narrative8Situation1.wav,audio/Narrative5Situation1.wav,audio/Narrative6Situation1.wav,2,5,5,2,1.8357,,,,,,,,,,,,,,,,,,,,,,,,,,,,,,,,,,,,,,
,,,,,660604f1a9c44af2909516f6,2025-07-07_19h00.51.928,group3.4_multiperson,2023.2.2,Win32,144.9275362,686c2ebf0248f13bef9af11f,686c7b8f4b30405d575a19f1,,,,,,,,,,,,,,,,,,,,,,,,,,,,,256.8775,1,audio/Narrative7Situation2.wav,259.8809,,259.8809,267.3507,"[[999,0],[999,83],[999,166],[999,250],[999,333],[999,416],[999,500],[999,583],[999,666],[999,750],[999,833],[999,916],[999,1000],[999,1083],[999,1168],[999,1250],[999,1333],[999,1416],[999,1500],[999,1583],[999,1666],[999,1750],[999,1833],[999,1923],[999,2007],[999,2090],[999,2173],[999,2257],[999,2340],[999,2423],[999,2507],[999,2590],[999,2673],[999,2757],[999,2840],[999,2923],[999,3007],[999,3090],[91.4,3175],[94.3,3259],[94.4,3340],[96.3,3424],[99.8,3507],[100,3592],[100,3674],[100,3757],[100,3840],[100,3927],[100,4007],[100,4094],[100,4187],[100,4271],[100,4354],[100,4437],[100,4521],[100,4604],[100,4687],[100,4771],[100,4854],[100,4938],[100,5021],[100,5104],[100,5188],[100,5271],[100,5354],[100,5439],[100,5521],[100,5604],[100,5688],[100,5771],[100,5854],[100,5938],[100,6024],[100,6111],[100,6195],[100,6278],[100,6361],[100,6445],[100,6528],[100,6611],[100,6696],[100,6778],[100,6862],[100,6945],[100,7028],[100,7111],[100,7195],[100,7282],[100,7361],[100,7445]]",267.351,271.5492,99.6875,2.922,"[{""rating"":99.6875,""responseTime"":2.9219999999999686}]",space,3.6803,,271.5492,Not at all,0,271.5503,,,[],,0,2,2,2,1,audio/Narrative7Situation2.wav,audio/Narrative8Situation2.wav,audio/Narrative5Situation2.wav,audio/Narrative6Situation2.wav,3,3,3,3,,,,,,,,,,,,,,,,,,,,,,,,,,,,,,,,,,,,,,,
,,,,,660604f1a9c44af2909516f6,2025-07-07_19h00.51.928,group3.4_multiperson,2023.2.2,Win32,144.9275362,686c2ebf0248f13bef9af11f,686c7b8f4b30405d575a19f1,,,,,,,,,,,,,,,,,,,,,,,,,,,,,271.5503,1,audio/Narrative7Situation3.wav,279.5571,,279.5572,288.7905,"[[7.5,3795],[6.3,3875],[5.4,3962],[3.2,4041],[2.1,4125],[2.1,4208],[2.1,4291],[2.1,4375],[2.1,4458],[10.1,4544],[15.1,4628],[15.8,4708],[23.6,4792],[24.4,4875],[24.4,4959],[23.9,5042],[23.6,5127],[23.6,5215],[23.6,5299],[23.6,5382],[23.6,5466],[23.6,5549],[19.8,5632],[17.2,5716],[14.6,5799],[12,5884],[10.1,5966],[8.5,6049],[8.5,6132],[8.4,6215],[8.4,6299],[8.4,6382],[8.6,6466],[10.9,6549],[17.6,6632],[26.9,6718],[32.4,6800],[32.5,6882],[32.5,6965],[32.5,7049],[32.5,7139],[32.5,7222],[32.6,7307],[32.6,7396],[32.6,7479],[32.7,7563],[32.7,7646],[32.7,7730],[32.7,7813],[32.7,7897],[32.7,7980],[32.9,8063],[33.5,8146],[34.4,8232],[37.1,8313],[41.6,8396],[45.1,8480],[47.1,8563],[48.5,8648],[49.6,8730],[50,8813],[50.9,8899],[52.8,8980],[58.2,9063],[59.1,9146],[59.1,9233]]",288.7906,292.524,49.16666667,1.7595,"[{""rating"":49.166666666666664,""responseTime"":1.7595000000000027}]",space,3.2148,,292.5241,Definitely yes,100,292.5262,,,[],,0,3,3,3,1,audio/Narrative7Situation3.wav,audio/Narrative8Situation3.wav,audio/Narrative5Situation3.wav,audio/Narrative6Situation3.wav,8,4,3,5,,,,,,,,,,,,,,,,,,,,,,,,,,,,,,,,,,,,,,,
,,,,,660604f1a9c44af2909516f6,2025-07-07_19h00.51.928,group3.4_multiperson,2023.2.2,Win32,144.9275362,686c2ebf0248f13bef9af11f,686c7b8f4b30405d575a19f1,,,,,,,,,,,,,,,,,,,,,,,,,,,,,292.5263,1,audio/Narrative7Situation4.wav,295.5314,,295.5314,307.2417,"[[999,0],[999,83],[999,166],[999,250],[999,333],[999,416],[999,500],[999,583],[999,667],[999,750],[999,833],[999,916],[999,1000],[999,1083],[999,1166],[999,1253],[999,1334],[999,1416],[999,1500],[999,1583],[999,1673],[999,1757],[999,1840],[999,1925],[999,2007],[999,2090],[999,2173],[999,2257],[999,2340],[999,2423],[999,2507],[999,2590],[999,2673],[999,2757],[999,2840],[999,2923],[999,3007],[999,3090],[999,3173],[999,3257],[999,3340],[999,3423],[999,3507],[999,3591],[999,3674],[66.3,3759],[68.8,3840],[68.8,3923],[68.8,4007],[68.8,4090],[68.8,4174],[68.8,4257],[68.8,4340],[70.3,4424],[72.9,4507],[72.9,4592],[72.9,4674],[72.9,4757],[72.9,4840],[72.9,4924],[72.9,5007],[73.5,5093],[74.7,5176],[79,5259],[83.2,5341],[90.3,5426],[93.5,5507],[95.1,5598],[97.1,5688],[99.3,5773],[100,5854],[100,5938],[100,6023],[100,6104],[100,6188],[99.1,6273],[99.1,6354],[99.1,6438],[99.1,6521],[98.1,6604],[86.8,6688],[49.7,6771],[25.5,6854],[7.3,6938],[0.4,7021]]",307.2419,314.4783,51.14583333,5.956,"[{""rating"":51.145833333333336,""responseTime"":5.956000000000017}]",space,6.7079,,314.4783,Partially,50,314.4804,,,[],,0,4,4,4,1,audio/Narrative7Situation4.wav,audio/Narrative8Situation4.wav,audio/Narrative5Situation4.wav,audio/Narrative6Situation4.wav,3,3,1,2,,,,,,,,,,,,,,,,,,,,,,,,,,,,,,,,,,,,,,,
,,,,,660604f1a9c44af2909516f6,2025-07-07_19h00.51.928,group3.4_multiperson,2023.2.2,Win32,144.9275362,686c2ebf0248f13bef9af11f,686c7b8f4b30405d575a19f1,,,,,,,,,,,,,,,,,,,,,,,,,,,,,314.4805,1,audio/Narrative7Situation5.wav,319.4859,,319.486,327.9592,"[[999,0],[999,83],[999,166],[999,249],[999,333],[999,416],[999,499],[999,583],[999,666],[999,749],[999,840],[999,923],[999,1006],[999,1090],[999,1173],[999,1256],[999,1340],[999,1423],[999,1506],[999,1590],[999,1673],[999,1757],[999,1840],[999,1923],[999,2007],[999,2091],[999,2173],[999,2257],[999,2340],[999,2423],[999,2507],[999,2590],[999,2673],[999,2757],[999,2845],[999,2923],[999,3014],[999,3097],[999,3180],[999,3264],[999,3347],[999,3430],[999,3514],[999,3597],[999,3680],[999,3766],[999,3847],[999,3930],[999,4016],[999,4097],[0.3,7611],[0.3,7695],[0.3,7778],[0.3,7862],[0.3,7945],[0.3,8028],[0.3,8112],[0.3,8195],[0.3,8278],[0.3,8361],[0.3,8445]]",327.9593,330.0983,0.416666667,1.3003,"[{""rating"":0.4166666666666652,""responseTime"":1.300300000071502}]",space,1.6199,,330.0983,Definitely yes,100,330.0998,,,[],,0,5,5,5,1,audio/Narrative7Situation5.wav,audio/Narrative8Situation5.wav,audio/Narrative5Situation5.wav,audio/Narrative6Situation5.wav,5,2,5,2,,,,,,,,,,,,,,,,,,,,,,,,,,,,,,,,,,,,,,,
,,,,,660604f1a9c44af2909516f6,2025-07-07_19h00.51.928,group3.4_multiperson,2023.2.2,Win32,144.9275362,686c2ebf0248f13bef9af11f,686c7b8f4b30405d575a19f1,,,,,,,,,,,,,,,,,,,,,,,,,,,,,330.1,1,audio/Narrative7Situation6.wav,333.1059,,333.106,343.0653,"[[1.5,2416],[13.8,2501],[27.5,2585],[37.8,2668],[48.1,2750],[58.6,2833],[69,2916],[78.1,3000],[84.5,3085],[89.7,3168],[93.9,3252],[97.1,3333],[99.7,3418],[100,3500],[100,3583],[100,3667],[100,3750],[100,3837],[100,3916],[100,4014],[100,4097],[100,4181],[100,4265],[100,4347],[100,4430],[100,4514],[100,4597],[100,4680],[100,4764],[100,4848],[100,4930],[100,5014],[100,5097],[100,5180],[100,5264],[100,5347],[100,5430],[100,5514],[100,5597],[100,5680],[100,5764],[100,5847],[100,5931],[100,6017],[100,6104],[100,6187],[100,6271],[100,6354],[100,6438],[100,6521],[100,6604],[100,6687],[100,6771],[100,6856],[100,6937],[100,7021],[100,7104],[100,7187],[100,7271],[100,7354],[100,7438],[100,7521],[100,7604],[100,7688],[100,7771],[100,7854],[100,7938],[100,8021],[100,8108],[100,8195],[100,8278],[100,8361],[100,8445],[100,8528],[100,8612],[100,8695],[100,8778],[100,8861],[100,8945],[100,9028],[100,9111],[100,9195],[100,9278],[100,9362],[100,9447],[100,9528],[100,9611],[100,9695],[100,9778],[100,9861],[100,9945]]",343.0654,347.6452,98.22916667,3.3674,"[{""rating"":98.22916666666667,""responseTime"":3.3673999999761577}]",space,4.0632,,347.6453,Definitely yes,100,347.6461,,,[],,0,6,6,6,1,audio/Narrative7Situation6.wav,audio/Narrative8Situation6.wav,audio/Narrative5Situation6.wav,audio/Narrative6Situation6.wav,3,2,3,2,,,,,,,,,,,,,,,,,,,,,,,,,,,,,,,,,,,,,,,
,,,,,660604f1a9c44af2909516f6,2025-07-07_19h00.51.928,group3.4_multiperson,2023.2.2,Win32,144.9275362,686c2ebf0248f13bef9af11f,686c7b8f4b30405d575a19f1,,,,,,,,,,,,,,,,,,,,,,,,,,,,,347.6463,1,audio/Narrative7Situation7.wav,352.6499,,352.6499,369.8118,"[[92.4,2266],[89,2349],[100,3016],[99.1,3097],[98.8,3180],[98.9,3264],[100,3354],[100,3440],[100,3531],[100,3613],[100,3695],[100,3778],[100,3861],[100,3944],[100,4028],[100,4111],[100,4194],[100,4278],[100,4361],[100,4444],[100,4528],[100,4611],[100,4695],[100,4778],[100,4861],[100,4944],[100,5028],[100,5111],[100,5198],[100,5278],[100,5364],[100,5458],[100,5545],[100,5632],[100,5716],[100,5799],[100,5882],[100,5967],[100,6049],[100,6132],[100,6216],[100,6299],[100,6382],[100,6466],[100,6549],[100,6632],[100,6717],[100,6799],[100,6882],[100,6966],[100,7050],[100,7132],[100,7218],[100,7299],[100,7382],[100,7466],[100,7551],[100,7632],[100,7723],[100,7806],[100,7889],[100,7973],[100,8056],[100,8139],[100,8223],[100,8306],[100,8389],[100,8473],[100,8556],[100,8639],[100,8723],[100,8808],[100,8890],[100,8973],[100,9056],[100,9139],[100,9223],[100,9306],[100,9390],[100,9473],[100,9556],[100,9650],[100,9730],[100,9813],[100,9897],[100,9981],[100,10063],[100,10147],[100,10230],[100,10313],[100,10397],[100,10480],[100,10563],[100,10647],[100,10730],[100,10813],[100,10897],[100,10980],[100,11063],[100,11147],[100,11232],[100,11313],[100,11397],[100,11480],[100,11563],[100,11647],[100,11730],[100,11820],[100,11904],[100,11988],[100,12070],[100,12154],[100,12237],[100,12321],[100,12404],[100,12487],[100,12571],[100,12654],[100,12737],[100,12821],[100,12904],[100,12987],[100,13071],[100,13154],[100,13237],[100,13321],[100,13405],[100,13488],[100,13571],[100,13654],[100,13737],[100,13821],[100,13904],[100,13987],[100,14071],[100,14154],[100,14237],[100,14321],[100,14411],[100,14494],[100,14578],[100,14661],[100,14744],[100,14833],[100,14918],[100,15001],[100,15085],[100,15168],[100,15252],[100,15335],[100,15418],[100,15502],[100,15585],[100,15668],[100,15752],[100,15835],[100,15920],[100,16002],[100,16085],[100,16168],[100,16252],[100,16335],[100,16418],[100,16502],[100,16585],[100,16669],[100,16757],[100,16835],[100,16918],[100,17009],[100,17092]]",369.8119,372.5761,99.79166667,1.5714,"[{""rating"":99.79166666666667,""responseTime"":1.5713999999761654}]",space,2.2555,,372.5761,Partially,50,372.5776,,,[],,0,7,7,7,1,audio/Narrative7Situation7.wav,audio/Narrative8Situation7.wav,audio/Narrative5Situation7.wav,audio/Narrative6Situation7.wav,5,3,4,5,,,,,,,,,,,,,,,,,,,,,,,,,,,,,,,,,,,,,,,
,,,,,660604f1a9c44af2909516f6,2025-07-07_19h00.51.928,group3.4_multiperson,2023.2.2,Win32,144.9275362,686c2ebf0248f13bef9af11f,686c7b8f4b30405d575a19f1,,,,,,,,,,,,,,,,,,,,,,,,,,,,,372.5777,1,audio/Narrative7Situation8.wav,374.5834,,374.5834,384.5915,"[[99.7,8190],[99.7,8271],[99.7,8355],[99.7,8439],[99.7,8521],[99.7,8605],[99.6,8689],[99.6,8771],[99.6,8855],[99.6,8938],[100,9022],[100,9107],[100,9189],[100,9271],[100,9355],[100,9442],[100,9530],[100,9612],[100,9702],[100,9788],[100,9876],[100,9959]]",384.5916,386.5501,99.58333333,1.1491,"[{""rating"":99.58333333333333,""responseTime"":1.1490999999046494}]",space,1.4379,,386.5501,Partially,50,386.5512,,,[],,0,8,8,8,1,audio/Narrative7Situation8.wav,audio/Narrative8Situation8.wav,audio/Narrative5Situation8.wav,audio/Narrative6Situation8.wav,2,3,3,5,,,,,,,,,,,,,,,,,,,,,,,,,,,,,,,,,,,,,,,
,,,,,660604f1a9c44af2909516f6,2025-07-07_19h00.51.928,group3.4_multiperson,2023.2.2,Win32,144.9275362,686c2ebf0248f13bef9af11f,686c7b8f4b30405d575a19f1,,,,,,,,,,,,,,,,,,,,,,,,,,,,,386.5513,1,audio/Narrative7Situation9.wav,388.5573,,388.5573,397.1695,"[[98.5,1750],[98.5,1833],[98.5,1927],[98.6,2017],[99.6,2104],[100,2189],[100,2271],[100,2354],[100,2437],[100,2521],[100,2604],[100,2687],[100,2771],[100,2854],[100,2937],[100,3021],[100,3104],[100,3187],[100,3271],[100,3354],[100,3437],[100,3521],[100,3604],[100,3688],[100,3772],[100,3854],[100,3938],[100,4028],[100,4111],[100,4194],[100,4278],[100,4361],[100,4444],[100,4528],[100,4611],[100,4695],[100,4778],[100,4861],[100,4945],[100,5028],[100,5111],[100,5195],[100,5278],[100,5362],[100,5445],[100,5528],[100,5612],[100,5695],[100,5778],[100,5861],[100,5945],[100,6028],[100,6111],[100,6195],[100,6278],[100,6362],[100,6445],[100,6528],[100,6611],[100,6695],[100,6778],[100,6862],[100,6945],[100,7028],[100,7111],[100,7195],[100,7278],[100,7361],[100,7445],[100,7528],[100,7612],[100,7695],[100,7778],[100,7862],[100,7945],[100,8035],[100,8119],[100,8202],[100,8285],[100,8369],[100,8452],[100,8536]]",397.1696,400.0033,100,2.0471,"[{""rating"":100,""responseTime"":2.047099999904617}]",space,2.32,,400.0033,Definitely yes,100,406.7277,99.79166667,5.9289,"[{""rating"":99.79166666666667,""responseTime"":5.928899999976181}]",space,0,9,9,9,1,audio/Narrative7Situation9.wav,audio/Narrative8Situation9.wav,audio/Narrative5Situation9.wav,audio/Narrative6Situation9.wav,2,3,3,4,,,6.2061,,,,,,,,,,,,,,,,,,,,,,,,,,,,,,,,,,,,
,,,,,660604f1a9c44af2909516f6,2025-07-07_19h00.51.928,group3.4_multiperson,2023.2.2,Win32,144.9275362,686c2ebf0248f13bef9af11f,686c7b8f4b30405d575a19f1,,,,,,,,,,,,,,,,,,,,,,,,,,,,,406.7286,1,audio/Narrative8Situation1.wav,411.7342,,411.7342,427.6457,"[[99.6,8132],[99.4,8215],[99.4,8299],[99.4,8382],[99.4,8466],[99.4,8549],[99.4,8632],[99.4,8716],[99.4,8800],[99.4,8882],[99.4,8966],[99.4,9049],[99.4,9132],[99.4,9216],[99.4,9302],[99.5,9392],[99.6,9480],[99.6,9570],[99.6,9653],[99.6,9737],[99.6,9820],[100,9903],[100,9986],[100,10070],[100,10153],[100,10237],[100,10321],[100,10404],[100,10487],[100,10570],[100,10653],[100,10737],[100,10820],[100,10903],[100,10987],[100,11070],[100,11153],[100,11237],[100,11320],[100,11406],[100,11501],[100,11587],[100,11674],[100,11758],[100,11841],[100,11925],[100,12008],[100,12091],[100,12174],[100,12258],[100,12341],[100,12425],[100,12508],[100,12591],[100,12675],[100,12758],[100,12841],[100,12924],[100,13008],[100,13092],[100,13175],[100,13258],[100,13341],[100,13425],[100,13508],[100,13592],[100,13677],[100,13772],[100,13855],[100,13938],[100,14025],[100,14113],[100,14197],[100,14287],[100,14370],[100,14453],[100,14536],[100,14619],[100,14702],[100,14787],[100,14869],[100,14952],[100,15036],[100,15120],[100,15203],[100,15286],[100,15369],[100,15453],[100,15536],[100,15619],[100,15703],[100,15786],[100,15869]]",427.6459,429.9932,100,1.2311,"[{""rating"":100,""responseTime"":1.2311000000238437}]",space,1.8311,,429.9933,Partially,50,429.9947,,,[],,0,10,10,10,1,audio/Narrative8Situation1.wav,audio/Narrative7Situation1.wav,audio/Narrative6Situation1.wav,audio/Narrative5Situation1.wav,5,2,2,5,,,,,,,,,,,,,,,,,,,,,,,,,,,,,,,,,,,,,,,
,,,,,660604f1a9c44af2909516f6,2025-07-07_19h00.51.928,group3.4_multiperson,2023.2.2,Win32,144.9275362,686c2ebf0248f13bef9af11f,686c7b8f4b30405d575a19f1,,,,,,,,,,,,,,,,,,,,,,,,,,,,,429.9948,1,audio/Narrative8Situation2.wav,433.0005,,433.0005,443.1061,"[[100,3175],[99.8,3258],[99.4,3340],[99.4,3424],[99.3,3508],[99.3,3590],[99.3,3674],[99.3,3760],[99.3,3847],[99.3,3938],[99.3,4021],[99.3,4104],[99.3,4188],[99.2,4271],[99.2,4354],[99.2,4438],[99.2,4521],[99.2,4605],[99.2,4689],[99.2,4771],[99.2,4854],[99.2,4939],[99.1,5021],[96.3,5104],[94.1,5188],[93.6,5271],[93.3,5354],[92.9,5438],[88.6,5521],[62.7,5605],[36.4,5690],[17.9,5771],[12.1,5865],[10.3,5954],[7.4,6042],[4.9,6129],[3.3,6209],[2.3,6292],[1.8,6375],[1.5,6459],[1.5,6543],[1.5,6626],[1.5,6709],[1.4,6792],[1.4,6876],[0.8,6959],[0.6,7042],[0.6,7125],[0.5,7209],[0.2,7292],[0.2,7375],[0.2,7459],[0.2,7542],[0.2,7626],[0.2,7709],[0.2,7792],[0.2,7875],[0.2,7959],[0.2,8042],[0.2,8126],[0.2,8216],[0.2,8299],[0.2,8383]]",443.1062,447.5651,0,3.0722,"[{""rating"":0,""responseTime"":3.072200000047701}]",space,3.9436,,447.5651,Definitely yes,100,447.5666,,,[],,0,11,11,11,1,audio/Narrative8Situation2.wav,audio/Narrative7Situation2.wav,audio/Narrative6Situation2.wav,audio/Narrative5Situation2.wav,3,3,3,3,,,,,,,,,,,,,,,,,,,,,,,,,,,,,,,,,,,,,,,
,,,,,660604f1a9c44af2909516f6,2025-07-07_19h00.51.928,group3.4_multiperson,2023.2.2,Win32,144.9275362,686c2ebf0248f13bef9af11f,686c7b8f4b30405d575a19f1,,,,,,,,,,,,,,,,,,,,,,,,,,,,,447.5667,1,audio/Narrative8Situation3.wav,451.5734,,451.5735,473.9436,"[[0.3,1964],[0.5,2047],[0.5,2131],[0.5,2215],[0.5,2298],[0.5,2381],[0.5,2464],[0.5,2547],[0.5,2631],[0.5,2715],[0.5,2798],[0.5,2881],[0.5,2964],[0.5,3048],[0.5,3131],[0.5,3214],[0.5,3298],[0.5,3381],[0.5,3464],[0.5,3550],[0.5,3634],[0.5,3721],[13.4,3808],[27.1,3895],[32.8,3980],[42.5,4063],[46.9,4147],[65.3,4647],[85.9,4728],[95.4,4813],[96.9,4895],[96.9,4978],[96.9,5062],[94.4,5147],[76.1,5230],[59.1,5313],[51,5395],[50.6,5478],[50.6,5562],[44,5647],[33.4,5728],[14.2,5815],[11,5906],[6.7,5985],[5.5,6069],[5.5,6152],[5,6235],[4.6,6319],[3.2,6404],[2.4,6485],[1.9,6569],[1.9,6652],[1.9,6735],[1.9,6820],[1.9,6902],[1.9,6986],[1.9,7070],[1.9,7152],[1.9,7235],[1.9,7319],[1.9,7402],[1.9,7485],[1.9,7569],[1.9,7652],[1.9,7739],[1.9,7826],[1.9,7909],[1.9,7999],[1.9,8083],[1.9,8166],[1.9,8250],[1.9,8333],[1.9,8416],[1.9,8500],[1.9,8583],[1.9,8667],[1.9,8750],[1.9,8833],[1.9,8916],[1.9,9000],[1.9,9083],[1.9,9166],[1.9,9250],[1.9,9334],[1.9,9416],[1.9,9500],[1.9,9583],[1.9,9666],[1.9,9750],[1.9,9833],[2.9,9916],[5,10007],[6.5,10097],[8.1,10180],[9.6,10264],[10.3,10347],[10.8,10430],[11.5,10514],[13,10597],[22.3,11272],[25.2,11355],[26,11439],[26.6,11521],[26.7,11604],[26.7,11687],[26.7,11771],[26.7,11854],[22.8,11937],[19.6,12023],[16.9,12104],[9.9,12189],[7,12271],[5.5,12357],[4.6,12445],[3.5,12528],[2.5,12618],[2.5,12701],[1.9,12785],[1.8,12868],[1.8,12951],[1.7,13035],[1.6,13118],[1.3,13201],[0.9,13285],[0.8,13368],[1,13452],[1.5,13535],[4.4,13618],[13.2,13702],[20.8,13785],[26.5,13870],[31.7,13953],[37.3,14036],[42.6,14118],[48.1,14202],[51.6,14287],[54.9,14371],[57,14452],[59,14535],[59.9,14625],[60.2,14716],[60.9,14799],[62,14893],[64.8,14980],[64.8,15063],[64.8,15146],[64.8,15230],[64.8,15313],[64.8,15396],[64.8,15480],[64.8,15563],[64.8,15646],[64.8,15730],[64.8,15815],[64.7,15896],[67.5,15980],[69.9,16063],[73.9,16148],[79.6,16231],[85.2,16315],[89.2,16399],[93.9,16480],[96.3,16563],[97.1,16648],[97.3,16730],[97.7,16823],[97.9,16903],[98,16987],[98.3,17077],[98.3,17160],[98.3,17244],[98.3,17327],[98.4,17411],[99,17494],[99,17579],[99,17662],[99,17744],[99,17827],[99,17910],[99,17995],[99,18077],[99,18161],[99,18244],[99,18327],[99,18411],[99,18494],[99,18577],[98.9,18661],[98.5,18746],[97.9,18827],[97.3,18913],[96.9,18998],[96.6,19088],[96.5,19168],[96.5,19251],[96.5,19334],[96.5,19418],[96.5,19501],[96.5,19584],[96.8,19669],[97.2,19751],[97.7,19834],[98.3,19918],[98.8,20001],[99,20086],[99.3,20168],[99.5,20251],[99.7,20334],[99.7,20418],[99.7,20501],[99.7,20584],[99.7,20668],[99.7,20751],[99.7,20835],[99.7,20918],[99.7,21001],[99.7,21084],[99.7,21168],[99.7,21251],[99.7,21335],[99.7,21418],[99.7,21501],[99.7,21585],[99.7,21668],[99.7,21751],[99.7,21835],[99.7,21918],[99.7,22001],[99.7,22086],[99.7,22168],[99.7,22251],[99.7,22335]]",473.9437,476.3673,49.89583333,1.6348,"[{""rating"":49.895833333333336,""responseTime"":1.6348000000715501}]",space,1.9041,,476.3673,Partially,50,476.3688,,,[],,0,12,12,12,1,audio/Narrative8Situation3.wav,audio/Narrative7Situation3.wav,audio/Narrative6Situation3.wav,audio/Narrative5Situation3.wav,4,8,5,3,,,,,,,,,,,,,,,,,,,,,,,,,,,,,,,,,,,,,,,
,,,,,660604f1a9c44af2909516f6,2025-07-07_19h00.51.928,group3.4_multiperson,2023.2.2,Win32,144.9275362,686c2ebf0248f13bef9af11f,686c7b8f4b30405d575a19f1,,,,,,,,,,,,,,,,,,,,,,,,,,,,,476.369,1,audio/Narrative8Situation4.wav,479.3746,,479.3747,493.5364,"[[52.2,7021],[73.4,7107],[79.4,7190],[86.6,7275],[94.5,7361],[100,7445],[100,7528],[100,7615],[100,7702],[100,7785],[100,7869],[100,7952],[100,8035],[100,8118],[100,8202],[100,8285],[100,8369],[100,8452],[100,8536],[100,8620],[100,8702],[100,8785],[100,8869],[100,8952],[100,9035],[100,9119],[100,9202],[100,9285],[100,9369],[100,9453],[100,9535],[100,9626],[100,9709],[100,9799],[100,9883],[100,9966],[100,10049],[100,10133],[100,10216],[100,10300],[100,10383],[100,10466],[100,10549],[100,10633],[100,10717],[100,10799],[100,10883],[100,10966],[100,11050],[100,11133],[100,11216],[100,11299],[100,11383],[100,11466],[100,11550],[100,11633],[100,11717],[100,11803],[100,11894],[100,11974],[100,12064],[100,12147],[100,12230],[100,12314],[100,12398],[100,12480],[100,12564],[100,12647],[100,12730],[100,12814],[100,12897],[100,12980],[100,13064],[100,13147],[100,13230],[100,13314],[100,13397],[100,13480],[100,13564],[100,13647],[100,13730],[100,13814],[100,13897],[100,13990],[100,14071],[100,14154]]",493.5364,496.4116,100,1.9828,"[{""rating"":99.6875,""responseTime"":1.1127000000477665},{""rating"":100,""responseTime"":1.9827999999523627}]",space,2.3559,,496.4116,Partially,50,496.4127,,,[],,0,13,13,13,1,audio/Narrative8Situation4.wav,audio/Narrative7Situation4.wav,audio/Narrative6Situation4.wav,audio/Narrative5Situation4.wav,3,3,2,1,,,,,,,,,,,,,,,,,,,,,,,,,,,,,,,,,,,,,,,
,,,,,660604f1a9c44af2909516f6,2025-07-07_19h00.51.928,group3.4_multiperson,2023.2.2,Win32,144.9275362,686c2ebf0248f13bef9af11f,686c7b8f4b30405d575a19f1,,,,,,,,,,,,,,,,,,,,,,,,,,,,,496.4128,1,audio/Narrative8Situation5.wav,498.4188,,498.4189,506.6491,"[[100,4347],[100,4431],[99.2,4514],[98.8,4597],[98.8,4681],[98.8,4764],[98.8,4847],[98.8,4931],[98.8,5014],[98.8,5097],[98.8,5181],[98.8,5264],[98.8,5347],[98.8,5431],[98.8,5514],[98.8,5597],[98.8,5681],[98.8,5764],[98.8,5847],[98.8,5931],[98.8,6015],[98.8,6104],[98.8,6191],[98.8,6278],[98.8,6364],[98.8,6451],[98.8,6535],[98.8,6618],[98.8,6702],[98.8,6785],[98.8,6868],[98.8,6952],[98.8,7036],[98.8,7118],[98.8,7202],[98.8,7285],[98.8,7368],[98.8,7452],[98.8,7535],[98.8,7618],[98.8,7702],[98.8,7785],[98.8,7869],[98.8,7952],[98.8,8035],[98.8,8119],[98.8,8202]]",506.6491,510.5732,99.47916667,1.5997,"[{""rating"":99.47916666666667,""responseTime"":1.5996999999284753}]",space,3.4091,,510.5732,Definitely yes,100,510.5751,,,[],,0,14,14,14,1,audio/Narrative8Situation5.wav,audio/Narrative7Situation5.wav,audio/Narrative6Situation5.wav,audio/Narrative5Situation5.wav,2,5,2,5,,,,,,,,,,,,,,,,,,,,,,,,,,,,,,,,,,,,,,,
,,,,,660604f1a9c44af2909516f6,2025-07-07_19h00.51.928,group3.4_multiperson,2023.2.2,Win32,144.9275362,686c2ebf0248f13bef9af11f,686c7b8f4b30405d575a19f1,,,,,,,,,,,,,,,,,,,,,,,,,,,,,510.5753,1,audio/Narrative8Situation6.wav,512.5804,,512.5804,519.0396,"[[98.9,2666],[98.9,2750],[98.9,2833],[99,2917],[100,3000],[100,3083],[100,3166],[100,3250],[100,3336],[100,3423],[100,3507],[100,3590],[100,3673],[100,3758],[100,3842],[100,3930],[100,4014],[100,4097],[100,4181],[100,4264],[100,4347],[100,4431],[100,4514],[100,4597],[100,4681],[100,4764],[100,4848],[100,4931],[100,5014],[100,5097],[100,5181],[100,5264],[100,5348],[100,5431],[100,5514],[100,5597],[100,5681],[100,5771],[100,5854],[100,5938],[100,6021],[100,6104],[100,6188],[100,6271],[100,6354],[100,6438]]",519.0397,521.3749,100,1.5595,"[{""rating"":100,""responseTime"":1.5594999999999573}]",space,1.8198,,521.3749,Not at all,0,521.3762,,,[],,0,15,15,15,1,audio/Narrative8Situation6.wav,audio/Narrative7Situation6.wav,audio/Narrative6Situation6.wav,audio/Narrative5Situation6.wav,2,3,2,3,,,,,,,,,,,,,,,,,,,,,,,,,,,,,,,,,,,,,,,
,,,,,660604f1a9c44af2909516f6,2025-07-07_19h00.51.928,group3.4_multiperson,2023.2.2,Win32,144.9275362,686c2ebf0248f13bef9af11f,686c7b8f4b30405d575a19f1,,,,,,,,,,,,,,,,,,,,,,,,,,,,,521.3764,1,audio/Narrative8Situation7.wav,524.3806,,524.3806,536.4515,"[[999,0],[999,83],[999,166],[999,249],[999,333],[999,419],[999,500],[999,583],[999,666],[999,750],[999,833],[999,916],[999,1007],[999,1090],[999,1173],[999,1256],[999,1340],[999,1424],[999,1508],[999,1590],[999,1675],[999,1757],[999,1840],[999,1925],[999,2007],[999,2090],[999,2175],[999,2256],[999,2340],[999,2423],[999,2507],[999,2590],[999,2673],[999,2757],[999,2840],[999,2923],[999,3007],[999,3090],[999,3173],[999,3257],[999,3351],[999,3430],[97.4,3514],[98,3597],[98.9,3680],[100,3764],[100,3847],[100,3930],[100,4015],[100,4098],[100,4180],[100,4264],[100,4347],[100,4431],[100,4514],[100,4597],[100,4681],[100,4765],[100,4847],[100,4932],[100,5015],[100,5098],[100,5181],[100,5264],[100,5350],[100,5438],[100,5521],[100,5611],[100,5694],[100,5778],[100,5861],[100,5945],[100,6028],[100,6111],[100,6195],[100,6278],[100,6361],[100,6445],[100,6528],[100,6611],[100,6695],[100,6781],[100,6862],[100,6945],[100,7028],[100,7112],[100,7195],[100,7278],[100,7362],[100,7445],[100,7528],[100,7612],[100,7695],[100,7779],[100,7862],[100,7945],[100,8035],[100,8119],[100,8202],[100,8285],[100,8369],[100,8452],[100,8535],[100,8619],[100,8702],[100,8785],[100,8869],[100,8952],[100,9035],[100,9119],[100,9202],[100,9285],[100,9369],[100,9452],[100,9535],[100,9619],[100,9702],[100,9785],[100,9869],[100,9952],[100,10038],[100,10133],[100,10220],[100,10302],[100,10396],[100,10487],[100,10578],[100,10660],[100,10745],[100,10827],[100,10910],[100,10994],[100,11077],[100,11161],[100,11244],[100,11327],[100,11411],[100,11494],[100,11577],[100,11661],[100,11744],[100,11828],[100,11911],[100,11994]]",536.4517,538.6811,99.89583333,1.4265,"[{""rating"":99.89583333333334,""responseTime"":1.4265000000000327}]",space,1.7112,,538.6811,Not at all,0,538.6824,,,[],,0,16,16,16,1,audio/Narrative8Situation7.wav,audio/Narrative7Situation7.wav,audio/Narrative6Situation7.wav,audio/Narrative5Situation7.wav,3,5,5,4,,,,,,,,,,,,,,,,,,,,,,,,,,,,,,,,,,,,,,,
,,,,,660604f1a9c44af2909516f6,2025-07-07_19h00.51.928,group3.4_multiperson,2023.2.2,Win32,144.9275362,686c2ebf0248f13bef9af11f,686c7b8f4b30405d575a19f1,,,,,,,,,,,,,,,,,,,,,,,,,,,,,538.6825,1,audio/Narrative8Situation8.wav,541.6894,,541.6894,554.5306,"[[99.7,4006],[7.1,4939],[2.9,5024],[1,5103],[1,5187],[0.5,5270],[0.3,8119],[29,8204],[63.9,8286],[79.3,8368],[95.2,8710],[98.3,8799],[99,8889],[99.1,8972],[100,9056],[100,9140],[100,9222],[100,9305],[100,9389],[100,9472],[100,9555],[100,9639],[100,9722],[100,9805],[100,9889],[100,9972],[100,10055],[100,10139],[100,10222],[100,10305],[100,10389],[100,10472],[100,10556],[100,10639],[100,10723],[100,10812],[100,10896],[100,10979],[100,11062],[100,11146],[100,11229],[100,11312],[100,11396],[100,11480],[100,11564],[100,11646],[100,11729],[100,11812],[100,11896],[100,11979],[100,12062],[100,12146],[100,12229],[100,12312],[100,12396],[100,12479],[100,12563],[100,12646],[100,12729],[100,12815]]",554.5308,557.8431,99.6875,2.3862,"[{""rating"":99.6875,""responseTime"":2.3862000000476655}]",space,2.7989,,557.8432,Partially,50,557.8448,,,[],,0,17,17,17,1,audio/Narrative8Situation8.wav,audio/Narrative7Situation8.wav,audio/Narrative6Situation8.wav,audio/Narrative5Situation8.wav,3,2,5,3,,,,,,,,,,,,,,,,,,,,,,,,,,,,,,,,,,,,,,,
,,,,,660604f1a9c44af2909516f6,2025-07-07_19h00.51.928,group3.4_multiperson,2023.2.2,Win32,144.9275362,686c2ebf0248f13bef9af11f,686c7b8f4b30405d575a19f1,,,,,,,,,,,,,,,,,,,,,,,,,,,,,557.8449,1,audio/Narrative8Situation9.wav,560.8505,,560.8505,572.1506,"[[100,5111],[100,5188],[100,5271],[100,5358],[100,5438],[100,5521],[100,5605],[100,5688],[100,5771],[100,5855],[100,5938],[100,6024],[100,6105],[100,6188],[100,6272],[100,6355],[100,6438],[100,6521],[100,6605],[100,6688],[100,6772],[100,6855],[100,6938],[100,7021],[100,7105],[100,7188],[100,7271],[100,7355],[100,7438],[100,7521],[100,7608],[100,7699],[100,7778],[100,7869],[100,7953],[100,8035],[100,8119],[100,8202],[100,8285],[100,8369],[100,8452],[100,8535],[100,8619],[100,8702],[100,8785],[100,8869],[100,8952],[100,9035],[100,9119],[100,9202],[100,9285],[100,9369],[100,9452],[100,9536],[100,9619],[100,9705],[100,9785],[100,9869],[100,9952],[100,10035],[100,10119],[100,10202],[100,10286],[100,10369],[100,10452],[100,10536],[100,10619],[100,10702],[100,10786],[100,10869],[100,10952],[100,11036],[100,11121],[100,11203],[100,11286]]",572.1506,575.3941,99.0625,2.5506,"[{""rating"":99.0625,""responseTime"":2.5506000000239055}]",space,2.7321,,575.3941,Not at all,0,575.3955,,,[],,0,18,18,18,1,audio/Narrative8Situation9.wav,audio/Narrative7Situation9.wav,audio/Narrative6Situation9.wav,audio/Narrative5Situation9.wav,3,2,4,3,,,,,,,,,,,,,,,,,,,,,,,,,,,,,,,,,,,,,,,
,,,,,660604f1a9c44af2909516f6,2025-07-07_19h00.51.928,group3.4_multiperson,2023.2.2,Win32,144.9275362,686c2ebf0248f13bef9af11f,686c7b8f4b30405d575a19f1,,,,,,,,,,,,,,,,,,,,,,,,,,,577.971,580.5475,580.5586,2,audio/Narrative13Situation2.wav,580.5587,,580.5587,610.2892,"[[98.5,7610],[98.1,7691],[98.1,7775],[98.1,7857],[98.1,7941],[99,8024],[100,8107],[100,8194],[100,8274],[100,8360],[100,8444],[100,8531],[100,8615],[100,8699],[100,8781],[100,8865],[100,8948],[100,9031],[100,9115],[100,9198],[100,9282],[100,9365],[100,9448],[100,9531],[100,9615],[100,9698],[100,9782],[100,9865],[100,9950],[100,10031],[100,10115],[100,10198],[100,10281],[100,10365],[100,10448],[100,10531],[100,10615],[100,10698],[100,10784],[100,10872],[100,10957],[100,11040],[100,11129],[100,11212],[100,11295],[100,11379],[100,11462],[100,11545],[100,11629],[100,11712],[100,11795],[100,11881],[100,11962],[100,12045],[100,12129],[100,12212],[100,12298],[100,12379],[100,12462],[100,12546],[100,12629],[100,12712],[100,12797],[100,12879],[100,12965],[100,13053],[100,13136],[100,13219],[100,13303],[100,13386],[100,13470],[100,13552],[100,13636],[100,13719],[100,13803],[100,13887],[100,13969],[100,14053],[100,14137],[100,14220],[100,14303],[100,14386],[100,14470],[100,14554],[100,14636],[100,14720],[100,14803],[100,14886],[100,14970],[100,15053],[100,15136],[100,15226],[100,15310],[100,15400],[100,15483],[100,15567],[100,15651],[100,15733],[100,15817],[100,15900],[100,15983],[100,16068],[100,16150],[100,16234],[100,16318],[100,16400],[100,16487],[100,16567],[100,16650],[100,16734],[100,16817],[100,16900],[100,16983],[100,17068],[100,17151],[100,17234],[100,17317],[100,17400],[100,17484],[100,17567],[100,17651],[100,17736],[100,17831],[100,17914],[100,18004],[100,18088],[100,18172],[100,18255],[100,18338],[100,18422],[100,18505],[100,18588],[100,18671],[100,18755],[100,18838],[100,18921],[100,19005],[100,19088],[100,19171],[100,19255],[100,19338],[100,19422],[100,19505],[100,19588],[100,19672],[100,19755],[100,19838],[100,19922],[100,20012],[100,20102],[100,20185],[100,20269],[100,20352],[100,20435],[100,20519],[100,20603],[100,20685],[100,20769],[100,20852],[100,20936],[100,21019],[100,21102],[100,21187],[100,21269],[100,21352],[100,21436],[100,21519],[100,21603],[100,21685],[100,21769],[100,21853],[100,21936],[100,22019],[100,22103],[100,22190],[100,22270],[100,22352],[100,22437],[100,22526],[100,22611],[100,22693],[100,22776],[100,22859],[100,22943],[100,23026],[100,23111],[100,23193],[100,23277],[100,23359],[100,23443],[100,23526],[100,23609],[100,23693],[100,23776],[100,23860],[100,23943],[100,24026],[100,24111],[100,24193],[100,24276],[100,24360],[100,24454],[100,24533],[100,24617],[100,24702],[100,24783],[100,24867],[100,24951],[100,25033],[100,25117],[100,25200],[100,25283],[100,25367],[100,25450],[100,25534],[100,25618],[100,25702],[100,25783],[100,25868],[100,25950],[100,26033],[100,26117],[100,26200],[100,26284],[100,26367],[100,26451],[100,26533],[100,26620],[100,26707],[100,26797],[100,26881],[100,26967],[100,27055],[100,27143],[100,27221],[100,27304],[100,27388],[100,27471],[100,27555],[100,27639],[100,27721],[100,27804],[100,27888],[100,27971],[100,28055],[100,28138],[100,28221],[100,28304],[100,28388],[100,28472],[100,28555],[100,28638],[100,28721],[100,28805],[100,28888],[100,28971],[100,29055],[100,29149],[100,29228],[100,29312],[100,29395],[100,29478],[100,29562],[100,29645],[100,29730]]",610.2893,610.2905,,,[],,,,610.2905,Partially,50,610.2916,,,[],,0,0,0,0,1,audio/Narrative13Situation2.wav,audio/Narrative13Situation2.wav,audio/Narrative13Situation2.wav,audio/Narrative13Situation2.wav,2,2,2,2,,,,,575.4009,577.9709,space,2.0656,,,,,,,,,,,,,,,,,,,,,,,,,,,,,,,
,,,,,660604f1a9c44af2909516f6,2025-07-07_19h00.51.928,group3.4_multiperson,2023.2.2,Win32,144.9275362,686c2ebf0248f13bef9af11f,686c7b8f4b30405d575a19f1,,,,,,,,,,,,,,,,,,,,,,,,,,,,,610.2917,2,audio/Narrative5Situation1.wav,615.2952,,615.2952,628.5678,"[[98.9,1507],[99.1,1590],[99.1,1674],[99.1,1757],[99.1,1841],[99.1,1924],[99.1,2007],[99.1,2090],[99.1,2173],[100,2257],[100,2340],[100,2423],[100,2507],[100,2591],[100,2674],[100,2757],[100,2840],[100,2923],[100,3007],[100,3091],[100,3174],[100,3257],[100,3340],[100,3432],[100,3514],[100,3600],[100,3687],[100,3771],[100,3855],[100,3938],[100,4021],[100,4104],[100,4188],[100,4271],[100,4355],[100,4437],[100,4521],[100,4605],[100,4687],[100,4771],[100,4854],[100,4937],[100,5022],[100,5104],[100,5188],[100,5271],[100,5355],[100,5438],[100,5523],[100,5604],[100,5695],[100,5778],[100,5862],[100,5945],[100,6028],[100,6111],[100,6196],[100,6278],[100,6361],[100,6445],[100,6528],[100,6611],[100,6695],[100,6779],[100,6862],[100,6945],[100,7029],[100,7112],[100,7195],[100,7279],[100,7362],[100,7445],[100,7528],[100,7612],[100,7695],[100,7778],[100,7862],[100,7949],[100,8028],[100,8114],[100,8198],[100,8289],[100,8369],[100,8452],[100,8535],[100,8619],[100,8703],[100,8785],[100,8869],[100,8952],[100,9035],[100,9119],[100,9202],[100,9285],[100,9369],[100,9452],[100,9537],[100,9622],[100,9702],[100,9789],[100,9869],[100,9952],[100,10037],[100,10119],[100,10202],[100,10286],[100,10376],[100,10460],[100,10544],[100,10636],[100,10720],[100,10801],[100,10884],[100,10967],[100,11051],[100,11134],[100,11218],[100,11301],[100,11384],[100,11468],[100,11551],[100,11634],[100,11718],[100,11801],[100,11884],[100,11968],[100,12051],[100,12134],[100,12218],[100,12301],[100,12384],[100,12468],[100,12553],[100,12640],[100,12727],[100,12817],[100,12904],[100,12988],[100,13072],[100,13154],[100,13237]]",628.5679,634.1172,0,4.7351,"[{""rating"":0,""responseTime"":4.735100000023863}]",space,5.0287,,634.1172,Not at all,0,634.1187,,,[],,0,1,1,1,1,audio/Narrative7Situation1.wav,audio/Narrative8Situation1.wav,audio/Narrative5Situation1.wav,audio/Narrative6Situation1.wav,2,5,5,2,,,,,,,,,,,,,,,,,,,,,,,,,,,,,,,,,,,,,,,
,,,,,660604f1a9c44af2909516f6,2025-07-07_19h00.51.928,group3.4_multiperson,2023.2.2,Win32,144.9275362,686c2ebf0248f13bef9af11f,686c7b8f4b30405d575a19f1,,,,,,,,,,,,,,,,,,,,,,,,,,,,,634.1189,2,audio/Narrative5Situation2.wav,637.1245,,637.1245,666.5727,"[[0.4,2611],[0.4,2694],[1.8,2778],[1.5,2861],[1.5,2944],[1.5,3028],[1.5,3111],[1.5,3194],[1.5,3279],[7.3,3361],[15.1,3446],[23.3,3529],[36.5,3616],[46.8,3696],[59.9,3779],[74.6,3861],[88.2,3944],[94.5,4029],[97.2,4111],[100,4194],[100,4278],[100,4364],[100,4451],[100,4535],[100,4618],[100,4702],[100,4785],[100,4868],[100,4952],[100,5035],[100,5118],[100,5202],[100,5285],[100,5368],[100,5452],[100,5535],[100,5618],[100,5701],[100,5785],[100,5868],[100,5952],[100,6035],[100,6118],[100,6202],[100,6286],[100,6368],[100,6452],[100,6541],[100,6625],[100,6709],[100,6793],[100,6875],[100,6958],[100,7042],[100,7125],[100,7209],[100,7292],[100,7375],[100,7459],[100,7542],[100,7625],[100,7709],[100,7792],[100,7875],[100,7959],[100,8042],[100,8127],[100,8209],[100,8293],[100,8376],[100,8459],[100,8543],[100,8625],[100,8709],[100,8795],[100,8882],[100,8966],[100,9050],[100,9132],[100,9216],[100,9300],[100,9383],[100,9466],[100,9551],[100,9633],[100,9716],[100,9799],[100,9883],[100,9966],[100,10049],[100,10133],[100,10216],[100,10299],[100,10383],[100,10467],[100,10549],[100,10633],[100,10716],[100,10799],[100,10884],[100,10966],[100,11058],[100,11147],[100,11230],[100,11315],[100,11397],[100,11481],[100,11563],[100,11647],[100,11730],[100,11813],[100,11897],[100,11980],[100,12063],[100,12147],[100,12230],[100,12314],[100,12397],[100,12480],[100,12564],[100,12647],[100,12730],[100,12814],[100,12898],[100,12981],[100,13064],[100,13150],[100,13237],[100,13321],[100,13404],[100,13487],[100,13571],[100,13654],[100,13737],[100,13821],[100,13904],[100,13987],[100,14071],[100,14154],[100,14237],[100,14322],[100,14404],[100,14487],[100,14571],[100,14654],[100,14737],[100,14821],[100,14904],[100,14988],[100,15072],[100,15154],[100,15238],[100,15324],[100,15414],[100,15508],[100,15598],[100,15682],[100,15765],[100,15849],[100,15932],[100,16015],[100,16100],[100,16182],[100,16265],[100,16349],[100,16433],[100,16516],[100,16599],[100,16682],[100,16765],[100,16849],[100,16932],[100,17015],[100,17099],[100,17182],[100,17266],[100,17349],[100,17432],[100,17519],[100,17613],[100,17696],[100,17779],[100,17863],[100,17946],[100,18030],[100,18113],[100,18198],[100,18280],[100,18363],[100,18446],[100,18530],[100,18613],[100,18696],[100,18780],[100,18864],[100,18948],[100,19030],[100,19113],[100,19197],[100,19280],[100,19363],[100,19447],[100,19530],[100,19613],[100,19697],[100,19787],[100,19870],[100,19953],[100,20039],[100,20127],[100,20210],[100,20294],[100,20377],[100,20460],[100,20544],[100,20627],[100,20711],[100,20794],[100,20877],[100,20960],[100,21045],[100,21127],[100,21210],[100,21294],[100,21377],[100,21461],[100,21544],[100,21627],[100,21711],[100,21794],[100,21877],[100,21961],[100,22044],[100,22132],[100,22211],[100,22294],[100,22377],[100,22461],[100,22544],[100,22627],[100,22711],[100,22794],[100,22878],[100,22961],[100,23044],[100,23127],[100,23211],[100,23294],[100,23378],[100,23461],[100,23546],[100,23627],[100,23711],[100,23794],[100,23877],[100,23961],[100,24044],[100,24128],[100,24211],[100,24294],[100,24381],[100,24464],[100,24551],[100,24635],[100,24721],[100,24801],[100,24891],[100,24975],[100,25058],[100,25144],[100,25225],[100,25308],[100,25392],[100,25475],[100,25558],[100,25642],[100,25725],[100,25808],[100,25893],[100,25975],[100,26059],[100,26142],[100,26225],[100,26308],[100,26393],[100,26475],[100,26558],[100,26642],[100,26725],[100,26808],[100,26892],[100,26978],[100,27069],[100,27149],[100,27232],[100,27315],[100,27399],[100,27482],[100,27566],[100,27649],[100,27733],[100,27816],[100,27899],[100,27983],[100,28067],[100,28149],[100,28232],[100,28315],[100,28399],[100,28483],[100,28566],[100,28649],[100,28732],[100,28816],[100,28900],[100,28982],[100,29069],[100,29156],[100,29241],[100,29323],[100,29406]]",666.5728,672.4902,100,1.547,"[{""rating"":100,""responseTime"":1.5470000000000255}]",space,5.4056,,672.4903,Definitely yes,100,672.4918,,,[],,0,2,2,2,1,audio/Narrative7Situation2.wav,audio/Narrative8Situation2.wav,audio/Narrative5Situation2.wav,audio/Narrative6Situation2.wav,3,3,3,3,,,,,,,,,,,,,,,,,,,,,,,,,,,,,,,,,,,,,,,
,,,,,660604f1a9c44af2909516f6,2025-07-07_19h00.51.928,group3.4_multiperson,2023.2.2,Win32,144.9275362,686c2ebf0248f13bef9af11f,686c7b8f4b30405d575a19f1,,,,,,,,,,,,,,,,,,,,,,,,,,,,,672.492,2,audio/Narrative5Situation3.wav,675.4979,,675.4979,689.3952,"[[100,1673],[100,1756],[100,1840],[100,1923],[100,2006],[100,2090],[100,2173],[99.5,2256],[98.2,2340],[97.7,2425],[94.7,2508],[91.5,2590],[85.9,2673],[85.8,2758],[85.8,2840],[85.7,2924],[85.6,3006],[79.8,3090],[76,3173],[74.9,3257],[89.6,3340],[100,3423],[100,3507],[100,3590],[100,3673],[100,3757],[100,3840],[100,3930],[100,4014],[100,4104],[100,4187],[100,4271],[100,4354],[100,4437],[100,4521],[100,4604],[100,4687],[100,4771],[100,4854],[100,4939],[100,5021],[100,5104],[100,5187],[100,5271],[100,5354],[100,5438],[100,5521],[100,5604],[100,5687],[100,5771],[100,5854],[100,5939],[100,6022],[100,6104],[100,6188],[100,6271],[100,6361],[100,6444],[100,6535],[100,6618],[100,6702],[100,6785],[100,6868],[100,6951],[100,7035],[100,7118],[100,7201],[100,7285],[100,7369],[100,7451],[100,7535],[100,7619],[100,7703],[100,7785],[100,7868],[100,7952],[100,8035],[100,8118],[100,8202],[100,8285],[100,8368],[100,8451],[100,8542],[100,8626],[100,8710],[100,8792],[100,8875],[100,8959],[100,9042],[100,9125],[100,9209],[100,9292],[100,9375],[100,9460],[100,9542],[100,9625],[100,9709],[100,9792],[100,9875],[100,9959],[100,10042],[100,10125],[100,10209],[100,10292],[100,10375],[100,10459],[100,10544],[100,10625],[100,10709],[100,10793],[100,10876],[100,10959],[100,11050],[100,11133],[100,11216],[100,11299],[100,11382],[100,11466],[100,11549],[100,11633],[100,11716],[100,11800],[100,11883],[100,11966],[100,12049],[100,12133],[100,12217],[100,12299],[100,12383],[100,12466],[100,12549],[100,12633],[100,12716],[100,12799],[100,12883],[100,12966],[100,13050],[100,13140],[100,13223],[100,13306],[100,13390],[100,13473],[100,13557],[100,13640],[100,13725],[100,13807],[100,13890]]",689.3952,691.3469,99.27083333,1.0574,"[{""rating"":99.27083333333333,""responseTime"":1.057400000095413}]",space,1.4326,,691.3469,Not at all,0,691.3483,,,[],,0,3,3,3,1,audio/Narrative7Situation3.wav,audio/Narrative8Situation3.wav,audio/Narrative5Situation3.wav,audio/Narrative6Situation3.wav,8,4,3,5,,,,,,,,,,,,,,,,,,,,,,,,,,,,,,,,,,,,,,,
,,,,,660604f1a9c44af2909516f6,2025-07-07_19h00.51.928,group3.4_multiperson,2023.2.2,Win32,144.9275362,686c2ebf0248f13bef9af11f,686c7b8f4b30405d575a19f1,,,,,,,,,,,,,,,,,,,,,,,,,,,,,691.3485,2,audio/Narrative5Situation4.wav,692.3538,,692.3539,712.732,"[[99,1599],[98.1,1680],[98.1,1764],[98.1,1847],[98.1,1931],[98.1,2014],[100,2098],[100,2180],[100,2264],[100,2347],[100,2430],[100,2514],[100,2597],[100,2680],[100,2764],[100,2847],[100,2931],[100,3014],[100,3100],[100,3183],[100,3271],[100,3354],[100,3440],[100,3528],[100,3611],[100,3694],[100,3778],[100,3862],[100,3944],[100,4028],[100,4111],[100,4194],[100,4279],[100,4361],[100,4444],[100,4528],[100,4611],[100,4695],[100,4778],[100,4861],[100,4945],[100,5028],[100,5111],[100,5196],[100,5278],[100,5361],[100,5445],[100,5538],[100,5625],[100,5708],[100,5792],[100,5875],[100,5959],[100,6043],[100,6126],[100,6209],[100,6292],[100,6375],[100,6459],[100,6542],[100,6625],[100,6709],[100,6793],[100,6876],[100,6959],[100,7043],[100,7126],[100,7209],[100,7292],[100,7375],[100,7459],[100,7542],[100,7629],[100,7719],[100,7812],[100,7901],[100,7987],[100,8073],[100,8154],[100,8237],[100,8320],[100,8403],[100,8487],[100,8570],[100,8653],[100,8737],[100,8820],[100,8903],[100,8987],[100,9070],[100,9154],[100,9237],[100,9320],[100,9403],[100,9487],[100,9570],[100,9653],[100,9737],[100,9820],[100,9903],[100,9987],[100,10070],[100,10156],[100,10244],[100,10327],[100,10411],[100,10494],[100,10577],[100,10662],[100,10744],[100,10828],[100,10911],[100,10994],[100,11077],[100,11161],[100,11244],[100,11328],[100,11411],[100,11494],[100,11578],[100,11661],[100,11745],[100,11827],[100,11911],[100,11994],[100,12077],[100,12161],[100,12244],[100,12328],[100,12411],[100,12494],[100,12577],[100,12661],[100,12751],[100,12845],[100,12925],[100,13008],[100,13091],[100,13175],[100,13258],[100,13342],[100,13425],[100,13508],[100,13592],[100,13675],[100,13758],[100,13842],[100,13925],[100,14009],[100,14092],[100,14175],[100,14258],[100,14342],[100,14425],[100,14508],[100,14592],[100,14675],[100,14761],[100,14852],[100,14943],[100,15022],[100,15106],[100,15189],[100,15273],[100,15356],[100,15439],[100,15522],[100,15606],[100,15689],[100,15772],[100,15856],[100,15939],[100,16022],[100,16106],[100,16189],[100,16272],[100,16356],[100,16439],[100,16522],[100,16606],[100,16689],[100,16772],[100,16856],[100,16939],[100,17022],[100,17106],[100,17196],[100,17279],[100,17363],[100,17446],[100,17530],[100,17614],[100,17696],[100,17780],[100,17863],[100,17946],[100,18030],[100,18113],[100,18196],[100,18280],[100,18363],[100,18446],[100,18530],[100,18613],[100,18696],[100,18780],[100,18863],[100,18946],[100,19030],[100,19113],[100,19203],[100,19287],[100,19373],[100,19453],[100,19544],[100,19627],[100,19711],[100,19794],[100,19878],[100,19962],[100,20044],[100,20128],[100,20210],[100,20294],[100,20377]]",712.7321,718.9544,100,5.649,"[{""rating"":100,""responseTime"":5.649000000000001}]",space,5.7038,,718.9545,Not at all,0,723.504,0,3.0159,"[{""rating"":0,""responseTime"":3.0158999999762273}]",space,0,4,4,4,1,audio/Narrative7Situation4.wav,audio/Narrative8Situation4.wav,audio/Narrative5Situation4.wav,audio/Narrative6Situation4.wav,3,3,1,2,,,4.0383,,,,,,,,,,,,,,,,,,,,,,,,,,,,,,,,,,,,
,,,,,660604f1a9c44af2909516f6,2025-07-07_19h00.51.928,group3.4_multiperson,2023.2.2,Win32,144.9275362,686c2ebf0248f13bef9af11f,686c7b8f4b30405d575a19f1,,,,,,,,,,,,,,,,,,,,,,,,,,,,,723.5043,2,audio/Narrative5Situation5.wav,728.5046,,728.5046,743.917,"[[9.5,14177],[36.7,15019],[65.8,15110],[64.3,15191],[63.8,15272],[63.8,15356]]",743.9171,746.979,100,2.4279,"[{""rating"":100,""responseTime"":2.427899999976148}]",space,2.547,,746.9791,Not at all,0,746.98,,,[],,0,5,5,5,1,audio/Narrative7Situation5.wav,audio/Narrative8Situation5.wav,audio/Narrative5Situation5.wav,audio/Narrative6Situation5.wav,5,2,5,2,,,,,,,,,,,,,,,,,,,,,,,,,,,,,,,,,,,,,,,
,,,,,660604f1a9c44af2909516f6,2025-07-07_19h00.51.928,group3.4_multiperson,2023.2.2,Win32,144.9275362,686c2ebf0248f13bef9af11f,686c7b8f4b30405d575a19f1,,,,,,,,,,,,,,,,,,,,,,,,,,,,,746.9801,2,audio/Narrative5Situation6.wav,749.9863,,749.9863,755.6543,"[[100,2371],[100,2456],[98.9,2551],[98.9,2632],[98.9,2715],[99,2806],[100,2889],[100,2981],[100,3063],[100,3148],[100,3231],[100,3313],[100,3396],[100,3479],[100,3562],[100,3646],[100,3729],[100,3813],[100,3896],[100,3979],[100,4063],[100,4146],[100,4229],[100,4312],[100,4396],[100,4480],[100,4562],[100,4646],[100,4729],[100,4823],[100,4903],[100,4986],[100,5070],[100,5160],[100,5243],[100,5327],[100,5410],[100,5493],[100,5577],[100,5661]]",755.6545,758.8695,100,2.5267,"[{""rating"":100,""responseTime"":2.5267000000477537}]",space,2.6954,,758.8695,Definitely yes,100,758.871,,,[],,0,6,6,6,1,audio/Narrative7Situation6.wav,audio/Narrative8Situation6.wav,audio/Narrative5Situation6.wav,audio/Narrative6Situation6.wav,3,2,3,2,,,,,,,,,,,,,,,,,,,,,,,,,,,,,,,,,,,,,,,
,,,,,660604f1a9c44af2909516f6,2025-07-07_19h00.51.928,group3.4_multiperson,2023.2.2,Win32,144.9275362,686c2ebf0248f13bef9af11f,686c7b8f4b30405d575a19f1,,,,,,,,,,,,,,,,,,,,,,,,,,,,,758.8711,2,audio/Narrative5Situation7.wav,762.877,,762.877,783.9005,"[[100,750],[100,835],[100,916],[100,1000],[100,1083],[100,1169],[100,1256],[100,1347],[100,1437],[100,1520],[100,1604],[100,1687],[100,1770],[100,1854],[100,1939],[100,2021],[100,2104],[100,2187],[100,2271],[100,2354],[100,2437],[100,2521],[100,2604],[100,2688],[100,2771],[100,2854],[100,2937],[100,3021],[100,3105],[100,3189],[100,3271],[100,3354],[100,3437],[100,3522],[100,3604],[100,3695],[100,3778],[100,3862],[100,3944],[100,4028],[100,4111],[100,4194],[100,4278],[100,4361],[100,4444],[100,4528],[100,4611],[100,4695],[100,4778],[100,4861],[100,4944],[100,5028],[100,5111],[100,5195],[100,5279],[100,5361],[100,5444],[100,5528],[100,5611],[100,5695],[100,5778],[100,5861],[100,5945],[100,6028],[100,6113],[100,6195],[100,6278],[100,6361],[100,6445],[100,6528],[100,6611],[100,6695],[100,6778],[100,6862],[100,6945],[100,7028],[100,7114],[100,7196],[100,7278],[100,7362],[100,7445],[100,7528],[100,7611],[100,7695],[100,7778],[100,7862],[100,7945],[100,8028],[100,8112],[100,8195],[100,8278],[100,8362],[100,8447],[100,8528],[100,8612],[100,8695],[100,8778],[100,8861],[100,8945],[100,9029],[100,9112],[100,9195],[100,9278],[100,9362],[100,9445],[100,9528],[100,9612],[100,9695],[100,9778],[100,9862],[100,9946],[100,10031],[100,10119],[100,10202],[100,10288],[100,10372],[100,10460],[100,10543],[100,10626],[100,10709],[100,10793],[100,10876],[100,10960],[100,11043],[100,11126],[100,11209],[100,11292],[100,11376],[100,11459],[100,11543],[100,11626],[100,11709],[100,11793],[100,11877],[100,11959],[100,12043],[100,12126],[100,12209],[100,12293],[100,12376],[100,12463],[100,12546],[100,12633],[100,12720],[100,12807],[100,12890],[100,12974],[100,13057],[100,13140],[100,13223],[100,13307],[100,13390],[100,13473],[100,13557],[100,13640],[100,13724],[100,13808],[100,13890],[100,13973],[100,14057],[100,14141],[100,14223],[100,14307],[100,14390],[100,14474],[100,14557],[100,14640],[100,14724],[100,14810],[100,14904],[100,14988],[100,15071],[100,15154],[100,15238],[100,15321],[100,15404],[100,15489],[100,15571],[100,15654],[100,15738],[100,15821],[100,15904],[100,15988],[100,16071],[100,16155],[100,16238],[100,16323],[100,16404],[100,16488],[100,16573],[100,16654],[100,16738],[100,16824],[100,16911],[100,16997],[100,17078],[100,17169],[100,17253],[87.8,17337],[50.9,17420],[23.1,17502],[12.7,17587],[1.5,18003],[1.9,18085],[1.9,18168],[1.7,18252],[0.4,18337]]",783.9006,786.1786,49.0625,1.6039,"[{""rating"":49.0625,""responseTime"":1.6038999999761927}]",space,1.7521,,786.1787,Definitely yes,100,786.1798,,,[],,0,7,7,7,1,audio/Narrative7Situation7.wav,audio/Narrative8Situation7.wav,audio/Narrative5Situation7.wav,audio/Narrative6Situation7.wav,5,3,4,5,,,,,,,,,,,,,,,,,,,,,,,,,,,,,,,,,,,,,,,
,,,,,660604f1a9c44af2909516f6,2025-07-07_19h00.51.928,group3.4_multiperson,2023.2.2,Win32,144.9275362,686c2ebf0248f13bef9af11f,686c7b8f4b30405d575a19f1,,,,,,,,,,,,,,,,,,,,,,,,,,,,,786.1799,2,audio/Narrative5Situation8.wav,789.1861,,789.1861,797.9895,"[[48.8,1835],[46.1,1918],[39.5,2000],[30.2,2094],[16.7,2180],[9.8,2267],[7.2,2349],[2,2430],[1.1,2514],[0.4,2598],[0.4,2680],[0.4,2763],[0.4,2847],[0.3,2930],[0.4,3015],[0.4,3097],[0.1,3181],[0.2,3932],[1,4014],[1,4097],[1,4180],[1,4264],[1,4347],[1,4430],[1,4514],[1,4597],[1,4680],[1,4764],[1,4847],[0.4,4931]]",797.9895,799.9739,0.208333333,0.7732,"[{""rating"":0.2083333333333326,""responseTime"":0.773199999928579}]",space,1.4656,,799.9739,Partially,50,799.9753,,,[],,0,8,8,8,1,audio/Narrative7Situation8.wav,audio/Narrative8Situation8.wav,audio/Narrative5Situation8.wav,audio/Narrative6Situation8.wav,2,3,3,5,,,,,,,,,,,,,,,,,,,,,,,,,,,,,,,,,,,,,,,
,,,,,660604f1a9c44af2909516f6,2025-07-07_19h00.51.928,group3.4_multiperson,2023.2.2,Win32,144.9275362,686c2ebf0248f13bef9af11f,686c7b8f4b30405d575a19f1,,,,,,,,,,,,,,,,,,,,,,,,,,,,,799.9754,2,audio/Narrative5Situation9.wav,802.9793,,802.9793,842.5054,"[[0.5,2010],[0.6,2097],[0.6,2184],[0.6,2271],[0.6,2354],[0.6,2437],[0.6,2522],[0.6,2604],[0.6,2687],[0.6,2771],[3.9,2854],[6.3,2939],[6,3021],[6,3104],[6.1,3187],[27.8,3271],[53.8,3356],[62.9,3437],[66.7,3521],[71.5,3606],[78,3687],[84.4,3771],[88.1,3856],[95.6,3937],[97.6,4021],[100,4105],[100,4189],[100,4271],[100,4354],[100,4444],[100,4528],[100,4611],[100,4694],[100,4778],[100,4861],[100,4945],[100,5028],[100,5111],[100,5196],[100,5278],[100,5361],[100,5445],[100,5528],[100,5612],[100,5695],[100,5778],[100,5861],[100,5946],[100,6029],[100,6111],[100,6195],[100,6278],[100,6361],[100,6445],[100,6528],[100,6615],[100,6702],[100,6792],[100,6875],[100,6959],[100,7042],[100,7125],[100,7209],[100,7292],[100,7375],[100,7459],[100,7544],[100,7626],[100,7711],[100,7792],[100,7875],[100,7959],[100,8042],[100,8126],[100,8209],[100,8292],[100,8375],[100,8459],[100,8542],[100,8626],[100,8709],[100,8792],[100,8876],[100,8969],[100,9049],[100,9133],[100,9223],[100,9313],[100,9396],[100,9481],[100,9570],[100,9654],[100,9737],[100,9820],[100,9903],[100,9987],[100,10070],[100,10154],[100,10237],[100,10320],[100,10404],[100,10487],[100,10570],[100,10654],[100,10737],[100,10820],[100,10904],[100,10987],[100,11070],[100,11154],[100,11237],[100,11331],[100,11414],[100,11494],[100,11577],[100,11668],[100,11751],[100,11834],[100,11918],[100,12001],[100,12084],[100,12168],[100,12251],[100,12335],[100,12418],[100,12502],[100,12585],[100,12668],[100,12751],[100,12835],[100,12918],[100,13001],[100,13084],[100,13168],[100,13251],[100,13335],[100,13418],[100,13501],[100,13585],[100,13668],[100,13754],[100,13845],[100,13925],[100,14008],[100,14091],[100,14175],[100,14258],[100,14342],[100,14425],[100,14508],[100,14592],[100,14675],[100,14758],[100,14842],[100,14925],[100,15008],[100,15092],[100,15175],[100,15259],[100,15342],[100,15425],[100,15509],[100,15592],[100,15675],[100,15759],[100,15842],[100,15932],[100,16022],[100,16106],[100,16189],[100,16272],[100,16356],[100,16439],[100,16523],[100,16606],[100,16689],[100,16773],[100,16856],[100,16939],[100,17023],[100,17106],[100,17189],[100,17273],[100,17356],[100,17439],[100,17523],[100,17606],[100,17689],[100,17773],[100,17856],[100,17939],[100,18028],[100,18109],[100,18200],[100,18282],[100,18370],[100,18455],[100,18536],[100,18620],[100,18703],[100,18787],[100,18870],[100,18953],[100,19037],[100,19120],[100,19203],[100,19287],[100,19370],[100,19455],[100,19537],[100,19620],[100,19703],[100,19787],[100,19870],[100,19954],[100,20037],[100,20120],[100,20207],[100,20291],[100,20377],[100,20471],[100,20551],[100,20634],[100,20718],[100,20801],[100,20884],[100,20968],[100,21051],[100,21134],[100,21218],[100,21301],[100,21386],[100,21468],[100,21551],[100,21634],[100,21718],[100,21801],[100,21884],[100,21968],[100,22051],[100,22135],[100,22218],[100,22301],[100,22387],[100,22475],[100,22559],[100,22644],[100,22739],[100,22822],[100,22905],[100,22989],[100,23072],[100,23157],[100,23239],[100,23322],[100,23405],[100,23489],[100,23572],[100,23655],[100,23739],[100,23822],[100,23905],[100,23989],[100,24073],[100,24155],[100,24239],[100,24323],[100,24405],[100,24489],[100,24572],[100,24655],[100,24739],[100,24822],[100,24908],[100,24996],[100,25079],[100,25163],[100,25246],[100,25329],[100,25414],[100,25496],[100,25579],[100,25663],[100,25747],[100,25829],[100,25913],[100,25996],[100,26080],[100,26163],[100,26246],[100,26329],[100,26413],[100,26496],[100,26579],[100,26663],[100,26747],[100,26830],[100,26913],[100,26996],[100,27079],[100,27163],[100,27246],[100,27333],[100,27413],[100,27496],[100,27579],[100,27663],[100,27746],[100,27829],[100,27913],[100,27996],[100,28080],[100,28163],[100,28248],[100,28330],[100,28413],[100,28496],[100,28580],[100,28663],[100,28748],[100,28830],[100,28913],[100,28996],[100,29081],[100,29163],[100,29246],[100,29337],[100,29420],[100,29503],[100,29589],[100,29673],[100,29761],[100,29844],[100,29927],[100,30012],[100,30094],[100,30177],[100,30261],[100,30344],[100,30427],[100,30514],[100,30594],[100,30677],[100,30761],[100,30844],[100,30927],[100,31010],[100,31094],[100,31178],[100,31260],[100,31344],[100,31427],[100,31511],[100,31607],[100,31684],[100,31767],[100,31851],[100,31941],[100,32024],[100,32108],[100,32191],[100,32275],[100,32358],[100,32441],[100,32525],[100,32608],[100,32691],[100,32775],[100,32858],[100,32941],[100,33025],[100,33108],[100,33192],[100,33275],[100,33358],[100,33441],[100,33525],[100,33608],[100,33692],[100,33775],[100,33858],[100,33942],[100,34025],[100,34113],[100,34198],[100,34282],[100,34365],[100,34448],[100,34532],[100,34617],[100,34698],[100,34782],[100,34865],[100,34950],[100,35032],[100,35115],[100,35200],[100,35282],[100,35365],[100,35449],[100,35532],[100,35615],[100,35699],[100,35782],[100,35865],[100,35949],[100,36032],[100,36122],[100,36206],[100,36292],[100,36382],[100,36463],[100,36546],[100,36629],[100,36713],[100,36796],[100,36879],[100,36963],[100,37046],[100,37129],[100,37213],[100,37297],[100,37379],[100,37463],[100,37546],[100,37629],[100,37713],[100,37796],[100,37879],[100,37963],[100,38046],[100,38130],[100,38213],[100,38296],[100,38379],[100,38466],[100,38549],[100,38636],[100,38720],[100,38803],[100,38887],[100,38970],[100,39054],[100,39137],[100,39221],[100,39303],[100,39387],[100,39470]]",842.5055,844.3875,100,1.1547,"[{""rating"":100,""responseTime"":1.1546999999284253}]",space,1.3557,,844.3876,Definitely yes,100,844.3892,,,[],,0,9,9,9,1,audio/Narrative7Situation9.wav,audio/Narrative8Situation9.wav,audio/Narrative5Situation9.wav,audio/Narrative6Situation9.wav,2,3,3,4,,,,,,,,,,,,,,,,,,,,,,,,,,,,,,,,,,,,,,,
,,,,,660604f1a9c44af2909516f6,2025-07-07_19h00.51.928,group3.4_multiperson,2023.2.2,Win32,144.9275362,686c2ebf0248f13bef9af11f,686c7b8f4b30405d575a19f1,,,,,,,,,,,,,,,,,,,,,,,,,,,,,844.3894,2,audio/Narrative6Situation1.wav,846.3947,,846.3948,872.9609,"[[6.1,3599],[3.2,3682],[1.5,3766],[1.3,26165],[8.2,26248],[41,26331],[59.1,26413],[72.1,26497]]",872.9609,880.2952,49.79166667,6.7879,"[{""rating"":76.875,""responseTime"":2.364100000023768},{""rating"":49.791666666666664,""responseTime"":6.787899999976162}]",space,6.818,,880.2952,Not at all,0,880.2967,,,[],,0,10,10,10,1,audio/Narrative8Situation1.wav,audio/Narrative7Situation1.wav,audio/Narrative6Situation1.wav,audio/Narrative5Situation1.wav,5,2,2,5,,,,,,,,,,,,,,,,,,,,,,,,,,,,,,,,,,,,,,,
,,,,,660604f1a9c44af2909516f6,2025-07-07_19h00.51.928,group3.4_multiperson,2023.2.2,Win32,144.9275362,686c2ebf0248f13bef9af11f,686c7b8f4b30405d575a19f1,,,,,,,,,,,,,,,,,,,,,,,,,,,,,880.2968,2,audio/Narrative6Situation2.wav,883.3023,,883.3023,911.7936,"[[51.8,2090],[50.9,2173],[50.8,2257],[51.3,2340],[50.7,2423],[45.3,2507],[45.9,2591],[45.6,2676],[45.6,2757],[45.6,2840],[45.6,2924],[45.6,3007],[45.6,3090],[52.8,3264],[55.2,3351],[59.7,3430],[67.1,3514],[72.8,3599],[78.5,3682],[81.6,3766],[86.1,3850],[89,3932],[90.4,4014],[90.9,4097],[93.2,4181],[95.5,4264],[97.7,4347],[98.5,4434],[98.8,4514],[100,4599],[100,4681],[100,4765],[100,4848],[100,4931],[100,5014],[100,5098],[100,5181],[100,5265],[100,5348],[100,5431],[100,5521],[100,5605],[100,5688],[100,5778],[100,5861],[100,5945],[100,6028],[100,6111],[100,6195],[100,6279],[100,6362],[100,6445],[100,6528],[100,6614],[100,6695],[100,6779],[100,6862],[100,6945],[100,7028],[100,7112],[100,7195],[100,7278],[100,7361],[100,7445],[100,7528],[100,7614],[100,7695],[100,7778],[100,7869],[100,7952],[100,8036],[100,8119],[100,8209],[100,8293],[100,8376],[100,8459],[100,8542],[100,8627],[100,8709],[100,8792],[100,8876],[100,8959],[100,9042],[100,9126],[100,9209],[100,9293],[100,9376],[100,9459],[100,9542],[100,9626],[100,9710],[100,9793],[100,9876],[100,9959],[100,10047],[100,10126],[100,10217],[100,10299],[100,10383],[100,10466],[100,10550],[100,10633],[100,10718],[100,10800],[100,10883],[100,10966],[100,11050],[100,11133],[100,11216],[100,11300],[100,11383],[100,11467],[100,11550],[100,11634],[100,11717],[100,11800],[100,11883],[100,11967],[100,12050],[100,12133],[100,12216],[100,12300],[100,12394],[100,12473],[100,12557],[100,12640],[100,12723],[100,12808],[100,12891],[100,12974],[100,13057],[100,13143],[100,13224],[100,13307],[100,13390],[100,13474],[100,13557],[100,13640],[100,13724],[100,13807],[100,13890],[100,13974],[100,14057],[100,14140],[100,14225],[100,14307],[100,14390],[100,14474],[100,14557],[100,14643],[100,14731],[100,14814],[100,14897],[100,14981],[100,15064],[100,15147],[100,15231],[100,15315],[100,15397],[100,15481],[100,15564],[100,15647],[100,15731],[100,15814],[100,15898],[100,15981],[100,16064],[100,16148],[100,16231],[100,16314],[100,16398],[100,16481],[100,16565],[100,16648],[100,16738],[100,16828],[100,16915],[100,17002],[100,17085],[100,17168],[100,17252],[100,17335],[100,17418],[100,17502],[100,17585],[100,17668],[100,17752],[100,17836],[100,17918],[100,18002],[100,18085],[100,18169],[100,18252],[100,18335],[100,18419],[100,18504],[100,18586],[100,18669],[100,18752],[100,18835],[100,18919],[100,19004],[100,19085],[100,19169],[100,19252],[100,19335],[100,19419],[100,19502],[100,19586],[100,19669],[100,19752],[100,19836],[100,19921],[100,20002],[100,20086],[100,20169],[100,20252],[100,20336],[100,20419],[100,20502],[100,20586],[100,20669],[100,20752],[100,20836],[100,20919],[100,21002],[100,21086],[100,21169],[100,21252],[100,21338],[100,21426],[100,21509],[100,21595],[100,21683],[100,21766],[100,21850],[100,21934],[100,22016],[100,22100],[100,22183],[100,22266],[100,22351],[100,22433],[100,22516],[100,22600],[100,22683],[100,22768],[100,22850],[100,22933],[100,23017],[100,23100],[100,23185],[100,23268],[100,23350],[100,23433],[100,23517],[100,23607],[100,23694],[100,23773],[100,23857],[100,23941],[100,24024],[100,24107],[100,24190],[100,24274],[100,24357],[100,24440],[100,24524],[100,24607],[100,24690],[100,24774],[100,24857],[100,24940],[100,25024],[100,25107],[100,25190],[100,25274],[100,25357],[100,25440],[100,25524],[100,25607],[100,25693],[100,25784],[100,25864],[100,25954],[100,26038],[100,26128],[100,26211],[100,26294],[100,26378],[100,26461],[100,26545],[100,26629],[100,26711],[100,26795],[100,26878],[100,26962],[100,27045],[100,27128],[100,27211],[100,27295],[100,27378],[100,27461],[100,27545],[100,27628],[100,27712],[100,27795],[100,27878],[100,27968],[100,28052],[100,28139],[100,28219],[100,28303],[100,28386],[100,28468]]",911.7937,913.1534,98.75,0.7542,"[{""rating"":98.75,""responseTime"":0.7542000000477174}]",space,0.8477,,913.1534,Not at all,0,913.1542,,,[],,0,11,11,11,1,audio/Narrative8Situation2.wav,audio/Narrative7Situation2.wav,audio/Narrative6Situation2.wav,audio/Narrative5Situation2.wav,3,3,3,3,,,,,,,,,,,,,,,,,,,,,,,,,,,,,,,,,,,,,,,
,,,,,660604f1a9c44af2909516f6,2025-07-07_19h00.51.928,group3.4_multiperson,2023.2.2,Win32,144.9275362,686c2ebf0248f13bef9af11f,686c7b8f4b30405d575a19f1,,,,,,,,,,,,,,,,,,,,,,,,,,,,,913.1544,2,audio/Narrative6Situation3.wav,918.1609,,918.1609,930.7599,"[[98.6,1417],[98.6,1500],[98.6,1583],[98.6,1667],[98.6,1750],[98.6,1833],[98.6,1917],[98.6,2000],[99.1,2085],[99.1,2167],[99.1,2250],[99.1,2333],[99.1,2428],[99.1,2507],[99.1,2597],[99.1,2687],[99.1,2771],[99.1,2855],[99.1,2938],[99,3021],[99,3105],[99,3188],[99,3271],[99,3354],[99,3438],[99,3521],[78.9,3604],[16.5,3690],[5.5,7218],[26.4,7302],[40.3,7383],[52.6,7466],[64.1,7549],[78.5,7634],[90.1,7716],[97.8,7801],[100,7884],[100,7966],[100,8049],[100,8133],[100,8216],[100,8299],[100,8384],[100,8466],[100,8549],[100,8633],[100,8717],[100,8800],[100,8884],[100,8966],[100,9049],[100,9136],[100,9230],[100,9313],[100,9397],[100,9480],[100,9563],[100,9647],[100,9730],[100,9813],[100,9897],[100,9981],[100,10065],[100,10147],[100,10230],[100,10315],[100,10397],[100,10481],[100,10566],[100,10647],[100,10730],[100,10814],[100,10897],[100,10980],[100,11064],[100,11147],[100,11237],[100,11333],[100,11411],[100,11494],[100,11585],[100,11668],[100,11751],[100,11835],[100,11918],[100,12002],[100,12085],[100,12168],[100,12251],[100,12335],[100,12418],[100,12501],[100,12585]]",930.76,932.9199,98.75,1.2529,"[{""rating"":98.75,""responseTime"":1.25289999997608}]",space,1.6497,,932.9199,Definitely yes,100,932.9214,,,[],,0,12,12,12,1,audio/Narrative8Situation3.wav,audio/Narrative7Situation3.wav,audio/Narrative6Situation3.wav,audio/Narrative5Situation3.wav,4,8,5,3,,,,,,,,,,,,,,,,,,,,,,,,,,,,,,,,,,,,,,,
,,,,,660604f1a9c44af2909516f6,2025-07-07_19h00.51.928,group3.4_multiperson,2023.2.2,Win32,144.9275362,686c2ebf0248f13bef9af11f,686c7b8f4b30405d575a19f1,,,,,,,,,,,,,,,,,,,,,,,,,,,,,932.9215,2,audio/Narrative6Situation4.wav,934.9272,,934.9272,947.5261,"[[98.6,9216],[98.6,9299],[98.4,9383],[98.3,9466],[98.3,9549],[97.6,9636],[84.2,9717],[67,9799],[54.8,9966],[52,10049],[50.1,10133],[50,10216],[50.6,10299],[61.4,10383],[71.9,10468],[74,10549],[74,10633],[74,10716],[74,10799],[74.1,10886],[77.8,10982],[84.7,11070],[85.8,11154],[86.4,11237],[90.8,11320],[94.1,11404],[97.2,11487],[99.2,11570],[100,11654],[100,11737],[100,11820],[100,11904],[100,11987],[100,12071],[100,12154],[100,12238],[100,12320],[100,12404],[100,12488],[100,12572]]",947.5261,948.9294,98.95833333,0.782,"[{""rating"":98.95833333333333,""responseTime"":0.7820000000000391}]",space,0.8888,,948.9295,Definitely yes,100,948.9305,,,[],,0,13,13,13,1,audio/Narrative8Situation4.wav,audio/Narrative7Situation4.wav,audio/Narrative6Situation4.wav,audio/Narrative5Situation4.wav,3,3,2,1,,,,,,,,,,,,,,,,,,,,,,,,,,,,,,,,,,,,,,,
,,,,,660604f1a9c44af2909516f6,2025-07-07_19h00.51.928,group3.4_multiperson,2023.2.2,Win32,144.9275362,686c2ebf0248f13bef9af11f,686c7b8f4b30405d575a19f1,,,,,,,,,,,,,,,,,,,,,,,,,,,,,948.9306,2,audio/Narrative6Situation5.wav,950.9362,,950.9362,958.8817,"[[98.9,7785],[98.9,7869]]",958.8818,960.8889,99.47916667,1.106,"[{""rating"":99.47916666666667,""responseTime"":1.1059999999999945}]",space,1.4875,,960.8889,Not at all,0,960.8903,,,[],,0,14,14,14,1,audio/Narrative8Situation5.wav,audio/Narrative7Situation5.wav,audio/Narrative6Situation5.wav,audio/Narrative5Situation5.wav,2,5,2,5,,,,,,,,,,,,,,,,,,,,,,,,,,,,,,,,,,,,,,,
,,,,,660604f1a9c44af2909516f6,2025-07-07_19h00.51.928,group3.4_multiperson,2023.2.2,Win32,144.9275362,686c2ebf0248f13bef9af11f,686c7b8f4b30405d575a19f1,,,,,,,,,,,,,,,,,,,,,,,,,,,,,960.8905,2,audio/Narrative6Situation6.wav,962.8961,,962.8961,973.9601,"[[98.2,1668],[97.8,1750],[97.8,1833],[97.8,1916],[97.8,2000],[97.8,2083],[99.7,2167],[100,2250],[100,2333],[100,2417],[100,2500],[100,2583],[100,2667],[100,2752],[100,2834],[100,2916],[100,3000],[100,3084],[100,3166],[100,3250],[100,3333],[100,3419],[100,3503],[100,3590],[100,3674],[100,3757],[100,3840],[100,3925],[100,4007],[100,4090],[100,4174],[100,4257],[100,4341],[100,4424],[100,4507],[100,4590],[100,4673],[100,4758],[100,4840],[100,4926],[100,5008],[100,5091],[100,5174],[100,5257],[100,5340],[100,5424],[100,5509],[100,5590],[100,5676],[100,5757],[100,5840],[100,5924],[100,6007],[100,6091],[100,6175],[100,6257],[100,6340],[100,6424],[100,6507],[100,6590],[100,6674],[100,6757],[100,6841],[100,6924],[100,7007],[100,7091],[100,7174],[100,7258],[100,7341],[100,7424],[100,7508],[100,7591],[100,7681],[100,7764],[100,7848],[100,7931],[100,8019],[100,8098],[100,8182],[100,8264],[100,8349],[100,8431],[100,8514],[100,8598],[100,8681],[100,8764],[100,8848],[100,8931],[100,9015],[100,9098],[100,9181],[100,9265],[100,9348],[100,9432],[100,9515],[100,9598],[100,9681],[100,9765],[100,9848],[100,9932],[100,10014],[100,10098],[100,10183],[100,10264],[100,10348],[100,10438],[100,10522],[100,10605],[100,10688],[100,10772],[100,10855],[100,10939],[100,11022]]",973.9601,976.0925,100,1.1692,"[{""rating"":100,""responseTime"":1.1691999999284235}]",space,1.6181,,976.0925,Partially,50,976.0938,,,[],,0,15,15,15,1,audio/Narrative8Situation6.wav,audio/Narrative7Situation6.wav,audio/Narrative6Situation6.wav,audio/Narrative5Situation6.wav,2,3,2,3,,,,,,,,,,,,,,,,,,,,,,,,,,,,,,,,,,,,,,,
,,,,,660604f1a9c44af2909516f6,2025-07-07_19h00.51.928,group3.4_multiperson,2023.2.2,Win32,144.9275362,686c2ebf0248f13bef9af11f,686c7b8f4b30405d575a19f1,,,,,,,,,,,,,,,,,,,,,,,,,,,,,976.0938,2,audio/Narrative6Situation7.wav,981.0998,,981.0998,1005.9437,"[[100,1430],[99.6,1514],[99.6,1598],[99.6,1680],[99.6,1764],[99.6,1847],[99.6,1930],[99.6,2014],[99.6,2097],[99.6,2180],[99.6,2264],[99.6,2348],[99.6,2430],[99.6,2514],[99.6,2597],[99.6,2680],[99.6,2764],[99.6,2847],[99.6,2931],[99.6,3014],[99.6,3097],[98.2,3181],[62.8,3271],[28.6,3358],[16.4,3444],[7.6,3528],[4.6,3611],[4.6,3694],[4.3,3778],[3,3861],[2.9,3945],[2.7,4029],[2.5,4112],[2.1,4194],[2.1,4279],[2.1,4361],[1.4,4445],[1.4,4528],[1.4,4611],[1.4,4694],[1.4,4778],[1.4,4862],[1.4,4945],[1.4,5028],[1.5,5112],[3.9,5194],[8.5,5280],[11.9,5361],[17.5,5449],[24.1,5539],[28.3,5618],[34.5,5704],[40,5787],[42.8,5869],[44.5,5953],[46.8,6035],[48.1,6120],[48.4,6202],[49.1,6285],[50.5,6368],[50.6,6452],[52.2,6537],[55.6,6620],[57.4,6702],[60.1,6785],[66.8,6870],[71.9,6952],[74.1,7035],[80.4,7120],[87.2,7202],[93,7286],[95.9,7368],[99.2,7452],[100,7541],[100,7623],[100,7702],[100,7792],[100,7876],[99.8,7966],[99.6,8051],[99.4,8133],[99.4,8216],[99.3,8299],[99.3,8383],[99.3,8466],[99.3,8549],[99.3,8633],[99.2,8716],[99.2,8800],[99.2,8884],[99.2,8966],[99.2,9049],[99.2,9133],[99.2,9217],[99.2,9299],[99.2,9383],[99.2,9466],[99.2,9549],[99.2,9633],[99.2,9716],[99.2,9802],[99.2,9890],[99.2,9973],[99.2,10056],[99.2,10140],[99.2,10223],[99.2,10306],[99.2,10390],[99.2,10475],[99.2,10557],[99.2,10640],[99.2,10723],[99.2,10807],[99.2,10890],[99.2,10973],[99.2,11057],[99.2,11141],[99.2,11223],[99.2,11308],[99.2,11390],[99.2,11476],[99.2,11559],[99.2,11640],[99.2,11723],[99.2,11807],[99.2,11890],[99.2,11973],[99.2,12057],[99.2,12143],[99.2,12241],[99.2,12327],[99.2,12411],[99.2,12494],[99.2,12578],[99.2,12661],[99.2,12744],[99.2,12828],[99.2,12911],[99.2,12994],[99.2,13078],[99.2,13161],[99.2,13244],[99.2,13328],[99.2,13411],[99.2,13495],[99.2,13578],[99.2,13663],[99.2,13745],[99.2,13828],[99.2,13911],[99.1,13994],[99.1,14078],[99.1,14162],[99.1,14244],[99.1,14328],[99.1,14414],[99.1,14501],[99.1,14587],[99.1,14675],[99.1,14758],[99.1,14842],[99.1,14926],[99.1,15008],[99.1,15092],[99.1,15176],[99.1,15258],[99.1,15342],[99.1,15425],[99.1,15508],[99.1,15592],[99.1,15675],[99.1,15759],[99.1,15842],[99.1,15925],[99.1,16009],[99.1,16092],[99.1,16177],[99.1,16259],[99.1,16342],[99.1,16425],[99.1,16509],[99.1,16592],[99.1,16675],[99.1,16759],[99.1,16845],[99.1,16932],[99.1,17016],[99.1,17100],[99.1,17183],[99.1,17266],[99.1,17349],[99.1,17432],[99.1,17516],[99.1,17599],[99.1,17682],[99.1,17766],[99.1,17849],[99.1,17932],[99.1,18016],[99.1,18099],[99.1,18182],[99.1,18266],[99.1,18350],[99.1,18432],[99.1,18517],[99.1,18599],[99.1,18682],[99.1,18767],[99.1,18849],[99.1,18935],[99.1,19019],[99.1,19111],[99.1,19190],[99.1,19283],[99.1,19370],[99.1,19453],[99.1,19537],[99.1,19620],[99.1,19704],[99.1,19787],[99.1,19870],[99.1,19953],[99.1,20037],[99.1,20120],[99.1,20204],[99.1,20287],[99.1,20370],[99.1,20454],[99.1,20537],[99.1,20620],[99.1,20704],[99.1,20787],[99.1,20870],[99.1,20954],[99.1,21037],[99.1,21120],[99.1,21204],[99.1,21287],[99.1,21377],[99.1,21461],[99.1,21547],[99.1,21637],[99.1,21727],[99.1,21809],[99.1,21898],[99.1,21981],[99.1,22066],[99.1,22148],[99.1,22232],[99.1,22315],[99.1,22398],[99.1,22481],[99.1,22565],[99.1,22648],[99.1,22732],[99.1,22816],[99.1,22898],[99.1,22982],[99.1,23065],[99.1,23149],[99.1,23232],[99.1,23315],[99.1,23398],[99.1,23482],[99.1,23565],[99.1,23648],[99.1,23735],[99.1,23822],[99.1,23905],[99.1,23989],[99.1,24072],[99.1,24155],[99.1,24239],[99.1,24322],[99.1,24406],[99.1,24489],[99.1,24572],[99.1,24656],[99.1,24739],[99.1,24823]]",1005.9438,1008.6659,99.0625,1.7327,"[{""rating"":99.0625,""responseTime"":1.7327000000475437}]",space,2.2024,,1008.666,Not at all,0,1008.6674,,,[],,0,16,16,16,1,audio/Narrative8Situation7.wav,audio/Narrative7Situation7.wav,audio/Narrative6Situation7.wav,audio/Narrative5Situation7.wav,3,5,5,4,,,,,,,,,,,,,,,,,,,,,,,,,,,,,,,,,,,,,,,
,,,,,660604f1a9c44af2909516f6,2025-07-07_19h00.51.928,group3.4_multiperson,2023.2.2,Win32,144.9275362,686c2ebf0248f13bef9af11f,686c7b8f4b30405d575a19f1,,,,,,,,,,,,,,,,,,,,,,,,,,,,,1008.6676,2,audio/Narrative6Situation8.wav,1013.6735,,1013.6735,1020.519,"[[99,83],[99,166],[99,250],[99,333],[99,419],[99,503],[99,590],[99,673],[99,757],[99,841],[99,924],[99,1007],[99,1090],[99,1173],[99,1257],[99,1341],[99,1423],[99,1507],[99,1590],[99,1673],[99,1757],[99,1840],[98.1,1923],[95,2008],[79,2090],[55.8,2174],[48.3,2257],[34.6,2351],[24.9,2437],[6.3,2861],[4.3,2944],[3.1,3028],[2.5,3111],[1.6,3194],[1.1,3278],[1.1,3362],[1.1,3444],[1.1,3528],[1.1,3611],[0.4,3696],[1.3,4708],[1.3,4795],[1.3,4882],[0.7,4965],[0.2,5049]]",1020.5191,1022.3483,0.625,0.9136,"[{""rating"":0.6249999999999978,""responseTime"":0.9136000000237345}]",space,1.313,,1022.3484,Not at all,0,1022.3493,,,[],,0,17,17,17,1,audio/Narrative8Situation8.wav,audio/Narrative7Situation8.wav,audio/Narrative6Situation8.wav,audio/Narrative5Situation8.wav,3,2,5,3,,,,,,,,,,,,,,,,,,,,,,,,,,,,,,,,,,,,,,,
,,,,,660604f1a9c44af2909516f6,2025-07-07_19h00.51.928,group3.4_multiperson,2023.2.2,Win32,144.9275362,686c2ebf0248f13bef9af11f,686c7b8f4b30405d575a19f1,,,,,,,,,,,,,,,,,,,,,,,,,,,,,1022.3494,2,audio/Narrative6Situation9.wav,1026.3522,,1026.3523,1036.2877,[],1036.2877,1063.4509,0.520833333,26.4642,"[{""rating"":0.5208333333333315,""responseTime"":26.464200000047867}]",space,26.6427,,1063.4509,Definitely yes,100,1063.4524,,,[],,0,18,18,18,1,audio/Narrative8Situation9.wav,audio/Narrative7Situation9.wav,audio/Narrative6Situation9.wav,audio/Narrative5Situation9.wav,3,2,4,3,,,,,,,,,,,,,,,,,,,,,,,,,,,,,,,,,,,,,,,
,,,,,660604f1a9c44af2909516f6,2025-07-07_19h00.51.928,group3.4_multiperson,2023.2.2,Win32,144.9275362,686c2ebf0248f13bef9af11f,686c7b8f4b30405d575a19f1,,,,,,,,,,,,,,,,,,,,,,,,,,,,,,,,,,,,,,,,,,,,,,,,,,,,,,,,,,,,,,,,,,,,,,1063.4525,1064.9443,space,0.9834,,1064.9444,1097.7474,space,32.4917,,,,,,,,,,,,,,,,,,,,,,,,,,
,,,,,660604f1a9c44af2909516f6,2025-07-07_19h00.51.928,group3.4_multiperson,2023.2.2,Win32,144.9275362,686c2ebf0248f13bef9af11f,686c7b8f4b30405d575a19f1,,,,,,,,,,,,,,,,,,,,,,,,,,,,,1100.3342,1,audio/Narrative8Situation9.wav,1102.3387,,,,,1134.1901,1137.2524,49.47916667,2.1882,"[{""rating"":49.47916666666667,""responseTime"":2.1882000000475728}]",space,2.5435,,1137.2524,Definitely yes,100,1137.2534,,,[],,,,,,,,,,,2,2,2,2,,,,,,,,,,,,,,,1097.7483,1100.3238,1102.339,3,1134.19,"[[0.1,6728],[0.2,6812],[7.4,21734],[12.7,21821],[13,21904],[12.6,21987],[10.9,22071],[11,22154],[11,22237],[11,22321],[11,22404],[11,22487],[11,22572],[11,22654],[11,22739],[11,22821],[11,22904],[11,22987],[11.3,23071],[9.6,23154],[5.4,23237],[2.2,23323],[0.5,23404],[0.2,24752],[6.9,24835],[9.8,24920],[11.3,25003],[14.9,25085],[20.2,25168],[21.9,25252],[26.6,25335],[26.6,25418],[26.6,25502],[26.6,25585],[31.9,25670],[39.8,25753],[47.6,25835],[52.1,25918],[54.9,26012],[54.9,26092],[54.9,26177],[54.9,26259],[54.6,26342],[54.2,26427],[53.8,26509],[54.8,26592],[55.8,26675],[55.8,26759],[55.8,26842],[55.8,26926],[55.8,27009],[55.8,27092],[55.8,27175],[55.9,27260],[55.9,27342],[55.9,27426],[55.9,27509],[55.9,27592],[56,27677],[60,27760],[70.9,27844],[79.4,27927],[84.8,28009],[87.5,28092],[91.5,28180],[94.7,28266],[100,28356],[100,28440],[100,28523],[100,28606],[100,28690],[100,28773],[100,28857],[100,28940],[100,29023],[100,29107],[100,29190],[100,29273],[100,29357],[100,29441],[100,29524],[100,29608],[100,29690],[100,29773],[100,29857],[100,29940],[100,30025],[100,30106],[100,30190],[100,30273],[100,30356],[100,30445],[100,30523],[100,30606],[100,30691],[100,30780],[100,30863],[100,30947],[100,31030],[100,31113],[100,31197],[100,31280],[100,31363],[100,31447],[100,31531],[100,31614],[100,31697],[100,31781]]",0,0,0,0,1,"Larry had recently lost his family, job and home, and was now living on his own in the park. He had most of his belongings, including some clothes, a blanket, and his mother’s special necklace. His family had been very important to him and he felt as though he did not have much going for him. One of his first days in the park he came across a family that did not have much food and looked very cold. He decided to give them some of his food and his blanket.","Larry had recently lost his family, job and home, and was now living on his own in the park. He had most of his belongings, including some clothes, a blanket, and his mother’s special necklace. His family had been very important to him and he felt as though he did not have much going for him. One of his first days in the park he came across a family that did not have much food and looked very cold. He decided to give them some of his food and his blanket.","Larry had recently lost his family, job and home, and was now living on his own in the park. He had most of his belongings, including some clothes, a blanket, and his mother’s special necklace. His family had been very important to him and he felt as though he did not have much going for him. One of his first days in the park he came across a family that did not have much food and looked very cold. He decided to give them some of his food and his blanket.","Larry had recently lost his family, job and home, and was now living on his own in the park. He had most of his belongings, including some clothes, a blanket, and his mother’s special necklace. His family had been very important to him and he felt as though he did not have much going for him. One of his first days in the park he came across a family that did not have much food and looked very cold. He decided to give them some of his food and his blanket.",,,,,,,,,,
,,,,,660604f1a9c44af2909516f6,2025-07-07_19h00.51.928,group3.4_multiperson,2023.2.2,Win32,144.9275362,686c2ebf0248f13bef9af11f,686c7b8f4b30405d575a19f1,,,,,,,,,,,,,,,,,,,,,,,,,,,,,1137.2537,1,audio/Narrative8Situation9.wav,1143.0585,space,,,,1176.5785,1179.3131,50.3125,1.4655,"[{""rating"":50.31250000000001,""responseTime"":1.46550000000002}]",space,2.2103,,1179.3131,Not at all,0,1179.3147,,,[],,,,,,,,,,,6,2,3,9,5.7854,,,,,,,,,,,,,,,,1143.0585,3,1176.5784,"[[14.8,4953],[10.3,5035],[10.3,5118],[10.3,5204],[9.7,5285],[7.6,5374],[4.7,5455],[1.5,5539],[0.5,5625],[0.7,12320],[0.7,12407],[0.7,12494],[0.7,12578],[0.7,12661],[0.7,12744],[0.7,12827],[0.7,12911],[0.7,12995],[0.7,13080],[0.7,13161],[0.7,13245],[0.7,13328],[0.7,13411],[0.7,13494],[0.7,13578],[0.7,13661],[0.7,13745],[0.7,13828],[0.7,13911],[0.7,13994],[0.7,14078],[0.7,14161],[0.7,14244],[0.7,14328],[0.7,14414],[0.7,14508],[0.7,14598],[0.7,14687],[0.7,14772],[0.7,14855],[0.7,14939],[0.7,15022],[0.7,15106],[0.7,15190],[0.7,15272],[0.7,15356],[0.7,15439],[0.7,15522],[0.7,15607],[0.7,15690],[0.7,15772],[0.7,15856],[0.7,15939],[0.7,16022],[0.7,16106],[0.7,16189],[0.7,16272],[0.7,16356],[0.7,16439],[0.7,16522],[0.7,16606],[0.7,16698],[0.7,16779],[0.7,16863],[0.7,16946],[0.7,17029],[0.7,17114],[0.7,17196],[0.7,17280],[0.7,17363],[0.7,17446],[0.7,17529],[0.7,17613],[0.7,17696],[0.7,17779],[0.7,17863],[0.7,17946],[0.7,18030],[0.7,18114],[0.7,18196],[0.7,18280],[0.7,18363],[0.7,18447],[0.7,18530],[0.7,18613],[0.7,18697],[0.7,18780],[0.7,18870],[0.7,18953],[0.7,19039],[0.7,19134],[0.7,19217],[0.7,19300],[0.7,19385],[0.7,19468],[0.7,19551],[1.4,19636],[7.5,19719],[26.5,19802],[41.4,19886],[44.5,19967],[49.5,20052],[52.4,20134],[57.3,20217],[61.9,20301],[61.9,20384],[61.9,20468],[61.9,20551],[62.6,20634],[68.3,20718],[73.1,20803],[76.8,20884],[77.7,20970],[78.6,21059],[81.9,21141],[84.7,21228],[86.4,21317],[87,21398],[87,21481],[87,21565],[87,21649],[85.9,21731],[85.2,21815],[84.9,21898],[84.9,21982],[85.1,22065],[87.5,22148],[91,22231],[93.8,22315],[96.3,22398],[98.1,22482],[98.2,22565],[98.2,22648],[98.9,22733],[100,22817],[100,22898],[100,22982],[100,23065],[100,23148],[100,23232],[100,23323],[100,23405],[100,23489],[100,23572],[100,23655],[100,23739],[100,23822],[100,23906],[100,23989],[100,24072],[100,24155],[100,24239],[100,24322],[100,24405],[100,24489],[100,24572],[100,24655],[100,24739],[100,24822],[100,24906],[100,24989],[100,25072],[100,25155],[100,25239],[100,25322],[100,25405],[100,25491],[100,25579],[100,25663],[100,25748],[100,25829],[100,25913],[100,25998],[100,26080],[100,26163],[100,26246],[100,26329],[100,26413],[100,26498],[100,26580],[100,26663],[100,26753],[100,26836],[100,26920],[100,27003],[100,27086],[100,27170],[100,27253],[100,27336],[100,27420],[99.9,27503],[99.8,27586],[99.6,27677],[99.5,27767],[99.3,27854],[99.3,27933],[99,28020],[98.8,28100],[98.5,28184],[98.3,28267],[98.2,28350],[98.1,28434],[21.9,29269],[19.5,29350],[19.4,29436],[17,29519],[1.6,30449],[3.1,30533],[3.1,30615],[3.1,30698],[3.1,30781],[3.1,30865],[3.1,30948],[3,31031],[1.8,31115],[0.4,31198]]",0,1,1,1,1,"It was just another Sunday afternoon for Lucy, she was on her way to the farmer's market to pick up some produce. When she arrived at the old train depot that housed the market, she noticed two men fighting on the steps. Before she could call for help, one of the men crumpled to his knees. The other man dropped an object that appeared to be a knife and ran off. When Lucy approached the crime scene she realized that the man who had been murdered was the Mayor and that he had a gunshot wound.","One day at work, Margaret walked up to her partner, Al, to ask him to talk to the chief of staff at the local hospital where she worked as a nurse.","Luke always thought of himself as an honest man. That's why during his evening jog around the swamp, he pondered his recent affair with the receptionist at work. Luke looked up at the sky and asked God why he was so weak and unfaithful. He thought of the impact this would have on his family and told God of his conflicted feelings toward telling his wife Marta.","Linda and Amy had been best friends since kindergarten, they even found homes on the same street in the forest on the edge of town. Their biggest fight had been over who gets the bigger slice of cake, until Amy married Dan. Linda loathed Dan, she thought he was manipulative and had a violent temper. She only put up with him because Amy loved him. ",,,,,,,,,,
,,,,,660604f1a9c44af2909516f6,2025-07-07_19h00.51.928,group3.4_multiperson,2023.2.2,Win32,144.9275362,686c2ebf0248f13bef9af11f,686c7b8f4b30405d575a19f1,,,,,,,,,,,,,,,,,,,,,,,,,,,,,1179.3148,1,audio/Narrative8Situation9.wav,1183.3206,,,,,1201.8301,1204.761,50.52083333,2.1812,"[{""rating"":50.520833333333336,""responseTime"":2.1812000000477383}]",space,2.412,,1204.7611,Not at all,0,1204.7619,,,[],,,,,,,,,,,4,5,2,2,,,,,,,,,,,,,,,,,1183.3207,3,1201.8301,"[[999,0],[999,83],[999,166],[999,250],[999,333],[999,416],[999,499],[999,585],[999,666],[999,749],[999,833],[999,916],[999,1000],[999,1083],[999,1166],[999,1257],[999,1340],[999,1423],[999,1507],[999,1590],[999,1673],[999,1757],[999,1840],[999,1925],[999,2007],[999,2092],[999,2178],[999,2257],[999,2340],[999,2423],[999,2507],[999,2590],[999,2675],[10,2758],[1.8,2840],[1,8528],[2.4,8612],[2.7,8695],[6.7,8778],[9,8864],[9,8946],[9,9029],[9,9112],[9,9195],[9,9278],[9,9362],[9,9445],[9,9528],[9,9613],[9,9695],[10.1,9779],[45.7,10528],[47.6,10612],[49.3,10695],[50.3,10786],[51.3,10869],[51.6,10952],[51.9,11038],[51.7,11120],[51.7,11202],[51.7,11286],[51.7,11369],[51.7,11453],[51.7,11536],[51.7,11619],[52.6,11702],[56.7,11786],[58.3,11871],[59.3,11954],[60.2,12037],[61.8,12119],[63.6,12202],[67,12288],[71.1,12371],[75.6,12454],[76.6,12536],[77.6,12621],[78.6,12702],[79.6,12789],[80.2,12880],[81.5,12959],[83.1,13044],[84.9,13126],[85.8,13210],[86.6,13295],[87.4,13378],[88.3,13460],[88.9,13543],[90.1,13626],[91.5,13709],[92.5,13793],[93.2,13876],[94.3,13960],[95.1,14044],[95.7,14128],[96.5,14210],[97,14293],[97.5,14376],[97.7,14460],[98,14543],[98.3,14626],[98.4,14710],[98.6,14793],[98.6,14877],[98.6,14970],[98.6,15050],[98.8,15133],[99.1,15217],[99.2,15300],[99.2,15383],[99.2,15468],[99.2,15550],[99.3,15634],[99.8,15717],[100,15800],[100,15883],[100,15967],[100,16050],[100,16134],[100,16217],[100,16300],[100,16384],[100,16467],[100,16551],[100,16634],[100,16717],[100,16801],[100,16884],[100,16967],[100,17050],[100,17134],[100,17224],[100,17307],[100,17391],[100,17474],[100,17557],[100,17641],[100,17724],[100,17808],[100,17891],[100,17974],[100,18057],[100,18141],[100,18224],[100,18307],[100,18391],[100,18474]]",0,2,2,2,1,On the ground beside him was a pen that she had mistaken for a knife. Lucy looked for the gunman and saw a suspicious man in black with distinct pointy features darting into an alley across the street. Cops who were nearby chased the man who had fled and arrested him.,"While waiting outside the chief of staff's office, Al heard nondescript shouting and yelling, there was a loud clatter in the room and then an eerie silence. An unfamiliar employee ran hastily out of the office with a terrified look on their face.","Suddenly, Luke heard a woman call out his name and when he turned around he saw Carly, his receptionist, across the road with a gun in her hand. Carly ran to him and explained how she had followed him here to confess her love. She exclaimed if Luke didn't love her back that she would kill him and his family. Carly explained that the only way they could be together is to kill Marta.","This feeling of hate between Amy and Dan was mutual, Dan didn't like how much time his wife spent with her and thought Amy was creating distance between their marriage. That's why Dan decided to try and tarnish Linda's reputation with his wife, in hopes it would get rid of her. He came home one afternoon and exclaimed that Linda had tried to kiss him. Amy was taken aback and immediately called Linda to confront her about these accusations. When Linda arrived she denied having made a move on Dan, but discovered Dan had enlisted the help of his friend Will who said he witnessed it all happen.",,,,,,,,,,
